Time,lat_estimated,lon_estimated,latitude,longitude,RealTime,CalculationTime,MeasuredVelocity,Roll,SteeringAngle,RollRate,gy,gz,ax,ay,az,imu_read_timing,v_estimated,yaw_estimated,heading_estimated,x_estimated,y_estimated,GPS_timestamp,x_GPS,y_GPS,status,NMEA timestamp
0.05138,57.68798292,11.98126492,57.68798583,11.98126250,11:35:22.415497,0.05138,0.05132,0.00000,0.00094,0.07362,-0.00453,-0.00560,0.02105,0.03544,1.00138,0.00001,0.00000,0.00000,-0.01971,0.14364,-0.32432,0.01759,1.43639,-3.24319,A,113522.30
0.06100,57.68798029,11.98126709,57.68798583,11.98126250,11:35:22.424914,0.06100,0.00460,0.00000,0.00525,0.07057,-0.00392,-0.01248,0.01629,0.05057,1.00211,0.05587,0.00000,0.00020,-0.01995,0.27291,-0.61621,0.01759,1.43639,-3.24319,A,113522.30
0.07298,57.68797793,11.98126905,57.68798583,11.98126250,11:35:22.436903,0.07298,0.00576,0.00000,0.00636,0.06843,-0.00148,-0.01324,0.01330,0.04959,1.00821,0.06720,0.00000,0.00040,-0.01988,0.38926,-0.87890,0.01759,1.43639,-3.24319,A,113522.30
0.08198,57.68797580,11.98127081,57.68798583,11.98126250,11:35:22.445904,0.08198,0.00437,0.00000,0.00738,0.07087,-0.00011,-0.01522,0.02330,0.05069,1.00363,0.07697,0.00000,0.00060,-0.01980,0.49398,-1.11533,0.01759,1.43639,-3.24319,A,113522.30
0.09249,57.68797389,11.98127240,57.68798583,11.98126250,11:35:22.456408,0.09249,0.00441,0.00000,0.00851,0.07072,-0.00163,-0.01156,0.03385,0.05466,0.99839,0.08745,0.00000,0.00079,-0.01971,0.58822,-1.32812,0.01759,1.43639,-3.24319,A,113522.30
0.10294,57.68797217,11.98127382,57.68798583,11.98126250,11:35:22.466855,0.10294,0.00446,0.00000,0.00961,0.06797,-0.00591,-0.01293,0.03209,0.05496,0.99149,0.09813,0.00000,0.00099,-0.01961,0.67303,-1.51962,0.01759,1.43639,-3.24319,A,113522.30
0.11331,57.68797062,11.98127511,57.68798583,11.98126250,11:35:22.477230,0.11331,0.00443,0.00000,0.01059,0.06660,-0.00560,-0.01125,0.02098,0.05118,0.98857,0.10821,0.00000,0.00119,-0.01953,0.74937,-1.69198,0.01759,1.43639,-3.24319,A,113522.30
0.13514,57.68796924,11.98127628,57.68798600,11.98126267,11:35:22.499065,0.13514,0.01588,0.00000,0.01168,0.06797,-0.00255,-0.01492,0.02001,0.05655,0.98966,0.11884,0.00000,0.00138,-0.01947,0.81906,-1.84525,0.13247,1.44630,-3.22465,A,113522.40
0.15069,57.68796800,11.98127734,57.68798600,11.98126267,11:35:22.514625,0.15069,0.00582,0.00000,0.01366,0.06583,-0.00912,-0.01584,0.04593,0.05215,0.98057,0.14463,0.00000,0.00158,-0.01975,0.88179,-1.98319,0.13247,1.44630,-3.22465,A,113522.40
0.15961,57.68796688,11.98127829,57.68798600,11.98126267,11:35:22.523754,0.15961,0.00434,0.00000,0.01464,0.06095,-0.00942,-0.01461,0.00555,0.05941,0.99503,0.15481,0.00000,0.00177,-0.01981,0.93824,-2.10733,0.13247,1.44630,-3.22465,A,113522.40
0.17001,57.68796588,11.98127914,57.68798600,11.98126267,11:35:22.533932,0.17001,0.00435,0.00000,0.01576,0.06247,0.00020,-0.01782,-0.00647,0.06832,1.00424,0.16520,0.00000,0.00197,-0.01986,0.98904,-2.21907,0.13247,1.44630,-3.22465,A,113522.40
0.18051,57.68796497,11.98127991,57.68798600,11.98126267,11:35:22.544438,0.18051,0.00443,0.00000,0.01673,0.06186,-0.00041,-0.01690,0.00592,0.05911,0.99363,0.17545,0.00000,0.00217,-0.01993,1.03477,-2.31962,0.13247,1.44630,-3.22465,A,113522.40
0.19083,57.68796416,11.98128060,57.68798600,11.98126267,11:35:22.554748,0.19083,0.00435,0.00000,0.01777,0.06354,0.00463,-0.01965,0.02300,0.06228,0.98332,0.18603,0.00000,0.00237,-0.01996,1.07592,-2.41013,0.13247,1.44630,-3.22465,A,113522.40
0.20142,57.68796343,11.98128123,57.68798600,11.98126267,11:35:22.565336,0.20142,0.00454,0.00000,0.01878,0.06705,0.00096,-0.01522,0.01122,0.06051,0.99210,0.19623,0.00000,0.00257,-0.01997,1.11296,-2.49158,0.13247,1.44630,-3.22465,A,113522.40
0.21163,57.68796277,11.98128179,57.68798600,11.98126267,11:35:22.575779,0.21163,0.00435,0.00000,0.01963,0.06079,-0.00683,-0.01721,0.01104,0.05466,1.00150,0.20682,0.00000,0.00277,-0.01995,1.14629,-2.56489,0.13247,1.44630,-3.22465,A,113522.40
0.22202,57.68796217,11.98128229,57.68798600,11.98126267,11:35:22.585938,0.22202,0.00435,0.00000,0.02041,0.06675,-0.00392,-0.01614,0.01330,0.04740,1.00022,0.21721,0.00000,0.00297,-0.01991,1.17629,-2.63086,0.13247,1.44630,-3.22465,A,113522.40
0.23249,57.68796164,11.98128274,57.68798600,11.98126267,11:35:22.596402,0.23249,0.00440,0.00000,0.02123,0.06217,-0.00713,-0.02072,0.01214,0.05405,1.00180,0.22744,0.00000,0.00317,-0.01987,1.20329,-2.69024,0.13247,1.44630,-3.22465,A,113522.40
0.25487,57.68796116,11.98128319,57.68798600,11.98126300,11:35:22.618790,0.25487,0.01633,0.00000,0.02216,0.05575,-0.00774,-0.02072,0.00531,0.06643,1.00857,0.23808,0.00000,0.00337,-0.01983,1.22958,-2.74368,0.25216,1.46611,-3.22465,A,113522.50
0.26513,57.68796073,11.98128359,57.68798600,11.98126300,11:35:22.629045,0.26513,0.00455,0.00000,0.02396,0.05866,0.00356,-0.02210,-0.01537,0.07924,1.01089,0.26000,0.00000,0.00356,-0.01995,1.25323,-2.79178,0.25216,1.46611,-3.22465,A,113522.50
0.27591,57.68796034,11.98128394,57.68798600,11.98126300,11:35:22.639855,0.27591,0.00494,0.00000,0.02497,0.06064,0.00493,-0.02378,0.00994,0.06832,0.98509,0.27084,0.00000,0.00376,-0.01989,1.27452,-2.83507,0.25216,1.46611,-3.22465,A,113522.50
0.28592,57.68795999,11.98128427,57.68798600,11.98126300,11:35:22.649845,0.28592,0.00455,0.00000,0.02565,0.05759,0.00005,-0.02133,0.03495,0.05130,0.95746,0.28092,0.00000,0.00396,-0.01980,1.29368,-2.87403,0.25216,1.46611,-3.22465,A,113522.50
0.29650,57.68795967,11.98128456,57.68798600,11.98126300,11:35:22.660425,0.29650,0.00458,0.00000,0.02642,0.05316,-0.00453,-0.02133,0.02708,0.05850,0.95550,0.29143,0.00000,0.00416,-0.01968,1.31092,-2.90909,0.25216,1.46611,-3.22465,A,113522.50
0.30656,57.68795939,11.98128482,57.68798600,11.98126300,11:35:22.670478,0.30656,0.00441,0.00000,0.02725,0.05224,-0.01370,-0.01965,-0.00903,0.06631,0.97447,0.30173,0.00000,0.00436,-0.01955,1.32644,-2.94065,0.25216,1.46611,-3.22465,A,113522.50
0.31699,57.68795913,11.98128505,57.68798600,11.98126300,11:35:22.680912,0.31699,0.00462,0.00000,0.02820,0.05346,-0.00545,-0.02469,-0.01251,0.07558,0.99406,0.31175,0.00000,0.00455,-0.01939,1.34041,-2.96905,0.25216,1.46611,-3.22465,A,113522.50
0.32720,57.68795890,11.98128526,57.68798600,11.98126300,11:35:22.691118,0.32720,0.00443,0.00000,0.02904,0.05132,-0.00560,-0.01996,-0.00537,0.07021,1.00540,0.32239,0.00000,0.00475,-0.01923,1.35298,-2.99461,0.25216,1.46611,-3.22465,A,113522.50
0.33760,57.68795870,11.98128545,57.68798600,11.98126300,11:35:22.701519,0.33760,0.00443,0.00000,0.03000,0.05804,-0.00392,-0.02133,-0.00140,0.07570,1.00217,0.33252,0.00000,0.00494,-0.01905,1.36429,-3.01761,0.25216,1.46611,-3.22465,A,113522.50
0.34815,57.68795851,11.98128562,57.68798600,11.98126300,11:35:22.712075,0.34815,0.00459,0.00000,0.03091,0.05438,-0.00209,-0.01721,0.00866,0.07466,1.00766,0.34309,0.00000,0.00513,-0.01886,1.37447,-3.03832,0.25216,1.46611,-3.22465,A,113522.50
0.37040,57.68795837,11.98128578,57.68798633,11.98126300,11:35:22.734324,0.37040,0.01644,0.00000,0.03184,0.05728,0.00295,-0.02469,-0.00287,0.07515,1.00546,0.35350,0.00000,0.00532,-0.01867,1.38364,-3.05324,0.36772,1.46611,-3.18759,A,113522.60
0.38355,57.68795825,11.98128592,57.68798633,11.98126300,11:35:22.747687,0.38355,0.00638,0.00000,0.03348,0.05255,-0.00667,-0.01736,0.01318,0.07491,0.97643,0.37842,0.00000,0.00551,-0.01848,1.39188,-3.06668,0.36772,1.46611,-3.18759,A,113522.60
0.39217,57.68795815,11.98128604,57.68798633,11.98126300,11:35:22.756099,0.39217,0.00461,0.00000,0.03423,0.05209,-0.01080,-0.01843,0.01659,0.07314,0.97325,0.38710,0.00000,0.00569,-0.01830,1.39931,-3.07877,0.36772,1.46611,-3.18759,A,113522.60
0.40250,57.68795805,11.98128616,57.68798633,11.98126300,11:35:22.766425,0.40250,0.00454,0.00000,0.03505,0.05117,-0.01034,-0.01675,-0.00165,0.07369,0.98009,0.39750,0.00000,0.00587,-0.01812,1.40599,-3.08965,0.36772,1.46611,-3.18759,A,113522.60
0.41273,57.68795796,11.98128626,57.68798633,11.98126300,11:35:22.776650,0.41273,0.00449,0.00000,0.03598,0.05041,-0.00927,-0.01981,-0.01403,0.08400,0.99320,0.40763,0.00000,0.00605,-0.01793,1.41200,-3.09944,0.36772,1.46611,-3.18759,A,113522.60
0.42299,57.68795788,11.98128635,57.68798633,11.98126300,11:35:22.786917,0.42299,0.00436,0.00000,0.03682,0.04720,-0.00759,-0.02194,-0.03178,0.08107,1.00857,0.41820,0.00000,0.00623,-0.01775,1.41741,-3.10826,0.36772,1.46611,-3.18759,A,113522.60
0.43344,57.68795781,11.98128643,57.68798633,11.98126300,11:35:22.797361,0.43344,0.00441,0.00000,0.03776,0.05362,0.00219,-0.02362,-0.02202,0.08796,1.03316,0.42838,0.00000,0.00641,-0.01758,1.42228,-3.11619,0.36772,1.46611,-3.18759,A,113522.60
0.44399,57.68795774,11.98128650,57.68798633,11.98126300,11:35:22.807919,0.44399,0.00457,0.00000,0.03834,0.05026,0.00386,-0.02653,0.00744,0.06448,1.03206,0.43896,0.00000,0.00659,-0.01740,1.42666,-3.12333,0.36772,1.46611,-3.18759,A,113522.60
0.45420,57.68795769,11.98128657,57.68798633,11.98126300,11:35:22.818117,0.45420,0.00438,0.00000,0.03881,0.04644,-0.00408,-0.02622,0.01806,0.05917,1.00223,0.44938,0.00000,0.00676,-0.01723,1.43061,-3.12976,0.36772,1.46611,-3.18759,A,113522.60
0.46475,57.68795763,11.98128663,57.68798633,11.98126300,11:35:22.828665,0.46475,0.00449,0.00000,0.03934,0.04415,-0.01614,-0.02530,0.00287,0.06387,0.97563,0.45965,0.00000,0.00693,-0.01705,1.43416,-3.13554,0.36772,1.46611,-3.18759,A,113522.60
0.48785,57.68795759,11.98128668,57.68798633,11.98126300,11:35:22.851786,0.48785,0.01719,0.00000,0.04012,0.04231,-0.01339,-0.02042,-0.04459,0.08003,0.95953,0.47020,0.00000,0.00710,-0.01688,1.43735,-3.14074,0.48499,1.46611,-3.18759,A,113522.70
0.50453,57.68795755,11.98128673,57.68798633,11.98126300,11:35:22.868472,0.50453,0.00568,0.00000,0.04178,0.04384,0.01349,-0.02301,-0.00366,0.08705,0.98814,0.49939,0.00000,0.00727,-0.01672,1.44023,-3.14543,0.48499,1.46611,-3.18759,A,113522.70
0.51366,57.68795751,11.98128677,57.68798633,11.98126300,11:35:22.877585,0.51366,0.00441,0.00000,0.04244,0.03941,0.01303,-0.02958,0.01000,0.08461,1.02169,0.50861,0.00000,0.00744,-0.01657,1.44282,-3.14964,0.48499,1.46611,-3.18759,A,113522.70
0.52427,57.68795747,11.98128681,57.68798633,11.98126300,11:35:22.888202,0.52427,0.00463,0.00000,0.04302,0.04201,0.00386,-0.03386,0.01287,0.07662,1.04584,0.51919,0.00000,0.00761,-0.01644,1.44515,-3.15344,0.48499,1.46611,-3.18759,A,113522.70
0.53437,57.68795744,11.98128685,57.68798633,11.98126300,11:35:22.898296,0.53437,0.00434,0.00000,0.04344,0.04445,0.00020,-0.03340,0.01488,0.06356,1.03114,0.52957,0.00000,0.00777,-0.01632,1.44724,-3.15685,0.48499,1.46611,-3.18759,A,113522.70
0.54476,57.68795742,11.98128688,57.68798633,11.98126300,11:35:22.908687,0.54476,0.00449,0.00000,0.04378,0.03941,-0.00866,-0.03263,0.01464,0.06173,1.00260,0.53966,0.00000,0.00793,-0.01620,1.44913,-3.15993,0.48499,1.46611,-3.18759,A,113522.70
0.55525,57.68795739,11.98128691,57.68798633,11.98126300,11:35:22.919172,0.55525,0.00450,0.00000,0.04411,0.03208,-0.01446,-0.02973,0.01177,0.06246,0.97856,0.55042,0.00000,0.00810,-0.01610,1.45083,-3.16269,0.48499,1.46611,-3.18759,A,113522.70
0.56553,57.68795737,11.98128694,57.68798633,11.98126300,11:35:22.929451,0.56553,0.00438,0.00000,0.04484,0.03208,-0.01782,-0.02897,-0.02342,0.09211,0.98722,0.56048,0.00000,0.00826,-0.01601,1.45236,-3.16518,0.48499,1.46611,-3.18759,A,113522.70
0.57610,57.68795735,11.98128696,57.68798633,11.98126300,11:35:22.940027,0.57610,0.00455,0.00000,0.04564,0.03468,-0.01492,-0.03325,-0.03873,0.09516,0.99692,0.57106,0.00000,0.00842,-0.01595,1.45373,-3.16742,0.48499,1.46611,-3.18759,A,113522.70
0.58665,57.68795733,11.98128698,57.68798633,11.98126300,11:35:22.950573,0.58665,0.00471,0.00000,0.04653,0.03621,-0.00041,-0.03325,-0.02733,0.09827,0.97515,0.58181,0.00000,0.00858,-0.01591,1.45497,-3.16944,0.48499,1.46611,-3.18759,A,113522.70
0.61914,57.68795738,11.98128695,57.68798700,11.98126250,11:35:22.983067,0.61914,0.02697,0.00000,0.04727,0.03957,0.01089,-0.03141,-0.00470,0.08589,0.93684,0.59169,0.00000,0.00874,-0.01590,1.45311,-3.16384,0.61646,1.43639,-3.11346,A,113522.90
0.63260,57.68795743,11.98128692,57.68798700,11.98126250,11:35:22.996540,0.63260,0.00670,0.00000,0.04811,0.02857,-0.02591,-0.02943,-0.02965,0.06124,1.01028,0.62553,0.00000,0.00889,-0.01618,1.45144,-3.15880,0.61646,1.43639,-3.11346,A,113522.90
0.64058,57.68795747,11.98128689,57.68798700,11.98126250,11:35:23.004505,0.64058,0.00446,0.00000,0.04816,0.02170,-0.01889,-0.02989,-0.05386,0.06429,1.09763,0.63549,0.00000,0.00906,-0.01614,1.44994,-3.15427,0.61646,1.43639,-3.11346,A,113522.90
0.65086,57.68795750,11.98128687,57.68798700,11.98126250,11:35:23.014784,0.65086,0.00434,0.00000,0.04833,0.01803,0.00112,-0.03019,-0.01159,0.07607,1.12106,0.64606,0.00000,0.00922,-0.01610,1.44858,-3.15019,0.61646,1.43639,-3.11346,A,113522.90
0.66137,57.68795754,11.98128685,57.68798700,11.98126250,11:35:23.025289,0.66137,0.00445,0.00000,0.04881,0.01925,0.01058,-0.03691,0.02458,0.09687,1.09202,0.65627,0.00000,0.00938,-0.01603,1.44736,-3.14651,0.61646,1.43639,-3.11346,A,113522.90
0.67163,57.68795757,11.98128683,57.68798700,11.98126250,11:35:23.035770,0.67163,0.00432,0.00000,0.04976,0.01910,0.01043,-0.03890,0.02727,0.12047,1.00083,0.66683,0.00000,0.00954,-0.01593,1.44627,-3.14321,0.61646,1.43639,-3.11346,A,113522.90
0.68206,57.68795759,11.98128682,57.68798700,11.98126250,11:35:23.045983,0.68206,0.00436,0.00000,0.05040,0.01742,0.00188,-0.04164,-0.00683,0.09504,0.92885,0.67723,0.00000,0.00970,-0.01579,1.44528,-3.14023,0.61646,1.43639,-3.11346,A,113522.90
0.69254,57.68795762,11.98128680,57.68798700,11.98126250,11:35:23.056466,0.69254,0.00444,0.00000,0.05046,0.02002,-0.00285,-0.04058,-0.04563,0.05642,0.91024,0.68747,0.00000,0.00986,-0.01563,1.44439,-3.13756,0.61646,1.43639,-3.11346,A,113522.90
0.70284,57.68795764,11.98128679,57.68798700,11.98126250,11:35:23.066761,0.70284,0.00434,0.00000,0.05024,0.01284,-0.00133,-0.03462,-0.06271,0.04557,0.95160,0.69803,0.00000,0.01001,-0.01547,1.44359,-3.13515,0.61646,1.43639,-3.11346,A,113522.90
0.71333,57.68795766,11.98128678,57.68798700,11.98126250,11:35:23.077245,0.71333,0.00444,0.00000,0.05016,0.01024,0.00570,-0.02729,0.01812,0.05685,0.95630,0.70825,0.00000,0.01017,-0.01532,1.44287,-3.13298,0.61646,1.43639,-3.11346,A,113522.90
0.73604,57.68795769,11.98128680,57.68798717,11.98126283,11:35:23.099973,0.73604,0.01676,0.00000,0.05059,0.00566,0.00509,-0.02133,0.08558,0.09132,0.95062,0.71881,0.00000,0.01032,-0.01516,1.44420,-3.12917,0.73318,1.45620,-3.09493,A,113523.00
0.75223,57.68795772,11.98128682,57.68798717,11.98126283,11:35:23.116165,0.75223,0.00658,0.00000,0.05171,0.01864,-0.00820,-0.02561,-0.07893,0.12224,1.09220,0.74711,0.00000,0.01047,-0.01501,1.44540,-3.12575,0.73318,1.45620,-3.09493,A,113523.00
0.76056,57.68795775,11.98128684,57.68798717,11.98126283,11:35:23.124480,0.76056,0.00446,0.00000,0.05177,0.01024,-0.00194,-0.02592,-0.02952,0.07527,1.05804,0.75547,0.00000,0.01062,-0.01486,1.44648,-3.12267,0.73318,1.45620,-3.09493,A,113523.00
0.77082,57.68795778,11.98128685,57.68798717,11.98126283,11:35:23.134745,0.77082,0.00433,0.00000,0.05129,0.00597,0.00035,-0.02927,0.06728,0.03605,0.98271,0.76603,0.00000,0.01077,-0.01471,1.44746,-3.11989,0.73318,1.45620,-3.09493,A,113523.00
0.78133,57.68795780,11.98128687,57.68798717,11.98126283,11:35:23.145251,0.78133,0.00444,0.00000,0.05114,-0.01068,-0.00392,-0.02729,0.07497,0.06734,0.96551,0.77625,0.00000,0.01092,-0.01457,1.44833,-3.11739,0.73318,1.45620,-3.09493,A,113523.00
0.79186,57.68795782,11.98128688,57.68798717,11.98126283,11:35:23.155792,0.79186,0.00435,0.00000,0.05209,-0.01556,-0.01629,-0.02744,-0.02031,0.14079,0.95373,0.78683,0.00000,0.01106,-0.01442,1.44912,-3.11515,0.73318,1.45620,-3.09493,A,113523.00
0.80227,57.68795784,11.98128689,57.68798717,11.98126283,11:35:23.166199,0.80227,0.00474,0.00000,0.05323,-0.01358,-0.01248,-0.02424,-0.06637,0.15024,0.94318,0.79719,0.00000,0.01121,-0.01428,1.44983,-3.11313,0.73318,1.45620,-3.09493,A,113523.00
0.81250,57.68795785,11.98128690,57.68798717,11.98126283,11:35:23.176426,0.81250,0.00445,0.00000,0.05370,-0.01343,-0.00484,-0.02500,-0.07540,0.10974,0.95203,0.80742,0.00000,0.01135,-0.01413,1.45046,-3.11131,0.73318,1.45620,-3.09493,A,113523.00
0.82279,57.68795787,11.98128691,57.68798717,11.98126283,11:35:23.186710,0.82279,0.00435,0.00000,0.05350,-0.01236,0.00631,-0.02500,0.01055,0.06765,0.96703,0.81798,0.00000,0.01149,-0.01399,1.45104,-3.10967,0.73318,1.45620,-3.09493,A,113523.00
0.83344,57.68795788,11.98128692,57.68798717,11.98126283,11:35:23.197368,0.83344,0.00460,0.00000,0.05312,-0.01602,0.00264,-0.02576,0.08741,0.06130,1.02016,0.82820,0.00000,0.01163,-0.01385,1.45156,-3.10819,0.73318,1.45620,-3.09493,A,113523.00
0.85610,57.68795791,11.98128693,57.68798733,11.98126283,11:35:23.220040,0.85610,0.01687,0.00000,0.05345,-0.02060,-0.01690,-0.01690,0.03648,0.11712,1.05792,0.83877,0.00000,0.01177,-0.01369,1.45202,-3.10501,0.85327,1.45620,-3.07639,A,113523.10
0.86861,57.68795794,11.98128694,57.68798733,11.98126283,11:35:23.232546,0.86861,0.00659,0.00000,0.05340,-0.01709,0.00677,0.00173,-0.04898,0.09766,0.99515,0.86239,0.00000,0.01191,-0.01301,1.45244,-3.10215,0.85327,1.45620,-3.07639,A,113523.10
0.87674,57.68795796,11.98128694,57.68798733,11.98126283,11:35:23.240660,0.87674,0.00449,0.00000,0.05326,-0.01969,0.01318,0.00264,-0.00811,0.07033,0.90914,0.87163,0.00000,0.01204,-0.01245,1.45282,-3.09958,0.85327,1.45620,-3.07639,A,113523.10
0.88721,57.68795798,11.98128695,57.68798733,11.98126283,11:35:23.251131,0.88721,0.00457,0.00000,0.05327,-0.02671,0.01898,0.00249,0.02037,0.07967,0.84833,0.88239,0.00000,0.01216,-0.01170,1.45315,-3.09726,0.85327,1.45620,-3.07639,A,113523.10
0.89760,57.68795800,11.98128695,57.68798733,11.98126283,11:35:23.261521,0.89760,0.00456,0.00000,0.05412,-0.02778,0.01456,0.00050,0.00293,0.13225,0.87913,0.89254,0.00000,0.01228,-0.01085,1.45346,-3.09517,0.85327,1.45620,-3.07639,A,113523.10
0.90800,57.68795801,11.98128696,57.68798733,11.98126283,11:35:23.271935,0.90800,0.00457,0.00000,0.05416,-0.02977,0.02158,-0.00316,-0.08204,0.09778,0.99119,0.90295,0.00000,0.01239,-0.00989,1.45373,-3.09329,0.85327,1.45620,-3.07639,A,113523.10
0.91820,57.68795803,11.98128696,57.68798733,11.98126283,11:35:23.282119,0.91820,0.00437,0.00000,0.05373,-0.02610,0.03319,-0.01278,-0.04319,0.06893,1.06701,0.91338,0.00000,0.01249,-0.00886,1.45398,-3.09160,0.85327,1.45620,-3.07639,A,113523.10
0.92852,57.68795804,11.98128697,57.68798733,11.98126283,11:35:23.292447,0.92852,0.00443,0.00000,0.05327,-0.03084,0.03471,-0.01355,0.08613,0.07125,1.10599,0.92346,0.00000,0.01257,-0.00775,1.45420,-3.09008,0.85327,1.45620,-3.07639,A,113523.10
0.93884,57.68795806,11.98128697,57.68798733,11.98126283,11:35:23.302760,0.93884,0.00435,0.00000,0.05322,-0.04214,0.00784,-0.00851,0.18269,0.11285,1.11789,0.93404,0.00000,0.01265,-0.00656,1.45440,-3.08871,0.85327,1.45620,-3.07639,A,113523.10
0.94933,57.68795807,11.98128697,57.68798733,11.98126283,11:35:23.313256,0.94933,0.00445,0.00000,0.05288,-0.04428,-0.02255,0.00081,0.07405,0.08747,1.07543,0.94424,0.00000,0.01272,-0.00544,1.45458,-3.08748,0.85327,1.45620,-3.07639,A,113523.10
0.97286,57.68795813,11.98128691,57.68798783,11.98126217,11:35:23.336783,0.97286,0.01758,0.00000,0.05237,-0.04718,-0.02439,0.00936,-0.06631,0.07283,1.00070,0.95482,0.00000,0.01277,-0.00434,1.45078,-3.08081,0.96982,1.41658,-3.02080,A,113523.20
0.98276,57.68795818,11.98128685,57.68798783,11.98126217,11:35:23.346676,0.98276,0.00441,0.00000,0.05257,-0.03450,0.04143,0.00570,-0.05703,0.12060,0.86169,0.97792,0.00000,0.01282,-0.00231,1.44736,-3.07481,0.96982,1.41658,-3.02080,A,113523.20
0.99563,57.68795823,11.98128680,57.68798783,11.98126217,11:35:23.359794,0.99563,0.00688,0.00000,0.05274,-0.03481,0.03471,0.00829,0.08729,0.09388,0.83918,0.98957,0.00000,0.01284,-0.00149,1.44428,-3.06941,0.96982,1.41658,-3.02080,A,113523.20
1.00499,57.68795827,11.98128675,57.68798783,11.98126217,11:35:23.368922,1.00499,0.00585,0.00000,0.05245,-0.02992,0.00035,0.01181,0.13280,0.06588,0.89780,0.99914,0.00000,0.01285,-0.00070,1.44151,-3.06455,0.96982,1.41658,-3.02080,A,113523.20
1.01391,57.68795831,11.98128671,57.68798783,11.98126217,11:35:23.377822,1.01391,0.00437,0.00000,0.05234,-0.03221,-0.03218,0.02021,-0.01208,0.09229,1.05975,1.00889,0.00000,0.01286,0.00006,1.43902,-3.06017,0.96982,1.41658,-3.02080,A,113523.20
1.02448,57.68795835,11.98128667,57.68798783,11.98126217,11:35:23.388396,1.02448,0.00442,0.00000,0.05189,-0.02717,-0.03065,0.02830,-0.08808,0.07259,1.16510,1.01941,0.00000,0.01286,0.00092,1.43678,-3.05623,0.96982,1.41658,-3.02080,A,113523.20
1.03476,57.68795838,11.98128664,57.68798783,11.98126217,11:35:23.398678,1.03476,0.00431,0.00000,0.05127,-0.02778,-0.02042,0.03456,-0.05057,0.05819,1.15064,1.02997,0.00000,0.01285,0.00183,1.43476,-3.05269,0.96982,1.41658,-3.02080,A,113523.20
1.04530,57.68795841,11.98128661,57.68798783,11.98126217,11:35:23.409215,1.04530,0.00444,0.00000,0.05123,-0.03343,-0.00102,0.03426,0.00714,0.09516,1.03029,1.04020,0.00000,0.01283,0.00274,1.43294,-3.04950,0.96982,1.41658,-3.02080,A,113523.20
1.05556,57.68795843,11.98128658,57.68798783,11.98126217,11:35:23.419729,1.05556,0.00431,0.00000,0.05191,-0.02824,-0.00102,0.03548,0.01342,0.12151,0.87999,1.05079,0.00000,0.01280,0.00367,1.43130,-3.04663,0.96982,1.41658,-3.02080,A,113523.20
1.06600,57.68795846,11.98128656,57.68798783,11.98126217,11:35:23.429915,1.06600,0.00435,0.00000,0.05273,-0.01618,0.00524,0.02769,-0.11523,0.11865,0.84918,1.06118,0.00000,0.01277,0.00453,1.42983,-3.04405,0.96982,1.41658,-3.02080,A,113523.20
1.08918,57.68795853,11.98128648,57.68798833,11.98126167,11:35:23.453098,1.08918,0.01709,0.00000,0.05289,-0.00136,0.01929,0.02295,-0.15122,0.07375,0.86260,1.07146,0.00000,0.01272,0.00540,1.42553,-3.03616,1.08612,1.38686,-2.96520,A,113523.30
1.10561,57.68795859,11.98128642,57.68798833,11.98126167,11:35:23.469541,1.10561,0.00720,0.00000,0.05245,0.00062,0.01486,0.03517,0.12816,0.04618,1.05243,1.09890,0.00000,0.01267,0.00770,1.42167,-3.02907,1.08612,1.38686,-2.96520,A,113523.30
1.11323,57.68795865,11.98128636,57.68798833,11.98126167,11:35:23.477154,1.11323,0.00444,0.00000,0.05238,-0.00732,-0.00683,0.04510,0.06015,0.08119,1.10758,1.10815,0.00000,0.01259,0.00853,1.41819,-3.02268,1.08612,1.38686,-2.96520,A,113523.30
1.12352,57.68795870,11.98128631,57.68798833,11.98126167,11:35:23.487678,1.12352,0.00434,0.00000,0.05305,0.00108,-0.01965,0.05380,-0.04691,0.13231,1.12722,1.11873,0.00000,0.01251,0.00935,1.41505,-3.01693,1.08612,1.38686,-2.96520,A,113523.30
1.13420,57.68795875,11.98128626,57.68798833,11.98126167,11:35:23.498123,1.13420,0.00452,0.00000,0.05377,0.00918,-0.00713,0.05243,-0.11913,0.12584,1.08000,1.12935,0.00000,0.01241,0.01005,1.41223,-3.01176,1.08612,1.38686,-2.96520,A,113523.30
1.14452,57.68795879,11.98128622,57.68798833,11.98126167,11:35:23.508438,1.14452,0.00442,0.00000,0.05385,0.01055,0.00035,0.04815,-0.04630,0.07186,0.98247,1.13946,0.00000,0.01231,0.01064,1.40970,-3.00710,1.08612,1.38686,-2.96520,A,113523.30
1.15485,57.68795883,11.98128618,57.68798833,11.98126167,11:35:23.518767,1.15485,0.00436,0.00000,0.05375,0.01055,-0.01828,0.03487,0.07918,0.05588,0.90939,1.15004,0.00000,0.01221,0.01113,1.40741,-3.00291,1.08612,1.38686,-2.96520,A,113523.30
1.16548,57.68795886,11.98128614,57.68798833,11.98126167,11:35:23.529407,1.16548,0.00460,0.00000,0.05453,0.01223,-0.05264,0.03303,0.06429,0.10748,0.90622,1.16023,0.00000,0.01209,0.01148,1.40536,-2.99914,1.08612,1.38686,-2.96520,A,113523.30
1.17563,57.68795889,11.98128611,57.68798833,11.98126167,11:35:23.539783,1.17563,0.00434,0.00000,0.05530,0.01528,-0.05707,0.03914,-0.13579,0.11346,0.96661,1.17082,0.00000,0.01198,0.01175,1.40351,-2.99575,1.08612,1.38686,-2.96520,A,113523.30
1.18637,57.68795892,11.98128609,57.68798833,11.98126167,11:35:23.550286,1.18637,0.00469,0.00000,0.05535,0.01727,-0.02485,0.04036,-0.22527,0.06783,1.00028,1.18121,0.00000,0.01186,0.01192,1.40184,-2.99269,1.08612,1.38686,-2.96520,A,113523.30
1.21949,57.68795906,11.98128599,57.68798950,11.98126100,11:35:23.583572,1.21949,0.02741,0.00000,0.05515,0.02109,0.01471,0.04357,-0.15750,0.04758,0.97649,1.19144,0.00000,0.01174,0.01203,1.39638,-2.97697,1.21681,1.34724,-2.83547,A,113523.50
1.23286,57.68795919,11.98128591,57.68798950,11.98126100,11:35:23.596791,1.23286,0.00652,0.00000,0.05624,0.04323,-0.04241,0.05258,0.01604,0.05246,1.09373,1.22702,0.00000,0.01162,0.01247,1.39147,-2.96282,1.21681,1.34724,-2.83547,A,113523.50
1.24117,57.68795930,11.98128584,57.68798950,11.98126100,11:35:23.605091,1.24117,0.00443,0.00000,0.05575,0.03453,-0.06394,0.05380,-0.05484,0.02708,1.11349,1.23609,0.00000,0.01150,0.01242,1.38705,-2.95008,1.21681,1.34724,-2.83547,A,113523.50
1.25148,57.68795941,11.98128577,57.68798950,11.98126100,11:35:23.615628,1.25148,0.00435,0.00000,0.05600,0.02078,-0.05249,0.05136,-0.05850,0.08235,1.03895,1.24667,0.00000,0.01137,0.01232,1.38306,-2.93862,1.21681,1.34724,-2.83547,A,113523.50
1.26188,57.68795950,11.98128571,57.68798950,11.98126100,11:35:23.625803,1.26188,0.00436,0.00000,0.05725,0.02399,-0.03309,0.05258,-0.00994,0.13206,0.90945,1.25687,0.00000,0.01125,0.01220,1.37948,-2.92831,1.21681,1.34724,-2.83547,A,113523.50
1.27250,57.68795958,11.98128565,57.68798950,11.98126100,11:35:23.636420,1.27250,0.00443,0.00000,0.05916,0.02720,-0.01018,0.04953,-0.04178,0.15604,0.82588,1.26742,0.00000,0.01113,0.01208,1.37626,-2.91902,1.21681,1.34724,-2.83547,A,113523.50
1.28279,57.68795966,11.98128561,57.68798950,11.98126100,11:35:23.646706,1.28279,0.00433,0.00000,0.06031,0.02720,-0.00515,0.03196,-0.08326,0.12023,0.86852,1.27799,0.00000,0.01101,0.01196,1.37336,-2.91067,1.21681,1.34724,-2.83547,A,113523.50
1.29329,57.68795972,11.98128556,57.68798950,11.98126100,11:35:23.657482,1.29329,0.00443,0.00000,0.06059,0.04048,-0.00576,0.02479,-0.13640,0.07271,0.99589,1.28821,0.00000,0.01089,0.01184,1.37074,-2.90315,1.21681,1.34724,-2.83547,A,113523.50
1.30400,57.68795979,11.98128552,57.68798950,11.98126100,11:35:23.667931,1.30400,0.00475,0.00000,0.06035,0.03071,-0.00392,0.01807,-0.04185,0.04904,1.09788,1.29879,0.00000,0.01077,0.01172,1.36839,-2.89638,1.21681,1.34724,-2.83547,A,113523.50
1.31399,57.68795984,11.98128549,57.68798950,11.98126100,11:35:23.677913,1.31399,0.00435,0.00000,0.05964,0.01467,-0.01568,0.02448,0.13115,0.02635,1.10794,1.30917,0.00000,0.01065,0.01160,1.36628,-2.89029,1.21681,1.34724,-2.83547,A,113523.50
1.33912,57.68795996,11.98128539,57.68799017,11.98126033,11:35:23.703042,1.33912,0.01904,0.00000,0.05909,0.00704,-0.04256,0.03044,0.05484,0.04429,1.12380,1.31945,0.00000,0.01054,0.01149,1.36041,-2.87740,1.33575,1.30761,-2.76134,A,113523.60
1.35306,57.68796006,11.98128530,57.68799017,11.98126033,11:35:23.716995,1.35306,0.00623,0.00000,0.06087,0.01925,-0.01477,0.04769,-0.11804,0.15250,0.92897,1.34788,0.00000,0.01042,0.01137,1.35513,-2.86579,1.33575,1.30761,-2.76134,A,113523.60
1.36162,57.68796015,11.98128522,57.68799017,11.98126033,11:35:23.725533,1.36162,0.00439,0.00000,0.06086,0.02292,-0.00744,0.04342,0.03428,0.05594,0.81429,1.35658,0.00000,0.01031,0.01126,1.35038,-2.85534,1.33575,1.30761,-2.76134,A,113523.60
1.37216,57.68796024,11.98128515,57.68799017,11.98126033,11:35:23.736090,1.37216,0.00454,0.00000,0.06038,0.02384,-0.02698,0.03655,0.05014,0.02678,0.80233,1.36715,0.00000,0.01020,0.01114,1.34610,-2.84594,1.33575,1.30761,-2.76134,A,113523.60
1.38237,57.68796032,11.98128508,57.68799017,11.98126033,11:35:23.746287,1.38237,0.00436,0.00000,0.06082,0.00398,-0.04760,0.02952,0.01434,0.09144,0.84552,1.37756,0.00000,0.01008,0.01103,1.34225,-2.83748,1.33575,1.30761,-2.76134,A,113523.60
1.39273,57.68796038,11.98128502,57.68799017,11.98126033,11:35:23.756647,1.39273,0.00449,0.00000,0.06132,0.00200,-0.04027,0.02677,-0.12139,0.11224,0.97759,1.38763,0.00000,0.00997,0.01090,1.33879,-2.82987,1.33575,1.30761,-2.76134,A,113523.60
1.40320,57.68796045,11.98128497,57.68799017,11.98126033,11:35:23.767133,1.40320,0.00456,0.00000,0.06179,0.00765,-0.01324,0.02723,-0.12767,0.11358,1.04523,1.39819,0.00000,0.00986,0.01074,1.33567,-2.82302,1.33575,1.30761,-2.76134,A,113523.60
1.41345,57.68796050,11.98128492,57.68799017,11.98126033,11:35:23.777370,1.41345,0.00441,0.00000,0.06122,0.01345,0.00738,0.01776,-0.01848,0.03733,1.04774,1.40838,0.00000,0.00976,0.01057,1.33287,-2.81685,1.33575,1.30761,-2.76134,A,113523.60
1.42399,57.68796055,11.98128488,57.68799017,11.98126033,11:35:23.787917,1.42399,0.00456,0.00000,0.06139,0.00658,0.00692,0.02036,0.04063,0.09516,1.06213,1.41895,0.00000,0.00965,0.01041,1.33034,-2.81130,1.33575,1.30761,-2.76134,A,113523.60
1.43417,57.68796060,11.98128484,57.68799017,11.98126033,11:35:23.798085,1.43417,0.00435,0.00000,0.06173,0.01177,-0.01553,0.02005,0.03276,0.10358,1.06835,1.42937,0.00000,0.00955,0.01025,1.32807,-2.80630,1.33575,1.30761,-2.76134,A,113523.60
1.45715,57.68796069,11.98128476,57.68799067,11.98125983,11:35:23.821082,1.45715,0.01706,0.00000,0.06172,0.01712,-0.02439,0.02906,-0.02855,0.07546,1.06048,1.43945,0.00000,0.00945,0.01012,1.32305,-2.79625,1.45428,1.27789,-2.70574,A,113523.70
1.46730,57.68796077,11.98128468,57.68799067,11.98125983,11:35:23.831223,1.46730,0.00441,0.00000,0.06194,0.00032,-0.02744,0.03991,-0.01604,0.09424,0.96966,1.46248,0.00000,0.00934,0.00992,1.31853,-2.78720,1.45428,1.27789,-2.70574,A,113523.70
1.47767,57.68796084,11.98128462,57.68799067,11.98125983,11:35:23.841591,1.47767,0.00439,0.00000,0.06308,0.00184,-0.02347,0.04189,-0.00878,0.14463,0.90847,1.47263,0.00000,0.00924,0.00976,1.31447,-2.77905,1.45428,1.27789,-2.70574,A,113523.70
1.48863,57.68796091,11.98128455,57.68799067,11.98125983,11:35:23.852547,1.48863,0.00473,0.00000,0.06477,0.01483,-0.02591,0.03716,-0.04148,0.17043,0.90512,1.48328,0.00000,0.00915,0.00956,1.31081,-2.77172,1.45428,1.27789,-2.70574,A,113523.70
1.49864,57.68796097,11.98128450,57.68799067,11.98125983,11:35:23.862560,1.49864,0.00440,0.00000,0.06520,0.02032,-0.00835,0.03899,-0.08345,0.09357,0.92812,1.49381,0.00000,0.00905,0.00938,1.30752,-2.76512,1.45428,1.27789,-2.70574,A,113523.70
1.51023,57.68796102,11.98128445,57.68799067,11.98125983,11:35:23.874172,1.51023,0.00526,0.00000,0.06493,0.01925,0.00921,0.02952,-0.09607,0.05673,1.03523,1.50436,0.00000,0.00896,0.00923,1.30456,-2.75918,1.45428,1.27789,-2.70574,A,113523.70
1.51995,57.68796107,11.98128440,57.68799067,11.98125983,11:35:23.883875,1.51995,0.00458,0.00000,0.06476,0.01192,0.02189,0.01868,-0.04368,0.07180,1.07811,1.51489,0.00000,0.00887,0.00913,1.30189,-2.75384,1.45428,1.27789,-2.70574,A,113523.70
1.53012,57.68796111,11.98128436,57.68799067,11.98125983,11:35:23.894040,1.53012,0.00436,0.00000,0.06438,0.00750,0.00738,0.02158,0.07875,0.05740,1.03535,1.52531,0.00000,0.00877,0.00903,1.29949,-2.74903,1.45428,1.27789,-2.70574,A,113523.70
1.54053,57.68796115,11.98128433,57.68799067,11.98125983,11:35:23.904452,1.54053,0.00444,0.00000,0.06439,0.00551,-0.01095,0.02922,0.16641,0.08003,0.96728,1.53546,0.00000,0.00868,0.00894,1.29733,-2.74470,1.45428,1.27789,-2.70574,A,113523.70
1.55080,57.68796118,11.98128429,57.68799067,11.98125983,11:35:23.914711,1.55080,0.00431,0.00000,0.06451,0.01055,-0.05081,0.03288,0.00604,0.08180,0.95026,1.54602,0.00000,0.00859,0.00885,1.29539,-2.74081,1.45428,1.27789,-2.70574,A,113523.70
1.57418,57.68796128,11.98128420,57.68799133,11.98125917,11:35:23.938087,1.57418,0.01730,0.00000,0.06547,0.00215,-0.04378,0.04082,-0.13414,0.14994,1.00296,1.55623,0.00000,0.00851,0.00877,1.28968,-2.72989,1.57079,1.23827,-2.63161,A,113523.80
1.58835,57.68796137,11.98128411,57.68799133,11.98125917,11:35:23.952288,1.58835,0.00653,0.98265,0.06574,0.01956,-0.01629,0.03853,0.10547,0.06271,0.88426,1.58251,0.09827,0.00842,0.00868,1.28454,-2.72006,1.57079,1.23827,-2.63161,A,113523.80
1.59655,57.68796145,11.98128404,57.68799133,11.98125917,11:35:23.960469,1.59655,0.00445,0.98265,0.06623,0.02185,-0.02790,0.03502,0.01488,0.09766,0.91225,1.59146,0.18670,0.00833,0.00859,1.28045,-2.71121,1.57079,1.23827,-2.63161,A,113523.80
1.60685,57.68796152,11.98128400,57.68799133,11.98125917,11:35:23.970765,1.60685,0.00435,0.98265,0.06691,0.02796,-0.02332,0.03181,-0.14677,0.11535,1.01107,1.60204,0.26630,0.00825,0.00851,1.27765,-2.70324,1.57079,1.23827,-2.63161,A,113523.80
1.61731,57.68796159,11.98128396,57.68799133,11.98125917,11:35:23.981233,1.61731,0.00443,0.98265,0.06717,0.03712,0.01043,0.03212,-0.18184,0.08638,1.07848,1.61224,0.33793,0.00816,0.00842,1.27572,-2.69606,1.57079,1.23827,-2.63161,A,113523.80
1.62798,57.68796165,11.98128394,57.68799133,11.98125917,11:35:23.991907,1.62798,0.00470,0.98265,0.06716,0.03880,0.02570,0.03227,-0.03508,0.06472,1.06408,1.62294,0.40241,0.00808,0.00834,1.27459,-2.68959,1.57079,1.23827,-2.63161,A,113523.80
1.63802,57.68796170,11.98128393,57.68799133,11.98125917,11:35:24.001946,1.63802,0.00435,0.98265,0.06706,0.03590,0.01822,0.03624,0.14103,0.05917,1.03169,1.63322,0.46043,0.00800,0.00826,1.27394,-2.68377,1.57079,1.23827,-2.63161,A,113523.80
1.64851,57.68796174,11.98128393,57.68799133,11.98125917,11:35:24.012432,1.64851,0.00443,0.98265,0.06750,0.04430,-0.02179,0.04265,0.11834,0.09028,1.02480,1.64345,0.51265,0.00792,0.00818,1.27386,-2.67852,1.57079,1.23827,-2.63161,A,113523.80
1.65879,57.68796179,11.98128394,57.68799133,11.98125917,11:35:24.022709,1.65879,0.00431,0.98265,0.06825,0.04491,-0.03706,0.05090,-0.02416,0.10949,1.01797,1.65400,0.55965,0.00784,0.00810,1.27420,-2.67380,1.57079,1.23827,-2.63161,A,113523.80
1.66931,57.68796183,11.98128395,57.68799133,11.98125917,11:35:24.033230,1.66931,0.00444,0.98265,0.06843,0.05392,-0.02698,0.05136,-0.15177,0.06527,0.99808,1.66423,0.60195,0.00777,0.00803,1.27485,-2.66955,1.57079,1.23827,-2.63161,A,113523.80
1.69280,57.68796193,11.98128407,57.68799200,11.98125900,11:35:24.056727,1.69280,0.01753,0.98265,0.06878,0.04797,0.00020,0.05060,-0.11901,0.07594,0.94928,1.67480,0.64002,0.00770,0.00796,1.28188,-2.65825,1.68991,1.22836,-2.55748,A,113523.90
1.70284,57.68796202,11.98128406,57.68799200,11.98125900,11:35:24.066753,1.70284,0.00457,0.98265,0.07069,0.05377,-0.00652,0.03227,0.04069,0.13133,0.96429,1.69800,0.67429,0.00762,0.00788,1.28125,-2.64813,1.68991,1.22836,-2.55748,A,113523.90
1.71427,57.68796210,11.98128406,57.68799200,11.98125900,11:35:24.078197,1.71427,0.00577,0.98265,0.07150,0.05453,-0.00270,0.02357,-0.05649,0.11352,1.05347,1.70873,0.70512,0.00755,0.00781,1.28135,-2.63903,1.68991,1.22836,-2.55748,A,113523.90
1.72322,57.68796217,11.98128405,57.68799200,11.98125900,11:35:24.087133,1.72322,0.00433,0.98265,0.07133,0.05438,0.00325,0.01501,-0.06301,0.05118,1.09818,1.71843,0.73287,0.00747,0.00772,1.28058,-2.63084,1.68991,1.22836,-2.55748,A,113523.90
1.73367,57.68796224,11.98128405,57.68799200,11.98125900,11:35:24.097592,1.73367,0.00439,0.98265,0.07065,0.04277,-0.00438,0.01165,0.06069,0.01861,1.02584,1.72864,0.75785,0.00740,0.00762,1.28089,-2.62346,1.68991,1.22836,-2.55748,A,113523.90
1.74436,57.68796230,11.98128406,57.68799200,11.98125900,11:35:24.108278,1.74436,0.00446,0.98265,0.07025,0.02964,-0.03187,0.01104,0.02611,0.04398,0.98021,1.73928,0.78033,0.00733,0.00744,1.28150,-2.61682,1.68991,1.22836,-2.55748,A,113523.90
1.75478,57.68796235,11.98128407,57.68799200,11.98125900,11:35:24.118706,1.75478,0.00449,0.98265,0.07086,0.02246,-0.04241,0.01608,-0.02751,0.11694,1.00607,1.74997,0.80056,0.00726,0.00714,1.28222,-2.61084,1.68991,1.22836,-2.55748,A,113523.90
1.76513,57.68796240,11.98128408,57.68799200,11.98125900,11:35:24.129050,1.76513,0.00444,0.98265,0.07206,0.02765,-0.02591,0.02082,-0.08882,0.16122,1.04176,1.76003,0.81877,0.00718,0.00672,1.28275,-2.60546,1.68991,1.22836,-2.55748,A,113523.90
1.77542,57.68796245,11.98128410,57.68799200,11.98125900,11:35:24.139575,1.77542,0.00435,0.98265,0.07298,0.03651,-0.00881,0.02662,-0.06557,0.12523,0.96441,1.77063,0.83516,0.00711,0.00617,1.28357,-2.60062,1.68991,1.22836,-2.55748,A,113523.90
1.78586,57.68796248,11.98128411,57.68799200,11.98125900,11:35:24.149775,1.78586,0.00438,0.98265,0.07354,0.04063,-0.01034,0.02967,0.03160,0.09266,0.89395,1.78083,0.84991,0.00702,0.00554,1.28449,-2.59627,1.68991,1.22836,-2.55748,A,113523.90
1.81923,57.68796259,11.98128434,57.68799267,11.98125817,11:35:24.183144,1.81923,0.02723,0.98265,0.07389,0.03346,-0.01965,0.02998,-0.01397,0.08516,0.89688,1.79136,0.86318,0.00685,0.00472,1.29811,-2.58484,1.81652,1.17883,-2.48335,A,113524.10
1.82998,57.68796268,11.98128426,57.68799267,11.98125817,11:35:24.193905,1.82998,0.00448,0.98265,0.07413,0.01528,-0.00530,0.01425,-0.00738,0.07472,0.98911,1.82494,0.87513,0.00675,0.00219,1.29309,-2.57466,1.81652,1.17883,-2.48335,A,113524.10
1.84045,57.68796276,11.98128417,57.68799267,11.98125817,11:35:24.204370,1.84045,0.00443,0.98265,0.07405,0.00200,-0.00545,0.01135,0.03904,0.08473,0.97014,1.83538,0.88588,0.00662,0.00135,1.28825,-2.56552,1.81652,1.17883,-2.48335,A,113524.10
1.85073,57.68796284,11.98128410,57.68799267,11.98125817,11:35:24.214649,1.85073,0.00432,0.98265,0.07434,-0.00869,-0.01034,0.00249,-0.00671,0.11694,0.98186,1.84594,0.89556,0.00649,0.00054,1.28406,-2.55729,1.81652,1.17883,-2.48335,A,113524.10
1.86124,57.68796290,11.98128404,57.68799267,11.98125817,11:35:24.225161,1.86124,0.00443,0.98265,0.07508,-0.00442,-0.01095,-0.00285,-0.02373,0.14994,1.01717,1.85616,0.90427,0.00635,-0.00020,1.28030,-2.54989,1.81652,1.17883,-2.48335,A,113524.10
1.87191,57.68796296,11.98128399,57.68799267,11.98125817,11:35:24.235842,1.87191,0.00471,0.98265,0.07575,-0.00487,-0.01171,-0.00148,-0.01507,0.15110,1.05554,1.86688,0.91211,0.00619,-0.00092,1.27717,-2.54324,1.81652,1.17883,-2.48335,A,113524.10
1.88195,57.68796302,11.98128394,57.68799267,11.98125817,11:35:24.245881,1.88195,0.00436,0.98265,0.07522,-0.00762,-0.01186,-0.00499,-0.05466,0.06832,1.06305,1.87695,0.91916,0.00603,-0.00156,1.27426,-2.53726,1.81652,1.17883,-2.48335,A,113524.10
1.89240,57.68796306,11.98128389,57.68799267,11.98125817,11:35:24.256325,1.89240,0.00449,0.98265,0.07413,-0.02076,0.00493,-0.00270,-0.04148,0.03745,1.05408,1.88731,0.92551,0.00587,-0.00216,1.27162,-2.53188,1.81652,1.17883,-2.48335,A,113524.10
1.90287,57.68796311,11.98128386,57.68799267,11.98125817,11:35:24.266782,1.90287,0.00457,0.98265,0.07345,-0.02656,0.01425,-0.00469,0.03263,0.06356,0.96508,1.89783,0.93122,0.00570,-0.00279,1.26934,-2.52704,1.81652,1.17883,-2.48335,A,113524.10
1.91526,57.68796315,11.98128382,57.68799267,11.98125817,11:35:24.279214,1.91526,0.00656,0.98265,0.07381,-0.03313,-0.00041,-0.00515,0.03465,0.12987,0.93306,1.90805,0.93637,0.00553,-0.00343,1.26713,-2.52269,1.81652,1.17883,-2.48335,A,113524.10
1.93588,57.68796325,11.98128390,57.68799333,11.98125783,11:35:24.299805,1.93588,0.01678,0.98265,0.07422,-0.03038,-0.01141,-0.00759,-0.02269,0.13432,0.94934,1.91864,0.94100,0.00508,-0.00439,1.27215,-2.51140,1.93303,1.15902,-2.40922,A,113524.20
1.95153,57.68796334,11.98128391,57.68799333,11.98125783,11:35:24.315695,1.95153,0.00576,0.98265,0.07257,-0.04153,-0.01736,-0.01064,0.04752,0.05459,0.94294,1.94646,0.94516,0.00474,-0.00599,1.27247,-2.50123,1.93303,1.15902,-2.40922,A,113524.20
1.96054,57.68796342,11.98128382,57.68799333,11.98125783,11:35:24.324450,1.96054,0.00444,0.98265,0.07227,-0.04641,-0.02378,-0.01141,0.00055,0.09705,0.98924,1.95546,0.94891,0.00459,-0.00656,1.26701,-2.49207,1.93303,1.15902,-2.40922,A,113524.20
1.97082,57.68796350,11.98128376,57.68799333,11.98125783,11:35:24.334732,1.97082,0.00433,0.98265,0.07259,-0.04473,-0.02042,-0.00927,-0.02068,0.14640,1.02205,1.96603,0.95228,0.00438,-0.00715,1.26344,-2.48383,1.93303,1.15902,-2.40922,A,113524.20
1.98131,57.68796356,11.98128370,57.68799333,11.98125783,11:35:24.345227,1.98131,0.00443,0.98265,0.07239,-0.03771,-0.01675,-0.00652,-0.06161,0.10913,1.06164,1.97622,0.95532,0.00417,-0.00766,1.26017,-2.47642,1.93303,1.15902,-2.40922,A,113524.20
1.99207,57.68796362,11.98128366,57.68799333,11.98125783,11:35:24.355999,1.99207,0.00480,0.98265,0.07203,-0.03801,-0.01034,-0.00560,-0.00195,0.09815,1.04975,1.98699,0.95805,0.00394,-0.00809,1.25751,-2.46976,1.93303,1.15902,-2.40922,A,113524.20
2.00263,57.68796368,11.98128361,57.68799333,11.98125783,11:35:24.366560,2.00263,0.00496,0.98265,0.07129,-0.04244,-0.01813,-0.00728,0.08052,0.06985,1.01565,1.99723,0.96051,0.00373,-0.00841,1.25469,-2.46376,1.93303,1.15902,-2.40922,A,113524.20
2.01624,57.68796372,11.98128356,57.68799333,11.98125783,11:35:24.380245,2.01624,0.00810,0.98265,0.07053,-0.05252,-0.04287,-0.00423,0.07247,0.07558,1.01968,2.00749,0.96273,0.00354,-0.00865,1.25191,-2.45836,1.93303,1.15902,-2.40922,A,113524.20
2.02333,57.68796377,11.98128354,57.68799333,11.98125783,11:35:24.387493,2.02333,0.00445,0.98265,0.07036,-0.05130,-0.04531,-0.00377,-0.10785,0.12682,1.07464,2.01851,0.96472,0.00330,0.00380,1.25034,-2.45352,1.93303,1.15902,-2.40922,A,113524.20
2.03368,57.68796381,11.98128350,57.68799333,11.98125783,11:35:24.397611,2.03368,0.00441,0.98265,0.07081,-0.04504,-0.01171,-0.00347,-0.17641,0.16378,1.07293,2.02863,0.96651,0.00327,0.00378,1.24839,-2.44906,1.93303,1.15902,-2.40922,A,113524.20
2.05665,57.68796391,11.98128361,57.68799400,11.98125733,11:35:24.420574,2.05665,0.01682,0.98265,0.07069,-0.03481,0.01501,-0.00224,-0.01958,0.10327,0.95685,2.03917,0.96813,0.00327,0.00377,1.25478,-2.43759,2.05377,1.12930,-2.33509,A,113524.30
2.07371,57.68796400,11.98128362,57.68799400,11.98125733,11:35:24.437639,2.07371,0.00514,0.98265,0.06949,-0.03710,-0.02332,-0.00179,-0.11242,0.08235,0.97795,2.06862,0.96958,0.00325,0.00376,1.25527,-2.42730,2.05377,1.12930,-2.33509,A,113524.30
2.08331,57.68796409,11.98128352,57.68799400,11.98125733,11:35:24.447233,2.08331,0.00435,0.98265,0.06919,-0.03710,-0.00515,-0.00148,-0.09736,0.09345,0.98643,2.07852,0.97089,0.00323,0.00373,1.24946,-2.41805,2.05377,1.12930,-2.33509,A,113524.30
2.09399,57.68796416,11.98128344,57.68799400,11.98125733,11:35:24.457919,2.09399,0.00463,0.98265,0.06869,-0.03542,0.01028,-0.00133,0.05417,0.07326,0.90561,2.08873,0.97206,0.00320,0.00371,1.24477,-2.40973,2.05377,1.12930,-2.33509,A,113524.30
2.10463,57.68796423,11.98128337,57.68799400,11.98125733,11:35:24.468556,2.10463,0.00472,0.98265,0.06805,-0.04015,-0.02057,-0.00163,0.10492,0.06924,0.91537,2.09928,0.97312,0.00318,0.00368,1.24059,-2.40224,2.05377,1.12930,-2.33509,A,113524.30
2.11463,57.68796429,11.98128331,57.68799400,11.98125733,11:35:24.478548,2.11463,0.00433,0.98265,0.06802,-0.03236,-0.03508,-0.00117,-0.00049,0.11206,1.01888,2.10985,0.97408,0.00315,0.00366,1.23663,-2.39550,2.05377,1.12930,-2.33509,A,113524.30
2.12522,57.68796434,11.98128325,57.68799400,11.98125733,11:35:24.489139,2.12522,0.00451,0.98265,0.06832,-0.02855,-0.02912,-0.00163,-0.15531,0.14555,1.13045,2.12006,0.97493,0.00313,0.00363,1.23326,-2.38943,2.05377,1.12930,-2.33509,A,113524.30
2.13657,57.68796439,11.98128320,57.68799400,11.98125733,11:35:24.500496,2.13657,0.00547,0.98265,0.06814,-0.02274,-0.00117,-0.00041,-0.11071,0.10809,1.15510,2.13067,0.97570,0.00311,0.00361,1.23025,-2.38397,2.05377,1.12930,-2.33509,A,113524.30
2.14588,57.68796444,11.98128314,57.68799400,11.98125733,11:35:24.509801,2.14588,0.00439,0.98265,0.06748,-0.01648,0.00417,-0.00224,-0.03349,0.06234,1.10819,2.14086,0.97640,0.00308,0.00358,1.22672,-2.37906,2.05377,1.12930,-2.33509,A,113524.30
2.16895,57.68796454,11.98128323,57.68799467,11.98125683,11:35:24.532884,2.16895,0.01695,0.98265,0.06657,-0.01618,0.00005,-0.00377,0.05649,0.03995,1.01187,2.15139,0.97702,0.00308,0.00358,1.23239,-2.36718,2.16585,1.09958,-2.26096,A,113524.40
2.18611,57.68796464,11.98128323,57.68799467,11.98125683,11:35:24.550015,2.18611,0.00672,0.98265,0.06677,-0.00243,-0.01400,0.00264,-0.10382,0.09217,0.86705,2.18043,0.97759,0.00306,0.00357,1.23184,-2.35651,2.16585,1.09958,-2.26096,A,113524.40
2.19439,57.68796473,11.98128309,57.68799467,11.98125683,11:35:24.558309,2.19439,0.00460,1.19813,0.06653,-0.00090,-0.00942,0.00432,-0.17336,0.07265,0.99912,2.18936,0.99964,0.00304,0.00354,1.22410,-2.34694,2.16585,1.09958,-2.26096,A,113524.40
2.20469,57.68796480,11.98128301,57.68799467,11.98125683,11:35:24.568606,2.20469,0.00460,1.19813,0.06661,0.00169,0.02433,0.00493,-0.09156,0.09290,1.01059,2.19961,1.01949,0.00301,0.00352,1.21902,-2.33832,2.16585,1.09958,-2.26096,A,113524.40
2.21490,57.68796487,11.98128294,57.68799467,11.98125683,11:35:24.578813,2.21490,0.00435,1.19813,0.06609,0.00200,0.03212,0.00707,0.12694,0.05063,0.97210,2.21010,1.03736,0.00299,0.00350,1.21477,-2.33055,2.16585,1.09958,-2.26096,A,113524.40
2.22535,57.68796494,11.98128288,57.68799467,11.98125683,11:35:24.589270,2.22535,0.00442,1.19813,0.06604,0.00078,-0.00392,0.00661,0.01781,0.08363,0.99826,2.22029,1.05343,0.00297,0.00347,1.21106,-2.32357,2.16585,1.09958,-2.26096,A,113524.40
2.23588,57.68796499,11.98128282,57.68799467,11.98125683,11:35:24.599809,2.23588,0.00455,1.19813,0.06632,0.00352,-0.00988,-0.00102,-0.24376,0.11877,1.14381,2.23087,1.06790,0.00295,0.00345,1.20796,-2.31728,2.16585,1.09958,-2.26096,A,113524.40
2.24607,57.68796504,11.98128278,57.68799467,11.98125683,11:35:24.609985,2.24607,0.00434,1.19813,0.06654,0.00841,0.02295,0.00524,-0.10340,0.10522,1.08537,2.24127,1.08093,0.00293,0.00343,1.20537,-2.31162,2.16585,1.09958,-2.26096,A,113524.40
2.25660,57.68796509,11.98128274,57.68799467,11.98125683,11:35:24.620527,2.25660,0.00445,1.19813,0.06568,0.00765,0.01501,0.00295,0.09540,0.02208,0.87974,2.25153,1.09265,0.00291,0.00341,1.20300,-2.30653,2.16585,1.09958,-2.26096,A,113524.40
2.26687,57.68796513,11.98128271,57.68799467,11.98125683,11:35:24.630787,2.26687,0.00433,1.19813,0.06488,-0.01526,-0.03767,0.00234,0.03148,0.04099,0.93525,2.26208,1.10320,0.00289,0.00339,1.20097,-2.30194,2.16585,1.09958,-2.26096,A,113524.40
2.29039,57.68796525,11.98128281,57.68799550,11.98125600,11:35:24.654308,2.29039,0.01745,1.19813,0.06587,-0.01587,-0.03126,-0.00408,-0.04349,0.16653,1.01315,2.27229,1.11269,0.00289,0.00340,1.20718,-2.28850,2.28724,1.05005,-2.16830,A,113524.50
2.30059,57.68796536,11.98128268,57.68799550,11.98125600,11:35:24.664510,2.30059,0.00457,1.19813,0.06594,0.00627,0.02769,-0.00759,-0.11925,0.08180,0.99308,2.29546,1.12123,0.00287,0.00338,1.19954,-2.27646,2.28724,1.05005,-2.16830,A,113524.50
2.31075,57.68796546,11.98128257,57.68799550,11.98125600,11:35:24.674664,2.31075,0.00433,1.19813,0.06498,0.00520,0.03410,-0.01614,-0.00708,0.01989,1.01925,2.30596,1.12892,0.00285,0.00336,1.19301,-2.26561,2.28724,1.05005,-2.16830,A,113524.50
2.32246,57.68796555,11.98128247,57.68799550,11.98125600,11:35:24.686395,2.32246,0.00564,1.19813,0.06401,-0.00167,0.02494,-0.01064,0.05405,0.02166,0.94904,2.31617,1.13584,0.00283,0.00334,1.18724,-2.25585,2.28724,1.05005,-2.16830,A,113524.50
2.33154,57.68796562,11.98128237,57.68799550,11.98125600,11:35:24.695702,2.33154,0.00434,1.19813,0.06349,-0.01556,-0.00469,-0.01202,-0.03026,0.06106,0.98741,2.32675,1.14207,0.00281,0.00332,1.18097,-2.24707,2.28724,1.05005,-2.16830,A,113524.50
2.34195,57.68796570,11.98128230,57.68799550,11.98125600,11:35:24.705862,2.34195,0.00435,1.19813,0.06390,-0.00930,-0.00774,-0.01064,-0.02812,0.11712,0.98869,2.33694,1.14768,0.00280,0.00330,1.17670,-2.23917,2.28724,1.05005,-2.16830,A,113524.50
2.35253,57.68796576,11.98128223,57.68799550,11.98125600,11:35:24.716444,2.35253,0.00444,1.19813,0.06346,-0.00747,-0.02088,-0.00866,-0.09553,0.06008,0.97765,2.34746,1.15272,0.00278,0.00327,1.17280,-2.23205,2.28724,1.05005,-2.16830,A,113524.50
2.36297,57.68796582,11.98128218,57.68799550,11.98125600,11:35:24.726881,2.36297,0.00449,1.19813,0.06309,-0.01908,-0.01278,-0.00988,-0.01037,0.07064,0.96545,2.35816,1.15727,0.00276,0.00318,1.16947,-2.22565,2.28724,1.05005,-2.16830,A,113524.50
2.37331,57.68796587,11.98128212,57.68799550,11.98125600,11:35:24.737228,2.37331,0.00444,1.19813,0.06306,-0.02122,-0.01095,-0.01522,0.02672,0.09302,0.96166,2.36822,1.16135,0.00274,0.00298,1.16610,-2.21988,2.28724,1.05005,-2.16830,A,113524.50
2.38401,57.68796592,11.98128208,57.68799550,11.98125600,11:35:24.747938,2.38401,0.00474,1.19813,0.06364,-0.02427,-0.00377,-0.02072,-0.11132,0.14366,1.02187,2.37894,1.16503,0.00272,0.00264,1.16350,-2.21470,2.28724,1.05005,-2.16830,A,113524.50
2.41739,57.68796616,11.98128232,57.68799750,11.98125483,11:35:24.781320,2.41739,0.02792,1.19813,0.06407,-0.00961,0.01318,-0.02393,-0.06643,0.11736,0.97777,2.38887,1.16834,0.00268,0.00215,1.17812,-2.18773,2.41439,0.98071,-1.94591,A,113524.70
2.42980,57.68796638,11.98128215,57.68799750,11.98125483,11:35:24.793735,2.42980,0.00668,1.19813,0.06273,-0.02763,-0.01354,-0.01935,0.00281,0.05746,1.02242,2.42344,1.17132,0.00264,0.00012,1.16795,-2.16353,2.41439,0.98071,-1.94591,A,113524.70
2.43795,57.68796657,11.98128195,57.68799750,11.98125483,11:35:24.801874,2.43795,0.00443,1.19813,0.06235,-0.03954,-0.02088,-0.01950,0.02739,0.08522,1.03932,2.43287,1.17400,0.00259,-0.00050,1.15589,-2.14177,2.41439,0.98071,-1.94591,A,113524.70
2.44849,57.68796675,11.98128180,57.68799750,11.98125483,11:35:24.812409,2.44849,0.00445,1.19813,0.06241,-0.03633,-0.02882,-0.01874,-0.04660,0.12017,1.07805,2.44342,1.17641,0.00250,-0.00109,1.14730,-2.12219,2.41439,0.98071,-1.94591,A,113524.70
2.45880,57.68796691,11.98128167,57.68799750,11.98125483,11:35:24.822721,2.45880,0.00436,1.19813,0.06248,-0.03985,-0.02500,-0.02149,-0.03605,0.11139,0.97008,2.45398,1.17859,0.00240,-0.00163,1.13962,-2.10457,2.41439,0.98071,-1.94591,A,113524.70
2.46927,57.68796705,11.98128156,57.68799750,11.98125483,11:35:24.833186,2.46927,0.00444,1.19813,0.06243,-0.03695,-0.02683,-0.03034,-0.01000,0.09150,0.88731,2.46418,1.18054,0.00229,-0.00209,1.13259,-2.08872,2.41439,0.98071,-1.94591,A,113524.70
2.47957,57.68796718,11.98128145,57.68799750,11.98125483,11:35:24.843730,2.47957,0.00435,1.19813,0.06223,-0.04122,-0.02393,-0.03599,-0.05301,0.08802,0.90744,2.47477,1.18230,0.00218,-0.00253,1.12641,-2.07446,2.41439,0.98071,-1.94591,A,113524.70
2.49037,57.68796729,11.98128136,57.68799750,11.98125483,11:35:24.854481,2.49037,0.00475,1.19813,0.06188,-0.04260,-0.02103,-0.04103,-0.10108,0.08455,0.97704,2.48522,1.18388,0.00205,-0.00291,1.12104,-2.06162,2.41439,0.98071,-1.94591,A,113524.70
2.50080,57.68796740,11.98128127,57.68799750,11.98125483,11:35:24.864731,2.50080,0.00472,1.19813,0.06145,-0.04061,-0.01156,-0.04256,-0.05136,0.08015,1.01101,2.49550,1.18531,0.00194,-0.00323,1.11565,-2.05008,2.41439,0.98071,-1.94591,A,113524.70
2.51082,57.68796749,11.98128119,57.68799750,11.98125483,11:35:24.874736,2.51082,0.00435,1.19813,0.06052,-0.03908,-0.01889,-0.03691,0.01903,0.04362,0.96508,2.50602,1.18659,0.00181,-0.00350,1.11091,-2.03969,2.41439,0.98071,-1.94591,A,113524.70
2.53415,57.68796764,11.98128129,57.68799817,11.98125417,11:35:24.898078,2.53415,0.01727,1.19813,0.05965,-0.04382,-0.02057,-0.03386,-0.03434,0.05069,1.00418,2.51623,1.18775,0.00143,-0.00397,1.11697,-2.02298,2.53129,0.94108,-1.87178,A,113524.80
2.54424,57.68796778,11.98128114,57.68799817,11.98125417,11:35:24.908174,2.54424,0.00465,1.19813,0.05955,-0.03191,-0.03844,-0.02500,-0.03074,0.12761,1.05890,2.53914,1.18878,0.00131,-0.00412,1.10791,-2.00789,2.53129,0.94108,-1.87178,A,113524.80
2.55437,57.68796790,11.98128101,57.68799817,11.98125417,11:35:24.918284,2.55437,0.00438,1.19813,0.05953,-0.02183,-0.04852,-0.01981,-0.03782,0.09424,1.01772,2.54954,1.18972,0.00119,-0.00425,1.10010,-1.99432,2.53129,0.94108,-1.87178,A,113524.80
2.56477,57.68796801,11.98128089,57.68799817,11.98125417,11:35:24.928694,2.56477,0.00455,1.19813,0.05918,-0.02396,-0.04638,-0.01981,-0.10163,0.07320,1.03743,2.55961,1.19056,0.00107,-0.00437,1.09300,-1.98210,2.53129,0.94108,-1.87178,A,113524.80
2.57514,57.68796811,11.98128079,57.68799817,11.98125417,11:35:24.939061,2.57514,0.00452,1.19813,0.05863,-0.02351,-0.02530,-0.02011,-0.13939,0.06301,1.08110,2.57032,1.19132,0.00094,-0.00449,1.08695,-1.97111,2.53129,0.94108,-1.87178,A,113524.80
2.58545,57.68796820,11.98128069,57.68799817,11.98125417,11:35:24.949372,2.58545,0.00443,1.19813,0.05855,-0.02763,-0.00560,-0.02622,-0.10925,0.09687,1.07110,2.58037,1.19200,0.00082,-0.00461,1.08116,-1.96122,2.53129,0.94108,-1.87178,A,113524.80
2.59623,57.68796828,11.98128061,57.68799817,11.98125417,11:35:24.960153,2.59623,0.00482,1.19813,0.05884,-0.02228,-0.00484,-0.02882,0.00366,0.11346,1.00351,2.59112,1.19261,0.00070,-0.00474,1.07644,-1.95232,2.53129,0.94108,-1.87178,A,113524.80
2.60603,57.68796835,11.98128053,57.68799817,11.98125417,11:35:24.969952,2.60603,0.00438,1.19813,0.05891,-0.01373,-0.02530,-0.02989,0.01732,0.08442,0.92378,2.60122,1.19316,0.00059,-0.00485,1.07146,-1.94430,2.53129,0.94108,-1.87178,A,113524.80
2.61651,57.68796841,11.98128046,57.68799817,11.98125417,11:35:24.980424,2.61651,0.00442,1.19813,0.05832,-0.01556,-0.05356,-0.02897,-0.07845,0.04520,0.92574,2.61145,1.19366,0.00047,-0.00497,1.06744,-1.93709,2.53129,0.94108,-1.87178,A,113524.80
2.62683,57.68796847,11.98128040,57.68799817,11.98125417,11:35:24.990746,2.62683,0.00434,1.19813,0.05754,-0.02015,-0.04852,-0.02592,-0.10705,0.03562,0.91531,2.62203,1.19411,0.00035,-0.00509,1.06395,-1.93061,2.53129,0.94108,-1.87178,A,113524.80
2.65020,57.68796859,11.98128047,57.68799883,11.98125300,11:35:25.014126,2.65020,0.01748,1.19813,0.05698,-0.02763,-0.03660,-0.02164,-0.15878,0.05606,0.96270,2.63276,1.19451,-0.00003,-0.00547,1.06797,-1.91743,2.64740,0.87174,-1.79765,A,113524.90
2.66611,57.68796870,11.98128039,57.68799883,11.98125300,11:35:25.030035,2.66611,0.00656,1.19813,0.05761,-0.00060,-0.00499,-0.02194,-0.06411,0.12224,1.02449,2.66122,1.19487,-0.00026,-0.00570,1.06343,-1.90554,2.64740,0.87174,-1.79765,A,113524.90
2.67431,57.68796879,11.98128018,57.68799883,11.98125300,11:35:25.038220,2.67431,0.00436,1.19813,0.05805,0.00551,0.00570,-0.02118,-0.13206,0.11096,1.07561,2.66949,1.19520,-0.00033,-0.00577,1.05110,-1.89479,2.64740,0.87174,-1.79765,A,113524.90
2.68468,57.68796888,11.98128003,57.68799883,11.98125300,11:35:25.048603,2.68468,0.00450,1.19813,0.05747,0.01834,0.02937,-0.02286,-0.17531,0.02879,1.09873,2.67957,1.19549,-0.00044,-0.00585,1.04203,-1.88512,2.64740,0.87174,-1.79765,A,113524.90
2.69478,57.68796896,11.98127989,57.68799883,11.98125300,11:35:25.058702,2.69478,0.00438,1.19813,0.05667,0.01788,0.04128,-0.00377,0.03995,0.01006,0.96526,2.68997,1.19576,-0.00054,-0.00580,1.03390,-1.87643,2.64740,0.87174,-1.79765,A,113524.90
2.70526,57.68796903,11.98127977,57.68799883,11.98125300,11:35:25.069180,2.70526,0.00447,1.19813,0.05608,0.00261,0.00448,0.01135,0.10834,0.03160,0.91305,2.70015,1.19599,-0.00065,-0.00564,1.02666,-1.86860,2.64740,0.87174,-1.79765,A,113524.90
2.71555,57.68796909,11.98127967,57.68799883,11.98125300,11:35:25.079710,2.71555,0.00436,1.19813,0.05675,0.00566,-0.02805,0.03105,0.01128,0.10937,0.93842,2.71074,1.19621,-0.00075,-0.00536,1.02027,-1.86156,2.64740,0.87174,-1.79765,A,113524.90
2.72593,57.68796915,11.98127957,57.68799883,11.98125300,11:35:25.089846,2.72593,0.00434,1.19813,0.05770,0.01483,-0.05020,0.04006,-0.00683,0.11889,0.91585,2.72094,1.19640,-0.00084,-0.00505,1.01464,-1.85522,2.64740,0.87174,-1.79765,A,113524.90
2.73654,57.68796920,11.98127948,57.68799883,11.98125300,11:35:25.100447,2.73654,0.00443,1.19813,0.05831,0.01574,-0.05050,0.03502,-0.08467,0.09681,0.90609,2.73147,1.19657,-0.00092,-0.00476,1.00951,-1.84951,2.64740,0.87174,-1.79765,A,113524.90
2.74697,57.68796925,11.98127941,57.68799883,11.98125300,11:35:25.110895,2.74697,0.00447,1.19813,0.05888,0.00322,-0.04226,0.01868,-0.04325,0.10340,0.90402,2.74218,1.19673,-0.00099,-0.00452,1.00503,-1.84437,2.64740,0.87174,-1.79765,A,113524.90
2.77389,57.68796929,11.98127959,57.68799883,11.98125250,11:35:25.137823,2.77389,0.02100,1.29812,0.05989,-0.00487,-0.03004,-0.00912,-0.12804,0.15964,1.06048,2.75435,1.20687,-0.00128,-0.00455,1.01583,-1.83982,2.77100,0.84202,-1.79765,A,113525.00
2.78644,57.68796932,11.98127949,57.68799883,11.98125250,11:35:25.150369,2.78644,0.00603,1.29812,0.05878,-0.00319,-0.00988,-0.03065,0.04532,0.01196,1.03120,2.78158,1.21599,-0.00136,-0.00428,1.01005,-1.83565,2.77100,0.84202,-1.79765,A,113525.00
2.79528,57.68796936,11.98127934,57.68799883,11.98125250,11:35:25.159201,2.79528,0.00465,1.29812,0.05814,-0.00808,-0.02378,-0.02271,-0.00134,0.03977,0.99820,2.79024,1.22421,-0.00139,-0.00411,1.00067,-1.83189,2.77100,0.84202,-1.79765,A,113525.00
2.80559,57.68796939,11.98127922,57.68799883,11.98125250,11:35:25.169515,2.80559,0.00457,1.29812,0.05717,-0.00961,-0.03019,-0.00423,-0.07131,0.01964,0.97942,2.80054,1.23160,-0.00143,-0.00385,0.99387,-1.82850,2.77100,0.84202,-1.79765,A,113525.00
2.81616,57.68796942,11.98127912,57.68799883,11.98125250,11:35:25.180100,2.81616,0.00474,1.29812,0.05673,-0.00579,-0.02546,0.01425,-0.04813,0.04795,0.92354,2.81097,1.23825,-0.00147,-0.00355,0.98795,-1.82545,2.77100,0.84202,-1.79765,A,113525.00
2.82627,57.68796944,11.98127903,57.68799883,11.98125250,11:35:25.190190,2.82627,0.00439,1.29812,0.05689,-0.00151,-0.02927,0.02418,0.04014,0.07942,0.89371,2.82146,1.24424,-0.00150,-0.00324,0.98262,-1.82270,2.77100,0.84202,-1.79765,A,113525.00
2.83738,57.68796946,11.98127896,57.68799883,11.98125250,11:35:25.201305,2.83738,0.00527,1.29812,0.05736,0.00154,-0.04210,0.02433,-0.02684,0.10333,0.96197,2.83228,1.24963,-0.00153,-0.00293,0.97863,-1.82023,2.77100,0.84202,-1.79765,A,113525.00
2.84686,57.68796948,11.98127888,57.68799883,11.98125250,11:35:25.210774,2.84686,0.00435,1.29812,0.05809,0.01895,-0.03630,0.02295,-0.13463,0.11999,1.04194,2.84206,1.25448,-0.00154,-0.00268,0.97359,-1.81800,2.77100,0.84202,-1.79765,A,113525.00
2.85742,57.68796950,11.98127882,57.68799883,11.98125250,11:35:25.221336,2.85742,0.00452,1.29812,0.05862,0.02261,-0.00102,0.01471,-0.08375,0.10888,1.09910,2.85227,1.25884,-0.00155,-0.00248,0.96989,-1.81599,2.77100,0.84202,-1.79765,A,113525.00
2.86800,57.68796952,11.98127876,57.68799883,11.98125250,11:35:25.231941,2.86800,0.00468,1.29812,0.05908,0.01987,0.00982,0.00554,-0.00464,0.10358,1.07268,2.86284,1.26277,-0.00156,-0.00233,0.96662,-1.81418,2.77100,0.84202,-1.79765,A,113525.00
2.89067,57.68796958,11.98127889,57.68799933,11.98125183,11:35:25.254616,2.89067,0.01669,1.29812,0.05907,0.01971,0.00585,0.00616,0.03751,0.06771,1.03072,2.87325,1.26630,-0.00160,-0.00226,0.97407,-1.80702,2.88760,0.80240,-1.74205,A,113525.10
2.90674,57.68796964,11.98127885,57.68799933,11.98125183,11:35:25.270666,2.90674,0.00715,1.29812,0.05898,-0.00243,-0.01568,0.00554,-0.08796,0.07845,1.00424,2.90048,1.26948,-0.00161,-0.00209,0.97189,-1.80056,2.88760,0.80240,-1.74205,A,113525.10
2.91435,57.68796969,11.98127868,57.68799933,11.98125183,11:35:25.278270,2.91435,0.00437,1.29812,0.05900,-0.00075,-0.00117,0.00952,-0.00805,0.07759,0.94526,2.90953,1.27235,-0.00160,-0.00206,0.96154,-1.79472,2.88760,0.80240,-1.74205,A,113525.10
2.92475,57.68796974,11.98127857,57.68799933,11.98125183,11:35:25.288673,2.92475,0.00453,1.29812,0.05947,-0.00579,-0.00667,0.00585,0.05094,0.10657,0.92244,2.91964,1.27493,-0.00159,-0.00206,0.95509,-1.78947,2.88760,0.80240,-1.74205,A,113525.10
2.93500,57.68796978,11.98127847,57.68799933,11.98125183,11:35:25.298914,2.93500,0.00438,1.29812,0.06008,-0.00442,-0.01645,0.00203,0.01604,0.11462,0.91970,2.93019,1.27725,-0.00159,-0.00205,0.94948,-1.78475,2.88760,0.80240,-1.74205,A,113525.10
2.94547,57.68796982,11.98127839,57.68799933,11.98125183,11:35:25.309389,2.94547,0.00446,1.29812,0.06025,-0.00381,-0.01584,0.00112,-0.05722,0.09431,0.99198,2.94038,1.27933,-0.00158,-0.00205,0.94438,-1.78050,2.88760,0.80240,-1.74205,A,113525.10
2.95601,57.68796986,11.98127831,57.68799933,11.98125183,11:35:25.319942,2.95601,0.00460,1.29812,0.05985,-0.00442,-0.00102,-0.00683,-0.02330,0.05447,0.95593,2.95095,1.28121,-0.00158,-0.00204,0.93992,-1.77668,2.88760,0.80240,-1.74205,A,113525.10
2.96621,57.68796989,11.98127824,57.68799933,11.98125183,11:35:25.330133,2.96621,0.00441,1.29812,0.05861,-0.01129,-0.00621,-0.00484,0.00311,0.00610,0.98064,2.96137,1.28290,-0.00157,-0.00204,0.93583,-1.77323,2.88760,0.80240,-1.74205,A,113525.10
2.97662,57.68796991,11.98127818,57.68799933,11.98125183,11:35:25.340542,2.97662,0.00446,1.29812,0.05850,-0.02366,-0.01125,-0.01064,0.07003,0.08784,0.99765,2.97156,1.28442,-0.00157,-0.00203,0.93210,-1.77014,2.88760,0.80240,-1.74205,A,113525.10
2.98693,57.68796994,11.98127813,57.68799933,11.98125183,11:35:25.350841,2.98693,0.00438,1.29812,0.05812,-0.02519,-0.03325,-0.00453,0.01531,0.07576,1.06329,2.98212,1.28579,-0.00156,-0.00203,0.92893,-1.76735,2.88760,0.80240,-1.74205,A,113525.10
3.02162,57.68797009,11.98127842,57.68800067,11.98125050,11:35:25.385541,3.02162,0.02866,1.29812,0.05820,-0.03099,-0.03554,-0.00224,-0.00903,0.11529,1.08848,2.99246,1.28703,-0.00160,-0.00207,0.94645,-1.75007,3.01879,0.72315,-1.59379,A,113525.30
3.03144,57.68797023,11.98127820,57.68800067,11.98125050,11:35:25.395603,3.03144,0.00439,1.29812,0.05756,-0.02534,-0.00621,-0.00408,0.00738,0.08741,0.93452,3.02663,1.28814,-0.00160,-0.00206,0.93338,-1.73446,3.01879,0.72315,-1.59379,A,113525.30
3.04284,57.68797036,11.98127804,57.68800067,11.98125050,11:35:25.406768,3.04284,0.00540,1.29812,0.05708,-0.03175,-0.01095,0.00096,0.04758,0.05978,0.85540,3.03797,1.28913,-0.00159,-0.00206,0.92340,-1.72042,3.01879,0.72315,-1.59379,A,113525.30
3.05328,57.68797047,11.98127784,57.68800067,11.98125050,11:35:25.417242,3.05328,0.00532,1.29812,0.05643,-0.03114,-0.01935,-0.00484,0.00476,0.04593,0.85156,3.04734,1.29003,-0.00159,-0.00205,0.91205,-1.70777,3.01879,0.72315,-1.59379,A,113525.30
3.06280,57.68797058,11.98127768,57.68800067,11.98125050,11:35:25.426726,3.06280,0.00445,1.29812,0.05625,-0.04153,-0.02362,-0.00744,-0.08235,0.09052,0.96227,3.05799,1.29084,-0.00158,-0.00204,0.90217,-1.69639,3.01879,0.72315,-1.59379,A,113525.30
3.07320,57.68797067,11.98127754,57.68800067,11.98125050,11:35:25.437114,3.07320,0.00445,1.29812,0.05613,-0.04000,-0.01186,-0.00576,-0.08656,0.09833,1.01913,3.06810,1.29157,-0.00157,-0.00204,0.89388,-1.68615,3.01879,0.72315,-1.59379,A,113525.30
3.08348,57.68797075,11.98127742,57.68800067,11.98125050,11:35:25.447628,3.08348,0.00435,1.29812,0.05515,-0.03924,-0.00866,-0.00560,0.00616,0.04178,1.07323,3.07869,1.29222,-0.00157,-0.00203,0.88666,-1.67694,3.01879,0.72315,-1.59379,A,113525.30
3.09439,57.68797083,11.98127732,57.68800067,11.98125050,11:35:25.458312,3.09439,0.00486,1.29812,0.05477,-0.04641,-0.00942,-0.00469,0.05014,0.09406,1.13539,3.08931,1.29281,-0.00157,-0.00203,0.88056,-1.66864,3.01879,0.72315,-1.59379,A,113525.30
3.10463,57.68797089,11.98127721,57.68800067,11.98125050,11:35:25.468554,3.10463,0.00458,1.29812,0.05441,-0.04305,-0.02347,-0.00545,0.00250,0.08955,1.11349,3.09955,1.29334,-0.00156,-0.00202,0.87429,-1.66118,3.01879,0.72315,-1.59379,A,113525.30
3.11480,57.68797095,11.98127712,57.68800067,11.98125050,11:35:25.478708,3.11480,0.00435,1.29812,0.05417,-0.04076,-0.02836,-0.00117,-0.04734,0.09595,1.09684,3.10998,1.29382,-0.00156,-0.00202,0.86887,-1.65446,3.01879,0.72315,-1.59379,A,113525.30
3.13803,57.68797111,11.98127719,57.68800167,11.98124950,11:35:25.501956,3.13803,0.01719,1.29812,0.05337,-0.04015,-0.03538,0.00264,0.00811,0.04874,0.99601,3.12020,1.29425,-0.00158,-0.00204,0.87334,-1.63732,3.13500,0.66371,-1.48260,A,113525.40
3.15138,57.68797125,11.98127707,57.68800167,11.98124950,11:35:25.515561,3.15138,0.00596,1.29812,0.05261,-0.05878,-0.03477,0.00524,-0.01915,0.09980,0.79538,3.14653,1.29464,-0.00158,-0.00204,0.86575,-1.62188,3.13500,0.66371,-1.48260,A,113525.40
3.16044,57.68797137,11.98127686,57.68800167,11.98124950,11:35:25.524361,3.16044,0.00446,1.29812,0.05332,-0.05283,-0.02240,0.00050,-0.14146,0.13731,0.90018,3.15536,1.29499,-0.00157,-0.00203,0.85366,-1.60797,3.13500,0.66371,-1.48260,A,113525.40
3.17070,57.68797149,11.98127671,57.68800167,11.98124950,11:35:25.534619,3.17070,0.00434,1.29812,0.05370,-0.04336,0.00661,-0.00851,-0.12194,0.12535,0.96319,3.16591,1.29530,-0.00156,-0.00203,0.84452,-1.59545,3.13500,0.66371,-1.48260,A,113525.40
3.18137,57.68797159,11.98127657,57.68800167,11.98124950,11:35:25.545294,3.18137,0.00461,1.29812,0.05335,-0.02992,0.02265,-0.01370,-0.05960,0.07655,1.06982,3.17611,1.29558,-0.00156,-0.00202,0.83621,-1.58418,3.13500,0.66371,-1.48260,A,113525.40
3.19199,57.68797168,11.98127644,57.68800167,11.98124950,11:35:25.555920,3.19199,0.00484,1.29812,0.05268,-0.02702,0.01165,-0.01797,0.03666,0.05246,1.09153,3.18669,1.29584,-0.00155,-0.00202,0.82864,-1.57405,3.13500,0.66371,-1.48260,A,113525.40
3.20191,57.68797176,11.98127632,57.68800167,11.98124950,11:35:25.565831,3.20191,0.00437,1.29812,0.05151,-0.03038,-0.00148,-0.01095,0.02617,0.01836,1.15900,3.19691,1.29606,-0.00155,-0.00201,0.82160,-1.56492,3.13500,0.66371,-1.48260,A,113525.40
3.21250,57.68797183,11.98127622,57.68800167,11.98124950,11:35:25.576419,3.21250,0.00444,1.29812,0.05084,-0.03007,-0.01217,0.00035,0.02294,0.05441,1.11313,3.20743,1.29627,-0.00154,-0.00201,0.81572,-1.55671,3.13500,0.66371,-1.48260,A,113525.40
3.22279,57.68797190,11.98127613,57.68800167,11.98124950,11:35:25.586704,3.22279,0.00434,1.29812,0.04999,-0.03084,-0.02805,0.01944,-0.01257,0.03733,1.02352,3.21800,1.29646,-0.00154,-0.00199,0.81040,-1.54932,3.13500,0.66371,-1.48260,A,113525.40
3.23327,57.68797196,11.98127605,57.68800167,11.98124950,11:35:25.597190,3.23327,0.00443,1.29812,0.05056,-0.02717,-0.02530,0.03120,-0.04087,0.12285,0.96221,3.22820,1.29662,-0.00154,-0.00195,0.80552,-1.54266,3.13500,0.66371,-1.48260,A,113525.40
3.25603,57.68797213,11.98127616,57.68800283,11.98124883,11:35:25.619961,3.25603,0.01679,1.29812,0.05126,-0.01358,-0.02378,0.03975,-0.04337,0.11212,0.87395,3.23877,1.29677,-0.00155,-0.00187,0.81174,-1.52373,3.25320,0.62409,-1.35287,A,113525.50
3.27247,57.68797228,11.98127612,57.68800283,11.98124883,11:35:25.636395,3.27247,0.00591,1.29812,0.05107,-0.00197,-0.03080,0.01975,-0.06759,0.06313,0.99662,3.26731,1.29691,-0.00155,-0.00145,0.80963,-1.50668,3.25320,0.62409,-1.35287,A,113525.50
3.28138,57.68797242,11.98127594,57.68800283,11.98124883,11:35:25.645305,3.28138,0.00443,1.29812,0.05106,-0.00839,-0.01507,0.00890,-0.11041,0.08113,1.05829,3.27631,1.29703,-0.00153,-0.00125,0.79903,-1.49131,3.25320,0.62409,-1.35287,A,113525.50
3.29210,57.68797255,11.98127582,57.68800283,11.98124883,11:35:25.656045,3.29210,0.00476,1.29812,0.05083,-0.00610,-0.01018,0.00142,-0.04172,0.06679,1.08891,3.28688,1.29714,-0.00151,-0.00097,0.79143,-1.47748,3.25320,0.62409,-1.35287,A,113525.50
3.30260,57.68797266,11.98127570,57.68800283,11.98124883,11:35:25.666710,3.30260,0.00486,1.29812,0.05050,-0.01007,-0.00591,0.00325,-0.02318,0.06313,1.10154,3.29778,1.29724,-0.00148,-0.00063,0.78485,-1.46503,3.25320,0.62409,-1.35287,A,113525.50
3.31254,57.68797276,11.98127559,57.68800283,11.98124883,11:35:25.676459,3.31254,0.00445,1.33392,0.05024,-0.00258,-0.00988,0.00341,-0.02025,0.06423,1.14198,3.30746,1.30090,-0.00145,-0.00027,0.77792,-1.45382,3.25320,0.62409,-1.35287,A,113525.50
3.32386,57.68797285,11.98127551,57.68800283,11.98124883,11:35:25.687813,3.32386,0.00515,1.33392,0.04984,0.00001,-0.01538,0.00997,-0.00628,0.04795,1.05426,3.31875,1.30421,-0.00140,0.00018,0.77332,-1.44373,3.25320,0.62409,-1.35287,A,113525.50
3.33333,57.68797293,11.98127541,57.68800283,11.98124883,11:35:25.697251,3.33333,0.00445,1.33392,0.04959,0.00520,-0.02683,0.01929,0.01068,0.04843,0.92561,3.32824,1.30718,-0.00136,0.00062,0.76729,-1.43464,3.25320,0.62409,-1.35287,A,113525.50
3.34362,57.68797300,11.98127534,57.68800283,11.98124883,11:35:25.707776,3.34362,0.00435,1.33392,0.04997,0.00963,-0.04103,0.03074,-0.02105,0.07808,0.86132,3.33880,1.30985,-0.00130,0.00107,0.76292,-1.42646,3.25320,0.62409,-1.35287,A,113525.50
3.35403,57.68797307,11.98127527,57.68800283,11.98124883,11:35:25.717956,3.35403,0.00437,1.33392,0.05052,0.00765,-0.03920,0.03456,-0.17885,0.09266,0.88645,3.34920,1.31226,-0.00122,0.00144,0.75914,-1.41909,3.25320,0.62409,-1.35287,A,113525.50
3.37681,57.68797323,11.98127543,57.68800383,11.98124850,11:35:25.740729,3.37681,0.01673,1.33392,0.05160,0.02261,-0.00392,0.03135,-0.15933,0.11846,0.90457,3.35945,1.31442,-0.00101,0.00186,0.76828,-1.40131,3.37394,0.60428,-1.24168,A,113525.60
3.39132,57.68797337,11.98127539,57.68800383,11.98124850,11:35:25.755916,3.39132,0.00606,1.33392,0.05248,0.02170,0.00020,0.01959,-0.03227,0.10163,1.06280,3.38578,1.31637,-0.00089,0.00215,0.76603,-1.38532,3.37394,0.60428,-1.24168,A,113525.60
3.40045,57.68797350,11.98127525,57.68800383,11.98124850,11:35:25.764365,3.40045,0.00463,1.33392,0.05258,0.02521,0.00692,0.01898,-0.07033,0.07552,1.14607,3.39519,1.31813,-0.00083,0.00221,0.75800,-1.37094,3.37394,0.60428,-1.24168,A,113525.60
3.41055,57.68797362,11.98127516,57.68800383,11.98124850,11:35:25.774459,3.41055,0.00434,1.33392,0.05230,0.02949,0.01669,0.01944,-0.07899,0.04160,1.15266,3.40576,1.31971,-0.00075,0.00229,0.75246,-1.35799,3.37394,0.60428,-1.24168,A,113525.60
3.42090,57.68797373,11.98127508,57.68800383,11.98124850,11:35:25.784823,3.42090,0.00446,1.33392,0.05179,0.01773,0.02387,0.01318,-0.00659,0.03209,1.10776,3.41583,1.32113,-0.00067,0.00237,0.74746,-1.34634,3.37394,0.60428,-1.24168,A,113525.60
3.43135,57.68797382,11.98127501,57.68800383,11.98124850,11:35:25.795504,3.43135,0.00451,1.33392,0.05107,0.00994,0.00875,0.01410,0.09632,0.01928,0.98905,3.42654,1.32241,-0.00059,0.00245,0.74337,-1.33585,3.37394,0.60428,-1.24168,A,113525.60
3.44164,57.68797390,11.98127494,57.68800383,11.98124850,11:35:25.805558,3.44164,0.00441,1.33392,0.05113,0.00551,-0.01965,0.01379,0.03770,0.07344,0.98600,3.43659,1.32356,-0.00051,0.00253,0.73924,-1.32641,3.37394,0.60428,-1.24168,A,113525.60
3.45218,57.68797398,11.98127488,57.68800383,11.98124850,11:35:25.816103,3.45218,0.00456,1.33392,0.05182,0.00490,-0.01706,0.02219,-0.12121,0.11895,1.02291,3.44714,1.32459,-0.00043,0.00261,0.73584,-1.31791,3.37394,0.60428,-1.24168,A,113525.60
3.46237,57.68797405,11.98127483,57.68800383,11.98124850,11:35:25.826288,3.46237,0.00436,1.33392,0.05265,0.00872,-0.00683,0.01700,-0.12078,0.12584,1.00790,3.45755,1.32553,-0.00036,0.00269,0.73265,-1.31026,3.37394,0.60428,-1.24168,A,113525.60
3.47275,57.68797411,11.98127478,57.68800383,11.98124850,11:35:25.836671,3.47275,0.00450,1.33392,0.05269,0.00872,0.00646,0.01226,-0.04142,0.06942,0.95996,3.46764,1.32637,-0.00028,0.00276,0.72966,-1.30337,3.37394,0.60428,-1.24168,A,113525.60
3.49662,57.68797430,11.98127492,57.68800517,11.98124767,11:35:25.860546,3.49662,0.01798,1.33392,0.05301,0.00536,0.01288,0.01043,-0.02501,0.08558,0.91793,3.47827,1.32712,-0.00004,0.00300,0.73805,-1.28231,3.49289,0.55474,-1.09342,A,113525.70
3.50683,57.68797447,11.98127478,57.68800517,11.98124767,11:35:25.870742,3.50683,0.00448,1.33392,0.05270,0.00719,0.01013,-0.00209,0.00360,0.03825,0.86901,3.50199,1.32780,0.00004,0.00308,0.72971,-1.26339,3.49289,0.55474,-1.09342,A,113525.70
3.51721,57.68797462,11.98127465,57.68800517,11.98124767,11:35:25.881124,3.51721,0.00446,1.33392,0.05241,0.00566,-0.01370,-0.00621,-0.06576,0.04898,0.93769,3.51210,1.32841,0.00011,0.00315,0.72208,-1.24636,3.49289,0.55474,-1.09342,A,113525.70
3.52750,57.68797476,11.98127454,57.68800517,11.98124767,11:35:25.891646,3.52750,0.00436,1.33392,0.05211,0.00261,-0.01660,-0.00591,-0.01806,0.05179,0.96728,3.52270,1.32896,0.00018,0.00322,0.71547,-1.23103,3.49289,0.55474,-1.09342,A,113525.70
3.53791,57.68797489,11.98127444,57.68800517,11.98124767,11:35:25.901826,3.53791,0.00437,1.33392,0.05125,0.00078,-0.01752,0.00020,-0.00220,0.01696,1.02096,3.53290,1.32946,0.00026,0.00330,0.70966,-1.21724,3.49289,0.55474,-1.09342,A,113525.70
3.54849,57.68797500,11.98127435,57.68800517,11.98124767,11:35:25.912410,3.54849,0.00443,1.33392,0.05140,-0.00228,-0.01858,0.00035,0.01494,0.09010,1.04615,3.54342,1.32990,0.00033,0.00337,0.70434,-1.20482,3.49289,0.55474,-1.09342,A,113525.70
3.55935,57.68797510,11.98127428,57.68800517,11.98124767,11:35:25.923513,3.55935,0.00498,1.33392,0.05232,0.00352,-0.02042,0.00554,-0.13627,0.14994,1.12484,3.55450,1.33031,0.00041,0.00342,0.70014,-1.19365,3.49289,0.55474,-1.09342,A,113525.70
3.56921,57.68797519,11.98127419,57.68800517,11.98124767,11:35:25.933134,3.56921,0.00445,1.33392,0.05292,0.02017,-0.00377,0.00295,-0.09492,0.11505,1.12563,3.56411,1.33067,0.00047,0.00341,0.69486,-1.18359,3.49289,0.55474,-1.09342,A,113525.70
3.57959,57.68797527,11.98127413,57.68800517,11.98124767,11:35:25.943749,3.57959,0.00444,1.33392,0.05273,0.02888,0.00402,-0.00072,-0.04410,0.04362,1.02236,3.57478,1.33099,0.00054,0.00332,0.69109,-1.17454,3.49289,0.55474,-1.09342,A,113525.70
3.59005,57.68797534,11.98127407,57.68800517,11.98124767,11:35:25.953973,3.59005,0.00451,1.33392,0.05207,0.01574,0.00066,-0.00316,-0.00250,0.01995,0.95715,3.58489,1.33128,0.00060,0.00315,0.68777,-1.16639,3.49289,0.55474,-1.09342,A,113525.70
3.62345,57.68797561,11.98127435,57.68800717,11.98124633,11:35:25.987515,3.62345,0.02736,1.33392,0.05150,0.00933,-0.00927,-0.00912,-0.00128,0.02672,0.90561,3.59547,1.33155,0.00090,0.00311,0.70447,-1.13674,3.62076,0.47550,-0.87103,A,113525.90
3.63893,57.68797585,11.98127420,57.68800717,11.98124633,11:35:26.003674,3.63893,0.00640,1.33392,0.05191,0.02002,-0.02194,-0.00652,-0.08967,0.05612,1.06543,3.63202,1.33178,0.00097,0.00192,0.69542,-1.11012,3.62076,0.47550,-0.87103,A,113525.90
3.64729,57.68797606,11.98127396,57.68800717,11.98124633,11:35:26.011211,3.64729,0.00436,1.33392,0.05180,0.02246,-0.00179,-0.00881,-0.00738,0.05411,1.07604,3.64250,1.33200,0.00098,0.00163,0.68127,-1.08620,3.62076,0.47550,-0.87103,A,113525.90
3.65771,57.68797626,11.98127378,57.68800717,11.98124633,11:35:26.021629,3.65771,0.00438,1.33392,0.05159,0.01910,-0.00316,-0.01324,-0.00037,0.05118,1.10526,3.65268,1.33219,0.00099,0.00138,0.67072,-1.06466,3.62076,0.47550,-0.87103,A,113525.90
3.66832,57.68797643,11.98127363,57.68800717,11.98124633,11:35:26.032243,3.66832,0.00445,1.33392,0.05172,0.01941,-0.01095,-0.01446,-0.02019,0.07302,1.07348,3.66325,1.33236,0.00099,0.00116,0.66141,-1.04529,3.62076,0.47550,-0.87103,A,113525.90
3.67875,57.68797659,11.98127349,57.68800717,11.98124633,11:35:26.042671,3.67875,0.00448,1.33392,0.05174,0.01925,-0.02622,-0.01568,-0.07997,0.06381,1.05438,3.67394,1.33252,0.00098,0.00100,0.65313,-1.02785,3.62076,0.47550,-0.87103,A,113525.90
3.68899,57.68797673,11.98127335,57.68800717,11.98124633,11:35:26.052913,3.68899,0.00449,1.33392,0.05149,0.02277,-0.01568,-0.01675,-0.05435,0.04050,0.98350,3.68390,1.33266,0.00097,0.00086,0.64510,-1.01216,3.62076,0.47550,-0.87103,A,113525.90
3.69951,57.68797686,11.98127324,57.68800717,11.98124633,11:35:26.063685,3.69951,0.00461,1.33392,0.05115,0.01956,-0.03447,-0.01324,0.02934,0.03178,0.86986,3.69454,1.33278,0.00096,0.00076,0.63837,-0.99804,3.62076,0.47550,-0.87103,A,113525.90
3.70983,57.68797697,11.98127314,57.68800717,11.98124633,11:35:26.073745,3.70983,0.00453,1.33392,0.05175,0.01483,-0.03752,-0.01019,-0.01885,0.09345,0.91402,3.70481,1.33290,0.00094,0.00069,0.63225,-0.98533,3.62076,0.47550,-0.87103,A,113525.90
3.72036,57.68797707,11.98127304,57.68800717,11.98124633,11:35:26.084283,3.72036,0.00449,1.33392,0.05276,0.01956,-0.03691,-0.01049,-0.02611,0.11395,0.89798,3.71525,1.33300,0.00093,0.00065,0.62666,-0.97389,3.62076,0.47550,-0.87103,A,113525.90
3.74344,57.68797723,11.98127310,57.68800783,11.98124517,11:35:26.107516,3.74344,0.01717,1.33392,0.05371,0.02903,-0.03309,-0.01400,-0.11767,0.11114,0.94538,3.72581,1.33309,0.00090,0.00061,0.63022,-0.95617,3.74074,0.40615,-0.79690,A,113526.00
3.75361,57.68797738,11.98127289,57.68800783,11.98124517,11:35:26.117533,3.75361,0.00450,1.33392,0.05414,0.04186,0.02433,-0.01721,-0.06088,0.04435,1.08806,3.74853,1.33317,0.00088,0.00059,0.61750,-0.94024,3.74074,0.40615,-0.79690,A,113526.00
3.76485,57.68797751,11.98127272,57.68800783,11.98124517,11:35:26.128774,3.76485,0.00502,1.33392,0.05364,0.03560,0.02341,-0.01614,0.06667,0.01623,1.01034,3.75973,1.33325,0.00086,0.00058,0.60728,-0.92590,3.74074,0.40615,-0.79690,A,113526.00
3.77460,57.68797762,11.98127254,57.68800783,11.98124517,11:35:26.138514,3.77460,0.00437,1.33392,0.05356,0.02414,-0.00469,-0.01217,0.08375,0.05319,1.00656,3.76979,1.33332,0.00085,0.00055,0.59666,-0.91299,3.74074,0.40615,-0.79690,A,113526.00
3.78500,57.68797773,11.98127238,57.68800783,11.98124517,11:35:26.148923,3.78500,0.00453,1.33392,0.05399,0.02200,-0.03462,-0.00637,0.01885,0.08778,0.98710,3.77986,1.33338,0.00083,0.00051,0.58749,-0.90138,3.74074,0.40615,-0.79690,A,113526.00
3.79598,57.68797782,11.98127225,57.68800783,11.98124517,11:35:26.159932,3.79598,0.00511,1.33392,0.05486,0.01742,-0.05004,-0.00240,-0.08522,0.12249,1.00711,3.79040,1.33343,0.00082,0.00044,0.57970,-0.89093,3.74074,0.40615,-0.79690,A,113526.00
3.80582,57.68797791,11.98127213,57.68800783,11.98124517,11:35:26.169737,3.80582,0.00457,1.33392,0.05557,0.01421,-0.03279,-0.00789,-0.09601,0.11224,0.98899,3.80077,1.33348,0.00080,0.00030,0.57232,-0.88152,3.74074,0.40615,-0.79690,A,113526.00
3.81632,57.68797798,11.98127202,57.68800783,11.98124517,11:35:26.180244,3.81632,0.00452,1.33392,0.05552,0.01727,-0.01858,-0.01431,-0.02330,0.05832,0.95709,3.81118,1.33352,0.00078,0.00011,0.56571,-0.87305,3.74074,0.40615,-0.79690,A,113526.00
3.82655,57.68797805,11.98127192,57.68800783,11.98124517,11:35:26.190465,3.82655,0.00435,1.33392,0.05630,0.00826,-0.00255,-0.02485,-0.00134,0.11913,0.96526,3.82176,1.33356,0.00076,-0.00009,0.55986,-0.86544,3.74074,0.40615,-0.79690,A,113526.00
3.83690,57.68797811,11.98127183,57.68800783,11.98124517,11:35:26.200815,3.83690,0.00446,1.33392,0.05693,0.01605,-0.00530,-0.02882,-0.07649,0.10736,0.99198,3.83182,1.33360,0.00073,-0.00025,0.55439,-0.85858,3.74074,0.40615,-0.79690,A,113526.00
3.86081,57.68797825,11.98127193,57.68800867,11.98124433,11:35:26.224749,3.86081,0.01798,1.33392,0.05738,0.02002,0.00722,-0.03202,-0.19166,0.10309,1.09385,3.84239,1.33363,0.00064,-0.00038,0.56048,-0.84315,3.85748,0.35662,-0.70423,A,113526.10
3.87068,57.68797838,11.98127175,57.68800867,11.98124433,11:35:26.234599,3.87068,0.00441,1.32891,0.05681,0.01559,0.02631,-0.01721,0.08510,0.01610,1.02010,3.86585,1.33316,0.00061,-0.00041,0.54973,-0.82927,3.85748,0.35662,-0.70423,A,113526.10
3.88117,57.68797849,11.98127159,57.68800867,11.98124433,11:35:26.245089,3.88117,0.00449,1.32891,0.05664,0.00780,-0.00515,-0.00530,0.10242,0.05789,0.95380,3.87604,1.33273,0.00058,-0.00044,0.54042,-0.81677,3.85748,0.35662,-0.70423,A,113526.10
3.89143,57.68797859,11.98127145,57.68800867,11.98124433,11:35:26.255641,3.89143,0.00435,1.32891,0.05795,0.00627,-0.03798,0.00570,-0.01696,0.15634,0.96593,3.88663,1.33235,0.00055,-0.00047,0.53216,-0.80552,3.85748,0.35662,-0.70423,A,113526.10
3.90185,57.68797868,11.98127133,57.68800867,11.98124433,11:35:26.265967,3.90185,0.00438,1.32891,0.05941,0.01849,-0.03172,0.01104,-0.10144,0.15622,0.94867,3.89684,1.33201,0.00052,-0.00050,0.52490,-0.79539,3.85748,0.35662,-0.70423,A,113526.10
3.91245,57.68797876,11.98127122,57.68800867,11.98124433,11:35:26.276370,3.91245,0.00445,1.32891,0.06013,0.02048,-0.01049,0.00661,-0.08699,0.10413,0.91146,3.90738,1.33170,0.00049,-0.00054,0.51826,-0.78628,3.85748,0.35662,-0.70423,A,113526.10
3.92275,57.68797884,11.98127112,57.68800867,11.98124433,11:35:26.286666,3.92275,0.00436,1.32891,0.06056,0.00520,0.00707,-0.00270,0.00512,0.09290,0.87645,3.91794,1.33142,0.00046,-0.00057,0.51225,-0.77808,3.85748,0.35662,-0.70423,A,113526.10
3.93323,57.68797890,11.98127103,57.68800867,11.98124433,11:35:26.297150,3.93323,0.00445,1.32891,0.06092,0.00093,0.00600,-0.01263,-0.02714,0.09638,0.92159,3.92814,1.33117,0.00043,-0.00060,0.50671,-0.77071,3.85748,0.35662,-0.70423,A,113526.10
3.94354,57.68797896,11.98127094,57.68800867,11.98124433,11:35:26.307722,3.94354,0.00437,1.32891,0.06121,0.00643,0.02479,-0.01996,-0.09845,0.09931,1.02645,3.93874,1.33094,0.00040,-0.00062,0.50187,-0.76406,3.85748,0.35662,-0.70423,A,113526.10
3.95408,57.68797902,11.98127087,57.68800867,11.98124433,11:35:26.317999,3.95408,0.00451,1.32891,0.06112,0.00643,0.03364,-0.02469,-0.10962,0.07808,1.09629,3.94925,1.33074,0.00037,-0.00066,0.49776,-0.75809,3.85748,0.35662,-0.70423,A,113526.10
3.97872,57.68797915,11.98127102,57.68800950,11.98124350,11:35:26.342652,3.97872,0.01870,1.32891,0.06034,0.00093,0.03487,-0.03019,-0.02318,0.03233,1.10910,3.96020,1.33056,0.00028,-0.00074,0.50611,-0.74345,3.97599,0.30709,-0.61157,A,113526.20
3.99249,57.68797927,11.98127091,57.68800950,11.98124350,11:35:26.356593,3.99249,0.00651,1.32891,0.06057,-0.01648,-0.01461,-0.00423,-0.01458,0.12340,0.97948,3.98732,1.33039,0.00024,-0.00079,0.50009,-0.73028,3.97599,0.30709,-0.61157,A,113526.20
4.00145,57.68797937,11.98127071,57.68800950,11.98124350,11:35:26.365378,4.00145,0.00523,1.32891,0.06133,-0.00915,-0.01324,-0.00224,-0.06966,0.13109,0.94922,3.99560,1.33024,0.00022,-0.00080,0.48809,-0.71841,3.97599,0.30709,-0.61157,A,113526.20
4.01096,57.68797947,11.98127056,57.68800950,11.98124350,11:35:26.374878,4.01096,0.00435,1.32891,0.06223,-0.00457,-0.00316,-0.00179,-0.06625,0.13505,0.92470,4.00615,1.33011,0.00020,-0.00083,0.47921,-0.70774,3.97599,0.30709,-0.61157,A,113526.20
4.02144,57.68797955,11.98127044,57.68800950,11.98124350,11:35:26.385352,4.02144,0.00444,1.32891,0.06200,0.00383,0.00677,0.00066,-0.01848,0.05703,0.88590,4.01635,1.32999,0.00017,-0.00085,0.47201,-0.69813,3.97599,0.30709,-0.61157,A,113526.20
4.03197,57.68797963,11.98127033,57.68800950,11.98124350,11:35:26.395896,4.03197,0.00458,1.32891,0.06165,0.00246,0.00952,-0.00484,0.00262,0.05429,0.94635,4.02692,1.32988,0.00014,-0.00088,0.46565,-0.68948,3.97599,0.30709,-0.61157,A,113526.20
4.04217,57.68797970,11.98127024,57.68800950,11.98124350,11:35:26.406082,4.04217,0.00438,1.32891,0.06078,-0.00274,0.01776,-0.00896,-0.02428,0.02666,1.00485,4.03735,1.32979,0.00012,-0.00091,0.46010,-0.68170,3.97599,0.30709,-0.61157,A,113526.20
4.05255,57.68797977,11.98127015,57.68800950,11.98124350,11:35:26.416469,4.05255,0.00445,1.32891,0.06080,-0.00167,0.01608,-0.00683,-0.03428,0.08632,1.02669,4.04748,1.32970,0.00009,-0.00093,0.45472,-0.67469,3.97599,0.30709,-0.61157,A,113526.20
4.06285,57.68797982,11.98127007,57.68800950,11.98124350,11:35:26.426773,4.06285,0.00436,1.32891,0.06097,-0.00533,0.01288,0.00050,-0.06069,0.10492,1.08989,4.05804,1.32962,0.00006,-0.00096,0.45009,-0.66839,3.97599,0.30709,-0.61157,A,113526.20
4.07333,57.68797987,11.98127000,57.68800950,11.98124350,11:35:26.437247,4.07333,0.00445,1.32891,0.06088,-0.00014,0.01181,0.00875,0.03666,0.08113,1.07329,4.06824,1.32955,0.00004,-0.00099,0.44581,-0.66272,3.97599,0.30709,-0.61157,A,113526.20
4.10888,57.68798009,11.98127031,57.68801117,11.98124217,11:35:26.472808,4.10888,0.02960,1.32891,0.06053,-0.00014,0.00203,0.00738,0.02727,0.06368,1.09428,4.07884,1.32949,-0.00009,-0.00112,0.46432,-0.63911,4.10606,0.22784,-0.42625,A,113526.40
4.11872,57.68798028,11.98127008,57.68801117,11.98124217,11:35:26.482635,4.11872,0.00440,1.32891,0.06098,-0.01114,0.01242,-0.00148,-0.09437,0.12603,0.91598,4.11389,1.32943,-0.00011,-0.00114,0.45024,-0.61784,4.10606,0.22784,-0.42625,A,113526.40
4.12918,57.68798045,11.98126987,57.68801117,11.98124217,11:35:26.493101,4.12918,0.00447,1.32891,0.06068,-0.00762,0.01822,-0.00621,-0.03648,0.05984,0.89847,4.12408,1.32938,-0.00014,-0.00116,0.43797,-0.59869,4.10606,0.22784,-0.42625,A,113526.40
4.13948,57.68798060,11.98126969,57.68801117,11.98124217,11:35:26.503634,4.13948,0.00436,1.32891,0.05995,-0.01266,0.02738,-0.01446,-0.00445,0.03751,0.90237,4.13468,1.32933,-0.00016,-0.00119,0.42709,-0.58146,4.10606,0.22784,-0.42625,A,113526.40
4.14988,57.68798074,11.98126952,57.68801117,11.98124217,11:35:26.513797,4.14988,0.00436,1.32891,0.05937,-0.02335,0.01288,-0.01675,-0.04044,0.05716,1.00077,4.14487,1.32929,-0.00019,-0.00121,0.41741,-0.56595,4.10606,0.22784,-0.42625,A,113526.40
4.16192,57.68798087,11.98126941,57.68801117,11.98124217,11:35:26.525851,4.16192,0.00554,1.32891,0.05917,-0.02717,0.01608,-0.01370,-0.03465,0.10028,1.13198,4.15683,1.32925,-0.00022,-0.00124,0.41061,-0.55199,4.10606,0.22784,-0.42625,A,113526.40
4.17116,57.68798098,11.98126925,57.68801117,11.98124217,11:35:26.535072,4.17116,0.00438,1.32891,0.05866,-0.03129,0.00524,-0.01614,0.00299,0.07064,1.08098,4.16634,1.32922,-0.00024,-0.00126,0.40118,-0.53943,4.10606,0.22784,-0.42625,A,113526.40
4.18159,57.68798108,11.98126913,57.68801117,11.98124217,11:35:26.545509,4.18159,0.00442,1.32891,0.05815,-0.03374,-0.00087,-0.01492,0.00451,0.07143,1.05451,4.17652,1.32919,-0.00026,-0.00128,0.39383,-0.52812,4.10606,0.22784,-0.42625,A,113526.40
4.19231,57.68798118,11.98126902,57.68801117,11.98124217,11:35:26.556406,4.19231,0.00474,1.32891,0.05802,-0.03557,-0.01202,-0.01477,-0.02477,0.09150,0.96715,4.18709,1.32916,-0.00028,-0.00131,0.38738,-0.51795,4.10606,0.22784,-0.42625,A,113526.40
4.20253,57.68798126,11.98126891,57.68801117,11.98124217,11:35:26.566450,4.20253,0.00457,1.32891,0.05854,-0.03435,-0.00499,-0.01309,-0.12932,0.13030,0.94385,4.19750,1.32913,-0.00030,-0.00135,0.38122,-0.50879,4.10606,0.22784,-0.42625,A,113526.40
4.22499,57.68798141,11.98126897,57.68801200,11.98124117,11:35:26.588913,4.22499,0.01681,1.32891,0.05811,-0.02961,0.02005,-0.01767,-0.08235,0.06155,0.88737,4.20756,1.32911,-0.00038,-0.00154,0.38451,-0.49130,4.22212,0.16840,-0.33358,A,113526.50
4.23708,57.68798156,11.98126881,57.68801200,11.98124117,11:35:26.601007,4.23708,0.00547,1.32891,0.05667,-0.04275,0.03028,-0.02927,0.05490,0.04673,0.92324,4.23194,1.32909,-0.00041,-0.00232,0.37479,-0.47555,4.22212,0.16840,-0.33358,A,113526.50
4.24636,57.68798168,11.98126861,57.68801200,11.98124117,11:35:26.610279,4.24636,0.00435,1.32891,0.05557,-0.04687,0.00371,-0.03080,0.05746,0.03129,0.95380,4.24155,1.32907,-0.00044,-0.00281,0.36306,-0.46137,4.22212,0.16840,-0.33358,A,113526.50
4.25674,57.68798180,11.98126845,57.68801200,11.98124117,11:35:26.620653,4.25674,0.00448,1.32891,0.05516,-0.04565,-0.00835,-0.02653,-0.07741,0.07985,1.02297,4.25164,1.32906,-0.00050,-0.00334,0.35347,-0.44862,4.22212,0.16840,-0.33358,A,113526.50
4.26700,57.68798190,11.98126831,57.68801200,11.98124117,11:35:26.630917,4.26700,0.00435,1.32891,0.05513,-0.03542,-0.00484,-0.01904,-0.13353,0.10949,1.11764,4.26221,1.32904,-0.00056,-0.00383,0.34508,-0.43715,4.22212,0.16840,-0.33358,A,113526.50
4.27749,57.68798199,11.98126818,57.68801200,11.98124117,11:35:26.641412,4.27749,0.00444,1.32891,0.05519,-0.02702,0.01959,-0.01706,-0.02123,0.10651,1.10428,4.27241,1.32903,-0.00063,-0.00422,0.33743,-0.42683,4.22212,0.16840,-0.33358,A,113526.50
4.28811,57.68798208,11.98126806,57.68801200,11.98124117,11:35:26.652034,4.28811,0.00467,1.32891,0.05422,-0.02320,0.00646,-0.01248,0.10553,0.02532,0.98186,4.28305,1.32902,-0.00072,-0.00456,0.33074,-0.41755,4.22212,0.16840,-0.33358,A,113526.50
4.29869,57.68798215,11.98126796,57.68801200,11.98124117,11:35:26.662608,4.29869,0.00485,1.32891,0.05379,-0.02717,-0.02423,-0.01813,0.05142,0.06271,0.98118,4.29364,1.32901,-0.00081,-0.00481,0.32470,-0.40920,4.22212,0.16840,-0.33358,A,113526.50
4.30854,57.68798222,11.98126786,57.68801200,11.98124117,11:35:26.672467,4.30854,0.00445,1.32891,0.05349,-0.02885,-0.02790,-0.01950,-0.05337,0.06826,0.96478,4.30346,1.32900,-0.00088,-0.00500,0.31835,-0.40169,4.22212,0.16840,-0.33358,A,113526.50
4.31884,57.68798228,11.98126777,57.68801200,11.98124117,11:35:26.682759,4.31884,0.00434,1.32891,0.05312,-0.02687,-0.01981,-0.02805,-0.20892,0.06997,1.04627,4.31404,1.32899,-0.00098,-0.00516,0.31349,-0.39493,4.22212,0.16840,-0.33358,A,113526.50
4.34176,57.68798242,11.98126791,57.68801283,11.98124067,11:35:26.705685,4.34176,0.01687,1.32891,0.05283,-0.02503,0.02311,-0.03722,-0.17995,0.07229,1.03590,4.32426,1.32898,-0.00129,-0.00552,0.32132,-0.37966,4.33893,0.13869,-0.24092,A,113526.60
4.35456,57.68798254,11.98126782,57.68801283,11.98124067,11:35:26.718486,4.35456,0.00521,1.32891,0.05141,-0.03450,-0.00896,-0.03630,0.15982,0.02928,0.85882,4.34971,1.32897,-0.00142,-0.00567,0.31614,-0.36586,4.33893,0.13869,-0.24092,A,113526.60
4.36436,57.68798266,11.98126768,57.68801283,11.98124067,11:35:26.728281,4.36436,0.00445,1.32891,0.05160,-0.02641,-0.05020,-0.03050,-0.08619,0.09882,0.99241,4.35928,1.32897,-0.00150,-0.00575,0.30761,-0.35341,4.33893,0.13869,-0.24092,A,113526.60
4.37545,57.68798276,11.98126756,57.68801283,11.98124067,11:35:26.739612,4.37545,0.00513,1.32891,0.05154,-0.02060,-0.02897,-0.02714,-0.23229,0.08589,1.05609,4.36984,1.32896,-0.00159,-0.00584,0.30083,-0.34222,4.33893,0.13869,-0.24092,A,113526.60
4.38517,57.68798285,11.98126746,57.68801283,11.98124067,11:35:26.749092,4.38517,0.00447,1.32891,0.05125,-0.01541,0.00677,-0.01629,-0.11834,0.06167,1.00565,4.38006,1.32896,-0.00168,-0.00593,0.29464,-0.33215,4.33893,0.13869,-0.24092,A,113526.60
4.39618,57.68798293,11.98126737,57.68801283,11.98124067,11:35:26.760113,4.39618,0.00508,1.32891,0.05037,-0.01327,0.01272,-0.01339,0.12304,0.02007,0.96099,4.39080,1.32895,-0.00177,-0.00602,0.28935,-0.32309,4.33893,0.13869,-0.24092,A,113526.60
4.40600,57.68798300,11.98126728,57.68801283,11.98124067,11:35:26.769918,4.40600,0.00439,1.32891,0.05004,-0.01495,-0.00942,-0.01446,0.09784,0.05624,0.98649,4.40097,1.32895,-0.00184,-0.00610,0.28382,-0.31493,4.33893,0.13869,-0.24092,A,113526.60
4.41650,57.68798307,11.98126720,57.68801283,11.98124067,11:35:26.780420,4.41650,0.00442,1.31253,0.05065,-0.01053,-0.01492,-0.01660,-0.12743,0.12432,1.06073,4.41145,1.32731,-0.00193,-0.00618,0.27939,-0.30759,4.33893,0.13869,-0.24092,A,113526.60
4.42684,57.68798313,11.98126713,57.68801283,11.98124067,11:35:26.790757,4.42684,0.00435,1.31253,0.05100,0.00414,0.00478,-0.01797,-0.15262,0.09052,1.00113,4.42203,1.32583,-0.00202,-0.00627,0.27549,-0.30099,4.33893,0.13869,-0.24092,A,113526.60
4.43731,57.68798318,11.98126707,57.68801283,11.98124067,11:35:26.801223,4.43731,0.00443,1.31253,0.05071,0.00658,0.01364,-0.02362,-0.14902,0.04770,1.02700,4.43223,1.32450,-0.00210,-0.00635,0.27179,-0.29504,4.33893,0.13869,-0.24092,A,113526.60
4.46207,57.68798333,11.98126723,57.68801383,11.98123983,11:35:26.825998,4.46207,0.01879,1.31253,0.04976,-0.00197,0.02784,-0.02454,0.07533,0.00671,0.94343,4.44283,1.32330,-0.00243,-0.00668,0.28088,-0.27869,4.45865,0.08916,-0.12973,A,113526.70
4.47675,57.68798346,11.98126715,57.68801383,11.98123983,11:35:26.840684,4.47675,0.00675,1.31253,0.05101,-0.00549,-0.02698,-0.01996,-0.11132,0.16647,1.01583,4.47154,1.32223,-0.00258,-0.00683,0.27656,-0.26389,4.45865,0.08916,-0.12973,A,113526.70
4.48476,57.68798358,11.98126696,57.68801383,11.98123983,11:35:26.848688,4.48476,0.00452,1.31253,0.05196,0.00688,-0.00683,-0.01599,-0.22521,0.14061,1.07769,4.47963,1.32126,-0.00261,-0.00687,0.26479,-0.25052,4.45865,0.08916,-0.12973,A,113526.70
4.49548,57.68798369,11.98126683,57.68801383,11.98123983,11:35:26.859590,4.49548,0.00485,1.31253,0.05186,0.01620,0.02784,-0.02011,-0.05258,0.05209,0.97850,4.49035,1.32038,-0.00269,-0.00695,0.25742,-0.23851,4.45865,0.08916,-0.12973,A,113526.70
4.50559,57.68798379,11.98126671,57.68801383,11.98123983,11:35:26.869517,4.50559,0.00456,1.31253,0.05079,0.00230,0.01547,-0.02332,0.07259,-0.00226,0.96880,4.50052,1.31960,-0.00276,-0.00702,0.25017,-0.22770,4.45865,0.08916,-0.12973,A,113526.70
4.51713,57.68798387,11.98126663,57.68801383,11.98123983,11:35:26.881062,4.51713,0.00570,1.31253,0.05059,-0.01419,0.00585,-0.02866,0.06600,0.06411,0.96587,4.51126,1.31889,-0.00286,-0.00712,0.24522,-0.21798,4.45865,0.08916,-0.12973,A,113526.70
4.52622,57.68798395,11.98126651,57.68801383,11.98123983,11:35:26.890136,4.52622,0.00439,1.31253,0.05111,-0.01556,-0.01095,-0.03034,-0.05765,0.11468,0.99894,4.52140,1.31826,-0.00291,-0.00720,0.23823,-0.20922,4.45865,0.08916,-0.12973,A,113526.70
4.53655,57.68798402,11.98126642,57.68801383,11.98123983,11:35:26.900464,4.53655,0.00445,1.31253,0.05150,-0.01450,0.01272,-0.03202,-0.22820,0.11291,1.06170,4.53148,1.31768,-0.00298,-0.00734,0.23310,-0.20134,4.45865,0.08916,-0.12973,A,113526.70
4.54686,57.68798409,11.98126635,57.68801383,11.98123983,11:35:26.910771,4.54686,0.00436,1.31253,0.05132,-0.00197,0.04724,-0.03783,-0.10785,0.06210,1.03974,4.54206,1.31717,-0.00306,-0.00753,0.22877,-0.19425,4.45865,0.08916,-0.12973,A,113526.70
4.55735,57.68798414,11.98126628,57.68801383,11.98123983,11:35:26.921263,4.55735,0.00445,1.31253,0.05061,-0.00900,0.05426,-0.03584,0.04392,0.02934,1.01724,4.55226,1.31670,-0.00313,-0.00774,0.22475,-0.18787,4.45865,0.08916,-0.12973,A,113526.70
4.58021,57.68798429,11.98126640,57.68801483,11.98123917,11:35:26.944139,4.58021,0.01692,1.31253,0.05032,-0.01709,0.02754,-0.03538,0.14195,0.05874,0.95794,4.56284,1.31629,-0.00345,-0.00821,0.23205,-0.17113,4.57733,0.04953,-0.01853,A,113526.80
4.59651,57.68798443,11.98126634,57.68801483,11.98123917,11:35:26.960460,4.59651,0.00693,1.31253,0.04968,-0.01327,-0.00133,-0.02149,-0.07125,0.04563,0.93019,4.58937,1.31591,-0.00360,-0.00886,0.22819,-0.15599,4.57733,0.04953,-0.01853,A,113526.80
4.60495,57.68798455,11.98126616,57.68801483,11.98123917,11:35:26.968870,4.60495,0.00461,1.31253,0.04885,-0.02320,-0.00148,-0.02607,-0.03922,0.02586,0.91659,4.59981,1.31557,-0.00365,-0.00918,0.21779,-0.14231,4.57733,0.04953,-0.01853,A,113526.80
4.61509,57.68798466,11.98126605,57.68801483,11.98123917,11:35:26.979012,4.61509,0.00437,1.31253,0.04782,-0.03389,-0.00194,-0.03080,0.07784,0.01848,0.87126,4.61029,1.31527,-0.00374,-0.00958,0.21081,-0.13002,4.57733,0.04953,-0.01853,A,113526.80
4.62557,57.68798476,11.98126594,57.68801483,11.98123917,11:35:26.989488,4.62557,0.00444,1.31253,0.04791,-0.04107,-0.01538,-0.03829,-0.11157,0.10138,1.01772,4.62050,1.31500,-0.00384,-0.00997,0.20459,-0.11897,4.57733,0.04953,-0.01853,A,113526.80
4.63627,57.68798485,11.98126585,57.68801483,11.98123917,11:35:27.000206,4.63627,0.00475,1.31253,0.04857,-0.03389,0.02295,-0.04898,-0.06686,0.13188,0.98521,4.63106,1.31475,-0.00395,-0.01034,0.19911,-0.10902,4.57733,0.04953,-0.01853,A,113526.80
4.64631,57.68798493,11.98126576,57.68801483,11.98123917,11:35:27.010233,4.64631,0.00440,1.31253,0.04827,-0.02671,0.02769,-0.04943,-0.17721,0.06978,1.07122,4.64149,1.31453,-0.00406,-0.01065,0.19389,-0.10008,4.57733,0.04953,-0.01853,A,113526.80
4.65666,57.68798501,11.98126568,57.68801483,11.98123917,11:35:27.020582,4.65666,0.00452,1.31253,0.04756,-0.02519,0.05182,-0.04791,-0.05722,0.03947,1.10319,4.65152,1.31433,-0.00417,-0.01088,0.18913,-0.09203,4.57733,0.04953,-0.01853,A,113526.80
4.66690,57.68798507,11.98126561,57.68801483,11.98123917,11:35:27.030818,4.66690,0.00436,1.31253,0.04666,-0.02992,0.03074,-0.04623,0.09095,0.02751,1.06787,4.66210,1.31415,-0.00429,-0.01103,0.18512,-0.08478,4.57733,0.04953,-0.01853,A,113526.80
4.67738,57.68798513,11.98126555,57.68801483,11.98123917,11:35:27.041295,4.67738,0.00444,1.31253,0.04536,-0.03053,-0.02011,-0.04119,0.12621,-0.00207,1.01077,4.67230,1.31399,-0.00441,-0.01115,0.18146,-0.07827,4.57733,0.04953,-0.01853,A,113526.80
4.70120,57.68798528,11.98126565,57.68801583,11.98123817,11:35:27.065131,4.70120,0.01786,1.31253,0.04494,-0.04137,-0.06776,-0.02622,-0.00860,0.06063,0.94532,4.68295,1.31384,0.02654,0.01980,0.18751,-0.06146,4.69771,-0.00991,0.09266,A,113526.90
4.71130,57.68798542,11.98126549,57.68801583,11.98123817,11:35:27.075222,4.71130,0.00456,1.31253,0.04503,-0.02793,-0.01339,-0.01171,-0.15524,0.09980,0.89115,4.70647,1.31371,0.05753,0.05079,0.17753,-0.04585,4.69771,-0.00991,0.09266,A,113526.90
4.72157,57.68798555,11.98126533,57.68801583,11.98123817,11:35:27.085494,4.72157,0.00445,1.31253,0.04558,-0.02916,0.01700,-0.01309,-0.17104,0.11010,0.93001,4.71650,1.31359,0.08821,0.08148,0.16845,-0.03151,4.69771,-0.00991,0.09266,A,113526.90
4.73212,57.68798567,11.98126520,57.68801583,11.98123817,11:35:27.096052,4.73212,0.00460,1.31253,0.04632,-0.01083,0.05686,-0.02469,-0.03074,0.10260,0.85150,4.72707,1.31349,0.11858,0.11185,0.16060,-0.01828,4.69771,-0.00991,0.09266,A,113526.90
4.74230,57.68798578,11.98126508,57.68801583,11.98123817,11:35:27.106220,4.74230,0.00439,1.31253,0.04669,-0.01053,0.05915,-0.03019,-0.09754,0.09522,0.99265,4.73749,1.31339,0.14865,0.14192,0.15337,-0.00608,4.69771,-0.00991,0.09266,A,113526.90
4.75266,57.68798588,11.98126497,57.68801583,11.98123817,11:35:27.116585,4.75266,0.00450,1.31253,0.04650,0.00108,0.07702,-0.03462,-0.10821,0.05508,1.07817,4.74757,1.31330,0.17843,0.17169,0.14669,0.00517,4.69771,-0.00991,0.09266,A,113526.90
4.76291,57.68798597,11.98126487,57.68801583,11.98123817,11:35:27.126830,4.76291,0.00436,1.31253,0.04481,-0.00930,0.05930,-0.03233,-0.01122,-0.04435,1.06042,4.75813,1.31323,0.20790,0.20116,0.14085,0.01563,4.69771,-0.00991,0.09266,A,113526.90
4.77341,57.68798606,11.98126478,57.68801583,11.98123817,11:35:27.137331,4.77341,0.00446,1.31253,0.04305,-0.02015,0.03227,-0.02897,0.12773,-0.04319,1.04633,4.76832,1.31316,0.23707,0.23033,0.13550,0.02531,4.69771,-0.00991,0.09266,A,113526.90
4.78471,57.68798614,11.98126471,57.68801583,11.98123817,11:35:27.148635,4.78471,0.00511,1.31253,0.04263,-0.03603,-0.03554,-0.02179,0.12316,0.06484,1.08397,4.77956,1.31310,0.26594,0.25924,0.13148,0.03451,4.69771,-0.00991,0.09266,A,113526.90
4.79461,57.68798622,11.98126462,57.68801583,11.98123817,11:35:27.158526,4.79461,0.00461,1.31253,0.04356,-0.02274,-0.06791,-0.01263,-0.02153,0.14658,1.06280,4.78954,1.31304,0.29455,0.28802,0.12627,0.04270,4.69771,-0.00991,0.09266,A,113526.90
4.82871,57.68798654,11.98126486,57.68801767,11.98123667,11:35:27.192628,4.82871,0.02846,1.31253,0.04485,-0.00717,-0.07127,0.00234,-0.07430,0.14951,0.97283,4.79980,1.31299,0.32223,0.31605,0.14019,0.07888,4.82581,-0.09906,0.29652,A,113527.10
4.84129,57.68798677,11.98126464,57.68801767,11.98123667,11:35:27.205217,4.84129,0.00575,1.31253,0.04543,0.00841,0.01959,0.00860,-0.08589,0.07662,0.92586,4.83548,1.31294,0.35025,0.34596,0.12722,0.10423,4.82581,-0.09906,0.29652,A,113527.10
4.85031,57.68798697,11.98126439,57.68801767,11.98123667,11:35:27.214226,4.85031,0.00437,1.31253,0.04620,0.00429,0.02799,0.00112,0.00823,0.09858,0.87090,4.84550,1.31290,0.37808,0.37436,0.11259,0.12634,4.82581,-0.09906,0.29652,A,113527.10
4.86068,57.68798715,11.98126419,57.68801767,11.98123667,11:35:27.224606,4.86068,0.00451,1.31253,0.04612,0.00551,0.00738,-0.00179,-0.03898,0.05453,0.96209,4.85557,1.31286,0.40563,0.40243,0.10048,0.14692,4.82581,-0.09906,0.29652,A,113527.10
4.87094,57.68798732,11.98126401,57.68801767,11.98123667,11:35:27.234852,4.87094,0.00437,1.31253,0.04554,-0.00655,0.01150,-0.00591,-0.08430,0.03379,1.07610,4.86613,1.31283,0.43291,0.43019,0.08969,0.16577,4.82581,-0.09906,0.29652,A,113527.10
4.88144,57.68798748,11.98126384,57.68801767,11.98123667,11:35:27.245364,4.88144,0.00448,1.31253,0.04471,-0.01434,0.01150,-0.01080,0.01989,0.02281,1.12271,4.87633,1.31280,0.45993,0.45760,0.07978,0.18296,4.82581,-0.09906,0.29652,A,113527.10
4.89293,57.68798762,11.98126370,57.68801767,11.98123667,11:35:27.256853,4.89293,0.00482,1.31253,0.04454,-0.02381,-0.01034,-0.00499,0.09034,0.07649,1.07915,4.88759,1.31277,0.48669,0.48474,0.07157,0.19909,4.82581,-0.09906,0.29652,A,113527.10
4.90305,57.68798775,11.98126356,57.68801767,11.98123667,11:35:27.266960,4.90305,0.00454,1.31253,0.04498,-0.01679,-0.03951,-0.00606,0.01677,0.11511,1.08122,4.89806,1.31275,0.51319,0.51158,0.06301,0.21331,4.82581,-0.09906,0.29652,A,113527.10
4.91335,57.68798787,11.98126343,57.68801767,11.98123667,11:35:27.277271,4.91335,0.00445,1.31253,0.04577,-0.00991,-0.04241,0.00478,-0.12487,0.13261,1.05920,4.90827,1.31273,0.53944,0.53814,0.05525,0.22637,4.82581,-0.09906,0.29652,A,113527.10
4.92418,57.68798798,11.98126332,57.68801767,11.98123667,11:35:27.288108,4.92418,0.00510,1.31253,0.04614,-0.00167,-0.01400,0.00997,-0.13664,0.08839,0.95794,4.91906,1.31271,0.56543,0.56445,0.04865,0.23866,4.82581,-0.09906,0.29652,A,113527.10
4.94613,57.68798823,11.98126333,57.68801850,11.98123583,11:35:27.310045,4.94613,0.01665,1.31253,0.04599,0.00032,0.00616,0.01104,-0.04117,0.05130,0.90658,4.92885,1.31269,0.59112,0.59040,0.04909,0.26648,4.94332,-0.14859,0.38918,A,113527.20
4.96230,57.68798842,11.98126321,57.68801850,11.98123583,11:35:27.326226,4.96230,0.00677,1.31253,0.04617,0.00383,-0.00530,0.01272,-0.07241,0.07125,0.98777,4.95654,1.31267,0.61659,0.61651,0.04247,0.28756,4.94332,-0.14859,0.38918,A,113527.20
4.97030,57.68798855,11.98126299,57.68801850,11.98123583,11:35:27.334218,4.97030,0.00438,1.31253,0.04637,0.00047,-0.00621,0.01425,-0.03501,0.08406,1.03889,4.96548,1.31266,0.64184,0.64197,0.02931,0.30193,4.94332,-0.14859,0.38918,A,113527.20
4.98062,57.68798868,11.98126282,57.68801850,11.98123583,11:35:27.344546,4.98062,0.00447,1.30085,0.04597,0.00429,-0.00851,0.01578,-0.05630,0.04203,1.10361,4.97555,1.31148,0.66684,0.66723,0.01930,0.31648,4.94332,-0.14859,0.38918,A,113527.20
4.99092,57.68798880,11.98126267,57.68801850,11.98123583,11:35:27.354841,4.99092,0.00438,1.30085,0.04557,-0.00106,-0.00179,0.01776,0.03026,0.04380,1.06957,4.98610,1.31042,0.69160,0.69225,0.01036,0.32993,4.94332,-0.14859,0.38918,A,113527.20
5.00170,57.68798891,11.98126253,57.68801850,11.98123583,11:35:27.365626,5.00170,0.00493,1.30085,0.04513,-0.00258,-0.01431,0.01654,0.00458,0.04038,1.01156,4.99620,1.30946,0.71611,0.71699,0.00196,0.34207,4.94332,-0.14859,0.38918,A,113527.20
5.01541,57.68798901,11.98126240,57.68801850,11.98123583,11:35:27.379611,5.01541,0.00823,1.30085,0.00000,-0.01037,-0.01110,0.01700,-0.02379,0.11773,0.98301,5.00673,1.30860,0.74039,0.74144,-0.00598,0.35298,4.94332,-0.14859,0.38918,A,113527.20
5.02547,57.68798912,11.98126233,57.68801850,11.98123583,11:35:27.390123,5.02547,0.00802,1.30085,0.00089,-0.00365,-0.00957,0.01303,-0.07948,0.08717,0.96044,5.02006,1.30782,0.76444,0.76560,-0.01024,0.36576,4.94332,-0.14859,0.38918,A,113527.20
5.03298,57.68798918,11.98126217,57.68801850,11.98123583,11:35:27.396900,5.03298,0.00518,1.30085,0.00157,-0.00396,-0.00362,0.01349,-0.07210,0.07161,0.97984,5.02782,1.30713,0.78822,0.78941,-0.01955,0.37245,4.94332,-0.14859,0.38918,A,113527.20
5.04257,57.68798926,11.98126206,57.68801850,11.98123583,11:35:27.406482,5.04257,0.00436,1.30085,0.00157,-0.00732,0.00646,0.00631,-0.06289,0.03026,0.99369,5.03777,1.30650,0.81178,0.81296,-0.02602,0.38061,4.94332,-0.14859,0.38918,A,113527.20
5.06539,57.68798949,11.98126207,57.68801917,11.98123517,11:35:27.429312,5.06539,0.01694,1.30085,0.00159,-0.01450,0.01853,0.00585,-0.04069,0.03703,1.00516,5.04784,1.30593,0.83517,0.83635,-0.02551,0.40656,5.06233,-0.18822,0.46331,A,113527.30
5.08003,57.68798963,11.98126195,57.68801917,11.98123517,11:35:27.443973,5.08003,0.00718,1.30085,0.00195,-0.01205,-0.01278,0.00784,-0.02348,0.06899,0.98344,5.07408,1.30542,0.85827,0.85946,-0.03255,0.42246,5.06233,-0.18822,0.46331,A,113527.30
5.08759,57.68798972,11.98126176,57.68801917,11.98123517,11:35:27.451743,5.08759,0.00435,1.30085,0.00308,-0.01053,-0.00988,0.01623,-0.07241,0.10980,1.01699,5.08280,1.30497,0.88112,0.88232,-0.04369,0.43168,5.06233,-0.18822,0.46331,A,113527.30
5.09853,57.68798982,11.98126163,57.68801917,11.98123517,11:35:27.462449,5.09853,0.00489,1.30085,0.00321,0.00093,-0.00362,0.02021,-0.06344,0.03581,1.01278,5.09337,1.30455,0.90376,0.90498,-0.05162,0.44278,5.06233,-0.18822,0.46331,A,113527.30
5.10855,57.68798990,11.98126150,57.68801917,11.98123517,11:35:27.472475,5.10855,0.00448,1.30085,0.00356,-0.00701,0.00234,0.02662,0.08198,0.05466,0.97319,5.10346,1.30418,0.92616,0.92746,-0.05953,0.45214,5.06233,-0.18822,0.46331,A,113527.30
5.11882,57.68798998,11.98126138,57.68801917,11.98123517,11:35:27.482743,5.11882,0.00436,1.30085,0.00433,-0.00579,-0.01461,0.02265,0.01562,0.08296,0.99430,5.11402,1.30385,0.94835,0.94973,-0.06646,0.46119,5.06233,-0.18822,0.46331,A,113527.30
5.12933,57.68799005,11.98126127,57.68801917,11.98123517,11:35:27.493240,5.12933,0.00446,1.30085,0.00551,-0.00029,-0.01080,0.02143,-0.10931,0.11120,1.02309,5.12424,1.30355,0.97031,0.97185,-0.07290,0.46941,5.06233,-0.18822,0.46331,A,113527.30
5.13960,57.68799012,11.98126117,57.68801917,11.98123517,11:35:27.503755,5.13960,0.00434,1.30085,0.00596,0.00429,0.02769,0.02173,-0.14378,0.05954,1.01778,5.13481,1.30328,0.99206,0.99380,-0.07884,0.47699,5.06233,-0.18822,0.46331,A,113527.30
5.15012,57.68799019,11.98126108,57.68801917,11.98123517,11:35:27.514037,5.15012,0.00439,1.30085,0.00582,0.00872,0.04861,0.01440,-0.09778,0.01684,0.98472,5.14529,1.30304,1.01360,1.01560,-0.08424,0.48414,5.06233,-0.18822,0.46331,A,113527.30
5.16071,57.68799024,11.98126100,57.68801917,11.98123517,11:35:27.524633,5.16071,0.00450,1.30085,0.00596,-0.00365,0.05594,0.00829,0.05051,0.04063,0.89353,5.15561,1.30282,1.03493,1.03729,-0.08940,0.49049,5.06233,-0.18822,0.46331,A,113527.30
5.18539,57.68799049,11.98126096,57.68801983,11.98123417,11:35:27.549321,5.18539,0.01815,1.30085,0.00636,-0.00228,0.04235,0.01349,0.04148,0.05276,0.81679,5.16692,1.30262,1.05619,1.05899,-0.09177,0.51796,5.18231,-0.24765,0.53744,A,113527.40
5.19849,57.68799060,11.98126079,57.68801983,11.98123417,11:35:27.562420,5.19849,0.00652,1.30085,0.00752,0.01406,0.08786,0.02601,-0.20941,0.08320,0.89237,5.19206,1.30244,1.07712,1.08101,-0.10182,0.52978,5.18231,-0.24765,0.53744,A,113527.40
5.20675,57.68799066,11.98126060,57.68801983,11.98123417,11:35:27.570664,5.20675,0.00438,1.30085,0.00808,0.02704,0.12085,0.02540,-0.05051,0.06100,1.02870,5.20192,1.30228,1.09783,1.10215,-0.11286,0.53718,5.18231,-0.24765,0.53744,A,113527.40
5.21721,57.68799074,11.98126045,57.68801983,11.98123417,11:35:27.581134,5.21721,0.00445,1.30085,0.00838,0.02933,0.09977,0.02616,0.18581,0.04795,1.20048,5.21212,1.30214,1.11836,1.12310,-0.12193,0.54593,5.18231,-0.24765,0.53744,A,113527.40
5.22755,57.68799082,11.98126031,57.68801983,11.98123417,11:35:27.591715,5.22755,0.00440,1.30085,0.00861,0.02139,0.03639,0.03227,0.20215,0.05362,1.33102,5.22274,1.30201,1.13871,1.14384,-0.13019,0.55406,5.18231,-0.24765,0.53744,A,113527.40
5.23793,57.68799088,11.98126018,57.68801983,11.98123417,11:35:27.601844,5.23793,0.00437,1.30085,0.00834,0.01452,-0.02317,0.04342,0.08204,0.01745,1.40587,5.23292,1.30189,1.15886,1.16432,-0.13779,0.56150,5.18231,-0.24765,0.53744,A,113527.40
5.24934,57.68799094,11.98126006,57.68801983,11.98123417,11:35:27.613264,5.24934,0.00526,1.30085,0.00847,-0.00365,-0.04470,0.04556,-0.10785,0.06930,1.34261,5.24344,1.30179,1.17882,1.18456,-0.14484,0.56824,5.18231,-0.24765,0.53744,A,113527.40
5.25884,57.68799099,11.98125995,57.68801983,11.98123417,11:35:27.622750,5.25884,0.00437,1.30085,0.00922,-0.01205,-0.02698,0.04892,-0.03819,0.10748,1.03724,5.25403,1.30170,1.19857,1.20450,-0.15173,0.57351,5.18231,-0.24765,0.53744,A,113527.40
5.26932,57.68799104,11.98125984,57.68801983,11.98123417,11:35:27.633235,5.26932,0.00445,1.30085,0.01091,-0.01358,-0.02958,0.04296,0.08955,0.12688,0.72517,5.26423,1.30161,1.21814,1.22417,-0.15782,0.57904,5.18231,-0.24765,0.53744,A,113527.40
5.27963,57.68799109,11.98125975,57.68801983,11.98123417,11:35:27.643922,5.27963,0.00436,1.30085,0.01286,-0.01724,-0.05447,0.03563,0.05850,0.12011,0.59085,5.27483,1.30153,1.23752,1.24357,-0.16342,0.58423,5.18231,-0.24765,0.53744,A,113527.40
5.31423,57.68799161,11.98125968,57.68802217,11.98123283,11:35:27.678156,5.31423,0.02856,1.30085,0.01430,-0.02213,-0.07097,0.02387,-0.14012,0.11444,0.67326,5.28522,1.30147,1.25729,1.26335,-0.16741,0.64192,5.31131,-0.32690,0.79690,A,113527.60
5.32667,57.68799185,11.98125947,57.68802217,11.98123283,11:35:27.690600,5.32667,0.00638,1.30085,0.01293,-0.02763,0.00234,0.01547,0.06795,0.02586,1.22579,5.32063,1.30140,1.27632,1.28238,-0.17983,0.66852,5.31131,-0.32690,0.79690,A,113527.60
5.33513,57.68799203,11.98125926,57.68802217,11.98123283,11:35:27.699044,5.33513,0.00443,1.30085,0.01234,-0.02106,-0.01278,0.02616,0.04166,0.02714,1.31400,5.33034,1.30135,1.29507,1.30120,-0.19233,0.68882,5.31131,-0.32690,0.79690,A,113527.60
5.34559,57.68799221,11.98125908,57.68802217,11.98123283,11:35:27.709514,5.34559,0.00449,1.30085,0.01237,-0.02412,-0.01477,0.04128,-0.04178,0.07960,1.23000,5.34045,1.30130,1.31368,1.31990,-0.20320,0.70898,5.31131,-0.32690,0.79690,A,113527.60
5.35689,57.68799238,11.98125892,57.68802217,11.98123283,11:35:27.720820,5.35689,0.00540,1.30085,0.01269,-0.01480,-0.02088,0.05136,-0.12267,0.08564,1.03901,5.35177,1.30125,1.33212,1.33850,-0.21291,0.72816,5.31131,-0.32690,0.79690,A,113527.60
5.36628,57.68799252,11.98125876,57.68802217,11.98123283,11:35:27.730196,5.36628,0.00440,1.30085,0.01255,-0.01816,-0.00789,0.05365,-0.08131,0.04605,0.81362,5.36147,1.30121,1.35035,1.35685,-0.22227,0.74364,5.31131,-0.32690,0.79690,A,113527.60
5.37663,57.68799265,11.98125862,57.68802217,11.98123283,11:35:27.740558,5.37663,0.00450,1.30085,0.01238,-0.02488,-0.00408,0.04739,-0.05880,0.04368,0.67375,5.37152,1.30118,1.36841,1.37504,-0.23069,0.75836,5.31131,-0.32690,0.79690,A,113527.60
5.38689,57.68799278,11.98125849,57.68802217,11.98123283,11:35:27.750808,5.38689,0.00437,1.30085,0.01431,-0.03129,0.00035,0.03884,-0.01842,0.13804,0.64642,5.38210,1.30114,1.38630,1.39300,-0.23839,0.77190,5.31131,-0.32690,0.79690,A,113527.60
5.39787,57.68799288,11.98125837,57.68802217,11.98123283,11:35:27.761792,5.39787,0.00495,1.30085,0.01600,-0.02687,0.00066,0.03319,-0.04892,0.14518,0.75835,5.39229,1.30111,1.40401,1.41075,-0.24551,0.78403,5.31131,-0.32690,0.79690,A,113527.60
5.40825,57.68799298,11.98125826,57.68802217,11.98123283,11:35:27.772172,5.40825,0.00493,1.30085,0.01663,-0.02015,0.00952,0.02723,-0.06777,0.11035,0.99009,5.40316,1.30109,1.42154,1.42828,-0.25211,0.79488,5.31131,-0.32690,0.79690,A,113527.60
5.43043,57.68799328,11.98125812,57.68802300,11.98123217,11:35:27.794350,5.43043,0.01666,1.30085,0.01588,-0.02167,0.02433,0.02372,-0.05466,0.02111,1.18871,5.41336,1.30106,1.43922,1.44596,-0.26015,0.82805,5.42772,-0.36653,0.88956,A,113527.70
5.44338,57.68799345,11.98125797,57.68802300,11.98123217,11:35:27.807557,5.44338,0.00539,1.30085,0.01452,-0.04504,0.01837,0.02769,0.07601,0.04203,1.19316,5.43853,1.30104,1.45648,1.46322,-0.26917,0.84708,5.42772,-0.36653,0.88956,A,113527.70
5.45340,57.68799357,11.98125782,57.68802300,11.98123217,11:35:27.817317,5.45340,0.00460,1.30085,0.01379,-0.04351,-0.00285,0.02555,0.00018,0.03373,1.06951,5.44827,1.30102,1.47348,1.48021,-0.27792,0.86047,5.42772,-0.36653,0.88956,A,113527.70
5.46355,57.68799369,11.98125769,57.68802300,11.98123217,11:35:27.827792,5.46355,0.00436,1.30085,0.01347,-0.05054,-0.00927,0.02509,-0.08857,0.06496,0.96917,5.45875,1.30101,1.49031,1.49705,-0.28590,0.87309,5.42772,-0.36653,0.88956,A,113527.70
5.47487,57.68799379,11.98125757,57.68802300,11.98123217,11:35:27.838809,5.47487,0.00528,1.30085,0.01321,-0.04657,-0.01064,0.02876,-0.09022,0.05960,0.86272,5.46895,1.30099,1.50699,1.51373,-0.29322,0.88476,5.42772,-0.36653,0.88956,A,113527.70
5.48530,57.68799387,11.98125745,57.68802300,11.98123217,11:35:27.849233,5.48530,0.00522,1.30085,0.01343,-0.04366,-0.00102,0.02494,0.02422,0.08040,0.78983,5.47944,1.30098,1.52347,1.53021,-0.30005,0.89407,5.42772,-0.36653,0.88956,A,113527.70
5.49507,57.68799395,11.98125735,57.68802300,11.98123217,11:35:27.858989,5.49507,0.00460,1.30085,0.01339,-0.03191,-0.01354,0.02509,0.01671,0.06045,0.78519,5.49006,1.30096,1.53980,1.54653,-0.30633,0.90267,5.42772,-0.36653,0.88956,A,113527.70
5.50547,57.68799403,11.98125725,57.68802300,11.98123217,11:35:27.869385,5.50547,0.00459,1.30085,0.01380,-0.02519,-0.01431,0.02860,-0.11877,0.09150,0.93550,5.50040,1.30095,1.55597,1.56271,-0.31211,0.91106,5.42772,-0.36653,0.88956,A,113527.70
5.51561,57.68799409,11.98125716,57.68802300,11.98123217,11:35:27.879758,5.51561,0.00434,1.30085,0.01377,-0.01175,0.02295,0.02738,-0.15964,0.06191,1.07769,5.51080,1.30094,1.57198,1.57872,-0.31747,0.91863,5.42772,-0.36653,0.88956,A,113527.70
5.52617,57.68799416,11.98125707,57.68802300,11.98123217,11:35:27.890089,5.52617,0.00451,1.30085,0.01289,-0.00258,0.03334,0.02387,-0.06881,-0.00677,1.11429,5.52134,1.30093,1.58785,1.59458,-0.32246,0.92593,5.42772,-0.36653,0.88956,A,113527.70
5.54946,57.68799447,11.98125691,57.68802417,11.98123133,11:35:27.913379,5.54946,0.01737,1.30085,0.01178,0.00154,0.03471,0.02540,0.04648,-0.02757,1.11221,5.53146,1.30092,1.60389,1.61063,-0.33242,0.96029,5.54660,-0.41606,1.01929,A,113527.80
5.56215,57.68799464,11.98125676,57.68802417,11.98123133,11:35:27.926075,5.56215,0.00540,1.28162,0.01212,0.00582,0.00264,0.03212,-0.02281,0.06679,1.07250,5.55730,1.29899,1.61949,1.62623,-0.34128,0.97885,5.54660,-0.41606,1.01929,A,113527.80
5.57264,57.68799475,11.98125662,57.68802417,11.98123133,11:35:27.936563,5.57264,0.00549,1.28162,0.01277,0.01880,-0.00331,0.03761,-0.11718,0.08381,1.01955,5.56671,1.29726,1.63485,1.64159,-0.34925,0.99169,5.54660,-0.41606,1.01929,A,113527.80
5.58192,57.68799485,11.98125650,57.68802417,11.98123133,11:35:27.945834,5.58192,0.00437,1.28162,0.01346,0.02032,0.01318,0.03319,-0.02135,0.07912,0.91781,5.57691,1.29569,1.65005,1.65679,-0.35655,1.00314,5.54660,-0.41606,1.01929,A,113527.80
5.59250,57.68799496,11.98125639,57.68802417,11.98123133,11:35:27.956418,5.59250,0.00443,1.28162,0.01332,0.02658,0.00890,0.02616,0.02336,0.02330,0.79501,5.58744,1.29428,1.66513,1.67186,-0.36335,1.01461,5.54660,-0.41606,1.01929,A,113527.80
5.60316,57.68799505,11.98125628,57.68802417,11.98123133,11:35:27.967084,5.60316,0.00469,1.28162,0.01381,0.02460,-0.00224,0.01959,0.05569,0.05551,0.76122,5.59811,1.29302,1.68006,1.68679,-0.36963,1.02503,5.54660,-0.41606,1.01929,A,113527.80
5.61330,57.68799513,11.98125618,57.68802417,11.98123133,11:35:27.977226,5.61330,0.00444,1.28162,0.01398,0.02735,-0.03202,0.01287,0.01037,0.03959,0.76305,5.60823,1.29188,1.69482,1.70156,-0.37535,1.03374,5.54660,-0.41606,1.01929,A,113527.80
5.62361,57.68799520,11.98125609,57.68802417,11.98123133,11:35:27.987758,5.62361,0.00435,1.28162,0.01348,0.02552,-0.03157,0.00386,-0.13457,0.00256,0.93184,5.61881,1.29085,1.70945,1.71618,-0.38071,1.04207,5.54660,-0.41606,1.01929,A,113527.80
5.63407,57.68799527,11.98125601,57.68802417,11.98123133,11:35:27.997993,5.63407,0.00442,1.28162,0.01301,0.02124,-0.01752,-0.00133,-0.20356,0.00561,1.11764,5.62925,1.28993,1.72393,1.73063,-0.38569,1.04970,5.54660,-0.41606,1.01929,A,113527.80
5.64470,57.68799533,11.98125593,57.68802417,11.98123133,11:35:28.008618,5.64470,0.00449,1.28162,0.01261,0.01498,0.01975,-0.00560,-0.04965,0.01385,1.26441,5.63960,1.28910,1.73827,1.74484,-0.39030,1.05640,5.54660,-0.41606,1.01929,A,113527.80
5.66727,57.68799558,11.98125572,57.68802483,11.98123033,11:35:28.031185,5.66727,0.01666,1.28162,0.01248,0.02093,0.02097,0.00050,0.09553,0.02928,1.23976,5.65016,1.28835,1.75278,1.75907,-0.40301,1.08392,5.66460,-0.47550,1.09342,A,113527.90
5.67918,57.68799569,11.98125556,57.68802483,11.98123033,11:35:28.044122,5.67918,0.00444,1.28162,0.01411,0.04079,-0.01553,0.00722,-0.10035,0.09016,0.99021,5.67435,1.28768,1.76685,1.77187,-0.41244,1.09633,5.66460,-0.47550,1.09342,A,113527.90
5.68955,57.68799577,11.98125542,57.68802483,11.98123033,11:35:28.053470,5.68955,0.00441,1.28162,0.01426,0.05056,-0.00820,0.00570,-0.09406,0.02105,0.84448,5.68449,1.28707,1.78072,1.78504,-0.42066,1.10544,5.66460,-0.47550,1.09342,A,113527.90
5.70067,57.68799585,11.98125529,57.68802483,11.98123033,11:35:28.064601,5.70067,0.00521,1.28162,0.01364,0.04247,-0.00774,0.00417,-0.01464,-0.01592,0.71492,5.69509,1.28653,1.79443,1.79805,-0.42824,1.11388,5.66460,-0.47550,1.09342,A,113527.90
5.71042,57.68799591,11.98125518,57.68802483,11.98123033,11:35:28.074344,5.71042,0.00456,1.28162,0.01353,0.03697,-0.01568,0.00096,0.05819,0.01006,0.77732,5.70541,1.28603,1.80797,1.81095,-0.43498,1.12055,5.66460,-0.47550,1.09342,A,113527.90
5.72056,57.68799597,11.98125508,57.68802483,11.98123033,11:35:28.084480,5.72056,0.00444,1.28162,0.01487,0.03178,-0.01675,-0.00484,-0.03758,0.09986,0.90615,5.71548,1.28559,1.82137,1.82376,-0.44125,1.12686,5.66460,-0.47550,1.09342,A,113527.90
5.73086,57.68799602,11.98125498,57.68802483,11.98123033,11:35:28.094776,5.73086,0.00435,1.28162,0.01563,0.04216,-0.01049,-0.00469,-0.08046,0.06594,1.06061,5.72606,1.28520,1.83463,1.83648,-0.44712,1.13301,5.66460,-0.47550,1.09342,A,113527.90
5.74141,57.68799607,11.98125489,57.68802483,11.98123033,11:35:28.105328,5.74141,0.00450,1.28162,0.01616,0.04384,0.00600,-0.00820,-0.14085,0.05411,1.19212,5.73626,1.28484,1.84774,1.84917,-0.45250,1.13839,5.66460,-0.47550,1.09342,A,113527.90
5.75162,57.68799611,11.98125480,57.68802483,11.98123033,11:35:28.115775,5.75162,0.00432,1.28162,0.01667,0.05239,0.03548,-0.01171,-0.07302,0.04526,1.20133,5.74683,1.28452,1.86072,1.86181,-0.45747,1.14322,5.66460,-0.47550,1.09342,A,113527.90
5.76206,57.68799616,11.98125472,57.68802483,11.98123033,11:35:28.125979,5.76206,0.00436,1.28162,0.01720,0.05239,0.03258,-0.00896,0.09784,0.04264,1.09776,5.75725,1.28423,1.87355,1.87441,-0.46213,1.14777,5.66460,-0.47550,1.09342,A,113527.90
5.78688,57.68799640,11.98125444,57.68802550,11.98122900,11:35:28.150803,5.78688,0.01879,1.28162,0.01780,0.05575,0.00234,-0.00744,0.08863,0.04325,1.00375,5.76745,1.28397,1.88630,1.88701,-0.47933,1.17510,5.78344,-0.55474,1.16755,A,113528.00
5.79898,57.68799649,11.98125425,57.68802550,11.98122900,11:35:28.162909,5.79898,0.00638,1.28162,0.01972,0.06095,0.00386,0.00554,-0.14305,0.05581,0.87724,5.79377,1.28373,1.89887,1.89951,-0.49043,1.18522,5.78344,-0.55474,1.16755,A,113528.00
5.80738,57.68799654,11.98125410,57.68802550,11.98122900,11:35:28.171533,5.80738,0.00438,1.28162,0.02078,0.06522,0.02158,-0.00148,-0.07857,0.06637,0.87614,5.80257,1.28352,1.91131,1.91194,-0.49931,1.19064,5.78344,-0.55474,1.16755,A,113528.00
5.81776,57.68799660,11.98125395,57.68802550,11.98122900,11:35:28.181680,5.81776,0.00438,1.28162,0.02237,0.06782,0.02922,-0.01049,-0.02568,0.10035,0.95764,5.81276,1.28333,1.92363,1.92424,-0.50808,1.19742,5.78344,-0.55474,1.16755,A,113528.00
5.82842,57.68799666,11.98125382,57.68802550,11.98122900,11:35:28.192343,5.82842,0.00447,1.28162,0.02382,0.07500,0.02922,-0.01431,-0.00586,0.09004,1.00924,5.82334,1.28316,1.93582,1.93639,-0.51617,1.20371,5.78344,-0.55474,1.16755,A,113528.00
5.83871,57.68799671,11.98125369,57.68802550,11.98122900,11:35:28.202632,5.83871,0.00437,1.28162,0.02457,0.07851,0.02265,-0.01461,-0.00573,0.04343,1.03700,5.83391,1.28300,1.94789,1.94841,-0.52352,1.20921,5.78344,-0.55474,1.16755,A,113528.00
5.84923,57.68799675,11.98125358,57.68802550,11.98122900,11:35:28.213146,5.84923,0.00449,1.28162,0.02489,0.08110,0.01349,-0.01248,-0.04307,0.01440,1.05493,5.84412,1.28287,1.95984,1.96030,-0.53021,1.21404,5.78344,-0.55474,1.16755,A,113528.00
5.85950,57.68799679,11.98125348,57.68802550,11.98122900,11:35:28.223657,5.85950,0.00436,1.28162,0.02520,0.06858,0.00845,-0.00988,-0.01318,0.02196,1.07659,5.85470,1.28274,1.97167,1.97208,-0.53637,1.21841,5.78344,-0.55474,1.16755,A,113528.00
5.86991,57.68799683,11.98125338,57.68802550,11.98122900,11:35:28.233827,5.86991,0.00438,1.28162,0.02581,0.06919,-0.00927,-0.00774,0.06606,0.04099,0.98918,5.86490,1.28263,1.98338,1.98374,-0.54207,1.22243,5.78344,-0.55474,1.16755,A,113528.00
5.88051,57.68799686,11.98125329,57.68802550,11.98122900,11:35:28.244436,5.88051,0.00445,1.28162,0.02710,0.06308,-0.02698,-0.00438,0.05246,0.08638,0.95343,5.87544,1.28253,1.99497,1.99528,-0.54727,1.22593,5.78344,-0.55474,1.16755,A,113528.00
5.91475,57.68799725,11.98125292,57.68802683,11.98122800,11:35:28.278682,5.91475,0.02830,1.28162,0.02867,0.06858,-0.02714,-0.00255,-0.08229,0.09955,0.93897,5.88601,1.28244,2.00647,2.00670,-0.56942,1.26911,5.91207,-0.61418,1.31581,A,113528.20
5.92497,57.68799736,11.98125278,57.68802683,11.98122800,11:35:28.288899,5.92497,0.00461,1.28162,0.03150,0.07118,0.04495,-0.02775,-0.06216,0.08430,1.05438,5.91984,1.28235,2.01783,2.01759,-0.57783,1.28222,5.91207,-0.61418,1.31581,A,113528.20
5.93522,57.68799747,11.98125265,57.68802683,11.98122800,11:35:28.299140,5.93522,0.00446,1.28162,0.03229,0.06705,0.04479,-0.02500,0.10205,0.05697,0.98911,5.93042,1.28228,2.02906,2.02869,-0.58566,1.29435,5.91207,-0.61418,1.31581,A,113528.20
5.94559,57.68799757,11.98125253,57.68802683,11.98122800,11:35:28.309520,5.94559,0.00444,1.28162,0.03327,0.06553,0.01807,-0.01614,0.08997,0.07412,0.99674,5.94053,1.28221,2.04018,2.03973,-0.59274,1.30506,5.91207,-0.61418,1.31581,A,113528.20
5.95634,57.68799766,11.98125242,57.68802683,11.98122800,11:35:28.320265,5.95634,0.00479,1.28162,0.03419,0.06217,0.00295,-0.00912,-0.04813,0.07436,1.05536,5.95123,1.28216,2.05118,2.05070,-0.59938,1.31501,5.91207,-0.61418,1.31581,A,113528.20
5.96632,57.68799774,11.98125232,57.68802683,11.98122800,11:35:28.330240,5.96632,0.00437,1.28162,0.03479,0.05575,-0.00163,-0.00240,-0.05350,0.05856,1.03596,5.96151,1.28210,2.06208,2.06156,-0.60520,1.32343,5.91207,-0.61418,1.31581,A,113528.20
5.97668,57.68799780,11.98125223,57.68802683,11.98122800,11:35:28.340599,5.97668,0.00449,1.28162,0.03589,0.05148,-0.00117,-0.00408,0.03825,0.09040,0.96319,5.97158,1.28205,2.07286,2.07228,-0.61057,1.33104,5.91207,-0.61418,1.31581,A,113528.20
5.98707,57.68799787,11.98125214,57.68802683,11.98122800,11:35:28.350989,5.98707,0.00449,1.28162,0.03722,0.04109,-0.01965,-0.00820,0.09119,0.10766,0.93293,5.98223,1.28201,2.08353,2.08277,-0.61567,1.33816,5.91207,-0.61418,1.31581,A,113528.20
