Time,lat_estimated,lon_estimated,latitude,longitude,RealTime,CalculationTime,MeasuredVelocity,Roll,SteeringAngle,RollRate,gy,gz,ax,ay,az,imu_read_timing,v_estimated,yaw_estimated,heading_estimated,x_estimated,y_estimated,GPS_timestamp,x_GPS,y_GPS,status,NMEA timestamp
0.04876,57.68797190,11.98131193,57.68797200,11.98130983,11:29:26.111070,0.04876,0.04870,0.00000,0.00151,0.06210,-0.00129,0.00511,-0.03849,0.08131,1.00162,0.00001,0.00000,0.00000,0.01574,0.12482,-0.01112,0.01467,1.24818,-0.11119,A,112926.00
0.05892,57.68797181,11.98131382,57.68797200,11.98130983,11:29:26.121142,0.05892,0.00497,0.00000,0.00578,0.06149,0.01307,-0.00757,-0.02556,0.09235,1.03944,0.05407,0.00000,-0.00016,0.01591,0.23715,-0.02113,0.01467,1.24818,-0.11119,A,112926.00
0.06869,57.68797173,11.98131552,57.68797200,11.98130983,11:29:26.130901,0.06869,0.00434,0.00000,0.00705,0.05722,0.00070,-0.00329,0.03898,0.07540,1.01955,0.06419,0.00000,-0.00032,0.01575,0.33826,-0.03013,0.01467,1.24818,-0.11119,A,112926.00
0.07936,57.68797166,11.98131706,57.68797200,11.98130983,11:29:26.141584,0.07936,0.00454,0.00000,0.00828,0.05416,-0.01137,-0.00222,0.04843,0.07253,0.98643,0.07457,0.00000,-0.00047,0.01559,0.42925,-0.03824,0.01467,1.24818,-0.11119,A,112926.00
0.08979,57.68797159,11.98131843,57.68797200,11.98130983,11:29:26.152016,0.08979,0.00456,0.00000,0.00961,0.05172,-0.02358,-0.00039,-0.00104,0.08015,0.96929,0.08503,0.00000,-0.00063,0.01544,0.51114,-0.04554,0.01467,1.24818,-0.11119,A,112926.00
0.10017,57.68797153,11.98131967,57.68797200,11.98130983,11:29:26.162399,0.10017,0.00456,0.00000,0.01116,0.04912,-0.01457,-0.00100,-0.05661,0.09528,0.95502,0.09564,0.00000,-0.00078,0.01528,0.58484,-0.05210,0.01467,1.24818,-0.11119,A,112926.00
0.11045,57.68797148,11.98132079,57.68797200,11.98130983,11:29:26.172681,0.11045,0.00461,0.00000,0.01286,0.04928,-0.01030,-0.00054,-0.04892,0.10596,0.92976,0.10551,0.00000,-0.00094,0.01513,0.65118,-0.05801,0.01467,1.24818,-0.11119,A,112926.00
0.13369,57.68797145,11.98132179,57.68797217,11.98130983,11:29:26.195919,0.13369,0.01745,0.00000,0.01456,0.04637,-0.00022,-0.00253,-0.01000,0.10474,0.90542,0.11615,0.00000,-0.00109,0.01498,0.71088,-0.06148,0.13084,1.24818,-0.09266,A,112926.10
0.14476,57.68797142,11.98132270,57.68797217,11.98130983,11:29:26.206981,0.14476,0.00552,0.00000,0.01658,0.04439,-0.00602,-0.01062,-0.02050,0.09864,0.98491,0.14022,0.00000,-0.00124,0.01483,0.76461,-0.06459,0.13084,1.24818,-0.09266,A,112926.10
0.15420,57.68797139,11.98132351,57.68797217,11.98130983,11:29:26.216416,0.15420,0.00442,0.00000,0.01774,0.04576,-0.00327,-0.01062,-0.04978,0.09193,1.04847,0.14942,0.00000,-0.00139,0.01468,0.81296,-0.06740,0.13084,1.24818,-0.09266,A,112926.10
0.16450,57.68797137,11.98132424,57.68797217,11.98130983,11:29:26.226723,0.16450,0.00434,0.00000,0.01868,0.05035,0.00894,-0.01169,-0.03013,0.07296,1.09525,0.15998,0.00000,-0.00153,0.01453,0.85649,-0.06993,0.13084,1.24818,-0.09266,A,112926.10
0.17612,57.68797135,11.98132490,57.68797217,11.98130983,11:29:26.238355,0.17612,0.00556,0.00000,0.01937,0.03828,0.01062,-0.01032,0.05112,0.06509,1.08055,0.17020,0.00000,-0.00168,0.01439,0.89565,-0.07220,0.13084,1.24818,-0.09266,A,112926.10
0.18529,57.68797133,11.98132550,57.68797217,11.98130983,11:29:26.247753,0.18529,0.00433,0.00000,0.02022,0.03721,-0.00266,-0.01108,0.07503,0.07363,1.03255,0.18079,0.00000,-0.00182,0.01424,0.93091,-0.07425,0.13084,1.24818,-0.09266,A,112926.10
0.19591,57.68797132,11.98132603,57.68797217,11.98130983,11:29:26.258132,0.19591,0.00456,0.00000,0.02168,0.03599,-0.01396,-0.00405,0.02464,0.11297,0.98765,0.19117,0.00000,-0.00196,0.01410,0.96263,-0.07609,0.13084,1.24818,-0.09266,A,112926.10
0.20620,57.68797130,11.98132651,57.68797217,11.98130983,11:29:26.268424,0.20620,0.00446,0.00000,0.02345,0.04149,-0.01198,-0.00405,-0.03282,0.12645,0.94337,0.20143,0.00000,-0.00211,0.01396,0.99119,-0.07775,0.13084,1.24818,-0.09266,A,112926.10
0.21663,57.68797129,11.98132694,57.68797217,11.98130983,11:29:26.278850,0.21663,0.00449,0.00000,0.02494,0.04760,-0.01060,0.00083,-0.03453,0.10114,0.91311,0.21211,0.00000,-0.00225,0.01382,1.01689,-0.07924,0.13084,1.24818,-0.09266,A,112926.10
0.22799,57.68797128,11.98132733,57.68797217,11.98130983,11:29:26.290224,0.22799,0.00546,0.00000,0.02613,0.04378,-0.00831,0.00007,0.00323,0.08418,0.90884,0.22343,0.00000,-0.00238,0.01368,1.04002,-0.08058,0.13084,1.24818,-0.09266,A,112926.10
0.24882,57.68797131,11.98132763,57.68797267,11.98130933,11:29:26.311040,0.24882,0.01589,0.00000,0.02707,0.04286,-0.01549,-0.00176,0.02464,0.07869,0.93733,0.23275,0.00000,-0.00252,0.01355,1.05786,-0.07623,0.24615,1.21846,-0.03706,A,112926.20
0.25928,57.68797135,11.98132790,57.68797267,11.98130933,11:29:26.321499,0.25928,0.00452,0.00000,0.02869,0.04317,-0.00434,0.00221,-0.06466,0.10114,1.06506,0.25449,0.00000,-0.00266,0.01341,1.07392,-0.07231,0.24615,1.21846,-0.03706,A,112926.20
0.27059,57.68797138,11.98132814,57.68797267,11.98130933,11:29:26.332846,0.27059,0.00544,0.00000,0.02986,0.04088,0.00726,-0.00268,-0.05624,0.10913,1.09098,0.26495,0.00000,-0.00279,0.01328,1.08837,-0.06879,0.24615,1.21846,-0.03706,A,112926.20
0.27989,57.68797141,11.98132836,57.68797267,11.98130933,11:29:26.342103,0.27989,0.00434,0.00000,0.03074,0.04790,0.01001,-0.00803,0.02050,0.08101,1.05127,0.27538,0.00000,-0.00292,0.01314,1.10138,-0.06562,0.24615,1.21846,-0.03706,A,112926.20
0.29024,57.68797144,11.98132856,57.68797267,11.98130933,11:29:26.352469,0.29024,0.00445,0.00000,0.03163,0.04271,-0.00526,-0.00741,0.08747,0.08320,1.00571,0.28545,0.00000,-0.00305,0.01301,1.11309,-0.06276,0.24615,1.21846,-0.03706,A,112926.20
0.30072,57.68797146,11.98132874,57.68797267,11.98130933,11:29:26.363140,0.30072,0.00454,0.00000,0.03270,0.03324,-0.02252,-0.00711,0.04813,0.09754,0.96569,0.29621,0.00000,-0.00318,0.01288,1.12363,-0.06019,0.24615,1.21846,-0.03706,A,112926.20
0.31099,57.68797148,11.98132890,57.68797267,11.98130933,11:29:26.373218,0.31099,0.00442,0.00000,0.03410,0.03278,-0.03061,-0.00131,-0.03172,0.12365,0.97850,0.30622,0.00000,-0.00331,0.01275,1.13311,-0.05788,0.24615,1.21846,-0.03706,A,112926.20
0.32132,57.68797150,11.98132904,57.68797267,11.98130933,11:29:26.383776,0.32132,0.00435,0.00000,0.03554,0.03400,-0.02893,-0.00375,-0.06307,0.12725,0.99186,0.31682,0.00000,-0.00344,0.01263,1.14164,-0.05580,0.24615,1.21846,-0.03706,A,112926.20
0.33170,57.68797152,11.98132917,57.68797267,11.98130933,11:29:26.393916,0.33170,0.00434,0.00000,0.03671,0.03156,-0.02084,-0.00344,-0.04276,0.11261,0.99119,0.32718,0.00000,-0.00357,0.01250,1.14933,-0.05392,0.24615,1.21846,-0.03706,A,112926.20
0.34220,57.68797153,11.98132929,57.68797267,11.98130933,11:29:26.404423,0.34220,0.00441,0.00000,0.03765,0.02973,-0.01885,-0.00528,0.01659,0.09833,0.98070,0.33742,0.00000,-0.00369,0.01238,1.15624,-0.05224,0.24615,1.21846,-0.03706,A,112926.20
0.36452,57.68797159,11.98132934,57.68797317,11.98130883,11:29:26.426746,0.36452,0.01634,0.00000,0.03871,0.02454,-0.01824,-0.00650,-0.00403,0.11017,0.97246,0.34800,0.00000,-0.00382,0.01225,1.15949,-0.04516,0.36155,1.18874,0.01853,A,112926.30
0.38065,57.68797165,11.98132939,57.68797317,11.98130883,11:29:26.442878,0.38065,0.00643,0.00000,0.03995,0.02179,-0.00465,-0.01368,-0.07967,0.10126,0.98716,0.37611,0.00000,-0.00394,0.01213,1.16241,-0.03879,0.36155,1.18874,0.01853,A,112926.30
0.38900,57.68797170,11.98132943,57.68797317,11.98130883,11:29:26.451218,0.38900,0.00438,0.00000,0.04050,0.01919,0.00482,-0.00818,-0.03141,0.08613,0.99241,0.38450,0.00000,-0.00406,0.01201,1.16505,-0.03306,0.36155,1.18874,0.01853,A,112926.30
0.39960,57.68797175,11.98132947,57.68797317,11.98130883,11:29:26.461820,0.39960,0.00474,0.00000,0.04103,0.01247,0.00513,-0.01322,0.02123,0.08851,0.98857,0.39451,0.00000,-0.00418,0.01189,1.16742,-0.02790,0.36155,1.18874,0.01853,A,112926.30
0.40998,57.68797179,11.98132951,57.68797317,11.98130883,11:29:26.472208,0.40998,0.00473,0.00000,0.04180,0.00728,-0.00847,-0.00925,0.06356,0.10705,0.98838,0.40506,0.00000,-0.00430,0.01177,1.16955,-0.02326,0.36155,1.18874,0.01853,A,112926.30
0.42004,57.68797183,11.98132954,57.68797317,11.98130883,11:29:26.482264,0.42004,0.00440,0.00000,0.04287,0.00926,-0.02435,-0.00390,0.04325,0.12993,1.00949,0.41554,0.00000,-0.00442,0.01165,1.17147,-0.01908,0.36155,1.18874,0.01853,A,112926.30
0.43040,57.68797186,11.98132957,57.68797317,11.98130883,11:29:26.492619,0.43040,0.00452,0.00000,0.04405,0.00667,-0.03580,-0.00283,-0.01806,0.14390,1.03383,0.42555,0.00000,-0.00453,0.01153,1.17320,-0.01532,0.36155,1.18874,0.01853,A,112926.30
0.44058,57.68797189,11.98132960,57.68797317,11.98130883,11:29:26.502800,0.44058,0.00431,0.00000,0.04490,0.00102,-0.03595,-0.00299,-0.03959,0.12590,1.03364,0.43609,0.00000,-0.00465,0.01142,1.17475,-0.01193,0.36155,1.18874,0.01853,A,112926.30
0.45108,57.68797192,11.98132962,57.68797317,11.98130883,11:29:26.513296,0.45108,0.00441,0.00000,0.04528,-0.00555,-0.03229,-0.00146,0.01330,0.09540,1.00699,0.44630,0.00000,-0.00476,0.01130,1.17615,-0.00889,0.36155,1.18874,0.01853,A,112926.30
0.46209,57.68797194,11.98132964,57.68797317,11.98130883,11:29:26.524324,0.46209,0.00502,0.00000,0.04563,-0.01624,-0.03351,-0.00268,0.04978,0.09784,0.96185,0.45710,0.00000,-0.00488,0.01119,1.17741,-0.00614,0.36155,1.18874,0.01853,A,112926.30
0.48647,57.68797202,11.98132963,57.68797367,11.98130850,11:29:26.548702,0.48647,0.01901,0.00000,0.04654,-0.01716,-0.03397,-0.00360,0.02739,0.12914,0.92610,0.46729,0.00000,-0.00499,0.01108,1.17656,0.00188,0.48356,1.16893,0.07413,A,112926.40
0.49657,57.68797208,11.98132962,57.68797367,11.98130850,11:29:26.558787,0.49657,0.00459,0.00000,0.04681,-0.01777,-0.00175,-0.00650,-0.06191,0.10956,0.95239,0.49180,0.00000,-0.00510,0.01097,1.17580,0.00911,0.48356,1.16893,0.07413,A,112926.40
0.50681,57.68797214,11.98132960,57.68797367,11.98130850,11:29:26.569033,0.50681,0.00461,0.00000,0.04666,-0.02479,0.00497,-0.00925,-0.00244,0.07253,0.97045,0.50202,0.00000,-0.00521,0.01086,1.17511,0.01561,0.48356,1.16893,0.07413,A,112926.40
0.51694,57.68797219,11.98132959,57.68797367,11.98130850,11:29:26.579151,0.51694,0.00434,0.00000,0.04650,-0.02479,-0.00679,-0.00955,0.03599,0.07485,1.01034,0.51244,0.00000,-0.00532,0.01075,1.17449,0.02146,0.48356,1.16893,0.07413,A,112926.40
0.52846,57.68797224,11.98132958,57.68797367,11.98130850,11:29:26.590693,0.52846,0.00547,0.00000,0.04659,-0.03121,-0.01900,-0.00573,0.02007,0.10297,1.06250,0.52389,0.00000,-0.00542,0.01064,1.17394,0.02673,0.48356,1.16893,0.07413,A,112926.40
0.53805,57.68797228,11.98132958,57.68797367,11.98130850,11:29:26.600267,0.53805,0.00445,0.00000,0.04688,-0.03609,-0.02893,0.00373,0.00348,0.11950,1.08574,0.53325,0.00000,-0.00553,0.01054,1.17343,0.03147,0.48356,1.16893,0.07413,A,112926.40
0.54831,57.68797232,11.98132957,57.68797367,11.98130850,11:29:26.610524,0.54831,0.00431,0.00000,0.04713,-0.03395,-0.03901,0.00679,0.00354,0.11553,1.06738,0.54381,0.00000,-0.00564,0.01044,1.17298,0.03574,0.48356,1.16893,0.07413,A,112926.40
0.55865,57.68797236,11.98132956,57.68797367,11.98130850,11:29:26.620871,0.55865,0.00443,0.00000,0.04759,-0.03792,-0.03443,0.01473,-0.00177,0.12450,1.00217,0.55388,0.00000,-0.00574,0.01034,1.17258,0.03957,0.48356,1.16893,0.07413,A,112926.40
0.56894,57.68797239,11.98132956,57.68797367,11.98130850,11:29:26.631165,0.56894,0.00434,0.00000,0.04832,-0.03991,-0.03259,0.01870,-0.03117,0.13853,0.94715,0.56444,0.00000,-0.00584,0.01027,1.17221,0.04303,0.48356,1.16893,0.07413,A,112926.40
0.58037,57.68797241,11.98132955,57.68797367,11.98130850,11:29:26.642599,0.58037,0.00537,0.00000,0.04889,-0.04296,-0.02649,0.01274,-0.04136,0.12743,0.90750,0.57584,0.00000,-0.00595,0.01022,1.17188,0.04614,0.48356,1.16893,0.07413,A,112926.40
0.61392,57.68797257,11.98132941,57.68797500,11.98130717,11:29:26.676153,0.61392,0.02815,0.00000,0.04907,-0.04281,-0.02160,0.00053,-0.06814,0.10065,0.92086,0.58541,0.00000,-0.00605,0.01021,1.16366,0.06377,0.61106,1.08968,0.22239,A,112926.60
0.62432,57.68797272,11.98132929,57.68797500,11.98130717,11:29:26.686545,0.62432,0.00452,0.00000,0.04726,-0.05763,-0.01076,-0.00008,0.03855,0.08272,1.03907,0.61980,0.00000,-0.00615,0.01095,1.15627,0.07963,0.61106,1.08968,0.22239,A,112926.60
0.63451,57.68797284,11.98132917,57.68797500,11.98130717,11:29:26.696731,0.63451,0.00448,0.00000,0.04727,-0.05931,-0.02068,0.00098,-0.00250,0.11047,1.02523,0.62970,0.00000,-0.00626,0.01124,1.14961,0.09390,0.61106,1.08968,0.22239,A,112926.60
0.64476,57.68797296,11.98132907,57.68797500,11.98130717,11:29:26.706973,0.64476,0.00433,0.00000,0.04719,-0.06068,-0.01381,0.00557,-0.08741,0.10596,1.00382,0.64025,0.00000,-0.00637,0.01154,1.14361,0.10675,0.61106,1.08968,0.22239,A,112926.60
0.65521,57.68797306,11.98132898,57.68797500,11.98130717,11:29:26.717432,0.65521,0.00439,0.00000,0.04735,-0.05472,-0.01030,0.00557,-0.09052,0.11450,0.98606,0.65044,0.00000,-0.00649,0.01181,1.13822,0.11832,0.61106,1.08968,0.22239,A,112926.60
0.66596,57.68797316,11.98132890,57.68797500,11.98130717,11:29:26.728182,0.66596,0.00474,0.00000,0.04722,-0.04800,-0.00663,0.00175,-0.04429,0.08808,0.93751,0.66116,0.00000,-0.00661,0.01210,1.13337,0.12872,0.61106,1.08968,0.22239,A,112926.60
0.67592,57.68797324,11.98132883,57.68797500,11.98130717,11:29:26.738139,0.67592,0.00432,0.00000,0.04748,-0.05335,-0.00785,0.00679,0.01061,0.11486,0.93977,0.67143,0.00000,-0.00673,0.01235,1.12900,0.13809,0.61106,1.08968,0.22239,A,112926.60
0.68833,57.68797332,11.98132876,57.68797500,11.98130717,11:29:26.750557,0.68833,0.00650,0.00000,0.04761,-0.04312,-0.01015,0.01015,-0.00762,0.10925,0.97252,0.68378,0.00000,-0.00685,0.01266,1.12507,0.14652,0.61106,1.08968,0.22239,A,112926.60
0.69671,57.68797339,11.98132870,57.68797500,11.98130717,11:29:26.758935,0.69671,0.00449,0.00000,0.04796,-0.04617,-0.01121,0.01397,-0.07662,0.11871,1.00522,0.69220,0.00000,-0.00698,0.01281,1.12153,0.15411,0.61106,1.08968,0.22239,A,112926.60
0.70717,57.68797345,11.98132865,57.68797500,11.98130717,11:29:26.769392,0.70717,0.00442,0.00000,0.04747,-0.03655,0.00482,0.01656,-0.10205,0.06167,1.01211,0.70239,0.00000,-0.00711,0.01301,1.11834,0.16094,0.61106,1.08968,0.22239,A,112926.60
0.73126,57.68797357,11.98132857,57.68797567,11.98130683,11:29:26.793483,0.73126,0.01812,0.00000,0.04713,-0.04449,0.01261,0.01671,-0.03642,0.07613,0.99107,0.71295,0.00000,-0.00724,0.01321,1.11349,0.17449,0.72844,1.06987,0.29652,A,112926.70
0.74112,57.68797368,11.98132849,57.68797567,11.98130683,11:29:26.803592,0.74112,0.00437,0.00000,0.04675,-0.04877,-0.00953,0.01351,0.02934,0.11852,0.99290,0.73662,0.00000,-0.00737,0.01360,1.10913,0.18670,0.72844,1.06987,0.29652,A,112926.70
0.75149,57.68797378,11.98132843,57.68797567,11.98130683,11:29:26.813711,0.75149,0.00434,0.00000,0.04650,-0.05259,-0.01091,0.00648,-0.01909,0.08650,1.00308,0.74678,0.00000,-0.00750,0.01358,1.10520,0.19768,0.72844,1.06987,0.29652,A,112926.70
0.76210,57.68797387,11.98132837,57.68797567,11.98130683,11:29:26.824320,0.76210,0.00443,0.00000,0.04646,-0.04923,-0.01549,0.00770,-0.03782,0.10010,1.01266,0.75732,0.00000,-0.00764,0.01349,1.10167,0.20756,0.72844,1.06987,0.29652,A,112926.70
0.77252,57.68797395,11.98132831,57.68797567,11.98130683,11:29:26.834740,0.77252,0.00446,0.00000,0.04667,-0.04907,-0.01244,0.00557,-0.00891,0.11566,0.99064,0.76803,0.00000,-0.00777,0.01335,1.09849,0.21646,0.72844,1.06987,0.29652,A,112926.70
0.78287,57.68797402,11.98132827,57.68797567,11.98130683,11:29:26.845088,0.78287,0.00441,0.00000,0.04630,-0.04800,-0.02328,0.00419,-0.00543,0.07186,0.95874,0.77809,0.00000,-0.00791,0.01322,1.09563,0.22446,0.72844,1.06987,0.29652,A,112926.70
0.79319,57.68797408,11.98132822,57.68797567,11.98130683,11:29:26.855792,0.79319,0.00433,0.00000,0.04591,-0.05045,-0.02206,0.00022,-0.04813,0.07491,0.97557,0.78869,0.00000,-0.00804,0.01309,1.09305,0.23167,0.72844,1.06987,0.29652,A,112926.70
0.80420,57.68797414,11.98132818,57.68797567,11.98130683,11:29:26.866422,0.80420,0.00457,0.00000,0.04606,-0.04174,-0.00236,0.00251,-0.11425,0.10956,1.02297,0.79952,0.00000,-0.00817,0.01296,1.09073,0.23816,0.72844,1.06987,0.29652,A,112926.70
0.81465,57.68797419,11.98132815,57.68797567,11.98130683,11:29:26.876881,0.81465,0.00477,0.00000,0.04610,-0.03960,0.01353,0.00343,-0.07247,0.09876,1.01894,0.80986,0.00000,-0.00830,0.01283,1.08865,0.24399,0.72844,1.06987,0.29652,A,112926.70
0.82465,57.68797424,11.98132812,57.68797567,11.98130683,11:29:26.886864,0.82465,0.00431,0.00000,0.04548,-0.03747,0.01734,-0.00131,0.03105,0.04874,0.95215,0.82016,0.00000,-0.00843,0.01270,1.08677,0.24924,0.72844,1.06987,0.29652,A,112926.70
0.84794,57.68797435,11.98132802,57.68797633,11.98130617,11:29:26.910165,0.84794,0.01722,0.00000,0.04481,-0.03716,-0.00434,-0.00008,0.04526,0.04404,0.91897,0.83089,0.00000,-0.00856,0.01257,1.08112,0.26138,0.84515,1.03024,0.37065,A,112926.80
0.85714,57.68797445,11.98132794,57.68797633,11.98130617,11:29:26.919604,0.85714,0.00434,0.00000,0.04435,-0.03273,-0.03595,0.00969,-0.07954,0.08278,1.01266,0.85264,0.00000,-0.00868,0.01244,1.07603,0.27231,0.84515,1.03024,0.37065,A,112926.80
0.86769,57.68797454,11.98132786,57.68797633,11.98130617,11:29:26.929910,0.86769,0.00449,0.00000,0.04434,-0.03075,-0.02129,0.01442,-0.08137,0.09248,1.07982,0.86283,0.00000,-0.00881,0.01232,1.07145,0.28215,0.84515,1.03024,0.37065,A,112926.80
0.87814,57.68797462,11.98132779,57.68797633,11.98130617,11:29:26.940355,0.87814,0.00441,0.00000,0.04455,-0.02678,-0.00190,0.01137,-0.00329,0.10498,1.07043,0.87337,0.00000,-0.00893,0.01220,1.06733,0.29100,0.84515,1.03024,0.37065,A,112926.80
0.88844,57.68797469,11.98132773,57.68797633,11.98130617,11:29:26.950650,0.88844,0.00432,0.00000,0.04493,-0.02586,0.00482,0.00832,0.04020,0.11279,1.02706,0.88394,0.00000,-0.00905,0.01207,1.06362,0.29896,0.84515,1.03024,0.37065,A,112926.80
0.89892,57.68797475,11.98132767,57.68797633,11.98130617,11:29:26.961144,0.89892,0.00441,0.00000,0.04522,-0.01960,-0.00022,-0.00085,0.01976,0.09400,0.95288,0.89413,0.00000,-0.00917,0.01195,1.06028,0.30613,0.84515,1.03024,0.37065,A,112926.80
0.90964,57.68797481,11.98132762,57.68797633,11.98130617,11:29:26.971871,0.90964,0.00473,0.00000,0.04483,-0.01654,-0.00740,-0.00314,-0.03758,0.04746,0.91787,0.90489,0.00000,-0.00929,0.01183,1.05728,0.31258,0.84515,1.03024,0.37065,A,112926.80
0.91963,57.68797486,11.98132758,57.68797633,11.98130617,11:29:26.981843,0.91963,0.00433,0.00000,0.04430,-0.01960,-0.01320,-0.01154,-0.04447,0.03934,0.90323,0.91493,0.00000,-0.00941,0.01172,1.05457,0.31839,0.84515,1.03024,0.37065,A,112926.80
0.93020,57.68797491,11.98132754,57.68797633,11.98130617,11:29:26.992419,0.93020,0.00442,0.00000,0.04369,-0.02846,-0.01625,-0.01307,-0.02172,0.04307,0.96654,0.92543,0.00000,-0.00953,0.01160,1.05214,0.32361,0.84515,1.03024,0.37065,A,112926.80
0.94311,57.68797495,11.98132750,57.68797633,11.98130617,11:29:27.005350,0.94311,0.00693,0.00000,0.04353,-0.02342,-0.01870,-0.00940,0.05813,0.07625,1.04609,0.93765,0.00000,-0.00964,0.01148,1.04995,0.32832,0.84515,1.03024,0.37065,A,112926.80
0.96336,57.68797504,11.98132733,57.68797683,11.98130483,11:29:27.025583,0.96336,0.01679,0.00000,0.04374,-0.02250,-0.02710,0.00221,0.07985,0.09815,1.07256,0.94619,0.00000,-0.00976,0.01137,1.04006,0.33811,0.96053,0.95099,0.42625,A,112926.90
0.97319,57.68797512,11.98132718,57.68797683,11.98130483,11:29:27.035660,0.97319,0.00436,0.00000,0.04425,-0.00921,-0.01396,-0.00238,-0.07954,0.11236,0.99820,0.96868,0.00000,-0.00987,0.01124,1.03115,0.34692,0.96053,0.95099,0.42625,A,112926.90
0.98355,57.68797519,11.98132705,57.68797683,11.98130483,11:29:27.045772,0.98355,0.00434,0.00000,0.04439,-0.00509,0.00268,-0.00528,-0.07479,0.07259,0.92635,0.97884,0.00000,-0.00998,0.01106,1.02313,0.35486,0.96053,0.95099,0.42625,A,112926.90
0.99452,57.68797526,11.98132693,57.68797683,11.98130483,11:29:27.056765,0.99452,0.00479,0.00000,0.04393,0.00163,0.01200,-0.01261,0.01995,0.02959,0.88200,0.98938,0.00000,-0.01009,0.01080,1.01592,0.36200,0.96053,0.95099,0.42625,A,112926.90
1.00468,57.68797531,11.98132682,57.68797683,11.98130483,11:29:27.066900,1.00468,0.00440,0.00000,0.04369,-0.00143,0.00406,-0.01612,0.04727,0.04599,0.92189,1.00016,0.00000,-0.01020,0.01046,1.00943,0.36842,0.96053,0.95099,0.42625,A,112926.90
1.01508,57.68797537,11.98132672,57.68797683,11.98130483,11:29:27.077300,1.01508,0.00440,0.00000,0.04343,-0.00509,-0.00251,-0.01337,0.03068,0.05118,1.00650,1.01031,0.00000,-0.01031,0.01010,1.00358,0.37420,0.96053,0.95099,0.42625,A,112926.90
1.02571,57.68797541,11.98132663,57.68797683,11.98130483,11:29:27.087943,1.02571,0.00463,0.00000,0.04334,0.00529,0.00070,-0.01291,-0.02891,0.05966,1.09153,1.02095,0.00000,-0.01041,0.00973,0.99832,0.37941,0.96053,0.95099,0.42625,A,112926.90
1.03723,57.68797545,11.98132655,57.68797683,11.98130483,11:29:27.099692,1.03723,0.00576,0.00000,0.04360,0.00346,0.00986,-0.00467,-0.01013,0.08869,1.10977,1.03129,0.00000,-0.01050,0.00940,0.99359,0.38409,0.96053,0.95099,0.42625,A,112926.90
1.04659,57.68797549,11.98132648,57.68797683,11.98130483,11:29:27.108809,1.04659,0.00449,0.00000,0.04414,0.01354,0.01169,-0.00192,0.04807,0.09900,1.08543,1.04179,0.00000,-0.01060,0.00909,0.98933,0.38831,0.96053,0.95099,0.42625,A,112926.90
1.05719,57.68797553,11.98132641,57.68797683,11.98130483,11:29:27.119636,1.05719,0.00470,0.00000,0.04463,0.01217,-0.00236,0.00129,0.06972,0.09065,1.01077,1.05232,0.00000,-0.01069,0.00881,0.98550,0.39210,0.96053,0.95099,0.42625,A,112926.90
1.07974,57.68797564,11.98132616,57.68797767,11.98130283,11:29:27.141964,1.07974,0.01685,0.00000,0.04505,0.01690,-0.01473,-0.00635,0.02879,0.07948,0.95922,1.06252,0.00000,-0.01078,0.00855,0.97016,0.40478,1.07670,0.83212,0.51891,A,112927.00
1.09031,57.68797574,11.98132592,57.68797767,11.98130283,11:29:27.152532,1.09031,0.00456,0.00000,0.04549,0.01201,-0.01824,-0.00940,-0.02062,0.06881,0.88926,1.08547,0.00000,-0.01086,0.00815,0.95635,0.41620,1.07670,0.83212,0.51891,A,112927.00
1.10067,57.68797584,11.98132571,57.68797767,11.98130283,11:29:27.162892,1.10067,0.00468,0.00000,0.04611,0.01522,-0.01015,-0.01245,-0.07472,0.09351,0.95922,1.09584,0.00000,-0.01094,0.00796,0.94393,0.42647,1.07670,0.83212,0.51891,A,112927.00
1.11080,57.68797592,11.98132553,57.68797767,11.98130283,11:29:27.173027,1.11080,0.00443,0.00000,0.04691,0.01934,0.00528,-0.01123,0.01623,0.10998,1.01632,1.10601,0.00000,-0.01102,0.00782,0.93275,0.43571,1.07670,0.83212,0.51891,A,112927.00
1.12126,57.68797599,11.98132536,57.68797767,11.98130283,11:29:27.183735,1.12126,0.00450,0.00000,0.04723,0.02530,-0.00709,-0.01154,0.06515,0.07290,1.01663,1.11676,0.00000,-0.01110,0.00771,0.92269,0.44403,1.07670,0.83212,0.51891,A,112927.00
1.13149,57.68797606,11.98132520,57.68797767,11.98130283,11:29:27.193709,1.13149,0.00433,0.00000,0.04731,0.02591,-0.01641,-0.00787,0.04258,0.05795,1.01888,1.12679,0.00000,-0.01118,0.00763,0.91363,0.45152,1.07670,0.83212,0.51891,A,112927.00
1.14389,57.68797612,11.98132507,57.68797767,11.98130283,11:29:27.206115,1.14389,0.00543,0.00000,0.04783,0.02744,-0.02618,-0.00894,-0.05984,0.08351,1.03913,1.13933,0.00000,-0.01126,0.00756,0.90548,0.45826,1.07670,0.83212,0.51891,A,112927.00
1.15318,57.68797618,11.98132494,57.68797767,11.98130283,11:29:27.215637,1.15318,0.00433,0.00000,0.04802,0.02881,-0.01381,-0.00619,-0.07637,0.06631,1.03535,1.14869,0.00000,-0.01133,0.00748,0.89814,0.46432,1.07670,0.83212,0.51891,A,112927.00
1.16359,57.68797622,11.98132483,57.68797767,11.98130283,11:29:27.225809,1.16359,0.00435,0.00000,0.04833,0.03278,-0.00801,-0.00573,-0.01830,0.06795,1.00766,1.15888,0.00000,-0.01141,0.00741,0.89154,0.46978,1.07670,0.83212,0.51891,A,112927.00
1.17434,57.68797627,11.98132473,57.68797767,11.98130283,11:29:27.236560,1.17434,0.00457,0.00000,0.04908,0.03294,-0.00175,-0.00176,0.05642,0.09266,0.95331,1.16941,0.00000,-0.01148,0.00733,0.88560,0.47469,1.07670,0.83212,0.51891,A,112927.00
1.19712,57.68797634,11.98132456,57.68797800,11.98130200,11:29:27.259493,1.19712,0.01696,0.00000,0.04980,0.04103,-0.01167,0.00587,0.02580,0.08217,0.91604,1.17996,0.00000,-0.01155,0.00726,0.87530,0.48282,1.19416,0.78259,0.55597,A,112927.10
1.20810,57.68797641,11.98132440,57.68797800,11.98130200,11:29:27.270329,1.20810,0.00660,0.00000,0.05101,0.04332,-0.01305,-0.00253,-0.08882,0.08583,1.00778,1.20352,0.00000,-0.01163,0.00719,0.86603,0.49014,1.19416,0.78259,0.55597,A,112927.10
1.21611,57.68797647,11.98132426,57.68797800,11.98130200,11:29:27.278331,1.21611,0.00434,0.00000,0.05156,0.04317,-0.00801,-0.00222,-0.05106,0.08815,1.03011,1.21160,0.00000,-0.01170,0.00712,0.85768,0.49672,1.19416,0.78259,0.55597,A,112927.10
1.22648,57.68797652,11.98132414,57.68797800,11.98130200,11:29:27.288697,1.22648,0.00447,0.00000,0.05186,0.03416,-0.00358,-0.00986,0.08028,0.07070,1.00619,1.22167,0.00000,-0.01177,0.00704,0.85017,0.50265,1.19416,0.78259,0.55597,A,112927.10
1.23691,57.68797657,11.98132402,57.68797800,11.98130200,11:29:27.299123,1.23691,0.00450,0.00000,0.05224,0.03324,-0.01381,-0.01032,0.04203,0.07509,1.00052,1.23239,0.00000,-0.01184,0.00697,0.84341,0.50798,1.19416,0.78259,0.55597,A,112927.10
1.24789,57.68797661,11.98132392,57.68797800,11.98130200,11:29:27.310110,1.24789,0.00449,0.00000,0.05306,0.02667,-0.01885,-0.00894,-0.04526,0.10901,0.99534,1.24335,0.00000,-0.01191,0.00690,0.83733,0.51278,1.19416,0.78259,0.55597,A,112927.10
1.25820,57.68797665,11.98132383,57.68797800,11.98130200,11:29:27.320422,1.25820,0.00442,0.00000,0.05413,0.02881,-0.01412,-0.01429,-0.10260,0.12664,1.00058,1.25343,0.00000,-0.01198,0.00684,0.83186,0.51710,1.19416,0.78259,0.55597,A,112927.10
1.26863,57.68797669,11.98132375,57.68797800,11.98130200,11:29:27.330849,1.26863,0.00446,0.78200,0.05458,0.03248,-0.00343,-0.01352,-0.06704,0.08528,0.99021,1.26413,0.07820,-0.01205,0.00677,0.82693,0.52099,1.19416,0.78259,0.55597,A,112927.10
1.27915,57.68797672,11.98132368,57.68797800,11.98130200,11:29:27.341379,1.27915,0.00459,0.78200,0.05472,0.02881,-0.00541,-0.00894,0.06216,0.06649,0.95825,1.27419,0.14858,-0.01208,0.00674,0.82308,0.52449,1.19416,0.78259,0.55597,A,112927.10
1.28927,57.68797675,11.98132363,57.68797800,11.98130200,11:29:27.351734,1.28927,0.00431,0.78200,0.05483,0.02331,-0.02694,-0.01154,0.05966,0.06826,0.96575,1.28477,0.21192,-0.01207,0.00674,0.82014,0.52764,1.19416,0.78259,0.55597,A,112927.10
1.34910,57.68797694,11.98132354,57.68797967,11.98129983,11:29:27.415687,1.34910,0.05363,0.78200,0.05505,0.01782,-0.03076,-0.00573,-0.06850,0.08021,0.98216,1.29533,0.26893,0.01999,0.03880,0.81458,0.54909,1.34637,0.65381,0.74130,A,112927.30
1.36824,57.68797711,11.98132334,57.68797967,11.98129983,11:29:27.430467,1.36824,0.00710,0.78200,0.05489,-0.00448,-0.00113,-0.01887,0.00378,0.08906,0.99704,1.36363,0.32024,0.05128,0.06981,0.80268,0.56847,1.34637,0.65381,0.74130,A,112927.30
1.38034,57.68797727,11.98132314,57.68797967,11.98129983,11:29:27.442564,1.38034,0.00659,0.78200,0.05528,-0.01227,-0.01060,-0.01978,-0.01665,0.10559,0.91329,1.37573,0.36641,0.08219,0.10055,0.79073,0.58596,1.34637,0.65381,0.74130,A,112927.30
1.38855,57.68797741,11.98132294,57.68797967,11.98129983,11:29:27.450768,1.38855,0.00441,0.78200,0.05627,-0.01486,-0.00969,-0.02116,-0.09260,0.14756,0.95044,1.38405,0.40797,0.11273,0.13094,0.77913,0.60170,1.34637,0.65381,0.74130,A,112927.30
1.39917,57.68797754,11.98132278,57.68797967,11.98129983,11:29:27.461390,1.39917,0.00464,0.78200,0.05645,-0.01196,0.00497,-0.01856,-0.15299,0.10181,1.00815,1.39432,0.44537,0.14303,0.16110,0.76968,0.61607,1.34637,0.65381,0.74130,A,112927.30
1.40924,57.68797766,11.98132264,57.68797967,11.98129983,11:29:27.471711,1.40924,0.00432,0.78200,0.05630,-0.01456,0.02651,-0.02009,-0.02989,0.07912,0.97441,1.40475,0.47903,0.17304,0.19099,0.76136,0.62912,1.34637,0.65381,0.74130,A,112927.30
1.42044,57.68797777,11.98132253,57.68797967,11.98129983,11:29:27.482665,1.42044,0.00512,0.78200,0.05605,-0.02113,0.01597,-0.02192,0.15543,0.06753,0.85412,1.41551,0.50933,0.20278,0.22063,0.75440,0.64107,1.34637,0.65381,0.74130,A,112927.30
1.43019,57.68797786,11.98132241,57.68797967,11.98129983,11:29:27.492413,1.43019,0.00441,0.78200,0.05553,-0.03243,-0.03000,-0.01749,0.10852,0.05508,0.81624,1.42543,0.53660,0.23221,0.25000,0.74777,0.65187,1.34637,0.65381,0.74130,A,112927.30
1.44050,57.68797795,11.98132232,57.68797967,11.98129983,11:29:27.502723,1.44050,0.00433,0.78200,0.05554,-0.04022,-0.05947,-0.00696,-0.08351,0.10010,0.91573,1.43600,0.56114,0.26137,0.27915,0.74235,0.66182,1.34637,0.65381,0.74130,A,112927.30
1.46343,57.68797815,11.98132233,57.68798067,11.98129967,11:29:27.525657,1.46343,0.01688,0.78200,0.05605,-0.03334,-0.04894,-0.00024,-0.22527,0.15097,1.10459,1.44622,0.58322,0.29065,0.30843,0.74279,0.68384,1.46061,0.64390,0.85249,A,112927.40
1.47268,57.68797831,11.98132223,57.68798067,11.98129967,11:29:27.534901,1.47268,0.00434,0.78200,0.05573,-0.03166,0.02284,-0.00283,0.16110,0.11145,1.06774,1.46817,0.60310,0.31922,0.33699,0.73662,0.70189,1.46061,0.64390,0.85249,A,112927.40
1.48328,57.68797846,11.98132214,57.68798067,11.98129967,11:29:27.545502,1.48328,0.00454,0.78200,0.05564,-0.03273,-0.01320,-0.01154,0.14359,0.09754,1.01425,1.47836,0.62099,0.34754,0.36531,0.73163,0.71845,1.46061,0.64390,0.85249,A,112927.40
1.49434,57.68797860,11.98132207,57.68798067,11.98129967,11:29:27.556565,1.49434,0.00515,0.78200,0.05543,-0.04190,-0.03473,-0.01887,-0.07082,0.09797,1.01888,1.48919,0.63709,0.37559,0.39336,0.72735,0.73357,1.46061,0.64390,0.85249,A,112927.40
1.50425,57.68797872,11.98132200,57.68798067,11.98129967,11:29:27.566469,1.50425,0.00465,0.78200,0.05494,-0.03930,-0.01518,-0.01963,-0.15695,0.07277,0.98088,1.49972,0.65158,0.40336,0.42113,0.72328,0.74724,1.46061,0.64390,0.85249,A,112927.40
1.51421,57.68797883,11.98132194,57.68798067,11.98129967,11:29:27.576434,1.51421,0.00440,0.78200,0.05421,-0.04694,-0.00755,-0.01795,-0.10504,0.05765,0.94184,1.50946,0.66462,0.43084,0.44861,0.71957,0.75966,1.46061,0.64390,0.85249,A,112927.40
1.52453,57.68797894,11.98132189,57.68798067,11.98129967,11:29:27.586742,1.52453,0.00431,0.78200,0.05363,-0.05885,0.00177,-0.00940,0.04740,0.07704,0.95868,1.52003,0.67636,0.45808,0.47585,0.71659,0.77115,1.46061,0.64390,0.85249,A,112927.40
1.53501,57.68797903,11.98132184,57.68798067,11.98129967,11:29:27.597230,1.53501,0.00441,0.78200,0.05359,-0.04938,-0.00633,-0.00589,0.09711,0.10724,0.98137,1.53024,0.68692,0.48505,0.50282,0.71386,0.78162,1.46061,0.64390,0.85249,A,112927.40
1.54531,57.68797912,11.98132180,57.68798067,11.98129967,11:29:27.607764,1.54531,0.00431,0.78200,0.05422,-0.04678,-0.01244,0.00343,0.02904,0.15226,0.99332,1.54081,0.69643,0.51176,0.52953,0.71146,0.79124,1.46061,0.64390,0.85249,A,112927.40
1.55754,57.68797920,11.98132177,57.68798067,11.98129967,11:29:27.619805,1.55754,0.00615,0.78200,0.05429,-0.03716,-0.01870,0.00037,-0.05240,0.10352,0.94239,1.55155,0.70499,0.53822,0.55599,0.70954,0.80020,1.46061,0.64390,0.85249,A,112927.40
1.57891,57.68797937,11.98132182,57.68798133,11.98129950,11:29:27.641133,1.57891,0.01702,0.78200,0.05381,-0.03258,-0.01427,-0.00268,-0.14006,0.06496,0.95166,1.56155,0.71269,0.56484,0.58261,0.71268,0.81948,1.57594,0.63399,0.92662,A,112927.50
1.59029,57.68797950,11.98132177,57.68798133,11.98129950,11:29:27.652512,1.59029,0.00578,0.78200,0.05246,-0.04296,-0.01076,-0.00360,0.09778,0.05295,0.95130,1.58542,0.71962,0.59079,0.60856,0.70974,0.83345,1.57594,0.63399,0.92662,A,112927.50
1.59933,57.68797960,11.98132171,57.68798133,11.98129950,11:29:27.661551,1.59933,0.00459,0.78200,0.05207,-0.04480,-0.02404,-0.00360,0.05453,0.07692,1.00162,1.59440,0.72586,0.61638,0.63415,0.70579,0.84528,1.57594,0.63399,0.92662,A,112927.50
1.60970,57.68797970,11.98132166,57.68798133,11.98129950,11:29:27.671939,1.60970,0.00456,0.78200,0.05217,-0.04938,-0.02404,-0.00192,-0.11511,0.12725,1.07927,1.60496,0.73147,0.64179,0.65956,0.70298,0.85664,1.57594,0.63399,0.92662,A,112927.50
1.61995,57.68797980,11.98132162,57.68798133,11.98129950,11:29:27.682169,1.61995,0.00442,0.78200,0.05234,-0.04128,-0.00358,-0.00360,-0.11474,0.12444,1.07012,1.61544,0.73652,0.66695,0.68472,0.70048,0.86705,1.57594,0.63399,0.92662,A,112927.50
1.63020,57.68797988,11.98132158,57.68798133,11.98129950,11:29:27.692419,1.63020,0.00439,0.78200,0.05221,-0.03533,0.00726,-0.00207,-0.04264,0.09510,1.04401,1.62544,0.74107,0.69185,0.70961,0.69803,0.87643,1.57594,0.63399,0.92662,A,112927.50
1.64050,57.68797996,11.98132154,57.68798133,11.98129950,11:29:27.702720,1.64050,0.00431,0.78200,0.05175,-0.03059,0.00467,-0.00528,0.09254,0.06801,1.00863,1.63602,0.74516,0.71651,0.73428,0.69594,0.88515,1.57594,0.63399,0.92662,A,112927.50
1.65224,57.68798003,11.98132151,57.68798133,11.98129950,11:29:27.714487,1.65224,0.00565,0.78200,0.05113,-0.04342,-0.01946,-0.00329,0.08741,0.06405,1.00266,1.64622,0.74885,0.74093,0.75869,0.69392,0.89307,1.57594,0.63399,0.92662,A,112927.50
1.66130,57.68798009,11.98132147,57.68798133,11.98129950,11:29:27.723759,1.66130,0.00431,0.78200,0.05093,-0.04968,-0.02511,0.00068,-0.12444,0.10864,1.12960,1.65680,0.75216,0.76505,0.78282,0.69148,0.89979,1.57594,0.63399,0.92662,A,112927.50
1.67179,57.68798015,11.98132144,57.68798133,11.98129950,11:29:27.734008,1.67179,0.00441,0.78200,0.05081,-0.05717,-0.00465,-0.00192,-0.18025,0.11938,1.12100,1.66727,0.75514,0.78900,0.80677,0.68989,0.90661,1.57594,0.63399,0.92662,A,112927.50
1.69496,57.68798038,11.98132143,57.68798250,11.98129867,11:29:27.757184,1.69496,0.01718,0.78200,0.05028,-0.05152,0.02147,0.00022,-0.01751,0.07393,0.99631,1.67745,0.75783,0.81321,0.83098,0.68923,0.93191,1.69187,0.58446,1.05635,A,112927.60
1.70601,57.68798053,11.98132132,57.68798250,11.98129867,11:29:27.768229,1.70601,0.00519,0.78200,0.04945,-0.06725,-0.01228,-0.00803,-0.02806,0.10693,0.85601,1.70118,0.76025,0.83669,0.85446,0.68286,0.94884,1.69187,0.58446,1.05635,A,112927.60
1.71833,57.68798067,11.98132122,57.68798250,11.98129867,11:29:27.780565,1.71833,0.00712,0.78200,0.04921,-0.06068,-0.01030,-0.00818,-0.12908,0.09065,0.89810,1.71187,0.76242,0.85992,0.87768,0.67687,0.96402,1.69187,0.58446,1.05635,A,112927.60
1.72615,57.68798078,11.98132111,57.68798250,11.98129867,11:29:27.788368,1.72615,0.00442,0.78200,0.04878,-0.07045,0.01566,-0.01520,-0.25309,0.09833,1.10929,1.72138,0.76438,0.88279,0.90056,0.67015,0.97628,1.69187,0.58446,1.05635,A,112927.60
1.73644,57.68798089,11.98132103,57.68798250,11.98129867,11:29:27.798651,1.73644,0.00432,0.78200,0.04788,-0.06938,0.06331,-0.01429,-0.06045,0.06942,1.14155,1.73194,0.76614,0.90556,0.92333,0.66520,0.98886,1.69187,0.58446,1.05635,A,112927.60
1.74693,57.68798100,11.98132095,57.68798250,11.98129867,11:29:27.809162,1.74693,0.00442,0.78200,0.04679,-0.06282,0.06224,-0.01948,0.24321,0.04233,1.01175,1.74215,0.76773,0.92809,0.94586,0.66062,1.00022,1.69187,0.58446,1.05635,A,112927.60
1.75725,57.68798109,11.98132088,57.68798250,11.98129867,11:29:27.819723,1.75725,0.00434,0.78200,0.04550,-0.07091,-0.00327,-0.01536,0.27188,0.02867,0.81801,1.75276,0.76915,0.95041,0.96818,0.65644,1.01061,1.69187,0.58446,1.05635,A,112927.60
1.76766,57.68798117,11.98132081,57.68798250,11.98129867,11:29:27.829876,1.76766,0.00435,0.78200,0.04425,-0.07458,-0.06482,-0.01536,-0.08955,0.03489,0.95343,1.76294,0.77044,0.97250,0.99027,0.65261,1.02007,1.69187,0.58446,1.05635,A,112927.60
1.77827,57.68798125,11.98132075,57.68798250,11.98129867,11:29:27.840490,1.77827,0.00449,0.78200,0.04407,-0.07427,-0.03412,-0.01291,-0.42974,0.12908,1.20091,1.77343,0.77159,0.99437,1.01214,0.64901,1.02860,1.69187,0.58446,1.05635,A,112927.60
1.78850,57.68798132,11.98132070,57.68798250,11.98129867,11:29:27.850718,1.78850,0.00433,0.78200,0.04265,-0.07504,0.03781,-0.01383,-0.23967,0.02904,1.15937,1.78401,0.77263,1.01602,1.03379,0.64566,1.03634,1.69187,0.58446,1.05635,A,112927.60
1.82229,57.68798169,11.98132055,57.68798433,11.98129633,11:29:27.884525,1.82229,0.02788,0.78200,0.04168,-0.07305,0.06545,-0.01077,0.21807,0.04947,0.97557,1.79406,0.77357,1.03844,1.05621,0.63696,1.07770,1.81930,0.44578,1.26021,A,112927.80
1.83259,57.68798190,11.98132028,57.68798433,11.98129633,11:29:27.894807,1.83259,0.00438,0.78200,0.03966,-0.05152,0.02177,-0.01139,-0.33178,0.04654,1.00077,1.82808,0.77441,1.05965,1.07742,0.62075,1.10108,1.81930,0.44578,1.26021,A,112927.80
1.84304,57.68798209,11.98132003,57.68798433,11.98129633,11:29:27.905255,1.84304,0.00443,0.78200,0.03805,-0.06419,0.04040,-0.01994,-0.11230,-0.00104,0.97106,1.83825,0.77517,1.08065,1.09842,0.60600,1.12211,1.81930,0.44578,1.26021,A,112927.80
1.85332,57.68798226,11.98131980,57.68798433,11.98129633,11:29:27.915791,1.85332,0.00432,0.78200,0.03639,-0.07122,0.02528,-0.01887,0.25193,0.00177,0.87773,1.84882,0.77585,1.10144,1.11921,0.59267,1.14118,1.81930,0.44578,1.26021,A,112927.80
1.86371,57.68798242,11.98131960,57.68798433,11.98129633,11:29:27.925923,1.86371,0.00432,0.78200,0.03540,-0.07076,-0.03137,-0.01184,0.19788,0.03928,0.91366,1.85920,0.77647,1.12203,1.13979,0.58059,1.15847,1.81930,0.44578,1.26021,A,112927.80
1.87437,57.68798256,11.98131942,57.68798433,11.98129633,11:29:27.936591,1.87437,0.00447,0.78200,0.03639,-0.06801,-0.05856,-0.00283,-0.13103,0.17330,0.99979,1.86956,0.77702,1.14241,1.16017,0.56960,1.17406,1.81930,0.44578,1.26021,A,112927.80
1.88464,57.68798268,11.98131925,57.68798433,11.98129633,11:29:27.946859,1.88464,0.00434,0.78200,0.03692,-0.04602,-0.01824,0.00007,-0.39339,0.13664,1.06616,1.88013,0.77752,1.16258,1.18035,0.55958,1.18809,1.81930,0.44578,1.26021,A,112927.80
1.89526,57.68798280,11.98131909,57.68798433,11.98129633,11:29:27.957472,1.89526,0.00457,0.78200,0.03684,-0.03472,0.03521,-0.00482,-0.22192,0.08034,1.01034,1.89032,0.77797,1.18255,1.20032,0.55047,1.20082,1.81930,0.44578,1.26021,A,112927.80
1.90605,57.68798290,11.98131896,57.68798433,11.98129633,11:29:27.968274,1.90605,0.00497,0.78200,0.03534,-0.02861,0.04621,-0.00467,0.09766,-0.01659,0.92836,1.90125,0.77837,1.20234,1.22010,0.54220,1.21243,1.81930,0.44578,1.26021,A,112927.80
1.91634,57.68798300,11.98131883,57.68798433,11.98129633,11:29:27.978565,1.91634,0.00481,0.78200,0.03423,-0.04067,-0.00297,-0.00390,0.18672,0.01299,0.93403,1.91184,0.77873,1.22191,1.23968,0.53460,1.22278,1.81930,0.44578,1.26021,A,112927.80
1.94036,57.68798326,11.98131858,57.68798533,11.98129450,11:29:28.002591,1.94036,0.01850,0.78200,0.03393,-0.04785,-0.03779,-0.00008,-0.01964,0.07430,1.01760,1.92292,0.77906,1.24188,1.25965,0.51989,1.25241,1.93765,0.33681,1.37140,A,112927.90
1.95100,57.68798342,11.98131830,57.68798533,11.98129450,11:29:28.013223,1.95100,0.00503,0.78200,0.03383,-0.02891,0.02284,0.00358,-0.17355,0.10553,1.09745,1.94620,0.77935,1.26106,1.27883,0.50342,1.27000,1.93765,0.33681,1.37140,A,112927.90
1.96257,57.68798357,11.98131805,57.68798533,11.98129450,11:29:28.024790,1.96257,0.00620,1.06806,0.03322,-0.02769,0.03032,0.00221,0.14341,0.03831,0.93074,1.95775,0.80822,1.28009,1.29786,0.48866,1.28648,1.93765,0.33681,1.37140,A,112927.90
1.97115,57.68798369,11.98131782,57.68798533,11.98129450,11:29:28.033372,1.97115,0.00440,1.06806,0.03257,-0.02846,0.00009,-0.00238,0.23540,0.02989,0.87175,1.96637,0.83421,1.29881,1.31658,0.47475,1.29952,1.93765,0.33681,1.37140,A,112927.90
1.98186,57.68798381,11.98131762,57.68798533,11.98129450,11:29:28.044086,1.98186,0.00471,1.06806,0.03277,-0.03976,-0.05275,-0.00375,-0.06600,0.09583,0.94873,1.97709,0.85759,1.31746,1.33523,0.46258,1.31298,1.93765,0.33681,1.37140,A,112927.90
1.99190,57.68798392,11.98131743,57.68798533,11.98129450,11:29:28.054121,1.99190,0.00436,1.06806,0.03289,-0.02907,-0.04451,0.00114,-0.25711,0.08967,1.01876,1.98738,0.87864,1.33591,1.35368,0.45149,1.32498,1.93765,0.33681,1.37140,A,112927.90
2.00247,57.68798402,11.98131726,57.68798533,11.98129450,11:29:28.064947,2.00247,0.00461,1.06806,0.03230,-0.02403,-0.00938,-0.00421,-0.25925,0.03806,1.06610,1.99751,0.89758,1.35419,1.37195,0.44143,1.33604,1.93765,0.33681,1.37140,A,112927.90
2.01586,57.68798411,11.98131711,57.68798533,11.98129450,11:29:28.078150,2.01586,0.00759,1.06806,0.03165,-0.03243,0.02467,-0.00573,0.00366,0.03849,0.98411,2.00819,0.91463,1.37229,1.39006,0.43231,1.34623,1.93765,0.33681,1.37140,A,112927.90
2.02416,57.68798420,11.98131697,57.68798533,11.98129450,11:29:28.086379,2.02416,0.00572,1.06806,0.03122,-0.03792,0.00177,-0.00070,0.17574,0.04752,0.90512,2.01962,0.92997,1.39029,1.39002,0.42419,1.35655,1.93765,0.33681,1.37140,A,112927.90
2.03317,57.68798427,11.98131684,57.68798533,11.98129450,11:29:28.095733,2.03317,0.00434,1.06806,0.03231,-0.03472,-0.03198,0.00114,0.03129,0.13890,0.95001,2.02867,0.94378,1.40780,1.40753,0.41653,1.36396,1.93765,0.33681,1.37140,A,112927.90
2.05623,57.68798450,11.98131657,57.68798600,11.98129267,11:29:28.118462,2.05623,0.01701,1.06806,0.03306,-0.02418,-0.03580,0.00893,-0.20862,0.12688,1.05469,2.03887,0.95621,1.42513,1.42485,0.40061,1.38999,2.05317,0.22784,1.44553,A,112928.00
2.06828,57.68798463,11.98131630,57.68798600,11.98129267,11:29:28.130500,2.06828,0.00450,1.06806,0.03144,-0.02693,0.02590,-0.00024,0.06112,-0.00994,1.00650,2.06374,0.96740,1.44228,1.44201,0.38461,1.40423,2.05317,0.22784,1.44553,A,112928.00
2.07848,57.68798473,11.98131606,57.68798600,11.98129267,11:29:28.140699,2.07848,0.00447,1.06806,0.03118,-0.03854,-0.00312,0.00419,0.20746,0.05533,0.91878,2.07368,0.97746,1.45927,1.45900,0.36983,1.41534,2.05317,0.22784,1.44553,A,112928.00
2.08873,57.68798482,11.98131583,57.68798600,11.98129267,11:29:28.150953,2.08873,0.00433,1.06806,0.03192,-0.04434,-0.04588,0.00587,0.08168,0.11523,0.86657,2.08424,0.98652,1.47609,1.47582,0.35646,1.42575,2.05317,0.22784,1.44553,A,112928.00
2.10010,57.68798491,11.98131563,57.68798600,11.98129267,11:29:28.162325,2.10010,0.00530,1.06806,0.03271,-0.04052,-0.06176,0.00694,-0.15250,0.12169,0.90951,2.09460,0.99468,1.49274,1.49247,0.34432,1.43528,2.05317,0.22784,1.44553,A,112928.00
2.10986,57.68798498,11.98131544,57.68798600,11.98129267,11:29:28.172095,2.10986,0.00466,1.06806,0.03274,-0.03823,-0.04069,-0.00085,-0.26315,0.07918,0.96234,2.10511,1.00202,1.50923,1.50896,0.33321,1.44318,2.05317,0.22784,1.44553,A,112928.00
2.12283,57.68798506,11.98131527,57.68798600,11.98129267,11:29:28.185072,2.12283,0.00723,1.06806,0.03199,-0.04602,-0.00587,-0.00131,-0.10583,0.03422,0.98265,2.11551,1.00862,1.52555,1.52527,0.32322,1.45224,2.05317,0.22784,1.44553,A,112928.00
2.13029,57.68798510,11.98131511,57.68798600,11.98129267,11:29:28.192514,2.13029,0.00446,1.06806,0.03149,-0.04602,0.01139,-0.01001,0.09559,0.04910,0.98893,2.12550,1.01457,1.54170,1.54143,0.31391,1.45644,2.05317,0.22784,1.44553,A,112928.00
2.14054,57.68798516,11.98131497,57.68798600,11.98129267,11:29:28.202757,2.14054,0.00431,1.06806,0.03129,-0.05885,-0.01305,-0.01337,0.10919,0.08125,1.01565,2.13605,1.01992,1.55770,1.55743,0.30553,1.46306,2.05317,0.22784,1.44553,A,112928.00
2.15103,57.68798521,11.98131484,57.68798600,11.98129267,11:29:28.213242,2.15103,0.00440,1.06806,0.03129,-0.05289,-0.02404,-0.01093,-0.13139,0.10077,1.14137,2.14625,1.02473,1.57353,1.57326,0.29786,1.46902,2.05317,0.22784,1.44553,A,112928.00
2.17407,57.68798543,11.98131468,57.68798667,11.98129217,11:29:28.236297,2.17407,0.01699,1.06806,0.03067,-0.04220,0.00222,-0.00726,-0.23906,0.04587,1.13759,2.15703,1.02906,1.58920,1.58893,0.28784,1.49358,2.17121,0.19812,1.51966,A,112928.10
2.18429,57.68798553,11.98131452,57.68798667,11.98129217,11:29:28.246509,2.18429,0.00434,1.06806,0.02871,-0.05625,0.01368,-0.00573,0.17062,0.00494,0.90817,2.17977,1.03296,1.60472,1.60445,0.27873,1.50397,2.17121,0.19812,1.51966,A,112928.10
2.19483,57.68798561,11.98131438,57.68798667,11.98129217,11:29:28.257052,2.19483,0.00466,1.06806,0.02860,-0.06404,-0.03702,0.00022,0.15268,0.07351,0.86644,2.18984,1.03647,1.62008,1.61981,0.27041,1.51319,2.17121,0.19812,1.51966,A,112928.10
2.20530,57.68798569,11.98131425,57.68798667,11.98129217,11:29:28.267821,2.20530,0.00473,1.06806,0.02952,-0.05839,-0.05565,0.00954,-0.06740,0.14219,0.93196,2.20055,1.03963,1.63529,1.63502,0.26279,1.52187,2.17121,0.19812,1.51966,A,112928.10
2.21533,57.68798575,11.98131414,57.68798667,11.98129217,11:29:28.277553,2.21533,0.00438,1.06806,0.03015,-0.04632,-0.03809,0.01198,-0.19508,0.12023,0.97234,2.21059,1.04248,1.65035,1.65008,0.25584,1.52910,2.17121,0.19812,1.51966,A,112928.10
2.22758,57.68798583,11.98131403,57.68798667,11.98129217,11:29:28.289809,2.22758,0.00541,1.06806,0.02958,-0.04526,-0.01030,0.00511,-0.12523,0.04807,0.96813,2.22282,1.04503,1.66526,1.66499,0.24930,1.53786,2.17121,0.19812,1.51966,A,112928.10
2.23689,57.68798588,11.98131393,57.68798667,11.98129217,11:29:28.299112,2.23689,0.00433,1.06806,0.02872,-0.04678,-0.00129,-0.00238,0.08760,0.02159,0.95947,2.23240,1.04734,1.68002,1.67975,0.24352,1.54307,2.17121,0.19812,1.51966,A,112928.10
2.24733,57.68798593,11.98131384,57.68798667,11.98129217,11:29:28.309552,2.24733,0.00438,1.06806,0.02784,-0.05625,-0.02603,-0.00940,0.10657,0.02849,0.99210,2.24258,1.04941,1.69463,1.69436,0.23812,1.54858,2.17121,0.19812,1.51966,A,112928.10
2.25818,57.68798597,11.98131376,57.68798667,11.98129217,11:29:28.320407,2.25818,0.00462,1.06806,0.02747,-0.05931,-0.04328,-0.01139,-0.05490,0.06997,1.06823,2.25323,1.05128,1.70909,1.70882,0.23312,1.55374,2.17121,0.19812,1.51966,A,112928.10
2.26925,57.68798602,11.98131368,57.68798667,11.98129217,11:29:28.331739,2.26925,0.00529,1.06806,0.02663,-0.04816,-0.02404,-0.00879,-0.23881,0.03190,1.11209,2.26471,1.05295,1.72341,1.72314,0.22842,1.55898,2.17121,0.19812,1.51966,A,112928.10
2.30786,57.68798630,11.98131348,57.68798817,11.98129117,11:29:28.370152,2.30786,0.03367,1.06806,0.02602,-0.05075,0.01154,-0.01108,-0.15219,0.03989,1.05390,2.27386,1.05447,1.73758,1.73731,0.21659,1.59034,2.28817,0.13869,1.68646,A,112928.20
2.33611,57.68798664,11.98131327,57.68798817,11.98129117,11:29:28.398342,2.33611,0.00715,1.06806,0.02413,-0.02846,-0.01045,0.01381,-0.07326,0.02348,0.95239,2.32943,1.05583,1.75160,1.75132,0.20406,1.62814,2.28817,0.13869,1.68646,A,112928.20
2.34370,57.68798674,11.98131314,57.68798817,11.98129117,11:29:28.405916,2.34370,0.00435,1.06806,0.02346,-0.02922,-0.00495,0.00969,0.03684,0.01861,0.97447,2.33918,1.05705,1.76549,1.76522,0.19654,1.63937,2.28817,0.13869,1.68646,A,112928.20
2.35418,57.68798686,11.98131302,57.68798817,11.98129117,11:29:28.416402,2.35418,0.00440,1.06806,0.02358,-0.03273,-0.02755,0.00297,0.06991,0.07960,1.06848,2.34942,1.05815,1.77925,1.77898,0.18921,1.65193,2.28817,0.13869,1.68646,A,112928.20
2.36450,57.68798696,11.98131290,57.68798817,11.98129117,11:29:28.426717,2.36450,0.00433,1.06806,0.02335,-0.02998,-0.04756,-0.00329,0.02233,0.05716,1.14357,2.36000,1.05914,1.79287,1.79260,0.18248,1.66330,2.28817,0.13869,1.68646,A,112928.20
2.37498,57.68798705,11.98131280,57.68798817,11.98129117,11:29:28.437201,2.37498,0.00442,1.06806,0.02293,-0.02907,-0.06024,-0.00131,-0.08863,0.03983,1.11807,2.37020,1.06003,1.80635,1.80608,0.17634,1.67342,2.28817,0.13869,1.68646,A,112928.20
2.38864,57.68798716,11.98131269,57.68798817,11.98129117,11:29:28.450868,2.38864,0.00605,1.06806,0.02212,-0.03655,-0.03733,0.00129,-0.12908,0.02318,0.99430,2.38411,1.06084,1.81970,1.81942,0.16994,1.68570,2.28817,0.13869,1.68646,A,112928.20
2.42426,57.68798759,11.98131242,57.68798967,11.98129033,11:29:28.486482,2.42426,0.03127,1.06806,0.02220,-0.03686,-0.01610,0.00419,-0.06381,0.06112,0.87791,2.39282,1.06156,1.83289,1.83262,0.15391,1.73381,2.42154,0.08916,1.85325,A,112928.40
2.44065,57.68798782,11.98131225,57.68798967,11.98129033,11:29:28.502873,2.44065,0.00599,1.06806,0.02092,-0.00815,0.00222,-0.00512,-0.07893,-0.02037,1.09129,2.43611,1.06221,1.84596,1.84572,0.14383,1.75917,2.42154,0.08916,1.85325,A,112928.40
2.44963,57.68798796,11.98131213,57.68798967,11.98129033,11:29:28.511868,2.44963,0.00458,1.06806,0.01996,-0.01166,-0.00113,-0.00268,0.01665,-0.01806,1.15601,2.44489,1.06280,1.85892,1.85871,0.13657,1.77495,2.42154,0.08916,1.85325,A,112928.40
2.45988,57.68798810,11.98131201,57.68798967,11.98129033,11:29:28.522095,2.45988,0.00443,1.06806,0.01965,-0.01441,-0.00938,-0.00589,0.07655,0.03538,1.16010,2.45535,1.06332,1.87174,1.87161,0.12948,1.79072,2.42154,0.08916,1.85325,A,112928.40
2.47037,57.68798823,11.98131190,57.68798967,11.98129033,11:29:28.532599,2.47037,0.00459,1.06806,0.01994,-0.01105,-0.01732,0.00175,0.03300,0.07149,1.06170,2.46545,1.06380,1.88444,1.88443,0.12310,1.80452,2.42154,0.08916,1.85325,A,112928.40
2.48076,57.68798834,11.98131180,57.68798967,11.98129033,11:29:28.542979,2.48076,0.00458,1.06806,0.02040,0.00239,-0.01824,0.01473,-0.12127,0.07039,1.00821,2.47626,1.06422,1.89701,1.89716,0.11717,1.81721,2.42154,0.08916,1.85325,A,112928.40
2.49100,57.68798844,11.98131172,57.68798967,11.98129033,11:29:28.553220,2.49100,0.00457,1.06806,0.02052,0.01369,-0.00602,0.01809,-0.15720,0.03959,0.96343,2.48618,1.06461,1.90946,1.90976,0.11188,1.82816,2.42154,0.08916,1.85325,A,112928.40
2.50118,57.68798853,11.98131163,57.68798967,11.98129033,11:29:28.563628,2.50118,0.00435,1.06806,0.02040,0.01369,-0.00144,0.00847,-0.04563,0.02220,0.92159,2.49667,1.06495,1.92178,1.92219,0.10695,1.83822,2.42154,0.08916,1.85325,A,112928.40
2.51157,57.68798861,11.98131156,57.68798967,11.98129033,11:29:28.573792,2.51157,0.00434,1.06806,0.02058,0.00835,-0.01320,0.01244,0.07723,0.04355,0.90737,2.50687,1.06526,1.93399,1.93444,0.10234,1.84744,2.42154,0.08916,1.85325,A,112928.40
2.52242,57.68798869,11.98131148,57.68798967,11.98129033,11:29:28.584645,2.52242,0.00466,1.06806,0.02047,-0.00387,-0.04176,0.00587,0.07826,0.03508,0.95227,2.51741,1.06554,1.94607,1.94652,0.09811,1.85567,2.42154,0.08916,1.85325,A,112928.40
2.54493,57.68798894,11.98131125,57.68799050,11.98128933,11:29:28.607155,2.54493,0.01678,1.06806,0.02067,0.00132,-0.04191,0.00190,-0.07405,0.05642,1.03663,2.52798,1.06580,1.95805,1.95850,0.08396,1.88323,2.54225,0.02972,1.94591,A,112928.50
2.56233,57.68798911,11.98131106,57.68799050,11.98128933,11:29:28.624551,2.56233,0.00657,1.06806,0.02092,0.01430,0.01826,-0.01841,0.01659,0.03074,0.99833,2.55749,1.06602,1.96991,1.97036,0.07300,1.90305,2.54225,0.02972,1.94591,A,112928.50
2.57054,57.68798920,11.98131095,57.68799050,11.98128933,11:29:28.632762,2.57054,0.00456,1.06806,0.02022,0.02148,0.00528,-0.01520,0.08815,-0.01592,0.97765,2.56565,1.06623,1.98163,1.98208,0.06643,1.91265,2.54225,0.02972,1.94591,A,112928.50
2.58422,57.68798932,11.98131081,57.68799050,11.98128933,11:29:28.646451,2.58422,0.00656,1.06806,0.01909,0.01033,-0.02190,-0.00680,0.01092,-0.04203,0.97935,2.57965,1.06641,1.99324,1.99369,0.05822,1.92637,2.54225,0.02972,1.94591,A,112928.50
2.59653,57.68798942,11.98131070,57.68799050,11.98128933,11:29:28.658760,2.59653,0.00683,1.06806,0.01886,0.00820,-0.03168,-0.00070,-0.07168,0.01800,0.99290,2.59153,1.06658,2.00474,2.00519,0.05142,1.93711,2.54225,0.02972,1.94591,A,112928.50
2.60496,57.68798948,11.98131062,57.68799050,11.98128933,11:29:28.667184,2.60496,0.00486,1.06806,0.01961,0.01339,-0.01854,0.00862,-0.10492,0.08211,0.99180,2.59995,1.06673,2.01611,2.01656,0.04679,1.94330,2.54225,0.02972,1.94591,A,112928.50
2.61539,57.68798954,11.98131053,57.68799050,11.98128933,11:29:28.677601,2.61539,0.00490,1.06806,0.02080,0.02118,-0.00953,0.01183,-0.01055,0.10022,0.94867,2.61059,1.06686,2.02737,2.02782,0.04163,1.95078,2.54225,0.02972,1.94591,A,112928.50
2.62528,57.68798960,11.98131046,57.68799050,11.98128933,11:29:28.687746,2.62528,0.00440,1.10363,0.02204,0.02927,-0.01671,0.01213,0.06911,0.10163,0.96130,2.62079,1.07054,2.03852,2.03897,0.03701,1.95727,2.54225,0.02972,1.94591,A,112928.50
2.63562,57.68798966,11.98131038,57.68799050,11.98128933,11:29:28.697841,2.63562,0.00435,1.10363,0.02272,0.02576,-0.02817,0.01045,0.03697,0.07058,0.98991,2.63091,1.07385,2.04956,2.05001,0.03258,1.96346,2.54225,0.02972,1.94591,A,112928.50
2.65905,57.68798989,11.98131012,57.68799133,11.98128833,11:29:28.721277,2.65905,0.01726,1.10363,0.02294,0.02698,-0.03244,0.00358,-0.08217,0.04258,1.05981,2.64143,1.07682,2.06051,2.06096,0.01696,1.98903,2.65571,-0.02972,2.03857,A,112928.60
2.66886,57.68798999,11.98130998,57.68799133,11.98128833,11:29:28.731075,2.66886,0.00439,1.10363,0.02255,-0.00020,-0.01396,-0.02162,-0.00061,0.01848,0.99113,2.66434,1.07950,2.07133,2.07178,0.00864,2.00082,2.65571,-0.02972,2.03857,A,112928.60
2.68158,57.68799009,11.98130985,57.68799133,11.98128833,11:29:28.743824,2.68158,0.00671,1.10363,0.02259,-0.00845,-0.02129,-0.02452,0.06118,0.05167,0.99369,2.67451,1.08192,2.08204,2.08249,0.00092,2.01170,2.65571,-0.02972,2.03857,A,112928.60
2.68990,57.68799016,11.98130975,57.68799133,11.98128833,11:29:28.752127,2.68990,0.00463,1.10363,0.02299,-0.00402,-0.03870,-0.02284,-0.02489,0.07448,1.01827,2.68508,1.08409,2.09264,2.09309,-0.00520,2.01983,2.65571,-0.02972,2.03857,A,112928.60
2.69998,57.68799024,11.98130964,57.68799133,11.98128833,11:29:28.762195,2.69998,0.00431,1.10363,0.02319,-0.00677,-0.02588,-0.02482,-0.06966,0.06478,1.03669,2.69548,1.08604,2.10313,2.10358,-0.01169,2.02871,2.65571,-0.02972,2.03857,A,112928.60
2.71038,57.68799032,11.98130954,57.68799133,11.98128833,11:29:28.772597,2.71038,0.00447,1.10363,0.02304,0.00331,-0.01488,-0.01749,-0.06094,0.03215,1.00223,2.70558,1.08780,2.11353,2.11398,-0.01760,2.03667,2.65571,-0.02972,2.03857,A,112928.60
2.72061,57.68799038,11.98130945,57.68799133,11.98128833,11:29:28.782826,2.72061,0.00432,1.10363,0.02319,-0.00509,-0.00770,-0.02040,0.00982,0.05655,0.97210,2.71612,1.08938,2.12382,2.12427,-0.02308,2.04393,2.65571,-0.02972,2.03857,A,112928.60
2.73117,57.68799044,11.98130936,57.68799133,11.98128833,11:29:28.793390,2.73117,0.00448,1.10363,0.02354,0.00086,-0.01320,-0.01154,0.02043,0.06356,0.95014,2.72633,1.09081,2.13400,2.13445,-0.02807,2.05040,2.65571,-0.02972,2.03857,A,112928.60
2.74160,57.68799049,11.98130928,57.68799133,11.98128833,11:29:28.803835,2.74160,0.00452,1.10363,0.02362,0.00071,-0.02725,-0.00955,0.02623,0.04904,0.99076,2.73689,1.09209,2.14409,2.14454,-0.03265,2.05620,2.65571,-0.02972,2.03857,A,112928.60
2.75180,57.68799054,11.98130921,57.68799133,11.98128833,11:29:28.814022,2.75180,0.00433,1.10363,0.02315,-0.00234,-0.04130,-0.00909,0.00531,0.01543,1.00388,2.74731,1.09324,2.15407,2.15451,-0.03696,2.06155,2.65571,-0.02972,2.03857,A,112928.60
2.77681,57.68799079,11.98130891,57.68799233,11.98128733,11:29:28.839025,2.77681,0.01902,1.10363,0.02257,-0.00906,-0.04649,-0.00680,-0.01781,0.01135,0.99991,2.75743,1.09428,2.16397,2.16438,-0.05477,2.08945,2.77356,-0.08916,2.14977,A,112928.70
2.79106,57.68799092,11.98130876,57.68799233,11.98128733,11:29:28.853301,2.79106,0.00699,1.10363,0.02310,-0.02372,-0.02542,-0.01276,-0.07412,0.12218,1.00223,2.78460,1.09522,2.17376,2.17387,-0.06399,2.10404,2.77356,-0.08916,2.14977,A,112928.70
2.79891,57.68799101,11.98130866,57.68799233,11.98128733,11:29:28.861130,2.79891,0.00444,1.10363,0.02363,-0.01074,-0.00373,-0.01765,-0.07936,0.09040,1.04530,2.79410,1.09606,2.18344,2.18338,-0.06971,2.11327,2.77356,-0.08916,2.14977,A,112928.70
2.80963,57.68799110,11.98130855,57.68799233,11.98128733,11:29:28.871865,2.80963,0.00457,1.10363,0.02299,-0.00341,0.00421,-0.01902,-0.03934,0.00500,1.11166,2.80488,1.09682,2.19302,2.19279,-0.07657,2.12391,2.77356,-0.08916,2.14977,A,112928.70
2.81981,57.68799119,11.98130844,57.68799233,11.98128733,11:29:28.882023,2.81981,0.00435,1.10363,0.02139,-0.01196,0.00390,-0.01780,0.04148,-0.05838,1.06762,2.81529,1.09750,2.20250,2.20216,-0.08277,2.13339,2.77356,-0.08916,2.14977,A,112928.70
2.83037,57.68799126,11.98130835,57.68799233,11.98128733,11:29:28.892594,2.83037,0.00446,1.10363,0.02011,-0.02388,-0.01686,-0.01978,0.09571,-0.02525,0.94129,2.82557,1.09811,2.21189,2.21150,-0.08833,2.14176,2.77356,-0.08916,2.14977,A,112928.70
2.84063,57.68799133,11.98130826,57.68799233,11.98128733,11:29:28.902853,2.84063,0.00433,1.10363,0.02004,-0.03533,-0.02725,-0.01001,-0.04904,0.05453,0.89646,2.83613,1.09866,2.22118,2.22079,-0.09341,2.14926,2.77356,-0.08916,2.14977,A,112928.70
2.85109,57.68799139,11.98130818,57.68799233,11.98128733,11:29:28.913314,2.85109,0.00440,1.10363,0.02115,-0.03579,-0.01916,0.00083,-0.10583,0.12822,0.91659,2.84633,1.09916,2.23037,2.22998,-0.09800,2.15590,2.77356,-0.08916,2.14977,A,112928.70
2.86164,57.68799144,11.98130811,57.68799233,11.98128733,11:29:28.923872,2.86164,0.00455,1.10363,0.02222,-0.01716,0.00528,-0.00299,-0.11639,0.12237,0.97356,2.85691,1.09961,2.23948,2.23909,-0.10227,2.16194,2.77356,-0.08916,2.14977,A,112928.70
2.87183,57.68799149,11.98130805,57.68799233,11.98128733,11:29:28.934049,2.87183,0.00435,1.10363,0.02222,-0.00723,0.01078,-0.00848,0.04721,0.04715,0.98234,2.86731,1.10001,2.24849,2.24810,-0.10623,2.16741,2.77356,-0.08916,2.14977,A,112928.70
2.89526,57.68799169,11.98130775,57.68799300,11.98128633,11:29:28.957483,2.89526,0.01747,1.10363,0.02164,-0.01624,-0.00953,-0.01261,0.11810,0.01519,1.00339,2.87744,1.10037,2.25740,2.25701,-0.12368,2.18949,2.89218,-0.14859,2.22390,A,112928.80
2.90573,57.68799178,11.98130762,57.68799300,11.98128633,11:29:28.967961,2.90573,0.00505,1.10363,0.02119,-0.02189,-0.01518,-0.00803,-0.09363,0.04990,1.07012,2.90069,1.10070,2.26623,2.26584,-0.13128,2.19916,2.89218,-0.14859,2.22390,A,112928.80
2.91544,57.68799185,11.98130751,57.68799300,11.98128633,11:29:28.977658,2.91544,0.00437,1.10363,0.02125,-0.01975,-0.00022,-0.00894,-0.10120,0.05972,1.02029,2.91071,1.10099,2.27498,2.27459,-0.13789,2.20749,2.89218,-0.14859,2.22390,A,112928.80
2.92605,57.68799193,11.98130740,57.68799300,11.98128633,11:29:28.988266,2.92605,0.00443,1.10363,0.02161,-0.00753,-0.00572,-0.00741,0.02098,0.07033,0.97850,2.92128,1.10125,2.28364,2.28325,-0.14444,2.21558,2.89218,-0.14859,2.22390,A,112928.80
2.93650,57.68799199,11.98130730,57.68799300,11.98128633,11:29:28.998715,2.93650,0.00448,1.10363,0.02184,-0.01318,-0.01870,-0.00375,0.01055,0.06582,0.98234,2.93197,1.10149,2.29221,2.29182,-0.15043,2.22287,2.89218,-0.14859,2.22390,A,112928.80
2.94683,57.68799205,11.98130722,57.68799300,11.98128633,11:29:29.009048,2.94683,0.00442,1.10363,0.02196,-0.00509,-0.03519,0.00037,0.00232,0.05234,0.96795,2.94203,1.10170,2.30070,2.30031,-0.15562,2.22909,2.89218,-0.14859,2.22390,A,112928.80
2.95712,57.68799210,11.98130713,57.68799300,11.98128633,11:29:29.019572,2.95712,0.00432,1.10363,0.02181,-0.00677,-0.03489,0.00373,-0.05850,0.03697,0.97161,2.95263,1.10190,2.30910,2.30871,-0.16053,2.23485,2.89218,-0.14859,2.22390,A,112928.80
2.96755,57.68799215,11.98130706,57.68799300,11.98128633,11:29:29.029767,2.96755,0.00435,1.10363,0.02249,-0.00265,-0.02374,0.01274,-0.10626,0.08833,0.98216,2.96282,1.10207,2.31742,2.31706,-0.16506,2.24005,2.89218,-0.14859,2.22390,A,112928.80
2.97813,57.68799219,11.98130699,57.68799300,11.98128633,11:29:29.040357,2.97813,0.00442,1.10363,0.02276,0.00728,-0.00877,0.02221,-0.09626,0.05533,0.98009,2.97335,1.10223,2.32565,2.32546,-0.16913,2.24462,2.89218,-0.14859,2.22390,A,112928.80
2.99090,57.68799223,11.98130691,57.68799300,11.98128633,11:29:29.053131,2.99090,0.00680,1.10363,0.02292,0.01476,-0.01335,0.03183,0.01397,0.04154,0.96569,2.98531,1.10237,2.33381,2.33402,-0.17380,2.24969,2.89218,-0.14859,2.22390,A,112928.80
3.02264,57.68799257,11.98130646,57.68799467,11.98128483,11:29:29.084873,3.02264,0.02815,1.10363,0.02328,0.01324,-0.01809,0.03397,-0.04685,0.06167,1.02199,2.99413,1.10249,2.34191,2.34262,-0.20050,2.28688,3.01956,-0.23775,2.40922,A,112929.00
3.03280,57.68799273,11.98130630,57.68799467,11.98128483,11:29:29.095017,3.03280,0.00438,1.10363,0.02322,0.00239,0.00452,0.01580,-0.00268,0.03392,0.93635,3.02829,1.10261,2.34992,2.35305,-0.21000,2.30505,3.01956,-0.23775,2.40922,A,112929.00
3.04353,57.68799288,11.98130615,57.68799467,11.98128483,11:29:29.105752,3.04353,0.00449,1.10363,0.02312,0.00224,-0.00312,0.00786,-0.04569,0.03733,0.99168,3.03877,1.10271,2.35789,2.36173,-0.21898,2.32170,3.01956,-0.23775,2.40922,A,112929.00
3.05407,57.68799301,11.98130602,57.68799467,11.98128483,11:29:29.116288,3.05407,0.00448,1.10363,0.02382,0.00086,0.00207,0.00786,-0.15323,0.10004,1.09141,3.04923,1.10280,2.36580,2.37030,-0.22677,2.33630,3.01956,-0.23775,2.40922,A,112929.00
3.06432,57.68799313,11.98130590,57.68799467,11.98128483,11:29:29.126537,3.06432,0.00433,1.10363,0.02408,0.00865,0.02070,0.01397,-0.01452,0.06045,1.03334,3.05982,1.10288,2.37364,2.37873,-0.23387,2.34944,3.01956,-0.23775,2.40922,A,112929.00
3.07485,57.68799323,11.98130579,57.68799467,11.98128483,11:29:29.137076,3.07485,0.00464,1.10363,0.02354,0.01201,0.00849,0.02099,0.05276,0.00268,0.99936,3.06989,1.10296,2.38142,2.38703,-0.24019,2.36108,3.01956,-0.23775,2.40922,A,112929.00
3.08494,57.68799333,11.98130570,57.68799467,11.98128483,11:29:29.147155,3.08494,0.00433,1.10363,0.02301,0.00316,-0.00679,0.03183,0.00616,0.00878,0.93830,3.08045,1.10303,2.38912,2.39522,-0.24594,2.37153,3.01956,-0.23775,2.40922,A,112929.00
3.09640,57.68799342,11.98130559,57.68799467,11.98128483,11:29:29.158621,3.09640,0.00548,1.10363,0.02340,-0.00463,-0.01885,0.02878,-0.11413,0.07704,1.00924,3.09187,1.10309,2.39678,2.40329,-0.25213,2.38179,3.01956,-0.23775,2.40922,A,112929.00
3.10632,57.68799349,11.98130552,57.68799467,11.98128483,11:29:29.168543,3.10632,0.00500,1.10363,0.02438,-0.00738,-0.00755,0.03611,-0.14756,0.11919,1.01565,3.10129,1.10314,2.40433,2.41111,-0.25626,2.38960,3.01956,-0.23775,2.40922,A,112929.00
3.11605,57.68799356,11.98130545,57.68799467,11.98128483,11:29:29.178263,3.11605,0.00433,1.10363,0.02507,0.00499,0.00589,0.03901,-0.03562,0.08558,0.94605,3.11154,1.10319,2.41182,2.41880,-0.26027,2.39681,3.01956,-0.23775,2.40922,A,112929.00
3.13920,57.68799382,11.98130512,57.68799600,11.98128367,11:29:29.201429,3.13920,0.01725,1.10363,0.02496,0.00621,0.00696,0.03412,0.05978,0.03349,0.88749,3.12163,1.10323,2.41954,2.42664,-0.28041,2.42651,3.13585,-0.30709,2.55748,A,112929.10
3.14905,57.68799399,11.98130497,57.68799600,11.98128367,11:29:29.211526,3.14905,0.00440,1.10363,0.02472,-0.01654,-0.00831,0.02496,-0.15494,0.05966,1.03688,3.14453,1.10327,2.42688,2.43402,-0.28910,2.44484,3.13585,-0.30709,2.55748,A,112929.10
3.15943,57.68799414,11.98130483,57.68799600,11.98128367,11:29:29.221648,3.15943,0.00438,1.10363,0.02501,-0.01303,0.00894,0.02130,-0.13316,0.08137,1.06524,3.15469,1.10331,2.43416,2.44130,-0.29718,2.46147,3.13585,-0.30709,2.55748,A,112929.10
3.17004,57.68799427,11.98130471,57.68799600,11.98128367,11:29:29.232267,3.17004,0.00444,1.10363,0.02456,-0.01135,0.01918,0.01503,-0.04697,0.02800,1.05987,3.16526,1.10334,2.44137,2.44851,-0.30464,2.47652,3.13585,-0.30709,2.55748,A,112929.10
3.18048,57.68799439,11.98130459,57.68799600,11.98128367,11:29:29.242699,3.18048,0.00449,1.10363,0.02389,-0.01441,0.01322,0.01656,0.09119,0.01360,1.00479,3.17596,1.10337,2.44851,2.45565,-0.31146,2.49008,3.13585,-0.30709,2.55748,A,112929.10
3.19190,57.68799450,11.98130450,57.68799600,11.98128367,11:29:29.254477,3.19190,0.00568,1.10363,0.02362,-0.02372,-0.00801,0.02221,-0.00360,0.04642,1.03072,3.18589,1.10340,2.45556,2.46270,-0.31725,2.50192,3.13585,-0.30709,2.55748,A,112929.10
3.20096,57.68799459,11.98130442,57.68799600,11.98128367,11:29:29.263172,3.20096,0.00434,1.10363,0.02401,-0.01960,-0.00007,0.02511,-0.10004,0.08900,1.02492,3.19646,1.10342,2.46253,2.46967,-0.32184,2.51200,3.13585,-0.30709,2.55748,A,112929.10
3.21146,57.68799468,11.98130433,57.68799600,11.98128367,11:29:29.273683,3.21146,0.00445,1.10363,0.02431,-0.01945,0.00818,0.02847,-0.16873,0.08204,1.01949,3.20665,1.10344,2.46945,2.47659,-0.32688,2.52173,3.13585,-0.30709,2.55748,A,112929.10
3.22197,57.68799476,11.98130426,57.68799600,11.98128367,11:29:29.284194,3.22197,0.00440,1.10363,0.02431,-0.01135,0.03399,0.02985,-0.02129,0.05411,0.96093,3.21721,1.10346,2.47631,2.48344,-0.33149,2.53047,3.13585,-0.30709,2.55748,A,112929.10
3.23242,57.68799483,11.98130418,57.68799600,11.98128367,11:29:29.294642,3.23242,0.00446,1.10363,0.02377,-0.01380,0.01307,0.03611,0.05380,0.02062,0.95233,3.22792,1.10348,2.48310,2.49023,-0.33584,2.53842,3.13585,-0.30709,2.55748,A,112929.10
3.25708,57.68799504,11.98130385,57.68799683,11.98128267,11:29:29.319796,3.25708,0.01889,1.10363,0.02333,-0.01990,0.00085,0.02832,-0.00458,0.03001,0.96471,3.23786,1.10349,2.49012,2.49726,-0.35568,2.56238,3.25256,-0.36653,2.65015,A,112929.20
3.27754,57.68799521,11.98130362,57.68799683,11.98128267,11:29:29.339801,3.27754,0.00810,1.16535,0.02322,-0.00570,0.00436,0.01641,-0.01409,0.04819,0.92610,3.26991,1.10968,2.49695,2.50409,-0.36935,2.58061,3.25256,-0.36653,2.65015,A,112929.20
3.28397,57.68799530,11.98130356,57.68799683,11.98128267,11:29:29.346183,3.28397,0.00434,1.16535,0.02285,-0.01441,-0.01183,0.01229,-0.01684,0.03129,1.00369,3.27946,1.11524,2.50344,2.51058,-0.37294,2.59043,3.25256,-0.36653,2.65015,A,112929.20
3.29619,57.68799541,11.98130343,57.68799683,11.98128267,11:29:29.358411,3.29619,0.00631,1.16535,0.02223,-0.01318,-0.01030,0.01351,-0.04612,0.01751,1.10593,3.29164,1.12025,2.51001,2.51715,-0.38070,2.60254,3.25256,-0.36653,2.65015,A,112929.20
3.30481,57.68799548,11.98130336,57.68799683,11.98128267,11:29:29.367028,3.30481,0.00469,1.16535,0.02213,-0.01471,-0.00052,0.02313,-0.06338,0.05051,1.05914,3.30028,1.12476,2.51642,2.52356,-0.38483,2.61130,3.25256,-0.36653,2.65015,A,112929.20
3.31494,57.68799556,11.98130328,57.68799683,11.98128267,11:29:29.377163,3.31494,0.00443,1.16535,0.02188,-0.00753,0.00238,0.02221,-0.04087,0.03440,0.99643,3.31014,1.12882,2.52280,2.52994,-0.38962,2.61989,3.25256,-0.36653,2.65015,A,112929.20
3.32522,57.68799563,11.98130320,57.68799683,11.98128267,11:29:29.387847,3.32522,0.00432,1.16535,0.02191,-0.00448,-0.01595,0.03000,-0.08906,0.05051,0.98985,3.32074,1.13248,2.52913,2.53626,-0.39437,2.62787,3.25256,-0.36653,2.65015,A,112929.20
3.33564,57.68799570,11.98130312,57.68799683,11.98128267,11:29:29.397859,3.33564,0.00434,1.16535,0.02169,0.00041,-0.00984,0.02924,-0.12651,0.03080,1.00723,3.33093,1.13576,2.53539,2.54253,-0.39880,2.63508,3.25256,-0.36653,2.65015,A,112929.20
3.34620,57.68799576,11.98130306,57.68799683,11.98128267,11:29:29.408429,3.34620,0.00442,1.16535,0.02206,0.00590,0.00238,0.02725,-0.05765,0.06832,1.02596,3.34144,1.13872,2.54160,2.54873,-0.40273,2.64148,3.25256,-0.36653,2.65015,A,112929.20
3.36899,57.68799595,11.98130272,57.68799767,11.98128167,11:29:29.431212,3.36899,0.01681,1.16535,0.02258,0.00193,0.01230,0.02634,-0.02836,0.08040,1.01742,3.35200,1.14138,2.54805,2.55519,-0.42295,2.66367,3.36630,-0.42597,2.74281,A,112929.30
3.38339,57.68799609,11.98130254,57.68799767,11.98128167,11:29:29.445619,3.38339,0.00655,1.16535,0.02411,0.02499,0.00849,0.02481,-0.09900,0.10461,0.99595,3.37857,1.14378,2.55422,2.56136,-0.43378,2.67858,3.36630,-0.42597,2.74281,A,112929.30
3.39159,57.68799618,11.98130246,57.68799767,11.98128167,11:29:29.453810,3.39159,0.00436,1.16535,0.02400,0.03294,0.01093,0.02404,-0.08632,0.02202,0.96014,3.38687,1.14594,2.56019,2.56734,-0.43847,2.68859,3.36630,-0.42597,2.74281,A,112929.30
3.40217,57.68799627,11.98130235,57.68799767,11.98128167,11:29:29.464573,3.40217,0.00443,1.16535,0.02390,0.03263,0.00635,0.02634,0.01543,0.01787,0.94812,3.39741,1.14788,2.56614,2.57336,-0.44459,2.69878,3.36630,-0.42597,2.74281,A,112929.30
3.41246,57.68799635,11.98130226,57.68799767,11.98128167,11:29:29.474683,3.41246,0.00431,1.16535,0.02385,0.02958,-0.01427,0.02847,0.03873,0.02330,0.94459,3.40796,1.14963,2.57204,2.57938,-0.45011,2.70790,3.36630,-0.42597,2.74281,A,112929.30
3.42303,57.68799643,11.98130218,57.68799767,11.98128167,11:29:29.485249,3.42303,0.00449,1.16535,0.02447,0.02652,-0.03259,0.03076,-0.01555,0.07143,1.00558,3.41817,1.15120,2.57788,2.58536,-0.45504,2.71601,3.36630,-0.42597,2.74281,A,112929.30
3.43327,57.68799649,11.98130210,57.68799767,11.98128167,11:29:29.495810,3.43327,0.00433,1.16535,0.02514,0.03477,-0.02389,0.03214,-0.06716,0.07222,1.04487,3.42878,1.15261,2.58367,2.59128,-0.45956,2.72331,3.36630,-0.42597,2.74281,A,112929.30
3.44366,57.68799655,11.98130203,57.68799767,11.98128167,11:29:29.505879,3.44366,0.00433,1.16535,0.02545,0.04454,-0.02328,0.02695,-0.05453,0.03898,0.98222,3.43916,1.15389,2.58940,2.59711,-0.46379,2.72992,3.36630,-0.42597,2.74281,A,112929.30
3.45420,57.68799660,11.98130197,57.68799767,11.98128167,11:29:29.516426,3.45420,0.00442,1.16535,0.02566,0.04072,-0.02358,0.03107,-0.05051,0.03526,0.96295,3.44943,1.15503,2.59508,2.60283,-0.46751,2.73575,3.36630,-0.42597,2.74281,A,112929.30
3.46450,57.68799665,11.98130191,57.68799767,11.98128167,11:29:29.526720,3.46450,0.00433,1.16535,0.02585,0.03675,-0.02862,0.02893,-0.10773,0.03709,1.01754,3.46000,1.15606,2.60070,2.60845,-0.47093,2.74098,3.36630,-0.42597,2.74281,A,112929.30
3.48781,57.68799684,11.98130158,57.68799850,11.98128083,11:29:29.550038,3.48781,0.01725,1.16535,0.02628,0.04592,-0.01610,0.02603,-0.12700,0.05215,1.09220,3.47020,1.15699,2.60663,2.61438,-0.49071,2.76183,3.48495,-0.47550,2.83547,A,112929.40
3.49849,57.68799694,11.98130148,57.68799850,11.98128083,11:29:29.560716,3.49849,0.00519,1.16535,0.02750,0.04882,0.01398,0.02603,-0.00378,0.05917,1.02492,3.49329,1.15783,2.61212,2.61987,-0.49652,2.77347,3.48495,-0.47550,2.83547,A,112929.40
3.50886,57.68799704,11.98130139,57.68799850,11.98128083,11:29:29.571083,3.50886,0.00518,1.16535,0.02800,0.04454,0.00222,0.02618,-0.00488,0.05209,0.97075,3.50407,1.15858,2.61757,2.62533,-0.50211,2.78409,3.48495,-0.47550,2.83547,A,112929.40
3.51849,57.68799712,11.98130132,57.68799850,11.98128083,11:29:29.580710,3.51849,0.00453,1.16535,0.02877,0.04011,-0.01015,0.02313,-0.04947,0.07308,0.93117,3.51365,1.15926,2.62294,2.63070,-0.50623,2.79307,3.48495,-0.47550,2.83547,A,112929.40
3.52867,57.68799720,11.98130124,57.68799850,11.98128083,11:29:29.590890,3.52867,0.00432,1.16535,0.02931,0.04027,-0.00938,0.01916,-0.02111,0.05490,0.89048,3.52418,1.15987,2.62828,2.63604,-0.51078,2.80159,3.48495,-0.47550,2.83547,A,112929.40
3.53929,57.68799726,11.98130117,57.68799850,11.98128083,11:29:29.601513,3.53929,0.00455,1.16535,0.02980,0.03416,-0.01793,0.01488,-0.00921,0.05630,0.88206,3.53438,1.16041,2.63357,2.64132,-0.51492,2.80922,3.48495,-0.47550,2.83547,A,112929.40
3.54972,57.68799733,11.98130111,57.68799850,11.98128083,11:29:29.611951,3.54972,0.00459,1.16535,0.03002,0.02866,-0.02221,0.01290,-0.03575,0.04685,0.95752,3.54496,1.16091,2.63881,2.64656,-0.51864,2.81603,3.48495,-0.47550,2.83547,A,112929.40
3.55988,57.68799738,11.98130105,57.68799850,11.98128083,11:29:29.622097,3.55988,0.00435,1.16535,0.03076,0.02713,-0.02465,0.01442,-0.03556,0.08558,1.00424,3.55537,1.16135,2.64399,2.65174,-0.52201,2.82213,3.48495,-0.47550,2.83547,A,112929.40
3.57023,57.68799743,11.98130100,57.68799850,11.98128083,11:29:29.632450,3.57023,0.00444,1.16535,0.03138,0.02866,-0.02099,0.00984,-0.08064,0.08150,1.05274,3.56545,1.16175,2.64912,2.65687,-0.52499,2.82753,3.48495,-0.47550,2.83547,A,112929.40
3.58053,57.68799747,11.98130095,57.68799850,11.98128083,11:29:29.642738,3.58053,0.00434,1.16535,0.03193,0.02805,-0.00633,0.00709,-0.06112,0.07576,1.04322,3.57602,1.16211,2.65420,2.66195,-0.52788,2.83245,3.48495,-0.47550,2.83547,A,112929.40
3.61521,57.68799783,11.98130036,57.68800067,11.98127917,11:29:29.677430,3.61521,0.02863,1.16535,0.03197,0.03217,-0.00343,0.00801,-0.05948,0.03904,1.04975,3.58622,1.16244,2.65990,2.66765,-0.56285,2.87261,3.61222,-0.57456,3.07639,A,112929.60
3.62509,57.68799805,11.98130022,57.68800067,11.98127917,11:29:29.687560,3.62509,0.00441,1.16535,0.03293,0.02683,-0.01213,0.00893,-0.07472,0.06033,1.01705,3.62055,1.16273,2.66486,2.67261,-0.57150,2.89683,3.61222,-0.57456,3.07639,A,112929.60
3.63543,57.68799825,11.98130008,57.68800067,11.98127917,11:29:29.697652,3.63543,0.00435,1.16535,0.03407,0.03141,-0.00740,0.01671,-0.07326,0.11334,1.00778,3.63071,1.16299,2.66978,2.67753,-0.57956,2.91871,3.61222,-0.57456,3.07639,A,112929.60
3.64607,57.68799843,11.98129996,57.68800067,11.98127917,11:29:29.708283,3.64607,0.00443,1.16535,0.03502,0.03645,0.00070,0.01809,-0.06936,0.09833,1.02010,3.64127,1.16322,2.67466,2.68240,-0.58705,2.93848,3.61222,-0.57456,3.07639,A,112929.60
3.65649,57.68799859,11.98129984,57.68800067,11.98127917,11:29:29.718712,3.65649,0.00447,1.16535,0.03547,0.03859,-0.00404,0.02389,-0.03404,0.06246,1.00430,3.65199,1.16344,2.67949,2.68721,-0.59390,2.95627,3.61222,-0.57456,3.07639,A,112929.60
3.66686,57.68799873,11.98129974,57.68800067,11.98127917,11:29:29.729069,3.66686,0.00443,1.16535,0.03560,0.03828,-0.00831,0.01748,-0.04276,0.04441,1.02724,3.66206,1.16363,2.68426,2.69192,-0.59973,2.97208,3.61222,-0.57456,3.07639,A,112929.60
3.67722,57.68799886,11.98129965,57.68800067,11.98127917,11:29:29.739696,3.67722,0.00434,1.16535,0.03559,0.03477,-0.00724,0.01137,-0.06704,0.03544,1.01931,3.67272,1.16380,2.68899,2.69657,-0.60528,2.98640,3.61222,-0.57456,3.07639,A,112929.60
3.68762,57.68799897,11.98129957,57.68800067,11.98127917,11:29:29.749841,3.68762,0.00435,1.16535,0.03577,0.03568,-0.00251,0.00969,-0.05240,0.04581,0.96349,3.68291,1.16396,2.69368,2.70118,-0.61031,2.99927,3.61222,-0.57456,3.07639,A,112929.60
3.69840,57.68799908,11.98129949,57.68800067,11.98127917,11:29:29.760621,3.69840,0.00461,1.16535,0.03626,0.03095,-0.00236,0.01183,0.03123,0.05990,0.83826,3.69361,1.16409,2.69831,2.70575,-0.61495,3.01085,3.61222,-0.57456,3.07639,A,112929.60
3.71092,57.68799918,11.98129939,57.68800067,11.98127917,11:29:29.773149,3.71092,0.00595,1.16535,0.03686,0.02698,-0.01839,0.01122,-0.03202,0.06600,0.83338,3.70596,1.16422,2.70295,2.71037,-0.62066,3.02194,3.61222,-0.57456,3.07639,A,112929.60
3.73204,57.68799942,11.98129906,57.68800183,11.98127817,11:29:29.794256,3.73204,0.01667,1.16535,0.03723,0.02744,-0.01167,0.01290,-0.09467,0.06124,0.88541,3.71519,1.16433,2.70777,2.71520,-0.64045,3.04885,3.72925,-0.63399,3.20612,A,112929.70
3.74833,57.68799962,11.98129884,57.68800183,11.98127817,11:29:29.810547,3.74833,0.00598,1.16535,0.03812,0.03248,0.05705,0.00587,0.05795,0.06716,1.12576,3.74378,1.16443,2.71242,2.71985,-0.65358,3.07084,3.72925,-0.63399,3.20612,A,112929.70
3.75709,57.68799977,11.98129876,57.68800183,11.98127817,11:29:29.819547,3.75709,0.00435,1.16535,0.03799,0.03278,0.04315,0.01061,0.09943,0.03843,1.11819,3.75258,1.16453,2.71682,2.72425,-0.65827,3.08735,3.72925,-0.63399,3.20612,A,112929.70
3.76751,57.68799990,11.98129866,57.68800183,11.98127817,11:29:29.829727,3.76751,0.00436,1.16535,0.03767,0.02102,0.02590,0.00465,0.02373,0.02824,1.08055,3.76278,1.16461,2.72122,2.72865,-0.66404,3.10286,3.72925,-0.63399,3.20612,A,112929.70
3.77829,57.68800003,11.98129857,57.68800183,11.98127817,11:29:29.840510,3.77829,0.00461,1.16535,0.03763,0.01904,0.01857,0.00893,-0.08449,0.04727,1.02937,3.77332,1.16468,2.72558,2.73300,-0.66920,3.11677,3.72925,-0.63399,3.20612,A,112929.70
3.78839,57.68800014,11.98129850,57.68800183,11.98127817,11:29:29.850606,3.78839,0.00431,1.16535,0.03826,0.01156,0.02223,0.00664,-0.04307,0.09022,0.93684,3.78388,1.16475,2.72989,2.73731,-0.67365,3.12915,3.72925,-0.63399,3.20612,A,112929.70
3.79962,57.68800024,11.98129843,57.68800183,11.98127817,11:29:29.861875,3.79962,0.00528,1.16535,0.03859,0.00713,0.01490,0.01244,0.05679,0.06832,0.85857,3.79399,1.16481,2.73415,2.74157,-0.67768,3.14027,3.72925,-0.63399,3.20612,A,112929.70
3.80966,57.68800033,11.98129838,57.68800183,11.98127817,11:29:29.871902,3.80966,0.00492,1.16535,0.03906,-0.00020,-0.00068,0.01259,0.07607,0.08235,0.86638,3.80459,1.16486,2.73836,2.74578,-0.68079,3.15002,3.72925,-0.63399,3.20612,A,112929.70
3.81949,57.68800041,11.98129832,57.68800183,11.98127817,11:29:29.881703,3.81949,0.00435,1.16535,0.04008,0.00163,-0.00556,0.01641,0.04044,0.11718,0.89359,3.81476,1.16491,2.74253,2.74996,-0.68410,3.15897,3.72925,-0.63399,3.20612,A,112929.70
3.83007,57.68800048,11.98129827,57.68800183,11.98127817,11:29:29.892292,3.83007,0.00442,1.16535,0.04054,-0.00509,-0.00312,0.01610,-0.08028,0.09681,0.98186,3.82528,1.16496,2.74668,2.75410,-0.68731,3.16708,3.72925,-0.63399,3.20612,A,112929.70
3.85271,57.68800069,11.98129795,57.68800283,11.98127750,11:29:29.914931,3.85271,0.01667,1.16535,0.04034,-0.00356,0.01902,0.00679,-0.11206,0.05624,1.05268,3.83586,1.16499,2.75111,2.75852,-0.70624,3.19039,3.85003,-0.67362,3.31732,A,112929.80
3.86818,57.68800085,11.98129778,57.68800283,11.98127750,11:29:29.930403,3.86818,0.00558,1.16535,0.03913,-0.02739,0.01536,-0.00543,0.10937,0.03532,1.05682,3.86364,1.16503,2.75530,2.76264,-0.71624,3.20842,3.85003,-0.67362,3.31732,A,112929.80
3.87732,57.68800098,11.98129773,57.68800283,11.98127750,11:29:29.939773,3.87732,0.00432,1.16535,0.03864,-0.02937,-0.00816,-0.00207,0.00939,0.05045,1.03926,3.87282,1.16506,2.75928,2.76658,-0.71912,3.22215,3.85003,-0.67362,3.31732,A,112929.80
3.88772,57.68800109,11.98129767,57.68800283,11.98127750,11:29:29.949938,3.88772,0.00433,1.16535,0.03852,-0.03930,-0.01381,0.01015,-0.04398,0.08095,0.99326,3.88322,1.16509,2.76326,2.77051,-0.72295,3.23497,3.85003,-0.67362,3.31732,A,112929.80
3.89831,57.68800120,11.98129762,57.68800283,11.98127750,11:29:29.960541,3.89831,0.00465,1.16535,0.03870,-0.03518,-0.00923,0.01198,-0.12066,0.09748,0.99631,3.89334,1.16512,2.76719,2.77437,-0.72614,3.24637,3.85003,-0.67362,3.31732,A,112929.80
3.90914,57.68800129,11.98129756,57.68800283,11.98127750,11:29:29.971574,3.90914,0.00507,1.16535,0.03879,-0.03594,0.00956,0.01442,-0.04227,0.09010,0.95008,3.90431,1.16514,2.77108,2.77818,-0.72940,3.25673,3.85003,-0.67362,3.31732,A,112929.80
3.91890,57.68800137,11.98129753,57.68800283,11.98127750,11:29:29.981114,3.91890,0.00443,1.10281,0.03859,-0.03457,0.00284,0.01671,0.04124,0.06783,0.94587,3.91409,1.15891,2.77491,2.78190,-0.73130,3.26564,3.85003,-0.67362,3.31732,A,112929.80
3.92919,57.68800144,11.98129749,57.68800283,11.98127750,11:29:29.991648,3.92919,0.00433,1.10281,0.03819,-0.03457,-0.00098,0.01473,-0.00256,0.05777,0.96929,3.92469,1.15330,2.77872,2.78560,-0.73382,3.27392,3.85003,-0.67362,3.31732,A,112929.80
3.93960,57.68800151,11.98129745,57.68800283,11.98127750,11:29:30.001812,3.93960,0.00434,1.10281,0.03770,-0.03884,0.00161,0.01442,-0.14219,0.05594,1.02523,3.93489,1.14825,2.78249,2.78926,-0.73615,3.28137,3.85003,-0.67362,3.31732,A,112929.80
3.95017,57.68800157,11.98129741,57.68800283,11.98127750,11:29:30.012397,3.95017,0.00439,1.10281,0.03736,-0.04510,0.02544,0.00847,-0.20764,0.07509,1.07982,3.94542,1.14370,2.78621,2.79295,-0.73816,3.28800,3.85003,-0.67362,3.31732,A,112929.80
3.97542,57.68800177,11.98129711,57.68800383,11.98127717,11:29:30.037652,3.97542,0.01925,1.10281,0.03679,-0.04464,0.05674,0.00541,-0.06484,0.05606,1.04255,3.95600,1.13962,2.79026,2.79698,-0.75640,3.31030,3.97208,-0.69343,3.42851,A,112929.90
3.99307,57.68800192,11.98129698,57.68800383,11.98127717,11:29:30.055551,3.99307,0.00680,1.10281,0.03559,-0.03792,-0.01518,0.02053,-0.09681,0.05649,0.98204,3.98674,1.13593,2.79404,2.80077,-0.76383,3.32705,3.97208,-0.69343,3.42851,A,112929.90
4.00126,57.68800203,11.98129700,57.68800383,11.98127717,11:29:30.063711,4.00126,0.00459,1.10281,0.03578,-0.03243,0.00177,0.01656,-0.17013,0.09467,1.02401,3.99650,1.13262,2.79759,2.80432,-0.76269,3.33929,3.97208,-0.69343,3.42851,A,112929.90
4.01182,57.68800214,11.98129698,57.68800383,11.98127717,11:29:30.074040,4.01182,0.00475,1.10281,0.03570,-0.02052,0.02238,0.01977,-0.09345,0.07210,1.05981,4.00728,1.12964,2.80117,2.80790,-0.76415,3.35116,3.97208,-0.69343,3.42851,A,112929.90
4.02217,57.68800223,11.98129696,57.68800383,11.98127717,11:29:30.084396,4.02217,0.00456,1.10281,0.03560,-0.02128,0.02299,0.01763,0.00567,0.07076,1.05792,4.01727,1.12696,2.80470,2.81142,-0.76490,3.36160,3.97208,-0.69343,3.42851,A,112929.90
4.03237,57.68800232,11.98129695,57.68800383,11.98127717,11:29:30.094586,4.03237,0.00435,1.10281,0.03472,-0.01410,0.00299,0.02298,0.08394,0.00982,0.95404,4.02785,1.12454,2.80819,2.81492,-0.76578,3.37104,3.97208,-0.69343,3.42851,A,112929.90
4.04307,57.68800239,11.98129693,57.68800383,11.98127717,11:29:30.105289,4.04307,0.00441,1.10281,0.03411,-0.00845,-0.00755,0.02038,-0.05337,0.02135,0.92873,4.03829,1.12237,2.81166,2.81839,-0.76680,3.37958,3.97208,-0.69343,3.42851,A,112929.90
4.05359,57.68800246,11.98129692,57.68800383,11.98127717,11:29:30.115820,4.05359,0.00454,1.10281,0.03418,-0.01349,-0.00159,0.01702,-0.22222,0.06924,0.95849,4.04887,1.12041,2.81509,2.82182,-0.76760,3.38720,3.97208,-0.69343,3.42851,A,112929.90
4.06369,57.68800252,11.98129691,57.68800383,11.98127717,11:29:30.125912,4.06369,0.00440,1.10281,0.03399,-0.00540,0.02177,0.02114,-0.21191,0.04776,0.98613,4.05914,1.11865,2.81848,2.82521,-0.76829,3.39402,3.97208,-0.69343,3.42851,A,112929.90
4.07421,57.68800258,11.98129690,57.68800383,11.98127717,11:29:30.136430,4.07421,0.00443,1.10281,0.03375,0.00102,0.03491,0.02175,-0.03562,0.04008,0.99027,4.06943,1.11707,2.82184,2.82857,-0.76888,3.40011,3.97208,-0.69343,3.42851,A,112929.90
4.09786,57.68800276,11.98129656,57.68800483,11.98127600,11:29:30.160085,4.09786,0.01768,1.10281,0.03348,0.00209,0.02559,0.02206,0.01409,0.03934,1.03102,4.08000,1.11564,2.82548,2.83220,-0.78905,3.42080,4.09476,-0.76277,3.53971,A,112930.00
4.10797,57.68800289,11.98129647,57.68800483,11.98127600,11:29:30.170503,4.10797,0.00457,1.10281,0.03390,0.00468,0.00345,0.02832,-0.09693,0.07680,0.98423,4.10344,1.11436,2.82876,2.83549,-0.79434,3.43522,4.09476,-0.76277,3.53971,A,112930.00
4.12044,57.68800302,11.98129635,57.68800483,11.98127600,11:29:30.183152,4.12044,0.00633,1.10281,0.03425,0.00590,0.00940,0.01855,-0.14866,0.07588,1.00070,4.11580,1.11321,2.83207,2.83879,-0.80131,3.44887,4.09476,-0.76277,3.53971,A,112930.00
4.12885,57.68800312,11.98129631,57.68800483,11.98127600,11:29:30.191067,4.12885,0.00434,1.10281,0.03381,0.00911,0.01154,0.01427,-0.07771,0.02348,1.01107,4.12434,1.11217,2.83525,2.84197,-0.80375,3.45992,4.09476,-0.76277,3.53971,A,112930.00
4.13931,57.68800321,11.98129624,57.68800483,11.98127600,11:29:30.201534,4.13931,0.00441,1.10281,0.03364,-0.00555,0.00742,0.00832,0.01501,0.04996,1.00937,4.13455,1.11123,2.83843,2.84516,-0.80767,3.47037,4.09476,-0.76277,3.53971,A,112930.00
4.14988,57.68800329,11.98129618,57.68800483,11.98127600,11:29:30.212112,4.14988,0.00458,1.10281,0.03340,-0.01089,-0.00449,0.00740,0.10413,0.04673,0.94977,4.14512,1.11039,2.84159,2.84832,-0.81131,3.47979,4.09476,-0.76277,3.53971,A,112930.00
4.16003,57.68800337,11.98129613,57.68800483,11.98127600,11:29:30.222247,4.16003,0.00433,1.10281,0.03378,-0.01273,-0.02511,0.00969,-0.06179,0.08717,0.95691,4.15552,1.10963,2.84472,2.85144,-0.81444,3.48819,4.09476,-0.76277,3.53971,A,112930.00
4.17042,57.68800344,11.98129608,57.68800483,11.98127600,11:29:30.232635,4.17042,0.00449,1.10281,0.03434,-0.00601,-0.01992,0.00740,-0.16494,0.09376,0.95026,4.16561,1.10895,2.84781,2.85454,-0.81719,3.49571,4.09476,-0.76277,3.53971,A,112930.00
4.18064,57.68800350,11.98129604,57.68800483,11.98127600,11:29:30.242858,4.18064,0.00432,1.10281,0.03362,-0.00249,-0.00113,0.00618,-0.16330,0.01135,0.96990,4.17615,1.10833,2.85087,2.85758,-0.81981,3.50249,4.09476,-0.76277,3.53971,A,112930.00
4.19120,57.68800355,11.98129600,57.68800483,11.98127600,11:29:30.253429,4.19120,0.00448,1.10281,0.03298,-0.00463,0.01719,-0.00589,-0.02580,0.01739,0.97350,4.18636,1.10778,2.85391,2.86050,-0.82216,3.50856,4.09476,-0.76277,3.53971,A,112930.00
4.22694,57.68800383,11.98129527,57.68800650,11.98127317,11:29:30.289161,4.22694,0.02982,1.10281,0.03217,-0.00998,0.00360,-0.01215,0.05716,0.00872,1.00961,4.19694,1.10729,2.85748,2.86377,-0.86547,3.53956,4.22407,-0.93118,3.72503,A,112930.20
4.24248,57.68800403,11.98129495,57.68800650,11.98127317,11:29:30.304701,4.24248,0.00582,1.10281,0.03174,-0.00311,0.01291,-0.00573,-0.02647,0.03428,0.98661,4.23759,1.10684,2.86054,2.86422,-0.88485,3.56176,4.22407,-0.93118,3.72503,A,112930.20
4.25151,57.68800420,11.98129476,57.68800650,11.98127317,11:29:30.313734,4.25151,0.00446,1.10281,0.03158,-0.00860,0.00131,0.00144,0.00830,0.04526,0.94294,4.24669,1.10644,2.86340,2.86641,-0.89609,3.57997,4.22407,-0.93118,3.72503,A,112930.20
4.26207,57.68800435,11.98129456,57.68800650,11.98127317,11:29:30.324298,4.26207,0.00445,1.10281,0.03156,-0.01257,-0.00648,0.00282,0.00811,0.05649,0.92903,4.25727,1.10607,2.86624,2.86854,-0.90770,3.59676,4.22407,-0.93118,3.72503,A,112930.20
4.27234,57.68800448,11.98129439,57.68800650,11.98127317,11:29:30.334555,4.27234,0.00432,1.10281,0.03118,-0.00906,-0.01320,0.00068,-0.06051,0.03294,0.94837,4.26785,1.10575,2.86904,2.87067,-0.91816,3.61186,4.22407,-0.93118,3.72503,A,112930.20
4.28284,57.68800460,11.98129423,57.68800650,11.98127317,11:29:30.345062,4.28284,0.00443,1.10281,0.03104,-0.01212,-0.00831,-0.01505,-0.11785,0.04941,0.96630,4.27804,1.10545,2.87179,2.87278,-0.92750,3.62541,4.22407,-0.93118,3.72503,A,112930.20
4.29314,57.68800471,11.98129409,57.68800650,11.98127317,11:29:30.355592,4.29314,0.00434,1.10281,0.03067,-0.02006,-0.00098,-0.01933,-0.06435,0.04069,0.97594,4.28864,1.10519,2.87451,2.87488,-0.93600,3.63761,4.22407,-0.93118,3.72503,A,112930.20
4.30421,57.68800481,11.98129395,57.68800650,11.98127317,11:29:30.366434,4.30421,0.00501,1.10281,0.03035,-0.01532,-0.00434,-0.03063,-0.00799,0.04032,1.00046,4.29883,1.10495,2.87719,2.87702,-0.94382,3.64862,4.22407,-0.93118,3.72503,A,112930.20
4.31407,57.68800490,11.98129385,57.68800650,11.98127317,11:29:30.376293,4.31407,0.00451,1.10281,0.02950,-0.02036,-0.00923,-0.02712,0.02513,0.00897,1.01260,4.30925,1.10474,2.87983,2.87917,-0.94997,3.65827,4.22407,-0.93118,3.72503,A,112930.20
4.32432,57.68800498,11.98129375,57.68800650,11.98127317,11:29:30.386541,4.32432,0.00436,1.10281,0.02907,-0.02250,-0.01824,-0.02238,-0.01305,0.03904,1.05201,4.31980,1.10454,2.88243,2.88136,-0.95619,3.66712,4.22407,-0.93118,3.72503,A,112930.20
4.34756,57.68800515,11.98129332,57.68800717,11.98127200,11:29:30.409782,4.34756,0.01683,1.10281,0.02877,-0.02082,-0.00755,-0.02177,-0.09479,0.04660,1.05597,4.33045,1.10437,2.88496,2.88354,-0.98126,3.68582,4.34471,-1.00052,3.79916,A,112930.30
4.36107,57.68800527,11.98129312,57.68800717,11.98127200,11:29:30.423543,4.36107,0.00695,1.10281,0.02864,-0.00326,-0.00495,-0.01154,-0.04740,0.04581,1.00235,4.35558,1.10421,2.88749,2.88557,-0.99348,3.69987,4.34471,-1.00052,3.79916,A,112930.30
4.36909,57.68800538,11.98129301,57.68800717,11.98127200,11:29:30.431644,4.36909,0.00458,1.10281,0.02871,-0.00280,-0.00816,-0.00726,-0.02172,0.05514,0.99741,4.36457,1.10407,2.89001,2.88797,-1.00015,3.71136,4.34471,-1.00052,3.79916,A,112930.30
4.37931,57.68800547,11.98129287,57.68800717,11.98127200,11:29:30.441524,4.37931,0.00441,1.10281,0.02872,0.00529,-0.00144,-0.01230,0.00659,0.04416,0.96221,4.37454,1.10395,2.89249,2.89035,-1.00801,3.72217,4.34471,-1.00052,3.79916,A,112930.30
4.38988,57.68800556,11.98129275,57.68800717,11.98127200,11:29:30.452109,4.38988,0.00459,1.10281,0.02901,0.00438,-0.01671,-0.01337,-0.00427,0.06149,0.93763,4.38511,1.10383,2.89494,2.89271,-1.01544,3.73197,4.34471,-1.00052,3.79916,A,112930.30
4.39993,57.68800564,11.98129264,57.68800717,11.98127200,11:29:30.462153,4.39993,0.00440,1.10281,0.02915,0.00896,-0.02603,-0.01444,-0.10827,0.05258,0.99863,4.39541,1.10373,2.89736,2.89508,-1.02186,3.74070,4.34471,-1.00052,3.79916,A,112930.30
4.41128,57.68800571,11.98129253,57.68800717,11.98127200,11:29:30.473506,4.41128,0.00548,1.10281,0.02904,0.00667,-0.00740,-0.01994,-0.09309,0.03880,1.03328,4.40626,1.10364,2.89976,2.89748,-1.02842,3.74873,4.34471,-1.00052,3.79916,A,112930.30
4.42053,57.68800577,11.98129246,57.68800717,11.98127200,11:29:30.482745,4.42053,0.00434,1.10281,0.02897,0.00270,0.00788,-0.01688,-0.04111,0.04416,1.03633,4.41602,1.10356,2.90214,2.89986,-1.03280,3.75556,4.34471,-1.00052,3.79916,A,112930.30
4.43104,57.68800583,11.98129238,57.68800717,11.98127200,11:29:30.493258,4.43104,0.00446,1.10281,0.02921,0.00438,0.01139,-0.01872,0.07857,0.05972,0.95965,4.42623,1.10348,2.90450,2.90222,-1.03766,3.76191,4.34471,-1.00052,3.79916,A,112930.30
4.44131,57.68800588,11.98129230,57.68800717,11.98127200,11:29:30.503909,4.44131,0.00434,1.10281,0.02910,0.00529,-0.01244,-0.01566,0.04538,0.03593,0.93159,4.43681,1.10342,2.90682,2.90454,-1.04212,3.76763,4.34471,-1.00052,3.79916,A,112930.30
4.46405,57.68800606,11.98129198,57.68800817,11.98127150,11:29:30.526265,4.46405,0.01668,1.10281,0.02931,0.01446,-0.01854,-0.01139,-0.10089,0.05240,0.98015,4.44720,1.10335,2.90903,2.90675,-1.06119,3.78680,4.46125,-1.03024,3.91035,A,112930.40
4.47898,57.68800619,11.98129182,57.68800817,11.98127150,11:29:30.541207,4.47898,0.00649,1.10281,0.02972,0.02163,0.02910,-0.00467,0.03221,0.03904,1.01211,4.47414,1.10330,2.91128,2.90900,-1.07045,3.80211,4.46125,-1.03024,3.91035,A,112930.40
4.48731,57.68800630,11.98129179,57.68800817,11.98127150,11:29:30.549525,4.48731,0.00443,1.10281,0.02968,0.02225,0.01246,-0.00512,0.05691,0.03526,1.00918,4.48253,1.10325,2.91356,2.91128,-1.07246,3.81437,4.46125,-1.03024,3.91035,A,112930.40
4.49833,57.68800641,11.98129172,57.68800817,11.98127150,11:29:30.560551,4.49833,0.00506,1.10281,0.03020,0.02530,0.00650,-0.00604,-0.05642,0.06887,1.02980,4.49351,1.10321,2.91579,2.91351,-1.07684,3.82598,4.46125,-1.03024,3.91035,A,112930.40
4.50802,57.68800650,11.98129167,57.68800817,11.98127150,11:29:30.570239,4.50802,0.00436,1.10281,0.03060,0.02866,0.01719,-0.00405,-0.13084,0.06124,1.04908,4.50351,1.10317,2.91801,2.91573,-1.07979,3.83618,4.46125,-1.03024,3.91035,A,112930.40
4.51846,57.68800658,11.98129161,57.68800817,11.98127150,11:29:30.580684,4.51846,0.00451,1.10281,0.03069,0.02820,0.02956,-0.00894,-0.10870,0.03855,1.02029,4.51365,1.10313,2.92021,2.91793,-1.08289,3.84545,4.46125,-1.03024,3.91035,A,112930.40
4.52869,57.68800666,11.98129157,57.68800817,11.98127150,11:29:30.590906,4.52869,0.00435,1.10281,0.03071,0.02881,0.02681,-0.01154,0.03501,0.03001,0.93287,4.52419,1.10310,2.92238,2.92010,-1.08577,3.85379,4.46125,-1.03024,3.91035,A,112930.40
4.53914,57.68800673,11.98129152,57.68800817,11.98127150,11:29:30.601351,4.53914,0.00440,1.10281,0.03062,0.01782,0.00039,-0.01322,0.14646,0.02952,0.89517,4.53437,1.10307,2.92453,2.92225,-1.08832,3.86128,4.46125,-1.03024,3.91035,A,112930.40
4.55044,57.68800679,11.98129147,57.68800817,11.98127150,11:29:30.612668,4.55044,0.00460,1.10281,0.03082,0.01415,-0.03687,-0.01245,0.01677,0.05081,0.94178,4.54560,1.10304,2.92665,2.92437,-1.09139,3.86816,4.46125,-1.03024,3.91035,A,112930.40
4.56056,57.68800684,11.98129144,57.68800817,11.98127150,11:29:30.622774,4.56056,0.00432,1.10281,0.03153,0.00743,-0.03443,-0.01047,-0.22283,0.09644,1.03108,4.55608,1.10302,2.92876,2.92648,-1.09334,3.87416,4.46125,-1.03024,3.91035,A,112930.40
4.58351,57.68800700,11.98129113,57.68800900,11.98127083,11:29:30.645736,4.58351,0.01688,1.10281,0.03210,0.01354,0.00222,-0.01734,-0.22899,0.08784,1.08598,4.56629,1.10300,2.93075,2.92847,-1.11152,3.89153,4.58050,-1.06987,4.00302,A,112930.50
4.59953,57.68800712,11.98129098,57.68800900,11.98127083,11:29:30.661758,4.59953,0.00666,1.10281,0.03156,0.01186,0.01185,-0.02544,0.14628,-0.00537,0.92153,4.59470,1.10298,2.93277,2.93049,-1.12084,3.90560,4.58050,-1.06987,4.00302,A,112930.50
4.60773,57.68800722,11.98129096,57.68800900,11.98127083,11:29:30.669952,4.60773,0.00435,1.10281,0.03092,0.00331,-0.02420,-0.02757,-0.01251,0.00653,0.93647,4.60322,1.10296,2.93483,2.93255,-1.12195,3.91667,4.58050,-1.06987,4.00302,A,112930.50
4.61822,57.68800732,11.98129091,57.68800900,11.98127083,11:29:30.680440,4.61822,0.00443,1.10281,0.03138,0.00056,-0.02633,-0.02421,-0.16543,0.07851,0.96429,4.61346,1.10295,2.93686,2.93458,-1.12491,3.92704,4.58050,-1.06987,4.00302,A,112930.50
4.62850,57.68800740,11.98129086,57.68800900,11.98127083,11:29:30.690717,4.62850,0.00433,1.02748,0.03174,0.00468,-0.00419,-0.02177,-0.21204,0.07155,0.98338,4.62401,1.09540,2.93886,2.93658,-1.12763,3.93636,4.58050,-1.06987,4.00302,A,112930.50
4.63902,57.68800748,11.98129082,57.68800900,11.98127083,11:29:30.701240,4.63902,0.00445,1.02748,0.03224,0.00942,0.02330,-0.01475,-0.02586,0.07753,0.97887,4.63422,1.08861,2.94085,2.93857,-1.12996,3.94472,4.58050,-1.06987,4.00302,A,112930.50
4.64930,57.68800754,11.98129079,57.68800900,11.98127083,11:29:30.711752,4.64930,0.00433,1.02748,0.03259,0.01324,0.01689,-0.01429,0.03569,0.06899,1.02620,4.64481,1.08250,2.94281,2.94053,-1.13209,3.95222,4.58050,-1.06987,4.00302,A,112930.50
4.65971,57.68800760,11.98129075,57.68800900,11.98127083,11:29:30.721929,4.65971,0.00436,1.02748,0.03308,0.02133,0.01093,-0.01139,-0.03349,0.07570,1.06305,4.65519,1.07700,2.94476,2.94248,-1.13407,3.95897,4.58050,-1.06987,4.00302,A,112930.50
4.67021,57.68800766,11.98129073,57.68800900,11.98127083,11:29:30.732431,4.67021,0.00443,1.02748,0.03326,0.02270,0.00375,-0.01536,-0.07881,0.04984,1.00028,4.66545,1.07204,2.94669,2.94441,-1.13565,3.96499,4.58050,-1.06987,4.00302,A,112930.50
4.68053,57.68800771,11.98129070,57.68800900,11.98127083,11:29:30.742743,4.68053,0.00435,1.02748,0.03295,0.01980,-0.00801,-0.02253,-0.09071,0.01873,0.97216,4.67602,1.06759,2.94859,2.94631,-1.13712,3.97040,4.58050,-1.06987,4.00302,A,112930.50
4.71513,57.68800797,11.98129013,57.68801083,11.98126917,11:29:30.777348,4.71513,0.02856,1.02748,0.03244,0.01278,-0.01778,-0.02040,-0.08034,0.01013,0.96715,4.68621,1.06358,2.95030,2.94802,-1.17112,4.00015,4.71225,-1.16893,4.20687,A,112930.70
4.72501,57.68800817,11.98129001,57.68801083,11.98126917,11:29:30.787233,4.72501,0.00441,1.02748,0.03398,0.00392,0.00329,-0.00329,-0.16263,0.15018,1.01614,4.72048,1.05997,2.95218,2.94990,-1.17847,4.02230,4.71225,-1.16893,4.20687,A,112930.70
4.73665,57.68800835,11.98128988,57.68801083,11.98126917,11:29:30.798881,4.73665,0.00565,1.02748,0.03488,0.01522,0.03323,-0.00543,-0.16080,0.10248,0.98484,4.73125,1.05672,2.95403,2.95175,-1.18589,4.04238,4.71225,-1.16893,4.20687,A,112930.70
4.74601,57.68800851,11.98128980,57.68801083,11.98126917,11:29:30.808235,4.74601,0.00446,1.02748,0.03465,0.02041,0.04407,-0.01215,-0.04050,0.02544,0.96417,4.74122,1.05380,2.95587,2.95359,-1.19098,4.06014,4.71225,-1.16893,4.20687,A,112930.70
4.75627,57.68800866,11.98128970,57.68801083,11.98126917,11:29:30.818488,4.75627,0.00432,1.02748,0.03420,0.01659,0.03384,-0.01642,0.06167,0.01330,0.97332,4.75177,1.05117,2.95769,2.95541,-1.19665,4.07631,4.71225,-1.16893,4.20687,A,112930.70
4.76666,57.68800879,11.98128962,57.68801083,11.98126917,11:29:30.828889,4.76666,0.00448,1.02748,0.03337,0.00316,-0.00709,-0.01948,0.04026,-0.00305,1.01803,4.76186,1.04880,2.95949,2.95721,-1.20157,4.09082,4.71225,-1.16893,4.20687,A,112930.70
4.77691,57.68800891,11.98128954,57.68801083,11.98126917,11:29:30.839130,4.77691,0.00434,1.02748,0.03304,-0.00860,-0.03061,-0.02192,-0.06631,0.04075,1.08196,4.77243,1.04667,2.96127,2.95899,-1.20615,4.10388,4.71225,-1.16893,4.20687,A,112930.70
4.78736,57.68800901,11.98128947,57.68801083,11.98126917,11:29:30.849576,4.78736,0.00439,1.02748,0.03317,-0.01013,-0.01381,-0.01429,-0.15097,0.07381,1.06329,4.78263,1.04475,2.96304,2.96076,-1.21021,4.11562,4.71225,-1.16893,4.20687,A,112930.70
4.79814,57.68800911,11.98128941,57.68801083,11.98126917,11:29:30.860369,4.79814,0.00461,1.02748,0.03405,-0.01517,0.00116,-0.01169,-0.09729,0.11773,0.95495,4.79335,1.04302,2.96478,2.96250,-1.21411,4.12621,4.71225,-1.16893,4.20687,A,112930.70
4.80813,57.68800919,11.98128936,57.68801083,11.98126917,11:29:30.870345,4.80813,0.00436,1.02748,0.03503,-0.00494,0.00711,-0.01077,-0.01549,0.10809,0.87492,4.80362,1.04147,2.96651,2.96423,-1.21714,4.13565,4.71225,-1.16893,4.20687,A,112930.70
4.83080,57.68800937,11.98128903,57.68801167,11.98126833,11:29:30.893029,4.83080,0.01677,1.02748,0.03600,0.00132,-0.00281,-0.00772,-0.02312,0.10498,0.87889,4.81371,1.04007,2.96813,2.96585,-1.23645,4.15547,4.82795,-1.21846,4.29954,A,112930.80
4.84361,57.68800952,11.98128891,57.68801167,11.98126833,11:29:30.905838,4.84361,0.00687,1.02748,0.03561,0.00820,-0.00449,0.00526,-0.07979,0.01739,1.02163,4.83815,1.03881,2.96982,2.96761,-1.24392,4.17152,4.82795,-1.21846,4.29954,A,112930.80
4.85148,57.68800964,11.98128885,57.68801167,11.98126833,11:29:30.913700,4.85148,0.00435,1.02748,0.03484,0.00438,-0.00251,0.01305,-0.01068,0.00262,1.05676,4.84678,1.03768,2.97152,2.96940,-1.24695,4.18531,4.82795,-1.21846,4.29954,A,112930.80
4.86211,57.68800975,11.98128877,57.68801167,11.98126833,11:29:30.924330,4.86211,0.00446,1.02748,0.03476,0.00300,-0.01289,0.02069,0.02599,0.05081,1.06494,4.85733,1.03666,2.97318,2.97127,-1.25194,4.19809,4.82795,-1.21846,4.29954,A,112930.80
4.87238,57.68800986,11.98128870,57.68801167,11.98126833,11:29:30.934603,4.87238,0.00433,1.02748,0.03524,0.00178,-0.02588,0.02267,-0.02977,0.09144,1.05902,4.86788,1.03574,2.97483,2.97318,-1.25638,4.20958,4.82795,-1.21846,4.29954,A,112930.80
4.88309,57.68800995,11.98128863,57.68801167,11.98126833,11:29:30.945313,4.88309,0.00442,1.02748,0.03574,0.00316,-0.01518,0.02282,-0.10962,0.08973,1.02492,4.87832,1.03491,2.97647,2.97513,-1.26051,4.21992,4.82795,-1.21846,4.29954,A,112930.80
4.89366,57.68801003,11.98128857,57.68801167,11.98126833,11:29:30.955890,4.89366,0.00459,1.02748,0.03601,0.00484,0.00620,0.00786,-0.14640,0.07113,0.99582,4.88890,1.03417,2.97810,2.97710,-1.26411,4.22919,4.82795,-1.21846,4.29954,A,112930.80
4.90405,57.68801011,11.98128851,57.68801167,11.98126833,11:29:30.966270,4.90405,0.00459,1.02748,0.03585,-0.00081,0.01414,-0.00253,-0.02775,0.04270,0.91592,4.89932,1.03350,2.97972,2.97902,-1.26744,4.23754,4.82795,-1.21846,4.29954,A,112930.80
4.91446,57.68801018,11.98128846,57.68801167,11.98126833,11:29:30.976685,4.91446,0.00467,1.02748,0.03601,-0.00249,0.00665,-0.00711,0.03239,0.06252,0.90634,4.90967,1.03290,2.98132,2.98094,-1.27017,4.24499,4.82795,-1.21846,4.29954,A,112930.80
4.92452,57.68801024,11.98128842,57.68801167,11.98126833,11:29:30.986738,4.92452,0.00433,1.02748,0.03590,-0.00097,-0.00694,-0.00635,0.03465,0.04770,0.94635,4.92003,1.03236,2.98292,2.98283,-1.27258,4.25167,4.82795,-1.21846,4.29954,A,112930.80
4.94785,57.68801039,11.98128813,57.68801250,11.98126783,11:29:31.010071,4.94785,0.01719,1.02748,0.03567,-0.00799,-0.01549,-0.00650,-0.04563,0.04764,1.01242,4.93030,1.03187,2.98450,2.98470,-1.28993,4.26889,4.94500,-1.24818,4.39220,A,112930.90
4.95794,57.68801051,11.98128808,57.68801250,11.98126783,11:29:31.020173,4.95794,0.00466,1.02748,0.03571,-0.00708,-0.00388,0.00847,0.00055,0.07399,1.05097,4.95312,1.03143,2.98608,2.98679,-1.29307,4.28238,4.94500,-1.24818,4.39220,A,112930.90
4.96804,57.68801062,11.98128803,57.68801250,11.98126783,11:29:31.030257,4.96804,0.00435,1.02748,0.03568,-0.00387,-0.00465,0.00908,0.03941,0.05966,1.03450,4.96352,1.03104,2.98764,2.98849,-1.29618,4.29455,4.94500,-1.24818,4.39220,A,112930.90
4.97838,57.68801072,11.98128798,57.68801250,11.98126783,11:29:31.040596,4.97838,0.00446,1.02748,0.03550,-0.00143,-0.01427,0.00862,-0.00250,0.04685,1.02077,4.97360,1.03068,2.98920,2.99009,-1.29895,4.30548,4.94500,-1.24818,4.39220,A,112930.90
4.98881,57.68801081,11.98128793,57.68801250,11.98126783,11:29:31.051031,4.98881,0.00450,1.02748,0.03538,-0.00998,-0.01305,0.00648,-0.04362,0.05649,1.00589,4.98430,1.03036,2.99074,2.99163,-1.30177,4.31536,4.94500,-1.24818,4.39220,A,112930.90
4.99913,57.68801089,11.98128789,57.68801250,11.98126783,11:29:31.061354,4.99913,0.00443,1.02748,0.03566,-0.01227,-0.00801,0.00572,-0.07247,0.08156,0.97472,4.99436,1.03007,2.99226,2.99315,-1.30396,4.32418,4.94500,-1.24818,4.39220,A,112930.90
5.00990,57.68801096,11.98128786,57.68801250,11.98126783,11:29:31.072123,5.00990,0.00480,1.02748,0.03537,-0.01593,-0.00037,0.00557,-0.03867,0.04685,0.96179,5.00502,1.02982,2.99377,2.99466,-1.30624,4.33216,4.94500,-1.24818,4.39220,A,112930.90
5.02212,57.68801102,11.98128783,57.68801250,11.98126783,11:29:31.084396,5.02212,0.00662,1.02748,0.00000,-0.01548,0.00146,0.00114,0.01952,0.05911,0.96026,5.01534,1.02958,2.99526,2.99615,-1.30791,4.33927,4.94500,-1.24818,4.39220,A,112930.90
5.03136,57.68801108,11.98128778,57.68801250,11.98126783,11:29:31.093582,5.03136,0.00558,1.02748,0.00019,-0.02113,-0.00480,0.00022,0.03166,0.05374,0.98478,5.02661,1.02937,2.99674,2.99764,-1.31060,4.34583,4.94500,-1.24818,4.39220,A,112930.90
5.04102,57.68801113,11.98128777,57.68801250,11.98126783,11:29:31.104188,5.04102,0.00485,1.02748,0.00086,-0.02617,-0.00862,0.00114,-0.01025,0.08607,1.00778,5.03648,1.02918,2.99820,2.99910,-1.31153,4.35151,4.94500,-1.24818,4.39220,A,112930.90
5.06361,57.68801126,11.98128749,57.68801317,11.98126717,11:29:31.125833,5.06361,0.01704,1.02748,0.00107,-0.02861,-0.00449,-0.00115,-0.02556,0.05832,1.02224,5.04621,1.02901,2.99969,3.00058,-1.32826,4.36573,5.06074,-1.28780,4.46633,A,112931.00
5.07457,57.68801136,11.98128742,57.68801317,11.98126717,11:29:31.136800,5.07457,0.00552,1.02748,0.00053,-0.03945,-0.00541,-0.00176,0.03733,0.04782,0.97533,5.06971,1.02886,3.00112,3.00202,-1.33229,4.37694,5.06074,-1.28780,4.46633,A,112931.00
5.08451,57.68801145,11.98128737,57.68801317,11.98126717,11:29:31.146739,5.08451,0.00507,1.02748,0.00106,-0.03747,-0.01244,0.00053,0.02525,0.08095,0.95160,5.08001,1.02872,3.00254,3.00344,-1.33529,4.38692,5.06074,-1.28780,4.46633,A,112931.00
5.09515,57.68801153,11.98128733,57.68801317,11.98126717,11:29:31.157378,5.09515,0.00535,1.02748,0.00150,-0.03838,-0.01931,0.00434,-0.00323,0.07412,0.95215,5.08946,1.02860,3.00394,3.00484,-1.33754,4.39584,5.06074,-1.28780,4.46633,A,112931.00
5.10471,57.68801160,11.98128729,57.68801317,11.98126717,11:29:31.166932,5.10471,0.00452,1.02748,0.00154,-0.03151,-0.01381,0.00572,-0.04069,0.04923,0.98210,5.10019,1.02849,3.00533,3.00623,-1.33966,4.40386,5.06074,-1.28780,4.46633,A,112931.00
5.11529,57.68801167,11.98128725,57.68801317,11.98126717,11:29:31.177512,5.11529,0.00470,1.02748,0.00130,-0.04174,-0.00740,0.00328,-0.02635,0.03703,1.00028,5.11050,1.02839,3.00671,3.00761,-1.34225,4.41117,5.06074,-1.28780,4.46633,A,112931.00
5.12532,57.68801173,11.98128722,57.68801317,11.98126717,11:29:31.187919,5.12532,0.00434,1.02748,0.00119,-0.03976,-0.01015,0.00404,0.00567,0.04630,1.04328,5.12081,1.02830,3.00807,3.00897,-1.34432,4.41770,5.06074,-1.28780,4.46633,A,112931.00
5.13581,57.68801178,11.98128718,57.68801317,11.98126717,11:29:31.198033,5.13581,0.00444,1.02748,0.00145,-0.04205,-0.00862,0.00266,-0.00152,0.07466,1.05268,5.13129,1.02822,3.00942,3.01032,-1.34662,4.42362,5.06074,-1.28780,4.46633,A,112931.00
5.14622,57.68801183,11.98128715,57.68801317,11.98126717,11:29:31.208440,5.14622,0.00444,1.02748,0.00169,-0.02891,-0.00465,0.00266,-0.03556,0.06246,1.04517,5.14145,1.02814,3.01076,3.01166,-1.34838,4.42890,5.06074,-1.28780,4.46633,A,112931.00
5.15650,57.68801187,11.98128712,57.68801317,11.98126717,11:29:31.218724,5.15650,0.00433,1.02748,0.00167,-0.02326,0.00314,0.00877,-0.02586,0.04130,1.02895,5.15201,1.02808,3.01208,3.01299,-1.35009,4.43366,5.06074,-1.28780,4.46633,A,112931.00
5.17925,57.68801199,11.98128682,57.68801383,11.98126633,11:29:31.241475,5.17925,0.01669,1.02748,0.00151,-0.02418,0.00620,0.01091,-0.07729,0.03160,1.04859,5.16221,1.02802,3.01343,3.01434,-1.36798,4.44682,5.17643,-1.33733,4.54046,A,112931.10
5.19370,57.68801209,11.98128669,57.68801383,11.98126633,11:29:31.255943,5.19370,0.00694,1.02748,0.00153,-0.00891,0.00757,0.02236,0.04679,0.03928,0.91384,5.18827,1.02796,3.01474,3.01592,-1.37567,4.45756,5.17643,-1.33733,4.54046,A,112931.10
5.20173,57.68801217,11.98128666,57.68801383,11.98126633,11:29:31.263958,5.20173,0.00457,1.02748,0.00140,-0.00662,-0.00801,0.02450,0.06527,0.01915,0.88273,5.19699,1.02792,3.01602,3.01742,-1.37755,4.46657,5.17643,-1.33733,4.54046,A,112931.10
5.21226,57.68801224,11.98128659,57.68801383,11.98126633,11:29:31.274476,5.21226,0.00471,1.02748,0.00151,-0.01380,-0.02038,0.01916,-0.00653,0.03953,0.88572,5.20739,1.02787,3.01730,3.01901,-1.38122,4.47492,5.17643,-1.33733,4.54046,A,112931.10
5.22221,57.68801231,11.98128655,57.68801383,11.98126633,11:29:31.284434,5.22221,0.00442,1.02748,0.00202,-0.01212,-0.01977,0.01549,-0.10242,0.06808,0.97716,5.21746,1.02783,3.01856,3.02060,-1.38408,4.48237,5.17643,-1.33733,4.54046,A,112931.10
5.23254,57.68801237,11.98128649,57.68801383,11.98126633,11:29:31.294761,5.23254,0.00435,1.02748,0.00243,-0.00540,0.00956,0.00832,-0.09223,0.06448,1.06994,5.22805,1.02780,3.01983,3.02224,-1.38723,4.48913,5.17643,-1.33733,4.54046,A,112931.10
5.24300,57.68801243,11.98128645,57.68801383,11.98126633,11:29:31.305225,5.24300,0.00442,1.02748,0.00285,0.00117,0.02361,0.00328,0.00037,0.06259,1.08549,5.23822,1.02777,3.02109,3.02386,-1.38993,4.49518,5.17643,-1.33733,4.54046,A,112931.10
5.25331,57.68801248,11.98128641,57.68801383,11.98126633,11:29:31.315762,5.25331,0.00434,1.02748,0.00283,0.00254,0.01337,0.00266,0.11560,0.02946,1.01968,5.24882,1.02774,3.02234,3.02549,-1.39247,4.50063,5.17643,-1.33733,4.54046,A,112931.10
5.26378,57.68801252,11.98128636,57.68801383,11.98126633,11:29:31.326002,5.26378,0.00442,1.02748,0.00286,0.00758,-0.01289,0.00862,0.04587,0.03001,1.00003,5.25927,1.02771,3.02358,3.02712,-1.39491,4.50554,5.17643,-1.33733,4.54046,A,112931.10
5.27422,57.68801256,11.98128633,57.68801383,11.98126633,11:29:31.336443,5.27422,0.00443,1.02748,0.00298,0.00209,-0.01793,0.01366,-0.17495,0.04331,1.06756,5.26947,1.02769,3.02482,3.02876,-1.39684,4.50992,5.17643,-1.33733,4.54046,A,112931.10
5.29798,57.68801271,11.98128603,57.68801483,11.98126567,11:29:31.360205,5.29798,0.01779,1.02748,0.00347,0.01232,0.01398,0.02160,-0.16555,0.06149,1.04444,5.28003,1.02767,3.02622,3.03055,-1.41470,4.52634,5.29485,-1.37696,4.65165,A,112931.20
5.30978,57.68801283,11.98128595,57.68801483,11.98126567,11:29:31.372013,5.30978,0.00586,1.02748,0.00429,0.02133,0.01353,0.02939,0.09620,0.05447,0.91616,5.30490,1.02765,3.02746,3.03252,-1.41977,4.53986,5.29485,-1.37696,4.65165,A,112931.20
5.31865,57.68801293,11.98128591,57.68801483,11.98126567,11:29:31.380869,5.31865,0.00450,1.02748,0.00481,0.02347,-0.00434,0.03199,-0.01263,0.05777,0.95288,5.31384,1.02763,3.02866,3.03388,-1.42173,4.55172,5.29485,-1.37696,4.65165,A,112931.20
5.32889,57.68801303,11.98128586,57.68801483,11.98126567,11:29:31.391105,5.32889,0.00435,1.02748,0.00545,0.02255,0.00665,0.02847,-0.15494,0.06856,1.02931,5.32440,1.02762,3.02988,3.03522,-1.42501,4.56255,5.29485,-1.37696,4.65165,A,112931.20
5.33931,57.68801312,11.98128581,57.68801483,11.98126567,11:29:31.401539,5.33931,0.00438,1.02748,0.00560,0.02331,0.02681,0.02252,-0.10760,0.03538,1.01638,5.33458,1.02761,3.03108,3.03646,-1.42790,4.57229,5.29485,-1.37696,4.65165,A,112931.20
5.35095,57.68801320,11.98128575,57.68801483,11.98126567,11:29:31.413174,5.35095,0.00458,1.02748,0.00592,0.01079,0.03552,0.01748,0.08589,0.05179,0.94587,5.34614,1.02759,3.03230,3.03767,-1.43155,4.58115,5.29485,-1.37696,4.65165,A,112931.20
5.36111,57.68801327,11.98128571,57.68801483,11.98126567,11:29:31.423576,5.36111,0.00435,1.02748,0.00657,0.01507,0.02116,0.00969,0.08082,0.07125,0.94544,5.35662,1.02758,3.03348,3.03885,-1.43378,4.58900,5.29485,-1.37696,4.65165,A,112931.20
5.37168,57.68801333,11.98128567,57.68801483,11.98126567,11:29:31.433895,5.37168,0.00440,1.02748,0.00736,0.00728,0.01368,0.01030,-0.06204,0.08955,0.99320,5.36695,1.02757,3.03465,3.04003,-1.43611,4.59609,5.29485,-1.37696,4.65165,A,112931.20
5.38239,57.68801339,11.98128564,57.68801483,11.98126567,11:29:31.444624,5.38239,0.00461,1.02748,0.00775,0.01369,0.03857,0.00938,-0.16305,0.06161,1.05658,5.37745,1.02756,3.03581,3.04119,-1.43799,4.60244,5.29485,-1.37696,4.65165,A,112931.20
5.39246,57.68801344,11.98128561,57.68801483,11.98126567,11:29:31.454676,5.39246,0.00435,0.95411,0.00751,0.01094,0.06301,0.00480,-0.04892,0.01995,1.06543,5.38796,1.02022,3.03696,3.04233,-1.43948,4.60813,5.29485,-1.37696,4.65165,A,112931.20
5.42773,57.68801364,11.98128502,57.68801617,11.98126383,11:29:31.489958,5.42773,0.02923,0.95411,0.00688,0.01018,0.05018,-0.00070,0.09919,-0.00659,1.03249,5.39815,1.01361,3.03851,3.04389,-1.47475,4.63036,5.42474,-1.48592,4.79991,A,112931.40
5.44029,57.68801380,11.98128484,57.68801617,11.98126383,11:29:31.502521,5.44029,0.00590,0.95411,0.00801,0.01156,-0.00816,0.01519,-0.11822,0.09144,1.03798,5.43571,1.00766,3.03967,3.04504,-1.48558,4.64826,5.42474,-1.48592,4.79991,A,112931.40
5.44983,57.68801395,11.98128473,57.68801617,11.98126383,11:29:31.512056,5.44983,0.00504,0.95411,0.00824,0.01217,-0.00297,0.01931,-0.05325,0.05215,1.01553,5.44505,1.00230,3.04076,3.04613,-1.49233,4.66408,5.42474,-1.48592,4.79991,A,112931.40
5.45955,57.68801407,11.98128462,57.68801617,11.98126383,11:29:31.521769,5.45955,0.00437,0.95411,0.00841,0.01553,-0.00434,0.02099,0.09113,0.04386,0.96850,5.45482,0.99749,3.04185,3.04722,-1.49878,4.67834,5.42474,-1.48592,4.79991,A,112931.40
5.47013,57.68801419,11.98128451,57.68801617,11.98126383,11:29:31.532353,5.47013,0.00443,0.95411,0.00838,0.00926,-0.02022,0.01855,0.10175,0.03440,0.95563,5.46536,0.99315,3.04293,3.04830,-1.50509,4.69122,5.42474,-1.48592,4.79991,A,112931.40
5.48041,57.68801429,11.98128442,57.68801617,11.98126383,11:29:31.542638,5.48041,0.00432,0.95411,0.00875,0.00850,-0.03091,0.01824,-0.04862,0.06051,0.95874,5.47592,0.98924,3.04400,3.04938,-1.51071,4.70279,5.42474,-1.48592,4.79991,A,112931.40
5.49102,57.68801439,11.98128433,57.68801617,11.98126383,11:29:31.553241,5.49102,0.00452,0.95411,0.00897,0.00728,-0.01244,0.00969,-0.17806,0.05331,0.98375,5.48615,0.98573,3.04506,3.05043,-1.51569,4.71319,5.42474,-1.48592,4.79991,A,112931.40
5.50246,57.68801447,11.98128425,57.68801617,11.98126383,11:29:31.564693,5.50246,0.00556,0.95411,0.00897,0.00850,0.01414,0.00037,-0.15671,0.03788,1.01510,5.49746,0.98257,3.04612,3.05150,-1.52079,4.72260,5.42474,-1.48592,4.79991,A,112931.40
5.51193,57.68801455,11.98128419,57.68801617,11.98126383,11:29:31.574162,5.51193,0.00464,0.95411,0.00921,0.01583,0.02742,-0.00344,-0.00305,0.05039,0.99235,5.50693,0.97972,3.04715,3.05252,-1.52392,4.73093,5.42474,-1.48592,4.79991,A,112931.40
5.52231,57.68801461,11.98128413,57.68801617,11.98126383,11:29:31.584533,5.52231,0.00446,0.95411,0.00905,0.00743,0.01597,-0.00253,0.10590,0.02867,0.98009,5.51752,0.97716,3.04817,3.05355,-1.52764,4.73850,5.42474,-1.48592,4.79991,A,112931.40
5.54516,57.68801475,11.98128379,57.68801683,11.98126283,11:29:31.607532,5.54516,0.01691,0.95411,0.00906,0.01156,-0.00434,0.00037,0.01885,0.03672,1.00839,5.52808,0.97486,3.04940,3.05477,-1.54792,4.75369,5.54246,-1.54536,4.87404,A,112931.50
5.55999,57.68801487,11.98128360,57.68801683,11.98126283,11:29:31.622218,5.55999,0.00489,0.95411,0.00981,0.02377,0.02391,0.01290,-0.06228,0.05270,1.01327,5.55543,0.97278,3.05047,3.05585,-1.55900,4.76671,5.54246,-1.54536,4.87404,A,112931.50
5.57009,57.68801497,11.98128351,57.68801683,11.98126283,11:29:31.632305,5.57009,0.00445,0.95411,0.00994,0.02622,0.01811,0.01626,0.08156,0.03648,0.98582,5.56530,0.97092,3.05146,3.05683,-1.56461,4.77805,5.54246,-1.54536,4.87404,A,112931.50
5.58034,57.68801506,11.98128342,57.68801683,11.98126283,11:29:31.642568,5.58034,0.00432,0.95411,0.00985,0.02377,0.00039,0.01687,0.05667,0.02263,0.98210,5.57586,0.96924,3.05244,3.05782,-1.57004,4.78827,5.54246,-1.54536,4.87404,A,112931.50
5.59086,57.68801514,11.98128334,57.68801683,11.98126283,11:29:31.653081,5.59086,0.00445,0.95411,0.01024,0.02225,-0.01167,0.01412,-0.02306,0.05502,0.96972,5.58607,0.96772,3.05342,3.05879,-1.57488,4.79746,5.54246,-1.54536,4.87404,A,112931.50
5.60157,57.68801522,11.98128326,57.68801683,11.98126283,11:29:31.663813,5.60157,0.00476,0.95411,0.01061,0.02515,-0.00404,0.01030,-0.08680,0.04978,0.94080,5.59684,0.96636,3.05438,3.05976,-1.57944,4.80574,5.54246,-1.54536,4.87404,A,112931.50
5.61155,57.68801529,11.98128319,57.68801683,11.98126283,11:29:31.673767,5.61155,0.00435,0.95411,0.01089,0.02576,0.00513,0.00725,-0.08723,0.04673,0.96429,5.60686,0.96514,3.05533,3.06071,-1.58331,4.81317,5.54246,-1.54536,4.87404,A,112931.50
5.62216,57.68801535,11.98128313,57.68801683,11.98126283,11:29:31.684386,5.62216,0.00443,0.95411,0.01106,0.03064,0.00375,0.00602,-0.03239,0.03556,0.97685,5.61739,0.96404,3.05628,3.06165,-1.58689,4.81986,5.54246,-1.54536,4.87404,A,112931.50
5.63245,57.68801540,11.98128308,57.68801683,11.98126283,11:29:31.694669,5.63245,0.00432,0.95411,0.01118,0.02942,0.00513,-0.00222,0.07564,0.03331,0.96435,5.62796,0.96304,3.05721,3.06258,-1.59007,4.82586,5.54246,-1.54536,4.87404,A,112931.50
5.64294,57.68801545,11.98128303,57.68801683,11.98126283,11:29:31.705158,5.64294,0.00442,0.95411,0.01128,0.03278,-0.00526,-0.00329,0.05264,0.03099,0.98192,5.63817,0.96215,3.05814,3.06346,-1.59286,4.83125,5.54246,-1.54536,4.87404,A,112931.50
5.66641,57.68801557,11.98128269,57.68801750,11.98126167,11:29:31.728634,5.66641,0.01748,0.95411,0.01201,0.02942,-0.00938,-0.00146,-0.03294,0.07320,0.97545,5.64876,0.96135,3.05925,3.06451,-1.61322,4.84437,5.66304,-1.61471,4.94817,A,112931.60
5.67629,57.68801566,11.98128257,57.68801750,11.98126167,11:29:31.738511,5.67629,0.00444,0.95411,0.01280,0.03813,0.02101,-0.00467,-0.04673,0.04142,1.01095,5.67177,0.96062,3.06015,3.06517,-1.62032,4.85529,5.66304,-1.61471,4.94817,A,112931.60
5.68654,57.68801575,11.98128246,57.68801750,11.98126167,11:29:31.748767,5.68654,0.00445,0.95411,0.01253,0.04271,0.01612,-0.00726,0.04233,0.00006,1.04267,5.68177,0.95997,3.06103,3.06588,-1.62679,4.86511,5.66304,-1.61471,4.94817,A,112931.60
5.69698,57.68801583,11.98128236,57.68801750,11.98126167,11:29:31.759199,5.69698,0.00450,0.95411,0.01284,0.03553,0.01062,-0.00070,0.06649,0.04252,1.02706,5.69248,0.95939,3.06191,3.06653,-1.63302,4.87398,5.66304,-1.61471,4.94817,A,112931.60
5.70724,57.68801590,11.98128227,57.68801750,11.98126167,11:29:31.769457,5.70724,0.00442,0.95411,0.01342,0.03904,-0.00877,0.00098,0.01995,0.05966,1.02950,5.70247,0.95886,3.06277,3.06712,-1.63822,4.88193,5.66304,-1.61471,4.94817,A,112931.60
5.71766,57.68801597,11.98128219,57.68801750,11.98126167,11:29:31.779891,5.71766,0.00463,0.95411,0.01431,0.04531,-0.00694,0.00190,-0.09772,0.07716,1.05140,5.71289,0.95839,3.06363,3.06768,-1.64305,4.88909,5.66304,-1.61471,4.94817,A,112931.60
5.72778,57.68801603,11.98128211,57.68801750,11.98126167,11:29:31.789995,5.72778,0.00435,0.95411,0.01522,0.04424,-0.00129,0.00450,-0.08174,0.07704,1.01974,5.72327,0.95796,3.06447,3.06823,-1.64757,4.89554,5.66304,-1.61471,4.94817,A,112931.60
5.73821,57.68801608,11.98128205,57.68801750,11.98126167,11:29:31.800435,5.73821,0.00442,0.95411,0.01569,0.05080,0.00329,0.00328,0.04416,0.04117,0.94825,5.73346,0.95757,3.06529,3.06876,-1.65147,4.90134,5.66304,-1.61471,4.94817,A,112931.60
5.74851,57.68801613,11.98128199,57.68801750,11.98126167,11:29:31.810721,5.74851,0.00432,0.95411,0.01583,0.04347,-0.01748,0.00053,0.11755,0.02257,0.89066,5.74402,0.95723,3.06611,3.06927,-1.65510,4.90655,5.66304,-1.61471,4.94817,A,112931.60
5.75927,57.68801617,11.98128193,57.68801750,11.98126167,11:29:31.821489,5.75927,0.00482,0.95411,0.01664,0.03416,-0.04176,-0.00619,0.02568,0.07174,0.94227,5.75422,0.95692,3.06691,3.06976,-1.65849,4.91125,5.66304,-1.61471,4.94817,A,112931.60
5.78188,57.68801628,11.98128160,57.68801817,11.98126067,11:29:31.844104,5.78188,0.01702,0.95411,0.01747,0.02973,-0.04283,-0.01139,-0.09913,0.08241,1.04072,5.76473,0.95664,3.06780,3.07027,-1.67786,4.92364,5.77904,-1.67414,5.02230,A,112931.70
5.79277,57.68801637,11.98128148,57.68801817,11.98126067,11:29:31.854994,5.79277,0.00444,0.95411,0.01811,0.03202,0.00375,-0.01963,0.03581,0.03471,0.97258,5.78825,0.95638,3.06858,3.07013,-1.68528,4.93406,5.77904,-1.67414,5.02230,A,112931.70
5.80417,57.68801646,11.98128136,57.68801817,11.98126067,11:29:31.866397,5.80417,0.00524,0.95411,0.01862,0.02362,-0.00037,-0.02452,0.03709,0.05722,0.96453,5.79943,0.95616,3.06934,3.07045,-1.69219,4.94346,5.77904,-1.67414,5.02230,A,112931.70
5.81419,57.68801653,11.98128128,57.68801817,11.98126067,11:29:31.876415,5.81419,0.00486,0.95411,0.01899,0.02515,-0.01106,-0.02971,-0.04691,0.04965,0.99143,5.80914,0.95595,3.07008,3.07079,-1.69696,4.95181,5.77904,-1.67414,5.02230,A,112931.70
5.82407,57.68801660,11.98128120,57.68801817,11.98126067,11:29:31.886286,5.82407,0.00435,0.95411,0.01961,0.03095,0.00268,-0.02452,-0.13780,0.06326,1.03444,5.81956,0.95577,3.07080,3.07112,-1.70159,4.95935,5.77904,-1.67414,5.02230,A,112931.70
5.83462,57.68801666,11.98128113,57.68801817,11.98126067,11:29:31.896847,5.83462,0.00467,0.95411,0.02022,0.02728,0.01627,-0.01963,-0.07686,0.06454,1.02578,5.82963,0.95560,3.07151,3.07145,-1.70592,4.96615,5.77904,-1.67414,5.02230,A,112931.70
5.84469,57.68801672,11.98128107,57.68801817,11.98126067,11:29:31.906906,5.84469,0.00434,0.95411,0.02041,0.02942,0.00940,-0.01719,0.04703,0.03263,0.99613,5.84019,0.95545,3.07221,3.07177,-1.70983,4.97226,5.77904,-1.67414,5.02230,A,112931.70
5.85515,57.68801677,11.98128101,57.68801817,11.98126067,11:29:31.917373,5.85515,0.00441,0.95411,0.02068,0.02988,-0.00404,-0.01261,0.06246,0.03410,0.93190,5.85039,0.95532,3.07290,3.07209,-1.71346,4.97777,5.77904,-1.67414,5.02230,A,112931.70
5.86573,57.68801681,11.98128095,57.68801817,11.98126067,11:29:31.927965,5.86573,0.00458,0.95411,0.02143,0.03141,-0.00816,-0.00818,-0.02946,0.06228,0.92714,5.86097,0.95520,3.07358,3.07238,-1.71682,4.98273,5.77904,-1.67414,5.02230,A,112931.70
5.87590,57.68801685,11.98128090,57.68801817,11.98126067,11:29:31.938112,5.87590,0.00435,0.95411,0.02258,0.03416,0.00192,-0.00818,-0.10492,0.08754,0.95648,5.87139,0.95509,3.07424,3.07264,-1.71974,4.98719,5.77904,-1.67414,5.02230,A,112931.70
5.92313,57.68801706,11.98128014,57.68801967,11.98125867,11:29:31.985356,5.92313,0.04133,0.95411,0.02312,0.03736,0.00757,-0.01719,-0.06899,0.04660,0.95331,5.88147,0.95499,3.07472,3.07269,-1.76488,5.00999,5.91900,-1.79302,5.18910,A,112931.90
5.93311,57.68801722,11.98127997,57.68801967,11.98125867,11:29:31.995643,5.93311,0.00449,0.95411,0.02386,-0.00494,-0.02389,-0.03994,-0.10108,0.10340,1.04749,5.92859,0.95491,3.07536,3.07116,-1.77469,5.02838,5.91900,-1.79302,5.18910,A,112931.90
5.94342,57.68801737,11.98127983,57.68801967,11.98125867,11:29:32.005645,5.94342,0.00441,0.95411,0.02484,-0.00555,-0.00205,-0.04682,-0.18617,0.11303,1.09288,5.93867,0.95483,3.07596,3.07132,-1.78359,5.04495,5.91900,-1.79302,5.18910,A,112931.90
5.95400,57.68801750,11.98127969,57.68801967,11.98125867,11:29:32.016234,5.95400,0.00444,0.95411,0.02463,0.00316,0.02513,-0.05354,-0.07503,0.01867,1.08263,5.94923,0.95476,3.07655,3.07148,-1.79181,5.05988,5.91900,-1.79302,5.18910,A,112931.90
5.96438,57.68801763,11.98127956,57.68801967,11.98125867,11:29:32.026605,5.96438,0.00448,0.95411,0.02401,-0.01105,0.02788,-0.05140,0.09376,-0.00268,0.97893,5.95985,0.95469,3.07713,3.07169,-1.79925,5.07331,5.91900,-1.79302,5.18910,A,112931.90
5.97462,57.68801773,11.98127946,57.68801967,11.98125867,11:29:32.036833,5.97462,0.00448,0.95411,0.02350,-0.00937,0.00726,-0.04712,0.12102,-0.00018,0.90146,5.96982,0.95463,3.07769,3.07194,-1.80559,5.08538,5.91900,-1.79302,5.18910,A,112931.90
5.98487,57.68801783,11.98127935,57.68801967,11.98125867,11:29:32.047087,5.98487,0.00434,0.95411,0.02413,-0.01013,-0.01671,-0.03826,-0.05673,0.06991,0.91402,5.98037,0.95458,3.07825,3.07222,-1.81157,5.09626,5.91900,-1.79302,5.18910,A,112931.90
5.99549,57.68801792,11.98127926,57.68801967,11.98125867,11:29:32.057710,5.99549,0.00456,0.95411,0.02536,-0.00387,-0.00281,-0.02360,-0.14707,0.10748,0.94965,5.99057,0.95453,3.07879,3.07256,-1.81690,5.10604,5.91900,-1.79302,5.18910,A,112931.90
6.00603,57.68801800,11.98127918,57.68801967,11.98125867,11:29:32.068253,6.00603,0.00471,0.95411,0.02633,0.00224,0.01414,-0.01963,-0.09833,0.09431,1.01278,6.00114,0.95449,3.07933,3.07293,-1.82167,5.11484,5.91900,-1.79302,5.18910,A,112931.90
6.01625,57.68801807,11.98127911,57.68801967,11.98125867,11:29:32.078471,6.01625,0.00454,0.95411,0.02660,0.00575,0.02605,-0.01734,0.07009,0.04654,1.03499,6.01175,0.95445,3.07986,3.07334,-1.82601,5.12276,5.91900,-1.79302,5.18910,A,112931.90
6.03877,57.68801824,11.98127887,57.68802067,11.98125867,11:29:32.100994,6.03877,0.01683,0.95411,0.02679,-0.00112,0.00100,-0.02208,0.11218,0.04483,1.03078,6.02162,0.95442,3.08015,3.07351,-1.84037,5.14172,6.03590,-1.79302,5.30029,A,112932.00
6.05475,57.68801839,11.98127875,57.68802067,11.98125867,11:29:32.118285,6.05475,0.00462,0.95411,0.02717,-0.01471,-0.00495,-0.04010,-0.17428,0.08918,1.06238,6.04991,0.95439,3.08056,3.07365,-1.84750,5.15839,6.03590,-1.79302,5.30029,A,112932.00
6.06764,57.68801852,11.98127871,57.68802067,11.98125867,11:29:32.129879,6.06764,0.00693,0.95411,0.02696,-0.01425,0.01490,-0.04376,-0.02153,0.02361,0.94568,6.06100,0.95436,3.08106,3.07409,-1.84971,5.17310,6.03590,-1.79302,5.30029,A,112932.00
6.07547,57.68801864,11.98127872,57.68802067,11.98125867,11:29:32.137702,6.07547,0.00437,0.95411,0.02682,-0.02785,0.00635,-0.04376,0.11797,0.03209,0.89975,6.07075,0.95434,3.08161,3.07462,-1.84900,5.18615,6.03590,-1.79302,5.30029,A,112932.00
6.08608,57.68801875,11.98127870,57.68802067,11.98125867,11:29:32.148602,6.08608,0.00444,0.95411,0.02708,-0.03258,-0.01610,-0.03903,0.07119,0.06393,0.93836,6.08128,0.95432,3.08211,3.07511,-1.85069,5.19806,6.03590,-1.79302,5.30029,A,112932.00
6.09635,57.68801884,11.98127867,57.68802067,11.98125867,11:29:32.158572,6.09635,0.00433,1.04822,0.02775,-0.02953,-0.02923,-0.03719,-0.09113,0.09833,1.02925,6.09185,0.96371,3.08260,3.07561,-1.85217,5.20876,6.03590,-1.79302,5.30029,A,112932.00
