Time,lat_estimated,lon_estimated,latitude,longitude,RealTime,CalculationTime,MeasuredVelocity,Roll,SteeringAngle,RollRate,gy,gz,ax,ay,az,imu_read_timing,v_estimated,yaw_estimated,heading_estimated,x_estimated,y_estimated,GPS_timestamp,x_GPS,y_GPS,status,NMEA timestamp
0.04776,57.68798310,11.98128878,57.68798433,11.98128467,11:32:23.982192,0.04776,0.04770,0.00000,-0.00013,-0.04303,0.00240,-0.00183,-0.02538,0.04020,0.99204,0.00001,0.00000,0.00000,0.01450,0.24468,-0.13714,0.01374,2.44682,-1.37140,A,113223.80
0.06330,57.68798199,11.98129249,57.68798433,11.98128467,11:32:23.997651,0.06330,0.00701,0.00000,-0.00112,-0.02470,0.00576,-0.00519,-0.02257,0.04959,1.00131,0.05822,0.00000,-0.00015,0.01436,0.46490,-0.26057,0.01374,2.44682,-1.37140,A,113223.80
0.07146,57.68798099,11.98129582,57.68798433,11.98128467,11:32:24.005797,0.07146,0.00477,0.00000,-0.00103,-0.02103,0.00652,-0.00748,-0.02092,0.03654,0.99595,0.06618,0.00000,-0.00029,0.01421,0.66309,-0.37165,0.01374,2.44682,-1.37140,A,113223.80
0.08167,57.68798009,11.98129882,57.68798433,11.98128467,11:32:24.016010,0.08167,0.00459,0.00000,-0.00110,-0.02424,0.00362,-0.00503,-0.01952,0.03196,0.99290,0.07675,0.00000,-0.00043,0.01407,0.84146,-0.47163,0.01374,2.44682,-1.37140,A,113223.80
0.09182,57.68797928,11.98130152,57.68798433,11.98128467,11:32:24.026154,0.09182,0.00434,0.00000,-0.00110,-0.02455,0.00209,-0.00656,-0.01958,0.03666,0.98924,0.08716,0.00000,-0.00057,0.01393,1.00200,-0.56160,0.01374,2.44682,-1.37140,A,113223.80
0.10211,57.68797855,11.98130396,57.68798433,11.98128467,11:32:24.036445,0.10211,0.00441,0.00000,-0.00097,-0.01997,0.00408,-0.00839,-0.02147,0.04124,0.98954,0.09720,0.00000,-0.00071,0.01379,1.14648,-0.64258,0.01374,2.44682,-1.37140,A,113223.80
0.11243,57.68797790,11.98130614,57.68798433,11.98128467,11:32:24.046766,0.11243,0.00434,0.00000,-0.00081,-0.02119,0.00820,-0.01175,-0.02257,0.04490,0.99143,0.10778,0.00000,-0.00085,0.01365,1.27651,-0.71547,0.01374,2.44682,-1.37140,A,113223.80
0.14413,57.68797728,11.98130810,57.68798400,11.98128450,11:32:24.078464,0.14413,0.02564,0.00000,-0.00049,-0.01630,0.00835,-0.01466,-0.01995,0.05228,0.99369,0.11798,0.00000,-0.00099,0.01352,1.39255,-0.78477,0.14146,2.43692,-1.40847,A,113224.00
0.15719,57.68797671,11.98130985,57.68798400,11.98128450,11:32:24.091780,0.15719,0.00612,0.00000,-0.00078,-0.01599,0.00560,-0.01145,-0.00732,0.03776,1.00003,0.15247,0.00000,-0.00112,0.01338,1.49699,-0.84714,0.14146,2.43692,-1.40847,A,113224.00
0.16604,57.68797621,11.98131143,57.68798400,11.98128450,11:32:24.100382,0.16604,0.00443,0.00000,-0.00060,-0.01172,0.00163,-0.01252,-0.00683,0.03892,1.00186,0.16113,0.00000,-0.00125,0.01325,1.59098,-0.90327,0.14146,2.43692,-1.40847,A,113224.00
0.17632,57.68797576,11.98131286,57.68798400,11.98128450,11:32:24.110656,0.17632,0.00431,0.00000,-0.00040,-0.01569,0.00011,-0.00992,0.00116,0.04465,1.00388,0.17169,0.00000,-0.00139,0.01311,1.67558,-0.95379,0.14146,2.43692,-1.40847,A,113224.00
0.18682,57.68797535,11.98131414,57.68798400,11.98128450,11:32:24.121156,0.18682,0.00441,0.00000,-0.00021,-0.01355,0.00163,-0.00687,0.00006,0.04264,1.00516,0.18190,0.00000,-0.00152,0.01298,1.75171,-0.99926,0.14146,2.43692,-1.40847,A,113224.00
0.19713,57.68797498,11.98131529,57.68798400,11.98128450,11:32:24.131778,0.19713,0.00433,0.00000,0.00010,-0.00729,-0.00173,-0.00656,-0.00073,0.04679,1.00113,0.19249,0.00000,-0.00165,0.01285,1.82023,-1.04018,0.14146,2.43692,-1.40847,A,113224.00
0.20837,57.68797465,11.98131633,57.68798400,11.98128450,11:32:24.142704,0.20837,0.00516,0.00000,0.00034,-0.01264,0.00148,-0.00733,-0.01385,0.04636,0.99284,0.20372,0.00000,-0.00178,0.01272,1.88190,-1.07701,0.14146,2.43692,-1.40847,A,113224.00
0.21810,57.68797435,11.98131726,57.68798400,11.98128450,11:32:24.152435,0.21810,0.00442,0.00000,0.00072,-0.00469,0.00270,-0.00977,-0.01665,0.04849,0.98436,0.21318,0.00000,-0.00190,0.01260,1.93740,-1.11015,0.14146,2.43692,-1.40847,A,113224.00
0.22856,57.68797408,11.98131810,57.68798400,11.98128450,11:32:24.162897,0.22856,0.00450,0.00000,0.00102,0.00004,-0.00051,-0.00595,-0.00555,0.04093,0.97759,0.22391,0.00000,-0.00203,0.01247,1.98735,-1.13999,0.14146,2.43692,-1.40847,A,113224.00
0.23902,57.68797384,11.98131886,57.68798400,11.98128450,11:32:24.173356,0.23902,0.00456,0.00000,0.00120,0.00309,0.00194,-0.00824,0.00384,0.03172,0.98411,0.23394,0.00000,-0.00215,0.01235,2.03231,-1.16683,0.14146,2.43692,-1.40847,A,113224.00
0.26073,57.68797361,11.98131949,57.68798383,11.98128400,11:32:24.195067,0.26073,0.01582,0.00000,0.00138,0.00141,0.00056,-0.00305,0.00543,0.03324,0.99753,0.24458,0.00000,-0.00228,0.01222,2.06980,-1.19285,0.25808,2.40720,-1.42700,A,113224.10
0.27527,57.68797340,11.98132006,57.68798383,11.98128400,11:32:24.209612,0.27527,0.00607,0.00000,0.00192,0.00539,0.00301,-0.00229,0.00079,0.04978,1.01370,0.26959,0.00000,-0.00240,0.01210,2.10354,-1.21627,0.25808,2.40720,-1.42700,A,113224.10
0.28391,57.68797321,11.98132057,57.68798383,11.98128400,11:32:24.218250,0.28391,0.00432,0.00000,0.00234,0.00997,-0.00020,-0.00442,0.00220,0.04477,1.00357,0.27927,0.00000,-0.00252,0.01198,2.13390,-1.23734,0.25808,2.40720,-1.42700,A,113224.10
0.29431,57.68797304,11.98132103,57.68798383,11.98128400,11:32:24.228643,0.29431,0.00448,0.00000,0.00272,0.01210,-0.00096,-0.00733,0.01159,0.04056,0.99619,0.28936,0.00000,-0.00264,0.01186,2.16123,-1.25631,0.25808,2.40720,-1.42700,A,113224.10
0.30454,57.68797288,11.98132144,57.68798383,11.98128400,11:32:24.238872,0.30454,0.00432,0.00000,0.00321,0.01378,-0.00280,-0.00519,0.01720,0.04642,0.98430,0.29992,0.00000,-0.00276,0.01174,2.18583,-1.27338,0.25808,2.40720,-1.42700,A,113224.10
0.31503,57.68797274,11.98132181,57.68798383,11.98128400,11:32:24.249371,0.31503,0.00442,0.00000,0.00361,0.01760,-0.00356,-0.00610,0.00360,0.03867,0.99015,0.31011,0.00000,-0.00288,0.01162,2.20797,-1.28874,0.25808,2.40720,-1.42700,A,113224.10
0.32581,57.68797262,11.98132215,57.68798383,11.98128400,11:32:24.260149,0.32581,0.00480,0.00000,0.00418,0.01638,-0.00555,-0.00458,-0.01458,0.05136,0.99967,0.32084,0.00000,-0.00299,0.01151,2.22789,-1.30256,0.25808,2.40720,-1.42700,A,113224.10
0.33577,57.68797251,11.98132245,57.68798383,11.98128400,11:32:24.270111,0.33577,0.00437,0.00000,0.00484,0.02447,0.00652,-0.00335,-0.01659,0.05319,1.00473,0.33111,0.00000,-0.00311,0.01139,2.24582,-1.31501,0.25808,2.40720,-1.42700,A,113224.10
0.34611,57.68797241,11.98132272,57.68798383,11.98128400,11:32:24.280449,0.34611,0.00442,0.00000,0.00537,0.02356,0.00652,-0.00565,0.00518,0.04514,0.99351,0.34120,0.00000,-0.00322,0.01128,2.26196,-1.32621,0.25808,2.40720,-1.42700,A,113224.10
0.35640,57.68797232,11.98132297,57.68798383,11.98128400,11:32:24.290731,0.35640,0.00431,0.00000,0.00575,0.01944,0.00194,-0.00458,0.02769,0.03758,0.98314,0.35177,0.00000,-0.00333,0.01118,2.27648,-1.33629,0.25808,2.40720,-1.42700,A,113224.10
0.37908,57.68797223,11.98132315,57.68798383,11.98128367,11:32:24.313418,0.37908,0.01660,0.00000,0.00618,0.02325,-0.00249,0.00123,0.00628,0.03904,0.98460,0.36197,0.00000,-0.00345,0.01111,2.28757,-1.34536,0.37622,2.38738,-1.42700,A,113224.20
0.38908,57.68797216,11.98132332,57.68798383,11.98128367,11:32:24.323652,0.38908,0.00447,0.00000,0.00695,0.02310,0.00240,0.00077,-0.03977,0.04416,0.99009,0.38442,0.00000,-0.00356,0.01134,2.29755,-1.35352,0.37622,2.38738,-1.42700,A,113224.20
0.39935,57.68797209,11.98132347,57.68798383,11.98128367,11:32:24.333687,0.39935,0.00436,0.00000,0.00746,0.02692,0.00698,-0.00076,-0.00433,0.04404,0.98765,0.39449,0.00000,-0.00367,0.01148,2.30654,-1.36087,0.37622,2.38738,-1.42700,A,113224.20
0.40995,57.68797204,11.98132361,57.68798383,11.98128367,11:32:24.344289,0.40995,0.00442,0.00000,0.00790,0.02356,0.00606,-0.00656,0.01311,0.04075,0.98850,0.40503,0.00000,-0.00379,0.01168,2.31462,-1.36748,0.37622,2.38738,-1.42700,A,113224.20
0.42040,57.68797198,11.98132373,57.68798383,11.98128367,11:32:24.354731,0.42040,0.00448,0.00000,0.00844,0.02585,-0.00035,-0.00748,-0.01311,0.04752,1.01205,0.41573,0.00000,-0.00390,0.01190,2.32190,-1.37344,0.37622,2.38738,-1.42700,A,113224.20
0.43195,57.68797193,11.98132384,57.68798383,11.98128367,11:32:24.366294,0.43195,0.00563,0.00000,0.00918,0.02539,0.00606,-0.00626,-0.04636,0.06356,1.03993,0.42652,0.00000,-0.00402,0.01216,2.32845,-1.37879,0.37622,2.38738,-1.42700,A,113224.20
0.44104,57.68797189,11.98132394,57.68798383,11.98128367,11:32:24.375599,0.44104,0.00433,0.00000,0.00981,0.03272,0.00560,-0.01252,-0.02721,0.05313,1.03907,0.43640,0.00000,-0.00414,0.01241,2.33434,-1.38361,0.37622,2.38738,-1.42700,A,113224.20
0.45147,57.68797185,11.98132403,57.68798383,11.98128367,11:32:24.385807,0.45147,0.00436,0.00000,0.01021,0.02875,0.00713,-0.00580,0.00458,0.03855,1.01266,0.44661,0.00000,-0.00427,0.01267,2.33964,-1.38795,0.37622,2.38738,-1.42700,A,113224.20
0.46221,57.68797182,11.98132411,57.68798383,11.98128367,11:32:24.396559,0.46221,0.00459,0.00000,0.01056,0.02707,-0.00142,0.00001,0.02281,0.03495,0.98228,0.45715,0.00000,-0.00439,0.01293,2.34442,-1.39186,0.37622,2.38738,-1.42700,A,113224.20
0.47302,57.68797178,11.98132418,57.68798383,11.98128367,11:32:24.407590,0.47302,0.00500,0.00000,0.01126,0.02692,-0.00325,0.00001,-0.00317,0.05710,0.96331,0.46814,0.00000,-0.00452,0.01320,2.34871,-1.39537,0.37622,2.38738,-1.42700,A,113224.20
0.49429,57.68797179,11.98132421,57.68798417,11.98128333,11:32:24.428626,0.49429,0.01587,0.00000,0.01206,0.03532,-0.00127,-0.00045,-0.03416,0.06051,0.96124,0.47791,0.00000,-0.00466,0.01342,2.35060,-1.39483,0.49141,2.36757,-1.38994,A,113224.30
0.50891,57.68797179,11.98132424,57.68798417,11.98128333,11:32:24.443497,0.50891,0.00607,0.00000,0.01340,0.04158,0.00255,0.00398,0.00152,0.05234,0.98497,0.50331,0.00000,-0.00479,0.01411,2.35230,-1.39434,0.49141,2.36757,-1.38994,A,113224.30
0.51932,57.68797180,11.98132427,57.68798417,11.98128333,11:32:24.453658,0.51932,0.00593,0.00000,0.01415,0.04005,0.00041,0.00352,0.00689,0.05551,1.00558,0.51444,0.00000,-0.00493,0.01433,2.35383,-1.39390,0.49141,2.36757,-1.38994,A,113224.30
0.52799,57.68797180,11.98132429,57.68798417,11.98128333,11:32:24.462320,0.52799,0.00436,0.00000,0.01482,0.03593,-0.00616,0.00306,-0.00579,0.06057,1.02700,0.52333,0.00000,-0.00507,0.01447,2.35520,-1.39350,0.49141,2.36757,-1.38994,A,113224.30
0.53832,57.68797180,11.98132431,57.68798417,11.98128333,11:32:24.472661,0.53832,0.00446,0.00000,0.01538,0.03807,-0.00127,0.00001,-0.03569,0.05002,1.03651,0.53338,0.00000,-0.00522,0.01469,2.35644,-1.39315,0.49141,2.36757,-1.38994,A,113224.30
0.54859,57.68797181,11.98132433,57.68798417,11.98128333,11:32:24.482922,0.54859,0.00433,0.00000,0.01595,0.04036,0.00240,0.00016,-0.02867,0.04709,1.01156,0.54395,0.00000,-0.00537,0.01493,2.35755,-1.39282,0.49141,2.36757,-1.38994,A,113224.30
0.55907,57.68797181,11.98132435,57.68798417,11.98128333,11:32:24.493407,0.55907,0.00442,0.00000,0.01635,0.03959,0.00056,-0.00167,-0.00134,0.03642,0.98936,0.55415,0.00000,-0.00551,0.01519,2.35855,-1.39254,0.49141,2.36757,-1.38994,A,113224.30
0.56964,57.68797181,11.98132436,57.68798417,11.98128333,11:32:24.503981,0.56964,0.00459,0.00000,0.01668,0.04372,-0.00692,-0.00030,0.00714,0.02830,0.97441,0.56473,0.00000,-0.00567,0.01553,2.35945,-1.39228,0.49141,2.36757,-1.38994,A,113224.30
0.57980,57.68797181,11.98132438,57.68798417,11.98128333,11:32:24.514126,0.57980,0.00435,0.00000,0.01721,0.05105,-0.00875,0.00550,-0.02788,0.03751,0.97344,0.57514,0.00000,-0.00582,0.01589,2.36027,-1.39204,0.49141,2.36757,-1.38994,A,113224.30
0.59016,57.68797182,11.98132439,57.68798417,11.98128333,11:32:24.524494,0.59016,0.00446,0.00000,0.01798,0.04815,-0.00020,0.00550,-0.05045,0.05765,0.99601,0.58521,0.00000,-0.00598,0.01632,2.36100,-1.39183,0.49141,2.36757,-1.38994,A,113224.30
0.61196,57.68797185,11.98132437,57.68798450,11.98128300,11:32:24.546298,0.61196,0.01587,0.00000,0.01894,0.05807,0.00576,0.00703,-0.02843,0.06228,0.99686,0.59576,0.00000,-0.00614,0.01680,2.35967,-1.38794,0.60909,2.34776,-1.35287,A,113224.40
0.62518,57.68797188,11.98132435,57.68798450,11.98128300,11:32:24.559769,0.62518,0.00628,0.00000,0.02072,0.07029,-0.00524,0.01039,0.01635,0.05301,0.98796,0.61849,0.00000,-0.00631,0.01803,2.35848,-1.38443,0.60909,2.34776,-1.35287,A,113224.40
0.63399,57.68797191,11.98132433,57.68798450,11.98128300,11:32:24.568324,0.63399,0.00444,0.00000,0.02141,0.06342,-0.01089,0.00810,-0.04111,0.04471,1.01852,0.62906,0.00000,-0.00649,0.01846,2.35741,-1.38127,0.60909,2.34776,-1.35287,A,113224.40
0.64425,57.68797194,11.98132431,57.68798450,11.98128300,11:32:24.578585,0.64425,0.00431,0.00000,0.02214,0.06632,-0.00295,0.00672,-0.06942,0.04813,1.05182,0.63961,0.00000,-0.00668,0.01882,2.35644,-1.37843,0.60909,2.34776,-1.35287,A,113224.40
0.65476,57.68797196,11.98132430,57.68798450,11.98128300,11:32:24.589102,0.65476,0.00443,0.00000,0.02309,0.06830,0.00728,0.00107,-0.02940,0.06344,1.04902,0.64983,0.00000,-0.00687,0.01909,2.35558,-1.37588,0.60909,2.34776,-1.35287,A,113224.40
0.66509,57.68797198,11.98132429,57.68798450,11.98128300,11:32:24.599690,0.66509,0.00436,0.00000,0.02391,0.06372,0.00499,0.00535,0.04056,0.05459,1.00491,0.66044,0.00000,-0.00706,0.01933,2.35479,-1.37358,0.60909,2.34776,-1.35287,A,113224.40
0.67570,57.68797200,11.98132427,57.68798450,11.98128300,11:32:24.610039,0.67570,0.00458,0.00000,0.02481,0.06846,-0.01013,0.00535,0.03404,0.05575,0.96417,0.67103,0.00000,-0.00725,0.01951,2.35409,-1.37151,0.60909,2.34776,-1.35287,A,113224.40
0.68607,57.68797202,11.98132426,57.68798450,11.98128300,11:32:24.620411,0.68607,0.00442,0.00000,0.02572,0.06510,-0.02265,0.00672,-0.03495,0.05984,0.94867,0.68115,0.00000,-0.00744,0.01962,2.35346,-1.36964,0.60909,2.34776,-1.35287,A,113224.40
0.69637,57.68797203,11.98132425,57.68798450,11.98128300,11:32:24.630703,0.69637,0.00432,0.00000,0.02675,0.06494,-0.01746,0.01024,-0.09345,0.06734,0.95532,0.69172,0.00000,-0.00764,0.01968,2.35289,-1.36797,0.60909,2.34776,-1.35287,A,113224.40
0.70709,57.68797204,11.98132424,57.68798450,11.98128300,11:32:24.641436,0.70709,0.00465,0.00000,0.02767,0.06494,-0.00127,0.00978,-0.07399,0.06362,0.96532,0.70194,0.00000,-0.00784,0.01966,2.35238,-1.36646,0.60909,2.34776,-1.35287,A,113224.40
0.74170,57.68797211,11.98132419,57.68798500,11.98128250,11:32:24.676050,0.74170,0.02886,0.00000,0.02866,0.06250,0.00896,0.00902,-0.01452,0.06924,0.96856,0.71251,0.00000,-0.00803,0.01959,2.34894,-1.35954,0.73661,2.31804,-1.29727,A,113224.60
0.75923,57.68797216,11.98132413,57.68798500,11.98128250,11:32:24.693575,0.75923,0.00558,0.00000,0.03139,0.06617,0.00667,0.00672,-0.02983,0.05301,1.05987,0.75427,0.00000,-0.00823,0.01948,2.34585,-1.35331,0.73661,2.31804,-1.29727,A,113224.60
0.76836,57.68797221,11.98132409,57.68798500,11.98128250,11:32:24.702703,0.76836,0.00432,0.00000,0.03173,0.06143,0.00362,0.00107,0.04325,0.03800,1.02035,0.76372,0.00000,-0.00842,0.01929,2.34307,-1.34771,0.73661,2.31804,-1.29727,A,113224.60
0.78024,57.68797226,11.98132405,57.68798500,11.98128250,11:32:24.714583,0.78024,0.00496,0.00000,0.03254,0.04631,-0.01303,0.00367,0.08497,0.06814,0.95922,0.77556,0.00000,-0.00862,0.01909,2.34057,-1.34266,0.73661,2.31804,-1.29727,A,113224.60
0.79023,57.68797230,11.98132401,57.68798500,11.98128250,11:32:24.726052,0.79023,0.00445,0.00000,0.03364,0.05181,-0.02876,0.00520,0.01861,0.08936,0.95245,0.78530,0.00000,-0.00881,0.01890,2.33832,-1.33813,0.73661,2.31804,-1.29727,A,113224.60
0.80051,57.68797234,11.98132397,57.68798500,11.98128250,11:32:24.734839,0.80051,0.00434,0.00000,0.03481,0.05105,-0.02143,0.00321,-0.08156,0.09534,0.97954,0.79586,0.00000,-0.00900,0.01871,2.33629,-1.33404,0.73661,2.31804,-1.29727,A,113224.60
0.81099,57.68797237,11.98132394,57.68798500,11.98128250,11:32:24.745338,0.81099,0.00443,0.00000,0.03567,0.05212,-0.01089,0.00031,-0.07186,0.07796,0.98777,0.80608,0.00000,-0.00918,0.01853,2.33446,-1.33036,0.73661,2.31804,-1.29727,A,113224.60
0.82155,57.68797240,11.98132392,57.68798500,11.98128250,11:32:24.755900,0.82155,0.00459,0.00000,0.03641,0.04479,0.00194,0.00184,0.01372,0.07357,0.98350,0.81665,0.00000,-0.00937,0.01834,2.33282,-1.32705,0.73661,2.31804,-1.29727,A,113224.60
0.83195,57.68797243,11.98132389,57.68798500,11.98128250,11:32:24.766294,0.83195,0.00460,0.00000,0.03719,0.04616,-0.00341,0.00062,0.07265,0.07723,0.98667,0.82706,0.00000,-0.00955,0.01816,2.33134,-1.32408,0.73661,2.31804,-1.29727,A,113224.60
0.85435,57.68797250,11.98132385,57.68798550,11.98128233,11:32:24.788688,0.85435,0.01654,0.00000,0.03774,0.04662,-0.01349,0.00214,0.02050,0.06326,0.99820,0.83735,0.00000,-0.00974,0.01798,2.32902,-1.31584,0.85148,2.30814,-1.24168,A,113224.70
0.87079,57.68797257,11.98132382,57.68798550,11.98128233,11:32:24.805148,0.87079,0.00692,0.00000,0.03882,0.03394,0.00881,0.00107,-0.03636,0.06948,0.99277,0.86469,0.00000,-0.00991,0.01780,2.32693,-1.30842,0.85148,2.30814,-1.24168,A,113224.70
0.87860,57.68797263,11.98132378,57.68798550,11.98128233,11:32:24.812938,0.87860,0.00449,0.00000,0.03920,0.03486,0.00453,0.00230,0.03257,0.06362,0.98436,0.87363,0.00000,-0.01009,0.01762,2.32505,-1.30175,0.85148,2.30814,-1.24168,A,113224.70
0.88885,57.68797268,11.98132376,57.68798550,11.98128233,11:32:24.823178,0.88885,0.00435,0.00000,0.03974,0.03135,-0.00112,-0.00106,0.05289,0.07479,1.00077,0.88421,0.00000,-0.01027,0.01744,2.32336,-1.29574,0.85148,2.30814,-1.24168,A,113224.70
0.89929,57.68797273,11.98132373,57.68798550,11.98128233,11:32:24.833632,0.89929,0.00440,0.00000,0.04046,0.02799,-0.01089,0.00169,0.00860,0.09241,1.01925,0.89439,0.00000,-0.01044,0.01727,2.32184,-1.29033,0.85148,2.30814,-1.24168,A,113224.70
0.91003,57.68797277,11.98132371,57.68798550,11.98128233,11:32:24.844376,0.91003,0.00447,0.00000,0.04125,0.02615,-0.00127,0.00046,-0.04935,0.09894,1.03200,0.90510,0.00000,-0.01062,0.01709,2.32047,-1.28547,0.85148,2.30814,-1.24168,A,113224.70
0.92054,57.68797281,11.98132369,57.68798550,11.98128233,11:32:24.854882,0.92054,0.00459,0.00000,0.04189,0.02570,0.00652,-0.00259,-0.04471,0.08760,1.00699,0.91565,0.00000,-0.01079,0.01692,2.31924,-1.28109,0.85148,2.30814,-1.24168,A,113224.70
0.93093,57.68797285,11.98132367,57.68798550,11.98128233,11:32:24.865262,0.93093,0.00458,0.00000,0.04227,0.02127,0.01049,-0.00244,-0.00275,0.07210,0.97014,0.92599,0.00000,-0.01096,0.01675,2.31813,-1.27715,0.85148,2.30814,-1.24168,A,113224.70
0.94108,57.68797288,11.98132365,57.68798550,11.98128233,11:32:24.875654,0.94108,0.00433,0.00000,0.04255,0.02295,0.01018,-0.00565,0.03721,0.06362,0.96148,0.93644,0.00000,-0.01112,0.01659,2.31713,-1.27360,0.85148,2.30814,-1.24168,A,113224.70
0.95149,57.68797291,11.98132364,57.68798550,11.98128233,11:32:24.885832,0.95149,0.00435,0.00000,0.04276,0.01195,-0.00127,-0.00335,-0.00836,0.06917,0.99253,0.94664,0.00000,-0.01129,0.01642,2.31623,-1.27041,0.85148,2.30814,-1.24168,A,113224.70
0.97501,57.68797297,11.98132361,57.68798583,11.98128217,11:32:24.909357,0.97501,0.01734,0.00000,0.04321,0.01134,0.00530,0.00199,-0.04465,0.08924,1.03047,0.95719,0.00000,-0.01145,0.01626,2.31443,-1.26383,0.97179,2.29823,-1.20461,A,113224.80
0.98486,57.68797302,11.98132358,57.68798583,11.98128217,11:32:24.919199,0.98486,0.00440,0.00000,0.04366,0.00615,0.01278,0.00153,0.05051,0.08119,0.95373,0.98020,0.00000,-0.01162,0.01609,2.31281,-1.25791,0.97179,2.29823,-1.20461,A,113224.80
0.99523,57.68797307,11.98132355,57.68798583,11.98128217,11:32:24.929563,0.99523,0.00437,0.00000,0.04403,0.00630,0.00011,0.00016,0.06875,0.07820,0.91933,0.99035,0.00000,-0.01178,0.01593,2.31135,-1.25258,0.97179,2.29823,-1.20461,A,113224.80
1.00586,57.68797311,11.98132353,57.68798583,11.98128217,11:32:24.940197,1.00586,0.00445,0.00000,0.04447,0.00172,-0.01562,0.00184,-0.00378,0.08857,0.94611,1.00093,0.00000,-0.01194,0.01577,2.31004,-1.24778,0.97179,2.29823,-1.20461,A,113224.80
1.01615,57.68797315,11.98132351,57.68798583,11.98128217,11:32:24.950484,1.01615,0.00434,0.00000,0.04471,-0.00133,-0.01746,0.00260,-0.06844,0.08339,1.01419,1.01151,0.00000,-0.01209,0.01562,2.30886,-1.24346,0.97179,2.29823,-1.20461,A,113224.80
1.02664,57.68797319,11.98132349,57.68798583,11.98128217,11:32:24.960983,1.02664,0.00460,0.00000,0.04499,-0.00240,-0.00280,-0.00137,-0.05356,0.09010,1.04304,1.02172,0.00000,-0.01225,0.01546,2.30779,-1.23958,0.97179,2.29823,-1.20461,A,113224.80
1.03679,57.68797322,11.98132348,57.68798583,11.98128217,11:32:24.971115,1.03679,0.00435,0.00000,0.04502,-0.00866,0.00866,0.00138,0.03270,0.07826,1.05286,1.03214,0.00000,-0.01241,0.01531,2.30684,-1.23608,0.97179,2.29823,-1.20461,A,113224.80
1.04764,57.68797325,11.98132346,57.68798583,11.98128217,11:32:24.981978,1.04764,0.00450,0.00000,0.04529,-0.01432,0.00148,-0.00015,0.06149,0.09687,1.02962,1.04294,0.00000,-0.01256,0.01515,2.30598,-1.23293,0.97179,2.29823,-1.20461,A,113224.80
1.05807,57.68797327,11.98132345,57.68798583,11.98128217,11:32:24.992409,1.05807,0.00441,0.00000,0.04569,-0.01462,-0.00402,-0.00122,0.00183,0.10492,1.01394,1.05317,0.00000,-0.01271,0.01500,2.30520,-1.23010,0.97179,2.29823,-1.20461,A,113224.80
1.06839,57.68797329,11.98132344,57.68798583,11.98128217,11:32:25.002727,1.06839,0.00434,0.00000,0.04578,-0.01584,-0.00677,-0.00030,-0.06521,0.08125,0.96569,1.06374,0.00000,-0.01286,0.01485,2.30450,-1.22755,0.97179,2.29823,-1.20461,A,113224.80
1.09129,57.68797338,11.98132340,57.68798650,11.98128183,11:32:25.025629,1.09129,0.01684,0.00000,0.04550,-0.01783,0.00041,0.00016,-0.04423,0.05478,0.91268,1.07395,0.00000,-0.01301,0.01470,2.30190,-1.21785,1.08846,2.27842,-1.13048,A,113224.90
1.10736,57.68797346,11.98132336,57.68798650,11.98128183,11:32:25.041709,1.10736,0.00626,0.00000,0.04516,-0.02714,-0.00478,0.00413,0.02080,0.09546,1.00424,1.10240,0.00000,-0.01316,0.01455,2.29955,-1.20911,1.08846,2.27842,-1.13048,A,113224.90
1.11585,57.68797353,11.98132332,57.68798650,11.98128183,11:32:25.050189,1.11585,0.00435,0.00000,0.04557,-0.02546,-0.00784,0.00535,-0.00866,0.11535,1.06122,1.11120,0.00000,-0.01330,0.01441,2.29743,-1.20125,1.08846,2.27842,-1.13048,A,113224.90
1.12619,57.68797359,11.98132329,57.68798650,11.98128183,11:32:25.060524,1.12619,0.00446,0.00000,0.04559,-0.01798,-0.00493,0.00459,-0.05228,0.08589,1.08190,1.12126,0.00000,-0.01344,0.01427,2.29553,-1.19417,1.08846,2.27842,-1.13048,A,113224.90
1.13646,57.68797365,11.98132326,57.68798650,11.98128183,11:32:25.070789,1.13646,0.00433,0.00000,0.04526,-0.02119,0.00759,0.00413,-0.02324,0.06295,1.05018,1.13180,0.00000,-0.01359,0.01412,2.29382,-1.18780,1.08846,2.27842,-1.13048,A,113224.90
1.14698,57.68797370,11.98132323,57.68798650,11.98128183,11:32:25.081320,1.14698,0.00445,0.00000,0.04443,-0.02134,0.00942,0.00642,0.03697,0.02519,0.99704,1.14202,0.00000,-0.01373,0.01398,2.29228,-1.18207,1.08846,2.27842,-1.13048,A,113224.90
1.15746,57.68797375,11.98132321,57.68798650,11.98128183,11:32:25.091810,1.15746,0.00454,0.00000,0.04423,-0.02623,-0.00219,0.00581,0.03105,0.06649,0.94794,1.15259,0.00000,-0.01387,0.01384,2.29089,-1.17691,1.08846,2.27842,-1.13048,A,113224.90
1.16766,57.68797379,11.98132319,57.68798650,11.98128183,11:32:25.101998,1.16766,0.00435,0.00000,0.04431,-0.02516,-0.01043,0.00382,-0.01861,0.07997,0.91000,1.16300,0.00000,-0.01401,0.01370,2.28965,-1.17227,1.08846,2.27842,-1.13048,A,113224.90
1.17811,57.68797383,11.98132317,57.68798650,11.98128183,11:32:25.112451,1.17811,0.00448,0.00000,0.04469,-0.02439,-0.00524,0.00978,-0.08107,0.10053,0.93727,1.17318,0.00000,-0.01414,0.01357,2.28852,-1.16809,1.08846,2.27842,-1.13048,A,113224.90
1.18833,57.68797386,11.98132315,57.68798650,11.98128183,11:32:25.122666,1.18833,0.00431,0.00000,0.04475,-0.02180,0.00744,0.00627,-0.05996,0.08333,0.97704,1.18370,0.00000,-0.01428,0.01343,2.28751,-1.16433,1.08846,2.27842,-1.13048,A,113224.90
1.21161,57.68797394,11.98132309,57.68798700,11.98128133,11:32:25.145945,1.21161,0.01719,0.00000,0.04472,-0.01920,0.01538,0.00672,-0.00561,0.07832,1.02340,1.19391,0.00000,-0.01441,0.01330,2.28363,-1.15538,1.20876,2.24870,-1.07488,A,113225.00
1.22176,57.68797402,11.98132303,57.68798700,11.98128133,11:32:25.156104,1.22176,0.00472,0.00000,0.04426,-0.01722,-0.00081,0.00611,0.02007,0.06429,1.04426,1.21674,0.00000,-0.01455,0.01316,2.28014,-1.14733,1.20876,2.24870,-1.07488,A,113225.00
1.23202,57.68797408,11.98132298,57.68798700,11.98128133,11:32:25.166368,1.23202,0.00459,0.00000,0.04382,-0.00897,-0.01059,0.00352,-0.01330,0.04374,1.05438,1.22713,0.00000,-0.01468,0.01303,2.27699,-1.14009,1.20876,2.24870,-1.07488,A,113225.00
1.24317,57.68797414,11.98132293,57.68798700,11.98128133,11:32:25.177534,1.24317,0.00549,0.00000,0.04353,-0.01202,-0.02021,0.00474,-0.05655,0.05569,1.03541,1.23717,0.00000,-0.01481,0.01290,2.27416,-1.13357,1.20876,2.24870,-1.07488,A,113225.00
1.25240,57.68797419,11.98132289,57.68798700,11.98128133,11:32:25.186737,1.25240,0.00433,0.00000,0.04337,-0.01370,-0.02357,0.00657,-0.04978,0.06277,0.99009,1.24776,0.00000,-0.01494,0.01277,2.27162,-1.12770,1.20876,2.24870,-1.07488,A,113225.00
1.26290,57.68797424,11.98132285,57.68798700,11.98128133,11:32:25.197239,1.26290,0.00443,0.00000,0.04367,-0.01462,-0.01226,0.00886,-0.05118,0.09022,0.95392,1.25796,0.00000,-0.01507,0.01264,2.26933,-1.12242,1.20876,2.24870,-1.07488,A,113225.00
1.27370,57.68797428,11.98132281,57.68798700,11.98128133,11:32:25.208062,1.27370,0.00484,0.00000,0.04421,-0.01279,0.00148,0.00947,-0.02544,0.09845,0.89505,1.26862,0.00000,-0.01519,0.01252,2.26726,-1.11767,1.20876,2.24870,-1.07488,A,113225.00
1.28375,57.68797432,11.98132278,57.68798700,11.98128133,11:32:25.218073,1.28375,0.00449,0.00000,0.04467,-0.00897,0.00820,0.00703,-0.01726,0.08955,0.87340,1.27907,0.00000,-0.01532,0.01239,2.26541,-1.11339,1.20876,2.24870,-1.07488,A,113225.00
1.29411,57.68797436,11.98132275,57.68798700,11.98128133,11:32:25.228437,1.29411,0.00443,0.00000,0.04500,-0.00500,-0.00295,-0.00122,-0.03941,0.08467,0.92879,1.28919,0.00000,-0.01544,0.01227,2.26374,-1.10954,1.20876,2.24870,-1.07488,A,113225.00
1.30439,57.68797439,11.98132273,57.68798700,11.98128133,11:32:25.238718,1.30439,0.00431,0.00000,0.04474,-0.00133,-0.00646,-0.00977,-0.07143,0.05130,1.02340,1.29975,0.00000,-0.01556,0.01215,2.26223,-1.10607,1.20876,2.24870,-1.07488,A,113225.00
1.34002,57.68797453,11.98132252,57.68798817,11.98127950,11:32:25.274359,1.34002,0.02956,0.00000,0.04421,-0.00821,-0.00356,-0.01221,0.00604,0.03819,1.06890,1.30996,0.00000,-0.01569,0.01202,2.24998,-1.08998,1.33735,2.13973,-0.94516,A,113225.20
1.35170,57.68797466,11.98132234,57.68798817,11.98127950,11:32:25.286044,1.35170,0.00543,0.00000,0.04436,-0.00225,-0.02372,-0.00641,-0.06978,0.07784,0.96636,1.34702,0.00000,-0.01581,0.01190,2.23896,-1.07550,1.33735,2.13973,-0.94516,A,113225.20
1.36193,57.68797478,11.98132217,57.68798817,11.98127950,11:32:25.296268,1.36193,0.00542,0.00000,0.04455,0.00569,-0.00677,-0.00244,-0.13213,0.06942,0.93220,1.35693,0.00000,-0.01592,0.01179,2.22903,-1.06246,1.33735,2.13973,-0.94516,A,113225.20
1.37130,57.68797488,11.98132202,57.68798817,11.98127950,11:32:25.305637,1.37130,0.00440,0.00000,0.04461,0.01165,0.01538,-0.00977,-0.07729,0.05691,0.91183,1.36639,0.00000,-0.01604,0.01167,2.22010,-1.05073,1.33735,2.13973,-0.94516,A,113225.20
1.38191,57.68797498,11.98132188,57.68798817,11.98127950,11:32:25.316243,1.38191,0.00445,0.00000,0.04479,0.01317,0.02240,-0.01053,0.00805,0.06246,0.90347,1.37698,0.00000,-0.01616,0.01154,2.21207,-1.04018,1.33735,2.13973,-0.94516,A,113225.20
1.39217,57.68797506,11.98132176,57.68798817,11.98127950,11:32:25.326502,1.39217,0.00431,0.00000,0.04470,0.02112,0.01507,-0.00809,0.00750,0.04392,0.97874,1.38753,0.00000,-0.01627,0.01141,2.20483,-1.03067,1.33735,2.13973,-0.94516,A,113225.20
1.40256,57.68797514,11.98132165,57.68798817,11.98127950,11:32:25.336892,1.40256,0.00448,0.00000,0.04463,0.02722,-0.00188,-0.01236,0.01458,0.04544,1.05359,1.39762,0.00000,-0.01639,0.01125,2.19832,-1.02212,1.33735,2.13973,-0.94516,A,113225.20
1.41283,57.68797521,11.98132155,57.68798817,11.98127950,11:32:25.347165,1.41283,0.00435,0.00000,0.04448,0.02722,-0.00891,-0.00870,-0.01775,0.04075,1.10190,1.40818,0.00000,-0.01650,0.01110,2.19246,-1.01443,1.33735,2.13973,-0.94516,A,113225.20
1.42325,57.68797527,11.98132147,57.68798817,11.98127950,11:32:25.357586,1.42325,0.00437,0.00000,0.04461,0.02524,-0.00845,-0.00244,-0.00329,0.06246,1.08519,1.41837,0.00000,-0.01661,0.01094,2.18719,-1.00750,1.33735,2.13973,-0.94516,A,113225.20
1.43433,57.68797533,11.98132139,57.68798817,11.98127950,11:32:25.368673,1.43433,0.00491,0.00000,0.04526,0.02493,-0.01440,-0.00320,0.03904,0.09223,1.01290,1.42925,0.00000,-0.01672,0.01075,2.18244,-1.00126,1.33735,2.13973,-0.94516,A,113225.20
1.45641,57.68797545,11.98132126,57.68798883,11.98127900,11:32:25.390746,1.45641,0.01659,0.00000,0.04595,0.02570,-0.02555,0.00001,0.03630,0.09107,0.95184,1.43950,0.00000,-0.01683,0.01054,2.17520,-0.98824,1.45373,2.11001,-0.87103,A,113225.30
1.46723,57.68797555,11.98132115,57.68798883,11.98127900,11:32:25.401571,1.46723,0.00479,0.00000,0.04678,0.03089,-0.03135,-0.01298,-0.06277,0.07302,0.95069,1.46202,0.00000,-0.01693,0.01007,2.16868,-0.97652,1.45373,2.11001,-0.87103,A,113225.30
1.47780,57.68797565,11.98132106,57.68798883,11.98127900,11:32:25.412147,1.47780,0.00497,0.00000,0.04697,0.02096,-0.01914,-0.01130,-0.06185,0.06393,0.97637,1.47276,0.00000,-0.01704,0.00974,2.16282,-0.96597,1.45373,2.11001,-0.87103,A,113225.30
1.48757,57.68797573,11.98132097,57.68798883,11.98127900,11:32:25.421904,1.48757,0.00435,0.00000,0.04714,0.02188,-0.00875,-0.01817,-0.00073,0.06594,1.01266,1.48290,0.00000,-0.01713,0.00942,2.15753,-0.95648,1.45373,2.11001,-0.87103,A,113225.30
1.49824,57.68797581,11.98132089,57.68798883,11.98127900,11:32:25.432578,1.49824,0.00446,0.00000,0.04739,0.02066,-0.01624,-0.01588,0.00323,0.07241,1.02437,1.49331,0.00000,-0.01723,0.00910,2.15278,-0.94793,1.45373,2.11001,-0.87103,A,113225.30
1.50859,57.68797588,11.98132081,57.68798883,11.98127900,11:32:25.442922,1.50859,0.00435,0.00000,0.04749,0.02417,-0.02372,-0.01908,-0.04124,0.05972,1.02785,1.50393,0.00000,-0.01732,0.00883,2.14851,-0.94024,1.45373,2.11001,-0.87103,A,113225.30
1.51903,57.68797594,11.98132075,57.68798883,11.98127900,11:32:25.453364,1.51903,0.00440,0.00000,0.04784,0.02539,-0.01471,-0.01298,-0.05789,0.07906,1.05432,1.51412,0.00000,-0.01741,0.00860,2.14466,-0.93332,1.45373,2.11001,-0.87103,A,113225.30
1.52960,57.68797600,11.98132069,57.68798883,11.98127900,11:32:25.463940,1.52960,0.00456,0.00000,0.04814,0.02722,-0.01318,-0.00748,0.00085,0.07265,1.03419,1.52470,0.00000,-0.01749,0.00842,2.14119,-0.92709,1.45373,2.11001,-0.87103,A,113225.30
1.54022,57.68797605,11.98132064,57.68798883,11.98127900,11:32:25.474552,1.54022,0.00480,0.00000,0.04826,0.02646,-0.03029,-0.00717,0.02623,0.05801,0.99399,1.53553,0.00000,-0.01758,0.00829,2.13807,-0.92148,1.45373,2.11001,-0.87103,A,113225.30
1.55150,57.68797609,11.98132059,57.68798883,11.98127900,11:32:25.485862,1.55150,0.00581,0.00000,0.04882,0.02280,-0.04067,-0.00167,-0.01019,0.09156,0.98539,1.54519,0.00000,-0.01766,0.00818,2.13527,-0.91644,1.45373,2.11001,-0.87103,A,113225.30
1.57283,57.68797620,11.98132043,57.68798950,11.98127783,11:32:25.507170,1.57283,0.01676,0.00000,0.04955,0.02035,-0.03227,-0.00549,-0.04288,0.10157,0.96868,1.55575,0.00000,-0.01774,0.00806,2.12581,-0.90448,1.57015,2.04067,-0.79690,A,113225.40
1.58859,57.68797630,11.98132029,57.68798950,11.98127783,11:32:25.522933,1.58859,0.00633,0.00000,0.05011,0.01546,-0.01593,-0.01542,0.02995,0.07308,0.92208,1.58386,0.00000,-0.01782,0.00790,2.11729,-0.89373,1.57015,2.04067,-0.79690,A,113225.40
1.59699,57.68797638,11.98132016,57.68798950,11.98127783,11:32:25.531558,1.59699,0.00433,0.00000,0.05041,0.01455,-0.02967,-0.01893,0.01354,0.07948,0.95209,1.59235,0.00000,-0.01790,0.00781,2.10963,-0.88404,1.57015,2.04067,-0.79690,A,113225.40
1.60747,57.68797646,11.98132004,57.68798950,11.98127783,11:32:25.541806,1.60747,0.00442,0.00000,0.05047,0.01333,-0.04281,-0.01634,-0.00390,0.06917,1.04084,1.60255,0.00000,-0.01798,0.00773,2.10274,-0.87533,1.57015,2.04067,-0.79690,A,113225.40
1.61801,57.68797653,11.98131994,57.68798950,11.98127783,11:32:25.552347,1.61801,0.00443,0.00000,0.05049,0.01424,-0.04739,-0.01389,-0.03288,0.06826,1.08867,1.61308,0.00000,-0.01806,0.00766,2.09653,-0.86748,1.57015,2.04067,-0.79690,A,113225.40
1.62846,57.68797660,11.98131985,57.68798950,11.98127783,11:32:25.562795,1.62846,0.00449,0.00000,0.05066,0.00966,-0.03533,-0.00671,-0.03599,0.08143,1.06701,1.62380,0.00000,-0.01813,0.00758,2.09094,-0.86043,1.57015,2.04067,-0.79690,A,113225.40
1.63880,57.68797665,11.98131976,57.68798950,11.98127783,11:32:25.573133,1.63880,0.00444,0.00000,0.05063,0.00829,-0.02906,-0.00274,-0.01372,0.06661,1.03523,1.63386,0.00000,-0.01821,0.00750,2.08592,-0.85407,1.57015,2.04067,-0.79690,A,113225.40
1.64908,57.68797670,11.98131969,57.68798950,11.98127783,11:32:25.583654,1.64908,0.00433,0.00000,0.05076,0.01302,-0.02876,-0.00305,-0.05716,0.07241,1.01553,1.64444,0.00000,-0.01828,0.00743,2.08139,-0.84836,1.57015,2.04067,-0.79690,A,113225.40
1.65950,57.68797675,11.98131962,57.68798950,11.98127783,11:32:25.593832,1.65950,0.00435,0.00000,0.05100,0.01821,-0.03166,-0.00351,-0.03660,0.07472,0.98222,1.65463,0.00000,-0.01836,0.00736,2.07732,-0.84321,1.57015,2.04067,-0.79690,A,113225.40
1.67009,57.68797679,11.98131955,57.68798950,11.98127783,11:32:25.604427,1.67009,0.00442,0.00000,0.05141,0.02142,-0.03456,-0.00870,-0.05215,0.08211,0.96923,1.66516,0.00000,-0.01843,0.00728,2.07365,-0.83858,1.57015,2.04067,-0.79690,A,113225.40
1.69337,57.68797693,11.98131943,57.68799050,11.98127717,11:32:25.627727,1.69337,0.01730,0.00000,0.05146,0.02127,-0.02754,-0.00198,-0.05600,0.05850,0.96191,1.67576,0.00000,-0.01850,0.00721,2.06639,-0.82329,1.69053,2.00104,-0.68570,A,113225.50
1.70336,57.68797705,11.98131932,57.68799050,11.98127717,11:32:25.637690,1.70336,0.00445,0.00000,0.05180,0.00539,-0.01196,-0.00656,-0.04544,0.08406,0.95630,1.69849,0.00000,-0.01858,0.00714,2.05986,-0.80953,1.69053,2.00104,-0.68570,A,113225.50
1.71390,57.68797716,11.98131922,57.68799050,11.98127717,11:32:25.648239,1.71390,0.00443,0.00000,0.05237,0.01119,-0.00875,-0.00534,-0.04319,0.09803,0.95166,1.70898,0.00000,-0.01865,0.00707,2.05398,-0.79715,1.69053,2.00104,-0.68570,A,113225.50
1.72417,57.68797726,11.98131913,57.68799050,11.98127717,11:32:25.658503,1.72417,0.00430,0.00000,0.05293,0.01806,-0.01013,-0.00656,-0.02757,0.09614,0.97191,1.71953,0.00000,-0.01872,0.00699,2.04868,-0.78600,1.69053,2.00104,-0.68570,A,113225.50
1.73482,57.68797735,11.98131905,57.68799050,11.98127717,11:32:25.669165,1.73482,0.00472,0.00000,0.05285,0.02218,-0.01761,-0.00305,-0.03013,0.05374,1.00211,1.72963,0.00000,-0.01879,0.00692,2.04392,-0.77597,1.69053,2.00104,-0.68570,A,113225.50
1.74485,57.68797744,11.98131898,57.68799050,11.98127717,11:32:25.679184,1.74485,0.00437,0.00000,0.05278,0.01867,-0.02463,-0.00717,-0.00183,0.05655,1.00290,1.74020,0.00000,-0.01886,0.00686,2.03963,-0.76695,1.69053,2.00104,-0.68570,A,113225.50
1.75690,57.68797751,11.98131892,57.68799050,11.98127717,11:32:25.691470,1.75690,0.00602,0.00000,0.05271,0.01088,-0.02693,-0.00335,-0.02129,0.06252,1.00766,1.75037,0.00000,-0.01893,0.00679,2.03577,-0.75882,1.69053,2.00104,-0.68570,A,113225.50
1.76586,57.68797757,11.98131886,57.68799050,11.98127717,11:32:25.700193,1.76586,0.00442,0.00000,0.05300,0.01241,-0.02234,-0.00565,-0.04423,0.08625,1.02029,1.76094,0.00000,-0.01899,0.00672,2.03230,-0.75151,1.69053,2.00104,-0.68570,A,113225.50
1.77648,57.68797763,11.98131881,57.68799050,11.98127717,11:32:25.710815,1.77648,0.00465,0.00000,0.05337,0.01608,-0.01868,-0.00305,-0.02977,0.08747,0.99656,1.77152,0.00000,-0.01906,0.00665,2.02917,-0.74493,1.69053,2.00104,-0.68570,A,113225.50
1.78653,57.68797769,11.98131876,57.68799050,11.98127717,11:32:25.720863,1.78653,0.00446,0.00000,0.05380,0.02050,-0.02158,-0.00244,-0.06033,0.08863,0.98582,1.78159,0.00000,-0.01913,0.00659,2.02636,-0.73901,1.69053,2.00104,-0.68570,A,113225.50
1.80949,57.68797782,11.98131868,57.68799133,11.98127683,11:32:25.743832,1.80949,0.01703,0.00000,0.05421,0.02860,-0.01654,-0.00061,-0.03282,0.08131,0.98680,1.79230,0.00000,-0.01919,0.00652,2.02185,-0.72441,1.80665,1.98123,-0.59304,A,113225.60
1.82709,57.68797794,11.98131862,57.68799133,11.98127683,11:32:25.761465,1.82709,0.00838,0.00000,0.05472,0.02799,-0.01165,0.01299,-0.07180,0.06039,1.04493,1.82013,0.00000,-0.01926,0.00645,2.01779,-0.71127,1.80665,1.98123,-0.59304,A,113225.60
1.83429,57.68797804,11.98131855,57.68799133,11.98127683,11:32:25.768632,1.83429,0.00513,0.00000,0.05538,0.02600,0.00331,0.01772,-0.07881,0.10803,1.02980,1.82932,0.00000,-0.01932,0.00639,2.01413,-0.69945,1.80665,1.98123,-0.59304,A,113225.60
1.84390,57.68797814,11.98131850,57.68799133,11.98127683,11:32:25.778243,1.84390,0.00434,0.00000,0.05613,0.02875,0.00408,0.01528,-0.00085,0.10230,0.94940,1.83925,0.00000,-0.01939,0.00633,2.01084,-0.68881,1.80665,1.98123,-0.59304,A,113225.60
1.85428,57.68797822,11.98131845,57.68799133,11.98127683,11:32:25.788608,1.85428,0.00448,0.00000,0.05651,0.03425,-0.00264,0.00749,0.04587,0.06972,0.86962,1.84933,0.00000,-0.01945,0.00626,2.00788,-0.67923,1.80665,1.98123,-0.59304,A,113225.60
1.86610,57.68797830,11.98131840,57.68799133,11.98127683,11:32:25.800449,1.86610,0.00590,0.00000,0.05660,0.02356,-0.02433,0.00138,-0.01501,0.06100,0.90768,1.85997,0.00000,-0.01951,0.00620,2.00522,-0.67061,1.80665,1.98123,-0.59304,A,113225.60
1.87526,57.68797837,11.98131836,57.68799133,11.98127683,11:32:25.809619,1.87526,0.00466,0.00000,0.05651,0.01546,-0.02341,-0.00427,-0.08345,0.06185,1.00833,1.87010,0.00000,-0.01958,0.00614,2.00282,-0.66286,1.80665,1.98123,-0.59304,A,113225.60
1.88560,57.68797843,11.98131833,57.68799133,11.98127683,11:32:25.819941,1.88560,0.00461,0.00000,0.05706,0.01058,-0.01562,-0.00687,-0.01684,0.11633,1.07988,1.88068,0.00000,-0.01964,0.00608,2.00066,-0.65587,1.80665,1.98123,-0.59304,A,113225.60
1.89576,57.68797849,11.98131829,57.68799133,11.98127683,11:32:25.830094,1.89576,0.00437,0.00000,0.05667,0.00844,-0.01822,-0.01359,0.03288,0.04782,1.04536,1.89110,0.00000,-0.01970,0.00602,1.99872,-0.64959,1.80665,1.98123,-0.59304,A,113225.60
1.90614,57.68797854,11.98131826,57.68799133,11.98127683,11:32:25.840477,1.90614,0.00445,0.00000,0.05703,0.00080,-0.03258,-0.01191,0.01043,0.10224,1.00205,1.90122,0.00000,-0.01976,0.00596,1.99697,-0.64394,1.80665,1.98123,-0.59304,A,113225.60
1.94274,57.68797879,11.98131819,57.68799333,11.98127633,11:32:25.877084,1.94274,0.03066,0.00000,0.05746,0.00141,-0.01975,-0.01649,-0.07582,0.10333,0.97606,1.91177,0.00000,-0.01982,0.00590,1.99242,-0.61661,1.93988,1.95151,-0.37065,A,113225.80
1.95263,57.68797901,11.98131812,57.68799333,11.98127633,11:32:25.886964,1.95263,0.00441,0.00000,0.05788,0.01791,-0.00157,-0.01130,0.08211,0.06289,0.97929,1.94796,0.00000,-0.01988,0.00584,1.98833,-0.59201,1.93988,1.95151,-0.37065,A,113225.80
1.96303,57.68797921,11.98131806,57.68799333,11.98127633,11:32:25.897366,1.96303,0.00457,0.00000,0.05728,0.00936,-0.02066,-0.00183,0.11462,0.03349,1.02266,1.95807,0.00000,-0.01993,0.00578,1.98465,-0.56987,1.93988,1.95151,-0.37065,A,113225.80
1.97320,57.68797939,11.98131800,57.68799333,11.98127633,11:32:25.907764,1.97320,0.00435,0.00000,0.05724,0.00707,-0.04708,-0.00167,0.04392,0.07460,1.05554,1.96855,0.00000,-0.01999,0.00572,1.98134,-0.54995,1.93988,1.95151,-0.37065,A,113225.80
1.98360,57.68797955,11.98131795,57.68799333,11.98127633,11:32:25.917939,1.98360,0.00435,0.00000,0.05749,-0.00454,-0.04311,0.00443,-0.08247,0.10370,1.05323,1.97894,0.00000,-0.02005,0.00566,1.97835,-0.53202,1.93988,1.95151,-0.37065,A,113225.80
1.99677,57.68797969,11.98131791,57.68799333,11.98127633,11:32:25.931119,1.99677,0.00662,0.00000,0.05805,0.00203,-0.01013,0.00214,-0.09644,0.11822,1.03133,1.98974,0.00000,-0.02011,0.00561,1.97567,-0.51588,1.93988,1.95151,-0.37065,A,113225.80
2.00489,57.68797982,11.98131787,57.68799333,11.98127633,11:32:25.939215,2.00489,0.00434,0.00000,0.05864,0.00340,0.00209,-0.00229,-0.03233,0.11657,0.99643,2.00025,0.00000,-0.02016,0.00555,1.97325,-0.50136,1.93988,1.95151,-0.37065,A,113225.80
2.01831,57.68797994,11.98131783,57.68799333,11.98127633,11:32:25.952716,2.01831,0.00735,0.00000,0.05881,0.00508,0.00362,-0.01191,0.03288,0.08485,0.97020,2.01045,0.00000,-0.02022,0.00550,1.97108,-0.48829,1.93988,1.95151,-0.37065,A,113225.80
2.02611,57.68798005,11.98131780,57.68799333,11.98127633,11:32:25.960442,2.02611,0.00462,0.00000,0.05900,-0.00164,-0.00952,-0.01664,0.03270,0.09217,0.98076,2.02120,0.00000,-0.02027,-0.01826,1.96912,-0.47653,1.93988,1.95151,-0.37065,A,113225.80
2.03621,57.68798014,11.98131777,57.68799333,11.98127633,11:32:25.970542,2.03621,0.00433,0.00000,0.05869,-0.00042,-0.01562,-0.02015,-0.03251,0.06417,1.06726,2.03156,0.00000,-0.02009,-0.01808,1.96736,-0.46594,1.93988,1.95151,-0.37065,A,113225.80
2.06038,57.68798031,11.98131771,57.68799417,11.98127600,11:32:25.994737,2.06038,0.01812,0.00000,0.05828,-0.00622,-0.00585,-0.01725,-0.05844,0.06149,1.09336,2.04177,0.00000,-0.01991,-0.01790,1.96380,-0.44714,2.05613,1.93170,-0.27799,A,113225.90
2.07896,57.68798046,11.98131765,57.68799417,11.98127600,11:32:26.013297,2.07896,0.00615,0.00000,0.05858,-0.01661,-0.03441,-0.00412,0.00049,0.11621,0.85815,2.07398,0.00000,-0.01973,-0.01772,1.96059,-0.43023,2.05613,1.93170,-0.27799,A,113225.90
2.08757,57.68798060,11.98131760,57.68799417,11.98127600,11:32:26.021901,2.08757,0.00437,0.00000,0.05912,-0.00912,-0.03426,-0.00274,-0.08424,0.11328,0.93293,2.08270,0.00000,-0.01955,-0.01754,1.95770,-0.41500,2.05613,1.93170,-0.27799,A,113225.90
2.09811,57.68798072,11.98131756,57.68799417,11.98127600,11:32:26.032449,2.09811,0.00444,0.00000,0.05966,-0.00210,-0.01944,-0.00733,-0.09797,0.11950,1.00918,2.09320,0.00000,-0.01938,-0.01737,1.95510,-0.40130,2.05613,1.93170,-0.27799,A,113225.90
2.10840,57.68798084,11.98131752,57.68799417,11.98127600,11:32:26.042732,2.10840,0.00434,0.00000,0.05937,-0.00088,-0.00417,-0.01053,0.01110,0.06301,1.01748,2.10375,0.00000,-0.01920,-0.01719,1.95276,-0.38897,2.05613,1.93170,-0.27799,A,113225.90
2.11901,57.68798094,11.98131749,57.68799417,11.98127600,11:32:26.053354,2.11901,0.00456,0.00000,0.05882,-0.00775,-0.00539,-0.00794,0.07692,0.05148,1.05188,2.11396,0.00000,-0.01903,-0.01702,1.95065,-0.37787,2.05613,1.93170,-0.27799,A,113225.90
2.12983,57.68798102,11.98131745,57.68799417,11.98127600,11:32:26.064175,2.12983,0.00499,0.00000,0.05888,-0.01584,-0.00891,-0.00794,0.02178,0.09967,1.04804,2.12470,0.00000,-0.01886,-0.01685,1.94876,-0.36788,2.05613,1.93170,-0.27799,A,113225.90
2.14073,57.68798111,11.98131742,57.68799417,11.98127600,11:32:26.075077,2.14073,0.00549,0.00000,0.05889,-0.01172,-0.00325,-0.00305,-0.04447,0.08967,0.99631,2.13602,0.00000,-0.01869,-0.01668,1.94705,-0.35889,2.05613,1.93170,-0.27799,A,113225.90
2.15011,57.68798118,11.98131740,57.68799417,11.98127600,11:32:26.084447,2.15011,0.00443,0.00000,0.05903,-0.01264,0.00637,-0.00137,-0.06082,0.09241,0.95605,2.14519,0.00000,-0.01853,-0.01651,1.94552,-0.35080,2.05613,1.93170,-0.27799,A,113225.90
2.17453,57.68798136,11.98131728,57.68799533,11.98127500,11:32:26.108871,2.17453,0.01845,0.00000,0.05905,-0.01141,0.01018,0.00275,0.01702,0.08272,0.91976,2.15578,0.00000,-0.01836,-0.01635,1.93819,-0.33055,2.17148,1.87226,-0.14826,A,113226.00
2.18612,57.68798152,11.98131716,57.68799533,11.98127500,11:32:26.120461,2.18612,0.00455,0.00000,0.05821,-0.03127,-0.02876,0.00107,0.06130,0.07509,0.98283,2.18116,0.00000,-0.01820,-0.01619,1.93160,-0.31232,2.17148,1.87226,-0.14826,A,113226.00
2.19628,57.68798167,11.98131707,57.68799533,11.98127500,11:32:26.130615,2.19628,0.00432,0.00000,0.05818,-0.03203,-0.02112,-0.00122,-0.09583,0.10827,1.09251,2.19163,0.00000,-0.01804,-0.01602,1.92567,-0.29591,2.17148,1.87226,-0.14826,A,113226.00
2.20679,57.68798180,11.98131698,57.68799533,11.98127500,11:32:26.141129,2.20679,0.00444,0.00000,0.05837,-0.03600,0.00850,-0.00519,-0.14872,0.13225,1.13131,2.20186,0.00000,-0.01788,-0.01586,1.92033,-0.28115,2.17148,1.87226,-0.14826,A,113226.00
2.21748,57.68798192,11.98131689,57.68799533,11.98127500,11:32:26.151836,2.21748,0.00473,0.00000,0.05819,-0.03585,0.04180,-0.00503,-0.02843,0.10047,1.08061,2.21260,0.00000,-0.01772,-0.01571,1.91552,-0.26786,2.17148,1.87226,-0.14826,A,113226.00
2.22782,57.68798203,11.98131682,57.68799533,11.98127500,11:32:26.162155,2.22782,0.00467,1.07194,0.05797,-0.03172,0.03798,-0.01267,0.07326,0.08558,0.99204,2.22263,0.10719,-0.01756,-0.01555,1.91119,-0.25590,2.17148,1.87226,-0.14826,A,113226.00
2.23830,57.68798213,11.98131677,57.68799533,11.98127500,11:32:26.172632,2.23830,0.00462,1.07194,0.05742,-0.04303,0.01538,-0.01252,0.09095,0.06905,0.93537,2.23335,0.20367,-0.01740,-0.01539,1.90811,-0.24515,2.17148,1.87226,-0.14826,A,113226.00
2.24840,57.68798222,11.98131673,57.68799533,11.98127500,11:32:26.182732,2.24840,0.00433,1.07194,0.05698,-0.04364,-0.01440,-0.01053,0.04697,0.06954,0.87620,2.24376,0.29049,-0.01723,-0.01522,1.90604,-0.23548,2.17148,1.87226,-0.14826,A,113226.00
2.25898,57.68798229,11.98131671,57.68799533,11.98127500,11:32:26.193323,2.25898,0.00452,1.07194,0.05595,-0.04639,-0.02861,-0.00748,-0.04825,0.03727,0.89700,2.25395,0.36864,-0.01707,-0.01506,1.90485,-0.22679,2.17148,1.87226,-0.14826,A,113226.00
2.27010,57.68798236,11.98131671,57.68799533,11.98127500,11:32:26.204443,2.27010,0.00525,1.07194,0.05532,-0.05677,-0.02311,-0.00244,-0.07820,0.07393,0.95599,2.26514,0.43897,-0.01690,-0.01488,1.90458,-0.21899,2.17148,1.87226,-0.14826,A,113226.00
2.29364,57.68798251,11.98131670,57.68799617,11.98127400,11:32:26.227998,2.29364,0.01839,1.07194,0.05424,-0.06059,-0.01425,-0.00167,-0.02117,0.04386,0.96612,2.27531,0.50227,-0.01669,-0.01468,1.90388,-0.20277,2.29054,1.81283,-0.05560,A,113226.10
2.30368,57.68798264,11.98131661,57.68799617,11.98127400,11:32:26.238022,2.30368,0.00446,1.07194,0.05399,-0.06547,-0.02265,-0.00931,-0.02647,0.17434,1.07354,2.29899,0.55923,-0.01652,-0.01450,1.89862,-0.18811,2.29054,1.81283,-0.05560,A,113226.10
2.31421,57.68798276,11.98131654,57.68799617,11.98127400,11:32:26.248548,2.31421,0.00454,1.07194,0.05462,-0.05387,-0.01303,-0.00992,-0.07692,0.16824,1.08238,2.30919,0.61050,-0.01634,-0.01433,1.89424,-0.17492,2.29054,1.81283,-0.05560,A,113226.10
2.32675,57.68798287,11.98131649,57.68799617,11.98127400,11:32:26.261107,2.32675,0.00669,1.07194,0.05362,-0.04623,-0.00356,-0.00992,-0.05234,0.04740,1.06597,2.32078,0.65665,-0.01616,-0.01415,1.89135,-0.16306,2.29054,1.81283,-0.05560,A,113226.10
2.33552,57.68798296,11.98131642,57.68799617,11.98127400,11:32:26.269843,2.33552,0.00452,1.07194,0.05234,-0.05326,-0.00387,-0.01160,-0.03148,0.02653,1.07586,2.33065,0.69818,-0.01599,-0.01398,1.88760,-0.15238,2.29054,1.81283,-0.05560,A,113226.10
2.34601,57.68798305,11.98131639,57.68799617,11.98127400,11:32:26.280344,2.34601,0.00447,1.07194,0.05090,-0.06227,-0.00356,-0.00427,-0.04240,0.02190,1.07885,2.34106,0.73555,-0.01582,-0.01381,1.88538,-0.14277,2.29054,1.81283,-0.05560,A,113226.10
2.35626,57.68798313,11.98131636,57.68799617,11.98127400,11:32:26.290593,2.35626,0.00433,1.07194,0.05025,-0.06425,0.00408,0.00092,0.00756,0.07430,1.00119,2.35162,0.76919,-0.01564,-0.01363,1.88371,-0.13413,2.29054,1.81283,-0.05560,A,113226.10
2.36710,57.68798320,11.98131634,57.68799617,11.98127400,11:32:26.301437,2.36710,0.00454,1.07194,0.04961,-0.06227,-0.00295,0.01146,0.00927,0.06393,0.88877,2.36206,0.79946,-0.01546,-0.01345,1.88259,-0.12636,2.29054,1.81283,-0.05560,A,113226.10
2.37866,57.68798326,11.98131633,57.68799617,11.98127400,11:32:26.313009,2.37866,0.00487,1.07194,0.05011,-0.05662,-0.01517,0.00963,-0.07033,0.13152,0.88810,2.37341,0.82671,-0.01528,-0.01327,1.88219,-0.11937,2.29054,1.81283,-0.05560,A,113226.10
2.38862,57.68798332,11.98131632,57.68799617,11.98127400,11:32:26.322952,2.38862,0.00444,1.07194,0.04993,-0.04975,-0.00616,0.01268,-0.13103,0.08754,0.92409,2.38398,0.85123,-0.01511,-0.01310,1.88132,-0.11307,2.29054,1.81283,-0.05560,A,113226.10
2.41133,57.68798343,11.98131639,57.68799683,11.98127317,11:32:26.345674,2.41133,0.01676,1.07194,0.04978,-0.05020,0.00957,0.01299,-0.07393,0.09309,0.97685,2.39408,0.87330,-0.01487,-0.01286,1.88559,-0.10012,2.40851,1.76330,0.01853,A,113226.20
2.42119,57.68798354,11.98131629,57.68799683,11.98127317,11:32:26.355767,2.42119,0.00437,1.07194,0.04821,-0.05417,-0.01501,-0.00015,0.09132,0.04252,0.90927,2.41653,0.89317,-0.01470,-0.01268,1.87966,-0.08834,2.40851,1.76330,0.01853,A,113226.20
2.43377,57.68798363,11.98131622,57.68799683,11.98127317,11:32:26.368123,2.43377,0.00656,1.07194,0.04760,-0.06135,-0.02967,-0.00397,-0.05313,0.07418,1.00290,2.42769,0.91104,-0.01452,-0.01251,1.87554,-0.07775,2.40851,1.76330,0.01853,A,113226.20
2.44210,57.68798372,11.98131612,57.68799683,11.98127317,11:32:26.376434,2.44210,0.00443,1.07194,0.04726,-0.05769,-0.02357,-0.00687,-0.18995,0.09376,1.12527,2.43719,0.92713,-0.01436,-0.01235,1.86945,-0.06818,2.40851,1.76330,0.01853,A,113226.20
2.45239,57.68798380,11.98131606,57.68799683,11.98127317,11:32:26.386718,2.45239,0.00433,1.07194,0.04649,-0.05570,0.00606,-0.00778,-0.09510,0.06442,1.14546,2.44774,0.94161,-0.01418,-0.01215,1.86590,-0.05960,2.40851,1.76330,0.01853,A,113226.20
2.46287,57.68798387,11.98131601,57.68799683,11.98127317,11:32:26.397202,2.46287,0.00441,1.07194,0.04528,-0.05219,0.01278,-0.00381,0.08650,0.02397,1.06982,2.45794,0.95465,-0.01401,-0.01189,1.86274,-0.05187,2.40851,1.76330,0.01853,A,113226.20
2.47315,57.68798393,11.98131596,57.68799683,11.98127317,11:32:26.407803,2.47315,0.00431,1.07194,0.04506,-0.05188,-0.00448,0.00275,0.06008,0.09241,1.04706,2.46852,0.96638,-0.01384,-0.01156,1.86008,-0.04492,2.40851,1.76330,0.01853,A,113226.20
2.48358,57.68798399,11.98131592,57.68799683,11.98127317,11:32:26.417913,2.48358,0.00433,1.07194,0.04501,-0.03417,-0.00814,0.01008,-0.04746,0.09004,1.03127,2.47893,0.97693,-0.01367,-0.01116,1.85788,-0.03866,2.40851,1.76330,0.01853,A,113226.20
2.49407,57.68798404,11.98131589,57.68799683,11.98127317,11:32:26.428406,2.49407,0.00441,1.07194,0.04466,-0.02959,-0.00600,0.01161,-0.11004,0.06179,0.97582,2.48918,0.98643,-0.01349,-0.01071,1.85582,-0.03302,2.40851,1.76330,0.01853,A,113226.20
2.50438,57.68798408,11.98131586,57.68799683,11.98127317,11:32:26.438718,2.50438,0.00432,1.07194,0.04377,-0.02714,-0.00234,0.01283,-0.08644,0.02397,0.90335,2.49973,0.99498,-0.01331,-0.01026,1.85410,-0.02795,2.40851,1.76330,0.01853,A,113226.20
2.53855,57.68798432,11.98131603,57.68799883,11.98127150,11:32:26.472893,2.53855,0.02810,1.07194,0.04354,-0.02287,-0.00784,0.01451,-0.11010,0.06283,0.94910,2.50995,1.00268,-0.01291,-0.00962,1.86399,-0.00136,2.53566,1.66423,0.24092,A,113226.40
2.54843,57.68798454,11.98131581,57.68799883,11.98127150,11:32:26.482768,2.54843,0.00439,1.07194,0.04359,-0.00683,0.00163,0.01008,-0.10956,0.09071,1.07354,2.54375,1.00960,-0.01273,-0.00900,1.85127,0.02280,2.53566,1.66423,0.24092,A,113226.40
2.55885,57.68798473,11.98131563,57.68799883,11.98127150,11:32:26.493183,2.55885,0.00441,1.07194,0.04359,-0.00027,0.01461,0.00611,-0.14939,0.07472,1.13838,2.55393,1.01584,-0.01255,-0.00876,1.84013,0.04454,2.53566,1.66423,0.24092,A,113226.40
2.56948,57.68798491,11.98131546,57.68799883,11.98127150,11:32:26.503832,2.56948,0.00464,1.07194,0.04269,0.00462,0.02637,0.00336,0.03812,0.00317,1.00882,2.56459,1.02145,-0.01236,-0.00856,1.83037,0.06411,2.53566,1.66423,0.24092,A,113226.40
2.57982,57.68798507,11.98131532,57.68799883,11.98127150,11:32:26.514152,2.57982,0.00459,1.07194,0.04150,-0.00439,-0.00066,0.00245,0.14927,-0.01074,0.94086,2.57514,1.02650,-0.01217,-0.00837,1.82178,0.08173,2.53566,1.66423,0.24092,A,113226.40
2.59196,57.68798521,11.98131520,57.68799883,11.98127150,11:32:26.526299,2.59196,0.00502,1.07194,0.04144,-0.00973,-0.03533,0.00459,-0.06734,0.07131,1.06628,2.58656,1.03104,-0.01197,-0.00816,1.81508,0.09757,2.53566,1.66423,0.24092,A,113226.40
2.60189,57.68798534,11.98131507,57.68799883,11.98127150,11:32:26.536228,2.60189,0.00446,1.07194,0.04147,-0.00378,-0.02326,0.00734,-0.14664,0.06985,1.01821,2.59697,1.03513,-0.01179,-0.00799,1.80728,0.11185,2.53566,1.66423,0.24092,A,113226.40
2.61219,57.68798545,11.98131497,57.68799883,11.98127150,11:32:26.546516,2.61219,0.00435,1.07194,0.04136,-0.00622,-0.00005,0.00963,-0.08388,0.05771,0.94123,2.60753,1.03881,-0.01161,-0.00781,1.80086,0.12469,2.53566,1.66423,0.24092,A,113226.40
2.62259,57.68798556,11.98131487,57.68799883,11.98127150,11:32:26.556925,2.62259,0.00453,1.07194,0.04132,0.00355,0.00942,0.00672,-0.04917,0.05520,0.93763,2.61763,1.04212,-0.01143,-0.00763,1.79494,0.13625,2.53566,1.66423,0.24092,A,113226.40
2.63318,57.68798565,11.98131478,57.68799883,11.98127150,11:32:26.567745,2.63318,0.00471,1.07194,0.04159,-0.00240,0.01553,0.00336,-0.03623,0.08150,0.97685,2.62832,1.04510,-0.01125,-0.00745,1.78989,0.14666,2.53566,1.66423,0.24092,A,113226.40
2.65563,57.68798584,11.98131480,57.68799983,11.98127050,11:32:26.589968,2.65563,0.01677,1.07194,0.04205,0.00126,0.02408,0.00581,0.00982,0.09065,0.96484,2.63836,1.04779,-0.01092,-0.00712,1.79085,0.16706,2.65265,1.60480,0.35212,A,113226.50
2.66480,57.68798600,11.98131460,57.68799983,11.98127050,11:32:26.599127,2.66480,0.00438,1.07194,0.04221,0.00508,-0.00035,-0.00656,-0.00067,0.06978,1.03438,2.66013,1.05020,-0.01076,-0.00696,1.77917,0.18552,2.65265,1.60480,0.35212,A,113226.50
2.67714,57.68798615,11.98131447,57.68799983,11.98127050,11:32:26.611904,2.67714,0.00633,1.07194,0.04169,0.00309,-0.00463,0.00184,-0.04660,0.02873,1.02462,2.67117,1.05238,-0.01057,-0.00677,1.77115,0.20211,2.65265,1.60480,0.35212,A,113226.50
2.68579,57.68798629,11.98131429,57.68799983,11.98127050,11:32:26.620138,2.68579,0.00458,1.07194,0.04149,-0.00469,-0.00463,0.00321,0.01299,0.05368,1.00674,2.68088,1.05433,-0.01042,-0.00662,1.76074,0.21707,2.65265,1.60480,0.35212,A,113226.50
2.69596,57.68798641,11.98131416,57.68799983,11.98127050,11:32:26.630288,2.69596,0.00435,1.07194,0.04143,-0.00362,-0.00509,0.00275,-0.04703,0.06411,1.02291,2.69129,1.05609,-0.01025,-0.00645,1.75305,0.23052,2.65265,1.60480,0.35212,A,113226.50
2.70632,57.68798652,11.98131404,57.68799983,11.98127050,11:32:26.640873,2.70632,0.00448,1.07194,0.04183,-0.00072,-0.00234,-0.00015,-0.04587,0.09101,1.00095,2.70138,1.05768,-0.01008,-0.00628,1.74606,0.24263,2.65265,1.60480,0.35212,A,113226.50
2.71658,57.68798661,11.98131394,57.68799983,11.98127050,11:32:26.650911,2.71658,0.00434,1.07194,0.04212,0.00401,-0.00555,0.00306,-0.01714,0.07509,0.92799,2.71193,1.05910,-0.00992,-0.00612,1.73997,0.25353,2.65265,1.60480,0.35212,A,113226.50
2.72716,57.68798670,11.98131385,57.68799983,11.98127050,11:32:26.661487,2.72716,0.00452,1.07194,0.04299,0.00126,-0.01578,0.00107,-0.05142,0.11474,0.93781,2.72212,1.06039,-0.00975,-0.00595,1.73443,0.26334,2.65265,1.60480,0.35212,A,113226.50
2.73763,57.68798678,11.98131376,57.68799983,11.98127050,11:32:26.671970,2.73763,0.00460,1.07194,0.04262,0.00661,-0.01150,0.00367,-0.06008,0.03489,0.96813,2.73272,1.06154,-0.00959,-0.00579,1.72947,0.27217,2.65265,1.60480,0.35212,A,113226.50
2.74863,57.68798685,11.98131369,57.68799983,11.98127050,11:32:26.682971,2.74863,0.00520,1.07194,0.04268,0.00798,-0.00478,0.00153,-0.05514,0.06429,1.01284,2.74312,1.06258,-0.00943,-0.00563,1.72498,0.28012,2.65265,1.60480,0.35212,A,113226.50
2.77041,57.68798700,11.98131371,57.68800067,11.98126950,11:32:26.704749,2.77041,0.01673,1.07194,0.04262,0.00600,-0.00753,0.00504,0.00708,0.05832,1.01900,2.75318,1.06352,-0.00912,-0.00532,1.72603,0.29648,2.76755,1.54536,0.44478,A,113226.60
2.78207,57.68798713,11.98131356,57.68800067,11.98126950,11:32:26.716411,2.78207,0.00490,1.07194,0.04266,0.01073,-0.02433,0.00016,-0.06686,0.05148,1.01034,2.77712,1.06436,-0.00895,-0.00515,1.71709,0.31126,2.76755,1.54536,0.44478,A,113226.60
2.79245,57.68798725,11.98131340,57.68800067,11.98126950,11:32:26.726772,2.79245,0.00488,1.07194,0.04273,0.00508,-0.01700,0.00169,-0.03873,0.06344,0.95337,2.78725,1.06512,-0.00880,-0.00500,1.70760,0.32457,2.76755,1.54536,0.44478,A,113226.60
2.80282,57.68798736,11.98131326,57.68800067,11.98126950,11:32:26.737156,2.80282,0.00502,1.28289,0.04223,-0.00118,-0.02509,0.00306,-0.02806,0.03178,0.96130,2.79785,1.08689,-0.00865,-0.00485,1.69926,0.33655,2.76755,1.54536,0.44478,A,113226.60
2.81247,57.68798746,11.98131313,57.68800067,11.98126950,11:32:26.746807,2.81247,0.00443,1.28289,0.04197,-0.00760,-0.03639,0.00062,-0.05472,0.05551,1.05695,2.80779,1.10649,-0.00850,-0.00470,1.69151,0.34734,2.76755,1.54536,0.44478,A,113226.60
2.82309,57.68798754,11.98131302,57.68800067,11.98126950,11:32:26.757432,2.82309,0.00466,1.28289,0.04202,-0.00424,-0.03441,0.00062,-0.12328,0.07662,1.07683,2.81793,1.12413,-0.00835,-0.00454,1.68514,0.35704,2.76755,1.54536,0.44478,A,113226.60
2.83365,57.68798762,11.98131293,57.68800067,11.98126950,11:32:26.768005,2.83365,0.00483,1.28289,0.04213,-0.00133,-0.01914,-0.00152,-0.04959,0.07271,0.99119,2.82865,1.14001,-0.00819,-0.00439,1.67965,0.36578,2.76755,1.54536,0.44478,A,113226.60
2.84403,57.68798769,11.98131285,57.68800067,11.98126950,11:32:26.778358,2.84403,0.00449,1.28289,0.04236,-0.00576,-0.02143,-0.00641,0.02782,0.07723,0.91384,2.83932,1.15430,-0.00803,-0.00423,1.67531,0.37364,2.76755,1.54536,0.44478,A,113226.60
2.85424,57.68798776,11.98131278,57.68800067,11.98126950,11:32:26.788574,2.85424,0.00446,1.28289,0.04245,-0.00179,-0.03227,-0.00397,-0.02940,0.06496,0.88651,2.84931,1.16716,-0.00788,-0.00408,1.67074,0.38072,2.76755,1.54536,0.44478,A,113226.60
2.86450,57.68798781,11.98131271,57.68800067,11.98126950,11:32:26.798838,2.86450,0.00433,1.28289,0.04320,-0.00164,-0.04220,-0.00702,-0.08351,0.10748,0.92006,2.85986,1.17873,-0.00772,-0.00392,1.66708,0.38709,2.76755,1.54536,0.44478,A,113226.60
2.88787,57.68798795,11.98131281,57.68800150,11.98126867,11:32:26.822213,2.88787,0.01730,1.28289,0.04310,0.00141,-0.03365,-0.00580,-0.17519,0.05899,1.00461,2.87005,1.18915,-0.00738,-0.00358,1.67289,0.40203,2.88496,1.49583,0.53744,A,113226.70
2.89854,57.68798807,11.98131267,57.68800150,11.98126867,11:32:26.832874,2.89854,0.00457,1.28289,0.04286,0.00294,-0.01226,0.00596,-0.01372,0.04795,1.06774,2.89356,1.19852,-0.00723,-0.00343,1.66431,0.41554,2.88496,1.49583,0.53744,A,113226.70
2.90872,57.68798818,11.98131254,57.68800150,11.98126867,11:32:26.843052,2.90872,0.00436,1.28289,0.04368,0.01195,-0.00829,0.00917,-0.06393,0.12383,1.09861,2.90407,1.20696,-0.00708,-0.00328,1.65647,0.42770,2.88496,1.49583,0.53744,A,113226.70
2.91915,57.68798828,11.98131242,57.68800150,11.98126867,11:32:26.853483,2.91915,0.00439,1.28289,0.04404,0.02875,-0.00509,0.01604,-0.09162,0.07954,1.11410,2.91425,1.21455,-0.00693,-0.00313,1.64947,0.43864,2.88496,1.49583,0.53744,A,113226.70
2.92993,57.68798837,11.98131232,57.68800150,11.98126867,11:32:26.864272,2.92993,0.00478,1.28289,0.04442,0.02997,-0.00417,0.01848,-0.02873,0.07503,1.05292,2.92498,1.22138,-0.00677,-0.00297,1.64358,0.44850,2.88496,1.49583,0.53744,A,113226.70
2.94146,57.68798845,11.98131222,57.68800150,11.98126867,11:32:26.876409,2.94146,0.00590,1.28289,0.04422,0.02860,-0.02326,0.02108,-0.00256,0.03495,1.00571,2.93524,1.22753,-0.00663,-0.00283,1.63775,0.45736,2.88496,1.49583,0.53744,A,113226.70
2.95026,57.68798852,11.98131211,57.68800150,11.98126867,11:32:26.884603,2.95026,0.00447,1.28289,0.04445,0.01394,-0.03380,0.02368,0.01452,0.07058,0.96197,2.94532,1.23307,-0.00650,-0.00270,1.63118,0.46535,2.88496,1.49583,0.53744,A,113226.70
2.96054,57.68798858,11.98131204,57.68800150,11.98126867,11:32:26.894867,2.96054,0.00435,1.28289,0.04494,0.01455,-0.03197,0.02001,-0.12413,0.08888,0.98728,2.95588,1.23805,-0.00635,-0.00255,1.62701,0.47253,2.88496,1.49583,0.53744,A,113226.70
2.97101,57.68798864,11.98131198,57.68800150,11.98126867,11:32:26.905344,2.97101,0.00444,1.28289,0.04613,0.00936,-0.00875,0.01711,-0.06978,0.13322,0.93995,2.96608,1.24254,-0.00620,-0.00240,1.62321,0.47900,2.88496,1.49583,0.53744,A,113226.70
2.98206,57.68798869,11.98131193,57.68800150,11.98126867,11:32:26.916395,2.98206,0.00508,1.28289,0.04648,0.00859,0.00087,0.01207,-0.05899,0.07875,0.90933,2.97710,1.24657,-0.00605,-0.00225,1.62045,0.48482,2.88496,1.49583,0.53744,A,113226.70
3.00398,57.68798882,11.98131197,57.68800233,11.98126733,11:32:26.938324,3.00398,0.01661,1.28289,0.04694,0.00294,0.00087,0.00138,0.00061,0.08790,0.89231,2.98707,1.25020,-0.00573,-0.00193,1.62273,0.49930,3.00120,1.41658,0.63010,A,113226.80
3.01450,57.68798894,11.98131178,57.68800233,11.98126733,11:32:26.948842,3.01450,0.00458,1.28289,0.04720,0.00264,-0.00677,-0.00794,0.00122,0.08235,0.98728,3.00952,1.25347,-0.00559,-0.00179,1.61153,0.51236,3.00120,1.41658,0.63010,A,113226.80
3.02483,57.68798905,11.98131161,57.68800233,11.98126733,11:32:26.959166,3.02483,0.00451,1.28289,0.04726,0.00416,-0.03181,-0.00045,0.06429,0.07168,0.99985,3.02016,1.25641,-0.00545,-0.00165,1.60162,0.52412,3.00120,1.41658,0.63010,A,113226.80
3.03515,57.68798914,11.98131146,57.68800233,11.98126733,11:32:26.969493,3.03515,0.00452,1.28289,0.04710,0.00279,-0.05640,0.00550,-0.01226,0.05954,1.03889,3.03014,1.25906,-0.00531,-0.00151,1.59232,0.53470,3.00120,1.41658,0.63010,A,113226.80
3.04842,57.68798923,11.98131134,57.68800233,11.98126733,11:32:26.982775,3.04842,0.00692,1.28289,0.04739,0.00264,-0.05197,0.00978,-0.05313,0.09339,1.06274,3.04172,1.26144,-0.00516,-0.00136,1.58540,0.54423,3.00120,1.41658,0.63010,A,113226.80
3.05656,57.68798930,11.98131118,57.68800233,11.98126733,11:32:26.990890,3.05656,0.00465,1.28289,0.04722,0.00218,-0.03288,0.01803,-0.03861,0.05771,1.00272,3.05191,1.26359,-0.00505,-0.00125,1.57568,0.55280,3.00120,1.41658,0.63010,A,113226.80
3.06703,57.68798937,11.98131106,57.68800233,11.98126733,11:32:27.001376,3.06703,0.00490,1.28289,0.04757,-0.00928,-0.02784,0.02490,-0.04105,0.09766,0.98314,3.06169,1.26552,-0.00492,-0.00111,1.56882,0.56052,3.00120,1.41658,0.63010,A,113226.80
3.07686,57.68798944,11.98131096,57.68800233,11.98126733,11:32:27.011193,3.07686,0.00434,1.28289,0.04811,0.00141,-0.02082,0.02291,-0.01061,0.10315,0.97252,3.07223,1.26726,-0.00479,-0.00098,1.56275,0.56747,3.00120,1.41658,0.63010,A,113226.80
3.08872,57.68798949,11.98131091,57.68800233,11.98126733,11:32:27.023056,3.08872,0.00479,1.28289,0.04887,0.01485,-0.02433,0.01986,-0.03983,0.10748,0.97393,3.08405,1.26882,-0.00463,-0.00080,1.55956,0.57372,3.00120,1.41658,0.63010,A,113226.80
3.09865,57.68798954,11.98131081,57.68800233,11.98126733,11:32:27.032986,3.09865,0.00448,1.28289,0.04864,0.01882,-0.01288,0.01772,-0.02324,0.04441,0.98454,3.09370,1.27023,-0.00451,-0.00066,1.55417,0.57935,3.00120,1.41658,0.63010,A,113226.80
3.12154,57.68798969,11.98131080,57.68800333,11.98126550,11:32:27.055887,3.12154,0.01698,1.28289,0.04796,0.01043,-0.02311,0.01451,0.01586,0.01824,0.97551,3.10426,1.27149,-0.00419,-0.00032,1.55355,0.59553,3.11871,1.30761,0.74130,A,113226.90
3.13195,57.68798982,11.98131056,57.68800333,11.98126550,11:32:27.066292,3.13195,0.00459,1.28289,0.04822,-0.00866,-0.03731,0.01115,-0.07058,0.10437,1.02736,3.12727,1.27263,-0.00405,-0.00018,1.53878,0.61011,3.11871,1.30761,0.74130,A,113226.90
3.14304,57.68798994,11.98131032,57.68800333,11.98126550,11:32:27.077398,3.14304,0.00533,1.28289,0.04822,-0.00775,-0.02647,0.00886,-0.00915,0.07491,0.97966,3.13725,1.27366,-0.00393,-0.00005,1.52498,0.62322,3.11871,1.30761,0.74130,A,113226.90
3.15316,57.68799004,11.98131012,57.68800333,11.98126550,11:32:27.087759,3.15316,0.00506,1.28289,0.04759,0.00141,-0.02479,0.00489,-0.03215,0.02818,1.00003,3.14779,1.27458,-0.00380,0.00008,1.51272,0.63503,3.11871,1.30761,0.74130,A,113226.90
3.16294,57.68799014,11.98130992,57.68800333,11.98126550,11:32:27.097271,3.16294,0.00444,1.28289,0.04791,-0.00194,-0.02204,-0.00045,-0.02836,0.09546,1.02315,3.15801,1.27541,-0.00369,0.00019,1.50102,0.64566,3.11871,1.30761,0.74130,A,113226.90
3.17344,57.68799023,11.98130976,57.68800333,11.98126550,11:32:27.107796,3.17344,0.00454,1.28289,0.04759,0.00294,-0.01837,-0.00839,-0.00439,0.04874,1.02120,3.16859,1.27616,-0.00356,0.00032,1.49141,0.65522,3.11871,1.30761,0.74130,A,113226.90
3.18353,57.68799030,11.98130961,57.68800333,11.98126550,11:32:27.117866,3.18353,0.00441,1.28289,0.04765,0.00645,-0.02983,-0.00351,0.00262,0.07283,1.03669,3.17865,1.27683,-0.00343,0.00044,1.48273,0.66384,3.11871,1.30761,0.74130,A,113226.90
3.19408,57.68799037,11.98130948,57.68800333,11.98126550,11:32:27.128416,3.19408,0.00444,1.28289,0.04729,0.00401,-0.02998,0.00062,-0.02605,0.04563,1.03987,3.18917,1.27744,-0.00331,0.00057,1.47496,0.67159,3.11871,1.30761,0.74130,A,113226.90
3.20436,57.68799044,11.98130936,57.68800333,11.98126550,11:32:27.138685,3.20436,0.00432,1.28289,0.04733,0.00752,-0.02234,0.00749,-0.09736,0.07271,1.08153,3.19971,1.27798,-0.00318,0.00069,1.46796,0.67856,3.11871,1.30761,0.74130,A,113226.90
3.21484,57.68799049,11.98130926,57.68800333,11.98126550,11:32:27.149175,3.21484,0.00442,1.28289,0.04711,0.00691,-0.00157,0.01100,0.00970,0.05039,0.98552,3.20992,1.27847,-0.00306,0.00081,1.46156,0.68484,3.11871,1.30761,0.74130,A,113226.90
3.25127,57.68799074,11.98130942,57.68800533,11.98126300,11:32:27.185620,3.25127,0.03044,1.28289,0.04709,0.00981,-0.01349,0.01100,0.03800,0.05630,0.90426,3.22067,1.27892,-0.00254,0.00133,1.47119,0.71276,3.24840,1.15902,0.96369,A,113227.10
3.26260,57.68799097,11.98130907,57.68800533,11.98126300,11:32:27.196938,3.26260,0.00457,1.28289,0.04682,0.01730,0.00377,0.00214,0.04008,0.00933,0.94367,3.25763,1.27931,-0.00242,0.00146,1.45055,0.73787,3.24840,1.15902,0.96369,A,113227.10
3.27276,57.68799117,11.98130874,57.68800533,11.98126300,11:32:27.207096,3.27276,0.00434,1.28289,0.04642,0.00157,-0.01654,0.00260,0.09260,0.04087,0.96978,3.26812,1.27967,-0.00230,0.00157,1.43101,0.76046,3.24840,1.15902,0.96369,A,113227.10
3.28340,57.68799136,11.98130846,57.68800533,11.98126300,11:32:27.217734,3.28340,0.00439,1.28289,0.04639,0.00218,-0.03227,-0.00534,0.04276,0.06490,0.98430,3.27852,1.27999,-0.00219,0.00169,1.41393,0.78080,3.24840,1.15902,0.96369,A,113227.10
3.29403,57.68799152,11.98130819,57.68800533,11.98126300,11:32:27.228369,3.29403,0.00463,1.28289,0.04663,-0.00439,-0.04449,-0.00549,-0.05612,0.09302,1.04975,3.28906,1.28028,-0.00207,0.00180,1.39823,0.79911,3.24840,1.15902,0.96369,A,113227.10
3.30420,57.68799167,11.98130795,57.68800533,11.98126300,11:32:27.238543,3.30420,0.00440,1.28289,0.04632,-0.00928,-0.03914,-0.00580,-0.05667,0.05832,1.06323,3.29957,1.28054,-0.00196,0.00191,1.38394,0.81558,3.24840,1.15902,0.96369,A,113227.10
3.31456,57.68799180,11.98130773,57.68800533,11.98126300,11:32:27.248892,3.31456,0.00452,1.28289,0.04580,-0.01050,-0.02677,-0.01267,-0.04776,0.04496,1.07744,3.30961,1.28078,-0.00186,0.00202,1.37094,0.83041,3.24840,1.15902,0.96369,A,113227.10
3.32494,57.68799192,11.98130754,57.68800533,11.98126300,11:32:27.259519,3.32494,0.00451,1.28289,0.04515,-0.02195,-0.02280,-0.01328,0.04203,0.04288,1.04719,3.32030,1.28099,-0.00175,0.00213,1.35963,0.84376,3.24840,1.15902,0.96369,A,113227.10
3.33534,57.68799203,11.98130737,57.68800533,11.98126300,11:32:27.269669,3.33534,0.00439,1.28289,0.04496,-0.02577,-0.03762,-0.01695,0.00604,0.07265,1.00571,3.33045,1.28118,-0.00164,0.00222,1.34918,0.85577,3.24840,1.15902,0.96369,A,113227.10
3.34584,57.68799213,11.98130721,57.68800533,11.98126300,11:32:27.280187,3.34584,0.00472,1.33416,0.04556,-0.02989,-0.03349,-0.02092,-0.12218,0.12627,0.97844,3.34077,1.28648,-0.00154,0.00222,1.33970,0.86659,3.24840,1.15902,0.96369,A,113227.10
3.37062,57.68799233,11.98130731,57.68800650,11.98126267,11:32:27.304956,3.37062,0.01909,1.33416,0.04533,-0.02012,-0.01379,-0.02687,-0.14140,0.06368,0.94800,3.35123,1.29125,-0.00122,0.00230,1.34613,0.88933,3.36772,1.13921,1.09342,A,113227.20
3.38084,57.68799251,11.98130712,57.68800650,11.98126267,11:32:27.315173,3.38084,0.00471,1.33416,0.04403,-0.02562,0.00072,-0.02580,0.10907,0.02062,0.90670,3.37585,1.29554,-0.00113,0.00133,1.33482,0.90976,3.36772,1.13921,1.09342,A,113227.20
3.39146,57.68799268,11.98130695,57.68800650,11.98126267,11:32:27.325796,3.39146,0.00485,1.33416,0.04331,-0.02928,-0.03044,-0.02611,0.03196,0.03648,0.97362,3.38611,1.29940,-0.00106,0.00089,1.32470,0.92814,3.36772,1.13921,1.09342,A,113227.20
3.40158,57.68799283,11.98130680,57.68800650,11.98126267,11:32:27.335927,3.40158,0.00458,1.33416,0.04277,-0.03111,-0.04556,-0.01695,-0.05752,0.05386,1.06170,3.39669,1.30288,-0.00101,0.00045,1.31558,0.94467,3.36772,1.13921,1.09342,A,113227.20
3.41175,57.68799296,11.98130667,57.68800650,11.98126267,11:32:27.346089,3.41175,0.00436,1.33416,0.04235,-0.02989,-0.04220,-0.01374,-0.11346,0.06381,1.12484,3.40710,1.30600,-0.00096,0.00006,1.30776,0.95955,3.36772,1.13921,1.09342,A,113227.20
3.42219,57.68799308,11.98130655,57.68800650,11.98126267,11:32:27.356522,3.42219,0.00451,1.33416,0.04184,-0.03463,-0.03120,-0.01435,-0.00464,0.05819,1.09318,3.41720,1.30882,-0.00093,-0.00027,1.30062,0.97294,3.36772,1.13921,1.09342,A,113227.20
3.43295,57.68799319,11.98130645,57.68800650,11.98126267,11:32:27.367521,3.43295,0.00488,1.33416,0.04168,-0.03524,-0.03166,-0.01817,0.01958,0.08040,1.04139,3.42807,1.31135,-0.00090,-0.00055,1.29475,0.98498,3.36772,1.13921,1.09342,A,113227.20
3.44287,57.68799329,11.98130634,57.68800650,11.98126267,11:32:27.377215,3.44287,0.00442,1.33416,0.04140,-0.03738,-0.03502,-0.02260,-0.00122,0.06631,0.96520,3.43797,1.31363,-0.00089,-0.00076,1.28844,0.99582,3.36772,1.13921,1.09342,A,113227.20
3.45535,57.68799338,11.98130630,57.68800650,11.98126267,11:32:27.389688,3.45535,0.00624,1.33416,0.04130,-0.03402,-0.01853,-0.02779,-0.12651,0.08058,0.96654,3.45036,1.31569,-0.00087,-0.00090,1.28574,1.00557,3.36772,1.13921,1.09342,A,113227.20
3.46386,57.68799346,11.98130619,57.68800650,11.98126267,11:32:27.398192,3.46386,0.00436,1.33416,0.04129,-0.03356,-0.00203,-0.02489,-0.11791,0.07521,0.91982,3.45920,1.31753,-0.00087,-0.00095,1.27901,1.01435,3.36772,1.13921,1.09342,A,113227.20
3.48693,57.68799364,11.98130623,57.68800767,11.98126133,11:32:27.421277,3.48693,0.01719,1.33416,0.04078,-0.02546,0.00560,-0.02443,-0.04941,0.04020,0.89249,3.46928,1.31920,0.03055,0.03046,1.28195,1.03521,3.48385,1.05996,1.22314,A,113227.30
3.49803,57.68799382,11.98130604,57.68800767,11.98126133,11:32:27.432371,3.49803,0.00489,1.33416,0.04016,-0.02699,-0.01196,-0.01389,-0.01653,0.06527,1.04054,3.49306,1.32069,0.06166,0.06157,1.27039,1.05432,3.48385,1.05996,1.22314,A,113227.30
3.50790,57.68799397,11.98130585,57.68800767,11.98126133,11:32:27.442234,3.50790,0.00436,1.33416,0.04020,-0.01935,-0.01333,-0.00366,-0.02806,0.08272,1.08190,3.50323,1.32204,0.09246,0.09237,1.25887,1.07179,3.48385,1.05996,1.22314,A,113227.30
3.51847,57.68799412,11.98130568,57.68800767,11.98126133,11:32:27.452806,3.51847,0.00471,1.33416,0.04035,-0.01065,-0.01089,0.00489,-0.04831,0.08735,1.11276,3.51329,1.32325,0.12295,0.12286,1.24872,1.08783,3.48385,1.05996,1.22314,A,113227.30
3.52850,57.68799425,11.98130552,57.68800767,11.98126133,11:32:27.462826,3.52850,0.00434,1.33416,0.04047,-0.01202,-0.01150,0.00734,-0.02257,0.08485,1.08915,3.52384,1.32434,0.15313,0.15304,1.23954,1.10256,3.48385,1.05996,1.22314,A,113227.30
3.53910,57.68799437,11.98130539,57.68800767,11.98126133,11:32:27.473430,3.53910,0.00455,1.33416,0.04048,-0.01248,-0.01501,0.00306,0.01879,0.07052,1.00113,3.53405,1.32532,0.18301,0.18292,1.23145,1.11614,3.48385,1.05996,1.22314,A,113227.30
3.54954,57.68799448,11.98130526,57.68800767,11.98126133,11:32:27.483886,3.54954,0.00460,1.33416,0.04031,-0.01218,-0.03029,0.00031,-0.00695,0.05758,0.98106,3.54464,1.32621,0.21260,0.21251,1.22412,1.12866,3.48385,1.05996,1.22314,A,113227.30
3.55995,57.68799459,11.98130516,57.68800767,11.98126133,11:32:27.494287,3.55995,0.00452,1.33416,0.04034,-0.00530,-0.03120,-0.00229,-0.02824,0.06374,0.94654,3.55525,1.32700,0.24188,0.24180,1.21797,1.14032,3.48385,1.05996,1.22314,A,113227.30
3.57010,57.68799468,11.98130505,57.68800767,11.98126133,11:32:27.504438,3.57010,0.00442,1.33416,0.04027,-0.00882,-0.03960,0.00230,-0.02544,0.05581,0.89566,3.56519,1.32772,0.27088,0.27087,1.21152,1.15091,3.48385,1.05996,1.22314,A,113227.30
3.58075,57.68799477,11.98130496,57.68800767,11.98126133,11:32:27.515088,3.58075,0.00468,1.33416,0.04034,-0.00607,-0.03609,0.00902,-0.10224,0.06631,0.94117,3.57577,1.32836,0.29959,0.29976,1.20616,1.16085,3.48385,1.05996,1.22314,A,113227.30
3.60331,57.68799500,11.98130498,57.68800867,11.98126000,11:32:27.537645,3.60331,0.01685,1.33416,0.04043,0.00004,-0.01394,0.00764,-0.07619,0.06789,0.99790,3.58597,1.32894,0.32802,0.32849,1.20736,1.18554,3.60046,0.98071,1.33434,A,113227.40
3.61372,57.68799516,11.98130476,57.68800867,11.98126000,11:32:27.548062,3.61372,0.00467,1.33416,0.04081,0.00233,0.00942,0.01115,-0.05203,0.09260,1.10032,3.60877,1.32946,0.35617,0.35753,1.19408,1.20362,3.60046,0.98071,1.33434,A,113227.40
3.62393,57.68799531,11.98130456,57.68800867,11.98126000,11:32:27.558271,3.62393,0.00436,1.33416,0.04104,0.00416,0.01431,0.00611,-0.01415,0.07710,1.02767,3.61928,1.32993,0.38405,0.38581,1.18216,1.22021,3.60046,0.98071,1.33434,A,113227.40
3.63428,57.68799544,11.98130437,57.68800867,11.98126000,11:32:27.568613,3.63428,0.00449,1.33416,0.04031,0.00340,0.00591,0.00413,0.05313,0.01159,0.91372,3.62933,1.33036,0.41167,0.41377,1.17113,1.23532,3.60046,0.98071,1.33434,A,113227.40
3.64468,57.68799557,11.98130421,57.68800867,11.98126000,11:32:27.579012,3.64468,0.00449,1.33416,0.04013,-0.00500,-0.02311,0.00062,-0.05636,0.05252,0.97399,3.64003,1.33074,0.43902,0.44140,1.16149,1.24935,3.60046,0.98071,1.33434,A,113227.40
3.65704,57.68799568,11.98130405,57.68800867,11.98126000,11:32:27.591624,3.65704,0.00646,1.33416,0.04052,-0.00485,-0.01700,-0.00106,-0.17025,0.10583,1.15485,3.65008,1.33108,0.46610,0.46865,1.15232,1.26206,3.60046,0.98071,1.33434,A,113227.40
3.66557,57.68799578,11.98130388,57.68800867,11.98126000,11:32:27.599916,3.66557,0.00460,1.33416,0.04052,0.00554,0.00973,0.00336,-0.04599,0.06368,1.07220,3.66067,1.33139,0.49290,0.49555,1.14207,1.27279,3.60046,0.98071,1.33434,A,113227.40
3.67573,57.68799588,11.98130376,57.68800867,11.98126000,11:32:27.610068,3.67573,0.00437,1.33416,0.03962,-0.00546,0.00850,0.00932,0.11248,0.00592,0.93007,3.67109,1.33166,0.51945,0.52212,1.13477,1.28372,3.60046,0.98071,1.33434,A,113227.40
3.68716,57.68799597,11.98130366,57.68800867,11.98126000,11:32:27.621509,3.68716,0.00548,1.33416,0.03953,-0.01905,-0.02555,0.00489,0.00573,0.06509,0.92635,3.68221,1.33191,0.54575,0.54842,1.12903,1.29435,3.60046,0.98071,1.33434,A,113227.40
3.69643,57.68799605,11.98130354,57.68800867,11.98126000,11:32:27.630756,3.69643,0.00435,1.33416,0.04072,-0.02180,-0.01807,-0.00198,-0.16549,0.16025,1.02407,3.69177,1.33214,0.57176,0.57443,1.12181,1.30299,3.60046,0.98071,1.33434,A,113227.40
3.71970,57.68799629,11.98130360,57.68800950,11.98125933,11:32:27.654038,3.71970,0.01723,1.33416,0.04127,-0.00729,0.01171,-0.00351,-0.15183,0.10443,0.99607,3.70197,1.33234,0.59767,0.60034,1.12536,1.32939,3.71657,0.94109,1.42700,A,113227.50
3.73051,57.68799643,11.98130343,57.68800950,11.98125933,11:32:27.665022,3.73051,0.00463,1.33416,0.03958,-0.02226,-0.01960,-0.01038,0.11962,-0.01238,0.86650,3.72553,1.33252,0.62318,0.62584,1.11551,1.34502,3.71657,0.94109,1.42700,A,113227.50
3.74205,57.68799656,11.98130330,57.68800950,11.98125933,11:32:27.676396,3.74205,0.00578,1.33416,0.03967,-0.02653,-0.04067,-0.01420,-0.03471,0.08705,0.98131,3.73709,1.33269,0.64844,0.65110,1.10723,1.35984,3.71657,0.94109,1.42700,A,113227.50
3.75112,57.68799667,11.98130313,57.68800950,11.98125933,11:32:27.685450,3.75112,0.00445,1.33416,0.03975,-0.02791,-0.02647,-0.01145,-0.20295,0.09333,1.10904,3.74619,1.33283,0.67342,0.67608,1.09724,1.37161,3.71657,0.94109,1.42700,A,113227.50
3.76279,57.68799678,11.98130300,57.68800950,11.98125933,11:32:27.697130,3.76279,0.00573,1.33416,0.04002,-0.01034,0.01828,-0.01236,-0.16086,0.10132,1.15870,3.75674,1.33297,0.69817,0.70083,1.08954,1.38350,3.71657,0.94109,1.42700,A,113227.50
3.77182,57.68799686,11.98130286,57.68800950,11.98125933,11:32:27.706150,3.77182,0.00437,1.33416,0.03967,0.00065,0.04836,-0.01313,0.00622,0.04178,1.09709,3.76717,1.33309,0.72265,0.72532,1.08131,1.39343,3.71657,0.94109,1.42700,A,113227.50
3.78243,57.68799695,11.98130275,57.68800950,11.98125933,11:32:27.716769,3.78243,0.00472,1.33416,0.03959,-0.00576,0.03508,-0.01252,0.14445,0.06143,1.00443,3.77724,1.33319,0.74690,0.74957,1.07469,1.40334,3.71657,0.94109,1.42700,A,113227.50
3.79269,57.68799704,11.98130265,57.68800950,11.98125933,11:32:27.727018,3.79269,0.00445,1.33416,0.03880,0.00355,-0.00677,-0.00992,0.06045,0.00671,0.97612,3.78802,1.33329,0.77092,0.77358,1.06872,1.41260,3.71657,0.94109,1.42700,A,113227.50
3.80305,57.68799711,11.98130255,57.68800950,11.98125933,11:32:27.737384,3.80305,0.00442,1.33416,0.03838,0.00325,-0.03090,-0.01527,-0.07680,0.03032,0.97441,3.79813,1.33338,0.79469,0.79735,1.06306,1.42097,3.71657,0.94109,1.42700,A,113227.50
3.81367,57.68799718,11.98130247,57.68800950,11.98125933,11:32:27.748017,3.81367,0.00465,1.33416,0.03770,0.00752,-0.02738,-0.01588,-0.16897,0.01000,0.97252,3.80871,1.33346,0.81822,0.82089,1.05797,1.42886,3.71657,0.94109,1.42700,A,113227.50
3.84717,57.68799767,11.98130246,57.68801183,11.98125683,11:32:27.781508,3.84717,0.02776,1.33416,0.03748,0.01058,-0.00020,-0.01206,-0.07643,0.03477,0.90805,3.81928,1.33353,0.84178,0.84444,1.05733,1.48243,3.84436,0.79249,1.68646,A,113227.70
3.85761,57.68799792,11.98130212,57.68801183,11.98125683,11:32:27.792787,3.85761,0.00465,1.33416,0.03912,0.03257,-0.00585,-0.00778,-0.20069,0.10779,1.09898,3.85268,1.33359,0.86484,0.86751,1.03750,1.51032,3.84436,0.79249,1.68646,A,113227.70
3.86776,57.68799814,11.98130182,57.68801183,11.98125683,11:32:27.802561,3.86776,0.00440,1.33416,0.03988,0.04830,0.03218,-0.00916,-0.20777,0.09119,1.15125,3.86308,1.33365,0.88767,0.89034,1.01947,1.53556,3.84436,0.79249,1.68646,A,113227.70
3.87827,57.68799835,11.98130154,57.68801183,11.98125683,11:32:27.812607,3.87827,0.00448,1.38929,0.04012,0.06021,0.04959,-0.00580,0.07320,0.04002,1.05542,3.87333,1.33921,0.91028,0.91294,1.00312,1.55850,3.84436,0.79249,1.68646,A,113227.70
3.88853,57.68799854,11.98130129,57.68801183,11.98125683,11:32:27.822865,3.88853,0.00434,1.38929,0.03952,0.05975,0.01202,-0.00213,0.17184,-0.01861,0.97173,3.88389,1.34422,0.93265,0.93532,0.98828,1.57935,3.84436,0.79249,1.68646,A,113227.70
3.89900,57.68799871,11.98130107,57.68801183,11.98125683,11:32:27.833337,3.89900,0.00442,1.38929,0.03942,0.04906,-0.03685,-0.00061,0.08869,0.02227,0.97929,3.89409,1.34873,0.95481,0.95748,0.97471,1.59821,3.84436,0.79249,1.68646,A,113227.70
3.90955,57.68799886,11.98130086,57.68801183,11.98125683,11:32:27.843899,3.90955,0.00458,1.38929,0.04017,0.05410,-0.05075,0.00275,-0.10834,0.07216,0.96496,3.90466,1.35278,0.97675,0.97941,0.96243,1.61547,3.84436,0.79249,1.68646,A,113227.70
3.91975,57.68799900,11.98130067,57.68801183,11.98125683,11:32:27.854083,3.91975,0.00438,1.38929,0.04140,0.06204,-0.04006,0.00413,-0.15921,0.09418,0.91854,3.91509,1.35643,0.99846,1.00113,0.95128,1.63127,3.84436,0.79249,1.68646,A,113227.70
3.93014,57.68799913,11.98130050,57.68801183,11.98125683,11:32:27.864474,3.93014,0.00446,1.38929,0.04248,0.06953,-0.02372,0.00520,-0.08876,0.08485,0.94086,3.92521,1.35972,1.01996,1.02263,0.94086,1.64531,3.84436,0.79249,1.68646,A,113227.70
3.94042,57.68799925,11.98130034,57.68801183,11.98125683,11:32:27.874749,3.94042,0.00434,1.38929,0.04320,0.07380,-0.00585,-0.00183,-0.01202,0.05941,0.96154,3.93578,1.36268,1.04124,1.04391,0.93142,1.65826,3.84436,0.79249,1.68646,A,113227.70
3.96359,57.68799959,11.98130021,57.68801300,11.98125567,11:32:27.897938,3.96359,0.01713,1.38929,0.04385,0.07640,-0.00203,-0.00534,-0.03343,0.05929,1.01900,3.94598,1.36534,1.06246,1.06513,0.92379,1.69674,3.96028,0.72315,1.81618,A,113227.80
3.97444,57.68799978,11.98129996,57.68801300,11.98125567,11:32:27.908783,3.97444,0.00534,1.38929,0.04600,0.08846,0.00713,0.00550,-0.08619,0.08430,1.12460,3.96918,1.36773,1.08332,1.08599,0.90873,1.71773,3.96028,0.72315,1.81618,A,113227.80
3.98407,57.68799995,11.98129972,57.68801300,11.98125567,11:32:27.918403,3.98407,0.00457,1.38929,0.04669,0.09243,0.00713,0.01390,-0.00506,0.05301,1.01455,3.97941,1.36989,1.10396,1.10663,0.89465,1.73607,3.96028,0.72315,1.81618,A,113227.80
3.99417,57.68800010,11.98129950,57.68801300,11.98125567,11:32:27.928515,3.99417,0.00445,1.38929,0.04667,0.08129,-0.01394,0.02108,0.09113,0.01519,0.97027,3.98927,1.37183,1.12440,1.12707,0.88193,1.75293,3.96028,0.72315,1.81618,A,113227.80
4.00446,57.68800024,11.98129931,57.68801300,11.98125567,11:32:27.938787,4.00446,0.00434,1.38929,0.04774,0.06647,-0.03594,0.03040,0.00878,0.09333,0.98076,3.99982,1.37358,1.14464,1.14731,0.87054,1.76870,3.96028,0.72315,1.81618,A,113227.80
4.01495,57.68800037,11.98129914,57.68801300,11.98125567,11:32:27.949291,4.01495,0.00444,1.38929,0.04889,0.06158,-0.03716,0.02352,-0.10681,0.10407,0.98375,4.01002,1.37515,1.16468,1.16735,0.86006,1.78290,3.96028,0.72315,1.81618,A,113227.80
4.02573,57.68800049,11.98129898,57.68801300,11.98125567,11:32:27.960480,4.02573,0.00482,1.38929,0.05065,0.05517,-0.01272,0.01115,-0.13365,0.14603,0.96819,4.02080,1.37656,1.18452,1.18719,0.85059,1.79611,3.96028,0.72315,1.81618,A,113227.80
4.03566,57.68800059,11.98129883,57.68801300,11.98125567,11:32:27.969995,4.03566,0.00436,1.38929,0.05158,0.05181,0.01309,-0.00198,-0.07643,0.09498,0.93727,4.03100,1.37783,1.20416,1.20682,0.84161,1.80744,3.96028,0.72315,1.81618,A,113227.80
4.04609,57.68800068,11.98129869,57.68801300,11.98125567,11:32:27.980432,4.04609,0.00443,1.38929,0.05220,0.04647,0.01110,-0.02000,0.04776,0.07637,0.90030,4.04118,1.37898,1.22360,1.22626,0.83345,1.81798,3.96028,0.72315,1.81618,A,113227.80
4.05645,57.68800077,11.98129856,57.68801300,11.98125567,11:32:27.990781,4.05645,0.00438,1.38929,0.05183,0.02890,-0.01089,-0.02977,0.05039,0.02739,0.91311,4.05177,1.38001,1.24285,1.24551,0.82598,1.82775,3.96028,0.72315,1.81618,A,113227.80
4.07928,57.68800110,11.98129846,57.68801417,11.98125500,11:32:28.013622,4.07928,0.01682,1.38929,0.05207,0.01760,-0.03242,-0.03390,-0.05069,0.07747,0.98484,4.06196,1.38094,1.26205,1.26471,0.82010,1.86435,4.07645,0.68353,1.94591,A,113227.90
4.08876,57.68800125,11.98129828,57.68801417,11.98125500,11:32:28.023097,4.08876,0.00439,1.38929,0.05192,0.00905,-0.00921,-0.01160,-0.10858,0.05423,1.04993,4.08410,1.38177,1.28090,1.28357,0.80931,1.88157,4.07645,0.68353,1.94591,A,113227.90
4.09919,57.68800140,11.98129812,57.68801417,11.98125500,11:32:28.033520,4.09919,0.00443,1.38929,0.05204,0.00875,0.01232,-0.00503,-0.03739,0.07997,1.04286,4.09428,1.38253,1.29958,1.30224,0.79967,1.89796,4.07645,0.68353,1.94591,A,113227.90
4.11063,57.68800154,11.98129797,57.68801417,11.98125500,11:32:28.044978,4.11063,0.00504,1.38929,0.05231,0.01287,0.01080,-0.00091,0.04929,0.08485,1.01364,4.10515,1.38320,1.31807,1.32074,0.79096,1.91330,4.07645,0.68353,1.94591,A,113227.90
4.12033,57.68800165,11.98129783,57.68801417,11.98125500,11:32:28.054661,4.12033,0.00435,1.38929,0.05331,0.02127,-0.00539,0.00092,-0.05752,0.13011,1.02157,4.11568,1.38381,1.33637,1.33904,0.78264,1.92607,4.07645,0.68353,1.94591,A,113227.90
4.13095,57.68800176,11.98129771,57.68801417,11.98125500,11:32:28.065283,4.13095,0.00457,1.38929,0.05353,0.02081,-0.00219,0.00275,-0.09931,0.07594,0.99454,4.12588,1.38436,1.35449,1.35716,0.77512,1.93820,4.07645,0.68353,1.94591,A,113227.90
4.14156,57.68800186,11.98129759,57.68801417,11.98125500,11:32:28.075917,4.14156,0.00480,1.38929,0.05332,0.01287,-0.00555,0.00596,-0.04233,0.05392,1.01309,4.13665,1.38485,1.37243,1.37510,0.76822,1.94937,4.07645,0.68353,1.94591,A,113227.90
4.15164,57.68800195,11.98129748,57.68801417,11.98125500,11:32:28.085979,4.15164,0.00451,1.38929,0.05293,0.00065,-0.01486,0.00153,0.00262,0.05081,1.03358,4.14694,1.38530,1.39019,1.39286,0.76180,1.95937,4.07645,0.68353,1.94591,A,113227.90
4.16210,57.68800203,11.98129738,57.68801417,11.98125500,11:32:28.096436,4.16210,0.00445,1.38929,0.05281,-0.01920,-0.02097,-0.00045,0.03593,0.08534,1.05823,4.15717,1.38570,1.40777,1.41044,0.75582,1.96828,4.07645,0.68353,1.94591,A,113227.90
4.17237,57.68800211,11.98129729,57.68801417,11.98125500,11:32:28.106708,4.17237,0.00433,1.38929,0.05292,-0.02898,-0.02326,-0.00213,0.02727,0.09992,0.96581,4.16773,1.38606,1.42518,1.42785,0.75027,1.97646,4.07645,0.68353,1.94591,A,113227.90
4.19553,57.68800240,11.98129711,57.68801500,11.98125367,11:32:28.129872,4.19553,0.01709,1.38929,0.05355,-0.04761,-0.02708,-0.00885,-0.09254,0.13890,0.92250,4.17795,1.38638,1.44256,1.44523,0.73948,2.00910,4.19268,0.60428,2.03857,A,113228.00
4.21251,57.68800259,11.98129692,57.68801500,11.98125367,11:32:28.146853,4.21251,0.00807,1.38929,0.05217,-0.03997,0.03095,-0.02901,-0.02696,0.05337,0.87254,4.20733,1.38667,1.45969,1.46236,0.72825,2.03018,4.19268,0.60428,2.03857,A,113228.00
4.21921,57.68800265,11.98129672,57.68801500,11.98125367,11:32:28.153549,4.21921,0.00438,1.38929,0.05158,-0.05127,0.03523,-0.02993,-0.01714,0.05685,0.96179,4.21433,1.38693,1.47654,1.47920,0.71648,2.03679,4.19268,0.60428,2.03857,A,113228.00
4.22996,57.68800275,11.98129655,57.68801500,11.98125367,11:32:28.164301,4.22996,0.00447,1.38929,0.05075,-0.05402,0.03462,-0.02825,0.00061,0.06063,1.06610,4.22502,1.38717,1.49326,1.49593,0.70624,2.04771,4.19268,0.60428,2.03857,A,113228.00
4.24031,57.68800284,11.98129639,57.68801500,11.98125367,11:32:28.174644,4.24031,0.00443,1.38929,0.05015,-0.05265,0.03095,-0.02138,-0.05911,0.07851,1.12197,4.23567,1.38738,1.50981,1.51248,0.69684,2.05741,4.19268,0.60428,2.03857,A,113228.00
4.25063,57.68800291,11.98129625,57.68801500,11.98125367,11:32:28.184967,4.25063,0.00452,1.38929,0.04973,-0.04868,0.03752,-0.01145,0.03361,0.08351,1.08793,4.24567,1.38757,1.52620,1.52886,0.68818,2.06573,4.19268,0.60428,2.03857,A,113228.00
4.26087,57.68800298,11.98129611,57.68801500,11.98125367,11:32:28.195210,4.26087,0.00437,1.38929,0.04915,-0.04257,0.01461,-0.00183,0.03995,0.06655,1.05158,4.25622,1.38774,1.54242,1.54509,0.68023,2.07352,4.19268,0.60428,2.03857,A,113228.00
4.27128,57.68800304,11.98129599,57.68801500,11.98125367,11:32:28.205613,4.27128,0.00438,1.38929,0.04849,-0.04501,-0.00173,0.00672,0.08882,0.05667,0.97948,4.26641,1.38790,1.55848,1.56115,0.67291,2.08047,4.19268,0.60428,2.03857,A,113228.00
4.28371,57.68800312,11.98129587,57.68801500,11.98125367,11:32:28.218057,4.28371,0.00657,1.38929,0.04805,-0.04623,-0.03197,0.01589,0.01568,0.07302,0.94410,4.27819,1.38804,1.57440,1.57706,0.66616,2.08846,4.19268,0.60428,2.03857,A,113228.00
4.29191,57.68800314,11.98129577,57.68801500,11.98125367,11:32:28.226238,4.29191,0.00437,1.38929,0.04811,-0.04318,-0.02250,0.01451,-0.10138,0.09797,0.97447,4.28724,1.38816,1.59011,1.59278,0.65992,2.09142,4.19268,0.60428,2.03857,A,113228.00
4.31454,57.68800344,11.98129560,57.68801617,11.98125300,11:32:28.248884,4.31454,0.01677,1.38929,0.04843,-0.04883,0.00499,0.01497,-0.13444,0.12413,0.99393,4.29731,1.38828,1.60584,1.60851,0.64983,2.12494,4.31163,0.56465,2.16830,A,113228.10
4.32459,57.68800357,11.98129545,57.68801617,11.98125300,11:32:28.258935,4.32459,0.00452,1.38929,0.04762,-0.04241,0.01324,-0.00473,0.06204,0.08052,1.00430,4.31990,1.38838,1.62126,1.62393,0.64092,2.13953,4.31163,0.56465,2.16830,A,113228.10
4.33502,57.68800369,11.98129531,57.68801617,11.98125300,11:32:28.269355,4.33502,0.00456,1.38929,0.04700,-0.03967,0.00178,-0.00488,-0.00573,0.05697,1.02571,4.33010,1.38847,1.63653,1.63920,0.63274,2.15280,4.31163,0.56465,2.16830,A,113228.10
4.34519,57.68800380,11.98129519,57.68801617,11.98125300,11:32:28.279761,4.34519,0.00433,1.38929,0.04637,-0.04226,-0.00096,-0.00015,-0.09851,0.05722,1.01175,4.34054,1.38855,1.65165,1.65432,0.62522,2.16475,4.31163,0.56465,2.16830,A,113228.10
4.35570,57.68800390,11.98129507,57.68801617,11.98125300,11:32:28.290036,4.35570,0.00445,1.38929,0.04498,-0.04226,0.01141,0.00718,-0.11535,0.00512,0.97582,4.35104,1.38862,1.66663,1.66932,0.61826,2.17591,4.31163,0.56465,2.16830,A,113228.10
4.36611,57.68800399,11.98129496,57.68801617,11.98125300,11:32:28.300453,4.36611,0.00444,1.38929,0.04401,-0.04318,0.02576,0.01711,0.00445,0.03001,0.94587,4.36118,1.38869,1.68144,1.68423,0.61188,2.18548,4.31163,0.56465,2.16830,A,113228.10
4.37954,57.68800408,11.98129486,57.68801617,11.98125300,11:32:28.313905,4.37954,0.00722,1.38929,0.04393,-0.03982,0.02011,0.02215,-0.02544,0.09217,1.00687,4.37261,1.38875,1.69613,1.69915,0.60583,2.19536,4.31163,0.56465,2.16830,A,113228.10
4.38719,57.68800411,11.98129478,57.68801617,11.98125300,11:32:28.321535,4.38719,0.00466,1.38929,0.04415,-0.02271,0.03218,0.02490,-0.08015,0.10071,1.04511,4.38209,1.38881,1.71062,1.71393,0.60085,2.19936,4.31163,0.56465,2.16830,A,113228.10
4.41268,57.68800435,11.98129464,57.68801617,11.98125300,11:32:28.347036,4.41268,0.01976,1.38929,0.04335,-0.01691,0.02301,0.02643,0.00122,0.04221,1.00473,4.40791,1.38885,1.72523,1.72892,0.59302,2.22544,4.31163,0.56465,2.16830,A,113228.10
4.48726,57.68800532,11.98129409,57.68801833,11.98125033,11:32:28.421607,4.48726,0.04723,1.36729,0.04325,-0.01264,0.00698,0.01344,0.04063,0.09284,0.94959,4.45174,1.38670,1.74050,1.74590,0.56005,2.33342,4.48428,0.40615,2.40922,A,113228.30
4.50425,57.68800551,11.98129379,57.68801833,11.98125033,11:32:28.438619,4.50425,0.00952,1.36729,0.04261,-0.00958,0.04653,0.02276,0.05106,0.05423,1.03120,4.49591,1.38476,1.75473,1.76081,0.54216,2.35512,4.48428,0.40615,2.40922,A,113228.30
4.51001,57.68800560,11.98129355,57.68801833,11.98125033,11:32:28.444346,4.51001,0.00445,1.36729,0.04225,-0.00592,0.01339,0.01879,0.11675,0.04569,0.97319,4.50504,1.38301,1.76863,1.77471,0.52770,2.36499,4.48428,0.40615,2.40922,A,113228.30
4.52093,57.68800574,11.98129330,57.68801833,11.98125033,11:32:28.455506,4.52093,0.00497,1.36729,0.04211,-0.00469,-0.01761,0.02016,-0.00561,0.05856,0.96520,4.51603,1.38144,1.78253,1.78861,0.51331,2.38022,4.48428,0.40615,2.40922,A,113228.30
4.53092,57.68800585,11.98129309,57.68801833,11.98125033,11:32:28.465251,4.53092,0.00457,1.36729,0.04183,-0.01767,-0.00784,0.01543,-0.19117,0.06106,1.03218,4.52599,1.38003,1.79626,1.80235,0.50048,2.39269,4.48428,0.40615,2.40922,A,113228.30
4.54108,57.68800596,11.98129289,57.68801833,11.98125033,11:32:28.475644,4.54108,0.00433,1.36729,0.04176,-0.01859,0.01843,0.01222,-0.13951,0.07387,0.98545,4.53643,1.37875,1.80987,1.81595,0.48867,2.40443,4.48428,0.40615,2.40922,A,113228.30
4.55195,57.68800606,11.98129270,57.68801833,11.98125033,11:32:28.486283,4.55195,0.00445,1.36729,0.04187,-0.01569,0.02011,0.01299,0.08229,0.07521,0.88590,4.54725,1.37761,1.82336,1.82944,0.47770,2.41576,4.48428,0.40615,2.40922,A,113228.30
4.56222,57.68800614,11.98129254,57.68801833,11.98125033,11:32:28.496549,4.56222,0.00446,1.36729,0.04251,-0.01722,-0.01181,0.02093,0.08113,0.11419,0.94190,4.55727,1.37658,1.83669,1.84278,0.46796,2.42488,4.48428,0.40615,2.40922,A,113228.30
4.57247,57.68800622,11.98129239,57.68801833,11.98125033,11:32:28.506809,4.57247,0.00433,1.36729,0.04267,-0.01050,-0.02173,0.01665,-0.09199,0.08979,1.05865,4.56783,1.37565,1.84989,1.85598,0.45897,2.43338,4.48428,0.40615,2.40922,A,113228.30
4.58350,57.68800629,11.98129225,57.68801833,11.98125033,11:32:28.517842,4.58350,0.00496,1.36729,0.04209,-0.00973,-0.00570,0.01986,-0.11352,0.03745,1.08482,4.57804,1.37481,1.86297,1.86905,0.45077,2.44093,4.48428,0.40615,2.40922,A,113228.30
4.60585,57.68800657,11.98129193,57.68801933,11.98124917,11:32:28.540190,4.60585,0.01692,1.36729,0.04144,-0.02271,0.00881,0.01238,-0.08778,0.03947,1.01785,4.58862,1.37406,1.87622,1.88231,0.43194,2.47307,4.60299,0.33681,2.52042,A,113228.40
4.62163,57.68800675,11.98129169,57.68801933,11.98124917,11:32:28.555987,4.62163,0.00641,1.36729,0.04078,-0.01111,-0.00753,0.01146,0.05179,0.03873,0.92293,4.61593,1.37338,1.88914,1.89523,0.41753,2.49300,4.60299,0.33681,2.52042,A,113228.40
4.63012,57.68800685,11.98129151,57.68801933,11.98124917,11:32:28.564456,4.63012,0.00445,1.36729,0.04026,-0.01691,-0.02005,0.01573,-0.06594,0.03922,0.95831,4.62518,1.37277,1.90177,1.90786,0.40694,2.50324,4.60299,0.33681,2.52042,A,113228.40
4.64039,57.68800695,11.98129134,57.68801933,11.98124917,11:32:28.574721,4.64039,0.00433,1.36729,0.03974,-0.02455,-0.00829,0.01604,-0.14427,0.04813,1.02565,4.63575,1.37223,1.91433,1.92041,0.39647,2.51481,4.60299,0.33681,2.52042,A,113228.40
4.65090,57.68800704,11.98129118,57.68801933,11.98124917,11:32:28.585230,4.65090,0.00444,1.36729,0.03957,-0.02088,0.00789,0.01528,-0.03886,0.06661,0.98857,4.64595,1.37173,1.92675,1.93284,0.38696,2.52510,4.60299,0.33681,2.52042,A,113228.40
4.66118,57.68800713,11.98129103,57.68801933,11.98124917,11:32:28.595742,4.66118,0.00432,1.36729,0.03945,-0.01966,0.00652,0.01314,0.05807,0.06814,0.97515,4.65654,1.37129,1.93906,1.94515,0.37824,2.53441,4.60299,0.33681,2.52042,A,113228.40
4.67158,57.68800720,11.98129090,57.68801933,11.98124917,11:32:28.605912,4.67158,0.00432,1.36729,0.03977,-0.01722,-0.00616,0.01390,0.04069,0.09595,0.99015,4.66692,1.37089,1.95124,1.95733,0.37023,2.54286,4.60299,0.33681,2.52042,A,113228.40
4.68212,57.68800727,11.98129077,57.68801933,11.98124917,11:32:28.616451,4.68212,0.00445,1.36729,0.03973,-0.01172,-0.02662,0.01176,-0.05197,0.06905,0.99540,4.67719,1.37053,1.96330,1.96939,0.36296,2.55026,4.60299,0.33681,2.52042,A,113228.40
4.69237,57.68800733,11.98129066,57.68801933,11.98124917,11:32:28.626699,4.69237,0.00431,1.36729,0.03927,-0.01615,-0.02463,0.00810,-0.10468,0.04593,1.02950,4.68774,1.37021,1.97524,1.98133,0.35630,2.55688,4.60299,0.33681,2.52042,A,113228.40
4.70287,57.68800738,11.98129056,57.68801933,11.98124917,11:32:28.637198,4.70287,0.00441,1.36729,0.03866,-0.02439,-0.01410,0.00688,-0.06259,0.04056,1.03041,4.69795,1.36992,1.98706,1.99315,0.35022,2.56273,4.60299,0.33681,2.52042,A,113228.40
4.73917,57.68800791,11.98129009,57.68802150,11.98124767,11:32:28.673508,4.73917,0.03020,1.36729,0.03789,-0.02928,-0.00753,0.00001,-0.01861,0.03361,1.04304,4.70866,1.36965,1.99943,2.00551,0.32259,2.62124,4.73629,0.24765,2.76134,A,113228.60
4.74915,57.68800811,11.98128990,57.68802150,11.98124767,11:32:28.683747,4.74915,0.00440,1.36729,0.03658,-0.02317,-0.00845,-0.00198,-0.05551,0.02714,0.91787,4.74448,1.36942,2.01100,2.01704,0.31087,2.64436,4.73629,0.24765,2.76134,A,113228.60
4.75949,57.68800830,11.98128971,57.68802150,11.98124767,11:32:28.693821,4.75949,0.00435,1.36729,0.03627,-0.02562,-0.00035,-0.00870,-0.12688,0.05642,0.98454,4.75463,1.36921,2.02246,2.02841,0.30003,2.66551,4.73629,0.24765,2.76134,A,113228.60
4.77008,57.68800848,11.98128955,57.68802150,11.98124767,11:32:28.704418,4.77008,0.00443,1.36729,0.03526,-0.02470,0.00744,-0.01236,0.02031,0.01000,0.95569,4.76517,1.36901,2.03380,2.03960,0.29016,2.68450,4.73629,0.24765,2.76134,A,113228.60
4.78050,57.68800863,11.98128940,57.68802150,11.98124767,11:32:28.714836,4.78050,0.00445,1.36729,0.03483,-0.02943,0.00591,-0.00931,0.02751,0.05094,0.98033,4.77586,1.36884,2.04503,2.05062,0.28111,2.70165,4.73629,0.24765,2.76134,A,113228.60
4.79088,57.68800876,11.98128926,57.68802150,11.98124767,11:32:28.725219,4.79088,0.00444,1.36729,0.03462,-0.02012,0.00912,-0.00733,-0.03886,0.05941,1.02474,4.78595,1.36869,2.05614,2.06152,0.27306,2.71666,4.73629,0.24765,2.76134,A,113228.60
4.80116,57.68800889,11.98128914,57.68802150,11.98124767,11:32:28.735732,4.80116,0.00432,1.36729,0.03441,-0.00912,0.02698,-0.00290,-0.09272,0.05289,1.04286,4.79651,1.36855,2.06713,2.07233,0.26562,2.73031,4.73629,0.24765,2.76134,A,113228.60
4.81159,57.68800900,11.98128902,57.68802150,11.98124767,11:32:28.745923,4.81159,0.00436,1.36729,0.03429,-0.00072,0.04424,-0.00259,-0.08192,0.05398,1.07146,4.80692,1.36842,2.07801,2.08306,0.25873,2.74269,4.73629,0.24765,2.76134,A,113228.60
4.82212,57.68800910,11.98128892,57.68802150,11.98124767,11:32:28.756638,4.82212,0.00445,1.36729,0.03417,-0.00179,0.04027,-0.00198,0.00293,0.05197,1.01638,4.81718,1.36831,2.08878,2.09374,0.25254,2.75360,4.73629,0.24765,2.76134,A,113228.60
4.83258,57.68800919,11.98128882,57.68802150,11.98124767,11:32:28.766909,4.83258,0.00452,1.36729,0.03381,0.00661,0.01385,0.00107,0.04935,0.02934,1.00095,4.82774,1.36821,2.09943,2.10437,0.24686,2.76338,4.73629,0.24765,2.76134,A,113228.60
4.85527,57.68800948,11.98128847,57.68802250,11.98124633,11:32:28.789612,4.85527,0.01682,1.36729,0.03343,0.01012,-0.00875,0.00169,0.03758,0.02519,0.97484,4.83795,1.36812,2.11023,2.11517,0.22608,2.79619,4.85227,0.16840,2.87254,A,113228.70
4.86474,57.68800962,11.98128829,57.68802250,11.98124633,11:32:28.799073,4.86474,0.00457,1.36729,0.03356,0.00691,0.00988,0.00046,-0.11169,0.05557,0.99686,4.86008,1.36804,2.12065,2.12559,0.21544,2.81187,4.85227,0.16840,2.87254,A,113228.70
4.87507,57.68800975,11.98128812,57.68802250,11.98124633,11:32:28.809402,4.87507,0.00451,1.36729,0.03401,0.00722,0.02164,-0.00397,-0.05026,0.08326,1.00040,4.87006,1.36796,2.13098,2.13592,0.20546,2.82646,4.85227,0.16840,2.87254,A,113228.70
4.88594,57.68800988,11.98128796,57.68802250,11.98124633,11:32:28.820273,4.88594,0.00498,1.36729,0.03438,0.01852,0.02423,-0.00320,0.03251,0.06429,0.92714,4.88097,1.36789,2.14122,2.14616,0.19599,2.84015,4.85227,0.16840,2.87254,A,113228.70
4.89570,57.68800998,11.98128783,57.68802250,11.98124633,11:32:28.830042,4.89570,0.00435,1.36729,0.03421,0.01837,0.00927,-0.01007,-0.01921,0.03355,0.96661,4.89104,1.36783,2.15134,2.15628,0.18792,2.85158,4.85227,0.16840,2.87254,A,113228.70
4.90608,57.68801007,11.98128770,57.68802250,11.98124633,11:32:28.840419,4.90608,0.00441,1.36729,0.03412,0.02493,0.00744,-0.01267,-0.10687,0.03593,1.02273,4.90119,1.36778,2.16137,2.16630,0.18032,2.86220,4.85227,0.16840,2.87254,A,113228.70
4.91641,57.68801016,11.98128758,57.68802250,11.98124633,11:32:28.850743,4.91641,0.00434,1.36729,0.03387,0.01791,0.00652,-0.01145,-0.06222,0.02940,1.01846,4.91175,1.36773,2.17130,2.17623,0.17326,2.87190,4.85227,0.16840,2.87254,A,113228.70
4.92689,57.68801024,11.98128747,57.68802250,11.98124633,11:32:28.861231,4.92689,0.00443,1.36729,0.03389,0.01898,-0.00280,-0.00549,0.03251,0.04618,0.99790,4.92197,1.36769,2.18112,2.18606,0.16690,2.88044,4.85227,0.16840,2.87254,A,113228.70
4.93750,57.68801031,11.98128737,57.68802250,11.98124633,11:32:28.871851,4.93750,0.00465,1.36729,0.03427,0.01913,-0.02219,-0.00397,0.04624,0.06789,0.97075,4.93263,1.36765,2.19086,2.19578,0.16097,2.88825,4.85227,0.16840,2.87254,A,113228.70
4.94756,57.68801037,11.98128728,57.68802250,11.98124633,11:32:28.882221,4.94756,0.00431,1.36729,0.03487,0.02142,-0.02509,-0.00183,-0.06155,0.08741,1.04713,4.94292,1.36761,2.20049,2.20536,0.15561,2.89514,4.85227,0.16840,2.87254,A,113228.70
4.97058,57.68801065,11.98128691,57.68802367,11.98124500,11:32:28.904929,4.97058,0.01692,1.34653,0.03500,0.02951,-0.01517,-0.00167,-0.14786,0.04910,1.04383,4.95318,1.36551,2.21028,2.21503,0.13363,2.92669,4.96763,0.08916,3.00226,A,113228.80
4.98082,57.68801080,11.98128674,57.68802367,11.98124500,11:32:28.915153,4.98082,0.00699,1.34653,0.03560,0.03578,0.03523,-0.01802,-0.03587,0.04197,0.93885,4.97610,1.36361,2.21972,2.22403,0.12302,2.94245,4.96763,0.08916,3.00226,A,113228.80
4.98853,57.68801090,11.98128661,57.68802367,11.98124500,11:32:28.922856,4.98853,0.00448,1.34653,0.03519,0.04005,0.03538,-0.02076,-0.03215,0.01019,0.89054,4.98384,1.36190,2.22900,2.23304,0.11526,2.95414,4.96763,0.08916,3.00226,A,113228.80
4.99887,57.68801102,11.98128646,57.68802367,11.98124500,11:32:28.933199,4.99887,0.00443,1.34653,0.03554,0.04188,0.03935,-0.02061,-0.09217,0.04947,0.91970,4.99393,1.36036,2.23822,2.24204,0.10645,2.96691,4.96763,0.08916,3.00226,A,113228.80
5.00914,57.68801112,11.98128632,57.68802367,11.98124500,11:32:28.943720,5.00914,0.00431,1.34653,0.03579,0.04983,0.04271,-0.01435,-0.06124,0.03849,0.94459,5.00451,1.35898,2.24735,2.25099,0.09827,2.97856,4.96763,0.08916,3.00226,A,113228.80
5.02200,57.68801122,11.98128619,57.68802367,11.98124500,11:32:28.956391,5.02200,0.00672,1.34653,0.00000,0.05425,0.02668,-0.00809,0.01043,0.03501,0.91164,5.01497,1.35773,2.25639,2.25991,0.09070,2.98916,4.96763,0.08916,3.00226,A,113228.80
5.03275,57.68801131,11.98128606,57.68802367,11.98124500,11:32:28.967112,5.03275,0.00708,1.34653,-0.00004,0.05425,-0.01120,0.00062,0.10022,0.00116,0.88304,5.02638,1.35661,2.26535,2.26881,0.08311,2.99951,4.96763,0.08916,3.00226,A,113228.80
5.04088,57.68801136,11.98128600,57.68802367,11.98124500,11:32:28.975219,5.04088,0.00497,1.34653,0.00081,0.05884,-0.03807,0.00520,0.02714,0.04978,0.98753,5.03574,1.35561,2.27416,2.27760,0.07913,3.00524,4.96763,0.08916,3.00226,A,113228.80
5.05075,57.68801142,11.98128591,57.68802367,11.98124500,11:32:28.985086,5.05075,0.00445,1.34653,0.00162,0.05532,-0.03884,0.00443,-0.06777,0.05118,1.05792,5.04580,1.35470,2.28291,2.28633,0.07400,3.01212,4.96763,0.08916,3.00226,A,113228.80
5.06103,57.68801148,11.98128582,57.68802367,11.98124500,11:32:28.995591,5.06103,0.00433,1.34653,0.00294,0.06006,-0.02677,-0.01175,-0.09461,0.08357,1.08818,5.05640,1.35388,2.29158,2.29495,0.06874,3.01893,4.96763,0.08916,3.00226,A,113228.80
5.08455,57.68801174,11.98128547,57.68802467,11.98124400,11:32:29.018894,5.08455,0.01744,1.34653,0.00422,0.05853,-0.01914,-0.01420,-0.01598,0.08430,1.06915,5.06659,1.35315,2.30035,2.30364,0.04757,3.04791,5.08145,0.02972,3.11346,A,113228.90
5.09991,57.68801191,11.98128526,57.68802467,11.98124400,11:32:29.034260,5.09991,0.00625,1.34653,0.00576,0.04815,-0.02280,-0.02458,-0.02806,0.04593,0.96087,5.09440,1.35248,2.30890,2.31178,0.03544,3.06596,5.08145,0.02972,3.11346,A,113228.90
5.10836,57.68801200,11.98128516,57.68802467,11.98124400,11:32:29.042690,5.10836,0.00430,1.34653,0.00673,0.04784,-0.02280,-0.01893,-0.05765,0.06625,0.94434,5.10373,1.35189,2.31728,2.31999,0.02942,3.07667,5.08145,0.02972,3.11346,A,113228.90
5.11892,57.68801210,11.98128504,57.68802467,11.98124400,11:32:29.053259,5.11892,0.00442,1.34653,0.00763,0.04479,-0.00753,-0.01343,-0.07131,0.06063,0.94019,5.11401,1.35135,2.32559,2.32811,0.02244,3.08788,5.08145,0.02972,3.11346,A,113228.90
5.12968,57.68801219,11.98128494,57.68802467,11.98124400,11:32:29.064023,5.12968,0.00478,1.34653,0.00852,0.04524,-0.00921,-0.01313,0.01702,0.05838,0.92128,5.12458,1.35087,2.33382,2.33609,0.01608,3.09793,5.08145,0.02972,3.11346,A,113228.90
5.13982,57.68801227,11.98128484,57.68802467,11.98124400,11:32:29.074154,5.13982,0.00452,1.34653,0.00899,0.03715,-0.02158,-0.01634,0.02306,0.03922,0.97057,5.13515,1.35044,2.34195,2.34394,0.01045,3.10676,5.08145,0.02972,3.11346,A,113228.90
5.15011,57.68801234,11.98128476,57.68802467,11.98124400,11:32:29.084439,5.15011,0.00444,1.34653,0.00997,0.03410,-0.02631,-0.01847,-0.02873,0.08235,1.06323,5.14519,1.35005,2.34999,2.35167,0.00543,3.11456,5.08145,0.02972,3.11346,A,113228.90
5.16039,57.68801241,11.98128468,57.68802467,11.98124400,11:32:29.094714,5.16039,0.00432,1.34653,0.01115,0.03272,-0.01242,-0.01924,-0.12279,0.10303,1.14436,5.15575,1.34969,2.35795,2.35927,0.00061,3.12176,5.08145,0.02972,3.11346,A,113228.90
5.17089,57.68801247,11.98128460,57.68802467,11.98124400,11:32:29.105228,5.17089,0.00442,1.34653,0.01218,0.03547,0.00621,-0.02275,-0.03782,0.08705,1.09001,5.16596,1.34938,2.36582,2.36680,-0.00371,3.12811,5.08145,0.02972,3.11346,A,113228.90
5.18155,57.68801252,11.98128454,57.68802467,11.98124400,11:32:29.115905,5.18155,0.00467,1.34653,0.01263,0.02829,-0.00005,-0.02428,0.03239,0.04660,1.03151,5.17657,1.34909,2.37360,2.37429,-0.00775,3.13387,5.08145,0.02972,3.11346,A,113228.90
5.20438,57.68801276,11.98128420,57.68802567,11.98124317,11:32:29.138732,5.20438,0.01711,1.34653,0.01351,0.02173,-0.01547,-0.01970,-0.01305,0.08003,1.01351,5.18695,1.34884,2.38134,2.38181,-0.02767,3.16100,5.20168,-0.01981,3.22465,A,113229.00
5.21473,57.68801288,11.98128409,57.68802567,11.98124317,11:32:29.149073,5.21473,0.00467,1.34653,0.01432,0.01944,-0.01059,-0.01603,-0.03623,0.05411,0.89566,5.20964,1.34861,2.38895,2.38921,-0.03399,3.17412,5.20168,-0.01981,3.22465,A,113229.00
5.22502,57.68801299,11.98128400,57.68802567,11.98124317,11:32:29.159608,5.22502,0.00457,1.34653,0.01461,0.01287,-0.01624,-0.02275,-0.01598,0.04081,0.87864,5.22017,1.34840,2.39648,2.39672,-0.03990,3.18603,5.20168,-0.01981,3.22465,A,113229.00
5.23537,57.68801308,11.98128390,57.68802567,11.98124317,11:32:29.170765,5.23537,0.00452,1.34653,0.01495,0.00126,-0.01883,-0.02305,-0.02037,0.05270,0.90420,5.23051,1.34821,2.40394,2.40417,-0.04547,3.19689,5.20168,-0.01981,3.22465,A,113229.00
5.24605,57.68801317,11.98128382,57.68802567,11.98124317,11:32:29.180389,5.24605,0.00458,1.34653,0.01602,-0.00027,-0.02296,-0.02596,-0.08894,0.10596,0.97838,5.24108,1.34804,2.41132,2.41155,-0.05057,3.20663,5.20168,-0.01981,3.22465,A,113229.00
5.25618,57.68801325,11.98128374,57.68802567,11.98124317,11:32:29.190518,5.25618,0.00431,1.34653,0.01719,-0.00118,0.00087,-0.02550,-0.07887,0.12511,1.06872,5.25155,1.34789,2.41863,2.41884,-0.05502,3.21517,5.20168,-0.01981,3.22465,A,113229.00
5.26670,57.68801332,11.98128367,57.68802567,11.98124317,11:32:29.201036,5.26670,0.00444,1.34653,0.01773,0.00477,0.01110,-0.02611,0.05948,0.07381,1.02846,5.26176,1.34776,2.42587,2.42605,-0.05914,3.22285,5.20168,-0.01981,3.22465,A,113229.00
5.27719,57.68801338,11.98128360,57.68802567,11.98124317,11:32:29.211786,5.27719,0.00453,1.34653,0.01787,-0.00760,-0.01669,-0.02428,0.01305,0.05600,1.04218,5.27254,1.34763,2.43303,2.43318,-0.06315,3.22993,5.20168,-0.01981,3.22465,A,113229.00
5.28762,57.68801344,11.98128354,57.68802567,11.98124317,11:32:29.221958,5.28762,0.00456,1.34653,0.01779,-0.01034,-0.02433,-0.02458,0.04496,0.04160,1.01583,5.28295,1.34752,2.44012,2.44025,-0.06672,3.23618,5.20168,-0.01981,3.22465,A,113229.00
5.29803,57.68801349,11.98128349,57.68802567,11.98124317,11:32:29.232365,5.29803,0.00445,1.34653,0.01802,-0.01584,-0.04250,-0.02397,-0.01775,0.06747,1.03669,5.29309,1.34742,2.44714,2.44725,-0.06972,3.24152,5.20168,-0.01981,3.22465,A,113229.00
5.32305,57.68801376,11.98128318,57.68802700,11.98124283,11:32:29.257610,5.32305,0.01907,1.34653,0.01832,-0.01951,-0.03777,-0.02046,-0.05734,0.07332,1.00504,5.30365,1.34733,2.45409,2.45419,-0.08823,3.27258,5.32014,-0.03962,3.37291,A,113229.10
5.33638,57.68801393,11.98128308,57.68802700,11.98124283,11:32:29.271838,5.33638,0.00525,1.34653,0.01843,-0.03508,-0.02891,-0.02138,-0.08473,0.11614,1.03505,5.33171,1.34725,2.46097,2.46107,-0.09414,3.29145,5.32014,-0.03962,3.37291,A,113229.10
5.34609,57.68801406,11.98128305,57.68802700,11.98124283,11:32:29.280430,5.34609,0.00443,1.34653,0.01927,-0.03386,0.00148,-0.01634,-0.12877,0.11950,1.01791,5.34117,1.34718,2.46778,2.46788,-0.09586,3.30541,5.32014,-0.03962,3.37291,A,113229.10
5.35640,57.68801418,11.98128301,57.68802700,11.98124283,11:32:29.290731,5.35640,0.00434,1.34653,0.01991,-0.03356,0.02454,-0.01802,-0.05368,0.09827,0.92287,5.35174,1.34712,2.47452,2.47462,-0.09827,3.31857,5.32014,-0.03962,3.37291,A,113229.10
5.36688,57.68801428,11.98128298,57.68802700,11.98124283,11:32:29.301211,5.36688,0.00443,1.34653,0.02083,-0.03035,0.03676,-0.02260,-0.04972,0.11419,0.92348,5.36195,1.34706,2.48119,2.48130,-0.10039,3.33029,5.32014,-0.03962,3.37291,A,113229.10
5.37757,57.68801438,11.98128294,57.68802700,11.98124283,11:32:29.311916,5.37757,0.00472,1.34653,0.02081,-0.02913,0.04287,-0.01924,0.00189,0.05350,0.86413,5.37268,1.34700,2.48780,2.48790,-0.10257,3.34096,5.32014,-0.03962,3.37291,A,113229.10
5.38798,57.68801446,11.98128291,57.68802700,11.98124283,11:32:29.322315,5.38798,0.00473,1.34653,0.01966,-0.03386,0.02530,-0.01603,0.05270,-0.00939,0.82204,5.38315,1.34696,2.49434,2.49444,-0.10440,3.35038,5.32014,-0.03962,3.37291,A,113229.10
5.39817,57.68801454,11.98128289,57.68802700,11.98124283,11:32:29.332508,5.39817,0.00443,1.34653,0.01939,-0.04791,0.02546,-0.01175,-0.03758,0.04709,0.86492,5.39326,1.34691,2.50081,2.50092,-0.10576,3.35856,5.32014,-0.03962,3.37291,A,113229.10
5.40848,57.68801461,11.98128286,57.68802700,11.98124283,11:32:29.342810,5.40848,0.00434,1.34653,0.01951,-0.04913,0.05264,-0.01206,-0.14115,0.07808,0.93922,5.40382,1.34688,2.50722,2.50733,-0.10739,3.36614,5.32014,-0.03962,3.37291,A,113229.10
5.41897,57.68801467,11.98128284,57.68802700,11.98124283,11:32:29.353303,5.41897,0.00443,1.34653,0.01976,-0.04761,0.09128,-0.01679,-0.05148,0.09394,1.04664,5.41403,1.34684,2.51357,2.51368,-0.10878,3.37283,5.32014,-0.03962,3.37291,A,113229.10
5.45354,57.68801509,11.98128228,57.68802917,11.98124150,11:32:29.387890,5.45354,0.02861,1.34653,0.02014,-0.03799,0.08868,-0.01450,0.01903,0.10712,1.14759,5.42461,1.34681,2.51986,2.51997,-0.14182,3.42018,5.45066,-0.11887,3.61384,A,113229.30
5.46360,57.68801532,11.98128218,57.68802917,11.98124150,11:32:29.397942,5.46360,0.00453,1.34653,0.01759,-0.06181,-0.04174,-0.01114,0.12834,0.01086,1.19487,5.45866,1.34678,2.52608,2.52619,-0.14762,3.44534,5.45066,-0.11887,3.61384,A,113229.30
5.47484,57.68801553,11.98128208,57.68802917,11.98124150,11:32:29.409180,5.47484,0.00524,1.34653,0.01686,-0.08624,-0.08954,-0.00061,0.04727,0.05722,1.06195,5.46989,1.34676,2.53224,2.53235,-0.15377,3.46857,5.45066,-0.11887,3.61384,A,113229.30
5.48428,57.68801570,11.98128201,57.68802917,11.98124150,11:32:29.418621,5.48428,0.00444,1.34653,0.01692,-0.09571,-0.08816,0.00291,-0.05319,0.09223,0.88956,5.47960,1.34673,2.53834,2.53844,-0.15782,3.48836,5.45066,-0.11887,3.61384,A,113229.30
5.49452,57.68801587,11.98128194,57.68802917,11.98124150,11:32:29.428860,5.49452,0.00446,1.34653,0.01749,-0.09861,-0.05518,-0.01145,-0.13493,0.10315,0.72706,5.48959,1.34671,2.54437,2.54448,-0.16204,3.50650,5.45066,-0.11887,3.61384,A,113229.30
5.50480,57.68801602,11.98128187,57.68802917,11.98124150,11:32:29.439133,5.50480,0.00434,1.33636,0.01827,-0.09678,-0.00142,-0.03130,-0.28164,0.10559,0.66093,5.50016,1.34568,2.55035,2.55044,-0.16620,3.52300,5.45066,-0.11887,3.61384,A,113229.30
5.51522,57.68801615,11.98128181,57.68802917,11.98124150,11:32:29.449556,5.51522,0.00437,1.33636,0.01991,-0.08609,0.05707,-0.05299,-0.24418,0.15158,0.72517,5.51034,1.34475,2.55626,2.55632,-0.16988,3.53772,5.45066,-0.11887,3.61384,A,113229.30
5.52779,57.68801628,11.98128173,57.68802917,11.98124150,11:32:29.462128,5.52779,0.00511,1.33636,0.01941,-0.07158,0.09540,-0.06704,-0.11163,0.05386,0.84174,5.52232,1.34391,2.56212,2.56211,-0.17479,3.55197,5.45066,-0.11887,3.61384,A,113229.30
5.53798,57.68801638,11.98128168,57.68802917,11.98124150,11:32:29.472316,5.53798,0.00490,1.33636,0.01736,-0.06318,0.08731,-0.06566,0.05826,-0.05386,1.03791,5.53303,1.34315,2.56791,2.56789,-0.17736,3.56350,5.45066,-0.11887,3.61384,A,113229.30
5.54783,57.68801647,11.98128164,57.68802917,11.98124150,11:32:29.482162,5.54783,0.00436,1.33636,0.01557,-0.06883,0.06073,-0.05543,0.09498,-0.04148,1.18059,5.54316,1.34248,2.57365,2.57363,-0.17966,3.57380,5.45066,-0.11887,3.61384,A,113229.30
5.57056,57.68801671,11.98128122,57.68803000,11.98123983,11:32:29.504898,5.57056,0.01685,1.33636,0.01410,-0.07250,0.03492,-0.02412,0.04191,-0.01769,1.29009,5.55322,1.34186,2.57933,2.57930,-0.20468,3.60059,5.56767,-0.21794,3.70650,A,113229.40
5.58458,57.68801688,11.98128099,57.68803000,11.98123983,11:32:29.518924,5.58458,0.00649,1.33636,0.01403,-0.05143,0.00988,0.01650,0.00305,0.12773,1.07586,5.57922,1.34131,2.58495,2.58493,-0.21840,3.61899,5.56767,-0.21794,3.70650,A,113229.40
5.59284,57.68801700,11.98128088,57.68803000,11.98123983,11:32:29.527167,5.59284,0.00435,1.33636,0.01498,-0.04028,-0.00020,0.02016,0.00159,0.11315,0.92159,5.58819,1.34082,2.59051,2.59049,-0.22495,3.63185,5.56767,-0.21794,3.70650,A,113229.40
5.60328,57.68801711,11.98128075,57.68803000,11.98123983,11:32:29.537617,5.60328,0.00440,1.33636,0.01518,-0.03325,-0.00570,0.00214,-0.05783,0.05490,0.76927,5.59838,1.34037,2.59602,2.59600,-0.23285,3.64460,5.56767,-0.21794,3.70650,A,113229.40
5.61396,57.68801721,11.98128063,57.68803000,11.98123983,11:32:29.548299,5.61396,0.00446,1.33636,0.01571,-0.03799,0.01477,-0.01038,-0.10382,0.07198,0.72901,5.60903,1.33997,2.60148,2.60146,-0.24020,3.65615,5.56767,-0.21794,3.70650,A,113229.40
5.62447,57.68801731,11.98128052,57.68803000,11.98123983,11:32:29.558807,5.62447,0.00458,1.33636,0.01602,-0.04196,0.02485,-0.02519,-0.09894,0.06643,0.76903,5.61958,1.33961,2.60688,2.60686,-0.24670,3.66642,5.56767,-0.21794,3.70650,A,113229.40
5.63484,57.68801739,11.98128042,57.68803000,11.98123983,11:32:29.569181,5.63484,0.00455,1.33636,0.01605,-0.04073,0.02546,-0.03878,-0.02092,0.05948,0.89273,5.62990,1.33929,2.61223,2.61220,-0.25238,3.67550,5.56767,-0.21794,3.70650,A,113229.40
5.64504,57.68801746,11.98128033,57.68803000,11.98123983,11:32:29.579592,5.64504,0.00436,1.33636,0.01544,-0.04868,0.01614,-0.03817,0.00012,0.03270,1.08476,5.64038,1.33899,2.61752,2.61750,-0.25763,3.68368,5.56767,-0.21794,3.70650,A,113229.40
5.65543,57.68801753,11.98128025,57.68803000,11.98123983,11:32:29.589757,5.65543,0.00435,1.33636,0.01468,-0.04913,0.00744,-0.03756,0.01019,0.02251,1.20536,5.65057,1.33873,2.62276,2.62274,-0.26258,3.69112,5.56767,-0.21794,3.70650,A,113229.40
5.66602,57.68801759,11.98128017,57.68803000,11.98123983,11:32:29.600353,5.66602,0.00443,1.33636,0.01374,-0.04975,0.00545,-0.02611,-0.00183,0.00878,1.23818,5.66111,1.33849,2.62795,2.62793,-0.26701,3.69774,5.56767,-0.21794,3.70650,A,113229.40
5.68971,57.68801781,11.98127969,57.68803100,11.98123800,11:32:29.624059,5.68971,0.01773,1.33636,0.01332,-0.04730,0.00637,-0.01710,-0.04551,0.04703,1.17968,5.67166,1.33828,2.63308,2.63306,-0.29570,3.72254,5.68668,-0.32690,3.81769,A,113229.50
5.69967,57.68801794,11.98127950,57.68803100,11.98123800,11:32:29.634007,5.69967,0.00445,1.33636,0.01317,-0.01966,-0.00249,-0.00687,-0.03068,0.04605,0.84717,5.69497,1.33809,2.63817,2.63815,-0.30736,3.73682,5.68668,-0.32690,3.81769,A,113229.50
5.71025,57.68801806,11.98127931,57.68803100,11.98123800,11:32:29.644599,5.71025,0.00458,1.33636,0.01285,-0.01508,-0.00585,0.00031,-0.07186,0.01726,0.76470,5.70517,1.33792,2.64320,2.64318,-0.31810,3.74974,5.68668,-0.32690,3.81769,A,113229.50
5.72038,57.68801816,11.98127915,57.68803100,11.98123800,11:32:29.654710,5.72038,0.00432,1.33636,0.01285,-0.01493,0.00789,0.00291,-0.09894,0.03660,0.82539,5.71574,1.33776,2.64818,2.64816,-0.32777,3.76132,5.68668,-0.32690,3.81769,A,113229.50
5.73114,57.68801825,11.98127900,57.68803100,11.98123800,11:32:29.665476,5.73114,0.00465,1.33636,0.01376,-0.01004,0.02087,0.00214,-0.07753,0.09546,0.94178,5.72599,1.33762,2.65312,2.65311,-0.33662,3.77177,5.68668,-0.32690,3.81769,A,113229.50
5.74121,57.68801834,11.98127887,57.68803100,11.98123800,11:32:29.675770,5.74121,0.00432,1.33636,0.01414,0.00065,0.02378,0.00428,-0.06942,0.06490,1.07415,5.73657,1.33750,2.65800,2.65811,-0.34442,3.78102,5.68668,-0.32690,3.81769,A,113229.50
5.75388,57.68801842,11.98127872,57.68803100,11.98123800,11:32:29.688231,5.75388,0.00660,1.33636,0.01487,0.00829,0.03630,0.01054,-0.01714,0.09363,1.19371,5.74822,1.33738,2.66284,2.66321,-0.35316,3.79019,5.68668,-0.32690,3.81769,A,113229.50
5.76210,57.68801847,11.98127866,57.68803100,11.98123800,11:32:29.696436,5.76210,0.00443,1.33636,0.01504,0.01852,0.03340,0.01375,0.05594,0.04441,1.18096,5.75720,1.33728,2.66763,2.66831,-0.35711,3.79635,5.68668,-0.32690,3.81769,A,113229.50
5.77239,57.68801854,11.98127856,57.68803100,11.98123800,11:32:29.706723,5.77239,0.00432,1.33636,0.01466,0.02081,0.00973,0.01390,0.04081,-0.00085,1.12423,5.76774,1.33719,2.67239,2.67353,-0.36315,3.80313,5.68668,-0.32690,3.81769,A,113229.50
5.78288,57.68801859,11.98127847,57.68803100,11.98123800,11:32:29.717216,5.78288,0.00442,1.33636,0.01406,0.01608,-0.01349,0.01238,0.02153,-0.01122,1.03413,5.77796,1.33711,2.67711,2.67871,-0.36853,3.80914,5.68668,-0.32690,3.81769,A,113229.50
5.80567,57.68801882,11.98127802,57.68803217,11.98123667,11:32:29.740011,5.80567,0.01680,1.33636,0.01380,0.00600,-0.02952,0.00734,-0.01684,0.01787,0.91958,5.78854,1.33703,2.68188,2.68391,-0.39479,3.83419,5.80282,-0.40615,3.94742,A,113229.60
5.82050,57.68801898,11.98127777,57.68803217,11.98123667,11:32:29.754838,5.82050,0.00609,1.33636,0.01405,0.00279,-0.01089,0.00245,-0.11212,0.05301,0.98655,5.81580,1.33697,2.68656,2.68937,-0.40993,3.85242,5.80282,-0.40615,3.94742,A,113229.60
5.82915,57.68801910,11.98127765,57.68803217,11.98123667,11:32:29.763723,5.82915,0.00434,1.33636,0.01445,-0.00057,0.01293,0.00657,-0.08601,0.06765,0.95898,5.82448,1.33691,2.69116,2.69410,-0.41693,3.86550,5.80282,-0.40615,3.94742,A,113229.60
5.83954,57.68801921,11.98127751,57.68803217,11.98123667,11:32:29.773862,5.83954,0.00434,1.33636,0.01499,0.00325,0.02485,0.00245,0.04868,0.07076,0.90469,5.83469,1.33685,2.69574,2.69874,-0.42513,3.87814,5.80282,-0.40615,3.94742,A,113229.60
5.85009,57.68801931,11.98127739,57.68803217,11.98123667,11:32:29.784423,5.85009,0.00442,1.33636,0.01525,0.00997,0.00240,-0.00397,0.06875,0.04636,0.82368,5.84518,1.33680,2.70027,2.70329,-0.43244,3.88944,5.80282,-0.40615,3.94742,A,113229.60
5.86038,57.68801940,11.98127728,57.68803217,11.98123667,11:32:29.794706,5.86038,0.00432,1.33636,0.01525,0.01485,-0.03197,-0.00381,-0.01684,0.03196,0.91177,5.85574,1.33676,2.70476,2.70777,-0.43904,3.89956,5.80282,-0.40615,3.94742,A,113229.60
5.87087,57.68801948,11.98127718,57.68803217,11.98123667,11:32:29.805213,5.87087,0.00458,1.33636,0.01489,0.01348,-0.03899,-0.00885,-0.10419,0.01128,1.04511,5.86591,1.33672,2.70920,2.71222,-0.44487,3.90857,5.80282,-0.40615,3.94742,A,113229.60
5.88102,57.68801956,11.98127709,57.68803217,11.98123667,11:32:29.815585,5.88102,0.00433,1.33636,0.01398,0.00752,-0.03044,-0.00565,-0.04709,-0.02373,1.06408,5.87638,1.33668,2.71360,2.71661,-0.45011,3.91663,5.80282,-0.40615,3.94742,A,113229.60
5.89146,57.68801962,11.98127701,57.68803217,11.98123667,11:32:29.825796,5.89146,0.00437,1.33636,0.01355,0.00203,-0.02051,0.00398,0.00165,0.01324,1.11654,5.88658,1.33665,2.71796,2.72097,-0.45513,3.92397,5.80282,-0.40615,3.94742,A,113229.60
5.90220,57.68801968,11.98127694,57.68803217,11.98123667,11:32:29.836543,5.90220,0.00460,1.33636,0.01407,0.00584,0.00209,0.01207,-0.03044,0.08143,1.11929,5.89711,1.33662,2.72227,2.72528,-0.45954,3.93048,5.80282,-0.40615,3.94742,A,113229.60
5.92487,57.68801989,11.98127651,57.68803317,11.98123533,11:32:29.859202,5.92487,0.01687,1.33636,0.01536,0.02341,0.01232,0.01512,-0.10272,0.12383,1.10581,5.90768,1.33660,2.72669,2.72970,-0.48491,3.95337,5.92195,-0.48540,4.05861,A,113229.70
5.94073,57.68802004,11.98127625,57.68803317,11.98123533,11:32:29.875077,5.94073,0.00575,1.33636,0.01589,0.06617,0.03722,0.01008,0.02208,-0.03453,0.86339,5.93566,1.33657,2.73098,2.73409,-0.50037,3.97062,5.92195,-0.48540,4.05861,A,113229.70
5.94999,57.68802015,11.98127614,57.68803317,11.98123533,11:32:29.884321,5.94999,0.00447,1.33636,0.01538,0.05364,0.01248,0.01543,0.09205,-0.01708,0.84369,5.94504,1.33655,2.73515,2.73835,-0.50675,3.98282,5.92195,-0.48540,4.05861,A,113229.70
5.96023,57.68802026,11.98127602,57.68803317,11.98123533,11:32:29.894561,5.96023,0.00432,1.33636,0.01527,0.04372,-0.01303,0.01696,0.03934,0.00811,0.91378,5.95559,1.33653,2.73929,2.74265,-0.51393,3.99438,5.92195,-0.48540,4.05861,A,113229.70
5.97076,57.68802035,11.98127591,57.68803317,11.98123533,11:32:29.905097,5.97076,0.00446,1.33636,0.01659,0.04158,-0.01837,0.01818,-0.07094,0.10925,1.03059,5.96580,1.33652,2.74340,2.74693,-0.52039,4.00472,5.92195,-0.48540,4.05861,A,113229.70
5.98105,57.68802043,11.98127581,57.68803317,11.98123533,11:32:29.915607,5.98105,0.00435,1.33636,0.01802,0.05151,-0.00555,0.02169,-0.10651,0.11462,1.08129,5.97639,1.33650,2.74746,2.75119,-0.52628,4.01402,5.92195,-0.48540,4.05861,A,113229.70
5.99217,57.68802051,11.98127573,57.68803317,11.98123533,11:32:29.926505,5.99217,0.00526,1.33636,0.01939,0.05135,0.01446,0.01741,-0.04191,0.11505,1.07622,5.98645,1.33649,2.75149,2.75538,-0.53133,4.02224,5.92195,-0.48540,4.05861,A,113229.70
6.00194,57.68802057,11.98127566,57.68803317,11.98123533,11:32:29.936281,6.00194,0.00443,1.33636,0.01983,0.05456,0.02087,0.01238,0.03880,0.04398,1.04151,5.99702,1.33648,2.75548,2.75951,-0.53530,4.02936,5.92195,-0.48540,4.05861,A,113229.70
6.01222,57.68802063,11.98127559,57.68803317,11.98123533,11:32:29.946553,6.01222,0.00431,1.33636,0.02050,0.05120,0.01431,0.00367,-0.00756,0.06222,1.02523,6.00759,1.33646,2.75944,2.76357,-0.53976,4.03609,5.92195,-0.48540,4.05861,A,113229.70
6.02294,57.68802068,11.98127552,57.68803317,11.98123533,11:32:29.957282,6.02294,0.00465,1.33636,0.02070,0.05716,0.00667,0.00703,-0.06277,0.02672,0.95489,6.01780,1.33645,2.76336,2.76753,-0.54370,4.04206,5.92195,-0.48540,4.05861,A,113229.70
6.05712,57.68802103,11.98127471,57.68803517,11.98123233,11:32:29.991731,6.05712,0.02843,1.33636,0.02137,0.05456,0.01293,0.00581,-0.10998,0.05783,0.96953,6.02853,1.33645,2.76766,2.77184,-0.59201,4.08021,6.05440,-0.66371,4.28100,A,113229.90
6.07054,57.68802125,11.98127440,57.68803517,11.98123233,11:32:30.004905,6.07054,0.00640,1.36541,0.02403,0.06403,0.00744,0.01696,-0.03678,0.08540,1.04292,6.06391,1.33934,2.77152,2.77579,-0.60997,4.10447,6.05440,-0.66371,4.28100,A,113229.90
