Time,lat_estimated,lon_estimated,latitude,longitude,RealTime,CalculationTime,MeasuredVelocity,Roll,SteeringAngle,RollRate,gy,gz,ax,ay,az,imu_read_timing,v_estimated,yaw_estimated,heading_estimated,x_estimated,y_estimated,GPS_timestamp,x_GPS,y_GPS,status,NMEA timestamp
0.05203,0.00000000,0.00000000,57.68780,11.98137,10:43:34.569261,0.05200,0.00000,0.00003,0.01404,0.01227,-0.01047,0.01055,0.00531,0.01458,0.98814,0.00001,0.00000,0.00000,0.00000,0.00000,0.00000,0.01520,0.79250,-4.11421,A,104334.40
0.06850,0.00000000,0.00000000,57.68780,11.98137,10:43:34.585635,0.00524,0.00000,0.00131,0.01681,0.01471,-0.01001,0.01437,-0.04386,0.04453,1.00674,0.06456,0.00000,0.00000,0.00000,0.00000,0.00000,0.01520,0.79250,-4.11421,A,104334.40
0.07669,0.00000000,0.00000000,57.68780,11.98137,10:43:34.593818,0.00297,0.00000,0.00142,0.01690,0.02067,-0.00665,0.01376,-0.03331,0.01879,0.99534,0.07280,0.00000,0.00000,0.00000,0.00000,0.00000,0.01520,0.79250,-4.11421,A,104334.40
0.08724,0.00000000,0.00000000,57.68780,11.98137,10:43:34.604364,0.00313,0.00000,0.00185,0.01690,0.02067,-0.01001,0.00841,-0.01208,0.03611,0.98247,0.08334,0.00000,0.00000,0.00000,0.00000,0.00000,0.01520,0.79250,-4.11421,A,104334.40
0.09764,0.00000000,0.00000000,57.68780,11.98137,10:43:34.614780,0.00314,0.00000,0.00214,0.01690,0.02357,-0.01016,0.01040,-0.00854,0.02611,0.98240,0.09353,0.00000,0.00000,0.00000,0.00000,0.00000,0.01520,0.79250,-4.11421,A,104334.40
0.10801,0.00000000,0.00000000,57.68780,11.98137,10:43:34.625137,0.00312,0.00000,0.00259,0.01690,0.02434,-0.01505,0.00551,-0.01482,0.03599,0.99192,0.10413,0.00000,0.00000,0.00000,0.00000,0.00000,0.01520,0.79250,-4.11421,A,104334.40
0.14064,0.00000000,0.00000000,57.68780,11.98137,10:43:34.657787,0.02535,0.00000,0.00309,0.01690,0.03044,-0.01077,0.00750,-0.02495,0.03550,1.00168,0.11465,0.00000,0.00000,0.00000,0.00000,0.00000,0.13946,0.79250,-4.11421,A,104334.60
0.15853,0.00000000,0.00000000,57.68780,11.98137,10:43:34.675722,0.00650,0.00000,0.00488,0.01690,0.04862,-0.01138,0.00398,0.00982,0.02129,0.98582,0.15288,0.00000,0.00000,0.00000,0.00000,0.00000,0.13946,0.79250,-4.11421,A,104334.60
0.16655,0.00000000,0.00000000,57.68780,11.98137,10:43:34.683695,0.00413,0.00000,0.00526,0.01690,0.05137,-0.01322,0.00643,0.00866,0.01848,0.99570,0.16263,0.00000,0.00000,0.00000,0.00000,0.00000,0.13946,0.79250,-4.11421,A,104334.60
0.17595,0.00000000,0.00000000,57.68780,11.98137,10:43:34.693078,0.00314,0.00000,0.00583,0.01690,0.05977,-0.01352,0.00551,0.00878,0.02696,0.99674,0.17207,0.00000,0.00000,0.00000,0.00000,0.00000,0.13946,0.79250,-4.11421,A,104334.60
0.18631,0.00000000,0.00000000,57.68780,11.98137,10:43:34.703435,0.00310,0.00000,0.00648,0.01690,0.06297,-0.01215,0.01009,0.01598,0.02763,0.99558,0.18241,0.00000,0.00000,0.00000,0.00000,0.00000,0.13946,0.79250,-4.11421,A,104334.60
0.19660,0.00000000,0.00000000,57.68780,11.98137,10:43:34.713723,0.00293,0.00000,0.00746,0.01690,0.07046,-0.00711,0.01193,0.03062,0.04477,0.99424,0.19272,0.00000,0.00000,0.00000,0.00000,0.00000,0.13946,0.79250,-4.11421,A,104334.60
0.20716,0.00000000,0.00000000,57.68780,11.98137,10:43:34.724293,0.00310,0.00000,0.00842,0.01690,0.07886,-0.01337,0.01147,0.03392,0.03770,0.98893,0.20328,0.00000,0.00000,0.00000,0.00000,0.00000,0.13946,0.79250,-4.11421,A,104334.60
0.22146,0.00000000,0.00000000,57.68780,11.98137,10:43:34.738634,0.00584,0.00000,0.00950,0.01690,0.08313,-0.01016,0.01086,0.03788,0.02690,0.99259,0.21692,0.00000,0.00000,0.00000,0.00000,0.00000,0.13946,0.79250,-4.11421,A,104334.60
0.22901,0.00000000,0.00000000,57.68780,11.98137,10:43:34.746421,0.00302,0.00000,0.00992,0.01690,0.08496,-0.01703,0.01254,0.03684,0.01232,0.99534,0.22513,0.00000,0.00000,0.00000,0.00000,0.00000,0.13946,0.79250,-4.11421,A,104334.60
0.25211,0.00000000,0.00000000,57.68780,11.98138,10:43:34.769240,0.01542,0.00000,0.01083,0.01690,0.08496,-0.01535,0.00826,0.04551,0.02952,0.99399,0.23625,0.00000,0.00000,0.00000,0.00000,0.00000,0.25097,0.83212,-4.07715,A,104334.70
0.26355,0.00000000,0.00000000,57.68780,11.98138,10:43:34.780677,0.00509,0.00000,0.01330,0.01690,0.09306,-0.01963,0.00964,0.04837,0.05624,0.99467,0.25920,0.00000,0.00000,0.00000,0.00000,0.00000,0.25097,0.83212,-4.07715,A,104334.70
0.27198,0.00000000,0.00000000,57.68780,11.98138,10:43:34.789091,0.00311,0.00000,0.01461,0.01690,0.10222,-0.01306,0.00673,0.03148,0.06191,0.99924,0.26809,0.00000,0.00000,0.00000,0.00000,0.00000,0.25097,0.83212,-4.07715,A,104334.70
0.28237,0.00000000,0.00000000,57.68780,11.98138,10:43:34.799482,0.00311,0.00000,0.01569,0.01690,0.09703,-0.01337,0.01177,0.02153,0.04191,1.00497,0.27847,0.00000,0.00000,0.00000,0.00000,0.00000,0.25097,0.83212,-4.07715,A,104334.70
0.29273,0.00000000,0.00000000,57.68780,11.98138,10:43:34.809839,0.00297,0.00000,0.01670,0.01690,0.09871,-0.01184,0.01223,0.02647,0.03715,1.00833,0.28884,0.00000,0.00000,0.00000,0.00000,0.00000,0.25097,0.83212,-4.07715,A,104334.70
0.30343,0.00000000,0.00000000,57.68780,11.98138,10:43:34.820542,0.00328,0.00000,0.01801,0.01690,0.10146,-0.00909,0.00872,0.02898,0.05411,1.00546,0.29955,0.00000,0.00000,0.00000,0.00000,0.00000,0.25097,0.83212,-4.07715,A,104334.70
0.31365,0.00000000,0.00000000,57.68780,11.98138,10:43:34.830770,0.00310,0.00000,0.01955,0.01690,0.09795,-0.01108,0.01437,0.04148,0.07716,1.00089,0.30957,0.00000,0.00000,0.00000,0.00000,0.00000,0.25097,0.83212,-4.07715,A,104334.70
0.32406,0.00000000,0.00000000,57.68780,11.98138,10:43:34.841172,0.00312,0.00000,0.02079,0.01690,0.10375,-0.01520,0.01498,0.02336,0.05112,0.99643,0.32018,0.00000,0.00000,0.00000,0.00000,0.00000,0.25097,0.83212,-4.07715,A,104334.70
0.33446,0.00000000,0.00000000,57.68780,11.98138,10:43:34.851567,0.00312,0.00000,0.02182,0.01690,0.10146,-0.01398,0.01498,0.00085,0.04081,0.98918,0.33056,0.00000,0.00000,0.00000,0.00000,0.00000,0.25097,0.83212,-4.07715,A,104334.70
0.34464,0.00000000,0.00000000,57.68780,11.98138,10:43:34.861743,0.00296,0.00000,0.02286,0.01690,0.09840,-0.00695,0.01208,-0.00403,0.04642,0.98985,0.34075,0.00000,0.00000,0.00000,0.00000,0.00000,0.25097,0.83212,-4.07715,A,104334.70
0.36711,0.00000000,0.00000000,57.68780,11.98138,10:43:34.884233,0.01503,0.00000,0.02418,0.01690,0.09092,-0.00543,0.01345,-0.00159,0.06765,0.98814,0.35131,0.00000,0.00000,0.00000,0.00000,0.00000,0.36597,0.84203,-4.07715,A,104334.80
0.37941,0.00000000,0.00000000,57.68780,11.98138,10:43:34.896531,0.00479,0.00000,0.02704,0.01690,0.09535,-0.00314,0.01376,-0.00714,0.08540,1.00406,0.37551,0.00000,0.00000,0.00000,0.00000,0.00000,0.36597,0.84203,-4.07715,A,104334.80
0.38874,0.00000000,0.00000000,57.68780,11.98138,10:43:34.906353,0.00308,0.00000,0.02830,0.01690,0.09611,-0.00176,0.01635,-0.01501,0.07418,1.00918,0.38484,0.00000,0.00000,0.00000,0.00000,0.00000,0.36597,0.84203,-4.07715,A,104334.80
0.39941,0.00000000,0.00000000,57.68780,11.98138,10:43:34.916525,0.00335,0.00000,0.02957,0.01690,0.09581,-0.00023,0.01452,-0.01318,0.06679,0.99936,0.39553,0.00000,0.00000,0.00000,0.00000,0.00000,0.36597,0.84203,-4.07715,A,104334.80
0.40958,0.00000000,0.00000000,57.68780,11.98138,10:43:34.926697,0.00312,0.00000,0.03058,0.01690,0.09123,-0.00161,0.01880,-0.02105,0.05826,1.00375,0.40548,0.00000,0.00000,0.00000,0.00000,0.00000,0.36597,0.84203,-4.07715,A,104334.80
0.42018,0.00000000,0.00000000,57.68780,11.98138,10:43:34.937294,0.00333,0.00000,0.03182,0.01690,0.08832,-0.00543,0.02323,-0.02172,0.07216,1.00345,0.41628,0.00000,0.00000,0.00000,0.00000,0.00000,0.36597,0.84203,-4.07715,A,104334.80
0.43035,0.00000000,0.00000000,57.68780,11.98138,10:43:34.947461,0.00311,0.00000,0.03300,0.01690,0.08680,-0.00268,0.02109,-0.02367,0.07466,1.00833,0.42645,0.00000,0.00000,0.00000,0.00000,0.00000,0.36597,0.84203,-4.07715,A,104334.80
0.44087,0.00000000,0.00000000,57.68780,11.98138,10:43:34.957989,0.00321,0.00000,0.03417,0.01690,0.08634,-0.00054,0.02323,-0.02660,0.07247,1.00016,0.43696,0.00000,0.00000,0.00000,0.00000,0.00000,0.36597,0.84203,-4.07715,A,104334.80
0.45118,0.00000000,0.00000000,57.68780,11.98138,10:43:34.968289,0.00312,0.00000,0.03533,0.01690,0.07947,0.00404,0.02262,-0.03849,0.07503,0.95136,0.44729,0.00000,0.00000,0.00000,0.00000,0.00000,0.36597,0.84203,-4.07715,A,104334.80
0.46159,0.00000000,0.00000000,57.68780,11.98138,10:43:34.978708,0.00313,0.00000,0.03634,0.01692,0.07672,0.00450,0.02109,-0.02952,0.06911,0.95538,0.45748,0.00000,0.00000,0.00000,0.00000,0.00000,0.36597,0.84203,-4.07715,A,104334.80
0.48400,0.00000000,0.00000000,57.68780,11.98138,10:43:35.001119,0.01515,0.00000,0.03749,0.01707,0.07366,0.00206,0.02078,-0.00866,0.07845,0.94977,0.46819,0.00000,0.00000,0.00000,0.00000,0.00000,0.48283,0.87175,-4.00302,A,104334.90
0.49396,0.00000000,0.00000000,57.68780,11.98138,10:43:35.011087,0.00328,0.00000,0.03886,0.01772,0.05610,-0.00390,0.01849,-0.00555,0.06801,0.97496,0.49004,0.00000,0.00000,0.00000,0.00000,0.00000,0.48283,0.87175,-4.00302,A,104334.90
0.50420,0.00000000,0.00000000,57.68780,11.98138,10:43:35.021306,0.00312,0.00000,0.03959,0.01809,0.04847,-0.00283,0.01116,-0.02940,0.07448,0.98503,0.50031,0.00000,0.00000,0.00000,0.00000,0.00000,0.48283,0.87175,-4.00302,A,104334.90
0.51446,0.00000000,0.00000000,57.68780,11.98138,10:43:35.031570,0.00299,0.00000,0.04042,0.01831,0.03930,0.00038,0.00566,-0.03337,0.08876,0.98954,0.51057,0.00000,0.00000,0.00000,0.00000,0.00000,0.48283,0.87175,-4.00302,A,104334.90
0.52488,0.00000000,0.00000000,57.68780,11.98138,10:43:35.041989,0.00298,0.00000,0.04125,0.01834,0.03442,0.00404,-0.00090,-0.02556,0.09284,0.98991,0.52099,0.00000,0.00000,0.00000,0.00000,0.00000,0.48283,0.87175,-4.00302,A,104334.90
0.53541,0.00000000,0.00000000,57.68780,11.98138,10:43:35.052521,0.00312,0.00000,0.04188,0.01834,0.03304,0.00633,-0.00487,0.00451,0.07997,0.98015,0.53153,0.00000,0.00000,0.00000,0.00000,0.00000,0.48283,0.87175,-4.00302,A,104334.90
0.54585,0.00000000,0.00000000,57.68780,11.98138,10:43:35.062965,0.00316,0.00000,0.04228,0.01834,0.02632,0.00083,-0.00808,0.02245,0.07003,0.97698,0.54173,0.00000,0.00000,0.00000,0.00000,0.00000,0.48283,0.87175,-4.00302,A,104334.90
0.55618,0.00000000,0.00000000,57.68780,11.98138,10:43:35.073291,0.00310,0.00000,0.04264,0.01834,0.02281,-0.00848,-0.00273,0.01787,0.07003,0.97752,0.55230,0.00000,0.00000,0.00000,0.00000,0.00000,0.48283,0.87175,-4.00302,A,104334.90
0.56647,0.00000000,0.00000000,57.68780,11.98138,10:43:35.083585,0.00300,0.00000,0.04289,0.01834,0.01517,-0.01428,0.00398,0.00378,0.06924,0.98314,0.56258,0.00000,0.00000,0.00000,0.00000,0.00000,0.48283,0.87175,-4.00302,A,104334.90
0.57667,0.00000000,0.00000000,57.68780,11.98138,10:43:35.093775,0.00296,0.00000,0.04343,0.01834,0.01395,-0.01016,0.00673,-0.00244,0.08979,0.98387,0.57278,0.00000,0.00000,0.00000,0.00000,0.00000,0.48283,0.87175,-4.00302,A,104334.90
0.59904,0.00000000,0.00000000,57.68780,11.98138,10:43:35.116162,0.01494,0.00000,0.04399,0.01834,0.01242,-0.01016,0.00750,0.00323,0.09138,0.98381,0.58333,0.00000,0.00000,0.00000,0.00000,0.00000,0.59789,0.92128,-3.91035,A,104335.00
0.60771,0.00000000,0.00000000,57.68780,11.98138,10:43:35.124819,0.00325,0.00000,0.04444,0.01834,0.00845,-0.00924,0.00994,0.02105,0.08235,0.98039,0.60382,0.00000,0.00000,0.00000,0.00000,0.00000,0.59789,0.92128,-3.91035,A,104335.00
0.61803,0.00000000,0.00000000,57.68780,11.98138,10:43:35.135321,0.00317,0.00000,0.04452,0.01834,0.01090,-0.01383,0.00826,0.01482,0.06307,0.99101,0.61413,0.00000,0.00000,0.00000,0.00000,0.00000,0.59789,0.92128,-3.91035,A,104335.00
0.62861,0.00000000,0.00000000,57.68780,11.98138,10:43:35.145715,0.00299,0.00000,0.04458,0.01834,0.00173,-0.00986,0.00383,0.00201,0.06808,0.99723,0.62472,0.00000,0.00000,0.00000,0.00000,0.00000,0.59789,0.92128,-3.91035,A,104335.00
0.63913,0.00000000,0.00000000,57.68780,11.98138,10:43:35.156242,0.00312,0.00000,0.04495,0.01834,0.00036,-0.00802,0.00093,0.01287,0.09034,0.99741,0.63524,0.00000,0.00000,0.00000,0.00000,0.00000,0.59789,0.92128,-3.91035,A,104335.00
0.64956,0.00000000,0.00000000,57.68780,11.98138,10:43:35.166688,0.00315,0.00000,0.04505,0.01834,0.00555,-0.00772,-0.00014,0.01775,0.06771,0.97905,0.64545,0.00000,0.00000,0.00000,0.00000,0.00000,0.59789,0.92128,-3.91035,A,104335.00
0.65993,0.00000000,0.00000000,57.68780,11.98138,10:43:35.177043,0.00312,0.00000,0.04521,0.01834,0.00372,-0.00787,0.00200,0.05697,0.07216,0.97734,0.65604,0.00000,0.00000,0.00000,0.00000,0.00000,0.59789,0.92128,-3.91035,A,104335.00
0.67032,0.00000000,0.00000000,57.68780,11.98138,10:43:35.187425,0.00311,0.00000,0.04513,0.01834,-0.00163,-0.01658,-0.00044,0.02025,0.06069,0.97515,0.66642,0.00000,0.00000,0.00000,0.00000,0.00000,0.59789,0.92128,-3.91035,A,104335.00
0.68061,0.00000000,0.00000000,57.68780,11.98138,10:43:35.197724,0.00294,0.00000,0.04511,0.01828,-0.00086,-0.02024,0.00032,0.01610,0.06417,0.98039,0.67672,0.00000,0.00000,0.00000,0.00000,0.00000,0.59789,0.92128,-3.91035,A,104335.00
0.69119,0.00000000,0.00000000,57.68780,11.98138,10:43:35.208294,0.00312,0.00000,0.04503,0.01817,-0.00010,-0.01734,0.00643,0.01153,0.05996,0.98045,0.68730,0.00000,0.00000,0.00000,0.00000,0.00000,0.59789,0.92128,-3.91035,A,104335.00
0.71340,0.00000000,0.00000000,57.68780,11.98138,10:43:35.230526,0.01494,0.00000,0.04525,0.01789,-0.00254,-0.01123,0.00780,0.02031,0.08107,0.98057,0.69749,0.00000,0.00000,0.00000,0.00000,0.00000,0.71214,0.93118,-3.85476,A,104335.10
0.72802,0.00000000,0.00000000,57.68780,11.98138,10:43:35.245147,0.00536,0.00000,0.04546,0.01633,0.00479,-0.01291,0.00398,0.03392,0.07052,0.98222,0.72407,0.00000,0.00000,0.00000,0.00000,0.00000,0.71214,0.93118,-3.85476,A,104335.10
0.73618,0.00000000,0.00000000,57.68780,11.98138,10:43:35.253286,0.00311,0.00000,0.04544,0.01554,0.00005,-0.01092,0.00505,0.02763,0.06490,0.99009,0.73229,0.00000,0.00000,0.00000,0.00000,0.00000,0.71214,0.93118,-3.85476,A,104335.10
0.74647,0.00000000,0.00000000,57.68780,11.98138,10:43:35.263581,0.00301,0.00000,0.04529,0.01472,0.00097,-0.01764,0.00337,0.03562,0.05545,0.99357,0.74258,0.00000,0.00000,0.00000,0.00000,0.00000,0.71214,0.93118,-3.85476,A,104335.10
0.75665,0.00000000,0.00000000,57.68780,11.98138,10:43:35.273770,0.00296,0.00000,0.04525,0.01401,0.00066,-0.02436,0.00902,0.04849,0.06228,0.98838,0.75277,0.00000,0.00000,0.00000,0.00000,0.00000,0.71214,0.93118,-3.85476,A,104335.10
0.76736,0.00000000,0.00000000,57.68780,11.98138,10:43:35.284475,0.00327,0.00000,0.04536,0.01333,-0.00651,-0.02986,0.00811,0.03105,0.07729,0.98637,0.76348,0.00000,0.00000,0.00000,0.00000,0.00000,0.71214,0.93118,-3.85476,A,104335.10
0.77763,0.00000000,0.00000000,57.68780,11.98138,10:43:35.294752,0.00314,0.00000,0.04561,0.01274,-0.00865,-0.02849,0.00612,0.00061,0.08851,0.98826,0.77352,0.00000,0.00000,0.00000,0.00000,0.00000,0.71214,0.93118,-3.85476,A,104335.10
0.78801,0.00000000,0.00000000,57.68780,11.98138,10:43:35.305118,0.00312,0.00000,0.04589,0.01206,-0.00254,-0.02345,0.00536,-0.02891,0.08564,0.98716,0.78412,0.00000,0.00000,0.00000,0.00000,0.00000,0.71214,0.93118,-3.85476,A,104335.10
0.79839,0.00000000,0.00000000,57.68780,11.98138,10:43:35.315505,0.00312,0.00000,0.04588,0.01132,-0.01155,-0.01749,-0.00090,-0.02251,0.07399,0.99332,0.79450,0.00000,0.00000,0.00000,0.00000,0.00000,0.71214,0.93118,-3.85476,A,104335.10
0.80861,0.00000000,0.00000000,57.68780,11.98138,10:43:35.325723,0.00294,0.00000,0.04573,0.01047,-0.01400,-0.01169,-0.00243,-0.01275,0.06618,0.99631,0.80472,0.00000,0.00000,0.00000,0.00000,0.00000,0.71214,0.93118,-3.85476,A,104335.10
0.84160,0.00000000,0.00000000,57.68780,11.98138,10:43:35.358749,0.02554,0.00000,0.04554,0.00937,-0.02469,-0.01581,-0.00136,-0.00311,0.07155,0.99564,0.81549,0.00000,0.00000,0.00000,0.00000,0.00000,0.84011,0.98071,-3.74356,A,104335.30
0.85499,0.00000000,0.00000000,57.68780,11.98138,10:43:35.372103,0.00430,0.00000,0.04420,0.00365,-0.04683,-0.00619,-0.00411,-0.03764,0.08778,1.00924,0.85108,0.00000,0.00000,0.00000,0.00000,0.00000,0.84011,0.98071,-3.74356,A,104335.30
0.86421,0.00000000,0.00000000,57.68780,11.98138,10:43:35.381332,0.00313,0.00000,0.04391,0.00119,-0.04591,-0.00650,-0.00915,-0.01379,0.07412,1.00321,0.86033,0.00000,0.00000,0.00000,0.00000,0.00000,0.84011,0.98071,-3.74356,A,104335.30
0.87470,0.00000000,0.00000000,57.68780,11.98138,10:43:35.391808,0.00316,0.00000,0.04335,-0.00184,-0.04805,-0.01062,-0.01404,-0.01964,0.06039,1.00369,0.87081,0.00000,0.00000,0.00000,0.00000,0.00000,0.84011,0.98071,-3.74356,A,104335.30
0.88473,0.00000000,0.00000000,57.68780,11.98138,10:43:35.401835,0.00296,0.00000,0.04292,-0.00524,-0.04897,-0.01551,-0.01969,-0.02092,0.06820,1.00095,0.88083,0.00000,0.00000,0.00000,0.00000,0.00000,0.84011,0.98071,-3.74356,A,104335.30
0.89530,0.00000000,0.00000000,57.68780,11.98138,10:43:35.412413,0.00314,0.00000,0.04242,-0.00903,-0.06164,-0.02192,-0.01831,-0.02769,0.07418,1.00186,0.89142,0.00000,0.00000,0.00000,0.00000,0.00000,0.84011,0.98071,-3.74356,A,104335.30
0.90570,0.00000000,0.00000000,57.68780,11.98138,10:43:35.422829,0.00315,0.00000,0.04191,-0.01279,-0.05676,-0.02177,-0.01862,-0.03349,0.06740,0.99955,0.90159,0.00000,0.00000,0.00000,0.00000,0.00000,0.84011,0.98071,-3.74356,A,104335.30
0.91607,0.00000000,0.00000000,57.68780,11.98138,10:43:35.433177,0.00312,0.00000,0.04122,-0.01676,-0.06317,-0.02131,-0.01755,-0.03770,0.06027,0.99314,0.91219,0.00000,0.00000,0.00000,0.00000,0.00000,0.84011,0.98071,-3.74356,A,104335.30
0.92647,0.00000000,0.00000000,57.68780,11.98138,10:43:35.443587,0.00313,0.00000,0.04036,-0.02043,-0.05645,-0.01596,-0.01373,-0.04447,0.04325,0.98942,0.92258,0.00000,0.00000,0.00000,0.00000,0.00000,0.84011,0.98071,-3.74356,A,104335.30
0.93661,0.00000000,0.00000000,57.68780,11.98138,10:43:35.453718,0.00294,0.00000,0.04003,-0.02400,-0.05660,-0.01505,-0.01663,-0.06320,0.07564,0.98423,0.93273,0.00000,0.00000,0.00000,0.00000,0.00000,0.84011,0.98071,-3.74356,A,104335.30
0.95983,0.00000000,0.00000000,57.68780,11.98138,10:43:35.476955,0.01576,0.00000,0.03965,-0.02743,-0.04820,-0.00924,-0.01312,-0.06423,0.06789,0.97606,0.94329,0.00000,0.00000,0.00000,0.00000,0.00000,0.95869,1.06987,-3.66943,A,104335.40
0.97181,0.00000000,0.00000000,57.68780,11.98138,10:43:35.488946,0.00526,0.00000,0.03840,-0.03425,-0.04790,-0.00298,-0.01617,-0.05179,0.05240,0.96319,0.96786,0.00000,0.00000,0.00000,0.00000,0.00000,0.95869,1.06987,-3.66943,A,104335.40
0.98008,0.00000000,0.00000000,57.68780,11.98138,10:43:35.497189,0.00312,0.00000,0.03806,-0.03679,-0.05355,-0.00146,-0.01801,-0.05148,0.06423,0.96417,0.97619,0.00000,0.00000,0.00000,0.00000,0.00000,0.95869,1.06987,-3.66943,A,104335.40
0.99046,0.00000000,0.00000000,57.68780,11.98138,10:43:35.507575,0.00311,0.00000,0.03784,-0.03937,-0.04576,-0.00130,-0.02610,-0.03922,0.07454,0.98356,0.98657,0.00000,0.00000,0.00000,0.00000,0.00000,0.95869,1.06987,-3.66943,A,104335.40
1.00063,0.00000000,0.00000000,57.68780,11.98138,10:43:35.517740,0.00296,0.00000,0.03733,-0.04186,-0.04607,-0.00650,-0.02473,-0.03080,0.05563,1.00784,0.99675,0.00000,0.00000,0.00000,0.00000,0.00000,0.95869,1.06987,-3.66943,A,104335.40
1.01119,0.00000000,0.00000000,57.68780,11.98138,10:43:35.528298,0.00311,0.00000,0.03676,-0.04432,-0.04362,-0.00573,-0.02686,-0.04130,0.05276,1.04115,1.00731,0.00000,0.00000,0.00000,0.00000,0.00000,0.95869,1.06987,-3.66943,A,104335.40
1.02174,0.00000000,0.00000000,57.68780,11.98138,10:43:35.538855,0.00315,0.00000,0.03619,-0.04661,-0.04087,-0.01108,-0.02763,-0.04441,0.04953,1.04597,1.01763,0.00000,0.00000,0.00000,0.00000,0.00000,0.95869,1.06987,-3.66943,A,104335.40
1.03210,0.00000000,0.00000000,57.68780,11.98138,10:43:35.549212,0.00311,0.00000,0.03589,-0.04882,-0.03477,-0.00848,-0.02671,-0.00531,0.06289,1.01638,1.02822,0.00000,0.00000,0.00000,0.00000,0.00000,0.95869,1.06987,-3.66943,A,104335.40
1.04271,0.00000000,0.00000000,57.68780,11.98138,10:43:35.559817,0.00333,0.00000,0.03547,-0.05077,-0.03370,-0.01566,-0.02610,-0.01836,0.05136,0.97990,1.03879,0.00000,0.00000,0.00000,0.00000,0.00000,0.95869,1.06987,-3.66943,A,104335.40
1.05261,0.00000000,0.00000000,57.68780,11.98138,10:43:35.569722,0.00293,0.00000,0.03505,-0.05253,-0.02927,-0.01719,-0.02198,-0.04154,0.04520,0.95117,1.04872,0.00000,0.00000,0.00000,0.00000,0.00000,0.95869,1.06987,-3.66943,A,104335.40
1.07556,0.00000000,0.00000000,57.68780,11.98138,10:43:35.592677,0.01549,0.00000,0.03508,-0.05406,-0.02240,-0.01123,-0.01969,-0.05490,0.06863,0.93092,1.05931,0.00000,0.00000,0.00000,0.00000,0.00000,1.07441,1.10949,-3.61384,A,104335.50
1.09115,0.00000000,0.00000000,57.68780,11.98138,10:43:35.608277,0.00440,0.00000,0.03436,-0.05683,-0.01430,-0.00527,-0.02014,-0.00952,0.03337,0.98448,1.08720,0.00000,0.00000,0.00000,0.00000,0.00000,1.07441,1.10949,-3.61384,A,104335.50
1.10114,0.00000000,0.00000000,57.68780,11.98138,10:43:35.618496,0.00399,0.00000,0.03412,-0.05760,-0.01369,-0.01138,-0.01846,0.00067,0.05020,1.02944,1.09719,0.00000,0.00000,0.00000,0.00000,0.00000,1.07441,1.10949,-3.61384,A,104335.50
1.11071,0.00000000,0.00000000,57.68780,11.98138,10:43:35.627824,0.00317,0.00000,0.03450,-0.05822,-0.01354,-0.01169,-0.01938,-0.02959,0.09443,1.05902,1.10681,0.00000,0.00000,0.00000,0.00000,0.00000,1.07441,1.10949,-3.61384,A,104335.50
1.12092,0.00000000,0.00000000,57.68780,11.98138,10:43:35.638030,0.00315,0.00000,0.03462,-0.05881,-0.01369,-0.01474,-0.02182,-0.04630,0.07631,1.05060,1.11703,0.00000,0.00000,0.00000,0.00000,0.00000,1.07441,1.10949,-3.61384,A,104335.50
1.13137,0.00000000,0.00000000,57.68780,11.98138,10:43:35.648478,0.00320,0.00000,0.03445,-0.05938,-0.00728,-0.00527,-0.02747,-0.04160,0.05002,1.00931,1.12749,0.00000,0.00000,0.00000,0.00000,0.00000,1.07441,1.10949,-3.61384,A,104335.50
1.14171,0.00000000,0.00000000,57.68780,11.98138,10:43:35.659072,0.00315,0.00000,0.03436,-0.05997,-0.01354,0.00404,-0.03374,-0.02995,0.05600,0.96044,1.13760,0.00000,0.00000,0.00000,0.00000,0.00000,1.07441,1.10949,-3.61384,A,104335.50
1.15209,0.00000000,0.00000000,57.68780,11.98138,10:43:35.669203,0.00313,0.00000,0.03449,-0.06062,-0.01338,0.00328,-0.03160,-0.01183,0.06722,0.91415,1.14820,0.00000,0.00000,0.00000,0.00000,0.00000,1.07441,1.10949,-3.61384,A,104335.50
1.16246,0.00000000,0.00000000,57.68780,11.98138,10:43:35.679570,0.00311,0.00000,0.03429,-0.06128,-0.01293,-0.00253,-0.03160,-0.01305,0.04654,0.90969,1.15858,0.00000,0.00000,0.00000,0.00000,0.00000,1.07441,1.10949,-3.61384,A,104335.50
1.17264,0.00000000,0.00000000,57.68780,11.98138,10:43:35.689746,0.00295,0.00000,0.03407,-0.06193,-0.01171,-0.01337,-0.03114,-0.01263,0.04557,0.94086,1.16874,0.00000,0.00000,0.00000,0.00000,0.00000,1.07441,1.10949,-3.61384,A,104335.50
1.19553,0.00000000,0.00000000,57.68780,11.98138,10:43:35.712653,0.01545,0.00000,0.03354,-0.06255,-0.00835,-0.02207,-0.02427,-0.01354,0.02507,0.98009,1.17931,0.00000,0.00000,0.00000,0.00000,0.00000,1.19438,1.11940,-3.52117,A,104335.60
1.20846,0.00000000,0.00000000,57.68780,11.98138,10:43:35.725582,0.00386,0.00000,0.03361,-0.06405,-0.01522,-0.01749,-0.01953,-0.05197,0.08979,1.05554,1.20456,0.00000,0.00000,0.00000,0.00000,0.00000,1.19438,1.11940,-3.52117,A,104335.60
1.21842,0.00000000,0.00000000,57.68780,11.98138,10:43:35.735539,0.00336,0.00000,0.03408,-0.06464,-0.00468,-0.00619,-0.02244,-0.05441,0.09284,1.04493,1.21450,0.00000,0.00000,0.00000,0.00000,0.00000,1.19438,1.11940,-3.52117,A,104335.60
1.22870,0.00000000,0.00000000,57.68780,11.98138,10:43:35.745810,0.00310,0.00000,0.03436,-0.06529,-0.00422,0.00603,-0.02992,-0.03569,0.07765,1.00656,1.22480,0.00000,0.00000,0.00000,0.00000,0.00000,1.19438,1.11940,-3.52117,A,104335.60
1.23913,0.00000000,0.00000000,57.68780,11.98138,10:43:35.756242,0.00314,0.00000,0.03424,-0.06586,0.00097,-0.00222,-0.03129,-0.00891,0.04502,0.97179,1.23525,0.00000,0.00000,0.00000,0.00000,0.00000,1.19438,1.11940,-3.52117,A,104335.60
1.24966,0.00000000,0.00000000,57.68780,11.98138,10:43:35.766789,0.00327,0.00000,0.03373,-0.06628,-0.00239,-0.01184,-0.03206,0.00427,0.02227,0.96246,1.24542,0.00000,0.00000,0.00000,0.00000,0.00000,1.19438,1.11940,-3.52117,A,104335.60
1.25993,0.00000000,0.00000000,57.68780,11.98138,10:43:35.777036,0.00315,0.00000,0.03328,-0.06651,-0.00743,-0.02406,-0.03343,0.00458,0.02898,0.95947,1.25604,0.00000,0.00000,0.00000,0.00000,0.00000,1.19438,1.11940,-3.52117,A,104335.60
1.27029,0.00000000,0.00000000,57.68780,11.98138,10:43:35.787405,0.00312,0.00000,0.03317,-0.06654,-0.00453,-0.02589,-0.02625,-0.00567,0.04813,0.95996,1.26639,0.00000,0.00000,0.00000,0.00000,0.00000,1.19438,1.11940,-3.52117,A,104335.60
1.28062,0.00000000,0.00000000,57.68780,11.98138,10:43:35.797730,0.00296,0.00000,0.03343,-0.06654,-0.01018,-0.02604,-0.02641,-0.02983,0.07509,0.96075,1.27673,0.00000,0.00000,0.00000,0.00000,0.00000,1.19438,1.11940,-3.52117,A,104335.60
1.29120,0.00000000,0.00000000,57.68780,11.98138,10:43:35.808312,0.00314,0.00000,0.03387,-0.06654,-0.00147,-0.02100,-0.02228,-0.05929,0.08442,0.98747,1.28731,0.00000,0.00000,0.00000,0.00000,0.00000,1.19438,1.11940,-3.52117,A,104335.60
1.31412,0.00000000,0.00000000,57.68780,11.98138,10:43:35.831240,0.01566,0.00000,0.03421,-0.06654,0.00891,-0.01108,-0.02289,-0.05899,0.07216,1.01394,1.29748,0.00000,0.00000,0.00000,0.00000,0.00000,1.31272,1.13921,-3.39145,A,104335.70
1.32961,0.00000000,0.00000000,57.68780,11.98138,10:43:35.846752,0.00542,0.00000,0.03465,-0.06654,0.02174,-0.01291,-0.02289,0.00238,0.04654,1.03267,1.32548,0.00000,0.00000,0.00000,0.00000,0.00000,1.31272,1.13921,-3.39145,A,104335.70
1.33774,0.00000000,0.00000000,57.68780,11.98138,10:43:35.854849,0.00314,0.00000,0.03475,-0.06654,0.01563,-0.01658,-0.02182,-0.01434,0.05484,1.01248,1.33363,0.00000,0.00000,0.00000,0.00000,0.00000,1.31272,1.13921,-3.39145,A,104335.70
1.34813,0.00000000,0.00000000,57.68780,11.98138,10:43:35.865244,0.00314,0.00000,0.03514,-0.06654,0.02311,-0.01902,-0.02106,-0.01647,0.06313,0.96398,1.34424,0.00000,0.00000,0.00000,0.00000,0.00000,1.31272,1.13921,-3.39145,A,104335.70
1.35855,0.00000000,0.00000000,57.68780,11.98138,10:43:35.875668,0.00316,0.00000,0.03566,-0.06654,0.03060,-0.01719,-0.01617,-0.03233,0.06435,0.92250,1.35465,0.00000,0.00000,0.00000,0.00000,0.00000,1.31272,1.13921,-3.39145,A,104335.70
1.36877,0.00000000,0.00000000,57.68780,11.98138,10:43:35.885881,0.00297,0.00000,0.03617,-0.06654,0.02968,-0.02085,-0.01404,-0.04124,0.06509,0.91634,1.36488,0.00000,0.00000,0.00000,0.00000,0.00000,1.31272,1.13921,-3.39145,A,104335.70
1.37931,0.00000000,0.00000000,57.68780,11.98138,10:43:35.896411,0.00312,0.00000,0.03654,-0.06654,0.03457,-0.02161,-0.01327,-0.05520,0.05563,0.95971,1.37543,0.00000,0.00000,0.00000,0.00000,0.00000,1.31272,1.13921,-3.39145,A,104335.70
1.38973,0.00000000,0.00000000,57.68780,11.98138,10:43:35.906846,0.00315,0.00000,0.03695,-0.06648,0.04068,-0.01367,-0.01098,-0.05716,0.06008,1.03230,1.38561,0.00000,0.00000,0.00000,0.00000,0.00000,1.31272,1.13921,-3.39145,A,104335.70
1.40011,0.00000000,0.00000000,57.68780,11.98138,10:43:35.917220,0.00314,0.00000,0.03720,-0.06614,0.04343,-0.00543,-0.01129,-0.02318,0.04636,1.05091,1.39621,0.00000,0.00000,0.00000,0.00000,0.00000,1.31272,1.13921,-3.39145,A,104335.70
1.41047,0.00000000,0.00000000,57.68780,11.98138,10:43:35.927581,0.00310,0.00000,0.03725,-0.06527,0.04068,-0.00665,-0.00716,0.02294,0.03471,1.02669,1.40657,0.00000,0.00000,0.00000,0.00000,0.00000,1.31272,1.13921,-3.39145,A,104335.70
1.44441,0.00000000,0.00000000,57.68781,11.98138,10:43:35.961535,0.02674,0.00000,0.03780,-0.06368,0.04404,-0.01306,-0.00533,-0.01647,0.06557,1.00180,1.41693,0.00000,0.00000,0.00000,0.00000,0.00000,1.44324,1.21846,-3.09493,A,104335.90
1.46084,0.00000000,0.00000000,57.68781,11.98138,10:43:35.977968,0.00445,0.00000,0.03939,-0.05474,0.03991,-0.01795,-0.01083,0.00891,0.05899,0.98155,1.45687,0.00000,0.00000,0.00000,0.00000,0.00000,1.44324,1.21846,-3.09493,A,104335.90
1.47055,0.00000000,0.00000000,57.68781,11.98138,10:43:35.987671,0.00364,0.00000,0.03993,-0.05219,0.04312,-0.02146,-0.01694,-0.01019,0.06881,0.99369,1.46664,0.00000,0.00000,0.00000,0.00000,0.00000,1.44324,1.21846,-3.09493,A,104335.90
1.48042,0.00000000,0.00000000,57.68781,11.98138,10:43:35.997536,0.00295,0.00000,0.04090,-0.04998,0.04251,-0.02192,-0.01022,-0.08003,0.10004,1.01968,1.47653,0.00000,0.00000,0.00000,0.00000,0.00000,1.44324,1.21846,-3.09493,A,104335.90
1.49101,0.00000000,0.00000000,57.68781,11.98138,10:43:36.008116,0.00314,0.00000,0.04175,-0.04780,0.04709,-0.00756,-0.00823,-0.08686,0.08674,1.00906,1.48712,0.00000,0.00000,0.00000,0.00000,0.00000,1.44324,1.21846,-3.09493,A,104335.90
1.50117,0.00000000,0.00000000,57.68781,11.98138,10:43:36.018650,0.00291,0.00000,0.04194,-0.04571,0.04266,-0.00543,-0.00609,-0.01897,0.04666,0.99637,1.49729,0.00000,0.00000,0.00000,0.00000,0.00000,1.44324,1.21846,-3.09493,A,104335.90
1.51181,0.00000000,0.00000000,57.68781,11.98138,10:43:36.028913,0.00315,0.00000,0.04243,-0.04364,0.04847,-0.01459,0.00169,0.00781,0.06173,0.99631,1.50792,0.00000,0.00000,0.00000,0.00000,0.00000,1.44324,1.21846,-3.09493,A,104335.90
1.52219,0.00000000,0.00000000,57.68781,11.98138,10:43:36.039487,0.00315,0.00000,0.04290,-0.04172,0.03930,-0.02513,0.00460,-0.02971,0.06899,1.01107,1.51829,0.00000,0.00000,0.00000,0.00000,0.00000,1.44324,1.21846,-3.09493,A,104335.90
1.53269,0.00000000,0.00000000,57.68781,11.98138,10:43:36.049802,0.00311,0.00000,0.04344,-0.03979,0.04831,-0.02070,0.00750,-0.07796,0.06734,1.00363,1.52880,0.00000,0.00000,0.00000,0.00000,0.00000,1.44324,1.21846,-3.09493,A,104335.90
1.54309,0.00000000,0.00000000,57.68781,11.98138,10:43:36.060458,0.00311,0.00000,0.04408,-0.03795,0.03579,-0.00924,0.00994,-0.06356,0.07924,0.95508,1.53921,0.00000,0.00000,0.00000,0.00000,0.00000,1.44324,1.21846,-3.09493,A,104335.90
1.56608,0.00000000,0.00000000,57.68781,11.98138,10:43:36.083207,0.01571,0.00000,0.04500,-0.03626,0.03090,-0.00955,0.00414,-0.02428,0.09620,0.90731,1.54940,0.00000,0.00000,0.00000,0.00000,0.00000,1.56480,1.21846,-3.03933,A,104336.00
1.57854,0.00000000,0.00000000,57.68781,11.98138,10:43:36.096470,0.00331,0.00000,0.04594,-0.03198,0.02113,-0.01474,-0.00655,-0.04160,0.09443,1.00900,1.57462,0.00000,0.00000,0.00000,0.00000,0.00000,1.56480,1.21846,-3.03933,A,104336.00
1.58862,0.00000000,0.00000000,57.68781,11.98138,10:43:36.105730,0.00296,0.00000,0.04636,-0.02997,0.01991,-0.01551,-0.00350,-0.04209,0.08546,1.04005,1.58473,0.00000,0.00000,0.00000,0.00000,0.00000,1.56480,1.21846,-3.03933,A,104336.00
1.59919,0.00000000,0.00000000,57.68781,11.98138,10:43:36.116293,0.00312,0.00000,0.04680,-0.02765,0.01517,-0.01352,-0.00228,-0.01196,0.09077,1.04749,1.59529,0.00000,0.00000,0.00000,0.00000,0.00000,1.56480,1.21846,-3.03933,A,104336.00
1.60965,0.00000000,0.00000000,57.68781,11.98138,10:43:36.126770,0.00320,0.00000,0.04709,-0.02519,0.02143,-0.00924,0.00124,-0.02544,0.07570,1.04286,1.60547,0.00000,0.00000,0.00000,0.00000,0.00000,1.56480,1.21846,-3.03933,A,104336.00
1.62031,0.00000000,0.00000000,57.68781,11.98138,10:43:36.137416,0.00346,0.00000,0.04737,-0.02244,0.02006,-0.00207,0.00902,-0.06515,0.07509,1.03450,1.61641,0.00000,0.00000,0.00000,0.00000,0.00000,1.56480,1.21846,-3.03933,A,104336.00
1.63029,0.00000000,0.00000000,57.68781,11.98138,10:43:36.147409,0.00314,0.00000,0.04791,-0.01987,0.01563,0.00740,0.01025,-0.04063,0.09266,0.97691,1.62639,0.00000,0.00000,0.00000,0.00000,0.00000,1.56480,1.21846,-3.03933,A,104336.00
1.64061,0.00000000,0.00000000,57.68781,11.98138,10:43:36.157714,0.00294,0.00000,0.04785,-0.01712,0.01242,0.00648,0.01315,0.03148,0.05112,0.90872,1.63672,0.00000,0.00000,0.00000,0.00000,0.00000,1.56480,1.21846,-3.03933,A,104336.00
1.65120,0.00000000,0.00000000,57.68781,11.98138,10:43:36.168309,0.00313,0.00000,0.04798,-0.01443,0.00647,-0.01169,0.01773,0.03910,0.06399,0.86943,1.64731,0.00000,0.00000,0.00000,0.00000,0.00000,1.56480,1.21846,-3.03933,A,104336.00
1.66158,0.00000000,0.00000000,57.68781,11.98138,10:43:36.178706,0.00312,0.00000,0.04850,-0.01197,0.00494,-0.02681,0.02063,0.01812,0.09083,0.90683,1.65748,0.00000,0.00000,0.00000,0.00000,0.00000,1.56480,1.21846,-3.03933,A,104336.00
1.68465,0.00000000,0.00000000,57.68781,11.98138,10:43:36.201773,0.01580,0.00000,0.04883,-0.00957,0.00204,-0.02757,0.01452,-0.08906,0.08997,0.99076,1.66811,0.00000,0.00000,0.00000,0.00000,0.00000,1.68350,1.19865,-3.05786,A,104336.10
1.69831,0.00000000,0.00000000,57.68781,11.98138,10:43:36.215799,0.00407,0.00000,0.04902,-0.00433,-0.00499,0.01122,0.00536,0.03050,0.09546,1.04963,1.69438,0.00000,0.00000,0.00000,0.00000,0.00000,1.68350,1.19865,-3.05786,A,104336.10
1.70780,0.00000000,0.00000000,57.68781,11.98138,10:43:36.224916,0.00332,0.00000,0.04917,-0.00241,-0.00575,0.00190,0.00566,0.04831,0.08717,1.03859,1.70390,0.00000,0.00000,0.00000,0.00000,0.00000,1.68350,1.19865,-3.05786,A,104336.10
1.71818,0.00000000,0.00000000,57.68781,11.98138,10:43:36.235297,0.00331,0.00000,0.04889,-0.00068,-0.00529,-0.01367,0.00857,0.00720,0.05667,1.01870,1.71427,0.00000,0.00000,0.00000,0.00000,0.00000,1.68350,1.19865,-3.05786,A,104336.10
1.72841,0.00000000,0.00000000,57.68781,11.98138,10:43:36.245510,0.00296,0.00000,0.04861,0.00105,-0.00987,-0.02223,0.01299,-0.01476,0.05624,0.97374,1.72451,0.00000,0.00000,0.00000,0.00000,0.00000,1.68350,1.19865,-3.05786,A,104336.10
1.73913,0.00000000,0.00000000,57.68781,11.98138,10:43:36.256244,0.00328,0.00000,0.04835,0.00258,-0.01873,-0.02757,0.01727,-0.02593,0.06039,0.92397,1.73524,0.00000,0.00000,0.00000,0.00000,0.00000,1.68350,1.19865,-3.05786,A,104336.10
1.74905,0.00000000,0.00000000,57.68781,11.98138,10:43:36.266361,0.00297,0.00000,0.04851,0.00391,-0.01858,-0.02513,0.02002,0.00293,0.08211,0.88810,1.74516,0.00000,0.00000,0.00000,0.00000,0.00000,1.68350,1.19865,-3.05786,A,104336.10
1.75961,0.00000000,0.00000000,57.68781,11.98138,10:43:36.276723,0.00314,0.00000,0.04858,0.00509,-0.01949,-0.02772,0.02078,-0.01074,0.08046,0.91378,1.75571,0.00000,0.00000,0.00000,0.00000,0.00000,1.68350,1.19865,-3.05786,A,104336.10
1.76998,0.00000000,0.00000000,57.68781,11.98138,10:43:36.287093,0.00312,0.00000,0.04834,0.00600,-0.01445,-0.02207,0.01376,-0.06618,0.06271,0.98533,1.76608,0.00000,0.00000,0.00000,0.00000,0.00000,1.68350,1.19865,-3.05786,A,104336.10
1.78039,0.00000000,0.00000000,57.68781,11.98138,10:43:36.297503,0.00294,0.00000,0.04825,0.00679,-0.01384,-0.01383,0.01788,-0.10504,0.07710,1.05432,1.77650,0.00000,0.00000,0.00000,0.00000,0.00000,1.68350,1.19865,-3.05786,A,104336.10
1.80287,0.00000000,0.00000000,57.68781,11.98138,10:43:36.319989,0.01503,0.00000,0.04769,0.00753,-0.01338,0.01091,0.01361,-0.03758,0.04477,1.08592,1.78707,0.00000,0.00000,0.00000,0.00000,0.00000,1.80172,1.14912,-3.03933,A,104336.20
1.81454,0.00000000,0.00000000,57.68781,11.98138,10:43:36.331661,0.00412,0.00000,0.04685,0.00928,-0.02392,-0.01092,0.01498,0.04191,0.05014,1.01748,1.81062,0.00000,0.00000,0.00000,0.00000,0.00000,1.80172,1.14912,-3.03933,A,104336.20
1.82497,0.00000000,0.00000000,57.68781,11.98138,10:43:36.342316,0.00415,0.00000,0.04694,0.01016,-0.03003,-0.02070,0.01681,-0.01275,0.09180,0.96837,1.82103,0.00000,0.00000,0.00000,0.00000,0.00000,1.80172,1.14912,-3.03933,A,104336.20
1.83433,0.00000000,0.00000000,57.68781,11.98138,10:43:36.351441,0.00313,0.00000,0.04703,0.01092,-0.02820,-0.02146,0.01742,-0.07229,0.08705,0.94800,1.83043,0.00000,0.00000,0.00000,0.00000,0.00000,1.80172,1.14912,-3.03933,A,104336.20
1.84485,0.00000000,0.00000000,57.68781,11.98138,10:43:36.361970,0.00318,0.00000,0.04687,0.01163,-0.02514,-0.00848,0.01513,-0.05630,0.06942,0.93031,1.84072,0.00000,0.00000,0.00000,0.00000,0.00000,1.80172,1.14912,-3.03933,A,104336.20
1.85518,0.00000000,0.00000000,57.68781,11.98138,10:43:36.372286,0.00311,0.00000,0.04667,0.01217,-0.02331,-0.00527,0.01544,-0.03001,0.06588,0.93415,1.85129,0.00000,0.00000,0.00000,0.00000,0.00000,1.80172,1.14912,-3.03933,A,104336.20
1.86558,0.00000000,0.00000000,57.68781,11.98138,10:43:36.382705,0.00312,0.00000,0.04629,0.01251,-0.02606,0.00099,0.00796,-0.01342,0.05832,0.97435,1.86149,0.00000,0.00000,0.00000,0.00000,0.00000,1.80172,1.14912,-3.03933,A,104336.20
1.87599,0.00000000,0.00000000,57.68781,11.98138,10:43:36.393103,0.00314,0.00000,0.04575,0.01268,-0.02453,0.00648,0.01055,-0.01787,0.04849,1.00180,1.87211,0.00000,0.00000,0.00000,0.00000,0.00000,1.80172,1.14912,-3.03933,A,104336.20
1.88639,0.00000000,0.00000000,57.68781,11.98138,10:43:36.403498,0.00313,0.00000,0.04518,0.01274,-0.02255,0.00175,0.00933,0.00238,0.04508,1.00900,1.88248,0.00000,0.00000,0.00000,0.00000,0.00000,1.80172,1.14912,-3.03933,A,104336.20
1.89661,0.00000000,0.00000000,57.68781,11.98138,10:43:36.413720,0.00295,0.00000,0.04465,0.01276,-0.02698,-0.00604,0.01391,0.00366,0.04959,1.00985,1.89273,0.00000,0.00000,0.00000,0.00000,0.00000,1.80172,1.14912,-3.03933,A,104336.20
1.91923,0.00000000,0.00000000,57.68781,11.98138,10:43:36.436345,0.01517,0.00000,0.04404,0.01285,-0.03202,-0.01673,0.01697,0.01275,0.04679,0.99747,1.90330,0.00000,0.00000,0.00000,0.00000,0.00000,1.91785,1.07978,-3.03933,A,104336.30
1.93098,0.00000000,0.00000000,57.68781,11.98138,10:43:36.448096,0.00333,0.00000,0.04374,0.01293,-0.03461,-0.03292,0.02139,-0.01873,0.09626,0.96447,1.92707,0.00000,0.00000,0.00000,0.00000,0.00000,1.91785,1.07978,-3.03933,A,104336.30
1.94084,0.00000000,0.00000000,57.68781,11.98138,10:43:36.457954,0.00296,0.00000,0.04392,0.01293,-0.02713,-0.02482,0.01819,-0.04917,0.09083,0.96124,1.93696,0.00000,0.00000,0.00000,0.00000,0.00000,1.91785,1.07978,-3.03933,A,104336.30
1.95141,0.00000000,0.00000000,57.68781,11.98138,10:43:36.468524,0.00313,0.00000,0.04371,0.01293,-0.02667,-0.01703,0.01513,-0.05337,0.06704,0.96770,1.94753,0.00000,0.00000,0.00000,0.00000,0.00000,1.91785,1.07978,-3.03933,A,104336.30
1.96183,0.00000000,0.00000000,57.68781,11.98138,10:43:36.478934,0.00315,0.00000,0.04290,0.01293,-0.02346,-0.01245,0.01101,-0.01861,0.02599,0.96850,1.95771,0.00000,0.00000,0.00000,0.00000,0.00000,1.91785,1.07978,-3.03933,A,104336.30
1.97234,0.00000000,0.00000000,57.68781,11.98138,10:43:36.489445,0.00326,0.00000,0.04231,0.01293,-0.02316,-0.01642,0.00811,0.01318,0.04050,0.99393,1.96845,0.00000,0.00000,0.00000,0.00000,0.00000,1.91785,1.07978,-3.03933,A,104336.30
1.98247,0.00000000,0.00000000,57.68781,11.98138,10:43:36.499577,0.00300,0.00000,0.04172,0.01293,-0.02682,-0.02452,0.00750,0.01885,0.04246,1.01467,1.97858,0.00000,0.00000,0.00000,0.00000,0.00000,1.91785,1.07978,-3.03933,A,104336.30
1.99265,0.00000000,0.00000000,57.68781,11.98138,10:43:36.509758,0.00295,0.00000,0.04155,0.01293,-0.02362,-0.02803,0.01040,-0.02495,0.07003,1.03627,1.98877,0.00000,0.00000,0.00000,0.00000,0.00000,1.91785,1.07978,-3.03933,A,104336.30
2.00321,0.00000000,0.00000000,57.68781,11.98138,10:43:36.520321,0.00312,0.00000,0.04169,0.01293,-0.02056,-0.02177,0.01773,-0.05203,0.09004,1.04877,1.99932,0.00000,0.00000,0.00000,0.00000,0.00000,1.91785,1.07978,-3.03933,A,104336.30
2.02087,57.68778690,11.98138227,57.68781,11.98138,10:43:36.538996,0.01038,0.00000,0.04159,0.01293,-0.01171,-0.00283,0.02460,-0.09851,0.06777,1.04969,2.00952,0.00000,-1.23328,-1.22944,1.07978,-3.03933,1.91785,1.07978,-3.03933,A,104336.30
2.05972,57.68778690,11.98138227,57.68781,11.98138,10:43:36.576862,0.02752,0.00000,0.04165,0.02386,-0.00453,0.00725,0.02201,0.02775,0.07064,0.95611,2.03358,0.00000,-1.23328,-1.22944,1.07978,-3.03933,2.05819,1.01043,-2.94667,A,104336.50
2.07488,57.68777083,11.98139270,57.68781,11.98138,10:43:36.592025,0.00775,0.00000,0.04104,0.02386,-0.00941,-0.01383,0.00429,-0.01391,0.03928,0.92568,2.06649,0.00000,-0.88901,-0.88193,1.05204,-3.00226,2.05819,1.01043,-2.94667,A,104336.50
2.08101,57.68777083,11.98139270,57.68781,11.98138,10:43:36.598348,0.00333,0.00000,0.04124,0.02386,-0.00911,-0.01703,0.00398,-0.01934,0.07997,0.98411,2.07674,0.00000,-0.88901,-0.88193,1.05204,-3.00226,2.05819,1.01043,-2.94667,A,104336.50
2.09155,57.68777083,11.98139270,57.68781,11.98138,10:43:36.608686,0.00348,0.00000,0.04153,0.02386,-0.00224,-0.01031,0.00536,-0.03995,0.08888,1.06024,2.08730,0.00000,-0.88901,-0.88193,1.05204,-3.00226,2.05819,1.01043,-2.94667,A,104336.50
2.10196,57.68777083,11.98139270,57.68781,11.98138,10:43:36.619095,0.00349,0.00000,0.04139,0.02386,0.00418,0.00129,0.00643,-0.03666,0.05563,1.10922,2.09749,0.00000,-0.88901,-0.88193,1.05204,-3.00226,2.05819,1.01043,-2.94667,A,104336.50
2.11243,57.68777083,11.98139270,57.68781,11.98138,10:43:36.629572,0.00351,0.00000,0.04069,0.02386,0.00433,0.00847,0.00948,-0.06246,0.01458,1.13881,2.10817,0.00000,-0.88901,-0.88193,1.05204,-3.00226,2.05819,1.01043,-2.94667,A,104336.50
2.12282,57.68777083,11.98139270,57.68781,11.98138,10:43:36.639964,0.00350,0.00000,0.04000,0.02386,0.00555,0.01611,0.00948,-0.00146,0.01299,1.07860,2.11856,0.00000,-0.88901,-0.88193,1.05204,-3.00226,2.05819,1.01043,-2.94667,A,104336.50
2.13300,57.68777083,11.98139270,57.68781,11.98138,10:43:36.650346,0.00332,0.00000,0.03969,0.02386,0.00479,0.00771,0.01437,0.07155,0.03526,0.94983,2.12874,0.00000,-0.88901,-0.88193,1.05204,-3.00226,2.05819,1.01043,-2.94667,A,104336.50
2.14357,57.68777083,11.98139270,57.68781,11.98138,10:43:36.660704,0.00350,0.00000,0.03943,0.02386,0.00555,-0.02161,0.01910,0.10004,0.03221,0.81624,2.13932,0.00000,-0.88901,-0.88193,1.05204,-3.00226,2.05819,1.01043,-2.94667,A,104336.50
2.15398,57.68777083,11.98139270,57.68781,11.98138,10:43:36.671123,0.00350,0.00000,0.04039,0.02386,0.00845,-0.04300,0.02323,-0.06063,0.10083,0.84448,2.14951,0.00000,-0.88901,-0.88193,1.05204,-3.00226,2.05819,1.01043,-2.94667,A,104336.50
2.17663,57.68777083,11.98139270,57.68781,11.98138,10:43:36.693771,0.01574,0.00000,0.04145,0.02386,0.01487,-0.02513,0.01941,-0.19447,0.12169,0.99338,2.16013,0.00000,-0.88901,-0.88193,1.05204,-3.00226,2.17510,1.04015,-2.87254,A,104336.60
2.19251,57.68777130,11.98139262,57.68781,11.98138,10:43:36.709654,0.00734,0.00000,0.04153,0.02386,0.02479,0.02970,0.00505,0.08107,0.02775,1.00351,2.18458,0.00000,-0.68186,-0.67478,1.04728,-2.95037,2.17510,1.04015,-2.87254,A,104336.60
2.19910,57.68777130,11.98139262,57.68781,11.98138,10:43:36.716235,0.00352,0.00000,0.04119,0.02386,0.01242,0.00206,0.00230,0.14866,0.03038,0.96002,2.19483,0.00000,-0.68186,-0.67478,1.04728,-2.95037,2.17510,1.04015,-2.87254,A,104336.60
2.20912,57.68777130,11.98139262,57.68781,11.98138,10:43:36.726492,0.00331,0.00000,0.04137,0.02386,0.01334,-0.03200,-0.00105,0.07765,0.06301,0.95648,2.20486,0.00000,-0.68186,-0.67478,1.04728,-2.95037,2.17510,1.04015,-2.87254,A,104336.60
2.21988,57.68777130,11.98139262,57.68781,11.98138,10:43:36.737016,0.00368,0.00000,0.04205,0.02386,0.00800,-0.05201,-0.00411,-0.06887,0.10705,1.04957,2.21562,0.00000,-0.68186,-0.67478,1.04728,-2.95037,2.17510,1.04015,-2.87254,A,104336.60
2.23026,57.68777130,11.98139262,57.68781,11.98138,10:43:36.747395,0.00365,0.00000,0.04209,0.02386,0.00922,-0.03765,0.00124,-0.16446,0.06887,1.14467,2.22563,0.00000,-0.68186,-0.67478,1.04728,-2.95037,2.17510,1.04015,-2.87254,A,104336.60
2.24055,57.68777130,11.98139262,57.68781,11.98138,10:43:36.757687,0.00349,0.00000,0.04213,0.02386,0.01639,0.00374,-0.00090,-0.02166,0.05917,1.09086,2.23630,0.00000,-0.68186,-0.67478,1.04728,-2.95037,2.17510,1.04015,-2.87254,A,104336.60
2.25084,57.68777130,11.98139262,57.68781,11.98138,10:43:36.767979,0.00337,0.00000,0.04196,0.02386,0.01334,0.02451,0.00292,0.12493,0.04093,0.95136,2.24657,0.00000,-0.68186,-0.67478,1.04728,-2.95037,2.17510,1.04015,-2.87254,A,104336.60
2.26104,57.68777130,11.98139262,57.68781,11.98138,10:43:36.778384,0.00334,0.00000,0.04226,0.02386,0.01288,0.00526,0.00841,0.10358,0.06338,0.85510,2.25677,0.00000,-0.68186,-0.67478,1.04728,-2.95037,2.17510,1.04015,-2.87254,A,104336.60
2.27158,57.68777130,11.98139262,57.68781,11.98138,10:43:36.788717,0.00348,0.00000,0.04260,0.02386,0.01655,-0.02284,0.00826,-0.03166,0.05990,0.80075,2.26732,0.00000,-0.68186,-0.67478,1.04728,-2.95037,2.17510,1.04015,-2.87254,A,104336.60
2.29374,57.68777130,11.98139262,57.68781,11.98138,10:43:36.810880,0.01524,0.00000,0.04193,0.02383,0.01762,-0.03551,0.00841,-0.10224,0.00610,0.86175,2.27753,0.00000,-0.68186,-0.67478,1.04728,-2.95037,2.29214,1.04015,-2.77987,A,104336.70
2.30793,57.68777191,11.98139257,57.68781,11.98138,10:43:36.825095,0.00712,0.00000,0.04285,0.02301,0.00922,-0.00589,0.00093,-0.03416,0.12383,1.11850,2.30058,0.00000,-0.45731,-0.45048,1.04443,-2.88217,2.29214,1.04015,-2.77987,A,104336.70
2.31480,57.68777191,11.98139257,57.68781,11.98138,10:43:36.831943,0.00359,0.00000,0.04355,0.02205,0.01823,0.01779,-0.00151,0.05649,0.11669,1.17431,2.31043,0.00000,-0.45731,-0.45048,1.04443,-2.88217,2.29214,1.04015,-2.77987,A,104336.70
2.32497,57.68777191,11.98139257,57.68781,11.98138,10:43:36.842339,0.00330,0.00000,0.04367,0.02060,0.02892,0.02160,-0.00441,0.12212,0.05905,1.11746,2.32072,0.00000,-0.45731,-0.45048,1.04443,-2.88217,2.29214,1.04015,-2.77987,A,104336.70
2.33556,57.68777191,11.98139257,57.68781,11.98138,10:43:36.852695,0.00349,0.00000,0.04360,0.01891,0.02602,0.00786,-0.00793,0.09034,0.04209,0.99814,2.33131,0.00000,-0.45731,-0.45048,1.04443,-2.88217,2.29214,1.04015,-2.77987,A,104336.70
2.34620,57.68777191,11.98139257,57.68781,11.98138,10:43:36.863358,0.00374,0.00000,0.04331,0.01718,0.02739,-0.01322,-0.00686,0.02056,0.02562,0.95142,2.34149,0.00000,-0.45731,-0.45048,1.04443,-2.88217,2.29214,1.04015,-2.77987,A,104336.70
2.35636,57.68777191,11.98139257,57.68781,11.98138,10:43:36.873497,0.00349,0.00000,0.04324,0.01542,0.02556,-0.02482,-0.00808,-0.02477,0.03989,0.94703,2.35211,0.00000,-0.45731,-0.45048,1.04443,-2.88217,2.29214,1.04015,-2.77987,A,104336.70
2.36677,57.68777191,11.98139257,57.68781,11.98138,10:43:36.883905,0.00350,0.00000,0.04359,0.01378,0.02250,-0.02070,-0.01098,-0.01537,0.06655,0.92208,2.36250,0.00000,-0.45731,-0.45048,1.04443,-2.88217,2.29214,1.04015,-2.77987,A,104336.70
2.37697,57.68777191,11.98139257,57.68781,11.98138,10:43:36.894315,0.00330,0.00000,0.04352,0.01223,0.02693,-0.01566,-0.00869,0.07466,0.03782,0.89853,2.37273,0.00000,-0.45731,-0.45048,1.04443,-2.88217,2.29214,1.04015,-2.77987,A,104336.70
2.38755,57.68777191,11.98139257,57.68781,11.98138,10:43:36.904697,0.00348,0.00000,0.04402,0.01070,0.02678,-0.01551,-0.00365,0.08510,0.07338,0.92000,2.38330,0.00000,-0.45731,-0.45048,1.04443,-2.88217,2.29214,1.04015,-2.77987,A,104336.70
2.41051,57.68777191,11.98139257,57.68781,11.98138,10:43:36.927649,0.01604,0.00000,0.04450,0.00928,0.03365,-0.01367,-0.00380,-0.01098,0.07381,0.99601,2.39350,0.00000,-0.45731,-0.45048,1.04443,-2.88217,2.40891,1.01043,-2.68721,A,104336.80
2.42747,57.68777261,11.98139234,57.68781,11.98138,10:43:36.944619,0.00732,0.00000,0.04500,0.00563,0.04419,0.00878,-0.01740,0.02916,0.02257,1.05146,2.42025,0.00000,-0.22414,-0.22247,1.03083,-2.80419,2.40891,1.01043,-2.68721,A,104336.80
2.43406,57.68777261,11.98139234,57.68781,11.98138,10:43:36.951204,0.00367,0.00000,0.04462,0.00433,0.04083,-0.00451,-0.01908,0.20514,0.01562,0.97795,2.42956,0.00000,-0.22414,-0.22247,1.03083,-2.80419,2.40891,1.01043,-2.68721,A,104336.80
2.44432,57.68777261,11.98139234,57.68781,11.98138,10:43:36.961455,0.00353,0.00000,0.04476,0.00314,0.03961,-0.04452,-0.01113,0.13633,0.04532,0.94617,2.44006,0.00000,-0.22414,-0.22247,1.03083,-2.80419,2.40891,1.01043,-2.68721,A,104336.80
2.45476,57.68777261,11.98139234,57.68781,11.98138,10:43:36.971903,0.00356,0.00000,0.04554,0.00215,0.04098,-0.05048,-0.01251,-0.02593,0.08930,0.99296,2.45049,0.00000,-0.22414,-0.22247,1.03083,-2.80419,2.40891,1.01043,-2.68721,A,104336.80
2.46505,57.68777261,11.98139234,57.68781,11.98138,10:43:36.982617,0.00333,0.00000,0.04675,0.00133,0.04892,-0.03108,-0.00839,-0.10992,0.11541,1.00839,2.46079,0.00000,-0.22414,-0.22247,1.03083,-2.80419,2.40891,1.01043,-2.68721,A,104336.80
2.47569,57.68777261,11.98139234,57.68781,11.98138,10:43:36.992827,0.00357,0.00000,0.04767,0.00065,0.06664,-0.00436,-0.00793,-0.06149,0.08198,0.99168,2.47143,0.00000,-0.22414,-0.22247,1.03083,-2.80419,2.40891,1.01043,-2.68721,A,104336.80
2.48607,57.68777261,11.98139234,57.68781,11.98138,10:43:37.003214,0.00356,0.00000,0.04765,0.00011,0.06175,0.00251,-0.01175,0.08857,0.02623,0.98192,2.48154,0.00000,-0.22414,-0.22247,1.03083,-2.80419,2.40891,1.01043,-2.68721,A,104336.80
2.49639,57.68777261,11.98139234,57.68781,11.98138,10:43:37.013534,0.00348,0.00000,0.04696,-0.00040,0.05656,-0.01337,-0.01388,0.11004,-0.01586,0.94757,2.49215,0.00000,-0.22414,-0.22247,1.03083,-2.80419,2.40891,1.01043,-2.68721,A,104336.80
2.50680,57.68777261,11.98139234,57.68781,11.98138,10:43:37.023941,0.00349,0.00000,0.04711,-0.00077,0.04129,-0.03368,-0.01175,0.05258,0.04862,0.97801,2.50254,0.00000,-0.22414,-0.22247,1.03083,-2.80419,2.40891,1.01043,-2.68721,A,104336.80
2.54063,57.68777261,11.98139234,57.68781,11.98138,10:43:37.057770,0.02696,0.00000,0.04793,-0.00102,0.04144,-0.03154,-0.01587,-0.03013,0.09650,1.00894,2.51275,0.00000,-0.22414,-0.22247,1.03083,-2.80419,2.53912,0.90146,-2.44629,A,104337.00
2.55901,57.68777390,11.98139147,57.68781,11.98138,10:43:37.076197,0.00749,0.00000,0.04932,-0.00108,0.04831,-0.03673,-0.01541,0.09839,0.03599,0.94074,2.55146,0.00000,-0.00234,-0.00266,0.97908,-2.66103,2.53912,0.90146,-2.44629,A,104337.00
2.56512,57.68777390,11.98139147,57.68781,11.98138,10:43:37.082491,0.00336,0.00000,0.04991,-0.00108,0.03839,-0.04513,-0.01190,0.02885,0.07887,0.91415,2.56085,0.00000,-0.00234,-0.00266,0.97908,-2.66103,2.53912,0.90146,-2.44629,A,104337.00
2.57580,57.68777390,11.98139147,57.68781,11.98138,10:43:37.092938,0.00364,0.00000,0.05099,-0.00108,0.04037,-0.03750,-0.00747,-0.01189,0.10376,0.90042,2.57154,0.00000,-0.00234,-0.00266,0.97908,-2.66103,2.53912,0.90146,-2.44629,A,104337.00
2.58608,57.68777390,11.98139147,57.68781,11.98138,10:43:37.103211,0.00352,0.00000,0.05163,-0.00108,0.04724,-0.03994,-0.01281,-0.04532,0.07729,0.92317,2.58159,0.00000,-0.00234,-0.00266,0.97908,-2.66103,2.53912,0.90146,-2.44629,A,104337.00
2.59659,57.68777390,11.98139147,57.68781,11.98138,10:43:37.113733,0.00364,0.00000,0.05198,-0.00108,0.04449,-0.03108,-0.00594,-0.09016,0.06740,1.04035,2.59233,0.00000,-0.00234,-0.00266,0.97908,-2.66103,2.53912,0.90146,-2.44629,A,104337.00
2.60691,57.68777390,11.98139147,57.68781,11.98138,10:43:37.124056,0.00356,0.00000,0.05239,-0.00108,0.04190,-0.00054,-0.01098,-0.09992,0.08168,1.13167,2.60265,0.00000,-0.00234,-0.00266,0.97908,-2.66103,2.53912,0.90146,-2.44629,A,104337.00
2.61697,57.68777390,11.98139147,57.68781,11.98138,10:43:37.134475,0.00329,0.00000,0.05285,-0.00108,0.04679,0.02939,-0.00839,0.06765,0.07893,1.08031,2.61272,0.00000,-0.00234,-0.00266,0.97908,-2.66103,2.53912,0.90146,-2.44629,A,104337.00
2.62773,57.68777390,11.98139147,57.68781,11.98138,10:43:37.144861,0.00365,0.00000,0.05325,-0.00108,0.04266,0.01046,-0.00335,0.16836,0.07070,0.99985,2.62346,0.00000,-0.00234,-0.00266,0.97908,-2.66103,2.53912,0.90146,-2.44629,A,104337.00
2.63798,57.68777390,11.98139147,57.68781,11.98138,10:43:37.155117,0.00350,0.00000,0.05373,-0.00108,0.03915,-0.01795,0.00032,0.02812,0.08003,0.98655,2.63350,0.00000,-0.00234,-0.00266,0.97908,-2.66103,2.53912,0.90146,-2.44629,A,104337.00
2.66150,57.68777390,11.98139147,57.68781,11.98138,10:43:37.178654,0.01663,0.00000,0.05475,-0.00108,0.04816,-0.03017,-0.00197,-0.10870,0.11352,1.04456,2.64436,0.00000,-0.00234,-0.00266,0.97908,-2.66103,2.65979,0.87175,-2.33509,A,104337.10
2.67856,57.68777507,11.98139075,57.68781,11.98138,10:43:37.195708,0.00858,0.00000,0.05531,-0.00108,0.02953,-0.01658,-0.00411,0.11633,0.05215,0.83936,2.67061,0.00000,0.18112,0.18080,0.93615,-2.53065,2.65979,0.87175,-2.33509,A,104337.10
2.68401,57.68777507,11.98139075,57.68781,11.98138,10:43:37.201145,0.00361,0.00000,0.05588,-0.00108,0.02189,-0.02879,-0.00335,0.09217,0.08564,0.84180,2.67975,0.00000,0.18112,0.18080,0.93615,-2.53065,2.65979,0.87175,-2.33509,A,104337.10
2.69431,57.68777507,11.98139075,57.68781,11.98138,10:43:37.211447,0.00351,0.00000,0.05718,-0.00108,0.01777,-0.03964,-0.00335,-0.07308,0.14542,0.95093,2.69003,0.00000,0.18112,0.18080,0.93615,-2.53065,2.65979,0.87175,-2.33509,A,104337.10
2.70471,57.68777507,11.98139075,57.68781,11.98138,10:43:37.221841,0.00351,0.00000,0.05854,-0.00108,0.01884,-0.01581,-0.01007,-0.16470,0.16378,1.04340,2.70044,0.00000,0.18112,0.18080,0.93615,-2.53065,2.65979,0.87175,-2.33509,A,104337.10
2.71512,57.68777507,11.98139075,57.68781,11.98138,10:43:37.232255,0.00352,0.00000,0.05888,-0.00108,0.02724,0.01672,-0.01449,-0.04721,0.08320,0.99027,2.71086,0.00000,0.18112,0.18080,0.93615,-2.53065,2.65979,0.87175,-2.33509,A,104337.10
2.72516,57.68777507,11.98139075,57.68781,11.98138,10:43:37.242600,0.00333,0.00000,0.05852,-0.00108,0.01869,0.01336,-0.01602,0.16604,0.03965,0.91061,2.72090,0.00000,0.18112,0.18080,0.93615,-2.53065,2.65979,0.87175,-2.33509,A,104337.10
2.73572,57.68777507,11.98139075,57.68781,11.98138,10:43:37.252860,0.00349,0.00000,0.05813,-0.00108,0.01212,-0.03765,-0.01159,0.17989,0.04081,0.89951,2.73148,0.00000,0.18112,0.18080,0.93615,-2.53065,2.65979,0.87175,-2.33509,A,104337.10
2.74613,57.68777507,11.98139075,57.68781,11.98138,10:43:37.263268,0.00350,0.00000,0.05809,-0.00108,0.00555,-0.06102,-0.00716,-0.00641,0.07241,0.99747,2.74165,0.00000,0.18112,0.18080,0.93615,-2.53065,2.65979,0.87175,-2.33509,A,104337.10
2.75653,57.68777507,11.98139075,57.68781,11.98138,10:43:37.273669,0.00351,0.00000,0.05851,-0.00108,0.00479,-0.04345,-0.00182,-0.15238,0.11248,1.07921,2.75228,0.00000,0.18112,0.18080,0.93615,-2.53065,2.65979,0.87175,-2.33509,A,104337.10
2.77953,57.68777507,11.98139075,57.68781,11.98137,10:43:37.296670,0.01610,0.00000,0.05869,-0.00108,0.01578,-0.01856,-0.00136,-0.13798,0.08918,1.10148,2.76257,0.00000,0.18112,0.18080,0.93615,-2.53065,2.77804,0.77268,-2.29803,A,104337.20
2.79647,57.68777591,11.98138965,57.68781,11.98137,10:43:37.313649,0.00781,0.00000,0.05930,-0.00108,0.00800,-0.01993,0.00398,0.12102,0.10333,0.96862,2.78920,0.00000,0.44140,0.44108,0.87076,-2.43760,2.77804,0.77268,-2.29803,A,104337.20
2.80258,57.68777591,11.98138965,57.68781,11.98137,10:43:37.319714,0.00350,0.00000,0.05965,-0.00108,0.00494,-0.03185,0.00108,0.04008,0.09302,0.91976,2.79830,0.00000,0.44140,0.44108,0.87076,-2.43760,2.77804,0.77268,-2.29803,A,104337.20
2.81292,57.68777591,11.98138965,57.68781,11.98137,10:43:37.330282,0.00332,0.00000,0.06007,-0.00108,0.00723,-0.04605,0.00200,-0.09363,0.10175,0.97502,2.80867,0.00000,0.44140,0.44108,0.87076,-2.43760,2.77804,0.77268,-2.29803,A,104337.20
2.82351,57.68777591,11.98138965,57.68781,11.98137,10:43:37.340642,0.00351,0.00000,0.06008,-0.00096,0.00387,-0.01490,-0.00686,-0.11322,0.08040,1.01705,2.81925,0.00000,0.44140,0.44108,0.87076,-2.43760,2.77804,0.77268,-2.29803,A,104337.20
2.83392,57.68777591,11.98138965,57.68781,11.98137,10:43:37.351066,0.00352,0.00000,0.05975,-0.00071,0.00296,-0.00421,-0.00640,-0.03983,0.05594,0.96892,2.82944,0.00000,0.44140,0.44108,0.87076,-2.43760,2.77804,0.77268,-2.29803,A,104337.20
2.84432,57.68777591,11.98138965,57.68781,11.98137,10:43:37.361454,0.00351,0.00000,0.05961,-0.00034,-0.00941,-0.00359,-0.01052,0.18892,0.06997,0.90207,2.84006,0.00000,0.44140,0.44108,0.87076,-2.43760,2.77804,0.77268,-2.29803,A,104337.20
2.85472,57.68777591,11.98138965,57.68781,11.98137,10:43:37.371853,0.00351,0.00000,0.05960,0.00014,-0.01476,-0.04147,-0.00701,0.10419,0.08662,0.95502,2.85045,0.00000,0.44140,0.44108,0.87076,-2.43760,2.77804,0.77268,-2.29803,A,104337.20
2.86500,57.68777591,11.98138965,57.68781,11.98137,10:43:37.382353,0.00332,0.00000,0.05991,0.00059,-0.01109,-0.04406,-0.00243,-0.10291,0.11376,1.04347,2.86074,0.00000,0.44140,0.44108,0.87076,-2.43760,2.77804,0.77268,-2.29803,A,104337.20
2.87557,57.68777591,11.98138965,57.68781,11.98137,10:43:37.392708,0.00350,0.00000,0.05956,0.00096,-0.00453,-0.02223,-0.00273,-0.13871,0.06576,1.07787,2.87132,0.00000,0.44140,0.44108,0.87076,-2.43760,2.77804,0.77268,-2.29803,A,104337.20
2.89855,57.68777591,11.98138965,57.68781,11.98137,10:43:37.415689,0.01608,0.00000,0.05944,0.00113,-0.01445,0.00572,0.00017,-0.04752,0.08546,1.03602,2.88151,0.00000,0.44140,0.44108,0.87076,-2.43760,2.89692,0.68353,-2.27950,A,104337.30
2.91416,57.68777648,11.98138839,57.68781,11.98137,10:43:37.431312,0.00661,0.00000,0.05972,0.00116,-0.01934,-0.02879,-0.00060,0.02623,0.13133,0.98991,2.90763,0.00000,0.69095,0.69130,0.79587,-2.37436,2.89692,0.68353,-2.27950,A,104337.30
2.92151,57.68777648,11.98138839,57.68781,11.98137,10:43:37.438657,0.00372,0.00000,0.05967,0.00116,-0.01629,-0.02482,0.00246,-0.08997,0.08943,1.01626,2.91704,0.00000,0.69095,0.69130,0.79587,-2.37436,2.89692,0.68353,-2.27950,A,104337.30
2.93167,57.68777648,11.98138839,57.68781,11.98137,10:43:37.448798,0.00348,0.00000,0.05965,0.00116,-0.01751,0.00190,-0.00090,-0.14762,0.09736,1.06402,2.92742,0.00000,0.69095,0.69130,0.79587,-2.37436,2.89692,0.68353,-2.27950,A,104337.30
2.94220,57.68777648,11.98138839,57.68781,11.98137,10:43:37.459346,0.00362,0.00000,0.05883,0.00116,-0.01965,0.02725,-0.00228,-0.01171,0.04020,1.02230,2.93763,0.00000,0.69095,0.69130,0.79587,-2.37436,2.89692,0.68353,-2.27950,A,104337.30
2.95264,57.68777648,11.98138839,57.68781,11.98137,10:43:37.469780,0.00365,0.00000,0.05837,0.00116,-0.02973,0.01885,-0.00258,0.16799,0.06533,0.92927,2.94838,0.00000,0.69095,0.69130,0.79587,-2.37436,2.89692,0.68353,-2.27950,A,104337.30
2.96284,57.68777648,11.98138839,57.68781,11.98137,10:43:37.479982,0.00345,0.00000,0.05838,0.00116,-0.03186,-0.02467,-0.00212,0.16537,0.08784,0.86596,2.95857,0.00000,0.69095,0.69130,0.79587,-2.37436,2.89692,0.68353,-2.27950,A,104337.30
2.97367,57.68777648,11.98138839,57.68781,11.98137,10:43:37.490811,0.00398,0.00000,0.05862,0.00116,-0.03125,-0.04788,0.00215,-0.00116,0.10834,0.91787,2.96917,0.00000,0.69095,0.69130,0.79587,-2.37436,2.89692,0.68353,-2.27950,A,104337.30
2.98358,57.68777648,11.98138839,57.68781,11.98137,10:43:37.500709,0.00350,0.97611,0.05843,0.00116,-0.02866,-0.04116,-0.00426,-0.11352,0.08601,0.99515,2.97932,0.00000,0.69095,0.69130,0.79587,-2.37436,2.89692,0.68353,-2.27950,A,104337.30
2.99398,57.68777648,11.98138839,57.68781,11.98137,10:43:37.511121,0.00350,0.97611,0.05762,0.00116,-0.03507,-0.02223,-0.00258,-0.08272,0.04868,0.99162,2.98953,0.00000,0.69095,0.69130,0.79587,-2.37436,2.89692,0.68353,-2.27950,A,104337.30
3.01740,57.68777648,11.98138839,57.68781,11.98137,10:43:37.534570,0.01632,0.97611,0.05722,0.00116,-0.04042,-0.00940,-0.00900,0.03867,0.07942,0.98625,3.00013,0.00000,0.69095,0.69130,0.79587,-2.37436,3.01570,0.60428,-2.24243,A,104337.40
3.03494,57.68777695,11.98138710,57.68781,11.98137,10:43:37.552090,0.00833,0.97611,0.05641,0.00116,-0.02820,-0.01169,-0.00823,-0.02147,0.08143,1.08342,3.02772,0.09761,0.89224,0.89258,0.71923,-2.32159,3.01570,0.60428,-2.24243,A,104337.40
3.04042,57.68777695,11.98138710,57.68781,11.98137,10:43:37.557556,0.00348,0.97611,0.05571,0.00116,-0.02774,-0.00787,-0.00640,-0.05649,0.05130,1.09843,3.03618,0.09761,0.89224,0.89258,0.71923,-2.32159,3.01570,0.60428,-2.24243,A,104337.40
3.05118,57.68777695,11.98138710,57.68781,11.98137,10:43:37.568315,0.00384,0.97611,0.05418,0.00116,-0.03415,-0.00054,-0.00900,-0.05710,-0.00128,1.05085,3.04691,0.09761,0.89224,0.89258,0.71923,-2.32159,3.01570,0.60428,-2.24243,A,104337.40
3.06099,57.68777695,11.98138710,57.68781,11.98137,10:43:37.578406,0.00331,0.97611,0.05309,0.00116,-0.04087,-0.00207,-0.01236,0.00738,0.02745,0.95276,3.05673,0.09761,0.89224,0.89258,0.71923,-2.32159,3.01570,0.60428,-2.24243,A,104337.40
3.07156,57.68777695,11.98138710,57.68781,11.98137,10:43:37.588689,0.00348,0.97611,0.05295,0.00116,-0.04561,-0.00741,-0.00594,0.06210,0.09144,0.94532,3.06730,0.09761,0.89224,0.89258,0.71923,-2.32159,3.01570,0.60428,-2.24243,A,104337.40
3.08199,57.68777695,11.98138710,57.68781,11.98137,10:43:37.599125,0.00352,0.97611,0.05324,0.00116,-0.03507,-0.01474,-0.00457,0.06008,0.10998,0.93300,3.07750,0.09761,0.89224,0.89258,0.71923,-2.32159,3.01570,0.60428,-2.24243,A,104337.40
3.09238,57.68777695,11.98138710,57.68781,11.98137,10:43:37.609512,0.00351,0.97611,0.05322,0.00116,-0.03324,-0.02238,0.00078,-0.03379,0.09095,0.94611,3.08810,0.09761,0.89224,0.89258,0.71923,-2.32159,3.01570,0.60428,-2.24243,A,104337.40
3.10277,57.68777695,11.98138710,57.68781,11.98137,10:43:37.619908,0.00349,0.97611,0.05290,0.00116,-0.02881,-0.01154,0.00154,-0.06283,0.07149,0.98484,3.09850,0.09761,0.89224,0.89258,0.71923,-2.32159,3.01570,0.60428,-2.24243,A,104337.40
3.11299,57.68777695,11.98138710,57.68781,11.98137,10:43:37.630345,0.00332,0.97611,0.05309,0.00116,-0.03202,-0.00253,-0.00212,-0.00854,0.10931,1.00131,3.10873,0.09761,0.89224,0.89258,0.71923,-2.32159,3.01570,0.60428,-2.24243,A,104337.40
3.14704,57.68777695,11.98138710,57.68782,11.98137,10:43:37.664185,0.02697,0.97611,0.05307,0.00119,-0.03278,-0.00253,0.00108,0.05429,0.09553,0.99741,3.11937,0.09761,0.89224,0.89258,0.71923,-2.32159,3.14554,0.52503,-2.05711,A,104337.60
3.16401,57.68777796,11.98138587,57.68782,11.98137,10:43:37.681476,0.00768,0.97611,0.05129,0.00173,-0.03247,0.00481,0.00307,-0.03044,0.03611,0.97533,3.15744,0.18546,1.00048,1.00099,0.64622,-2.21000,3.14554,0.52503,-2.05711,A,104337.60
3.17024,57.68777796,11.98138587,57.68782,11.98137,10:43:37.687370,0.00352,0.97611,0.05094,0.00212,-0.02835,0.00557,-0.00273,-0.03227,0.06198,0.96349,3.16576,0.18546,1.00048,1.00099,0.64622,-2.21000,3.14554,0.52503,-2.05711,A,104337.60
3.18061,57.68777796,11.98138587,57.68782,11.98137,10:43:37.697738,0.00349,0.97611,0.05145,0.00277,-0.03293,0.00710,0.00047,0.07729,0.11688,0.89755,3.17636,0.18546,1.00048,1.00099,0.64622,-2.21000,3.14554,0.52503,-2.05711,A,104337.60
3.19111,57.68777796,11.98138587,57.68782,11.98137,10:43:37.708254,0.00360,0.97611,0.05137,0.00359,-0.02682,-0.01291,0.00185,0.04203,0.07832,0.90676,3.18684,0.18546,1.00048,1.00099,0.64622,-2.21000,3.14554,0.52503,-2.05711,A,104337.60
3.20109,57.68777796,11.98138587,57.68782,11.98137,10:43:37.718522,0.00334,0.97611,0.05158,0.00458,-0.01827,-0.01001,0.00521,-0.02544,0.09681,0.97923,3.19684,0.18546,1.00048,1.00099,0.64622,-2.21000,3.14554,0.52503,-2.05711,A,104337.60
3.21165,57.68777796,11.98138587,57.68782,11.98137,10:43:37.728782,0.00350,0.97611,0.05127,0.00574,-0.01751,-0.00222,0.00658,-0.01354,0.06557,1.01992,3.20738,0.18546,1.00048,1.00099,0.64622,-2.21000,3.14554,0.52503,-2.05711,A,104337.60
3.22201,57.68777796,11.98138587,57.68782,11.98137,10:43:37.739148,0.00352,0.97611,0.05080,0.00685,-0.01629,-0.00115,0.00796,0.02629,0.05350,1.01486,3.21753,0.18546,1.00048,1.00099,0.64622,-2.21000,3.14554,0.52503,-2.05711,A,104337.60
3.23239,57.68777796,11.98138587,57.68782,11.98137,10:43:37.749525,0.00350,0.97611,0.05046,0.00795,-0.02301,-0.01413,0.01177,0.01708,0.06679,1.01809,3.22813,0.18546,1.00048,1.00099,0.64622,-2.21000,3.14554,0.52503,-2.05711,A,104337.60
3.24275,57.68777796,11.98138587,57.68782,11.98137,10:43:37.759888,0.00346,0.97611,0.05065,0.00886,-0.02163,-0.02116,0.01009,-0.07137,0.10797,1.07915,3.23850,0.18546,1.00048,1.00099,0.64622,-2.21000,3.14554,0.52503,-2.05711,A,104337.60
3.26585,57.68777796,11.98138587,57.68782,11.98137,10:43:37.782998,0.01618,0.97611,0.05038,0.00959,-0.02010,-0.00573,0.01040,-0.03544,0.07302,1.07592,3.24874,0.18546,1.00048,1.00099,0.64622,-2.21000,3.26422,0.53494,-1.94591,A,104337.70
3.28245,57.68777901,11.98138524,57.68782,11.98137,10:43:37.799590,0.00751,0.97611,0.05019,0.01064,-0.02285,-0.01367,0.00124,0.00921,0.09260,0.91890,3.27584,0.26452,1.04861,1.05177,0.60869,-2.09347,3.26422,0.53494,-1.94591,A,104337.70
3.28984,57.68777901,11.98138524,57.68782,11.98137,10:43:37.806984,0.00372,0.97611,0.05050,0.01073,-0.02148,-0.01306,0.00185,-0.06521,0.09888,0.92574,3.28529,0.26452,1.04861,1.05177,0.60869,-2.09347,3.26422,0.53494,-1.94591,A,104337.70
3.30005,57.68777901,11.98138524,57.68782,11.98137,10:43:37.817184,0.00353,0.97611,0.04973,0.01073,-0.01720,-0.00940,0.00200,-0.01348,0.02843,0.86150,3.29579,0.26452,1.04861,1.05177,0.60869,-2.09347,3.26422,0.53494,-1.94591,A,104337.70
3.31043,57.68777901,11.98138524,57.68782,11.98137,10:43:37.827568,0.00351,0.97611,0.04815,0.01073,-0.02560,-0.00940,-0.00029,0.05179,-0.01379,0.86937,3.30615,0.26452,1.04861,1.05177,0.60869,-2.09347,3.26422,0.53494,-1.94591,A,104337.70
3.32097,57.68777901,11.98138524,57.68782,11.98137,10:43:37.838504,0.00349,0.97611,0.04719,0.01073,-0.03354,-0.02833,0.00093,0.03648,0.02714,0.93397,3.31671,0.26452,1.04861,1.05177,0.60869,-2.09347,3.26422,0.53494,-1.94591,A,104337.70
3.33142,57.68777901,11.98138524,57.68782,11.98137,10:43:37.848557,0.00350,0.97611,0.04660,0.01073,-0.02988,-0.04330,0.00414,-0.02245,0.05551,1.09477,3.32717,0.26452,1.04861,1.05177,0.60869,-2.09347,3.26422,0.53494,-1.94591,A,104337.70
3.34180,57.68777901,11.98138524,57.68782,11.98137,10:43:37.858940,0.00348,0.97611,0.04669,0.01073,-0.03186,-0.02711,0.00673,-0.10803,0.11614,1.20951,3.33735,0.26452,1.04861,1.05177,0.60869,-2.09347,3.26422,0.53494,-1.94591,A,104337.70
3.35239,57.68777901,11.98138524,57.68782,11.98137,10:43:37.869526,0.00350,0.97611,0.04622,0.01073,-0.02392,-0.00680,0.00994,-0.02227,0.06155,1.14845,3.34813,0.26452,1.04861,1.05177,0.60869,-2.09347,3.26422,0.53494,-1.94591,A,104337.70
3.36278,57.68777901,11.98138524,57.68782,11.98137,10:43:37.879920,0.00348,0.97611,0.04544,0.01073,-0.02698,0.00679,0.00582,0.05075,0.03489,0.99613,3.35851,0.26452,1.04861,1.05177,0.60869,-2.09347,3.26422,0.53494,-1.94591,A,104337.70
3.38589,57.68777901,11.98138524,57.68782,11.98137,10:43:37.903024,0.01621,0.97611,0.04519,0.01073,-0.03507,-0.00359,-0.00075,0.02477,0.06734,0.90683,3.36874,0.26452,1.04861,1.05177,0.60869,-2.09347,3.38427,0.42597,-1.87178,A,104337.80
3.40153,57.68777995,11.98138416,57.68782,11.98137,10:43:37.918698,0.00797,0.97611,0.04430,0.01073,-0.02850,-0.01566,-0.00579,-0.11529,0.04837,0.91732,3.39273,0.33568,1.19815,1.20133,0.54463,-1.98898,3.38427,0.42597,-1.87178,A,104337.80
3.40749,57.68777995,11.98138416,57.68782,11.98137,10:43:37.924619,0.00353,0.97611,0.04363,0.01073,-0.02957,-0.00039,-0.00793,-0.03904,0.04050,0.95892,3.40323,0.33568,1.19815,1.20133,0.54463,-1.98898,3.38427,0.42597,-1.87178,A,104337.80
3.41799,57.68777995,11.98138416,57.68782,11.98137,10:43:37.935143,0.00364,0.97611,0.04345,0.01073,-0.02316,0.00404,-0.00457,0.06948,0.06747,0.98216,3.41338,0.33568,1.19815,1.20133,0.54463,-1.98898,3.38427,0.42597,-1.87178,A,104337.80
3.42844,57.68777995,11.98138416,57.68782,11.98137,10:43:37.945579,0.00368,0.97611,0.04311,0.01073,-0.02927,-0.01245,0.00353,0.02983,0.06417,1.01059,3.42419,0.33568,1.19815,1.20133,0.54463,-1.98898,3.38427,0.42597,-1.87178,A,104337.80
3.43872,57.68777995,11.98138416,57.68782,11.98137,10:43:37.955859,0.00350,0.97611,0.04299,0.01073,-0.02102,-0.01428,0.00505,0.00159,0.07344,1.02895,3.43446,0.33568,1.19815,1.20133,0.54463,-1.98898,3.38427,0.42597,-1.87178,A,104337.80
3.44945,57.68777995,11.98138416,57.68782,11.98137,10:43:37.966614,0.00377,0.97611,0.04298,0.01073,-0.02789,-0.01291,0.00887,-0.12334,0.08906,1.06677,3.44473,0.33568,1.19815,1.20133,0.54463,-1.98898,3.38427,0.42597,-1.87178,A,104337.80
3.45955,57.68777995,11.98138416,57.68782,11.98137,10:43:37.976691,0.00348,0.97611,0.04294,0.01073,-0.01506,0.00496,0.00628,-0.06179,0.07906,1.09288,3.45530,0.33568,1.19815,1.20133,0.54463,-1.98898,3.38427,0.42597,-1.87178,A,104337.80
3.46998,57.68777995,11.98138416,57.68782,11.98137,10:43:37.987116,0.00350,0.97611,0.04233,0.01073,-0.02209,0.00343,0.00566,0.02605,0.04136,1.06042,3.46551,0.33568,1.19815,1.20133,0.54463,-1.98898,3.38427,0.42597,-1.87178,A,104337.80
3.48044,57.68777995,11.98138416,57.68782,11.98137,10:43:37.997572,0.00357,0.97611,0.04167,0.01073,-0.02667,-0.01887,0.00444,0.10077,0.03922,1.00272,3.47618,0.33568,1.19815,1.20133,0.54463,-1.98898,3.38427,0.42597,-1.87178,A,104337.80
3.50338,57.68777995,11.98138416,57.68782,11.98137,10:43:38.020514,0.01610,0.97611,0.04184,0.01073,-0.02835,-0.04223,0.00215,0.01793,0.08961,0.94532,3.48650,0.33568,1.19815,1.20133,0.54463,-1.98898,3.50187,0.31700,-1.79765,A,104337.90
3.52203,57.68778083,11.98138278,57.68782,11.98137,10:43:38.039181,0.00805,0.97611,0.04081,0.01073,-0.01888,-0.02650,0.00566,-0.05106,0.02727,0.91573,3.51444,0.39973,1.33283,1.33601,0.46221,-1.89016,3.50187,0.31700,-1.79765,A,104337.90
3.52779,57.68778083,11.98138278,57.68782,11.98137,10:43:38.044926,0.00352,0.97611,0.03950,0.01073,-0.01109,-0.00833,0.01009,-0.04703,-0.01647,0.92775,3.52354,0.39973,1.33283,1.33601,0.46221,-1.89016,3.50187,0.31700,-1.79765,A,104337.90
3.53867,57.68778083,11.98138278,57.68782,11.98137,10:43:38.055808,0.00400,0.97611,0.03899,0.01075,-0.02133,-0.00008,0.00826,0.00213,0.03983,0.93293,3.53438,0.39973,1.33283,1.33601,0.46221,-1.89016,3.50187,0.31700,-1.79765,A,104337.90
3.54859,57.68778083,11.98138278,57.68782,11.98137,10:43:38.065716,0.00351,1.29753,0.03966,0.01087,-0.01125,0.01183,0.01666,0.00769,0.10309,0.90347,3.54432,0.39973,1.33283,1.33601,0.46221,-1.89016,3.50187,0.31700,-1.79765,A,104337.90
3.55884,57.68778083,11.98138278,57.68782,11.98137,10:43:38.075976,0.00337,1.29753,0.03972,0.01109,0.00021,0.01061,0.02170,0.01354,0.05935,0.89145,3.55458,0.39973,1.33283,1.33601,0.46221,-1.89016,3.50187,0.31700,-1.79765,A,104337.90
3.56905,57.68778083,11.98138278,57.68782,11.98137,10:43:38.086406,0.00334,1.29753,0.03948,0.01149,0.00143,0.00145,0.01177,-0.07558,0.04575,1.00601,3.56480,0.39973,1.33283,1.33601,0.46221,-1.89016,3.50187,0.31700,-1.79765,A,104337.90
3.57960,57.68778083,11.98138278,57.68782,11.98137,10:43:38.096734,0.00348,1.29753,0.03927,0.01208,0.00494,0.00129,0.01361,-0.07216,0.04673,1.04554,3.57535,0.39973,1.33283,1.33601,0.46221,-1.89016,3.50187,0.31700,-1.79765,A,104337.90
3.59001,57.68778083,11.98138278,57.68782,11.98137,10:43:38.107147,0.00350,1.29753,0.03859,0.01288,-0.00254,0.00328,0.00887,0.01555,0.02013,1.10959,3.58554,0.39973,1.33283,1.33601,0.46221,-1.89016,3.50187,0.31700,-1.79765,A,104337.90
3.60039,57.68778083,11.98138278,57.68782,11.98137,10:43:38.117532,0.00348,1.29753,0.03842,0.01390,-0.00896,-0.00176,0.01147,0.05087,0.06307,1.11923,3.59615,0.39973,1.33283,1.33601,0.46221,-1.89016,3.50187,0.31700,-1.79765,A,104337.90
3.63464,57.68778083,11.98138278,57.68782,11.98137,10:43:38.151805,0.02733,1.29753,0.03859,0.01506,-0.01430,-0.01459,0.00857,0.06295,0.09113,1.09507,3.60654,0.39973,1.33283,1.33601,0.46221,-1.89016,3.63303,0.19812,-1.53820,A,104338.10
3.65032,57.68778237,11.98138112,57.68782,11.98137,10:43:38.167489,0.00796,1.29753,0.03899,0.01981,0.00845,-0.01047,0.01697,-0.01549,0.05954,0.85925,3.64352,0.48951,1.39976,1.40564,0.36362,-1.71993,3.63303,0.19812,-1.53820,A,104338.10
3.65618,57.68778237,11.98138112,57.68782,11.98137,10:43:38.173330,0.00352,1.29753,0.03940,0.02108,0.00662,-0.02345,0.01773,0.00805,0.07857,0.90262,3.65191,0.48951,1.39976,1.40564,0.36362,-1.71993,3.63303,0.19812,-1.53820,A,104338.10
3.66657,57.68778237,11.98138112,57.68782,11.98137,10:43:38.183726,0.00351,1.29753,0.03990,0.02233,0.00861,-0.02589,0.02246,0.00634,0.09034,0.98399,3.66230,0.48951,1.39976,1.40564,0.36362,-1.71993,3.63303,0.19812,-1.53820,A,104338.10
3.67691,57.68778237,11.98138112,57.68782,11.98137,10:43:38.194272,0.00331,1.29753,0.04012,0.02346,0.01441,-0.01352,0.02842,-0.01818,0.07363,1.07281,3.67266,0.48951,1.39976,1.40564,0.36362,-1.71993,3.63303,0.19812,-1.53820,A,104338.10
3.68748,57.68778237,11.98138112,57.68782,11.98137,10:43:38.204633,0.00348,1.29753,0.04047,0.02451,0.01533,0.00374,0.03835,-0.13768,0.08571,1.10062,3.68322,0.48951,1.39976,1.40564,0.36362,-1.71993,3.63303,0.19812,-1.53820,A,104338.10
3.69788,57.68778237,11.98138112,57.68782,11.98137,10:43:38.215035,0.00347,1.29753,0.04062,0.02536,0.01716,0.03413,0.03606,-0.01147,0.06637,1.05115,3.69342,0.48951,1.39976,1.40564,0.36362,-1.71993,3.63303,0.19812,-1.53820,A,104338.10
3.70830,57.68778237,11.98138112,57.68782,11.98137,10:43:38.225446,0.00350,1.29753,0.04051,0.02615,0.02098,0.03016,0.03636,0.02464,0.04270,0.96471,3.70405,0.48951,1.39976,1.40564,0.36362,-1.71993,3.63303,0.19812,-1.53820,A,104338.10
3.71883,57.68778237,11.98138112,57.68782,11.98137,10:43:38.235984,0.00363,1.29753,0.04040,0.02674,0.02449,0.02069,0.03163,0.06082,0.03715,0.90353,3.71455,0.48951,1.39976,1.40564,0.36362,-1.71993,3.63303,0.19812,-1.53820,A,104338.10
3.72915,57.68778237,11.98138112,57.68782,11.98137,10:43:38.246517,0.00348,1.29753,0.04028,0.02728,0.01914,-0.00298,0.02842,0.01366,0.04087,0.90664,3.72489,0.48951,1.39976,1.40564,0.36362,-1.71993,3.63303,0.19812,-1.53820,A,104338.10
3.75258,57.68778237,11.98138112,57.68782,11.98136,10:43:38.269723,0.01650,1.29753,0.03947,0.02776,0.01105,-0.01398,0.02460,0.01885,0.00427,0.93934,3.73531,0.48951,1.39976,1.40564,0.36362,-1.71993,3.75106,0.11887,-1.37140,A,104338.20
3.76839,57.68778392,11.98137957,57.68782,11.98136,10:43:38.285528,0.00820,1.29753,0.04011,0.02918,0.00769,-0.00848,0.03178,0.02916,0.10120,1.08440,3.76204,0.57031,1.46167,1.47033,0.27135,-1.54673,3.75106,0.11887,-1.37140,A,104338.20
3.77399,57.68778392,11.98137957,57.68782,11.98136,10:43:38.291133,0.00352,1.29753,0.04054,0.02963,0.00800,-0.01077,0.02934,0.07168,0.09492,1.04633,3.76952,0.57031,1.46167,1.47033,0.27135,-1.54673,3.75106,0.11887,-1.37140,A,104338.20
3.78438,57.68778392,11.98137957,57.68782,11.98136,10:43:38.301515,0.00351,1.29753,0.04043,0.03000,-0.00132,-0.01963,0.03147,0.08235,0.05850,0.98405,3.78013,0.57031,1.46167,1.47033,0.27135,-1.54673,3.75106,0.11887,-1.37140,A,104338.20
3.79483,57.68778392,11.98137957,57.68782,11.98136,10:43:38.311969,0.00355,1.29753,0.04063,0.03008,0.00021,-0.03734,0.02720,0.04496,0.07107,0.89066,3.79056,0.57031,1.46167,1.47033,0.27135,-1.54673,3.75106,0.11887,-1.37140,A,104338.20
3.80506,57.68778392,11.98137957,57.68782,11.98136,10:43:38.322412,0.00333,1.29753,0.04085,0.03008,-0.01232,-0.05048,0.02292,-0.06130,0.08192,0.91293,3.80080,0.57031,1.46167,1.47033,0.27135,-1.54673,3.75106,0.11887,-1.37140,A,104338.20
3.81561,57.68778392,11.98137957,57.68782,11.98136,10:43:38.332744,0.00348,1.29753,0.04041,0.03008,-0.01018,-0.03780,0.01758,-0.08961,0.04093,0.91744,3.81135,0.57031,1.46167,1.47033,0.27135,-1.54673,3.75106,0.11887,-1.37140,A,104338.20
3.82602,57.68778392,11.98137957,57.68782,11.98136,10:43:38.343326,0.00350,1.29753,0.03911,0.03008,-0.01430,-0.02329,0.00857,-0.06850,-0.01037,0.96069,3.82156,0.57031,1.46167,1.47033,0.27135,-1.54673,3.75106,0.11887,-1.37140,A,104338.20
3.83643,57.68778392,11.98137957,57.68782,11.98136,10:43:38.353571,0.00351,1.29753,0.03881,0.03008,-0.02881,-0.00161,0.00582,0.01708,0.06210,0.96593,3.83217,0.57031,1.46167,1.47033,0.27135,-1.54673,3.75106,0.11887,-1.37140,A,104338.20
3.84683,57.68778392,11.98137957,57.68782,11.98136,10:43:38.363968,0.00350,1.29753,0.03828,0.03008,-0.02224,0.00083,0.00414,0.00939,0.04349,0.97655,3.84256,0.57031,1.46167,1.47033,0.27135,-1.54673,3.75106,0.11887,-1.37140,A,104338.20
3.86991,57.68778392,11.98137957,57.68782,11.98136,10:43:38.387054,0.01623,1.29753,0.03796,0.03008,-0.02331,0.01229,0.00521,-0.07186,0.05844,1.01236,3.85274,0.57031,1.46167,1.47033,0.27135,-1.54673,3.86830,0.07925,-1.24168,A,104338.30
3.88849,57.68778538,11.98137834,57.68782,11.98136,10:43:38.405664,0.00890,1.29753,0.03684,0.03008,-0.01690,-0.00909,0.01345,0.04648,0.02037,1.00552,3.88120,0.64303,1.50314,1.51207,0.19854,-1.38478,3.86830,0.07925,-1.24168,A,104338.30
3.89306,57.68778538,11.98137834,57.68782,11.98136,10:43:38.410419,0.00330,1.29753,0.03588,0.03008,-0.01919,-0.01627,0.01865,0.07680,0.00805,0.99704,3.88882,0.64303,1.50314,1.51207,0.19854,-1.38478,3.86830,0.07925,-1.24168,A,104338.30
3.90367,57.68778538,11.98137834,57.68782,11.98136,10:43:38.420812,0.00351,1.29753,0.03536,0.03008,-0.03217,-0.02528,0.02124,-0.03831,0.05551,1.13356,3.89941,0.64303,1.50314,1.51207,0.19854,-1.38478,3.86830,0.07925,-1.24168,A,104338.30
3.91407,57.68778538,11.98137834,57.68782,11.98136,10:43:38.431209,0.00351,1.29753,0.03567,0.03008,-0.02575,-0.01199,0.02277,-0.00769,0.10663,1.08281,3.90959,0.64303,1.50314,1.51207,0.19854,-1.38478,3.86830,0.07925,-1.24168,A,104338.30
3.92462,57.68778538,11.98137834,57.68782,11.98136,10:43:38.441761,0.00366,1.29753,0.03646,0.03008,-0.01506,-0.00573,0.02231,-0.08076,0.13030,1.04273,3.92036,0.64303,1.50314,1.51207,0.19854,-1.38478,3.86830,0.07925,-1.24168,A,104338.30
3.93484,57.68778538,11.98137834,57.68782,11.98136,10:43:38.451981,0.00349,1.29753,0.03851,0.03008,-0.00651,0.01870,0.01956,-0.06655,0.20557,0.99894,3.93059,0.64303,1.50314,1.51207,0.19854,-1.38478,3.86830,0.07925,-1.24168,A,104338.30
3.94504,57.68778538,11.98137834,57.68782,11.98136,10:43:38.462381,0.00336,1.29753,0.03818,0.03008,-0.01323,0.01183,0.01223,0.10699,0.04423,0.85766,3.94078,0.64303,1.50314,1.51207,0.19854,-1.38478,3.86830,0.07925,-1.24168,A,104338.30
3.95555,57.68778538,11.98137834,57.68782,11.98136,10:43:38.472691,0.00347,1.29753,0.03655,0.03008,-0.01568,-0.01230,0.00551,0.09900,-0.02678,0.79654,3.95131,0.64303,1.50314,1.51207,0.19854,-1.38478,3.86830,0.07925,-1.24168,A,104338.30
3.96605,57.68778538,11.98137834,57.68782,11.98136,10:43:38.483190,0.00351,1.29753,0.03631,0.03008,-0.02957,-0.03261,0.00169,-0.04227,0.06088,0.91341,3.96159,0.64303,1.50314,1.51207,0.19854,-1.38478,3.86830,0.07925,-1.24168,A,104338.30
3.98918,57.68778538,11.98137834,57.68782,11.98136,10:43:38.506548,0.01625,1.29753,0.03651,0.03008,-0.02728,-0.01428,-0.00365,-0.00220,0.08778,0.92391,3.97218,0.64303,1.50314,1.51207,0.19854,-1.38478,3.98768,0.04953,-1.11195,A,104338.40
4.00430,57.68778676,11.98137738,57.68782,11.98136,10:43:38.521449,0.00766,1.29753,0.03580,0.03008,-0.00987,-0.01658,0.01132,-0.04648,0.03276,1.07128,3.99776,0.70848,1.53356,1.54249,0.14153,-1.23150,3.98768,0.04953,-1.11195,A,104338.40
4.01056,57.68778676,11.98137738,57.68782,11.98136,10:43:38.527697,0.00351,1.29753,0.03581,0.03008,-0.00239,-0.01291,0.01987,-0.11553,0.07204,1.14326,4.00629,0.70848,1.53356,1.54249,0.14153,-1.23150,3.98768,0.04953,-1.11195,A,104338.40
4.02108,57.68778676,11.98137738,57.68782,11.98136,10:43:38.538430,0.00349,1.29753,0.03587,0.03008,0.00036,0.00419,0.03438,-0.02830,0.07369,1.14412,4.01683,0.70848,1.53356,1.54249,0.14153,-1.23150,3.98768,0.04953,-1.11195,A,104338.40
4.03198,57.68778676,11.98137738,57.68782,11.98136,10:43:38.549121,0.00400,1.29753,0.03513,0.03008,0.01013,0.00206,0.03453,0.09071,0.00464,1.06506,4.02772,0.70848,1.53356,1.54249,0.14153,-1.23150,3.98768,0.04953,-1.11195,A,104338.40
4.04190,57.68778676,11.98137738,57.68782,11.98136,10:43:38.559037,0.00351,1.49065,0.03492,0.03008,0.00937,-0.01276,0.03590,-0.01318,0.04258,1.00619,4.03742,0.70848,1.53356,1.54249,0.14153,-1.23150,3.98768,0.04953,-1.11195,A,104338.40
4.05262,57.68778676,11.98137738,57.68782,11.98136,10:43:38.569754,0.00383,1.49065,0.03524,0.03008,0.00677,-0.01260,0.03331,0.00799,0.06826,0.86272,4.04835,0.70848,1.53356,1.54249,0.14153,-1.23150,3.98768,0.04953,-1.11195,A,104338.40
4.06269,57.68778676,11.98137738,57.68782,11.98136,10:43:38.579823,0.00351,1.49065,0.03583,0.03008,0.01090,-0.02513,0.03468,-0.01311,0.07979,0.83363,4.05841,0.70848,1.53356,1.54249,0.14153,-1.23150,3.98768,0.04953,-1.11195,A,104338.40
4.07299,57.68778676,11.98137738,57.68782,11.98136,10:43:38.590345,0.00332,1.49065,0.03655,0.03008,0.01456,-0.01581,0.03010,-0.03861,0.09083,0.88853,4.06873,0.70848,1.53356,1.54249,0.14153,-1.23150,3.98768,0.04953,-1.11195,A,104338.40
4.08356,57.68778676,11.98137738,57.68782,11.98136,10:43:38.600691,0.00349,1.49065,0.03722,0.03017,0.01334,-0.00741,0.03865,-0.09583,0.09925,1.00345,4.07931,0.70848,1.53356,1.54249,0.14153,-1.23150,3.98768,0.04953,-1.11195,A,104338.40
4.10671,57.68778676,11.98137738,57.68783,11.98136,10:43:38.623861,0.01624,1.49065,0.03771,0.03068,0.01777,0.01656,0.04583,-0.12371,0.09821,1.15839,4.08950,0.70848,1.53356,1.54249,0.14153,-1.23150,4.10495,-0.03962,-1.00075,A,104338.50
4.12313,57.68778803,11.98137619,57.68783,11.98136,10:43:38.640277,0.00730,1.49065,0.03777,0.03492,0.01288,-0.00329,0.06202,0.17318,0.04795,1.02315,4.11601,0.78670,1.60624,1.61660,0.07047,-1.08984,4.10495,-0.03962,-1.00075,A,104338.50
4.12989,57.68778803,11.98137619,57.68783,11.98136,10:43:38.647031,0.00367,1.49065,0.03877,0.03710,0.00372,-0.03780,0.05621,-0.06722,0.13896,1.06378,4.12542,0.78670,1.60624,1.61660,0.07047,-1.08984,4.10495,-0.03962,-1.00075,A,104338.50
4.14016,57.68778803,11.98137619,57.68783,11.98136,10:43:38.657292,0.00352,1.49065,0.03833,0.03942,0.00845,-0.04391,0.04965,-0.01427,0.03087,0.94288,4.13590,0.78670,1.60624,1.61660,0.07047,-1.08984,4.10495,-0.03962,-1.00075,A,104338.50
4.15053,57.68778803,11.98137619,57.68783,11.98136,10:43:38.667927,0.00350,1.49065,0.03807,0.04135,-0.00499,-0.05491,0.04171,0.04703,0.04392,0.79123,4.14626,0.78670,1.60624,1.61660,0.07047,-1.08984,4.10495,-0.03962,-1.00075,A,104338.50
4.16105,57.68778803,11.98137619,57.68783,11.98136,10:43:38.678401,0.00336,1.49065,0.03876,0.04305,-0.00346,-0.05842,0.03773,-0.02769,0.11675,1.00607,4.15678,0.78670,1.60624,1.61660,0.07047,-1.08984,4.10495,-0.03962,-1.00075,A,104338.50
4.17160,57.68778803,11.98137619,57.68783,11.98136,10:43:38.688736,0.00350,1.49065,0.03930,0.04432,-0.01216,-0.05659,0.03132,-0.11352,0.12078,1.06695,4.16734,0.78670,1.60624,1.61660,0.07047,-1.08984,4.10495,-0.03962,-1.00075,A,104338.50
4.18200,57.68778803,11.98137619,57.68783,11.98136,10:43:38.699144,0.00350,1.49065,0.03880,0.04525,-0.00957,-0.02879,0.03896,-0.15250,0.04526,1.10752,4.17753,0.78670,1.60624,1.61660,0.07047,-1.08984,4.10495,-0.03962,-1.00075,A,104338.50
4.19242,57.68778803,11.98137619,57.68783,11.98136,10:43:38.709555,0.00352,1.49065,0.03846,0.04591,-0.01522,-0.00466,0.04644,-0.02135,0.06076,1.07061,4.18816,0.78670,1.60624,1.61660,0.07047,-1.08984,4.10495,-0.03962,-1.00075,A,104338.50
4.20281,57.68778803,11.98137619,57.68783,11.98136,10:43:38.719941,0.00350,1.49065,0.03770,0.04627,-0.02209,-0.01154,0.05072,0.08894,0.02977,0.87187,4.19853,0.78670,1.60624,1.61660,0.07047,-1.08984,4.10495,-0.03962,-1.00075,A,104338.50
4.23647,57.68778803,11.98137619,57.68783,11.98136,10:43:38.753618,0.02680,1.49065,0.03792,0.04636,-0.01751,-0.04345,0.05652,0.02403,0.08009,0.83649,4.20873,0.78670,1.60624,1.61660,0.07047,-1.08984,4.23496,-0.16841,-0.64864,A,104338.70
4.25283,57.68779016,11.98137453,57.68783,11.98136,10:43:38.769979,0.00879,1.49065,0.03788,0.04639,0.00005,0.04711,0.06232,-0.04319,0.06850,1.05176,4.24613,0.85709,1.63992,1.65369,-0.02784,-0.85325,4.23496,-0.16841,-0.64864,A,104338.70
4.25775,57.68779016,11.98137453,57.68783,11.98136,10:43:38.774889,0.00352,1.49065,0.03729,0.04644,-0.00773,0.05199,0.05896,0.04392,0.03111,0.96801,4.25327,0.85709,1.63992,1.65369,-0.02784,-0.85325,4.23496,-0.16841,-0.64864,A,104338.70
4.26812,57.68779016,11.98137453,57.68783,11.98136,10:43:38.785259,0.00349,1.49065,0.03741,0.04667,-0.01415,0.04421,0.05255,0.03013,0.07967,0.92055,4.26387,0.85709,1.63992,1.65369,-0.02784,-0.85325,4.23496,-0.16841,-0.64864,A,104338.70
4.27863,57.68779016,11.98137453,57.68783,11.98136,10:43:38.795766,0.00359,1.49065,0.03671,0.04709,-0.01186,0.02664,0.05637,-0.03508,0.02678,0.89304,4.27434,0.85709,1.63992,1.65369,-0.02784,-0.85325,4.23496,-0.16841,-0.64864,A,104338.70
4.28897,57.68779016,11.98137453,57.68783,11.98136,10:43:38.806328,0.00334,1.49065,0.03618,0.04780,-0.01277,0.01626,0.05255,0.02007,0.03611,0.86437,4.28471,0.85709,1.63992,1.65369,-0.02784,-0.85325,4.23496,-0.16841,-0.64864,A,104338.70
4.29949,57.68779016,11.98137453,57.68783,11.98136,10:43:38.816631,0.00346,1.49065,0.03484,0.04874,-0.02224,-0.01413,0.05087,0.02538,-0.00659,0.96770,4.29525,0.85709,1.63992,1.65369,-0.02784,-0.85325,4.23496,-0.16841,-0.64864,A,104338.70
4.30994,57.68779016,11.98137453,57.68783,11.98136,10:43:38.827078,0.00352,1.49065,0.03439,0.04970,-0.03079,-0.03337,0.05240,0.07241,0.05691,1.01107,4.30545,0.85709,1.63992,1.65369,-0.02784,-0.85325,4.23496,-0.16841,-0.64864,A,104338.70
4.32047,57.68779016,11.98137453,57.68783,11.98136,10:43:38.837599,0.00365,1.49065,0.03431,0.05060,-0.02927,-0.04651,0.05408,0.05185,0.09187,1.16425,4.31620,0.85709,1.63992,1.65369,-0.02784,-0.85325,4.23496,-0.16841,-0.64864,A,104338.70
4.33072,57.68779016,11.98137453,57.68783,11.98136,10:43:38.847861,0.00350,1.49065,0.03473,0.05123,-0.03339,-0.03078,0.05346,-0.05630,0.14109,1.22769,4.32645,0.85709,1.63992,1.65369,-0.02784,-0.85325,4.23496,-0.16841,-0.64864,A,104338.70
4.35402,57.68779016,11.98137453,57.68783,11.98136,10:43:38.871167,0.01635,1.49065,0.03504,0.05159,-0.01476,-0.01092,0.05377,0.03849,0.10681,1.11886,4.33672,0.85709,1.63992,1.65369,-0.02784,-0.85325,4.35239,-0.25756,-0.50038,A,104338.80
4.37115,57.68779196,11.98137290,57.68783,11.98136,10:43:38.888309,0.00711,1.49065,0.03281,0.05168,-0.02759,-0.03689,0.05881,-0.00238,-0.02446,0.79032,4.36385,0.92045,1.68996,1.70531,-0.12464,-0.65293,4.35239,-0.25756,-0.50038,A,104338.80
4.37797,57.68779196,11.98137290,57.68783,11.98136,10:43:38.895116,0.00352,1.49065,0.03259,0.05168,-0.02988,-0.04147,0.05698,-0.04996,0.05740,0.81539,4.37349,0.92045,1.68996,1.70531,-0.12464,-0.65293,4.35239,-0.25756,-0.50038,A,104338.80
4.38836,57.68779196,11.98137290,57.68783,11.98136,10:43:38.905501,0.00352,1.49065,0.03269,0.05168,-0.02881,-0.02589,0.05667,-0.13890,0.08119,0.88432,4.38411,0.92045,1.68996,1.70531,-0.12464,-0.65293,4.35239,-0.25756,-0.50038,A,104338.80
4.39875,57.68779196,11.98137290,57.68783,11.98136,10:43:38.915878,0.00351,1.49065,0.03317,0.05168,-0.01430,-0.00023,0.05927,-0.09327,0.10602,0.99704,4.39448,0.92045,1.68996,1.70531,-0.12464,-0.65293,4.35239,-0.25756,-0.50038,A,104338.80
4.40972,57.68779196,11.98137290,57.68783,11.98136,10:43:38.926864,0.00405,1.49065,0.03281,0.05174,0.00677,0.00755,0.06248,0.00122,0.03782,1.10105,4.40524,0.92045,1.68996,1.70531,-0.12464,-0.65293,4.35239,-0.25756,-0.50038,A,104338.80
4.41983,57.68779196,11.98137290,57.68783,11.98136,10:43:38.936968,0.00376,1.49065,0.03212,0.05185,0.00128,-0.01215,0.06614,0.05758,0.01769,1.04713,4.41549,0.92045,1.68996,1.70531,-0.12464,-0.65293,4.35239,-0.25756,-0.50038,A,104338.80
4.43020,57.68779196,11.98137290,57.68783,11.98136,10:43:38.947352,0.00373,1.49065,0.03170,0.05205,0.00387,-0.03154,0.06690,0.04520,0.03196,0.98899,4.42551,0.92045,1.68996,1.70531,-0.12464,-0.65293,4.35239,-0.25756,-0.50038,A,104338.80
4.44037,57.68779196,11.98137290,57.68783,11.98136,10:43:38.957506,0.00350,1.49065,0.03170,0.05236,0.00326,-0.05399,0.06996,-0.02263,0.06112,1.00565,4.43611,0.92045,1.68996,1.70531,-0.12464,-0.65293,4.35239,-0.25756,-0.50038,A,104338.80
4.45083,57.68779196,11.98137290,57.68783,11.98136,10:43:38.967963,0.00356,1.49065,0.03245,0.05267,0.00494,-0.05643,0.07500,-0.16860,0.11071,1.00638,4.44656,0.92045,1.68996,1.70531,-0.12464,-0.65293,4.35239,-0.25756,-0.50038,A,104338.80
4.47373,57.68779196,11.98137290,57.68783,11.98136,10:43:38.990874,0.01606,1.49065,0.03226,0.05292,0.00021,-0.02696,0.07011,-0.10486,0.04996,0.97258,4.45674,0.92045,1.68996,1.70531,-0.12464,-0.65293,4.47211,-0.37644,-0.37065,A,104338.90
4.48972,57.68779355,11.98137106,57.68783,11.98136,10:43:39.006868,0.00693,1.64266,0.03351,0.05298,-0.00361,-0.00039,0.05881,-0.00360,0.16128,1.03224,4.48317,0.99267,1.75578,1.77152,-0.23404,-0.47589,4.47211,-0.37644,-0.37065,A,104338.90
4.49670,57.68779355,11.98137106,57.68783,11.98136,10:43:39.013840,0.00351,1.64266,0.03301,0.05298,0.00952,-0.01444,0.05484,0.07857,0.02843,1.03895,4.49244,0.99267,1.75578,1.77152,-0.23404,-0.47589,4.47211,-0.37644,-0.37065,A,104338.90
4.50709,57.68779355,11.98137106,57.68783,11.98136,10:43:39.024227,0.00350,1.64266,0.03424,0.05298,-0.00147,-0.04193,0.05789,-0.02568,0.15061,0.99912,4.50283,0.99267,1.75578,1.77152,-0.23404,-0.47589,4.47211,-0.37644,-0.37065,A,104338.90
4.51717,57.68779355,11.98137106,57.68783,11.98136,10:43:39.034661,0.00335,1.64266,0.03208,0.05298,0.00616,-0.07430,0.05927,0.02098,-0.07930,0.98558,4.51291,0.99267,1.75578,1.77152,-0.23404,-0.47589,4.47211,-0.37644,-0.37065,A,104338.90
4.52773,57.68779355,11.98137106,57.68783,11.98136,10:43:39.044861,0.00351,1.64266,0.03122,0.05298,-0.00636,-0.07079,0.06018,-0.02239,0.01269,0.89536,4.52347,0.99267,1.75578,1.77152,-0.23404,-0.47589,4.47211,-0.37644,-0.37065,A,104338.90
4.53813,57.68779355,11.98137106,57.68783,11.98136,10:43:39.055265,0.00351,1.64266,0.03208,0.05298,-0.00621,-0.07339,0.06629,0.03038,0.11193,0.86968,4.53364,0.99267,1.75578,1.77152,-0.23404,-0.47589,4.47211,-0.37644,-0.37065,A,104338.90
4.54853,57.68779355,11.98137106,57.68783,11.98136,10:43:39.065670,0.00352,1.64266,0.03257,0.05298,0.00005,-0.06575,0.06889,-0.04630,0.08534,0.84772,4.54427,0.99267,1.75578,1.77152,-0.23404,-0.47589,4.47211,-0.37644,-0.37065,A,104338.90
4.55885,57.68779355,11.98137106,57.68783,11.98136,10:43:39.075980,0.00343,1.64266,0.03256,0.05298,0.01716,-0.04727,0.06507,-0.11590,0.04685,0.82942,4.55457,0.99267,1.75578,1.77152,-0.23404,-0.47589,4.47211,-0.37644,-0.37065,A,104338.90
4.56901,57.68779355,11.98137106,57.68783,11.98136,10:43:39.086367,0.00332,1.64266,0.03324,0.05298,0.02128,-0.01154,0.05912,-0.11871,0.09540,0.97917,4.56474,0.99267,1.75578,1.77152,-0.23404,-0.47589,4.47211,-0.37644,-0.37065,A,104338.90
4.59214,57.68779355,11.98137106,57.68783,11.98136,10:43:39.109300,0.01606,1.64266,0.03290,0.05298,0.02281,0.00129,0.05148,-0.14420,0.02965,1.06970,4.57531,0.99267,1.75578,1.77152,-0.23404,-0.47589,4.59064,-0.39625,-0.05560,A,104339.00
4.60349,57.68779565,11.98136975,57.68783,11.98136,10:43:39.120649,0.00571,1.64266,0.03286,0.05298,0.01838,-0.00527,0.04308,0.10425,0.04002,1.10221,4.59692,1.05767,1.74737,1.76311,-0.31221,-0.24248,4.59064,-0.39625,-0.05560,A,104339.00
4.61171,57.68779565,11.98136975,57.68783,11.98136,10:43:39.128864,0.00352,1.64266,0.03341,0.05298,0.02602,-0.03597,0.05331,0.12609,0.08802,1.03444,4.60745,1.05767,1.74737,1.76311,-0.31221,-0.24248,4.59064,-0.39625,-0.05560,A,104339.00
4.62209,57.68779565,11.98136975,57.68783,11.98136,10:43:39.139255,0.00366,1.64266,0.03396,0.05298,0.03319,-0.05262,0.06064,-0.03605,0.08009,0.97014,4.61749,1.05767,1.74737,1.76311,-0.31221,-0.24248,4.59064,-0.39625,-0.05560,A,104339.00
4.63234,57.68779565,11.98136975,57.68783,11.98136,10:43:39.149489,0.00351,1.64266,0.03488,0.05298,0.04587,-0.06163,0.07317,-0.11950,0.09168,0.94141,4.62808,1.05767,1.74737,1.76311,-0.31221,-0.24248,4.59064,-0.39625,-0.05560,A,104339.00
4.64271,57.68779565,11.98136975,57.68783,11.98136,10:43:39.159867,0.00348,1.64266,0.03501,0.05298,0.05076,-0.04116,0.07805,-0.11096,0.03922,0.87572,4.63844,1.05767,1.74737,1.76311,-0.31221,-0.24248,4.59064,-0.39625,-0.05560,A,104339.00
4.65342,57.68779565,11.98136975,57.68783,11.98136,10:43:39.170593,0.00374,1.64266,0.03498,0.05298,0.05015,-0.03185,0.07851,-0.04953,0.02965,0.87462,4.64895,1.05767,1.74737,1.76311,-0.31221,-0.24248,4.59064,-0.39625,-0.05560,A,104339.00
4.66356,57.68779565,11.98136975,57.68783,11.98136,10:43:39.180713,0.00349,1.64266,0.03571,0.05298,0.04679,-0.03001,0.07240,-0.06130,0.08095,0.94227,4.65931,1.05767,1.74737,1.76311,-0.31221,-0.24248,4.59064,-0.39625,-0.05560,A,104339.00
4.67411,57.68779565,11.98136975,57.68783,11.98136,10:43:39.191274,0.00364,1.64266,0.03595,0.05298,0.06022,-0.00986,0.06950,-0.05331,0.04612,1.02870,4.66949,1.05767,1.74737,1.76311,-0.31221,-0.24248,4.59064,-0.39625,-0.05560,A,104339.00
4.68618,57.68779565,11.98136975,57.68783,11.98136,10:43:39.203351,0.00547,1.64266,0.03550,0.05298,0.05198,-0.01001,0.05682,0.02025,-0.00293,1.07305,4.68164,1.05767,1.74737,1.76311,-0.31221,-0.24248,4.59064,-0.39625,-0.05560,A,104339.00
4.70722,57.68779565,11.98136975,57.68784,11.98136,10:43:39.224356,0.01611,1.64266,0.03566,0.05298,0.05030,-0.01551,0.05148,-0.00085,0.05398,1.08629,4.69042,1.05767,1.74737,1.76311,-0.31221,-0.24248,4.70571,-0.29719,0.20386,A,104339.10
4.72336,57.68779792,11.98136961,57.68784,11.98136,10:43:39.240508,0.00877,1.64266,0.03693,0.05298,0.03335,-0.09110,0.04323,0.03995,0.09278,0.95410,4.71669,1.11617,1.69769,1.71343,-0.32047,0.00934,4.70571,-0.29719,0.20386,A,104339.10
4.72848,57.68779792,11.98136961,57.68784,11.98136,10:43:39.245609,0.00370,1.64266,0.03722,0.05298,0.04419,-0.09354,0.04613,-0.01116,0.06112,0.87870,4.72423,1.11617,1.69769,1.71343,-0.32047,0.00934,4.70571,-0.29719,0.20386,A,104339.10
4.73868,57.68779792,11.98136961,57.68784,11.98136,10:43:39.255818,0.00350,1.64266,0.03678,0.05298,0.02800,-0.07888,0.04629,-0.09138,0.02062,0.78562,4.73441,1.11617,1.69769,1.71343,-0.32047,0.00934,4.70571,-0.29719,0.20386,A,104339.10
4.74905,57.68779792,11.98136961,57.68784,11.98136,10:43:39.266421,0.00332,1.64266,0.03686,0.05298,0.02052,-0.05201,0.04919,-0.12285,0.05392,0.84473,4.74480,1.11617,1.69769,1.71343,-0.32047,0.00934,4.70571,-0.29719,0.20386,A,104339.10
4.75964,57.68779792,11.98136961,57.68784,11.98136,10:43:39.276779,0.00351,1.64266,0.03750,0.05298,0.02205,-0.02513,0.04415,-0.16165,0.09668,0.98009,4.75538,1.11617,1.69769,1.71343,-0.32047,0.00934,4.70571,-0.29719,0.20386,A,104339.10
4.77003,57.68779792,11.98136961,57.68784,11.98136,10:43:39.287169,0.00349,1.64266,0.03815,0.05298,0.02143,0.01183,0.04369,-0.06021,0.10419,1.04139,4.76557,1.11617,1.69769,1.71343,-0.32047,0.00934,4.70571,-0.29719,0.20386,A,104339.10
4.78060,57.68779792,11.98136961,57.68784,11.98136,10:43:39.297748,0.00367,1.64266,0.03857,0.05298,0.01869,0.01565,0.03957,0.05703,0.10083,1.19725,4.77624,1.11617,1.69769,1.71343,-0.32047,0.00934,4.70571,-0.29719,0.20386,A,104339.10
4.79083,57.68779792,11.98136961,57.68784,11.98136,10:43:39.307963,0.00349,1.64266,0.03834,0.05284,0.01624,0.00007,0.03621,0.06460,0.05215,1.18901,4.78656,1.11617,1.69769,1.71343,-0.32047,0.00934,4.70571,-0.29719,0.20386,A,104339.10
4.80099,57.68779792,11.98136961,57.68784,11.98136,10:43:39.318338,0.00331,1.64266,0.03848,0.05236,0.00677,-0.02727,0.03407,-0.06204,0.08790,1.17218,4.79673,1.11617,1.69769,1.71343,-0.32047,0.00934,4.70571,-0.29719,0.20386,A,104339.10
4.83552,57.68779792,11.98136961,57.68784,11.98136,10:43:39.352664,0.02744,1.64266,0.03822,0.05140,0.01090,-0.01841,0.02735,-0.02196,0.04825,1.04877,4.80730,1.11617,1.69769,1.71343,-0.32047,0.00934,4.83400,-0.17831,0.92662,A,104339.30
4.84883,57.68780195,11.98137037,57.68784,11.98136,10:43:39.365975,0.00656,1.64266,0.03827,0.04636,-0.03354,-0.03124,0.02964,-0.15232,0.14805,0.98606,4.84144,1.16882,1.67375,1.68752,-0.27527,0.45748,4.83400,-0.17831,0.92662,A,104339.30
4.85665,57.68780195,11.98137037,57.68784,11.98136,10:43:39.373786,0.00372,1.64266,0.03944,0.04463,-0.02743,0.02695,0.03025,-0.15927,0.16940,1.00601,4.85236,1.16882,1.67375,1.68752,-0.27527,0.45748,4.83400,-0.17831,0.92662,A,104339.30
4.86683,57.68780195,11.98137037,57.68784,11.98136,10:43:39.383965,0.00351,1.64266,0.03921,0.04316,-0.02133,0.05535,0.02552,-0.12474,0.06936,0.99424,4.86256,1.16882,1.67375,1.68752,-0.27527,0.45748,4.83400,-0.17831,0.92662,A,104339.30
4.87700,57.68780195,11.98137037,57.68784,11.98136,10:43:39.394350,0.00331,1.64266,0.04015,0.04189,-0.02133,0.06070,0.01941,0.17043,0.13194,0.88133,4.87274,1.16882,1.67375,1.68752,-0.27527,0.45748,4.83400,-0.17831,0.92662,A,104339.30
4.88772,57.68780195,11.98137037,57.68784,11.98136,10:43:39.404856,0.00364,1.64266,0.03850,0.04084,-0.02148,-0.01413,0.01926,0.32055,-0.01629,0.76842,4.88348,1.16882,1.67375,1.68752,-0.27527,0.45748,4.83400,-0.17831,0.92662,A,104339.30
4.89809,57.68780195,11.98137037,57.68784,11.98136,10:43:39.415225,0.00360,1.64266,0.03699,0.04019,-0.03309,-0.10775,0.02155,0.04160,-0.00793,0.88401,4.89351,1.16882,1.67375,1.68752,-0.27527,0.45748,4.83400,-0.17831,0.92662,A,104339.30
4.90838,57.68780195,11.98137037,57.68784,11.98136,10:43:39.425521,0.00350,1.71262,0.03657,0.03982,-0.04882,-0.11874,0.02704,-0.17794,0.07686,1.03907,4.90413,1.16882,1.67375,1.68752,-0.27527,0.45748,4.83400,-0.17831,0.92662,A,104339.30
4.91892,57.68780195,11.98137037,57.68784,11.98136,10:43:39.436061,0.00364,1.71262,0.03598,0.03974,-0.05615,-0.07751,0.03682,-0.19142,0.07649,1.15992,4.91465,1.16882,1.67375,1.68752,-0.27527,0.45748,4.83400,-0.17831,0.92662,A,104339.30
4.92916,57.68780195,11.98137037,57.68784,11.98136,10:43:39.446515,0.00348,1.71262,0.03652,0.03974,-0.05889,-0.02956,0.04507,0.01647,0.15207,1.05811,4.92491,1.16882,1.67375,1.68752,-0.27527,0.45748,4.83400,-0.17831,0.92662,A,104339.30
4.95261,57.68780195,11.98137037,57.68785,11.98136,10:43:39.470032,0.01653,1.71262,0.03702,0.03974,-0.04225,-0.01948,0.04354,0.15152,0.11254,0.85022,4.93531,1.16882,1.67375,1.68752,-0.27527,0.45748,4.95110,-0.15850,1.14901,A,104339.40
4.96852,57.68780517,11.98137099,57.68785,11.98136,10:43:39.485656,0.00808,1.71262,0.03478,0.03974,-0.03690,-0.06468,0.02048,-0.14768,-0.01165,0.82381,4.96215,1.22320,1.65902,1.67082,-0.23818,0.81614,4.95110,-0.15850,1.14901,A,104339.40
4.97424,57.68780517,11.98137099,57.68785,11.98136,10:43:39.491385,0.00351,1.71262,0.03409,0.03974,-0.06088,-0.06025,0.00750,-0.31311,0.05313,1.06195,4.96976,1.22320,1.65902,1.67082,-0.23818,0.81614,4.95110,-0.15850,1.14901,A,104339.40
4.98462,57.68780517,11.98137099,57.68785,11.98136,10:43:39.501757,0.00349,1.71262,0.03332,0.03974,-0.06057,0.00129,-0.00487,-0.25687,0.07216,1.35341,4.98037,1.22320,1.65902,1.67082,-0.23818,0.81614,4.95110,-0.15850,1.14901,A,104339.40
4.99503,57.68780517,11.98137099,57.68785,11.98136,10:43:39.512161,0.00351,1.71262,0.03286,0.03974,-0.05385,0.05963,-0.00182,-0.02361,0.10199,1.50944,4.99078,1.22320,1.65902,1.67082,-0.23818,0.81614,4.95110,-0.15850,1.14901,A,104339.40
5.00508,57.68780517,11.98137099,57.68785,11.98136,10:43:39.522427,0.00331,1.71262,0.03242,0.03974,-0.04469,0.06788,0.01406,0.26614,0.08180,1.32602,5.00083,1.22320,1.65902,1.67082,-0.23818,0.81614,4.95110,-0.15850,1.14901,A,104339.40
5.01907,57.68780517,11.98137099,57.68785,11.98136,10:43:39.536247,0.00691,1.71262,0.00000,0.03974,-0.03614,0.01565,0.03697,0.26938,0.10333,1.13106,5.01141,1.22320,1.65902,1.67082,-0.23818,0.81614,4.95110,-0.15850,1.14901,A,104339.40
5.02707,57.68780517,11.98137099,57.68785,11.98136,10:43:39.544229,0.00424,1.71262,0.00057,0.03974,-0.01827,-0.03750,0.05408,-0.16934,0.07631,0.90744,5.02263,1.22320,1.65902,1.67082,-0.23818,0.81614,4.95110,-0.15850,1.14901,A,104339.40
5.03673,57.68780517,11.98137099,57.68785,11.98136,10:43:39.553884,0.00333,1.71262,0.00093,0.03974,-0.00300,-0.02833,0.06278,-0.18837,0.04654,0.77000,5.03246,1.22320,1.65902,1.67082,-0.23818,0.81614,4.95110,-0.15850,1.14901,A,104339.40
5.04734,57.68780517,11.98137099,57.68785,11.98136,10:43:39.564484,0.00355,1.71262,-0.00086,0.03974,-0.02774,-0.03902,0.04445,0.01305,-0.03544,0.58615,5.04306,1.22320,1.65902,1.67082,-0.23818,0.81614,4.95110,-0.15850,1.14901,A,104339.40
5.07028,57.68780517,11.98137099,57.68785,11.98136,10:43:39.587435,0.01628,1.71262,-0.00328,0.03974,-0.04057,-0.07491,0.03361,0.03288,-0.06606,0.66106,5.05312,1.22320,1.65902,1.67082,-0.23818,0.81614,5.06871,-0.20803,1.37140,A,104339.50
5.08506,57.68780792,11.98137105,57.68785,11.98136,10:43:39.602466,0.01087,1.71262,-0.00238,0.04008,-0.03293,-0.01948,0.04781,-0.35825,0.18422,1.29308,5.07878,1.27214,1.67603,1.68793,-0.23453,1.12203,5.06871,-0.20803,1.37140,A,104339.50
5.09858,57.68780792,11.98137105,57.68785,11.98136,10:43:39.615742,0.00622,1.71262,-0.00268,0.04189,0.00937,0.09231,0.06583,0.00201,-0.00348,1.32169,5.09429,1.27214,1.67603,1.68793,-0.23453,1.12203,5.06871,-0.20803,1.37140,A,104339.50
5.10618,57.68780792,11.98137105,57.68785,11.98136,10:43:39.623324,0.00343,1.71262,-0.00306,0.04330,0.00876,0.08208,0.07332,0.17782,-0.00207,1.16717,5.10179,1.27214,1.67603,1.68793,-0.23453,1.12203,5.06871,-0.20803,1.37140,A,104339.50
5.11669,57.68780792,11.98137105,57.68785,11.98136,10:43:39.633835,0.00356,1.71262,-0.00517,0.04559,0.00418,0.01580,0.08050,0.18629,-0.11315,0.98747,5.11243,1.27214,1.67603,1.68793,-0.23453,1.12203,5.06871,-0.20803,1.37140,A,104339.50
5.12733,57.68780792,11.98137105,57.68785,11.98136,10:43:39.644483,0.00366,1.71262,-0.00586,0.04794,-0.01949,-0.05262,0.07301,0.04258,-0.00348,0.93428,5.12292,1.27214,1.67603,1.68793,-0.23453,1.12203,5.06871,-0.20803,1.37140,A,104339.50
5.13717,57.68780792,11.98137105,57.68785,11.98136,10:43:39.654544,0.00327,1.71262,-0.00537,0.05018,-0.01506,-0.07659,0.06782,-0.00634,0.06283,0.86010,5.13297,1.27214,1.67603,1.68793,-0.23453,1.12203,5.06871,-0.20803,1.37140,A,104339.50
5.14779,57.68780792,11.98137105,57.68785,11.98136,10:43:39.664947,0.00351,1.71262,-0.00452,0.05219,-0.01415,-0.07033,0.05698,-0.21905,0.08894,0.91634,5.14352,1.27214,1.67603,1.68793,-0.23453,1.12203,5.06871,-0.20803,1.37140,A,104339.50
5.15820,57.68780792,11.98137105,57.68785,11.98136,10:43:39.675347,0.00352,1.71262,-0.00402,0.05383,-0.00667,-0.02406,0.05392,-0.17312,0.06606,0.96734,5.15372,1.27214,1.67603,1.68793,-0.23453,1.12203,5.06871,-0.20803,1.37140,A,104339.50
5.16847,57.68780792,11.98137105,57.68785,11.98136,10:43:39.685619,0.00357,1.71262,-0.00267,0.05516,-0.00972,0.04283,0.05163,-0.12908,0.12865,0.99833,5.16420,1.27214,1.67603,1.68793,-0.23453,1.12203,5.06871,-0.20803,1.37140,A,104339.50
5.19167,57.68780792,11.98137105,57.68785,11.98136,10:43:39.708820,0.01638,1.71262,-0.00032,0.05612,-0.00987,0.06940,0.05133,0.07314,0.18867,0.95142,5.17462,1.27214,1.67603,1.68793,-0.23453,1.12203,5.19022,-0.30709,1.46407,A,104339.60
5.20592,57.68780996,11.98137039,57.68785,11.98136,10:43:39.723081,0.00692,1.71262,-0.00016,0.05720,0.01349,0.01336,0.07393,0.03367,0.02385,0.88596,5.19876,1.31619,1.75169,1.76868,-0.27408,1.34830,5.19022,-0.30709,1.46407,A,104339.60
5.21279,57.68780996,11.98137039,57.68785,11.98136,10:43:39.729936,0.00326,1.71262,-0.00163,0.05723,0.01151,-0.02055,0.07347,0.00988,-0.06393,0.92988,5.20859,1.31619,1.75169,1.76868,-0.27408,1.34830,5.19022,-0.30709,1.46407,A,104339.60
5.22343,57.68780996,11.98137039,57.68785,11.98136,10:43:39.740574,0.00351,1.71262,-0.00173,0.05723,-0.01766,-0.03765,0.07698,-0.07003,0.04343,1.14454,5.21916,1.31619,1.75169,1.76868,-0.27408,1.34830,5.19022,-0.30709,1.46407,A,104339.60
5.23391,57.68780996,11.98137039,57.68785,11.98136,10:43:39.751059,0.00359,1.71262,-0.00057,0.05723,-0.01201,-0.01963,0.07622,-0.03495,0.13932,1.18926,5.22934,1.31619,1.75169,1.76868,-0.27408,1.34830,5.19022,-0.30709,1.46407,A,104339.60
5.24422,57.68780996,11.98137039,57.68785,11.98136,10:43:39.761366,0.00352,1.71262,0.00003,0.05723,-0.00758,0.00389,0.08630,-0.00311,0.08796,1.10880,5.23995,1.31619,1.75169,1.76868,-0.27408,1.34830,5.19022,-0.30709,1.46407,A,104339.60
5.25481,57.68780996,11.98137039,57.68785,11.98136,10:43:39.771968,0.00373,1.71262,0.00096,0.05723,0.00250,0.01107,0.08172,-0.07771,0.10077,1.05908,5.25033,1.31619,1.75169,1.76868,-0.27408,1.34830,5.19022,-0.30709,1.46407,A,104339.60
5.26493,57.68780996,11.98137039,57.68785,11.98136,10:43:39.782292,0.00332,1.71262,0.00097,0.05723,-0.00514,0.03061,0.06904,-0.04648,0.03642,0.83033,5.26067,1.31619,1.75169,1.76868,-0.27408,1.34830,5.19022,-0.30709,1.46407,A,104339.60
5.27549,57.68780996,11.98137039,57.68785,11.98136,10:43:39.792640,0.00350,1.71262,0.00148,0.05723,-0.00163,0.00710,0.05637,-0.02409,0.05813,0.75945,5.27123,1.31619,1.75169,1.76868,-0.27408,1.34830,5.19022,-0.30709,1.46407,A,104339.60
5.28598,57.68780996,11.98137039,57.68785,11.98136,10:43:39.803136,0.00360,1.71262,0.00189,0.05723,-0.01064,-0.01581,0.05621,-0.05301,0.06313,0.84674,5.28142,1.31619,1.75169,1.76868,-0.27408,1.34830,5.19022,-0.30709,1.46407,A,104339.60
5.30881,57.68780996,11.98137039,57.68785,11.98136,10:43:39.825968,0.01604,1.71262,0.00256,0.05723,-0.00728,-0.02100,0.05530,-0.05264,0.08674,0.99558,5.29202,1.31619,1.75169,1.76868,-0.27408,1.34830,5.30738,-0.36653,1.61233,A,104339.70
5.32745,57.68781174,11.98136946,57.68785,11.98136,10:43:39.844605,0.00861,1.71262,0.00279,0.05723,0.00983,-0.02253,0.06904,-0.12334,0.03916,1.16065,5.32004,1.35583,1.77820,1.79520,-0.32949,1.54584,5.30738,-0.36653,1.61233,A,104339.70
5.33355,57.68781174,11.98136946,57.68785,11.98136,10:43:39.850709,0.00359,1.75884,0.00280,0.05723,0.01594,0.00328,0.06583,-0.10504,0.03154,1.06573,5.32913,1.35583,1.77820,1.79520,-0.32949,1.54584,5.30738,-0.36653,1.61233,A,104339.70
5.34386,57.68781174,11.98136946,57.68785,11.98136,10:43:39.861011,0.00352,1.75884,0.00195,0.05723,0.01823,-0.00039,0.06232,0.05472,-0.02733,0.94007,5.33960,1.35583,1.77820,1.79520,-0.32949,1.54584,5.30738,-0.36653,1.61233,A,104339.70
5.35455,57.68781174,11.98136946,57.68785,11.98136,10:43:39.871704,0.00382,1.75884,0.00107,0.05723,0.01945,-0.02177,0.05957,0.02062,-0.02843,0.91103,5.34977,1.35583,1.77820,1.79520,-0.32949,1.54584,5.30738,-0.36653,1.61233,A,104339.70
5.36461,57.68781174,11.98136946,57.68785,11.98136,10:43:39.881753,0.00348,1.75884,0.00084,0.05723,0.01349,-0.03887,0.05682,-0.00927,0.01311,0.89200,5.36035,1.35583,1.77820,1.79520,-0.32949,1.54584,5.30738,-0.36653,1.61233,A,104339.70
5.37504,57.68781174,11.98136946,57.68785,11.98136,10:43:39.892187,0.00352,1.75884,0.00093,0.05723,0.01181,-0.03475,0.05652,-0.18703,0.03520,0.99778,5.37077,1.35583,1.77820,1.79520,-0.32949,1.54584,5.30738,-0.36653,1.61233,A,104339.70
5.38509,57.68781174,11.98136946,57.68785,11.98136,10:43:39.902475,0.00334,1.75884,0.00247,0.05723,0.02999,0.02924,0.05927,-0.25742,0.15006,1.27685,5.38082,1.35583,1.77820,1.79520,-0.32949,1.54584,5.30738,-0.36653,1.61233,A,104339.70
5.39577,57.68781174,11.98136946,57.68785,11.98136,10:43:39.912928,0.00364,1.75884,0.00391,0.05723,0.03121,0.10377,0.05606,-0.17678,0.13652,1.23610,5.39150,1.35583,1.77820,1.79520,-0.32949,1.54584,5.30738,-0.36653,1.61233,A,104339.70
5.40604,57.68781174,11.98136946,57.68785,11.98136,10:43:39.923189,0.00352,1.75884,0.00349,0.05723,0.05442,0.12041,0.06446,0.07302,-0.02513,1.03432,5.40156,1.35583,1.77820,1.79520,-0.32949,1.54584,5.30738,-0.36653,1.61233,A,104339.70
5.44008,57.68781174,11.98136946,57.68785,11.98135,10:43:39.957236,0.02718,1.75884,0.00324,0.05723,0.04724,0.07460,0.05652,0.19496,-0.00781,0.92702,5.41220,1.35583,1.77820,1.79520,-0.32949,1.54584,5.43865,-0.57456,1.79765,A,104339.90
5.45801,57.68781356,11.98136742,57.68785,11.98135,10:43:39.975168,0.00766,1.75884,0.00554,0.05683,0.02113,-0.15081,0.04766,-0.04081,0.10583,0.72858,5.45155,1.39613,1.84917,1.86606,-0.45077,1.74843,5.43865,-0.57456,1.79765,A,104339.90
5.46421,57.68781356,11.98136742,57.68785,11.98135,10:43:39.981356,0.00346,1.75884,0.00711,0.05604,0.02586,-0.13050,0.04079,-0.35435,0.14542,1.11063,5.46001,1.39613,1.84917,1.86606,-0.45077,1.74843,5.43865,-0.57456,1.79765,A,104339.90
5.47472,57.68781356,11.98136742,57.68785,11.98135,10:43:39.991866,0.00358,1.75884,0.00867,0.05437,0.04847,0.01275,0.03239,-0.50038,0.16000,1.46644,5.47044,1.39613,1.84917,1.86606,-0.45077,1.74843,5.43865,-0.57456,1.79765,A,104339.90
5.48498,57.68781356,11.98136742,57.68785,11.98135,10:43:40.002333,0.00333,1.75884,0.00937,0.05182,0.05870,0.12560,0.02277,0.08821,0.06130,1.28356,5.48071,1.39613,1.84917,1.86606,-0.45077,1.74843,5.43865,-0.57456,1.79765,A,104339.90
5.49570,57.68781356,11.98136742,57.68785,11.98135,10:43:40.012848,0.00366,1.75884,0.00876,0.04871,0.04770,0.10468,0.01467,0.39534,-0.03373,1.07756,5.49143,1.39613,1.84917,1.86606,-0.45077,1.74843,5.43865,-0.57456,1.79765,A,104339.90
5.50596,57.68781356,11.98136742,57.68785,11.98135,10:43:40.023112,0.00353,1.75884,0.00831,0.04554,0.04113,0.01779,0.01880,0.12883,-0.01690,1.05445,5.50147,1.39613,1.84917,1.86606,-0.45077,1.74843,5.43865,-0.57456,1.79765,A,104339.90
5.51632,57.68781356,11.98136742,57.68785,11.98135,10:43:40.033467,0.00350,1.75884,0.00680,0.04234,0.03777,-0.02971,0.01193,-0.00970,-0.07662,0.90445,5.51205,1.39613,1.84917,1.86606,-0.45077,1.74843,5.43865,-0.57456,1.79765,A,104339.90
5.52671,57.68781356,11.98136742,57.68785,11.98135,10:43:40.043859,0.00349,1.75884,0.00426,0.03957,0.03289,-0.06911,0.01635,-0.23485,-0.12987,0.84772,5.52243,1.39613,1.84917,1.86606,-0.45077,1.74843,5.43865,-0.57456,1.79765,A,104339.90
5.53710,57.68781356,11.98136742,57.68785,11.98135,10:43:40.054490,0.00335,1.75884,0.00251,0.03710,0.02327,-0.06514,0.00185,-0.22277,-0.08662,0.89993,5.53283,1.39613,1.84917,1.86606,-0.45077,1.74843,5.43865,-0.57456,1.79765,A,104339.90
5.56049,57.68781356,11.98136742,57.68785,11.98135,10:43:40.077644,0.01635,1.75884,0.00370,0.03504,0.02861,-0.01413,0.00429,-0.04105,0.07686,0.81295,5.54338,1.39613,1.84917,1.86606,-0.45077,1.74843,5.55905,-0.63400,1.96444,A,104340.00
5.57451,57.68781516,11.98136571,57.68785,11.98135,10:43:40.091666,0.00672,1.75884,0.00533,0.03139,0.07061,0.01168,0.01238,-0.02775,0.02965,1.07348,5.56799,1.43240,1.86219,1.87151,-0.55199,1.92666,5.55905,-0.63400,1.96444,A,104340.00
5.58151,57.68781516,11.98136571,57.68785,11.98135,10:43:40.098661,0.00350,1.75884,0.00571,0.03000,0.07214,0.00801,0.00353,-0.13640,0.01677,0.99924,5.57711,1.43240,1.86219,1.87151,-0.55199,1.92666,5.55905,-0.63400,1.96444,A,104340.00
5.59192,57.68781516,11.98136571,57.68785,11.98135,10:43:40.109072,0.00352,1.75884,0.00547,0.02847,0.06954,0.00725,-0.00625,-0.08571,-0.03050,1.02614,5.58765,1.43240,1.86219,1.87151,-0.55199,1.92666,5.55905,-0.63400,1.96444,A,104340.00
5.60230,57.68781516,11.98136571,57.68785,11.98135,10:43:40.119446,0.00351,1.75884,0.00602,0.02700,0.06817,-0.00558,-0.00319,0.01842,0.02355,0.98210,5.59801,1.43240,1.86219,1.87151,-0.55199,1.92666,5.55905,-0.63400,1.96444,A,104340.00
5.61273,57.68781516,11.98136571,57.68785,11.98135,10:43:40.129872,0.00355,1.75884,0.00622,0.02558,0.05809,-0.03521,-0.00839,0.20209,0.00738,0.96191,5.60846,1.43240,1.86219,1.87151,-0.55199,1.92666,5.55905,-0.63400,1.96444,A,104340.00
5.62309,57.68781516,11.98136571,57.68785,11.98135,10:43:40.140242,0.00353,1.75884,0.00742,0.02445,0.05518,-0.06483,-0.00243,0.06143,0.07363,0.96288,5.61882,1.43240,1.86219,1.87151,-0.55199,1.92666,5.55905,-0.63400,1.96444,A,104340.00
5.63313,57.68781516,11.98136571,57.68785,11.98135,10:43:40.150516,0.00334,1.75884,0.01001,0.02352,0.06755,-0.05323,0.00673,-0.15945,0.18239,1.11270,5.62886,1.43240,1.86219,1.87151,-0.55199,1.92666,5.55905,-0.63400,1.96444,A,104340.00
5.64369,57.68781516,11.98136571,57.68785,11.98135,10:43:40.160841,0.00351,1.75884,0.01219,0.02273,0.09901,-0.00375,0.00566,-0.29786,0.12108,1.06213,5.63942,1.43240,1.86219,1.87151,-0.55199,1.92666,5.55905,-0.63400,1.96444,A,104340.00
5.65417,57.68781516,11.98136571,57.68785,11.98135,10:43:40.171321,0.00360,1.75884,0.01265,0.02208,0.10833,0.03718,0.00383,-0.12462,-0.00226,0.96679,5.64961,1.43240,1.86219,1.87151,-0.55199,1.92666,5.55905,-0.63400,1.96444,A,104340.00
5.67704,57.68781516,11.98136571,57.68785,11.98135,10:43:40.194310,0.01608,1.75884,0.01262,0.02137,0.10604,0.03245,-0.00609,0.05368,-0.03148,0.88511,5.66019,1.43240,1.86219,1.87151,-0.55199,1.92666,5.67562,-0.82221,2.11270,A,104340.10
5.69237,57.68781668,11.98136340,57.68785,11.98135,10:43:40.209530,0.00775,1.75884,0.01544,0.01992,0.08832,-0.05689,-0.00884,-0.08827,0.08381,1.03547,5.68538,1.46505,1.92721,1.93312,-0.68941,2.09565,5.67562,-0.82221,2.11270,A,104340.10
5.69846,57.68781668,11.98136340,57.68785,11.98135,10:43:40.215605,0.00344,1.75884,0.01701,0.01961,0.08955,-0.06056,-0.01327,-0.17580,0.10437,1.10770,5.69426,1.46505,1.92721,1.93312,-0.68941,2.09565,5.67562,-0.82221,2.11270,A,104340.10
5.70889,57.68781668,11.98136340,57.68785,11.98135,10:43:40.226041,0.00334,1.75884,0.01874,0.01941,0.10451,-0.02742,-0.01236,-0.10815,0.09138,1.04664,5.70462,1.46505,1.92721,1.93312,-0.68941,2.09565,5.67562,-0.82221,2.11270,A,104340.10
5.71959,57.68781668,11.98136340,57.68785,11.98135,10:43:40.236743,0.00365,1.75884,0.02123,0.01927,0.11123,-0.01551,-0.00793,0.06045,0.13066,0.97685,5.71531,1.46505,1.92721,1.93312,-0.68941,2.09565,5.67562,-0.82221,2.11270,A,104340.10
5.72969,57.68781668,11.98136340,57.68785,11.98135,10:43:40.246847,0.00353,1.75884,0.02278,0.01910,0.11688,-0.02818,-0.00900,0.02812,0.07296,0.97460,5.72527,1.46505,1.92721,1.93312,-0.68941,2.09565,5.67562,-0.82221,2.11270,A,104340.10
5.74006,57.68781668,11.98136340,57.68785,11.98135,10:43:40.257206,0.00351,1.75884,0.02328,0.01879,0.11047,-0.03689,-0.01083,0.04166,0.00622,0.99216,5.73579,1.46505,1.92721,1.93312,-0.68941,2.09565,5.67562,-0.82221,2.11270,A,104340.10
5.75047,57.68781668,11.98136340,57.68785,11.98135,10:43:40.267620,0.00354,1.72943,0.02403,0.01828,0.10558,-0.05384,-0.01831,-0.19959,0.02623,0.99174,5.74620,1.46505,1.92721,1.93312,-0.68941,2.09565,5.67562,-0.82221,2.11270,A,104340.10
5.76084,57.68781668,11.98136340,57.68785,11.98135,10:43:40.277990,0.00334,1.72943,0.02524,0.01760,0.09749,-0.02528,-0.01877,-0.11743,0.06234,0.96911,5.75657,1.46505,1.92721,1.93312,-0.68941,2.09565,5.67562,-0.82221,2.11270,A,104340.10
5.77141,57.68781668,11.98136340,57.68785,11.98135,10:43:40.288563,0.00353,1.72943,0.02743,0.01681,0.09672,-0.01474,-0.02289,0.05459,0.12090,0.92458,5.76715,1.46505,1.92721,1.93312,-0.68941,2.09565,5.67562,-0.82221,2.11270,A,104340.10
5.79444,57.68781668,11.98136340,57.68786,11.98135,10:43:40.311588,0.01616,1.72943,0.02913,0.01591,0.10100,-0.01932,-0.01510,0.01763,0.09821,0.99485,5.77732,1.46505,1.92721,1.93312,-0.68941,2.09565,5.79286,-0.91137,2.29803,A,104340.20
5.80769,57.68781824,11.98136131,57.68786,11.98135,10:43:40.324846,0.00691,1.72943,0.03176,0.01330,0.09107,-0.01490,-0.00945,-0.03184,0.08760,1.02273,5.80128,1.49148,1.93884,1.94278,-0.81347,2.26967,5.79286,-0.91137,2.29803,A,104340.20
5.81499,57.68781824,11.98136131,57.68786,11.98135,10:43:40.332140,0.00382,1.72943,0.03236,0.01174,0.07947,-0.02055,-0.01541,0.00982,0.04770,1.01858,5.81078,1.49148,1.93884,1.94278,-0.81347,2.26967,5.79286,-0.91137,2.29803,A,104340.20
5.82500,57.68781824,11.98136131,57.68786,11.98135,10:43:40.342479,0.00334,1.72943,0.03308,0.00971,0.08115,-0.03139,-0.02534,0.00415,0.05258,1.03669,5.82073,1.49148,1.93884,1.94278,-0.81347,2.26967,5.79286,-0.91137,2.29803,A,104340.20
5.83614,57.68781824,11.98136131,57.68786,11.98135,10:43:40.353299,0.00409,1.72943,0.03360,0.00705,0.05900,-0.04727,-0.03190,0.13518,0.04666,0.98704,5.83187,1.49148,1.93884,1.94278,-0.81347,2.26967,5.79286,-0.91137,2.29803,A,104340.20
5.84591,57.68781824,11.98136131,57.68786,11.98135,10:43:40.363058,0.00346,1.72943,0.03430,0.00453,0.05030,-0.06957,-0.03649,-0.03184,0.07064,0.99332,5.84149,1.49148,1.93884,1.94278,-0.81347,2.26967,5.79286,-0.91137,2.29803,A,104340.20
5.85671,57.68781824,11.98136131,57.68786,11.98135,10:43:40.373863,0.00401,1.72943,0.03592,0.00170,0.03762,-0.05598,-0.04443,-0.14884,0.14402,1.04725,5.85242,1.49148,1.93884,1.94278,-0.81347,2.26967,5.79286,-0.91137,2.29803,A,104340.20
5.86732,57.68781824,11.98136131,57.68786,11.98135,10:43:40.384466,0.00367,1.72943,0.03658,-0.00108,0.03671,-0.01276,-0.04595,-0.13066,0.07790,1.03572,5.86305,1.49148,1.93884,1.94278,-0.81347,2.26967,5.79286,-0.91137,2.29803,A,104340.20
5.87715,57.68781824,11.98136131,57.68786,11.98135,10:43:40.394520,0.00328,1.72943,0.03756,-0.00362,0.03411,0.00114,-0.05176,0.01592,0.09699,0.96606,5.87295,1.49148,1.93884,1.94278,-0.81347,2.26967,5.79286,-0.91137,2.29803,A,104340.20
5.88775,57.68781824,11.98136131,57.68786,11.98135,10:43:40.404899,0.00349,1.72943,0.03743,-0.00609,0.03136,-0.01322,-0.05542,0.09736,0.02355,0.90487,5.88350,1.49148,1.93884,1.94278,-0.81347,2.26967,5.79286,-0.91137,2.29803,A,104340.20
5.91171,57.68781824,11.98136131,57.68786,11.98135,10:43:40.428867,0.01706,1.72943,0.03756,-0.00824,0.01746,-0.04223,-0.05344,0.02318,0.04752,0.88859,5.89415,1.49148,1.93884,1.94278,-0.81347,2.26967,5.90951,-0.95100,2.50189,A,104340.30
5.93174,57.68781999,11.98135972,57.68786,11.98135,10:43:40.448904,0.00823,1.72943,0.03827,-0.01282,0.00937,-0.02788,-0.05725,-0.03788,0.09254,1.09861,5.92459,1.51528,1.92304,1.91923,-0.90799,2.46383,5.90951,-0.95100,2.50189,A,104340.30
5.93693,57.68781999,11.98135972,57.68786,11.98135,10:43:40.454324,0.00325,1.72943,0.03833,-0.01390,0.00708,-0.01306,-0.05588,0.01488,0.06332,1.11929,5.93276,1.51528,1.92304,1.91923,-0.90799,2.46383,5.90951,-0.95100,2.50189,A,104340.30
5.94759,57.68781999,11.98135972,57.68786,11.98135,10:43:40.464738,0.00351,1.72943,0.03883,-0.01478,0.00097,-0.01658,-0.06077,0.06222,0.09205,1.04243,5.94333,1.51528,1.92304,1.91923,-0.90799,2.46383,5.90951,-0.95100,2.50189,A,104340.30
5.95875,57.68781999,11.98135972,57.68786,11.98135,10:43:40.475903,0.00427,1.72943,0.03966,-0.01545,-0.00437,-0.03521,-0.05710,0.03691,0.11480,1.00095,5.95375,1.51528,1.92304,1.91923,-0.90799,2.46383,5.90951,-0.95100,2.50189,A,104340.30
5.96828,57.68781999,11.98135972,57.68786,11.98135,10:43:40.485428,0.00341,1.72943,0.04049,-0.01599,-0.00269,-0.04315,-0.06336,-0.09284,0.11004,0.96264,5.96409,1.51528,1.92304,1.91923,-0.90799,2.46383,5.90951,-0.95100,2.50189,A,104340.30
5.97876,57.68781999,11.98135972,57.68786,11.98135,10:43:40.495913,0.00349,1.72943,0.04011,-0.01647,-0.00728,-0.02513,-0.06229,-0.12035,0.03068,0.85925,5.97449,1.51528,1.92304,1.91923,-0.90799,2.46383,5.90951,-0.95100,2.50189,A,104340.30
5.98898,57.68781999,11.98135972,57.68786,11.98135,10:43:40.506351,0.00333,1.72943,0.04028,-0.01690,-0.01934,-0.01413,-0.05970,-0.02251,0.06643,0.82399,5.98471,1.51528,1.92304,1.91923,-0.90799,2.46383,5.90951,-0.95100,2.50189,A,104340.30
6.00064,57.68781999,11.98135972,57.68786,11.98135,10:43:40.517788,0.00460,1.72943,0.04075,-0.01738,-0.02530,-0.01062,-0.06077,0.07326,0.08723,0.81905,5.99637,1.51528,1.92304,1.91923,-0.90799,2.46383,5.90951,-0.95100,2.50189,A,104340.30
6.00990,57.68781999,11.98135972,57.68786,11.98135,10:43:40.527051,0.00347,1.72943,0.04064,-0.01780,-0.03186,-0.02696,-0.06550,0.03697,0.06466,0.93769,6.00546,1.51528,1.92304,1.91923,-0.90799,2.46383,5.90951,-0.95100,2.50189,A,104340.30
6.04400,57.68781999,11.98135972,57.68786,11.98134,10:43:40.561151,0.02718,1.72943,0.04100,-0.01837,-0.03706,-0.02360,-0.06535,-0.06039,0.11297,1.05188,6.01619,1.51528,1.92304,1.91923,-0.90799,2.46383,6.04257,-1.01043,2.90960,A,104340.50
6.06437,57.68782260,11.98135835,57.68786,11.98134,10:43:40.581527,0.00901,1.72943,0.03895,-0.01967,-0.06332,-0.05231,-0.05985,0.06252,0.08686,0.91994,6.05815,1.53669,1.90035,1.89451,-0.98956,2.75388,6.04257,-1.01043,2.90960,A,104340.50
6.06884,57.68782260,11.98135835,57.68786,11.98134,10:43:40.585974,0.00319,1.72943,0.03953,-0.01967,-0.06714,-0.06208,-0.05832,-0.01068,0.11285,0.92073,6.06467,1.53669,1.90035,1.89451,-0.98956,2.75388,6.04257,-1.01043,2.90960,A,104340.50
6.07996,57.68782260,11.98135835,57.68786,11.98134,10:43:40.597114,0.00391,1.72943,0.03937,-0.01967,-0.07203,-0.05078,-0.05573,-0.13176,0.08638,0.90585,6.07531,1.53669,1.90035,1.89451,-0.98956,2.75388,6.04257,-1.01043,2.90960,A,104340.50
6.08997,57.68782260,11.98135835,57.68786,11.98134,10:43:40.607125,0.00354,1.72943,0.03982,-0.01967,-0.06867,-0.02268,-0.05863,-0.18660,0.12389,0.94318,6.08547,1.53669,1.90035,1.89451,-0.98956,2.75388,6.04257,-1.01043,2.90960,A,104340.50
6.10033,57.68782260,11.98135835,57.68786,11.98134,10:43:40.617470,0.00350,1.72943,0.03954,-0.01967,-0.06928,0.01076,-0.06336,-0.01220,0.07759,0.91500,6.09607,1.53669,1.90035,1.89451,-0.98956,2.75388,6.04257,-1.01043,2.90960,A,104340.50
6.11070,57.68782260,11.98135835,57.68786,11.98134,10:43:40.627854,0.00349,1.72943,0.03826,-0.01967,-0.06684,0.01336,-0.07360,0.01915,0.01440,0.95166,6.10644,1.53669,1.90035,1.89451,-0.98956,2.75388,6.04257,-1.01043,2.90960,A,104340.50
6.12083,57.68782260,11.98135835,57.68786,11.98134,10:43:40.637982,0.00335,1.72943,0.03671,-0.01967,-0.07539,0.00175,-0.06993,0.04990,0.00116,1.01449,6.11657,1.53669,1.90035,1.89451,-0.98956,2.75388,6.04257,-1.01043,2.90960,A,104340.50
6.13138,57.68782260,11.98135835,57.68786,11.98134,10:43:40.648523,0.00351,1.72943,0.03630,-0.01967,-0.08486,-0.00955,-0.06764,-0.05667,0.09138,1.08086,6.12712,1.53669,1.90035,1.89451,-0.98956,2.75388,6.04257,-1.01043,2.90960,A,104340.50
6.14179,57.68782260,11.98135835,57.68786,11.98134,10:43:40.658940,0.00353,1.72943,0.03668,-0.01967,-0.08119,-0.00054,-0.05878,-0.06936,0.14524,1.08867,6.13730,1.53669,1.90035,1.89451,-0.98956,2.75388,6.04257,-1.01043,2.90960,A,104340.50
6.16625,57.68782260,11.98135835,57.68786,11.98134,10:43:40.683404,0.01760,1.72943,0.03655,-0.01967,-0.07279,-0.00436,-0.04870,0.03111,0.09528,1.00156,6.14798,1.53669,1.90035,1.89451,-0.98956,2.75388,6.16427,-1.07978,3.05786,A,104340.60
6.17840,57.68782457,11.98135719,57.68786,11.98134,10:43:40.695554,0.00579,1.75071,0.03372,-0.01967,-0.08852,-0.03566,-0.04488,-0.07698,0.00293,1.01742,6.17194,1.55810,1.90864,1.90280,-1.05846,2.97326,6.16427,-1.07978,3.05786,A,104340.60
6.18647,57.68782457,11.98135719,57.68786,11.98134,10:43:40.703611,0.00346,1.75071,0.03287,-0.01967,-0.10257,-0.02879,-0.04427,-0.03312,0.06112,0.97765,6.18226,1.55810,1.90864,1.90280,-1.05846,2.97326,6.16427,-1.07978,3.05786,A,104340.60
6.19686,57.68782457,11.98135719,57.68786,11.98134,10:43:40.714005,0.00333,1.75071,0.03291,-0.01967,-0.10746,-0.01092,-0.05542,-0.12298,0.11883,0.95630,6.19259,1.55810,1.90864,1.90280,-1.05846,2.97326,6.16427,-1.07978,3.05786,A,104340.60
