Time,lat_estimated,lon_estimated,latitude,longitude,RealTime,CalculationTime,MeasuredVelocity,FilteredVelocity,Roll,SteeringAngle,RollRate,gy,gz,ax,ay,az,imu_read_timing,v_estimated,yaw_estimated,heading_estimated,x_estimated,y_estimated,GPS_timestamp,x_GPS,y_GPS,theta_GPS,theta_GPS_noUnwrap,status,NMEA timestamp
0.05297,0.00000000,0.00000000,0.00000000,0.00000000,15:07:25.427575,0.05291,0.00000,0.00000,0.00000,0.00025,0.00000,0.00000,0.00000,0.00000,0.00000,0.00000,0.00000,0.00000,0.00000,0.00000,0.00000,0.00000,0.00000,0.00000,0.00000,0.00000,0.00000,No status,0.0
0.11852,0.00000000,0.00000000,0.00000000,0.00000000,15:07:25.491520,0.04845,0.00000,0.00000,0.00000,0.00025,0.00000,0.00000,0.00000,0.00000,0.00000,0.00000,0.00000,0.00000,0.00000,0.00000,0.00000,0.00000,0.00000,0.00000,0.00000,0.00000,0.00000,No status,0.0
0.17977,0.00000000,0.00000000,0.00000000,0.00000000,15:07:25.552794,0.06020,0.00000,0.00000,0.00000,0.00025,0.00000,0.00000,0.00000,0.00000,0.00000,0.00000,0.00000,0.00000,0.00000,0.00000,0.00000,0.00000,0.00000,0.00000,0.00000,0.00000,0.00000,No status,0.0
0.24929,0.00000000,0.00000000,0.00000000,0.00000000,15:07:25.622313,0.05296,0.00000,0.00000,0.00000,0.00025,0.00000,0.00000,0.00000,0.00000,0.00000,0.00000,0.00000,0.00000,0.00000,0.00000,0.00000,0.00000,0.00000,0.00000,0.00000,0.00000,0.00000,No status,0.0
0.31044,0.00000000,0.00000000,0.00000000,0.00000000,15:07:25.683471,0.05110,0.00000,0.00000,0.00000,0.00025,0.00000,0.00000,0.00000,0.00000,0.00000,0.00000,0.00000,0.00000,0.00000,0.00000,0.00000,0.00000,0.00000,0.00000,0.00000,0.00000,0.00000,No status,0.0
0.36479,0.00000000,0.00000000,0.00000000,0.00000000,15:07:25.737805,0.03753,0.00000,0.00000,0.00000,0.00025,0.00000,0.00000,0.00000,0.00000,0.00000,0.00000,0.00000,0.00000,0.00000,0.00000,0.00000,0.00000,0.00000,0.00000,0.00000,0.00000,0.00000,No status,0.0
0.41793,0.00000000,0.00000000,0.00000000,0.00000000,15:07:25.790951,0.04113,0.00000,0.00000,0.00000,0.00025,0.00000,0.00000,0.00000,0.00000,0.00000,0.00000,0.00000,0.00000,0.00000,0.00000,0.00000,0.00000,0.00000,0.00000,0.00000,0.00000,0.00000,No status,0.0
0.46583,0.00000000,0.00000000,0.00000000,0.00000000,15:07:25.838849,0.03862,0.00000,0.00000,0.00000,0.00025,0.00000,0.00000,0.00000,0.00000,0.00000,0.00000,0.00000,0.00000,0.00000,0.00000,0.00000,0.00000,0.00000,0.00000,0.00000,0.00000,0.00000,No status,0.0
0.50993,0.00000000,0.00000000,0.00000000,0.00000000,15:07:25.882952,0.03364,0.00000,0.00000,0.00000,0.00025,0.00000,0.00000,0.00000,0.00000,0.00000,0.00000,0.00000,0.00000,0.00000,0.00000,0.00000,0.00000,0.00000,0.00000,0.00000,0.00000,0.00000,No status,0.0
0.56569,0.00000000,0.00000000,0.00000000,0.00000000,15:07:25.938711,0.04479,0.00000,0.00000,0.00000,0.00025,0.00000,0.00000,0.00000,0.00000,0.00000,0.00000,0.00000,0.00000,0.00000,0.00000,0.00000,0.00000,0.00000,0.00000,0.00000,0.00000,0.00000,No status,0.0
0.61062,0.00000000,0.00000000,0.00000000,0.00000000,15:07:25.983614,0.03315,0.00000,0.00000,0.00000,0.00025,0.00000,0.00000,0.00000,0.00000,0.00000,0.00000,0.00000,0.00000,0.00000,0.00000,0.00000,0.00000,0.00000,0.00000,0.00000,0.00000,0.00000,No status,0.0
0.67429,0.00000000,0.00000000,0.00000000,0.00000000,15:07:26.047307,0.05013,0.00000,0.00000,0.00000,0.00025,0.00000,0.00000,0.00000,0.00000,0.00000,0.00000,0.00000,0.00000,0.00000,0.00000,0.00000,0.00000,0.00000,0.00000,0.00000,0.00000,0.00000,No status,0.0
0.72248,0.00000000,0.00000000,0.00000000,0.00000000,15:07:26.095505,0.03520,0.00000,0.00000,0.00000,0.00025,0.00000,0.00000,0.00000,0.00000,0.00000,0.00000,0.00000,0.00000,0.00000,0.00000,0.00000,0.00000,0.00000,0.00000,0.00000,0.00000,0.00000,No status,0.0
0.77864,0.00000000,0.00000000,0.00000000,0.00000000,15:07:26.151662,0.04247,0.00000,0.00000,0.00000,0.00025,0.00000,0.00000,0.00000,0.00000,0.00000,0.00000,0.00000,0.00000,0.00000,0.00000,0.00000,0.00000,0.00000,0.00000,0.00000,0.00000,0.00000,No status,0.0
0.83534,0.00000000,0.00000000,0.00000000,0.00000000,15:07:26.208360,0.04576,0.00000,0.00000,0.00000,0.00025,0.00000,0.00000,0.00000,0.00000,0.00000,0.00000,0.00000,0.00000,0.00000,0.00000,0.00000,0.00000,0.00000,0.00000,0.00000,0.00000,0.00000,No status,0.0
0.87447,0.00000000,0.00000000,0.00000000,0.00000000,15:07:26.247463,0.02681,0.00000,0.00000,0.00000,0.00025,0.00000,0.00000,0.00000,0.00000,0.00000,0.00000,0.00000,0.00000,0.00000,0.00000,0.00000,0.00000,0.00000,0.00000,0.00000,0.00000,0.00000,No status,0.0
0.91885,0.00000000,0.00000000,0.00000000,0.00000000,15:07:26.291875,0.04340,0.00000,0.00000,0.00000,0.00025,0.00000,0.00000,0.00000,0.00000,0.00000,0.00000,0.00000,0.00000,0.00000,0.00000,0.00000,0.00000,0.00000,0.00000,0.00000,0.00000,0.00000,No status,0.0
0.96454,0.00000000,0.00000000,0.00000000,0.00000000,15:07:26.338993,0.03521,0.00000,0.00000,0.00000,0.00025,0.00000,0.00000,0.00000,0.00000,0.00000,0.00000,0.00000,0.00000,0.00000,0.00000,0.00000,0.00000,0.00000,0.00000,0.00000,0.00000,0.00000,No status,0.0
1.00275,0.00000000,0.00000000,0.00000000,0.00000000,15:07:26.377037,0.02693,0.00000,0.00000,0.00000,0.00025,0.00000,0.00000,0.00000,0.00000,0.00000,0.00000,0.00000,0.00000,0.00000,0.00000,0.00000,0.00000,0.00000,0.00000,0.00000,0.00000,0.00000,No status,0.0
1.04002,0.00000000,0.00000000,0.00000000,0.00000000,15:07:26.414504,0.02943,0.00000,0.00000,0.00000,0.00025,0.00000,0.00000,0.00000,0.00000,0.00000,0.00000,0.00000,0.00000,0.00000,0.00000,0.00000,0.00000,0.00000,0.00000,0.00000,0.00000,0.00000,No status,0.0
1.07347,0.00000000,0.00000000,0.00000000,0.00000000,15:07:26.446481,0.02051,0.00000,0.00000,0.00000,0.00025,0.00000,0.00000,0.00000,0.00000,0.00000,0.00000,0.00000,0.00000,0.00000,0.00000,0.00000,0.00000,0.00000,0.00000,0.00000,0.00000,0.00000,No status,0.0
1.11439,0.00000000,0.00000000,0.00000000,0.00000000,15:07:26.487416,0.03242,0.00000,0.00000,0.00000,0.00025,0.00000,0.00000,0.00000,0.00000,0.00000,0.00000,0.00000,0.00000,0.00000,0.00000,0.00000,0.00000,0.00000,0.00000,0.00000,0.00000,0.00000,No status,0.0
1.16326,0.00000000,0.00000000,0.00000000,0.00000000,15:07:26.536271,0.03906,0.00000,0.00000,0.00000,0.00025,0.00000,0.00000,0.00000,0.00000,0.00000,0.00000,0.00000,0.00000,0.00000,0.00000,0.00000,0.00000,0.00000,0.00000,0.00000,0.00000,0.00000,No status,0.0
1.20417,0.00000000,0.00000000,0.00000000,0.00000000,15:07:26.577186,0.03102,0.00000,0.00000,0.00000,0.00025,0.00000,0.00000,0.00000,0.00000,0.00000,0.00000,0.00000,0.00000,0.00000,0.00000,0.00000,0.00000,0.00000,0.00000,0.00000,0.00000,0.00000,No status,0.0
1.23873,0.00000000,0.00000000,0.00000000,0.00000000,15:07:26.611743,0.02719,0.00000,0.00000,0.00000,0.00025,0.00000,0.00000,0.00000,0.00000,0.00000,0.00000,0.00000,0.00000,0.00000,0.00000,0.00000,0.00000,0.00000,0.00000,0.00000,0.00000,0.00000,No status,0.0
1.29050,0.00000000,0.00000000,0.00000000,0.00000000,15:07:26.663515,0.03681,0.00000,0.00000,0.00000,0.00025,0.00000,0.00000,0.00000,0.00000,0.00000,0.00000,0.00000,0.00000,0.00000,0.00000,0.00000,0.00000,0.00000,0.00000,0.00000,0.00000,0.00000,No status,0.0
1.32610,0.00000000,0.00000000,0.00000000,0.00000000,15:07:26.699111,0.02911,0.00000,0.00000,0.00000,0.00025,0.00000,0.00000,0.00000,0.00000,0.00000,0.00000,0.00000,0.00000,0.00000,0.00000,0.00000,0.00000,0.00000,0.00000,0.00000,0.00000,0.00000,No status,0.0
1.38453,0.00000000,0.00000000,0.00000000,0.00000000,15:07:26.757734,0.05310,0.00000,0.00000,0.00000,0.00025,0.00000,0.00000,0.00000,0.00000,0.00000,0.00000,0.00000,0.00000,0.00000,0.00000,0.00000,0.00000,0.00000,0.00000,0.00000,0.00000,0.00000,No status,0.0
1.44740,0.00000000,0.00000000,0.00000000,0.00000000,15:07:26.820428,0.04987,0.00000,0.00000,0.00000,0.00025,0.00000,0.00000,0.00000,0.00000,0.00000,0.00000,0.00000,0.00000,0.00000,0.00000,0.00000,0.00000,0.00000,0.00000,0.00000,0.00000,0.00000,No status,0.0
1.50486,0.00000000,0.00000000,0.00000000,0.00000000,15:07:26.878561,0.04677,0.00000,0.00000,0.00000,0.00025,0.00000,0.00000,0.00000,0.00000,0.00000,0.00000,0.00000,0.00000,0.00000,0.00000,0.00000,0.00000,0.00000,0.00000,0.00000,0.00000,0.00000,No status,0.0
1.55327,0.00000000,0.00000000,0.00000000,0.00000000,15:07:26.926270,0.04076,0.00000,0.00000,0.00000,0.00025,0.00000,0.00000,0.00000,0.00000,0.00000,0.00000,0.00000,0.00000,0.00000,0.00000,0.00000,0.00000,0.00000,0.00000,0.00000,0.00000,0.00000,No status,0.0
1.59920,0.00000000,0.00000000,0.00000000,0.00000000,15:07:26.972222,0.04464,0.00000,0.00000,0.00000,0.00025,0.00000,0.00000,0.00000,0.00000,0.00000,0.00000,0.00000,0.00000,0.00000,0.00000,0.00000,0.00000,0.00000,0.00000,0.00000,0.00000,0.00000,No status,0.0
1.63942,0.00000000,0.00000000,0.00000000,0.00000000,15:07:27.012412,0.02853,0.00000,0.00000,0.00000,0.00025,0.00000,0.00000,0.00000,0.00000,0.00000,0.00000,0.00000,0.00000,0.00000,0.00000,0.00000,0.00000,0.00000,0.00000,0.00000,0.00000,0.00000,No status,0.0
1.69042,0.00000000,0.00000000,0.00000000,0.00000000,15:07:27.063443,0.05002,0.00000,0.00000,0.00000,0.00025,0.00000,0.00000,0.00000,0.00000,0.00000,0.00000,0.00000,0.00000,0.00000,0.00000,0.00000,0.00000,0.00000,0.00000,0.00000,0.00000,0.00000,No status,0.0
1.72746,0.00000000,0.00000000,0.00000000,0.00000000,15:07:27.100474,0.02608,0.00000,0.00000,0.00000,0.00025,0.00000,0.00000,0.00000,0.00000,0.00000,0.00000,0.00000,0.00000,0.00000,0.00000,0.00000,0.00000,0.00000,0.00000,0.00000,0.00000,0.00000,No status,0.0
1.76621,0.00000000,0.00000000,0.00000000,0.00000000,15:07:27.139242,0.03216,0.00000,0.00000,0.00000,0.00025,0.00000,0.00000,0.00000,0.00000,0.00000,0.00000,0.00000,0.00000,0.00000,0.00000,0.00000,0.00000,0.00000,0.00000,0.00000,0.00000,0.00000,No status,0.0
1.80289,0.00000000,0.00000000,0.00000000,0.00000000,15:07:27.175912,0.02809,0.00000,0.00000,0.00000,0.00025,0.00000,0.00000,0.00000,0.00000,0.00000,0.00000,0.00000,0.00000,0.00000,0.00000,0.00000,0.00000,0.00000,0.00000,0.00000,0.00000,0.00000,No status,0.0
1.84688,0.00000000,0.00000000,0.00000000,0.00000000,15:07:27.219897,0.03550,0.00000,0.00000,0.00000,0.00025,0.00000,0.00000,0.00000,0.00000,0.00000,0.00000,0.00000,0.00000,0.00000,0.00000,0.00000,0.00000,0.00000,0.00000,0.00000,0.00000,0.00000,No status,0.0
1.89555,0.00000000,0.00000000,0.00000000,0.00000000,15:07:27.268612,0.04394,0.00000,0.00000,0.00000,0.00025,0.00000,0.00000,0.00000,0.00000,0.00000,0.00000,0.00000,0.00000,0.00000,0.00000,0.00000,0.00000,0.00000,0.00000,0.00000,0.00000,0.00000,No status,0.0
1.94792,0.00000000,0.00000000,0.00000000,0.00000000,15:07:27.320938,0.04213,0.00000,0.00000,0.00000,0.00025,0.00000,0.00000,0.00000,0.00000,0.00000,0.00000,0.00000,0.00000,0.00000,0.00000,0.00000,0.00000,0.00000,0.00000,0.00000,0.00000,0.00000,No status,0.0
1.99977,0.00000000,0.00000000,0.00000000,0.00000000,15:07:27.372795,0.03869,0.00000,0.00000,0.00000,0.00025,0.00000,0.00000,0.00000,0.00000,0.00000,0.00000,0.00000,0.00000,0.00000,0.00000,0.00000,0.00000,0.00000,0.00000,0.00000,0.00000,0.00000,No status,0.0
2.05746,0.00000000,0.00000000,0.00000000,0.00000000,15:07:27.430478,0.04297,0.00000,0.00000,0.00000,0.00025,0.00000,0.00000,0.00000,0.00000,0.00000,0.00000,0.00000,0.00000,0.00000,0.00000,0.00000,0.00000,0.00000,0.00000,0.00000,0.00000,0.00000,No status,0.0
2.11314,0.00000000,0.00000000,0.00000000,0.00000000,15:07:27.486160,0.04559,0.00000,0.00000,0.00000,0.00025,0.00000,0.00000,0.00000,0.00000,0.00000,0.00000,0.00000,0.00000,0.00000,0.00000,0.00000,0.00000,0.00000,0.00000,0.00000,0.00000,0.00000,No status,0.0
2.16773,0.00000000,0.00000000,0.00000000,0.00000000,15:07:27.540749,0.04543,0.00000,0.00000,0.00000,0.00025,0.00000,0.00000,0.00000,0.00000,0.00000,0.00000,0.00000,0.00000,0.00000,0.00000,0.00000,0.00000,0.00000,0.00000,0.00000,0.00000,0.00000,No status,0.0
2.21938,0.00000000,0.00000000,0.00000000,0.00000000,15:07:27.594853,0.04037,0.00000,0.00000,0.00000,0.00025,0.00000,0.00000,0.00000,0.00000,0.00000,0.00000,0.00000,0.00000,0.00000,0.00000,0.00000,0.00000,0.00000,0.00000,0.00000,0.00000,0.00000,No status,0.0
2.27829,0.00000000,0.00000000,0.00000000,0.00000000,15:07:27.651312,0.04660,0.00000,0.00000,0.00000,0.00025,0.00000,0.00000,0.00000,0.00000,0.00000,0.00000,0.00000,0.00000,0.00000,0.00000,0.00000,0.00000,0.00000,0.00000,0.00000,0.00000,0.00000,No status,0.0
2.32548,0.00000000,0.00000000,0.00000000,0.00000000,15:07:27.698504,0.03636,0.00000,0.00000,0.00000,0.00025,0.00000,0.00000,0.00000,0.00000,0.00000,0.00000,0.00000,0.00000,0.00000,0.00000,0.00000,0.00000,0.00000,0.00000,0.00000,0.00000,0.00000,No status,0.0
2.37948,0.00000000,0.00000000,0.00000000,0.00000000,15:07:27.752509,0.03800,0.00000,0.00000,0.00000,0.00025,0.00000,0.00000,0.00000,0.00000,0.00000,0.00000,0.00000,0.00000,0.00000,0.00000,0.00000,0.00000,0.00000,0.00000,0.00000,0.00000,0.00000,No status,0.0
2.43651,0.00000000,0.00000000,0.00000000,0.00000000,15:07:27.810466,0.04140,0.00000,0.00000,0.00000,0.00025,0.00000,0.00000,0.00000,0.00000,0.00000,0.00000,0.00000,0.00000,0.00000,0.00000,0.00000,0.00000,0.00000,0.00000,0.00000,0.00000,0.00000,No status,0.0
2.50111,0.00000000,0.00000000,0.00000000,0.00000000,15:07:27.874133,0.05049,0.00000,0.00000,0.00000,0.00025,0.00000,0.00000,0.00000,0.00000,0.00000,0.00000,0.00000,0.00000,0.00000,0.00000,0.00000,0.00000,0.00000,0.00000,0.00000,0.00000,0.00000,No status,0.0
2.56010,0.00000000,0.00000000,0.00000000,0.00000000,15:07:27.933113,0.04807,0.00000,0.00000,0.00000,0.00025,0.00000,0.00000,0.00000,0.00000,0.00000,0.00000,0.00000,0.00000,0.00000,0.00000,0.00000,0.00000,0.00000,0.00000,0.00000,0.00000,0.00000,No status,0.0
2.61163,0.00000000,0.00000000,0.00000000,0.00000000,15:07:27.984657,0.04049,0.00000,0.00000,0.00000,0.00025,0.00000,0.00000,0.00000,0.00000,0.00000,0.00000,0.00000,0.00000,0.00000,0.00000,0.00000,0.00000,0.00000,0.00000,0.00000,0.00000,0.00000,No status,0.0
2.66802,0.00000000,0.00000000,0.00000000,0.00000000,15:07:28.041076,0.04678,0.00000,0.00000,0.00000,0.00025,0.00000,0.00000,0.00000,0.00000,0.00000,0.00000,0.00000,0.00000,0.00000,0.00000,0.00000,0.00000,0.00000,0.00000,0.00000,0.00000,0.00000,No status,0.0
2.71981,0.00000000,0.00000000,0.00000000,0.00000000,15:07:28.092842,0.04178,0.00000,0.00000,0.00000,0.00025,0.00000,0.00000,0.00000,0.00000,0.00000,0.00000,0.00000,0.00000,0.00000,0.00000,0.00000,0.00000,0.00000,0.00000,0.00000,0.00000,0.00000,No status,0.0
2.77681,0.00000000,0.00000000,0.00000000,0.00000000,15:07:28.149835,0.04552,0.00000,0.00000,0.00000,0.00025,0.00000,0.00000,0.00000,0.00000,0.00000,0.00000,0.00000,0.00000,0.00000,0.00000,0.00000,0.00000,0.00000,0.00000,0.00000,0.00000,0.00000,No status,0.0
2.82253,0.00000000,0.00000000,0.00000000,0.00000000,15:07:28.195545,0.02736,0.00000,0.00000,0.00000,0.00025,0.00000,0.00000,0.00000,0.00000,0.00000,0.00000,0.00000,0.00000,0.00000,0.00000,0.00000,0.00000,0.00000,0.00000,0.00000,0.00000,0.00000,No status,0.0
2.85637,0.00000000,0.00000000,0.00000000,0.00000000,15:07:28.229380,0.02152,0.00000,0.00000,0.00000,0.00025,0.00000,0.00000,0.00000,0.00000,0.00000,0.00000,0.00000,0.00000,0.00000,0.00000,0.00000,0.00000,0.00000,0.00000,0.00000,0.00000,0.00000,No status,0.0
2.87952,0.00000000,0.00000000,0.00000000,0.00000000,15:07:28.252531,0.01821,0.00000,0.00000,0.00000,0.00025,0.00000,0.00000,0.00000,0.00000,0.00000,0.00000,0.00000,0.00000,0.00000,0.00000,0.00000,0.00000,0.00000,0.00000,0.00000,0.00000,0.00000,No status,0.0
2.90257,0.00000000,0.00000000,0.00000000,0.00000000,15:07:28.275579,0.01833,0.00000,0.00000,0.00000,0.00025,0.00000,0.00000,0.00000,0.00000,0.00000,0.00000,0.00000,0.00000,0.00000,0.00000,0.00000,0.00000,0.00000,0.00000,0.00000,0.00000,0.00000,No status,0.0
2.93293,0.00000000,0.00000000,0.00000000,0.00000000,15:07:28.305942,0.02570,0.00000,0.00000,0.00000,0.00025,0.00000,0.00000,0.00000,0.00000,0.00000,0.00000,0.00000,0.00000,0.00000,0.00000,0.00000,0.00000,0.00000,0.00000,0.00000,0.00000,0.00000,No status,0.0
2.95581,0.00000000,0.00000000,0.00000000,0.00000000,15:07:28.328828,0.01804,0.00000,0.00000,0.00000,0.00025,0.00000,0.00000,0.00000,0.00000,0.00000,0.00000,0.00000,0.00000,0.00000,0.00000,0.00000,0.00000,0.00000,0.00000,0.00000,0.00000,0.00000,No status,0.0
2.97794,0.00000000,0.00000000,0.00000000,0.00000000,15:07:28.350951,0.01750,0.00000,0.00000,0.00000,0.00025,0.00000,0.00000,0.00000,0.00000,0.00000,0.00000,0.00000,0.00000,0.00000,0.00000,0.00000,0.00000,0.00000,0.00000,0.00000,0.00000,0.00000,No status,0.0
3.01023,0.00000000,0.00000000,0.00000000,0.00000000,15:07:28.383241,0.02756,0.00000,0.00000,0.00000,0.00025,0.00000,0.00000,0.00000,0.00000,0.00000,0.00000,0.00000,0.00000,0.00000,0.00000,0.00000,0.00000,0.00000,0.00000,0.00000,0.00000,0.00000,No status,0.0
3.03358,0.00000000,0.00000000,0.00000000,0.00000000,15:07:28.406595,0.01825,0.00000,0.00000,0.00000,0.00025,0.00000,0.00000,0.00000,0.00000,0.00000,0.00000,0.00000,0.00000,0.00000,0.00000,0.00000,0.00000,0.00000,0.00000,0.00000,0.00000,0.00000,No status,0.0
3.05640,0.00000000,0.00000000,0.00000000,0.00000000,15:07:28.429411,0.01798,0.00000,0.00000,0.00000,0.00025,0.00000,0.00000,0.00000,0.00000,0.00000,0.00000,0.00000,0.00000,0.00000,0.00000,0.00000,0.00000,0.00000,0.00000,0.00000,0.00000,0.00000,No status,0.0
3.08449,0.00000000,0.00000000,0.00000000,0.00000000,15:07:28.457678,0.02311,0.00000,0.00000,0.00000,0.00025,0.00000,0.00000,0.00000,0.00000,0.00000,0.00000,0.00000,0.00000,0.00000,0.00000,0.00000,0.00000,0.00000,0.00000,0.00000,0.00000,0.00000,No status,0.0
3.10623,0.00000000,0.00000000,0.00000000,0.00000000,15:07:28.479239,0.01685,0.00000,0.00000,0.00000,0.00025,0.00000,0.00000,0.00000,0.00000,0.00000,0.00000,0.00000,0.00000,0.00000,0.00000,0.00000,0.00000,0.00000,0.00000,0.00000,0.00000,0.00000,No status,0.0
3.13013,0.00000000,0.00000000,0.00000000,0.00000000,15:07:28.503135,0.01925,0.00000,0.00000,0.00000,0.00025,0.00000,0.00000,0.00000,0.00000,0.00000,0.00000,0.00000,0.00000,0.00000,0.00000,0.00000,0.00000,0.00000,0.00000,0.00000,0.00000,0.00000,No status,0.0
3.15202,0.00000000,0.00000000,0.00000000,0.00000000,15:07:28.525030,0.01712,0.00000,0.00000,0.00000,0.00025,0.00000,0.00000,0.00000,0.00000,0.00000,0.00000,0.00000,0.00000,0.00000,0.00000,0.00000,0.00000,0.00000,0.00000,0.00000,0.00000,0.00000,No status,0.0
3.17494,0.00000000,0.00000000,0.00000000,0.00000000,15:07:28.547948,0.01857,0.00000,0.00000,0.00000,0.00025,0.00000,0.00000,0.00000,0.00000,0.00000,0.00000,0.00000,0.00000,0.00000,0.00000,0.00000,0.00000,0.00000,0.00000,0.00000,0.00000,0.00000,No status,0.0
3.20409,0.00000000,0.00000000,0.00000000,0.00000000,15:07:28.577109,0.01747,0.00000,0.00000,0.00000,0.00025,0.00000,0.00000,0.00000,0.00000,0.00000,0.00000,0.00000,0.00000,0.00000,0.00000,0.00000,0.00000,0.00000,0.00000,0.00000,0.00000,0.00000,No status,0.0
3.22909,0.00000000,0.00000000,0.00000000,0.00000000,15:07:28.602105,0.02014,0.00000,0.00000,0.00000,0.00025,0.00000,0.00000,0.00000,0.00000,0.00000,0.00000,0.00000,0.00000,0.00000,0.00000,0.00000,0.00000,0.00000,0.00000,0.00000,0.00000,0.00000,No status,0.0
3.25073,0.00000000,0.00000000,0.00000000,0.00000000,15:07:28.623740,0.01720,0.00000,0.00000,0.00000,0.00025,0.00000,0.00000,0.00000,0.00000,0.00000,0.00000,0.00000,0.00000,0.00000,0.00000,0.00000,0.00000,0.00000,0.00000,0.00000,0.00000,0.00000,No status,0.0
3.27038,0.00000000,0.00000000,0.00000000,0.00000000,15:07:28.643383,0.01545,0.00000,0.00000,0.00000,0.00025,0.00000,0.00000,0.00000,0.00000,0.00000,0.00000,0.00000,0.00000,0.00000,0.00000,0.00000,0.00000,0.00000,0.00000,0.00000,0.00000,0.00000,No status,0.0
3.30318,0.00000000,0.00000000,0.00000000,0.00000000,15:07:28.676184,0.02862,0.00000,0.00000,0.00000,0.00025,0.00000,0.00000,0.00000,0.00000,0.00000,0.00000,0.00000,0.00000,0.00000,0.00000,0.00000,0.00000,0.00000,0.00000,0.00000,0.00000,0.00000,No status,0.0
3.33011,0.00000000,0.00000000,0.00000000,0.00000000,15:07:28.703115,0.02230,0.00000,0.00000,0.00000,0.00025,0.00000,0.00000,0.00000,0.00000,0.00000,0.00000,0.00000,0.00000,0.00000,0.00000,0.00000,0.00000,0.00000,0.00000,0.00000,0.00000,0.00000,No status,0.0
3.35404,0.00000000,0.00000000,0.00000000,0.00000000,15:07:28.727057,0.01915,0.00000,0.00000,0.00000,0.00025,0.00000,0.00000,0.00000,0.00000,0.00000,0.00000,0.00000,0.00000,0.00000,0.00000,0.00000,0.00000,0.00000,0.00000,0.00000,0.00000,0.00000,No status,0.0
3.37809,0.00000000,0.00000000,0.00000000,0.00000000,15:07:28.752131,0.01934,0.00000,0.00000,0.00000,0.00025,0.00000,0.00000,0.00000,0.00000,0.00000,0.00000,0.00000,0.00000,0.00000,0.00000,0.00000,0.00000,0.00000,0.00000,0.00000,0.00000,0.00000,No status,0.0
3.40163,0.00000000,0.00000000,0.00000000,0.00000000,15:07:28.774644,0.01728,0.00000,0.00000,0.00000,0.00025,0.00000,0.00000,0.00000,0.00000,0.00000,0.00000,0.00000,0.00000,0.00000,0.00000,0.00000,0.00000,0.00000,0.00000,0.00000,0.00000,0.00000,No status,0.0
3.42337,0.00000000,0.00000000,0.00000000,0.00000000,15:07:28.796380,0.01700,0.00000,0.00000,0.00000,0.00025,0.00000,0.00000,0.00000,0.00000,0.00000,0.00000,0.00000,0.00000,0.00000,0.00000,0.00000,0.00000,0.00000,0.00000,0.00000,0.00000,0.00000,No status,0.0
3.44522,0.00000000,0.00000000,0.00000000,0.00000000,15:07:28.818230,0.01581,0.00000,0.00000,0.00000,0.00025,0.00000,0.00000,0.00000,0.00000,0.00000,0.00000,0.00000,0.00000,0.00000,0.00000,0.00000,0.00000,0.00000,0.00000,0.00000,0.00000,0.00000,No status,0.0
3.46503,0.00000000,0.00000000,0.00000000,0.00000000,15:07:28.838041,0.01562,0.00000,0.00000,0.00000,0.00025,0.00000,0.00000,0.00000,0.00000,0.00000,0.00000,0.00000,0.00000,0.00000,0.00000,0.00000,0.00000,0.00000,0.00000,0.00000,0.00000,0.00000,No status,0.0
3.49677,0.00000000,0.00000000,0.00000000,0.00000000,15:07:28.869784,0.02749,0.00000,0.00000,0.00000,0.00025,0.00000,0.00000,0.00000,0.00000,0.00000,0.00000,0.00000,0.00000,0.00000,0.00000,0.00000,0.00000,0.00000,0.00000,0.00000,0.00000,0.00000,No status,0.0
3.51825,0.00000000,0.00000000,0.00000000,0.00000000,15:07:28.891258,0.01680,0.00000,0.00000,0.00000,0.00025,0.00000,0.00000,0.00000,0.00000,0.00000,0.00000,0.00000,0.00000,0.00000,0.00000,0.00000,0.00000,0.00000,0.00000,0.00000,0.00000,0.00000,No status,0.0
3.54188,0.00000000,0.00000000,0.00000000,0.00000000,15:07:28.914888,0.01871,0.00000,0.00000,0.00000,0.00025,0.00000,0.00000,0.00000,0.00000,0.00000,0.00000,0.00000,0.00000,0.00000,0.00000,0.00000,0.00000,0.00000,0.00000,0.00000,0.00000,0.00000,No status,0.0
3.56371,0.00000000,0.00000000,0.00000000,0.00000000,15:07:28.936718,0.01707,0.00000,0.00000,0.00000,0.00025,0.00000,0.00000,0.00000,0.00000,0.00000,0.00000,0.00000,0.00000,0.00000,0.00000,0.00000,0.00000,0.00000,0.00000,0.00000,0.00000,0.00000,No status,0.0
3.59037,0.00000000,0.00000000,0.00000000,0.00000000,15:07:28.963396,0.02256,0.00000,0.00000,0.00000,0.00025,0.00000,0.00000,0.00000,0.00000,0.00000,0.00000,0.00000,0.00000,0.00000,0.00000,0.00000,0.00000,0.00000,0.00000,0.00000,0.00000,0.00000,No status,0.0
3.61093,0.00000000,0.00000000,0.00000000,0.00000000,15:07:28.983939,0.01548,0.00000,0.00000,0.00000,0.00025,0.00000,0.00000,0.00000,0.00000,0.00000,0.00000,0.00000,0.00000,0.00000,0.00000,0.00000,0.00000,0.00000,0.00000,0.00000,0.00000,0.00000,No status,0.0
3.63080,0.00000000,0.00000000,0.00000000,0.00000000,15:07:29.003812,0.01569,0.00000,0.00000,0.00000,0.00025,0.00000,0.00000,0.00000,0.00000,0.00000,0.00000,0.00000,0.00000,0.00000,0.00000,0.00000,0.00000,0.00000,0.00000,0.00000,0.00000,0.00000,No status,0.0
3.65214,0.00000000,0.00000000,0.00000000,0.00000000,15:07:29.025147,0.01574,0.00000,0.00000,0.00000,0.00025,0.00000,0.00000,0.00000,0.00000,0.00000,0.00000,0.00000,0.00000,0.00000,0.00000,0.00000,0.00000,0.00000,0.00000,0.00000,0.00000,0.00000,No status,0.0
3.67163,0.00000000,0.00000000,0.00000000,0.00000000,15:07:29.044663,0.01518,0.00000,0.00000,0.00000,0.00025,0.00000,0.00000,0.00000,0.00000,0.00000,0.00000,0.00000,0.00000,0.00000,0.00000,0.00000,0.00000,0.00000,0.00000,0.00000,0.00000,0.00000,No status,0.0
3.69161,0.00000000,0.00000000,0.00000000,0.00000000,15:07:29.064613,0.01632,0.00000,0.00000,0.00000,0.00025,0.00000,0.00000,0.00000,0.00000,0.00000,0.00000,0.00000,0.00000,0.00000,0.00000,0.00000,0.00000,0.00000,0.00000,0.00000,0.00000,0.00000,No status,0.0
3.71440,0.00000000,0.00000000,0.00000000,0.00000000,15:07:29.087407,0.01913,0.00000,0.00000,0.00000,0.00025,0.00000,0.00000,0.00000,0.00000,0.00000,0.00000,0.00000,0.00000,0.00000,0.00000,0.00000,0.00000,0.00000,0.00000,0.00000,0.00000,0.00000,No status,0.0
3.73610,0.00000000,0.00000000,0.00000000,0.00000000,15:07:29.109117,0.01748,0.00000,0.00000,0.00000,0.00025,0.00000,0.00000,0.00000,0.00000,0.00000,0.00000,0.00000,0.00000,0.00000,0.00000,0.00000,0.00000,0.00000,0.00000,0.00000,0.00000,0.00000,No status,0.0
3.75790,0.00000000,0.00000000,0.00000000,0.00000000,15:07:29.130908,0.01736,0.00000,0.00000,0.00000,0.00025,0.00000,0.00000,0.00000,0.00000,0.00000,0.00000,0.00000,0.00000,0.00000,0.00000,0.00000,0.00000,0.00000,0.00000,0.00000,0.00000,0.00000,No status,0.0
3.77779,0.00000000,0.00000000,0.00000000,0.00000000,15:07:29.150796,0.01570,0.00000,0.00000,0.00000,0.00025,0.00000,0.00000,0.00000,0.00000,0.00000,0.00000,0.00000,0.00000,0.00000,0.00000,0.00000,0.00000,0.00000,0.00000,0.00000,0.00000,0.00000,No status,0.0
3.80946,0.00000000,0.00000000,0.00000000,0.00000000,15:07:29.182472,0.02725,0.00000,0.00000,0.00000,0.00025,0.00000,0.00000,0.00000,0.00000,0.00000,0.00000,0.00000,0.00000,0.00000,0.00000,0.00000,0.00000,0.00000,0.00000,0.00000,0.00000,0.00000,No status,0.0
3.83064,0.00000000,0.00000000,0.00000000,0.00000000,15:07:29.203648,0.01699,0.00000,0.00000,0.00000,0.00025,0.00000,0.00000,0.00000,0.00000,0.00000,0.00000,0.00000,0.00000,0.00000,0.00000,0.00000,0.00000,0.00000,0.00000,0.00000,0.00000,0.00000,No status,0.0
3.85448,0.00000000,0.00000000,0.00000000,0.00000000,15:07:29.227488,0.01952,0.00000,0.00000,0.00000,0.00025,0.00000,0.00000,0.00000,0.00000,0.00000,0.00000,0.00000,0.00000,0.00000,0.00000,0.00000,0.00000,0.00000,0.00000,0.00000,0.00000,0.00000,No status,0.0
3.87432,0.00000000,0.00000000,0.00000000,0.00000000,15:07:29.247325,0.01560,0.00000,0.00000,0.00000,0.00025,0.00000,0.00000,0.00000,0.00000,0.00000,0.00000,0.00000,0.00000,0.00000,0.00000,0.00000,0.00000,0.00000,0.00000,0.00000,0.00000,0.00000,No status,0.0
3.89545,0.00000000,0.00000000,0.00000000,0.00000000,15:07:29.268463,0.01698,0.00000,0.00000,0.00000,0.00025,0.00000,0.00000,0.00000,0.00000,0.00000,0.00000,0.00000,0.00000,0.00000,0.00000,0.00000,0.00000,0.00000,0.00000,0.00000,0.00000,0.00000,No status,0.0
3.92590,0.00000000,0.00000000,0.00000000,0.00000000,15:07:29.298910,0.01591,0.00000,0.00000,0.00000,0.00025,0.00000,0.00000,0.00000,0.00000,0.00000,0.00000,0.00000,0.00000,0.00000,0.00000,0.00000,0.00000,0.00000,0.00000,0.00000,0.00000,0.00000,No status,0.0
3.94852,0.00000000,0.00000000,0.00000000,0.00000000,15:07:29.321701,0.01844,0.00000,0.00000,0.00000,0.00025,0.00000,0.00000,0.00000,0.00000,0.00000,0.00000,0.00000,0.00000,0.00000,0.00000,0.00000,0.00000,0.00000,0.00000,0.00000,0.00000,0.00000,No status,0.0
3.96847,0.00000000,0.00000000,0.00000000,0.00000000,15:07:29.341640,0.01507,0.00000,0.00000,0.00000,0.00025,0.00000,0.00000,0.00000,0.00000,0.00000,0.00000,0.00000,0.00000,0.00000,0.00000,0.00000,0.00000,0.00000,0.00000,0.00000,0.00000,0.00000,No status,0.0
3.98811,0.00000000,0.00000000,0.00000000,0.00000000,15:07:29.361111,0.01555,0.00000,0.00000,0.00000,0.00025,0.00000,0.00000,0.00000,0.00000,0.00000,0.00000,0.00000,0.00000,0.00000,0.00000,0.00000,0.00000,0.00000,0.00000,0.00000,0.00000,0.00000,No status,0.0
4.01809,0.00000000,0.00000000,0.00000000,0.00000000,15:07:29.391101,0.02585,0.00000,0.00000,0.00000,0.00025,0.00000,0.00000,0.00000,0.00000,0.00000,0.00000,0.00000,0.00000,0.00000,0.00000,0.00000,0.00000,0.00000,0.00000,0.00000,0.00000,0.00000,No status,0.0
4.03797,0.00000000,0.00000000,0.00000000,0.00000000,15:07:29.410977,0.01570,0.00000,0.00000,0.00000,0.00025,0.00000,0.00000,0.00000,0.00000,0.00000,0.00000,0.00000,0.00000,0.00000,0.00000,0.00000,0.00000,0.00000,0.00000,0.00000,0.00000,0.00000,No status,0.0
4.05979,0.00000000,0.00000000,0.00000000,0.00000000,15:07:29.432795,0.01579,0.00000,0.00000,0.00000,0.00025,0.00000,0.00000,0.00000,0.00000,0.00000,0.00000,0.00000,0.00000,0.00000,0.00000,0.00000,0.00000,0.00000,0.00000,0.00000,0.00000,0.00000,No status,0.0
4.07969,0.00000000,0.00000000,0.00000000,0.00000000,15:07:29.452699,0.01551,0.00000,0.00000,0.00000,0.00025,0.00000,0.00000,0.00000,0.00000,0.00000,0.00000,0.00000,0.00000,0.00000,0.00000,0.00000,0.00000,0.00000,0.00000,0.00000,0.00000,0.00000,No status,0.0
4.11122,0.00000000,0.00000000,0.00000000,0.00000000,15:07:29.484245,0.02732,0.00000,0.00000,0.00000,0.00025,0.00000,0.00000,0.00000,0.00000,0.00000,0.00000,0.00000,0.00000,0.00000,0.00000,0.00000,0.00000,0.00000,0.00000,0.00000,0.00000,0.00000,No status,0.0
4.13201,0.00000000,0.00000000,0.00000000,0.00000000,15:07:29.505017,0.01569,0.00000,0.00000,0.00000,0.00025,0.00000,0.00000,0.00000,0.00000,0.00000,0.00000,0.00000,0.00000,0.00000,0.00000,0.00000,0.00000,0.00000,0.00000,0.00000,0.00000,0.00000,No status,0.0
4.15517,0.00000000,0.00000000,0.00000000,0.00000000,15:07:29.528187,0.01888,0.00000,0.00000,0.00000,0.00025,0.00000,0.00000,0.00000,0.00000,0.00000,0.00000,0.00000,0.00000,0.00000,0.00000,0.00000,0.00000,0.00000,0.00000,0.00000,0.00000,0.00000,No status,0.0
4.17482,0.00000000,0.00000000,0.00000000,0.00000000,15:07:29.547829,0.01548,0.00000,0.00000,0.00000,0.00025,0.00000,0.00000,0.00000,0.00000,0.00000,0.00000,0.00000,0.00000,0.00000,0.00000,0.00000,0.00000,0.00000,0.00000,0.00000,0.00000,0.00000,No status,0.0
4.19471,0.00000000,0.00000000,0.00000000,0.00000000,15:07:29.567716,0.01574,0.00000,0.00000,0.00000,0.00025,0.00000,0.00000,0.00000,0.00000,0.00000,0.00000,0.00000,0.00000,0.00000,0.00000,0.00000,0.00000,0.00000,0.00000,0.00000,0.00000,0.00000,No status,0.0
4.22452,0.00000000,0.00000000,0.00000000,0.00000000,15:07:29.597692,0.02566,0.00000,0.00000,0.00000,0.00025,0.00000,0.00000,0.00000,0.00000,0.00000,0.00000,0.00000,0.00000,0.00000,0.00000,0.00000,0.00000,0.00000,0.00000,0.00000,0.00000,0.00000,No status,0.0
4.24433,0.00000000,0.00000000,0.00000000,0.00000000,15:07:29.617333,0.01532,0.00000,0.00000,0.00000,0.00025,0.00000,0.00000,0.00000,0.00000,0.00000,0.00000,0.00000,0.00000,0.00000,0.00000,0.00000,0.00000,0.00000,0.00000,0.00000,0.00000,0.00000,No status,0.0
4.26658,0.00000000,0.00000000,0.00000000,0.00000000,15:07:29.639589,0.01574,0.00000,0.00000,0.00000,0.00025,0.00000,0.00000,0.00000,0.00000,0.00000,0.00000,0.00000,0.00000,0.00000,0.00000,0.00000,0.00000,0.00000,0.00000,0.00000,0.00000,0.00000,No status,0.0
4.28684,0.00000000,0.00000000,0.00000000,0.00000000,15:07:29.659860,0.01610,0.00000,0.00000,0.00000,0.00025,0.00000,0.00000,0.00000,0.00000,0.00000,0.00000,0.00000,0.00000,0.00000,0.00000,0.00000,0.00000,0.00000,0.00000,0.00000,0.00000,0.00000,No status,0.0
4.31711,0.00000000,0.00000000,0.00000000,0.00000000,15:07:29.690138,0.02599,0.00000,0.00000,0.00000,0.00025,0.00000,0.00000,0.00000,0.00000,0.00000,0.00000,0.00000,0.00000,0.00000,0.00000,0.00000,0.00000,0.00000,0.00000,0.00000,0.00000,0.00000,No status,0.0
4.33743,0.00000000,0.00000000,0.00000000,0.00000000,15:07:29.710441,0.01551,0.00000,0.00000,0.00000,0.00025,0.00000,0.00000,0.00000,0.00000,0.00000,0.00000,0.00000,0.00000,0.00000,0.00000,0.00000,0.00000,0.00000,0.00000,0.00000,0.00000,0.00000,No status,0.0
