Time,lat_estimated,lon_estimated,latitude,longitude,RealTime,CalculationTime,MeasuredVelocity,Roll,SteeringAngle,RollRate,gy,gz,ax,ay,az,imu_read_timing,v_estimated,yaw_estimated,heading_estimated,x_estimated,y_estimated,GPS_timestamp,x_GPS,y_GPS,status,NMEA timestamp
0.06088,0.00000000,0.00000000,57.68798,11.98126,14:52:09.196818,0.06084,0.00000,0.00006,0.01520,-0.05797,-0.00079,-0.01448,-0.00055,0.06240,0.99168,0.00001,0.00000,0.00000,0.00000,0.00000,0.00000,0.02831,-0.15850,-0.29652,A,145209.10
0.07160,0.00000000,0.00000000,57.68798,11.98126,14:52:09.207890,0.00340,0.00000,-0.00247,0.01262,-0.04819,0.00150,-0.01249,-0.02287,0.06936,1.02486,0.06794,0.00000,0.00000,0.00000,0.00000,0.00000,0.02831,-0.15850,-0.29652,A,145209.10
0.08174,0.00000000,0.00000000,57.68798,11.98126,14:52:09.217563,0.00314,0.00000,-0.00216,0.01214,-0.03750,0.00196,-0.01921,-0.00567,0.06606,1.02480,0.07811,0.00000,0.00000,0.00000,0.00000,0.00000,0.02831,-0.15850,-0.29652,A,145209.10
0.09232,0.00000000,0.00000000,57.68798,11.98126,14:52:09.228159,0.00316,0.00000,-0.00217,0.01169,-0.04041,-0.00552,-0.01662,0.02098,0.04563,0.99204,0.08848,0.00000,0.00000,0.00000,0.00000,0.00000,0.02831,-0.15850,-0.29652,A,145209.10
0.10284,0.00000000,0.00000000,57.68798,11.98126,14:52:09.238673,0.00339,0.00000,-0.00209,0.01132,-0.04193,-0.00659,-0.01707,0.00897,0.05191,0.97155,0.09920,0.00000,0.00000,0.00000,0.00000,0.00000,0.02831,-0.15850,-0.29652,A,145209.10
0.11308,0.00000000,0.00000000,57.68798,11.98126,14:52:09.248910,0.00324,0.00000,-0.00176,0.01104,-0.04331,-0.01026,-0.01112,-0.05618,0.07027,0.99692,0.10944,0.00000,0.00000,0.00000,0.00000,0.00000,0.02831,-0.15850,-0.29652,A,145209.10
0.12325,0.00000000,0.00000000,57.68798,11.98126,14:52:09.259075,0.00310,0.00000,-0.00127,0.01081,-0.03292,0.00532,-0.01417,-0.07723,0.07466,1.01101,0.11962,0.00000,0.00000,0.00000,0.00000,0.00000,0.02831,-0.15850,-0.29652,A,145209.10
0.14651,0.00000000,0.00000000,57.68798,11.98126,14:52:09.282340,0.01596,0.00000,-0.00079,0.01067,-0.03445,0.01525,-0.01341,-0.02623,0.07558,1.00034,0.13002,0.00000,0.00000,0.00000,0.00000,0.00000,0.14539,-0.20803,-0.27799,A,145209.20
0.16119,0.00000000,0.00000000,57.68798,11.98126,14:52:09.297025,0.00488,0.00000,-0.00096,0.01056,-0.02483,0.00578,-0.01371,-0.03355,0.05508,1.02889,0.15754,0.00000,0.00000,0.00000,0.00000,0.00000,0.14539,-0.20803,-0.27799,A,145209.20
0.17026,0.00000000,0.00000000,57.68798,11.98126,14:52:09.306086,0.00355,0.00000,-0.00057,0.01056,-0.02208,0.00776,-0.01478,-0.06893,0.06173,1.04670,0.16631,0.00000,0.00000,0.00000,0.00000,0.00000,0.14539,-0.20803,-0.27799,A,145209.20
0.18053,0.00000000,0.00000000,57.68798,11.98126,14:52:09.316379,0.00342,0.00000,-0.00034,0.01056,-0.02269,0.01983,-0.01692,-0.04026,0.05228,1.03340,0.17638,0.00000,0.00000,0.00000,0.00000,0.00000,0.14539,-0.20803,-0.27799,A,145209.20
0.19089,0.00000000,0.00000000,57.68798,11.98126,14:52:09.326713,0.00339,0.00000,-0.00007,0.01056,-0.01887,0.01692,-0.01646,0.03196,0.05319,1.01577,0.18725,0.00000,0.00000,0.00000,0.00000,0.00000,0.14539,-0.20803,-0.27799,A,145209.20
0.20096,0.00000000,0.00000000,57.68798,11.98126,14:52:09.336794,0.00307,0.00000,0.00033,0.01056,-0.02315,-0.00232,-0.01356,0.04929,0.06277,0.99704,0.19733,0.00000,0.00000,0.00000,0.00000,0.00000,0.14539,-0.20803,-0.27799,A,145209.20
0.21117,0.00000000,0.00000000,57.68798,11.98126,14:52:09.346993,0.00296,0.00000,0.00081,0.01056,-0.02666,-0.01209,-0.00928,-0.01379,0.07064,0.99131,0.20754,0.00000,0.00000,0.00000,0.00000,0.00000,0.14539,-0.20803,-0.27799,A,145209.20
0.22171,0.00000000,0.00000000,57.68798,11.98126,14:52:09.357537,0.00311,0.00000,0.00150,0.01056,-0.02238,-0.00980,-0.00898,-0.09449,0.08137,0.97051,0.21809,0.00000,0.00000,0.00000,0.00000,0.00000,0.14539,-0.20803,-0.27799,A,145209.20
0.23204,0.00000000,0.00000000,57.68798,11.98126,14:52:09.367884,0.00323,0.00000,0.00226,0.01056,-0.01933,-0.00079,-0.00791,-0.07381,0.08174,0.95020,0.22820,0.00000,0.00000,0.00000,0.00000,0.00000,0.14539,-0.20803,-0.27799,A,145209.20
0.24236,0.00000000,0.00000000,57.68798,11.98126,14:52:09.378186,0.00315,0.00000,0.00280,0.01056,-0.01460,0.01692,-0.00990,-0.04026,0.06429,0.92610,0.23873,0.00000,0.00000,0.00000,0.00000,0.00000,0.14539,-0.20803,-0.27799,A,145209.20
0.26791,0.00000000,0.00000000,57.68798,11.98126,14:52:09.403771,0.01831,0.00000,0.00326,0.01056,-0.01246,0.01570,-0.01096,-0.02513,0.06051,0.93971,0.25053,0.00000,0.00000,0.00000,0.00000,0.00000,0.26656,-0.21794,-0.24092,A,145209.30
0.27678,0.00000000,0.00000000,57.68798,11.98126,14:52:09.412608,0.00325,0.00000,0.00339,0.01056,-0.00971,0.00959,-0.01249,0.00372,0.04880,1.02352,0.27313,0.00000,0.00000,0.00000,0.00000,0.00000,0.26656,-0.21794,-0.24092,A,145209.30
0.28702,0.00000000,0.00000000,57.68798,11.98126,14:52:09.422843,0.00296,0.00000,0.00346,0.01056,-0.01322,-0.00140,-0.01020,0.01330,0.03953,1.04249,0.28340,0.00000,0.00000,0.00000,0.00000,0.00000,0.26656,-0.21794,-0.24092,A,145209.30
0.29861,0.00000000,0.00000000,57.68798,11.98126,14:52:09.434442,0.00415,0.00000,0.00368,0.01056,-0.01460,-0.00675,-0.01158,0.03422,0.05185,1.03645,0.29474,0.00000,0.00000,0.00000,0.00000,0.00000,0.26656,-0.21794,-0.24092,A,145209.30
0.30898,0.00000000,0.00000000,57.68798,11.98126,14:52:09.445670,0.00413,0.00000,0.00423,0.01056,-0.01490,-0.01896,-0.00669,0.00781,0.07412,1.03474,0.30529,0.00000,0.00000,0.00000,0.00000,0.00000,0.26656,-0.21794,-0.24092,A,145209.30
0.31852,0.00000000,0.00000000,57.68798,11.98126,14:52:09.454345,0.00327,0.00000,0.00532,0.01056,-0.01063,-0.01255,-0.00654,-0.02507,0.10559,1.00302,0.31489,0.00000,0.00000,0.00000,0.00000,0.00000,0.26656,-0.21794,-0.24092,A,145209.30
0.32875,0.00000000,0.00000000,57.68798,11.98126,14:52:09.464582,0.00311,0.00000,0.00636,0.01056,0.00068,-0.00614,-0.00027,-0.05856,0.09095,0.95520,0.32512,0.00000,0.00000,0.00000,0.00000,0.00000,0.26656,-0.21794,-0.24092,A,145209.30
0.33908,0.00000000,0.00000000,57.68798,11.98126,14:52:09.474904,0.00293,0.00000,0.00707,0.01056,-0.00055,0.00669,-0.00822,-0.06417,0.06869,0.91225,0.33545,0.00000,0.00000,0.00000,0.00000,0.00000,0.26656,-0.21794,-0.24092,A,145209.30
0.34964,0.00000000,0.00000000,57.68798,11.98126,14:52:09.485465,0.00311,0.00000,0.00735,0.01056,0.00633,0.01967,-0.00776,-0.04618,0.03831,0.89475,0.34602,0.00000,0.00000,0.00000,0.00000,0.00000,0.26656,-0.21794,-0.24092,A,145209.30
0.36007,0.00000000,0.00000000,57.68798,11.98126,14:52:09.495898,0.00314,0.00000,0.00757,0.01056,0.00510,0.02426,-0.00837,-0.02416,0.03605,0.90920,0.35622,0.00000,0.00000,0.00000,0.00000,0.00000,0.26656,-0.21794,-0.24092,A,145209.30
0.38457,0.00000000,0.00000000,57.68798,11.98126,14:52:09.520407,0.01725,0.00000,0.00786,0.01056,0.00602,0.01845,-0.01387,0.00043,0.04294,0.98979,0.36685,0.00000,0.00000,0.00000,0.00000,0.00000,0.38329,-0.22784,-0.14826,A,145209.40
0.39649,0.00000000,0.00000000,57.68798,11.98126,14:52:09.532336,0.00445,0.00000,0.00841,0.01056,-0.00100,0.00578,-0.00547,0.02879,0.07497,1.11008,0.39281,0.00000,0.00000,0.00000,0.00000,0.00000,0.38329,-0.22784,-0.14826,A,145209.40
0.40558,0.00000000,0.00000000,57.68798,11.98126,14:52:09.541407,0.00314,0.00000,0.00924,0.01056,0.00739,0.00333,-0.00501,0.03959,0.08656,1.07177,0.40195,0.00000,0.00000,0.00000,0.00000,0.00000,0.38329,-0.22784,-0.14826,A,145209.40
0.41651,0.00000000,0.00000000,57.68798,11.98126,14:52:09.552345,0.00334,0.00000,0.01026,0.01059,0.01259,-0.00797,-0.00058,0.03245,0.08863,0.99345,0.41287,0.00000,0.00000,0.00000,0.00000,0.00000,0.38329,-0.22784,-0.14826,A,145209.40
0.42681,0.00000000,0.00000000,57.68798,11.98126,14:52:09.562638,0.00324,0.00000,0.01116,0.01067,0.01427,-0.01835,-0.00073,-0.00781,0.07662,0.93757,0.42318,0.00000,0.00000,0.00000,0.00000,0.00000,0.38329,-0.22784,-0.14826,A,145209.40
0.43710,0.00000000,0.00000000,57.68798,11.98126,14:52:09.572922,0.00313,0.00000,0.01183,0.01078,0.01381,-0.01576,0.00018,-0.03965,0.06216,0.91250,0.43346,0.00000,0.00000,0.00000,0.00000,0.00000,0.38329,-0.22784,-0.14826,A,145209.40
0.44745,0.00000000,0.00000000,57.68798,11.98126,14:52:09.583497,0.00300,0.00000,0.01229,0.01090,0.01732,-0.00583,-0.00073,-0.06069,0.04752,0.92549,0.44382,0.00000,0.00000,0.00000,0.00000,0.00000,0.38329,-0.22784,-0.14826,A,145209.40
0.45798,0.00000000,0.00000000,57.68798,11.98126,14:52:09.593799,0.00312,0.00000,0.01295,0.01098,0.01610,0.01173,-0.00623,-0.03843,0.06557,0.98265,0.45435,0.00000,0.00000,0.00000,0.00000,0.00000,0.38329,-0.22784,-0.14826,A,145209.40
0.46838,0.00000000,0.00000000,57.68798,11.98126,14:52:09.604211,0.00313,0.00000,0.01362,0.01107,0.01457,0.01906,-0.00928,-0.01446,0.07100,1.03456,0.46473,0.00000,0.00000,0.00000,0.00000,0.00000,0.38329,-0.22784,-0.14826,A,145209.40
0.47877,0.00000000,0.00000000,57.68798,11.98126,14:52:09.614586,0.00313,0.00000,0.01420,0.01118,0.01473,0.02151,-0.00852,0.03245,0.06631,1.05066,0.47514,0.00000,0.00000,0.00000,0.00000,0.00000,0.38329,-0.22784,-0.14826,A,145209.40
0.50344,0.00000000,0.00000000,57.68798,11.98126,14:52:09.639485,0.01740,0.00000,0.01423,0.01141,0.01518,0.01341,-0.01188,0.04612,0.02867,1.05841,0.48555,0.00000,0.00000,0.00000,0.00000,0.00000,0.50202,-0.24765,-0.09266,A,145209.50
0.51526,0.00000000,0.00000000,57.68798,11.98126,14:52:09.651116,0.00569,0.00000,0.01475,0.01240,0.00510,-0.01133,-0.00470,-0.00634,0.06277,1.01797,0.51121,0.00000,0.00000,0.00000,0.00000,0.00000,0.50202,-0.24765,-0.09266,A,145209.50
0.52318,0.00000000,0.00000000,57.68798,11.98126,14:52:09.659006,0.00308,0.00000,0.01526,0.01285,0.00480,-0.00888,-0.00531,-0.01287,0.06564,0.97960,0.51955,0.00000,0.00000,0.00000,0.00000,0.00000,0.50202,-0.24765,-0.09266,A,145209.50
0.53370,0.00000000,0.00000000,57.68798,11.98126,14:52:09.669533,0.00334,0.00000,0.01623,0.01336,-0.00055,-0.00751,-0.00134,0.02647,0.09565,0.93818,0.53007,0.00000,0.00000,0.00000,0.00000,0.00000,0.50202,-0.24765,-0.09266,A,145209.50
0.54366,0.00000000,0.00000000,57.68798,11.98126,14:52:09.679714,0.00291,0.00000,0.01723,0.01376,0.00342,-0.00491,-0.00119,-0.01476,0.09363,0.91951,0.54005,0.00000,0.00000,0.00000,0.00000,0.00000,0.50202,-0.24765,-0.09266,A,145209.50
0.55436,0.00000000,0.00000000,57.68798,11.98126,14:52:09.690184,0.00320,0.00000,0.01830,0.01404,0.00739,0.00440,0.00156,-0.12200,0.10614,1.01144,0.55073,0.00000,0.00000,0.00000,0.00000,0.00000,0.50202,-0.24765,-0.09266,A,145209.50
0.56468,0.00000000,0.00000000,57.68798,11.98126,14:52:09.700508,0.00314,0.00000,0.01912,0.01421,0.00083,0.01402,-0.00562,-0.04819,0.09626,1.02626,0.56104,0.00000,0.00000,0.00000,0.00000,0.00000,0.50202,-0.24765,-0.09266,A,145209.50
0.57503,0.00000000,0.00000000,57.68798,11.98126,14:52:09.710858,0.00294,0.00000,0.01912,0.01426,-0.00131,0.01204,-0.01066,0.05472,0.04063,0.99290,0.57140,0.00000,0.00000,0.00000,0.00000,0.00000,0.50202,-0.24765,-0.09266,A,145209.50
0.58651,0.00000000,0.00000000,57.68798,11.98126,14:52:09.722341,0.00403,0.00000,0.01926,0.01432,-0.01231,-0.00644,-0.01341,0.09876,0.05484,0.93434,0.58286,0.00000,0.00000,0.00000,0.00000,0.00000,0.50202,-0.24765,-0.09266,A,145209.50
0.59600,0.00000000,0.00000000,57.68798,11.98126,14:52:09.731836,0.00312,0.00000,0.01986,0.01438,-0.01704,-0.02660,-0.01035,0.04362,0.08150,0.89652,0.59217,0.00000,0.00000,0.00000,0.00000,0.00000,0.50202,-0.24765,-0.09266,A,145209.50
0.63139,0.00000000,0.00000000,57.68798,11.98125,14:52:09.767224,0.02812,0.00000,0.02045,0.01452,-0.02422,-0.02477,-0.00883,-0.10468,0.09229,0.94562,0.60277,0.00000,0.00000,0.00000,0.00000,0.00000,0.63023,-0.33681,0.01853,A,145209.70
0.64044,0.00000000,0.00000000,57.68798,11.98125,14:52:09.776269,0.00323,0.00000,0.02020,0.01571,-0.01964,0.03433,-0.00883,0.08949,0.06991,1.01437,0.63678,0.00000,0.00000,0.00000,0.00000,0.00000,0.63023,-0.33681,0.01853,A,145209.70
0.65073,0.00000000,0.00000000,57.68798,11.98125,14:52:09.786554,0.00314,0.00000,0.02016,0.01642,-0.01933,0.01295,-0.00409,0.09449,0.05020,0.97661,0.64710,0.00000,0.00000,0.00000,0.00000,0.00000,0.63023,-0.33681,0.01853,A,145209.70
0.66110,0.00000000,0.00000000,57.68798,11.98125,14:52:09.796928,0.00311,0.00000,0.01991,0.01724,-0.01505,-0.01560,-0.00043,-0.03032,0.03349,0.95331,0.65747,0.00000,0.00000,0.00000,0.00000,0.00000,0.63023,-0.33681,0.01853,A,145209.70
0.67117,0.00000000,0.00000000,57.68798,11.98125,14:52:09.806992,0.00295,0.00000,0.01978,0.01826,-0.02773,-0.01835,-0.00089,-0.09919,0.04965,0.99107,0.66755,0.00000,0.00000,0.00000,0.00000,0.00000,0.63023,-0.33681,0.01853,A,145209.70
0.68181,0.00000000,0.00000000,57.68798,11.98125,14:52:09.817635,0.00319,0.00000,0.01970,0.01933,-0.02391,-0.00537,0.00339,-0.04282,0.05295,1.00333,0.67819,0.00000,0.00000,0.00000,0.00000,0.00000,0.63023,-0.33681,0.01853,A,145209.70
0.69238,0.00000000,0.00000000,57.68798,11.98125,14:52:09.828216,0.00337,0.00000,0.01957,0.02029,-0.03262,0.00058,0.00141,0.06893,0.05417,0.99790,0.68872,0.00000,0.00000,0.00000,0.00000,0.00000,0.63023,-0.33681,0.01853,A,145209.70
0.70252,0.00000000,0.00000000,57.68798,11.98125,14:52:09.838345,0.00311,0.00000,0.02028,0.02120,-0.03201,-0.01896,0.00156,0.10663,0.10974,1.00089,0.69890,0.00000,0.00000,0.00000,0.00000,0.00000,0.63023,-0.33681,0.01853,A,145209.70
0.71317,0.00000000,0.00000000,57.68798,11.98125,14:52:09.849007,0.00337,0.00000,0.02112,0.02191,-0.02666,-0.02889,-0.00089,-0.07302,0.12237,1.05060,0.70952,0.00000,0.00000,0.00000,0.00000,0.00000,0.63023,-0.33681,0.01853,A,145209.70
0.72326,0.00000000,0.00000000,57.68798,11.98125,14:52:09.859093,0.00310,0.00000,0.02153,0.02244,-0.01551,-0.01255,-0.00425,-0.15201,0.08546,1.06860,0.71948,0.00000,0.00000,0.00000,0.00000,0.00000,0.63023,-0.33681,0.01853,A,145209.70
0.74646,0.00000000,0.00000000,57.68798,11.98125,14:52:09.882294,0.01591,0.00000,0.02130,0.02287,-0.02101,0.00898,-0.00272,-0.08638,0.04264,1.02553,0.73004,0.00000,0.00000,0.00000,0.00000,0.00000,0.74533,-0.36653,0.09266,A,145209.80
0.75603,0.00000000,0.00000000,57.68798,11.98125,14:52:09.891865,0.00349,0.00000,0.02076,0.02363,-0.03414,-0.02324,-0.00516,0.05557,0.05514,0.97905,0.75217,0.00000,0.00000,0.00000,0.00000,0.00000,0.74533,-0.36653,0.09266,A,145209.80
0.76641,0.00000000,0.00000000,57.68798,11.98125,14:52:09.902256,0.00348,0.00000,0.02089,0.02406,-0.02880,-0.03744,0.00324,-0.02080,0.07058,1.01242,0.76247,0.00000,0.00000,0.00000,0.00000,0.00000,0.74533,-0.36653,0.09266,A,145209.80
0.77646,0.00000000,0.00000000,57.68798,11.98125,14:52:09.912285,0.00312,0.00000,0.02126,0.02445,-0.02300,-0.03591,0.00644,-0.08040,0.08296,1.00314,0.77282,0.00000,0.00000,0.00000,0.00000,0.00000,0.74533,-0.36653,0.09266,A,145209.80
0.78853,0.00000000,0.00000000,57.68798,11.98125,14:52:09.924738,0.00462,0.00000,0.02149,0.02496,-0.01811,-0.03072,0.01072,-0.05594,0.06960,0.99790,0.78322,0.00000,0.00000,0.00000,0.00000,0.00000,0.74533,-0.36653,0.09266,A,145209.80
0.79746,0.00000000,0.00000000,57.68798,11.98125,14:52:09.933280,0.00315,0.00000,0.02190,0.02556,-0.00849,-0.02950,0.00797,0.01537,0.07576,0.99216,0.79383,0.00000,0.00000,0.00000,0.00000,0.00000,0.74533,-0.36653,0.09266,A,145209.80
0.80805,0.00000000,0.00000000,57.68798,11.98125,14:52:09.943897,0.00351,0.00000,0.02227,0.02621,-0.01047,-0.04706,0.01225,0.05252,0.07735,1.03846,0.80386,0.00000,0.00000,0.00000,0.00000,0.00000,0.74533,-0.36653,0.09266,A,145209.80
0.81868,0.00000000,0.00000000,57.68798,11.98125,14:52:09.954511,0.00375,0.00000,0.02238,0.02694,-0.00696,-0.06768,0.01148,-0.01598,0.05899,1.05603,0.81505,0.00000,0.00000,0.00000,0.00000,0.00000,0.74533,-0.36653,0.09266,A,145209.80
0.82845,0.00000000,0.00000000,57.68798,11.98125,14:52:09.964285,0.00312,0.00000,0.02232,0.02765,-0.01215,-0.06478,0.01042,-0.07625,0.04862,1.02498,0.82481,0.00000,0.00000,0.00000,0.00000,0.00000,0.74533,-0.36653,0.09266,A,145209.80
0.83942,0.00000000,0.00000000,57.68798,11.98125,14:52:09.975451,0.00323,0.00000,0.02245,0.02850,-0.02025,-0.05195,0.00660,-0.09382,0.06539,0.97838,0.83579,0.00000,0.00000,0.00000,0.00000,0.00000,0.74533,-0.36653,0.09266,A,145209.80
0.86259,0.00000000,0.00000000,57.68798,11.98125,14:52:09.998423,0.01600,0.00000,0.02279,0.02938,-0.02086,-0.04263,0.00461,-0.05337,0.07381,0.91994,0.84608,0.00000,0.00000,0.00000,0.00000,0.00000,0.86147,-0.39625,0.16679,A,145209.90
0.87351,0.00000000,0.00000000,57.68798,11.98125,14:52:10.009916,0.00434,0.00000,0.02332,0.03122,-0.01185,-0.03943,0.00706,-0.06088,0.09583,0.98539,0.86951,0.00000,0.00000,0.00000,0.00000,0.00000,0.86147,-0.39625,0.16679,A,145209.90
0.88270,0.00000000,0.00000000,57.68798,11.98125,14:52:10.018527,0.00313,0.00000,0.02384,0.03204,-0.00818,-0.02965,0.00522,-0.06789,0.08876,1.05066,0.87908,0.00000,0.00000,0.00000,0.00000,0.00000,0.86147,-0.39625,0.16679,A,145209.90
0.89419,0.00000000,0.00000000,57.68798,11.98125,14:52:10.030025,0.00397,0.00000,0.02378,0.03289,-0.01292,-0.01988,0.01393,-0.03373,0.05386,1.05579,0.89056,0.00000,0.00000,0.00000,0.00000,0.00000,0.86147,-0.39625,0.16679,A,145209.90
0.90341,0.00000000,0.00000000,57.68798,11.98125,14:52:10.039232,0.00296,0.00000,0.02364,0.03357,-0.01307,-0.01896,0.01881,-0.00073,0.04483,1.03096,0.89979,0.00000,0.00000,0.00000,0.00000,0.00000,0.86147,-0.39625,0.16679,A,145209.90
0.91398,0.00000000,0.00000000,57.68798,11.98125,14:52:10.049805,0.00314,0.00000,0.02386,0.03430,-0.01658,-0.01102,0.01729,-0.03392,0.07070,0.99778,0.91035,0.00000,0.00000,0.00000,0.00000,0.00000,0.86147,-0.39625,0.16679,A,145209.90
0.92448,0.00000000,0.00000000,57.68798,11.98125,14:52:10.060318,0.00323,0.00000,0.02433,0.03495,-0.01567,-0.00552,0.01622,-0.08632,0.08546,0.97759,0.92082,0.00000,0.00000,0.00000,0.00000,0.00000,0.86147,-0.39625,0.16679,A,145209.90
0.93476,0.00000000,0.00000000,57.68798,11.98125,14:52:10.070581,0.00312,0.00000,0.02494,0.03552,-0.01444,0.00318,0.01484,-0.12792,0.08985,0.94050,0.93114,0.00000,0.00000,0.00000,0.00000,0.00000,0.86147,-0.39625,0.16679,A,145209.90
0.94517,0.00000000,0.00000000,57.68798,11.98125,14:52:10.080994,0.00313,0.00000,0.02498,0.03600,-0.00498,0.01372,0.00706,-0.03343,0.04917,0.93885,0.94154,0.00000,0.00000,0.00000,0.00000,0.00000,0.86147,-0.39625,0.16679,A,145209.90
0.95522,0.00000000,0.00000000,57.68798,11.98125,14:52:10.091044,0.00296,0.00000,0.02466,0.03648,-0.01337,0.00746,0.00797,0.03934,0.03337,0.99692,0.95160,0.00000,0.00000,0.00000,0.00000,0.00000,0.86147,-0.39625,0.16679,A,145209.90
0.97917,0.00000000,0.00000000,57.68798,11.98125,14:52:10.115000,0.01652,0.00000,0.02461,0.03702,-0.01353,-0.01072,0.00797,0.06045,0.05362,1.03053,0.96215,0.00000,0.00000,0.00000,0.00000,0.00000,0.97803,-0.46559,0.18532,A,145210.00
0.98820,0.00000000,0.00000000,57.68798,11.98125,14:52:10.124342,0.00326,0.00000,0.02493,0.03849,-0.01200,-0.02965,0.02049,-0.09223,0.08821,1.04212,0.98434,0.00000,0.00000,0.00000,0.00000,0.00000,0.97803,-0.46559,0.18532,A,145210.00
0.99849,0.00000000,0.00000000,57.68798,11.98125,14:52:10.134618,0.00314,0.00000,0.02536,0.03934,-0.01460,-0.01270,0.02615,-0.11810,0.08058,0.94953,0.99488,0.00000,0.00000,0.00000,0.00000,0.00000,0.97803,-0.46559,0.18532,A,145210.00
1.00887,0.00000000,0.00000000,57.68798,11.98125,14:52:10.144701,0.00312,0.00000,0.02575,0.04025,0.00083,0.01127,0.02385,-0.02727,0.06338,0.87974,1.00525,0.00000,0.00000,0.00000,0.00000,0.00000,0.97803,-0.46559,0.18532,A,145210.00
1.01909,0.00000000,0.00000000,57.68798,11.98125,14:52:10.154912,0.00294,0.00000,0.02610,0.04118,-0.00253,0.00272,0.02095,0.01781,0.06088,0.85168,1.01545,0.00000,0.00000,0.00000,0.00000,0.00000,0.97803,-0.46559,0.18532,A,145210.00
1.03025,0.00000000,0.00000000,57.68798,11.98125,14:52:10.166087,0.00369,0.00000,0.02630,0.04220,0.00190,-0.01362,0.01866,0.02959,0.05100,0.85479,1.02662,0.00000,0.00000,0.00000,0.00000,0.00000,0.97803,-0.46559,0.18532,A,145210.00
1.04009,0.00000000,0.00000000,57.68798,11.98125,14:52:10.175923,0.00313,0.00000,0.02590,0.04308,0.00205,-0.02752,0.02187,-0.03422,0.01751,0.93062,1.03626,0.00000,0.00000,0.00000,0.00000,0.00000,0.97803,-0.46559,0.18532,A,145210.00
1.05049,0.00000000,0.00000000,57.68798,11.98125,14:52:10.186314,0.00314,0.00000,0.02561,0.04412,-0.00498,-0.02400,0.01805,-0.05557,0.03379,1.07671,1.04687,0.00000,0.00000,0.00000,0.00000,0.00000,0.97803,-0.46559,0.18532,A,145210.00
1.06087,0.00000000,0.00000000,57.68798,11.98125,14:52:10.196693,0.00312,0.00000,0.02562,0.04514,-0.00864,-0.01835,0.02202,-0.02007,0.05984,1.12801,1.05724,0.00000,0.00000,0.00000,0.00000,0.00000,0.97803,-0.46559,0.18532,A,145210.00
1.07192,0.00000000,0.00000000,57.68798,11.98125,14:52:10.207769,0.00378,0.00000,0.02600,0.04622,-0.00879,-0.00201,0.02859,0.03306,0.08705,1.10361,1.06810,0.00000,0.00000,0.00000,0.00000,0.00000,0.97803,-0.46559,0.18532,A,145210.00
1.09564,0.00000000,0.00000000,57.68798,11.98125,14:52:10.231704,0.01710,0.00000,0.02659,0.04704,-0.00498,-0.00598,0.02828,0.06783,0.09058,1.01010,1.07805,0.00000,0.00000,0.00000,0.00000,0.00000,1.09448,-0.51512,0.29652,A,145210.10
1.11115,0.00000000,0.00000000,57.68798,11.98125,14:52:10.246979,0.00469,0.88314,0.02624,0.04792,-0.00268,-0.01591,0.01530,-0.10413,0.03202,0.98301,1.10751,0.00000,0.00000,0.00000,0.00000,0.00000,1.09448,-0.51512,0.29652,A,145210.10
1.12031,0.00000000,0.00000000,57.68798,11.98125,14:52:10.256146,0.00362,0.88314,0.02617,0.04792,-0.00711,-0.00583,0.01775,0.01311,0.04703,0.92982,1.11646,0.00000,0.00000,0.00000,0.00000,0.00000,1.09448,-0.51512,0.29652,A,145210.10
1.13024,0.00000000,0.00000000,57.68798,11.98125,14:52:10.266063,0.00317,0.88314,0.02633,0.04792,-0.00864,-0.02171,0.01408,0.07796,0.06191,0.91903,1.12662,0.00000,0.00000,0.00000,0.00000,0.00000,1.09448,-0.51512,0.29652,A,145210.10
1.14114,0.00000000,0.00000000,57.68798,11.98125,14:52:10.276972,0.00367,0.88314,0.02685,0.04792,-0.00986,-0.03179,0.01790,0.00006,0.08930,0.96325,1.13750,0.00000,0.00000,0.00000,0.00000,0.00000,1.09448,-0.51512,0.29652,A,145210.10
1.15095,0.00000000,0.00000000,57.68798,11.98125,14:52:10.286768,0.00295,0.88314,0.02729,0.04792,0.00220,-0.02522,0.01988,-0.12237,0.08192,1.03444,1.14733,0.00000,0.00000,0.00000,0.00000,0.00000,1.09448,-0.51512,0.29652,A,145210.10
1.16152,0.00000000,0.00000000,57.68798,11.98125,14:52:10.297341,0.00312,0.88314,0.02736,0.04792,0.00785,-0.00812,0.01973,-0.14591,0.05337,1.05414,1.15789,0.00000,0.00000,0.00000,0.00000,0.00000,1.09448,-0.51512,0.29652,A,145210.10
1.17196,0.00000000,0.00000000,57.68798,11.98125,14:52:10.307797,0.00314,0.88314,0.02650,0.04792,0.00907,0.00547,0.01439,-0.01440,-0.01220,1.00918,1.16811,0.00000,0.00000,0.00000,0.00000,0.00000,1.09448,-0.51512,0.29652,A,145210.10
1.18234,0.00000000,0.00000000,57.68798,11.98125,14:52:10.318175,0.00313,0.88314,0.02629,0.04792,0.00739,0.00181,0.01408,0.05087,0.03154,0.98051,1.17873,0.00000,0.00000,0.00000,0.00000,0.00000,1.09448,-0.51512,0.29652,A,145210.10
1.19338,0.00000000,0.00000000,57.68798,11.98125,14:52:10.329230,0.00377,0.88314,0.02654,0.04792,0.01213,-0.00843,0.01622,0.03495,0.05801,0.98613,1.18941,0.00000,0.00000,0.00000,0.00000,0.00000,1.09448,-0.51512,0.29652,A,145210.10
1.21700,0.00000000,0.00000000,57.68798,11.98125,14:52:10.352836,0.01681,0.88314,0.02709,0.04792,0.01381,-0.01469,0.01988,-0.11254,0.07967,1.01949,1.19951,0.00000,0.00000,0.00000,0.00000,0.00000,1.21583,-0.55475,0.38918,A,145210.20
1.22704,0.00000000,0.00000000,57.68798,11.98125,14:52:10.374496,0.00363,0.88314,0.02704,0.04792,0.01915,0.00791,0.01943,0.03648,0.01812,0.99595,1.22339,0.00000,0.00000,0.00000,0.00000,0.00000,1.21583,-0.55475,0.38918,A,145210.20
1.25296,0.00000000,0.00000000,57.68798,11.98125,14:52:10.388810,0.01333,0.88314,0.02801,0.04792,0.01152,-0.02339,0.01637,-0.05667,0.09815,1.01772,1.24925,0.00000,0.00000,0.00000,0.00000,0.00000,1.21583,-0.55475,0.38918,A,145210.20
1.28098,0.00000000,0.00000000,57.68798,11.98125,14:52:10.416840,0.01389,0.88314,0.02849,0.04792,0.03015,-0.01224,0.00812,-0.06051,0.03068,1.03676,1.27699,0.00000,0.00000,0.00000,0.00000,0.00000,1.21583,-0.55475,0.38918,A,145210.20
1.31141,0.00000000,0.00000000,57.68798,11.98125,14:52:10.447441,0.01666,0.88314,0.02956,0.04792,0.01534,-0.03393,0.00614,-0.08461,0.08882,0.94983,1.30769,0.00000,0.00000,0.00000,0.00000,0.00000,1.21583,-0.55475,0.38918,A,145210.20
1.38980,0.00000000,0.00000000,57.68798,11.98125,14:52:10.525644,0.06183,0.88314,0.03016,0.04786,0.02862,0.00715,0.00232,0.13926,0.03093,0.97990,1.34090,0.00000,0.00000,0.00000,0.00000,0.00000,1.38862,-0.66371,0.57451,A,145210.40
1.40194,0.00000000,0.00000000,57.68798,11.98125,14:52:10.538056,0.00521,0.88314,0.03170,0.04395,0.02282,-0.03057,0.00919,0.07997,0.06313,0.87401,1.39772,0.00000,0.00000,0.00000,0.00000,0.00000,1.38862,-0.66371,0.57451,A,145210.40
1.41028,0.00000000,0.00000000,57.68798,11.98125,14:52:10.546100,0.00315,0.88314,0.03266,0.04330,0.03244,-0.04309,0.00614,-0.01141,0.09028,0.88718,1.40665,0.00000,0.00000,0.00000,0.00000,0.00000,1.38862,-0.66371,0.57451,A,145210.40
1.42089,0.00000000,0.00000000,57.68798,11.98125,14:52:10.556727,0.00336,0.88314,0.03432,0.04260,0.03901,-0.03851,0.00721,-0.13823,0.13109,0.93062,1.41723,0.00000,0.00000,0.00000,0.00000,0.00000,1.38862,-0.66371,0.57451,A,145210.40
1.43315,0.00000000,0.00000000,57.68798,11.98125,14:52:10.568994,0.00508,0.88314,0.03472,0.04189,0.04405,-0.01789,-0.00195,-0.19636,0.05240,1.04493,1.42915,0.00000,0.00000,0.00000,0.00000,0.00000,1.38862,-0.66371,0.57451,A,145210.40
1.44164,0.00000000,0.00000000,57.68798,11.98125,14:52:10.577458,0.00317,0.88314,0.03469,0.04135,0.04359,0.01631,-0.00867,-0.11492,0.03520,1.11722,1.43801,0.00000,0.00000,0.00000,0.00000,0.00000,1.38862,-0.66371,0.57451,A,145210.40
1.45200,0.00000000,0.00000000,57.68798,11.98125,14:52:10.587836,0.00313,0.88314,0.03503,0.04098,0.03840,0.02792,-0.01280,0.04288,0.06149,1.11624,1.44816,0.00000,0.00000,0.00000,0.00000,0.00000,1.38862,-0.66371,0.57451,A,145210.40
1.46241,0.00000000,0.00000000,57.68798,11.98125,14:52:10.598240,0.00315,0.88314,0.03557,0.04076,0.03687,0.01631,-0.00822,0.16067,0.07113,1.02925,1.45879,0.00000,0.00000,0.00000,0.00000,0.00000,1.38862,-0.66371,0.57451,A,145210.40
1.47276,0.00000000,0.00000000,57.68798,11.98125,14:52:10.608588,0.00310,0.88314,0.03592,0.04070,0.03916,-0.02370,-0.00531,0.04087,0.05417,0.95727,1.46913,0.00000,0.00000,0.00000,0.00000,0.00000,1.38862,-0.66371,0.57451,A,145210.40
1.48309,0.00000000,0.00000000,57.68798,11.98125,14:52:10.618913,0.00295,0.88314,0.03621,0.04070,0.03977,-0.04126,-0.00134,-0.12804,0.05161,0.99259,1.47947,0.00000,0.00000,0.00000,0.00000,0.00000,1.38862,-0.66371,0.57451,A,145210.40
1.50739,0.00000000,0.00000000,57.68798,11.98125,14:52:10.643218,0.01685,0.88314,0.03668,0.04070,0.03947,-0.03057,0.00232,-0.12383,0.06326,1.00040,1.49025,0.00000,0.00000,0.00000,0.00000,0.00000,1.50623,-0.67362,0.72277,A,145210.50
1.52235,0.00000000,0.00000000,57.68798,11.98125,14:52:10.658190,0.00470,0.88314,0.03857,0.04027,0.04252,-0.05882,0.00660,0.06801,0.09607,0.88828,1.51871,0.00000,0.00000,0.00000,0.00000,0.00000,1.50623,-0.67362,0.72277,A,145210.50
1.53099,0.00000000,0.00000000,57.68798,11.98125,14:52:10.666823,0.00301,0.88314,0.04018,0.03994,0.04603,-0.06050,0.00431,-0.18654,0.14914,1.03340,1.52736,0.00000,0.00000,0.00000,0.00000,0.00000,1.50623,-0.67362,0.72277,A,145210.50
1.54151,0.00000000,0.00000000,57.68798,11.98125,14:52:10.677330,0.00312,0.88314,0.04095,0.03948,0.06023,-0.01606,-0.00272,-0.25004,0.08211,1.11484,1.53789,0.00000,0.00000,0.00000,0.00000,0.00000,1.50623,-0.67362,0.72277,A,145210.50
1.55189,0.00000000,0.00000000,57.68798,11.98125,14:52:10.687733,0.00311,0.88314,0.04055,0.03909,0.05611,0.02135,-0.00913,-0.05234,0.00006,1.06951,1.54807,0.00000,0.00000,0.00000,0.00000,0.00000,1.50623,-0.67362,0.72277,A,145210.50
1.56229,0.00000000,0.00000000,57.68798,11.98125,14:52:10.698110,0.00312,0.88314,0.03974,0.03883,0.04634,0.01173,-0.01096,0.19514,-0.02062,0.95825,1.55868,0.00000,0.00000,0.00000,0.00000,0.00000,1.50623,-0.67362,0.72277,A,145210.50
1.57362,0.00000000,0.00000000,57.68798,11.98125,14:52:10.709451,0.00379,0.88314,0.04048,0.03869,0.02618,-0.04615,-0.00318,0.12871,0.08882,0.95038,1.56999,0.00000,0.00000,0.00000,0.00000,0.00000,1.50623,-0.67362,0.72277,A,145210.50
1.58310,0.00000000,0.00000000,57.68798,11.98125,14:52:10.718920,0.00295,0.88314,0.04179,0.03860,0.03198,-0.06493,0.00003,-0.05447,0.12804,0.96618,1.57948,0.00000,0.00000,0.00000,0.00000,0.00000,1.50623,-0.67362,0.72277,A,145210.50
1.59390,0.00000000,0.00000000,57.68798,11.98125,14:52:10.729731,0.00336,0.88314,0.04301,0.03852,0.04099,-0.04951,0.00202,-0.26016,0.12462,1.05750,1.59024,0.00000,0.00000,0.00000,0.00000,0.00000,1.50623,-0.67362,0.72277,A,145210.50
1.60406,0.00000000,0.00000000,57.68798,11.98125,14:52:10.739900,0.00312,0.88314,0.04358,0.03841,0.04481,-0.00751,0.00431,-0.20118,0.08369,1.11203,1.60022,0.00000,0.00000,0.00000,0.00000,0.00000,1.50623,-0.67362,0.72277,A,145210.50
1.64157,0.00000000,0.00000000,57.68799,11.98125,14:52:10.777406,0.03024,0.88314,0.04383,0.03815,0.03458,0.01876,-0.00409,0.06625,0.06228,1.04578,1.61099,0.00000,0.00000,0.00000,0.00000,0.00000,1.63999,-0.79249,0.90809,A,145210.70
1.65055,0.00000000,0.00000000,57.68799,11.98125,14:52:10.786374,0.00328,0.88314,0.04539,0.03702,0.03107,-0.00476,-0.01280,-0.21326,0.09766,0.98930,1.64690,0.00000,0.00000,0.00000,0.00000,0.00000,1.63999,-0.79249,0.90809,A,145210.70
1.66073,0.00000000,0.00000000,57.68799,11.98125,14:52:10.796559,0.00321,0.88314,0.04525,0.03696,0.02343,0.00623,-0.00867,-0.08388,0.04117,0.94019,1.65707,0.00000,0.00000,0.00000,0.00000,0.00000,1.63999,-0.79249,0.90809,A,145210.70
1.67099,0.00000000,0.00000000,57.68799,11.98125,14:52:10.806814,0.00293,0.88314,0.04501,0.03696,0.01335,0.00211,-0.00806,0.13414,0.03843,0.86370,1.66737,0.00000,0.00000,0.00000,0.00000,0.00000,1.63999,-0.79249,0.90809,A,145210.70
1.68158,0.00000000,0.00000000,57.68799,11.98125,14:52:10.817403,0.00313,0.88314,0.04535,0.03696,0.00327,-0.04416,0.00675,0.23467,0.07265,0.81222,1.67796,0.00000,0.00000,0.00000,0.00000,0.00000,1.63999,-0.79249,0.90809,A,145210.70
1.69198,0.00000000,0.00000000,57.68799,11.98125,14:52:10.827821,0.00312,0.88314,0.04673,0.03696,0.00846,-0.07287,0.01469,0.00634,0.13945,0.88883,1.68814,0.00000,0.00000,0.00000,0.00000,0.00000,1.63999,-0.79249,0.90809,A,145210.70
1.70240,0.00000000,0.00000000,57.68799,11.98125,14:52:10.838231,0.00315,0.88314,0.04811,0.03696,0.01335,-0.05485,0.02309,-0.32092,0.17013,1.10703,1.69877,0.00000,0.00000,0.00000,0.00000,0.00000,1.63999,-0.79249,0.90809,A,145210.70
1.71353,0.00000000,0.00000000,57.68799,11.98125,14:52:10.849547,0.00402,0.88314,0.04890,0.03696,0.02374,0.00853,0.01637,-0.25754,0.12761,1.18181,1.70959,0.00000,0.00000,0.00000,0.00000,0.00000,1.63999,-0.79249,0.90809,A,145210.70
1.72401,0.00000000,0.00000000,57.68799,11.98125,14:52:10.859851,0.00396,0.88314,0.04803,0.03696,0.02160,0.03571,0.00477,0.10553,-0.00079,1.06116,1.72017,0.00000,0.00000,0.00000,0.00000,0.00000,1.63999,-0.79249,0.90809,A,145210.70
1.73401,0.00000000,0.00000000,57.68799,11.98125,14:52:10.869835,0.00371,1.14607,0.04725,0.03696,-0.00223,0.00226,-0.00394,0.19862,0.02342,1.02834,1.73037,0.00000,0.00000,0.00000,0.00000,0.00000,1.63999,-0.79249,0.90809,A,145210.70
1.75647,0.00000000,0.00000000,57.68799,11.98125,14:52:10.892307,0.01595,1.14607,0.04732,0.03696,-0.00528,-0.03118,-0.01158,0.01189,0.08571,1.07037,1.73987,0.00000,0.00000,0.00000,0.00000,0.00000,1.75521,-0.83212,1.01929,A,145210.80
1.76470,0.00000000,0.00000000,57.68799,11.98125,14:52:10.900531,0.00320,1.14607,0.04732,0.03696,-0.01108,-0.00568,-0.01142,-0.16696,0.09065,1.02626,1.76104,0.00000,0.00000,0.00000,0.00000,0.00000,1.75521,-0.83212,1.01929,A,145210.80
1.77498,0.00000000,0.00000000,57.68799,11.98125,14:52:10.910800,0.00295,1.14607,0.04683,0.03696,-0.00727,0.01265,-0.00883,-0.01189,0.04227,0.94373,1.77135,0.00000,0.00000,0.00000,0.00000,0.00000,1.75521,-0.83212,1.01929,A,145210.80
1.78582,0.00000000,0.00000000,57.68799,11.98125,14:52:10.921636,0.00321,1.14607,0.04678,0.03696,-0.02101,-0.00094,-0.00272,0.07802,0.08021,0.95337,1.78219,0.00000,0.00000,0.00000,0.00000,0.00000,1.75521,-0.83212,1.01929,A,145210.80
1.79695,0.00000000,0.00000000,57.68799,11.98125,14:52:10.932785,0.00393,1.14607,0.04777,0.03696,-0.01643,0.00089,0.00018,-0.07131,0.15280,1.00979,1.79306,0.00000,0.00000,0.00000,0.00000,0.00000,1.75521,-0.83212,1.01929,A,145210.80
1.80653,0.00000000,0.00000000,57.68799,11.98125,14:52:10.942355,0.00313,1.14607,0.04860,0.03696,-0.00864,0.02991,0.00446,-0.15177,0.14030,1.04706,1.80290,0.00000,0.00000,0.00000,0.00000,0.00000,1.75521,-0.83212,1.01929,A,145210.80
1.81696,0.00000000,0.00000000,57.68799,11.98125,14:52:10.952786,0.00316,1.14607,0.04880,0.03696,0.00434,0.06259,0.00293,-0.21643,0.08571,1.01193,1.81332,0.00000,0.00000,0.00000,0.00000,0.00000,1.75521,-0.83212,1.01929,A,145210.80
1.82710,0.00000000,0.00000000,57.68799,11.98125,14:52:10.962929,0.00296,1.14607,0.04834,0.03696,-0.00146,0.06503,-0.00257,0.03178,0.04166,0.92903,1.82348,0.00000,0.00000,0.00000,0.00000,0.00000,1.75521,-0.83212,1.01929,A,145210.80
1.83793,0.00000000,0.00000000,57.68799,11.98125,14:52:10.973754,0.00321,1.14607,0.04668,0.03696,-0.00803,0.03983,-0.00012,0.07851,-0.03074,0.97240,1.83429,0.00000,0.00000,0.00000,0.00000,0.00000,1.75521,-0.83212,1.01929,A,145210.80
1.84823,0.00000000,0.00000000,57.68799,11.98125,14:52:10.984070,0.00328,1.14607,0.04555,0.03696,-0.02513,0.02823,-0.00348,-0.02397,0.01427,1.08202,1.84438,0.00000,0.00000,0.00000,0.00000,0.00000,1.75521,-0.83212,1.01929,A,145210.80
1.87227,0.00000000,0.00000000,57.68799,11.98125,14:52:11.008106,0.01692,1.14607,0.04588,0.03696,-0.02941,0.03006,0.00644,-0.00647,0.12072,1.06512,1.85487,0.00000,0.00000,0.00000,0.00000,0.00000,1.87100,-0.89155,1.11195,A,145210.90
1.88892,0.00000000,0.00000000,57.68799,11.98125,14:52:11.024763,0.00564,1.14607,0.04583,0.03696,-0.02391,-0.00797,0.01210,-0.09955,0.11602,1.00022,1.88521,0.00000,0.00000,0.00000,0.00000,0.00000,1.87100,-0.89155,1.11195,A,145210.90
1.89695,0.00000000,0.00000000,57.68799,11.98125,14:52:11.032781,0.00327,1.14607,0.04582,0.03696,-0.02483,0.00853,0.00919,-0.03989,0.08235,0.98521,1.89331,0.00000,0.00000,0.00000,0.00000,0.00000,1.87100,-0.89155,1.11195,A,145210.90
1.90708,0.00000000,0.00000000,57.68799,11.98125,14:52:11.042903,0.00294,1.14607,0.04569,0.03696,-0.03017,0.01647,0.00125,0.04880,0.07613,0.91311,1.90346,0.00000,0.00000,0.00000,0.00000,0.00000,1.87100,-0.89155,1.11195,A,145210.90
1.91845,0.00000000,0.00000000,57.68799,11.98125,14:52:11.054278,0.00389,1.14607,0.04559,0.03696,-0.04667,-0.00125,-0.00562,-0.01153,0.09248,0.93001,1.91482,0.00000,0.00000,0.00000,0.00000,0.00000,1.87100,-0.89155,1.11195,A,145210.90
1.92809,0.00000000,0.00000000,57.68799,11.98125,14:52:11.063925,0.00314,1.14607,0.04498,0.03696,-0.05522,-0.00430,-0.00501,-0.07936,0.06191,0.95935,1.92424,0.00000,0.00000,0.00000,0.00000,0.00000,1.87100,-0.89155,1.11195,A,145210.90
1.93847,0.00000000,0.00000000,57.68799,11.98125,14:52:11.074292,0.00313,1.14607,0.04398,0.03696,-0.05461,0.00562,-0.01249,-0.07314,0.04160,0.99881,1.93485,0.00000,0.00000,0.00000,0.00000,0.00000,1.87100,-0.89155,1.11195,A,145210.90
1.94894,0.00000000,0.00000000,57.68799,11.98125,14:52:11.084760,0.00314,1.14607,0.04341,0.03696,-0.06637,0.01097,-0.01173,-0.01793,0.07710,1.00321,1.94530,0.00000,0.00000,0.00000,0.00000,0.00000,1.87100,-0.89155,1.11195,A,145210.90
1.95944,0.00000000,0.00000000,57.68799,11.98125,14:52:11.095548,0.00328,1.14607,0.04183,0.03696,-0.06560,-0.00583,-0.00409,0.07192,0.00885,0.99814,1.95582,0.00000,0.00000,0.00000,0.00000,0.00000,1.87100,-0.89155,1.11195,A,145210.90
1.96968,0.00000000,0.00000000,57.68799,11.98125,14:52:11.105496,0.00312,1.14607,0.04171,0.03696,-0.07385,-0.02324,-0.00180,0.04355,0.10864,0.99729,1.96605,0.00000,0.00000,0.00000,0.00000,0.00000,1.87100,-0.89155,1.11195,A,145210.90
1.99327,0.00000000,0.00000000,57.68799,11.98124,14:52:11.129102,0.01631,1.14607,0.04141,0.03696,-0.06499,-0.03103,0.00751,-0.05844,0.09254,1.01534,1.97624,0.00000,0.00000,0.00000,0.00000,0.00000,1.99212,-0.93118,1.20461,A,145211.00
2.00227,0.00000000,0.00000000,57.68799,11.98124,14:52:11.138099,0.00329,1.14607,0.04017,0.03696,-0.05888,-0.00079,0.00736,-0.04117,0.06911,0.97563,1.99864,0.00000,0.00000,0.00000,0.00000,0.00000,1.99212,-0.93118,1.20461,A,145211.00
2.01895,57.68797625,11.98125610,57.68799,11.98124,14:52:11.154838,0.00958,1.14607,0.04016,0.03696,-0.05262,-0.00552,0.01210,0.12542,0.08906,0.88249,2.00887,1.14607,2.21789,2.22886,-0.93118,1.20461,1.99212,-0.93118,1.20461,A,145211.00
2.02391,57.68797625,11.98125610,57.68799,11.98124,14:52:11.159776,0.00366,1.14607,0.03924,0.00805,-0.05873,-0.03424,0.01576,0.01909,0.03721,0.88853,2.01957,1.14607,2.21789,2.22886,-0.93118,1.20461,1.99212,-0.93118,1.20461,A,145211.00
2.03415,57.68797625,11.98125610,57.68799,11.98124,14:52:11.170002,0.00350,1.14607,0.03864,0.00805,-0.05155,-0.03637,0.01469,-0.15207,0.05557,0.97246,2.03015,1.14607,2.21789,2.22886,-0.93118,1.20461,1.99212,-0.93118,1.20461,A,145211.00
2.04456,57.68797625,11.98125610,57.68799,11.98124,14:52:11.180729,0.00351,1.14607,0.03807,0.00805,-0.05262,-0.02064,0.01576,-0.10388,0.05722,0.99204,2.04034,1.14607,2.21789,2.22886,-0.93118,1.20461,1.99212,-0.93118,1.20461,A,145211.00
2.05496,57.68797625,11.98125610,57.68799,11.98124,14:52:11.190807,0.00351,1.14607,0.03768,0.00805,-0.04346,-0.01194,0.02004,-0.02653,0.06374,0.98924,2.05097,1.14607,2.21789,2.22886,-0.93118,1.20461,1.99212,-0.93118,1.20461,A,145211.00
2.06532,57.68797625,11.98125610,57.68799,11.98124,14:52:11.201167,0.00341,1.14607,0.03730,0.00810,-0.04468,-0.01469,0.02385,-0.05539,0.06972,1.07140,2.06131,1.14607,2.21789,2.22886,-0.93118,1.20461,1.99212,-0.93118,1.20461,A,145211.00
2.07546,57.68797625,11.98125610,57.68799,11.98124,14:52:11.211542,0.00331,1.14607,0.03705,0.00844,-0.04086,-0.00278,0.02721,-0.04569,0.07601,1.09129,2.07147,1.14607,2.21789,2.22886,-0.93118,1.20461,1.99212,-0.93118,1.20461,A,145211.00
2.08621,57.68797625,11.98125610,57.68799,11.98124,14:52:11.222068,0.00380,1.14607,0.03685,0.00915,-0.03918,0.00013,0.03378,-0.02775,0.07948,1.07897,2.08219,1.14607,2.21789,2.22886,-0.93118,1.20461,1.99212,-0.93118,1.20461,A,145211.00
2.11012,57.68797625,11.98125610,57.68799,11.98124,14:52:11.245978,0.01731,1.14607,0.03746,0.01006,-0.03185,-0.01011,0.03531,-0.06326,0.13103,1.07946,2.09237,1.14607,2.21789,2.22886,-0.93118,1.20461,2.10862,-0.99062,1.33434,A,145211.10
2.12580,57.68798691,11.98124076,57.68799,11.98124,14:52:11.261661,0.00778,1.14607,0.03527,0.01243,-0.03934,-0.02813,0.02706,0.02983,-0.01427,0.89029,2.11931,1.14607,2.21978,2.22347,-1.00516,1.30560,2.10862,-0.99062,1.33434,A,145211.10
2.13159,57.68798691,11.98124076,57.68799,11.98124,14:52:11.267676,0.00334,1.14607,0.03456,0.01297,-0.04957,-0.04080,0.02447,0.03806,0.03160,0.84778,2.12760,1.14607,2.21978,2.22347,-1.00516,1.30560,2.10862,-0.99062,1.33434,A,145211.10
2.14292,57.68798691,11.98124076,57.68799,11.98124,14:52:11.278773,0.00402,1.14607,0.03448,0.01334,-0.06026,-0.05806,0.01576,-0.07899,0.08766,0.89993,2.13890,1.14607,2.21978,2.22347,-1.00516,1.30560,2.10862,-0.99062,1.33434,A,145211.10
2.15350,57.68798691,11.98124076,57.68799,11.98124,14:52:11.289364,0.00434,1.14607,0.03430,0.01340,-0.04178,-0.05409,0.00919,-0.15152,0.07344,1.00510,2.14924,1.14607,2.21978,2.22347,-1.00516,1.30560,2.10862,-0.99062,1.33434,A,145211.10
2.16307,57.68798691,11.98124076,57.68799,11.98124,14:52:11.298921,0.00351,1.14607,0.03424,0.01340,-0.04514,-0.02920,0.00797,-0.16720,0.08656,1.04859,2.15907,1.14607,2.21978,2.22347,-1.00516,1.30560,2.10862,-0.99062,1.33434,A,145211.10
2.17333,57.68798691,11.98124076,57.68799,11.98124,14:52:11.309183,0.00337,1.14607,0.03371,0.01340,-0.04529,-0.00568,0.00797,-0.04996,0.05520,1.06262,2.16932,1.14607,2.21978,2.22347,-1.00516,1.30560,2.10862,-0.99062,1.33434,A,145211.10
2.18353,57.68798691,11.98124076,57.68799,11.98124,14:52:11.319598,0.00334,1.14607,0.03331,0.01340,-0.04270,0.00303,0.00751,-0.00695,0.06259,1.07677,2.17953,1.14607,2.21978,2.22347,-1.00516,1.30560,2.10862,-0.99062,1.33434,A,145211.10
2.19417,57.68798691,11.98124076,57.68799,11.98124,14:52:11.330018,0.00357,1.14607,0.03322,0.01340,-0.03033,-0.00888,0.01271,-0.02806,0.07594,1.06695,2.19017,1.14607,2.21978,2.22347,-1.00516,1.30560,2.10862,-0.99062,1.33434,A,145211.10
2.20448,57.68798691,11.98124076,57.68799,11.98124,14:52:11.340338,0.00349,1.14607,0.03264,0.01340,-0.02574,-0.01499,0.01912,-0.10620,0.03648,1.07159,2.20027,1.14607,2.21978,2.22347,-1.00516,1.30560,2.10862,-0.99062,1.33434,A,145211.10
2.24124,57.68798691,11.98124076,57.68799,11.98124,14:52:11.377412,0.02985,1.14607,0.03173,0.01340,-0.02162,-0.00888,0.02538,-0.05258,0.00952,1.00205,2.21090,1.14607,2.21978,2.22347,-1.00516,1.30560,2.23962,-1.12930,1.55673,A,145211.30
2.25619,57.68798806,11.98123922,57.68799,11.98124,14:52:11.392068,0.00856,1.14607,0.03176,0.01340,-0.02162,-0.04065,0.02752,-0.03788,0.09967,0.92012,2.24745,1.14607,2.22046,2.22444,-1.09641,1.43384,2.23962,-1.12930,1.55673,A,145211.30
2.26135,57.68798806,11.98123922,57.68799,11.98124,14:52:11.397208,0.00356,1.14607,0.03209,0.01340,-0.01490,-0.02874,0.01988,-0.13457,0.08461,0.97356,2.25735,1.14607,2.22046,2.22444,-1.09641,1.43384,2.23962,-1.12930,1.55673,A,145211.30
2.27148,57.68798806,11.98123922,57.68799,11.98124,14:52:11.407565,0.00333,1.14607,0.03214,0.01340,-0.01933,-0.01255,0.01286,-0.10388,0.07399,1.04408,2.26748,1.14607,2.22046,2.22444,-1.09641,1.43384,2.23962,-1.12930,1.55673,A,145211.30
2.28213,57.68798806,11.98123922,57.68799,11.98124,14:52:11.417981,0.00351,1.14607,0.03156,0.01340,-0.01399,-0.00003,0.00293,0.00512,0.02605,1.02053,2.27813,1.14607,2.22046,2.22444,-1.09641,1.43384,2.23962,-1.12930,1.55673,A,145211.30
2.29345,57.68798806,11.98123922,57.68799,11.98124,14:52:11.429310,0.00444,1.14607,0.03048,0.01340,-0.03017,-0.01148,0.00003,0.01610,0.00409,1.02041,2.28917,1.14607,2.22046,2.22444,-1.09641,1.43384,2.23962,-1.12930,1.55673,A,145211.30
2.30293,57.68798806,11.98123922,57.68799,11.98124,14:52:11.438787,0.00352,1.14607,0.03035,0.01340,-0.02972,-0.01820,0.00186,-0.01806,0.06387,1.00607,2.29894,1.14607,2.22046,2.22444,-1.09641,1.43384,2.23962,-1.12930,1.55673,A,145211.30
2.31417,57.68798806,11.98123922,57.68799,11.98124,14:52:11.450039,0.00435,1.14607,0.03042,0.01340,-0.02376,-0.02156,0.00874,-0.08662,0.07552,1.00308,2.31000,1.14607,2.22046,2.22444,-1.09641,1.43384,2.23962,-1.12930,1.55673,A,145211.30
2.32363,57.68798806,11.98123922,57.68799,11.98124,14:52:11.459701,0.00347,1.24285,0.03075,0.01340,-0.01903,-0.01392,0.00919,-0.13524,0.08876,1.01724,2.31962,1.14607,2.22046,2.22444,-1.09641,1.43384,2.23962,-1.12930,1.55673,A,145211.30
2.33406,57.68798806,11.98123922,57.68799,11.98124,14:52:11.469906,0.00350,1.24285,0.03050,0.01340,-0.01200,0.00013,0.01164,-0.01275,0.04398,0.97728,2.33007,1.14607,2.22046,2.22444,-1.09641,1.43384,2.23962,-1.12930,1.55673,A,145211.30
2.35895,57.68798806,11.98123922,57.68799,11.98124,14:52:11.494812,0.01800,1.24285,0.03019,0.01340,-0.01307,-0.00705,0.02141,0.07229,0.03849,0.91347,2.34082,1.14607,2.22046,2.22444,-1.09641,1.43384,2.35746,-1.18874,1.66792,A,145211.40
2.37138,57.68798911,11.98123786,57.68799,11.98124,14:52:11.507233,0.00560,1.24285,0.03094,0.01340,-0.00681,-0.01759,0.01652,-0.11517,0.12127,1.05634,2.36536,1.15575,2.22044,2.22442,-1.17740,1.55093,2.35746,-1.18874,1.66792,A,145211.40
2.38026,57.68798911,11.98123786,57.68799,11.98124,14:52:11.516124,0.00411,1.24285,0.03122,0.01340,-0.00604,-0.01881,0.01637,0.00677,0.07741,1.01364,2.37605,1.15575,2.22044,2.22442,-1.17740,1.55093,2.35746,-1.18874,1.66792,A,145211.40
2.39006,57.68798911,11.98123786,57.68799,11.98124,14:52:11.525910,0.00350,1.24285,0.03113,0.01340,-0.00620,-0.03164,0.01484,0.04551,0.05191,0.98515,2.38607,1.15575,2.22044,2.22442,-1.17740,1.55093,2.35746,-1.18874,1.66792,A,145211.40
2.40047,57.68798911,11.98123786,57.68799,11.98124,14:52:11.536324,0.00352,1.24285,0.03083,0.01340,-0.01490,-0.04462,0.01698,-0.00817,0.04215,0.96142,2.39627,1.15575,2.22044,2.22442,-1.17740,1.55093,2.35746,-1.18874,1.66792,A,145211.40
2.41086,57.68798911,11.98123786,57.68799,11.98124,14:52:11.546710,0.00350,1.24285,0.03148,0.01340,-0.01414,-0.02339,0.01240,-0.08601,0.10486,0.97649,2.40686,1.15575,2.22044,2.22442,-1.17740,1.55093,2.35746,-1.18874,1.66792,A,145211.40
2.42127,57.68798911,11.98123786,57.68799,11.98124,14:52:11.557134,0.00352,1.24285,0.03206,0.01340,-0.00146,0.00486,0.01362,-0.11816,0.08711,0.92141,2.41726,1.15575,2.22044,2.22442,-1.17740,1.55093,2.35746,-1.18874,1.66792,A,145211.40
2.43227,57.68798911,11.98123786,57.68799,11.98124,14:52:11.568132,0.00412,1.24285,0.03233,0.01340,-0.00635,0.02013,0.00782,-0.03263,0.07503,0.97179,2.42768,1.15575,2.22044,2.22442,-1.17740,1.55093,2.35746,-1.18874,1.66792,A,145211.40
2.44204,57.68798911,11.98123786,57.68799,11.98124,14:52:11.577887,0.00348,1.24285,0.03125,0.01340,0.00068,0.00715,0.00721,0.06082,-0.01806,1.04444,2.43805,1.15575,2.22044,2.22442,-1.17740,1.55093,2.35746,-1.18874,1.66792,A,145211.40
2.45245,57.68798911,11.98123786,57.68799,11.98124,14:52:11.588313,0.00351,1.24285,0.03007,0.01340,-0.00482,-0.02263,0.00202,0.08766,-0.02409,1.09629,2.44824,1.15575,2.22044,2.22442,-1.17740,1.55093,2.35746,-1.18874,1.66792,A,145211.40
2.47694,57.68798911,11.98123786,57.68799,11.98124,14:52:11.612805,0.01775,1.24285,0.02942,0.01340,-0.01536,-0.03317,0.00599,0.04331,0.02294,1.07390,2.45971,1.15575,2.22044,2.22442,-1.17740,1.55093,2.47529,-1.23827,1.79765,A,145211.50
2.49081,57.68799021,11.98123650,57.68799,11.98124,14:52:11.626669,0.00747,1.24285,0.03018,0.01340,0.00480,-0.01820,0.01729,-0.09595,0.09455,0.99064,2.48475,1.16446,2.21922,2.22319,-1.25784,1.67268,2.47529,-1.23827,1.79765,A,145211.50
2.49746,57.68799021,11.98123650,57.68799,11.98124,14:52:11.633314,0.00373,1.24285,0.03048,0.01340,0.01824,-0.02202,0.02263,-0.03312,0.05941,0.95300,2.49346,1.16446,2.21922,2.22319,-1.25784,1.67268,2.47529,-1.23827,1.79765,A,145211.50
2.50747,57.68799021,11.98123650,57.68799,11.98124,14:52:11.643544,0.00332,1.24285,0.02957,0.01340,0.01167,-0.02660,0.01652,0.02281,-0.01330,0.92500,2.50347,1.16446,2.21922,2.22319,-1.25784,1.67268,2.47529,-1.23827,1.79765,A,145211.50
2.51819,57.68799021,11.98123650,57.68799,11.98124,14:52:11.654050,0.00350,1.24285,0.02920,0.01340,0.00159,-0.02171,0.01698,-0.08021,0.02684,1.02700,2.51420,1.16446,2.21922,2.22319,-1.25784,1.67268,2.47529,-1.23827,1.79765,A,145211.50
2.52873,57.68799021,11.98123650,57.68799,11.98124,14:52:11.664588,0.00380,1.24285,0.02960,0.01340,0.00663,0.00532,0.01347,-0.12676,0.07881,1.05670,2.52448,1.16446,2.21922,2.22319,-1.25784,1.67268,2.47529,-1.23827,1.79765,A,145211.50
2.53962,57.68799021,11.98123650,57.68799,11.98124,14:52:11.675709,0.00422,1.24285,0.03027,0.01340,0.01656,0.02410,0.00935,-0.03093,0.08235,0.96862,2.53559,1.16446,2.21922,2.22319,-1.25784,1.67268,2.47529,-1.23827,1.79765,A,145211.50
2.54963,57.68799021,11.98123650,57.68799,11.98124,14:52:11.685827,0.00383,1.24285,0.03067,0.01340,0.02404,0.01494,0.00446,0.03569,0.05807,0.89115,2.54530,1.16446,2.21922,2.22319,-1.25784,1.67268,2.47529,-1.23827,1.79765,A,145211.50
2.56029,57.68799021,11.98123650,57.68799,11.98124,14:52:11.696147,0.00412,1.24285,0.02995,0.01340,0.02740,-0.00705,-0.00073,-0.02178,-0.01208,0.92147,2.55581,1.16446,2.21922,2.22319,-1.25784,1.67268,2.47529,-1.23827,1.79765,A,145211.50
2.57008,57.68799021,11.98123650,57.68799,11.98124,14:52:11.705925,0.00351,1.24285,0.02990,0.01340,0.02572,-0.01560,0.00064,-0.10742,0.03367,1.06604,2.56607,1.16446,2.21922,2.22319,-1.25784,1.67268,2.47529,-1.23827,1.79765,A,145211.50
2.59422,57.68799021,11.98123650,57.68800,11.98124,14:52:11.730101,0.01726,1.24285,0.03020,0.01340,0.02251,0.00623,0.00095,-0.01720,0.06198,1.07726,2.57627,1.16446,2.21922,2.22319,-1.25784,1.67268,2.59272,-1.29771,1.90885,A,145211.60
2.60937,57.68799129,11.98123519,57.68800,11.98124,14:52:11.745246,0.00819,1.24285,0.03181,0.01340,0.03549,-0.04844,0.01500,0.02306,0.09736,0.97734,2.60273,1.17230,2.21925,2.22323,-1.33569,1.79298,2.59272,-1.29771,1.90885,A,145211.60
2.61514,57.68799129,11.98123519,57.68800,11.98124,14:52:11.751006,0.00366,1.24285,0.03279,0.01340,0.03748,-0.05287,0.01958,-0.10449,0.10266,1.03255,2.61113,1.17230,2.21925,2.22323,-1.33569,1.79298,2.59272,-1.29771,1.90885,A,145211.60
2.62556,57.68799129,11.98123519,57.68800,11.98124,14:52:11.761425,0.00368,1.24285,0.03287,0.01340,0.03427,-0.02736,0.01393,-0.11413,0.03843,1.02126,2.62155,1.17230,2.21925,2.22323,-1.33569,1.79298,2.59272,-1.29771,1.90885,A,145211.60
2.63547,57.68799129,11.98123519,57.68800,11.98124,14:52:11.771562,0.00331,1.24285,0.03262,0.01340,0.02648,-0.02064,0.00812,-0.02422,0.02190,1.00973,2.63148,1.17230,2.21925,2.22323,-1.33569,1.79298,2.59272,-1.29771,1.90885,A,145211.60
2.64605,57.68799129,11.98123519,57.68800,11.98124,14:52:11.781915,0.00349,1.24285,0.03256,0.01340,0.02526,-0.03118,-0.00577,0.07210,0.03331,0.98619,2.64205,1.17230,2.21925,2.22323,-1.33569,1.79298,2.59272,-1.29771,1.90885,A,145211.60
2.65669,57.68799129,11.98123519,57.68800,11.98124,14:52:11.792567,0.00390,1.24285,0.03307,0.01340,0.01503,-0.03927,-0.00715,-0.02940,0.08211,1.03407,2.65237,1.17230,2.21925,2.22323,-1.33569,1.79298,2.59272,-1.29771,1.90885,A,145211.60
2.66671,57.68799129,11.98123519,57.68800,11.98124,14:52:11.802569,0.00352,1.24285,0.03380,0.01340,0.02053,-0.02370,-0.01341,-0.11736,0.09620,1.05835,2.66271,1.17230,2.21925,2.22323,-1.33569,1.79298,2.59272,-1.29771,1.90885,A,145211.60
2.67758,57.68799129,11.98123519,57.68800,11.98124,14:52:11.813461,0.00399,1.24285,0.03388,0.01340,0.02022,-0.00736,-0.01326,-0.10681,0.04849,1.01791,2.67353,1.17230,2.21925,2.22323,-1.33569,1.79298,2.59272,-1.29771,1.90885,A,145211.60
2.68745,57.68799129,11.98123519,57.68800,11.98124,14:52:11.823540,0.00332,1.24285,0.03396,0.01337,0.02206,-0.00216,-0.00791,0.02342,0.04605,0.96892,2.68346,1.17230,2.21925,2.22323,-1.33569,1.79298,2.59272,-1.29771,1.90885,A,145211.60
2.71162,57.68799129,11.98123519,57.68800,11.98124,14:52:11.847711,0.01710,1.24285,0.03411,0.01326,0.01915,-0.02339,-0.00241,0.07814,0.05124,0.96020,2.69425,1.17230,2.21925,2.22323,-1.33569,1.79298,2.71011,-1.34724,1.98298,A,145211.70
2.72361,57.68799231,11.98123397,57.68800,11.98124,14:52:11.859698,0.00579,1.24285,0.03511,0.01246,0.01549,-0.03775,0.01500,-0.07076,0.09760,0.97118,2.71736,1.17935,2.22023,2.22393,-1.40869,1.90601,2.71011,-1.34724,1.98298,A,145211.70
2.73155,57.68799231,11.98123397,57.68800,11.98124,14:52:11.867618,0.00334,1.24285,0.03559,0.01170,0.01579,-0.02813,0.01378,-0.06582,0.07716,0.96795,2.72756,1.17935,2.22023,2.22393,-1.40869,1.90601,2.71011,-1.34724,1.98298,A,145211.70
2.74213,57.68799231,11.98123397,57.68800,11.98124,14:52:11.877977,0.00351,1.24285,0.03625,0.01060,0.01335,-0.01469,0.00385,-0.03416,0.09205,0.99582,2.73813,1.17935,2.22023,2.22393,-1.40869,1.90601,2.71011,-1.34724,1.98298,A,145211.70
2.75255,57.68799231,11.98123397,57.68800,11.98124,14:52:11.888407,0.00354,1.24285,0.03660,0.00929,0.00449,-0.01117,-0.00226,-0.06338,0.08442,1.06219,2.74832,1.17935,2.22023,2.22393,-1.40869,1.90601,2.71011,-1.34724,1.98298,A,145211.70
2.76340,57.68799231,11.98123397,57.68800,11.98124,14:52:11.899478,0.00414,1.24285,0.03668,0.00776,0.00006,0.00028,-0.01264,0.00494,0.06905,1.08275,2.75911,1.17935,2.22023,2.22393,-1.40869,1.90601,2.71011,-1.34724,1.98298,A,145211.70
2.77385,57.68799231,11.98123397,57.68800,11.98124,14:52:11.909707,0.00349,1.24285,0.03634,0.00607,-0.00956,-0.00232,-0.01967,0.05758,0.04319,1.01510,2.76987,1.17935,2.22023,2.22393,-1.40869,1.90601,2.71011,-1.34724,1.98298,A,145211.70
2.78426,57.68799231,11.98123397,57.68800,11.98124,14:52:11.920116,0.00350,1.24285,0.03642,0.00451,-0.01521,-0.02721,-0.02379,0.01019,0.07143,0.96740,2.78005,1.17935,2.22023,2.22393,-1.40869,1.90601,2.71011,-1.34724,1.98298,A,145211.70
2.79466,57.68799231,11.98123397,57.68800,11.98124,14:52:11.930514,0.00350,1.24285,0.03616,0.00304,-0.02834,-0.03683,-0.02089,-0.10205,0.06094,1.01467,2.79067,1.17935,2.22023,2.22393,-1.40869,1.90601,2.71011,-1.34724,1.98298,A,145211.70
2.80533,57.68799231,11.98123397,57.68800,11.98124,14:52:11.941182,0.00376,1.24285,0.03597,0.00171,-0.02636,-0.00797,-0.02410,-0.06356,0.06216,0.98375,2.80131,1.17935,2.22023,2.22393,-1.40869,1.90601,2.71011,-1.34724,1.98298,A,145211.70
2.84025,57.68799231,11.98123397,57.68800,11.98124,14:52:11.976106,0.02813,1.24285,0.03554,0.00058,-0.03216,-0.00354,-0.02501,0.06399,0.04514,0.90176,2.81142,1.17935,2.22023,2.22393,-1.40869,1.90601,2.83853,-1.44630,2.20537,A,145211.90
2.85154,57.68799353,11.98123253,57.68800,11.98124,14:52:11.988380,0.00564,1.24285,0.03433,-0.00183,-0.02284,-0.00644,-0.02104,-0.09101,0.02910,1.07836,2.84553,1.18570,2.21958,2.21904,-1.49377,2.04223,2.83853,-1.44630,2.20537,A,145211.90
2.86029,57.68799353,11.98123253,57.68800,11.98124,14:52:11.996150,0.00416,1.24285,0.03363,-0.00217,-0.03460,0.00104,-0.01952,-0.00720,0.03337,1.04566,2.85607,1.18570,2.21958,2.21904,-1.49377,2.04223,2.83853,-1.44630,2.20537,A,145211.90
2.87037,57.68799353,11.98123253,57.68800,11.98124,14:52:12.006235,0.00384,1.24285,0.03280,-0.00234,-0.04041,-0.00965,-0.01341,0.08900,0.02769,1.06573,2.86605,1.18570,2.21958,2.21904,-1.49377,2.04223,2.83853,-1.44630,2.20537,A,145211.90
2.88046,57.68799353,11.98123253,57.68800,11.98124,14:52:12.016316,0.00352,1.30886,0.03265,-0.00237,-0.04392,-0.02385,-0.00745,0.05563,0.07515,1.02761,2.87624,1.18570,2.21958,2.21904,-1.49377,2.04223,2.83853,-1.44630,2.20537,A,145211.90
2.89104,57.68799353,11.98123253,57.68800,11.98124,14:52:12.026900,0.00357,1.30886,0.03219,-0.00237,-0.04621,-0.03454,0.00064,-0.03776,0.05362,0.97179,2.88703,1.18570,2.21958,2.21904,-1.49377,2.04223,2.83853,-1.44630,2.20537,A,145211.90
2.90130,57.68799353,11.98123253,57.68800,11.98124,14:52:12.037151,0.00343,1.30886,0.03179,-0.00240,-0.05552,-0.02217,-0.00699,-0.05996,0.05978,0.93983,2.89730,1.18570,2.21958,2.21904,-1.49377,2.04223,2.83853,-1.44630,2.20537,A,145211.90
2.91149,57.68799353,11.98123253,57.68800,11.98124,14:52:12.047563,0.00332,1.30886,0.03150,-0.00248,-0.05537,-0.01163,-0.00806,-0.05703,0.06393,0.90914,2.90750,1.18570,2.21958,2.21904,-1.49377,2.04223,2.83853,-1.44630,2.20537,A,145211.90
2.92223,57.68799353,11.98123253,57.68800,11.98124,14:52:12.058089,0.00367,1.30886,0.03145,-0.00265,-0.05690,-0.01301,-0.01173,0.02190,0.08058,0.90207,2.91823,1.18570,2.21958,2.21904,-1.49377,2.04223,2.83853,-1.44630,2.20537,A,145211.90
2.93247,57.68799353,11.98123253,57.68800,11.98124,14:52:12.068325,0.00351,1.30886,0.03106,-0.00288,-0.06881,-0.02202,-0.02211,0.03453,0.06600,0.92549,2.92827,1.18570,2.21958,2.21904,-1.49377,2.04223,2.83853,-1.44630,2.20537,A,145211.90
2.95689,57.68799353,11.98123253,57.68800,11.98124,14:52:12.092740,0.01703,1.30886,0.03050,-0.00316,-0.06973,-0.02431,-0.02425,-0.05795,0.06454,0.98503,2.93943,1.18570,2.21958,2.21904,-1.49377,2.04223,2.95512,-1.46611,2.33509,A,145212.00
2.96907,57.68799468,11.98123133,57.68800,11.98124,14:52:12.105243,0.00659,1.30886,0.02921,-0.00350,-0.06072,0.00746,-0.02456,-0.16708,0.06899,1.21677,2.96240,1.19802,2.21439,2.21335,-1.56512,2.16937,2.95512,-1.46611,2.33509,A,145212.00
2.97635,57.68799468,11.98123133,57.68800,11.98124,14:52:12.112194,0.00361,1.30886,0.02830,-0.00350,-0.05659,0.02823,-0.02089,0.00506,0.03019,1.21146,2.97211,1.19802,2.21439,2.21335,-1.56512,2.16937,2.95512,-1.46611,2.33509,A,145212.00
2.98675,57.68799468,11.98123133,57.68800,11.98124,14:52:12.122603,0.00361,1.30886,0.02724,-0.00350,-0.06194,0.00440,-0.01524,0.08650,0.02464,1.12411,2.98275,1.19802,2.21439,2.21335,-1.56512,2.16937,2.95512,-1.46611,2.33509,A,145212.00
2.99756,57.68799468,11.98123133,57.68800,11.98124,14:52:12.133415,0.00374,1.30886,0.02653,-0.00350,-0.06301,-0.01408,-0.01066,0.02830,0.04178,0.95556,2.99332,1.19802,2.21439,2.21335,-1.56512,2.16937,2.95512,-1.46611,2.33509,A,145212.00
3.00748,57.68799468,11.98123133,57.68800,11.98124,14:52:12.143557,0.00333,1.30886,0.02655,-0.00350,-0.05583,-0.02461,-0.00837,-0.08845,0.07405,0.86321,3.00349,1.19802,2.21439,2.21335,-1.56512,2.16937,2.95512,-1.46611,2.33509,A,145212.00
3.01820,57.68799468,11.98123133,57.68800,11.98124,14:52:12.154051,0.00365,1.30886,0.02679,-0.00350,-0.04285,-0.01270,-0.00348,-0.17318,0.07942,0.85144,3.01420,1.19802,2.21439,2.21335,-1.56512,2.16937,2.95512,-1.46611,2.33509,A,145212.00
3.02860,57.68799468,11.98123133,57.68800,11.98124,14:52:12.164451,0.00364,1.30886,0.02658,-0.00350,-0.03796,-0.00247,-0.00440,-0.04849,0.04874,0.82472,3.02437,1.19802,2.21439,2.21335,-1.56512,2.16937,2.95512,-1.46611,2.33509,A,145212.00
3.03885,57.68799468,11.98123133,57.68800,11.98124,14:52:12.174695,0.00350,1.30886,0.02628,-0.00350,-0.03750,-0.00934,-0.01020,0.04813,0.04551,0.86858,3.03485,1.19802,2.21439,2.21335,-1.56512,2.16937,2.95512,-1.46611,2.33509,A,145212.00
3.04924,57.68799468,11.98123133,57.68800,11.98124,14:52:12.185096,0.00349,1.30886,0.02561,-0.00350,-0.04468,-0.01484,-0.00730,0.00939,0.03141,0.95727,3.04524,1.19802,2.21439,2.21335,-1.56512,2.16937,2.95512,-1.46611,2.33509,A,145212.00
3.07415,57.68799468,11.98123133,57.68800,11.98123,14:52:12.210010,0.01800,1.30886,0.02526,-0.00350,-0.04254,-0.00705,-0.00990,-0.10712,0.05636,1.10038,3.05548,1.19802,2.21439,2.21335,-1.56512,2.16937,3.07263,-1.53546,2.44629,A,145212.10
3.08997,57.68799581,11.98123014,57.68800,11.98123,14:52:12.225829,0.01010,1.30886,0.02397,-0.00350,-0.03842,0.03678,-0.01494,-0.04319,0.02184,1.10288,3.07928,1.20910,2.21310,2.21206,-1.63607,2.29580,3.07263,-1.53546,2.44629,A,145212.10
3.10832,57.68799581,11.98123014,57.68800,11.98123,14:52:12.244209,0.00876,1.30886,0.02246,-0.00350,-0.05079,-0.01285,-0.01906,0.02068,0.02105,1.01046,3.10233,1.20910,2.21310,2.21206,-1.63607,2.29580,3.07263,-1.53546,2.44629,A,145212.10
3.11363,57.68799581,11.98123014,57.68800,11.98123,14:52:12.249646,0.00383,1.30886,0.02218,-0.00350,-0.05247,-0.02706,-0.02043,-0.06997,0.04941,1.00223,3.10960,1.20910,2.21310,2.21206,-1.63607,2.29580,3.07263,-1.53546,2.44629,A,145212.10
3.12432,57.68799581,11.98123014,57.68800,11.98123,14:52:12.260174,0.00415,1.30886,0.02229,-0.00356,-0.04728,-0.01942,-0.02196,-0.10108,0.07912,0.95392,3.12010,1.20910,2.21310,2.21206,-1.63607,2.29580,3.07263,-1.53546,2.44629,A,145212.10
3.13408,57.68799581,11.98123014,57.68800,11.98123,14:52:12.269934,0.00352,1.30886,0.02206,-0.00375,-0.04545,-0.00782,-0.02043,-0.11053,0.05319,0.93031,3.13008,1.20910,2.21310,2.21206,-1.63607,2.29580,3.07263,-1.53546,2.44629,A,145212.10
3.14446,57.68799581,11.98123014,57.68800,11.98123,14:52:12.280308,0.00350,1.30886,0.02170,-0.00409,-0.03934,0.00700,-0.01906,-0.01800,0.03873,0.86583,3.14024,1.20910,2.21310,2.21206,-1.63607,2.29580,3.07263,-1.53546,2.44629,A,145212.10
3.15486,57.68799581,11.98123014,57.68800,11.98123,14:52:12.290715,0.00351,1.30886,0.02078,-0.00469,-0.03017,0.00150,-0.02318,0.01257,0.00110,0.86913,3.15086,1.20910,2.21310,2.21206,-1.63607,2.29580,3.07263,-1.53546,2.44629,A,145212.10
3.16625,57.68799581,11.98123014,57.68800,11.98123,14:52:12.302118,0.00450,1.30886,0.02011,-0.00551,-0.03567,-0.01072,-0.02624,-0.01372,0.02007,0.88993,3.16191,1.20910,2.21310,2.21206,-1.63607,2.29580,3.07263,-1.53546,2.44629,A,145212.10
3.19188,57.68799581,11.98123014,57.68800,11.98123,14:52:12.327765,0.01985,1.30886,0.01944,-0.00633,-0.03720,-0.01377,-0.02669,-0.19715,0.02391,1.09513,3.17281,1.20910,2.21310,2.21206,-1.63607,2.29580,3.18948,-1.61470,2.55748,A,145212.20
3.21019,57.68799698,11.98122888,57.68800,11.98123,14:52:12.346053,0.00739,1.30886,0.01789,-0.00876,-0.04529,-0.00262,-0.02242,0.13170,0.03099,1.07799,3.20389,1.21908,2.21242,2.20982,-1.71083,2.42498,3.18948,-1.61470,2.55748,A,145212.20
3.21690,57.68799698,11.98122888,57.68800,11.98123,14:52:12.352756,0.00370,1.30886,0.01762,-0.00939,-0.04346,-0.03164,-0.01860,-0.00653,0.04990,1.10776,3.21288,1.21908,2.21242,2.20982,-1.71083,2.42498,3.18948,-1.61470,2.55748,A,145212.20
3.22723,57.68799698,11.98122888,57.68800,11.98123,14:52:12.363082,0.00334,1.30886,0.01828,-0.01021,-0.03766,-0.01606,-0.02089,-0.10644,0.10797,1.00351,3.22323,1.21908,2.21242,2.20982,-1.71083,2.42498,3.18948,-1.61470,2.55748,A,145212.20
3.23784,57.68799698,11.98122888,57.68800,11.98123,14:52:12.373685,0.00354,1.30886,0.01800,-0.01114,-0.03582,-0.01255,-0.02501,-0.02690,0.03379,0.77799,3.23384,1.21908,2.21242,2.20982,-1.71083,2.42498,3.18948,-1.61470,2.55748,A,145212.20
3.24897,57.68799698,11.98122888,57.68800,11.98123,14:52:12.384828,0.00424,1.30886,0.01812,-0.01222,-0.03689,-0.02721,-0.03005,-0.00945,0.05826,0.81130,3.24492,1.21908,2.21242,2.20982,-1.71083,2.42498,3.18948,-1.61470,2.55748,A,145212.20
3.25870,57.68799698,11.98122888,57.68800,11.98123,14:52:12.394553,0.00357,1.30886,0.01755,-0.01324,-0.04285,-0.02110,-0.04273,-0.05228,0.02294,0.87181,3.25470,1.21908,2.21242,2.20982,-1.71083,2.42498,3.18948,-1.61470,2.55748,A,145212.20
3.26981,57.68799698,11.98122888,57.68800,11.98123,14:52:12.405672,0.00403,1.30886,0.01659,-0.01431,-0.04239,-0.01591,-0.04044,0.01013,0.00268,0.93354,3.26580,1.21908,2.21242,2.20982,-1.71083,2.42498,3.18948,-1.61470,2.55748,A,145212.20
3.27949,57.68799698,11.98122888,57.68800,11.98123,14:52:12.415568,0.00334,1.30886,0.01565,-0.01525,-0.05339,-0.01515,-0.04639,-0.04709,0.00677,1.03371,3.27550,1.21908,2.21242,2.20982,-1.71083,2.42498,3.18948,-1.61470,2.55748,A,145212.20
3.29004,57.68799698,11.98122888,57.68800,11.98123,14:52:12.425885,0.00349,1.30886,0.01488,-0.01612,-0.04789,-0.01270,-0.04410,-0.06344,0.01976,1.16211,3.28606,1.21908,2.21242,2.20982,-1.71083,2.42498,3.18948,-1.61470,2.55748,A,145212.20
3.31352,57.68799698,11.98122888,57.68800,11.98123,14:52:12.449374,0.01657,1.30886,0.01444,-0.01680,-0.04483,0.00562,-0.04273,-0.01659,0.04038,1.14741,3.29651,1.21908,2.21242,2.20982,-1.71083,2.42498,3.31204,-1.67414,2.66868,A,145212.30
3.33256,57.68799814,11.98122763,57.68800,11.98123,14:52:12.468428,0.00735,1.30886,0.01299,-0.01802,-0.04254,-0.01606,-0.02746,-0.07936,0.01873,1.08769,3.32563,1.22806,2.20977,2.20442,-1.78543,2.55468,3.31204,-1.67414,2.66868,A,145212.30
3.33910,57.68799814,11.98122763,57.68800,11.98123,14:52:12.474951,0.00349,1.30886,0.01293,-0.01836,-0.03521,-0.00476,-0.02227,-0.10114,0.05112,1.03419,3.33511,1.22806,2.20977,2.20442,-1.78543,2.55468,3.31204,-1.67414,2.66868,A,145212.30
3.34953,57.68799814,11.98122763,57.68800,11.98123,14:52:12.485379,0.00352,1.30886,0.01274,-0.01878,-0.03140,0.00623,-0.02685,-0.03745,0.03684,0.93153,3.34552,1.22806,2.20977,2.20442,-1.78543,2.55468,3.31204,-1.67414,2.66868,A,145212.30
3.35957,57.68799814,11.98122763,57.68800,11.98123,14:52:12.495646,0.00334,1.30886,0.01209,-0.01935,-0.03048,0.00058,-0.03693,0.00464,0.00683,0.91470,3.35557,1.22806,2.20977,2.20442,-1.78543,2.55468,3.31204,-1.67414,2.66868,A,145212.30
3.37120,57.68799814,11.98122763,57.68800,11.98123,14:52:12.507051,0.00455,1.30886,0.01194,-0.02000,-0.03964,-0.00629,-0.03922,-0.01244,0.04459,0.89499,3.36695,1.22806,2.20977,2.20442,-1.78543,2.55468,3.31204,-1.67414,2.66868,A,145212.30
3.38127,57.68799814,11.98122763,57.68800,11.98123,14:52:12.517134,0.00424,1.30886,0.01134,-0.02051,-0.03857,-0.01835,-0.03800,0.04008,0.01305,0.86461,3.37724,1.22806,2.20977,2.20442,-1.78543,2.55468,3.31204,-1.67414,2.66868,A,145212.30
3.39126,57.68799814,11.98122763,57.68800,11.98123,14:52:12.527108,0.00339,1.30886,0.01071,-0.02091,-0.04056,-0.02538,-0.04013,-0.02696,0.01299,0.93781,3.38724,1.22806,2.20977,2.20442,-1.78543,2.55468,3.31204,-1.67414,2.66868,A,145212.30
3.40226,57.68799814,11.98122763,57.68800,11.98123,14:52:12.538132,0.00415,1.30886,0.01001,-0.02116,-0.04407,-0.02461,-0.03906,-0.03068,0.01269,0.99180,3.39798,1.22806,2.20977,2.20442,-1.78543,2.55468,3.31204,-1.67414,2.66868,A,145212.30
3.41248,57.68799814,11.98122763,57.68800,11.98123,14:52:12.548487,0.00414,1.30886,0.00968,-0.02127,-0.04453,-0.01744,-0.03601,-0.07046,0.03526,1.02620,3.40769,1.22806,2.20977,2.20442,-1.78543,2.55468,3.31204,-1.67414,2.66868,A,145212.30
3.44647,57.68799814,11.98122763,57.68800,11.98123,14:52:12.582328,0.02773,1.35846,0.00963,-0.02127,-0.04315,0.00425,-0.03341,-0.05295,0.05722,1.05066,3.41841,1.22806,2.20977,2.20442,-1.78543,2.55468,3.44497,-1.79302,2.83547,A,145212.50
3.46543,57.68799944,11.98122617,57.68800,11.98123,14:52:12.601287,0.00673,1.35846,0.00812,-0.02127,-0.02361,-0.00384,-0.03754,-0.04868,-0.01074,1.02687,3.45908,1.24110,2.20698,2.20066,-1.87204,2.69962,3.44497,-1.79302,2.83547,A,145212.50
3.47263,57.68799944,11.98122617,57.68800,11.98123,14:52:12.608480,0.00353,1.35846,0.00757,-0.02127,-0.02040,-0.00125,-0.02975,0.01183,0.00171,0.99881,3.46839,1.24110,2.20698,2.20066,-1.87204,2.69962,3.44497,-1.79302,2.83547,A,145212.50
3.48307,57.68799944,11.98122617,57.68800,11.98123,14:52:12.618919,0.00351,1.35846,0.00758,-0.02127,-0.02101,-0.01652,-0.02104,-0.02196,0.04117,1.00369,3.47906,1.24110,2.20698,2.20066,-1.87204,2.69962,3.44497,-1.79302,2.83547,A,145212.50
3.49332,57.68799944,11.98122617,57.68800,11.98123,14:52:12.629167,0.00336,1.35846,0.00778,-0.02127,-0.01078,-0.00995,-0.01768,-0.06844,0.04630,1.01937,3.48932,1.24110,2.20698,2.20066,-1.87204,2.69962,3.44497,-1.79302,2.83547,A,145212.50
3.50353,57.68799944,11.98122617,57.68800,11.98123,14:52:12.639614,0.00335,1.35846,0.00735,-0.02127,-0.00406,-0.00491,-0.01875,-0.03129,-0.00049,0.94086,3.49953,1.24110,2.20698,2.20066,-1.87204,2.69962,3.44497,-1.79302,2.83547,A,145212.50
3.51425,57.68799944,11.98122617,57.68800,11.98123,14:52:12.650100,0.00366,1.35846,0.00685,-0.02127,-0.01169,-0.00186,-0.01891,-0.00342,-0.00073,0.87364,3.51025,1.24110,2.20698,2.20066,-1.87204,2.69962,3.44497,-1.79302,2.83547,A,145212.50
3.52465,57.68799944,11.98122617,57.68800,11.98123,14:52:12.660499,0.00366,1.35846,0.00718,-0.02127,-0.00528,-0.00583,-0.03021,-0.06112,0.04398,0.88139,3.52042,1.24110,2.20698,2.20066,-1.87204,2.69962,3.44497,-1.79302,2.83547,A,145212.50
3.53490,57.68799944,11.98122617,57.68800,11.98123,14:52:12.670748,0.00351,1.35846,0.00765,-0.02127,0.00281,0.00486,-0.03922,-0.16696,0.05398,0.99839,3.53091,1.24110,2.20698,2.20066,-1.87204,2.69962,3.44497,-1.79302,2.83547,A,145212.50
3.54530,57.68799944,11.98122617,57.68800,11.98123,14:52:12.681161,0.00351,1.35846,0.00735,-0.02127,0.00770,0.02991,-0.04655,-0.05960,0.00012,0.99027,3.54129,1.24110,2.20698,2.20066,-1.87204,2.69962,3.44497,-1.79302,2.83547,A,145212.50
3.57002,57.68799944,11.98122617,57.68800,11.98123,14:52:12.705877,0.01787,1.35846,0.00665,-0.02127,0.00342,0.03571,-0.04960,0.02269,-0.02495,1.03840,3.55234,1.24110,2.20698,2.20066,-1.87204,2.69962,3.56852,-1.85245,2.96520,A,145212.60
3.58551,57.68800062,11.98122492,57.68800,11.98123,14:52:12.721374,0.00802,1.35846,0.00687,-0.02127,-0.00070,0.02670,-0.03998,-0.05161,0.04282,1.07079,3.57713,1.25283,2.20218,2.19587,-1.94632,2.83077,3.56852,-1.85245,2.96520,A,145212.60
3.59128,57.68800062,11.98122492,57.68800,11.98123,14:52:12.727128,0.00333,1.35846,0.00735,-0.02127,0.01030,0.02105,-0.02914,0.02062,0.04978,0.99894,3.58729,1.25283,2.20218,2.19587,-1.94632,2.83077,3.56852,-1.85245,2.96520,A,145212.60
3.60206,57.68800062,11.98122492,57.68800,11.98123,14:52:12.737915,0.00352,1.35846,0.00754,-0.02127,0.00052,0.00394,-0.02761,0.01610,0.03666,0.98881,3.59805,1.25283,2.20218,2.19587,-1.94632,2.83077,3.56852,-1.85245,2.96520,A,145212.60
3.61243,57.68800062,11.98122492,57.68800,11.98123,14:52:12.748288,0.00349,1.35846,0.00735,-0.02127,0.01350,-0.00980,-0.02440,0.05887,0.00311,0.95977,3.60822,1.25283,2.20218,2.19587,-1.94632,2.83077,3.56852,-1.85245,2.96520,A,145212.60
3.62333,57.68800062,11.98122492,57.68800,11.98123,14:52:12.759183,0.00399,1.35846,0.00735,-0.02127,0.00419,-0.01973,-0.01952,-0.06753,0.02147,0.97698,3.61931,1.25283,2.20218,2.19587,-1.94632,2.83077,3.56852,-1.85245,2.96520,A,145212.60
3.63323,57.68800062,11.98122492,57.68800,11.98123,14:52:12.769475,0.00348,1.35846,0.00786,-0.02136,0.00159,-0.00705,-0.02669,-0.04691,0.05588,0.96276,3.62922,1.25283,2.20218,2.19587,-1.94632,2.83077,3.56852,-1.85245,2.96520,A,145212.60
3.64347,57.68800062,11.98122492,57.68800,11.98123,14:52:12.779543,0.00332,1.35846,0.00795,-0.02161,-0.00360,-0.00110,-0.03891,-0.01293,0.03154,0.93696,3.63947,1.25283,2.20218,2.19587,-1.94632,2.83077,3.56852,-1.85245,2.96520,A,145212.60
3.65404,57.68800062,11.98122492,57.68800,11.98123,14:52:12.789894,0.00349,1.35846,0.00714,-0.02195,-0.00055,-0.00323,-0.05067,-0.05990,-0.02702,0.95416,3.65005,1.25283,2.20218,2.19587,-1.94632,2.83077,3.56852,-1.85245,2.96520,A,145212.60
3.66446,57.68800062,11.98122492,57.68800,11.98123,14:52:12.800318,0.00352,1.35846,0.00607,-0.02229,-0.00299,0.00532,-0.05510,-0.04764,-0.04410,0.97649,3.66024,1.25283,2.20218,2.19587,-1.94632,2.83077,3.56852,-1.85245,2.96520,A,145212.60
3.68987,57.68800062,11.98122492,57.68801,11.98123,14:52:12.825991,0.01853,1.35846,0.00532,-0.02258,-0.00849,0.00547,-0.06044,-0.07387,-0.02105,1.03145,3.67087,1.25283,2.20218,2.19587,-1.94632,2.83077,3.68789,-1.91189,3.07639,A,145212.70
3.70444,57.68800177,11.98122373,57.68801,11.98123,14:52:12.840323,0.01051,1.35846,0.00559,-0.02263,-0.00162,0.02135,-0.05128,-0.04423,0.04447,1.03066,3.69401,1.26340,2.19809,2.19138,-2.01724,2.95839,3.68789,-1.91189,3.07639,A,145212.70
3.71687,57.68800177,11.98122373,57.68801,11.98123,14:52:12.852739,0.00555,1.35846,0.00631,-0.02263,0.01793,0.03281,-0.02456,-0.08662,0.04868,1.00022,3.71281,1.26340,2.19809,2.19138,-2.01724,2.95839,3.68789,-1.91189,3.07639,A,145212.70
3.72523,57.68800177,11.98122373,57.68801,11.98123,14:52:12.861081,0.00351,1.35846,0.00626,-0.02263,0.01579,0.04396,-0.02059,0.01629,0.01116,0.95111,3.72123,1.26340,2.19809,2.19138,-2.01724,2.95839,3.68789,-1.91189,3.07639,A,145212.70
3.73547,57.68800177,11.98122373,57.68801,11.98123,14:52:12.871564,0.00332,1.35846,0.00624,-0.02263,0.01839,0.01952,-0.01371,0.03135,0.00921,0.92482,3.73147,1.26340,2.19809,2.19138,-2.01724,2.95839,3.68789,-1.91189,3.07639,A,145212.70
3.74605,57.68800177,11.98122373,57.68801,11.98123,14:52:12.881897,0.00349,1.35846,0.00612,-0.02263,0.01427,-0.00171,-0.02074,-0.00305,0.00537,0.99064,3.74207,1.26340,2.19809,2.19138,-2.01724,2.95839,3.68789,-1.91189,3.07639,A,145212.70
3.75648,57.68800177,11.98122373,57.68801,11.98123,14:52:12.892333,0.00352,1.35846,0.00589,-0.02263,0.00892,-0.00186,-0.02593,-0.00945,0.00207,1.03371,3.75227,1.26340,2.19809,2.19138,-2.01724,2.95839,3.68789,-1.91189,3.07639,A,145212.70
3.76688,57.68800177,11.98122373,57.68801,11.98123,14:52:12.902725,0.00352,1.35846,0.00607,-0.02263,-0.00024,0.00013,-0.03067,-0.09278,0.03916,1.08507,3.76289,1.26340,2.19809,2.19138,-2.01724,2.95839,3.68789,-1.91189,3.07639,A,145212.70
3.77729,57.68800177,11.98122373,57.68801,11.98123,14:52:12.913146,0.00353,1.35846,0.00643,-0.02263,-0.00238,0.01387,-0.04288,0.02178,0.04886,1.00229,3.77327,1.26340,2.19809,2.19138,-2.01724,2.95839,3.68789,-1.91189,3.07639,A,145212.70
3.78822,57.68800177,11.98122373,57.68801,11.98123,14:52:12.924082,0.00407,1.35846,0.00699,-0.02263,-0.00589,0.01265,-0.04746,0.02123,0.06338,0.96539,3.78399,1.26340,2.19809,2.19138,-2.01724,2.95839,3.68789,-1.91189,3.07639,A,145212.70
3.81135,57.68800177,11.98122373,57.68801,11.98123,14:52:12.947212,0.01681,1.35846,0.00695,-0.02263,-0.00360,0.00471,-0.04899,0.00067,0.02220,0.92409,3.79407,1.26340,2.19809,2.19138,-2.01724,2.95839,3.80986,-1.95151,3.16906,A,145212.80
3.83082,57.68800300,11.98122245,57.68801,11.98123,14:52:12.966683,0.00715,1.35846,0.00647,-0.02263,-0.00146,0.01586,-0.04136,-0.04917,-0.00488,1.07299,3.82476,1.27290,2.19266,2.18595,-2.09336,3.09515,3.80986,-1.95151,3.16906,A,145212.80
3.83760,57.68800300,11.98122245,57.68801,11.98123,14:52:12.973451,0.00353,1.35846,0.00674,-0.02263,0.00113,0.02395,-0.03143,0.03495,0.04349,1.04865,3.83360,1.27290,2.19266,2.18595,-2.09336,3.09515,3.80986,-1.95151,3.16906,A,145212.80
3.84766,57.68800300,11.98122245,57.68801,11.98123,14:52:12.983735,0.00336,1.35846,0.00722,-0.02263,0.01243,0.01433,-0.02013,0.11450,0.04569,0.96734,3.84367,1.27290,2.19266,2.18595,-2.09336,3.09515,3.80986,-1.95151,3.16906,A,145212.80
3.85881,57.68800300,11.98122245,57.68801,11.98123,14:52:12.994665,0.00410,1.35846,0.00778,-0.02263,0.02114,-0.00797,-0.01448,-0.08162,0.04679,0.99747,3.85480,1.27290,2.19266,2.18595,-2.09336,3.09515,3.80986,-1.95151,3.16906,A,145212.80
3.86924,57.68800300,11.98122245,57.68801,11.98123,14:52:13.005097,0.00413,1.35846,0.00832,-0.02263,0.03351,0.01509,-0.01112,-0.17635,0.03989,1.04042,3.86521,1.27290,2.19266,2.18595,-2.09336,3.09515,3.80986,-1.95151,3.16906,A,145212.80
3.88026,57.68800300,11.98122245,57.68801,11.98123,14:52:13.016159,0.00476,1.35846,0.00820,-0.02263,0.03595,0.03846,-0.00944,0.01354,-0.00677,0.90945,3.87570,1.27290,2.19266,2.18595,-2.09336,3.09515,3.80986,-1.95151,3.16906,A,145212.80
3.88988,57.68800300,11.98122245,57.68801,11.98123,14:52:13.025737,0.00397,1.35846,0.00804,-0.02263,0.03213,0.01845,-0.00974,0.19258,-0.00543,0.79617,3.88561,1.27290,2.19266,2.18595,-2.09336,3.09515,3.80986,-1.95151,3.16906,A,145212.80
3.89989,57.68800300,11.98122245,57.68801,11.98123,14:52:13.035768,0.00373,1.35846,0.00808,-0.02260,0.01885,-0.02522,-0.00394,0.13615,0.01385,0.89054,3.89548,1.27290,2.19266,2.18595,-2.09336,3.09515,3.80986,-1.95151,3.16906,A,145212.80
3.91005,57.68800300,11.98122245,57.68801,11.98123,14:52:13.045901,0.00348,1.35846,0.00929,-0.02241,0.02022,-0.03408,-0.00577,-0.13957,0.09522,1.03401,3.90606,1.27290,2.19266,2.18595,-2.09336,3.09515,3.80986,-1.95151,3.16906,A,145212.80
3.94587,57.68800300,11.98122245,57.68801,11.98123,14:52:13.081726,0.02890,1.35846,0.01029,-0.02195,0.02496,0.00242,-0.00516,-0.14939,0.08253,1.08068,3.91693,1.27290,2.19266,2.18595,-2.09336,3.09515,3.94437,-2.03076,3.39145,A,145213.00
3.96533,57.68800438,11.98122109,57.68801,11.98123,14:52:13.101181,0.00755,1.35365,0.01075,-0.01892,0.01763,0.00058,-0.02135,-0.08686,0.01147,1.03621,3.95851,1.28098,2.18647,2.18085,-2.17428,3.24815,3.94437,-2.03076,3.39145,A,145213.00
3.97150,57.68800438,11.98122109,57.68801,11.98123,14:52:13.107575,0.00334,1.35365,0.01103,-0.01808,0.01656,0.01357,-0.02196,-0.13841,0.03892,1.03310,3.96751,1.28098,2.18647,2.18085,-2.17428,3.24815,3.94437,-2.03076,3.39145,A,145213.00
3.98238,57.68800438,11.98122109,57.68801,11.98123,14:52:13.118248,0.00382,1.35365,0.01116,-0.01717,0.01931,0.02777,-0.02272,-0.07399,0.02336,0.95105,3.97807,1.28098,2.18647,2.18085,-2.17428,3.24815,3.94437,-2.03076,3.39145,A,145213.00
3.99251,57.68800438,11.98122109,57.68801,11.98123,14:52:13.128355,0.00354,1.35365,0.01128,-0.01615,0.01411,0.01998,-0.01539,0.10163,0.02452,0.87547,3.98828,1.28098,2.18647,2.18085,-2.17428,3.24815,3.94437,-2.03076,3.39145,A,145213.00
4.00306,57.68800438,11.98122109,57.68801,11.98123,14:52:13.138922,0.00351,1.35365,0.01168,-0.01502,0.01808,-0.00949,-0.00379,0.06466,0.03983,0.91299,3.99907,1.28098,2.18647,2.18085,-2.17428,3.24815,3.94437,-2.03076,3.39145,A,145213.00
4.01348,57.68800438,11.98122109,57.68801,11.98123,14:52:13.149329,0.00353,1.35365,0.01241,-0.01397,0.00938,-0.02293,-0.00211,-0.09077,0.07466,1.02889,4.00948,1.28098,2.18647,2.18085,-2.17428,3.24815,3.94437,-2.03076,3.39145,A,145213.00
4.02353,57.68800438,11.98122109,57.68801,11.98123,14:52:13.159708,0.00334,1.35365,0.01286,-0.01298,0.01198,-0.00995,0.00660,-0.15610,0.06082,1.13399,4.01952,1.28098,2.18647,2.18085,-2.17428,3.24815,3.94437,-2.03076,3.39145,A,145213.00
4.03409,57.68800438,11.98122109,57.68801,11.98123,14:52:13.169941,0.00351,1.35365,0.01298,-0.01205,0.00342,0.00837,0.00247,-0.02403,0.04020,1.06561,4.03010,1.28098,2.18647,2.18085,-2.17428,3.24815,3.94437,-2.03076,3.39145,A,145213.00
4.04451,57.68800438,11.98122109,57.68801,11.98123,14:52:13.180354,0.00353,1.35365,0.01328,-0.01137,0.00174,0.00242,-0.00180,0.07570,0.05185,1.00607,4.04029,1.28098,2.18647,2.18085,-2.17428,3.24815,3.94437,-2.03076,3.39145,A,145213.00
4.06892,57.68800438,11.98122109,57.68801,11.98122,14:52:13.204775,0.01754,1.35365,0.01370,-0.01080,-0.00757,-0.01362,-0.00913,0.02550,0.06661,1.01223,4.05087,1.28098,2.18647,2.18085,-2.17428,3.24815,4.06728,-2.11001,3.48411,A,145213.10
4.08299,57.68800557,11.98121991,57.68801,11.98122,14:52:13.218847,0.00764,1.35365,0.01386,-0.00992,-0.00681,-0.00232,-0.00577,-0.07851,0.04941,0.89841,4.07696,1.28825,2.18488,2.18193,-2.24436,3.38120,4.06728,-2.11001,3.48411,A,145213.10
4.08969,57.68800557,11.98121991,57.68801,11.98122,14:52:13.225548,0.00408,1.35365,0.01365,-0.00964,-0.01551,0.00517,-0.00211,-0.03953,0.02470,0.87053,4.08569,1.28825,2.18488,2.18193,-2.24436,3.38120,4.06728,-2.11001,3.48411,A,145213.10
4.09987,57.68800557,11.98121991,57.68801,11.98122,14:52:13.235754,0.00372,1.35365,0.01332,-0.00925,-0.02269,0.00181,-0.00165,-0.01562,0.02391,0.93842,4.09548,1.28825,2.18488,2.18193,-2.24436,3.38120,4.06728,-2.11001,3.48411,A,145213.10
4.11005,57.68800557,11.98121991,57.68801,11.98122,14:52:13.245908,0.00361,1.35365,0.01335,-0.00876,-0.02697,0.01082,-0.00073,-0.04526,0.05459,1.01120,4.10606,1.28825,2.18488,2.18193,-2.24436,3.38120,4.06728,-2.11001,3.48411,A,145213.10
4.12035,57.68800557,11.98121991,57.68801,11.98122,14:52:13.256202,0.00351,1.35365,0.01310,-0.00831,-0.02972,0.01647,0.00354,-0.06527,0.03959,1.09928,4.11614,1.28825,2.18488,2.18193,-2.24436,3.38120,4.06728,-2.11001,3.48411,A,145213.10
4.13224,57.68800557,11.98121991,57.68801,11.98122,14:52:13.268117,0.00501,1.35365,0.01294,-0.00783,-0.03078,0.02685,-0.00455,-0.08833,0.05063,1.10965,4.12761,1.28825,2.18488,2.18193,-2.24436,3.38120,4.06728,-2.11001,3.48411,A,145213.10
4.14115,57.68800557,11.98121991,57.68801,11.98122,14:52:13.276994,0.00351,1.35365,0.01276,-0.00738,-0.02513,0.03678,-0.00745,0.02952,0.03770,1.03846,4.13714,1.28825,2.18488,2.18193,-2.24436,3.38120,4.06728,-2.11001,3.48411,A,145213.10
4.15198,57.68800557,11.98121991,57.68801,11.98122,14:52:13.287853,0.00359,1.35365,0.01263,-0.00684,-0.03246,0.02227,-0.00638,0.03501,0.04618,0.98893,4.14778,1.28825,2.18488,2.18193,-2.24436,3.38120,4.06728,-2.11001,3.48411,A,145213.10
4.16230,57.68800557,11.98121991,57.68801,11.98122,14:52:13.298154,0.00351,1.35365,0.01192,-0.00624,-0.03231,0.00914,-0.00562,-0.07552,0.00793,0.97252,4.15831,1.28825,2.18488,2.18193,-2.24436,3.38120,4.06728,-2.11001,3.48411,A,145213.10
4.18545,57.68800557,11.98121991,57.68801,11.98122,14:52:13.321301,0.01625,1.35365,0.01172,-0.00554,-0.03475,0.00807,0.00247,-0.10846,0.04087,0.98253,4.16850,1.28825,2.18488,2.18193,-2.24436,3.38120,4.18396,-2.15954,3.59530,A,145213.20
4.20128,57.68800674,11.98121877,57.68801,11.98122,14:52:13.337159,0.00855,1.35365,0.01069,-0.00347,-0.03094,0.02823,0.00782,-0.01189,0.01311,1.03529,4.19246,1.29479,2.18163,2.18060,-2.31161,3.51071,4.18396,-2.15954,3.59530,A,145213.20
4.20682,57.68800674,11.98121877,57.68801,11.98122,14:52:13.342670,0.00390,1.35365,0.01057,-0.00262,-0.03124,0.02227,0.01072,0.05740,0.04465,1.00461,4.20279,1.29479,2.18163,2.18060,-2.31161,3.51071,4.18396,-2.15954,3.59530,A,145213.20
4.21734,57.68800674,11.98121877,57.68801,11.98122,14:52:13.353203,0.00402,1.35365,0.01039,-0.00194,-0.03002,0.00669,0.00553,-0.02416,0.03819,0.97252,4.21302,1.29479,2.18163,2.18060,-2.31161,3.51071,4.18396,-2.15954,3.59530,A,145213.20
4.22727,57.68800674,11.98121877,57.68801,11.98122,14:52:13.363113,0.00335,1.35365,0.01071,-0.00141,-0.02895,0.01005,0.00812,-0.10053,0.06960,0.96429,4.22327,1.29479,2.18163,2.18060,-2.31161,3.51071,4.18396,-2.15954,3.59530,A,145213.20
4.23796,57.68800674,11.98121877,57.68801,11.98122,14:52:13.373804,0.00365,1.35365,0.01046,-0.00109,-0.02697,0.01723,0.00370,-0.10077,0.03239,0.96337,4.23393,1.29479,2.18163,2.18060,-2.31161,3.51071,4.18396,-2.15954,3.59530,A,145213.20
4.24807,57.68800674,11.98121877,57.68801,11.98122,14:52:13.383934,0.00353,1.35365,0.00947,-0.00098,-0.02819,0.02059,0.00354,0.00360,-0.01525,0.95258,4.24388,1.29479,2.18163,2.18060,-2.31161,3.51071,4.18396,-2.15954,3.59530,A,145213.20
4.25850,57.68800674,11.98121877,57.68801,11.98122,14:52:13.394344,0.00356,1.35365,0.00861,-0.00098,-0.03674,0.00135,-0.00104,0.11858,-0.00110,0.91982,4.25451,1.29479,2.18163,2.18060,-2.31161,3.51071,4.18396,-2.15954,3.59530,A,145213.20
4.26918,57.68800674,11.98121877,57.68801,11.98122,14:52:13.405058,0.00385,1.35365,0.00868,-0.00098,-0.04132,-0.02797,-0.00012,-0.00421,0.06393,1.02742,4.26484,1.29479,2.18163,2.18060,-2.31161,3.51071,4.18396,-2.15954,3.59530,A,145213.20
4.27924,57.68800674,11.98121877,57.68801,11.98122,14:52:13.415093,0.00332,1.35365,0.00873,-0.00098,-0.03567,-0.01209,0.00003,-0.08760,0.06106,1.06536,4.27524,1.29479,2.18163,2.18060,-2.31161,3.51071,4.18396,-2.15954,3.59530,A,145213.20
4.30398,57.68800674,11.98121877,57.68801,11.98122,14:52:13.439859,0.01765,1.35365,0.00837,-0.00098,-0.03246,-0.00614,0.00354,-0.16000,0.03099,1.09739,4.28587,1.29479,2.18163,2.18060,-2.31161,3.51071,4.30227,-2.20907,3.70650,A,145213.30
4.32123,57.68800794,11.98121761,57.68801,11.98122,14:52:13.457089,0.00732,1.35365,0.00745,-0.00098,-0.01979,0.04426,0.00415,0.04612,0.00555,0.99729,4.31487,1.30067,2.17923,2.17894,-2.38087,3.64409,4.30227,-2.20907,3.70650,A,145213.30
4.32751,57.68800794,11.98121761,57.68801,11.98122,14:52:13.463585,0.00334,1.35365,0.00734,-0.00098,-0.02040,0.02838,-0.00089,0.07375,0.02959,0.92043,4.32353,1.30067,2.17923,2.17894,-2.38087,3.64409,4.30227,-2.20907,3.70650,A,145213.30
4.33809,57.68800794,11.98121761,57.68801,11.98122,14:52:13.473938,0.00352,1.35365,0.00668,-0.00095,-0.01628,0.00394,0.00309,-0.03636,-0.00354,0.89036,4.33409,1.30067,2.17923,2.17894,-2.38087,3.64409,4.30227,-2.20907,3.70650,A,145213.30
4.34850,57.68800794,11.98121761,57.68801,11.98122,14:52:13.484356,0.00353,1.35365,0.00624,-0.00084,-0.01047,-0.00827,0.00522,-0.02056,0.00378,0.79745,4.34428,1.30067,2.17923,2.17894,-2.38087,3.64409,4.30227,-2.20907,3.70650,A,145213.30
4.35887,57.68800794,11.98121761,57.68801,11.98122,14:52:13.494724,0.00350,1.35365,0.00567,-0.00056,-0.00314,-0.02125,0.01042,-0.00641,-0.00689,0.82088,4.35488,1.30067,2.17923,2.17894,-2.38087,3.64409,4.30227,-2.20907,3.70650,A,145213.30
4.36994,57.68800794,11.98121761,57.68801,11.98122,14:52:13.505794,0.00417,1.35365,0.00509,-0.00010,-0.00513,-0.02354,0.01637,0.02147,-0.00738,0.85961,4.36590,1.30067,2.17923,2.17894,-2.38087,3.64409,4.30227,-2.20907,3.70650,A,145213.30
4.38021,57.68800794,11.98121761,57.68801,11.98122,14:52:13.516076,0.00403,1.35365,0.00556,0.00058,-0.00360,-0.03912,0.02004,0.00598,0.05850,0.97234,4.37575,1.30067,2.17923,2.17894,-2.38087,3.64409,4.30227,-2.20907,3.70650,A,145213.30
4.39007,57.68800794,11.98121761,57.68801,11.98122,14:52:13.525922,0.00350,1.35365,0.00604,0.00134,0.00526,-0.02599,0.02202,-0.12273,0.06338,1.14613,4.38608,1.30067,2.17923,2.17894,-2.38087,3.64409,4.30227,-2.20907,3.70650,A,145213.30
4.40100,57.68800794,11.98121761,57.68801,11.98122,14:52:13.537119,0.00403,1.35365,0.00611,0.00219,0.01824,0.00272,0.01729,-0.11206,0.02379,1.20957,4.39626,1.30067,2.17923,2.17894,-2.38087,3.64409,4.30227,-2.20907,3.70650,A,145213.30
4.43652,57.68800794,11.98121761,57.68801,11.98122,14:52:13.572382,0.02916,1.35365,0.00585,0.00326,0.02496,0.01983,0.00904,-0.09876,-0.00878,1.21231,4.40689,1.30067,2.17923,2.17894,-2.38087,3.64409,4.43468,-2.30814,3.94742,A,145213.50
4.44830,57.68800929,11.98121633,57.68801,11.98122,14:52:13.584192,0.00618,1.35365,0.00610,0.00893,0.02526,-0.02797,0.02660,-0.04709,-0.01061,0.88005,4.44174,1.30597,2.17690,2.17955,-2.45698,3.79421,4.43468,-2.30814,3.94742,A,145213.50
4.45590,57.68800929,11.98121633,57.68801,11.98122,14:52:13.591770,0.00354,1.35365,0.00607,0.01113,0.02450,-0.02309,0.04065,-0.11962,0.00952,0.87389,4.45170,1.30597,2.17690,2.17955,-2.45698,3.79421,4.43468,-2.30814,3.94742,A,145213.50
4.46625,57.68800929,11.98121633,57.68801,11.98122,14:52:13.602101,0.00350,1.35365,0.00587,0.01357,0.03229,-0.00003,0.05348,-0.09492,-0.00567,0.90640,4.46226,1.30597,2.17690,2.17955,-2.45698,3.79421,4.43468,-2.30814,3.94742,A,145213.50
4.47735,57.68800929,11.98121633,57.68801,11.98122,14:52:13.613198,0.00420,1.35365,0.00648,0.01600,0.04618,-0.00537,0.06020,-0.00012,0.03593,0.97411,4.47334,1.30597,2.17690,2.17955,-2.45698,3.79421,4.43468,-2.30814,3.94742,A,145213.50
4.48706,57.68800929,11.98121633,57.68801,11.98122,14:52:13.622915,0.00352,1.40919,0.00778,0.01815,0.06176,-0.01301,0.06081,0.07588,0.07277,0.93245,4.48306,1.30597,2.17690,2.17955,-2.45698,3.79421,4.43468,-2.30814,3.94742,A,145213.50
4.49826,57.68800929,11.98121633,57.68801,11.98122,14:52:13.634121,0.00407,1.40919,0.00942,0.02036,0.07047,-0.03775,0.05776,-0.00323,0.09162,1.01589,4.49424,1.30597,2.17690,2.17955,-2.45698,3.79421,4.43468,-2.30814,3.94742,A,145213.50
4.50991,57.68800929,11.98121633,57.68801,11.98122,14:52:13.645774,0.00548,1.40919,0.01060,0.02248,0.08116,-0.03332,0.04691,-0.13097,0.05527,1.07848,4.50585,1.30597,2.17690,2.17955,-2.45698,3.79421,4.43468,-2.30814,3.94742,A,145213.50
4.51888,57.68800929,11.98121633,57.68801,11.98122,14:52:13.654744,0.00405,1.40919,0.01148,0.02452,0.07810,-0.02645,0.03882,-0.10974,0.05270,1.05939,4.51455,1.30597,2.17690,2.17955,-2.45698,3.79421,4.43468,-2.30814,3.94742,A,145213.50
4.52891,57.68800929,11.98121633,57.68801,11.98122,14:52:13.664765,0.00381,1.40919,0.01289,0.02687,0.07260,-0.01224,0.03393,-0.04990,0.08595,1.05432,4.52487,1.30597,2.17690,2.17955,-2.45698,3.79421,4.43468,-2.30814,3.94742,A,145213.50
4.55207,57.68800929,11.98121633,57.68801,11.98122,14:52:13.687938,0.01657,1.40919,0.01353,0.02970,0.08238,-0.00720,0.04340,0.02300,0.02745,1.00394,4.53503,1.30597,2.17690,2.17955,-2.45698,3.79421,4.55038,-2.34776,4.09568,A,145213.60
4.56983,57.68801060,11.98121516,57.68801,11.98122,14:52:13.705681,0.00744,1.40919,0.01602,0.03828,0.09185,-0.01026,0.06310,-0.07948,0.03642,1.03810,4.56349,1.31629,2.17470,2.18607,-2.52664,3.93995,4.55038,-2.34776,4.09568,A,145213.60
4.57630,57.68801060,11.98121516,57.68801,11.98122,14:52:13.712165,0.00351,1.40919,0.01712,0.04065,0.08635,-0.02125,0.06875,-0.04642,0.07704,1.13728,4.57209,1.31629,2.17470,2.18607,-2.52664,3.93995,4.55038,-2.34776,4.09568,A,145213.60
4.58670,57.68801060,11.98121516,57.68801,11.98122,14:52:13.722548,0.00351,1.40919,0.01774,0.04320,0.08849,-0.04248,0.06738,0.10260,0.02714,1.09544,4.58270,1.31629,2.17470,2.18607,-2.52664,3.93995,4.55038,-2.34776,4.09568,A,145213.60
4.59742,57.68801060,11.98121516,57.68801,11.98122,14:52:13.733646,0.00383,1.40919,0.01849,0.04529,0.08864,-0.08387,0.07517,0.07619,0.03611,1.03962,4.59337,1.31629,2.17470,2.18607,-2.52664,3.93995,4.55038,-2.34776,4.09568,A,145213.60
4.60748,57.68801060,11.98121516,57.68801,11.98122,14:52:13.743546,0.00333,1.40919,0.01990,0.04705,0.07276,-0.09715,0.07013,0.00317,0.09376,1.00735,4.60348,1.31629,2.17470,2.18607,-2.52664,3.93995,4.55038,-2.34776,4.09568,A,145213.60
4.61861,57.68801060,11.98121516,57.68801,11.98122,14:52:13.754469,0.00381,1.40919,0.02190,0.04852,0.07841,-0.09547,0.07303,-0.24430,0.13127,1.04493,4.61460,1.31629,2.17470,2.18607,-2.52664,3.93995,4.55038,-2.34776,4.09568,A,145213.60
4.62873,57.68801060,11.98121516,57.68801,11.98122,14:52:13.764587,0.00353,1.40919,0.02314,0.04951,0.07932,-0.04798,0.06387,-0.12200,0.07643,0.90927,4.62451,1.31629,2.17470,2.18607,-2.52664,3.93995,4.55038,-2.34776,4.09568,A,145213.60
4.63912,57.68801060,11.98121516,57.68801,11.98122,14:52:13.774965,0.00351,1.40919,0.02397,0.05028,0.07902,-0.03118,0.06066,-0.05270,0.04502,0.82301,4.63512,1.31629,2.17470,2.18607,-2.52664,3.93995,4.55038,-2.34776,4.09568,A,145213.60
4.64959,57.68801060,11.98121516,57.68801,11.98122,14:52:13.785449,0.00359,1.40919,0.02482,0.05070,0.07490,-0.00858,0.05913,-0.06295,0.04917,0.79898,4.64558,1.31629,2.17470,2.18607,-2.52664,3.93995,4.55038,-2.34776,4.09568,A,145213.60
4.67290,57.68801060,11.98121516,57.68802,11.98122,14:52:13.808763,0.01667,1.40919,0.02595,0.05090,0.07917,0.02349,0.05577,-0.22106,0.06747,0.84278,4.65558,1.31629,2.17470,2.18607,-2.52664,3.93995,4.67097,-2.39729,4.22541,A,145213.70
4.69208,57.68801190,11.98121399,57.68802,11.98122,14:52:13.827956,0.00710,1.40919,0.02861,0.05192,0.09841,0.11924,0.06952,-0.07277,0.03501,0.89822,4.68581,1.32558,2.17773,2.19315,-2.59586,4.08474,4.67097,-2.39729,4.22541,A,145213.70
4.69892,57.68801190,11.98121399,57.68802,11.98122,14:52:13.835096,0.00353,1.40919,0.02938,0.05294,0.10620,0.12367,0.07960,0.09705,0.04612,0.98948,4.69491,1.32558,2.17773,2.19315,-2.59586,4.08474,4.67097,-2.39729,4.22541,A,145213.70
4.70988,57.68801190,11.98121399,57.68802,11.98122,14:52:13.845730,0.00408,1.40919,0.03058,0.05429,0.10590,0.07328,0.09059,0.21008,0.07070,1.12417,4.70587,1.32558,2.17773,2.19315,-2.59586,4.08474,4.67097,-2.39729,4.22541,A,145213.70
4.71990,57.68801190,11.98121399,57.68802,11.98122,14:52:13.855780,0.00356,1.40919,0.03119,0.05571,0.10697,0.01922,0.09960,0.06057,0.04136,1.35072,4.71569,1.32558,2.17773,2.19315,-2.59586,4.08474,4.67097,-2.39729,4.22541,A,145213.70
4.73029,57.68801190,11.98121399,57.68802,11.98122,14:52:13.866144,0.00355,1.40919,0.03186,0.05679,0.09108,-0.00888,0.09242,0.02532,0.05673,1.40245,4.72629,1.32558,2.17773,2.19315,-2.59586,4.08474,4.67097,-2.39729,4.22541,A,145213.70
4.74133,57.68801190,11.98121399,57.68802,11.98122,14:52:13.877186,0.00419,1.40919,0.03256,0.05752,0.06909,-0.03683,0.08387,0.09156,0.07369,1.23976,4.73696,1.32558,2.17773,2.19315,-2.59586,4.08474,4.67097,-2.39729,4.22541,A,145213.70
4.75103,57.68801190,11.98121399,57.68802,11.98122,14:52:13.886875,0.00350,1.40919,0.03375,0.05797,0.05535,-0.07791,0.06570,0.19557,0.10925,1.02413,4.74702,1.32558,2.17773,2.19315,-2.59586,4.08474,4.67097,-2.39729,4.22541,A,145213.70
4.76157,57.68801190,11.98121399,57.68802,11.98122,14:52:13.897427,0.00364,1.40919,0.03568,0.05809,0.04313,-0.11044,0.05333,0.02855,0.14329,0.86089,4.75757,1.32558,2.17773,2.19315,-2.59586,4.08474,4.67097,-2.39729,4.22541,A,145213.70
4.77158,57.68801190,11.98121399,57.68802,11.98122,14:52:13.907671,0.00335,1.40919,0.03788,0.05809,0.04756,-0.09318,0.05012,-0.17641,0.14628,0.78153,4.76759,1.32558,2.17773,2.19315,-2.59586,4.08474,4.67097,-2.39729,4.22541,A,145213.70
4.79504,57.68801190,11.98121399,57.68802,11.98122,14:52:13.930900,0.01640,1.40919,0.03842,0.05809,0.05458,-0.03469,0.03470,-0.35057,0.05356,0.76171,4.77816,1.32558,2.17773,2.19315,-2.59586,4.08474,4.79357,-2.45673,4.35513,A,145213.80
4.80906,57.68801314,11.98121289,57.68802,11.98122,14:52:13.944925,0.00820,1.40919,0.03840,0.05809,0.04985,0.06442,0.03729,0.01263,-0.00817,0.86882,4.80228,1.33394,2.18301,2.20027,-2.66166,4.22287,4.79357,-2.45673,4.35513,A,145213.80
4.81487,57.68801314,11.98121289,57.68802,11.98122,14:52:13.950716,0.00383,1.40919,0.03753,0.05809,0.04649,0.05816,0.04630,0.06716,-0.01537,1.03871,4.81070,1.33394,2.18301,2.20027,-2.66166,4.22287,4.79357,-2.45673,4.35513,A,145213.80
4.82513,57.68801314,11.98121289,57.68802,11.98122,14:52:13.960982,0.00368,1.40919,0.03803,0.05809,0.05397,0.02807,0.05959,0.02605,0.07576,1.19267,4.82111,1.33394,2.18301,2.20027,-2.66166,4.22287,4.79357,-2.45673,4.35513,A,145213.80
4.83529,57.68801314,11.98121289,57.68802,11.98122,14:52:13.971141,0.00343,1.40919,0.03843,0.05809,0.05168,0.02838,0.07074,-0.05270,0.07472,1.25337,4.83127,1.33394,2.18301,2.20027,-2.66166,4.22287,4.79357,-2.45673,4.35513,A,145213.80
4.84578,57.68801314,11.98121289,57.68802,11.98122,14:52:13.981628,0.00352,1.40919,0.03976,0.05809,0.05321,0.02731,0.09197,0.10876,0.13609,1.12661,4.84179,1.33394,2.18301,2.20027,-2.66166,4.22287,4.79357,-2.45673,4.35513,A,145213.80
4.85603,57.68801314,11.98121289,57.68802,11.98122,14:52:13.991896,0.00355,1.40919,0.04060,0.05809,0.05733,-0.00430,0.10205,0.13725,0.09138,1.02626,4.85183,1.33394,2.18301,2.20027,-2.66166,4.22287,4.79357,-2.45673,4.35513,A,145213.80
4.86638,57.68801314,11.98121289,57.68802,11.98122,14:52:14.002226,0.00349,1.40919,0.04213,0.05809,0.04939,-0.03332,0.10708,0.06838,0.13115,0.92781,4.86239,1.33394,2.18301,2.20027,-2.66166,4.22287,4.79357,-2.45673,4.35513,A,145213.80
4.87679,57.68801314,11.98121289,57.68802,11.98122,14:52:14.012640,0.00350,1.40919,0.04331,0.05809,0.04053,-0.03194,0.09319,-0.11334,0.11730,0.93257,4.87278,1.33394,2.18301,2.20027,-2.66166,4.22287,4.79357,-2.45673,4.35513,A,145213.80
4.88719,57.68801314,11.98121289,57.68802,11.98122,14:52:14.023042,0.00351,1.40919,0.04418,0.05809,0.03763,0.00455,0.07440,-0.10632,0.08973,0.82576,4.88319,1.33394,2.18301,2.20027,-2.66166,4.22287,4.79357,-2.45673,4.35513,A,145213.80
4.91283,57.68801314,11.98121289,57.68802,11.98122,14:52:14.048695,0.01874,1.40919,0.04450,0.05809,0.02160,0.01952,0.05928,-0.01360,0.07155,0.85522,4.89392,1.33394,2.18301,2.20027,-2.66166,4.22287,4.91089,-2.51617,4.41073,A,145213.90
4.93091,57.68801436,11.98121171,57.68802,11.98122,14:52:14.066768,0.00745,1.40919,0.04343,0.05809,-0.00910,-0.00614,0.02019,-0.03648,0.02385,1.09464,4.92471,1.34147,2.19339,2.21065,-2.73181,4.35796,4.91089,-2.51617,4.41073,A,145213.90
4.93733,57.68801436,11.98121171,57.68802,11.98122,14:52:14.073186,0.00346,1.40919,0.04281,0.05809,-0.01475,0.00150,0.03317,-0.05789,0.04508,1.10624,4.93331,1.34147,2.19339,2.21065,-2.73181,4.35796,4.91089,-2.51617,4.41073,A,145213.90
4.94751,57.68801436,11.98121171,57.68802,11.98122,14:52:14.083575,0.00334,1.40919,0.04264,0.05809,-0.00314,0.01815,0.03454,-0.05716,0.06936,1.09019,4.94350,1.34147,2.19339,2.21065,-2.73181,4.35796,4.91089,-2.51617,4.41073,A,145213.90
4.95845,57.68801436,11.98121171,57.68802,11.98122,14:52:14.094307,0.00389,1.40919,0.04290,0.05809,0.00877,0.00776,0.04921,0.02013,0.08619,1.01559,4.95444,1.34147,2.19339,2.21065,-2.73181,4.35796,4.91089,-2.51617,4.41073,A,145213.90
4.96967,57.68801436,11.98121171,57.68802,11.98122,14:52:14.105544,0.00472,1.40919,0.04366,0.05809,0.01717,0.00181,0.05822,0.00024,0.11187,0.98850,4.96493,1.34147,2.19339,2.21065,-2.73181,4.35796,4.91089,-2.51617,4.41073,A,145213.90
4.97887,57.68801436,11.98121171,57.68802,11.98122,14:52:14.114721,0.00352,1.40919,0.04363,0.05809,0.03122,0.00226,0.06997,-0.05777,0.05020,0.94160,4.97487,1.34147,2.19339,2.21065,-2.73181,4.35796,4.91089,-2.51617,4.41073,A,145213.90
4.99000,57.68801436,11.98121171,57.68802,11.98122,14:52:14.125854,0.00425,1.40919,0.04368,0.05809,0.03779,0.00578,0.07807,-0.00927,0.04654,0.86736,4.98527,1.34147,2.19339,2.21065,-2.73181,4.35796,4.91089,-2.51617,4.41073,A,145213.90
4.99948,57.68801436,11.98121171,57.68802,11.98122,14:52:14.135550,0.00332,1.42145,0.04282,0.05809,0.03947,-0.01011,0.07303,-0.00885,-0.00622,0.88163,4.99548,1.34147,2.19339,2.21065,-2.73181,4.35796,4.91089,-2.51617,4.41073,A,145213.90
5.01070,57.68801436,11.98121171,57.68802,11.98122,14:52:14.146558,0.00429,1.42145,0.04351,0.05809,0.03733,-0.01866,0.06967,-0.10059,0.09309,1.00571,5.00668,1.34147,2.19339,2.21065,-2.73181,4.35796,4.91089,-2.51617,4.41073,A,145213.90
5.04853,57.68801436,11.98121171,57.68802,11.98122,14:52:14.184422,0.03188,1.42145,0.00000,0.05809,0.04420,-0.00690,0.06814,-0.08949,0.12773,1.09806,5.01623,1.34147,2.19339,2.21065,-2.73181,4.35796,5.04414,-2.60532,4.68872,A,145214.10
5.06793,57.68801581,11.98121030,57.68802,11.98122,14:52:14.203830,0.00961,1.42145,0.00104,0.05809,0.06023,0.00562,0.06814,-0.10779,0.02391,0.96654,5.05977,1.34947,2.19957,2.21683,-2.81506,4.51987,5.04414,-2.60532,4.68872,A,145214.10
5.07241,57.68801581,11.98121030,57.68802,11.98122,14:52:14.208264,0.00344,1.42145,0.00080,0.05809,0.06604,0.00074,0.06173,-0.02843,0.01842,0.89249,5.06826,1.34947,2.19957,2.21683,-2.81506,4.51987,5.04414,-2.60532,4.68872,A,145214.10
5.08286,57.68801581,11.98121030,57.68802,11.98122,14:52:14.218727,0.00350,1.42145,0.00152,0.05809,0.05703,-0.01469,0.06524,0.05734,0.07186,0.87468,5.07886,1.34947,2.19957,2.21683,-2.81506,4.51987,5.04414,-2.60532,4.68872,A,145214.10
5.09389,57.68801581,11.98121030,57.68802,11.98122,14:52:14.229757,0.00378,1.42145,0.00261,0.05809,0.05779,-0.02828,0.07028,-0.02196,0.09784,0.97496,5.08987,1.34947,2.19957,2.21683,-2.81506,4.51987,5.04414,-2.60532,4.68872,A,145214.10
5.10410,57.68801581,11.98121030,57.68802,11.98122,14:52:14.239973,0.00376,1.42145,0.00390,0.05809,0.06497,-0.02538,0.07990,-0.10638,0.11572,1.02395,5.09970,1.34947,2.19957,2.21683,-2.81506,4.51987,5.04414,-2.60532,4.68872,A,145214.10
5.11425,57.68801581,11.98121030,57.68802,11.98122,14:52:14.250113,0.00352,1.42145,0.00460,0.05809,0.07047,0.00501,0.07960,-0.13487,0.06978,1.05158,5.11025,1.34947,2.19957,2.21683,-2.81506,4.51987,5.04414,-2.60532,4.68872,A,145214.10
5.12484,57.68801581,11.98121030,57.68802,11.98122,14:52:14.260705,0.00370,1.42145,0.00557,0.05809,0.07749,0.02624,0.07028,-0.06942,0.08290,1.01309,5.12081,1.34947,2.19957,2.21683,-2.81506,4.51987,5.04414,-2.60532,4.68872,A,145214.10
5.13511,57.68801581,11.98121030,57.68802,11.98122,14:52:14.270972,0.00359,1.42145,0.00555,0.05809,0.08589,0.01784,0.06142,0.01171,0.01415,0.96984,5.13110,1.34947,2.19957,2.21683,-2.81506,4.51987,5.04414,-2.60532,4.68872,A,145214.10
5.15805,57.68801581,11.98121030,57.68802,11.98122,14:52:14.293914,0.01613,1.42145,0.00654,0.05809,0.07413,0.00318,0.04951,-0.14274,0.09016,1.04389,5.14132,1.34947,2.19957,2.21683,-2.81506,4.51987,5.15664,-2.66476,4.78138,A,145214.20
5.17362,57.68801696,11.98120928,57.68802,11.98122,14:52:14.309480,0.00619,1.42145,0.00779,0.05806,0.06680,0.04228,0.04233,0.18831,0.04264,0.95215,5.16742,1.35666,2.20626,2.22351,-2.87597,4.64675,5.15664,-2.66476,4.78138,A,145214.20
5.18126,57.68801696,11.98120928,57.68802,11.98122,14:52:14.317118,0.00343,1.42145,0.00836,0.05780,0.05245,-0.02110,0.04417,0.16641,0.07308,0.84637,5.17731,1.35666,2.20626,2.22351,-2.87597,4.64675,5.15664,-2.66476,4.78138,A,145214.20
5.19156,57.68801696,11.98120928,57.68802,11.98122,14:52:14.327678,0.00341,1.42145,0.00943,0.05704,0.04756,-0.05928,0.04722,-0.04691,0.10559,0.87773,5.18755,1.35666,2.20626,2.22351,-2.87597,4.64675,5.15664,-2.66476,4.78138,A,145214.20
5.20213,57.68801696,11.98120928,57.68802,11.98122,14:52:14.337992,0.00372,1.42145,0.01058,0.05543,0.04496,-0.04370,0.04294,-0.18611,0.11425,0.92269,5.19811,1.35666,2.20626,2.22351,-2.87597,4.64675,5.15664,-2.66476,4.78138,A,145214.20
5.21286,57.68801696,11.98120928,57.68802,11.98122,14:52:14.348736,0.00406,1.42145,0.01113,0.05294,0.04481,-0.00812,0.03378,-0.10571,0.07680,0.91354,5.20831,1.35666,2.20626,2.22351,-2.87597,4.64675,5.15664,-2.66476,4.78138,A,145214.20
5.22422,57.68801696,11.98120928,57.68802,11.98122,14:52:14.360084,0.00502,1.42145,0.01129,0.04903,0.04145,0.00043,0.03195,0.00592,0.04856,0.93220,5.21998,1.35666,2.20626,2.22351,-2.87597,4.64675,5.15664,-2.66476,4.78138,A,145214.20
5.23305,57.68801696,11.98120928,57.68802,11.98122,14:52:14.368912,0.00345,1.42145,0.01234,0.04532,0.03748,0.00868,0.02492,-0.06130,0.12035,1.05146,5.22911,1.35666,2.20626,2.22351,-2.87597,4.64675,5.15664,-2.66476,4.78138,A,145214.20
5.24347,57.68801696,11.98120928,57.68802,11.98122,14:52:14.379557,0.00334,1.42145,0.01250,0.04074,0.04603,0.03372,0.02034,-0.07771,0.04581,1.07409,5.23945,1.35666,2.20626,2.22351,-2.87597,4.64675,5.15664,-2.66476,4.78138,A,145214.20
5.25495,57.68801696,11.98120928,57.68802,11.98122,14:52:14.390816,0.00442,1.42145,0.01248,0.03607,0.05428,0.05083,0.02080,-0.11224,0.02013,1.07177,5.25068,1.35666,2.20626,2.22351,-2.87597,4.64675,5.15664,-2.66476,4.78138,A,145214.20
5.27781,57.68801696,11.98120928,57.68802,11.98121,14:52:14.413672,0.01689,1.42145,0.01275,0.03202,0.04389,0.06564,0.01332,-0.09870,0.05026,1.05493,5.26021,1.35666,2.20626,2.22351,-2.87597,4.64675,5.27638,-2.71429,4.91111,A,145214.30
5.29514,57.68801824,11.98120806,57.68802,11.98121,14:52:14.431003,0.00717,1.42145,0.01357,0.02223,0.02389,0.00288,0.00583,0.10632,0.06002,0.99180,5.28923,1.36314,2.21199,2.21859,-2.94854,4.78926,5.27638,-2.71429,4.91111,A,145214.30
5.30182,57.68801824,11.98120806,57.68802,11.98121,14:52:14.437676,0.00344,1.42145,0.01421,0.01979,0.01427,-0.01713,0.00919,0.08558,0.08174,0.94892,5.29789,1.36314,2.21199,2.21859,-2.94854,4.78926,5.27638,-2.71429,4.91111,A,145214.30
5.31232,57.68801824,11.98120806,57.68802,11.98121,14:52:14.448189,0.00355,1.42145,0.01538,0.01722,0.01167,-0.02507,0.00904,-0.04978,0.11682,0.97935,5.30808,1.36314,2.21199,2.21859,-2.94854,4.78926,5.27638,-2.71429,4.91111,A,145214.30
5.32286,57.68801824,11.98120806,57.68802,11.98121,14:52:14.458725,0.00370,1.42145,0.01580,0.01478,0.02053,-0.01072,-0.00089,-0.12645,0.06356,1.03108,5.31868,1.36314,2.21199,2.21859,-2.94854,4.78926,5.27638,-2.71429,4.91111,A,145214.30
5.33391,57.68801824,11.98120806,57.68802,11.98121,14:52:14.469774,0.00435,1.42145,0.01598,0.01232,0.01503,0.01586,-0.01631,-0.05911,0.04764,1.00138,5.32990,1.36314,2.21199,2.21859,-2.94854,4.78926,5.27638,-2.71429,4.91111,A,145214.30
5.34343,57.68801824,11.98120806,57.68802,11.98121,14:52:14.479516,0.00328,1.42145,0.01584,0.01003,0.00694,0.01372,-0.02563,0.08497,0.02940,0.92037,5.33950,1.36314,2.21199,2.21859,-2.94854,4.78926,5.27638,-2.71429,4.91111,A,145214.30
5.35406,57.68801824,11.98120806,57.68802,11.98121,14:52:14.489921,0.00351,1.42145,0.01605,0.00757,-0.00039,-0.00094,-0.03632,-0.06027,0.05765,1.00729,5.35005,1.36314,2.21199,2.21859,-2.94854,4.78926,5.27638,-2.71429,4.91111,A,145214.30
5.36449,57.68801824,11.98120806,57.68802,11.98121,14:52:14.500356,0.00355,1.42145,0.01635,0.00513,-0.00696,0.00975,-0.03845,-0.07912,0.06582,1.00150,5.36026,1.36314,2.21199,2.21859,-2.94854,4.78926,5.27638,-2.71429,4.91111,A,145214.30
5.37484,57.68801824,11.98120806,57.68802,11.98121,14:52:14.510698,0.00350,1.42145,0.01634,0.00267,-0.00849,0.02273,-0.03448,-0.07198,0.04483,1.00680,5.37084,1.36314,2.21199,2.21859,-2.94854,4.78926,5.27638,-2.71429,4.91111,A,145214.30
5.39896,57.68801824,11.98120806,57.68802,11.98121,14:52:14.534834,0.01722,1.42145,0.01736,0.00046,-0.01475,0.02929,-0.02700,-0.01220,0.11535,0.98783,5.38124,1.36314,2.21199,2.21859,-2.94854,4.78926,5.39753,-2.75391,5.04084,A,145214.40
5.41277,57.68801948,11.98120695,57.68802,11.98121,14:52:14.548636,0.00780,1.42145,0.01815,-0.00395,0.00358,0.01677,-0.01387,-0.07235,0.08595,1.04475,5.40656,1.36897,2.21168,2.21050,-3.01457,4.92739,5.39753,-2.75391,5.04084,A,145214.40
5.41965,57.68801948,11.98120695,57.68802,11.98121,14:52:14.555755,0.00444,1.42145,0.01920,-0.00520,0.01182,0.02899,-0.02059,-0.10230,0.10522,1.06652,5.41569,1.36897,2.21168,2.21050,-3.01457,4.92739,5.39753,-2.75391,5.04084,A,145214.40
5.42930,57.68801948,11.98120695,57.68802,11.98121,14:52:14.565165,0.00360,1.42145,0.01997,-0.00624,0.01442,0.04350,-0.02379,-0.02202,0.07820,1.00668,5.42527,1.36897,2.21168,2.21050,-3.01457,4.92739,5.39753,-2.75391,5.04084,A,145214.40
5.43947,57.68801948,11.98120695,57.68802,11.98121,14:52:14.575558,0.00334,1.42145,0.02002,-0.00709,0.01793,0.01891,-0.02486,0.12499,0.02379,0.92122,5.43547,1.36897,2.21168,2.21050,-3.01457,4.92739,5.39753,-2.75391,5.04084,A,145214.40
5.45008,57.68801948,11.98120695,57.68802,11.98121,14:52:14.585937,0.00355,1.42145,0.02055,-0.00760,0.01610,-0.01912,-0.02395,0.09156,0.05203,0.88316,5.44606,1.36897,2.21168,2.21050,-3.01457,4.92739,5.39753,-2.75391,5.04084,A,145214.40
5.46191,57.68801948,11.98120695,57.68802,11.98121,14:52:14.598091,0.00499,1.42145,0.02129,-0.00780,0.01915,-0.03515,-0.02242,-0.04313,0.06210,0.89524,5.45787,1.36897,2.21168,2.21050,-3.01457,4.92739,5.39753,-2.75391,5.04084,A,145214.40
5.47078,57.68801948,11.98120695,57.68802,11.98121,14:52:14.606644,0.00347,1.42145,0.02175,-0.00780,0.01747,-0.03576,-0.01371,-0.02714,0.04734,0.85467,5.46684,1.36897,2.21168,2.21050,-3.01457,4.92739,5.39753,-2.75391,5.04084,A,145214.40
5.48179,57.68801948,11.98120695,57.68802,11.98121,14:52:14.617651,0.00408,1.42145,0.02251,-0.00780,0.02374,-0.03164,-0.01066,-0.00335,0.06435,0.91592,5.47777,1.36897,2.21168,2.21050,-3.01457,4.92739,5.39753,-2.75391,5.04084,A,145214.40
5.49141,57.68801948,11.98120695,57.68802,11.98121,14:52:14.627503,0.00327,1.42145,0.02376,-0.00780,0.02343,-0.03622,-0.00684,0.05478,0.09412,0.89255,5.48748,1.36897,2.21168,2.21050,-3.01457,4.92739,5.39753,-2.75391,5.04084,A,145214.40
5.52891,57.68801948,11.98120695,57.68802,11.98121,14:52:14.664775,0.03037,1.42145,0.02461,-0.00780,0.02786,-0.05943,-0.00669,0.17184,0.05990,0.80471,5.49804,1.36897,2.21168,2.21050,-3.01457,4.92739,5.52700,-2.90251,5.22616,A,145214.60
5.54644,57.68802092,11.98120551,57.68802,11.98121,14:52:14.682304,0.00718,1.42294,0.02803,-0.00780,0.07505,0.05587,-0.03891,0.00659,0.08449,1.37909,5.54024,1.37437,2.21139,2.20907,-3.10010,5.08727,5.52700,-2.90251,5.22616,A,145214.60
5.55330,57.68802092,11.98120551,57.68802,11.98121,14:52:14.689152,0.00353,1.42294,0.02894,-0.00780,0.07474,0.05006,-0.04792,0.27840,0.07009,1.17358,5.54935,1.37437,2.21139,2.20907,-3.10010,5.08727,5.52700,-2.90251,5.22616,A,145214.60
5.56351,57.68802092,11.98120551,57.68802,11.98121,14:52:14.699585,0.00336,1.42294,0.03114,-0.00772,0.08116,-0.01835,-0.04655,0.20990,0.12950,0.94288,5.55949,1.37437,2.21139,2.20907,-3.10010,5.08727,5.52700,-2.90251,5.22616,A,145214.60
5.57406,57.68802092,11.98120551,57.68802,11.98121,14:52:14.709918,0.00351,1.42294,0.03126,-0.00743,0.07169,-0.07119,-0.05266,-0.17208,0.00213,0.77311,5.57005,1.37437,2.21139,2.20907,-3.10010,5.08727,5.52700,-2.90251,5.22616,A,145214.60
5.58523,57.68802092,11.98120551,57.68802,11.98121,14:52:14.721102,0.00430,1.42294,0.02636,-0.00690,0.04893,-0.06493,-0.03555,-0.15646,-0.24979,0.76396,5.58120,1.37437,2.21139,2.20907,-3.10010,5.08727,5.52700,-2.90251,5.22616,A,145214.60
5.59478,57.68802092,11.98120551,57.68802,11.98121,14:52:14.730630,0.00345,1.42294,0.02362,-0.00613,0.00602,-0.04630,-0.02837,-0.36197,-0.11596,0.79355,5.59084,1.37437,2.21139,2.20907,-3.10010,5.08727,5.52700,-2.90251,5.22616,A,145214.60
5.60595,57.68802092,11.98120551,57.68802,11.98121,14:52:14.741817,0.00436,1.42294,0.02379,-0.00537,-0.00253,0.01295,-0.00837,-0.14420,0.04532,0.86156,5.60191,1.37437,2.21139,2.20907,-3.10010,5.08727,5.52700,-2.90251,5.22616,A,145214.60
5.61551,57.68802092,11.98120551,57.68802,11.98121,14:52:14.751591,0.00340,1.42294,0.02552,-0.00486,-0.01093,0.05022,-0.00058,-0.00085,0.16757,1.01699,5.61156,1.37437,2.21139,2.20907,-3.10010,5.08727,5.52700,-2.90251,5.22616,A,145214.60
5.62617,57.68802092,11.98120551,57.68802,11.98121,14:52:14.762034,0.00353,1.42294,0.02680,-0.00455,0.02419,0.06014,0.00751,0.01476,0.12962,1.15150,5.62216,1.37437,2.21139,2.20907,-3.10010,5.08727,5.52700,-2.90251,5.22616,A,145214.60
5.64922,57.68802092,11.98120551,57.68803,11.98121,14:52:14.785090,0.01618,1.42294,0.02805,-0.00449,0.03794,0.06182,0.00156,-0.10352,0.12987,1.25062,5.63236,1.37437,2.21139,2.20907,-3.10010,5.08727,5.64780,-2.91241,5.39295,A,145214.70
5.66825,57.68802226,11.98120434,57.68803,11.98121,14:52:14.804115,0.00731,1.42294,0.02842,-0.00449,0.00495,-0.01011,-0.02074,0.14103,0.05520,0.91512,5.66206,1.37923,2.20443,2.20309,-3.16952,5.23672,5.64780,-2.91241,5.39295,A,145214.70
5.67487,57.68802226,11.98120434,57.68803,11.98121,14:52:14.810727,0.00353,1.42294,0.02877,-0.00449,-0.00146,-0.04966,-0.01142,0.11730,0.06063,0.86986,5.67093,1.37923,2.20443,2.20309,-3.16952,5.23672,5.64780,-2.91241,5.39295,A,145214.70
5.68524,57.68802226,11.98120434,57.68803,11.98121,14:52:14.821109,0.00351,1.42294,0.03025,-0.00449,-0.00559,-0.05745,0.00202,-0.04953,0.12981,0.87248,5.68123,1.37923,2.20443,2.20309,-3.16952,5.23672,5.64780,-2.91241,5.39295,A,145214.70
5.69547,57.68802226,11.98120434,57.68803,11.98121,14:52:14.831543,0.00333,1.42294,0.03289,-0.00449,-0.00727,-0.03026,0.01347,-0.13871,0.21014,0.90182,5.69146,1.37923,2.20443,2.20309,-3.16952,5.23672,5.64780,-2.91241,5.39295,A,145214.70
5.70692,57.68802226,11.98120434,57.68803,11.98121,14:52:14.842784,0.00439,1.42294,0.03477,-0.00449,0.00312,-0.00018,0.01393,-0.17068,0.16690,0.95447,5.70290,1.37923,2.20443,2.20309,-3.16952,5.23672,5.64780,-2.91241,5.39295,A,145214.70
5.71749,57.68802226,11.98120434,57.68803,11.98121,14:52:14.853365,0.00456,1.42294,0.03576,-0.00449,0.01488,0.02624,-0.00470,-0.05380,0.10126,0.93361,5.71318,1.37923,2.20443,2.20309,-3.16952,5.23672,5.64780,-2.91241,5.39295,A,145214.70
5.72797,57.68802226,11.98120434,57.68803,11.98121,14:52:14.863852,0.00429,1.42294,0.03591,-0.00449,-0.00421,0.02273,-0.01494,0.00952,0.06753,1.01846,5.72375,1.37923,2.20443,2.20309,-3.16952,5.23672,5.64780,-2.91241,5.39295,A,145214.70
5.73754,57.68802226,11.98120434,57.68803,11.98121,14:52:14.873400,0.00347,1.42294,0.03650,-0.00449,-0.00024,0.01769,-0.03143,0.05100,0.09797,1.04627,5.73359,1.37923,2.20443,2.20309,-3.16952,5.23672,5.64780,-2.91241,5.39295,A,145214.70
5.74766,57.68802226,11.98120434,57.68803,11.98121,14:52:14.883733,0.00335,1.42294,0.03560,-0.00449,-0.01307,0.00776,-0.03708,-0.05362,0.00305,1.07104,5.74365,1.37923,2.20443,2.20309,-3.16952,5.23672,5.64780,-2.91241,5.39295,A,145214.70
5.77222,57.68802226,11.98120434,57.68803,11.98121,14:52:14.908084,0.01752,1.42294,0.03457,-0.00449,-0.02788,0.01402,-0.02807,-0.07113,0.00366,1.03547,5.75421,1.37923,2.20443,2.20309,-3.16952,5.23672,5.77063,-2.99166,5.46708,A,145214.80
5.78984,57.68802355,11.98120316,57.68803,11.98121,14:52:14.925717,0.00751,1.42294,0.03484,-0.00449,-0.02712,0.01769,-0.01600,-0.01257,0.12401,1.00388,5.78363,1.38360,2.20561,2.20428,-3.23955,5.37962,5.77063,-2.99166,5.46708,A,145214.80
5.79607,57.68802355,11.98120316,57.68803,11.98121,14:52:14.931938,0.00351,1.42294,0.03586,-0.00449,-0.02452,0.01005,-0.01005,-0.02483,0.13402,0.99784,5.79192,1.38360,2.20561,2.20428,-3.23955,5.37962,5.77063,-2.99166,5.46708,A,145214.80
5.80671,57.68802355,11.98120316,57.68803,11.98121,14:52:14.942573,0.00375,1.42294,0.03555,-0.00449,-0.01719,0.01097,-0.00593,-0.00988,0.04264,0.96136,5.80269,1.38360,2.20561,2.20428,-3.23955,5.37962,5.77063,-2.99166,5.46708,A,145214.80
5.81706,57.68802355,11.98120316,57.68803,11.98121,14:52:14.952923,0.00370,1.42294,0.03574,-0.00449,-0.01841,0.00165,-0.00562,0.00299,0.07485,0.95398,5.81305,1.38360,2.20561,2.20428,-3.23955,5.37962,5.77063,-2.99166,5.46708,A,145214.80
5.82818,57.68802355,11.98120316,57.68803,11.98121,14:52:14.964071,0.00458,1.42294,0.03555,-0.00449,-0.02651,-0.00186,-0.00806,-0.05887,0.06106,1.03133,5.82376,1.38360,2.20561,2.20428,-3.23955,5.37962,5.77063,-2.99166,5.46708,A,145214.80
5.83789,57.68802355,11.98120316,57.68803,11.98121,14:52:14.974053,0.00374,1.42294,0.03562,-0.00449,-0.02910,0.00089,-0.01005,-0.00122,0.07412,0.95831,5.83388,1.38360,2.20561,2.20428,-3.23955,5.37962,5.77063,-2.99166,5.46708,A,145214.80
5.84789,57.68802355,11.98120316,57.68803,11.98121,14:52:14.983771,0.00330,1.42294,0.03582,-0.00449,-0.04270,0.00425,-0.00531,-0.05941,0.09894,1.04530,5.84375,1.38360,2.20561,2.20428,-3.23955,5.37962,5.77063,-2.99166,5.46708,A,145214.80
5.85843,57.68802355,11.98120316,57.68803,11.98121,14:52:14.994290,0.00378,1.42294,0.03592,-0.00449,-0.03475,0.02929,-0.00959,-0.02788,0.08455,1.00406,5.85442,1.38360,2.20561,2.20428,-3.23955,5.37962,5.77063,-2.99166,5.46708,A,145214.80
5.86858,57.68802355,11.98120316,57.68803,11.98121,14:52:15.004450,0.00354,1.42294,0.03576,-0.00449,-0.03460,0.03342,-0.02059,-0.04984,0.06765,1.02370,5.86434,1.38360,2.20561,2.20428,-3.23955,5.37962,5.77063,-2.99166,5.46708,A,145214.80
5.89185,57.68802355,11.98120316,57.68803,11.98121,14:52:15.027730,0.01642,1.42294,0.03590,-0.00449,-0.03796,0.03800,-0.02731,-0.01147,0.08808,0.99180,5.87495,1.38360,2.20561,2.20428,-3.23955,5.37962,5.89031,-3.06101,5.55975,A,145214.90
5.90837,57.68802475,11.98120203,57.68803,11.98121,14:52:15.044250,0.00743,1.42294,0.03455,-0.00449,-0.02804,0.00700,-0.02120,0.02373,0.01128,0.93672,5.90162,1.38753,2.20505,2.20371,-3.30708,5.51388,5.89031,-3.06101,5.55975,A,145214.90
5.91493,57.68802475,11.98120203,57.68803,11.98121,14:52:15.050799,0.00352,1.42294,0.03379,-0.00449,-0.03659,-0.00415,-0.01509,-0.03947,0.02336,0.96862,5.91097,1.38753,2.20505,2.20371,-3.30708,5.51388,5.89031,-3.06101,5.55975,A,145214.90
5.92533,57.68802475,11.98120203,57.68803,11.98121,14:52:15.061185,0.00352,1.42294,0.03384,-0.00449,-0.04468,0.00547,-0.01203,-0.12163,0.09156,1.06988,5.92129,1.38753,2.20505,2.20371,-3.30708,5.51388,5.89031,-3.06101,5.55975,A,145214.90
5.93630,57.68802475,11.98120203,57.68803,11.98121,14:52:15.072181,0.00414,1.42294,0.03478,-0.00449,-0.03216,0.02319,-0.00928,-0.05929,0.14048,1.03047,5.93183,1.38753,2.20505,2.20371,-3.30708,5.51388,5.89031,-3.06101,5.55975,A,145214.90
5.94608,57.68802475,11.98120203,57.68803,11.98121,14:52:15.081948,0.00353,1.42294,0.03532,-0.00449,-0.01704,0.03464,-0.00104,0.00470,0.09681,0.97161,5.94207,1.38753,2.20505,2.20371,-3.30708,5.51388,5.89031,-3.06101,5.55975,A,145214.90
5.95649,57.68802475,11.98120203,57.68803,11.98121,14:52:15.092359,0.00355,1.42294,0.03544,-0.00449,-0.01322,0.02105,-0.00608,-0.09217,0.07107,1.01705,5.95224,1.38753,2.20505,2.20371,-3.30708,5.51388,5.89031,-3.06101,5.55975,A,145214.90
5.96708,57.68802475,11.98120203,57.68803,11.98121,14:52:15.102946,0.00374,1.42294,0.03525,-0.00449,-0.02315,0.03968,-0.01142,-0.19898,0.06374,1.11191,5.96307,1.38753,2.20505,2.20371,-3.30708,5.51388,5.89031,-3.06101,5.55975,A,145214.90
5.97725,57.68802475,11.98120203,57.68803,11.98121,14:52:15.113115,0.00352,1.42294,0.03458,-0.00449,-0.01872,0.05862,-0.01356,0.02263,0.01915,0.94202,5.97324,1.38753,2.20505,2.20371,-3.30708,5.51388,5.89031,-3.06101,5.55975,A,145214.90
5.98748,57.68802475,11.98120203,57.68803,11.98121,14:52:15.123555,0.00335,1.42294,0.03398,-0.00449,-0.03063,0.03052,-0.01891,0.04435,0.03245,1.00028,5.98347,1.38753,2.20505,2.20371,-3.30708,5.51388,5.89031,-3.06101,5.55975,A,145214.90
6.01273,57.68802475,11.98120203,57.68803,11.98121,14:52:15.148595,0.01821,1.42294,0.03511,-0.00449,-0.03659,0.01906,-0.01112,0.00299,0.16037,1.04151,5.99403,1.38753,2.20505,2.20371,-3.30708,5.51388,6.01015,-3.13035,5.67094,A,145215.00
6.02475,57.68802593,11.98120090,57.68803,11.98121,14:52:15.160622,0.00640,1.44538,0.03536,-0.00449,-0.02972,-0.00919,-0.00318,0.05453,0.08997,0.77494,6.01816,1.39332,2.20364,2.20231,-3.37406,5.64498,6.01015,-3.13035,5.67094,A,145215.00
6.03288,57.68802593,11.98120090,57.68803,11.98121,14:52:15.169013,0.00413,1.44538,0.03623,-0.00449,-0.02697,-0.03515,-0.00562,0.04795,0.09443,0.73060,6.02889,1.39332,2.20364,2.20231,-3.37406,5.64498,6.01015,-3.13035,5.67094,A,145215.00
6.04469,57.68802593,11.98120090,57.68803,11.98121,14:52:15.180571,0.00569,1.44538,0.03708,-0.00449,-0.03506,-0.04783,-0.01234,-0.07247,0.11322,0.83655,6.03966,1.39332,2.20364,2.20231,-3.37406,5.64498,6.01015,-3.13035,5.67094,A,145215.00
6.05287,57.68802593,11.98120090,57.68803,11.98121,14:52:15.188733,0.00348,1.44538,0.03726,-0.00449,-0.03231,-0.03790,-0.01402,-0.16690,0.08851,1.02828,6.04892,1.39332,2.20364,2.20231,-3.37406,5.64498,6.01015,-3.13035,5.67094,A,145215.00
6.06330,57.68802593,11.98120090,57.68803,11.98121,14:52:15.199157,0.00334,1.44538,0.03734,-0.00449,-0.03369,-0.00980,-0.01616,-0.09681,0.10266,1.22140,6.05929,1.39332,2.20364,2.20231,-3.37406,5.64498,6.01015,-3.13035,5.67094,A,145215.00
6.07387,57.68802593,11.98120090,57.68803,11.98121,14:52:15.209737,0.00352,1.44538,0.03709,-0.00449,-0.03124,0.00318,-0.01723,-0.00525,0.07686,1.26532,6.06986,1.39332,2.20364,2.20231,-3.37406,5.64498,6.01015,-3.13035,5.67094,A,145215.00
6.08429,57.68802593,11.98120090,57.68803,11.98121,14:52:15.220159,0.00355,1.44538,0.03640,-0.00449,-0.02788,0.00272,-0.01692,-0.00775,0.03453,1.24428,6.08006,1.39332,2.20364,2.20231,-3.37406,5.64498,6.01015,-3.13035,5.67094,A,145215.00
6.09476,57.68802593,11.98120090,57.68803,11.98121,14:52:15.230629,0.00377,1.44538,0.03568,-0.00449,-0.02330,-0.00446,-0.01723,-0.00275,0.02452,1.08891,6.09074,1.39332,2.20364,2.20231,-3.37406,5.64498,6.01015,-3.13035,5.67094,A,145215.00
6.10494,57.68802593,11.98120090,57.68803,11.98121,14:52:15.240801,0.00354,1.44538,0.03559,-0.00449,-0.02177,-0.02553,-0.00959,-0.04056,0.06124,0.98777,6.10092,1.39332,2.20364,2.20231,-3.37406,5.64498,6.01015,-3.13035,5.67094,A,145215.00
6.14044,57.68802593,11.98120090,57.68803,11.98121,14:52:15.276306,0.02846,1.44538,0.03600,-0.00449,-0.01811,-0.03256,-0.00715,-0.09839,0.08265,0.89145,6.11131,1.39332,2.20364,2.20231,-3.37406,5.64498,6.13888,-3.23932,5.93040,A,145215.20
6.15322,57.68802734,11.98119955,57.68803,11.98121,14:52:15.289088,0.00570,1.44538,0.03686,-0.00449,-0.01475,-0.00705,0.00278,-0.09400,0.13042,0.89334,6.14703,1.39852,2.20058,2.19925,-3.45413,5.80142,6.13888,-3.23932,5.93040,A,145215.20
6.16193,57.68802734,11.98119955,57.68803,11.98121,14:52:15.297821,0.00377,1.44538,0.03805,-0.00449,0.00174,0.01448,-0.00089,-0.13457,0.13749,1.02919,6.15772,1.39852,2.20058,2.19925,-3.45413,5.80142,6.13888,-3.23932,5.93040,A,145215.20
6.17154,57.68802734,11.98119955,57.68803,11.98121,14:52:15.307622,0.00336,1.44538,0.03880,-0.00449,0.00907,0.01769,-0.00547,-0.10254,0.11041,1.10093,6.16753,1.39852,2.20058,2.19925,-3.45413,5.80142,6.13888,-3.23932,5.93040,A,145215.20
6.18208,57.68802734,11.98119955,57.68803,11.98121,14:52:15.317940,0.00350,1.44538,0.03763,-0.00449,0.00098,0.00868,-0.00776,0.04331,-0.02489,1.13991,6.17808,1.39852,2.20058,2.19925,-3.45413,5.80142,6.13888,-3.23932,5.93040,A,145215.20
6.19249,57.68802734,11.98119955,57.68803,11.98121,14:52:15.328358,0.00352,1.44538,0.03668,-0.00449,-0.01032,-0.01255,-0.02165,0.14420,-0.00116,1.13387,6.18826,1.39852,2.20058,2.19925,-3.45413,5.80142,6.13888,-3.23932,5.93040,A,145215.20
6.20286,57.68802734,11.98119955,57.68803,11.98121,14:52:15.338713,0.00350,1.44538,0.03639,-0.00449,-0.03445,-0.04584,-0.01784,-0.02001,0.06826,1.15241,6.19885,1.39852,2.20058,2.19925,-3.45413,5.80142,6.13888,-3.23932,5.93040,A,145215.20
6.21328,57.68802734,11.98119955,57.68803,11.98121,14:52:15.349151,0.00353,1.44538,0.03741,-0.00449,-0.02895,-0.04691,-0.00944,-0.05990,0.14762,1.03456,6.20926,1.39852,2.20058,2.19925,-3.45413,5.80142,6.13888,-3.23932,5.93040,A,145215.20
6.22390,57.68802734,11.98119955,57.68803,11.98121,14:52:15.359783,0.00368,1.44538,0.03835,-0.00449,-0.01750,-0.03637,-0.00852,-0.17379,0.12816,0.98283,6.21968,1.39852,2.20058,2.19925,-3.45413,5.80142,6.13888,-3.23932,5.93040,A,145215.20
6.23463,57.68802734,11.98119955,57.68803,11.98121,14:52:15.370491,0.00376,1.44538,0.03850,-0.00449,-0.01139,-0.00232,-0.01295,-0.09248,0.06618,0.89334,6.23061,1.39852,2.20058,2.19925,-3.45413,5.80142,6.13888,-3.23932,5.93040,A,145215.20
6.26041,57.68802734,11.98119955,57.68803,11.98121,14:52:15.396278,0.01914,1.44538,0.03765,-0.00449,-0.00849,-0.00843,-0.01723,0.04490,0.00287,0.76311,6.24106,1.39852,2.20058,2.19925,-3.45413,5.80142,6.25881,-3.27894,6.06012,A,145215.30
6.28004,57.68802871,11.98119829,57.68803,11.98121,14:52:15.415920,0.00756,1.44538,0.03737,-0.00455,-0.00803,-0.00171,-0.03341,-0.13023,0.05844,1.07891,6.27391,1.40321,2.19655,2.19520,-3.52891,5.95429,6.25881,-3.27894,6.06012,A,145215.30
6.28703,57.68802871,11.98119829,57.68803,11.98121,14:52:15.423145,0.00415,1.44538,0.03662,-0.00460,-0.01307,0.01051,-0.03051,-0.01531,0.01434,1.11051,6.28308,1.40321,2.19655,2.19520,-3.52891,5.95429,6.25881,-3.27894,6.06012,A,145215.30
6.29685,57.68802871,11.98119829,57.68803,11.98121,14:52:15.432717,0.00357,1.44538,0.03592,-0.00466,-0.01399,-0.00155,-0.02578,0.00805,0.02056,1.20688,6.29283,1.40321,2.19655,2.19520,-3.52891,5.95429,6.25881,-3.27894,6.06012,A,145215.30
6.30740,57.68802871,11.98119829,57.68803,11.98121,14:52:15.443471,0.00373,1.44538,0.03610,-0.00474,-0.01261,-0.00171,-0.02257,0.01177,0.08747,1.17669,6.30315,1.40321,2.19655,2.19520,-3.52891,5.95429,6.25881,-3.27894,6.06012,A,145215.30
6.31778,57.68802871,11.98119829,57.68803,11.98121,14:52:15.453642,0.00372,1.44538,0.03671,-0.00491,-0.00681,-0.00598,-0.02013,-0.02257,0.10803,1.08409,6.31377,1.40321,2.19655,2.19520,-3.52891,5.95429,6.25881,-3.27894,6.06012,A,145215.30
6.32762,57.68802871,11.98119829,57.68803,11.98121,14:52:15.463713,0.00330,1.44538,0.03763,-0.00520,-0.00146,0.00669,-0.01219,-0.08619,0.11267,0.96892,6.32368,1.40321,2.19655,2.19520,-3.52891,5.95429,6.25881,-3.27894,6.06012,A,145215.30
6.33891,57.68802871,11.98119829,57.68803,11.98121,14:52:15.474781,0.00420,1.44538,0.03831,-0.00559,0.00297,0.00120,-0.01387,-0.07204,0.08418,0.86809,6.33452,1.40321,2.19655,2.19520,-3.52891,5.95429,6.25881,-3.27894,6.06012,A,145215.30
6.34921,57.68802871,11.98119829,57.68803,11.98121,14:52:15.485067,0.00410,1.44538,0.03789,-0.00599,0.00052,0.01494,-0.02211,-0.02983,0.01946,0.78110,6.34519,1.40321,2.19655,2.19520,-3.52891,5.95429,6.25881,-3.27894,6.06012,A,145215.30
