Time,lat_estimated,lon_estimated,latitude,longitude,RealTime,CalculationTime,MeasuredVelocity,FilteredVelocity,Roll,SteeringAngle,RollRate,gy,gz,ax,ay,az,imu_read_timing,v_estimated,yaw_estimated,heading_estimated,x_estimated,y_estimated,GPS_timestamp,x_GPS,y_GPS,theta_GPS,theta_GPS_noUnwrap,status,NMEA timestamp
0.06692,57.68783250,11.98133683,57.68783250,11.98133683,10:54:39.658112,0.06688,0.00000,1.50000,-0.00117,0.00589,-0.04662,0.00537,0.00733,0.03776,-0.01604,0.98326,0.00001,0.00000,-0.00342,0.00000,0.00000,0.00000,0.01543,0.00000,0.00000,0.00000,0.00000,A,105439.50
0.07972,57.68783250,11.98133683,57.68783250,11.98133683,10:54:39.670926,0.00717,0.00000,0.00000,-0.00494,0.00589,-0.04464,0.00430,0.00336,-0.01440,-0.00714,0.98192,0.07296,0.00000,-0.00342,0.00000,0.00000,0.00000,0.01543,0.00000,0.00000,0.00000,0.00000,A,105439.50
0.08832,57.68783250,11.98133683,57.68783250,11.98133683,10:54:39.679511,0.00533,0.00000,0.00000,-0.00601,0.00589,-0.04296,0.00308,0.00137,-0.01946,-0.01934,1.01156,0.08225,0.00000,-0.00342,0.00000,0.00000,0.00000,0.01543,0.00000,0.00000,0.00000,0.00000,A,105439.50
0.09845,57.68783250,11.98133683,57.68783250,11.98133683,10:54:39.689882,0.00505,0.00000,0.00000,-0.00714,0.00589,-0.03777,0.00246,0.00045,-0.00256,-0.02379,1.00504,0.09283,0.00000,-0.00342,0.00000,0.00000,0.00000,0.01543,0.00000,0.00000,0.00000,0.00000,A,105439.50
0.10888,57.68783250,11.98133683,57.68783250,11.98133683,10:54:39.700069,0.00509,0.00000,0.00000,-0.00825,0.00589,-0.04097,-0.00120,-0.00138,0.04270,-0.02312,1.00296,0.10301,0.00000,-0.00342,0.00000,0.00000,0.00000,0.01543,0.00000,0.00000,0.00000,0.00000,A,105439.50
0.15257,57.68783250,11.98133683,57.68783283,11.98133650,10:54:39.743776,0.03838,0.00000,1.50000,-0.00943,0.00589,-0.03563,-0.01189,-0.00138,0.02794,-0.02916,1.00327,0.11429,0.00000,-0.00342,0.00000,0.00000,0.00000,0.13146,-0.01981,0.03706,2.06169,2.06169,A,105439.60
0.16893,57.68783252,11.98133682,57.68783283,11.98133650,10:54:39.760116,0.00693,0.00000,0.00000,-0.01090,0.00589,-0.02112,0.00430,0.00656,0.03806,-0.00836,0.96337,0.16304,0.00000,0.30583,0.30925,-0.00099,0.00185,0.13146,-0.01981,0.03706,2.06169,2.06169,A,105439.60
0.17763,57.68783253,11.98133680,57.68783283,11.98133650,10:54:39.768818,0.00523,0.00000,0.00000,-0.01155,0.00589,-0.01883,-0.00807,0.00916,0.00024,-0.01177,0.96917,0.17198,0.00000,0.56869,0.57212,-0.00193,0.00361,0.13146,-0.01981,0.03706,2.06169,2.06169,A,105439.60
0.18827,57.68783255,11.98133679,57.68783283,11.98133650,10:54:39.779455,0.00531,0.00000,0.00000,-0.01241,0.00589,-0.01898,-0.01052,0.01038,-0.02666,-0.02525,1.00278,0.18234,0.00000,0.79213,0.79555,-0.00283,0.00529,0.13146,-0.01981,0.03706,2.06169,2.06169,A,105439.60
0.19845,57.68783256,11.98133677,57.68783283,11.98133650,10:54:39.790022,0.00510,0.00000,0.00000,-0.01339,0.00589,-0.01593,-0.01021,0.01099,-0.03239,-0.03556,1.00766,0.19280,0.00000,0.98205,0.98547,-0.00368,0.00688,0.13146,-0.01981,0.03706,2.06169,2.06169,A,105439.60
0.20886,57.68783258,11.98133676,57.68783283,11.98133650,10:54:39.800050,0.00511,0.00000,0.00000,-0.01419,0.00589,-0.01883,-0.00441,0.00519,-0.02824,-0.02348,1.02559,0.20299,0.00000,1.14348,1.14691,-0.00448,0.00838,0.13146,-0.01981,0.03706,2.06169,2.06169,A,105439.60
0.21955,57.68783259,11.98133675,57.68783283,11.98133650,10:54:39.810740,0.00540,0.00000,0.00000,-0.01487,0.00589,-0.01990,0.00002,0.00061,-0.00573,-0.01440,0.99735,0.21360,0.00000,1.28070,1.28412,-0.00525,0.00982,0.13146,-0.01981,0.03706,2.06169,2.06169,A,105439.60
0.22963,57.68783260,11.98133673,57.68783283,11.98133650,10:54:39.820819,0.00508,0.00000,0.00000,-0.01540,0.00589,-0.01791,-0.00227,-0.00367,-0.01763,-0.00744,1.00912,0.22398,0.00000,1.39733,1.40076,-0.00598,0.01118,0.13146,-0.01981,0.03706,2.06169,2.06169,A,105439.60
0.28135,57.68783261,11.98133672,57.68783333,11.98133617,10:54:39.872569,0.04635,0.00000,1.50000,-0.01575,0.00589,-0.01486,-0.00242,-0.00947,-0.05142,0.00299,1.01577,0.23450,0.00000,1.49647,1.49990,-0.00667,0.01248,0.25159,-0.03962,0.09266,1.91312,1.91312,A,105439.70
0.29497,57.68783265,11.98133669,57.68783333,11.98133617,10:54:39.886161,0.00612,0.00000,0.00000,-0.01724,0.00589,-0.01852,-0.00761,0.00274,-0.02714,-0.01732,0.99735,0.28904,0.00000,1.55846,1.56188,-0.00832,0.01648,0.25159,-0.03962,0.09266,1.91312,1.91312,A,105439.70
0.30432,57.68783268,11.98133667,57.68783333,11.98133617,10:54:39.895507,0.00522,0.00000,0.00000,-0.01755,0.00589,-0.01501,-0.00395,0.00366,-0.01720,0.00238,1.01571,0.29838,0.00000,1.61114,1.61457,-0.00988,0.02029,0.25159,-0.03962,0.09266,1.91312,1.91312,A,105439.70
0.31487,57.68783272,11.98133664,57.68783333,11.98133617,10:54:39.906068,0.00537,0.00000,0.00000,-0.01829,0.00589,-0.01058,-0.00425,0.00687,-0.01574,-0.02965,1.02754,0.30899,0.00000,1.65593,1.65935,-0.01137,0.02391,0.25159,-0.03962,0.09266,1.91312,1.91312,A,105439.70
0.32499,57.68783275,11.98133662,57.68783333,11.98133617,10:54:39.916183,0.00510,0.00000,0.00000,-0.01873,0.00589,-0.01730,-0.00349,0.00381,-0.02202,-0.00494,1.02785,0.31913,0.00000,1.69399,1.69742,-0.01278,0.02735,0.25159,-0.03962,0.09266,1.91312,1.91312,A,105439.70
0.33608,57.68783278,11.98133660,57.68783333,11.98133617,10:54:39.927281,0.00579,0.00000,0.00000,-0.01941,0.00589,-0.01578,-0.00685,0.00091,0.00885,-0.02214,1.01961,0.32986,0.00000,1.72635,1.72977,-0.01412,0.03062,0.25159,-0.03962,0.09266,1.91312,1.91312,A,105439.70
0.34572,57.68783280,11.98133657,57.68783333,11.98133617,10:54:39.936902,0.00503,0.00000,0.00000,-0.02000,0.00589,-0.02463,-0.00578,-0.00031,-0.04776,-0.01092,1.00815,0.34007,0.00000,1.75385,1.75727,-0.01540,0.03372,0.25159,-0.03962,0.09266,1.91312,1.91312,A,105439.70
0.39500,57.68783283,11.98133655,57.68783367,11.98133583,10:54:39.986240,0.04400,0.00000,1.50000,-0.02057,0.00589,-0.02188,0.00491,-0.00535,-0.04660,-0.01220,0.98234,0.35027,0.00000,1.77723,1.78065,-0.01661,0.03666,0.36770,-0.05944,0.12973,2.06169,2.06169,A,105439.80
0.41199,57.68783287,11.98133652,57.68783367,11.98133583,10:54:40.003177,0.00707,0.00000,0.00000,-0.02301,0.00560,-0.03242,-0.00395,-0.00917,0.00500,-0.03447,0.99497,0.40534,0.00000,1.81941,1.82267,-0.01875,0.04132,0.36770,-0.05944,0.12973,2.06169,2.06169,A,105439.80
0.42034,57.68783291,11.98133648,57.68783367,11.98133583,10:54:40.011526,0.00518,0.00000,0.00000,-0.02369,0.00512,-0.03914,-0.00777,-0.01085,-0.04209,-0.01379,0.99552,0.41442,0.00000,1.85530,1.85828,-0.02079,0.04574,0.36770,-0.05944,0.12973,2.06169,2.06169,A,105439.80
0.43089,57.68783295,11.98133645,57.68783367,11.98133583,10:54:40.022089,0.00534,0.00000,0.00000,-0.02427,0.00442,-0.03212,-0.00028,-0.00947,-0.07125,-0.00939,1.00918,0.42501,0.00000,1.88588,1.88844,-0.02272,0.04994,0.36770,-0.05944,0.12973,2.06169,2.06169,A,105439.80
0.44126,57.68783298,11.98133642,57.68783367,11.98133583,10:54:40.032451,0.00512,0.00000,0.00000,-0.02488,0.00359,-0.03166,0.00995,-0.00749,-0.04380,-0.01147,1.00473,0.43559,0.00000,1.91193,1.91402,-0.02455,0.05393,0.36770,-0.05944,0.12973,2.06169,2.06169,A,105439.80
0.45192,57.68783302,11.98133639,57.68783367,11.98133583,10:54:40.043113,0.00521,0.00000,0.00000,-0.02543,0.00272,-0.02998,0.00995,-0.00138,-0.01494,-0.01049,1.00504,0.44598,0.00000,1.93416,1.93574,-0.02630,0.05772,0.36770,-0.05944,0.12973,2.06169,2.06169,A,105439.80
0.46220,57.68783305,11.98133636,57.68783367,11.98133583,10:54:40.053380,0.00508,0.00000,0.00000,-0.02645,0.00181,-0.02921,0.00491,0.00061,0.00159,-0.04240,1.01303,0.45656,0.00000,1.95313,1.95418,-0.02796,0.06132,0.36770,-0.05944,0.12973,2.06169,2.06169,A,105439.80
0.52081,57.68783308,11.98133634,57.68783483,11.98133517,10:54:40.112785,0.05346,0.00000,1.50000,-0.02756,0.00096,-0.03746,0.00399,-0.00397,0.02544,-0.04447,0.99406,0.46662,0.00000,1.96933,1.96989,-0.02953,0.06474,0.49463,-0.09906,0.25945,1.86724,1.86724,A,105440.00
0.54175,57.68783317,11.98133628,57.68783483,11.98133517,10:54:40.132941,0.00850,0.85012,0.85012,-0.03055,-0.00334,-0.04021,-0.00258,-0.01772,-0.03733,-0.01769,0.97075,0.53375,0.17002,1.95431,1.95237,-0.03301,0.07447,0.49463,-0.09906,0.25945,1.86724,1.86724,A,105440.00
0.54879,57.68783326,11.98133622,57.68783483,11.98133517,10:54:40.139976,0.00515,0.85012,0.85012,-0.03119,-0.00357,-0.04021,-0.00242,-0.01696,-0.04758,-0.01793,0.97008,0.54288,0.30604,1.94156,1.93948,-0.03661,0.08448,0.49463,-0.09906,0.25945,1.86724,1.86724,A,105440.00
0.55946,57.68783336,11.98133615,57.68783483,11.98133517,10:54:40.150656,0.00542,0.85012,0.85012,-0.03187,-0.00376,-0.03074,0.00109,-0.01360,-0.04282,-0.02367,0.99387,0.55351,0.41486,1.93073,1.92854,-0.04064,0.09556,0.49463,-0.09906,0.25945,1.86724,1.86724,A,105440.00
0.56950,57.68783346,11.98133608,57.68783483,11.98133517,10:54:40.160692,0.00506,0.85012,0.85012,-0.03273,-0.00402,-0.02998,0.00063,-0.01375,0.01244,-0.03825,1.00040,0.56385,0.50191,1.92155,1.91921,-0.04470,0.10680,0.49463,-0.09906,0.25945,1.86724,1.86724,A,105440.00
0.58031,57.68783356,11.98133601,57.68783483,11.98133517,10:54:40.171495,0.00522,0.85012,0.85012,-0.03367,-0.00439,-0.03105,-0.00700,-0.00703,0.03355,-0.04288,0.99973,0.57437,0.57155,1.91377,1.91122,-0.04884,0.11835,0.49463,-0.09906,0.25945,1.86724,1.86724,A,105440.00
0.59083,57.68783367,11.98133594,57.68783483,11.98133517,10:54:40.182034,0.00533,0.85012,0.85012,-0.03455,-0.00484,-0.03166,-0.00945,-0.00901,0.00610,-0.04032,1.01254,0.58494,0.62727,1.90720,1.90439,-0.05289,0.12976,0.49463,-0.09906,0.25945,1.86724,1.86724,A,105440.00
0.64926,57.68783377,11.98133588,57.68783533,11.98133467,10:54:40.240502,0.05337,0.85012,1.50000,-0.03513,-0.00526,-0.02937,-0.01327,-0.00672,-0.05167,-0.02355,1.03236,0.59512,0.67184,1.90165,1.89858,-0.05687,0.14108,0.61292,-0.12878,0.31505,2.06169,2.06169,A,105440.10
0.67169,57.68783422,11.98133558,57.68783533,11.98133467,10:54:40.262880,0.01370,9.42379,1.50000,-0.03663,-0.00577,-0.01394,0.00430,-0.00856,-0.05508,-0.04111,1.01644,0.66563,0.83747,1.92598,1.92262,-0.07456,0.19122,0.61292,-0.12878,0.31505,2.06169,2.06169,A,105440.10
0.69138,57.68783439,11.98133545,57.68783533,11.98133467,10:54:40.282572,0.01163,9.42379,1.50000,-0.03746,-0.00577,-0.01394,0.01514,-0.01008,0.00317,-0.04526,1.02822,0.68536,0.96998,1.94677,1.94342,-0.08209,0.21053,0.61292,-0.12878,0.31505,2.06169,2.06169,A,105440.10
0.71306,57.68783459,11.98133530,57.68783533,11.98133467,10:54:40.304252,0.01418,9.42379,1.50000,-0.03802,-0.00577,-0.00447,0.00323,-0.00642,0.01409,-0.03776,0.99412,0.70712,1.07598,1.96443,1.96107,-0.09109,0.23281,0.61292,-0.12878,0.31505,2.06169,2.06169,A,105440.10
0.77762,57.68783476,11.98133517,57.68783600,11.98133367,10:54:40.368863,0.05633,9.42379,1.50000,-0.03859,-0.00577,-0.00753,-0.01159,-0.00627,-0.00811,-0.03605,0.96465,0.72462,1.16079,1.97945,1.97610,-0.09898,0.25153,0.74385,-0.18822,0.38918,2.24663,2.24663,A,105440.20
0.79425,57.68783539,11.98133464,57.68783600,11.98133367,10:54:40.385441,0.00873,9.42379,1.50000,-0.03802,-0.00577,0.01339,0.00506,0.00320,-0.02495,-0.02812,1.04786,0.78856,1.22863,2.01973,2.01637,-0.13046,0.32138,0.74385,-0.18822,0.38918,2.24663,2.24663,A,105440.20
0.80941,57.68783555,11.98133448,57.68783600,11.98133367,10:54:40.400600,0.01321,9.42379,1.50000,-0.03784,-0.00552,0.01874,0.00796,0.00885,-0.00512,-0.01372,1.03169,0.80293,1.28290,2.05417,2.05096,-0.14005,0.33879,0.74385,-0.18822,0.38918,2.24663,2.24663,A,105440.20
0.83031,57.68783576,11.98133426,57.68783600,11.98133367,10:54:40.421499,0.01044,9.42379,1.50000,-0.03805,-0.00444,0.01019,-0.00380,0.01114,0.00024,-0.03648,1.00528,0.82463,1.32632,2.08333,2.08075,-0.15322,0.36198,0.74385,-0.18822,0.38918,2.24663,2.24663,A,105440.20
0.88982,57.68783591,11.98133408,57.68783683,11.98133350,10:54:40.481042,0.05209,9.42379,1.50000,-0.03841,-0.00348,0.01080,-0.00639,0.00885,-0.01513,-0.04142,0.96911,0.84047,1.36106,2.10807,2.10604,-0.16361,0.37879,0.85840,-0.19812,0.48184,1.67730,1.67730,A,105440.30
0.90851,57.68783655,11.98133339,57.68783683,11.98133350,10:54:40.499699,0.00979,9.42379,1.50000,-0.03755,-0.00292,0.01599,-0.01464,-0.00245,-0.04105,-0.01610,1.04737,0.90228,1.38885,2.04350,2.04180,-0.20490,0.45065,0.85840,-0.19812,0.48184,1.67730,1.67730,A,105440.30
0.92131,57.68783667,11.98133329,57.68783683,11.98133350,10:54:40.512508,0.01192,9.42379,1.50000,-0.03753,-0.00292,0.01538,-0.01250,0.00045,-0.05118,-0.01879,1.05255,0.91444,1.41108,1.98879,1.98710,-0.21045,0.46379,0.85840,-0.19812,0.48184,1.67730,1.67730,A,105440.30
0.94099,57.68783688,11.98133314,57.68783683,11.98133350,10:54:40.532174,0.01135,9.42379,1.50000,-0.03721,-0.00292,0.02378,-0.01449,-0.00107,0.02452,-0.01732,0.96935,0.93508,1.42886,1.94227,1.94057,-0.21951,0.48658,0.85840,-0.19812,0.48184,1.67730,1.67730,A,105440.30
0.95887,57.68783702,11.98133305,57.68783683,11.98133350,10:54:40.550079,0.01164,9.42379,1.50000,-0.03710,-0.00292,0.02042,-0.02334,0.00381,-0.00232,-0.01867,0.93720,0.95030,1.44309,1.90274,1.90104,-0.22492,0.50306,0.85840,-0.19812,0.48184,1.67730,1.67730,A,105440.30
1.02640,57.68783720,11.98133295,57.68783833,11.98133300,10:54:40.617882,0.06074,9.42379,1.50000,-0.03677,-0.00292,0.02592,-0.01159,0.00595,-0.07198,-0.01909,0.98777,0.97072,1.45447,1.86912,1.86743,-0.23069,0.52272,1.00006,-0.22784,0.64864,1.74712,1.74712,A,105440.50
1.04118,57.68783800,11.98133253,57.68783833,11.98133300,10:54:40.632362,0.00753,9.42379,1.50000,-0.03450,-0.00082,0.03951,-0.00700,0.01435,-0.02342,-0.02190,0.97563,1.03548,1.46358,1.85070,1.85022,-0.25587,0.61188,1.00006,-0.22784,0.64864,1.74712,1.74712,A,105440.50
1.05164,57.68783812,11.98133250,57.68783833,11.98133300,10:54:40.642828,0.00759,9.42379,1.50000,-0.03477,0.00028,0.03432,-0.00593,0.01344,0.01324,-0.04227,0.95544,1.04567,1.47086,1.83513,1.83530,-0.25768,0.62491,1.00006,-0.22784,0.64864,1.74712,1.74712,A,105440.50
1.06275,57.68783823,11.98133247,57.68783833,11.98133300,10:54:40.653959,0.00829,9.42379,1.50000,-0.03487,0.00139,0.03844,-0.02396,0.01679,0.03276,-0.03471,0.96539,1.05612,1.47669,1.82181,1.82262,-0.25924,0.63737,1.00006,-0.22784,0.64864,1.74712,1.74712,A,105440.50
1.07264,57.68783834,11.98133245,57.68783833,11.98133300,10:54:40.663832,0.00780,9.42379,1.50000,-0.03492,0.00243,0.03554,-0.02808,0.01527,-0.00787,-0.02983,0.97264,1.06646,1.48135,1.81041,1.81182,-0.26066,0.64955,1.00006,-0.22784,0.64864,1.74712,1.74712,A,105440.50
1.08386,57.68783845,11.98133242,57.68783833,11.98133300,10:54:40.675051,0.00841,9.42379,1.50000,-0.03456,0.00351,0.03706,-0.02044,0.01481,-0.09461,-0.00744,1.00772,1.07785,1.48508,1.80063,1.80267,-0.26207,0.66193,1.00006,-0.22784,0.64864,1.74712,1.74712,A,105440.50
1.09371,57.68783855,11.98133241,57.68783833,11.98133300,10:54:40.684902,0.00771,9.42379,1.50000,-0.03427,0.00444,0.03722,-0.00227,0.00992,-0.08479,-0.00811,1.03682,1.08803,1.48806,1.79225,1.79483,-0.26298,0.67233,1.00006,-0.22784,0.64864,1.74712,1.74712,A,105440.50
1.15697,57.68783864,11.98133240,57.68783900,11.98133267,10:54:40.748197,0.06057,9.42379,1.50000,-0.03386,0.00538,0.04103,0.01041,0.01420,-0.06960,-0.00171,1.05646,1.09799,1.49045,1.78505,1.78818,-0.26378,0.68239,1.11893,-0.24766,0.72277,1.83196,1.83196,A,105440.60
1.17442,57.68783948,11.98133207,57.68783900,11.98133267,10:54:40.766393,0.01111,9.42379,1.50000,-0.03044,0.01126,0.04516,-0.01372,0.02504,-0.03776,0.02336,0.97710,1.16672,1.49236,1.79150,1.79805,-0.28332,0.77652,1.11893,-0.24766,0.72277,1.83196,1.83196,A,105440.60
1.19236,57.68783965,11.98133201,57.68783900,11.98133267,10:54:40.783547,0.01035,9.42379,1.50000,-0.02966,0.01237,0.04241,0.00155,0.03069,-0.02208,0.00323,0.96349,1.18515,1.49389,1.79668,1.80387,-0.28642,0.79496,1.11893,-0.24766,0.72277,1.83196,1.83196,A,105440.60
1.20986,57.68783980,11.98133197,57.68783900,11.98133267,10:54:40.801051,0.01037,9.42379,1.50000,-0.02942,0.01367,0.03844,0.01545,0.03130,-0.08186,-0.02507,1.01449,1.20295,1.49511,1.80098,1.80893,-0.28924,0.81138,1.11893,-0.24766,0.72277,1.83196,1.83196,A,105440.60
1.27783,57.68783999,11.98133190,57.68783967,11.98133267,10:54:40.869046,0.05898,9.42379,1.50000,-0.02845,0.01528,0.03905,0.01942,0.02306,0.00945,0.01409,1.02620,1.22454,1.49609,1.80457,1.81346,-0.29339,0.83260,1.24181,-0.24766,0.79690,1.57080,1.57080,A,105440.70
1.29325,57.68784072,11.98133159,57.68783967,11.98133267,10:54:40.884430,0.00744,1.15126,1.15126,-0.02611,0.02106,0.04149,0.00857,0.03833,-0.02739,-0.00885,1.00058,1.28681,1.42712,1.76869,1.78094,-0.31175,0.91425,1.24181,-0.24766,0.79690,1.57080,1.57080,A,105440.70
1.30130,57.68784074,11.98133161,57.68783967,11.98133267,10:54:40.892487,0.00509,1.15126,1.15126,-0.02620,0.02196,0.04256,0.00689,0.03756,-0.00878,-0.02306,1.00211,1.29565,1.37195,1.73723,1.75000,-0.31033,0.91673,1.24181,-0.24766,0.79690,1.57080,1.57080,A,105440.70
1.31197,57.68784079,11.98133163,57.68783967,11.98133267,10:54:40.903158,0.00518,1.15126,1.15126,-0.02614,0.02295,0.04027,0.00628,0.04352,-0.00891,-0.01635,1.03541,1.30604,1.32781,1.71046,1.72380,-0.30919,0.92177,1.24181,-0.24766,0.79690,1.57080,1.57080,A,105440.70
1.32227,57.68784083,11.98133166,57.68783967,11.98133267,10:54:40.913452,0.00508,1.15126,1.15126,-0.02619,0.02380,0.04103,0.00476,0.04673,0.00061,-0.02483,1.00662,1.31664,1.29250,1.68762,1.70146,-0.30776,0.92617,1.24181,-0.24766,0.79690,1.57080,1.57080,A,105440.70
1.33262,57.68784086,11.98133168,57.68783967,11.98133267,10:54:40.923804,0.00520,1.15126,1.15126,-0.02587,0.02451,0.03935,0.00476,0.04352,-0.03379,0.00342,1.00424,1.32669,1.26425,1.66815,1.68240,-0.30608,0.92979,1.24181,-0.24766,0.79690,1.57080,1.57080,A,105440.70
1.38224,57.68784090,11.98133171,57.68784067,11.98133200,10:54:40.973457,0.04442,1.15126,1.50000,-0.02550,0.02513,0.04669,0.00552,0.03985,0.00281,-0.00012,0.98057,1.33749,1.24165,1.65155,1.66617,-0.30433,0.93359,1.35447,-0.28728,0.90809,1.91312,1.91312,A,105440.80
1.39363,57.68784140,11.98133164,57.68784067,11.98133200,10:54:40.984810,0.00524,1.15126,1.15126,-0.02314,0.02910,0.05295,0.00827,0.04245,-0.03038,-0.00982,1.01156,1.38794,1.22357,1.68937,1.70629,-0.30891,0.98914,1.35447,-0.28728,0.90809,1.91312,1.91312,A,105440.80
1.40413,57.68784145,11.98133163,57.68784067,11.98133200,10:54:40.995322,0.00521,1.15126,1.15126,-0.02275,0.03003,0.05982,0.00903,0.04108,-0.04130,-0.00281,1.01547,1.39819,1.20911,1.72053,1.73800,-0.30915,0.99481,1.35447,-0.28728,0.90809,1.91312,1.91312,A,105440.80
1.41451,57.68784149,11.98133162,57.68784067,11.98133200,10:54:41.006428,0.00512,1.15126,1.15126,-0.02246,0.03076,0.06028,0.00888,0.04352,-0.01995,-0.01110,1.01162,1.40884,1.19754,1.74697,1.76486,-0.30970,1.00020,1.35447,-0.28728,0.90809,1.91312,1.91312,A,105440.80
1.42487,57.68784154,11.98133161,57.68784067,11.98133200,10:54:41.016060,0.00508,1.15126,1.15126,-0.02193,0.03130,0.07112,0.00735,0.04459,0.00836,-0.00043,0.99155,1.41902,1.18828,1.76939,1.78759,-0.31042,1.00494,1.35447,-0.28728,0.90809,1.91312,1.91312,A,105440.80
1.43557,57.68784158,11.98133159,57.68784067,11.98133200,10:54:41.026759,0.00539,1.15126,1.15126,-0.02171,0.03167,0.07692,-0.00334,0.04413,0.02355,-0.02519,0.96844,1.42963,1.18088,1.78842,1.80684,-0.31136,1.00961,1.35447,-0.28728,0.90809,1.91312,1.91312,A,105440.80
1.44565,57.68784162,11.98133158,57.68784067,11.98133200,10:54:41.036832,0.00505,1.15126,1.15126,-0.02126,0.03190,0.08044,-0.01907,0.04719,0.00055,-0.01092,0.96715,1.44001,1.17495,1.80457,1.82313,-0.31233,1.01360,1.35447,-0.28728,0.90809,1.91312,1.91312,A,105440.80
1.49527,57.68784165,11.98133156,57.68784133,11.98133133,10:54:41.086481,0.04415,1.15126,1.50000,-0.02066,0.03195,0.07356,-0.02273,0.04459,-0.03477,0.00287,0.97441,1.45039,1.17022,1.81831,1.83689,-0.31348,1.01762,1.46941,-0.32690,0.98222,2.06169,2.06169,A,105440.90
1.51412,57.68784218,11.98133127,57.68784133,11.98133133,10:54:41.105315,0.00610,1.15126,1.15126,-0.01562,0.03195,0.08685,-0.00059,0.03619,-0.02849,0.02068,1.06292,1.50838,1.16642,1.85357,1.87216,-0.33050,1.07586,1.46941,-0.32690,0.98222,2.06169,2.06169,A,105440.90
1.52379,57.68784221,11.98133123,57.68784133,11.98133133,10:54:41.114978,0.00537,1.15126,1.15126,-0.01514,0.03195,0.09342,0.00002,0.03588,0.01781,-0.00769,1.03066,1.51785,1.16339,1.88221,1.90080,-0.33283,1.07923,1.46941,-0.32690,0.98222,2.06169,2.06169,A,105440.90
1.53397,57.68784224,11.98133119,57.68784133,11.98133133,10:54:41.125156,0.00515,1.15126,1.15126,-0.01488,0.03195,0.08868,-0.00700,0.03940,-0.01537,-0.02458,1.02974,1.52833,1.16096,1.90658,1.92516,-0.33555,1.08318,1.46941,-0.32690,0.98222,2.06169,2.06169,A,105440.90
1.54438,57.68784227,11.98133114,57.68784133,11.98133133,10:54:41.135570,0.00521,1.15126,1.15126,-0.01422,0.03195,0.08441,-0.01036,0.04138,0.00683,0.00787,0.99290,1.53845,1.15902,1.92728,1.94587,-0.33831,1.08676,1.46941,-0.32690,0.98222,2.06169,2.06169,A,105440.90
1.55505,57.68784231,11.98133109,57.68784133,11.98133133,10:54:41.146257,0.00549,1.15126,1.15126,-0.01422,0.03195,0.08532,-0.01052,0.03970,-0.00335,-0.03770,0.95556,1.54918,1.15747,1.94489,1.96348,-0.34124,1.09043,1.46941,-0.32690,0.98222,2.06169,2.06169,A,105440.90
1.56506,57.68784234,11.98133104,57.68784133,11.98133133,10:54:41.156247,0.00510,1.15126,1.15126,-0.01341,0.03195,0.08273,-0.01006,0.04016,-0.01806,0.01842,0.91244,1.55920,1.15623,1.95986,1.97844,-0.34408,1.09360,1.46941,-0.32690,0.98222,2.06169,2.06169,A,105440.90
1.62611,57.68784236,11.98133100,57.68784350,11.98132983,10:54:41.217327,0.05574,1.15126,1.50000,-0.01316,0.03195,0.08517,-0.01036,0.03451,0.00323,-0.01891,0.91024,1.56979,1.15523,1.97258,1.99116,-0.34696,1.09671,1.59756,-0.41606,1.22314,1.92523,1.92523,A,105441.10
1.64397,57.68784301,11.98133045,57.68784350,11.98132983,10:54:41.235173,0.00704,1.15126,1.15126,-0.00821,0.03071,0.07860,-0.00181,0.00351,0.04319,0.00220,1.06689,1.63737,1.15444,1.96458,1.98244,-0.37968,1.16849,1.59756,-0.41606,1.22314,1.92523,1.92523,A,105441.10
1.65236,57.68784310,11.98133036,57.68784350,11.98132983,10:54:41.243546,0.00520,1.15126,1.15126,-0.00721,0.02972,0.08410,-0.01724,0.00473,0.00616,0.04526,1.04767,1.64644,1.15380,1.95627,1.97355,-0.38459,1.17829,1.59756,-0.41606,1.22314,1.92523,1.92523,A,105441.10
1.66289,57.68784319,11.98133027,57.68784350,11.98132983,10:54:41.254077,0.00532,1.15126,1.15126,-0.00644,0.02836,0.08807,-0.01663,0.01771,-0.00653,0.01745,1.01162,1.65700,1.15329,1.94936,1.96585,-0.38982,1.18913,1.59756,-0.41606,1.22314,1.92523,1.92523,A,105441.10
1.67305,57.68784329,11.98133019,57.68784350,11.98132983,10:54:41.264233,0.00509,1.15126,1.15126,-0.00600,0.02697,0.09143,-0.01968,0.02168,-0.02812,-0.00439,0.99558,1.66720,1.15289,1.94359,1.95928,-0.39477,1.19954,1.59756,-0.41606,1.22314,1.92523,1.92523,A,105441.10
1.68372,57.68784338,11.98133011,57.68784350,11.98132983,10:54:41.274911,0.00551,1.15126,1.15126,-0.00576,0.02550,0.08838,-0.01372,0.02764,-0.01867,-0.01641,0.95544,1.67779,1.15256,1.93881,1.95364,-0.39941,1.20946,1.59756,-0.41606,1.22314,1.92523,1.92523,A,105441.10
1.69371,57.68784346,11.98133004,57.68784350,11.98132983,10:54:41.284892,0.00510,1.15126,1.15126,-0.00538,0.02414,0.09051,-0.00196,0.02962,-0.01623,-0.00701,0.95697,1.68805,1.15230,1.93485,1.94889,-0.40359,1.21847,1.59756,-0.41606,1.22314,1.92523,1.92523,A,105441.10
1.74501,57.68784354,11.98132998,57.68784383,11.98132883,10:54:41.336231,0.04601,1.15126,1.50000,-0.00447,0.02284,0.08349,0.00705,0.02779,-0.03117,0.03184,0.95807,1.69826,1.15209,1.93158,1.94487,-0.40761,1.22725,1.71582,-0.47550,1.26021,2.58400,2.58400,A,105441.20
1.76691,57.68784409,11.98132952,57.68784383,11.98132883,10:54:41.358131,0.00890,1.15126,1.15126,-0.00050,0.01650,0.06471,-0.01953,-0.00795,0.01562,0.03501,1.09257,1.75955,1.15193,2.02916,2.03876,-0.43471,1.28928,1.71582,-0.47550,1.26021,2.58400,2.58400,A,105441.20
1.77331,57.68784413,11.98132944,57.68784383,11.98132883,10:54:41.364490,0.00510,1.15126,1.15126,-0.00038,0.01540,0.06730,-0.01830,-0.01024,-0.01708,0.00531,1.08263,1.76767,1.15179,2.11112,2.12007,-0.43944,1.29316,1.71582,-0.47550,1.26021,2.58400,2.58400,A,105441.20
1.78415,57.68784419,11.98132933,57.68784383,11.98132883,10:54:41.375338,0.00537,1.15126,1.15126,0.00053,0.01398,0.06211,-0.01052,-0.01039,-0.06521,0.05209,1.02510,1.77803,1.15168,2.18095,2.18908,-0.44615,1.29952,1.71582,-0.47550,1.26021,2.58400,2.58400,A,105441.20
1.79429,57.68784424,11.98132921,57.68784383,11.98132883,10:54:41.385477,0.00511,1.15126,1.15126,0.00167,0.01234,0.06715,0.00094,-0.00917,-0.07107,0.06161,0.99650,1.78865,1.15160,2.24043,2.24760,-0.45292,1.30502,1.71582,-0.47550,1.26021,2.58400,2.58400,A,105441.20
1.80502,57.68784428,11.98132910,57.68784383,11.98132883,10:54:41.396203,0.00560,1.15126,1.15126,0.00211,0.01047,0.07158,0.00338,-0.00550,-0.03520,0.01592,0.96398,1.79872,1.15153,2.29114,2.29723,-0.45973,1.30985,1.71582,-0.47550,1.26021,2.58400,2.58400,A,105441.20
1.81518,57.68784432,11.98132899,57.68784383,11.98132883,10:54:41.406371,0.00537,1.31486,1.31486,0.00233,0.00835,0.07830,0.01071,-0.00672,-0.00024,-0.00476,0.90817,1.80929,1.18420,2.33441,2.33927,-0.46644,1.31402,1.71582,-0.47550,1.26021,2.58400,2.58400,A,105441.20
1.86696,57.68784436,11.98132886,57.68784467,11.98132817,10:54:41.458174,0.04674,1.31486,1.50000,0.00258,0.00617,0.07005,0.00567,-0.00703,-0.00543,0.00275,0.89499,1.81965,1.21033,2.37137,2.37496,-0.47362,1.31829,1.83652,-0.51512,1.35287,1.97489,1.97489,A,105441.30
1.88431,57.68784477,11.98132805,57.68784467,11.98132817,10:54:41.475501,0.00789,1.31486,1.31486,0.00649,-0.00577,0.07341,0.06126,-0.03498,0.03489,0.01568,1.02480,1.87748,1.23124,2.31271,2.30936,-0.52211,1.36473,1.83652,-0.51512,1.35287,1.97489,1.97489,A,105441.30
1.89215,57.68784481,11.98132798,57.68784467,11.98132817,10:54:41.483337,0.00520,1.31486,1.31486,0.00671,-0.00716,0.06532,0.03896,-0.03818,-0.00915,0.01555,1.10111,1.88622,1.24796,2.26263,2.25847,-0.52633,1.36915,1.83652,-0.51512,1.35287,1.97489,1.97489,A,105441.30
1.90244,57.68784488,11.98132788,57.68784467,11.98132817,10:54:41.493873,0.00509,1.31486,1.31486,0.00707,-0.00866,0.07005,0.01987,-0.03589,0.04203,0.01324,1.12136,1.89680,1.26134,2.22017,2.21514,-0.53218,1.37615,1.83652,-0.51512,1.35287,1.97489,1.97489,A,105441.30
1.91285,57.68784494,11.98132779,57.68784467,11.98132817,10:54:41.504033,0.00510,1.31486,1.31486,0.00776,-0.01002,0.06623,-0.00441,-0.03330,0.02001,0.04386,1.13875,1.90697,1.27205,2.18419,2.17836,-0.53738,1.38303,1.83652,-0.51512,1.35287,1.97489,1.97489,A,105441.30
1.92355,57.68784500,11.98132771,57.68784467,11.98132817,10:54:41.514743,0.00540,1.31486,1.31486,0.00797,-0.01146,0.06608,-0.02472,-0.03375,0.07363,0.00604,1.13802,1.91760,1.28061,2.15371,2.14704,-0.54221,1.39007,1.83652,-0.51512,1.35287,1.97489,1.97489,A,105441.30
1.93376,57.68784506,11.98132764,57.68784467,11.98132817,10:54:41.524958,0.00521,1.31486,1.31486,0.00791,-0.01293,0.06242,-0.04854,-0.03162,0.04008,-0.00958,1.08940,1.92796,1.28746,2.12792,2.12040,-0.54634,1.39666,1.83652,-0.51512,1.35287,1.97489,1.97489,A,105441.30
1.97643,57.68784512,11.98132757,57.68784533,11.98132733,10:54:41.567638,0.03743,1.31486,1.50000,0.00810,-0.01458,0.06012,-0.05648,-0.03269,-0.05935,0.00823,0.99723,1.93849,1.29294,2.10613,2.09766,-0.55037,1.40359,1.95579,-0.56465,1.42700,2.15984,2.15984,A,105441.40
1.98723,57.68784552,11.98132714,57.68784533,11.98132733,10:54:41.578417,0.00565,1.31486,1.31486,0.01033,-0.02075,0.06211,-0.00181,-0.03650,-0.01964,0.00921,0.91049,1.98129,1.29732,2.11543,2.10337,-0.57625,1.44803,1.95579,-0.56465,1.42700,2.15984,2.15984,A,105441.40
1.99707,57.68784559,11.98132706,57.68784533,11.98132733,10:54:41.588252,0.00508,1.31486,1.31486,0.01090,-0.02196,0.05707,0.00292,-0.03849,-0.01580,0.03831,0.98265,1.99123,1.30083,2.12384,2.11107,-0.58090,1.45585,1.95579,-0.56465,1.42700,2.15984,2.15984,A,105441.40
2.00792,57.68784566,11.98132698,57.68784533,11.98132733,10:54:41.599111,0.00554,1.31486,1.31486,0.01109,-0.02329,0.05661,-0.00471,-0.04429,0.01525,0.01287,1.06811,2.00194,1.30364,2.13109,2.11754,-0.58564,1.46366,1.95579,-0.56465,1.42700,2.15984,2.15984,A,105441.40
2.01951,57.68784572,11.98132691,57.68784533,11.98132733,10:54:41.610732,0.00673,1.31486,1.31486,0.01152,-0.02471,0.04623,-0.00731,-0.05315,0.08699,0.04056,1.11648,2.01208,1.30588,2.13737,2.12301,-0.58976,1.47033,1.95579,-0.56465,1.42700,2.15984,2.15984,A,105441.40
2.02824,57.68784578,11.98132684,57.68784533,11.98132733,10:54:41.619422,0.00521,1.31486,1.31486,0.01184,-0.02629,0.03279,-0.02777,-0.06017,0.03904,0.04502,1.15918,2.02229,1.30768,2.14284,2.12755,-0.59400,1.47707,1.95579,-0.56465,1.42700,2.15984,2.15984,A,105441.40
2.03876,57.68784584,11.98132677,57.68784533,11.98132733,10:54:41.629963,0.00510,1.31486,1.31486,0.01272,-0.02805,0.03600,-0.03022,-0.06414,-0.04215,0.07906,1.07872,2.03287,1.30912,2.14762,2.13130,-0.59812,1.48355,1.95579,-0.56465,1.42700,2.15984,2.15984,A,105441.40
2.04894,57.68784590,11.98132670,57.68784533,11.98132733,10:54:41.640119,0.00511,1.31486,1.31486,0.01330,-0.02980,0.03325,-0.02029,-0.06659,-0.04819,0.05533,0.99040,2.04307,1.31026,2.15182,2.13449,-0.60201,1.48958,1.95579,-0.56465,1.42700,2.15984,2.15984,A,105441.40
2.09253,57.68784595,11.98132664,57.68784650,11.98132650,10:54:41.683745,0.03830,1.31486,1.50000,0.01374,-0.03167,0.03829,-0.01296,-0.06109,-0.03422,0.03837,0.90195,2.05367,1.31118,2.15554,2.13712,-0.60586,1.49551,2.07076,-0.61418,1.55673,1.93552,1.93552,A,105441.50
2.10327,57.68784637,11.98132617,57.68784650,11.98132650,10:54:41.694469,0.00555,1.31486,1.31486,0.01381,-0.04115,0.00927,-0.03342,-0.06689,-0.03465,0.01739,1.01522,2.09728,1.31192,2.12485,2.10091,-0.63405,1.54225,2.07076,-0.61418,1.55673,1.93552,1.93552,A,105441.50
2.11335,57.68784646,11.98132609,57.68784650,11.98132650,10:54:41.704540,0.00523,1.31486,1.31486,0.01348,-0.04407,-0.00478,-0.02945,-0.06964,-0.09101,0.02129,1.06927,2.10767,1.31251,2.09995,2.07432,-0.63848,1.55223,2.07076,-0.61418,1.55673,1.93552,1.93552,A,105441.50
2.12400,57.68784655,11.98132602,57.68784650,11.98132650,10:54:41.715183,0.00547,1.31486,1.31486,0.01388,-0.04724,-0.01654,-0.01785,-0.07545,-0.02361,0.08436,1.09946,2.11804,1.31298,2.07904,2.05156,-0.64242,1.56181,2.07076,-0.61418,1.55673,1.93552,1.93552,A,105441.50
2.13403,57.68784663,11.98132597,57.68784650,11.98132650,10:54:41.725208,0.00509,1.31486,1.31486,0.01399,-0.05012,-0.01242,-0.01388,-0.08186,-0.01122,0.05941,1.10038,2.12838,1.31336,2.06151,2.03235,-0.64578,1.57070,2.07076,-0.61418,1.55673,1.93552,1.93552,A,105441.50
2.14461,57.68784671,11.98132592,57.68784650,11.98132650,10:54:41.735793,0.00544,1.31486,1.31486,0.01401,-0.05276,-0.02143,-0.01189,-0.08919,-0.03227,0.05844,1.07891,2.13868,1.31366,2.04680,2.01611,-0.64894,1.57954,2.07076,-0.61418,1.55673,1.93552,1.93552,A,105441.50
2.15491,57.68784678,11.98132587,57.68784650,11.98132650,10:54:41.746104,0.00534,1.31486,1.31486,0.01323,-0.05505,-0.02082,-0.00502,-0.08797,-0.04490,-0.00006,1.01943,2.14902,1.31390,2.03449,2.00246,-0.65167,1.58774,2.07076,-0.61418,1.55673,1.93552,1.93552,A,105441.50
2.16507,57.68784685,11.98132583,57.68784650,11.98132650,10:54:41.756258,0.00510,1.31486,1.31486,0.01301,-0.05689,-0.03471,-0.00823,-0.08980,0.01970,0.04203,0.95111,2.15920,1.31409,2.02415,1.99105,-0.65429,1.59596,2.07076,-0.61418,1.55673,1.93552,1.93552,A,105441.50
2.23039,57.68784692,11.98132578,57.68784783,11.98132483,10:54:41.821865,0.06002,1.31486,1.50000,0.01191,-0.05839,-0.03960,-0.02609,-0.09224,0.03117,-0.00952,0.93580,2.16994,1.31425,2.01547,1.98149,-0.65674,1.60397,2.19786,-0.71325,1.70499,2.15984,2.15984,A,105441.70
2.24554,57.68784767,11.98132517,57.68784783,11.98132483,10:54:41.836720,0.00754,1.31486,1.31486,0.00767,-0.06094,-0.06067,-0.00975,-0.09438,-0.03398,0.03123,1.04737,2.23980,1.31437,2.03860,2.00313,-0.69336,1.68662,2.19786,-0.71325,1.70499,2.15984,2.15984,A,105441.70
2.25380,57.68784774,11.98132509,57.68784783,11.98132483,10:54:41.844991,0.00522,1.31486,1.31486,0.00724,-0.06094,-0.05930,-0.00914,-0.09041,-0.03227,0.03544,1.03816,2.24813,1.31447,2.06172,2.02625,-0.69775,1.69491,2.19786,-0.71325,1.70499,2.15984,2.15984,A,105441.70
2.26421,57.68784783,11.98132500,57.68784783,11.98132483,10:54:41.855396,0.00520,1.61081,1.61081,0.00704,-0.06094,-0.05808,-0.01143,-0.08614,-0.02605,0.05264,1.02791,2.25827,1.37374,2.08126,2.04580,-0.70311,1.70478,2.19786,-0.71325,1.70499,2.15984,2.15984,A,105441.70
2.27499,57.68784792,11.98132491,57.68784783,11.98132483,10:54:41.866182,0.00557,1.61081,1.61081,0.00687,-0.06094,-0.05243,-0.01937,-0.07713,-0.03666,0.04801,0.96715,2.26887,1.42115,2.09784,2.06237,-0.70872,1.71470,2.19786,-0.71325,1.70499,2.15984,2.15984,A,105441.70
2.28521,57.68784801,11.98132481,57.68784783,11.98132483,10:54:41.876398,0.00541,1.61081,1.61081,0.00673,-0.06094,-0.04647,-0.02304,-0.07316,-0.02239,0.04447,0.95758,2.27917,1.45908,2.11190,2.07644,-0.71445,1.72449,2.19786,-0.71325,1.70499,2.15984,2.15984,A,105441.70
2.29561,57.68784809,11.98132472,57.68784783,11.98132483,10:54:41.886797,0.00540,1.61081,1.61081,0.00574,-0.06094,-0.04678,-0.02594,-0.06934,-0.01598,-0.00921,0.97807,2.28965,1.48943,2.12386,2.08840,-0.71998,1.73362,2.19786,-0.71325,1.70499,2.15984,2.15984,A,105441.70
2.34391,57.68784817,11.98132463,57.68784817,11.98132400,10:54:41.935114,0.04329,1.61081,1.50000,0.00540,-0.06094,-0.04800,-0.02961,-0.06613,-0.04630,0.03294,0.98021,2.30004,1.51370,2.13402,2.09856,-0.72546,1.74241,2.31733,-0.76278,1.74205,2.49917,2.49917,A,105441.80
2.35788,57.68784872,11.98132400,57.68784817,11.98132400,10:54:41.949061,0.00625,1.61081,1.61081,0.00404,-0.06094,-0.03120,-0.03633,-0.06582,-0.06088,0.03611,0.97966,2.35100,1.53312,2.19076,2.15529,-0.76295,1.80349,2.31733,-0.76278,1.74205,2.49917,2.49917,A,105441.80
2.36889,57.68784878,11.98132389,57.68784817,11.98132400,10:54:41.960078,0.00609,1.61081,1.61081,0.00365,-0.06094,-0.02784,-0.03739,-0.06888,-0.05075,0.01635,1.00339,2.36216,1.54866,2.24177,2.20631,-0.76953,1.81039,2.31733,-0.76278,1.74205,2.49917,2.49917,A,105441.80
2.37832,57.68784883,11.98132378,57.68784817,11.98132400,10:54:41.969505,0.00513,1.61081,1.61081,0.00292,-0.06094,-0.02479,-0.02564,-0.06766,0.03172,-0.00964,0.99168,2.37265,1.56109,2.28516,2.24970,-0.77590,1.81607,2.31733,-0.76278,1.74205,2.49917,2.49917,A,105441.80
2.38874,57.68784889,11.98132366,57.68784817,11.98132400,10:54:41.979930,0.00516,1.61081,1.61081,0.00282,-0.06094,-0.02219,-0.02655,-0.06888,-0.04404,0.03074,1.04029,2.38282,1.57103,2.32199,2.28653,-0.78305,1.82204,2.31733,-0.76278,1.74205,2.49917,2.49917,A,105441.80
2.39934,57.68784894,11.98132353,57.68784817,11.98132400,10:54:41.990532,0.00536,1.61081,1.61081,0.00224,-0.06094,-0.01746,-0.02686,-0.06949,-0.01336,-0.00592,1.05365,2.39344,1.57899,2.35328,2.31782,-0.79044,1.82770,2.31733,-0.76278,1.74205,2.49917,2.49917,A,105441.80
2.40948,57.68784898,11.98132341,57.68784817,11.98132400,10:54:42.000670,0.00509,1.61081,1.61081,0.00183,-0.06091,-0.01058,-0.02686,-0.06995,-0.01903,0.00049,1.02047,2.40383,1.58535,2.37989,2.34444,-0.79759,1.83264,2.31733,-0.76278,1.74205,2.49917,2.49917,A,105441.80
2.46349,57.68784902,11.98132329,57.68784883,11.98132317,10:54:42.054717,0.04856,1.61081,1.50000,0.00208,-0.06082,0.00515,-0.02823,-0.06964,-0.02593,0.03416,1.01498,2.41419,1.59044,2.40247,2.36708,-0.80489,1.83736,2.43129,-0.81231,1.81618,2.15984,2.15984,A,105441.90
2.47600,57.68784952,11.98132231,57.68784883,11.98132317,10:54:42.067186,0.00712,1.61081,1.61081,0.00295,-0.05680,0.01629,-0.01876,-0.05712,-0.06649,0.01885,0.99430,2.46995,1.59452,2.36720,2.33414,-0.86325,1.89304,2.43129,-0.81231,1.81618,2.15984,2.15984,A,105441.90
2.48436,57.68784955,11.98132224,57.68784883,11.98132317,10:54:42.075548,0.00523,1.61081,1.61081,0.00364,-0.05570,0.02225,-0.01907,-0.05544,-0.02470,0.05581,0.99778,2.47841,1.59777,2.34053,2.30812,-0.86730,1.89609,2.43129,-0.81231,1.81618,2.15984,2.15984,A,105441.90
2.49487,57.68784960,11.98132214,57.68784883,11.98132317,10:54:42.086073,0.00535,1.61081,1.61081,0.00409,-0.05420,0.02363,-0.02197,-0.05239,-0.03782,0.03630,0.98869,2.48899,1.60038,2.31760,2.28606,-0.87324,1.90167,2.43129,-0.81231,1.81618,2.15984,2.15984,A,105441.90
2.50504,57.68784965,11.98132205,57.68784883,11.98132317,10:54:42.096220,0.00511,1.61081,1.61081,0.00503,-0.05273,0.02928,-0.02472,-0.04796,-0.03727,0.06679,1.00382,2.49916,1.60247,2.29798,2.26730,-0.87877,1.90727,2.43129,-0.81231,1.81618,2.15984,2.15984,A,105441.90
2.51588,57.68784970,11.98132196,57.68784883,11.98132317,10:54:42.107066,0.00555,1.61081,1.61081,0.00580,-0.05114,0.03218,-0.02609,-0.04597,-0.10260,0.05472,1.00382,2.50990,1.60413,2.28118,2.25142,-0.88399,1.91292,2.43129,-0.81231,1.81618,2.15984,2.15984,A,105441.90
2.52574,57.68784975,11.98132189,57.68784883,11.98132317,10:54:42.116921,0.00501,1.61081,1.61081,0.00589,-0.04967,0.03416,-0.02487,-0.04750,-0.00396,0.00823,0.97191,2.52009,1.60547,2.26682,2.23792,-0.88817,1.91767,2.43129,-0.81231,1.81618,2.15984,2.15984,A,105441.90
2.57425,57.68784979,11.98132182,57.68784967,11.98132233,10:54:42.165466,0.04324,1.61081,1.50000,0.00679,-0.04828,0.03370,-0.03510,-0.04551,-0.00415,0.06222,0.96935,2.53027,1.60654,2.25449,2.22640,-0.89231,1.92267,2.54765,-0.86184,1.90885,2.06169,2.06169,A,105442.00
2.59528,57.68785039,11.98132097,57.68784967,11.98132233,10:54:42.186473,0.00860,1.61081,1.61081,0.00856,-0.04497,0.03554,-0.02640,-0.04551,0.09095,0.00836,0.89768,2.58838,1.60739,2.22628,2.20012,-0.94294,1.98980,2.54765,-0.86184,1.90885,2.06169,2.06169,A,105442.00
2.60318,57.68785042,11.98132095,57.68784967,11.98132233,10:54:42.194371,0.00610,1.61081,1.61081,0.00888,-0.04497,0.03050,-0.05648,-0.04246,0.07436,0.02940,0.89713,2.59722,1.60807,2.20520,2.17904,-0.94419,1.99303,2.54765,-0.86184,1.90885,2.06169,2.06169,A,105442.00
2.61252,57.68785047,11.98132091,57.68784967,11.98132233,10:54:42.203706,0.00521,1.61081,1.61081,0.00869,-0.04497,0.03034,-0.07588,-0.04903,0.11389,-0.00250,0.82454,2.60660,1.60862,2.18719,2.16103,-0.94667,1.99830,2.54765,-0.86184,1.90885,2.06169,2.06169,A,105442.00
2.62304,57.68785053,11.98132086,57.68784967,11.98132233,10:54:42.214229,0.00533,1.61081,1.61081,0.00873,-0.04497,0.01675,-0.11513,-0.04567,0.00220,0.01665,0.85931,2.61717,1.60906,2.17183,2.14567,-0.94970,2.00468,2.54765,-0.86184,1.90885,2.06169,2.06169,A,105442.00
2.63320,57.68785058,11.98132081,57.68784967,11.98132233,10:54:42.224380,0.00508,1.61081,1.61081,0.00871,-0.04497,0.01507,-0.11803,-0.05575,-0.19184,0.01793,0.97643,2.62752,1.60941,2.15878,2.13261,-0.95244,2.01089,2.54765,-0.86184,1.90885,2.06169,2.06169,A,105442.00
2.64415,57.68785064,11.98132077,57.68784967,11.98132233,10:54:42.235333,0.00563,1.61081,1.61081,0.00847,-0.04497,0.00423,-0.08367,-0.06140,-0.25779,0.01403,1.13118,2.63793,1.60969,2.14768,2.12151,-0.95493,2.01695,2.54765,-0.86184,1.90885,2.06169,2.06169,A,105442.00
2.69925,57.68785069,11.98132074,57.68785050,11.98132100,10:54:42.290767,0.05033,1.61081,1.50000,0.00873,-0.04497,0.00316,-0.01907,-0.07377,-0.16525,0.05954,1.26044,2.64836,1.60991,2.13827,2.11211,-0.95676,2.02211,2.66534,-0.94109,2.00151,2.27833,2.27833,A,105442.10
2.71722,57.68785139,11.98131995,57.68785050,11.98132100,10:54:42.308407,0.00749,1.61081,1.61081,0.00790,-0.04503,0.00255,-0.05450,-0.05498,-0.05222,-0.03251,0.88218,2.71043,1.61009,2.15998,2.13378,-1.00350,2.10012,2.66534,-0.94109,2.00151,2.27833,2.27833,A,105442.10
2.72522,57.68785142,11.98131992,57.68785050,11.98132100,10:54:42.316416,0.00509,1.61081,1.61081,0.00631,-0.04517,-0.00432,-0.04747,-0.05804,0.04471,-0.06557,0.86284,2.71956,1.61023,2.18134,2.15506,-1.00549,2.10328,2.66534,-0.94109,2.00151,2.27833,2.27833,A,105442.10
2.73592,57.68785147,11.98131985,57.68785050,11.98132100,10:54:42.327103,0.00539,1.61081,1.61081,0.00574,-0.04540,-0.03227,-0.04075,-0.06384,-0.11749,0.01128,0.96923,2.72997,1.61035,2.19938,2.17297,-1.00955,2.10920,2.66534,-0.94109,2.00151,2.27833,2.27833,A,105442.10
2.74627,57.68785152,11.98131978,57.68785050,11.98132100,10:54:42.337461,0.00535,1.61081,1.61081,0.00629,-0.04551,-0.02891,-0.01922,-0.07086,-0.18349,0.08888,1.05176,2.74063,1.61044,2.21473,2.18826,-1.01356,2.11464,2.66534,-0.94109,2.00151,2.27833,2.27833,A,105442.10
2.75665,57.68785156,11.98131972,57.68785050,11.98132100,10:54:42.347834,0.00517,1.48609,1.48609,0.00722,-0.04551,-0.02662,0.02614,-0.07972,-0.14695,0.11663,1.06262,2.75072,1.58557,2.22779,2.20132,-1.01731,2.11937,2.66534,-0.94109,2.00151,2.27833,2.27833,A,105442.10
2.81836,57.68785160,11.98131965,57.68785300,11.98131950,10:54:42.409781,0.05648,1.48609,1.50000,0.00801,-0.04551,-0.00860,0.04400,-0.07499,-0.06088,0.09662,1.08214,2.76134,1.56568,2.23889,2.21241,-1.02111,2.12390,2.78907,-1.03025,2.27950,1.88115,1.88115,A,105442.30
2.83152,57.68785234,11.98131871,57.68785300,11.98131950,10:54:42.422713,0.00680,1.48609,1.48609,0.00718,-0.04551,-0.03395,0.00476,-0.02871,-0.13383,0.11456,0.96417,2.82553,1.54976,2.18592,2.15945,-1.07695,2.20582,2.78907,-1.03025,2.27950,1.88115,1.88115,A,105442.30
2.84115,57.68785246,11.98131865,57.68785300,11.98131950,10:54:42.432335,0.00615,1.48609,1.48609,0.00801,-0.04551,-0.02326,0.02507,-0.03375,-0.03880,0.09052,0.90530,2.83524,1.53703,2.14377,2.11729,-1.08100,2.21906,2.78907,-1.03025,2.27950,1.88115,1.88115,A,105442.30
2.85081,57.68785257,11.98131859,57.68785300,11.98131950,10:54:42.442001,0.00540,1.48609,1.48609,0.00836,-0.04526,-0.01868,0.03576,-0.03330,-0.03934,0.06002,0.92080,2.84493,1.52684,2.10793,2.08160,-1.08429,2.23167,2.78907,-1.03025,2.27950,1.88115,1.88115,A,105442.30
2.86094,57.68785269,11.98131854,57.68785300,11.98131950,10:54:42.452123,0.00513,1.48609,1.48609,0.00949,-0.04432,-0.01532,0.04156,-0.03146,0.01635,0.10846,0.92848,2.85506,1.51869,2.07735,2.05157,-1.08752,2.24464,2.78907,-1.03025,2.27950,1.88115,1.88115,A,105442.30
2.87177,57.68785280,11.98131849,57.68785300,11.98131950,10:54:42.462955,0.00556,1.48609,1.48609,0.00884,-0.04248,-0.01639,0.01407,-0.02612,-0.05466,0.00092,0.97935,2.86564,1.51217,2.05120,2.02649,-1.09038,2.25736,2.78907,-1.03025,2.27950,1.88115,1.88115,A,105442.30
2.88172,57.68785291,11.98131845,57.68785300,11.98131950,10:54:42.472909,0.00512,1.48609,1.48609,0.00912,-0.04002,-0.02433,-0.00441,-0.02444,0.05612,0.06893,1.00662,2.87605,1.50696,2.02880,2.00552,-1.09255,2.26902,2.78907,-1.03025,2.27950,1.88115,1.88115,A,105442.30
2.94115,57.68785301,11.98131842,57.68785383,11.98131817,10:54:42.532376,0.05415,1.48609,1.50000,0.00792,-0.03722,-0.03120,-0.02289,-0.02856,-0.02458,-0.02763,1.08281,2.88627,1.50278,2.00952,1.98787,-1.09451,2.28049,2.90338,-1.10950,2.37216,2.27833,2.27833,A,105442.40
2.95606,57.68785375,11.98131782,57.68785383,11.98131817,10:54:42.547256,0.00829,1.48609,1.48609,0.00631,-0.02754,-0.02387,0.00964,-0.03024,-0.02983,0.02227,0.96087,2.94809,1.49945,2.04977,2.03376,-1.12983,2.36308,2.90338,-1.10950,2.37216,2.27833,2.27833,A,105442.40
2.96357,57.68785382,11.98131778,57.68785383,11.98131817,10:54:42.554756,0.00539,1.48609,1.48609,0.00578,-0.02711,-0.02158,0.00369,-0.02383,-0.00622,0.01006,0.94477,2.95763,1.49678,2.08626,2.07049,-1.13230,2.37053,2.90338,-1.10950,2.37216,2.27833,2.27833,A,105442.40
2.97365,57.68785391,11.98131771,57.68785383,11.98131817,10:54:42.564836,0.00507,1.48609,1.48609,0.00525,-0.02694,-0.03013,-0.00884,-0.02062,-0.02629,0.01726,0.99259,2.96801,1.49464,2.11717,2.10150,-1.13684,2.38101,2.90338,-1.10950,2.37216,2.27833,2.27833,A,105442.40
2.98421,57.68785400,11.98131763,57.68785383,11.98131817,10:54:42.575390,0.00521,1.48609,1.48609,0.00442,-0.02694,-0.02921,-0.01342,-0.01680,-0.05289,-0.00451,1.01717,2.97826,1.49293,2.14344,2.12777,-1.14157,2.39096,2.90338,-1.10950,2.37216,2.27833,2.27833,A,105442.40
2.99502,57.68785409,11.98131754,57.68785383,11.98131817,10:54:42.586211,0.00562,1.48609,1.48609,0.00419,-0.02694,-0.03196,-0.01174,-0.01436,-0.02464,0.03989,1.04865,2.98912,1.49156,2.16576,2.15009,-1.14656,2.40061,2.90338,-1.10950,2.37216,2.27833,2.27833,A,105442.40
3.05016,57.68785416,11.98131747,57.68785467,11.98131733,10:54:42.641383,0.05037,1.48609,1.50000,0.00411,-0.02694,-0.03013,-0.00991,-0.01589,-0.09095,0.04709,1.04749,2.99902,1.49047,2.18476,2.16909,-1.15100,2.40881,3.01639,-1.15903,2.46482,2.06169,2.06169,A,105442.50
3.06865,57.68785483,11.98131665,57.68785467,11.98131733,10:54:42.659844,0.00697,1.48609,1.48609,0.00220,-0.02660,-0.03822,-0.00731,-0.02581,0.02025,0.06021,0.98521,3.06186,1.48959,2.16682,2.15135,-1.19972,2.48249,3.01639,-1.15903,2.46482,2.06169,2.06169,A,105442.50
3.07716,57.68785489,11.98131659,57.68785467,11.98131733,10:54:42.668344,0.00508,1.48609,1.48609,0.00176,-0.02655,-0.04158,-0.01372,-0.02642,-0.04825,0.02690,1.05835,3.07152,1.48889,2.15317,2.13773,-1.20294,2.48963,3.01639,-1.15903,2.46482,2.06169,2.06169,A,105442.50
3.08788,57.68785497,11.98131652,57.68785467,11.98131733,10:54:42.679064,0.00539,1.48609,1.48609,0.00181,-0.02643,-0.04281,-0.02197,-0.01787,-0.07540,0.06350,1.03676,3.08192,1.48833,2.14150,2.12612,-1.20731,2.49870,3.01639,-1.15903,2.46482,2.06169,2.06169,A,105442.50
3.09798,57.68785505,11.98131646,57.68785467,11.98131733,10:54:42.689164,0.00509,1.48609,1.48609,0.00194,-0.02626,-0.04128,-0.00838,-0.02016,-0.18538,0.07009,1.07165,3.09233,1.48789,2.13158,2.11630,-1.21111,2.50702,3.01639,-1.15903,2.46482,2.06169,2.06169,A,105442.50
3.10841,57.68785512,11.98131640,57.68785467,11.98131733,10:54:42.699600,0.00524,1.48609,1.48609,0.00160,-0.02604,-0.03929,0.01789,-0.02276,-0.05405,0.03190,1.01467,3.10246,1.48753,2.12312,2.10798,-1.21463,2.51499,3.01639,-1.15903,2.46482,2.06169,2.06169,A,105442.50
3.15640,57.68785519,11.98131634,57.68785550,11.98131633,10:54:42.747614,0.04283,1.48609,1.50000,0.00137,-0.02567,-0.04830,0.02675,-0.01955,-0.07332,0.04502,0.97661,3.11302,1.48724,2.11590,2.10097,-1.21799,2.52280,3.12994,-1.21846,2.55748,2.14113,2.14113,A,105442.60
3.17094,57.68785575,11.98131574,57.68785550,11.98131633,10:54:42.762150,0.00678,1.48609,1.48609,-0.00093,-0.01908,-0.05151,-0.00288,-0.00718,-0.04801,0.05057,1.00565,3.16463,1.48701,2.11994,2.10885,-1.25363,2.58529,3.12994,-1.21846,2.55748,2.14113,2.14113,A,105442.60
3.17996,57.68785582,11.98131568,57.68785550,11.98131633,10:54:42.771142,0.00522,1.48609,1.48609,-0.00157,-0.01704,-0.05380,0.00399,-0.00703,-0.08284,0.01867,1.03938,3.17401,1.48683,2.12445,2.11454,-1.25735,2.59308,3.12994,-1.21846,2.55748,2.14113,2.14113,A,105442.60
3.19025,57.68785590,11.98131561,57.68785550,11.98131633,10:54:42.781435,0.00511,1.48609,1.48609,-0.00156,-0.01469,-0.05731,0.00903,-0.00901,-0.11242,0.07296,1.07561,3.18459,1.48668,2.12807,2.11953,-1.26164,2.60161,3.12994,-1.21846,2.55748,2.14113,2.14113,A,105442.60
3.20056,57.68785597,11.98131554,57.68785550,11.98131633,10:54:42.791743,0.00518,1.48609,1.48609,-0.00184,-0.01220,-0.05319,0.02278,-0.00795,-0.05472,0.04874,1.11404,3.19465,1.48656,2.13096,2.12387,-1.26557,2.60937,3.12994,-1.21846,2.55748,2.14113,2.14113,A,105442.60
3.21174,57.68785604,11.98131547,57.68785550,11.98131633,10:54:42.802927,0.00596,1.48609,1.48609,-0.00223,-0.00942,-0.04708,0.02705,-0.00443,-0.05630,0.03733,1.08110,3.20526,1.48647,2.13319,2.12771,-1.26958,2.61709,3.12994,-1.21846,2.55748,2.14113,2.14113,A,105442.60
3.22145,57.68785609,11.98131542,57.68785550,11.98131633,10:54:42.812625,0.00526,1.59732,1.59732,-0.00299,-0.00659,-0.04403,0.02751,0.00229,-0.07997,0.00781,1.03084,3.21576,1.50864,2.13488,2.13104,-1.27294,2.62361,3.12994,-1.21846,2.55748,2.14113,2.14113,A,105442.60
3.27327,57.68785616,11.98131535,57.68785650,11.98131500,10:54:42.864484,0.04651,1.59732,1.50000,-0.00296,-0.00348,-0.04250,0.01865,0.00977,0.02153,0.05661,0.98375,3.22603,1.52638,2.13606,2.13403,-1.27667,2.63058,3.24326,-1.29771,2.66868,2.19000,2.19000,A,105442.70
3.28899,57.68785677,11.98131463,57.68785650,11.98131500,10:54:42.880175,0.00737,1.59732,1.59732,-0.00386,0.01180,-0.02356,-0.00639,0.03848,-0.08168,0.06002,1.03212,3.28220,1.54057,2.14291,2.14977,-1.31955,2.69873,3.24326,-1.29771,2.66868,2.19000,2.19000,A,105442.70
3.29711,57.68785683,11.98131457,57.68785650,11.98131500,10:54:42.888290,0.00509,1.59732,1.59732,-0.00400,0.01404,-0.01746,0.00414,0.03924,0.02428,0.03294,1.05792,3.29124,1.55192,2.14883,2.15700,-1.32356,2.70504,3.24326,-1.29771,2.66868,2.19000,2.19000,A,105442.70
3.30791,57.68785691,11.98131447,57.68785650,11.98131500,10:54:42.899102,0.00549,1.59732,1.59732,-0.00384,0.01661,-0.01516,0.00078,0.04551,-0.05423,0.05514,1.07726,3.30186,1.56100,2.15370,2.16336,-1.32931,2.71382,3.24326,-1.29771,2.66868,2.19000,2.19000,A,105442.70
3.31788,57.68785698,11.98131438,57.68785650,11.98131500,10:54:42.909067,0.00506,1.59732,1.59732,-0.00365,0.01905,-0.00539,0.00888,0.04444,-0.00061,0.04904,1.02773,3.31226,1.56827,2.15764,2.16872,-1.33455,2.72169,3.24326,-1.29771,2.66868,2.19000,2.19000,A,105442.70
3.32832,57.68785705,11.98131429,57.68785650,11.98131500,10:54:42.919512,0.00526,1.59732,1.59732,-0.00291,0.02140,-0.00005,-0.00258,0.04474,-0.11499,0.08351,1.02437,3.32235,1.57408,2.16081,2.17325,-1.33971,2.72932,3.24326,-1.29771,2.66868,2.19000,2.19000,A,105442.70
3.33903,57.68785711,11.98131421,57.68785650,11.98131500,10:54:42.930225,0.00556,1.59732,1.59732,-0.00298,0.02366,0.00163,0.00537,0.04917,0.01311,0.02690,0.96319,3.33307,1.57873,2.16334,2.17710,-1.34492,2.73693,3.24326,-1.29771,2.66868,2.19000,2.19000,A,105442.70
3.39247,57.68785718,11.98131412,57.68785800,11.98131450,10:54:42.983675,0.04844,1.59732,1.50000,-0.00384,0.02553,0.00881,-0.00563,0.04719,-0.04581,-0.02745,0.92177,3.34348,1.58245,2.16535,2.18020,-1.34995,2.74416,3.36048,-1.32743,2.83547,1.74712,1.74712,A,105442.80
3.40602,57.68785783,11.98131334,57.68785800,11.98131450,10:54:42.997208,0.00627,1.59732,1.59732,-0.00259,0.02992,0.02729,0.00796,0.04612,0.00939,0.01604,1.05774,3.40030,1.58542,2.10165,2.11905,-1.39617,2.81655,3.36048,-1.32743,2.83547,1.74712,1.74712,A,105442.80
3.41561,57.68785793,11.98131330,57.68785800,11.98131450,10:54:43.006793,0.00540,1.59732,1.59732,-0.00210,0.02992,0.02485,0.01499,0.04505,-0.04825,0.05685,1.09263,3.40966,1.58780,2.04613,2.06352,-1.39864,2.82717,3.36048,-1.32743,2.83547,1.74712,1.74712,A,105442.80
3.42568,57.68785803,11.98131326,57.68785800,11.98131450,10:54:43.016871,0.00507,1.59732,1.59732,-0.00199,0.02992,0.03691,0.01483,0.04352,-0.00634,0.01775,1.01870,3.42003,1.58971,1.99896,2.01636,-1.40100,2.83862,3.36048,-1.32743,2.83547,1.74712,1.74712,A,105442.80
3.43628,57.68785813,11.98131323,57.68785800,11.98131450,10:54:43.027470,0.00521,1.59732,1.59732,-0.00233,0.02992,0.03126,0.01422,0.04092,-0.02348,-0.00799,0.97746,3.43035,1.59123,1.95887,1.97627,-1.40288,2.85010,3.36048,-1.32743,2.83547,1.74712,1.74712,A,105442.80
3.44774,57.68785824,11.98131320,57.68785800,11.98131450,10:54:43.038927,0.00642,1.59732,1.59732,-0.00234,0.02992,0.03218,0.00537,0.04077,-0.03837,0.01037,0.95099,3.44171,1.59245,1.92483,1.94223,-1.40467,2.86233,3.36048,-1.32743,2.83547,1.74712,1.74712,A,105442.80
3.45686,57.68785832,11.98131320,57.68785800,11.98131450,10:54:43.048043,0.00529,1.59732,1.59732,-0.00256,0.02992,0.02469,-0.00639,0.04108,-0.04788,0.00573,0.94154,3.45093,1.59342,1.89581,1.91321,-1.40471,2.87099,3.36048,-1.32743,2.83547,1.74712,1.74712,A,105442.80
3.50807,57.68785841,11.98131319,57.68785900,11.98131350,10:54:43.099284,0.04611,1.59732,1.50000,-0.00268,0.02992,0.03096,-0.01769,0.03375,0.02782,0.00543,0.95477,3.46142,1.59420,1.87120,1.88860,-1.40514,2.88126,3.47839,-1.38687,2.94667,2.06169,2.06169,A,105442.90
3.51849,57.68785908,11.98131282,57.68785900,11.98131350,10:54:43.109926,0.00525,1.59732,1.59732,-0.00127,0.02853,0.02576,0.00476,0.01298,-0.07338,0.04148,0.99131,3.51279,1.59483,1.89902,1.91561,-1.42757,2.95550,3.47839,-1.38687,2.94667,2.06169,2.06169,A,105442.90
3.52878,57.68785918,11.98131278,57.68785900,11.98131350,10:54:43.119969,0.00515,1.59732,1.59732,-0.00156,0.02737,0.02912,0.00873,0.01359,-0.05801,-0.00305,1.01138,3.52286,1.59533,1.92131,1.93723,-1.42976,2.96683,3.47839,-1.38687,2.94667,2.06169,2.06169,A,105442.90
3.53957,57.68785928,11.98131274,57.68785900,11.98131350,10:54:43.130755,0.00554,1.59732,1.59732,-0.00144,0.02598,0.02912,0.00537,0.01939,-0.00909,0.02281,0.98911,3.53349,1.59573,1.94038,1.95549,-1.43228,2.97797,3.47839,-1.38687,2.94667,2.06169,2.06169,A,105442.90
3.54974,57.68785937,11.98131269,57.68785900,11.98131350,10:54:43.140925,0.00531,1.59732,1.59732,-0.00162,0.02465,0.03111,-0.01021,0.02733,-0.02074,0.00110,1.01937,3.54408,1.59605,1.95668,1.97102,-1.43479,2.98822,3.47839,-1.38687,2.94667,2.06169,2.06169,A,105442.90
3.56064,57.68785946,11.98131265,57.68785900,11.98131350,10:54:43.151830,0.00584,1.59732,1.59732,-0.00131,0.02335,0.03111,-0.01693,0.02947,0.01745,0.03471,1.01412,3.55417,1.59630,1.97064,1.98422,-1.43731,2.99776,3.47839,-1.38687,2.94667,2.06169,2.06169,A,105442.90
3.57189,57.68785955,11.98131260,57.68785900,11.98131350,10:54:43.163078,0.00669,1.59732,1.59732,-0.00224,0.02182,0.03630,-0.02655,0.02840,0.00659,-0.05618,1.00754,3.56590,1.59651,1.98264,1.99533,-1.44037,3.00792,3.47839,-1.38687,2.94667,2.06169,2.06169,A,105442.90
3.63442,57.68785961,11.98131257,57.68786100,11.98131150,10:54:43.225861,0.05882,1.59732,1.50000,-0.00237,0.02060,0.02973,-0.02869,0.02260,-0.02788,0.00726,1.00632,3.57484,1.59667,1.99288,2.00486,-1.44196,3.01430,3.60408,-1.50574,3.16906,2.06169,2.06169,A,105443.10
3.65019,57.68786051,11.98131180,57.68786100,11.98131150,10:54:43.241372,0.00847,1.59732,1.59732,-0.00062,0.01319,0.03187,-0.00563,-0.00138,-0.01251,0.00275,0.99375,3.64448,1.59680,2.00369,2.01136,-1.48820,3.11490,3.60408,-1.50574,3.16906,2.06169,2.06169,A,105443.10
3.65720,57.68786060,11.98131172,57.68786100,11.98131150,10:54:43.248383,0.00508,1.69089,1.69089,-0.00021,0.01282,0.03202,-0.00716,-0.00168,0.01372,0.04526,0.97801,3.65154,1.61562,2.01135,2.01881,-1.49247,3.12481,3.60408,-1.50574,3.16906,2.06169,2.06169,A,105443.10
3.66793,57.68786073,11.98131162,57.68786100,11.98131150,10:54:43.259114,0.00540,1.69089,1.69089,-0.00007,0.01223,0.03477,-0.01418,0.00580,-0.03398,0.01928,0.98460,3.66196,1.63067,2.01797,2.02508,-1.49888,3.13899,3.60408,-1.50574,3.16906,2.06169,2.06169,A,105443.10
3.67821,57.68786085,11.98131151,57.68786100,11.98131150,10:54:43.269400,0.00529,1.69089,1.69089,0.00076,0.01155,0.03432,-0.01678,0.00809,-0.06118,0.06643,1.01528,3.67253,1.64272,2.02364,2.03036,-1.50500,3.15232,3.60408,-1.50574,3.16906,2.06169,2.06169,A,105443.10
3.68852,57.68786096,11.98131142,57.68786100,11.98131150,10:54:43.279706,0.00536,1.69089,1.69089,0.00088,0.01078,0.03874,-0.01556,0.01130,-0.01793,0.01641,0.98918,3.68259,1.65235,2.02853,2.03480,-1.51077,3.16473,3.60408,-1.50574,3.16906,2.06169,2.06169,A,105443.10
3.69886,57.68786107,11.98131132,57.68786100,11.98131150,10:54:43.290061,0.00531,1.69089,1.69089,0.00144,0.01002,0.03554,-0.01006,0.00916,-0.03416,0.04795,1.00406,3.69300,1.66006,2.03274,2.03856,-1.51639,3.17669,3.60408,-1.50574,3.16906,2.06169,2.06169,A,105443.10
3.75253,57.68786118,11.98131122,57.68786200,11.98131083,10:54:43.343740,0.04858,1.69089,1.50000,0.00185,0.00942,0.04271,-0.00777,0.00931,-0.00445,0.03026,0.94465,3.70367,1.66622,2.03637,2.04185,-1.52221,3.18887,3.72055,-1.54537,3.28025,1.91312,1.91312,A,105443.20
3.76792,57.68786193,11.98131053,57.68786200,11.98131083,10:54:43.359112,0.00749,1.69089,1.69089,0.00480,0.00897,0.03920,0.00735,0.00824,0.00701,0.08699,1.01888,3.76082,1.67116,2.01774,2.02296,-1.56340,3.27204,3.72055,-1.54537,3.28025,1.91312,1.91312,A,105443.20
3.77692,57.68786201,11.98131047,57.68786200,11.98131083,10:54:43.368105,0.00595,1.69089,1.69089,0.00560,0.00897,0.03829,0.00628,0.00794,-0.00525,0.06917,1.02065,3.77023,1.67510,2.00134,2.00655,-1.56681,3.28133,3.72055,-1.54537,3.28025,1.91312,1.91312,A,105443.20
3.78688,57.68786211,11.98131040,57.68786200,11.98131083,10:54:43.378073,0.00551,1.69089,1.69089,0.00671,0.00897,0.04348,0.00903,0.00824,-0.02269,0.08247,1.00064,3.78098,1.67826,1.98741,1.99263,-1.57108,3.29275,3.72055,-1.54537,3.28025,1.91312,1.91312,A,105443.20
3.79690,57.68786221,11.98131033,57.68786200,11.98131083,10:54:43.388086,0.00514,1.69089,1.69089,0.00747,0.00897,0.03080,0.00063,0.01267,-0.01635,0.07027,0.99546,3.79099,1.68078,1.97558,1.98079,-1.57516,3.30409,3.72055,-1.54537,3.28025,1.91312,1.91312,A,105443.20
3.80756,57.68786232,11.98131027,57.68786200,11.98131083,10:54:43.398752,0.00541,1.69089,1.69089,0.00770,0.00897,0.03462,-0.00746,0.01405,-0.00055,0.03013,0.94160,3.80162,1.68281,1.96552,1.97074,-1.57915,3.31550,3.72055,-1.54537,3.28025,1.91312,1.91312,A,105443.20
3.81765,57.68786241,11.98131021,57.68786200,11.98131083,10:54:43.408835,0.00509,1.69089,1.69089,0.00787,0.00897,0.02775,-0.01693,0.01237,-0.04880,0.03166,0.94800,3.81199,1.68442,1.95697,1.96219,-1.58263,3.32597,3.72055,-1.54537,3.28025,1.91312,1.91312,A,105443.20
3.86915,57.68786250,11.98131015,57.68786317,11.98130983,10:54:43.460369,0.04616,1.69089,1.50000,0.00853,0.00897,0.02271,-0.01372,0.01160,-0.04319,0.06740,0.95904,3.82226,1.68571,1.94971,1.95492,-1.58595,3.33624,3.83932,-1.60481,3.40998,2.00042,2.00042,A,105443.30
3.88158,57.68786322,11.98130962,57.68786317,11.98130983,10:54:43.472775,0.00675,1.69089,1.69089,0.00877,0.00897,0.00866,0.00827,-0.00107,-0.01409,0.02696,1.00339,3.87569,1.68675,1.95711,1.96232,-1.61773,3.41623,3.83932,-1.60481,3.40998,2.00042,2.00042,A,105443.30
3.89036,57.68786332,11.98130955,57.68786317,11.98130983,10:54:43.481538,0.00512,1.69089,1.69089,0.00925,0.00892,-0.00417,-0.00853,-0.00092,-0.02355,0.07790,1.00918,3.88470,1.68758,1.96291,1.96809,-1.62148,3.42656,3.83932,-1.60481,3.40998,2.00042,2.00042,A,105443.30
3.90078,57.68786342,11.98130948,57.68786317,11.98130983,10:54:43.491958,0.00515,1.69089,1.69089,0.00927,0.00869,-0.00188,-0.00914,-0.00459,-0.03410,0.04575,1.01589,3.89484,1.68824,1.96787,1.97292,-1.62583,3.43809,3.83932,-1.60481,3.40998,2.00042,2.00042,A,105443.30
3.91232,57.68786352,11.98130941,57.68786317,11.98130983,10:54:43.503876,0.00629,1.69089,1.69089,0.00901,0.00821,-0.00997,-0.01495,-0.00260,-0.02495,0.03129,0.98539,3.90549,1.68877,1.97213,1.97690,-1.63017,3.44936,3.83932,-1.60481,3.40998,2.00042,2.00042,A,105443.30
3.92152,57.68786360,11.98130935,57.68786317,11.98130983,10:54:43.512704,0.00509,1.69089,1.69089,0.00886,0.00744,-0.01410,-0.01388,-0.00611,0.01098,0.03910,0.93812,3.91585,1.68919,1.97580,1.98013,-1.63362,3.45835,3.83932,-1.60481,3.40998,2.00042,2.00042,A,105443.30
3.93217,57.68786369,11.98130928,57.68786317,11.98130983,10:54:43.523359,0.00520,1.69089,1.69089,0.00968,0.00642,-0.01547,-0.01204,-0.00642,-0.09302,0.10065,0.93556,3.92622,1.68953,1.97901,1.98275,-1.63767,3.46858,3.83932,-1.60481,3.40998,2.00042,2.00042,A,105443.30
3.98623,57.68786378,11.98130922,57.68786433,11.98130900,10:54:43.578567,0.04880,1.69089,1.50000,0.00985,0.00535,-0.01593,0.00369,-0.00672,-0.09095,0.06216,0.96404,3.93688,1.68980,1.98183,1.98494,-1.64155,3.47830,3.95424,-1.65434,3.53971,1.93552,1.93552,A,105443.40
4.00029,57.68786453,11.98130861,57.68786433,11.98130900,10:54:43.591483,0.00751,1.69089,1.69089,0.00756,0.00255,-0.04128,-0.00487,-0.01375,-0.05472,0.04191,0.99900,3.99344,1.69002,1.97503,1.97651,-1.67758,3.56189,3.95424,-1.65434,3.53971,1.93552,1.93552,A,105443.40
4.00839,57.68786460,11.98130856,57.68786433,11.98130900,10:54:43.599569,0.00536,1.69089,1.69089,0.00725,0.00229,-0.03914,0.00155,-0.01589,-0.01726,0.04081,0.97264,4.00244,1.69019,1.96892,1.97025,-1.68029,3.56979,3.95424,-1.65434,3.53971,1.93552,1.93552,A,105443.40
4.01850,57.68786470,11.98130850,57.68786433,11.98130900,10:54:43.609923,0.00508,1.69089,1.69089,0.00675,0.00207,-0.03792,-0.00166,-0.01497,-0.01342,0.03050,0.96105,4.01287,1.69033,1.96375,1.96496,-1.68422,3.58067,3.95424,-1.65434,3.53971,1.93552,1.93552,A,105443.40
4.02894,57.68786480,11.98130843,57.68786433,11.98130900,10:54:43.620125,0.00512,1.69089,1.69089,0.00583,0.00184,-0.04097,-0.01097,-0.00810,-0.05868,0.00409,0.99162,4.02305,1.69044,1.95938,1.96045,-1.68792,3.59111,3.95424,-1.65434,3.53971,1.93552,1.93552,A,105443.40
4.03977,57.68786489,11.98130837,57.68786433,11.98130900,10:54:43.630960,0.00555,1.69089,1.69089,0.00552,0.00167,-0.03899,-0.00151,-0.00856,-0.04904,0.04264,0.96423,4.03381,1.69053,1.95568,1.95665,-1.69158,3.60154,3.95424,-1.65434,3.53971,1.93552,1.93552,A,105443.40
4.04993,57.68786497,11.98130832,57.68786433,11.98130900,10:54:43.641112,0.00531,1.69089,1.69089,0.00476,0.00156,-0.04097,0.00705,-0.00443,-0.08021,0.01488,0.99894,4.04427,1.69060,1.95254,1.95344,-1.69479,3.61094,3.95424,-1.65434,3.53971,1.93552,1.93552,A,105443.40
4.10755,57.68786505,11.98130827,57.68786583,11.98130850,10:54:43.698768,0.05254,1.69089,1.50000,0.00405,0.00153,-0.03807,0.01560,-0.00275,-0.07857,0.01403,1.04450,4.05425,1.69066,1.94987,1.95075,-1.69769,3.61960,4.07146,-1.68406,3.70650,1.74712,1.74712,A,105443.50
4.12307,57.68786591,11.98130767,57.68786583,11.98130850,10:54:43.714261,0.00752,1.69089,1.69089,0.00100,0.00153,-0.04281,0.00567,-0.00779,-0.08473,0.00885,0.97515,4.11712,1.69070,1.91944,1.92033,-1.73324,3.71466,4.07146,-1.68406,3.70650,1.74712,1.74712,A,105443.50
4.13141,57.68786599,11.98130765,57.68786583,11.98130850,10:54:43.722592,0.00547,1.69089,1.69089,0.00089,0.00153,-0.04586,0.00964,-0.00703,-0.01494,0.04819,0.95410,4.12549,1.69074,1.89347,1.89436,-1.73438,3.72413,4.07146,-1.68406,3.70650,1.74712,1.74712,A,105443.50
4.14147,57.68786610,11.98130762,57.68786583,11.98130850,10:54:43.732650,0.00512,1.69089,1.69089,0.00049,0.00153,-0.04464,0.01071,-0.00565,-0.06673,0.03453,0.95258,4.13579,1.69077,1.87140,1.87229,-1.73609,3.73585,4.07146,-1.68406,3.70650,1.74712,1.74712,A,105443.50
4.15206,57.68786620,11.98130760,57.68786583,11.98130850,10:54:43.743241,0.00523,1.45908,1.45908,0.00034,0.00153,-0.04617,0.01117,-0.00397,0.01311,0.04984,0.93861,4.14609,1.64443,1.85264,1.85353,-1.73754,3.74743,4.07146,-1.68406,3.70650,1.74712,1.74712,A,105443.50
4.16233,57.68786630,11.98130758,57.68786583,11.98130850,10:54:43.753523,0.00511,1.45908,1.45908,0.00015,0.00153,-0.04754,0.00506,-0.00642,-0.04044,0.05075,0.97649,4.15668,1.60736,1.83670,1.83758,-1.73858,3.75815,4.07146,-1.68406,3.70650,1.74712,1.74712,A,105443.50
4.22672,57.68786639,11.98130757,57.68786800,11.98130617,10:54:43.817944,0.05908,1.45908,1.50000,-0.00017,0.00153,-0.04143,0.00689,-0.00184,-0.06448,0.03776,0.99961,4.16685,1.57770,1.82314,1.82403,-1.73923,3.76793,4.19470,-1.82274,3.94742,2.09312,2.09312,A,105443.70
4.24364,57.68786735,11.98130707,57.68786800,11.98130617,10:54:43.834822,0.00697,1.45908,1.45908,-0.00193,0.00170,-0.02906,0.01743,0.03573,-0.04734,0.04313,0.90146,4.23686,1.55398,1.86361,1.86460,-1.76893,3.87552,4.19470,-1.82274,3.94742,2.09312,2.09312,A,105443.70
4.25240,57.68786747,11.98130698,57.68786800,11.98130617,10:54:43.843583,0.00525,1.45908,1.45908,-0.00226,0.00218,-0.03013,0.01621,0.03405,-0.05923,0.02483,0.95093,4.24643,1.53500,1.89786,1.89913,-1.77448,3.88859,4.19470,-1.82274,3.94742,2.09312,2.09312,A,105443.70
4.26290,57.68786760,11.98130687,57.68786800,11.98130617,10:54:43.854102,0.00536,1.45908,1.45908,-0.00311,0.00325,-0.03593,0.01682,0.03680,0.01501,-0.00165,0.96825,4.25701,1.51981,1.92689,1.92878,-1.78089,3.90327,4.19470,-1.82274,3.94742,2.09312,2.09312,A,105443.70
4.27336,57.68786773,11.98130676,57.68786800,11.98130617,10:54:43.864548,0.00542,1.45908,1.45908,-0.00375,0.00481,-0.03853,0.00476,0.03650,-0.04008,0.01263,1.05774,4.26717,1.50767,1.95143,1.95423,-1.78736,3.91716,4.19470,-1.82274,3.94742,2.09312,2.09312,A,105443.70
4.28375,57.68786784,11.98130666,57.68786800,11.98130617,10:54:43.874936,0.00540,1.45908,1.45908,-0.00354,0.00674,-0.03517,0.00598,0.02840,-0.08192,0.07137,1.06909,4.27780,1.49795,1.97214,1.97606,-1.79359,3.92974,4.19470,-1.82274,3.94742,2.09312,2.09312,A,105443.70
4.29374,57.68786795,11.98130655,57.68786800,11.98130617,10:54:43.884931,0.00499,1.45908,1.45908,-0.00373,0.00869,-0.03395,0.01911,0.02183,-0.07912,0.04105,1.03901,4.28808,1.49017,1.98959,1.99465,-1.79967,3.94139,4.19470,-1.82274,3.94742,2.09312,2.09312,A,105443.70
4.35203,57.68786805,11.98130645,57.68786917,11.98130550,10:54:43.943244,0.05295,1.45908,1.50000,-0.00397,0.01064,-0.03166,0.01422,0.02107,-0.00878,0.03630,1.05243,4.29835,1.48395,2.00427,2.01046,-1.80576,3.95263,4.31541,-1.86237,4.07715,1.86724,1.86724,A,105443.80
4.36762,57.68786880,11.98130579,57.68786917,11.98130550,10:54:43.958809,0.00782,1.45908,1.45908,-0.00470,0.01789,-0.00554,0.01499,0.04413,-0.08162,0.00415,0.95874,4.36097,1.47898,1.98287,1.99328,-1.84530,4.03690,4.31541,-1.86237,4.07715,1.86724,1.86724,A,105443.80
4.37572,57.68786889,11.98130571,57.68786917,11.98130550,10:54:43.966905,0.00553,1.45908,1.45908,-0.00446,0.01811,0.00270,0.02125,0.04535,-0.02818,0.04301,0.96020,4.36978,1.47500,1.96407,1.97460,-1.84964,4.04668,4.31541,-1.86237,4.07715,1.86724,1.86724,A,105443.80
4.38575,57.68786900,11.98130563,57.68786917,11.98130550,10:54:43.976939,0.00516,1.45908,1.45908,-0.00489,0.01817,0.01813,0.01896,0.04413,0.00488,-0.01061,0.97710,4.38009,1.47181,1.94812,1.95869,-1.85482,4.05884,4.31541,-1.86237,4.07715,1.86724,1.86724,A,105443.80
4.39621,57.68786911,11.98130555,57.68786917,11.98130550,10:54:43.987395,0.00521,1.45908,1.45908,-0.00499,0.01817,0.01416,0.01575,0.04138,-0.05045,0.01354,1.02297,4.39025,1.46927,1.93457,1.94514,-1.85963,4.07060,4.31541,-1.86237,4.07715,1.86724,1.86724,A,105443.80
4.40650,57.68786921,11.98130547,57.68786917,11.98130550,10:54:43.997923,0.00510,1.45908,1.45908,-0.00530,0.01817,0.01675,0.00445,0.03772,-0.00372,-0.00329,1.06012,4.40084,1.46723,1.92305,1.93362,-1.86412,4.08200,4.31541,-1.86237,4.07715,1.86724,1.86724,A,105443.80
4.46078,57.68786931,11.98130540,57.68787017,11.98130400,10:54:44.051998,0.04898,1.45908,1.50000,-0.00483,0.01817,0.02118,-0.01052,0.03222,-0.04801,0.04868,1.05695,4.41103,1.46560,1.91326,1.92383,-1.86819,4.09270,4.42844,-1.95152,4.18834,2.24663,2.24663,A,105443.90
4.47769,57.68787002,11.98130487,57.68787017,11.98130400,10:54:44.068889,0.00728,1.45908,1.45908,-0.00281,0.01817,0.03370,-0.00685,0.03130,-0.08595,0.03239,0.95459,4.46995,1.46429,1.96280,1.97337,-1.89973,4.17178,4.42844,-1.95152,4.18834,2.24663,2.24663,A,105443.90
4.48582,57.68787011,11.98130476,57.68787017,11.98130400,10:54:44.077000,0.00516,1.45908,1.45908,-0.00274,0.01817,0.04058,-0.00120,0.03069,-0.01293,0.00848,0.94422,4.48013,1.46325,2.00393,2.01450,-1.90611,4.18150,4.42844,-1.95152,4.18834,2.24663,2.24663,A,105443.90
4.49626,57.68787020,11.98130464,57.68787017,11.98130400,10:54:44.087449,0.00521,1.45908,1.45908,-0.00237,0.01817,0.03997,-0.00471,0.03527,-0.03575,0.02794,0.93751,4.49033,1.46242,2.03892,2.04948,-1.91339,4.19239,4.42844,-1.95152,4.18834,2.24663,2.24663,A,105443.90
4.50677,57.68787030,11.98130452,57.68787017,11.98130400,10:54:44.097965,0.00531,1.45908,1.45908,-0.00183,0.01817,0.04210,-0.00868,0.03695,-0.10474,0.03861,0.99210,4.50090,1.46175,2.06866,2.07922,-1.92075,4.20269,4.42844,-1.95152,4.18834,2.24663,2.24663,A,105443.90
4.51710,57.68787038,11.98130440,57.68787017,11.98130400,10:54:44.108291,0.00525,1.45908,1.45908,-0.00218,0.01817,0.03920,0.00124,0.03390,-0.02068,-0.01726,1.02382,4.51108,1.46121,2.09393,2.10450,-1.92798,4.21220,4.42844,-1.95152,4.18834,2.24663,2.24663,A,105443.90
4.52764,57.68787046,11.98130428,57.68787017,11.98130400,10:54:44.118826,0.00538,1.45908,1.45908,-0.00153,0.01817,0.03997,0.00338,0.03176,-0.01867,0.04929,1.03981,4.52169,1.46079,2.11542,2.12598,-1.93514,4.22112,4.42844,-1.95152,4.18834,2.24663,2.24663,A,105443.90
4.57846,57.68787054,11.98130416,57.68787117,11.98130333,10:54:44.169986,0.04580,1.45908,1.50000,-0.00130,0.01817,0.04027,0.00598,0.03420,-0.00152,0.02141,1.03120,4.53209,1.46044,2.13368,2.14425,-1.94206,4.22931,4.54928,-1.99115,4.29954,1.91312,1.91312,A,105444.00
4.59278,57.68787112,11.98130345,57.68787117,11.98130333,10:54:44.184414,0.00604,1.45908,1.45908,-0.00033,0.01817,0.02515,-0.00273,0.02840,-0.07533,0.00701,0.97057,4.58677,1.46017,2.10005,2.11061,-1.98434,4.29450,4.54928,-1.99115,4.29954,1.91312,1.91312,A,105444.00
4.60225,57.68787121,11.98130335,57.68787117,11.98130333,10:54:44.193435,0.00510,1.45908,1.45908,0.00010,0.01817,0.02576,0.00521,0.02214,-0.03703,0.04813,1.04908,4.59661,1.45995,2.07058,2.08114,-1.99019,4.30394,4.54928,-1.99115,4.29954,1.91312,1.91312,A,105444.00
4.61257,57.68787129,11.98130325,57.68787117,11.98130333,10:54:44.203751,0.00518,1.45908,1.45908,-0.00015,0.01817,0.01538,0.00048,0.01542,-0.06863,0.00811,1.10306,4.60666,1.45978,2.04554,2.05610,-1.99585,4.31374,4.54928,-1.99115,4.29954,1.91312,1.91312,A,105444.00
4.62374,57.68787138,11.98130316,57.68787117,11.98130333,10:54:44.214929,0.00596,1.45908,1.45908,0.00076,0.01817,0.01736,0.00644,0.00794,-0.02141,0.08949,1.07964,4.61725,1.45964,2.02426,2.03482,-2.00116,4.32355,4.54928,-1.99115,4.29954,1.91312,1.91312,A,105444.00
4.63341,57.68787146,11.98130309,57.68787117,11.98130333,10:54:44.224600,0.00523,1.53737,1.53737,0.00083,0.01817,0.01400,0.00216,0.00962,-0.02117,0.03251,1.07409,4.62774,1.47518,2.00616,2.01672,-2.00556,4.33214,4.54928,-1.99115,4.29954,1.91312,1.91312,A,105444.00
4.64400,57.68787154,11.98130302,57.68787117,11.98130333,10:54:44.235183,0.00519,1.53737,1.53737,0.00118,0.01817,0.01294,-0.00823,0.00595,-0.05136,0.05148,1.02504,4.63806,1.48762,1.99078,2.00135,-2.01000,4.34130,4.54928,-1.99115,4.29954,1.91312,1.91312,A,105444.00
4.69907,57.68787162,11.98130295,57.68787250,11.98130267,10:54:44.290301,0.04986,1.53737,1.50000,0.00093,0.01817,0.01110,-0.01036,0.00656,-0.02946,0.01153,0.99192,4.64869,1.49757,1.97772,1.98829,-2.01411,4.35023,4.66571,-2.03077,4.44780,1.83196,1.83196,A,105444.10
4.71494,57.68787235,11.98130236,57.68787250,11.98130267,10:54:44.306133,0.00761,1.53737,1.53737,-0.00045,0.01101,-0.01333,-0.01082,-0.00367,-0.02739,-0.00573,1.06164,4.70899,1.50553,1.95607,1.96248,-2.04871,4.43123,4.66571,-2.03077,4.44780,1.83196,1.83196,A,105444.10
4.72308,57.68787243,11.98130232,57.68787250,11.98130267,10:54:44.314268,0.00535,1.53737,1.53737,0.00008,0.00940,-0.02906,-0.00288,0.00061,-0.06490,0.09156,1.09141,4.71718,1.51190,1.93672,1.94218,-2.05129,4.44048,4.66571,-2.03077,4.44780,1.83196,1.83196,A,105444.10
4.73322,57.68787254,11.98130226,57.68787250,11.98130267,10:54:44.324402,0.00509,1.53737,1.53737,-0.00067,0.00770,-0.02082,0.00201,-0.00138,-0.03141,-0.00329,1.09367,4.72756,1.51700,1.92042,1.92490,-2.05476,4.45237,4.66571,-2.03077,4.44780,1.83196,1.83196,A,105444.10
4.74413,57.68787264,11.98130221,57.68787250,11.98130267,10:54:44.335319,0.00560,1.53737,1.53737,-0.00212,0.00634,-0.02524,0.00048,0.00107,-0.00152,-0.05063,1.05585,4.73796,1.52107,1.90667,1.91036,-2.05786,4.46377,4.66571,-2.03077,4.44780,1.83196,1.83196,A,105444.10
4.75413,57.68787274,11.98130217,57.68787250,11.98130267,10:54:44.345315,0.00519,1.53737,1.53737,-0.00263,0.00535,-0.02967,-0.00609,0.00274,-0.06557,0.01659,1.01248,4.74848,1.52433,1.89506,1.89817,-2.06047,4.47421,4.66571,-2.03077,4.44780,1.83196,1.83196,A,105444.10
4.76438,57.68787283,11.98130213,57.68787250,11.98130267,10:54:44.355563,0.00521,1.53737,1.53737,-0.00288,0.00470,-0.03151,-0.01174,0.00320,0.01293,0.03178,0.95910,4.75844,1.52694,1.88523,1.88796,-2.06280,4.48411,4.66571,-2.03077,4.44780,1.83196,1.83196,A,105444.10
4.83038,57.68787292,11.98130209,57.68787450,11.98130117,10:54:44.421805,0.06080,1.53737,1.50000,-0.00334,0.00433,-0.02219,-0.02044,0.00015,-0.01348,0.01305,0.93556,4.76902,1.52903,1.87691,1.87943,-2.06505,4.49405,4.79677,-2.11993,4.67019,1.95208,1.95208,A,105444.30
4.85138,57.68787391,11.98130150,57.68787450,11.98130117,10:54:44.442575,0.00717,1.53737,1.53737,-0.00549,0.00427,-0.02402,0.01499,-0.00825,-0.04953,0.00506,1.03926,4.84454,1.53070,1.88817,1.89066,-2.10023,4.60458,4.79677,-2.11993,4.67019,1.95208,1.95208,A,105444.30
4.85999,57.68787402,11.98130143,57.68787450,11.98130117,10:54:44.451175,0.00520,1.53737,1.53737,-0.00669,0.00427,-0.02036,0.00720,-0.00550,0.07003,-0.04203,1.02590,4.85405,1.53203,1.89742,1.89990,-2.10422,4.61695,4.79677,-2.11993,4.67019,1.95208,1.95208,A,105444.30
4.87140,57.68787416,11.98130134,57.68787450,11.98130117,10:54:44.462593,0.00622,1.53737,1.53737,-0.00751,0.00427,-0.02631,-0.01708,0.00061,0.03141,-0.00994,1.02022,4.86541,1.53310,1.90529,1.90777,-2.10939,4.63244,4.79677,-2.11993,4.67019,1.95208,1.95208,A,105444.30
4.88090,57.68787427,11.98130127,57.68787450,11.98130117,10:54:44.472088,0.00531,1.53737,1.53737,-0.00770,0.00427,-0.02830,-0.02808,0.00168,-0.04355,0.02940,1.00382,4.87497,1.53396,1.91197,1.91445,-2.11353,4.64464,4.79677,-2.11993,4.67019,1.95208,1.95208,A,105444.30
4.89134,57.68787439,11.98130120,57.68787450,11.98130117,10:54:44.482533,0.00535,1.53737,1.53737,-0.00817,0.00427,-0.02494,-0.03510,0.00549,0.00128,0.00988,0.96502,4.88543,1.53464,1.91765,1.92014,-2.11798,4.65746,4.79677,-2.11993,4.67019,1.95208,1.95208,A,105444.30
4.94745,57.68787449,11.98130113,57.68787583,11.98130050,10:54:44.538672,0.05106,1.53737,1.50000,-0.00835,0.00427,-0.02250,-0.02961,0.00504,-0.05337,0.02635,0.95843,4.89583,1.53519,1.92249,1.92497,-2.12226,4.66956,4.91289,-2.15955,4.81845,1.83196,1.83196,A,105444.40
4.96454,57.68787530,11.98130058,57.68787583,11.98130050,10:54:44.555727,0.00773,1.53737,1.53737,-0.00944,0.00427,-0.01730,0.00552,0.00213,-0.02849,0.02330,1.08086,4.95794,1.53562,1.90883,1.91131,-2.15464,4.75954,4.91289,-2.15955,4.81845,1.83196,1.83196,A,105444.40
4.97230,57.68787540,11.98130053,57.68787583,11.98130050,10:54:44.563479,0.00524,1.53737,1.53737,-0.00930,0.00427,-0.01455,-0.00135,-0.00077,0.05380,0.04276,1.08415,4.96633,1.53597,1.89695,1.89944,-2.15766,4.77033,4.91289,-2.15955,4.81845,1.83196,1.83196,A,105444.40
4.98301,57.68787553,11.98130046,57.68787583,11.98130050,10:54:44.574199,0.00555,1.53737,1.53737,-0.00962,0.00427,-0.01455,-0.02502,0.00107,-0.00830,0.01214,1.05121,4.97692,1.53625,1.88687,1.88936,-2.16176,4.78447,4.91289,-2.15955,4.81845,1.83196,1.83196,A,105444.40
4.99295,57.68787565,11.98130040,57.68787583,11.98130050,10:54:44.584135,0.00510,1.53737,1.53737,-0.01010,0.00427,-0.01013,-0.04198,0.00183,-0.04288,-0.00335,1.03352,4.98709,1.53648,1.87830,1.88079,-2.16547,4.79777,4.91289,-2.15955,4.81845,1.83196,1.83196,A,105444.40
5.00363,57.68787576,11.98130034,57.68787583,11.98130050,10:54:44.594820,0.00538,1.53737,1.53737,-0.01060,0.00427,-0.01074,-0.03938,0.00183,-0.09821,-0.00366,0.98356,4.99769,1.53666,1.87102,1.87350,-2.16901,4.81077,4.91289,-2.15955,4.81845,1.83196,1.83196,A,105444.40
5.06511,57.68787587,11.98130029,57.68787683,11.98129933,10:54:44.656340,0.05645,1.53737,1.50000,0.00000,0.00427,-0.01532,-0.03770,-0.00382,-0.11279,0.01995,0.97881,5.00808,1.50000,1.99294,1.99543,-2.22890,4.92964,5.02522,-2.22890,4.92964,2.12840,2.12840,A,105444.50
5.08617,57.68787766,11.98129863,57.68787683,11.98129933,10:54:44.678227,0.00674,1.64526,1.64526,-0.00056,-0.01433,-0.00341,0.00842,-0.00627,-0.01226,0.00817,1.11295,5.08077,1.52905,2.01485,2.00652,-2.27052,5.02169,5.02522,-2.22890,4.92964,2.12840,2.12840,A,105444.50
5.09498,57.68787770,11.98129860,57.68787683,11.98129933,10:54:44.686165,0.00516,1.64526,1.64526,-0.00102,-0.01433,0.00637,0.00323,-0.00550,0.06936,-0.00714,0.99894,5.08928,1.55229,2.03302,2.02469,-2.27256,5.02595,5.02522,-2.22890,4.92964,2.12840,2.12840,A,105444.50
5.10506,57.68787776,11.98129854,57.68787683,11.98129933,10:54:44.696243,0.00485,1.64526,1.64526,-0.00135,-0.01433,-0.00356,-0.01540,-0.00168,-0.05240,0.00854,1.08623,5.09967,1.57089,2.04844,2.04011,-2.27595,5.03256,5.02522,-2.22890,4.92964,2.12840,2.12840,A,105444.50
5.11571,57.68787782,11.98129848,57.68787683,11.98129933,10:54:44.706886,0.00494,1.64526,1.64526,-0.00181,-0.01433,0.00728,-0.01036,0.00504,-0.09479,-0.00933,0.99241,5.11004,1.58576,2.06154,2.05321,-2.27940,5.03886,5.02522,-2.22890,4.92964,2.12840,2.12840,A,105444.50
5.14316,57.68787787,11.98129842,57.68787800,11.98129867,10:54:44.734350,0.02199,1.64526,1.64526,-0.00169,-0.01433,-0.00127,0.00430,0.00213,-0.07302,0.03379,0.96532,5.12076,1.59766,2.07267,2.06434,-2.28294,5.04497,5.13764,-2.26852,5.05937,1.86724,1.86724,A,105444.60
5.15975,57.68787825,11.98129806,57.68787800,11.98129867,10:54:44.750926,0.00739,1.64526,1.64526,-0.00160,-0.01433,0.01202,-0.00319,0.00137,-0.04483,0.00586,0.92348,5.15325,1.60718,2.04259,2.03426,-2.30430,5.08674,5.13764,-2.26852,5.05937,1.86724,1.86724,A,105444.60
5.16784,57.68787831,11.98129803,57.68787800,11.98129867,10:54:44.759014,0.00496,1.64526,1.64526,-0.00199,-0.01433,0.01278,-0.00761,0.00412,-0.03520,-0.00671,0.97173,5.16214,1.61480,2.01743,2.00910,-2.30662,5.09359,5.13764,-2.26852,5.05937,1.86724,1.86724,A,105444.60
5.17814,57.68787840,11.98129796,57.68787800,11.98129867,10:54:44.769317,0.00486,1.64526,1.64526,-0.00156,-0.01433,0.00851,-0.00227,0.00061,-0.13621,0.05344,1.10380,5.17273,1.62089,1.99601,1.98768,-2.31025,5.10369,5.13764,-2.26852,5.05937,1.86724,1.86724,A,105444.60
5.18854,57.68787848,11.98129791,57.68787800,11.98129867,10:54:44.779720,0.00487,1.64526,1.64526,-0.00194,-0.01433,0.01080,0.01377,-0.00031,-0.07027,-0.00616,1.11295,5.18291,1.62576,1.97780,1.96947,-2.31339,5.11327,5.13764,-2.26852,5.05937,1.86724,1.86724,A,105444.60
5.19916,57.68787857,11.98129786,57.68787800,11.98129867,10:54:44.790341,0.00510,1.64526,1.64526,-0.00141,-0.01433,0.00224,0.02049,-0.00138,-0.03672,0.06655,1.11038,5.19350,1.62966,1.96232,1.95399,-2.31628,5.12277,5.13764,-2.26852,5.05937,1.86724,1.86724,A,105444.60
5.20930,57.68787865,11.98129782,57.68787800,11.98129867,10:54:44.800481,0.00484,1.64526,1.64526,-0.00101,-0.01433,0.01187,0.02415,0.00580,-0.05429,0.04813,1.05640,5.20389,1.63278,1.94916,1.94083,-2.31873,5.13159,5.13764,-2.26852,5.05937,1.86724,1.86724,A,105444.60
5.21990,57.68787873,11.98129778,57.68787800,11.98129867,10:54:44.811070,0.00492,1.64526,1.64526,-0.00081,-0.01433,0.01080,0.01193,0.00992,-0.02562,0.03331,1.00546,5.21425,1.63528,1.93798,1.92965,-2.32101,5.14035,5.13764,-2.26852,5.05937,1.86724,1.86724,A,105444.60
5.23027,57.68787880,11.98129775,57.68787800,11.98129867,10:54:44.821448,0.00484,1.64526,1.64526,-0.00043,-0.01433,0.01584,0.00979,0.02367,-0.08040,0.03873,0.93885,5.22487,1.63727,1.92847,1.92014,-2.32308,5.14880,5.13764,-2.26852,5.05937,1.86724,1.86724,A,105444.60
5.25781,57.68787887,11.98129772,57.68787900,11.98129767,10:54:44.848981,0.02198,1.64526,1.64526,-0.00140,-0.01419,0.01645,0.00033,0.02779,-0.07113,-0.04532,0.93312,5.23505,1.63887,1.92038,1.91213,-2.32482,5.15660,5.25240,-2.32796,5.17056,2.06169,2.06169,A,105444.70
5.27676,57.68787933,11.98129742,57.68787900,11.98129767,10:54:44.867933,0.00727,1.64526,1.64526,-0.00113,-0.01099,0.00927,0.01728,0.02260,-0.07973,0.02324,0.98893,5.27107,1.64015,1.94195,1.93556,-2.34271,5.20721,5.25240,-2.32796,5.17056,2.06169,2.06169,A,105444.70
5.28487,57.68787940,11.98129737,57.68787900,11.98129767,10:54:44.876049,0.00500,1.64526,1.64526,-0.00094,-0.00980,0.00102,0.02369,0.01359,-0.03873,0.04069,1.02803,5.27927,1.64117,1.96068,1.95498,-2.34549,5.21459,5.25240,-2.32796,5.17056,2.06169,2.06169,A,105444.70
5.29547,57.68787949,11.98129730,57.68787900,11.98129767,10:54:44.886644,0.00520,1.64526,1.64526,-0.00023,-0.00847,0.00392,0.01911,0.01603,-0.04605,0.07546,1.02864,5.28980,1.64199,1.97647,1.97154,-2.34960,5.22473,5.25240,-2.32796,5.17056,2.06169,2.06169,A,105444.70
5.30546,57.68787957,11.98129724,57.68787900,11.98129767,10:54:44.896639,0.00480,1.64526,1.64526,-0.00022,-0.00734,0.00835,0.01743,0.02046,0.02166,0.02550,1.04316,5.30008,1.64264,1.98981,1.98554,-2.35352,5.23382,5.25240,-2.32796,5.17056,2.06169,2.06169,A,105444.70
5.31592,57.68787965,11.98129717,57.68787900,11.98129767,10:54:44.907098,0.00492,1.64526,1.64526,0.00015,-0.00638,0.00667,-0.00212,0.02031,0.01171,0.05136,1.03968,5.31026,1.64316,2.00107,1.99736,-2.35753,5.24267,5.25240,-2.32796,5.17056,2.06169,2.06169,A,105444.70
5.32623,57.68787973,11.98129710,57.68787900,11.98129767,10:54:44.917399,0.00483,1.64526,1.64526,-0.00039,-0.00567,0.00438,-0.01189,0.02672,-0.00183,-0.00939,1.04176,5.32085,1.64358,2.01059,2.00729,-2.36156,5.25119,5.25240,-2.32796,5.17056,2.06169,2.06169,A,105444.70
5.33666,57.68787980,11.98129704,57.68787900,11.98129767,10:54:44.927836,0.00486,1.64526,1.64526,-0.00042,-0.00527,0.00347,-0.03006,0.03436,0.00122,0.02538,0.99223,5.33104,1.64392,2.01866,2.01559,-2.36544,5.25908,5.25240,-2.32796,5.17056,2.06169,2.06169,A,105444.70
5.34731,57.68787987,11.98129697,57.68787900,11.98129767,10:54:44.938486,0.00512,1.64526,1.64526,-0.00039,-0.00513,0.00316,-0.03739,0.03833,-0.03349,0.02910,0.98753,5.34164,1.64419,2.02550,2.02252,-2.36934,5.26676,5.25240,-2.32796,5.17056,2.06169,2.06169,A,105444.70
5.37447,57.68787993,11.98129691,57.68788017,11.98129700,10:54:44.965779,0.02188,1.64526,1.64526,-0.00112,-0.00513,-0.00127,-0.02289,0.03298,-0.04087,-0.01702,0.92531,5.35203,1.64440,2.03133,2.02834,-2.37295,5.27367,5.36896,-2.36758,5.30029,1.86724,1.86724,A,105444.80
5.38995,57.68788032,11.98129657,57.68788017,11.98129700,10:54:44.981127,0.00721,1.64526,1.64526,-0.00183,-0.00513,-0.00371,0.01972,0.01603,-0.05954,-0.01122,1.03468,5.38370,1.64457,2.00698,2.00399,-2.39332,5.31690,5.36896,-2.36758,5.30029,1.86724,1.86724,A,105444.80
5.39800,57.68788039,11.98129652,57.68788017,11.98129700,10:54:44.989174,0.00487,1.64526,1.64526,-0.00197,-0.00513,-0.00402,0.02720,0.01084,-0.00964,0.02172,1.01040,5.39260,1.64471,1.98642,1.98344,-2.39615,5.32497,5.36896,-2.36758,5.30029,1.86724,1.86724,A,105444.80
5.40835,57.68788048,11.98129646,57.68788017,11.98129700,10:54:44.999529,0.00499,1.64526,1.64526,-0.00203,-0.00513,-0.00173,0.01804,0.00168,0.01372,0.02623,1.06140,5.40264,1.64482,1.96894,1.96596,-2.39990,5.33556,5.36896,-2.36758,5.30029,1.86724,1.86724,A,105444.80
5.41882,57.68788058,11.98129640,57.68788017,11.98129700,10:54:45.010003,0.00506,1.64526,1.64526,-0.00167,-0.00513,-0.00539,0.00521,0.00213,0.00342,0.05789,1.03212,5.41320,1.64491,1.95408,1.95110,-2.40337,5.34600,5.36896,-2.36758,5.30029,1.86724,1.86724,A,105444.80
5.42897,57.68788067,11.98129634,57.68788017,11.98129700,10:54:45.020141,0.00482,1.64526,1.64526,-0.00222,-0.00513,-0.00814,-0.00395,0.00183,-0.02342,-0.00250,1.04682,5.42358,1.64498,1.94145,1.93847,-2.40658,5.35621,5.36896,-2.36758,5.30029,1.86724,1.86724,A,105444.80
5.43963,57.68788076,11.98129630,57.68788017,11.98129700,10:54:45.030802,0.00492,1.64526,1.64526,-0.00232,-0.00513,0.00163,-0.01311,0.00091,-0.04148,0.02001,1.01248,5.43396,1.64503,1.93071,1.92773,-2.40945,5.36594,5.36896,-2.36758,5.30029,1.86724,1.86724,A,105444.80
5.44998,57.68788084,11.98129625,57.68788017,11.98129700,10:54:45.041156,0.00488,1.64526,1.64526,-0.00258,-0.00513,-0.00142,-0.01403,0.00488,-0.00952,0.01098,0.98979,5.44456,1.64508,1.92159,1.91860,-2.41203,5.37518,5.36896,-2.36758,5.30029,1.86724,1.86724,A,105444.80
5.46032,57.68788092,11.98129622,57.68788017,11.98129700,10:54:45.051491,0.00494,1.64526,1.64526,-0.00332,-0.00536,-0.00845,-0.01663,0.00152,-0.00598,-0.01507,0.94202,5.45467,1.64511,1.91385,1.91074,-2.41423,5.38365,5.36896,-2.36758,5.30029,1.86724,1.86724,A,105444.80
5.49846,57.68788099,11.98129618,57.68788200,11.98129550,10:54:45.089775,0.03269,1.64526,1.64526,-0.00404,-0.00612,-0.00173,-0.01815,-0.00489,-0.03788,-0.01940,0.93910,5.46522,1.64514,1.90734,1.90378,-2.41634,5.39204,5.49297,-2.45674,5.50415,1.98308,1.98308,A,105445.00
5.51296,57.68788157,11.98129581,57.68788200,11.98129550,10:54:45.104142,0.00695,1.64526,1.64526,-0.00394,-0.01141,-0.00447,0.00613,-0.00489,-0.04038,0.04471,1.02931,5.50655,1.64517,1.91940,1.91276,-2.43857,5.45607,5.49297,-2.45674,5.50415,1.98308,1.98308,A,105445.00
5.52124,57.68788168,11.98129573,57.68788200,11.98129550,10:54:45.112413,0.00498,1.64526,1.64526,-0.00392,-0.01221,-0.00020,0.01086,0.00213,-0.04660,0.02855,1.09037,5.51582,1.64518,1.92993,1.92283,-2.44287,5.46802,5.49297,-2.45674,5.50415,1.98308,1.98308,A,105445.00
5.53209,57.68788181,11.98129564,57.68788200,11.98129550,10:54:45.123258,0.00526,1.64526,1.64526,-0.00393,-0.01283,-0.00936,0.01209,0.00213,-0.01348,0.03257,1.07470,5.52640,1.64520,1.93889,1.93143,-2.44830,5.48272,5.49297,-2.45674,5.50415,1.98308,1.98308,A,105445.00
5.54206,57.68788192,11.98129556,57.68788200,11.98129550,10:54:45.133229,0.00484,1.64526,1.64526,-0.00432,-0.01311,-0.00631,0.00460,0.00183,-0.00482,0.00293,1.05451,5.53667,1.64521,1.94653,1.93891,-2.45325,5.49578,5.49297,-2.45674,5.50415,1.98308,1.98308,A,105445.00
5.55281,57.68788204,11.98129548,57.68788200,11.98129550,10:54:45.143981,0.00519,1.64526,1.64526,-0.00481,-0.01320,-0.00890,0.00155,0.00427,0.02208,-0.00317,1.02285,5.54685,1.64522,1.95303,1.94536,-2.45815,5.50845,5.49297,-2.45674,5.50415,1.98308,1.98308,A,105445.00
5.56323,57.68788214,11.98129540,57.68788200,11.98129550,10:54:45.154413,0.00521,1.64526,1.64526,-0.00471,-0.01320,-0.00768,-0.00655,0.00504,-0.03910,0.03398,0.95794,5.55745,1.64523,1.95856,1.95088,-2.46280,5.52024,5.49297,-2.45674,5.50415,1.98308,1.98308,A,105445.00
5.57326,57.68788225,11.98129532,57.68788200,11.98129550,10:54:45.164428,0.00484,1.64526,1.64526,-0.00493,-0.01320,-0.00081,-0.00517,0.00091,-0.10596,0.00842,0.94440,5.56785,1.64523,1.96325,1.95558,-2.46729,5.53143,5.49297,-2.45674,5.50415,1.98308,1.98308,A,105445.00
5.58385,57.68788234,11.98129525,57.68788200,11.98129550,10:54:45.175023,0.00491,1.64526,1.64526,-0.00520,-0.01320,0.00011,0.00674,0.00336,-0.03532,0.00476,0.92006,5.57820,1.64524,1.96724,1.95957,-2.47178,5.54246,5.49297,-2.45674,5.50415,1.98308,1.98308,A,105445.00
5.61046,57.68788244,11.98129517,57.68788317,11.98129450,10:54:45.201794,0.02112,1.64526,1.64526,-0.00585,-0.01320,-0.00325,0.00735,0.00091,-0.00024,-0.01769,0.95160,5.58877,1.64524,1.97063,1.96296,-2.47608,5.55288,5.60567,-2.51618,5.63388,2.00042,2.00042,A,105445.10
5.62087,57.68788280,11.98129489,57.68788317,11.98129450,10:54:45.212047,0.00497,1.35915,1.35915,-0.00553,-0.01320,0.00454,-0.00227,-0.00688,-0.03032,0.03648,0.98826,5.61524,1.58802,1.97585,1.96818,-2.49296,5.59291,5.60567,-2.51618,5.63388,2.00042,2.00042,A,105445.10
5.63264,57.68788294,11.98129478,57.68788317,11.98129450,10:54:45.223815,0.00593,1.35915,1.35915,-0.00545,-0.01320,0.00072,0.00124,-0.00642,-0.06185,0.02946,1.02937,5.62700,1.54225,1.98054,1.97286,-2.49981,5.60850,5.60567,-2.51618,5.63388,2.00042,2.00042,A,105445.10
5.64196,57.68788304,11.98129469,57.68788317,11.98129450,10:54:45.233136,0.00485,1.35915,1.35915,-0.00543,-0.01320,-0.00157,-0.00609,-0.00764,-0.05490,0.02788,1.07982,5.63657,1.50563,1.98456,1.97688,-2.50495,5.61994,5.60567,-2.51618,5.63388,2.00042,2.00042,A,105445.10
5.65258,57.68788315,11.98129460,57.68788317,11.98129450,10:54:45.243756,0.00524,1.35915,1.35915,-0.00522,-0.01323,-0.00234,0.01193,-0.00963,-0.05795,0.04325,1.08787,5.64661,1.47633,1.98797,1.98028,-2.51018,5.63149,5.60567,-2.51618,5.63388,2.00042,2.00042,A,105445.10
5.66286,57.68788324,11.98129452,57.68788317,11.98129450,10:54:45.254051,0.00513,1.35915,1.35915,-0.00546,-0.01331,-0.00386,0.01025,-0.01069,-0.00805,0.01116,1.05066,5.65720,1.45290,1.99088,1.98314,-2.51508,5.64221,5.60567,-2.51618,5.63388,2.00042,2.00042,A,105445.10
5.67296,57.68788334,11.98129444,57.68788317,11.98129450,10:54:45.264133,0.00483,1.35915,1.35915,-0.00543,-0.01345,0.00163,0.01346,-0.00947,-0.02123,0.02470,1.00534,5.66756,1.43415,1.99336,1.98554,-2.51990,5.65268,5.60567,-2.51618,5.63388,2.00042,2.00042,A,105445.10
5.68398,57.68788343,11.98129436,57.68788317,11.98129450,10:54:45.275153,0.00545,1.35915,1.35915,-0.00552,-0.01365,0.00469,0.01514,-0.00504,-0.05258,0.01342,0.94208,5.67816,1.41915,1.99549,1.98755,-2.52455,5.66272,5.60567,-2.51618,5.63388,2.00042,2.00042,A,105445.10
5.69378,57.68788350,11.98129429,57.68788317,11.98129450,10:54:45.284956,0.00486,1.35915,1.35915,-0.00517,-0.01382,0.00744,0.01957,0.00320,-0.10815,0.03892,0.93739,5.68838,1.40715,1.99732,1.98928,-2.52850,5.67116,5.60567,-2.51618,5.63388,2.00042,2.00042,A,105445.10
5.70409,57.68788358,11.98129423,57.68788317,11.98129450,10:54:45.295263,0.00493,1.35915,1.35915,-0.00561,-0.01393,0.00942,0.01835,0.00626,0.04752,-0.01080,0.89499,5.69842,1.39755,1.99888,1.99078,-2.53237,5.67939,5.60567,-2.51618,5.63388,2.00042,2.00042,A,105445.10
5.73033,57.68788365,11.98129416,57.68788417,11.98129300,10:54:45.321509,0.02077,1.35915,1.35915,-0.00580,-0.01402,0.00820,0.01682,0.00641,-0.01482,0.00458,0.94489,5.70903,1.38987,2.00021,1.99206,-2.53619,5.68748,5.72598,-2.60533,5.74507,2.24663,2.24663,A,105445.20
5.74070,57.68788394,11.98129388,57.68788417,11.98129300,10:54:45.331876,0.00495,1.35915,1.35915,-0.00506,-0.01402,0.00316,-0.00120,0.00351,-0.06338,0.07033,1.04225,5.73507,1.38372,2.03805,2.02990,-2.55275,5.71960,5.72598,-2.60533,5.74507,2.24663,2.24663,A,105445.20
5.75128,57.68788404,11.98129376,57.68788417,11.98129300,10:54:45.342456,0.00513,1.35915,1.35915,-0.00496,-0.01402,0.00163,0.00033,-0.00306,-0.08156,0.03184,1.08263,5.74558,1.37881,2.07044,2.06228,-2.56033,5.73089,5.72598,-2.60533,5.74507,2.24663,2.24663,A,105445.20
5.76136,57.68788413,11.98129363,57.68788417,11.98129300,10:54:45.352533,0.00482,1.35915,1.35915,-0.00428,-0.01402,0.00316,0.00781,-0.00611,-0.07698,0.07149,1.05804,5.75596,1.37488,2.09797,2.08982,-2.56771,5.74118,5.72598,-2.60533,5.74507,2.24663,2.24663,A,105445.20
5.77204,57.68788422,11.98129351,57.68788417,11.98129300,10:54:45.363217,0.00507,1.35915,1.35915,-0.00423,-0.01402,0.00240,0.01743,-0.00336,-0.02062,0.02678,1.01797,5.76624,1.37173,2.12137,2.11322,-2.57520,5.75119,5.72598,-2.60533,5.74507,2.24663,2.24663,A,105445.20
5.78237,57.68788430,11.98129338,57.68788417,11.98129300,10:54:45.373542,0.00499,1.35915,1.35915,-0.00391,-0.01402,0.00133,0.01285,-0.00184,-0.01982,0.04532,0.99704,5.77698,1.36922,2.14126,2.13311,-2.58246,5.76043,5.72598,-2.60533,5.74507,2.24663,2.24663,A,105445.20
5.79271,57.68788438,11.98129327,57.68788417,11.98129300,10:54:45.383883,0.00494,1.35915,1.35915,-0.00418,-0.01402,0.00057,0.00292,0.00305,0.04514,0.00634,0.93653,5.78701,1.36720,2.15817,2.15002,-2.58932,5.76873,5.72598,-2.60533,5.74507,2.24663,2.24663,A,105445.20
5.80326,57.68788445,11.98129315,57.68788417,11.98129300,10:54:45.394432,0.00508,1.35915,1.35915,-0.00384,-0.01402,-0.00142,-0.00563,0.00351,-0.04386,0.04429,0.91903,5.79760,1.36559,2.17254,2.16439,-2.59616,5.77678,5.72598,-2.60533,5.74507,2.24663,2.24663,A,105445.20
5.81338,57.68788452,11.98129304,57.68788417,11.98129300,10:54:45.404553,0.00481,1.35915,1.35915,-0.00424,-0.01402,0.00545,-0.00609,0.00748,-0.03995,-0.00518,0.93312,5.80799,1.36430,2.18476,2.17661,-2.60268,5.78418,5.72598,-2.60533,5.74507,2.24663,2.24663,A,105445.20
5.82389,57.68788458,11.98129294,57.68788417,11.98129300,10:54:45.415066,0.00491,1.35915,1.35915,-0.00439,-0.01402,-0.00218,-0.00364,0.00549,-0.04233,0.01464,0.91396,5.81823,1.36327,2.19515,2.18699,-2.60906,5.79124,5.72598,-2.60533,5.74507,2.24663,2.24663,A,105445.20
5.84928,57.68788464,11.98129283,57.68788517,11.98129217,10:54:45.440463,0.01991,1.35915,1.35915,-0.00443,-0.01402,0.00499,-0.00563,0.00320,-0.00445,0.01732,0.94995,5.82882,1.36245,2.20397,2.19582,-2.61527,5.79796,5.84580,-2.65486,5.85627,1.98985,1.98985,A,105445.30
5.86102,57.68788490,11.98129248,57.68788517,11.98129217,10:54:45.452191,0.00498,1.35915,1.35915,-0.00430,-0.01402,0.00652,-0.01388,0.00045,-0.06326,0.02428,1.08580,5.85558,1.36179,2.17272,2.16457,-2.63618,5.82712,5.84580,-2.65486,5.85627,1.98985,1.98985,A,105445.30
5.87166,57.68788500,11.98129236,57.68788517,11.98129217,10:54:45.462836,0.00523,1.35915,1.35915,-0.00443,-0.01402,0.01507,-0.00410,0.00030,-0.07393,0.00586,1.05377,5.86597,1.36126,2.14639,2.13824,-2.64333,5.83778,5.84580,-2.65486,5.85627,1.98985,1.98985,A,105445.30
5.88171,57.68788509,11.98129225,57.68788517,11.98129217,10:54:45.472881,0.00488,1.35915,1.35915,-0.00465,-0.01402,0.02057,-0.00212,0.00290,-0.02550,-0.00396,0.97350,5.87631,1.36084,2.12402,2.11587,-2.64965,5.84772,5.84580,-2.65486,5.85627,1.98985,1.98985,A,105445.30
5.89202,57.68788518,11.98129216,57.68788517,11.98129217,10:54:45.483200,0.00496,1.35915,1.35915,-0.00479,-0.01402,0.01614,-0.00517,0.00534,-0.01964,0.00421,0.97045,5.88634,1.36050,2.10500,2.09685,-2.65544,5.85726,5.84580,-2.65486,5.85627,1.98985,1.98985,A,105445.30
5.90228,57.68788526,11.98129206,57.68788517,11.98129217,10:54:45.493456,0.00482,1.35915,1.35915,-0.00488,-0.01402,0.02637,-0.01510,0.01267,-0.00787,-0.00006,0.92452,5.89688,1.36023,2.08883,2.08068,-2.66091,5.86668,5.84580,-2.65486,5.85627,1.98985,1.98985,A,105445.30
5.91269,57.68788534,11.98129198,57.68788517,11.98129217,10:54:45.503866,0.00484,1.35915,1.35915,-0.00446,-0.01402,0.02576,-0.01174,0.01542,-0.03745,0.03245,0.92903,5.90709,1.36001,2.07509,2.06694,-2.66604,5.87587,5.84580,-2.65486,5.85627,1.98985,1.98985,A,105445.30
5.92342,57.68788542,11.98129190,57.68788517,11.98129217,10:54:45.514599,0.00517,1.35915,1.35915,-0.00465,-0.01402,0.02928,-0.01663,0.01359,0.00512,-0.00836,0.96038,5.91776,1.35984,2.06340,2.05525,-2.67082,5.88477,5.84580,-2.65486,5.85627,1.98985,1.98985,A,105445.30
5.93367,57.68788550,11.98129183,57.68788517,11.98129217,10:54:45.524850,0.00503,1.35915,1.35915,-0.00418,-0.01402,0.02454,-0.01556,0.00992,-0.10199,0.04026,1.03712,5.92809,1.35970,2.05348,2.04532,-2.67501,5.89282,5.84580,-2.65486,5.85627,1.98985,1.98985,A,105445.30
5.94500,57.68788556,11.98129176,57.68788517,11.98129217,10:54:45.536181,0.00592,1.35915,1.35915,-0.00358,-0.01402,0.03447,0.00338,0.00473,-0.04246,0.04508,1.07458,5.93836,1.35959,2.04504,2.03689,-2.67891,5.90054,5.84580,-2.65486,5.85627,1.98985,1.98985,A,105445.30
5.96953,57.68788563,11.98129171,57.68788617,11.98129117,10:54:45.560699,0.02005,1.35915,1.35915,-0.00289,-0.01402,0.02485,0.00384,-0.00214,-0.04465,0.05746,1.05542,5.94891,1.35950,2.03787,2.02972,-2.68220,5.90727,5.96607,-2.71430,5.96746,2.06169,2.06169,A,105445.40
5.98013,57.68788590,11.98129145,57.68788617,11.98129117,10:54:45.571312,0.00534,1.35915,1.35915,-0.00224,-0.01402,0.02851,-0.01449,-0.01161,-0.03892,0.02105,0.97295,5.97428,1.35943,2.04234,2.03419,-2.69718,5.93734,5.96607,-2.71430,5.96746,2.06169,2.06169,A,105445.40
5.99010,57.68788599,11.98129136,57.68788617,11.98129117,10:54:45.581281,0.00491,1.35915,1.35915,-0.00241,-0.01402,0.03141,-0.01174,-0.01466,-0.05502,-0.00567,0.93635,5.98470,1.35938,2.04635,2.03820,-2.70276,5.94829,5.96607,-2.71430,5.96746,2.06169,2.06169,A,105445.40
6.00048,57.68788609,11.98129127,57.68788617,11.98129117,10:54:45.591653,0.00490,1.35915,1.35915,-0.00229,-0.01402,0.02836,-0.00929,-0.01237,-0.06405,0.01458,0.95300,5.99482,1.35933,2.04976,2.04160,-2.70818,5.95885,5.96607,-2.71430,5.96746,2.06169,2.06169,A,105445.40
6.01126,57.68788618,11.98129118,57.68788617,11.98129117,10:54:45.602437,0.00528,1.35915,1.35915,-0.00284,-0.01402,0.03050,-0.00380,-0.01466,-0.02050,-0.02965,0.94660,6.00556,1.35929,2.05265,2.04449,-2.71358,5.96929,5.96607,-2.71430,5.96746,2.06169,2.06169,A,105445.40
6.02122,57.68788627,11.98129110,57.68788617,11.98129117,10:54:45.612394,0.00484,1.35915,1.35915,-0.00331,-0.01402,0.02637,-0.00425,-0.01253,-0.02385,-0.02312,0.99491,6.01582,1.35927,2.05511,2.04696,-2.71844,5.97860,5.96607,-2.71430,5.96746,2.06169,2.06169,A,105445.40
6.03185,57.68788635,11.98129102,57.68788617,11.98129117,10:54:45.623031,0.00495,1.35915,1.35915,-0.00234,-0.01405,0.02057,-0.00487,-0.00840,-0.05252,0.07686,1.00314,6.02616,1.35924,2.05720,2.04903,-2.72329,5.98786,5.96607,-2.71430,5.96746,2.06169,2.06169,A,105445.40
6.04286,57.68788643,11.98129093,57.68788617,11.98129117,10:54:45.634043,0.00556,1.35915,1.35915,-0.00189,-0.01408,0.02149,0.00109,-0.00795,-0.06960,0.04215,1.02138,6.03722,1.35922,2.05897,2.05079,-2.72818,5.99714,5.96607,-2.71430,5.96746,2.06169,2.06169,A,105445.40
6.05364,57.68788651,11.98129086,57.68788617,11.98129117,10:54:45.644819,0.00595,1.35915,1.35915,-0.00149,-0.01413,0.03157,0.01285,-0.00871,-0.07253,0.03434,1.02456,6.04695,1.35921,2.06049,2.05227,-2.73275,6.00576,5.96607,-2.71430,5.96746,2.06169,2.06169,A,105445.40
6.06319,57.68788657,11.98129080,57.68788617,11.98129117,10:54:45.654369,0.00511,1.35915,1.35915,-0.00162,-0.01413,0.03080,0.02262,-0.00565,-0.04002,-0.00244,1.02358,6.05752,1.35920,2.06179,2.05358,-2.73632,6.01244,5.96607,-2.71430,5.96746,2.06169,2.06169,A,105445.40
6.10020,57.68788664,11.98129073,57.68788817,11.98128983,10:54:45.691379,0.03172,1.35915,1.35915,-0.00120,-0.01413,0.02531,0.01865,-0.00703,-0.02007,0.03703,0.97722,6.06792,1.35919,2.06289,2.05467,-2.74022,6.01973,6.09578,-2.79355,6.18985,1.91312,1.91312,A,105445.60
6.11029,57.68788707,11.98129033,57.68788817,11.98128983,10:54:45.701466,0.00485,1.35915,1.35915,-0.00042,-0.01427,0.00927,-0.00761,-0.00092,-0.16970,0.06295,1.08525,6.10491,1.35918,2.04118,2.03288,-2.76389,6.06821,6.09578,-2.79355,6.18985,1.91312,1.91312,A,105445.60
6.12117,57.68788721,11.98129023,57.68788817,11.98128983,10:54:45.712341,0.00533,1.35915,1.35915,0.00007,-0.01450,0.01614,0.00857,-0.00611,-0.04569,0.05252,1.04176,6.11509,1.35917,2.02311,2.01468,-2.77021,6.08400,6.09578,-2.79355,6.18985,1.91312,1.91312,A,105445.60
6.13150,57.68788735,11.98129013,57.68788817,11.98128983,10:54:45.722673,0.00527,1.43312,1.43312,0.00001,-0.01492,0.01736,0.01942,-0.00978,0.00275,0.01238,1.01510,6.12566,1.37396,2.00780,1.99912,-2.77587,6.09874,6.09578,-2.79355,6.18985,1.91312,1.91312,A,105445.60
6.14146,57.68788748,11.98129004,57.68788817,11.98128983,10:54:45.732639,0.00484,1.43312,1.43312,0.00050,-0.01549,0.00286,0.01758,-0.01283,-0.02525,0.05856,0.98667,6.13608,1.38579,1.99482,1.98581,-2.78120,6.11304,6.09578,-2.79355,6.18985,1.91312,1.91312,A,105445.60
6.15195,57.68788760,11.98128996,57.68788817,11.98128983,10:54:45.743133,0.00496,1.43312,1.43312,0.00032,-0.01623,0.00087,0.02583,-0.01589,-0.00342,0.01549,0.96325,6.14628,1.39526,1.98385,1.97441,-2.78629,6.12703,6.09578,-2.79355,6.18985,1.91312,1.91312,A,105445.60
6.16221,57.68788772,11.98128987,57.68788817,11.98128983,10:54:45.753386,0.00482,1.43312,1.43312,0.00045,-0.01710,-0.01104,0.02537,-0.01528,-0.03074,0.04288,0.95001,6.15683,1.40283,1.97459,1.96464,-2.79108,6.14053,6.09578,-2.79355,6.18985,1.91312,1.91312,A,105445.60
6.17368,57.68788785,11.98128979,57.68788817,11.98128983,10:54:45.764858,0.00589,1.43312,1.43312,0.00014,-0.01812,-0.01410,0.00308,-0.01482,-0.01848,0.01659,0.93214,6.16803,1.40889,1.96678,1.95624,-2.79602,6.15460,6.09578,-2.79355,6.18985,1.91312,1.91312,A,105445.60
6.18372,57.68788795,11.98128973,57.68788817,11.98128983,10:54:45.774892,0.00525,1.43312,1.43312,0.00021,-0.01911,-0.02601,-0.00884,-0.01466,0.01684,0.04612,0.93788,6.17790,1.41373,1.96025,1.94914,-2.79992,6.16626,6.09578,-2.79355,6.18985,1.91312,1.91312,A,105445.60
6.19372,57.68788806,11.98128966,57.68788817,11.98128983,10:54:45.784900,0.00486,1.43312,1.43312,-0.00001,-0.02010,-0.02799,-0.02762,-0.01329,-0.02172,0.03355,1.03163,6.18833,1.41761,1.95477,1.94308,-2.80368,6.17772,6.09578,-2.79355,6.18985,1.91312,1.91312,A,105445.60
6.22004,57.68788816,11.98128960,57.68788883,11.98128900,10:54:45.811209,0.02094,1.43312,1.43312,-0.00036,-0.02107,-0.04036,-0.03083,-0.01497,-0.06649,0.03270,1.04865,6.19839,1.42071,1.95019,1.93794,-2.80723,6.18869,6.21565,-2.84308,6.26398,2.15984,2.15984,A,105445.70
6.23531,57.68788851,11.98128934,57.68788883,11.98128900,10:54:45.826489,0.00788,1.43312,1.43312,-0.00159,-0.02308,-0.04953,-0.00090,-0.02291,-0.06820,0.04538,1.02590,6.22898,1.42319,1.98302,1.96960,-2.82278,6.22823,6.21565,-2.84308,6.26398,2.15984,2.15984,A,105445.70
6.24297,57.68788859,11.98128927,57.68788883,11.98128900,10:54:45.834156,0.00515,1.43312,1.43312,-0.00201,-0.02339,-0.04861,0.00537,-0.02200,-0.03129,0.02483,1.00430,6.23730,1.42518,2.01144,1.99784,-2.82674,6.23703,6.21565,-2.84308,6.26398,2.15984,2.15984,A,105445.70
6.25333,57.68788870,11.98128918,57.68788883,11.98128900,10:54:45.844519,0.00512,1.43312,1.43312,-0.00226,-0.02353,-0.05502,0.00201,-0.02093,-0.04654,0.04459,0.97557,6.24766,1.42677,2.03555,2.02187,-2.83225,6.24867,6.21565,-2.84308,6.26398,2.15984,2.15984,A,105445.70
6.26369,57.68788880,11.98128909,57.68788883,11.98128900,10:54:45.854871,0.00493,1.43312,1.43312,-0.00348,-0.02356,-0.05502,-0.00624,-0.01833,-0.00049,-0.01812,0.92622,6.25803,1.42804,2.05603,2.04233,-2.83786,6.25991,6.21565,-2.84308,6.26398,2.15984,2.15984,A,105445.70
6.27422,57.68788889,11.98128899,57.68788883,11.98128900,10:54:45.865400,0.00506,1.43312,1.43312,-0.00440,-0.02356,-0.06694,-0.01097,-0.01375,-0.02202,0.00756,0.92744,6.26861,1.42905,2.07345,2.05975,-2.84338,6.27042,6.21565,-2.84308,6.26398,2.15984,2.15984,A,105445.70
6.28464,57.68788898,11.98128891,57.68788883,11.98128900,10:54:45.875817,0.00525,1.43312,1.43312,-0.00479,-0.02361,-0.06694,-0.01235,-0.01390,-0.04795,0.03928,0.95252,6.27867,1.42987,2.08826,2.07453,-2.84852,6.27980,6.21565,-2.84308,6.26398,2.15984,2.15984,A,105445.70
6.29485,57.68788906,11.98128882,57.68788883,11.98128900,10:54:45.886041,0.00507,1.43312,1.43312,-0.00502,-0.02373,-0.07579,-0.01159,-0.01650,-0.15177,0.05978,1.00687,6.28925,1.43052,2.10086,2.08707,-2.85364,6.28879,6.21565,-2.84308,6.26398,2.15984,2.15984,A,105445.70
6.30510,57.68788914,11.98128873,57.68788883,11.98128900,10:54:45.896270,0.00492,1.43312,1.43312,-0.00525,-0.02384,-0.06785,0.00521,-0.01833,-0.06454,0.05411,1.01724,6.29970,1.43104,2.11157,2.09771,-2.85894,6.29782,6.21565,-2.84308,6.26398,2.15984,2.15984,A,105445.70
6.31567,57.68788921,11.98128865,57.68788883,11.98128900,10:54:45.906844,0.00492,1.43312,1.43312,-0.00609,-0.02387,-0.06999,0.01193,-0.01848,-0.02751,0.01440,1.04658,6.31001,1.43145,2.12068,2.10680,-2.86398,6.30614,6.21565,-2.84308,6.26398,2.15984,2.15984,A,105445.70
6.34199,57.68788928,11.98128857,57.68788967,11.98128850,10:54:45.933164,0.02085,1.43312,1.43312,-0.00611,-0.02387,-0.06831,0.01300,-0.01650,-0.05008,0.06734,1.00485,6.32059,1.43179,2.12842,2.11454,-2.86886,6.31402,6.33754,-2.87280,6.35664,1.88115,1.88115,A,105445.80
6.35240,57.68788956,11.98128827,57.68788967,11.98128850,10:54:45.943571,0.00502,1.43312,1.43312,-0.00824,-0.02387,-0.05884,0.00949,-0.00092,-0.03263,-0.01989,0.99046,6.34671,1.43205,2.09280,2.07892,-2.88619,6.34448,6.33754,-2.87280,6.35664,1.88115,1.88115,A,105445.80
6.36284,57.68788965,11.98128819,57.68788967,11.98128850,10:54:45.954030,0.00507,1.43312,1.43312,-0.00852,-0.02387,-0.06129,0.00292,-0.00123,-0.06527,0.04325,1.01864,6.35722,1.43227,2.06292,2.04904,-2.89110,6.35511,6.33754,-2.87280,6.35664,1.88115,1.88115,A,105445.80
6.37321,57.68788975,11.98128812,57.68788967,11.98128850,10:54:45.964382,0.00504,1.43312,1.43312,-0.00955,-0.02387,-0.05197,-0.00517,0.00091,0.00823,-0.01385,0.93922,6.36758,1.43244,2.03752,2.02364,-2.89557,6.36557,6.33754,-2.87280,6.35664,1.88115,1.88115,A,105445.80
6.38381,57.68788984,11.98128805,57.68788967,11.98128850,10:54:45.974984,0.00508,1.43312,1.43312,-0.01066,-0.02387,-0.05441,-0.01998,-0.00306,0.01946,-0.01873,0.99223,6.37813,1.43257,2.01593,2.00205,-2.89951,6.37557,6.33754,-2.87280,6.35664,1.88115,1.88115,A,105445.80
6.39397,57.68788992,11.98128799,57.68788967,11.98128850,10:54:45.985148,0.00485,1.43312,1.43312,-0.01131,-0.02387,-0.05044,-0.02060,-0.00703,-0.09833,0.00738,0.98722,6.38858,1.43268,1.99758,1.98370,-2.90295,6.38499,6.33754,-2.87280,6.35664,1.88115,1.88115,A,105445.80
6.40426,57.68789000,11.98128794,57.68788967,11.98128850,10:54:45.995435,0.00491,1.43312,1.43312,-0.01240,-0.02387,-0.04754,-0.01647,-0.01741,-0.11743,-0.02580,1.01675,6.39863,1.43277,1.98199,1.96811,-2.90595,6.39388,6.33754,-2.87280,6.35664,1.88115,1.88115,A,105445.80
6.41482,57.68789008,11.98128789,57.68788967,11.98128850,10:54:46.006004,0.00507,1.43312,1.43312,-0.01281,-0.02387,-0.03502,0.01224,-0.02291,-0.05380,0.01116,0.97167,6.40920,1.43284,1.96873,1.95485,-2.90880,6.40274,6.33754,-2.87280,6.35664,1.88115,1.88115,A,105445.80
6.42498,57.68789016,11.98128785,57.68788967,11.98128850,10:54:46.016158,0.00484,1.43312,1.43312,-0.01344,-0.02387,-0.03028,0.01529,-0.02352,-0.02275,-0.00732,1.00375,6.41958,1.43289,1.95746,1.94358,-2.91139,6.41131,6.33754,-2.87280,6.35664,1.88115,1.88115,A,105445.80
6.43571,57.68789023,11.98128781,57.68788967,11.98128850,10:54:46.026889,0.00494,1.43312,1.43312,-0.01396,-0.02387,-0.02188,0.01774,-0.02123,-0.00708,-0.00573,0.99204,6.43004,1.43294,1.94788,1.93400,-2.91376,6.41956,6.33754,-2.87280,6.35664,1.88115,1.88115,A,105445.80
6.46165,57.68789030,11.98128777,57.68789067,11.98128767,10:54:46.052824,0.02049,1.43312,1.43312,-0.01469,-0.02387,-0.02387,0.00979,-0.02047,-0.02782,-0.01891,1.00815,6.44082,1.43297,1.93973,1.92585,-2.91593,6.42752,6.45805,-2.92233,6.46784,1.98985,1.98985,A,105445.90
6.48205,57.68789071,11.98128750,57.68789067,11.98128767,10:54:46.073231,0.00830,1.43312,1.43312,-0.01503,-0.02387,-0.00463,-0.00655,-0.00825,-0.02446,0.00043,1.03316,6.47662,1.43300,1.94847,1.93459,-2.93234,6.47294,6.45805,-2.92233,6.46784,1.98985,1.98985,A,105445.90
6.49000,57.68789077,11.98128746,57.68789067,11.98128767,10:54:46.081183,0.00585,1.43312,1.43312,-0.01480,-0.02387,-0.00692,-0.00807,-0.00856,-0.06374,0.03166,1.02285,6.48374,1.43303,1.95663,1.94274,-2.93441,6.47944,6.45805,-2.92233,6.46784,1.98985,1.98985,A,105445.90
6.49965,57.68789085,11.98128741,57.68789067,11.98128767,10:54:46.090827,0.00494,1.43312,1.43312,-0.01449,-0.02387,-0.00066,-0.00655,-0.01024,-0.06747,0.03440,1.02065,6.49398,1.43304,1.96350,1.94962,-2.93757,6.48850,6.45805,-2.92233,6.46784,1.98985,1.98985,A,105445.90
6.50998,57.68789094,11.98128735,57.68789067,11.98128767,10:54:46.101155,0.00487,1.43312,1.43312,-0.01463,-0.02387,0.01217,-0.00609,-0.00703,-0.02769,-0.00543,0.97258,6.50459,1.43306,1.96932,1.95544,-2.94112,6.49829,6.45805,-2.92233,6.46784,1.98985,1.98985,A,105445.90
6.52027,57.68789102,11.98128730,57.68789067,11.98128767,10:54:46.111442,0.00493,1.43312,1.43312,-0.01438,-0.02387,0.00927,0.00201,-0.00672,-0.03721,0.02220,0.97929,6.51463,1.43307,1.97427,1.96039,-2.94439,6.50718,6.45805,-2.92233,6.46784,1.98985,1.98985,A,105445.90
6.53079,57.68789110,11.98128724,57.68789067,11.98128767,10:54:46.121971,0.00506,1.43312,1.43312,-0.01441,-0.02387,0.01080,-0.00578,-0.00733,-0.03965,0.00311,0.93611,6.52518,1.43308,1.97848,1.96460,-2.94769,6.51594,6.45805,-2.92233,6.46784,1.98985,1.98985,A,105445.90
6.54094,57.68789117,11.98128719,57.68789067,11.98128767,10:54:46.132120,0.00481,1.43312,1.43312,-0.01424,-0.02387,0.00362,-0.00868,-0.00184,-0.03928,0.02013,0.95087,6.53555,1.43309,1.98205,1.96817,-2.95092,6.52435,6.45805,-2.92233,6.46784,1.98985,1.98985,A,105445.90
6.55205,57.68789125,11.98128713,57.68789067,11.98128767,10:54:46.143223,0.00551,1.43312,1.43312,-0.01420,-0.02387,0.00881,-0.00700,0.00412,-0.03379,0.00903,0.96959,6.54637,1.43309,1.98507,1.97119,-2.95425,6.53288,6.45805,-2.92233,6.46784,1.98985,1.98985,A,105445.90
6.57750,57.68789131,11.98128708,57.68789167,11.98128717,10:54:46.168675,0.02056,1.43312,1.43312,-0.01440,-0.02387,-0.00005,-0.00395,0.00840,-0.04026,-0.00067,0.99174,6.55647,1.43310,1.98767,1.97379,-2.95692,6.53971,6.57342,-2.95205,6.57903,1.83196,1.83196,A,105446.00
6.58818,57.68789160,11.98128687,57.68789167,11.98128717,10:54:46.179354,0.00517,1.43312,1.43312,-0.01370,-0.02387,-0.00402,0.00277,0.00870,-0.08754,0.06978,1.05451,6.58235,1.43310,1.96578,1.95190,-2.96954,6.57183,6.57342,-2.95205,6.57903,1.83196,1.83196,A,105446.00
6.59822,57.68789170,11.98128682,57.68789167,11.98128717,10:54:46.189401,0.00482,1.43312,1.43312,-0.01378,-0.02387,0.00316,0.01361,0.00977,-0.04313,0.00634,1.01577,6.59283,1.43311,1.94758,1.93370,-2.97285,6.58265,6.57342,-2.95205,6.57903,1.83196,1.83196,A,105446.00
6.60913,57.68789179,11.98128677,57.68789167,11.98128717,10:54:46.200309,0.00534,1.43312,1.43312,-0.01370,-0.02387,-0.01074,0.02064,0.00320,-0.04514,0.02629,1.00827,6.60305,1.43311,1.93211,1.91823,-2.97589,6.59320,6.57342,-2.95205,6.57903,1.83196,1.83196,A,105446.00
6.61928,57.68789188,11.98128672,57.68789167,11.98128717,10:54:46.210457,0.00509,1.50200,1.50200,-0.01384,-0.02387,-0.00890,0.02079,-0.00138,0.01147,0.00872,0.93690,6.61361,1.44689,1.91896,1.90508,-2.97845,6.60285,6.57342,-2.95205,6.57903,1.83196,1.83196,A,105446.00
6.62942,57.68789197,11.98128668,57.68789167,11.98128717,10:54:46.220598,0.00484,1.50200,1.50200,-0.01409,-0.02387,-0.02540,0.01071,-0.00963,-0.00537,0.01281,0.96642,6.62403,1.45791,1.90778,1.89390,-2.98090,6.61253,6.57342,-2.95205,6.57903,1.83196,1.83196,A,105446.00
6.64001,57.68789205,11.98128664,57.68789167,11.98128717,10:54:46.231191,0.00502,1.50200,1.50200,-0.01417,-0.02387,-0.02143,0.00338,-0.00733,-0.01598,0.02062,0.94904,6.63426,1.46672,1.89827,1.88439,-2.98317,6.62195,6.57342,-2.95205,6.57903,1.83196,1.83196,A,105446.00
6.65022,57.68789213,11.98128661,57.68789167,11.98128717,10:54:46.241395,0.00483,1.50200,1.50200,-0.01475,-0.02387,-0.03028,0.00338,-0.01222,-0.04429,-0.00555,1.00064,6.64482,1.47378,1.89019,1.87631,-2.98524,6.63096,6.57342,-2.95205,6.57903,1.83196,1.83196,A,105446.00
6.66063,57.68789221,11.98128658,57.68789167,11.98128717,10:54:46.251810,0.00485,1.50200,1.50200,-0.01497,-0.02387,-0.02860,0.01224,-0.01466,-0.04685,0.01739,1.03907,6.65503,1.47942,1.88332,1.86944,-2.98712,6.63961,6.57342,-2.95205,6.57903,1.83196,1.83196,A,105446.00
6.67222,57.68789229,11.98128655,57.68789167,11.98128717,10:54:46.263403,0.00604,1.50200,1.50200,-0.01614,-0.02387,-0.03624,0.01972,-0.01298,-0.05033,-0.04331,1.05987,6.66563,1.48394,1.87747,1.86359,-2.98893,6.64815,6.57342,-2.95205,6.57903,1.83196,1.83196,A,105446.00
6.70842,57.68789235,11.98128653,57.68789367,11.98128567,10:54:46.299590,0.03183,1.50200,1.50200,-0.01630,-0.02387,-0.04357,0.02629,-0.01146,-0.03312,0.03068,1.03639,6.67609,1.48755,1.87253,1.85865,-2.99014,6.65481,6.70407,-3.04121,6.80142,1.95208,1.95208,A,105446.20
6.71880,57.68789284,11.98128624,57.68789367,11.98128567,10:54:46.309987,0.00513,1.50200,1.50200,-0.01866,-0.02387,-0.05151,0.01606,-0.01802,-0.00213,-0.02135,0.98930,6.71315,1.49044,1.88562,1.87174,-3.00685,6.70995,6.70407,-3.04121,6.80142,1.95208,1.95208,A,105446.20
6.72897,57.68789299,11.98128615,57.68789367,11.98128567,10:54:46.320142,0.00483,1.50200,1.50200,-0.01908,-0.02398,-0.04647,0.01102,-0.02367,0.07229,0.01068,0.94178,6.72358,1.49275,1.89745,1.88351,-3.01219,6.72620,6.70407,-3.04121,6.80142,1.95208,1.95208,A,105446.20
6.73978,57.68789313,11.98128607,57.68789367,11.98128567,10:54:46.330955,0.00525,1.50200,1.50200,-0.01996,-0.02438,-0.05243,-0.00227,-0.03085,-0.04093,-0.01507,0.99643,6.73395,1.49460,1.90754,1.89337,-3.01739,6.74157,6.70407,-3.04121,6.80142,1.95208,1.95208,A,105446.20
6.74977,57.68789325,11.98128598,57.68789367,11.98128567,10:54:46.340952,0.00485,1.50200,1.50200,-0.02031,-0.02508,-0.05105,0.01529,-0.03162,-0.05801,0.01787,0.98454,6.74439,1.49608,1.91619,1.90160,-3.02229,6.75564,6.70407,-3.04121,6.80142,1.95208,1.95208,A,105446.20
6.76053,57.68789338,11.98128590,57.68789367,11.98128567,10:54:46.351720,0.00536,1.50200,1.50200,-0.02063,-0.02596,-0.04556,0.01743,-0.03146,-0.10901,0.01446,0.99119,6.75446,1.49726,1.92361,1.90851,-3.02706,6.76908,6.70407,-3.04121,6.80142,1.95208,1.95208,A,105446.20
6.77040,57.68789349,11.98128583,57.68789367,11.98128567,10:54:46.361828,0.00499,1.50200,1.50200,-0.02050,-0.02675,-0.03838,0.03331,-0.02215,-0.04014,0.03916,0.96636,6.76499,1.49821,1.92997,1.91441,-3.03177,6.78208,6.70407,-3.04121,6.80142,1.95208,1.95208,A,105446.20
6.78065,57.68789360,11.98128575,57.68789367,11.98128567,10:54:46.371830,0.00486,1.50200,1.50200,-0.02152,-0.02724,-0.03578,0.03515,-0.02001,0.00872,-0.03880,0.99174,6.77504,1.49897,1.93542,1.91958,-3.03620,6.79411,6.70407,-3.04121,6.80142,1.95208,1.95208,A,105446.20
6.79129,57.68789371,11.98128568,57.68789367,11.98128567,10:54:46.382468,0.00510,1.50200,1.50200,-0.02195,-0.02741,-0.02784,0.03270,-0.01268,0.04679,-0.00488,0.98125,6.78563,1.49957,1.94005,1.92411,-3.04063,6.80597,6.70407,-3.04121,6.80142,1.95208,1.95208,A,105446.20
6.80155,57.68789381,11.98128561,57.68789367,11.98128567,10:54:46.392733,0.00497,1.50200,1.50200,-0.02261,-0.02741,-0.03120,0.01835,-0.01176,0.03019,-0.01781,0.95861,6.79616,1.50006,1.94399,1.92805,-3.04484,6.81709,6.70407,-3.04121,6.80142,1.95208,1.95208,A,105446.20
6.82792,57.68789390,11.98128554,57.68789483,11.98128567,10:54:46.419090,0.02092,1.50200,1.50200,-0.02286,-0.02741,-0.02769,0.01728,-0.01161,-0.03367,0.00543,1.00638,6.80628,1.50044,1.94734,1.93140,-3.04881,6.82744,6.82350,-3.04121,6.93115,1.57080,1.57080,A,105446.30
6.84242,57.68789426,11.98128532,57.68789483,11.98128567,10:54:46.433825,0.00738,1.50200,1.50200,-0.02325,-0.02741,-0.01089,0.02659,-0.01512,-0.02873,-0.00287,0.99869,6.83443,1.50075,1.89245,1.87651,-3.06156,6.86743,6.82350,-3.04121,6.93115,1.57080,1.57080,A,105446.30
6.85029,57.68789436,11.98128530,57.68789483,11.98128567,10:54:46.441457,0.00484,1.50200,1.50200,-0.02323,-0.02741,-0.01104,0.02262,-0.01726,-0.00323,0.01165,0.99595,6.84489,1.50100,1.84641,1.83047,-3.06316,6.87892,6.82350,-3.04121,6.93115,1.57080,1.57080,A,105446.30
6.86063,57.68789449,11.98128526,57.68789483,11.98128567,10:54:46.451800,0.00497,1.50200,1.50200,-0.02284,-0.02741,0.00377,0.02675,-0.01436,-0.01257,0.02556,0.97417,6.85501,1.50120,1.80720,1.79127,-3.06512,6.89302,6.82350,-3.04121,6.93115,1.57080,1.57080,A,105446.30
6.87116,57.68789461,11.98128524,57.68789483,11.98128567,10:54:46.462341,0.00510,1.50200,1.50200,-0.02314,-0.02741,0.00744,0.02369,-0.01130,-0.01391,-0.02172,0.98484,6.86551,1.50136,1.77388,1.75794,-3.06657,6.90676,6.82350,-3.04121,6.93115,1.57080,1.57080,A,105446.30
6.88149,57.68789473,11.98128522,57.68789483,11.98128567,10:54:46.472660,0.00503,1.50200,1.50200,-0.02285,-0.02741,0.01553,0.01804,-0.00291,-0.01915,0.01135,1.00534,6.87609,1.50149,1.74554,1.72961,-3.06757,6.91995,6.82350,-3.04121,6.93115,1.57080,1.57080,A,105446.30
6.89208,57.68789484,11.98128521,57.68789483,11.98128567,10:54:46.483262,0.00510,1.50200,1.50200,-0.02327,-0.02741,0.01614,0.00506,-0.00077,0.01464,-0.03562,1.00619,6.88625,1.50159,1.72147,1.70553,-3.06814,6.93230,6.82350,-3.04121,6.93115,1.57080,1.57080,A,105446.30
6.90220,57.68789495,11.98128521,57.68789483,11.98128567,10:54:46.493371,0.00482,1.50200,1.50200,-0.02296,-0.02741,0.01859,-0.00258,0.00412,0.07064,0.00988,0.98796,6.89682,1.50167,1.70100,1.68507,-3.06839,6.94404,6.82350,-3.04121,6.93115,1.57080,1.57080,A,105446.30
6.91264,57.68789505,11.98128521,57.68789483,11.98128567,10:54:46.503813,0.00486,1.50200,1.50200,-0.02286,-0.02741,0.02637,-0.00578,0.00458,-0.02928,-0.00756,0.98326,6.90702,1.50173,1.68361,1.66767,-3.06841,6.95534,6.82350,-3.04121,6.93115,1.57080,1.57080,A,105446.30
6.92328,57.68789515,11.98128521,57.68789483,11.98128567,10:54:46.514462,0.00511,1.50200,1.50200,-0.02221,-0.02738,0.03477,0.00017,0.00794,-0.09357,0.02251,1.00058,6.91762,1.50179,1.66881,1.65289,-3.06823,6.96635,6.82350,-3.04121,6.93115,1.57080,1.57080,A,105446.30
6.94948,57.68789524,11.98128522,57.68789583,11.98128483,10:54:46.540660,0.02092,1.50200,1.50200,-0.02117,-0.02715,0.04638,0.01270,0.01053,-0.03630,0.04117,1.00345,6.92799,1.50183,1.65623,1.64044,-3.06786,6.97643,6.94512,-3.09074,7.04235,1.98985,1.98985,A,105446.40
6.96160,57.68789559,11.98128516,57.68789583,11.98128483,10:54:46.553146,0.00656,1.50200,1.50200,-0.02030,-0.02528,0.05493,0.02232,0.00946,-0.00854,-0.03239,0.99955,6.95463,1.50186,1.70773,1.69303,-3.07145,7.01489,6.94512,-3.09074,7.04235,1.98985,1.98985,A,105446.40
6.97026,57.68789569,11.98128512,57.68789583,11.98128483,10:54:46.561441,0.00483,1.50200,1.50200,-0.02011,-0.02429,0.04256,0.01453,0.00534,-0.04685,-0.00970,1.02883,6.96487,1.50189,1.75197,1.73785,-3.07362,7.02604,6.94512,-3.09074,7.04235,1.98985,1.98985,A,105446.40
6.98070,57.68789580,11.98128507,57.68789583,11.98128483,10:54:46.571877,0.00487,1.50200,1.50200,-0.01951,-0.02342,0.05173,0.01315,0.00274,0.03953,0.01159,0.98576,6.97509,1.50191,1.78947,1.77585,-3.07648,7.03873,6.94512,-3.09074,7.04235,1.98985,1.98985,A,105446.40
6.99133,57.68789591,11.98128502,57.68789583,11.98128483,10:54:46.582507,0.00510,1.50200,1.50200,-0.01910,-0.02271,0.04852,-0.00273,-0.00153,-0.02891,0.00098,1.00955,6.98566,1.50193,1.82129,1.80808,-3.07968,7.05088,6.94512,-3.09074,7.04235,1.98985,1.98985,A,105446.40
7.00182,57.68789602,11.98128496,57.68789583,11.98128483,10:54:46.592994,0.00519,1.50200,1.50200,-0.01802,-0.02225,0.05081,-0.00731,-0.00184,-0.02043,0.04270,0.97576,6.99643,1.50194,1.84829,1.83535,-3.08316,7.06255,6.94512,-3.09074,7.04235,1.98985,1.98985,A,105446.40
7.01213,57.68789611,11.98128490,57.68789583,11.98128483,10:54:46.603301,0.00513,1.50200,1.50200,-0.01754,-0.02206,0.05142,-0.00884,-0.00336,-0.00366,0.00738,0.99808,7.00646,1.50195,1.87125,1.85842,-3.08662,7.07293,6.94512,-3.09074,7.04235,1.98985,1.98985,A,105446.40
7.02222,57.68789620,11.98128484,57.68789583,11.98128483,10:54:46.613404,0.00483,1.50200,1.50200,-0.01684,-0.02206,0.05508,-0.00792,-0.00138,-0.08388,0.01885,1.02029,7.01684,1.50196,1.89076,1.87793,-3.09020,7.08279,6.94512,-3.09074,7.04235,1.98985,1.98985,A,105446.40
7.03280,57.68789628,11.98128478,57.68789583,11.98128483,10:54:46.623978,0.00501,1.50200,1.50200,-0.01657,-0.02206,0.04943,0.00033,0.00076,-0.12072,-0.00451,1.06225,7.02704,1.50197,1.90734,1.89451,-3.09386,7.09222,6.94512,-3.09074,7.04235,1.98985,1.98985,A,105446.40
7.04330,57.68789636,11.98128472,57.68789583,11.98128483,10:54:46.634475,0.00512,1.50200,1.50200,-0.01594,-0.02206,0.04699,0.02537,-0.00245,-0.07716,0.02050,1.04401,7.03762,1.50197,1.92144,1.90861,-3.09753,7.10113,6.94512,-3.09074,7.04235,1.98985,1.98985,A,105446.40
7.06966,57.68789644,11.98128466,57.68789667,11.98128350,10:54:46.660834,0.02108,1.50200,1.50200,-0.01573,-0.02206,0.04989,0.03438,-0.00092,-0.09620,-0.00958,1.08141,7.04803,1.50198,1.93342,1.92059,-3.10114,7.10944,7.06517,-3.16999,7.13501,2.27833,2.27833,A,105446.50
7.08022,57.68789675,11.98128440,57.68789667,11.98128350,10:54:46.671388,0.00506,1.50200,1.50200,-0.01426,-0.02206,0.05020,0.02812,-0.00184,-0.01726,0.02080,0.93928,7.07451,1.50198,1.98647,1.97365,-3.11666,7.14383,7.06517,-3.16999,7.13501,2.27833,2.27833,A,105446.50
7.09036,57.68789684,11.98128427,57.68789667,11.98128350,10:54:46.681532,0.00481,1.50200,1.50200,-0.01358,-0.02206,0.05173,0.01682,0.00290,0.01806,0.02074,0.93666,7.08498,1.50198,2.03197,2.01914,-3.12401,7.15439,7.06517,-3.16999,7.13501,2.27833,2.27833,A,105446.50
7.10078,57.68789693,11.98128414,57.68789667,11.98128350,10:54:46.691952,0.00484,1.50200,1.50200,-0.01281,-0.02206,0.05096,0.00384,-0.00046,-0.00354,0.02818,0.93641,7.09518,1.50199,2.07064,2.05781,-3.13165,7.16452,7.06517,-3.16999,7.13501,2.27833,2.27833,A,105446.50
7.11142,57.68789702,11.98128402,57.68789667,11.98128350,10:54:46.702599,0.00509,1.50200,1.50200,-0.01281,-0.02206,0.05081,-0.00303,-0.00627,-0.02452,-0.02056,0.96807,7.10576,1.50199,2.10351,2.09068,-3.13931,7.17389,7.06517,-3.16999,7.13501,2.27833,2.27833,A,105446.50
7.12147,57.68789709,11.98128389,57.68789667,11.98128350,10:54:46.712648,0.00475,1.50200,1.50200,-0.01210,-0.02206,0.04485,-0.00196,-0.00535,-0.03257,0.03001,0.95776,7.11609,1.50199,2.13145,2.11862,-3.14671,7.18220,7.06517,-3.16999,7.13501,2.27833,2.27833,A,105446.50
7.13194,57.68789716,11.98128377,57.68789667,11.98128350,10:54:46.723121,0.00494,1.50200,1.50200,-0.01189,-0.02206,0.04760,0.00827,-0.00688,-0.05771,-0.00329,1.00766,7.12627,1.50199,2.15520,2.14237,-3.15413,7.19008,7.06517,-3.16999,7.13501,2.27833,2.27833,A,105446.50
7.14221,57.68789723,11.98128364,57.68789667,11.98128350,10:54:46.733383,0.00481,1.50200,1.50200,-0.01119,-0.02206,0.04439,0.01224,-0.00932,-0.05679,0.03251,1.02730,7.13685,1.50199,2.17539,2.16256,-3.16149,7.19755,7.06517,-3.16999,7.13501,2.27833,2.27833,A,105446.50
7.15267,57.68789729,11.98128352,57.68789667,11.98128350,10:54:46.743845,0.00487,1.50200,1.50200,-0.01055,-0.02206,0.05005,0.02705,-0.00840,-0.04252,0.02532,1.01364,7.14705,1.50199,2.19254,2.17972,-3.16864,7.20442,7.06517,-3.16999,7.13501,2.27833,2.27833,A,105446.50
7.16330,57.68789735,11.98128340,57.68789667,11.98128350,10:54:46.754480,0.00509,1.50200,1.50200,-0.00990,-0.02206,0.04989,0.02491,-0.01207,-0.03453,0.02678,1.06896,7.15763,1.50199,2.20713,2.19430,-3.17571,7.21100,7.06517,-3.16999,7.13501,2.27833,2.27833,A,105446.50
7.19929,57.68789740,11.98128329,57.68789900,11.98128200,10:54:46.790458,0.03068,1.31056,1.31056,-0.00903,-0.02206,0.05478,0.03499,-0.01222,0.00384,0.03983,1.02791,7.16805,1.46371,2.21953,2.20670,-3.18240,7.21689,7.19566,-3.25914,7.39446,1.90178,1.90178,A,105446.70
7.20950,57.68789783,11.98128275,57.68789900,11.98128200,10:54:46.800671,0.00502,1.31056,1.31056,-0.00761,-0.02206,0.04012,0.01514,-0.00627,-0.09687,0.01879,0.98417,7.20408,1.43308,2.17297,2.16014,-3.21451,7.26408,7.19566,-3.25914,7.39446,1.90178,1.90178,A,105446.70
