Time,lat_estimated,lon_estimated,latitude,longitude,RealTime,CalculationTime,MeasuredVelocity,FilteredVelocity,Roll,SteeringAngle,RollRate,gy,gz,ax,ay,az,imu_read_timing,v_estimated,yaw_estimated,heading_estimated,x_estimated,y_estimated,GPS_timestamp,x_GPS,y_GPS,theta_GPS,theta_GPS_noUnwrap,status,NMEA timestamp
0.06541,57.68835467,11.97941950,57.68835467,11.97941950,14:51:58.872453,0.06537,0.00000,0.00000,-0.00224,0.00020,-0.00365,-0.00038,-0.00110,-0.05118,-0.11578,0.99436,0.00001,0.00000,-0.00012,0.00000,0.00000,0.00000,0.02309,0.00000,0.00000,0.00000,0.00000,A,145158.70
0.08208,57.68835467,11.97941950,57.68835467,11.97941950,14:51:58.888868,0.00870,0.00000,0.00000,-0.00516,0.00020,-0.00930,-0.00130,0.00272,-0.05276,-0.11913,0.99229,0.07580,0.00000,-0.00012,0.00000,0.00000,0.00000,0.02309,0.00000,0.00000,0.00000,0.00000,A,145158.70
0.08886,57.68835467,11.97941950,57.68835467,11.97941950,14:51:58.895651,0.00530,0.00000,0.00000,-0.00734,0.00020,-0.00579,0.00038,0.00089,-0.05191,-0.11566,0.99162,0.08310,0.00000,-0.00012,0.00000,0.00000,0.00000,0.02309,0.00000,0.00000,0.00000,0.00000,A,145158.70
0.09918,57.68835467,11.97941950,57.68835467,11.97941950,14:51:58.906217,0.00522,0.00000,0.00000,-0.00947,0.00020,-0.00197,0.00298,0.00058,-0.04947,-0.11694,0.99155,0.09372,0.00000,-0.00012,0.00000,0.00000,0.00000,0.02309,0.00000,0.00000,0.00000,0.00000,A,145158.70
0.10963,57.68835467,11.97941950,57.68835467,11.97941950,14:51:58.916414,0.00526,0.00000,0.00000,-0.01161,0.00020,-0.00518,0.00176,0.00089,-0.05148,-0.11706,0.99552,0.10391,0.00000,-0.00012,0.00000,0.00000,0.00000,0.02309,0.00000,0.00000,0.00000,0.00000,A,145158.70
0.12029,57.68835467,11.97941950,57.68835467,11.97941950,14:51:58.927079,0.00552,0.00000,0.00000,-0.01374,0.00020,-0.00426,-0.00023,0.00348,-0.05209,-0.11938,0.99180,0.11453,0.00000,-0.00012,0.00000,0.00000,0.00000,0.02309,0.00000,0.00000,0.00000,0.00000,A,145158.70
0.16718,57.68835467,11.97941950,57.68835183,11.97941983,14:51:58.974396,0.04154,0.00000,0.00000,-0.01575,0.00020,-0.00090,0.00130,0.00104,-0.05045,-0.11517,0.98979,0.12490,0.00000,-0.00012,0.00000,0.00000,0.00000,0.15552,0.00000,0.00000,0.00000,0.00000,A,145158.90
0.18700,57.68835467,11.97941950,57.68835183,11.97941983,14:51:58.993785,0.00692,0.00000,0.00000,-0.01773,0.00020,0.00001,-0.00267,0.00134,-0.04801,-0.11645,0.99277,0.18153,0.00000,-0.00012,0.00000,0.00000,0.00000,0.15552,0.00000,0.00000,0.00000,0.00000,A,145158.90
0.19596,57.68835467,11.97941950,57.68835183,11.97941983,14:51:59.002748,0.00547,0.00000,0.00000,-0.01968,0.00020,0.00368,-0.00069,-0.00171,-0.05020,-0.11816,0.99284,0.19026,0.00000,-0.00012,0.00000,0.00000,0.00000,0.15552,0.00000,0.00000,0.00000,0.00000,A,145158.90
0.20606,57.68835467,11.97941950,57.68835183,11.97941983,14:51:59.012849,0.00518,0.00000,0.00000,-0.02156,0.00020,0.00429,-0.00054,0.00195,-0.05002,-0.11645,0.99338,0.20063,0.00000,-0.00012,0.00000,0.00000,0.00000,0.15552,0.00000,0.00000,0.00000,0.00000,A,145158.90
0.21694,57.68835467,11.97941950,57.68835183,11.97941983,14:51:59.023735,0.00547,0.00000,0.00000,-0.02343,0.00020,0.00246,-0.00344,0.00119,-0.04972,-0.11669,0.99216,0.21103,0.00000,-0.00012,0.00000,0.00000,0.00000,0.15552,0.00000,0.00000,0.00000,0.00000,A,145158.90
0.22705,57.68835467,11.97941950,57.68835183,11.97941983,14:51:59.034094,0.00519,0.00000,0.00000,-0.02526,0.00020,0.00475,0.00130,0.00012,-0.04923,-0.11712,0.99174,0.22164,0.00000,-0.00012,0.00000,0.00000,0.00000,0.15552,0.00000,0.00000,0.00000,0.00000,A,145158.90
0.23762,57.68835467,11.97941950,57.68835183,11.97941983,14:51:59.044414,0.00536,0.00000,0.00000,-0.02706,0.00020,0.00505,-0.00130,0.00257,-0.05167,-0.11682,0.99113,0.23195,0.00000,-0.00012,0.00000,0.00000,0.00000,0.15552,0.00000,0.00000,0.00000,0.00000,A,145158.90
0.24831,57.68835467,11.97941950,57.68835183,11.97941983,14:51:59.055098,0.00565,0.00000,0.00000,-0.02882,0.00020,0.00582,-0.00237,0.00180,-0.05069,-0.11779,0.99546,0.24257,0.00000,-0.00012,0.00000,0.00000,0.00000,0.15552,0.00000,0.00000,0.00000,0.00000,A,145158.90
0.28476,57.68835467,11.97941950,57.68834917,11.97942467,14:51:59.092099,0.03169,0.00000,0.00000,-0.03059,0.00020,0.00322,0.00130,0.00226,-0.05045,-0.11682,0.99107,0.25280,0.00000,-0.00012,0.00000,0.00000,0.00000,0.27222,0.00000,0.00000,0.00000,0.00000,A,145159.00
0.30422,57.68835467,11.97941950,57.68834917,11.97942467,14:51:59.111006,0.00695,0.00000,0.00000,-0.03214,0.00020,0.00398,-0.00237,0.00043,-0.04996,-0.11456,0.99381,0.29845,0.00000,-0.00012,0.00000,0.00000,0.00000,0.27222,0.00000,0.00000,0.00000,0.00000,A,145159.00
0.31292,57.68835467,11.97941950,57.68834917,11.97942467,14:51:59.119710,0.00527,0.00000,0.00000,-0.03382,0.00020,0.00261,-0.00099,0.00287,-0.04990,-0.11456,0.99314,0.30722,0.00000,-0.00012,0.00000,0.00000,0.00000,0.27222,0.00000,0.00000,0.00000,0.00000,A,145159.00
0.32346,57.68835467,11.97941950,57.68834917,11.97942467,14:51:59.130257,0.00539,0.00000,0.00000,-0.03554,0.00020,0.00139,0.00221,0.00058,-0.04947,-0.11804,0.99473,0.31782,0.00000,-0.00012,0.00000,0.00000,0.00000,0.27222,0.00000,0.00000,0.00000,0.00000,A,145159.00
0.33405,57.68835467,11.97941950,57.68834917,11.97942467,14:51:59.140829,0.00558,0.00000,0.00000,-0.03724,0.00020,-0.00151,0.00038,0.00073,-0.05380,-0.11596,0.99168,0.32799,0.00000,-0.00012,0.00000,0.00000,0.00000,0.27222,0.00000,0.00000,0.00000,0.00000,A,145159.00
0.34539,57.68835467,11.97941950,57.68834917,11.97942467,14:51:59.152180,0.00652,0.00000,0.00000,-0.03885,0.00020,0.00276,-0.00145,0.00150,-0.05155,-0.11517,0.99204,0.33878,0.00000,-0.00012,0.00000,0.00000,0.00000,0.27222,0.00000,0.00000,0.00000,0.00000,A,145159.00
0.35442,57.68835467,11.97941950,57.68834917,11.97942467,14:51:59.161208,0.00515,0.00000,0.00000,-0.04049,0.00020,-0.00136,0.00069,0.00073,-0.05173,-0.11608,0.99271,0.34901,0.00000,-0.00012,0.00000,0.00000,0.00000,0.27222,0.00000,0.00000,0.00000,0.00000,A,145159.00
0.36514,57.68835467,11.97941950,57.68834917,11.97942467,14:51:59.171932,0.00548,0.00000,0.00000,-0.04206,0.00020,0.00520,-0.00435,0.00104,-0.05100,-0.11682,0.99253,0.35924,0.00000,-0.00012,0.00000,0.00000,0.00000,0.27222,0.00000,0.00000,0.00000,0.00000,A,145159.00
0.40048,57.68835467,11.97941950,57.68834767,11.97942867,14:51:59.207300,0.03042,0.00000,0.00000,-0.04365,0.00020,-0.00121,0.00008,0.00012,-0.05142,-0.11621,0.99436,0.36982,0.00000,-0.00012,0.00000,0.00000,0.00000,0.38912,0.00000,0.00000,0.00000,0.00000,A,145159.10
0.41963,57.68835467,11.97941950,57.68834767,11.97942867,14:51:59.226425,0.00653,0.00000,0.00000,-0.04548,0.00020,-0.00564,-0.00328,0.00318,-0.05002,-0.11797,0.99296,0.41391,0.00000,-0.00012,0.00000,0.00000,0.00000,0.38912,0.00000,0.00000,0.00000,0.00000,A,145159.10
0.42891,57.68835467,11.97941950,57.68834767,11.97942867,14:51:59.235705,0.00528,0.00000,0.00000,-0.04708,0.00020,-0.00610,-0.00069,-0.00079,-0.04929,-0.11639,0.99107,0.42321,0.00000,-0.00012,0.00000,0.00000,0.00000,0.38912,0.00000,0.00000,0.00000,0.00000,A,145159.10
0.43911,57.68835467,11.97941950,57.68834767,11.97942867,14:51:59.246167,0.00524,0.00000,0.00000,-0.04863,0.00020,-0.00289,-0.00206,0.00348,-0.05075,-0.11743,0.99265,0.43369,0.00000,-0.00012,0.00000,0.00000,0.00000,0.38912,0.00000,0.00000,0.00000,0.00000,A,145159.10
0.44966,57.68835467,11.97941950,57.68834767,11.97942867,14:51:59.256453,0.00539,0.00000,0.00000,-0.05016,0.00020,-0.00533,-0.00023,0.00348,-0.05075,-0.11547,0.99351,0.44381,0.00000,-0.00012,0.00000,0.00000,0.00000,0.38912,0.00000,0.00000,0.00000,0.00000,A,145159.10
0.46019,57.68835467,11.97941950,57.68834767,11.97942867,14:51:59.266978,0.00552,0.00000,0.00000,-0.05168,0.00020,-0.00625,-0.00344,0.00348,-0.05112,-0.11596,0.99460,0.45445,0.00000,-0.00012,0.00000,0.00000,0.00000,0.38912,0.00000,0.00000,0.00000,0.00000,A,145159.10
0.47022,57.68835467,11.97941950,57.68834767,11.97942867,14:51:59.277014,0.00514,0.00000,0.00000,-0.05314,0.00020,-0.00258,-0.00344,-0.00018,-0.05197,-0.11578,0.99314,0.46481,0.00000,-0.00012,0.00000,0.00000,0.00000,0.38912,0.00000,0.00000,0.00000,0.00000,A,145159.10
0.48093,57.68835467,11.97941950,57.68834767,11.97942867,14:51:59.287712,0.00530,0.00000,0.00000,-0.05463,0.00020,-0.00503,0.00206,0.00195,-0.05295,-0.11730,0.99345,0.47519,0.00000,-0.00012,0.00000,0.00000,0.00000,0.38912,0.00000,0.00000,0.00000,0.00000,A,145159.10
0.51625,57.68835467,11.97941950,57.68834450,11.97943500,14:51:59.323061,0.03022,0.00000,0.00000,-0.05608,0.00020,-0.00518,0.00130,0.00150,-0.05106,-0.11669,0.99265,0.48580,0.00000,-0.00012,0.00000,0.00000,0.00000,0.50408,0.00000,0.00000,0.00000,0.00000,A,145159.20
0.53278,57.68835467,11.97941950,57.68834450,11.97943500,14:51:59.339569,0.00648,0.00000,0.00000,-0.05773,0.00020,-0.00579,0.00282,0.00089,-0.04953,-0.11871,0.99235,0.52701,0.00000,-0.00012,0.00000,0.00000,0.00000,0.50408,0.00000,0.00000,0.00000,0.00000,A,145159.20
0.54208,57.68835467,11.97941950,57.68834450,11.97943500,14:51:59.348866,0.00538,0.00000,0.00000,-0.05912,0.00020,-0.00549,0.00023,-0.00125,-0.05057,-0.11572,0.99326,0.53624,0.00000,-0.00012,0.00000,0.00000,0.00000,0.50408,0.00000,0.00000,0.00000,0.00000,A,145159.20
0.55262,57.68835467,11.97941950,57.68834450,11.97943500,14:51:59.359408,0.00552,0.00000,0.00000,-0.06053,0.00020,-0.00457,0.00099,-0.00370,-0.04953,-0.11846,0.99284,0.54686,0.00000,-0.00012,0.00000,0.00000,0.00000,0.50408,0.00000,0.00000,0.00000,0.00000,A,145159.20
0.56266,57.68835467,11.97941950,57.68834450,11.97943500,14:51:59.369449,0.00516,0.00000,0.00000,-0.06188,0.00020,-0.00335,0.00130,-0.00217,-0.05014,-0.11682,0.99247,0.55725,0.00000,-0.00012,0.00000,0.00000,0.00000,0.50408,0.00000,0.00000,0.00000,0.00000,A,145159.20
0.57306,57.68835467,11.97941950,57.68834450,11.97943500,14:51:59.379854,0.00533,0.00000,0.00000,-0.06325,0.00020,-0.00671,0.00191,-0.00018,-0.04947,-0.11712,0.99192,0.56731,0.00000,-0.00012,0.00000,0.00000,0.00000,0.50408,0.00000,0.00000,0.00000,0.00000,A,145159.20
0.58354,57.68835467,11.97941950,57.68834450,11.97943500,14:51:59.390336,0.00540,0.00000,0.00000,-0.06457,0.00020,-0.00350,0.00008,0.00104,-0.05142,-0.11724,0.99375,0.57789,0.00000,-0.00012,0.00000,0.00000,0.00000,0.50408,0.00000,0.00000,0.00000,0.00000,A,145159.20
0.59370,57.68835467,11.97941950,57.68834450,11.97943500,14:51:59.400487,0.00517,0.00000,0.00000,-0.06589,0.00020,-0.00442,-0.00206,0.00027,-0.05014,-0.11797,0.99040,0.58807,0.00000,-0.00012,0.00000,0.00000,0.00000,0.50408,0.00000,0.00000,0.00000,0.00000,A,145159.20
0.60440,57.68835467,11.97941950,57.68834450,11.97943500,14:51:59.411190,0.00547,0.00000,0.00000,-0.06720,0.00020,-0.00533,0.00191,0.00211,-0.05039,-0.11791,0.99149,0.59870,0.00000,-0.00012,0.00000,0.00000,0.00000,0.50408,0.00000,0.00000,0.00000,0.00000,A,145159.20
0.63941,57.68835467,11.97941950,57.68834200,11.97943800,14:51:59.446229,0.03008,0.00000,0.00000,-0.06848,0.00020,-0.00426,0.00191,-0.00049,-0.05063,-0.11810,0.99003,0.60920,0.00000,-0.00012,0.00000,0.00000,0.00000,0.62805,0.00000,0.00000,0.00000,0.00000,A,145159.30
0.65406,57.68835467,11.97941950,57.68834200,11.97943800,14:51:59.460849,0.00741,0.00000,0.00000,-0.06952,0.00020,0.00520,0.00176,0.00150,-0.05398,-0.11889,0.99216,0.64654,0.00000,-0.00012,0.00000,0.00000,0.00000,0.62805,0.00000,0.00000,0.00000,0.00000,A,145159.30
0.66224,57.68835467,11.97941950,57.68834200,11.97943800,14:51:59.469027,0.00519,0.00000,0.00000,-0.07064,0.00020,0.00612,-0.00115,-0.00049,-0.05148,-0.11688,0.99259,0.65679,0.00000,-0.00012,0.00000,0.00000,0.00000,0.62805,0.00000,0.00000,0.00000,0.00000,A,145159.30
0.67286,57.68835467,11.97941950,57.68834200,11.97943800,14:51:59.479654,0.00526,0.00000,0.00000,-0.07175,0.00020,0.00673,-0.00008,0.00073,-0.05173,-0.11791,0.99473,0.66717,0.00000,-0.00012,0.00000,0.00000,0.00000,0.62805,0.00000,0.00000,0.00000,0.00000,A,145159.30
0.68318,57.68835467,11.97941950,57.68834200,11.97943800,14:51:59.490216,0.00519,0.00000,0.00000,-0.07289,0.00020,0.00154,0.00114,0.00501,-0.04880,-0.11718,0.99259,0.67777,0.00000,-0.00012,0.00000,0.00000,0.00000,0.62805,0.00000,0.00000,0.00000,0.00000,A,145159.30
0.69360,57.68835467,11.97941950,57.68834200,11.97943800,14:51:59.500387,0.00520,0.00000,0.00000,-0.07400,0.00020,0.00322,-0.00267,-0.00156,-0.04996,-0.11785,0.99168,0.68794,0.00000,-0.00012,0.00000,0.00000,0.00000,0.62805,0.00000,0.00000,0.00000,0.00000,A,145159.30
0.70447,57.68835467,11.97941950,57.68834200,11.97943800,14:51:59.511264,0.00559,0.00000,0.00000,-0.07505,0.00020,0.00811,-0.00374,-0.00003,-0.05319,-0.11797,0.99033,0.69874,0.00000,-0.00012,0.00000,0.00000,0.00000,0.62805,0.00000,0.00000,0.00000,0.00000,A,145159.30
0.71442,57.68835467,11.97941950,57.68834200,11.97943800,14:51:59.521215,0.00515,0.00000,0.00000,-0.07614,0.00020,0.00383,0.00221,-0.00003,-0.05179,-0.11858,0.99216,0.70902,0.00000,-0.00012,0.00000,0.00000,0.00000,0.62805,0.00000,0.00000,0.00000,0.00000,A,145159.30
0.72493,57.68835467,11.97941950,57.68834200,11.97943800,14:51:59.531723,0.00527,0.00000,0.00000,-0.07718,0.00020,0.00490,-0.00008,0.00089,-0.04831,-0.11706,0.99284,0.71923,0.00000,-0.00012,0.00000,0.00000,0.00000,0.62805,0.00000,0.00000,0.00000,0.00000,A,145159.30
0.77210,57.68835467,11.97941950,57.68834250,11.97943467,14:51:59.578928,0.04204,0.00000,0.00000,-0.07820,0.00020,0.00337,-0.00115,-0.00049,-0.05240,-0.11639,0.99357,0.73013,0.00000,-0.00012,0.00000,0.00000,0.00000,0.75903,0.00000,0.00000,0.00000,0.00000,A,145159.50
0.79196,57.68835467,11.97941950,57.68834250,11.97943467,14:51:59.598751,0.00809,0.00000,0.00000,-0.07930,0.00020,-0.00106,0.00069,0.00348,-0.04856,-0.11675,0.99528,0.78621,0.00000,-0.00012,0.00000,0.00000,0.00000,0.75903,0.00000,0.00000,0.00000,0.00000,A,145159.50
0.79971,57.68835467,11.97941950,57.68834250,11.97943467,14:51:59.606510,0.00544,0.00000,0.00000,-0.08034,0.00020,-0.00151,0.00099,-0.00034,-0.05026,-0.11621,0.99174,0.79404,0.00000,-0.00012,0.00000,0.00000,0.00000,0.75903,0.00000,0.00000,0.00000,0.00000,A,145159.50
0.80986,57.68835467,11.97941950,57.68834250,11.97943467,14:51:59.616641,0.00518,0.00000,0.00000,-0.08135,0.00020,0.00078,-0.00176,0.00165,-0.05063,-0.11718,0.99582,0.80421,0.00000,-0.00012,0.00000,0.00000,0.00000,0.75903,0.00000,0.00000,0.00000,0.00000,A,145159.50
0.82056,57.68835467,11.97941950,57.68834250,11.97943467,14:51:59.627350,0.00549,0.00000,0.00000,-0.08232,0.00020,0.00062,-0.00176,0.00012,-0.05051,-0.11486,0.99162,0.81482,0.00000,-0.00012,0.00000,0.00000,0.00000,0.75903,0.00000,0.00000,0.00000,0.00000,A,145159.50
0.83066,57.68835467,11.97941950,57.68834250,11.97943467,14:51:59.637449,0.00518,0.00000,0.00000,-0.08331,0.00020,-0.00167,0.00237,-0.00232,-0.05209,-0.11517,0.99271,0.82523,0.00000,-0.00012,0.00000,0.00000,0.00000,0.75903,0.00000,0.00000,0.00000,0.00000,A,145159.50
0.84101,57.68835467,11.97941950,57.68834250,11.97943467,14:51:59.647800,0.00529,0.00000,0.00000,-0.08434,0.00020,-0.00304,0.00466,-0.00171,-0.05094,-0.11932,0.99436,0.83531,0.00000,-0.00012,0.00000,0.00000,0.00000,0.75903,0.00000,0.00000,0.00000,0.00000,A,145159.50
0.85118,57.68835467,11.97941950,57.68834250,11.97943467,14:51:59.658224,0.00523,0.00000,0.00000,-0.08531,0.00020,-0.00197,-0.00160,-0.00034,-0.05148,-0.11584,0.99137,0.84576,0.00000,-0.00012,0.00000,0.00000,0.00000,0.75903,0.00000,0.00000,0.00000,0.00000,A,145159.50
0.88923,57.68835467,11.97941950,57.68834350,11.97943167,14:51:59.696572,0.03220,0.00000,0.00000,-0.08633,0.00020,-0.00701,0.00099,-0.00064,-0.05130,-0.11645,0.99229,0.85748,0.00000,-0.00012,0.00000,0.00000,0.00000,0.87805,0.00000,0.00000,0.00000,0.00000,A,145159.60
0.90897,57.68835467,11.97941950,57.68834350,11.97943167,14:51:59.715761,0.00722,0.00000,0.00000,-0.08750,0.00020,-0.00442,-0.00252,-0.00125,-0.04935,-0.11883,0.98948,0.90321,0.00000,-0.00012,0.00000,0.00000,0.00000,0.87805,0.00000,0.00000,0.00000,0.00000,A,145159.60
0.91869,57.68835467,11.97941950,57.68834350,11.97943167,14:51:59.725489,0.00671,0.00000,0.00000,-0.08851,0.00020,-0.00900,0.00160,-0.00202,-0.05161,-0.11810,0.99040,0.91157,0.00000,-0.00012,0.00000,0.00000,0.00000,0.87805,0.00000,0.00000,0.00000,0.00000,A,145159.60
0.92787,57.68835467,11.97941950,57.68834350,11.97943167,14:51:59.734663,0.00547,0.00000,0.00000,-0.08943,0.00020,-0.00304,0.00084,-0.00110,-0.05185,-0.11639,0.98991,0.92218,0.00000,-0.00012,0.00000,0.00000,0.00000,0.87805,0.00000,0.00000,0.00000,0.00000,A,145159.60
0.93796,57.68835467,11.97941950,57.68834350,11.97943167,14:51:59.744748,0.00516,0.00000,0.00000,-0.09037,0.00020,-0.00701,0.00084,0.00058,-0.05069,-0.11590,0.99338,0.93251,0.00000,-0.00012,0.00000,0.00000,0.00000,0.87805,0.00000,0.00000,0.00000,0.00000,A,145159.60
0.94870,57.68835467,11.97941950,57.68834350,11.97943167,14:51:59.755482,0.00531,0.00000,0.00000,-0.09127,0.00020,-0.00182,-0.00038,-0.00079,-0.04984,-0.11730,0.99186,0.94297,0.00000,-0.00012,0.00000,0.00000,0.00000,0.87805,0.00000,0.00000,0.00000,0.00000,A,145159.60
0.95896,57.68835467,11.97941950,57.68834350,11.97943167,14:51:59.765746,0.00517,0.00000,0.00000,-0.09215,0.00020,-0.00319,0.00206,0.00241,-0.05020,-0.11614,0.99058,0.95356,0.00000,-0.00012,0.00000,0.00000,0.00000,0.87805,0.00000,0.00000,0.00000,0.00000,A,145159.60
0.97024,57.68835467,11.97941950,57.68834350,11.97943167,14:51:59.777038,0.00623,0.00000,0.00000,-0.09305,0.00020,-0.00655,-0.00206,0.00165,-0.04685,-0.11663,0.99345,0.96384,0.00000,-0.00012,0.00000,0.00000,0.00000,0.87805,0.00000,0.00000,0.00000,0.00000,A,145159.60
1.00453,57.68835467,11.97941950,57.68834050,11.97943450,14:51:59.811648,0.03012,0.00000,0.00000,-0.09394,0.00020,-0.00411,-0.00603,0.00058,-0.05106,-0.11791,0.99198,0.97422,0.00000,-0.00012,0.00000,0.00000,0.00000,0.99236,0.00000,0.00000,0.00000,0.00000,A,145159.70
1.02319,57.68835467,11.97941950,57.68834050,11.97943450,14:51:59.830228,0.00782,0.00000,0.00000,-0.09498,0.00020,-0.00457,-0.00054,0.00134,-0.05008,-0.11840,0.99223,1.01769,0.00000,-0.00012,0.00000,0.00000,0.00000,0.99236,0.00000,0.00000,0.00000,0.00000,A,145159.70
1.03152,57.68835467,11.97941950,57.68834050,11.97943450,14:51:59.838322,0.00576,0.00000,0.00000,-0.09579,0.00020,-0.00014,-0.00344,-0.00079,-0.05039,-0.11749,0.99265,1.02562,0.00000,-0.00012,0.00000,0.00000,0.00000,0.99236,0.00000,0.00000,0.00000,0.00000,A,145159.70
1.04141,57.68835467,11.97941950,57.68834050,11.97943450,14:51:59.848194,0.00541,0.00000,0.00000,-0.09662,0.00020,-0.00182,0.00114,0.00165,-0.05106,-0.11810,0.98948,1.03574,0.00000,-0.00012,0.00000,0.00000,0.00000,0.99236,0.00000,0.00000,0.00000,0.00000,A,145159.70
1.05254,57.68835467,11.97941950,57.68834050,11.97943450,14:51:59.859332,0.00609,0.00000,0.00000,-0.09738,0.00020,0.00368,-0.00252,0.00241,-0.05295,-0.11822,0.99229,1.04678,0.00000,-0.00012,0.00000,0.00000,0.00000,0.99236,0.00000,0.00000,0.00000,0.00000,A,145159.70
1.06203,57.68835467,11.97941950,57.68834050,11.97943450,14:51:59.868812,0.00516,0.00000,0.00000,-0.09816,0.00020,0.00062,-0.00084,-0.00003,-0.05228,-0.11877,0.99186,1.05659,0.00000,-0.00012,0.00000,0.00000,0.00000,0.99236,0.00000,0.00000,0.00000,0.00000,A,145159.70
1.07354,57.68835467,11.97941950,57.68834050,11.97943450,14:51:59.880324,0.00609,0.00000,0.00000,-0.09890,0.00020,0.00276,-0.00069,0.00165,-0.05014,-0.11761,0.99320,1.06701,0.00000,-0.00012,0.00000,0.00000,0.00000,0.99236,0.00000,0.00000,0.00000,0.00000,A,145159.70
1.08379,57.68835467,11.97941950,57.68834050,11.97943450,14:51:59.890588,0.00568,0.00000,0.00000,-0.09961,0.00020,0.00414,-0.00237,0.00134,-0.05014,-0.11767,0.99003,1.07811,0.00000,-0.00012,0.00000,0.00000,0.00000,0.99236,0.00000,0.00000,0.00000,0.00000,A,145159.70
1.11334,57.68835467,11.97941950,57.68833783,11.97943800,14:51:59.920168,0.02483,0.00000,0.00000,-0.10036,0.00020,0.00230,-0.00359,0.00165,-0.05026,-0.11932,0.99155,1.08806,0.00000,-0.00012,0.00000,0.00000,0.00000,1.10648,0.00000,0.00000,0.00000,0.00000,A,145159.80
1.13401,57.68835467,11.97941950,57.68833783,11.97943800,14:51:59.940803,0.00746,0.00000,0.00000,-0.10097,0.00020,0.00337,-0.00298,0.00027,-0.05240,-0.11883,0.99210,1.12818,0.00000,-0.00012,0.00000,0.00000,0.00000,1.10648,0.00000,0.00000,0.00000,0.00000,A,145159.80
1.14229,57.68835467,11.97941950,57.68833783,11.97943800,14:51:59.949082,0.00534,0.00000,0.00000,-0.10169,0.00020,0.00200,-0.00191,0.00058,-0.05185,-0.11791,0.98899,1.13686,0.00000,-0.00012,0.00000,0.00000,0.00000,1.10648,0.00000,0.00000,0.00000,0.00000,A,145159.80
1.15279,57.68835467,11.97941950,57.68833783,11.97943800,14:51:59.959578,0.00529,0.00000,0.00000,-0.10234,0.00020,0.00337,-0.00038,0.00333,-0.05179,-0.11547,0.99027,1.14706,0.00000,-0.00012,0.00000,0.00000,0.00000,1.10648,0.00000,0.00000,0.00000,0.00000,A,145159.80
1.16405,57.68835467,11.97941950,57.68833783,11.97943800,14:51:59.970838,0.00614,0.00000,0.00000,-0.10298,0.00020,0.00734,-0.00115,0.00150,-0.05258,-0.11901,0.99454,1.15768,0.00000,-0.00012,0.00000,0.00000,0.00000,1.10648,0.00000,0.00000,0.00000,0.00000,A,145159.80
1.17406,57.68835467,11.97941950,57.68833783,11.97943800,14:51:59.980854,0.00575,0.00000,0.00000,-0.10358,0.00020,0.00673,0.00313,0.00257,-0.04965,-0.11645,0.99271,1.16862,0.00000,-0.00012,0.00000,0.00000,0.00000,1.10648,0.00000,0.00000,0.00000,0.00000,A,145159.80
1.18421,57.68835467,11.97941950,57.68833783,11.97943800,14:51:59.990991,0.00550,0.00000,0.00000,-0.10420,0.00020,0.00627,0.00023,-0.00141,-0.04935,-0.11700,0.99058,1.17848,0.00000,-0.00012,0.00000,0.00000,0.00000,1.10648,0.00000,0.00000,0.00000,0.00000,A,145159.80
1.19474,57.68835467,11.97941950,57.68833783,11.97943800,14:52:00.001533,0.00563,0.00000,0.00000,-0.10482,0.00020,0.00582,-0.00191,0.00226,-0.04898,-0.11773,0.99247,1.18886,0.00000,-0.00012,0.00000,0.00000,0.00000,1.10648,0.00000,0.00000,0.00000,0.00000,A,145159.80
1.20494,57.68835467,11.97941950,57.68833783,11.97943800,14:52:00.011728,0.00528,0.00000,0.00000,-0.10537,0.00020,0.00841,-0.00252,0.00012,-0.05008,-0.11572,0.99204,1.19922,0.00000,-0.00012,0.00000,0.00000,0.00000,1.10648,0.00000,0.00000,0.00000,0.00000,A,145159.80
1.23644,57.68835467,11.97941950,57.68833833,11.97943817,14:52:00.043241,0.02638,0.00000,0.00000,-0.10597,0.00020,0.00414,-0.00069,0.00027,-0.04965,-0.11712,0.99338,1.20983,0.00000,-0.00012,0.00000,0.00000,0.00000,1.22850,0.00000,0.00000,0.00000,0.00000,A,145159.90
1.25241,57.68835467,11.97941950,57.68833833,11.97943817,14:52:00.059197,0.00754,0.00000,0.00000,-0.10649,0.00020,0.00307,-0.00176,0.00195,-0.05167,-0.11621,0.99247,1.24621,0.00000,-0.00012,0.00000,0.00000,0.00000,1.22850,0.00000,0.00000,0.00000,0.00000,A,145159.90
1.26079,57.68835467,11.97941950,57.68833833,11.97943817,14:52:00.067926,0.00530,0.00000,0.00000,-0.10712,0.00020,0.00108,-0.00298,-0.00186,-0.04904,-0.11804,0.99332,1.25507,0.00000,-0.00012,0.00000,0.00000,0.00000,1.22850,0.00000,0.00000,0.00000,0.00000,A,145159.90
1.27178,57.68835467,11.97941950,57.68833833,11.97943817,14:52:00.078584,0.00589,0.00000,0.00000,-0.10777,0.00020,-0.00121,-0.00390,0.00394,-0.05112,-0.11779,0.99204,1.26587,0.00000,-0.00012,0.00000,0.00000,0.00000,1.22850,0.00000,0.00000,0.00000,0.00000,A,145159.90
1.28150,57.68835467,11.97941950,57.68833833,11.97943817,14:52:00.088288,0.00521,0.00000,0.00000,-0.10834,0.00020,0.00307,-0.00023,0.00119,-0.05112,-0.11663,0.99308,1.27582,0.00000,-0.00012,0.00000,0.00000,0.00000,1.22850,0.00000,0.00000,0.00000,0.00000,A,145159.90
1.29282,57.68835467,11.97941950,57.68833833,11.97943817,14:52:00.099611,0.00614,0.00000,0.00000,-0.10896,0.00020,-0.00197,0.00069,0.00241,-0.05209,-0.11675,0.99131,1.28645,0.00000,-0.00012,0.00000,0.00000,0.00000,1.22850,0.00000,0.00000,0.00000,0.00000,A,145159.90
1.30225,57.68835467,11.97941950,57.68833833,11.97943817,14:52:00.109039,0.00517,0.00000,0.00000,-0.10960,0.00020,-0.00594,0.00130,-0.00293,-0.05124,-0.11590,0.99192,1.29681,0.00000,-0.00012,0.00000,0.00000,0.00000,1.22850,0.00000,0.00000,0.00000,0.00000,A,145159.90
1.31297,57.68835467,11.97941950,57.68833833,11.97943817,14:52:00.119756,0.00529,0.00000,0.00000,-0.11020,0.00020,-0.00442,-0.00191,-0.00034,-0.04978,-0.11560,0.99509,1.30725,0.00000,-0.00012,0.00000,0.00000,0.00000,1.22850,0.00000,0.00000,0.00000,0.00000,A,145159.90
1.32350,57.68835467,11.97941950,57.68833833,11.97943817,14:52:00.130295,0.00542,0.00000,0.00000,-0.11082,0.00020,-0.00396,0.00313,0.00073,-0.05100,-0.11688,0.99174,1.31784,0.00000,-0.00012,0.00000,0.00000,0.00000,1.22850,0.00000,0.00000,0.00000,0.00000,A,145159.90
1.36298,57.68835467,11.97941950,57.68833817,11.97943917,14:52:00.169781,0.03450,0.00000,0.00000,-0.11142,0.00020,-0.00411,0.00237,-0.00095,-0.05197,-0.11651,0.99296,1.32803,0.00000,-0.00012,0.00000,0.00000,0.00000,1.35665,0.00000,0.00000,0.00000,0.00000,A,145200.10
1.37425,57.68835467,11.97941950,57.68833817,11.97943917,14:52:00.181038,0.00531,0.00000,0.00000,-0.11231,0.00020,-0.00839,0.00191,-0.00247,-0.05246,-0.11651,0.99131,1.36880,0.00000,-0.00012,0.00000,0.00000,0.00000,1.35665,0.00000,0.00000,0.00000,0.00000,A,145200.10
1.38585,57.68835467,11.97941950,57.68833817,11.97943917,14:52:00.192636,0.00591,0.00000,0.00000,-0.11294,0.00020,-0.00686,-0.00099,-0.00095,-0.05039,-0.11834,0.99528,1.37961,0.00000,-0.00012,0.00000,0.00000,0.00000,1.35665,0.00000,0.00000,0.00000,0.00000,A,145200.10
1.39575,57.68835467,11.97941950,57.68833817,11.97943917,14:52:00.202547,0.00542,0.00000,0.00000,-0.11356,0.00020,-0.00503,0.00130,-0.00049,-0.04984,-0.11950,0.99082,1.39010,0.00000,-0.00012,0.00000,0.00000,0.00000,1.35665,0.00000,0.00000,0.00000,0.00000,A,145200.10
1.40590,57.68835467,11.97941950,57.68833817,11.97943917,14:52:00.212688,0.00516,0.00000,0.00000,-0.11417,0.00020,-0.00778,-0.00206,0.00012,-0.05155,-0.11761,0.99174,1.40028,0.00000,-0.00012,0.00000,0.00000,0.00000,1.35665,0.00000,0.00000,0.00000,0.00000,A,145200.10
1.41671,57.68835467,11.97941950,57.68833817,11.97943917,14:52:00.223496,0.00557,0.00000,0.00000,-0.11470,0.00020,-0.00151,-0.00115,-0.00003,-0.05374,-0.11706,0.99595,1.41097,0.00000,-0.00012,0.00000,0.00000,0.00000,1.35665,0.00000,0.00000,0.00000,0.00000,A,145200.10
1.42984,57.68835467,11.97941950,57.68833817,11.97943917,14:52:00.236956,0.00830,0.00000,0.00000,-0.11520,0.00020,-0.00182,0.00069,0.00211,-0.05081,-0.11517,0.99363,1.42130,0.00000,-0.00012,0.00000,0.00000,0.00000,1.35665,0.00000,0.00000,0.00000,0.00000,A,145200.10
1.43851,57.68835467,11.97941950,57.68833817,11.97943917,14:52:00.245295,0.00689,0.00000,0.00000,-0.11570,0.00020,0.00169,0.00023,-0.00064,-0.05264,-0.11871,0.99357,1.43207,0.00000,-0.00012,0.00000,0.00000,0.00000,1.35665,0.00000,0.00000,0.00000,0.00000,A,145200.10
1.44810,57.68835467,11.97941950,57.68833817,11.97943917,14:52:00.254890,0.00608,0.00000,0.00000,-0.11622,0.00020,-0.00350,-0.00160,-0.00095,-0.05081,-0.11657,0.99094,1.44235,0.00000,-0.00012,0.00000,0.00000,0.00000,1.35665,0.00000,0.00000,0.00000,0.00000,A,145200.10
1.48106,57.68835467,11.97941950,57.68833900,11.97943683,14:52:00.287883,0.02865,0.00000,0.00000,-0.11672,0.00020,-0.00274,0.00023,0.00073,-0.05179,-0.11633,0.99467,1.45195,0.00000,-0.00012,0.00000,0.00000,0.00000,1.47077,0.00000,0.00000,0.00000,0.00000,A,145200.20
1.49615,57.68835467,11.97941950,57.68833900,11.97943683,14:52:00.302944,0.00788,0.00000,0.00000,-0.11728,0.00020,-0.00182,-0.00099,-0.00125,-0.04959,-0.11828,0.99247,1.48979,0.00000,-0.00012,0.00000,0.00000,0.00000,1.47077,0.00000,0.00000,0.00000,0.00000,A,145200.20
1.50419,57.68835467,11.97941950,57.68833900,11.97943683,14:52:00.310976,0.00551,0.00000,0.00000,-0.11777,0.00020,0.00185,-0.00099,-0.00079,-0.05087,-0.11883,0.99155,1.49845,0.00000,-0.00012,0.00000,0.00000,0.00000,1.47077,0.00000,0.00000,0.00000,0.00000,A,145200.20
1.51422,57.68835467,11.97941950,57.68833900,11.97943683,14:52:00.321007,0.00515,0.00000,0.00000,-0.11819,0.00020,0.00261,-0.00023,0.00211,-0.05106,-0.11669,0.99253,1.50879,0.00000,-0.00012,0.00000,0.00000,0.00000,1.47077,0.00000,0.00000,0.00000,0.00000,A,145200.20
1.52540,57.68835467,11.97941950,57.68833900,11.97943683,14:52:00.332190,0.00552,0.00000,0.00000,-0.11865,0.00020,0.00001,0.00191,0.00226,-0.05112,-0.11694,0.99094,1.51970,0.00000,-0.00012,0.00000,0.00000,0.00000,1.47077,0.00000,0.00000,0.00000,0.00000,A,145200.20
1.53677,57.68835467,11.97941950,57.68833900,11.97943683,14:52:00.343565,0.00649,0.00000,0.00000,-0.11908,0.00020,0.00398,-0.00023,0.00257,-0.05014,-0.11822,0.99223,1.53020,0.00000,-0.00012,0.00000,0.00000,0.00000,1.47077,0.00000,0.00000,0.00000,0.00000,A,145200.20
1.54585,57.68835467,11.97941950,57.68833900,11.97943683,14:52:00.352642,0.00517,0.00000,0.00000,-0.11948,0.00020,0.00352,0.00023,-0.00018,-0.05344,-0.11682,0.99277,1.54023,0.00000,-0.00012,0.00000,0.00000,0.00000,1.47077,0.00000,0.00000,0.00000,0.00000,A,145200.20
1.55657,57.68835467,11.97941950,57.68833900,11.97943683,14:52:00.363357,0.00548,0.00000,0.00000,-0.11983,0.00020,0.01009,-0.00023,0.00073,-0.05008,-0.11779,0.98960,1.55085,0.00000,-0.00012,0.00000,0.00000,0.00000,1.47077,0.00000,0.00000,0.00000,0.00000,A,145200.20
1.56694,57.68835467,11.97941950,57.68833900,11.97943683,14:52:00.373741,0.00544,0.00000,0.00000,-0.12021,0.00020,0.00627,0.00053,-0.00263,-0.04978,-0.11852,0.99253,1.56124,0.00000,-0.00012,0.00000,0.00000,0.00000,1.47077,0.00000,0.00000,0.00000,0.00000,A,145200.20
1.59847,57.68835467,11.97941950,57.68833700,11.97943833,14:52:00.405585,0.02673,0.00000,0.00000,-0.12064,0.00020,0.00185,-0.00038,0.00150,-0.05136,-0.11791,0.98991,1.57131,0.00000,-0.00012,0.00000,0.00000,0.00000,1.59001,0.00000,0.00000,0.00000,0.00000,A,145200.30
1.61810,57.68835467,11.97941950,57.68833700,11.97943833,14:52:00.424883,0.00708,0.00000,0.00000,-0.12101,0.00020,0.00169,-0.00054,0.00089,-0.04941,-0.11871,0.99308,1.61264,0.00000,-0.00012,0.00000,0.00000,0.00000,1.59001,0.00000,0.00000,0.00000,0.00000,A,145200.30
1.62650,57.68835467,11.97941950,57.68833700,11.97943833,14:52:00.433280,0.00507,0.00000,0.00000,-0.12138,0.00020,0.00459,-0.00252,-0.00079,-0.05020,-0.11694,0.99387,1.62108,0.00000,-0.00012,0.00000,0.00000,0.00000,1.59001,0.00000,0.00000,0.00000,0.00000,A,145200.30
1.63715,57.68835467,11.97941950,57.68833700,11.97943833,14:52:00.443938,0.00547,0.00000,0.00000,-0.12182,0.00020,0.00001,0.00053,-0.00538,-0.05142,-0.11925,0.99198,1.63136,0.00000,-0.00012,0.00000,0.00000,0.00000,1.59001,0.00000,0.00000,0.00000,0.00000,A,145200.30
1.64750,57.68835467,11.97941950,57.68833700,11.97943833,14:52:00.454290,0.00541,0.00000,0.00000,-0.12220,0.00020,0.00291,0.00023,-0.00202,-0.05185,-0.11730,0.99180,1.64184,0.00000,-0.00012,0.00000,0.00000,0.00000,1.59001,0.00000,0.00000,0.00000,0.00000,A,145200.30
1.65842,57.68835467,11.97941950,57.68833700,11.97943833,14:52:00.465204,0.00593,0.00000,0.00000,-0.12254,0.00020,0.00414,-0.00237,-0.00309,-0.04770,-0.11608,0.99271,1.65203,0.00000,-0.00012,0.00000,0.00000,0.00000,1.59001,0.00000,0.00000,0.00000,0.00000,A,145200.30
1.66870,57.68835467,11.97941950,57.68833700,11.97943833,14:52:00.475492,0.00582,0.00000,0.00000,-0.12292,0.00020,0.00032,-0.00054,0.00241,-0.05014,-0.11706,0.99564,1.66264,0.00000,-0.00012,0.00000,0.00000,0.00000,1.59001,0.00000,0.00000,0.00000,0.00000,A,145200.30
1.67845,57.68835467,11.97941950,57.68833700,11.97943833,14:52:00.485239,0.00517,0.00000,0.00000,-0.12329,0.00020,0.00108,-0.00206,0.00073,-0.04770,-0.11675,0.99204,1.67303,0.00000,-0.00012,0.00000,0.00000,0.00000,1.59001,0.00000,0.00000,0.00000,0.00000,A,145200.30
1.68946,57.68835467,11.97941950,57.68833700,11.97943833,14:52:00.496250,0.00538,0.00000,0.00000,-0.12367,0.00020,-0.00045,0.00099,0.00195,-0.05191,-0.11694,0.99442,1.68373,0.00000,-0.00012,0.00000,0.00000,0.00000,1.59001,0.00000,0.00000,0.00000,0.00000,A,145200.30
1.71895,57.68835467,11.97941950,57.68833383,11.97944083,14:52:00.525749,0.02446,0.00000,0.00000,-0.12407,0.00020,-0.00167,-0.00390,-0.00141,-0.05203,-0.11816,0.99430,1.69426,0.00000,-0.00012,0.00000,0.00000,0.00000,1.71291,0.00000,0.00000,0.00000,0.00000,A,145200.40
1.73501,57.68835467,11.97941950,57.68833383,11.97944083,14:52:00.542245,0.00821,0.00000,0.00000,-0.12450,0.00020,-0.00213,-0.00054,0.00012,-0.05033,-0.11639,0.99351,1.72887,0.00000,-0.00012,0.00000,0.00000,0.00000,1.71291,0.00000,0.00000,0.00000,0.00000,A,145200.40
1.74249,57.68835467,11.97941950,57.68833383,11.97944083,14:52:00.549284,0.00530,0.00000,0.00000,-0.12484,0.00020,0.00276,-0.00252,0.00012,-0.04849,-0.11718,0.99119,1.73705,0.00000,-0.00012,0.00000,0.00000,0.00000,1.71291,0.00000,0.00000,0.00000,0.00000,A,145200.40
1.75296,57.68835467,11.97941950,57.68833383,11.97944083,14:52:00.559746,0.00529,0.00000,0.00000,-0.12523,0.00020,-0.00197,0.00099,0.00195,-0.04953,-0.11804,0.99363,1.74724,0.00000,-0.00012,0.00000,0.00000,0.00000,1.71291,0.00000,0.00000,0.00000,0.00000,A,145200.40
1.76419,57.68835467,11.97941950,57.68833383,11.97944083,14:52:00.570981,0.00612,0.00000,0.00000,-0.12562,0.00020,-0.00503,-0.00084,0.00119,-0.04935,-0.11669,0.99357,1.75783,0.00000,-0.00012,0.00000,0.00000,0.00000,1.71291,0.00000,0.00000,0.00000,0.00000,A,145200.40
1.77368,57.68835467,11.97941950,57.68833383,11.97944083,14:52:00.580468,0.00521,0.00000,0.00000,-0.12602,0.00020,-0.00549,0.00282,0.00272,-0.05057,-0.11706,0.99186,1.76802,0.00000,-0.00012,0.00000,0.00000,0.00000,1.71291,0.00000,0.00000,0.00000,0.00000,A,145200.40
1.78442,57.68835467,11.97941950,57.68833383,11.97944083,14:52:00.591207,0.00552,0.00000,0.00000,-0.12643,0.00020,-0.00640,0.00206,-0.00125,-0.05203,-0.11718,0.99198,1.77870,0.00000,-0.00012,0.00000,0.00000,0.00000,1.71291,0.00000,0.00000,0.00000,0.00000,A,145200.40
1.79447,57.68835467,11.97941950,57.68833383,11.97944083,14:52:00.601256,0.00517,0.00000,0.00000,-0.12681,0.00020,-0.00381,0.00405,0.00089,-0.05209,-0.11755,0.99229,1.78905,0.00000,-0.00012,0.00000,0.00000,0.00000,1.71291,0.00000,0.00000,0.00000,0.00000,A,145200.40
1.80495,57.68835467,11.97941950,57.68833383,11.97944083,14:52:00.611741,0.00528,0.00000,0.00000,-0.12716,0.00020,-0.00197,0.00130,-0.00003,-0.05094,-0.11718,0.99210,1.79924,0.00000,-0.00012,0.00000,0.00000,0.00000,1.71291,0.00000,0.00000,0.00000,0.00000,A,145200.40
1.84039,57.68835467,11.97941950,57.68833217,11.97943900,14:52:00.647227,0.03033,0.00000,0.00000,-0.12749,0.00020,-0.00304,-0.00084,0.00104,-0.05209,-0.11584,0.99271,1.80998,0.00000,-0.00012,0.00000,0.00000,0.00000,1.82831,0.00000,0.00000,0.00000,0.00000,A,145200.50
1.86003,57.68835467,11.97941950,57.68833217,11.97943900,14:52:00.666826,0.00770,0.00000,0.00000,-0.12785,0.00020,-0.00014,0.00649,-0.00095,-0.05209,-0.11895,0.99143,1.85327,0.00000,-0.00012,0.00000,0.00000,0.00000,1.82831,0.00000,0.00000,0.00000,0.00000,A,145200.50
1.86858,57.68835467,11.97941950,57.68833217,11.97943900,14:52:00.675374,0.00584,0.00000,0.00000,-0.12816,0.00020,0.00246,0.00084,-0.00018,-0.04978,-0.11889,0.99259,1.86259,0.00000,-0.00012,0.00000,0.00000,0.00000,1.82831,0.00000,0.00000,0.00000,0.00000,A,145200.50
1.87863,57.68835467,11.97941950,57.68833217,11.97943900,14:52:00.685693,0.00564,0.00000,0.00000,-0.12848,0.00020,-0.00182,-0.00130,0.00043,-0.05179,-0.11669,0.99436,1.87280,0.00000,-0.00012,0.00000,0.00000,0.00000,1.82831,0.00000,0.00000,0.00000,0.00000,A,145200.50
1.88882,57.68835467,11.97941950,57.68833217,11.97943900,14:52:00.695601,0.00527,0.00000,0.00000,-0.12874,0.00020,0.00368,-0.00008,-0.00095,-0.04910,-0.11724,0.99149,1.88311,0.00000,-0.00012,0.00000,0.00000,0.00000,1.82831,0.00000,0.00000,0.00000,0.00000,A,145200.50
1.89912,57.68835467,11.97941950,57.68833217,11.97943900,14:52:00.706161,0.00517,0.00000,0.00000,-0.12905,0.00020,-0.00319,0.00099,-0.00034,-0.04837,-0.11529,0.99399,1.89371,0.00000,-0.00012,0.00000,0.00000,0.00000,1.82831,0.00000,0.00000,0.00000,0.00000,A,145200.50
1.90956,57.68835467,11.97941950,57.68833217,11.97943900,14:52:00.716342,0.00520,0.00000,0.00000,-0.12930,0.00020,0.00719,-0.00206,-0.00156,-0.04807,-0.11913,0.99192,1.90389,0.00000,-0.00012,0.00000,0.00000,0.00000,1.82831,0.00000,0.00000,0.00000,0.00000,A,145200.50
1.92026,57.68835467,11.97941950,57.68833217,11.97943900,14:52:00.727053,0.00551,0.00000,0.00000,-0.12956,0.00020,0.00383,0.00160,-0.00278,-0.04819,-0.11773,0.99088,1.91452,0.00000,-0.00012,0.00000,0.00000,0.00000,1.82831,0.00000,0.00000,0.00000,0.00000,A,145200.50
1.96122,57.68835467,11.97941950,57.68833067,11.97943433,14:52:00.768033,0.03607,0.00000,0.00000,-0.12985,0.00020,0.00108,-0.00206,0.00165,-0.04990,-0.11779,0.99082,1.92490,0.00000,-0.00012,0.00000,0.00000,0.00000,1.95322,0.00000,0.00000,0.00000,0.00000,A,145200.70
1.97754,57.68835467,11.97941950,57.68833067,11.97943433,14:52:00.784327,0.00707,0.00000,0.00000,-0.12998,0.00020,0.00368,0.00069,0.00257,-0.05313,-0.11816,0.99210,1.97151,0.00000,-0.00012,0.00000,0.00000,0.00000,1.95322,0.00000,0.00000,0.00000,0.00000,A,145200.70
1.98652,57.68835467,11.97941950,57.68833067,11.97943433,14:52:00.793307,0.00538,0.00000,0.00000,-0.13024,0.00020,0.00246,0.00008,-0.00385,-0.05026,-0.11767,0.99430,1.98108,0.00000,-0.00012,0.00000,0.00000,0.00000,1.95322,0.00000,0.00000,0.00000,0.00000,A,145200.70
1.99696,57.68835467,11.97941950,57.68833067,11.97943433,14:52:00.803745,0.00530,0.00000,0.00000,-0.13047,0.00020,0.00658,-0.00023,-0.00263,-0.05392,-0.11822,0.99046,1.99124,0.00000,-0.00012,0.00000,0.00000,0.00000,1.95322,0.00000,0.00000,0.00000,0.00000,A,145200.70
2.00755,57.68835467,11.97941950,57.68833067,11.97943433,14:52:00.814346,0.00547,0.00000,0.00000,-0.13070,0.00020,0.00459,-0.00283,0.00043,-0.05197,-0.11773,0.99284,2.00190,0.00000,-0.00012,0.00000,0.00000,0.00000,1.95322,0.00000,0.00000,0.00000,0.00000,A,145200.70
2.02068,57.68835467,11.97941950,57.68833067,11.97943433,14:52:00.827510,0.00820,0.00000,0.00000,-0.13092,0.00020,0.00230,-0.00069,-0.00125,-0.05258,-0.11517,0.99241,2.01201,0.00000,-0.00012,0.00000,0.00000,0.00000,1.95322,0.00000,0.00000,0.00000,0.00000,A,145200.70
2.02914,57.68835467,11.97941950,57.68833067,11.97943433,14:52:00.835927,0.00626,0.00000,0.00000,-0.13112,0.00020,0.00246,-0.00130,0.00027,-0.05356,-0.11499,0.99393,2.02339,0.00000,-0.00012,0.00000,0.00000,0.00000,1.95322,0.00000,0.00000,0.00000,0.00000,A,145200.70
2.03833,57.68835467,11.97941950,57.68833067,11.97943433,14:52:00.845114,0.00521,0.00000,0.00000,-0.13130,0.00020,0.00750,-0.00298,-0.00324,-0.04868,-0.11608,0.99326,2.03289,0.00000,-0.00012,0.00000,0.00000,0.00000,1.95322,0.00000,0.00000,0.00000,0.00000,A,145200.70
2.04896,57.68835467,11.97941950,57.68833067,11.97943433,14:52:00.855744,0.00530,0.00000,0.00000,-0.13154,0.00020,0.00062,-0.00527,0.00043,-0.05234,-0.11663,0.99168,2.04323,0.00000,-0.00012,0.00000,0.00000,0.00000,1.95322,0.00000,0.00000,0.00000,0.00000,A,145200.70
2.08296,57.68835467,11.97941950,57.68833317,11.97942550,14:52:00.889765,0.02890,0.00000,0.00000,-0.13177,0.00020,0.00062,-0.00222,0.00104,-0.05252,-0.11535,0.99363,2.05384,0.00000,-0.00012,0.00000,0.00000,0.00000,2.07262,0.00000,0.00000,0.00000,0.00000,A,145200.80
2.10265,57.68835467,11.97941950,57.68833317,11.97942550,14:52:00.909439,0.00638,0.00000,0.00000,-0.13208,0.00020,-0.00182,0.00145,0.00241,-0.04892,-0.11596,0.99235,2.09719,0.00000,-0.00012,0.00000,0.00000,0.00000,2.07262,0.00000,0.00000,0.00000,0.00000,A,145200.80
2.11218,57.68835467,11.97941950,57.68833317,11.97942550,14:52:00.918971,0.00550,0.00000,0.00000,-0.13230,0.00020,-0.00213,-0.00527,0.00134,-0.05063,-0.11407,0.99015,2.10644,0.00000,-0.00012,0.00000,0.00000,0.00000,2.07262,0.00000,0.00000,0.00000,0.00000,A,145200.80
2.12224,57.68835467,11.97941950,57.68833317,11.97942550,14:52:00.929024,0.00516,0.00000,0.00000,-0.13258,0.00020,-0.00213,-0.00176,-0.00018,-0.05008,-0.11816,0.99399,2.11681,0.00000,-0.00012,0.00000,0.00000,0.00000,2.07262,0.00000,0.00000,0.00000,0.00000,A,145200.80
2.13326,57.68835467,11.97941950,57.68833317,11.97942550,14:52:00.940041,0.00561,0.00000,0.00000,-0.13278,0.00020,0.00108,0.00084,-0.00186,-0.04862,-0.11529,0.99314,2.12719,0.00000,-0.00012,0.00000,0.00000,0.00000,2.07262,0.00000,0.00000,0.00000,0.00000,A,145200.80
2.14369,57.68835467,11.97941950,57.68833317,11.97942550,14:52:00.950487,0.00565,0.00000,0.00000,-0.13302,0.00020,-0.00014,0.00114,-0.00018,-0.05148,-0.11657,0.98918,2.13802,0.00000,-0.00012,0.00000,0.00000,0.00000,2.07262,0.00000,0.00000,0.00000,0.00000,A,145200.80
2.15367,57.68835467,11.97941950,57.68833317,11.97942550,14:52:00.960450,0.00522,0.00000,0.00000,-0.13329,0.00020,-0.00213,-0.00206,-0.00049,-0.04837,-0.11797,0.99265,2.14798,0.00000,-0.00012,0.00000,0.00000,0.00000,2.07262,0.00000,0.00000,0.00000,0.00000,A,145200.80
2.16431,57.68835467,11.97941950,57.68833317,11.97942550,14:52:00.971103,0.00546,0.00000,0.00000,-0.13355,0.00020,-0.00121,0.00069,0.00211,-0.05033,-0.11822,0.99113,2.15861,0.00000,-0.00012,0.00000,0.00000,0.00000,2.07262,0.00000,0.00000,0.00000,0.00000,A,145200.80
2.20168,57.68835467,11.97941950,57.68833700,11.97941583,14:52:01.008496,0.03244,0.00000,0.00000,-0.13369,0.00020,0.00490,0.00023,0.00104,-0.05063,-0.11517,0.99546,2.16900,0.00000,-0.00012,0.00000,0.00000,0.00000,2.18900,0.00000,0.00000,0.00000,0.00000,A,145200.90
2.21899,57.68835467,11.97941950,57.68833700,11.97941583,14:52:01.025781,0.00693,0.00000,0.00000,-0.13398,0.00020,-0.00182,0.00114,-0.00095,-0.05112,-0.11566,0.99107,2.21353,0.00000,-0.00012,0.00000,0.00000,0.00000,2.18900,0.00000,0.00000,0.00000,0.00000,A,145200.90
2.22854,57.68835467,11.97941950,57.68833700,11.97941583,14:52:01.035332,0.00607,0.00000,0.00000,-0.13423,0.00020,-0.00243,-0.00054,-0.00125,-0.05185,-0.11804,0.99393,2.22279,0.00000,-0.00012,0.00000,0.00000,0.00000,2.18900,0.00000,0.00000,0.00000,0.00000,A,145200.90
2.23897,57.68835467,11.97941950,57.68833700,11.97941583,14:52:01.045758,0.00610,0.00000,0.00000,-0.13443,0.00020,0.00093,-0.00054,-0.00003,-0.05094,-0.11682,0.99399,2.23280,0.00000,-0.00012,0.00000,0.00000,0.00000,2.18900,0.00000,0.00000,0.00000,0.00000,A,145200.90
2.24888,57.68835467,11.97941950,57.68833700,11.97941583,14:52:01.055658,0.00543,0.00000,0.00000,-0.13463,0.00020,-0.00121,-0.00191,-0.00263,-0.05014,-0.11566,0.99357,2.24315,0.00000,-0.00012,0.00000,0.00000,0.00000,2.18900,0.00000,0.00000,0.00000,0.00000,A,145200.90
2.25905,57.68835467,11.97941950,57.68833700,11.97941583,14:52:01.066069,0.00520,0.00000,0.00000,-0.13491,0.00020,-0.00701,0.00008,0.00257,-0.04929,-0.11724,0.99241,2.25362,0.00000,-0.00012,0.00000,0.00000,0.00000,2.18900,0.00000,0.00000,0.00000,0.00000,A,145200.90
2.26964,57.68835467,11.97941950,57.68833700,11.97941583,14:52:01.076433,0.00556,0.00000,0.00000,-0.13516,0.00020,-0.00426,0.00145,0.00211,-0.05051,-0.11682,0.99241,2.26368,0.00000,-0.00012,0.00000,0.00000,0.00000,2.18900,0.00000,0.00000,0.00000,0.00000,A,145200.90
2.27996,57.68835467,11.97941950,57.68833700,11.97941583,14:52:01.086750,0.00548,0.00000,0.00000,-0.13541,0.00020,-0.00289,-0.00267,-0.00156,-0.05289,-0.11834,0.98936,2.27428,0.00000,-0.00012,0.00000,0.00000,0.00000,2.18900,0.00000,0.00000,0.00000,0.00000,A,145200.90
2.31718,57.68835467,11.97941950,57.68833950,11.97940883,14:52:01.124577,0.03229,0.00000,0.00000,-0.13564,0.00020,-0.00274,0.00053,0.00165,-0.05362,-0.11743,0.99253,2.28489,0.00000,-0.00012,0.00000,0.00000,0.00000,2.30388,0.00000,0.00000,0.00000,0.00000,A,145201.00
2.33567,57.68835467,11.97941950,57.68833950,11.97940883,14:52:01.142476,0.00684,0.00000,0.00000,-0.13587,0.00020,-0.00029,-0.00054,-0.00049,-0.04898,-0.11791,0.99094,2.32974,0.00000,-0.00012,0.00000,0.00000,0.00000,2.30388,0.00000,0.00000,0.00000,0.00000,A,145201.00
2.34698,57.68835467,11.97941950,57.68833950,11.97940883,14:52:01.153767,0.00716,0.00000,0.00000,-0.13609,0.00020,-0.00228,-0.00038,-0.00156,-0.05069,-0.11773,0.99168,2.34100,0.00000,-0.00012,0.00000,0.00000,0.00000,2.30388,0.00000,0.00000,0.00000,0.00000,A,145201.00
2.35565,57.68835467,11.97941950,57.68833950,11.97940883,14:52:01.162455,0.00543,0.00000,0.00000,-0.13624,0.00020,0.00475,-0.00237,0.00180,-0.05081,-0.11706,0.99088,2.35000,0.00000,-0.00012,0.00000,0.00000,0.00000,2.30388,0.00000,0.00000,0.00000,0.00000,A,145201.00
2.36632,57.68835467,11.97941950,57.68833950,11.97940883,14:52:01.173368,0.00570,0.00000,0.00000,-0.13634,0.00020,0.00505,-0.00344,-0.00232,-0.05203,-0.11474,0.98966,2.36016,0.00000,-0.00012,0.00000,0.00000,0.00000,2.30388,0.00000,0.00000,0.00000,0.00000,A,145201.00
2.37713,57.68835467,11.97941950,57.68833950,11.97940883,14:52:01.183919,0.00610,0.00000,0.00000,-0.13650,0.00020,0.00169,-0.00313,-0.00232,-0.04904,-0.11621,0.99277,2.37110,0.00000,-0.00012,0.00000,0.00000,0.00000,2.30388,0.00000,0.00000,0.00000,0.00000,A,145201.00
2.38705,57.68835467,11.97941950,57.68833950,11.97940883,14:52:01.194093,0.00563,0.00000,0.00000,-0.13663,0.00020,0.00261,-0.00115,-0.00232,-0.04770,-0.11553,0.99168,2.38136,0.00000,-0.00012,0.00000,0.00000,0.00000,2.30388,0.00000,0.00000,0.00000,0.00000,A,145201.00
2.39700,57.68835467,11.97941950,57.68833950,11.97940883,14:52:01.203792,0.00534,0.00000,0.00000,-0.13675,0.00020,0.00368,-0.00252,-0.00110,-0.04764,-0.11560,0.99430,2.39127,0.00000,-0.00012,0.00000,0.00000,0.00000,2.30388,0.00000,0.00000,0.00000,0.00000,A,145201.00
2.43538,57.68835467,11.97941950,57.68834250,11.97940183,14:52:01.242942,0.03332,0.00000,0.00000,-0.13690,0.00020,0.00307,-0.00084,0.00089,-0.04917,-0.11822,0.99473,2.40237,0.00000,-0.00012,0.00000,0.00000,0.00000,2.42183,0.00000,0.00000,0.00000,0.00000,A,145201.10
2.45576,57.68835467,11.97941950,57.68834250,11.97940183,14:52:01.262556,0.00730,0.00000,0.00000,-0.13718,0.00020,-0.00274,-0.00054,-0.00064,-0.05033,-0.11529,0.99247,2.45005,0.00000,-0.00012,0.00000,0.00000,0.00000,2.42183,0.00000,0.00000,0.00000,0.00000,A,145201.10
2.46569,57.68835467,11.97941950,57.68834250,11.97940183,14:52:01.272474,0.00683,0.00000,0.00000,-0.13735,0.00020,-0.00029,0.00145,-0.00461,-0.05026,-0.11706,0.99235,2.45953,0.00000,-0.00012,0.00000,0.00000,0.00000,2.42183,0.00000,0.00000,0.00000,0.00000,A,145201.10
2.47471,57.68835467,11.97941950,57.68834250,11.97940183,14:52:01.281495,0.00545,0.00000,0.00000,-0.13750,0.00020,0.00154,-0.00191,0.00272,-0.05136,-0.11645,0.99399,2.46927,0.00000,-0.00012,0.00000,0.00000,0.00000,2.42183,0.00000,0.00000,0.00000,0.00000,A,145201.10
2.48496,57.68835467,11.97941950,57.68834250,11.97940183,14:52:01.291753,0.00530,0.00000,0.00000,-0.13764,0.00020,0.00230,-0.00160,-0.00064,-0.05057,-0.11669,0.99113,2.47924,0.00000,-0.00012,0.00000,0.00000,0.00000,2.42183,0.00000,0.00000,0.00000,0.00000,A,145201.10
2.49626,57.68835467,11.97941950,57.68834250,11.97940183,14:52:01.303054,0.00619,0.00000,0.00000,-0.13784,0.00020,-0.00258,0.00114,-0.00171,-0.05307,-0.11785,0.99168,2.48990,0.00000,-0.00012,0.00000,0.00000,0.00000,2.42183,0.00000,0.00000,0.00000,0.00000,A,145201.10
2.50565,57.68835467,11.97941950,57.68834250,11.97940183,14:52:01.312441,0.00519,0.00000,0.00000,-0.13803,0.00020,-0.00167,0.00206,-0.00034,-0.05203,-0.11791,0.99027,2.50001,0.00000,-0.00012,0.00000,0.00000,0.00000,2.42183,0.00000,0.00000,0.00000,0.00000,A,145201.10
2.51633,57.68835467,11.97941950,57.68834250,11.97940183,14:52:01.323116,0.00546,0.00000,0.00000,-0.13827,0.00020,-0.00610,0.00053,0.00302,-0.05374,-0.11761,0.99113,2.51062,0.00000,-0.00012,0.00000,0.00000,0.00000,2.42183,0.00000,0.00000,0.00000,0.00000,A,145201.10
2.56454,57.68835467,11.97941950,57.68834217,11.97939933,14:52:01.371354,0.04307,0.00000,0.00000,-0.13845,0.00020,-0.00381,0.00130,0.00165,-0.05057,-0.11621,0.99174,2.52147,0.00000,-0.00012,0.00000,0.00000,0.00000,2.55191,0.00000,0.00000,0.00000,0.00000,A,145201.30
2.58292,57.68835467,11.97941950,57.68834217,11.97939933,14:52:01.389707,0.00599,0.00000,0.00000,-0.13839,0.00020,0.00352,-0.00023,-0.00263,-0.04996,-0.11529,0.98966,2.57746,0.00000,-0.00012,0.00000,0.00000,0.00000,2.55191,0.00000,0.00000,0.00000,0.00000,A,145201.30
2.59280,57.68835467,11.97941950,57.68834217,11.97939933,14:52:01.399591,0.00529,0.00000,0.00000,-0.13857,0.00020,-0.00136,0.00099,-0.00049,-0.04557,-0.11828,0.99430,2.58707,0.00000,-0.00012,0.00000,0.00000,0.00000,2.55191,0.00000,0.00000,0.00000,0.00000,A,145201.30
2.60511,57.68835467,11.97941950,57.68834217,11.97939933,14:52:01.411902,0.00720,0.00000,0.00000,-0.13872,0.00020,-0.00182,0.00023,-0.00186,-0.04557,-0.11627,0.99314,2.59928,0.00000,-0.00012,0.00000,0.00000,0.00000,2.55191,0.00000,0.00000,0.00000,0.00000,A,145201.30
2.61356,57.68835467,11.97941950,57.68834217,11.97939933,14:52:01.420344,0.00523,0.00000,0.00000,-0.13892,0.00020,0.00230,0.00069,-0.00125,-0.04392,-0.12151,0.99216,2.60786,0.00000,-0.00012,0.00000,0.00000,0.00000,2.55191,0.00000,0.00000,0.00000,0.00000,A,145201.30
2.62573,57.68835467,11.97941950,57.68834217,11.97939933,14:52:01.432515,0.00700,0.00000,0.00000,-0.13889,0.00020,0.00520,-0.00145,-0.00186,-0.04264,-0.10882,0.98991,2.61849,0.00000,-0.00012,0.00000,0.00000,0.00000,2.55191,0.00000,0.00000,0.00000,0.00000,A,145201.30
2.63565,57.68835467,11.97941950,57.68834217,11.97939933,14:52:01.442449,0.00651,0.00000,0.00000,-0.13895,0.00020,0.00734,-0.00283,-0.00141,-0.04819,-0.11669,0.99015,2.62964,0.00000,-0.00012,0.00000,0.00000,0.00000,2.55191,0.00000,0.00000,0.00000,0.00000,A,145201.30
2.64511,57.68835467,11.97941950,57.68834217,11.97939933,14:52:01.451890,0.00544,0.00000,0.00000,-0.13909,0.00020,0.00062,0.00023,0.00134,-0.04697,-0.11578,0.98491,2.63936,0.00000,-0.00012,0.00000,0.00000,0.00000,2.55191,0.00000,0.00000,0.00000,0.00000,A,145201.30
2.68386,57.68835467,11.97941950,57.68834083,11.97939983,14:52:01.490980,0.03379,0.00000,0.00000,-0.13920,0.00020,0.00566,-0.00054,0.00470,-0.04709,-0.11907,0.99326,2.64983,0.00000,-0.00012,0.00000,0.00000,0.00000,2.67010,0.00000,0.00000,0.00000,0.00000,A,145201.40
2.70315,57.68835467,11.97941950,57.68834083,11.97939983,14:52:01.510192,0.00697,0.00000,0.00000,-0.13884,0.00020,0.01024,0.00221,0.00089,-0.04752,-0.11614,0.99149,2.69760,0.00000,-0.00012,0.00000,0.00000,0.00000,2.67010,0.00000,0.00000,0.00000,0.00000,A,145201.40
2.71214,57.68835467,11.97941950,57.68834083,11.97939983,14:52:01.518933,0.00556,0.00000,0.00000,-0.13892,0.00020,0.00704,-0.00099,-0.00415,-0.05033,-0.11608,0.99094,2.70637,0.00000,-0.00012,0.00000,0.00000,0.00000,2.67010,0.00000,0.00000,0.00000,0.00000,A,145201.40
2.72217,57.68835467,11.97941950,57.68834083,11.97939983,14:52:01.528955,0.00518,0.00000,0.00000,-0.13907,0.00020,0.00688,-0.00054,0.00226,-0.05240,-0.12206,0.99180,2.71676,0.00000,-0.00012,0.00000,0.00000,0.00000,2.67010,0.00000,0.00000,0.00000,0.00000,A,145201.40
2.73395,57.68835467,11.97941950,57.68834083,11.97939983,14:52:01.540732,0.00642,0.00000,0.00000,-0.13909,0.00020,0.01101,-0.00176,0.00180,-0.05618,-0.11651,0.99107,2.72739,0.00000,-0.00012,0.00000,0.00000,0.00000,2.67010,0.00000,0.00000,0.00000,0.00000,A,145201.40
2.74353,57.68835467,11.97941950,57.68834083,11.97939983,14:52:01.550326,0.00560,0.00000,0.00000,-0.13912,0.00020,0.00841,-0.00405,0.00226,-0.05222,-0.11553,0.99265,2.73786,0.00000,-0.00012,0.00000,0.00000,0.00000,2.67010,0.00000,0.00000,0.00000,0.00000,A,145201.40
2.75465,57.68835467,11.97941950,57.68834083,11.97939983,14:52:01.561437,0.00605,0.00000,0.00000,-0.13918,0.00020,0.00490,0.00221,-0.00064,-0.05917,-0.11505,0.99302,2.74818,0.00000,-0.00012,0.00000,0.00000,0.00000,2.67010,0.00000,0.00000,0.00000,0.00000,A,145201.40
2.76463,57.68835467,11.97941950,57.68834083,11.97939983,14:52:01.571418,0.00564,0.00000,0.00000,-0.13918,0.00020,0.00322,0.00359,0.00272,-0.05673,-0.11010,0.99430,2.75882,0.00000,-0.00012,0.00000,0.00000,0.00000,2.67010,0.00000,0.00000,0.00000,0.00000,A,145201.40
2.80018,57.68835467,11.97941950,57.68833850,11.97940333,14:52:01.606996,0.03059,0.00000,0.00000,-0.13923,0.00020,0.00505,-0.00176,0.00134,-0.04947,-0.11474,0.99509,2.76967,0.00000,-0.00012,0.00000,0.00000,0.00000,2.78922,0.00000,0.00000,0.00000,0.00000,A,145201.50
2.82157,57.68835467,11.97941950,57.68833850,11.97940333,14:52:01.628361,0.00706,0.00000,0.00000,-0.13924,0.00020,0.00246,-0.00115,-0.00278,-0.05386,-0.11614,0.99491,2.81523,0.00000,-0.00012,0.00000,0.00000,0.00000,2.78922,0.00000,0.00000,0.00000,0.00000,A,145201.50
2.83008,57.68835467,11.97941950,57.68833850,11.97940333,14:52:01.637088,0.00518,0.00000,0.00000,-0.13934,0.00020,0.00078,0.00145,-0.00278,-0.05026,-0.11486,0.99479,2.82466,0.00000,-0.00012,0.00000,0.00000,0.00000,2.78922,0.00000,0.00000,0.00000,0.00000,A,145201.50
2.84095,57.68835467,11.97941950,57.68833850,11.97940333,14:52:01.647733,0.00547,0.00000,0.00000,-0.13939,0.00020,0.00047,-0.00130,-0.00003,-0.04935,-0.11169,0.99576,2.83505,0.00000,-0.00012,0.00000,0.00000,0.00000,2.78922,0.00000,0.00000,0.00000,0.00000,A,145201.50
2.85146,57.68835467,11.97941950,57.68833850,11.97940333,14:52:01.658262,0.00559,0.00000,0.00000,-0.13947,0.00020,0.00139,-0.00145,-0.00110,-0.04831,-0.11456,0.99345,2.84580,0.00000,-0.00012,0.00000,0.00000,0.00000,2.78922,0.00000,0.00000,0.00000,0.00000,A,145201.50
2.86142,57.68835467,11.97941950,57.68833850,11.97940333,14:52:01.668208,0.00532,0.00000,0.00000,-0.13965,0.00020,-0.00121,-0.00359,0.00058,-0.04776,-0.11944,0.99345,2.85572,0.00000,-0.00012,0.00000,0.00000,0.00000,2.78922,0.00000,0.00000,0.00000,0.00000,A,145201.50
2.87341,57.68835467,11.97941950,57.68833850,11.97940333,14:52:01.680201,0.00691,0.00000,0.00000,-0.13979,0.00020,-0.00671,0.00023,0.00012,-0.04965,-0.11248,0.99265,2.86669,0.00000,-0.00012,0.00000,0.00000,0.00000,2.78922,0.00000,0.00000,0.00000,0.00000,A,145201.50
2.88209,57.68835467,11.97941950,57.68833850,11.97940333,14:52:01.688881,0.00519,0.00000,0.00000,-0.13992,0.00020,-0.00136,-0.00115,-0.00110,-0.04923,-0.11608,0.99320,2.87665,0.00000,-0.00012,0.00000,0.00000,0.00000,2.78922,0.00000,0.00000,0.00000,0.00000,A,145201.50
2.91965,57.68835467,11.97941950,57.68833500,11.97940850,14:52:01.726470,0.03198,0.00000,0.00000,-0.14013,0.00020,-0.00976,0.00267,0.00241,-0.05057,-0.11572,0.99345,2.88723,0.00000,-0.00012,0.00000,0.00000,0.00000,2.90712,0.00000,0.00000,0.00000,0.00000,A,145201.60
2.93721,57.68835467,11.97941950,57.68833500,11.97940850,14:52:01.743999,0.00638,0.00000,0.00000,-0.14032,0.00020,-0.00167,0.00130,-0.00202,-0.05124,-0.11645,0.99290,2.93146,0.00000,-0.00012,0.00000,0.00000,0.00000,2.90712,0.00000,0.00000,0.00000,0.00000,A,145201.60
2.94638,57.68835467,11.97941950,57.68833500,11.97940850,14:52:01.753165,0.00515,0.00000,0.00000,-0.14044,0.00020,-0.00594,-0.00069,0.00027,-0.04984,-0.11358,0.99223,2.94096,0.00000,-0.00012,0.00000,0.00000,0.00000,2.90712,0.00000,0.00000,0.00000,0.00000,A,145201.60
2.95696,57.68835467,11.97941950,57.68833500,11.97940850,14:52:01.763749,0.00530,0.00000,0.00000,-0.14062,0.00020,-0.00533,0.00038,0.00379,-0.05380,-0.11743,0.99253,2.95124,0.00000,-0.00012,0.00000,0.00000,0.00000,2.90712,0.00000,0.00000,0.00000,0.00000,A,145201.60
2.96889,57.68835467,11.97941950,57.68833500,11.97940850,14:52:01.775679,0.00682,0.00000,0.00000,-0.14077,0.00020,-0.00426,0.00114,0.00058,-0.05301,-0.11553,0.99247,2.96309,0.00000,-0.00012,0.00000,0.00000,0.00000,2.90712,0.00000,0.00000,0.00000,0.00000,A,145201.60
2.97775,57.68835467,11.97941950,57.68833500,11.97940850,14:52:01.784534,0.00528,0.00000,0.00000,-0.14089,0.00020,0.00017,0.00084,0.00195,-0.04984,-0.11736,0.99259,2.97201,0.00000,-0.00012,0.00000,0.00000,0.00000,2.90712,0.00000,0.00000,0.00000,0.00000,A,145201.60
2.98944,57.68835467,11.97941950,57.68833500,11.97940850,14:52:01.796232,0.00657,0.00000,0.00000,-0.14103,0.00020,-0.00060,0.00008,0.00027,-0.05344,-0.11828,0.99064,2.98341,0.00000,-0.00012,0.00000,0.00000,0.00000,2.90712,0.00000,0.00000,0.00000,0.00000,A,145201.60
2.99844,57.68835467,11.97941950,57.68833500,11.97940850,14:52:01.805225,0.00516,0.00000,0.00000,-0.14112,0.00020,-0.00090,-0.00023,0.00226,-0.05112,-0.11523,0.99576,2.99302,0.00000,-0.00012,0.00000,0.00000,0.00000,2.90712,0.00000,0.00000,0.00000,0.00000,A,145201.60
3.03718,57.68835467,11.97941950,57.68833400,11.97941050,14:52:01.845144,0.03361,0.00000,0.00000,-0.14125,0.00020,-0.00319,-0.00099,0.00134,-0.05087,-0.11560,0.99216,3.00532,0.00000,-0.00012,0.00000,0.00000,0.00000,3.02411,0.00000,0.00000,0.00000,0.00000,A,145201.70
3.05827,57.68835467,11.97941950,57.68833400,11.97941050,14:52:01.865060,0.00772,0.00000,0.00000,-0.14118,0.00020,0.00383,-0.00405,-0.00263,-0.04953,-0.11627,0.99009,3.05186,0.00000,-0.00012,0.00000,0.00000,0.00000,3.02411,0.00000,0.00000,0.00000,0.00000,A,145201.70
3.06614,57.68835467,11.97941950,57.68833400,11.97941050,14:52:01.872922,0.00520,0.00000,0.00000,-0.14123,0.00020,0.00658,-0.00115,0.00150,-0.04947,-0.11700,0.99210,3.06070,0.00000,-0.00012,0.00000,0.00000,0.00000,3.02411,0.00000,0.00000,0.00000,0.00000,A,145201.70
3.07700,57.68835467,11.97941950,57.68833400,11.97941050,14:52:01.883782,0.00533,0.00000,0.00000,-0.14127,0.00020,0.00856,-0.00237,-0.00324,-0.04862,-0.11779,0.99040,3.07129,0.00000,-0.00012,0.00000,0.00000,0.00000,3.02411,0.00000,0.00000,0.00000,0.00000,A,145201.70
3.08823,57.68835467,11.97941950,57.68833400,11.97941050,14:52:01.895021,0.00615,0.00000,0.00000,-0.14125,0.00020,0.01040,0.00038,0.00379,-0.04624,-0.11633,0.99155,3.08219,0.00000,-0.00012,0.00000,0.00000,0.00000,3.02411,0.00000,0.00000,0.00000,0.00000,A,145201.70
3.09962,57.68835467,11.97941950,57.68833400,11.97941050,14:52:01.906420,0.00715,0.00000,0.00000,-0.14127,0.00020,0.01009,-0.00069,0.00073,-0.04953,-0.11828,0.99107,3.09392,0.00000,-0.00012,0.00000,0.00000,0.00000,3.02411,0.00000,0.00000,0.00000,0.00000,A,145201.70
3.10832,57.68835467,11.97941950,57.68833400,11.97941050,14:52:01.915109,0.00545,0.00000,0.00000,-0.14125,0.00020,0.01101,0.00145,-0.00034,-0.04862,-0.11480,0.99308,3.10262,0.00000,-0.00012,0.00000,0.00000,0.00000,3.02411,0.00000,0.00000,0.00000,0.00000,A,145201.70
3.11844,57.68835467,11.97941950,57.68833400,11.97941050,14:52:01.925228,0.00517,0.00000,0.00000,-0.14128,0.00020,0.00704,-0.00069,0.00027,-0.04941,-0.11669,0.99235,3.11303,0.00000,-0.00012,0.00000,0.00000,0.00000,3.02411,0.00000,0.00000,0.00000,0.00000,A,145201.70
3.16604,57.68835467,11.97941950,57.68833333,11.97940933,14:52:01.972870,0.04237,0.00000,0.00000,-0.14132,0.00020,0.00765,-0.00405,0.00257,-0.04886,-0.11712,0.99137,3.12324,0.00000,-0.00012,0.00000,0.00000,0.00000,3.15212,0.00000,0.00000,0.00000,0.00000,A,145201.90
3.18274,57.68835467,11.97941950,57.68833333,11.97940933,14:52:01.989521,0.00688,0.00000,0.00000,-0.14109,0.00020,0.00597,-0.00145,0.00104,-0.05557,-0.11657,0.99521,3.17725,0.00000,-0.00012,0.00000,0.00000,0.00000,3.15212,0.00000,0.00000,0.00000,0.00000,A,145201.90
3.19242,57.68835467,11.97941950,57.68833333,11.97940933,14:52:01.999211,0.00616,0.00000,0.00000,-0.14115,0.00020,0.00337,-0.00099,0.00226,-0.05392,-0.11547,0.99320,3.18603,0.00000,-0.00012,0.00000,0.00000,0.00000,3.15212,0.00000,0.00000,0.00000,0.00000,A,145201.90
3.20185,57.68835467,11.97941950,57.68833333,11.97940933,14:52:02.008635,0.00519,0.00000,0.00000,-0.14121,0.00020,0.00169,-0.00405,0.00333,-0.05057,-0.11462,0.99509,3.19621,0.00000,-0.00012,0.00000,0.00000,0.00000,3.15212,0.00000,0.00000,0.00000,0.00000,A,145201.90
3.21252,57.68835467,11.97941950,57.68833333,11.97940933,14:52:02.019304,0.00545,0.00000,0.00000,-0.14123,0.00020,0.00627,-0.00130,-0.00049,-0.05295,-0.11590,0.99387,3.20680,0.00000,-0.00012,0.00000,0.00000,0.00000,3.15212,0.00000,0.00000,0.00000,0.00000,A,145201.90
3.22365,57.68835467,11.97941950,57.68833333,11.97940933,14:52:02.030454,0.00619,0.00000,0.00000,-0.14134,0.00020,-0.00197,-0.00115,-0.00186,-0.05240,-0.11547,0.99265,3.21796,0.00000,-0.00012,0.00000,0.00000,0.00000,3.15212,0.00000,0.00000,0.00000,0.00000,A,145201.90
3.23301,57.68835467,11.97941950,57.68833333,11.97940933,14:52:02.039799,0.00531,0.00000,0.00000,-0.14143,0.00020,-0.00060,-0.00130,-0.00079,-0.05197,-0.11572,0.99436,3.22729,0.00000,-0.00012,0.00000,0.00000,0.00000,3.15212,0.00000,0.00000,0.00000,0.00000,A,145201.90
3.24363,57.68835467,11.97941950,57.68833333,11.97940933,14:52:02.050433,0.00554,0.00000,0.00000,-0.14146,0.00020,0.00337,0.00206,-0.00309,-0.05283,-0.11413,0.99284,3.23785,0.00000,-0.00012,0.00000,0.00000,0.00000,3.15212,0.00000,0.00000,0.00000,0.00000,A,145201.90
3.28011,57.68835467,11.97941950,57.68833367,11.97940567,14:52:02.086927,0.03161,0.00000,0.00000,-0.14159,0.00020,-0.00304,0.00099,0.00043,-0.05264,-0.11639,0.99204,3.24854,0.00000,-0.00012,0.00000,0.00000,0.00000,3.26735,0.00000,0.00000,0.00000,0.00000,A,145202.00
3.29746,57.68835467,11.97941950,57.68833367,11.97940567,14:52:02.104242,0.00744,0.00000,0.00000,-0.14203,0.00020,-0.00869,-0.00115,0.00226,-0.05045,-0.11511,0.99265,3.29171,0.00000,-0.00012,0.00000,0.00000,0.00000,3.26735,0.00000,0.00000,0.00000,0.00000,A,145202.00
3.30558,57.68835467,11.97941950,57.68833367,11.97940567,14:52:02.112371,0.00533,0.00000,0.00000,-0.14216,0.00020,-0.00610,-0.00084,-0.00018,-0.05051,-0.11645,0.99589,3.29989,0.00000,-0.00012,0.00000,0.00000,0.00000,3.26735,0.00000,0.00000,0.00000,0.00000,A,145202.00
3.31618,57.68835467,11.97941950,57.68833367,11.97940567,14:52:02.122975,0.00553,0.00000,0.00000,-0.14230,0.00020,-0.00381,0.00176,0.00150,-0.05148,-0.11730,0.99399,3.31044,0.00000,-0.00012,0.00000,0.00000,0.00000,3.26735,0.00000,0.00000,0.00000,0.00000,A,145202.00
3.32701,57.68835467,11.97941950,57.68833367,11.97940567,14:52:02.133800,0.00596,0.00000,0.00000,-0.14246,0.00020,-0.00732,0.00069,0.00302,-0.04880,-0.11669,0.99155,3.32087,0.00000,-0.00012,0.00000,0.00000,0.00000,3.26735,0.00000,0.00000,0.00000,0.00000,A,145202.00
3.33708,57.68835467,11.97941950,57.68833367,11.97940567,14:52:02.143865,0.00548,0.00000,0.00000,-0.14263,0.00020,-0.00762,-0.00023,-0.00034,-0.05063,-0.11694,0.99229,3.33135,0.00000,-0.00012,0.00000,0.00000,0.00000,3.26735,0.00000,0.00000,0.00000,0.00000,A,145202.00
3.34718,57.68835467,11.97941950,57.68833367,11.97940567,14:52:02.154232,0.00518,0.00000,0.00000,-0.14277,0.00020,-0.00839,-0.00069,0.00211,-0.04788,-0.11486,0.99363,3.34175,0.00000,-0.00012,0.00000,0.00000,0.00000,3.26735,0.00000,0.00000,0.00000,0.00000,A,145202.00
3.35817,57.68835467,11.97941950,57.68833367,11.97940567,14:52:02.164960,0.00577,0.00000,0.00000,-0.14289,0.00020,-0.00197,0.00176,0.00211,-0.05069,-0.11785,0.99357,3.35272,0.00000,-0.00012,0.00000,0.00000,0.00000,3.26735,0.00000,0.00000,0.00000,0.00000,A,145202.00
3.39411,57.68835467,11.97941950,57.68833383,11.97940233,14:52:02.200927,0.03131,0.00000,0.00000,-0.14303,0.00020,-0.00686,-0.00191,0.00211,-0.05136,-0.11608,0.99070,3.36257,0.00000,-0.00012,0.00000,0.00000,0.00000,3.38236,0.00000,0.00000,0.00000,0.00000,A,145202.10
3.41005,57.68835467,11.97941950,57.68833383,11.97940233,14:52:02.216842,0.00775,0.00000,0.00000,-0.14312,0.00020,0.00017,-0.00176,-0.00095,-0.05258,-0.11779,0.99247,3.40372,0.00000,-0.00012,0.00000,0.00000,0.00000,3.38236,0.00000,0.00000,0.00000,0.00000,A,145202.10
3.41797,57.68835467,11.97941950,57.68833383,11.97940233,14:52:02.224753,0.00526,0.00000,0.00000,-0.14322,0.00020,-0.00472,-0.00176,-0.00018,-0.05167,-0.11602,0.99277,3.41225,0.00000,-0.00012,0.00000,0.00000,0.00000,3.38236,0.00000,0.00000,0.00000,0.00000,A,145202.10
3.42860,57.68835467,11.97941950,57.68833383,11.97940233,14:52:02.235392,0.00549,0.00000,0.00000,-0.14329,0.00020,0.00108,0.00176,0.00379,-0.05106,-0.11694,0.99216,3.42286,0.00000,-0.00012,0.00000,0.00000,0.00000,3.38236,0.00000,0.00000,0.00000,0.00000,A,145202.10
3.43889,57.68835467,11.97941950,57.68833383,11.97940233,14:52:02.245691,0.00553,0.00000,0.00000,-0.14329,0.00020,0.00444,0.00099,-0.00217,-0.05069,-0.11492,0.99192,3.43308,0.00000,-0.00012,0.00000,0.00000,0.00000,3.38236,0.00000,0.00000,0.00000,0.00000,A,145202.10
3.44899,57.68835467,11.97941950,57.68833383,11.97940233,14:52:02.255768,0.00531,0.00000,0.00000,-0.14331,0.00020,0.00307,-0.00038,0.00058,-0.05222,-0.11486,0.99119,3.44326,0.00000,-0.00012,0.00000,0.00000,0.00000,3.38236,0.00000,0.00000,0.00000,0.00000,A,145202.10
3.45947,57.68835467,11.97941950,57.68833383,11.97940233,14:52:02.266272,0.00540,0.00000,0.00000,-0.14337,0.00020,0.00276,0.00145,-0.00309,-0.05197,-0.11755,0.99332,3.45382,0.00000,-0.00012,0.00000,0.00000,0.00000,3.38236,0.00000,0.00000,0.00000,0.00000,A,145202.10
3.47027,57.68835467,11.97941950,57.68833383,11.97940233,14:52:02.277054,0.00580,0.00000,0.00000,-0.14343,0.00020,0.00200,-0.00038,0.00134,-0.05148,-0.11779,0.99186,3.46481,0.00000,-0.00012,0.00000,0.00000,0.00000,3.38236,0.00000,0.00000,0.00000,0.00000,A,145202.10
3.48036,57.68835467,11.97941950,57.68833383,11.97940233,14:52:02.287153,0.00549,0.00000,0.00000,-0.14342,0.00020,0.00582,0.00160,0.00043,-0.05142,-0.11480,0.99235,3.47464,0.00000,-0.00012,0.00000,0.00000,0.00000,3.38236,0.00000,0.00000,0.00000,0.00000,A,145202.10
3.51405,57.68835467,11.97941950,57.68833333,11.97940100,14:52:02.320848,0.02892,0.00000,0.00000,-0.14345,0.00020,0.00261,-0.00160,-0.00095,-0.04843,-0.11590,0.99326,3.48551,0.00000,-0.00012,0.00000,0.00000,0.00000,3.50459,0.00000,0.00000,0.00000,0.00000,A,145202.20
3.52824,57.68835467,11.97941950,57.68833333,11.97940100,14:52:02.335031,0.00778,0.00000,0.00000,-0.14326,0.00020,0.00750,-0.00099,-0.00186,-0.04880,-0.11749,0.99271,3.52247,0.00000,-0.00012,0.00000,0.00000,0.00000,3.50459,0.00000,0.00000,0.00000,0.00000,A,145202.20
3.53653,57.68835467,11.97941950,57.68833333,11.97940100,14:52:02.343317,0.00567,0.00000,0.00000,-0.14326,0.00020,0.00734,-0.00313,0.00119,-0.05045,-0.11584,0.99143,3.53077,0.00000,-0.00012,0.00000,0.00000,0.00000,3.50459,0.00000,0.00000,0.00000,0.00000,A,145202.20
3.54655,57.68835467,11.97941950,57.68833333,11.97940100,14:52:02.353335,0.00529,0.00000,0.00000,-0.14326,0.00020,0.00780,-0.00252,-0.00217,-0.04727,-0.11633,0.99162,3.54109,0.00000,-0.00012,0.00000,0.00000,0.00000,3.50459,0.00000,0.00000,0.00000,0.00000,A,145202.20
3.55695,57.68835467,11.97941950,57.68833333,11.97940100,14:52:02.363737,0.00528,0.00000,0.00000,-0.14328,0.00020,0.00551,0.00023,0.00119,-0.05148,-0.11706,0.99375,3.55122,0.00000,-0.00012,0.00000,0.00000,0.00000,3.50459,0.00000,0.00000,0.00000,0.00000,A,145202.20
3.56757,57.68835467,11.97941950,57.68833333,11.97940100,14:52:02.374363,0.00549,0.00000,0.00000,-0.14328,0.00020,0.00505,-0.00069,0.00119,-0.05039,-0.11529,0.99369,3.56190,0.00000,-0.00012,0.00000,0.00000,0.00000,3.50459,0.00000,0.00000,0.00000,0.00000,A,145202.20
3.57789,57.68835467,11.97941950,57.68833333,11.97940100,14:52:02.384673,0.00541,0.00000,0.00000,-0.14325,0.00020,0.00582,0.00328,-0.00217,-0.05313,-0.11419,0.99241,3.57224,0.00000,-0.00012,0.00000,0.00000,0.00000,3.50459,0.00000,0.00000,0.00000,0.00000,A,145202.20
3.58835,57.68835467,11.97941950,57.68833333,11.97940100,14:52:02.395134,0.00548,0.00000,0.00000,-0.14321,0.00020,0.00673,-0.00099,-0.00064,-0.04965,-0.11358,0.99284,3.58263,0.00000,-0.00012,0.00000,0.00000,0.00000,3.50459,0.00000,0.00000,0.00000,0.00000,A,145202.20
3.59847,57.68835467,11.97941950,57.68833333,11.97940100,14:52:02.405258,0.00520,0.00000,0.00000,-0.14324,0.00020,0.00230,0.00053,0.00043,-0.05185,-0.11523,0.99345,3.59302,0.00000,-0.00012,0.00000,0.00000,0.00000,3.50459,0.00000,0.00000,0.00000,0.00000,A,145202.20
3.63416,57.68835467,11.97941950,57.68833333,11.97940000,14:52:02.441000,0.02990,0.00000,0.00000,-0.14325,0.00020,0.00398,0.00023,0.00058,-0.04868,-0.11529,0.99149,3.60324,0.00000,-0.00012,0.00000,0.00000,0.00000,3.62226,0.00000,0.00000,0.00000,0.00000,A,145202.30
3.65322,57.68835467,11.97941950,57.68833333,11.97940000,14:52:02.460007,0.00647,0.00000,0.00000,-0.14341,0.00020,-0.00258,-0.00054,-0.00064,-0.05246,-0.11511,0.99369,3.64748,0.00000,-0.00012,0.00000,0.00000,0.00000,3.62226,0.00000,0.00000,0.00000,0.00000,A,145202.30
3.66239,57.68835467,11.97941950,57.68833333,11.97940000,14:52:02.469181,0.00524,0.00000,0.00000,-0.14351,0.00020,-0.00487,0.00206,0.00470,-0.05020,-0.11553,0.99399,3.65697,0.00000,-0.00012,0.00000,0.00000,0.00000,3.62226,0.00000,0.00000,0.00000,0.00000,A,145202.30
3.67323,57.68835467,11.97941950,57.68833333,11.97940000,14:52:02.480021,0.00556,0.00000,0.00000,-0.14360,0.00020,-0.00381,0.00359,-0.00095,-0.05197,-0.11511,0.99271,3.66724,0.00000,-0.00012,0.00000,0.00000,0.00000,3.62226,0.00000,0.00000,0.00000,0.00000,A,145202.30
3.68364,57.68835467,11.97941950,57.68833333,11.97940000,14:52:02.490441,0.00558,0.00000,0.00000,-0.14375,0.00020,-0.00717,0.00084,0.00058,-0.05209,-0.11755,0.99265,3.67783,0.00000,-0.00012,0.00000,0.00000,0.00000,3.62226,0.00000,0.00000,0.00000,0.00000,A,145202.30
3.69368,57.68835467,11.97941950,57.68833333,11.97940000,14:52:02.500462,0.00521,0.00000,0.00000,-0.14385,0.00020,-0.00762,0.00008,-0.00232,-0.04917,-0.11370,0.99345,3.68800,0.00000,-0.00012,0.00000,0.00000,0.00000,3.62226,0.00000,0.00000,0.00000,0.00000,A,145202.30
3.70439,57.68835467,11.97941950,57.68833333,11.97940000,14:52:02.511170,0.00567,0.00000,0.00000,-0.14396,0.00020,-0.00457,-0.00069,0.00165,-0.04953,-0.11663,0.99216,3.69863,0.00000,-0.00012,0.00000,0.00000,0.00000,3.62226,0.00000,0.00000,0.00000,0.00000,A,145202.30
3.71429,57.68835467,11.97941950,57.68833333,11.97940000,14:52:02.521075,0.00518,0.00000,0.00000,-0.14408,0.00020,-0.00732,-0.00191,0.00027,-0.05100,-0.11584,0.99326,3.70887,0.00000,-0.00012,0.00000,0.00000,0.00000,3.62226,0.00000,0.00000,0.00000,0.00000,A,145202.30
3.74876,57.68835467,11.97941950,57.68833333,11.97940000,14:52:02.555560,0.02911,0.00000,0.00000,-0.14420,0.00020,-0.00640,0.00008,-0.00247,-0.04941,-0.11566,0.99143,3.71924,0.00000,-0.00012,0.00000,0.00000,0.00000,3.62226,0.00000,0.00000,0.00000,0.00000,A,145202.30
3.77387,57.68835467,11.97941950,57.68833333,11.97940000,14:52:02.580663,0.01212,0.00000,0.00000,-0.14453,0.00020,-0.00671,0.00267,0.00165,-0.04996,-0.11572,0.99320,3.76287,0.00000,-0.00012,0.00000,0.00000,0.00000,3.62226,0.00000,0.00000,0.00000,0.00000,A,145202.30
3.79716,57.68835467,11.97941950,57.68833333,11.97940000,14:52:02.603953,0.01143,0.00000,0.00000,-0.14460,0.00020,-0.00197,-0.00222,0.00058,-0.05008,-0.11419,0.99107,3.78648,0.00000,-0.00012,0.00000,0.00000,0.00000,3.62226,0.00000,0.00000,0.00000,0.00000,A,145202.30
3.82053,57.68835467,11.97941950,57.68833333,11.97940000,14:52:02.627319,0.01135,0.00000,0.00000,-0.14460,0.00020,0.00230,0.00221,0.00012,-0.04910,-0.11688,0.99302,3.81081,0.00000,-0.00012,0.00000,0.00000,0.00000,3.62226,0.00000,0.00000,0.00000,0.00000,A,145202.30
3.84994,57.68835467,11.97941950,57.68833333,11.97940000,14:52:02.656734,0.02038,0.00000,0.00000,-0.14466,0.00020,-0.00167,0.00008,0.00073,-0.05081,-0.11480,0.99101,3.83104,0.00000,-0.00012,0.00000,0.00000,0.00000,3.62226,0.00000,0.00000,0.00000,0.00000,A,145202.30
3.87408,57.68835467,11.97941950,57.68833333,11.97940000,14:52:02.680897,0.01351,0.00000,0.00000,-0.14456,0.00020,0.00414,-0.00267,0.00089,-0.05106,-0.11553,0.99314,3.86302,0.00000,-0.00012,0.00000,0.00000,0.00000,3.62226,0.00000,0.00000,0.00000,0.00000,A,145202.30
3.89827,57.68835467,11.97941950,57.68833333,11.97940000,14:52:02.705062,0.01214,0.00000,0.00000,-0.14453,0.00020,0.00444,-0.00267,-0.00079,-0.04795,-0.11834,0.99253,3.88754,0.00000,-0.00012,0.00000,0.00000,0.00000,3.62226,0.00000,0.00000,0.00000,0.00000,A,145202.30
3.92066,57.68835467,11.97941950,57.68833333,11.97940000,14:52:02.727469,0.01194,0.00000,0.00000,-0.14443,0.00020,0.00536,-0.00176,0.00119,-0.05136,-0.11444,0.99521,3.90947,0.00000,-0.00012,0.00000,0.00000,0.00000,3.62226,0.00000,0.00000,0.00000,0.00000,A,145202.30
3.94557,57.68835467,11.97941950,57.68833333,11.97940000,14:52:02.752373,0.01914,0.00000,0.00000,-0.14439,0.00020,0.00414,0.00160,0.00241,-0.04831,-0.11505,0.99198,3.92828,0.00000,-0.00012,0.00000,0.00000,0.00000,3.62226,0.00000,0.00000,0.00000,0.00000,A,145202.30
3.96633,57.68835467,11.97941950,57.68833333,11.97940000,14:52:02.773473,0.01184,0.00000,0.00000,-0.14416,0.00020,0.00902,-0.00160,-0.00171,-0.05100,-0.11383,0.99387,3.95586,0.00000,-0.00012,0.00000,0.00000,0.00000,3.62226,0.00000,0.00000,0.00000,0.00000,A,145202.30
3.99089,57.68835467,11.97941950,57.68833333,11.97940000,14:52:02.797709,0.01240,0.00000,0.00000,-0.14401,0.00020,0.00826,-0.00191,0.00089,-0.04770,-0.11553,0.99399,3.97953,0.00000,-0.00012,0.00000,0.00000,0.00000,3.62226,0.00000,0.00000,0.00000,0.00000,A,145202.30
4.01337,57.68835467,11.97941950,57.68833333,11.97940000,14:52:02.820165,0.01223,0.00000,0.00000,-0.14394,0.00020,0.00398,-0.00481,0.00104,-0.04862,-0.11364,0.99040,4.00249,0.00000,-0.00012,0.00000,0.00000,0.00000,3.62226,0.00000,0.00000,0.00000,0.00000,A,145202.30
4.04610,57.68835467,11.97941950,57.68833333,11.97940000,14:52:02.852909,0.02137,0.00000,0.00000,-0.14390,0.00020,0.00200,-0.00160,0.00287,-0.04965,-0.11303,0.99582,4.02476,0.00000,-0.00012,0.00000,0.00000,0.00000,3.62226,0.00000,0.00000,0.00000,0.00000,A,145202.30
4.07063,57.68835467,11.97941950,57.68833333,11.97940000,14:52:02.877430,0.01117,0.00000,0.00000,-0.14384,0.00020,0.00307,-0.00099,0.00012,-0.05301,-0.11590,0.99192,4.05990,0.00000,-0.00012,0.00000,0.00000,0.00000,3.62226,0.00000,0.00000,0.00000,0.00000,A,145202.30
4.09386,57.68835467,11.97941950,57.68833333,11.97940000,14:52:02.900672,0.01155,0.00000,0.00000,-0.14403,0.00020,-0.00640,0.00328,0.00257,-0.05155,-0.11499,0.99198,4.08302,0.00000,-0.00012,0.00000,0.00000,0.00000,3.62226,0.00000,0.00000,0.00000,0.00000,A,145202.30
4.11836,57.68835467,11.97941950,57.68833333,11.97940000,14:52:02.926191,0.01249,0.00000,0.00000,-0.14420,0.00020,-0.00411,0.00145,-0.00079,-0.05185,-0.11675,0.99192,4.10870,0.00000,-0.00012,0.00000,0.00000,0.00000,3.62226,0.00000,0.00000,0.00000,0.00000,A,145202.30
4.14999,57.68835467,11.97941950,57.68833333,11.97940000,14:52:02.956797,0.02181,0.00000,0.00000,-0.14432,0.00020,-0.00503,-0.00328,-0.00079,-0.05081,-0.11450,0.99399,4.12817,0.00000,-0.00012,0.00000,0.00000,0.00000,3.62226,0.00000,0.00000,0.00000,0.00000,A,145202.30
4.17295,57.68835467,11.97941950,57.68833333,11.97940000,14:52:02.979742,0.01157,0.00000,0.00000,-0.14459,0.00020,-0.00640,0.00389,0.00150,-0.05203,-0.11639,0.99168,4.16263,0.00000,-0.00012,0.00000,0.00000,0.00000,3.62226,0.00000,0.00000,0.00000,0.00000,A,145202.30
4.19687,57.68835467,11.97941950,57.68833333,11.97940000,14:52:03.003683,0.01178,0.00000,0.00000,-0.14473,0.00020,-0.00319,-0.00176,0.00027,-0.05215,-0.11749,0.99027,4.18603,0.00000,-0.00012,0.00000,0.00000,0.00000,3.62226,0.00000,0.00000,0.00000,0.00000,A,145202.30
4.21889,57.68835467,11.97941950,57.68833333,11.97940000,14:52:03.025676,0.01095,0.00000,0.00000,-0.14483,0.00020,-0.00213,-0.00374,-0.00018,-0.04843,-0.11627,0.99271,4.20848,0.00000,-0.00012,0.00000,0.00000,0.00000,3.62226,0.00000,0.00000,0.00000,0.00000,A,145202.30
4.25140,57.68835467,11.97941950,57.68833333,11.97940000,14:52:03.058200,0.02129,0.00000,0.00000,-0.14484,0.00020,0.00032,0.00023,-0.00034,-0.04831,-0.11462,0.99210,4.22994,0.00000,-0.00012,0.00000,0.00000,0.00000,3.62226,0.00000,0.00000,0.00000,0.00000,A,145202.30
4.27430,57.68835467,11.97941950,57.68833333,11.97940000,14:52:03.081118,0.01163,0.00000,0.00000,-0.14470,0.00020,0.00551,0.00176,0.00134,-0.05161,-0.11608,0.99375,4.26357,0.00000,-0.00012,0.00000,0.00000,0.00000,3.62226,0.00000,0.00000,0.00000,0.00000,A,145202.30
4.29970,57.68835467,11.97941950,57.68833333,11.97940000,14:52:03.106500,0.01347,0.00000,0.00000,-0.14462,0.00020,0.00444,-0.00176,-0.00095,-0.05155,-0.11529,0.99192,4.28951,0.00000,-0.00012,0.00000,0.00000,0.00000,3.62226,0.00000,0.00000,0.00000,0.00000,A,145202.30
4.32200,57.68835467,11.97941950,57.68833333,11.97940000,14:52:03.128811,0.01170,0.00000,0.00000,-0.14467,0.00020,0.00047,-0.00527,-0.00156,-0.04843,-0.11724,0.98997,4.31115,0.00000,-0.00012,0.00000,0.00000,0.00000,3.62226,0.00000,0.00000,0.00000,0.00000,A,145202.30
4.35430,57.68835467,11.97941950,57.68833333,11.97940000,14:52:03.161101,0.02174,0.00000,0.00000,-0.14454,0.00020,0.00826,-0.00206,0.00272,-0.04959,-0.11560,0.99216,4.33225,0.00000,-0.00012,0.00000,0.00000,0.00000,3.62226,0.00000,0.00000,0.00000,0.00000,A,145202.30
4.37856,57.68835467,11.97941950,57.68833333,11.97940000,14:52:03.185356,0.01207,0.00000,0.00000,-0.14431,0.00020,0.00704,0.00237,-0.00446,-0.05063,-0.11413,0.99229,4.36765,0.00000,-0.00012,0.00000,0.00000,0.00000,3.62226,0.00000,0.00000,0.00000,0.00000,A,145202.30
4.40257,57.68835467,11.97941950,57.68833333,11.97940000,14:52:03.209376,0.01238,0.00000,0.00000,-0.14429,0.00020,0.00352,0.00053,-0.00156,-0.05185,-0.11718,0.99192,4.39183,0.00000,-0.00012,0.00000,0.00000,0.00000,3.62226,0.00000,0.00000,0.00000,0.00000,A,145202.30
4.42171,57.68835467,11.97941950,57.68833333,11.97940000,14:52:03.228507,0.01247,0.00000,0.00000,-0.14425,0.00020,0.00429,0.00008,-0.00156,-0.04813,-0.11541,0.99460,4.41086,0.00000,-0.00012,0.00000,0.00000,0.00000,3.62226,0.00000,0.00000,0.00000,0.00000,A,145202.30
4.45467,57.68835467,11.97941950,57.68833333,11.97940000,14:52:03.261466,0.02086,0.00000,0.00000,-0.14425,0.00020,0.00169,-0.00069,0.00043,-0.05136,-0.11547,0.99259,4.43517,0.00000,-0.00012,0.00000,0.00000,0.00000,3.62226,0.00000,0.00000,0.00000,0.00000,A,145202.30
4.47850,57.68835467,11.97941950,57.68833333,11.97940000,14:52:03.285287,0.01215,0.00000,0.00000,-0.14428,0.00020,0.00062,0.00099,0.00409,-0.04923,-0.11596,0.98991,4.46765,0.00000,-0.00012,0.00000,0.00000,0.00000,3.62226,0.00000,0.00000,0.00000,0.00000,A,145202.30
4.50195,57.68835467,11.97941950,57.68833333,11.97940000,14:52:03.308738,0.01200,0.00000,0.00000,-0.14442,0.00020,-0.00258,0.00130,0.00302,-0.04972,-0.11761,0.99137,4.49212,0.00000,-0.00012,0.00000,0.00000,0.00000,3.62226,0.00000,0.00000,0.00000,0.00000,A,145202.30
4.52619,57.68835467,11.97941950,57.68833333,11.97940000,14:52:03.333003,0.01150,0.00000,0.00000,-0.14453,0.00020,-0.00381,-0.00160,-0.00034,-0.05191,-0.11480,0.99241,4.51538,0.00000,-0.00012,0.00000,0.00000,0.00000,3.62226,0.00000,0.00000,0.00000,0.00000,A,145202.30
4.55647,57.68835467,11.97941950,57.68833333,11.97940000,14:52:03.363273,0.02056,0.00000,0.00000,-0.14470,0.00020,-0.00487,0.00313,0.00134,-0.05356,-0.11755,0.99485,4.53675,0.00000,-0.00012,0.00000,0.00000,0.00000,3.62226,0.00000,0.00000,0.00000,0.00000,A,145202.30
4.57894,57.68835467,11.97941950,57.68833333,11.97940000,14:52:03.385739,0.01150,0.00000,0.00000,-0.14497,0.00020,-0.00640,-0.00038,0.00089,-0.05148,-0.11779,0.99076,4.56806,0.00000,-0.00012,0.00000,0.00000,0.00000,3.62226,0.00000,0.00000,0.00000,0.00000,A,145202.30
4.60241,57.68835467,11.97941950,57.68833333,11.97940000,14:52:03.409209,0.01196,0.00000,0.00000,-0.14509,0.00020,-0.00335,-0.00054,-0.00141,-0.05155,-0.11633,0.99143,4.59167,0.00000,-0.00012,0.00000,0.00000,0.00000,3.62226,0.00000,0.00000,0.00000,0.00000,A,145202.30
4.62867,57.68835467,11.97941950,57.68833333,11.97940000,14:52:03.435475,0.01560,0.00000,0.00000,-0.14536,0.00020,-0.00930,0.00053,-0.00125,-0.05209,-0.11688,0.99021,4.61548,0.00000,-0.00012,0.00000,0.00000,0.00000,3.62226,0.00000,0.00000,0.00000,0.00000,A,145202.30
4.66396,57.68835467,11.97941950,57.68833333,11.97940000,14:52:03.471530,0.02372,0.00000,0.00000,-0.14536,0.00020,0.00169,0.00160,0.00027,-0.05118,-0.11663,0.99204,4.64024,0.00000,-0.00012,0.00000,0.00000,0.00000,3.62226,0.00000,0.00000,0.00000,0.00000,A,145202.30
4.68985,57.68835467,11.97941950,57.68833333,11.97940000,14:52:03.496672,0.01493,0.00000,0.00000,-0.14530,0.00020,0.00246,-0.00069,-0.00202,-0.05094,-0.11535,0.99223,4.67689,0.00000,-0.00012,0.00000,0.00000,0.00000,3.62226,0.00000,0.00000,0.00000,0.00000,A,145202.30
4.71620,57.68835467,11.97941950,57.68833333,11.97940000,14:52:03.523017,0.01382,0.00000,0.00000,-0.14516,0.00020,0.00658,-0.00130,0.00058,-0.05130,-0.11608,0.99345,4.70307,0.00000,-0.00012,0.00000,0.00000,0.00000,3.62226,0.00000,0.00000,0.00000,0.00000,A,145202.30
4.74475,57.68835467,11.97941950,57.68833333,11.97940000,14:52:03.551557,0.01927,0.00000,0.00000,-0.14506,0.00020,0.00536,-0.00130,-0.00018,-0.05234,-0.11553,0.99503,4.72681,0.00000,-0.00012,0.00000,0.00000,0.00000,3.62226,0.00000,0.00000,0.00000,0.00000,A,145202.30
4.76873,57.68835467,11.97941950,57.68833333,11.97940000,14:52:03.575529,0.01324,0.00000,0.00000,-0.14490,0.00020,0.00551,-0.00359,0.00134,-0.04862,-0.11431,0.99424,4.75692,0.00000,-0.00012,0.00000,0.00000,0.00000,3.62226,0.00000,0.00000,0.00000,0.00000,A,145202.30
4.79665,57.68835467,11.97941950,57.68833333,11.97940000,14:52:03.603470,0.01417,0.00000,0.00000,-0.14478,0.00020,0.00597,-0.00069,0.00043,-0.05094,-0.11566,0.99308,4.78319,0.00000,-0.00012,0.00000,0.00000,0.00000,3.62226,0.00000,0.00000,0.00000,0.00000,A,145202.30
4.82249,57.68835467,11.97941950,57.68833333,11.97940000,14:52:03.629298,0.01354,0.00000,0.00000,-0.14461,0.00020,0.00795,-0.00283,-0.00049,-0.05112,-0.11572,0.99186,4.81029,0.00000,-0.00012,0.00000,0.00000,0.00000,3.62226,0.00000,0.00000,0.00000,0.00000,A,145202.30
4.85898,57.68835467,11.97941950,57.68833333,11.97940000,14:52:03.666670,0.02323,0.00000,0.00000,-0.14449,0.00020,0.00490,-0.00115,0.00012,-0.05130,-0.11407,0.99259,4.83649,0.00000,-0.00012,0.00000,0.00000,0.00000,3.62226,0.00000,0.00000,0.00000,0.00000,A,145202.30
4.88825,57.68835467,11.97941950,57.68833333,11.97940000,14:52:03.695080,0.01582,0.00000,0.00000,-0.14462,0.00020,-0.00289,-0.00252,0.00104,-0.04965,-0.11444,0.99338,4.87392,0.00000,-0.00012,0.00000,0.00000,0.00000,3.62226,0.00000,0.00000,0.00000,0.00000,A,145202.30
