Time,lat_estimated,lon_estimated,latitude,longitude,RealTime,CalculationTime,MeasuredVelocity,FilteredVelocity,Roll,SteeringAngle,RollRate,gy,gz,ax,ay,az,imu_read_timing,v_estimated,yaw_estimated,heading_estimated,x_estimated,y_estimated,GPS_timestamp,x_GPS,y_GPS,theta_GPS,theta_GPS_noUnwrap,status,NMEA timestamp
0.08570,57.78208667,12.77366783,57.78208667,12.77366783,16:25:29.064633,0.08565,0.00000,1.50000,-0.00040,-0.12714,-0.03560,0.00356,-0.06545,0.00677,0.02172,1.01766,0.00001,0.00000,0.07419,0.00000,0.00000,0.00000,0.01525,0.00000,0.00000,0.00000,0.00000,A,152425.00
0.10606,57.78208667,12.77366783,57.78208667,12.77366783,16:25:29.084460,0.00947,0.00000,0.00000,-0.00533,-0.10945,-0.05179,-0.00148,-0.04926,0.09827,0.03556,0.98369,0.10022,0.00000,0.07263,0.00882,0.00000,0.00000,0.01525,0.00000,0.00000,0.00000,0.00000,A,152425.00
0.11195,57.78208667,12.77366783,57.78208667,12.77366783,16:25:29.090358,0.00503,0.00000,0.00000,-0.00491,-0.10786,-0.05240,-0.00805,-0.04682,0.07454,0.06637,0.95630,0.10661,0.00000,0.07117,0.00829,0.00000,0.00000,0.01525,0.00000,0.00000,0.00000,0.00000,A,152425.00
0.17361,57.78208667,12.77366783,57.78208633,12.77366683,16:25:29.152056,0.05614,0.00000,1.50000,-0.00406,-0.10520,-0.04599,-0.00911,-0.04392,0.01903,0.10047,0.92915,0.11706,0.00000,0.06969,0.00837,0.00000,0.00000,0.13393,-0.05928,-0.03706,-2.58283,-2.58283,A,152425.10
0.19652,57.78208665,12.77366778,57.78208633,12.77366683,16:25:29.174927,0.00867,0.00000,0.00000,-0.00819,-0.08771,-0.05790,-0.00407,-0.03491,0.05984,0.02702,1.00253,0.19107,0.00000,-0.32052,-0.37161,-0.00296,-0.00185,0.13393,-0.05928,-0.03706,-2.58283,-2.58283,A,152425.10
0.20319,57.78208663,12.77366774,57.78208633,12.77366683,16:25:29.181593,0.00516,0.00000,0.00000,-0.00878,-0.08621,-0.06874,-0.00239,-0.03323,0.06466,0.00604,0.99814,0.19759,0.00000,-0.65234,-0.70255,-0.00578,-0.00361,0.13393,-0.05928,-0.03706,-2.58283,-2.58283,A,152425.10
0.21393,57.78208662,12.77366769,57.78208633,12.77366683,16:25:29.192336,0.00544,0.00000,0.00000,-0.00999,-0.08417,-0.07699,-0.00407,-0.03277,0.07424,-0.01013,0.98972,0.20830,0.00000,-0.93456,-0.98358,-0.00846,-0.00529,0.13393,-0.05928,-0.03706,-2.58283,-2.58283,A,152425.10
0.22490,57.78208660,12.77366765,57.78208633,12.77366683,16:25:29.203549,0.00600,0.00000,0.00000,-0.01064,-0.08239,-0.08035,-0.00453,-0.03735,0.08540,0.02532,0.98600,0.21864,0.00000,-1.17460,-1.22258,-0.01100,-0.00688,0.13393,-0.05928,-0.03706,-2.58283,-2.58283,A,152425.10
0.28476,57.78208659,12.77366761,57.78208600,12.77366550,16:25:29.263202,0.05520,0.00000,1.50000,-0.01117,-0.08066,-0.08539,0.00173,-0.04315,0.04325,0.03654,0.97515,0.22916,0.00000,-1.37879,-1.42576,-0.01341,-0.00838,0.24599,-0.13833,-0.07413,-2.70312,-2.70312,A,152425.20
0.30853,57.78208656,12.77366750,57.78208600,12.77366550,16:25:29.286938,0.00819,0.00000,0.00000,-0.01784,-0.07254,-0.08905,0.00707,-0.03720,0.07046,0.00128,1.00382,0.30312,0.00000,-1.57111,-1.61333,-0.01966,-0.01167,0.24599,-0.13833,-0.07413,-2.70312,-2.70312,A,152425.20
0.31586,57.78208653,12.77366740,57.78208600,12.77366550,16:25:29.294260,0.00512,0.00000,0.00000,-0.01868,-0.07228,-0.09577,-0.00148,-0.04041,0.07027,-0.00287,0.99875,0.31051,0.00000,-1.73459,-1.77668,-0.02559,-0.01479,0.24599,-0.13833,-0.07413,-2.70312,-2.70312,A,152425.20
0.32658,57.78208651,12.77366731,57.78208600,12.77366550,16:25:29.304983,0.00526,0.00000,0.00000,-0.01937,-0.07209,-0.09394,0.00371,-0.04376,0.08808,0.02342,0.97874,0.32090,0.00000,-1.87358,-1.91554,-0.03123,-0.01776,0.24599,-0.13833,-0.07413,-2.70312,-2.70312,A,152425.20
0.33683,57.78208648,12.77366722,57.78208600,12.77366550,16:25:29.315230,0.00511,0.00000,0.00000,-0.01980,-0.07206,-0.09134,0.00173,-0.04468,0.04496,0.03904,0.97142,0.33149,0.00000,-1.99172,-2.03367,-0.03658,-0.02058,0.24599,-0.13833,-0.07413,-2.70312,-2.70312,A,152425.20
0.40014,57.78208646,12.77366713,57.78208567,12.77366450,16:25:29.378594,0.05803,0.00000,1.50000,-0.02064,-0.07206,-0.08737,0.00310,-0.04117,0.08229,0.00683,0.97472,0.34167,0.00000,-2.09213,-2.13408,-0.04167,-0.02326,0.35853,-0.19761,-0.11119,-2.58283,-2.58283,A,152425.30
0.42218,57.78208642,12.77366700,57.78208567,12.77366450,16:25:29.400591,0.00772,0.00000,0.00000,-0.02778,-0.06977,-0.09669,0.00906,-0.03811,0.05661,0.00250,0.97563,0.41646,0.00000,-2.15965,-2.20026,-0.04947,-0.02765,0.35853,-0.19761,-0.11119,-2.58283,-2.58283,A,152425.30
0.43029,57.78208638,12.77366687,57.78208567,12.77366450,16:25:29.408696,0.00543,0.00000,0.00000,-0.02842,-0.06914,-0.09073,0.01089,-0.03689,0.05795,0.00262,1.00162,0.42463,0.00000,-2.21709,-2.25734,-0.05687,-0.03183,0.35853,-0.19761,-0.11119,-2.58283,-2.58283,A,152425.30
0.44036,57.78208634,12.77366676,57.78208567,12.77366450,16:25:29.418762,0.00510,0.00000,0.00000,-0.02894,-0.06835,-0.08264,0.00891,-0.04010,0.07009,0.01842,0.99595,0.43502,0.00000,-2.26598,-2.30577,-0.06391,-0.03580,0.35853,-0.19761,-0.11119,-2.58283,-2.58283,A,152425.30
0.45079,57.78208631,12.77366664,57.78208567,12.77366450,16:25:29.429188,0.00527,0.00000,0.00000,-0.03006,-0.06750,-0.07485,0.00784,-0.03918,0.03648,-0.03026,1.01461,0.44512,0.00000,-2.30762,-2.34691,-0.07059,-0.03957,0.35853,-0.19761,-0.11119,-2.58283,-2.58283,A,152425.30
0.51330,57.78208628,12.77366654,57.78208533,12.77366333,16:25:29.491757,0.05738,0.00000,1.50000,-0.03128,-0.06657,-0.07638,0.00875,-0.03384,0.07466,-0.03404,1.00186,0.45570,0.00000,-2.34309,-2.38183,-0.07695,-0.04315,0.47272,-0.26677,-0.14826,-2.64963,-2.64963,A,152425.40
0.53286,57.78208623,12.77366638,57.78208533,12.77366333,16:25:29.511493,0.00705,0.00000,0.00000,-0.03424,-0.06051,-0.04309,0.00097,-0.02712,0.07973,-0.00067,0.94568,0.52747,0.00000,-2.38379,-2.41900,-0.08644,-0.04841,0.47272,-0.26677,-0.14826,-2.64963,-2.64963,A,152425.40
0.54168,57.78208619,12.77366622,57.78208533,12.77366333,16:25:29.520094,0.00547,0.00000,0.00000,-0.03438,-0.05986,-0.04217,-0.00820,-0.02910,0.07649,0.00433,0.97161,0.53601,0.00000,-2.41844,-2.45327,-0.09545,-0.05340,0.47272,-0.26677,-0.14826,-2.64963,-2.64963,A,152425.40
0.55172,57.78208614,12.77366608,57.78208533,12.77366333,16:25:29.530121,0.00511,0.00000,0.00000,-0.03420,-0.05898,-0.03606,-0.00881,-0.03078,0.05319,0.02690,0.99698,0.54634,0.00000,-2.44797,-2.48229,-0.10402,-0.05814,0.47272,-0.26677,-0.14826,-2.64963,-2.64963,A,152425.40
0.56284,57.78208610,12.77366594,57.78208533,12.77366333,16:25:29.541249,0.00582,0.00000,0.00000,-0.03441,-0.05791,-0.02736,0.00356,-0.03338,0.05478,-0.00488,0.98911,0.55677,0.00000,-2.47316,-2.50686,-0.11216,-0.06265,0.47272,-0.26677,-0.14826,-2.64963,-2.64963,A,152425.40
0.57254,57.78208606,12.77366581,57.78208533,12.77366333,16:25:29.550941,0.00512,0.00000,0.00000,-0.03565,-0.05666,-0.02812,0.00158,-0.03613,0.06936,-0.07296,0.99631,0.56718,0.00000,-2.49469,-2.52766,-0.11989,-0.06693,0.47272,-0.26677,-0.14826,-2.64963,-2.64963,A,152425.40
0.64479,57.78208603,12.77366569,57.78208467,12.77366033,16:25:29.623629,0.06715,0.00000,1.50000,-0.03647,-0.05525,-0.02445,0.00478,-0.03307,0.10321,-0.04880,0.98009,0.57724,0.00000,-2.51311,-2.54525,-0.12723,-0.07099,0.60479,-0.44462,-0.22239,-2.74667,-2.74667,A,152425.60
0.66767,57.78208596,12.77366542,57.78208467,12.77366033,16:25:29.646073,0.00824,0.00000,0.00000,-0.03578,-0.04056,0.00471,-0.01583,-0.01139,-0.00653,0.00805,1.00369,0.66206,0.00000,-2.54460,-2.56820,-0.14310,-0.07856,0.60479,-0.44462,-0.22239,-2.74667,-2.74667,A,152425.60
0.67492,57.78208590,12.77366517,57.78208467,12.77366033,16:25:29.653324,0.00526,0.00000,0.00000,-0.03613,-0.03903,0.01525,-0.00407,-0.01261,0.01714,-0.04221,0.99674,0.66927,0.00000,-2.57151,-2.59421,-0.15818,-0.08576,0.60479,-0.44462,-0.22239,-2.74667,-2.74667,A,152425.60
0.68554,57.78208583,12.77366492,57.78208467,12.77366033,16:25:29.663951,0.00548,0.00000,0.00000,-0.03626,-0.03688,0.01449,-0.00682,-0.01246,0.07210,-0.02934,0.98466,0.67981,0.00000,-2.59457,-2.61602,-0.17250,-0.09259,0.60479,-0.44462,-0.22239,-2.74667,-2.74667,A,152425.60
0.69573,57.78208578,12.77366469,57.78208467,12.77366033,16:25:29.674132,0.00527,0.00000,0.00000,-0.03629,-0.03473,0.01113,-0.00255,-0.01368,0.02416,-0.02141,1.00009,0.69000,0.00000,-2.61435,-2.63455,-0.18611,-0.09908,0.60479,-0.44462,-0.22239,-2.74667,-2.74667,A,152425.60
0.75573,57.78208572,12.77366448,57.78208433,12.77365883,16:25:29.734777,0.05487,0.00000,1.50000,-0.03595,-0.03249,0.01525,0.00158,-0.01185,0.06832,0.00067,1.01949,0.70061,0.00000,-2.63137,-2.65026,-0.19903,-0.10524,0.71743,-0.53354,-0.25945,-2.74667,-2.74667,A,152425.70
0.77670,57.78208565,12.77366419,57.78208433,12.77365883,16:25:29.755106,0.00897,0.00000,0.00000,-0.03485,-0.02123,0.01754,-0.01370,-0.01001,0.02745,-0.01995,1.00266,0.77126,0.00000,-2.64681,-2.65915,-0.21576,-0.11295,0.71743,-0.53354,-0.25945,-2.74667,-2.74667,A,152425.70
0.78294,57.78208558,12.77366393,57.78208433,12.77365883,16:25:29.761338,0.00509,0.00000,0.00000,-0.03462,-0.02066,0.01953,-0.00911,-0.00513,0.00891,-0.00250,0.99674,0.77733,0.00000,-2.65999,-2.67200,-0.23165,-0.12028,0.71743,-0.53354,-0.25945,-2.74667,-2.74667,A,152425.70
0.79386,57.78208552,12.77366367,57.78208433,12.77365883,16:25:29.772265,0.00561,0.00000,0.00000,-0.03455,-0.02004,0.01556,-0.00056,-0.00742,0.04191,-0.01586,0.97075,0.78805,0.00000,-2.67124,-2.68290,-0.24674,-0.12724,0.71743,-0.53354,-0.25945,-2.74667,-2.74667,A,152425.70
0.80374,57.78208546,12.77366343,57.78208433,12.77365883,16:25:29.782146,0.00509,0.00000,0.00000,-0.03449,-0.01964,0.01556,-0.00652,-0.00513,0.02800,-0.01635,1.00089,0.79838,0.00000,-2.68084,-2.69227,-0.26108,-0.13385,0.71743,-0.53354,-0.25945,-2.74667,-2.74667,A,152425.70
0.81460,57.78208541,12.77366320,57.78208433,12.77365883,16:25:29.793010,0.00526,0.00000,0.00000,-0.03446,-0.01947,0.01266,0.00448,-0.00940,0.03593,-0.01714,1.01168,0.80894,0.00000,-2.68902,-2.70034,-0.27470,-0.14013,0.71743,-0.53354,-0.25945,-2.74667,-2.74667,A,152425.70
0.87371,57.78208535,12.77366298,57.78208400,12.77365733,16:25:29.852161,0.05397,0.00000,1.50000,-0.03376,-0.01942,0.01189,0.00799,-0.00299,0.02245,0.02885,1.00552,0.81954,0.00000,-2.69597,-2.70726,-0.28765,-0.14610,0.83621,-0.62247,-0.29652,-2.74667,-2.74667,A,152425.80
0.89689,57.78208529,12.77366270,57.78208400,12.77365733,16:25:29.875550,0.00834,0.00000,0.00000,-0.03480,-0.01942,-0.01621,-0.00423,-0.00940,0.04008,-0.00177,0.96270,0.89145,0.00000,-2.70189,-2.71318,-0.30439,-0.15362,0.83621,-0.62247,-0.29652,-2.74667,-2.74667,A,152425.80
0.90411,57.78208522,12.77366243,57.78208400,12.77365733,16:25:29.882519,0.00516,0.00000,0.00000,-0.03502,-0.01942,-0.01270,0.00081,-0.00940,0.07723,-0.01793,0.95556,0.89874,0.00000,-2.70691,-2.71820,-0.32029,-0.16076,0.83621,-0.62247,-0.29652,-2.74667,-2.74667,A,152425.80
0.91471,57.78208516,12.77366218,57.78208400,12.77365733,16:25:29.893117,0.00522,0.00000,0.00000,-0.03521,-0.01942,-0.01850,0.00005,-0.01108,0.01677,-0.01068,1.00821,0.90905,0.00000,-2.71118,-2.72247,-0.33540,-0.16755,0.83621,-0.62247,-0.29652,-2.74667,-2.74667,A,152425.80
0.92500,57.78208510,12.77366193,57.78208400,12.77365733,16:25:29.903728,0.00512,0.00000,0.00000,-0.03521,-0.01942,-0.02659,0.00570,-0.01200,0.07412,0.00775,0.98460,0.91966,0.00000,-2.71481,-2.72610,-0.34975,-0.17400,0.83621,-0.62247,-0.29652,-2.74667,-2.74667,A,152425.80
0.93543,57.78208505,12.77366170,57.78208400,12.77365733,16:25:29.913831,0.00515,0.00000,0.00000,-0.03571,-0.01942,-0.02507,0.00326,-0.01765,0.00628,-0.02806,1.03127,0.92984,0.00000,-2.71790,-2.72919,-0.36339,-0.18012,0.83621,-0.62247,-0.29652,-2.74667,-2.74667,A,152425.80
0.99861,57.78208499,12.77366149,57.78208367,12.77365550,16:25:29.977058,0.05793,0.00000,1.50000,-0.03598,-0.01942,-0.03072,0.00784,-0.01551,0.06728,-0.00823,1.01730,0.94043,0.00000,-2.72052,-2.73181,-0.37634,-0.18594,0.95778,-0.73115,-0.33358,-2.81293,-2.81293,A,152425.90
1.01912,57.78208493,12.77366119,57.78208367,12.77365550,16:25:29.997518,0.00879,1.01501,1.01501,-0.03947,-0.01942,-0.04446,-0.00392,-0.00956,0.04502,-0.03093,0.95898,1.01344,0.20300,-2.73269,-2.74398,-0.39408,-0.19333,0.95778,-0.73115,-0.33358,-2.81293,-2.81293,A,152425.90
1.02594,57.78208486,12.77366089,57.78208367,12.77365550,16:25:30.004338,0.00539,1.01501,1.01501,-0.03958,-0.01942,-0.04874,-0.00362,-0.00803,0.01263,-0.00250,0.98759,1.02030,0.36540,-2.74304,-2.75433,-0.41179,-0.20070,0.95778,-0.73115,-0.33358,-2.81293,-2.81293,A,152425.90
1.03604,57.78208479,12.77366057,57.78208367,12.77365550,16:25:30.014436,0.00508,1.01501,1.01501,-0.04011,-0.01942,-0.05484,0.00432,-0.01200,0.04856,-0.01391,0.97990,1.03068,0.49532,-2.75188,-2.76317,-0.43043,-0.20843,0.95778,-0.73115,-0.33358,-2.81293,-2.81293,A,152425.90
1.04670,57.78208472,12.77366026,57.78208367,12.77365550,16:25:30.025106,0.00521,1.01501,1.01501,-0.04083,-0.01942,-0.05347,0.00417,-0.01460,0.06173,-0.02916,1.01839,1.04106,0.59926,-2.75940,-2.77069,-0.44923,-0.21619,0.95778,-0.73115,-0.33358,-2.81293,-2.81293,A,152425.90
1.05735,57.78208465,12.77365994,57.78208367,12.77365550,16:25:30.035751,0.00545,1.01501,1.01501,-0.04100,-0.01942,-0.05576,0.00646,-0.01597,0.04898,0.01000,1.02571,1.05174,0.68241,-2.76581,-2.77710,-0.46790,-0.22383,0.95778,-0.73115,-0.33358,-2.81293,-2.81293,A,152425.90
1.11654,57.78208459,12.77365963,57.78208317,12.77365383,16:25:30.094988,0.05442,1.01501,1.50000,-0.04121,-0.01942,-0.05546,0.00799,-0.01628,0.03642,0.00439,1.03108,1.06174,0.74893,-2.77127,-2.78256,-0.48604,-0.23122,1.07854,-0.82996,-0.38918,-2.62905,-2.62905,A,152426.00
1.13699,57.78208436,12.77365858,57.78208317,12.77365383,16:25:30.115636,0.00667,1.01501,1.01501,-0.04575,-0.01942,-0.05423,0.00952,-0.00574,0.10571,-0.06808,0.93916,1.13158,0.80214,-2.74897,-2.76026,-0.54843,-0.25608,1.07854,-0.82996,-0.38918,-2.62905,-2.62905,A,152426.00
1.14614,57.78208429,12.77365826,57.78208317,12.77365383,16:25:30.124540,0.00541,1.01501,1.01501,-0.04608,-0.01942,-0.06065,-0.00301,-0.00956,-0.00531,-0.00927,0.99314,1.14047,0.84472,-2.72937,-2.74066,-0.56749,-0.26474,1.07854,-0.82996,-0.38918,-2.62905,-2.62905,A,152426.00
1.15623,57.78208421,12.77365794,57.78208317,12.77365383,16:25:30.134631,0.00511,1.01501,1.01501,-0.04640,-0.01942,-0.05851,0.01303,-0.01582,0.06228,-0.00482,0.99955,1.15086,0.87878,-2.71273,-2.72402,-0.58675,-0.27356,1.07854,-0.82996,-0.38918,-2.62905,-2.62905,A,152426.00
1.16710,57.78208413,12.77365762,57.78208317,12.77365383,16:25:30.145503,0.00560,1.01501,1.01501,-0.04630,-0.01942,-0.05072,0.00738,-0.01750,0.03306,0.01824,1.01486,1.16130,0.90602,-2.69859,-2.70988,-0.60552,-0.28227,1.07854,-0.82996,-0.38918,-2.62905,-2.62905,A,152426.00
1.17726,57.78208405,12.77365732,57.78208317,12.77365383,16:25:30.155679,0.00535,1.01501,1.01501,-0.04655,-0.01942,-0.04935,0.00860,-0.01169,0.07094,-0.00634,1.00741,1.17167,0.92782,-2.68657,-2.69786,-0.62312,-0.29056,1.07854,-0.82996,-0.38918,-2.62905,-2.62905,A,152426.00
1.24946,57.78208398,12.77365703,57.78208250,12.77365033,16:25:30.227916,0.06710,1.01501,1.50000,-0.04805,-0.01942,-0.04919,0.00142,-0.01582,0.08284,-0.09315,1.03566,1.18228,0.94526,-2.67637,-2.68766,-0.64050,-0.29883,1.20959,-1.03744,-0.46331,-2.79845,-2.79845,A,152426.20
1.26977,57.78208362,12.77365561,57.78208250,12.77365033,16:25:30.248182,0.00667,1.01501,1.01501,-0.05165,-0.01942,-0.05011,0.00616,0.00342,0.08345,0.00384,0.97100,1.26408,0.95921,-2.69407,-2.70536,-0.72492,-0.33856,1.20959,-1.03744,-0.46331,-2.79845,-2.79845,A,152426.20
1.27873,57.78208354,12.77365525,57.78208250,12.77365033,16:25:30.257131,0.00523,1.01501,1.01501,-0.05272,-0.01939,-0.04965,-0.00423,-0.00085,0.05264,-0.07125,1.01211,1.27309,0.97037,-2.70813,-2.71941,-0.74626,-0.34747,1.20959,-1.03744,-0.46331,-2.79845,-2.79845,A,152426.20
1.28971,57.78208346,12.77365488,57.78208250,12.77365033,16:25:30.268114,0.00581,1.01501,1.01501,-0.05343,-0.01930,-0.06126,-0.00438,-0.00238,0.03483,-0.03459,1.01455,1.28390,0.97930,-2.72012,-2.73135,-0.76819,-0.35656,1.20959,-1.03744,-0.46331,-2.79845,-2.79845,A,152426.20
1.29942,57.78208339,12.77365454,57.78208250,12.77365033,16:25:30.277828,0.00513,1.01501,1.01501,-0.05394,-0.01925,-0.05652,0.00600,-0.00146,0.02983,-0.02855,1.03651,1.29384,0.98644,-2.73030,-2.74149,-0.78824,-0.36477,1.20959,-1.03744,-0.46331,-2.79845,-2.79845,A,152426.20
1.36223,57.78208331,12.77365420,57.78208200,12.77364833,16:25:30.340904,0.05754,1.01501,1.50000,-0.05444,-0.01925,-0.05805,0.00448,-0.00910,0.08034,-0.02330,0.98857,1.30446,0.99215,-2.73897,-2.75016,-0.80815,-0.37285,1.32136,-1.15601,-0.51891,-2.70312,-2.70312,A,152426.30
1.38530,57.78208301,12.77365284,57.78208200,12.77364833,16:25:30.363717,0.00931,1.01501,1.01501,-0.05728,-0.01925,-0.04568,0.01089,-0.00757,0.09193,0.00409,1.05036,1.37942,0.99672,-2.73294,-2.74413,-0.88898,-0.40633,1.32136,-1.15601,-0.51891,-2.70312,-2.70312,A,152426.30
1.39130,57.78208295,12.77365255,57.78208200,12.77364833,16:25:30.369692,0.00510,1.01501,1.01501,-0.05712,-0.01925,-0.04797,0.00524,-0.00330,0.06222,-0.00366,1.02614,1.38568,1.00038,-2.72684,-2.73804,-0.90599,-0.41350,1.32136,-1.15601,-0.51891,-2.70312,-2.70312,A,152426.30
1.40204,57.78208287,12.77365221,57.78208200,12.77364833,16:25:30.380454,0.00544,1.01501,1.01501,-0.05699,-0.01925,-0.03545,0.00677,-0.00330,0.00250,-0.00061,1.00680,1.39638,1.00331,-2.72173,-2.73292,-0.92606,-0.42200,1.32136,-1.15601,-0.51891,-2.70312,-2.70312,A,152426.30
1.41213,57.78208280,12.77365190,57.78208200,12.77364833,16:25:30.390533,0.00513,1.01501,1.01501,-0.05763,-0.01925,-0.03301,0.01028,-0.00375,0.06338,-0.05319,0.97771,1.40676,1.00565,-2.71738,-2.72857,-0.94481,-0.42999,1.32136,-1.15601,-0.51891,-2.70312,-2.70312,A,152426.30
1.47264,57.78208273,12.77365159,57.78208150,12.77364667,16:25:30.451086,0.05503,1.01501,1.50000,-0.05771,-0.01925,-0.02781,0.00646,-0.00559,0.05344,-0.02013,0.93617,1.41722,1.00752,-2.71368,-2.72488,-0.96296,-0.43776,1.43408,-1.25481,-0.57451,-2.62905,-2.62905,A,152426.40
1.49460,57.78208243,12.77365033,57.78208150,12.77364667,16:25:30.473004,0.00966,1.01501,1.01501,-0.05867,-0.01857,-0.01514,0.00998,-0.00131,0.09040,-0.02916,1.02590,1.48766,1.00902,-2.70035,-2.71115,-1.03740,-0.47109,1.43408,-1.25481,-0.57451,-2.62905,-2.62905,A,152426.40
1.50074,57.78208237,12.77365009,57.78208150,12.77364667,16:25:30.479140,0.00507,1.33977,1.33977,-0.05807,-0.01837,-0.01224,0.00753,0.00174,0.06875,0.00994,1.02889,1.49540,1.07517,-2.68811,-2.69879,-1.05212,-0.47802,1.43408,-1.25481,-0.57451,-2.62905,-2.62905,A,152426.40
1.51125,57.78208229,12.77364978,57.78208150,12.77364667,16:25:30.489655,0.00519,1.33977,1.33977,-0.05837,-0.01803,-0.00934,0.00219,0.00556,0.02879,-0.05063,1.00754,1.50563,1.12809,-2.67780,-2.68829,-1.07006,-0.48655,1.43408,-1.25481,-0.57451,-2.62905,-2.62905,A,152426.40
1.52189,57.78208222,12.77364949,57.78208150,12.77364667,16:25:30.500295,0.00543,1.33977,1.33977,-0.05910,-0.01758,-0.00399,0.00356,0.00449,0.01982,-0.08089,0.98057,1.51625,1.17042,-2.66909,-2.67931,-1.08756,-0.49497,1.43408,-1.25481,-0.57451,-2.62905,-2.62905,A,152426.40
1.53199,57.78208214,12.77364921,57.78208150,12.77364667,16:25:30.510396,0.00513,1.33977,1.33977,-0.05936,-0.01704,-0.00124,0.00539,0.00648,0.04734,-0.05112,0.95465,1.52662,1.20429,-2.66172,-2.67163,-1.10419,-0.50307,1.43408,-1.25481,-0.57451,-2.62905,-2.62905,A,152426.40
1.59485,57.78208207,12.77364893,57.78208117,12.77364467,16:25:30.573289,0.05743,1.33977,1.50000,-0.05948,-0.01647,-0.00353,0.00295,0.00495,0.03977,-0.04020,0.93269,1.53701,1.23139,-2.65551,-2.66509,-1.12048,-0.51109,1.55432,-1.37338,-0.61157,-2.83860,-2.83860,A,152426.50
1.61465,57.78208169,12.77364749,57.78208117,12.77364467,16:25:30.593047,0.00724,1.33977,1.33977,-0.05757,-0.01076,0.01953,-0.00820,0.00617,0.00085,-0.00171,1.02931,1.60894,1.25306,-2.68309,-2.68934,-1.20577,-0.55361,1.55432,-1.37338,-0.61157,-2.83860,-2.83860,A,152426.50
1.62287,57.78208163,12.77364724,57.78208117,12.77364467,16:25:30.601270,0.00524,1.33977,1.33977,-0.05725,-0.01008,0.02686,-0.00606,0.00892,-0.00817,-0.02830,1.02004,1.61723,1.27040,-2.70560,-2.71146,-1.22076,-0.55972,1.55432,-1.37338,-0.61157,-2.83860,-2.83860,A,152426.50
1.63347,57.78208157,12.77364695,57.78208117,12.77364467,16:25:30.611880,0.00538,1.33977,1.33977,-0.05705,-0.00931,0.03205,-0.00148,0.00724,0.03770,-0.04270,0.99473,1.62787,1.28428,-2.72482,-2.73023,-1.23780,-0.56663,1.55432,-1.37338,-0.61157,-2.83860,-2.83860,A,152426.50
1.64362,57.78208151,12.77364668,57.78208117,12.77364467,16:25:30.622021,0.00513,1.33977,1.33977,-0.05689,-0.00866,0.02854,-0.00301,0.00281,0.02702,-0.04105,0.97027,1.63803,1.29538,-2.74121,-2.74624,-1.25419,-0.57307,1.55432,-1.37338,-0.61157,-2.83860,-2.83860,A,152426.50
1.65429,57.78208146,12.77364641,57.78208117,12.77364467,16:25:30.632701,0.00540,1.33977,1.33977,-0.05683,-0.00804,0.03740,0.00188,0.00358,0.02001,-0.05179,0.93525,1.64863,1.30425,-2.75519,-2.75986,-1.26992,-0.57907,1.55432,-1.37338,-0.61157,-2.83860,-2.83860,A,152426.50
1.71765,57.78208141,12.77364616,57.78208067,12.77364250,16:25:30.696517,0.05836,1.33977,1.50000,-0.05556,-0.00747,0.03770,-0.00377,0.00999,0.03721,0.02373,0.92787,1.65906,1.31136,-2.76711,-2.77146,-1.28468,-0.58455,1.67605,-1.50182,-0.66717,-2.73309,-2.73309,A,152426.60
1.73939,57.78208108,12.77364456,57.78208067,12.77364250,16:25:30.717799,0.00821,1.33977,1.33977,-0.05128,0.00025,0.06321,-0.00972,0.02633,0.00500,-0.05624,1.00699,1.73374,1.31704,-2.76256,-2.76241,-1.37984,-0.62139,1.67605,-1.50182,-0.66717,-2.73309,-2.73309,A,152426.60
1.74673,57.78208104,12.77364435,57.78208067,12.77364250,16:25:30.725137,0.00525,1.33977,1.33977,-0.05068,0.00153,0.06702,-0.00896,0.02618,-0.02233,-0.01824,0.96496,1.74108,1.32158,-2.75827,-2.75738,-1.39208,-0.62612,1.67605,-1.50182,-0.66717,-2.73309,-2.73309,A,152426.60
1.75724,57.78208098,12.77364409,57.78208067,12.77364250,16:25:30.735664,0.00513,1.33977,1.33977,-0.05010,0.00345,0.07588,-0.00285,0.02526,0.00793,-0.03703,0.93714,1.75166,1.32522,-2.75478,-2.75277,-1.40747,-0.63218,1.67605,-1.50182,-0.66717,-2.73309,-2.73309,A,152426.60
1.76766,57.78208093,12.77364384,57.78208067,12.77364250,16:25:30.746066,0.00537,1.33977,1.33977,-0.04920,0.00546,0.06840,-0.00041,0.02694,0.02653,-0.01122,0.90060,1.76227,1.32813,-2.75197,-2.74880,-1.42248,-0.63815,1.67605,-1.50182,-0.66717,-2.73309,-2.73309,A,152426.60
1.84234,57.78208088,12.77364361,57.78207983,12.77363817,16:25:30.820804,0.06869,1.33977,1.50000,-0.04823,0.00747,0.07619,-0.00224,0.02771,0.02989,-0.00885,0.93556,1.77246,1.33046,-2.74975,-2.74540,-1.43621,-0.64364,1.80193,-1.75872,-0.75983,-2.79541,-2.79541,A,152426.80
1.86591,57.78208045,12.77364166,57.78207983,12.77363817,16:25:30.844322,0.00974,1.33977,1.33977,-0.04087,0.02029,0.08581,-0.00911,0.04954,0.04807,-0.02233,0.98924,1.85989,1.33232,-2.75774,-2.74594,-1.55184,-0.69107,1.80193,-1.75872,-0.75983,-2.79541,-2.79541,A,152426.80
1.87181,57.78208040,12.77364140,57.78207983,12.77363817,16:25:30.850215,0.00502,1.33977,1.33977,-0.04018,0.02089,0.08856,-0.00774,0.04786,0.02952,-0.00494,0.98918,1.86646,1.33381,-2.76513,-2.75298,-1.56703,-0.69654,1.80193,-1.75872,-0.75983,-2.79541,-2.79541,A,152426.80
1.88257,57.78208034,12.77364107,57.78207983,12.77363817,16:25:30.860974,0.00523,1.33977,1.33977,-0.03997,0.02165,0.08932,-0.01263,0.04649,0.00976,-0.05697,0.95069,1.87692,1.33500,-2.77138,-2.75879,-1.58680,-0.70387,1.80193,-1.75872,-0.75983,-2.79541,-2.79541,A,152426.80
1.89334,57.78208028,12.77364075,57.78207983,12.77363817,16:25:30.871748,0.00559,1.33977,1.33977,-0.03885,0.02230,0.08397,-0.01874,0.04451,0.05337,0.00445,0.90341,1.88753,1.33595,-2.77675,-2.76378,-1.60544,-0.71071,1.80193,-1.75872,-0.75983,-2.79541,-2.79541,A,152426.80
1.95515,57.78208022,12.77364046,57.78207933,12.77363617,16:25:30.934706,0.05718,1.33977,1.50000,-0.03827,0.02287,0.08428,-0.01660,0.04176,-0.03019,-0.02647,0.95172,1.89759,1.33672,-2.78137,-2.76807,-1.62261,-0.71694,1.91439,-1.87728,-0.81543,-2.70312,-2.70312,A,152426.90
1.97643,57.78207988,12.77363882,57.78207933,12.77363617,16:25:30.954842,0.00674,1.33977,1.33977,-0.03333,0.02474,0.06122,0.00020,0.04008,0.15970,0.02269,0.94172,1.97104,1.33733,-2.77017,-2.75579,-1.71978,-0.75496,1.91439,-1.87728,-0.81543,-2.70312,-2.70312,A,152426.90
1.98548,57.78207982,12.77363855,57.78207933,12.77363617,16:25:30.963897,0.00538,1.33977,1.33977,-0.03188,0.02474,0.06107,-0.01782,0.04023,0.02117,0.05411,0.95276,1.97987,1.33782,-2.76210,-2.74772,-1.73591,-0.76134,1.91439,-1.87728,-0.81543,-2.70312,-2.70312,A,152426.90
1.99563,57.78207976,12.77363826,57.78207933,12.77363617,16:25:30.974024,0.00513,1.33977,1.33977,-0.03109,0.02474,0.05618,-0.01644,0.04008,-0.02318,0.01086,0.96892,1.99005,1.33821,-2.75520,-2.74082,-1.75307,-0.76823,1.91439,-1.87728,-0.81543,-2.70312,-2.70312,A,152426.90
2.00651,57.78207970,12.77363799,57.78207933,12.77363617,16:25:30.984911,0.00561,1.33977,1.33977,-0.03025,0.02474,0.05435,-0.00881,0.04283,-0.01092,0.01488,0.92476,2.00065,1.33852,-2.74934,-2.73495,-1.76934,-0.77486,1.91439,-1.87728,-0.81543,-2.70312,-2.70312,A,152426.90
2.07262,57.78207964,12.77363774,57.78207900,12.77363400,16:25:31.051077,0.06132,1.33977,1.50000,-0.03093,0.02474,0.05145,-0.01293,0.03824,0.02952,-0.07985,0.96752,2.01106,1.33877,-2.74436,-2.72998,-1.78425,-0.78098,2.02779,-2.00573,-0.85249,-2.86066,-2.86066,A,152427.00
2.09417,57.78207927,12.77363607,57.78207900,12.77363400,16:25:31.072579,0.00952,1.29456,1.29456,-0.02985,0.02474,0.02380,-0.00652,0.02190,0.05276,-0.05283,1.01492,2.08826,1.32993,-2.76212,-2.74773,-1.88325,-0.82294,2.02779,-2.00573,-0.85249,-2.86066,-2.86066,A,152427.00
2.10008,57.78207923,12.77363588,57.78207900,12.77363400,16:25:31.078477,0.00501,1.29456,1.29456,-0.02948,0.02474,0.01678,-0.01354,0.02374,0.05887,0.01635,1.00851,2.09473,1.32285,-2.77896,-2.76457,-1.89425,-0.82645,2.02779,-2.00573,-0.85249,-2.86066,-2.86066,A,152427.00
2.11071,57.78207919,12.77363562,57.78207900,12.77363400,16:25:31.089118,0.00522,1.29456,1.29456,-0.02925,0.02474,0.01159,-0.00957,0.02587,0.01019,0.00543,0.99924,2.10507,1.31719,-2.79316,-2.77878,-1.90985,-0.83172,2.02779,-2.00573,-0.85249,-2.86066,-2.86066,A,152427.00
2.12101,57.78207914,12.77363537,57.78207900,12.77363400,16:25:31.099664,0.00512,1.29456,1.29456,-0.02920,0.02474,0.01037,-0.00942,0.02404,0.01513,-0.00518,1.04109,2.11564,1.31267,-2.80524,-2.79085,-1.92461,-0.83654,2.02779,-2.00573,-0.85249,-2.86066,-2.86066,A,152427.00
2.18262,57.78207910,12.77363513,57.78207867,12.77363167,16:25:31.161385,0.05634,1.29456,1.50000,-0.02928,0.02474,0.00578,-0.00163,0.02435,-0.00055,-0.01013,1.01266,2.12584,1.30904,-2.81551,-2.80112,-1.93851,-0.84094,2.14265,-2.14405,-0.88956,-2.87979,-2.87979,A,152427.10
2.20363,57.78207882,12.77363357,57.78207867,12.77363167,16:25:31.182033,0.00841,1.29456,1.29456,-0.02858,0.02199,0.00441,0.01257,0.02129,0.11791,0.02409,1.00510,2.19801,1.30615,-2.82538,-2.81259,-2.03129,-0.87260,2.14265,-2.14405,-0.88956,-2.87979,-2.87979,A,152427.10
2.21083,57.78207879,12.77363337,57.78207867,12.77363167,16:25:31.189234,0.00528,1.29456,1.29456,-0.02788,0.02157,-0.00109,0.00616,0.02160,0.04124,0.04636,1.01126,2.20515,1.30383,-2.83532,-2.82277,-2.04294,-0.87550,2.14265,-2.14405,-0.88956,-2.87979,-2.87979,A,152427.10
2.22154,57.78207876,12.77363312,57.78207867,12.77363167,16:25:31.199955,0.00558,1.29456,1.29456,-0.02777,0.02097,0.00731,0.00998,0.02572,0.07808,0.00238,0.99320,2.21572,1.30197,-2.84364,-2.83144,-2.05798,-0.87950,2.14265,-2.14405,-0.88956,-2.87979,-2.87979,A,152427.10
2.23157,57.78207872,12.77363287,57.78207867,12.77363167,16:25:31.209968,0.00521,1.29456,1.29456,-0.02799,0.02043,0.00975,0.00203,0.02725,0.01244,-0.02190,1.00546,2.22591,1.30049,-2.85067,-2.83879,-2.07250,-0.88328,2.14265,-2.14405,-0.88956,-2.87979,-2.87979,A,152427.10
2.24218,57.78207869,12.77363264,57.78207867,12.77363167,16:25:31.220578,0.00542,1.29456,1.29456,-0.02731,0.01995,0.00914,0.00158,0.02832,0.04941,0.03849,1.00052,2.23653,1.29930,-2.85661,-2.84501,-2.08616,-0.88674,2.14265,-2.14405,-0.88956,-2.87979,-2.87979,A,152427.10
2.30530,57.78207866,12.77363243,57.78207817,12.77362950,16:25:31.283988,0.05815,1.29456,1.50000,-0.02724,0.01959,0.01205,-0.00805,0.02450,0.08991,-0.00360,0.96551,2.24686,1.29835,-2.86164,-2.85025,-2.09883,-0.88987,2.26353,-2.27250,-0.94516,-2.73309,-2.73309,A,152427.20
2.32759,57.78207840,12.77363082,57.78207817,12.77362950,16:25:31.305994,0.00874,1.29456,1.29456,-0.02571,0.01919,0.02029,0.00432,0.03504,0.05728,0.00207,1.02395,2.32195,1.29759,-2.84265,-2.83149,-2.19435,-0.91867,2.26353,-2.27250,-0.94516,-2.73309,-2.73309,A,152427.20
2.33454,57.78207838,12.77363066,57.78207817,12.77362950,16:25:31.312939,0.00532,1.29456,1.29456,-0.02572,0.01919,0.02182,-0.00239,0.03427,0.05155,-0.00945,1.02639,2.32875,1.29699,-2.82780,-2.81664,-2.20385,-0.92179,2.26353,-2.27250,-0.94516,-2.73309,-2.73309,A,152427.20
2.34478,57.78207834,12.77363043,57.78207817,12.77362950,16:25:31.323178,0.00516,1.29456,1.29456,-0.02547,0.01919,0.02090,-0.00850,0.03366,0.10315,0.00384,0.98789,2.33940,1.29650,-2.81511,-2.80395,-2.21717,-0.92629,2.26353,-2.27250,-0.94516,-2.73309,-2.73309,A,152427.20
2.35506,57.78207830,12.77363023,57.78207817,12.77362950,16:25:31.333466,0.00521,1.29456,1.29456,-0.02594,0.01919,0.02945,-0.01874,0.02923,0.04044,-0.04703,0.96862,2.34943,1.29611,-2.80433,-2.79317,-2.22951,-0.93059,2.26353,-2.27250,-0.94516,-2.73309,-2.73309,A,152427.20
2.42022,57.78207826,12.77363002,57.78207767,12.77362733,16:25:31.398974,0.05997,1.29456,1.50000,-0.02553,0.01919,0.02579,-0.01980,0.03351,0.07777,0.01000,0.92122,2.36002,1.29580,-2.79516,-2.78400,-2.24156,-0.93492,2.37695,-2.40094,-1.00075,-2.73309,-2.73309,A,152427.30
2.44179,57.78207794,12.77362844,57.78207767,12.77362733,16:25:31.420197,0.00746,1.29456,1.29456,-0.02172,0.01919,0.04060,0.01074,0.02755,0.07869,0.05155,0.97088,2.43609,1.29555,-2.78616,-2.77500,-2.33519,-0.97022,2.37695,-2.40094,-1.00075,-2.73309,-2.73309,A,152427.30
2.45014,57.78207790,12.77362826,57.78207767,12.77362733,16:25:31.428545,0.00541,1.29456,1.29456,-0.02141,0.01919,0.04076,0.00570,0.02572,0.07290,0.00372,1.01687,2.44449,1.29535,-2.77976,-2.76860,-2.34575,-0.97454,2.37695,-2.40094,-1.00075,-2.73309,-2.73309,A,152427.30
2.46022,57.78207786,12.77362806,57.78207767,12.77362733,16:25:31.438627,0.00508,1.29456,1.29456,-0.02108,0.01919,0.03938,0.00188,0.02969,0.07222,0.00067,0.97258,2.45486,1.29519,-2.77428,-2.76312,-2.35803,-0.97957,2.37695,-2.40094,-1.00075,-2.73309,-2.73309,A,152427.30
2.47092,57.78207781,12.77362785,57.78207767,12.77362733,16:25:31.449323,0.00525,1.29456,1.29456,-0.02053,0.01919,0.04534,-0.01125,0.03305,0.08827,0.01165,0.97691,2.46528,1.29507,-2.76962,-2.75846,-2.37006,-0.98456,2.37695,-2.40094,-1.00075,-2.73309,-2.73309,A,152427.30
2.54206,57.78207777,12.77362766,57.78207667,12.77362283,16:25:31.520507,0.06599,1.29456,1.50000,-0.02018,0.01919,0.04244,-0.01522,0.03549,0.02263,0.00085,0.95380,2.47585,1.29496,-2.76566,-2.75450,-2.38133,-0.98929,2.50346,-2.66771,-1.11195,-2.74667,-2.74667,A,152427.50
2.56414,57.78207738,12.77362586,57.78207667,12.77362283,16:25:31.542542,0.00946,1.29456,1.29456,-0.01540,0.01919,0.05649,0.00524,0.03656,0.09522,0.01867,1.01748,2.55869,1.29488,-2.76299,-2.75183,-2.48801,-1.03308,2.50346,-2.66771,-1.11195,-2.74667,-2.74667,A,152427.50
2.57071,57.78207732,12.77362563,57.78207667,12.77362283,16:25:31.549114,0.00571,1.46925,1.46925,-0.01532,0.01919,0.05481,0.00310,0.03137,0.06728,-0.00525,1.07268,2.56504,1.32976,-2.76214,-2.75098,-2.50212,-1.03913,2.50346,-2.66771,-1.11195,-2.74667,-2.74667,A,152427.50
2.58058,57.78207725,12.77362533,57.78207667,12.77362283,16:25:31.558979,0.00517,1.46925,1.46925,-0.01517,0.01919,0.06534,-0.00301,0.03717,0.06429,-0.02147,1.03541,2.57520,1.35765,-2.76134,-2.75018,-2.51985,-1.04666,2.50346,-2.66771,-1.11195,-2.74667,-2.74667,A,152427.50
2.59110,57.78207719,12.77362504,57.78207667,12.77362283,16:25:31.569511,0.00547,1.46925,1.46925,-0.01502,0.01919,0.06198,-0.00469,0.04008,0.02452,-0.01861,1.01961,2.58523,1.37997,-2.76065,-2.74949,-2.53707,-1.05398,2.50346,-2.66771,-1.11195,-2.74667,-2.74667,A,152427.50
2.60152,57.78207712,12.77362476,57.78207667,12.77362283,16:25:31.579942,0.00549,1.46925,1.46925,-0.01527,0.01919,0.06336,-0.01370,0.03824,0.08375,-0.04544,0.95337,2.59591,1.39783,-2.76007,-2.74891,-2.55379,-1.06109,2.50346,-2.66771,-1.11195,-2.74667,-2.74667,A,152427.50
2.66328,57.78207706,12.77362449,57.78207617,12.77362067,16:25:31.641726,0.05703,1.46925,1.50000,-0.01462,0.01919,0.06397,-0.02087,0.03809,0.01336,0.01330,0.93897,2.60588,1.41211,-2.75956,-2.74841,-2.56976,-1.06789,2.62269,-2.79616,-1.16755,-2.73309,-2.73309,A,152427.60
2.68537,57.78207669,12.77362279,57.78207617,12.77362067,16:25:31.663788,0.00814,1.46925,1.46925,-0.00935,0.01947,0.06870,-0.00041,0.03702,0.07161,0.03361,1.05170,2.67970,1.42354,-2.75585,-2.74453,-2.67009,-1.10979,2.62269,-2.79616,-1.16755,-2.73309,-2.73309,A,152427.60
2.69294,57.78207663,12.77362256,57.78207617,12.77362067,16:25:31.671598,0.00530,1.46925,1.46925,-0.00881,0.01970,0.07038,-0.00071,0.03443,0.03678,0.01867,1.04560,2.68755,1.43268,-2.75403,-2.74258,-2.68390,-1.11583,2.62269,-2.79616,-1.16755,-2.73309,-2.73309,A,152427.60
2.70314,57.78207657,12.77362229,57.78207617,12.77362067,16:25:31.681544,0.00528,1.46925,1.46925,-0.00796,0.02007,0.06641,-0.01049,0.03733,-0.00805,0.03343,1.00778,2.69749,1.43999,-2.75247,-2.74080,-2.69972,-1.12272,2.62269,-2.79616,-1.16755,-2.73309,-2.73309,A,152427.60
2.71382,57.78207651,12.77362203,57.78207617,12.77362067,16:25:31.692230,0.00555,1.46925,1.46925,-0.00771,0.02041,0.07023,-0.00866,0.03870,0.01885,-0.01196,0.99162,2.70804,1.44584,-2.75117,-2.73930,-2.71525,-1.12949,2.62269,-2.79616,-1.16755,-2.73309,-2.73309,A,152427.60
2.77422,57.78207645,12.77362178,57.78207567,12.77361817,16:25:31.752668,0.05556,1.46925,1.50000,-0.00800,0.02063,0.07069,-0.01492,0.03427,0.02617,-0.04368,0.94520,2.71842,1.45053,-2.75007,-2.73807,-2.73016,-1.13602,2.73504,-2.94437,-1.22314,-2.78270,-2.78270,A,152427.70
2.79418,57.78207608,12.77362014,57.78207567,12.77361817,16:25:31.772589,0.00934,1.46925,1.46925,-0.00317,0.02072,0.06275,0.01471,0.03672,0.07594,0.05441,1.01675,2.78844,1.45427,-2.75526,-2.74321,-2.82733,-1.17729,2.73504,-2.94437,-1.22314,-2.78270,-2.78270,A,152427.70
2.80012,57.78207604,12.77361995,57.78207567,12.77361817,16:25:31.778519,0.00504,1.46925,1.46925,-0.00221,0.02072,0.05878,0.00799,0.03229,0.01739,0.06875,1.05756,2.79475,1.45727,-2.76109,-2.74904,-2.83850,-1.18182,2.73504,-2.94437,-1.22314,-2.78270,-2.78270,A,152427.70
2.81073,57.78207598,12.77361968,57.78207567,12.77361817,16:25:31.789138,0.00524,1.46925,1.46925,-0.00119,0.02072,0.06183,0.00249,0.03412,0.09906,0.05191,1.00119,2.80507,1.45966,-2.76595,-2.75390,-2.85472,-1.18841,2.73504,-2.94437,-1.22314,-2.78270,-2.78270,A,152427.70
2.82128,57.78207592,12.77361942,57.78207567,12.77361817,16:25:31.799690,0.00538,1.46925,1.46925,-0.00115,0.02072,0.06091,-0.01522,0.02618,0.10205,-0.01196,0.95001,2.81567,1.46158,-2.77008,-2.75803,-2.87015,-1.19462,2.73504,-2.94437,-1.22314,-2.78270,-2.78270,A,152427.70
2.83145,57.78207587,12.77361917,57.78207567,12.77361817,16:25:31.809850,0.00514,1.46925,1.46925,-0.00010,0.02072,0.06015,-0.01706,0.03687,0.06313,0.05417,0.94538,2.82585,1.46311,-2.77359,-2.76154,-2.88467,-1.20041,2.73504,-2.94437,-1.22314,-2.78270,-2.78270,A,152427.70
2.89265,57.78207582,12.77361894,57.78207517,12.77361583,16:25:31.872142,0.05594,1.46925,1.50000,0.00095,0.02072,0.06595,-0.02011,0.03427,0.04453,0.04862,0.91537,2.83648,1.46434,-2.77657,-2.76452,-2.89878,-1.20599,2.85336,-3.08269,-1.27874,-2.75942,-2.75942,A,152427.80
2.91521,57.78207546,12.77361723,57.78207517,12.77361583,16:25:31.893612,0.00827,1.46925,1.46925,0.00389,0.02072,0.03587,-0.00102,0.00556,0.01665,0.05276,0.99808,2.90951,1.46532,-2.77422,-2.76217,-2.99977,-1.24598,2.85336,-3.08269,-1.27874,-2.75942,-2.75942,A,152427.80
2.92272,57.78207542,12.77361704,57.78207517,12.77361583,16:25:31.901122,0.00524,1.46925,1.46925,0.00486,0.02072,0.03113,-0.00331,0.00709,0.04715,0.08052,0.98606,2.91705,1.46611,-2.77368,-2.76163,-3.01097,-1.25043,2.85336,-3.08269,-1.27874,-2.75942,-2.75942,A,152427.80
2.93326,57.78207537,12.77361680,57.78207517,12.77361583,16:25:31.911681,0.00538,1.46925,1.46925,0.00524,0.02055,0.03297,-0.00774,0.01045,0.09119,0.03312,0.92293,2.92766,1.46673,-2.77314,-2.76119,-3.02558,-1.25625,2.85336,-3.08269,-1.27874,-2.75942,-2.75942,A,152427.80
2.94342,57.78207532,12.77361657,57.78207517,12.77361583,16:25:31.921824,0.00515,1.46925,1.46925,0.00565,0.02009,0.03343,-0.01751,0.00892,-0.05703,0.03751,0.96185,2.93783,1.46724,-2.77265,-2.76097,-3.03927,-1.26171,2.85336,-3.08269,-1.27874,-2.75942,-2.75942,A,152427.80
3.00587,57.78207527,12.77361634,57.78207467,12.77361350,16:25:31.984321,0.05720,1.46925,1.50000,0.00652,0.01933,0.03465,-0.00117,0.01121,-0.01952,0.06539,0.96972,2.94844,1.46764,-2.77217,-2.76092,-3.05259,-1.26702,2.96528,-3.22102,-1.33434,-2.75942,-2.75942,A,152427.90
3.02830,57.78207490,12.77361462,57.78207467,12.77361350,16:25:32.006710,0.00758,1.65191,1.65191,0.00955,0.00996,0.03358,0.00341,0.01030,0.02763,0.06960,0.97423,3.02290,1.50449,-2.76961,-2.76381,-3.15468,-1.30787,2.96528,-3.22102,-1.33434,-2.75942,-2.75942,A,152427.90
3.03624,57.78207486,12.77361443,57.78207467,12.77361350,16:25:32.014648,0.00512,1.65191,1.65191,0.00991,0.00957,0.03052,-0.00133,0.00678,0.05771,0.04331,0.96978,3.03087,1.53398,-2.76884,-2.76328,-3.16618,-1.31244,2.96528,-3.22102,-1.33434,-2.75942,-2.75942,A,152427.90
3.04674,57.78207481,12.77361419,57.78207467,12.77361350,16:25:32.025145,0.00525,1.65191,1.65191,0.01015,0.00928,0.03022,-0.00972,0.00342,0.02275,0.03117,0.97063,3.04108,1.55756,-2.76815,-2.76275,-3.18032,-1.31806,2.96528,-3.22102,-1.33434,-2.75942,-2.75942,A,152427.90
3.05740,57.78207476,12.77361395,57.78207467,12.77361350,16:25:32.035823,0.00550,1.65191,1.65191,0.01063,0.00923,0.03327,-0.01034,0.00220,0.03263,0.04416,0.96368,3.05167,1.57643,-2.76755,-2.76219,-3.19407,-1.32354,2.96528,-3.22102,-1.33434,-2.75942,-2.75942,A,152427.90
3.11878,57.78207472,12.77361373,57.78207417,12.77361117,16:25:32.097756,0.05649,1.65191,1.50000,0.01113,0.00923,0.03495,-0.00362,0.00342,-0.02660,0.04575,0.95855,3.06185,1.59153,-2.76705,-2.76168,-3.20709,-1.32874,3.07890,-3.35934,-1.38994,-2.75942,-2.75942,A,152428.00
3.14248,57.78207433,12.77361190,57.78207417,12.77361117,16:25:32.120880,0.00875,1.65191,1.65191,0.01604,0.00923,0.05511,0.00280,0.02099,0.08461,0.09284,0.95861,3.13603,1.60360,-2.76593,-2.76056,-3.31606,-1.37227,3.07890,-3.35934,-1.38994,-2.75942,-2.75942,A,152428.00
3.14927,57.78207429,12.77361175,57.78207417,12.77361117,16:25:32.127681,0.00509,1.65191,1.65191,0.01717,0.00923,0.05190,-0.00346,0.02099,0.09144,0.09138,0.98789,3.14368,1.61327,-2.76570,-2.76034,-3.32504,-1.37588,3.07890,-3.35934,-1.38994,-2.75942,-2.75942,A,152428.00
3.15947,57.78207424,12.77361151,57.78207417,12.77361117,16:25:32.137872,0.00513,1.65191,1.65191,0.01700,0.00923,0.06366,-0.00743,0.01641,0.00305,-0.00976,0.97600,3.15387,1.62099,-2.76547,-2.76011,-3.33903,-1.38150,3.07890,-3.35934,-1.38994,-2.75942,-2.75942,A,152428.00
3.17041,57.78207419,12.77361128,57.78207417,12.77361117,16:25:32.148809,0.00568,1.65191,1.65191,0.01780,0.00923,0.06565,-0.00194,0.01457,0.06527,0.04929,0.96575,3.16450,1.62718,-2.76527,-2.75991,-3.35269,-1.38700,3.07890,-3.35934,-1.38994,-2.75942,-2.75942,A,152428.00
3.24162,57.78207415,12.77361108,57.78207317,12.77360650,16:25:32.220063,0.06649,1.65191,1.50000,0.01847,0.00923,0.06091,-0.00575,0.01793,0.03843,0.04666,0.97264,3.17486,1.63212,-2.76511,-2.75974,-3.36457,-1.39178,3.20247,-3.63600,-1.50113,-2.75942,-2.75942,A,152428.20
3.26172,57.78207369,12.77360892,57.78207317,12.77360650,16:25:32.240132,0.00792,1.65191,1.65191,0.02467,0.00923,0.08474,0.00417,0.01305,0.02220,0.00701,0.98905,3.25604,1.63608,-2.76418,-2.75881,-3.49240,-1.44313,3.20247,-3.63600,-1.50113,-2.75942,-2.75942,A,152428.20
3.27000,57.78207363,12.77360865,57.78207317,12.77360650,16:25:32.248407,0.00579,1.65191,1.65191,0.02447,0.00923,0.08138,-0.00530,0.00709,0.00976,-0.00458,0.99521,3.26400,1.63925,-2.76420,-2.75884,-3.50842,-1.44959,3.20247,-3.63600,-1.50113,-2.75942,-2.75942,A,152428.20
3.27974,57.78207357,12.77360835,57.78207317,12.77360650,16:25:32.258145,0.00514,1.65191,1.65191,0.02497,0.00923,0.07619,-0.00743,0.00526,0.05588,0.03221,0.98088,3.27436,1.64178,-2.76420,-2.75883,-3.52632,-1.45681,3.20247,-3.63600,-1.50113,-2.75942,-2.75942,A,152428.20
3.29065,57.78207350,12.77360804,57.78207317,12.77360650,16:25:32.269055,0.00530,1.65191,1.65191,0.02610,0.00923,0.06916,-0.01202,0.00846,-0.03312,0.07735,0.98552,3.28496,1.64381,-2.76419,-2.75882,-3.54454,-1.46415,3.20247,-3.63600,-1.50113,-2.75942,-2.75942,A,152428.20
3.30091,57.78207344,12.77360776,57.78207317,12.77360650,16:25:32.279765,0.00516,1.65191,1.65191,0.02758,0.00923,0.07756,-0.01125,0.00602,0.00500,0.10083,1.02669,3.29553,1.64543,-2.76418,-2.75882,-3.56140,-1.47094,3.20247,-3.63600,-1.50113,-2.75942,-2.75942,A,152428.20
3.36318,57.78207338,12.77360749,57.78207267,12.77360400,16:25:32.342231,0.05703,1.65191,1.50000,0.02781,0.00923,0.08275,-0.01644,0.00526,0.00146,0.01458,1.03511,3.30570,1.64672,-2.76418,-2.75882,-3.57727,-1.47734,3.32254,-3.78420,-1.55673,-2.78270,-2.78270,A,152428.30
3.38381,57.78207298,12.77360559,57.78207267,12.77360400,16:25:32.362210,0.00713,1.65191,1.65191,0.03258,0.00903,0.07267,-0.01721,0.00159,-0.04069,0.02769,0.98716,3.37793,1.64776,-2.76696,-2.76171,-3.68977,-1.52244,3.32254,-3.78420,-1.55673,-2.78270,-2.78270,A,152428.30
3.39245,57.78207292,12.77360535,57.78207267,12.77360400,16:25:32.370856,0.00537,1.65191,1.65191,0.03271,0.00875,0.06412,-0.00743,-0.00314,-0.01861,0.03074,1.01199,3.38684,1.64859,-2.77001,-2.76492,-3.70413,-1.52800,3.32254,-3.78420,-1.55673,-2.78270,-2.78270,A,152428.30
3.40273,57.78207287,12.77360508,57.78207267,12.77360400,16:25:32.381133,0.00524,1.65191,1.65191,0.03241,0.00821,0.05190,0.00203,-0.01383,0.02245,0.00445,0.99497,3.39707,1.64925,-2.77254,-2.76777,-3.72009,-1.53417,3.32254,-3.78420,-1.55673,-2.78270,-2.78270,A,152428.30
3.41341,57.78207282,12.77360482,57.78207267,12.77360400,16:25:32.391831,0.00552,1.65191,1.65191,0.03229,0.00753,0.04824,-0.00743,-0.01857,0.05313,0.01818,1.06555,3.40767,1.64979,-2.77464,-2.77026,-3.73573,-1.54018,3.32254,-3.78420,-1.55673,-2.78270,-2.78270,A,152428.30
3.47600,57.78207277,12.77360457,57.78207217,12.77360183,16:25:32.454688,0.05771,1.65191,1.50000,0.03341,0.00676,0.03587,0.00051,-0.01719,-0.05703,0.11822,1.08531,3.41785,1.65021,-2.77636,-2.77243,-3.75039,-1.54577,3.43468,-3.91265,-1.61233,-2.73309,-2.73309,A,152428.40
3.49865,57.78207237,12.77360265,57.78207217,12.77360183,16:25:32.477049,0.00898,1.65191,1.65191,0.03652,-0.00008,0.03236,-0.01538,-0.00253,0.03544,0.10705,0.99064,3.49218,1.65055,-2.76927,-2.76931,-3.86431,-1.59003,3.43468,-3.91265,-1.61233,-2.73309,-2.73309,A,152428.40
3.50525,57.78207233,12.77360249,57.78207217,12.77360183,16:25:32.483675,0.00513,1.65191,1.65191,0.03592,-0.00119,0.03511,-0.01140,-0.01444,-0.04526,0.00354,1.00247,3.49966,1.65082,-2.76374,-2.76443,-3.87350,-1.59379,3.43468,-3.91265,-1.61233,-2.73309,-2.73309,A,152428.40
3.51605,57.78207228,12.77360225,57.78207217,12.77360183,16:25:32.494454,0.00576,1.65191,1.65191,0.03735,-0.00238,0.02793,0.00173,-0.01444,-0.01128,0.13743,0.99784,3.50984,1.65104,-2.75894,-2.76033,-3.88771,-1.59957,3.43468,-3.91265,-1.61233,-2.73309,-2.73309,A,152428.40
3.52612,57.78207223,12.77360204,57.78207217,12.77360183,16:25:32.504525,0.00543,1.42926,1.42926,0.03821,-0.00337,0.02564,0.00585,-0.01979,0.01714,0.10364,1.02797,3.52046,1.60668,-2.75480,-2.75675,-3.90063,-1.60489,3.43468,-3.91265,-1.61233,-2.73309,-2.73309,A,152428.40
3.58677,57.78207219,12.77360183,57.78207167,12.77359967,16:25:32.565223,0.05568,1.42926,1.50000,0.03798,-0.00413,0.02762,0.00906,-0.02070,0.03587,0.02952,1.05091,3.53085,1.57120,-2.75121,-2.75362,-3.91299,-1.61003,3.54747,-4.04109,-1.66792,-2.73309,-2.73309,A,152428.50
3.60673,57.78207182,12.77360014,57.78207167,12.77359967,16:25:32.585141,0.00785,1.42926,1.42926,0.03999,-0.00538,0.00869,-0.00133,-0.01017,-0.01488,0.15439,0.98088,3.60059,1.54281,-2.74835,-2.75148,-4.01333,-1.65131,3.54747,-4.04109,-1.66792,-2.73309,-2.73309,A,152428.50
3.61478,57.78207178,12.77359998,57.78207167,12.77359967,16:25:32.593180,0.00535,1.42926,1.42926,0.04110,-0.00552,0.01189,0.00875,-0.01292,0.00982,0.13139,0.99735,3.60903,1.52010,-2.74562,-2.74883,-4.02273,-1.65544,3.54747,-4.04109,-1.66792,-2.73309,-2.73309,A,152428.50
3.62498,57.78207173,12.77359977,57.78207167,12.77359967,16:25:32.603625,0.00516,1.42926,1.42926,0.04126,-0.00566,0.01449,0.01639,-0.01582,-0.04313,0.06448,0.99107,3.61959,1.50193,-2.74330,-2.74659,-4.03489,-1.66072,3.54747,-4.04109,-1.66792,-2.73309,-2.73309,A,152428.50
3.63538,57.78207169,12.77359958,57.78207167,12.77359967,16:25:32.613787,0.00516,1.42926,1.42926,0.04240,-0.00569,0.00930,0.02005,-0.01200,0.10285,0.12871,0.94995,3.62977,1.48740,-2.74132,-2.74463,-4.04625,-1.66568,3.54747,-4.04109,-1.66792,-2.73309,-2.73309,A,152428.50
3.64613,57.78207164,12.77359939,57.78207167,12.77359967,16:25:32.624534,0.00551,1.42926,1.42926,0.04236,-0.00569,0.01785,0.01334,-0.01246,-0.02074,0.05094,0.99314,3.64046,1.47577,-2.73965,-2.74296,-4.05728,-1.67053,3.54747,-4.04109,-1.66792,-2.73309,-2.73309,A,152428.50
3.71051,57.78207160,12.77359923,57.78207117,12.77359717,16:25:32.689261,0.05949,1.42926,1.50000,0.04371,-0.00569,0.01388,0.02051,-0.01017,0.04081,0.14585,0.98954,3.65077,1.46647,-2.73822,-2.74153,-4.06712,-1.67488,3.66737,-4.18930,-1.72352,-2.78270,-2.78270,A,152428.60
3.73116,57.78207123,12.77359755,57.78207117,12.77359717,16:25:32.709568,0.00648,1.42926,1.42926,0.04556,-0.00569,0.02716,-0.00942,0.00388,-0.05234,0.05710,0.99625,3.72546,1.45903,-2.74485,-2.74815,-4.16679,-1.71688,3.66737,-4.18930,-1.72352,-2.78270,-2.78270,A,152428.60
3.74023,57.78207119,12.77359737,57.78207117,12.77359717,16:25:32.718629,0.00514,1.42926,1.42926,0.04509,-0.00569,0.02106,0.00585,0.00312,-0.01086,0.02556,1.01162,3.73485,1.45308,-2.75007,-2.75338,-4.17725,-1.72109,3.66737,-4.18930,-1.72352,-2.78270,-2.78270,A,152428.60
3.75072,57.78207115,12.77359718,57.78207117,12.77359717,16:25:32.729120,0.00523,1.42926,1.42926,0.04540,-0.00569,0.02503,0.00967,0.00129,0.03605,0.07161,0.99131,3.74507,1.44831,-2.75452,-2.75783,-4.18864,-1.72562,3.66737,-4.18930,-1.72352,-2.78270,-2.78270,A,152428.60
3.76101,57.78207111,12.77359699,57.78207117,12.77359717,16:25:32.739784,0.00512,1.42926,1.42926,0.04506,-0.00569,0.03220,0.00127,0.00236,0.01586,0.02495,1.03133,3.75566,1.44450,-2.75831,-2.76161,-4.19955,-1.72991,3.66737,-4.18930,-1.72352,-2.78270,-2.78270,A,152428.60
3.80423,57.78207107,12.77359682,57.78207067,12.77359483,16:25:32.782658,0.03794,1.42926,1.50000,0.04559,-0.00569,0.03022,0.00127,0.00022,-0.02721,0.08778,1.04078,3.76586,1.44145,-2.76152,-2.76483,-4.20978,-1.73388,3.78297,-4.32763,-1.77912,-2.75942,-2.75942,A,152428.70
3.81531,57.78207087,12.77359584,57.78207067,12.77359483,16:25:32.793705,0.00563,1.42926,1.42926,0.04660,-0.00461,0.02823,-0.03370,0.02465,-0.02562,0.05642,1.00467,3.80934,1.43902,-2.76105,-2.76374,-4.26812,-1.75689,3.78297,-4.32763,-1.77912,-2.75942,-2.75942,A,152428.70
3.82548,57.78207082,12.77359561,57.78207067,12.77359483,16:25:32.803891,0.00540,1.42926,1.42926,0.04744,-0.00430,0.02655,-0.01919,0.02297,-0.02019,0.10968,1.01290,3.81985,1.43707,-2.76047,-2.76297,-4.28146,-1.76212,3.78297,-4.32763,-1.77912,-2.75942,-2.75942,A,152428.70
3.83563,57.78207077,12.77359539,57.78207067,12.77359483,16:25:32.814035,0.00516,1.42926,1.42926,0.04837,-0.00408,0.03434,-0.00728,0.02038,-0.03715,0.11047,0.99826,3.83003,1.43550,-2.76000,-2.76237,-4.29466,-1.76730,3.78297,-4.32763,-1.77912,-2.75942,-2.75942,A,152428.70
3.84628,57.78207073,12.77359518,57.78207067,12.77359483,16:25:32.824690,0.00542,1.42926,1.42926,0.04936,-0.00391,0.03816,0.00387,0.01641,0.02586,0.10882,0.96789,3.84062,1.43426,-2.75961,-2.76188,-4.30718,-1.77222,3.78297,-4.32763,-1.77912,-2.75942,-2.75942,A,152428.70
3.85642,57.78207069,12.77359498,57.78207067,12.77359483,16:25:32.834821,0.00515,1.42926,1.42926,0.04950,-0.00379,0.04045,0.00356,0.01427,0.01415,0.05362,0.97100,3.85104,1.43326,-2.75929,-2.76149,-4.31876,-1.77678,3.78297,-4.32763,-1.77912,-2.75942,-2.75942,A,152428.70
3.86679,57.78207065,12.77359480,57.78207067,12.77359483,16:25:32.845185,0.00527,1.42926,1.42926,0.04945,-0.00365,0.03541,0.01150,0.01014,0.03007,0.04538,0.97905,3.86112,1.43246,-2.75902,-2.76114,-4.32968,-1.78109,3.78297,-4.32763,-1.77912,-2.75942,-2.75942,A,152428.70
3.87732,57.78207061,12.77359462,57.78207067,12.77359483,16:25:32.855735,0.00539,1.42926,1.42926,0.04898,-0.00348,0.03404,0.00998,0.01457,0.05496,0.01787,0.95270,3.87171,1.43182,-2.75881,-2.76083,-4.34034,-1.78529,3.78297,-4.32763,-1.77912,-2.75942,-2.75942,A,152428.70
3.93133,57.78207057,12.77359444,57.78206933,12.77359033,16:25:32.909757,0.04900,1.42926,1.50000,0.04885,-0.00337,0.03113,0.01303,0.01274,0.03453,0.04197,0.97106,3.88204,1.43131,-2.75864,-2.76060,-4.35076,-1.78941,3.90949,-4.59440,-1.92738,-2.63434,-2.63434,A,152428.90
3.94285,57.78207027,12.77359311,57.78206933,12.77359033,16:25:32.921256,0.00541,1.42926,1.42926,0.05021,-0.00328,0.01281,-0.01324,-0.00895,-0.03080,0.11309,0.96093,3.93715,1.43090,-2.73990,-2.74181,-4.42998,-1.82316,3.90949,-4.59440,-1.92738,-2.63434,-2.63434,A,152428.90
3.95330,57.78207018,12.77359279,57.78206933,12.77359033,16:25:32.931732,0.00517,1.42926,1.42926,0.05059,-0.00328,0.02090,0.00005,-0.01154,-0.06210,0.08235,0.96337,3.94765,1.43057,-2.72381,-2.72572,-4.44871,-1.83281,3.90949,-4.59440,-1.92738,-2.63434,-2.63434,A,152428.90
3.96341,57.78207010,12.77359249,57.78206933,12.77359033,16:25:32.941816,0.00516,1.42926,1.42926,0.05116,-0.00328,0.02411,0.00921,-0.00818,-0.00470,0.09284,0.95764,3.95781,1.43031,-2.71013,-2.71204,-4.46641,-1.84214,3.90949,-4.59440,-1.92738,-2.63434,-2.63434,A,152428.90
3.97452,57.78207002,12.77359220,57.78206933,12.77359033,16:25:32.952921,0.00586,1.42926,1.42926,0.05115,-0.00328,0.01922,0.00936,0.00006,-0.00811,0.06002,0.99314,3.96883,1.43010,-2.69851,-2.70042,-4.48394,-1.85150,3.90949,-4.59440,-1.92738,-2.63434,-2.63434,A,152428.90
3.98443,57.78206994,12.77359194,57.78206933,12.77359033,16:25:32.962834,0.00537,1.42926,1.42926,0.05120,-0.00328,0.01632,0.00860,-0.00100,-0.00055,0.06863,1.00833,3.97880,1.42993,-2.68862,-2.69053,-4.49915,-1.85987,3.90949,-4.59440,-1.92738,-2.63434,-2.63434,A,152428.90
3.99488,57.78206987,12.77359169,57.78206933,12.77359033,16:25:32.973288,0.00539,1.55603,1.55603,0.05114,-0.00328,0.01693,0.00371,-0.00070,0.01330,0.06015,1.01309,3.98908,1.45515,-2.68022,-2.68213,-4.51417,-1.86821,3.90949,-4.59440,-1.92738,-2.63434,-2.63434,A,152428.90
4.00529,57.78206979,12.77359144,57.78206933,12.77359033,16:25:32.983703,0.00540,1.55603,1.55603,0.05165,-0.00328,0.01342,0.00677,0.00495,-0.03093,0.10522,1.05115,3.99967,1.47533,-2.67308,-2.67499,-4.52855,-1.87630,3.90949,-4.59440,-1.92738,-2.63434,-2.63434,A,152428.90
4.06876,57.78206972,12.77359119,57.78206883,12.77358800,16:25:33.047208,0.05853,1.55603,1.50000,0.05125,-0.00328,0.02243,0.00998,0.00327,0.07174,0.03221,0.97130,4.01069,1.49147,-2.66702,-2.66893,-4.54343,-1.88469,4.02737,-4.73272,-1.98298,-2.75942,-2.75942,A,152429.00
4.08788,57.78206927,12.77358955,57.78206883,12.77358800,16:25:33.066279,0.00773,1.55603,1.55603,0.05129,-0.00328,0.00716,0.00952,0.00846,0.02495,0.04386,0.99046,4.08225,1.50438,-2.68085,-2.68276,-4.64110,-1.93471,4.02737,-4.73272,-1.98298,-2.75942,-2.75942,A,152429.00
4.09588,57.78206921,12.77358934,57.78206883,12.77358800,16:25:33.074285,0.00534,1.55603,1.55603,0.05151,-0.00328,0.00594,0.00936,0.00846,0.02202,0.08815,1.01650,4.09029,1.51471,-2.69237,-2.69428,-4.65341,-1.94094,4.02737,-4.73272,-1.98298,-2.75942,-2.75942,A,152429.00
4.10639,57.78206915,12.77358909,57.78206883,12.77358800,16:25:33.084799,0.00546,1.55603,1.55603,0.05225,-0.00328,0.00441,0.00753,0.00923,0.00122,0.12438,1.01900,4.10070,1.52297,-2.70217,-2.70408,-4.66830,-1.94828,4.02737,-4.73272,-1.98298,-2.75942,-2.75942,A,152429.00
4.11652,57.78206908,12.77358885,57.78206883,12.77358800,16:25:33.094921,0.00518,1.55603,1.55603,0.05177,-0.00317,0.00395,0.00173,0.00908,0.00634,0.04288,1.01882,4.11113,1.52958,-2.71051,-2.71236,-4.68245,-1.95513,4.02737,-4.73272,-1.98298,-2.75942,-2.75942,A,152429.00
4.12689,57.78206903,12.77358862,57.78206883,12.77358800,16:25:33.105293,0.00532,1.55603,1.55603,0.05189,-0.00297,0.00044,0.00035,0.01656,0.02105,0.08430,1.01022,4.12117,1.53487,-2.71762,-2.71935,-4.69584,-1.96150,4.02737,-4.73272,-1.98298,-2.75942,-2.75942,A,152429.00
4.18850,57.78206897,12.77358840,57.78206800,12.77358567,16:25:33.166933,0.05653,1.55603,1.50000,0.05228,-0.00263,0.00533,-0.00026,0.01198,0.03422,0.10096,1.02151,4.13176,1.53910,-2.72369,-2.72522,-4.70895,-1.96764,4.14843,-4.87105,-2.07564,-2.55137,-2.55137,A,152429.10
4.20862,57.78206855,12.77358669,57.78206800,12.77358567,16:25:33.187019,0.00724,1.55603,1.55603,0.05162,-0.00175,-0.01361,0.00616,0.00159,0.05112,0.09803,1.01742,4.20316,1.54249,-2.69790,-2.69892,-4.81015,-2.01420,4.14843,-4.87105,-2.07564,-2.55137,-2.55137,A,152429.10
4.21693,57.78206849,12.77358650,57.78206800,12.77358567,16:25:33.195578,0.00515,1.55603,1.55603,0.05278,-0.00175,-0.01682,0.00020,0.00297,0.10949,0.15927,0.97179,4.21156,1.54520,-2.67578,-2.67680,-4.82187,-2.02139,4.14843,-4.87105,-2.07564,-2.55137,-2.55137,A,152429.10
4.22735,57.78206841,12.77358627,57.78206800,12.77358567,16:25:33.205752,0.00517,1.55603,1.55603,0.05232,-0.00175,-0.00567,-0.01293,0.00052,0.05649,0.04990,1.00180,4.22174,1.54736,-2.65698,-2.65800,-4.83535,-2.02963,4.14843,-4.87105,-2.07564,-2.55137,-2.55137,A,152429.10
4.23800,57.78206834,12.77358605,57.78206800,12.77358567,16:25:33.216406,0.00542,1.55603,1.55603,0.05190,-0.00175,-0.00934,-0.02607,0.00648,0.05813,0.05661,1.01882,4.23234,1.54910,-2.64100,-2.64202,-4.84830,-2.03779,4.14843,-4.87105,-2.07564,-2.55137,-2.55137,A,152429.10
4.24810,57.78206827,12.77358585,57.78206800,12.77358567,16:25:33.226507,0.00513,1.55603,1.55603,0.05133,-0.00175,-0.01804,-0.02393,0.00312,-0.05252,0.05008,0.99253,4.24272,1.55048,-2.62742,-2.62844,-4.86017,-2.04554,4.14843,-4.87105,-2.07564,-2.55137,-2.55137,A,152429.10
4.31031,57.78206820,12.77358565,57.78206750,12.77358350,16:25:33.288757,0.05673,1.55603,1.50000,0.05062,-0.00175,-0.01346,-0.00728,0.00205,0.02269,0.03569,0.96343,4.25318,1.55159,-2.61588,-2.61690,-4.87184,-2.05331,4.27005,-4.99950,-2.13124,-2.73309,-2.73309,A,152429.20
4.33192,57.78206769,12.77358401,57.78206750,12.77358350,16:25:33.310326,0.00869,1.55603,1.55603,0.05015,-0.00175,-0.01147,0.00005,0.00266,0.08430,0.09943,0.99973,4.32649,1.55248,-2.63345,-2.63447,-4.96910,-2.10981,4.27005,-4.99950,-2.13124,-2.73309,-2.73309,A,152429.20
4.33863,57.78206765,12.77358389,57.78206750,12.77358350,16:25:33.317032,0.00522,1.55603,1.55603,0.05058,-0.00175,-0.00720,0.00081,0.00740,0.09937,0.10205,0.95819,4.33296,1.55319,-2.64825,-2.64927,-4.97659,-2.11420,4.27005,-4.99950,-2.13124,-2.73309,-2.73309,A,152429.20
4.34895,57.78206759,12.77358368,57.78206750,12.77358350,16:25:33.327604,0.00513,1.55603,1.55603,0.05033,-0.00175,-0.00643,-0.01217,0.01167,0.00189,0.06185,0.98765,4.34359,1.55376,-2.66084,-2.66186,-4.98885,-2.12102,4.27005,-4.99950,-2.13124,-2.73309,-2.73309,A,152429.20
4.35938,57.78206754,12.77358348,57.78206750,12.77358350,16:25:33.337781,0.00516,1.55603,1.55603,0.05044,-0.00175,-0.01132,-0.00743,0.01243,0.06661,0.08516,0.95105,4.35377,1.55421,-2.67154,-2.67256,-5.00039,-2.12725,4.27005,-4.99950,-2.13124,-2.73309,-2.73309,A,152429.20
4.37008,57.78206748,12.77358329,57.78206750,12.77358350,16:25:33.348489,0.00546,1.55603,1.55603,0.05045,-0.00175,-0.01590,-0.01034,0.00862,-0.03001,0.08571,0.98759,4.36440,1.55457,-2.68064,-2.68166,-5.01169,-2.13320,4.27005,-4.99950,-2.13124,-2.73309,-2.73309,A,152429.20
4.44035,57.78206743,12.77358312,57.78206633,12.77357867,16:25:33.418784,0.06532,1.55603,1.50000,0.05007,-0.00175,-0.00979,-0.00484,0.00251,0.07314,0.05533,0.98722,4.37478,1.55486,-2.68837,-2.68939,-5.02206,-2.13854,4.40255,-5.28603,-2.26096,-2.71645,-2.71645,A,152429.40
4.46290,57.78206691,12.77358109,57.78206633,12.77357867,16:25:33.441310,0.00771,1.67546,1.67546,0.04825,-0.00184,-0.01865,-0.00071,-0.00620,-0.00628,0.05624,1.03779,4.45719,1.57898,-2.69259,-2.69366,-5.14238,-2.19670,4.40255,-5.28603,-2.26096,-2.71645,-2.71645,A,152429.40
4.47077,57.78206685,12.77358084,57.78206633,12.77357867,16:25:33.449169,0.00527,1.67546,1.67546,0.04823,-0.00201,-0.02797,-0.00148,-0.01032,-0.00049,0.08717,1.01900,4.46510,1.59828,-2.69600,-2.69717,-5.15741,-2.20368,4.40255,-5.28603,-2.26096,-2.71645,-2.71645,A,152429.40
4.48131,57.78206677,12.77358053,57.78206633,12.77357867,16:25:33.459717,0.00541,1.67546,1.67546,0.04843,-0.00235,-0.02384,0.00448,-0.01001,0.02324,0.10474,1.02474,4.47569,1.61371,-2.69889,-2.70025,-5.17552,-2.21211,4.40255,-5.28603,-2.26096,-2.71645,-2.71645,A,152429.40
4.49159,57.78206670,12.77358023,57.78206633,12.77357867,16:25:33.470192,0.00529,1.67546,1.67546,0.04856,-0.00277,-0.02995,-0.00255,-0.01582,0.03343,0.10077,0.99058,4.48598,1.62606,-2.70130,-2.70292,-5.19314,-2.22026,4.40255,-5.28603,-2.26096,-2.71645,-2.71645,A,152429.40
4.50213,57.78206663,12.77357996,57.78206633,12.77357867,16:25:33.480531,0.00542,1.67546,1.67546,0.04813,-0.00328,-0.02430,-0.00591,-0.00910,0.06204,0.05917,0.97783,4.49647,1.63594,-2.70332,-2.70523,-5.20962,-2.22785,4.40255,-5.28603,-2.26096,-2.71645,-2.71645,A,152429.40
4.56057,57.78206657,12.77357969,57.78206567,12.77357650,16:25:33.539014,0.05346,1.67546,1.50000,0.04745,-0.00374,-0.02522,-0.01461,-0.01017,0.05649,0.04276,0.97545,4.50694,1.64385,-2.70500,-2.70717,-5.22527,-2.23503,4.52362,-5.41447,-2.33509,-2.61816,-2.61816,A,152429.50
4.57962,57.78206613,12.77357797,57.78206567,12.77357650,16:25:33.558018,0.00754,1.67546,1.67546,0.04547,-0.00436,-0.03041,0.00600,0.00190,0.02513,0.07216,0.98344,4.57398,1.65017,-2.69189,-2.69442,-5.32745,-2.28305,4.52362,-5.41447,-2.33509,-2.61816,-2.61816,A,152429.50
4.58780,57.78206607,12.77357774,57.78206567,12.77357650,16:25:33.566209,0.00534,1.67546,1.67546,0.04519,-0.00436,-0.02109,0.00310,-0.00162,0.03007,0.05941,0.96539,4.58240,1.65523,-2.68048,-2.68302,-5.34084,-2.28999,4.52362,-5.41447,-2.33509,-2.61816,-2.61816,A,152429.50
4.59830,57.78206600,12.77357748,57.78206567,12.77357650,16:25:33.576707,0.00544,1.67546,1.67546,0.04476,-0.00436,-0.01758,-0.00911,-0.00116,0.02477,0.04801,0.92360,4.59264,1.65927,-2.67080,-2.67333,-5.35641,-2.29811,4.52362,-5.41447,-2.33509,-2.61816,-2.61816,A,152429.50
4.60871,57.78206593,12.77357723,57.78206567,12.77357650,16:25:33.587116,0.00545,1.67546,1.67546,0.04563,-0.00436,-0.02491,-0.01232,0.00541,-0.00415,0.13621,0.93867,4.60330,1.66251,-2.66257,-2.66510,-5.37141,-2.30608,4.52362,-5.41447,-2.33509,-2.61816,-2.61816,A,152429.50
4.61883,57.78206586,12.77357700,57.78206567,12.77357650,16:25:33.597237,0.00526,1.67546,1.67546,0.04434,-0.00436,-0.02033,-0.01049,0.00251,0.02446,-0.00354,0.95868,4.61318,1.66510,-2.65557,-2.65810,-5.38488,-2.31337,4.52362,-5.41447,-2.33509,-2.61816,-2.61816,A,152429.50
4.68075,57.78206580,12.77357677,57.78206500,12.77357400,16:25:33.659647,0.05677,1.67546,1.50000,0.04359,-0.00436,-0.02171,-0.00637,0.00174,0.04050,0.03209,0.97832,4.62376,1.66717,-2.64962,-2.65216,-5.39829,-2.32072,4.64048,-5.56268,-2.40922,-2.67780,-2.67780,A,152429.60
4.70310,57.78206527,12.77357494,57.78206500,12.77357400,16:25:33.681509,0.00703,1.67546,1.67546,0.04150,-0.00436,-0.01896,-0.01721,0.00480,0.04953,0.01995,1.02553,4.69738,1.66883,-2.65386,-2.65639,-5.50695,-2.37865,4.64048,-5.56268,-2.40922,-2.67780,-2.67780,A,152429.60
4.71163,57.78206522,12.77357473,57.78206500,12.77357400,16:25:33.690034,0.00516,1.67546,1.67546,0.04273,-0.00436,-0.02690,-0.01324,0.00999,-0.06295,0.17257,1.05268,4.70605,1.67015,-2.65710,-2.65964,-5.51923,-2.38518,4.64048,-5.56268,-2.40922,-2.67780,-2.67780,A,152429.60
4.72231,57.78206515,12.77357449,57.78206500,12.77357400,16:25:33.700716,0.00544,1.67546,1.67546,0.04303,-0.00436,-0.02003,-0.01324,0.00846,0.02910,0.10376,1.03059,4.71664,1.67122,-2.65987,-2.66241,-5.53349,-2.39270,4.64048,-5.56268,-2.40922,-2.67780,-2.67780,A,152429.60
4.73239,57.78206509,12.77357427,57.78206500,12.77357400,16:25:33.710795,0.00513,1.67546,1.67546,0.04214,-0.00436,-0.01132,-0.00972,0.01106,-0.04441,0.01482,1.01461,4.72703,1.67206,-2.66223,-2.66476,-5.54665,-2.39961,4.64048,-5.56268,-2.40922,-2.67780,-2.67780,A,152429.60
4.79488,57.78206503,12.77357406,57.78206450,12.77357167,16:25:33.774040,0.05737,1.67546,1.50000,0.04321,-0.00436,-0.01957,-0.00728,0.01381,0.04483,0.15537,1.02559,4.73712,1.67274,-2.66423,-2.66676,-5.55918,-2.40615,4.75392,-5.70101,-2.46482,-2.75942,-2.75942,A,152429.70
4.81693,57.78206453,12.77357222,57.78206450,12.77357167,16:25:33.795592,0.00893,1.67546,1.67546,0.04159,-0.00192,-0.01483,-0.00545,0.01045,-0.00098,0.03239,1.02029,4.81148,1.67329,-2.67873,-2.67985,-5.66849,-2.46163,4.75392,-5.70101,-2.46482,-2.75942,-2.75942,A,152429.70
4.82320,57.78206450,12.77357209,57.78206450,12.77357167,16:25:33.801597,0.00512,1.67546,1.67546,0.04125,-0.00158,-0.01850,-0.00255,0.00877,0.02617,0.05398,1.07470,4.81758,1.67372,-2.69071,-2.69163,-5.67618,-2.46481,4.75392,-5.70101,-2.46482,-2.75942,-2.75942,A,152429.70
4.83393,57.78206445,12.77357186,57.78206450,12.77357167,16:25:33.812336,0.00545,1.67546,1.67546,0.04111,-0.00108,-0.02232,0.01013,0.00312,-0.00988,0.07619,1.05133,4.82826,1.67407,-2.70094,-2.70156,-5.68982,-2.47080,4.75392,-5.70101,-2.46482,-2.75942,-2.75942,A,152429.70
4.84403,57.78206440,12.77357164,57.78206450,12.77357167,16:25:33.822438,0.00515,1.67546,1.67546,0.04080,-0.00071,-0.01804,0.01502,0.00434,0.03080,0.05783,1.01284,4.83864,1.67435,-2.70966,-2.71007,-5.70233,-2.47612,4.75392,-5.70101,-2.46482,-2.75942,-2.75942,A,152429.70
4.90867,57.78206435,12.77357143,57.78206383,12.77356933,16:25:33.887115,0.05912,1.67546,1.50000,0.04080,-0.00054,-0.01499,0.01868,0.00938,0.05283,0.07399,0.97417,4.84914,1.67457,-2.71708,-2.71740,-5.71484,-2.48135,4.86599,-5.83933,-2.53895,-2.64963,-2.64963,A,152429.80
4.93089,57.78206389,12.77356952,57.78206383,12.77356933,16:25:33.909292,0.00843,1.46966,1.46966,0.03879,-0.00051,-0.01697,0.00677,0.00022,-0.00256,0.01739,1.09983,4.92513,1.63359,-2.70697,-2.70727,-5.82827,-2.53265,4.86599,-5.83933,-2.53895,-2.64963,-2.64963,A,152429.80
4.93825,57.78206386,12.77356938,57.78206383,12.77356933,16:25:33.916651,0.00540,1.46966,1.46966,0.03917,-0.00051,-0.02705,0.02112,-0.00360,0.03623,0.10925,1.06921,4.93260,1.60080,-2.69833,-2.69863,-5.83632,-2.53644,4.86599,-5.83933,-2.53895,-2.64963,-2.64963,A,152429.80
4.94842,57.78206381,12.77356919,57.78206383,12.77356933,16:25:33.926825,0.00517,1.46966,1.46966,0.03960,-0.00051,-0.02064,0.02021,-0.00620,0.00518,0.11071,1.03889,4.94303,1.57457,-2.69099,-2.69128,-5.84799,-2.54203,4.86599,-5.83933,-2.53895,-2.64963,-2.64963,A,152429.80
4.95877,57.78206376,12.77356901,57.78206383,12.77356933,16:25:33.937171,0.00526,1.46966,1.46966,0.03989,-0.00051,-0.01560,0.01914,-0.00467,0.04508,0.09193,0.97307,4.95311,1.55359,-2.68474,-2.68504,-5.85871,-2.54727,4.86599,-5.83933,-2.53895,-2.64963,-2.64963,A,152429.80
5.02020,57.78206371,12.77356883,57.78206317,12.77356700,16:25:33.998907,0.05629,1.46966,1.50000,0.04040,-0.00051,-0.01972,0.00891,0.00434,0.01318,0.10724,0.95312,4.96376,1.53680,-2.67944,-2.67973,-5.86911,-2.55244,4.98071,-5.97766,-2.61308,-2.64963,-2.64963,A,152429.90
5.04452,57.78206329,12.77356723,57.78206317,12.77356700,16:25:34.024212,0.01224,1.46966,1.46966,0.00000,-0.00051,-0.02827,0.02571,-0.00070,-0.01684,0.09919,1.00723,5.03385,1.46966,-2.72919,-2.72948,-5.97766,-2.61308,4.98071,-5.97766,-2.61308,-2.64963,-2.64963,A,152429.90
5.06592,57.78206304,12.77356647,57.78206317,12.77356700,16:25:34.044312,0.00730,1.46966,1.46966,0.00048,0.01635,-0.02232,0.00784,-0.00971,0.00439,0.09412,0.95264,5.06051,1.46966,-2.71869,-2.70919,-6.00918,-2.62686,4.98071,-5.97766,-2.61308,-2.64963,-2.64963,A,152429.90
5.07451,57.78206302,12.77356636,57.78206317,12.77356700,16:25:34.052908,0.00550,1.46966,1.46966,0.00020,0.01635,-0.02445,0.00830,-0.00589,0.00275,0.02300,0.99162,5.06880,1.46966,-2.70965,-2.70014,-6.01548,-2.62981,4.98071,-5.97766,-2.61308,-2.64963,-2.64963,A,152429.90
5.11230,57.78206298,12.77356622,57.78206200,12.77356233,16:25:34.091404,0.03290,1.46966,1.46966,-0.00009,0.01635,-0.02552,0.01089,-0.00024,0.01128,0.02373,0.92372,5.07921,1.46966,-2.70193,-2.69243,-6.02372,-2.63376,5.10689,-6.25431,-2.74281,-2.70312,-2.70312,A,152430.10
5.13086,57.78206269,12.77356509,57.78206200,12.77356233,16:25:34.109248,0.00648,1.46966,1.46966,-0.00051,0.01635,-0.02674,-0.00316,0.00052,-0.05649,0.08198,1.01608,5.12541,1.46966,-2.70275,-2.69324,-6.09114,-2.66615,5.10689,-6.25431,-2.74281,-2.70312,-2.70312,A,152430.10
5.13965,57.78206262,12.77356480,57.78206200,12.77356233,16:25:34.118044,0.00488,1.46966,1.46966,-0.00006,0.01635,-0.02690,0.01471,0.00205,-0.07302,0.07229,0.98094,5.13454,1.46966,-2.70410,-2.69460,-6.10813,-2.67423,5.10689,-6.25431,-2.74281,-2.70312,-2.70312,A,152430.10
5.15036,57.78206254,12.77356449,57.78206200,12.77356233,16:25:34.128751,0.00504,1.46966,1.46966,-0.00044,0.01635,-0.02109,0.02021,-0.00100,0.08467,0.01610,0.99869,5.14489,1.46966,-2.70523,-2.69572,-6.12621,-2.68282,5.10689,-6.25431,-2.74281,-2.70312,-2.70312,A,152430.10
5.16060,57.78206247,12.77356421,57.78206200,12.77356233,16:25:34.138993,0.00488,1.46966,1.46966,-0.00117,0.01635,-0.03209,0.00112,0.00266,0.09479,0.00061,1.06250,5.15549,1.46966,-2.70619,-2.69668,-6.14327,-2.69092,5.10689,-6.25431,-2.74281,-2.70312,-2.70312,A,152430.10
5.17103,57.78206240,12.77356393,57.78206200,12.77356233,16:25:34.149420,0.00492,1.46966,1.46966,-0.00138,0.01635,-0.03606,-0.00499,0.00480,0.02830,0.03916,1.07549,5.16567,1.46966,-2.70700,-2.69750,-6.15941,-2.69856,5.10689,-6.25431,-2.74281,-2.70312,-2.70312,A,152430.10
5.18169,57.78206233,12.77356367,57.78206200,12.77356233,16:25:34.160087,0.00518,1.46966,1.46966,-0.00158,0.01635,-0.04141,-0.00759,-0.00330,0.08894,0.04410,1.06927,5.17629,1.46966,-2.70769,-2.69819,-6.17497,-2.70592,5.10689,-6.25431,-2.74281,-2.70312,-2.70312,A,152430.10
5.19195,57.78206227,12.77356342,57.78206200,12.77356233,16:25:34.170338,0.00504,1.46966,1.46966,-0.00240,0.01635,-0.04522,-0.01828,-0.00650,0.03642,0.00281,1.01498,5.18685,1.46966,-2.70828,-2.69878,-6.18965,-2.71285,5.10689,-6.25431,-2.74281,-2.70312,-2.70312,A,152430.10
5.20234,57.78206221,12.77356319,57.78206200,12.77356233,16:25:34.180727,0.00504,1.46966,1.46966,-0.00242,0.01635,-0.05530,-0.02866,-0.01154,0.06686,0.05966,0.98588,5.19693,1.46966,-2.70879,-2.69928,-6.20337,-2.71932,5.10689,-6.25431,-2.74281,-2.70312,-2.70312,A,152430.10
5.22978,57.78206215,12.77356297,57.78206133,12.77356000,16:25:34.208178,0.02209,1.46966,1.46966,-0.00244,0.01635,-0.05133,-0.03172,-0.01689,0.04831,0.05551,0.93220,5.20753,1.46966,-2.70921,-2.69971,-6.21665,-2.72558,5.22422,-6.39263,-2.81694,-2.64963,-2.64963,A,152430.20
5.24716,57.78206194,12.77356213,57.78206133,12.77356000,16:25:34.225549,0.00743,1.46966,1.46966,-0.00389,0.01618,-0.07073,0.01517,-0.00375,-0.05459,0.08345,0.94965,5.24182,1.46966,-2.70111,-2.69170,-6.26648,-2.74956,5.22422,-6.39263,-2.81694,-2.64963,-2.64963,A,152430.20
5.25505,57.78206188,12.77356190,57.78206133,12.77356000,16:25:34.233445,0.00493,1.46966,1.46966,-0.00466,0.01606,-0.06095,0.02708,-0.00345,0.04331,0.00378,0.97582,5.24969,1.46966,-2.69468,-2.68534,-6.28014,-2.75648,5.22422,-6.39263,-2.81694,-2.64963,-2.64963,A,152430.20
5.26568,57.78206180,12.77356162,57.78206133,12.77356000,16:25:34.244078,0.00516,1.46966,1.46966,-0.00490,0.01586,-0.06324,0.02922,0.00174,0.00488,0.05087,0.99210,5.26030,1.46966,-2.68916,-2.67994,-6.29650,-2.76477,5.22422,-6.39263,-2.81694,-2.64963,-2.64963,A,152430.20
5.27610,57.78206173,12.77356136,57.78206133,12.77356000,16:25:34.254498,0.00519,1.46966,1.46966,-0.00465,0.01572,-0.06431,0.02097,0.00419,0.07710,0.08546,1.02852,5.27068,1.46966,-2.68446,-2.67532,-6.31173,-2.77256,5.22422,-6.39263,-2.81694,-2.64963,-2.64963,A,152430.20
5.28640,57.78206167,12.77356112,57.78206133,12.77356000,16:25:34.264798,0.00497,1.46966,1.46966,-0.00463,0.01558,-0.06004,0.01517,0.00556,0.03611,0.06850,1.05780,5.28103,1.46966,-2.68045,-2.67139,-6.32606,-2.77996,5.22422,-6.39263,-2.81694,-2.64963,-2.64963,A,152430.20
5.29694,57.78206160,12.77356089,57.78206133,12.77356000,16:25:34.275534,0.00511,1.46966,1.46966,-0.00443,0.01555,-0.06126,0.00402,0.00663,0.03019,0.08101,1.03401,5.29160,1.46966,-2.67704,-2.66800,-6.34001,-2.78720,5.22422,-6.39263,-2.81694,-2.64963,-2.64963,A,152430.20
5.30715,57.78206154,12.77356067,57.78206133,12.77356000,16:25:34.285540,0.00493,1.46966,1.46966,-0.00443,0.01555,-0.06447,-0.00148,0.00220,0.06246,0.06759,1.02468,5.30179,1.46966,-2.67415,-2.66511,-6.35280,-2.79390,5.22422,-6.39263,-2.81694,-2.64963,-2.64963,A,152430.20
5.31802,57.78206148,12.77356046,57.78206133,12.77356000,16:25:34.296414,0.00540,1.46966,1.46966,-0.00512,0.01555,-0.06737,-0.01003,-0.00604,0.04483,0.02355,0.98735,5.31240,1.46966,-2.67168,-2.66264,-6.36543,-2.80054,5.22422,-6.39263,-2.81694,-2.64963,-2.64963,A,152430.20
5.34493,57.78206143,12.77356027,57.78206067,12.77355750,16:25:34.323462,0.02192,1.46966,1.46966,-0.00515,0.01555,-0.07057,-0.01263,-0.00574,-0.00195,0.06381,0.92427,5.32277,1.46966,-2.66960,-2.66055,-6.37682,-2.80657,5.33949,-6.54084,-2.89107,-2.67780,-2.67780,A,152430.30
5.36353,57.78206119,12.77355942,57.78206067,12.77355750,16:25:34.341922,0.00665,1.46966,1.46966,-0.00803,0.01555,-0.06065,0.01395,-0.01001,-0.04874,-0.02702,0.96929,5.35836,1.46966,-2.67161,-2.66257,-6.42688,-2.83264,5.33949,-6.54084,-2.89107,-2.67780,-2.67780,A,152430.30
5.37218,57.78206113,12.77355918,57.78206067,12.77355750,16:25:34.350564,0.00489,1.46966,1.46966,-0.00977,0.01552,-0.06080,0.02341,-0.01001,0.06936,-0.06088,0.97911,5.36706,1.46966,-2.67378,-2.66475,-6.44107,-2.83997,5.33949,-6.54084,-2.89107,-2.67780,-2.67780,A,152430.30
5.38333,57.78206105,12.77355892,57.78206067,12.77355750,16:25:34.361725,0.00556,1.46966,1.46966,-0.01069,0.01550,-0.05988,0.01532,-0.01032,0.14786,-0.00293,0.99711,5.37739,1.46966,-2.67559,-2.66658,-6.45664,-2.84800,5.33949,-6.54084,-2.89107,-2.67780,-2.67780,A,152430.30
5.39293,57.78206099,12.77355869,57.78206067,12.77355750,16:25:34.371706,0.00492,1.59334,1.59334,-0.01095,0.01538,-0.06951,0.00402,-0.01078,0.02397,0.04947,1.05408,5.38782,1.49440,-2.67713,-2.66819,-6.47055,-2.85514,5.33949,-6.54084,-2.89107,-2.67780,-2.67780,A,152430.30
5.40329,57.78206092,12.77355844,57.78206067,12.77355750,16:25:34.381685,0.00489,1.59334,1.59334,-0.01191,0.01530,-0.05683,0.01196,-0.00543,0.07527,-0.01000,1.03255,5.39797,1.51419,-2.67842,-2.66952,-6.48490,-2.86248,5.33949,-6.54084,-2.89107,-2.67780,-2.67780,A,152430.30
5.41396,57.78206086,12.77355821,57.78206067,12.77355750,16:25:34.392357,0.00516,1.59334,1.59334,-0.01327,0.01516,-0.05775,0.01028,-0.00513,0.06917,-0.03361,0.98765,5.40857,1.53002,-2.67950,-2.67069,-6.49871,-2.86954,5.33949,-6.54084,-2.89107,-2.67780,-2.67780,A,152430.30
5.42397,57.78206080,12.77355800,57.78206067,12.77355750,16:25:34.402359,0.00477,1.59334,1.59334,-0.01357,0.01502,-0.05988,0.00646,-0.00192,0.03148,0.03324,0.95947,5.41886,1.54268,-2.68042,-2.67168,-6.51147,-2.87604,5.33949,-6.54084,-2.89107,-2.67780,-2.67780,A,152430.30
5.43446,57.78206074,12.77355778,57.78206067,12.77355750,16:25:34.412854,0.00497,1.59334,1.59334,-0.01425,0.01493,-0.06447,0.00203,-0.00497,0.10992,0.01141,0.93098,5.42909,1.55281,-2.68118,-2.67250,-6.52397,-2.88239,5.33949,-6.54084,-2.89107,-2.67780,-2.67780,A,152430.30
5.46189,57.78206069,12.77355758,57.78206000,12.77355533,16:25:34.440285,0.02200,1.59334,1.59334,-0.01389,0.01487,-0.06920,-0.00209,0.00022,0.00055,0.07869,0.91274,5.43965,1.56092,-2.68183,-2.67318,-6.53603,-2.88851,5.45633,-6.66929,-2.96520,-2.61816,-2.61816,A,152430.40
5.48303,57.78206044,12.77355666,57.78206000,12.77355533,16:25:34.461422,0.00913,1.59334,1.59334,-0.01579,0.01487,-0.07012,0.00600,-0.00467,0.04734,0.06088,0.98606,5.47760,1.56741,-2.67295,-2.66430,-6.59056,-2.91656,5.45633,-6.66929,-2.96520,-2.61816,-2.61816,A,152430.40
5.48955,57.78206039,12.77355650,57.78206000,12.77355533,16:25:34.467940,0.00542,1.59334,1.59334,-0.01556,0.01487,-0.07027,0.00646,-0.01047,0.10199,0.05728,0.99979,5.48404,1.57259,-2.66596,-2.65731,-6.60023,-2.92196,5.45633,-6.66929,-2.96520,-2.61816,-2.61816,A,152430.40
5.49942,57.78206032,12.77355626,57.78206000,12.77355533,16:25:34.477807,0.00489,1.59334,1.59334,-0.01685,0.01487,-0.06111,0.00875,-0.00268,0.00628,-0.03373,1.03456,5.49429,1.57674,-2.65994,-2.65129,-6.61438,-2.92975,5.45633,-6.66929,-2.96520,-2.61816,-2.61816,A,152430.40
5.51007,57.78206025,12.77355602,57.78206000,12.77355533,16:25:34.488464,0.00516,1.59334,1.59334,-0.01668,0.01487,-0.07073,0.01104,-0.00406,0.03916,0.07155,1.02199,5.50467,1.58006,-2.65482,-2.64618,-6.62845,-2.93757,5.45633,-6.66929,-2.96520,-2.61816,-2.61816,A,152430.40
5.52019,57.78206018,12.77355580,57.78206000,12.77355533,16:25:34.498580,0.00488,1.59334,1.59334,-0.01786,0.01487,-0.06676,0.01471,-0.00436,0.02611,-0.02202,1.00119,5.51511,1.58272,-2.65048,-2.64183,-6.64153,-2.94492,5.45633,-6.66929,-2.96520,-2.61816,-2.61816,A,152430.40
5.53056,57.78206012,12.77355559,57.78206000,12.77355533,16:25:34.508949,0.00500,1.59334,1.59334,-0.01806,0.01487,-0.06477,0.01120,-0.00100,0.05045,0.03843,0.97588,5.52516,1.58484,-2.64678,-2.63813,-6.65388,-2.95191,5.45633,-6.66929,-2.96520,-2.61816,-2.61816,A,152430.40
5.54083,57.78206006,12.77355539,57.78206000,12.77355533,16:25:34.519223,0.00488,1.59334,1.59334,-0.01851,0.01487,-0.06447,0.00860,0.00159,0.06405,0.02397,0.96856,5.53572,1.58654,-2.64364,-2.63499,-6.66585,-2.95875,5.45633,-6.66929,-2.96520,-2.61816,-2.61816,A,152430.40
5.55131,57.78206000,12.77355520,57.78206000,12.77355533,16:25:34.529701,0.00491,1.59334,1.59334,-0.01896,0.01487,-0.06584,0.00936,0.01075,0.06783,0.02269,0.95349,5.54598,1.58790,-2.64096,-2.63231,-6.67747,-2.96542,5.45633,-6.66929,-2.96520,-2.61816,-2.61816,A,152430.40
5.57905,57.78205994,12.77355501,57.78205933,12.77355300,16:25:34.557441,0.02225,1.59334,1.59334,-0.01951,0.01487,-0.07622,-0.00392,0.01228,0.05673,0.02483,0.98985,5.55656,1.58899,-2.63869,-2.63004,-6.68834,-2.97171,5.57338,-6.80761,-3.03933,-2.64963,-2.64963,A,152430.50
5.59847,57.78205968,12.77355415,57.78205933,12.77355300,16:25:34.576871,0.00747,1.59334,1.59334,-0.02263,0.01487,-0.07607,-0.00010,0.00068,0.02159,-0.01812,0.95794,5.59285,1.58986,-2.64103,-2.63238,-6.73938,-3.00039,5.57338,-6.80761,-3.03933,-2.64963,-2.64963,A,152430.50
5.60694,57.78205963,12.77355396,57.78205933,12.77355300,16:25:34.585339,0.00547,1.59334,1.59334,-0.02286,0.01487,-0.07989,-0.00377,-0.00207,0.04459,0.03257,0.97191,5.60107,1.59056,-2.64351,-2.63486,-6.75062,-3.00671,5.57338,-6.80761,-3.03933,-2.64963,-2.64963,A,152430.50
5.61674,57.78205956,12.77355373,57.78205933,12.77355300,16:25:34.595136,0.00487,1.59334,1.59334,-0.02413,0.01487,-0.07470,0.00356,-0.00482,0.05905,-0.02751,0.97746,5.61164,1.59112,-2.64559,-2.63694,-6.76407,-3.01423,5.57338,-6.80761,-3.03933,-2.64963,-2.64963,A,152430.50
5.62718,57.78205949,12.77355351,57.78205933,12.77355300,16:25:34.605569,0.00491,1.59334,1.59334,-0.02400,0.01487,-0.07958,0.00112,0.00663,-0.02495,0.06423,0.98143,5.62184,1.59156,-2.64735,-2.63870,-6.77739,-3.02163,5.57338,-6.80761,-3.03933,-2.64963,-2.64963,A,152430.50
5.63779,57.78205943,12.77355329,57.78205933,12.77355300,16:25:34.616189,0.00514,1.59334,1.59334,-0.02456,0.01487,-0.07149,0.00753,0.00526,0.04654,0.01525,0.93287,5.63241,1.59192,-2.64884,-2.64019,-6.79023,-3.02875,5.57338,-6.80761,-3.03933,-2.64963,-2.64963,A,152430.50
5.64794,57.78205937,12.77355309,57.78205933,12.77355300,16:25:34.626331,0.00489,1.59334,1.59334,-0.02526,0.01487,-0.06905,-0.00148,0.01564,-0.00165,0.00396,0.96160,5.64283,1.59220,-2.65011,-2.64146,-6.80219,-3.03536,5.57338,-6.80761,-3.03933,-2.64963,-2.64963,A,152430.50
5.65848,57.78205931,12.77355290,57.78205933,12.77355300,16:25:34.636873,0.00500,1.59334,1.59334,-0.02564,0.01487,-0.07332,-0.01095,0.01732,0.13896,0.02611,0.98277,5.65309,1.59243,-2.65118,-2.64254,-6.81370,-3.04170,5.57338,-6.80761,-3.03933,-2.64963,-2.64963,A,152430.50
5.66946,57.78205926,12.77355271,57.78205933,12.77355300,16:25:34.647865,0.00559,1.59334,1.59334,-0.02580,0.01487,-0.07516,-0.01874,0.02068,-0.00488,0.04532,1.05347,5.66366,1.59261,-2.65210,-2.64345,-6.82469,-3.04774,5.57338,-6.80761,-3.03933,-2.64963,-2.64963,A,152430.50
5.70629,57.78205921,12.77355254,57.78205817,12.77354817,16:25:34.684683,0.03202,1.59334,1.59334,-0.02599,0.01496,-0.06599,-0.01140,0.02557,0.00183,0.03751,1.05865,5.67427,1.59276,-2.65289,-2.64419,-6.83468,-3.05322,5.70184,-7.09415,-3.16906,-2.71645,-2.71645,A,152430.70
5.71675,57.78205893,12.77355153,57.78205817,12.77354817,16:25:34.695146,0.00494,1.59334,1.59334,-0.02765,0.01663,-0.05546,0.00234,0.02603,-0.00342,0.02617,0.94593,5.71163,1.59288,-2.66325,-2.65358,-6.89496,-3.08469,5.70184,-7.09415,-3.16906,-2.71645,-2.71645,A,152430.70
5.72712,57.78205883,12.77355117,57.78205817,12.77354817,16:25:34.705507,0.00491,1.59334,1.59334,-0.02811,0.01736,-0.05133,0.00387,0.02816,0.02458,0.00384,0.94172,5.72178,1.59297,-2.67258,-2.66248,-6.91608,-3.09483,5.70184,-7.09415,-3.16906,-2.71645,-2.71645,A,152430.70
5.73795,57.78205875,12.77355083,57.78205817,12.77354817,16:25:34.716347,0.00535,1.59334,1.59334,-0.02807,0.01838,-0.05133,-0.00346,0.03229,0.05911,0.03556,0.91036,5.73237,1.59304,-2.68059,-2.66990,-6.93650,-3.10453,5.70184,-7.09415,-3.16906,-2.71645,-2.71645,A,152430.70
5.74786,57.78205867,12.77355051,57.78205817,12.77354817,16:25:34.726250,0.00487,1.59334,1.59334,-0.02848,0.01966,-0.03881,-0.00698,0.03214,0.01842,0.00037,0.93525,5.74275,1.59310,-2.68751,-2.67608,-6.95535,-3.11335,5.70184,-7.09415,-3.16906,-2.71645,-2.71645,A,152430.70
5.75853,57.78205859,12.77355019,57.78205817,12.77354817,16:25:34.736931,0.00510,1.59334,1.59334,-0.02869,0.02116,-0.03117,-0.01339,0.03656,0.05301,0.00762,0.94422,5.75312,1.59315,-2.69350,-2.68119,-6.97390,-3.12197,5.70184,-7.09415,-3.16906,-2.71645,-2.71645,A,152430.70
5.76869,57.78205852,12.77354990,57.78205817,12.77354817,16:25:34.747083,0.00487,1.59334,1.59334,-0.02852,0.02271,-0.02552,-0.01812,0.04023,-0.00006,0.02861,0.98198,5.76359,1.59319,-2.69871,-2.68550,-6.99129,-3.12997,5.70184,-7.09415,-3.16906,-2.71645,-2.71645,A,152430.70
5.77957,57.78205845,12.77354961,57.78205817,12.77354817,16:25:34.757965,0.00536,1.59334,1.59334,-0.02865,0.02419,-0.02018,-0.01507,0.04267,-0.03873,0.00689,1.03029,5.77404,1.59322,-2.70325,-2.68918,-7.00850,-3.13784,5.70184,-7.09415,-3.16906,-2.71645,-2.71645,A,152430.70
5.79048,57.78205838,12.77354934,57.78205817,12.77354817,16:25:34.768871,0.00587,1.59334,1.59334,-0.02902,0.02577,-0.02140,-0.01354,0.03656,0.01354,-0.00927,1.07641,5.78501,1.59325,-2.70723,-2.69224,-7.02470,-3.14519,5.70184,-7.09415,-3.16906,-2.71645,-2.71645,A,152430.70
5.79987,57.78205833,12.77354910,57.78205817,12.77354817,16:25:34.778263,0.00486,1.78165,1.78165,-0.02853,0.02710,-0.02827,-0.00545,0.03947,-0.02178,0.05667,1.06292,5.79477,1.63093,-2.71074,-2.69498,-7.03856,-3.15140,5.70184,-7.09415,-3.16906,-2.71645,-2.71645,A,152430.70
5.82650,57.78205827,12.77354886,57.78205733,12.77354583,16:25:34.804892,0.02103,1.78165,1.78165,-0.02802,0.02843,-0.02659,-0.00896,0.04115,0.03928,0.05813,1.05530,5.80505,1.66107,-2.71380,-2.69727,-7.05324,-3.15797,5.82207,-7.23247,-3.26172,-2.55137,-2.55137,A,152430.80
5.83730,57.78205807,12.77354811,57.78205733,12.77354583,16:25:34.815701,0.00519,1.78165,1.78165,-0.02805,0.03140,-0.00750,-0.01950,0.04405,0.08174,0.01488,0.85034,5.83192,1.68519,-2.69131,-2.67305,-7.09759,-3.18001,5.82207,-7.23247,-3.26172,-2.55137,-2.55137,A,152430.80
5.84738,57.78205798,12.77354779,57.78205733,12.77354583,16:25:34.825773,0.00488,1.78165,1.78165,-0.02795,0.03234,-0.00353,-0.03614,0.05031,0.02879,0.01330,0.89292,5.84206,1.70448,-2.67281,-2.65400,-7.11651,-3.19026,5.82207,-7.23247,-3.26172,-2.55137,-2.55137,A,152430.80
5.85832,57.78205788,12.77354748,57.78205733,12.77354583,16:25:34.836717,0.00506,1.78165,1.78165,-0.02710,0.03319,-0.00613,-0.03691,0.05184,-0.02532,0.06789,1.02297,5.85291,1.71992,-2.65712,-2.63782,-7.13497,-3.20055,5.82207,-7.23247,-3.26172,-2.55137,-2.55137,A,152430.80
5.86860,57.78205780,12.77354719,57.78205733,12.77354583,16:25:34.846986,0.00487,1.78165,1.78165,-0.02681,0.03384,-0.00674,-0.01553,0.04954,-0.07198,0.03148,1.02761,5.86350,1.73226,-2.64385,-2.62417,-7.15200,-3.21031,5.82207,-7.23247,-3.26172,-2.55137,-2.55137,A,152430.80
5.87925,57.78205771,12.77354691,57.78205733,12.77354583,16:25:34.857641,0.00513,1.78165,1.78165,-0.02700,0.03435,-0.00124,0.00570,0.05642,-0.05289,-0.00579,1.05774,5.87392,1.74214,-2.63259,-2.61262,-7.16868,-3.22008,5.82207,-7.23247,-3.26172,-2.55137,-2.55137,A,152430.80
5.88986,57.78205763,12.77354665,57.78205733,12.77354583,16:25:34.868253,0.00534,1.78165,1.78165,-0.02747,0.03474,-0.00231,0.01242,0.05138,0.00183,-0.02532,1.07403,5.88431,1.75004,-2.62307,-2.60286,-7.18384,-3.22916,5.82207,-7.23247,-3.26172,-2.55137,-2.55137,A,152430.80
5.89991,57.78205755,12.77354641,57.78205733,12.77354583,16:25:34.878305,0.00499,1.78165,1.78165,-0.02800,0.03508,0.00441,0.01471,0.04481,0.08802,-0.03337,1.02468,5.89480,1.75637,-2.61500,-2.59460,-7.19809,-3.23785,5.82207,-7.23247,-3.26172,-2.55137,-2.55137,A,152430.80
5.91043,57.78205747,12.77354618,57.78205733,12.77354583,16:25:34.888825,0.00499,1.78165,1.78165,-0.02720,0.03548,0.00456,-0.00362,0.04710,-0.01684,0.05673,1.01303,5.90505,1.76142,-2.60817,-2.58753,-7.21186,-3.24638,5.82207,-7.23247,-3.26172,-2.55137,-2.55137,A,152430.80
5.92079,57.78205740,12.77354596,57.78205733,12.77354583,16:25:34.899179,0.00495,1.78165,1.78165,-0.02699,0.03602,0.00395,-0.01370,0.04267,-0.00213,0.01775,0.95319,5.91569,1.76547,-2.60239,-2.58144,-7.22510,-3.25470,5.82207,-7.23247,-3.26172,-2.55137,-2.55137,A,152430.80
5.94725,57.78205733,12.77354575,57.78205683,12.77354350,16:25:34.925636,0.02101,1.78165,1.78165,-0.02786,0.03667,0.01342,-0.02148,0.03870,-0.01287,-0.05478,0.93068,5.92580,1.76871,-2.59755,-2.57622,-7.23731,-3.26248,5.94316,-7.37080,-3.31732,-2.75942,-2.75942,A,152430.90
5.95784,57.78205710,12.77354505,57.78205683,12.77354350,16:25:34.936229,0.00525,1.78165,1.78165,-0.02782,0.03848,0.00639,-0.02515,0.04909,0.02318,-0.00055,0.92830,5.95241,1.77130,-2.62401,-2.60162,-7.27889,-3.28737,5.94316,-7.37080,-3.31732,-2.75942,-2.75942,A,152430.90
5.96781,57.78205703,12.77354477,57.78205683,12.77354350,16:25:34.946202,0.00483,1.78165,1.78165,-0.02826,0.03899,0.00059,-0.01751,0.05031,-0.07113,-0.02367,1.01919,5.96271,1.77337,-2.64731,-2.62463,-7.29532,-3.29596,5.94316,-7.37080,-3.31732,-2.75942,-2.75942,A,152430.90
5.97880,57.78205695,12.77354449,57.78205683,12.77354350,16:25:34.957191,0.00533,1.78165,1.78165,-0.02726,0.03933,-0.00674,-0.00377,0.05245,-0.05545,0.08021,1.02962,5.97306,1.77502,-2.66711,-2.64423,-7.31199,-3.30436,5.94316,-7.37080,-3.31732,-2.75942,-2.75942,A,152430.90
5.98898,57.78205689,12.77354424,57.78205683,12.77354350,16:25:34.967567,0.00512,1.78165,1.78165,-0.02643,0.03947,-0.00109,0.01242,0.04848,-0.04825,0.06655,1.04517,5.98363,1.77635,-2.68398,-2.66102,-7.32701,-3.31156,5.94316,-7.37080,-3.31732,-2.75942,-2.75942,A,152430.90
5.99928,57.78205682,12.77354399,57.78205683,12.77354350,16:25:34.977669,0.00502,1.78165,1.78165,-0.02601,0.03950,-0.00109,0.01914,0.04970,0.03739,0.03751,1.01406,5.99394,1.77741,-2.69830,-2.67532,-7.34189,-3.31847,5.94316,-7.37080,-3.31732,-2.75942,-2.75942,A,152430.90
6.00983,57.78205677,12.77354375,57.78205683,12.77354350,16:25:34.988222,0.00516,1.78165,1.78165,-0.02550,0.03953,0.00258,0.00616,0.05153,-0.00860,0.04142,1.01327,6.00443,1.77826,-2.71048,-2.68749,-7.35612,-3.32485,5.94316,-7.37080,-3.31732,-2.75942,-2.75942,A,152430.90
6.02055,57.78205671,12.77354351,57.78205683,12.77354350,16:25:34.998937,0.00548,1.78165,1.78165,-0.02473,0.03961,-0.00430,-0.00545,0.04893,0.02855,0.06417,0.99942,6.01541,1.77894,-2.72081,-2.69777,-7.37039,-3.33108,5.94316,-7.37080,-3.31732,-2.75942,-2.75942,A,152430.90
6.03046,57.78205666,12.77354330,57.78205683,12.77354350,16:25:35.008848,0.00497,1.78165,1.78165,-0.02461,0.03975,0.00731,-0.01079,0.05321,0.00775,0.01403,1.00284,6.02508,1.77948,-2.72966,-2.70654,-7.38238,-3.33608,5.94316,-7.37080,-3.31732,-2.75942,-2.75942,A,152430.90
6.04076,57.78205662,12.77354309,57.78205683,12.77354350,16:25:35.019151,0.00488,1.78165,1.78165,-0.02485,0.03995,0.00975,-0.01278,0.05397,0.02623,-0.01055,0.93220,6.03564,1.77992,-2.73717,-2.71393,-7.39486,-3.34121,5.94316,-7.37080,-3.31732,-2.75942,-2.75942,A,152430.90
6.06823,57.78205658,12.77354290,57.78205600,12.77354100,16:25:35.046617,0.02196,1.78165,1.78165,-0.02535,0.04018,0.00273,-0.03004,0.05474,0.08656,-0.02068,0.87986,6.04583,1.78026,-2.74357,-2.72020,-7.40658,-3.34591,6.06282,-7.51900,-3.40998,-2.58283,-2.58283,A,152431.00
6.08809,57.78205633,12.77354189,57.78205600,12.77354100,16:25:35.066486,0.00714,1.78165,1.78165,-0.02500,0.04049,-0.00445,-0.00239,0.05367,-0.08290,0.04605,1.06884,6.08294,1.78054,-2.72113,-2.69758,-7.46642,-3.37341,6.06282,-7.51900,-3.40998,-2.58283,-2.58283,A,152431.00
6.09627,57.78205627,12.77354168,57.78205600,12.77354100,16:25:35.074661,0.00491,1.78165,1.78165,-0.02401,0.04052,0.00090,0.01303,0.05031,-0.04843,0.08009,1.06061,6.09115,1.78076,-2.70358,-2.68002,-7.47879,-3.37988,6.06282,-7.51900,-3.40998,-2.58283,-2.58283,A,152431.00
6.10659,57.78205620,12.77354143,57.78205600,12.77354100,16:25:35.084976,0.00500,1.78165,1.78165,-0.02353,0.04057,-0.00017,0.01731,0.04649,-0.01098,0.04605,1.08531,6.10121,1.78094,-2.68857,-2.66497,-7.49331,-3.38760,6.06282,-7.51900,-3.40998,-2.58283,-2.58283,A,152431.00
6.11684,57.78205613,12.77354120,57.78205600,12.77354100,16:25:35.095230,0.00485,1.78165,1.78165,-0.02404,0.04074,0.01006,0.02128,0.04481,0.05411,-0.03032,1.02895,6.11174,1.78108,-2.67581,-2.65211,-7.50733,-3.39530,6.06282,-7.51900,-3.40998,-2.58283,-2.58283,A,152431.00
6.12730,57.78205606,12.77354097,57.78205600,12.77354100,16:25:35.105688,0.00490,1.78165,1.78165,-0.02306,0.04094,0.00456,0.00967,0.04954,0.07991,0.07351,0.99247,6.12196,1.78120,-2.66497,-2.64116,-7.52082,-3.40291,6.06282,-7.51900,-3.40998,-2.58283,-2.58283,A,152431.00
6.13793,57.78205600,12.77354076,57.78205600,12.77354100,16:25:35.116324,0.00514,1.78165,1.78165,-0.02346,0.04120,0.00639,-0.00713,0.04924,0.12322,-0.01635,0.92122,6.13255,1.78129,-2.65578,-2.63182,-7.53346,-3.41022,6.06282,-7.51900,-3.40998,-2.58283,-2.58283,A,152431.00
6.14796,57.78205594,12.77354056,57.78205600,12.77354100,16:25:35.126348,0.00477,1.78165,1.78165,-0.02389,0.04145,0.00899,-0.02393,0.05199,0.00909,-0.02050,0.92452,6.14285,1.78136,-2.64801,-2.62390,-7.54491,-3.41701,6.06282,-7.51900,-3.40998,-2.58283,-2.58283,A,152431.00
6.15849,57.78205588,12.77354038,57.78205600,12.77354100,16:25:35.136875,0.00499,1.78165,1.78165,-0.02398,0.04156,0.00181,-0.03416,0.05657,0.05801,0.00543,0.92439,6.15309,1.78142,-2.64140,-2.61722,-7.55605,-3.42374,6.06282,-7.51900,-3.40998,-2.58283,-2.58283,A,152431.00
6.18605,57.78205582,12.77354020,57.78205533,12.77353867,16:25:35.164437,0.02216,1.78165,1.78165,-0.02438,0.04159,0.01052,-0.03233,0.05596,-0.01641,-0.02080,0.95465,6.16365,1.78147,-2.63578,-2.61158,-7.56662,-3.43024,6.18067,-7.65733,-3.48411,-2.64963,-2.64963,A,152431.10
6.20746,57.78205551,12.77353921,57.78205533,12.77353867,16:25:35.185856,0.00835,1.78165,1.78165,-0.02462,0.04159,0.00471,0.01196,0.03641,0.01677,-0.01714,1.01333,6.20231,1.78150,-2.63946,-2.61527,-7.62503,-3.46450,6.18067,-7.65733,-3.48411,-2.64963,-2.64963,A,152431.10
6.21445,57.78205546,12.77353906,57.78205533,12.77353867,16:25:35.192847,0.00498,1.78165,1.78165,-0.02440,0.04159,0.01052,0.00738,0.03916,-0.00354,0.02111,1.03877,6.20907,1.78153,-2.64435,-2.62015,-7.63386,-3.46967,6.18067,-7.65733,-3.48411,-2.64963,-2.64963,A,152431.10
6.22476,57.78205539,12.77353883,57.78205533,12.77353867,16:25:35.203149,0.00488,1.78165,1.78165,-0.02300,0.04159,0.01372,0.00478,0.03458,0.06076,0.09632,1.01211,6.21964,1.78156,-2.64830,-2.62411,-7.64752,-3.47757,6.18067,-7.65733,-3.48411,-2.64963,-2.64963,A,152431.10
6.23516,57.78205533,12.77353862,57.78205533,12.77353867,16:25:35.213559,0.00490,1.78165,1.78165,-0.02292,0.04159,0.02289,-0.00331,0.03275,0.05319,0.00281,0.98222,6.22985,1.78158,-2.65167,-2.62748,-7.66037,-3.48493,6.18067,-7.65733,-3.48411,-2.64963,-2.64963,A,152431.10
6.24582,57.78205526,12.77353840,57.78205533,12.77353867,16:25:35.224213,0.00515,1.78165,1.78165,-0.02427,0.04159,0.03113,-0.00652,0.03275,0.06100,-0.09571,0.96703,6.24042,1.78159,-2.65453,-2.63033,-7.67288,-3.49204,6.18067,-7.65733,-3.48411,-2.64963,-2.64963,A,152431.10
6.25593,57.78205520,12.77353821,57.78205533,12.77353867,16:25:35.234326,0.00488,1.78165,1.78165,-0.02585,0.04159,0.01189,-0.00805,0.03000,0.09553,-0.09723,0.95252,6.25082,1.78160,-2.65696,-2.63277,-7.68440,-3.49854,6.18067,-7.65733,-3.48411,-2.64963,-2.64963,A,152431.10
6.26650,57.78205515,12.77353802,57.78205533,12.77353867,16:25:35.244893,0.00502,1.78165,1.78165,-0.02689,0.04159,-0.00750,-0.01644,0.02710,0.09699,-0.05069,0.93952,6.26107,1.78161,-2.65903,-2.63484,-7.69556,-3.50480,6.18067,-7.65733,-3.48411,-2.64963,-2.64963,A,152431.10
6.27767,57.78205509,12.77353783,57.78205533,12.77353867,16:25:35.256067,0.00579,1.78165,1.78165,-0.02670,0.04159,-0.02079,-0.01538,0.02847,0.02434,0.03538,0.97271,6.27206,1.78162,-2.66076,-2.63657,-7.70680,-3.51107,6.18067,-7.65733,-3.48411,-2.64963,-2.64963,A,152431.10
6.31428,57.78205504,12.77353767,57.78205400,12.77353367,16:25:35.292677,0.03181,1.52456,1.52456,-0.02424,0.04159,-0.01437,0.00005,0.02389,0.00579,0.17971,0.99113,6.28238,1.73021,-2.66228,-2.63809,-7.71629,-3.51633,6.30981,-7.95374,-3.63237,-2.67780,-2.67780,A,152431.30
6.32461,57.78205474,12.77353662,57.78205400,12.77353367,16:25:35.303000,0.00496,1.52456,1.52456,-0.02488,0.03961,0.02533,0.00234,0.02603,-0.02971,-0.09650,1.00046,6.31947,1.68908,-2.66619,-2.64315,-7.77893,-3.55010,6.30981,-7.95374,-3.63237,-2.67780,-2.67780,A,152431.30
6.33485,57.78205465,12.77353627,57.78205400,12.77353367,16:25:35.313241,0.00497,1.52456,1.52456,-0.02677,0.03820,0.02671,0.01547,0.02465,0.10693,-0.13042,0.94904,6.32948,1.65618,-2.67086,-2.64864,-7.79921,-3.56050,6.30981,-7.95374,-3.63237,-2.67780,-2.67780,A,152431.30
6.34553,57.78205456,12.77353594,57.78205400,12.77353367,16:25:35.323937,0.00526,1.52456,1.52456,-0.02786,0.03658,0.00762,0.00875,0.02801,0.01879,-0.07216,0.99265,6.34005,1.62985,-2.67469,-2.65341,-7.81877,-3.57044,6.30981,-7.95374,-3.63237,-2.67780,-2.67780,A,152431.30
6.35556,57.78205447,12.77353563,57.78205400,12.77353367,16:25:35.333955,0.00490,1.52456,1.52456,-0.02712,0.03514,0.01250,0.01899,0.01931,0.09071,0.04362,0.98948,6.35046,1.60880,-2.67784,-2.65741,-7.83731,-3.57981,6.30981,-7.95374,-3.63237,-2.67780,-2.67780,A,152431.30
6.36756,57.78205438,12.77353530,57.78205400,12.77353367,16:25:35.345951,0.00634,1.52456,1.52456,-0.02595,0.03367,0.01800,0.01074,0.01579,0.01592,0.06765,0.99973,6.36241,1.59195,-2.68035,-2.66077,-7.85691,-3.58968,6.30981,-7.95374,-3.63237,-2.67780,-2.67780,A,152431.30
6.37655,57.78205432,12.77353506,57.78205400,12.77353367,16:25:35.354939,0.00493,1.52456,1.52456,-0.02477,0.03262,0.02289,0.00799,0.00999,0.12359,0.07064,1.00180,6.37143,1.57847,-2.68253,-2.66355,-7.87140,-3.59685,6.30981,-7.95374,-3.63237,-2.67780,-2.67780,A,152431.30
6.38735,57.78205425,12.77353480,57.78205400,12.77353367,16:25:35.365751,0.00551,1.52456,1.52456,-0.02464,0.03157,0.02258,0.00616,0.00327,-0.00836,-0.00098,1.03938,6.38163,1.56769,-2.68425,-2.66589,-7.88670,-3.60442,6.30981,-7.95374,-3.63237,-2.67780,-2.67780,A,152431.30
6.39699,57.78205419,12.77353457,57.78205400,12.77353367,16:25:35.375746,0.00491,1.52456,1.52456,-0.02414,0.03064,0.01724,0.00967,-0.00345,0.06686,0.02696,0.96972,6.39189,1.55906,-2.68567,-2.66785,-7.90046,-3.61117,6.30981,-7.95374,-3.63237,-2.67780,-2.67780,A,152431.30
6.40736,57.78205413,12.77353433,57.78205400,12.77353367,16:25:35.385749,0.00488,1.52456,1.52456,-0.02405,0.02965,0.01159,0.00142,-0.00543,0.01494,0.00488,0.98454,6.40204,1.55216,-2.68677,-2.66953,-7.91442,-3.61803,6.30981,-7.95374,-3.63237,-2.67780,-2.67780,A,152431.30
6.43417,57.78205407,12.77353411,57.78205333,12.77353133,16:25:35.412568,0.02131,1.52456,1.52456,-0.02350,0.02849,0.01311,-0.00010,-0.00543,0.04532,0.03282,0.97588,6.41262,1.54664,-2.68762,-2.67105,-7.92766,-3.62450,6.42973,-8.09207,-3.70650,-2.64963,-2.64963,A,152431.40
6.44456,57.78205389,12.77353342,57.78205333,12.77353133,16:25:35.422941,0.00502,1.52456,1.52456,-0.02255,0.02501,0.02304,0.00219,0.01213,0.00360,0.02690,0.92141,6.43943,1.54223,-2.68330,-2.66876,-7.96829,-3.64508,6.42973,-8.09207,-3.70650,-2.64963,-2.64963,A,152431.40
6.45474,57.78205381,12.77353314,57.78205333,12.77353133,16:25:35.433129,0.00497,1.52456,1.52456,-0.02193,0.02356,0.02655,0.00081,0.01473,0.07448,0.02928,0.95971,6.44937,1.53869,-2.68007,-2.66637,-7.98509,-3.65358,6.42973,-8.09207,-3.70650,-2.64963,-2.64963,A,152431.40
6.46625,57.78205373,12.77353286,57.78205333,12.77353133,16:25:35.444679,0.00609,1.52456,1.52456,-0.02154,0.02212,0.02640,0.00799,0.01503,-0.01269,0.01501,1.03767,6.45995,1.53587,-2.67721,-2.66434,-8.00154,-3.66194,6.42973,-8.09207,-3.70650,-2.64963,-2.64963,A,152431.40
6.47618,57.78205366,12.77353258,57.78205333,12.77353133,16:25:35.454567,0.00561,1.52456,1.52456,-0.02156,0.02073,0.03037,0.00814,0.00785,0.05350,-0.01793,1.08574,6.47105,1.53361,-2.67464,-2.66259,-8.01815,-3.67042,6.42973,-8.09207,-3.70650,-2.64963,-2.64963,A,152431.40
6.48652,57.78205359,12.77353234,57.78205333,12.77353133,16:25:35.464921,0.00516,1.52456,1.52456,-0.02111,0.01957,0.03098,0.01303,0.00480,0.07442,0.01726,1.06701,6.48114,1.53180,-2.67241,-2.66102,-8.03256,-3.67778,6.42973,-8.09207,-3.70650,-2.64963,-2.64963,A,152431.40
6.49677,57.78205353,12.77353210,57.78205333,12.77353133,16:25:35.475159,0.00490,1.52456,1.52456,-0.02131,0.01861,0.02518,0.00570,-0.00436,0.11450,-0.02458,1.01602,6.49166,1.53035,-2.67043,-2.65960,-8.04645,-3.68491,6.42973,-8.09207,-3.70650,-2.64963,-2.64963,A,152431.40
6.50730,57.78205347,12.77353188,57.78205333,12.77353133,16:25:35.485696,0.00504,1.52456,1.52456,-0.02094,0.01796,0.02258,0.00723,-0.00971,-0.01488,0.01677,1.01168,6.50182,1.52919,-2.66870,-2.65825,-8.05952,-3.69163,6.42973,-8.09207,-3.70650,-2.64963,-2.64963,A,152431.40
6.51782,57.78205341,12.77353167,57.78205333,12.77353133,16:25:35.496213,0.00516,1.52456,1.52456,-0.01957,0.01753,0.01861,0.00555,-0.01169,0.10992,0.07851,0.91152,6.51242,1.52827,-2.66720,-2.65700,-8.07200,-3.69808,6.42973,-8.09207,-3.70650,-2.64963,-2.64963,A,152431.40
6.52791,57.78205335,12.77353147,57.78205333,12.77353133,16:25:35.506304,0.00486,1.52456,1.52456,-0.01903,0.01745,0.02274,-0.01736,-0.00925,0.01897,0.02660,0.91970,6.52281,1.52753,-2.66592,-2.65577,-8.08370,-3.70413,6.42973,-8.09207,-3.70650,-2.64963,-2.64963,A,152431.40
6.55430,57.78205330,12.77353128,57.78205267,12.77352883,16:25:35.532698,0.02081,1.52456,1.52456,-0.01862,0.01745,0.02335,-0.01736,-0.00467,0.10089,0.01848,0.88822,6.53334,1.52693,-2.66483,-2.65468,-8.09535,-3.71018,6.55017,-8.24027,-3.78063,-2.67780,-2.67780,A,152431.50
6.56470,57.78205312,12.77353063,57.78205267,12.77352883,16:25:35.543085,0.00493,1.52456,1.52456,-0.01764,0.01745,0.03312,0.00112,0.00740,0.00817,0.01732,1.00705,6.55958,1.52646,-2.66782,-2.65767,-8.13359,-3.73011,6.55017,-8.24027,-3.78063,-2.67780,-2.67780,A,152431.50
6.57505,57.78205305,12.77353036,57.78205267,12.77352883,16:25:35.553450,0.00490,1.52456,1.52456,-0.01714,0.01745,0.03083,0.00875,0.00938,-0.03971,0.02489,1.08055,6.56973,1.52608,-2.67067,-2.66053,-8.14963,-3.73826,6.55017,-8.24027,-3.78063,-2.67780,-2.67780,A,152431.50
6.58588,57.78205298,12.77353010,57.78205267,12.77352883,16:25:35.564280,0.00533,1.52456,1.52456,-0.01542,0.01745,0.02915,0.02082,0.01595,-0.01806,0.11724,1.11264,6.58034,1.52578,-2.67309,-2.66295,-8.16522,-3.74615,6.55017,-8.24027,-3.78063,-2.67780,-2.67780,A,152431.50
6.59582,57.78205291,12.77352986,57.78205267,12.77352883,16:25:35.574213,0.00487,1.52456,1.52456,-0.01482,0.01745,0.04381,0.02601,0.01075,0.03318,0.02458,1.12374,6.59071,1.52553,-2.67516,-2.66501,-8.17947,-3.75332,6.55017,-8.24027,-3.78063,-2.67780,-2.67780,A,152431.50
6.60722,57.78205285,12.77352961,57.78205267,12.77352883,16:25:35.585617,0.00583,1.52456,1.52456,-0.01394,0.01745,0.04977,0.01578,0.01702,0.05325,0.03739,1.01577,6.60143,1.52534,-2.67690,-2.66676,-8.19402,-3.76063,6.55017,-8.24027,-3.78063,-2.67780,-2.67780,A,152431.50
6.61666,57.78205279,12.77352941,57.78205267,12.77352883,16:25:35.595050,0.00488,1.52456,1.52456,-0.01378,0.01745,0.05236,0.00280,0.01488,0.04191,-0.00964,1.00528,6.61155,1.52518,-2.67841,-2.66826,-8.20620,-3.76670,6.55017,-8.24027,-3.78063,-2.67780,-2.67780,A,152431.50
6.62709,57.78205274,12.77352920,57.78205267,12.77352883,16:25:35.605486,0.00492,1.52456,1.52456,-0.01396,0.01745,0.05649,-0.00270,0.01289,0.07521,-0.03416,0.94849,6.62174,1.52506,-2.67968,-2.66953,-8.21875,-3.77295,6.55017,-8.24027,-3.78063,-2.67780,-2.67780,A,152431.50
6.63774,57.78205268,12.77352899,57.78205267,12.77352883,16:25:35.616138,0.00517,1.52456,1.52456,-0.01451,0.01745,0.05389,-0.01202,0.01579,0.03642,-0.05356,0.89633,6.63233,1.52496,-2.68075,-2.67060,-8.23088,-3.77898,6.55017,-8.24027,-3.78063,-2.67780,-2.67780,A,152431.50
6.64795,57.78205263,12.77352880,57.78205267,12.77352883,16:25:35.626350,0.00499,1.52456,1.52456,-0.01349,0.01745,0.05923,-0.01293,0.01977,-0.01714,0.03727,0.89871,6.64285,1.52488,-2.68166,-2.67151,-8.24224,-3.78461,6.55017,-8.24027,-3.78063,-2.67780,-2.67780,A,152431.50
6.67545,57.78205258,12.77352862,57.78205200,12.77352633,16:25:35.653839,0.02198,1.52456,1.52456,-0.01197,0.01759,0.05755,-0.00255,0.02572,0.01336,0.06893,0.88975,6.65306,1.52482,-2.68245,-2.67222,-8.25302,-3.78994,6.66997,-8.38848,-3.85476,-2.67780,-2.67780,A,152431.60
6.69221,57.78205237,12.77352781,57.78205200,12.77352633,16:25:35.670604,0.00522,1.52456,1.52456,-0.01093,0.01991,0.04732,0.02693,0.02862,-0.10968,-0.02086,1.04523,6.68710,1.52477,-2.68286,-2.67128,-8.30113,-3.81414,6.66997,-8.38848,-3.85476,-2.67780,-2.67780,A,152431.60
6.70246,57.78205230,12.77352755,57.78205200,12.77352633,16:25:35.680849,0.00497,1.52456,1.52456,-0.01155,0.02090,0.03633,0.03273,0.01885,0.05917,-0.04978,1.04298,6.69708,1.52472,-2.68374,-2.67158,-8.31607,-3.82155,6.66997,-8.38848,-3.85476,-2.67780,-2.67780,A,152431.60
6.71356,57.78205223,12.77352731,57.78205200,12.77352633,16:25:35.691950,0.00567,1.52456,1.52456,-0.01146,0.02189,0.03052,0.01883,0.01534,0.03056,0.00201,1.05658,6.70765,1.52469,-2.68456,-2.67182,-8.33069,-3.82879,6.66997,-8.38848,-3.85476,-2.67780,-2.67780,A,152431.60
6.72332,57.78205218,12.77352709,57.78205200,12.77352633,16:25:35.701714,0.00504,1.67439,1.67439,-0.00951,0.02269,0.02121,0.00173,0.01564,0.12066,0.13951,1.03273,6.71785,1.55463,-2.68533,-2.67214,-8.34343,-3.83509,6.66997,-8.38848,-3.85476,-2.67780,-2.67780,A,152431.60
6.73468,57.78205212,12.77352687,57.78205200,12.77352633,16:25:35.713072,0.00600,1.67439,1.67439,-0.00753,0.02342,0.03007,-0.01079,0.02145,0.03337,0.12731,0.96441,6.72843,1.57858,-2.68603,-2.67241,-8.35678,-3.84171,6.66997,-8.38848,-3.85476,-2.67780,-2.67780,A,152431.60
6.74396,57.78205207,12.77352667,57.78205200,12.77352633,16:25:35.722350,0.00488,1.67439,1.67439,-0.00601,0.02407,0.03755,-0.02439,0.03214,-0.03928,0.09583,0.96978,6.73885,1.59775,-2.68669,-2.67269,-8.36842,-3.84745,6.66997,-8.38848,-3.85476,-2.67780,-2.67780,A,152431.60
6.75532,57.78205200,12.77352644,57.78205200,12.77352633,16:25:35.733711,0.00503,1.67439,1.67439,-0.00657,0.02478,0.04366,-0.00743,0.03840,-0.03190,-0.04038,0.90853,6.75000,1.61307,-2.68724,-2.67283,-8.38236,-3.85438,6.66997,-8.38848,-3.85476,-2.67780,-2.67780,A,152431.60
6.76582,57.78205195,12.77352624,57.78205200,12.77352633,16:25:35.744218,0.00513,1.67439,1.67439,-0.00697,0.02552,0.03694,0.00142,0.04786,-0.03654,-0.02403,0.88389,6.76045,1.62534,-2.68780,-2.67296,-8.39422,-3.86025,6.66997,-8.38848,-3.85476,-2.67780,-2.67780,A,152431.60
6.80465,57.78205190,12.77352605,57.78205083,12.77352133,16:25:35.783047,0.03356,1.67439,1.67439,-0.00662,0.02622,0.02503,0.00967,0.05352,-0.02757,0.02745,0.89487,6.77087,1.63515,-2.68833,-2.67308,-8.40547,-3.86581,6.79886,-8.68489,-3.98448,-2.72905,-2.72905,A,152431.80
6.82628,57.78205154,12.77352468,57.78205083,12.77352133,16:25:35.804673,0.00735,1.67439,1.67439,-0.00529,0.02900,0.01785,0.02250,0.02175,0.03697,0.05722,1.03950,6.82082,1.64300,-2.69544,-2.67858,-8.48623,-3.90555,6.79886,-8.68489,-3.98448,-2.72905,-2.72905,A,152431.80
6.83446,57.78205147,12.77352437,57.78205083,12.77352133,16:25:35.812859,0.00500,1.67439,1.67439,-0.00544,0.02917,0.02044,0.01425,0.01625,0.08186,0.00500,1.03859,6.82907,1.64928,-2.70281,-2.68585,-8.50470,-3.91376,6.79886,-8.68489,-3.98448,-2.72905,-2.72905,A,152431.80
6.84471,57.78205138,12.77352402,57.78205083,12.77352133,16:25:35.823107,0.00484,1.67439,1.67439,-0.00476,0.02919,0.01724,-0.00682,0.01900,0.05941,0.06088,1.02773,6.83962,1.65430,-2.70899,-2.69201,-8.52565,-3.92314,6.79886,-8.68489,-3.98448,-2.72905,-2.72905,A,152431.80
6.85516,57.78205131,12.77352368,57.78205083,12.77352133,16:25:35.833547,0.00489,1.67439,1.67439,-0.00458,0.02919,0.01708,-0.01476,0.01870,-0.00555,0.02696,0.99717,6.84983,1.65832,-2.71425,-2.69727,-8.54554,-3.93197,6.79886,-8.68489,-3.98448,-2.72905,-2.72905,A,152431.80
6.86582,57.78205123,12.77352336,57.78205083,12.77352133,16:25:35.844210,0.00515,1.67439,1.67439,-0.00439,0.02919,0.01479,-0.01125,0.02221,-0.00787,0.02769,0.94788,6.86042,1.66153,-2.71871,-2.70173,-8.56473,-3.94041,6.79886,-8.68489,-3.98448,-2.72905,-2.72905,A,152431.80
6.87596,57.78205116,12.77352306,57.78205083,12.77352133,16:25:35.854353,0.00489,1.67439,1.67439,-0.00397,0.02919,0.01189,-0.01018,0.02893,-0.09900,0.04605,0.97057,6.87084,1.66410,-2.72251,-2.70553,-8.58268,-3.94824,6.79886,-8.68489,-3.98448,-2.72905,-2.72905,A,152431.80
6.88664,57.78205109,12.77352276,57.78205083,12.77352133,16:25:35.865029,0.00514,1.67439,1.67439,-0.00403,0.02919,0.01143,0.00219,0.02526,-0.04355,0.01543,0.96539,6.88124,1.66616,-2.72573,-2.70875,-8.60012,-3.95579,6.79886,-8.68489,-3.98448,-2.72905,-2.72905,A,152431.80
6.89691,57.78205103,12.77352249,57.78205083,12.77352133,16:25:35.875546,0.00502,1.67439,1.67439,-0.00421,0.02919,0.00991,0.00891,0.02022,-0.00232,0.00842,0.98192,6.89182,1.66781,-2.72847,-2.71149,-8.61658,-3.96288,6.79886,-8.68489,-3.98448,-2.72905,-2.72905,A,152431.80
6.92303,57.78205097,12.77352223,57.78205000,12.77351883,16:25:35.901421,0.02074,1.67439,1.67439,-0.00391,0.02919,0.00853,0.00799,0.01747,0.00146,0.04099,0.98905,6.90186,1.66912,-2.73080,-2.71382,-8.63191,-3.96942,6.91863,-8.83310,-4.07715,-2.58283,-2.58283,A,152431.90
6.93358,57.78205078,12.77352146,57.78205000,12.77351883,16:25:35.911976,0.00521,1.67439,1.67439,-0.00332,0.02919,0.00639,0.01059,0.00342,-0.01196,0.05685,1.02510,6.92819,1.67018,-2.71028,-2.69330,-8.67710,-3.99082,6.91863,-8.83310,-4.07715,-2.58283,-2.58283,A,152431.90
6.94374,57.78205069,12.77352113,57.78205000,12.77351883,16:25:35.922133,0.00498,1.67439,1.67439,-0.00207,0.02919,0.00334,0.01563,0.00220,0.02037,0.10974,0.99759,6.93862,1.67102,-2.69340,-2.67643,-8.69687,-4.00090,6.91863,-8.83310,-4.07715,-2.58283,-2.58283,A,152431.90
6.95444,57.78205060,12.77352081,57.78205000,12.77351883,16:25:35.932830,0.00511,1.67439,1.67439,-0.00245,0.02919,0.01250,0.01288,0.00541,0.00695,-0.00451,0.97960,6.94890,1.67169,-2.67906,-2.66208,-8.71572,-4.01075,6.91863,-8.83310,-4.07715,-2.58283,-2.58283,A,152431.90
6.96459,57.78205051,12.77352052,57.78205000,12.77351883,16:25:35.942983,0.00487,1.67439,1.67439,-0.00213,0.02919,0.01174,-0.00224,0.00923,0.07192,0.04227,0.99491,6.95948,1.67223,-2.66687,-2.64989,-8.73338,-4.02020,6.91863,-8.83310,-4.07715,-2.58283,-2.58283,A,152431.90
6.97504,57.78205043,12.77352023,57.78205000,12.77351883,16:25:35.953427,0.00493,1.67439,1.67439,-0.00260,0.02919,0.01327,-0.00469,0.01243,0.01019,-0.01086,0.98576,6.96968,1.67267,-2.65651,-2.63953,-8.75014,-4.02936,6.91863,-8.83310,-4.07715,-2.58283,-2.58283,A,152431.90
6.98561,57.78205035,12.77351996,57.78205000,12.77351883,16:25:35.964013,0.00529,1.67439,1.67439,-0.00257,0.02919,0.01174,-0.00652,0.01610,0.07631,0.02166,0.95245,6.98023,1.67301,-2.64770,-2.63072,-8.76617,-4.03827,6.91863,-8.83310,-4.07715,-2.58283,-2.58283,A,152431.90
6.99563,57.78205027,12.77351971,57.78205000,12.77351883,16:25:35.974020,0.00490,1.67439,1.67439,-0.00202,0.02919,0.01418,-0.01202,0.02679,-0.10199,0.05557,0.98588,6.99050,1.67329,-2.64022,-2.62324,-8.78091,-4.04660,6.91863,-8.83310,-4.07715,-2.58283,-2.58283,A,152431.90
7.00629,57.78205020,12.77351947,57.78205000,12.77351883,16:25:35.984684,0.00502,1.67439,1.67439,-0.00278,0.02919,0.02090,0.00173,0.02847,0.00543,-0.03514,0.99753,7.00086,1.67351,-2.63385,-2.61687,-8.79533,-4.05486,6.91863,-8.83310,-4.07715,-2.58283,-2.58283,A,152431.90
7.01655,57.78205013,12.77351924,57.78205000,12.77351883,16:25:35.994941,0.00488,1.67439,1.67439,-0.00297,0.02919,0.02060,0.00524,0.02557,-0.01354,0.00171,0.96661,7.01145,1.67368,-2.62843,-2.61145,-8.80890,-4.06274,6.91863,-8.83310,-4.07715,-2.58283,-2.58283,A,152431.90
7.04192,57.78205006,12.77351903,57.78204933,12.77351633,16:25:36.020314,0.02003,1.67439,1.67439,-0.00224,0.02919,0.02136,0.00570,0.02832,0.00970,0.06179,0.97716,7.02152,1.67383,-2.62384,-2.60686,-8.82148,-4.07012,7.03835,-8.98131,-4.15128,-2.67780,-2.67780,A,152432.00
7.05505,57.78204984,12.77351829,57.78204933,12.77351633,16:25:36.033444,0.00765,1.67439,1.67439,-0.00110,0.02919,0.03068,0.00265,0.03290,-0.00988,0.04673,0.96795,7.04965,1.67394,-2.63354,-2.61656,-8.86516,-4.09532,7.03835,-8.98131,-4.15128,-2.67780,-2.67780,A,152432.00
7.06266,57.78204977,12.77351807,57.78204933,12.77351633,16:25:36.041049,0.00503,1.67439,1.67439,0.00022,0.02919,0.03648,-0.00423,0.03366,-0.02275,0.09937,0.98417,7.05726,1.67403,-2.64253,-2.62555,-8.87858,-4.10253,7.03835,-8.98131,-4.15128,-2.67780,-2.67780,A,152432.00
7.07296,57.78204969,12.77351778,57.78204933,12.77351633,16:25:36.051592,0.00493,1.67439,1.67439,-0.00010,0.02919,0.04763,-0.00178,0.03595,0.09412,-0.02117,0.93940,7.06787,1.67410,-2.65005,-2.63308,-8.89555,-4.11168,7.03835,-8.98131,-4.15128,-2.67780,-2.67780,A,152432.00
7.08356,57.78204961,12.77351750,57.78204933,12.77351633,16:25:36.061954,0.00512,1.67439,1.67439,-0.00019,0.02919,0.04885,-0.00743,0.03840,0.04843,-0.00866,0.99082,7.07844,1.67416,-2.65645,-2.63947,-8.91205,-4.12047,7.03835,-8.98131,-4.15128,-2.67780,-2.67780,A,152432.00
7.09413,57.78204954,12.77351725,57.78204933,12.77351633,16:25:36.072529,0.00529,1.67439,1.67439,0.00022,0.02919,0.04656,-0.00499,0.04206,-0.01385,0.02788,1.00333,7.08859,1.67421,-2.66189,-2.64491,-8.92716,-4.12840,7.03835,-8.98131,-4.15128,-2.67780,-2.67780,A,152432.00
7.10413,57.78204947,12.77351701,57.78204933,12.77351633,16:25:36.082524,0.00490,1.67439,1.67439,0.00083,0.02919,0.03740,-0.01186,0.04313,-0.00878,0.04691,1.00687,7.09900,1.67424,-2.66653,-2.64955,-8.94136,-4.13578,7.03835,-8.98131,-4.15128,-2.67780,-2.67780,A,152432.00
7.11448,57.78204941,12.77351678,57.78204933,12.77351633,16:25:36.092873,0.00498,1.67439,1.67439,0.00213,0.02922,0.04167,-0.00820,0.04038,-0.07277,0.09211,1.01065,7.10909,1.67427,-2.67047,-2.65348,-8.95497,-4.14277,7.03835,-8.98131,-4.15128,-2.67780,-2.67780,A,152432.00
7.12539,57.78204935,12.77351655,57.78204933,12.77351633,16:25:36.103796,0.00550,1.67439,1.67439,0.00400,0.02922,0.05969,0.00265,0.03870,0.00641,0.11718,1.00815,7.11997,1.67430,-2.67380,-2.65680,-8.96867,-4.14977,7.03835,-8.98131,-4.15128,-2.67780,-2.67780,A,152432.00
7.13517,57.78204929,12.77351634,57.78204933,12.77351633,16:25:36.113989,0.00489,1.78756,1.78756,0.00525,0.02922,0.06473,0.00707,0.03794,0.03928,0.07674,0.98722,7.12985,1.69695,-2.67666,-2.65966,-8.98068,-4.15584,7.03835,-8.98131,-4.15128,-2.67780,-2.67780,A,152432.00
7.16139,57.78204924,12.77351614,57.78204850,12.77351400,16:25:36.139778,0.02070,1.78756,1.78756,0.00465,0.02922,0.06763,-0.00102,0.02847,0.03886,-0.04917,0.99906,7.14044,1.71507,-2.67906,-2.66207,-8.99297,-4.16202,7.15723,-9.11963,-4.24394,-2.55137,-2.55137,A,152432.10
7.17198,57.78204904,12.77351544,57.78204850,12.77351400,16:25:36.150372,0.00531,1.78756,1.78756,0.00580,0.02922,0.03083,-0.01247,0.00572,0.05703,0.05801,0.95099,7.16682,1.72957,-2.66156,-2.64456,-9.03446,-4.18441,7.15723,-9.11963,-4.24394,-2.55137,-2.55137,A,152432.10
7.18244,57.78204895,12.77351517,57.78204850,12.77351400,16:25:36.160840,0.00521,1.78756,1.78756,0.00788,0.02922,0.02869,-0.01843,0.00816,-0.04923,0.15829,0.99381,7.17682,1.74117,-2.64727,-2.63028,-9.05051,-4.19378,7.15723,-9.11963,-4.24394,-2.55137,-2.55137,A,152432.10
7.19252,57.78204887,12.77351491,57.78204850,12.77351400,16:25:36.171118,0.00490,1.78756,1.78756,0.01050,0.02922,0.04488,-0.01492,0.01549,0.06381,0.17666,0.95264,7.18741,1.75044,-2.63512,-2.61813,-9.06594,-4.20300,7.15723,-9.11963,-4.24394,-2.55137,-2.55137,A,152432.10
7.20493,57.78204877,12.77351460,57.78204850,12.77351400,16:25:36.183584,0.00707,1.78756,1.78756,0.01182,0.02922,0.06916,-0.03309,0.02648,-0.00458,0.07393,0.98076,7.19976,1.75787,-2.62471,-2.60771,-9.08387,-4.21385,7.15723,-9.11963,-4.24394,-2.55137,-2.55137,A,152432.10
7.21335,57.78204871,12.77351442,57.78204850,12.77351400,16:25:36.191748,0.00510,1.78756,1.78756,0.01286,0.02922,0.07588,-0.03676,0.03656,-0.03636,0.07387,1.02376,7.20803,1.76381,-2.61601,-2.59902,-9.09490,-4.22082,7.15723,-9.11963,-4.24394,-2.55137,-2.55137,A,152432.10
7.22353,57.78204863,12.77351419,57.78204850,12.77351400,16:25:36.201915,0.00488,1.78756,1.78756,0.01255,0.02922,0.08795,-0.01446,0.04053,0.00061,-0.03636,1.01900,7.21841,1.76856,-2.60854,-2.59154,-9.10851,-4.22943,7.15723,-9.11963,-4.24394,-2.55137,-2.55137,A,152432.10
7.23418,57.78204856,12.77351397,57.78204850,12.77351400,16:25:36.212569,0.00498,1.78756,1.78756,0.01235,0.02922,0.07924,0.00219,0.04359,0.00476,-0.02233,0.99808,7.22879,1.77236,-2.60218,-2.58519,-9.12135,-4.23769,7.15723,-9.11963,-4.24394,-2.55137,-2.55137,A,152432.10
7.24449,57.78204849,12.77351377,57.78204850,12.77351400,16:25:36.222880,0.00489,1.78756,1.78756,0.01232,0.02922,0.07054,0.00555,0.03977,0.04124,-0.00641,1.03554,7.23938,1.77540,-2.59678,-2.57979,-9.13347,-4.24560,7.15723,-9.11963,-4.24394,-2.55137,-2.55137,A,152432.10
7.25481,57.78204842,12.77351358,57.78204850,12.77351400,16:25:36.233203,0.00499,1.78756,1.78756,0.01337,0.02922,0.06641,0.00784,0.02648,0.08314,0.06978,0.98539,7.24944,1.77783,-2.59220,-2.57521,-9.14460,-4.25295,7.15723,-9.11963,-4.24394,-2.55137,-2.55137,A,152432.10
7.28354,57.78204835,12.77351339,57.78204783,12.77351150,16:25:36.261938,0.02333,1.78756,1.78756,0.01468,0.02922,0.07573,-0.00591,0.01442,0.06069,0.08015,0.99180,7.26002,1.77977,-2.58830,-2.57130,-9.15553,-4.26025,7.27668,-9.26784,-4.31807,-2.67780,-2.67780,A,152432.20
7.29536,57.78204809,12.77351262,57.78204783,12.77351150,16:25:36.273750,0.00516,1.78756,1.78756,0.01675,0.02911,0.08947,-0.01675,-0.01872,0.06930,0.00842,0.98149,7.29003,1.78133,-2.60317,-2.58624,-9.20159,-4.28908,7.27668,-9.26784,-4.31807,-2.67780,-2.67780,A,152432.20
7.30577,57.78204801,12.77351236,57.78204783,12.77351150,16:25:36.284166,0.00517,1.78756,1.78756,0.01699,0.02869,0.07374,-0.01599,-0.02116,-0.00531,0.01458,0.97393,7.30038,1.78258,-2.61655,-2.59986,-9.21689,-4.29797,7.27668,-9.26784,-4.31807,-2.67780,-2.67780,A,152432.20
7.31587,57.78204794,12.77351211,57.78204783,12.77351150,16:25:36.294262,0.00487,1.78756,1.78756,0.01849,0.02784,0.07313,-0.02057,-0.02070,0.02946,0.09638,0.96575,7.31076,1.78357,-2.62785,-2.61166,-9.23150,-4.30623,7.27668,-9.26784,-4.31807,-2.67780,-2.67780,A,152432.20
7.32666,57.78204787,12.77351187,57.78204783,12.77351150,16:25:36.305052,0.00506,1.78756,1.78756,0.01866,0.02634,0.07374,-0.02026,-0.01918,-0.00573,0.01104,0.95959,7.32122,1.78437,-2.63732,-2.62201,-9.24598,-4.31424,7.27668,-9.26784,-4.31807,-2.67780,-2.67780,A,152432.20
7.33733,57.78204780,12.77351164,57.78204783,12.77351150,16:25:36.315734,0.00533,1.78756,1.78756,0.01967,0.02427,0.08138,-0.01522,-0.01490,-0.01647,0.05789,0.96898,7.33199,1.78501,-2.64521,-2.63110,-9.25982,-4.32172,7.27668,-9.26784,-4.31807,-2.67780,-2.67780,A,152432.20
7.34729,57.78204774,12.77351142,57.78204783,12.77351150,16:25:36.325684,0.00489,1.78756,1.78756,0.02019,0.02186,0.08749,-0.00621,-0.00330,0.04392,0.02690,0.97752,7.34196,1.78552,-2.65174,-2.63902,-9.27265,-4.32850,7.27668,-9.26784,-4.31807,-2.67780,-2.67780,A,152432.20
7.35846,57.78204768,12.77351120,57.78204783,12.77351150,16:25:36.336854,0.00513,1.78756,1.78756,0.02121,0.01886,0.09054,-0.00133,0.00205,0.03477,0.05161,0.99680,7.35304,1.78593,-2.65703,-2.64606,-9.28589,-4.33539,7.27668,-9.26784,-4.31807,-2.67780,-2.67780,A,152432.20
7.36859,57.78204762,12.77351100,57.78204783,12.77351150,16:25:36.346980,0.00486,1.78756,1.78756,0.02160,0.01592,0.09451,-0.00316,0.00297,0.12664,0.01116,0.97008,7.36349,1.78625,-2.66133,-2.65207,-9.29745,-4.34126,7.27668,-9.26784,-4.31807,-2.67780,-2.67780,A,152432.20
7.40831,57.78204757,12.77351081,57.78204650,12.77350667,16:25:36.386705,0.03419,1.78756,1.78756,0.02208,0.01315,0.08336,-0.01568,0.00205,0.01958,0.02556,0.98918,7.37368,1.78651,-2.66477,-2.65712,-9.30857,-4.34681,7.40204,-9.55437,-4.46633,-2.66410,-2.66410,A,152432.40
7.42862,57.78204718,12.77350940,57.78204650,12.77350667,16:25:36.407007,0.00709,1.78756,1.78756,0.02456,0.00324,0.07069,-0.01492,-0.03995,0.03141,-0.01800,0.99851,7.42345,1.78672,-2.66412,-2.66224,-9.39255,-4.39052,7.40204,-9.55437,-4.46633,-2.66410,-2.66410,A,152432.40
7.43748,57.78204710,12.77350910,57.78204650,12.77350667,16:25:36.415882,0.00556,1.78756,1.78756,0.02546,0.00214,0.06443,-0.00866,-0.04270,-0.00323,0.07369,0.98539,7.43174,1.78689,-2.66428,-2.66303,-9.41034,-4.39935,7.40204,-9.55437,-4.46633,-2.66410,-2.66410,A,152432.40
7.44722,57.78204702,12.77350877,57.78204650,12.77350667,16:25:36.425606,0.00489,1.78756,1.78756,0.02517,0.00126,0.07344,-0.00698,-0.03873,0.04624,-0.01659,0.92995,7.44189,1.78702,-2.66434,-2.66361,-9.42953,-4.40892,7.40204,-9.55437,-4.46633,-2.66410,-2.66410,A,152432.40
7.45795,57.78204693,12.77350845,57.78204650,12.77350667,16:25:36.436351,0.00523,1.78756,1.78756,0.02484,0.00064,0.06718,-0.01110,-0.03857,0.04221,-0.01708,0.88920,7.45257,1.78713,-2.66434,-2.66397,-9.44885,-4.41857,7.40204,-9.55437,-4.46633,-2.66410,-2.66410,A,152432.40
7.46796,57.78204685,12.77350815,57.78204650,12.77350667,16:25:36.446357,0.00484,1.78756,1.78756,0.02519,0.00033,0.06336,-0.01034,-0.03094,0.02080,0.02824,0.94233,7.46285,1.78722,-2.66433,-2.66414,-9.46652,-4.42737,7.40204,-9.55437,-4.46633,-2.66410,-2.66410,A,152432.40
7.47846,57.78204677,12.77350786,57.78204650,12.77350667,16:25:36.456857,0.00497,1.78756,1.78756,0.02653,0.00018,0.05725,-0.01492,-0.02132,-0.00573,0.09772,0.96685,7.47308,1.78728,-2.66431,-2.66420,-9.48364,-4.43590,7.40204,-9.55437,-4.46633,-2.66410,-2.66410,A,152432.40
7.48931,57.78204670,12.77350758,57.78204650,12.77350667,16:25:36.467719,0.00542,1.78756,1.78756,0.02714,0.00010,0.07466,-0.00805,-0.01673,0.03880,0.03959,1.00180,7.48385,1.78734,-2.66428,-2.66422,-9.50030,-4.44421,7.40204,-9.55437,-4.46633,-2.66410,-2.66410,A,152432.40
7.49917,57.78204663,12.77350733,57.78204650,12.77350667,16:25:36.477564,0.00488,1.78756,1.78756,0.02766,0.00004,0.07176,-0.00927,-0.01612,0.01049,0.04008,1.02547,7.49385,1.78738,-2.66426,-2.66423,-9.51521,-4.45163,7.40204,-9.55437,-4.46633,-2.66410,-2.66410,A,152432.40
7.52573,57.78204657,12.77350708,57.78204583,12.77350417,16:25:36.504125,0.02105,1.78756,1.78756,0.02815,-0.00001,0.05954,-0.00927,-0.02040,0.08375,0.04612,1.06280,7.50445,1.78742,-2.66423,-2.66424,-9.53013,-4.45907,7.52127,-9.70258,-4.54046,-2.67780,-2.67780,A,152432.50
7.53602,57.78204636,12.77350631,57.78204583,12.77350417,16:25:36.514415,0.00493,1.78756,1.78756,0.03045,-0.00001,0.06030,0.00020,-0.03598,0.03855,0.10260,1.01089,7.53090,1.78745,-2.66627,-2.66627,-9.57556,-4.48218,7.52127,-9.70258,-4.54046,-2.67780,-2.67780,A,152432.50
7.54648,57.78204627,12.77350599,57.78204583,12.77350417,16:25:36.524872,0.00500,1.78756,1.78756,0.03181,-0.00001,0.06641,0.00249,-0.03582,0.04612,0.09784,0.96026,7.54109,1.78747,-2.66800,-2.66800,-9.59458,-4.49161,7.52127,-9.70258,-4.54046,-2.67780,-2.67780,A,152432.50
7.55674,57.78204619,12.77350568,57.78204583,12.77350417,16:25:36.535134,0.00487,1.78756,1.78756,0.03195,-0.00001,0.07603,-0.00911,-0.03475,0.07527,0.01257,0.94660,7.55164,1.78749,-2.66947,-2.66947,-9.61279,-4.50062,7.52127,-9.70258,-4.54046,-2.67780,-2.67780,A,152432.50
7.56717,57.78204612,12.77350539,57.78204583,12.77350417,16:25:36.545558,0.00490,1.78756,1.78756,0.03320,-0.00001,0.05710,-0.01522,-0.02773,-0.00518,0.09870,0.96685,7.56184,1.78750,-2.67071,-2.67072,-9.63000,-4.50911,7.52127,-9.70258,-4.54046,-2.67780,-2.67780,A,152432.50
7.57788,57.78204604,12.77350511,57.78204583,12.77350417,16:25:36.556273,0.00522,1.78756,1.78756,0.03310,-0.00001,0.05755,-0.00652,-0.03124,0.00927,0.01049,0.97691,7.57249,1.78751,-2.67178,-2.67178,-9.64671,-4.51734,7.52127,-9.70258,-4.54046,-2.67780,-2.67780,A,152432.50
7.58793,57.78204597,12.77350485,57.78204583,12.77350417,16:25:36.566319,0.00487,1.78756,1.78756,0.03306,-0.00001,0.04564,-0.00911,-0.03353,0.03105,0.02342,0.96856,7.58283,1.78752,-2.67268,-2.67269,-9.66203,-4.52485,7.52127,-9.70258,-4.54046,-2.67780,-2.67780,A,152432.50
7.59847,57.78204591,12.77350460,57.78204583,12.77350417,16:25:36.576863,0.00499,1.78756,1.78756,0.03485,-0.00001,0.04564,-0.01446,-0.03033,0.06106,0.14506,0.98606,7.59308,1.78753,-2.67345,-2.67345,-9.67689,-4.53213,7.52127,-9.70258,-4.54046,-2.67780,-2.67780,A,152432.50
7.60936,57.78204584,12.77350435,57.78204583,12.77350417,16:25:36.587761,0.00548,1.53581,1.53581,0.03614,-0.00001,0.05068,-0.01278,-0.03262,-0.02702,0.10785,0.98667,7.60400,1.73718,-2.67410,-2.67411,-9.69160,-4.53934,7.52127,-9.70258,-4.54046,-2.67780,-2.67780,A,152432.50
7.61918,57.78204579,12.77350414,57.78204583,12.77350417,16:25:36.597568,0.00491,1.53581,1.53581,0.03683,-0.00001,0.05862,-0.00010,-0.03414,-0.00616,0.06991,1.00955,7.61384,1.69691,-2.67465,-2.67466,-9.70400,-4.54538,7.52127,-9.70258,-4.54046,-2.67780,-2.67780,A,152432.50
7.64466,57.78204574,12.77350393,57.78204500,12.77350167,16:25:36.623043,0.01999,1.53581,1.53581,0.03787,-0.00001,0.05908,0.00417,-0.02361,-0.00494,0.09113,1.01327,7.62446,1.66469,-2.67512,-2.67513,-9.71633,-4.55138,7.64129,-9.85078,-4.63312,-2.58283,-2.58283,A,152432.60
7.65782,57.78204553,12.77350321,57.78204500,12.77350167,16:25:36.636211,0.00639,1.53581,1.53581,0.04009,-0.00001,0.05160,0.01303,-0.00803,0.03788,0.11071,0.95008,7.65237,1.63891,-2.66128,-2.66129,-9.75956,-4.57385,7.64129,-9.85078,-4.63312,-2.58283,-2.58283,A,152432.60
7.66675,57.78204546,12.77350297,57.78204500,12.77350167,16:25:36.645143,0.00510,1.53581,1.53581,0.04013,-0.00001,0.05694,0.01410,-0.00879,0.01037,0.03227,0.95056,7.66128,1.61829,-2.64951,-2.64952,-9.77349,-4.58170,7.64129,-9.85078,-4.63312,-2.58283,-2.58283,A,152432.60
7.67696,57.78204538,12.77350271,57.78204500,12.77350167,16:25:36.655604,0.00507,1.53581,1.53581,0.04103,-0.00001,0.05939,0.00234,-0.00681,0.03642,0.07997,0.96002,7.67183,1.60180,-2.63951,-2.63952,-9.78875,-4.59038,7.64129,-9.85078,-4.63312,-2.58283,-2.58283,A,152432.60
7.68725,57.78204531,12.77350247,57.78204500,12.77350167,16:25:36.665639,0.00513,1.53581,1.53581,0.04189,-0.00001,0.06122,0.00005,-0.01460,0.02172,0.07784,0.93690,7.68194,1.58860,-2.63101,-2.63101,-9.80318,-4.59873,7.64129,-9.85078,-4.63312,-2.58283,-2.58283,A,152432.60
7.69767,57.78204524,12.77350224,57.78204500,12.77350167,16:25:36.676063,0.00516,1.53581,1.53581,0.04262,-0.00001,0.06153,-0.00866,-0.02040,0.01818,0.07235,0.98869,7.69229,1.57804,-2.62378,-2.62379,-9.81657,-4.60662,7.64129,-9.85078,-4.63312,-2.58283,-2.58283,A,152432.60
