Time,lat_estimated,lon_estimated,latitude,longitude,RealTime,CalculationTime,MeasuredVelocity,FilteredVelocity,Roll,SteeringAngle,RollRate,gy,gz,ax,ay,az,imu_read_timing,v_estimated,yaw_estimated,heading_estimated,x_estimated,y_estimated,GPS_timestamp,x_GPS,y_GPS,theta_GPS,theta_GPS_noUnwrap,status,NMEA timestamp
0.06255,57.68817433,11.97978433,57.68817433,11.97978433,15:18:04.034992,0.06250,0.00000,1.50000,-0.00220,0.02000,0.00114,0.00177,-0.00019,-0.05283,-0.11547,0.98985,0.00001,0.00000,0.00000,0.00000,0.00000,0.00000,0.01599,0.00000,0.00000,0.00000,0.00000,A,151803.90
0.08220,57.68817433,11.97978433,57.68817433,11.97978433,15:18:04.053624,0.00797,0.00000,0.00000,-0.00455,0.00000,-0.00253,0.00223,0.00057,-0.05337,-0.11450,0.99003,0.07594,0.00000,0.00000,0.00000,0.00000,0.00000,0.01599,0.00000,0.00000,0.00000,0.00000,A,151803.90
0.09008,57.68817433,11.97978433,57.68817433,11.97978433,15:18:04.061509,0.00544,0.00000,0.00000,-0.00670,0.00000,0.00052,0.00116,0.00042,-0.05051,-0.11694,0.99271,0.08422,0.00000,0.00000,0.00000,0.00000,0.00000,0.01599,0.00000,0.00000,0.00000,0.00000,A,151803.90
0.10018,57.68817433,11.97978433,57.68817433,11.97978433,15:18:04.071941,0.00514,0.00000,0.00000,-0.00881,0.00000,0.00022,0.00208,-0.00172,-0.04996,-0.11535,0.99094,0.09407,0.00000,0.00000,0.00000,0.00000,0.00000,0.01599,0.00000,0.00000,0.00000,0.00000,A,151803.90
0.11082,57.68817433,11.97978433,57.68817433,11.97978433,15:18:04.082246,0.00538,0.00000,0.00000,-0.01092,0.00000,-0.00375,-0.00342,0.00042,-0.05313,-0.11523,0.99082,0.10477,0.00000,0.00000,0.00000,0.00000,0.00000,0.01599,0.00000,0.00000,0.00000,0.00000,A,151803.90
0.15161,57.68817433,11.97978433,57.68817500,11.97978300,15:18:04.123060,0.03577,0.00000,1.50000,-0.01292,0.02000,0.00007,0.00025,-0.00386,-0.04990,-0.11309,0.99101,0.11486,0.00000,0.00000,0.00000,0.00000,0.00000,0.13369,-0.07925,0.07413,2.38956,2.38956,A,151804.00
0.17101,57.68817437,11.97978427,57.68817500,11.97978300,15:18:04.142446,0.00872,0.00000,0.00000,-0.01487,0.00000,0.00068,0.00086,-0.00294,-0.05191,-0.11352,0.99369,0.16490,0.00000,0.35843,0.35843,-0.00396,0.00371,0.13369,-0.07925,0.07413,2.38956,2.38956,A,151804.00
0.17748,57.68817440,11.97978420,57.68817500,11.97978300,15:18:04.148892,0.00498,0.00000,0.00000,-0.01682,0.00000,0.00007,0.00025,-0.00096,-0.05234,-0.11346,0.99174,0.17166,0.00000,0.66310,0.66310,-0.00773,0.00723,0.13369,-0.07925,0.07413,2.38956,2.38956,A,151804.00
0.18884,57.68817443,11.97978414,57.68817500,11.97978300,15:18:04.160262,0.00581,0.00000,0.00000,-0.01873,0.00000,0.00251,0.00162,0.00042,-0.04984,-0.11364,0.99033,0.18207,0.00000,0.92207,0.92207,-0.01130,0.01057,0.13369,-0.07925,0.07413,2.38956,2.38956,A,151804.00
0.19950,57.68817446,11.97978409,57.68817500,11.97978300,15:18:04.170925,0.00610,0.00000,0.00000,-0.02065,0.00000,0.00052,-0.00113,-0.00401,-0.05185,-0.11584,0.99186,0.19329,0.00000,1.14219,1.14219,-0.01470,0.01375,0.13369,-0.07925,0.07413,2.38956,2.38956,A,151804.00
0.21082,57.68817448,11.97978403,57.68817500,11.97978300,15:18:04.182293,0.00606,0.00000,0.00000,-0.02253,0.00000,-0.00345,0.00009,-0.00050,-0.05173,-0.11230,0.99302,0.20281,0.00000,1.32930,1.32930,-0.01793,0.01677,0.13369,-0.07925,0.07413,2.38956,2.38956,A,151804.00
0.21956,57.68817451,11.97978398,57.68817500,11.97978300,15:18:04.190980,0.00550,0.00000,0.00000,-0.02437,0.00000,0.00114,0.00025,0.00087,-0.05392,-0.11419,0.98887,0.21340,0.00000,1.48834,1.48834,-0.02099,0.01964,0.13369,-0.07925,0.07413,2.38956,2.38956,A,151804.00
0.22951,57.68817453,11.97978393,57.68817500,11.97978300,15:18:04.200931,0.00505,0.00000,0.00000,-0.02622,0.00000,-0.00024,-0.00067,0.00011,-0.05155,-0.11572,0.99143,0.22367,0.00000,1.62352,1.62352,-0.02391,0.02236,0.13369,-0.07925,0.07413,2.38956,2.38956,A,151804.00
0.27273,57.68817456,11.97978388,57.68817633,11.97977883,15:18:04.244183,0.03773,0.00000,1.50000,-0.02802,0.02000,0.00037,-0.00082,-0.00081,-0.05112,-0.11486,0.98997,0.23479,0.00000,1.73843,1.73843,-0.02667,0.02495,0.25357,-0.32690,0.22239,2.60216,2.60216,A,151804.10
0.28866,57.68817465,11.97978363,57.68817633,11.97977883,15:18:04.260079,0.00566,0.00000,0.00000,-0.02989,0.00000,-0.00161,0.00101,-0.00050,-0.04929,-0.11590,0.99052,0.28250,0.00000,1.86799,1.86799,-0.04169,0.03482,0.25357,-0.32690,0.22239,2.60216,2.60216,A,151804.10
0.29848,57.68817473,11.97978339,57.68817633,11.97977883,15:18:04.270165,0.00507,0.00000,0.00000,-0.03163,0.00000,0.00144,-0.00006,0.00103,-0.05368,-0.11535,0.99186,0.29265,0.00000,1.97811,1.97811,-0.05595,0.04420,0.25357,-0.32690,0.22239,2.60216,2.60216,A,151804.10
0.30952,57.68817481,11.97978316,57.68817633,11.97977883,15:18:04.280942,0.00570,0.00000,0.00000,-0.03338,0.00000,-0.00284,-0.00296,0.00103,-0.05020,-0.11450,0.99021,0.30330,0.00000,2.07172,2.07172,-0.06949,0.05311,0.25357,-0.32690,0.22239,2.60216,2.60216,A,151804.10
0.31957,57.68817489,11.97978295,57.68817633,11.97977883,15:18:04.290991,0.00536,0.00000,0.00000,-0.03508,0.00000,-0.00177,0.00376,0.00164,-0.05331,-0.11413,0.99162,0.31344,0.00000,2.15129,2.15129,-0.08236,0.06157,0.25357,-0.32690,0.22239,2.60216,2.60216,A,151804.10
0.32966,57.68817496,11.97978274,57.68817633,11.97977883,15:18:04.301081,0.00505,0.00000,0.00000,-0.03676,0.00000,0.00129,-0.00174,-0.00340,-0.05136,-0.11590,0.99094,0.32382,0.00000,2.21892,2.21892,-0.09459,0.06962,0.25357,-0.32690,0.22239,2.60216,2.60216,A,151804.10
0.34209,57.68817503,11.97978255,57.68817633,11.97977883,15:18:04.313507,0.00608,0.00000,0.00000,-0.03840,0.00000,0.00129,-0.00174,-0.00111,-0.05240,-0.11572,0.99479,0.33544,0.00000,2.27640,2.27640,-0.10621,0.07725,0.25357,-0.32690,0.22239,2.60216,2.60216,A,151804.10
0.35323,57.68817509,11.97978236,57.68817633,11.97977883,15:18:04.324652,0.00682,0.00000,0.00000,-0.03997,0.00000,0.00220,0.00193,0.00225,-0.05258,-0.11376,0.99149,0.34734,0.00000,2.32527,2.32527,-0.11724,0.08451,0.25357,-0.32690,0.22239,2.60216,2.60216,A,151804.10
0.40836,57.68817516,11.97978218,57.68817933,11.97977317,15:18:04.379821,0.05154,0.00000,1.50000,-0.04156,0.02000,-0.00238,0.00147,-0.00126,-0.05234,-0.11315,0.99302,0.35592,0.00000,2.36680,2.36680,-0.12772,0.09140,0.38581,-0.66371,0.55597,2.36100,2.36100,A,151804.30
0.42919,57.68817536,11.97978173,57.68817933,11.97977317,15:18:04.400606,0.01020,0.00000,0.00000,-0.04286,0.00000,0.00434,-0.00143,-0.00264,-0.05478,-0.11511,0.99168,0.42260,0.00000,2.36593,2.36593,-0.15452,0.11463,0.38581,-0.66371,0.55597,2.36100,2.36100,A,151804.30
0.45100,57.68817556,11.97978131,57.68817933,11.97977317,15:18:04.422432,0.00828,0.00000,0.00000,-0.04444,0.00000,-0.00161,0.00086,-0.00081,-0.05270,-0.11431,0.99198,0.44427,0.00000,2.36519,2.36519,-0.17998,0.13670,0.38581,-0.66371,0.55597,2.36100,2.36100,A,151804.30
0.45933,57.68817575,11.97978090,57.68817933,11.97977317,15:18:04.430754,0.00589,0.00000,0.00000,-0.04596,0.00000,0.00083,0.00223,0.00042,-0.05258,-0.11517,0.99131,0.45314,0.00000,2.36456,2.36456,-0.20417,0.15766,0.38581,-0.66371,0.55597,2.36100,2.36100,A,151804.30
0.46925,57.68817593,11.97978051,57.68817933,11.97977317,15:18:04.440673,0.00541,0.00000,0.00000,-0.04747,0.00000,0.00098,-0.00143,0.00026,-0.05173,-0.11560,0.99198,0.46284,0.00000,2.36403,2.36403,-0.22715,0.17758,0.38581,-0.66371,0.55597,2.36100,2.36100,A,151804.30
0.47991,57.68817610,11.97978014,57.68817933,11.97977317,15:18:04.451353,0.00568,0.00000,0.00000,-0.04896,0.00000,0.00129,0.00147,0.00393,-0.04953,-0.11566,0.99119,0.47346,0.00000,2.36358,2.36358,-0.24897,0.19650,0.38581,-0.66371,0.55597,2.36100,2.36100,A,151804.30
0.52331,57.68817626,11.97977980,57.68818083,11.97977150,15:18:04.494778,0.03868,0.00000,1.50000,-0.05042,0.02000,-0.00024,0.00177,-0.00096,-0.05222,-0.11438,0.99052,0.48383,0.00000,2.36319,2.36319,-0.26971,0.21447,0.50162,-0.76277,0.72277,2.10673,2.10673,A,151804.40
0.53722,57.68817649,11.97977938,57.68818083,11.97977150,15:18:04.508646,0.00759,0.00000,0.00000,-0.05176,0.00000,0.00236,0.00177,0.00149,-0.05203,-0.11541,0.99155,0.53133,0.00000,2.32472,2.32472,-0.29436,0.23989,0.50162,-0.76277,0.72277,2.10673,2.10673,A,151804.40
0.54628,57.68817671,11.97977899,57.68818083,11.97977150,15:18:04.517719,0.00625,0.00000,0.00000,-0.05319,0.00000,-0.00054,0.00040,-0.00081,-0.05203,-0.11560,0.99210,0.53906,0.00000,2.29202,2.29202,-0.31778,0.26403,0.50162,-0.76277,0.72277,2.10673,2.10673,A,151804.40
0.55579,57.68817691,11.97977861,57.68818083,11.97977150,15:18:04.527211,0.00535,0.00000,0.00000,-0.05458,0.00000,0.00037,-0.00204,0.00179,-0.05319,-0.11468,0.99168,0.54966,0.00000,2.26423,2.26423,-0.34003,0.28697,0.50162,-0.76277,0.72277,2.10673,2.10673,A,151804.40
0.56652,57.68817711,11.97977826,57.68818083,11.97977150,15:18:04.538211,0.00568,0.00000,0.00000,-0.05597,0.00000,-0.00039,-0.00067,-0.00096,-0.05313,-0.11511,0.99107,0.56066,0.00000,2.24060,2.24060,-0.36117,0.30876,0.50162,-0.76277,0.72277,2.10673,2.10673,A,151804.40
0.57640,57.68817730,11.97977792,57.68818083,11.97977150,15:18:04.547822,0.00532,0.00000,0.00000,-0.05733,0.00000,-0.00039,-0.00036,0.00072,-0.05148,-0.11462,0.98991,0.57029,0.00000,2.22052,2.22052,-0.38125,0.32946,0.50162,-0.76277,0.72277,2.10673,2.10673,A,151804.40
0.58656,57.68817747,11.97977760,57.68818083,11.97977150,15:18:04.558219,0.00508,0.00000,0.00000,-0.05870,0.00000,-0.00299,-0.00006,-0.00111,-0.05240,-0.11474,0.99070,0.58072,0.00000,2.20346,2.20346,-0.40033,0.34912,0.50162,-0.76277,0.72277,2.10673,2.10673,A,151804.40
0.59692,57.68817764,11.97977729,57.68818083,11.97977150,15:18:04.568342,0.00504,0.00000,0.00000,-0.06003,0.00000,-0.00207,0.00116,0.00255,-0.05276,-0.11425,0.99210,0.59088,0.00000,2.18895,2.18895,-0.41845,0.36781,0.50162,-0.76277,0.72277,2.10673,2.10673,A,151804.40
0.64184,57.68817780,11.97977700,57.68818183,11.97979467,15:18:04.613298,0.03955,0.00000,1.50000,-0.06130,0.02000,0.00327,-0.00143,-0.00081,-0.05124,-0.11566,0.99448,0.60151,0.00000,2.17662,2.17662,-0.43567,0.38555,0.62004,0.61418,0.83396,0.08058,0.08058,A,151804.50
0.66211,57.68817800,11.97977789,57.68818183,11.97979467,15:18:04.633530,0.00963,0.00000,0.00000,-0.06233,0.00000,0.00434,0.00177,-0.00203,-0.05179,-0.11407,0.99186,0.65623,0.00000,1.86221,1.86221,-0.38317,0.40797,0.62004,0.61418,0.83396,0.08058,0.08058,A,151804.50
0.66866,57.68817819,11.97977873,57.68818183,11.97979467,15:18:04.640085,0.00534,0.00000,0.00000,-0.06357,0.00000,0.00190,0.00086,-0.00264,-0.05307,-0.11462,0.99174,0.66228,0.00000,1.59497,1.59497,-0.33331,0.42927,0.62004,0.61418,0.83396,0.08058,0.08058,A,151804.50
0.67978,57.68817838,11.97977952,57.68818183,11.97979467,15:18:04.651367,0.00607,0.00000,0.00000,-0.06487,0.00000,-0.00345,0.00055,0.00179,-0.05313,-0.11572,0.99064,0.67296,0.00000,1.36781,1.36781,-0.28593,0.44951,0.62004,0.61418,0.83396,0.08058,0.08058,A,151804.50
0.68998,57.68817855,11.97978028,57.68818183,11.97979467,15:18:04.661398,0.00587,0.00000,0.00000,-0.06607,0.00000,0.00068,-0.00159,-0.00111,-0.05179,-0.11395,0.99033,0.68412,0.00000,1.17472,1.17472,-0.24093,0.46873,0.62004,0.61418,0.83396,0.08058,0.08058,A,151804.50
0.69985,57.68817871,11.97978100,57.68818183,11.97979467,15:18:04.671271,0.00534,0.00000,0.00000,-0.06732,0.00000,-0.00192,0.00147,0.00026,-0.05283,-0.11614,0.98918,0.69373,0.00000,1.01060,1.01060,-0.19817,0.48699,0.62004,0.61418,0.83396,0.08058,0.08058,A,151804.50
0.71196,57.68817887,11.97978168,57.68818183,11.97979467,15:18:04.683737,0.00720,0.00000,0.00000,-0.06855,0.00000,-0.00299,-0.00082,-0.00187,-0.05087,-0.11541,0.99198,0.70547,0.00000,0.87110,0.87110,-0.15755,0.50434,0.62004,0.61418,0.83396,0.08058,0.08058,A,151804.50
0.72020,57.68817902,11.97978233,57.68818183,11.97979467,15:18:04.691619,0.00516,0.00000,0.00000,-0.06974,0.00000,-0.00238,0.00422,0.00026,-0.05289,-0.11529,0.99467,0.71407,0.00000,0.75252,0.75252,-0.11897,0.52082,0.62004,0.61418,0.83396,0.08058,0.08058,A,151804.50
0.75973,57.68817916,11.97978295,57.68818150,11.97981133,15:18:04.731433,0.03429,0.00000,1.50000,-0.07092,0.02000,-0.00253,-0.00296,-0.00035,-0.05179,-0.11511,0.99204,0.72466,0.00000,0.65173,0.65173,-0.08231,0.53648,0.74255,1.60479,0.79690,-0.03740,-0.03740,A,151804.60
0.77984,57.68817928,11.97978437,57.68818150,11.97981133,15:18:04.751424,0.00687,0.00000,0.00000,-0.07191,0.00000,0.00282,0.00009,-0.00065,-0.05185,-0.11401,0.99119,0.77367,0.00000,0.54836,0.54836,0.00205,0.54950,0.74255,1.60479,0.79690,-0.03740,-0.03740,A,151804.60
0.78946,57.68817939,11.97978572,57.68818150,11.97981133,15:18:04.760883,0.00577,0.00000,0.00000,-0.07302,0.00000,0.00129,-0.00220,0.00072,-0.05209,-0.11560,0.99284,0.78268,0.00000,0.46050,0.46050,0.08218,0.56187,0.74255,1.60479,0.79690,-0.03740,-0.03740,A,151804.60
0.79943,57.68817949,11.97978700,57.68818150,11.97981133,15:18:04.770853,0.00534,0.00000,0.00000,-0.07413,0.00000,-0.00253,-0.00449,-0.00233,-0.05118,-0.11340,0.99094,0.79332,0.00000,0.38581,0.38581,0.15831,0.57362,0.74255,1.60479,0.79690,-0.03740,-0.03740,A,151804.60
0.80995,57.68817959,11.97978821,57.68818150,11.97981133,15:18:04.781371,0.00546,0.00000,0.00000,-0.07521,0.00000,-0.00146,0.00177,-0.00081,-0.05215,-0.11340,0.98942,0.80408,0.00000,0.32233,0.32233,0.23064,0.58479,0.74255,1.60479,0.79690,-0.03740,-0.03740,A,151804.60
0.82024,57.68817969,11.97978937,57.68818150,11.97981133,15:18:04.791664,0.00521,0.00000,0.00000,-0.07631,0.00000,-0.00253,-0.00143,-0.00126,-0.04972,-0.11511,0.99113,0.81407,0.00000,0.26837,0.26837,0.29935,0.59539,0.74255,1.60479,0.79690,-0.03740,-0.03740,A,151804.60
0.83123,57.68817978,11.97979047,57.68818150,11.97981133,15:18:04.802658,0.00551,0.00000,0.00000,-0.07733,0.00000,0.00159,0.00101,-0.00111,-0.05142,-0.11370,0.98960,0.82510,0.00000,0.22251,0.22251,0.36462,0.60547,0.74255,1.60479,0.79690,-0.03740,-0.03740,A,151804.60
0.84116,57.68817986,11.97979151,57.68818150,11.97981133,15:18:04.812574,0.00503,0.00000,0.00000,-0.07839,0.00000,-0.00070,0.00193,0.00087,-0.05167,-0.11596,0.99058,0.83512,0.00000,0.18352,0.18352,0.42663,0.61504,0.74255,1.60479,0.79690,-0.03740,-0.03740,A,151804.60
0.88412,57.68817995,11.97979250,57.68818117,11.97982450,15:18:04.855584,0.03760,0.00000,1.50000,-0.07944,0.02000,-0.00268,0.00025,0.00179,-0.04990,-0.11462,0.99040,0.84574,0.00000,0.15038,0.15038,0.48554,0.62413,0.86386,2.38738,0.75983,-0.04733,-0.04733,A,151804.70
0.90028,57.68818001,11.97979410,57.68818117,11.97982450,15:18:04.871702,0.00742,0.00000,0.00000,-0.08047,0.00000,-0.00054,0.00284,0.00149,-0.05118,-0.11462,0.98985,0.89412,0.00000,0.12073,0.12073,0.58063,0.63092,0.86386,2.38738,0.75983,-0.04733,-0.04733,A,151804.70
0.90829,57.68818007,11.97979562,57.68818117,11.97982450,15:18:04.879710,0.00518,0.00000,0.00000,-0.08149,0.00000,0.00098,-0.00128,-0.00035,-0.05087,-0.11675,0.98936,0.90218,0.00000,0.09552,0.09552,0.67096,0.63736,0.86386,2.38738,0.75983,-0.04733,-0.04733,A,151804.70
0.92078,57.68818012,11.97979707,57.68818117,11.97982450,15:18:04.892231,0.00726,0.00000,0.00000,-0.08248,0.00000,0.00068,0.00193,0.00103,-0.05234,-0.11724,0.99369,0.91332,0.00000,0.07409,0.07409,0.75679,0.64348,0.86386,2.38738,0.75983,-0.04733,-0.04733,A,151804.70
0.92944,57.68818017,11.97979844,57.68818117,11.97982450,15:18:04.900858,0.00552,0.00000,0.00000,-0.08346,0.00000,-0.00238,0.00009,0.00103,-0.04923,-0.11395,0.99064,0.92359,0.00000,0.05588,0.05588,0.83831,0.64930,0.86386,2.38738,0.75983,-0.04733,-0.04733,A,151804.70
0.93969,57.68818022,11.97979974,57.68818117,11.97982450,15:18:04.911460,0.00537,0.00000,0.00000,-0.08439,0.00000,0.00037,-0.00266,-0.00050,-0.05118,-0.11419,0.99058,0.93357,0.00000,0.04040,0.04040,0.91577,0.65483,0.86386,2.38738,0.75983,-0.04733,-0.04733,A,151804.70
0.95269,57.68818027,11.97980098,57.68818117,11.97982450,15:18:04.924117,0.00797,0.00000,0.00000,-0.08536,0.00000,-0.00146,-0.00327,0.00103,-0.05094,-0.11627,0.99186,0.94524,0.00000,0.02724,0.02724,0.98935,0.66008,0.86386,2.38738,0.75983,-0.04733,-0.04733,A,151804.70
0.96020,57.68818031,11.97980215,57.68818117,11.97982450,15:18:04.931618,0.00517,0.00000,0.00000,-0.08628,0.00000,-0.00100,0.00040,-0.00249,-0.04959,-0.11486,0.99101,0.95407,0.00000,0.01605,0.01605,1.05925,0.66507,0.86386,2.38738,0.75983,-0.04733,-0.04733,A,151804.70
1.01568,57.68818036,11.97980327,57.68818050,11.97985100,15:18:04.987132,0.05024,0.00000,1.50000,-0.08721,0.02000,-0.00024,0.00132,-0.00401,-0.05033,-0.11633,0.99015,0.96496,0.00000,0.00655,0.00655,1.12566,0.66980,0.99378,3.96245,0.68570,-0.04703,-0.04703,A,151804.90
1.03488,57.68818036,11.97980566,57.68818050,11.97985100,15:18:05.006321,0.00636,0.00000,0.00000,-0.08827,0.00000,-0.00222,-0.00189,0.00011,-0.05264,-0.11608,0.98869,1.02877,0.00000,-0.00149,-0.00149,1.26750,0.67060,0.99378,3.96245,0.68570,-0.04703,-0.04703,A,151804.90
1.04417,57.68818037,11.97980793,57.68818050,11.97985100,15:18:05.015593,0.00515,0.00000,0.00000,-0.08913,0.00000,0.00037,-0.00098,-0.00417,-0.05118,-0.11413,0.99070,1.03806,0.00000,-0.00832,-0.00832,1.40224,0.67135,0.99378,3.96245,0.68570,-0.04703,-0.04703,A,151804.90
1.05448,57.68818038,11.97981008,57.68818050,11.97985100,15:18:05.026153,0.00506,0.00000,0.00000,-0.09001,0.00000,-0.00253,0.00055,-0.00035,-0.05173,-0.11438,0.99204,1.04866,0.00000,-0.01413,-0.01413,1.53025,0.67207,0.99378,3.96245,0.68570,-0.04703,-0.04703,A,151804.90
1.06491,57.68818038,11.97981213,57.68818050,11.97985100,15:18:05.036330,0.00509,0.00000,0.00000,-0.09079,0.00000,0.00633,-0.00204,-0.00035,-0.05136,-0.11462,0.99058,1.05883,0.00000,-0.01906,-0.01906,1.65186,0.67275,0.99378,3.96245,0.68570,-0.04703,-0.04703,A,151804.90
1.07625,57.68818039,11.97981407,57.68818050,11.97985100,15:18:05.047924,0.00594,0.00000,0.00000,-0.09159,0.00000,0.00190,0.00040,-0.00218,-0.05295,-0.11444,0.99229,1.06955,0.00000,-0.02326,-0.02326,1.76739,0.67340,0.99378,3.96245,0.68570,-0.04703,-0.04703,A,151804.90
1.08634,57.68818039,11.97981592,57.68818050,11.97985100,15:18:05.057766,0.00563,0.00000,0.00000,-0.09243,0.00000,-0.00054,0.00254,-0.00111,-0.05289,-0.11492,0.99033,1.08012,0.00000,-0.02682,-0.02682,1.87715,0.67402,0.99378,3.96245,0.68570,-0.04703,-0.04703,A,151804.90
1.13003,57.68818040,11.97981767,57.68818133,11.97986133,15:18:05.101768,0.03899,0.00000,1.50000,-0.09319,0.02000,0.00679,0.00483,-0.00065,-0.05234,-0.11645,0.99320,1.09009,0.00000,-0.02985,-0.02985,1.98141,0.67460,1.10820,4.57663,0.77836,0.14974,0.14974,A,151805.00
1.14925,57.68818045,11.97981985,57.68818133,11.97986133,15:18:05.120661,0.00860,0.00000,0.00000,-0.09393,0.00000,0.00190,0.00284,-0.00111,-0.04904,-0.11773,0.99192,1.14333,0.00000,-0.00291,-0.00291,2.11117,0.67979,1.10820,4.57663,0.77836,0.14974,0.14974,A,151805.00
1.15806,57.68818049,11.97982193,57.68818133,11.97986133,15:18:05.129474,0.00668,0.00000,0.00000,-0.09478,0.00000,-0.00406,-0.00189,0.00011,-0.05319,-0.11639,0.98991,1.15159,0.00000,0.01998,0.01998,2.23445,0.68472,1.10820,4.57663,0.77836,0.14974,0.14974,A,151805.00
1.16944,57.68818053,11.97982390,57.68818133,11.97986133,15:18:05.140872,0.00766,0.00000,0.00000,-0.09558,0.00000,-0.00161,0.00452,-0.00035,-0.05453,-0.11541,0.99204,1.16104,0.00000,0.03945,0.03945,2.35155,0.68940,1.10820,4.57663,0.77836,0.14974,0.14974,A,151805.00
1.17725,57.68818057,11.97982577,57.68818133,11.97986133,15:18:05.148665,0.00506,0.00000,0.00000,-0.09636,0.00000,-0.00024,0.00284,0.00011,-0.05264,-0.11651,0.99442,1.17140,0.00000,0.05599,0.05599,2.46281,0.69385,1.10820,4.57663,0.77836,0.14974,0.14974,A,151805.00
1.18820,57.68818061,11.97982755,57.68818133,11.97986133,15:18:05.159621,0.00521,0.00000,0.00000,-0.09715,0.00000,-0.00039,0.00055,-0.00081,-0.04996,-0.11694,0.99143,1.18207,0.00000,0.07005,0.07005,2.56850,0.69807,1.10820,4.57663,0.77836,0.14974,0.14974,A,151805.00
1.20025,57.68818065,11.97982924,57.68818133,11.97986133,15:18:05.171664,0.00686,0.00000,0.00000,-0.09784,0.00000,0.00159,0.00132,-0.00126,-0.05026,-0.11254,0.99027,1.19362,0.00000,0.08201,0.08201,2.66891,0.70209,1.10820,4.57663,0.77836,0.14974,0.14974,A,151805.00
1.24151,57.68818068,11.97983084,57.68818233,11.97987150,15:18:05.214057,0.03772,0.00000,1.50000,-0.09857,0.02000,-0.00284,0.00422,-0.00050,-0.05161,-0.11346,0.99186,1.20279,0.00000,0.09217,0.09217,2.76429,0.70590,1.22081,5.18091,0.88956,0.18198,0.18198,A,151805.10
1.26207,57.68818076,11.97983287,57.68818233,11.97987150,15:18:05.233503,0.00793,0.00000,0.00000,-0.09938,0.00000,-0.00192,0.00147,-0.00096,-0.05045,-0.11419,0.99149,1.25535,0.00000,0.10564,0.10564,2.88512,0.71509,1.22081,5.18091,0.88956,0.18198,0.18198,A,151805.10
1.27098,57.68818084,11.97983481,57.68818233,11.97987150,15:18:05.242758,0.00643,0.00000,0.00000,-0.10014,0.00000,-0.00665,0.00361,0.00225,-0.05033,-0.11474,0.99125,1.26374,0.00000,0.11709,0.11709,2.99991,0.72381,1.22081,5.18091,0.88956,0.18198,0.18198,A,151805.10
1.28044,57.68818092,11.97983664,57.68818233,11.97987150,15:18:05.251866,0.00541,0.00000,0.00000,-0.10091,0.00000,-0.00650,0.00269,0.00087,-0.05124,-0.11560,0.99094,1.27407,0.00000,0.12682,0.12682,3.10896,0.73210,1.22081,5.18091,0.88956,0.18198,0.18198,A,151805.10
1.29049,57.68818099,11.97983838,57.68818233,11.97987150,15:18:05.262160,0.00506,0.00000,0.00000,-0.10163,0.00000,-0.00070,0.00269,0.00149,-0.05228,-0.11621,0.99033,1.28467,0.00000,0.13510,0.13510,3.21256,0.73997,1.22081,5.18091,0.88956,0.18198,0.18198,A,151805.10
1.30092,57.68818106,11.97984004,57.68818233,11.97987150,15:18:05.272337,0.00509,0.00000,0.00000,-0.10231,0.00000,-0.00253,-0.00235,-0.00187,-0.05197,-0.11413,0.99296,1.29485,0.00000,0.14213,0.14213,3.31098,0.74745,1.22081,5.18091,0.88956,0.18198,0.18198,A,151805.10
1.31203,57.68818112,11.97984161,57.68818233,11.97987150,15:18:05.283451,0.00553,0.00000,0.00000,-0.10304,0.00000,-0.00528,0.00086,-0.00004,-0.04941,-0.11560,0.99113,1.30590,0.00000,0.14811,0.14811,3.40447,0.75455,1.22081,5.18091,0.88956,0.18198,0.18198,A,151805.10
1.35377,57.68818118,11.97984311,57.68818350,11.97988067,15:18:05.325233,0.03688,0.00000,1.50000,-0.10372,0.02000,-0.00131,0.00208,-0.00096,-0.05173,-0.11541,0.99216,1.31621,0.00000,0.15319,0.15319,3.49329,0.76130,1.33403,5.72574,1.01929,0.23375,0.23375,A,151805.20
1.37523,57.68818130,11.97984498,57.68818350,11.97988067,15:18:05.346682,0.00995,0.00000,0.00000,-0.10443,0.00000,-0.00161,0.00330,-0.00050,-0.05240,-0.11444,0.99155,1.36632,0.00000,0.16527,0.16527,3.60492,0.77420,1.33403,5.72574,1.01929,0.23375,0.23375,A,151805.20
1.38314,57.68818141,11.97984677,57.68818350,11.97988067,15:18:05.354567,0.00696,0.00000,0.00000,-0.10504,0.00000,0.00236,0.00132,0.00026,-0.05026,-0.11523,0.99381,1.37538,0.00000,0.17554,0.17554,3.71096,0.78646,1.33403,5.72574,1.01929,0.23375,0.23375,A,151805.20
1.39190,57.68818151,11.97984846,57.68818350,11.97988067,15:18:05.363312,0.00514,0.00000,0.00000,-0.10566,0.00000,0.00190,-0.00006,0.00087,-0.05179,-0.11614,0.99320,1.38579,0.00000,0.18427,0.18427,3.81170,0.79810,1.33403,5.72574,1.01929,0.23375,0.23375,A,151805.20
1.40317,57.68818161,11.97985007,57.68818350,11.97988067,15:18:05.374592,0.00601,0.00000,0.00000,-0.10634,0.00000,-0.00620,-0.00434,-0.00279,-0.05313,-0.11474,0.99119,1.39638,0.00000,0.19170,0.19170,3.90740,0.80916,1.33403,5.72574,1.01929,0.23375,0.23375,A,151805.20
1.41412,57.68818170,11.97985160,57.68818350,11.97988067,15:18:05.385550,0.00673,0.00000,0.00000,-0.10693,0.00000,0.00022,-0.00189,0.00011,-0.05258,-0.11419,0.99143,1.40644,0.00000,0.19800,0.19800,3.99832,0.81967,1.33403,5.72574,1.01929,0.23375,0.23375,A,151805.20
1.42429,57.68818179,11.97985306,57.68818350,11.97988067,15:18:05.395711,0.00650,0.00000,0.00000,-0.10756,0.00000,-0.00238,-0.00021,0.00164,-0.05258,-0.11578,0.99094,1.41704,0.00000,0.20337,0.20337,4.08469,0.82965,1.33403,5.72574,1.01929,0.23375,0.23375,A,151805.20
1.43332,57.68818188,11.97985444,57.68818350,11.97988067,15:18:05.404740,0.00527,0.00000,0.00000,-0.10818,0.00000,-0.00207,0.00177,-0.00019,-0.05069,-0.11614,0.99259,1.42746,0.00000,0.20792,0.20792,4.16674,0.83913,1.33403,5.72574,1.01929,0.23375,0.23375,A,151805.20
1.48018,57.68818196,11.97985575,57.68818450,11.97988800,15:18:05.451637,0.04083,0.00000,1.50000,-0.10875,0.02000,0.00037,-0.00235,-0.00111,-0.05197,-0.11444,0.99107,1.43889,0.00000,0.21180,0.21180,4.24469,0.84814,1.45835,6.16161,1.13048,0.24978,0.24978,A,151805.30
1.49938,57.68818209,11.97985736,57.68818450,11.97988800,15:18:05.470809,0.00845,0.00000,0.00000,-0.10928,0.00000,0.00037,-0.00189,0.00057,-0.05155,-0.11383,0.99174,1.49320,0.00000,0.21750,0.21750,4.34054,0.86225,1.45835,6.16161,1.13048,0.24978,0.24978,A,151805.30
1.50740,57.68818221,11.97985889,57.68818450,11.97988800,15:18:05.478832,0.00607,0.00000,0.00000,-0.10981,0.00000,0.00007,-0.00006,-0.00111,-0.05295,-0.11364,0.99241,1.50057,0.00000,0.22234,0.22234,4.43159,0.87566,1.45835,6.16161,1.13048,0.24978,0.24978,A,151805.30
1.51684,57.68818232,11.97986035,57.68818450,11.97988800,15:18:05.488262,0.00511,0.00000,0.00000,-0.11038,0.00000,0.00083,0.00025,-0.00050,-0.05124,-0.11602,0.98887,1.51075,0.00000,0.22646,0.22646,4.51809,0.88841,1.45835,6.16161,1.13048,0.24978,0.24978,A,151805.30
1.52749,57.68818243,11.97986173,57.68818450,11.97988800,15:18:05.498908,0.00536,0.00000,0.00000,-0.11093,0.00000,-0.00100,-0.00006,-0.00065,-0.05173,-0.11486,0.99204,1.52137,0.00000,0.22995,0.22995,4.60027,0.90051,1.45835,6.16161,1.13048,0.24978,0.24978,A,151805.30
1.53829,57.68818254,11.97986304,57.68818450,11.97988800,15:18:05.509711,0.00576,0.00000,0.00000,-0.11147,0.00000,0.00129,0.00147,-0.00218,-0.05155,-0.11669,0.99296,1.53172,0.00000,0.23293,0.23293,4.67834,0.91201,1.45835,6.16161,1.13048,0.24978,0.24978,A,151805.30
1.54819,57.68818263,11.97986429,57.68818450,11.97988800,15:18:05.519611,0.00516,0.00000,0.00000,-0.11204,0.00000,-0.00299,-0.00311,0.00042,-0.05252,-0.11541,0.99216,1.54208,0.00000,0.23546,0.23546,4.75250,0.92293,1.45835,6.16161,1.13048,0.24978,0.24978,A,151805.30
1.55848,57.68818273,11.97986548,57.68818450,11.97988800,15:18:05.530151,0.00504,0.00000,0.00000,-0.11258,0.00000,0.00144,0.00452,-0.00035,-0.05307,-0.11706,0.98911,1.55266,0.00000,0.23761,0.23761,4.82295,0.93331,1.45835,6.16161,1.13048,0.24978,0.24978,A,151805.30
1.60811,57.68818282,11.97986660,57.68818500,11.97990433,15:18:05.580504,0.04427,0.00000,1.50000,-0.11307,0.02000,0.00037,-0.00021,-0.00279,-0.05228,-0.11438,0.99058,1.56285,0.00000,0.23943,0.23943,4.88989,0.94317,1.59206,7.13241,1.18608,0.05721,0.05721,A,151805.50
1.62503,57.68818292,11.97986849,57.68818500,11.97990433,15:18:05.596449,0.00714,0.00000,0.00000,-0.11372,0.00000,-0.00268,-0.00067,-0.00096,-0.05161,-0.11450,0.99009,1.61895,0.00000,0.21210,0.21210,5.00201,0.95531,1.59206,7.13241,1.18608,0.05721,0.05721,A,151805.50
1.63335,57.68818303,11.97987028,57.68818500,11.97990433,15:18:05.604768,0.00505,0.00000,0.00000,-0.11424,0.00000,-0.00375,-0.00006,-0.00203,-0.05002,-0.11462,0.99088,1.62751,0.00000,0.18886,0.18886,5.10853,0.96685,1.59206,7.13241,1.18608,0.05721,0.05721,A,151805.50
1.64654,57.68818313,11.97987199,57.68818500,11.97990433,15:18:05.618191,0.00768,0.00000,0.00000,-0.11473,0.00000,0.00068,-0.00006,-0.00096,-0.05295,-0.11596,0.99204,1.63880,0.00000,0.16912,0.16912,5.20973,0.97781,1.59206,7.13241,1.18608,0.05721,0.05721,A,151805.50
1.65698,57.68818322,11.97987360,57.68818500,11.97990433,15:18:05.628399,0.00771,0.00000,0.00000,-0.11518,0.00000,0.00052,0.00132,-0.00340,-0.05362,-0.11346,0.99412,1.64944,0.00000,0.15233,0.15233,5.30586,0.98823,1.59206,7.13241,1.18608,0.05721,0.05721,A,151805.50
1.66556,57.68818331,11.97987514,57.68818500,11.97990433,15:18:05.636983,0.00553,0.00000,0.00000,-0.11559,0.00000,0.00480,0.00269,-0.00203,-0.05087,-0.11456,0.99241,1.65970,0.00000,0.13806,0.13806,5.39719,0.99812,1.59206,7.13241,1.18608,0.05721,0.05721,A,151805.50
1.67665,57.68818339,11.97987660,57.68818500,11.97990433,15:18:05.648072,0.00637,0.00000,0.00000,-0.11607,0.00000,-0.00054,0.00055,-0.00065,-0.05246,-0.11517,0.99204,1.67051,0.00000,0.12593,0.12593,5.48395,1.00752,1.59206,7.13241,1.18608,0.05721,0.05721,A,151805.50
1.68746,57.68818347,11.97987799,57.68818500,11.97990433,15:18:05.658892,0.00679,0.00000,0.00000,-0.11650,0.00000,0.00526,0.00086,-0.00065,-0.05179,-0.11700,0.99192,1.67989,0.00000,0.11562,0.11562,5.56637,1.01645,1.59206,7.13241,1.18608,0.05721,0.05721,A,151805.50
1.72990,57.68818355,11.97987930,57.68818467,11.97990500,15:18:05.702088,0.03886,0.00000,1.50000,-0.11695,0.02000,-0.00161,-0.00036,0.00103,-0.05264,-0.11383,0.99375,1.69028,0.00000,0.10686,0.10686,5.64468,1.02493,1.70985,7.17204,1.14901,-0.75204,-0.75204,A,151805.60
1.74768,57.68818361,11.97988059,57.68818467,11.97990500,15:18:05.719106,0.00616,0.00000,0.00000,-0.11727,0.00000,0.00220,0.00330,0.00286,-0.05307,-0.11431,0.99204,1.74152,0.00000,-0.02197,-0.02197,5.72104,1.03113,1.70985,7.17204,1.14901,-0.75204,-0.75204,A,151805.60
1.75751,57.68818366,11.97988181,57.68818467,11.97990500,15:18:05.728921,0.00558,0.00000,0.00000,-0.11775,0.00000,0.00098,0.00116,-0.00187,-0.05283,-0.11791,0.99168,1.75166,0.00000,-0.13148,-0.13148,5.79359,1.03703,1.70985,7.17204,1.14901,-0.75204,-0.75204,A,151805.60
1.76767,57.68818371,11.97988297,57.68818467,11.97990500,15:18:05.739095,0.00533,0.00000,0.00000,-0.11820,0.00000,-0.00100,0.00147,-0.00004,-0.05331,-0.11535,0.99003,1.76156,0.00000,-0.22457,-0.22457,5.86252,1.04262,1.70985,7.17204,1.14901,-0.75204,-0.75204,A,151805.60
1.77904,57.68818376,11.97988407,57.68818467,11.97990500,15:18:05.750477,0.00648,0.00000,0.00000,-0.11868,0.00000,-0.00513,-0.00281,0.00072,-0.05148,-0.11468,0.99052,1.77249,0.00000,-0.30369,-0.30369,5.92799,1.04794,1.70985,7.17204,1.14901,-0.75204,-0.75204,A,151805.60
1.78877,57.68818380,11.97988512,57.68818467,11.97990500,15:18:05.760195,0.00573,0.00000,0.00000,-0.11910,0.00000,-0.00039,0.00040,-0.00065,-0.05142,-0.11523,0.99076,1.78240,0.00000,-0.37094,-0.37094,5.99019,1.05300,1.70985,7.17204,1.14901,-0.75204,-0.75204,A,151805.60
1.79963,57.68818385,11.97988611,57.68818467,11.97990500,15:18:05.771053,0.00619,0.00000,0.00000,-0.11948,0.00000,0.00022,-0.00067,-0.00096,-0.05020,-0.11303,0.99265,1.79345,0.00000,-0.42810,-0.42810,6.04929,1.05780,1.70985,7.17204,1.14901,-0.75204,-0.75204,A,151805.60
1.80946,57.68818389,11.97988705,57.68818467,11.97990500,15:18:05.780879,0.00561,0.00000,0.00000,-0.11992,0.00000,-0.00177,0.00406,-0.00126,-0.04837,-0.11602,0.99229,1.80361,0.00000,-0.47669,-0.47669,6.10542,1.06236,1.70985,7.17204,1.14901,-0.75204,-0.75204,A,151805.60
1.85321,57.68818393,11.97988795,57.68818450,11.97990500,15:18:05.824663,0.03897,0.00000,1.50000,-0.12032,0.02000,0.00052,-0.00082,0.00149,-0.05155,-0.11505,0.99253,1.81349,0.00000,-0.51799,-0.51799,6.15875,1.06669,1.83146,7.17204,1.13048,-1.57080,-1.57080,A,151805.70
1.87336,57.68818396,11.97988880,57.68818450,11.97990500,15:18:05.844812,0.00991,0.00000,0.00000,-0.12078,0.00000,-0.00116,-0.00021,-0.00096,-0.05264,-0.11584,0.99180,1.86610,0.00000,-0.67591,-0.67591,6.20942,1.06988,1.83146,7.17204,1.13048,-1.57080,-1.57080,A,151805.70
1.88018,57.68818398,11.97988961,57.68818450,11.97990500,15:18:05.851600,0.00537,0.00000,0.00000,-0.12120,0.00000,-0.00528,0.00101,-0.00126,-0.05130,-0.11431,0.99210,1.87403,0.00000,-0.81015,-0.81015,6.25755,1.07291,1.83146,7.17204,1.13048,-1.57080,-1.57080,A,151805.70
1.89204,57.68818401,11.97989038,57.68818450,11.97990500,15:18:05.863459,0.00683,0.00000,0.00000,-0.12164,0.00000,-0.00665,-0.00098,0.00011,-0.05289,-0.11474,0.99308,1.88446,0.00000,-0.92424,-0.92424,6.30327,1.07579,1.83146,7.17204,1.13048,-1.57080,-1.57080,A,151805.70
1.90057,57.68818403,11.97989111,57.68818450,11.97990500,15:18:05.871987,0.00513,0.00000,0.00000,-0.12204,0.00000,-0.00299,-0.00128,-0.00355,-0.05215,-0.11468,0.99198,1.89449,0.00000,-1.02123,-1.02123,6.34671,1.07852,1.83146,7.17204,1.13048,-1.57080,-1.57080,A,151805.70
1.91114,57.68818406,11.97989181,57.68818450,11.97990500,15:18:05.882565,0.00530,0.00000,0.00000,-0.12240,0.00000,0.00052,-0.00052,-0.00187,-0.05429,-0.11499,0.99198,1.90509,0.00000,-1.10366,-1.10366,6.38798,1.08112,1.83146,7.17204,1.13048,-1.57080,-1.57080,A,151805.70
1.92129,57.68818408,11.97989247,57.68818450,11.97990500,15:18:05.892708,0.00505,0.00000,0.00000,-0.12271,0.00000,0.00327,-0.00098,-0.00264,-0.05167,-0.11383,0.99332,1.91546,0.00000,-1.17373,-1.17373,6.42718,1.08359,1.83146,7.17204,1.13048,-1.57080,-1.57080,A,151805.70
1.96606,57.68818410,11.97989309,57.68818500,11.97990300,15:18:05.937518,0.03925,0.00000,1.50000,-0.12307,0.02000,-0.00116,0.00162,-0.00126,-0.05087,-0.11450,0.99369,1.92584,0.00000,-1.23329,-1.23329,6.46442,1.08594,1.94565,7.05316,1.18608,2.70412,2.70412,A,151805.80
1.98566,57.68818414,11.97989359,57.68818500,11.97990300,15:18:05.957086,0.00672,0.00000,0.00000,-0.12341,0.00000,-0.00039,0.00132,-0.00371,-0.05252,-0.11279,0.99180,1.97979,0.00000,-0.64268,-0.64268,6.49386,1.09094,1.94565,7.05316,1.18608,2.70412,2.70412,A,151805.80
1.99530,57.68818419,11.97989406,57.68818500,11.97990300,15:18:05.966731,0.00595,0.00000,0.00000,-0.12377,0.00000,-0.00207,0.00132,-0.00126,-0.05283,-0.11492,0.99357,1.98860,0.00000,-0.14066,-0.14066,6.52183,1.09570,1.94565,7.05316,1.18608,2.70412,2.70412,A,151805.80
2.00484,57.68818423,11.97989451,57.68818500,11.97990300,15:18:05.976258,0.00509,0.00000,0.00000,-0.12417,0.00000,-0.00665,-0.00113,-0.00310,-0.05112,-0.11395,0.99058,1.99876,0.00000,0.28606,0.28606,6.54839,1.10022,1.94565,7.05316,1.18608,2.70412,2.70412,A,151805.80
2.01732,57.68818427,11.97989493,57.68818500,11.97990300,15:18:05.988782,0.00717,0.00000,0.00000,-0.12447,0.00000,0.00175,0.00009,0.00133,-0.05301,-0.11425,0.99284,2.00937,0.00000,0.64876,0.64876,6.57363,1.10451,1.94565,7.05316,1.18608,2.70412,2.70412,A,151805.80
2.02726,57.68818430,11.97989534,57.68818500,11.97990300,15:18:05.998689,0.00623,0.00000,0.00000,-0.12481,0.00000,0.00266,-0.00006,-0.00096,-0.05228,-0.11718,0.99241,2.02066,0.00000,0.95707,0.95707,6.59761,1.10859,1.94565,7.05316,1.18608,2.70412,2.70412,A,151805.80
2.03643,57.68818434,11.97989572,57.68818500,11.97990300,15:18:06.007845,0.00517,0.00000,0.00000,-0.12517,0.00000,-0.00284,0.00300,-0.00401,-0.05130,-0.11553,0.99137,2.03031,0.00000,1.21912,1.21912,6.62039,1.11246,1.94565,7.05316,1.18608,2.70412,2.70412,A,151805.80
2.07903,57.68818437,11.97989608,57.68818500,11.97990017,15:18:06.050491,0.03737,0.00000,1.50000,-0.12548,0.02000,0.00068,-0.00311,0.00149,-0.05319,-0.11486,0.99149,2.04088,0.00000,1.44187,1.44187,6.64203,1.11614,2.05878,6.88476,1.18608,3.14159,3.14159,A,151805.90
2.09785,57.68818440,11.97989629,57.68818500,11.97990017,15:18:06.069266,0.00781,0.00000,0.00000,-0.12563,0.00000,0.00327,0.00070,-0.00050,-0.05228,-0.11486,0.99473,2.09196,0.00000,1.69683,1.69683,6.65416,1.11964,2.05878,6.88476,1.18608,3.14159,3.14159,A,151805.90
2.10618,57.68818443,11.97989648,57.68818500,11.97990017,15:18:06.077601,0.00573,0.00000,0.00000,-0.12596,0.00000,0.00144,0.00208,-0.00218,-0.04868,-0.11651,0.99064,2.09965,0.00000,1.91354,1.91354,6.66569,1.12296,2.05878,6.88476,1.18608,3.14159,3.14159,A,151805.90
2.11616,57.68818446,11.97989667,57.68818500,11.97990017,15:18:06.087577,0.00517,0.00000,0.00000,-0.12627,0.00000,-0.00192,-0.00174,-0.00004,-0.05197,-0.11407,0.99198,2.11001,0.00000,2.09775,2.09775,6.67665,1.12612,2.05878,6.88476,1.18608,3.14159,3.14159,A,151805.90
2.12646,57.68818449,11.97989684,57.68818500,11.97990017,15:18:06.098132,0.00507,0.00000,0.00000,-0.12656,0.00000,-0.00070,0.00254,-0.00493,-0.05087,-0.11383,0.99192,2.12064,0.00000,2.25433,2.25433,6.68705,1.12912,2.05878,6.88476,1.18608,3.14159,3.14159,A,151805.90
2.13801,57.68818451,11.97989701,57.68818500,11.97990017,15:18:06.109429,0.00596,0.00000,0.00000,-0.12682,0.00000,0.00480,0.00254,0.00133,-0.05124,-0.11523,0.99149,2.13111,0.00000,2.38742,2.38742,6.69694,1.13197,2.05878,6.88476,1.18608,3.14159,3.14159,A,151805.90
2.14779,57.68818454,11.97989716,57.68818500,11.97990017,15:18:06.119204,0.00533,0.00000,0.00000,-0.12706,0.00000,0.00144,0.00162,-0.00111,-0.05130,-0.11212,0.99174,2.14166,0.00000,2.50054,2.50054,6.70633,1.13467,2.05878,6.88476,1.18608,3.14159,3.14159,A,151805.90
2.20720,57.68818456,11.97989731,57.68818467,11.97989367,15:18:06.178664,0.05450,0.00000,1.50000,-0.12732,0.02000,0.00236,-0.00128,-0.00004,-0.05222,-0.11468,0.99076,2.15314,0.00000,2.59670,2.59670,6.71525,1.13724,2.18555,6.49842,1.14901,3.23724,-3.04595,A,151806.10
2.22339,57.68818457,11.97989713,57.68818467,11.97989367,15:18:06.195163,0.00566,0.00000,0.00000,-0.12774,0.00000,-0.00222,0.00132,-0.00187,-0.04868,-0.11450,0.99235,2.21726,0.00000,2.69278,2.69278,6.70441,1.13783,2.18555,6.49842,1.14901,3.23724,-3.04595,A,151806.10
2.23320,57.68818457,11.97989696,57.68818467,11.97989367,15:18:06.204619,0.00506,0.00000,0.00000,-0.12801,0.00000,0.00022,-0.00082,0.00042,-0.05039,-0.11376,0.99088,2.22735,0.00000,2.77445,2.77445,6.69411,1.13839,2.18555,6.49842,1.14901,3.23724,-3.04595,A,151806.10
2.24390,57.68818458,11.97989679,57.68818467,11.97989367,15:18:06.215311,0.00535,0.00000,0.00000,-0.12830,0.00000,-0.00009,0.00070,-0.00294,-0.05124,-0.11560,0.98979,2.23775,0.00000,2.84387,2.84387,6.68432,1.13892,2.18555,6.49842,1.14901,3.23724,-3.04595,A,151806.10
2.25485,57.68818458,11.97989664,57.68818467,11.97989367,15:18:06.226280,0.00591,0.00000,0.00000,-0.12855,0.00000,0.00266,0.00422,0.00164,-0.05197,-0.11566,0.99162,2.24875,0.00000,2.90287,2.90287,6.67503,1.13943,2.18555,6.49842,1.14901,3.23724,-3.04595,A,151806.10
2.26438,57.68818458,11.97989649,57.68818467,11.97989367,15:18:06.235794,0.00519,0.00000,0.00000,-0.12887,0.00000,-0.00329,0.00284,0.00057,-0.05295,-0.11590,0.98991,2.25824,0.00000,2.95303,2.95303,6.66620,1.13990,2.18555,6.49842,1.14901,3.23724,-3.04595,A,151806.10
2.27607,57.68818459,11.97989635,57.68818467,11.97989367,15:18:06.247489,0.00649,0.00000,0.00000,-0.12915,0.00000,-0.00314,-0.00143,-0.00172,-0.05124,-0.11413,0.99521,2.26898,0.00000,2.99566,2.99566,6.65781,1.14036,2.18555,6.49842,1.14901,3.23724,-3.04595,A,151806.10
2.28554,57.68818459,11.97989621,57.68818467,11.97989367,15:18:06.256973,0.00552,0.00000,0.00000,-0.12938,0.00000,0.00266,0.00147,-0.00126,-0.05374,-0.11444,0.98936,2.27909,0.00000,3.03190,3.03190,6.64984,1.14079,2.18555,6.49842,1.14901,3.23724,-3.04595,A,151806.10
2.32293,57.68818460,11.97989609,57.68818450,11.97989100,15:18:06.294366,0.03251,0.00000,1.50000,-0.12965,0.02000,-0.00054,-0.00036,-0.00310,-0.05075,-0.11553,0.99235,2.28995,0.00000,3.06270,3.06270,6.64227,1.14120,2.30754,6.33992,1.13048,3.25799,-3.02520,A,151806.20
2.33946,57.68818459,11.97989583,57.68818450,11.97989100,15:18:06.310896,0.00834,0.00000,0.00000,-0.12981,0.00000,0.00251,0.00437,0.00286,-0.05289,-0.11517,0.99058,2.33195,0.00000,3.09199,3.09199,6.62715,1.14067,2.30754,6.33992,1.13048,3.25799,-3.02520,A,151806.20
2.34833,57.68818459,11.97989559,57.68818450,11.97989100,15:18:06.319756,0.00681,0.00000,0.00000,-0.13007,0.00000,0.00068,0.00070,0.00179,-0.05124,-0.11608,0.99259,2.34075,0.00000,3.11689,3.11689,6.61279,1.14016,2.30754,6.33992,1.13048,3.25799,-3.02520,A,151806.20
2.35700,57.68818458,11.97989536,57.68818450,11.97989100,15:18:06.328416,0.00508,0.00000,0.00000,-0.13032,0.00000,-0.00222,0.00070,0.00087,-0.05106,-0.11364,0.99168,2.35093,0.00000,3.13806,3.13806,6.59915,1.13967,2.30754,6.33992,1.13048,3.25799,-3.02520,A,151806.20
2.36771,57.68818458,11.97989514,57.68818450,11.97989100,15:18:06.339128,0.00539,0.00000,0.00000,-0.13056,0.00000,0.00114,-0.00067,-0.00294,-0.05307,-0.11578,0.99186,2.36160,0.00000,3.15605,3.15605,6.58619,1.13922,2.30754,6.33992,1.13048,3.25799,-3.02520,A,151806.20
2.37834,57.68818457,11.97989494,57.68818450,11.97989100,15:18:06.349761,0.00536,0.00000,0.00000,-0.13078,0.00000,-0.00085,-0.00143,-0.00050,-0.05215,-0.11261,0.99052,2.37249,0.00000,3.17134,3.17134,6.57387,1.13878,2.30754,6.33992,1.13048,3.25799,-3.02520,A,151806.20
2.39000,57.68818457,11.97989474,57.68818450,11.97989100,15:18:06.361419,0.00562,0.00000,0.00000,-0.13104,0.00000,-0.00039,0.00132,0.00042,-0.04996,-0.11688,0.99460,2.38413,0.00000,3.18434,3.18434,6.56218,1.13836,2.30754,6.33992,1.13048,3.25799,-3.02520,A,151806.20
2.40051,57.68818457,11.97989455,57.68818450,11.97989100,15:18:06.372181,0.00558,0.00000,0.00000,-0.13132,0.00000,-0.00436,-0.00357,0.00042,-0.05325,-0.11523,0.99125,2.39396,0.00000,3.19538,3.19538,6.55106,1.13797,2.30754,6.33992,1.13048,3.25799,-3.02520,A,151806.20
2.44437,57.68818456,11.97989437,57.68818333,11.97989150,15:18:06.416150,0.03903,0.00000,1.50000,-0.13160,0.02000,-0.00360,0.00529,0.00026,-0.05087,-0.11553,0.98960,2.40458,0.00000,3.20477,3.20477,6.54051,1.13760,2.42342,6.36964,1.00075,4.93759,-1.34560,A,151806.30
2.46121,57.68818450,11.97989423,57.68818333,11.97989150,15:18:06.432625,0.00790,0.00000,0.00000,-0.13174,0.00000,0.00144,-0.00098,-0.00325,-0.05118,-0.11370,0.98979,2.45512,0.00000,3.46470,3.46470,6.53196,1.13075,2.42342,6.36964,1.00075,4.93759,-1.34560,A,151806.30
2.46880,57.68818444,11.97989409,57.68818333,11.97989150,15:18:06.440215,0.00509,0.00000,0.00000,-0.13197,0.00000,-0.00528,0.00132,0.00271,-0.05246,-0.11315,0.99143,2.46272,0.00000,3.68563,3.68563,6.52385,1.12425,2.42342,6.36964,1.00075,4.93759,-1.34560,A,151806.30
2.48059,57.68818439,11.97989396,57.68818333,11.97989150,15:18:06.452021,0.00649,0.00000,0.00000,-0.13223,0.00000,-0.00146,0.00101,0.00087,-0.05112,-0.11602,0.98753,2.47363,0.00000,3.87342,3.87342,6.51614,1.11808,2.42342,6.36964,1.00075,4.93759,-1.34560,A,151806.30
2.48957,57.68818434,11.97989384,57.68818333,11.97989150,15:18:06.460986,0.00506,0.00000,0.00000,-0.13242,0.00000,0.00282,-0.00113,0.00057,-0.05197,-0.11517,0.99027,2.48373,0.00000,4.03305,4.03305,6.50881,1.11221,2.42342,6.36964,1.00075,4.93759,-1.34560,A,151806.30
2.50019,57.68818429,11.97989372,57.68818333,11.97989150,15:18:06.471610,0.00516,0.00000,0.00000,-0.13263,0.00000,0.00373,-0.00174,-0.00233,-0.05307,-0.11682,0.99027,2.49407,0.00000,4.16873,4.16873,6.50185,1.10664,2.42342,6.36964,1.00075,4.93759,-1.34560,A,151806.30
2.51202,57.68818424,11.97989361,57.68818333,11.97989150,15:18:06.483438,0.00659,0.00000,0.00000,-0.13286,0.00000,0.00083,0.00345,-0.00249,-0.05130,-0.11718,0.99180,2.50583,0.00000,4.28406,4.28406,6.49524,1.10134,2.42342,6.36964,1.00075,4.93759,-1.34560,A,151806.30
2.52093,57.68818419,11.97989351,57.68818333,11.97989150,15:18:06.492350,0.00510,0.00000,0.00000,-0.13307,0.00000,0.00022,0.00101,-0.00294,-0.05014,-0.11529,0.99302,2.51485,0.00000,4.38209,4.38209,6.48896,1.09632,2.42342,6.36964,1.00075,4.93759,-1.34560,A,151806.30
2.56598,57.68818415,11.97989341,57.68818300,11.97988917,15:18:06.537779,0.03974,0.00000,1.50000,-0.13327,0.02000,-0.00146,-0.00082,0.00149,-0.05039,-0.11425,0.99418,2.52545,0.00000,4.46541,4.46541,6.48300,1.09154,2.54374,6.23096,0.96369,3.40275,-2.88044,A,151806.40
2.58583,57.68818409,11.97989320,57.68818300,11.97988917,15:18:06.557256,0.00799,0.00000,0.00000,-0.13332,0.00000,0.00297,0.00223,-0.00279,-0.05478,-0.11553,0.99113,2.57993,0.00000,4.30601,4.30601,6.47039,1.08514,2.54374,6.23096,0.96369,3.40275,-2.88044,A,151806.40
2.59346,57.68818404,11.97989299,57.68818300,11.97988917,15:18:06.564881,0.00536,0.00000,0.00000,-0.13351,0.00000,0.00098,0.00208,-0.00294,-0.05069,-0.11474,0.99107,2.58759,0.00000,4.17052,4.17052,6.45842,1.07907,2.54374,6.23096,0.96369,3.40275,-2.88044,A,151806.40
2.60393,57.68818399,11.97989280,57.68818300,11.97988917,15:18:06.575345,0.00542,0.00000,0.00000,-0.13369,0.00000,0.00144,0.00284,-0.00325,-0.05112,-0.11523,0.99162,2.59771,0.00000,4.05536,4.05536,6.44705,1.07330,2.54374,6.23096,0.96369,3.40275,-2.88044,A,151806.40
2.61397,57.68818394,11.97989262,57.68818300,11.97988917,15:18:06.585385,0.00506,0.00000,0.00000,-0.13389,0.00000,0.00068,0.00391,0.00408,-0.05337,-0.11596,0.99210,2.60813,0.00000,3.95746,3.95746,6.43624,1.06782,2.54374,6.23096,0.96369,3.40275,-2.88044,A,151806.40
2.62465,57.68818389,11.97989245,57.68818300,11.97988917,15:18:06.596069,0.00512,0.00000,0.00000,-0.13411,0.00000,-0.00100,-0.00128,-0.00065,-0.05106,-0.11639,0.99454,2.61854,0.00000,3.87426,3.87426,6.42598,1.06262,2.54374,6.23096,0.96369,3.40275,-2.88044,A,151806.40
2.63529,57.68818385,11.97989228,57.68818300,11.97988917,15:18:06.606711,0.00535,0.00000,0.00000,-0.13431,0.00000,-0.00161,0.00132,-0.00065,-0.05215,-0.11468,0.99143,2.62918,0.00000,3.80353,3.80353,6.41623,1.05767,2.54374,6.23096,0.96369,3.40275,-2.88044,A,151806.40
2.68116,57.68818380,11.97989213,57.68818250,11.97988683,15:18:06.653120,0.04082,0.00000,1.50000,-0.13451,0.02000,-0.00345,0.00529,-0.00050,-0.05185,-0.11352,0.99162,2.63956,0.00000,3.74341,3.74341,6.40696,1.05297,2.65825,6.09227,0.90809,3.52286,-2.76032,A,151806.50
2.70120,57.68818374,11.97989186,57.68818250,11.97988683,15:18:06.672615,0.00883,0.00000,0.00000,-0.13471,0.00000,-0.00024,-0.00052,-0.00081,-0.05222,-0.11547,0.99235,2.69510,0.00000,3.71033,3.71033,6.39123,1.04573,2.65825,6.09227,0.90809,3.52286,-2.76032,A,151806.50
2.70887,57.68818368,11.97989161,57.68818250,11.97988683,15:18:06.680287,0.00607,0.00000,0.00000,-0.13488,0.00000,0.00129,0.00223,0.00026,-0.05264,-0.11474,0.99076,2.70215,0.00000,3.68221,3.68221,6.37628,1.03884,2.65825,6.09227,0.90809,3.52286,-2.76032,A,151806.50
2.71827,57.68818362,11.97989137,57.68818250,11.97988683,15:18:06.689696,0.00507,0.00000,0.00000,-0.13503,0.00000,0.00175,0.00025,0.00240,-0.05258,-0.11474,0.99259,2.71245,0.00000,3.65831,3.65831,6.36208,1.03231,2.65825,6.09227,0.90809,3.52286,-2.76032,A,151806.50
2.72919,57.68818356,11.97989115,57.68818250,11.97988683,15:18:06.700611,0.00576,0.00000,0.00000,-0.13519,0.00000,0.00327,-0.00098,0.00118,-0.05045,-0.11651,0.99241,2.72250,0.00000,3.63799,3.63799,6.34859,1.02610,2.65825,6.09227,0.90809,3.52286,-2.76032,A,151806.50
2.73946,57.68818351,11.97989093,57.68818250,11.97988683,15:18:06.710886,0.00549,0.00000,0.00000,-0.13532,0.00000,0.00037,-0.00006,0.00133,-0.05069,-0.11291,0.99253,2.73327,0.00000,3.62072,3.62072,6.33577,1.02020,2.65825,6.09227,0.90809,3.52286,-2.76032,A,151806.50
2.74945,57.68818346,11.97989073,57.68818250,11.97988683,15:18:06.720862,0.00507,0.00000,0.00000,-0.13550,0.00000,-0.00024,-0.00052,-0.00081,-0.05508,-0.11499,0.99058,2.74360,0.00000,3.60604,3.60604,6.32360,1.01459,2.65825,6.09227,0.90809,3.52286,-2.76032,A,151806.50
2.80242,57.68818341,11.97989053,57.68818050,11.97988233,15:18:06.774091,0.04750,0.00000,1.50000,-0.13566,0.02000,-0.00070,-0.00113,0.00103,-0.05264,-0.11376,0.98942,2.75396,0.00000,3.59357,3.59357,6.31203,1.00927,2.78320,5.82480,0.68570,3.83523,-2.44795,A,151806.70
2.81983,57.68818326,11.97989012,57.68818050,11.97988233,15:18:06.791250,0.00729,0.00000,0.00000,-0.13590,0.00000,-0.00146,-0.00159,-0.00004,-0.05252,-0.11438,0.99223,2.81364,0.00000,3.62982,3.62982,6.28767,0.99309,2.78320,5.82480,0.68570,3.83523,-2.44795,A,151806.70
2.82820,57.68818313,11.97988973,57.68818050,11.97988233,15:18:06.799617,0.00517,0.00000,0.00000,-0.13604,0.00000,-0.00284,-0.00113,0.00164,-0.05100,-0.11212,0.99058,2.82206,0.00000,3.66063,3.66063,6.26453,0.97772,2.78320,5.82480,0.68570,3.83523,-2.44795,A,151806.70
2.83943,57.68818299,11.97988936,57.68818050,11.97988233,15:18:06.810850,0.00601,0.00000,0.00000,-0.13621,0.00000,-0.00024,0.00025,0.00240,-0.05417,-0.11596,0.99204,2.83297,0.00000,3.68682,3.68682,6.24254,0.96312,2.78320,5.82480,0.68570,3.83523,-2.44795,A,151806.70
2.84892,57.68818287,11.97988901,57.68818050,11.97988233,15:18:06.820335,0.00510,0.00000,0.00000,-0.13631,0.00000,0.00190,0.00437,-0.00111,-0.05094,-0.11236,0.99113,2.84284,0.00000,3.70908,3.70908,6.22166,0.94925,2.78320,5.82480,0.68570,3.83523,-2.44795,A,151806.70
2.85974,57.68818275,11.97988868,57.68818050,11.97988233,15:18:06.831156,0.00545,0.00000,0.00000,-0.13645,0.00000,0.00098,-0.00159,-0.00035,-0.05045,-0.11438,0.99155,2.85352,0.00000,3.72800,3.72800,6.20181,0.93607,2.78320,5.82480,0.68570,3.83523,-2.44795,A,151806.70
2.86990,57.68818264,11.97988836,57.68818050,11.97988233,15:18:06.841330,0.00536,0.00000,0.00000,-0.13660,0.00000,0.00037,0.00086,-0.00081,-0.05337,-0.11535,0.99137,2.86381,0.00000,3.74409,3.74409,6.18296,0.92355,2.78320,5.82480,0.68570,3.83523,-2.44795,A,151806.70
2.88351,57.68818253,11.97988806,57.68818050,11.97988233,15:18:06.854929,0.00847,0.00000,0.00000,-0.13676,0.00000,-0.00009,0.00208,0.00057,-0.05148,-0.11572,0.99137,2.87674,0.00000,3.75776,3.75776,6.16505,0.91166,2.78320,5.82480,0.68570,3.83523,-2.44795,A,151806.70
2.93077,57.68818243,11.97988777,57.68818050,11.97987900,15:18:06.902528,0.04533,0.00000,1.50000,-0.13689,0.02000,0.00266,-0.00204,0.03997,-0.05033,-0.11505,0.99058,2.88506,0.00000,3.76938,3.76938,6.14804,0.90036,2.90768,5.62668,0.68570,3.14159,3.14159,A,151806.80
2.94751,57.68818233,11.97988733,57.68818050,11.97987900,15:18:06.918933,0.00743,0.00000,0.00000,-0.13697,0.00000,0.00175,0.00269,-0.00111,-0.05276,-0.11706,0.99204,2.94106,0.00000,3.67521,3.67521,6.12197,0.88963,2.90768,5.62668,0.68570,3.14159,3.14159,A,151806.80
2.95584,57.68818224,11.97988692,57.68818050,11.97987900,15:18:06.927253,0.00535,0.00000,0.00000,-0.13712,0.00000,0.00297,0.00147,-0.00126,-0.05075,-0.11675,0.99204,2.94970,0.00000,3.59517,3.59517,6.09721,0.87943,2.90768,5.62668,0.68570,3.14159,3.14159,A,151806.80
2.96598,57.68818216,11.97988652,57.68818050,11.97987900,15:18:06.937398,0.00510,0.00000,0.00000,-0.13724,0.00000,-0.00039,0.00132,-0.00432,-0.05246,-0.11364,0.99381,2.96011,0.00000,3.52713,3.52713,6.07368,0.86975,2.90768,5.62668,0.68570,3.14159,3.14159,A,151806.80
2.97714,57.68818207,11.97988614,57.68818050,11.97987900,15:18:06.948560,0.00603,0.00000,0.00000,-0.13740,0.00000,-0.00192,0.00330,0.00087,-0.05234,-0.11505,0.98954,2.97048,0.00000,3.46930,3.46930,6.05133,0.86054,2.90768,5.62668,0.68570,3.14159,3.14159,A,151806.80
2.98778,57.68818199,11.97988579,57.68818050,11.97987900,15:18:06.959194,0.00620,0.00000,0.00000,-0.13761,0.00000,-0.00482,-0.00021,-0.00111,-0.05447,-0.11584,0.99143,2.98151,0.00000,3.42015,3.42015,6.03010,0.85180,2.90768,5.62668,0.68570,3.14159,3.14159,A,151806.80
2.99707,57.68818192,11.97988545,57.68818050,11.97987900,15:18:06.968491,0.00509,0.00000,0.00000,-0.13772,0.00000,0.00098,0.00086,0.00149,-0.05124,-0.11419,0.99101,2.99101,0.00000,3.37836,3.37836,6.00993,0.84350,2.90768,5.62668,0.68570,3.14159,3.14159,A,151806.80
3.00775,57.68818185,11.97988513,57.68818050,11.97987900,15:18:06.979167,0.00537,0.00000,0.00000,-0.13791,0.00000,-0.00421,0.00101,0.00149,-0.05179,-0.11560,0.99149,3.00160,0.00000,3.34285,3.34285,5.99077,0.83561,2.90768,5.62668,0.68570,3.14159,3.14159,A,151806.80
3.04724,57.68818178,11.97988482,57.68818133,11.97987917,15:18:07.019033,0.03446,0.00000,1.50000,-0.13805,0.02000,-0.00039,-0.00159,-0.00050,-0.05094,-0.11621,0.99534,3.01192,0.00000,3.31266,3.31266,5.97256,0.82811,3.02972,5.63659,0.77836,1.46430,1.46430,A,151806.90
3.06487,57.68818176,11.97988454,57.68818133,11.97987917,15:18:07.036289,0.00600,0.00000,0.00000,-0.13817,0.00000,0.00007,-0.00006,0.00072,-0.05124,-0.11486,0.99302,3.05875,0.00000,3.03540,3.03540,5.95576,0.82562,3.02972,5.63659,0.77836,1.46430,1.46430,A,151806.90
3.07479,57.68818174,11.97988427,57.68818133,11.97987917,15:18:07.046222,0.00529,0.00000,0.00000,-0.13835,0.00000,-0.00146,0.00025,0.00103,-0.05167,-0.11706,0.98985,3.06850,0.00000,2.79974,2.79974,5.93981,0.82326,3.02972,5.63659,0.77836,1.46430,1.46430,A,151806.90
3.08564,57.68818172,11.97988401,57.68818133,11.97987917,15:18:07.057424,0.00596,0.00000,0.00000,-0.13846,0.00000,-0.00100,0.00177,0.00149,-0.05405,-0.11383,0.99314,3.07884,0.00000,2.59942,2.59942,5.92464,0.82102,3.02972,5.63659,0.77836,1.46430,1.46430,A,151806.90
3.09547,57.68818170,11.97988377,57.68818133,11.97987917,15:18:07.066888,0.00539,0.00000,0.00000,-0.13859,0.00000,-0.00009,-0.00052,-0.00096,-0.05435,-0.11553,0.99143,3.08932,0.00000,2.42915,2.42915,5.91024,0.81888,3.02972,5.63659,0.77836,1.46430,1.46430,A,151806.90
3.10643,57.68818168,11.97988354,57.68818133,11.97987917,15:18:07.078074,0.00595,0.00000,0.00000,-0.13875,0.00000,-0.00299,0.00132,-0.00187,-0.05301,-0.11499,0.98832,3.09969,0.00000,2.28442,2.28442,5.89656,0.81686,3.02972,5.63659,0.77836,1.46430,1.46430,A,151806.90
3.11835,57.68818166,11.97988332,57.68818133,11.97987917,15:18:07.090194,0.00733,0.00000,0.00000,-0.13889,0.00000,-0.00299,0.00162,-0.00172,-0.05185,-0.11419,0.99186,3.11086,0.00000,2.16140,2.16140,5.88356,0.81493,3.02972,5.63659,0.77836,1.46430,1.46430,A,151806.90
3.12650,57.68818165,11.97988311,57.68818133,11.97987917,15:18:07.098171,0.00508,0.00000,0.00000,-0.13910,0.00000,-0.00803,-0.00220,0.00072,-0.05258,-0.11657,0.99302,3.12066,0.00000,2.05684,2.05684,5.87121,0.81310,3.02972,5.63659,0.77836,1.46430,1.46430,A,151806.90
3.17336,57.68818163,11.97988292,57.68818167,11.97988067,15:18:07.145448,0.04080,0.00000,1.50000,-0.13927,0.02000,-0.00620,0.00025,-0.00126,-0.05136,-0.11413,0.99223,3.13252,0.00000,1.96796,1.96796,5.85948,0.81137,3.15212,5.72574,0.81543,0.39400,0.39400,A,151807.00
3.19355,57.68818163,11.97988280,57.68818167,11.97988067,15:18:07.164967,0.00677,0.00000,0.00000,-0.13948,0.00000,-0.00161,0.00070,0.00026,-0.05039,-0.11553,0.99387,3.18765,0.00000,1.73186,1.73186,5.85279,0.81157,3.15212,5.72574,0.81543,0.39400,0.39400,A,151807.00
3.20227,57.68818163,11.97988270,57.68818167,11.97988067,15:18:07.173680,0.00509,0.00000,0.00000,-0.13951,0.00000,0.00617,-0.00113,-0.00203,-0.05289,-0.11346,0.98936,3.19642,0.00000,1.53118,1.53118,5.84644,0.81176,3.15212,5.72574,0.81543,0.39400,0.39400,A,151807.00
3.21262,57.68818164,11.97988260,57.68818167,11.97988067,15:18:07.184041,0.00516,0.00000,0.00000,-0.13966,0.00000,-0.00375,0.00055,0.00271,-0.05289,-0.11523,0.99064,3.20653,0.00000,1.36061,1.36061,5.84041,0.81195,3.15212,5.72574,0.81543,0.39400,0.39400,A,151807.00
3.22322,57.68818164,11.97988250,57.68818167,11.97988067,15:18:07.194641,0.00535,0.00000,0.00000,-0.13976,0.00000,0.00007,-0.00021,-0.00294,-0.05069,-0.11505,0.99119,3.21711,0.00000,1.21561,1.21561,5.83467,0.81212,3.15212,5.72574,0.81543,0.39400,0.39400,A,151807.00
3.23416,57.68818164,11.97988241,57.68818167,11.97988067,15:18:07.205585,0.00589,0.00000,0.00000,-0.13989,0.00000,-0.00238,-0.00128,0.00118,-0.05350,-0.11505,0.99101,3.22749,0.00000,1.09237,1.09237,5.82923,0.81229,3.15212,5.72574,0.81543,0.39400,0.39400,A,151807.00
3.24414,57.68818164,11.97988232,57.68818167,11.97988067,15:18:07.215560,0.00528,0.00000,0.00000,-0.13999,0.00000,0.00052,0.00193,0.00057,-0.05106,-0.11541,0.99314,3.23790,0.00000,0.98762,0.98762,5.82405,0.81244,3.15212,5.72574,0.81543,0.39400,0.39400,A,151807.00
3.28938,57.68818164,11.97988224,57.68818150,11.97988117,15:18:07.260833,0.04012,0.00000,1.50000,-0.14009,0.02000,0.00144,0.00086,-0.00019,-0.05246,-0.11560,0.98960,3.24851,0.00000,0.89857,0.89857,5.81914,0.81259,3.26562,5.75546,0.79690,-0.55759,-0.55759,A,151807.10
3.30717,57.68818163,11.97988218,57.68818150,11.97988117,15:18:07.278598,0.00704,0.00000,0.00000,-0.14020,0.00000,-0.00024,0.00406,0.00378,-0.05313,-0.11492,0.99052,3.30102,0.00000,0.68015,0.68015,5.81595,0.81181,3.26562,5.75546,0.79690,-0.55759,-0.55759,A,151807.10
3.31588,57.68818163,11.97988213,57.68818150,11.97988117,15:18:07.287299,0.00534,0.00000,0.00000,-0.14028,0.00000,0.00037,-0.00098,-0.00417,-0.05276,-0.11450,0.99162,3.30975,0.00000,0.49449,0.49449,5.81293,0.81106,3.26562,5.75546,0.79690,-0.55759,-0.55759,A,151807.10
3.32602,57.68818162,11.97988209,57.68818150,11.97988117,15:18:07.297437,0.00508,0.00000,0.00000,-0.14039,0.00000,-0.00345,-0.00159,0.00225,-0.05307,-0.11309,0.99149,3.32017,0.00000,0.33667,0.33667,5.81006,0.81035,3.26562,5.75546,0.79690,-0.55759,-0.55759,A,151807.10
3.33636,57.68818161,11.97988204,57.68818150,11.97988117,15:18:07.307782,0.00520,0.00000,0.00000,-0.14047,0.00000,-0.00116,-0.00113,0.00255,-0.05325,-0.11352,0.99308,3.33022,0.00000,0.20253,0.20253,5.80733,0.80968,3.26562,5.75546,0.79690,-0.55759,-0.55759,A,151807.10
3.34923,57.68818161,11.97988200,57.68818150,11.97988117,15:18:07.320645,0.00684,0.00000,0.00000,-0.14059,0.00000,-0.00177,-0.00143,-0.00004,-0.05100,-0.11566,0.98985,3.34274,0.00000,0.08851,0.08851,5.80473,0.80904,3.26562,5.75546,0.79690,-0.55759,-0.55759,A,151807.10
3.36007,57.68818160,11.97988195,57.68818150,11.97988117,15:18:07.331495,0.00728,0.00000,0.00000,-0.14069,0.00000,-0.00253,-0.00327,-0.00004,-0.05295,-0.11376,0.98942,3.35191,0.00000,-0.00840,-0.00840,5.80227,0.80843,3.26562,5.75546,0.79690,-0.55759,-0.55759,A,151807.10
3.41663,57.68818160,11.97988191,57.68817983,11.97987883,15:18:07.388110,0.05297,0.00000,1.50000,-0.14081,0.02000,-0.00177,0.00116,0.00042,-0.05356,-0.11584,0.99137,3.36208,0.00000,-0.09078,-0.09078,5.79993,0.80786,3.39374,5.61678,0.61157,-2.21323,-2.21323,A,151807.30
3.43615,57.68818151,11.97988176,57.68817983,11.97987883,15:18:07.407568,0.00875,0.00000,0.00000,-0.14092,0.00000,-0.00039,-0.00082,0.00072,-0.05167,-0.11474,0.99290,3.42997,0.00000,-0.40915,-0.40915,5.79077,0.79804,3.39374,5.61678,0.61157,-2.21323,-2.21323,A,151807.30
3.44313,57.68818143,11.97988161,57.68817983,11.97987883,15:18:07.414548,0.00554,0.00000,0.00000,-0.14100,0.00000,0.00220,-0.00143,-0.00111,-0.05240,-0.11572,0.99046,3.43705,0.00000,-0.67976,-0.67976,5.78207,0.78872,3.39374,5.61678,0.61157,-2.21323,-2.21323,A,151807.30
3.45307,57.68818135,11.97988148,57.68817983,11.97987883,15:18:07.424486,0.00508,0.00000,0.00000,-0.14110,0.00000,-0.00268,-0.00235,-0.00019,-0.05313,-0.11462,0.99216,3.44701,0.00000,-0.90978,-0.90978,5.77381,0.77986,3.39374,5.61678,0.61157,-2.21323,-2.21323,A,151807.30
3.46372,57.68818127,11.97988134,57.68817983,11.97987883,15:18:07.435135,0.00533,0.00000,0.00000,-0.14120,0.00000,-0.00054,0.00177,0.00271,-0.05155,-0.11535,0.99210,3.45760,0.00000,-1.10530,-1.10530,5.76595,0.77145,3.39374,5.61678,0.61157,-2.21323,-2.21323,A,151807.30
3.47394,57.68818120,11.97988122,57.68817983,11.97987883,15:18:07.445362,0.00514,0.00000,0.00000,-0.14130,0.00000,-0.00116,-0.00036,0.00133,-0.05045,-0.11541,0.99210,3.46807,0.00000,-1.27149,-1.27149,5.75850,0.76345,3.39374,5.61678,0.61157,-2.21323,-2.21323,A,151807.30
3.48439,57.68818113,11.97988110,57.68817983,11.97987883,15:18:07.455809,0.00534,0.00000,0.00000,-0.14139,0.00000,-0.00161,0.00101,0.00225,-0.05222,-0.11492,0.99137,3.47826,0.00000,-1.41275,-1.41275,5.75141,0.75586,3.39374,5.61678,0.61157,-2.21323,-2.21323,A,151807.30
3.52055,57.68818107,11.97988099,57.68817933,11.97987583,15:18:07.491991,0.03110,0.00000,1.50000,-0.14150,0.02000,-0.00039,0.00086,0.00103,-0.05185,-0.11663,0.99137,3.48922,0.00000,-1.53282,-1.53282,5.74468,0.74865,3.50672,5.43847,0.55597,-2.83934,-2.83934,A,151807.40
3.54117,57.68818098,11.97988073,57.68817933,11.97987583,15:18:07.512582,0.00697,0.00000,0.00000,-0.14157,0.00000,-0.00009,0.00193,0.00026,-0.05258,-0.11431,0.99198,3.53507,0.00000,-1.72880,-1.72880,5.72937,0.73901,3.50672,5.43847,0.55597,-2.83934,-2.83934,A,151807.40
3.55033,57.68818090,11.97988048,57.68817933,11.97987583,15:18:07.521743,0.00573,0.00000,0.00000,-0.14167,0.00000,-0.00161,0.00147,0.00087,-0.05087,-0.11608,0.99174,3.54447,0.00000,-1.89538,-1.89538,5.71482,0.72986,3.50672,5.43847,0.55597,-2.83934,-2.83934,A,151807.40
3.56019,57.68818082,11.97988025,57.68817933,11.97987583,15:18:07.531610,0.00528,0.00000,0.00000,-0.14175,0.00000,0.00083,0.00147,0.00118,-0.05063,-0.11541,0.99186,3.55400,0.00000,-2.03698,-2.03698,5.70100,0.72117,3.50672,5.43847,0.55597,-2.83934,-2.83934,A,151807.40
3.57086,57.68818074,11.97988003,57.68817933,11.97987583,15:18:07.542290,0.00554,0.00000,0.00000,-0.14185,0.00000,-0.00375,0.00162,-0.00096,-0.05313,-0.11474,0.99192,3.56456,0.00000,-2.15733,-2.15733,5.68788,0.71291,3.50672,5.43847,0.55597,-2.83934,-2.83934,A,151807.40
3.58116,57.68818067,11.97987982,57.68817933,11.97987583,15:18:07.552575,0.00544,0.00000,0.00000,-0.14195,0.00000,-0.00161,0.00116,-0.00203,-0.05350,-0.11553,0.99192,3.57508,0.00000,-2.25963,-2.25963,5.67541,0.70506,3.50672,5.43847,0.55597,-2.83934,-2.83934,A,151807.40
3.59355,57.68818061,11.97987962,57.68817933,11.97987583,15:18:07.564963,0.00715,0.00000,0.00000,-0.14202,0.00000,0.00022,-0.00220,0.00026,-0.05039,-0.11529,0.98991,3.58766,0.00000,-2.34659,-2.34659,5.66356,0.69761,3.50672,5.43847,0.55597,-2.83934,-2.83934,A,151807.40
3.60175,57.68818054,11.97987943,57.68817933,11.97987583,15:18:07.573163,0.00495,0.00000,0.00000,-0.14214,0.00000,-0.00161,0.00040,-0.00233,-0.04953,-0.11688,0.98979,3.59591,0.00000,-2.42050,-2.42050,5.65230,0.69052,3.50672,5.43847,0.55597,-2.83934,-2.83934,A,151807.40
3.64773,57.68818048,11.97987925,57.68817883,11.97987267,15:18:07.619512,0.04066,0.00000,1.50000,-0.14217,0.02000,0.00266,-0.00113,-0.00019,-0.05118,-0.11474,0.98954,3.60701,0.00000,-2.48333,-2.48333,5.64161,0.68380,3.62678,5.25025,0.50038,-2.85437,-2.85437,A,151807.50
3.66748,57.68818040,11.97987892,57.68817883,11.97987267,15:18:07.638896,0.00781,0.00000,0.00000,-0.14237,0.00000,-0.00238,-0.00036,0.00118,-0.05167,-0.11517,0.99149,3.66130,0.00000,-2.53899,-2.53899,5.62204,0.67463,3.62678,5.25025,0.50038,-2.85437,-2.85437,A,151807.50
3.67545,57.68818032,11.97987861,57.68817883,11.97987267,15:18:07.646865,0.00537,0.00000,0.00000,-0.14242,0.00000,0.00098,-0.00250,0.00042,-0.05270,-0.11505,0.99308,3.66932,0.00000,-2.58629,-2.58629,5.60345,0.66591,3.62678,5.25025,0.50038,-2.85437,-2.85437,A,151807.50
3.68553,57.68818025,11.97987831,57.68817883,11.97987267,15:18:07.656944,0.00505,0.00000,0.00000,-0.14253,0.00000,-0.00222,-0.00296,-0.00126,-0.05240,-0.11651,0.99168,3.67968,0.00000,-2.62650,-2.62650,5.58579,0.65764,3.62678,5.25025,0.50038,-2.85437,-2.85437,A,151807.50
3.69640,57.68818018,11.97987803,57.68817883,11.97987267,15:18:07.667824,0.00539,0.00000,0.00000,-0.14256,0.00000,0.00236,0.00070,-0.00233,-0.05301,-0.11450,0.99259,3.69007,0.00000,-2.66068,-2.66068,5.56902,0.64977,3.62678,5.25025,0.50038,-2.85437,-2.85437,A,151807.50
3.70651,57.68818011,11.97987776,57.68817883,11.97987267,15:18:07.678175,0.00508,0.00000,0.00000,-0.14257,0.00000,0.00220,0.00070,-0.00126,-0.05161,-0.11364,0.99320,3.70066,0.00000,-2.68974,-2.68974,5.55308,0.64230,3.62678,5.25025,0.50038,-2.85437,-2.85437,A,151807.50
3.71781,57.68818005,11.97987751,57.68817883,11.97987267,15:18:07.689236,0.00599,0.00000,0.00000,-0.14266,0.00000,-0.00406,-0.00021,0.00042,-0.05234,-0.11407,0.99296,3.71195,0.00000,-2.71443,-2.71443,5.53794,0.63521,3.62678,5.25025,0.50038,-2.85437,-2.85437,A,151807.50
3.75918,57.68817999,11.97987727,57.68817900,11.97986900,15:18:07.730627,0.03695,0.00000,1.50000,-0.14271,0.02000,0.00083,0.00055,-0.00096,-0.05289,-0.11486,0.99162,3.72146,0.00000,-2.73542,-2.73542,5.52355,0.62847,3.73873,5.03231,0.51891,-3.22643,3.05676,A,151807.60
3.77744,57.68817994,11.97987685,57.68817900,11.97986900,15:18:07.748849,0.00690,0.00000,0.00000,-0.14267,0.00000,0.00236,0.00330,0.00103,-0.05240,-0.11608,0.99540,3.77153,0.00000,-2.80907,-2.80907,5.49899,0.62299,3.73873,5.03231,0.51891,-3.22643,3.05676,A,151807.60
3.78609,57.68817989,11.97987646,57.68817900,11.97986900,15:18:07.757512,0.00515,0.00000,0.00000,-0.14273,0.00000,-0.00100,-0.00036,-0.00096,-0.05185,-0.11480,0.99210,3.78026,0.00000,-2.87168,-2.87168,5.47566,0.61778,3.73873,5.03231,0.51891,-3.22643,3.05676,A,151807.60
3.79636,57.68817984,11.97987609,57.68817900,11.97986900,15:18:07.767778,0.00519,0.00000,0.00000,-0.14278,0.00000,-0.00116,0.00132,0.00301,-0.04917,-0.11358,0.99143,3.79023,0.00000,-2.92489,-2.92489,5.45349,0.61284,3.73873,5.03231,0.51891,-3.22643,3.05676,A,151807.60
3.80691,57.68817980,11.97987573,57.68817900,11.97986900,15:18:07.778331,0.00534,0.00000,0.00000,-0.14282,0.00000,0.00114,0.00345,0.00087,-0.05197,-0.11492,0.99277,3.80081,0.00000,-2.97012,-2.97012,5.43243,0.60814,3.73873,5.03231,0.51891,-3.22643,3.05676,A,151807.60
3.81705,57.68817976,11.97987540,57.68817900,11.97986900,15:18:07.788459,0.00508,0.00000,0.00000,-0.14288,0.00000,0.00037,-0.00220,-0.00310,-0.05405,-0.11529,0.99040,3.81098,0.00000,-3.00856,-3.00856,5.41243,0.60368,3.73873,5.03231,0.51891,-3.22643,3.05676,A,151807.60
3.82931,57.68817972,11.97987508,57.68817900,11.97986900,15:18:07.800738,0.00693,0.00000,0.00000,-0.14298,0.00000,-0.00543,0.00147,0.00286,-0.05258,-0.11322,0.99003,3.82291,0.00000,-3.04124,-3.04124,5.39342,0.59944,3.73873,5.03231,0.51891,-3.22643,3.05676,A,151807.60
3.83777,57.68817969,11.97987477,57.68817900,11.97986900,15:18:07.809182,0.00499,0.00000,0.00000,-0.14301,0.00000,0.00358,-0.00143,0.00179,-0.05124,-0.11529,0.98985,3.83192,0.00000,-3.06902,-3.06902,5.37536,0.59542,3.73873,5.03231,0.51891,-3.22643,3.05676,A,151807.60
3.88539,57.68817965,11.97987448,57.68817967,11.97986850,15:18:07.856839,0.04235,0.00000,1.50000,-0.14307,0.02000,-0.00192,-0.00128,-0.00081,-0.05191,-0.11450,0.99003,3.84208,0.00000,-3.09263,-3.09263,5.35821,0.59159,3.86182,5.00260,0.59304,-4.33111,1.95207,A,151807.70
3.90567,57.68817965,11.97987418,57.68817967,11.97986850,15:18:07.877094,0.00969,0.00000,0.00000,-0.14317,0.00000,-0.00024,-0.00082,0.00026,-0.05014,-0.11663,0.98985,3.89969,0.00000,-3.27840,-3.27840,5.34043,0.59166,3.86182,5.00260,0.59304,-4.33111,1.95207,A,151807.70
3.91202,57.68817965,11.97987390,57.68817967,11.97986850,15:18:07.883433,0.00547,0.00000,0.00000,-0.14319,0.00000,-0.00100,0.00116,0.00316,-0.05033,-0.11267,0.99241,3.90587,0.00000,-3.43631,-3.43631,5.32354,0.59173,3.86182,5.00260,0.59304,-4.33111,1.95207,A,151807.70
3.92285,57.68817966,11.97987363,57.68817967,11.97986850,15:18:07.894285,0.00591,0.00000,0.00000,-0.14321,0.00000,0.00114,0.00177,-0.00096,-0.05222,-0.11364,0.98954,3.91675,0.00000,-3.57053,-3.57053,5.30749,0.59180,3.86182,5.00260,0.59304,-4.33111,1.95207,A,151807.70
3.93309,57.68817966,11.97987337,57.68817967,11.97986850,15:18:07.904511,0.00591,0.00000,0.00000,-0.14329,0.00000,-0.00192,0.00086,-0.00126,-0.05148,-0.11541,0.98741,3.92628,0.00000,-3.68462,-3.68462,5.29225,0.59186,3.86182,5.00260,0.59304,-4.33111,1.95207,A,151807.70
3.94290,57.68817966,11.97987313,57.68817967,11.97986850,15:18:07.914327,0.00532,0.00000,0.00000,-0.14332,0.00000,0.00037,0.00284,0.00179,-0.05167,-0.11346,0.99143,3.93682,0.00000,-3.78159,-3.78159,5.27776,0.59192,3.86182,5.00260,0.59304,-4.33111,1.95207,A,151807.70
3.95305,57.68817966,11.97987290,57.68817967,11.97986850,15:18:07.924468,0.00507,0.00000,0.00000,-0.14335,0.00000,0.00022,-0.00204,-0.00187,-0.05112,-0.11370,0.99174,3.94699,0.00000,-3.86402,-3.86402,5.26401,0.59198,3.86182,5.00260,0.59304,-4.33111,1.95207,A,151807.70
4.00774,57.68817966,11.97987268,57.68817733,11.97986850,15:18:07.979191,0.04936,0.00000,1.50000,-0.14339,0.02000,0.00022,-0.00220,0.00332,-0.05203,-0.11492,0.99143,3.95761,0.00000,-3.93408,-3.93408,5.25094,0.59203,3.98682,5.00260,0.33358,-1.57080,-1.57080,A,151807.90
4.02761,57.68817954,11.97987247,57.68817733,11.97986850,15:18:07.999029,0.00704,0.00000,0.00000,-0.14352,0.00000,-0.00116,0.00025,-0.00111,-0.05258,-0.11523,0.98899,4.02142,0.00000,-3.57959,-3.57959,5.23852,0.57911,3.98682,5.00260,0.33358,-1.57080,-1.57080,A,151807.90
4.03619,57.68817943,11.97987227,57.68817733,11.97986850,15:18:08.007610,0.00516,0.00000,0.00000,-0.14355,0.00000,0.00190,0.00284,0.00393,-0.05209,-0.11456,0.98997,4.03007,0.00000,-3.27827,-3.27827,5.22672,0.56683,3.98682,5.00260,0.33358,-1.57080,-1.57080,A,151807.90
4.04763,57.68817933,11.97987208,57.68817733,11.97986850,15:18:08.019048,0.00620,0.00000,0.00000,-0.14361,0.00000,-0.00192,-0.00189,0.00484,-0.05063,-0.11517,0.99320,4.04122,0.00000,-3.02215,-3.02215,5.21552,0.55517,3.98682,5.00260,0.33358,-1.57080,-1.57080,A,151807.90
4.05817,57.68817923,11.97987190,57.68817733,11.97986850,15:18:08.029586,0.00634,0.00000,0.00000,-0.14367,0.00000,-0.00207,0.00498,-0.00035,-0.05313,-0.11413,0.99107,4.05226,0.00000,-2.80445,-2.80445,5.20487,0.54409,3.98682,5.00260,0.33358,-1.57080,-1.57080,A,151807.90
4.06881,57.68817913,11.97987173,57.68817733,11.97986850,15:18:08.040245,0.00658,0.00000,0.00000,-0.14372,0.00000,-0.00054,0.00070,-0.00218,-0.05240,-0.11547,0.99131,4.06145,0.00000,-2.61940,-2.61940,5.19476,0.53356,3.98682,5.00260,0.33358,-1.57080,-1.57080,A,151807.90
4.07801,57.68817904,11.97987157,57.68817733,11.97986850,15:18:08.049427,0.00552,0.00000,0.00000,-0.14372,0.00000,0.00175,-0.00510,-0.00233,-0.05234,-0.11346,0.99338,4.07214,0.00000,-2.46211,-2.46211,5.18515,0.52356,3.98682,5.00260,0.33358,-1.57080,-1.57080,A,151807.90
4.12368,57.68817896,11.97987142,57.68817450,11.97986933,15:18:08.095630,0.04064,0.00000,1.50000,-0.14381,0.02000,-0.00299,-0.00342,-0.00111,-0.05289,-0.11560,0.99155,4.08208,0.00000,-2.32841,-2.32841,5.17602,0.51407,4.10198,5.05213,0.01853,-1.41486,-1.41486,A,151808.00
4.14301,57.68817873,11.97987131,57.68817450,11.97986933,15:18:08.114439,0.00722,0.00000,0.00000,-0.14406,0.00000,-0.00421,-0.00281,-0.00050,-0.05423,-0.11431,0.99277,4.13687,0.00000,-2.19138,-2.19138,5.16983,0.48929,4.10198,5.05213,0.01853,-1.41486,-1.41486,A,151808.00
4.15158,57.68817852,11.97987121,57.68817450,11.97986933,15:18:08.122991,0.00538,0.00000,0.00000,-0.14411,0.00000,-0.00024,-0.00281,0.00011,-0.05313,-0.11547,0.99180,4.14542,0.00000,-2.07490,-2.07490,5.16394,0.46575,4.10198,5.05213,0.01853,-1.41486,-1.41486,A,151808.00
4.16163,57.68817832,11.97987112,57.68817450,11.97986933,15:18:08.133054,0.00504,0.00000,0.00000,-0.14416,0.00000,-0.00100,0.00391,0.00042,-0.05380,-0.11511,0.99180,4.15580,0.00000,-1.97589,-1.97589,5.15835,0.44339,4.10198,5.05213,0.01853,-1.41486,-1.41486,A,151808.00
4.17236,57.68817813,11.97987103,57.68817450,11.97986933,15:18:08.143777,0.00532,0.00000,0.00000,-0.14419,0.00000,0.00052,0.00238,0.00087,-0.05203,-0.11492,0.99076,4.16607,0.00000,-1.89174,-1.89174,5.15304,0.42215,4.10198,5.05213,0.01853,-1.41486,-1.41486,A,151808.00
4.18395,57.68817795,11.97987095,57.68817450,11.97986933,15:18:08.155374,0.00652,0.00000,0.00000,-0.14429,0.00000,-0.00574,-0.00006,0.00103,-0.05295,-0.11511,0.99223,4.17743,0.00000,-1.82021,-1.82021,5.14799,0.40197,4.10198,5.05213,0.01853,-1.41486,-1.41486,A,151808.00
4.19291,57.68817778,11.97987087,57.68817450,11.97986933,15:18:08.164333,0.00508,0.00000,0.00000,-0.14436,0.00000,-0.00238,-0.00082,-0.00111,-0.05270,-0.11566,0.99198,4.18684,0.00000,-1.75940,-1.75940,5.14320,0.38279,4.10198,5.05213,0.01853,-1.41486,-1.41486,A,151808.00
4.23521,57.68817761,11.97987079,57.68817250,11.97986933,15:18:08.206658,0.03697,0.00000,1.50000,-0.14437,0.02000,0.00098,0.00055,0.00042,-0.05063,-0.11468,0.99241,4.19747,0.00000,-1.70772,-1.70772,5.13865,0.36458,4.21548,5.05213,-0.20386,-1.57080,-1.57080,A,151808.10
4.24445,57.68817736,11.97987072,57.68817250,11.97986933,15:18:08.215868,0.00817,0.00000,0.00000,-0.14442,0.00000,-0.00039,0.00147,-0.00264,-0.05124,-0.11474,0.99162,4.23789,0.00000,-1.68718,-1.68718,5.13432,0.33616,4.21548,5.05213,-0.20386,-1.57080,-1.57080,A,151808.10
4.25201,57.68817711,11.97987065,57.68817250,11.97986933,15:18:08.223434,0.00516,0.00000,0.00000,-0.14442,0.00000,0.00144,0.00009,-0.00126,-0.05167,-0.11395,0.99168,4.24589,0.00000,-1.66973,-1.66973,5.13021,0.30916,4.21548,5.05213,-0.20386,-1.57080,-1.57080,A,151808.10
4.26292,57.68817688,11.97987058,57.68817250,11.97986933,15:18:08.234602,0.00566,0.00000,0.00000,-0.14445,0.00000,0.00297,-0.00204,-0.00111,-0.05283,-0.11688,0.99241,4.25650,0.00000,-1.65489,-1.65489,5.12631,0.28351,4.21548,5.05213,-0.20386,-1.57080,-1.57080,A,151808.10
4.27347,57.68817666,11.97987052,57.68817250,11.97986933,15:18:08.244890,0.00581,0.00000,0.00000,-0.14446,0.00000,0.00220,0.00162,-0.00035,-0.05313,-0.11474,0.99247,4.26760,0.00000,-1.64227,-1.64227,5.12260,0.25914,4.21548,5.05213,-0.20386,-1.57080,-1.57080,A,151808.10
4.28388,57.68817646,11.97987046,57.68817250,11.97986933,15:18:08.255299,0.00581,0.00000,0.00000,-0.14452,0.00000,-0.00299,0.00406,0.00133,-0.05106,-0.11529,0.99192,4.27770,0.00000,-1.63155,-1.63155,5.11907,0.23599,4.21548,5.05213,-0.20386,-1.57080,-1.57080,A,151808.10
4.29353,57.68817626,11.97987040,57.68817250,11.97986933,15:18:08.264943,0.00506,0.00000,0.00000,-0.14456,0.00000,-0.00039,0.00055,-0.00187,-0.05173,-0.11547,0.99216,4.28768,0.00000,-1.62244,-1.62244,5.11573,0.21400,4.21548,5.05213,-0.20386,-1.57080,-1.57080,A,151808.10
4.30710,57.68817607,11.97987035,57.68817250,11.97986933,15:18:08.278523,0.00808,0.00000,0.00000,-0.14465,0.00000,-0.00452,0.00254,-0.00142,-0.05362,-0.11486,0.99210,4.30016,0.00000,-1.61469,-1.61469,5.11255,0.19310,4.21548,5.05213,-0.20386,-1.57080,-1.57080,A,151808.10
4.31449,57.68817589,11.97987030,57.68817250,11.97986933,15:18:08.286154,0.00508,0.00000,0.00000,-0.14470,0.00000,-0.00497,-0.00403,0.00072,-0.05222,-0.11395,0.99229,4.30865,0.00000,-1.60811,-1.60811,5.10953,0.17326,4.21548,5.05213,-0.20386,-1.57080,-1.57080,A,151808.10
4.35758,57.68817572,11.97987025,57.68817150,11.97986883,15:18:08.329312,0.03728,0.00000,1.50000,-0.14477,0.02000,-0.00253,0.00468,0.00301,-0.05173,-0.11590,0.99296,4.32029,0.00000,-1.60251,-1.60251,5.10666,0.15440,4.34035,5.02241,-0.31505,-1.83196,-1.83196,A,151808.20
4.37673,57.68817551,11.97987018,57.68817150,11.97986883,15:18:08.348151,0.00726,0.00000,0.00000,-0.14490,0.00000,-0.00222,0.00361,-0.00142,-0.05124,-0.11456,0.99149,4.37057,0.00000,-1.63693,-1.63693,5.10244,0.13093,4.34035,5.02241,-0.31505,-1.83196,-1.83196,A,151808.20
4.38517,57.68817531,11.97987011,57.68817150,11.97986883,15:18:08.356593,0.00530,0.00000,0.00000,-0.14494,0.00000,-0.00100,0.00162,0.00393,-0.05155,-0.11553,0.99180,4.37911,0.00000,-1.66618,-1.66618,5.09844,0.10863,4.34035,5.02241,-0.31505,-1.83196,-1.83196,A,151808.20
4.39571,57.68817512,11.97987005,57.68817150,11.97986883,15:18:08.367138,0.00544,0.00000,0.00000,-0.14495,0.00000,0.00175,-0.00204,-0.00019,-0.05197,-0.11499,0.99107,4.38951,0.00000,-1.69105,-1.69105,5.09464,0.08745,4.34035,5.02241,-0.31505,-1.83196,-1.83196,A,151808.20
4.40573,57.68817494,11.97986999,57.68817150,11.97986883,15:18:08.377152,0.00506,0.00000,0.00000,-0.14501,0.00000,-0.00161,-0.00220,-0.00035,-0.04965,-0.11621,0.99399,4.39989,0.00000,-1.71218,-1.71218,5.09103,0.06732,4.34035,5.02241,-0.31505,-1.83196,-1.83196,A,151808.20
4.41632,57.68817477,11.97986993,57.68817150,11.97986883,15:18:08.387744,0.00528,0.00000,0.00000,-0.14501,0.00000,0.00190,0.00040,0.00103,-0.04874,-0.11505,0.99210,4.41008,0.00000,-1.73015,-1.73015,5.08760,0.04820,4.34035,5.02241,-0.31505,-1.83196,-1.83196,A,151808.20
4.42797,57.68817460,11.97986988,57.68817150,11.97986883,15:18:08.399388,0.00652,0.00000,0.00000,-0.14499,0.00000,0.00358,0.00330,-0.00081,-0.05185,-0.11480,0.99320,4.42151,0.00000,-1.74542,-1.74542,5.08434,0.03004,4.34035,5.02241,-0.31505,-1.83196,-1.83196,A,151808.20
4.43702,57.68817445,11.97986982,57.68817150,11.97986883,15:18:08.408430,0.00517,0.00000,0.00000,-0.14506,0.00000,-0.00421,-0.00250,-0.00172,-0.05337,-0.11560,0.99021,4.43085,0.00000,-1.75840,-1.75840,5.08124,0.01278,4.34035,5.02241,-0.31505,-1.83196,-1.83196,A,151808.20
4.47748,57.68817430,11.97986977,57.68816983,11.97986883,15:18:08.449177,0.03524,0.00000,1.50000,-0.14508,0.02000,-0.00039,0.00116,0.00255,-0.05228,-0.11383,0.98966,4.44149,0.00000,-1.76943,-1.76943,5.07830,-0.00361,4.45873,5.02241,-0.50038,-1.57080,-1.57080,A,151808.30
4.49776,57.68817408,11.97986973,57.68816983,11.97986883,15:18:08.469183,0.00675,0.00000,0.00000,-0.14495,0.00000,0.00312,-0.00006,-0.00111,-0.05344,-0.11547,0.99076,4.49187,0.00000,-1.73964,-1.73964,5.07550,-0.02845,4.45873,5.02241,-0.50038,-1.57080,-1.57080,A,151808.30
4.50700,57.68817387,11.97986968,57.68816983,11.97986883,15:18:08.478434,0.00558,0.00000,0.00000,-0.14499,0.00000,-0.00024,-0.00174,0.00072,-0.05081,-0.11560,0.99210,4.50065,0.00000,-1.71431,-1.71431,5.07285,-0.05204,4.45873,5.02241,-0.50038,-1.57080,-1.57080,A,151808.30
4.51692,57.68817366,11.97986964,57.68816983,11.97986883,15:18:08.488336,0.00510,0.00000,0.00000,-0.14503,0.00000,-0.00116,-0.00311,-0.00035,-0.05258,-0.11474,0.98802,4.51083,0.00000,-1.69279,-1.69279,5.07033,-0.07446,4.45873,5.02241,-0.50038,-1.57080,-1.57080,A,151808.30
4.52767,57.68817347,11.97986960,57.68816983,11.97986883,15:18:08.499088,0.00546,0.00000,0.00000,-0.14509,0.00000,-0.00482,-0.00281,-0.00096,-0.05466,-0.11438,0.99113,4.52152,0.00000,-1.67449,-1.67449,5.06793,-0.09576,4.45873,5.02241,-0.50038,-1.57080,-1.57080,A,151808.30
4.53976,57.68817329,11.97986956,57.68816983,11.97986883,15:18:08.511184,0.00680,0.00000,0.00000,-0.14520,0.00000,-0.00574,0.00254,0.00057,-0.05289,-0.11596,0.98997,4.53358,0.00000,-1.65893,-1.65893,5.06566,-0.11599,4.45873,5.02241,-0.50038,-1.57080,-1.57080,A,151808.30
4.55107,57.68817312,11.97986952,57.68816983,11.97986883,15:18:08.522516,0.00788,0.00000,0.00000,-0.14517,0.00000,0.00282,-0.00113,-0.00065,-0.05246,-0.11279,0.98991,4.54224,0.00000,-1.64571,-1.64571,5.06349,-0.13521,4.45873,5.02241,-0.50038,-1.57080,-1.57080,A,151808.30
4.60538,57.68817295,11.97986949,57.68816483,11.97986783,15:18:08.577391,0.05178,0.00000,1.50000,-0.14520,0.02000,-0.00070,0.00086,-0.00172,-0.05051,-0.11535,0.99113,4.55307,0.00000,-1.63448,-1.63448,5.06144,-0.15346,4.58179,4.96297,-1.05635,-1.67730,-1.67730,A,151808.50
4.62358,57.68817255,11.97986941,57.68816483,11.97986783,15:18:08.594998,0.00692,0.00000,0.00000,-0.14519,0.00000,0.00037,0.00284,0.00316,-0.05289,-0.11438,0.99216,4.61737,0.00000,-1.64090,-1.64090,5.05652,-0.19861,4.58179,4.96297,-1.05635,-1.67730,-1.67730,A,151808.50
4.63222,57.68817216,11.97986933,57.68816483,11.97986783,15:18:08.603640,0.00519,0.00000,0.00000,-0.14521,0.00000,-0.00009,-0.00159,0.00118,-0.05191,-0.11480,0.98954,4.62607,0.00000,-1.64636,-1.64636,5.05184,-0.24150,4.58179,4.96297,-1.05635,-1.67730,-1.67730,A,151808.50
4.64389,57.68817180,11.97986925,57.68816483,11.97986783,15:18:08.615311,0.00645,0.00000,0.00000,-0.14531,0.00000,-0.00482,-0.00128,-0.00096,-0.05191,-0.11657,0.99210,4.63690,0.00000,-1.65100,-1.65100,5.04739,-0.28224,4.58179,4.96297,-1.05635,-1.67730,-1.67730,A,151808.50
4.65395,57.68817145,11.97986918,57.68816483,11.97986783,15:18:08.625374,0.00612,0.00000,0.00000,-0.14532,0.00000,0.00083,0.00498,-0.00004,-0.04953,-0.11511,0.98991,4.64808,0.00000,-1.65494,-1.65494,5.04317,-0.32094,4.58179,4.96297,-1.05635,-1.67730,-1.67730,A,151808.50
4.66363,57.68817112,11.97986912,57.68816483,11.97986783,15:18:08.635044,0.00539,0.00000,0.00000,-0.14530,0.00000,0.00068,0.00009,-0.00142,-0.05234,-0.11309,0.99216,4.65746,0.00000,-1.65830,-1.65830,5.03916,-0.35771,4.58179,4.96297,-1.05635,-1.67730,-1.67730,A,151808.50
4.67447,57.68817080,11.97986905,57.68816483,11.97986783,15:18:08.646119,0.00583,0.00000,0.00000,-0.14522,0.00000,0.00801,-0.00113,-0.00417,-0.05222,-0.11358,0.99149,4.66791,0.00000,-1.66115,-1.66115,5.03535,-0.39265,4.58179,4.96297,-1.05635,-1.67730,-1.67730,A,151808.50
4.71833,57.68817050,11.97986899,57.68816350,11.97986517,15:18:08.690677,0.03929,0.00000,1.50000,-0.14523,0.02000,0.00144,0.00070,-0.00142,-0.05301,-0.11505,0.99149,4.67888,0.00000,-1.66357,-1.66357,5.03173,-0.42583,4.69628,4.80447,-1.20461,-2.38956,-2.38956,A,151808.60
4.73720,57.68817015,11.97986880,57.68816350,11.97986517,15:18:08.708614,0.00678,0.00000,0.00000,-0.14543,0.00000,-0.00375,-0.00143,0.00087,-0.05313,-0.11438,0.99229,4.73113,0.00000,-1.77247,-1.77247,5.02037,-0.46477,4.69628,4.80447,-1.20461,-2.38956,-2.38956,A,151808.60
4.74575,57.68816982,11.97986862,57.68816350,11.97986517,15:18:08.717168,0.00493,0.00000,0.00000,-0.14544,0.00000,-0.00009,-0.00098,-0.00294,-0.05051,-0.11450,0.99235,4.73993,0.00000,-1.86503,-1.86503,5.00958,-0.50176,4.69628,4.80447,-1.20461,-2.38956,-2.38956,A,151808.60
4.75634,57.68816950,11.97986845,57.68816350,11.97986517,15:18:08.727759,0.00527,0.00000,0.00000,-0.14546,0.00000,-0.00024,0.00070,0.00210,-0.05100,-0.11486,0.99235,4.75018,0.00000,-1.94371,-1.94371,4.99932,-0.53691,4.69628,4.80447,-1.20461,-2.38956,-2.38956,A,151808.60
4.76775,57.68816920,11.97986828,57.68816350,11.97986517,15:18:08.739175,0.00628,0.00000,0.00000,-0.14546,0.00000,0.00114,0.00177,-0.00050,-0.05331,-0.11480,0.99149,4.76068,0.00000,-2.01059,-2.01059,4.98958,-0.57029,4.69628,4.80447,-1.20461,-2.38956,-2.38956,A,151808.60
4.77697,57.68816892,11.97986813,57.68816350,11.97986517,15:18:08.748591,0.00510,0.00000,0.00000,-0.14549,0.00000,-0.00177,0.00193,-0.00019,-0.05191,-0.11444,0.99027,4.77088,0.00000,-2.06743,-2.06743,4.98032,-0.60201,4.69628,4.80447,-1.20461,-2.38956,-2.38956,A,151808.60
4.78861,57.68816865,11.97986798,57.68816350,11.97986517,15:18:08.760040,0.00554,0.00000,0.00000,-0.14553,0.00000,-0.00131,0.00086,-0.00157,-0.05148,-0.11523,0.99027,4.78248,0.00000,-2.11575,-2.11575,4.97153,-0.63214,4.69628,4.80447,-1.20461,-2.38956,-2.38956,A,151808.60
4.83551,57.68816839,11.97986784,57.68816217,11.97986200,15:18:08.806974,0.04203,0.00000,1.50000,-0.14554,0.02000,-0.00177,-0.00159,-0.00050,-0.05014,-0.11370,0.99070,4.79278,0.00000,-2.15682,-2.15682,4.96318,-0.66076,4.81252,4.61626,-1.35287,-2.47439,-2.47439,A,151808.70
4.85489,57.68816808,11.97986755,57.68816217,11.97986200,15:18:08.826324,0.00671,0.00000,0.00000,-0.14551,0.00000,0.00022,0.00208,-0.00172,-0.05283,-0.11236,0.99210,4.84880,0.00000,-2.20446,-2.20446,4.94583,-0.69537,4.81252,4.61626,-1.35287,-2.47439,-2.47439,A,151808.70
4.86394,57.68816778,11.97986727,57.68816217,11.97986200,15:18:08.835362,0.00519,0.00000,0.00000,-0.14550,0.00000,0.00068,0.00284,-0.00096,-0.05386,-0.11358,0.98918,4.85780,0.00000,-2.24495,-2.24495,4.92935,-0.72824,4.81252,4.61626,-1.35287,-2.47439,-2.47439,A,151808.70
4.87410,57.68816750,11.97986700,57.68816217,11.97986200,15:18:08.845513,0.00510,0.00000,0.00000,-0.14550,0.00000,0.00205,-0.00113,-0.00264,-0.05197,-0.11560,0.99162,4.86826,0.00000,-2.27936,-2.27936,4.91370,-0.75947,4.81252,4.61626,-1.35287,-2.47439,-2.47439,A,151808.70
4.88460,57.68816724,11.97986675,57.68816217,11.97986200,15:18:08.856022,0.00537,0.00000,0.00000,-0.14552,0.00000,-0.00024,0.00025,0.00103,-0.04984,-0.11480,0.98905,4.87851,0.00000,-2.30862,-2.30862,4.89883,-0.78914,4.81252,4.61626,-1.35287,-2.47439,-2.47439,A,151808.70
4.89565,57.68816698,11.97986652,57.68816217,11.97986200,15:18:08.867078,0.00602,0.00000,0.00000,-0.14557,0.00000,-0.00253,0.00070,0.00011,-0.05301,-0.11535,0.98979,4.88888,0.00000,-2.33348,-2.33348,4.88470,-0.81733,4.81252,4.61626,-1.35287,-2.47439,-2.47439,A,151808.70
4.90600,57.68816674,11.97986629,57.68816217,11.97986200,15:18:08.877423,0.00597,0.00000,0.00000,-0.14556,0.00000,0.00312,0.00162,0.00271,-0.05289,-0.11492,0.99162,4.89906,0.00000,-2.35462,-2.35462,4.87128,-0.84411,4.81252,4.61626,-1.35287,-2.47439,-2.47439,A,151808.70
4.95117,57.68816651,11.97986608,57.68816200,11.97986233,15:18:08.922628,0.04073,0.00000,1.50000,-0.14557,0.02000,-0.00054,0.00055,-0.00111,-0.05313,-0.11431,0.99338,4.90966,0.00000,-2.37259,-2.37259,4.85852,-0.86954,4.92688,4.63607,-1.37140,-0.75204,-0.75204,A,151808.80
4.96698,57.68816629,11.97986589,57.68816200,11.97986233,15:18:08.938410,0.00693,0.00000,0.00000,-0.14528,0.00000,0.00602,-0.00174,-0.00081,-0.05276,-0.11541,0.99149,4.96085,0.00000,-2.12950,-2.12950,4.84740,-0.89464,4.92688,4.63607,-1.37140,-0.75204,-0.75204,A,151808.80
4.97594,57.68816607,11.97986571,57.68816200,11.97986233,15:18:08.947362,0.00549,0.00000,0.00000,-0.14526,0.00000,0.00144,0.00086,0.00042,-0.05325,-0.11322,0.99235,4.96966,0.00000,-1.92288,-1.92288,4.83684,-0.91848,4.92688,4.63607,-1.37140,-0.75204,-0.75204,A,151808.80
4.98616,57.68816587,11.97986554,57.68816200,11.97986233,15:18:08.957574,0.00545,0.00000,0.00000,-0.14527,0.00000,-0.00177,0.00055,-0.00065,-0.05466,-0.11285,0.99070,4.98028,0.00000,-1.74726,-1.74726,4.82680,-0.94112,4.92688,4.63607,-1.37140,-0.75204,-0.75204,A,151808.80
4.99627,57.68816568,11.97986538,57.68816200,11.97986233,15:18:08.967694,0.00518,0.00000,0.00000,-0.14535,0.00000,-0.00284,0.00162,0.00164,-0.05173,-0.11669,0.99119,4.99014,0.00000,-1.59797,-1.59797,4.81726,-0.96264,4.92688,4.63607,-1.37140,-0.75204,-0.75204,A,151808.80
5.00655,57.68816549,11.97986523,57.68816200,11.97986233,15:18:08.978212,0.00506,0.00000,0.00000,-0.14536,0.00000,0.00236,-0.00128,-0.00187,-0.05142,-0.11621,0.99119,5.00072,0.00000,-1.47108,-1.47108,4.80820,-0.98307,4.92688,4.63607,-1.37140,-0.75204,-0.75204,A,151808.80
5.02511,57.68816532,11.97986508,57.68816200,11.97986233,15:18:08.996572,0.01323,0.00000,0.00000,0.00000,0.00000,-0.00238,-0.00495,0.00133,-0.05167,-0.11566,0.99009,5.01166,0.00000,-0.28761,-0.28761,4.63607,-1.37140,4.92688,4.63607,-1.37140,-0.75204,-0.75204,A,151808.80
5.07606,57.68816200,11.97986233,57.68816233,11.97986233,15:18:09.047740,0.03842,0.00000,0.00000,-0.00227,-0.09433,-0.00222,-0.00266,0.00149,-0.05106,-0.11560,0.99253,5.04247,0.00000,-0.34862,-0.40633,4.63607,-1.37140,5.06166,4.63607,-1.33434,1.57080,1.57080,A,151808.90
5.10022,57.68816202,11.97986233,57.68816233,11.97986233,15:18:09.071664,0.01345,0.00000,0.00000,-0.00435,-0.09433,0.00144,-0.00067,-0.00111,-0.05155,-0.11376,0.99314,5.08827,0.00000,-0.05205,-0.10976,4.63607,-1.36955,5.06166,4.63607,-1.33434,1.57080,1.57080,A,151808.90
5.12562,57.68816203,11.97986233,57.68816233,11.97986233,15:18:09.097080,0.01317,0.00000,0.00000,-0.00647,-0.09433,0.00159,0.00025,0.00194,-0.05392,-0.11663,0.99131,5.11498,0.00000,0.20004,0.14232,4.63607,-1.36779,5.06166,4.63607,-1.33434,1.57080,1.57080,A,151808.90
5.15151,57.68816205,11.97986233,57.68816233,11.97986233,15:18:09.122966,0.01424,0.00000,0.00000,-0.00851,-0.09433,0.00312,0.00086,0.00316,-0.05234,-0.11578,0.98954,5.14082,0.00000,0.41431,0.35659,4.63607,-1.36612,5.06166,4.63607,-1.33434,1.57080,1.57080,A,151808.90
5.20052,57.68816206,11.97986233,57.68816117,11.97986317,15:18:09.171947,0.04036,0.00000,0.00000,-0.01068,-0.09433,-0.00467,-0.00372,0.00103,-0.05100,-0.11486,0.99155,5.16413,0.00000,0.59644,0.53872,4.63607,-1.36453,5.19088,4.68560,-1.46407,-1.20607,-1.20607,A,151809.10
5.22575,57.68816202,11.97986238,57.68816117,11.97986317,15:18:09.197180,0.01423,0.00000,0.00000,-0.01275,-0.09433,-0.00039,0.00086,-0.00172,-0.05276,-0.11584,0.99259,5.21508,0.00000,0.33472,0.27700,4.63855,-1.36951,5.19088,4.68560,-1.46407,-1.20607,-1.20607,A,151809.10
5.25412,57.68816197,11.97986241,57.68816117,11.97986317,15:18:09.225815,0.01482,0.00000,0.00000,-0.01474,-0.09433,-0.00009,-0.00036,0.00194,-0.05246,-0.11364,0.99204,5.24353,0.00000,0.11226,0.05454,4.64090,-1.37423,5.19088,4.68560,-1.46407,-1.20607,-1.20607,A,151809.10
5.27790,57.68816193,11.97986245,57.68816117,11.97986317,15:18:09.249339,0.01353,0.00000,0.00000,-0.01663,-0.09433,0.00236,0.00208,0.00103,-0.05234,-0.11267,0.99186,5.26778,0.00000,-0.07684,-0.13455,4.64313,-1.37873,5.19088,4.68560,-1.46407,-1.20607,-1.20607,A,151809.10
5.32123,57.68816190,11.97986249,57.68815950,11.97986267,15:18:09.292659,0.02977,0.00000,0.00000,-0.01861,-0.09433,-0.00192,0.00009,-0.00172,-0.05167,-0.11358,0.98997,5.29366,0.00000,-0.23756,-0.29528,4.64526,-1.38299,5.31160,4.65588,-1.64939,-1.72980,-1.72980,A,151809.20
5.34655,57.68816178,11.97986250,57.68815950,11.97986267,15:18:09.318187,0.01344,0.00000,0.00000,-0.02045,-0.09433,0.00190,0.00132,-0.00019,-0.05179,-0.11505,0.99326,5.33675,0.00000,-0.45274,-0.51046,4.64579,-1.39631,5.31160,4.65588,-1.64939,-1.72980,-1.72980,A,151809.20
5.37184,57.68816166,11.97986251,57.68815950,11.97986267,15:18:09.343624,0.01409,0.00000,0.00000,-0.02233,-0.09433,0.00098,-0.00067,0.00225,-0.05155,-0.11602,0.99149,5.36136,0.00000,-0.63564,-0.69336,4.64629,-1.40897,5.31160,4.65588,-1.64939,-1.72980,-1.72980,A,151809.20
5.39651,57.68816155,11.97986251,57.68815950,11.97986267,15:18:09.368805,0.01410,0.00000,0.00000,-0.02425,-0.09433,-0.00146,0.00116,-0.00019,-0.05289,-0.11614,0.99204,5.38700,0.00000,-0.79111,-0.84882,4.64677,-1.42099,5.31160,4.65588,-1.64939,-1.72980,-1.72980,A,151809.20
5.44099,57.68816145,11.97986252,57.68815850,11.97986050,15:18:09.412436,0.03136,0.00000,0.00000,-0.02606,-0.09433,0.00083,-0.00143,-0.00081,-0.05197,-0.11474,0.99052,5.41342,0.00000,-0.92326,-0.98097,4.64723,-1.43241,5.43087,4.52710,-1.76059,-2.42934,-2.42934,A,151809.30
5.46407,57.68816130,11.97986242,57.68815850,11.97986050,15:18:09.435500,0.01241,0.00000,0.00000,-0.02783,-0.09433,0.00052,-0.00189,0.00255,-0.05209,-0.11370,0.99253,5.45380,0.00000,-1.14051,-1.19823,4.64122,-1.44882,5.43087,4.52710,-1.76059,-2.42934,-2.42934,A,151809.30
