Time,lat_estimated,lon_estimated,latitude,longitude,RealTime,CalculationTime,MeasuredVelocity,FilteredVelocity,Roll,SteeringAngle,RollRate,gy,gz,ax,ay,az,imu_read_timing,v_estimated,yaw_estimated,heading_estimated,x_estimated,y_estimated,GPS_timestamp,x_GPS,y_GPS,theta_GPS,theta_GPS_noUnwrap,status,NMEA timestamp
0.06604,57.68833733,11.97996367,57.68833733,11.97996367,14:53:00.605013,0.06540,0.00000,0.00000,-0.00229,0.00000,-0.00294,0.00333,-0.00204,-0.04831,-0.11913,0.99113,0.00001,0.00000,0.00000,0.00000,0.00000,0.00000,0.02482,0.00000,0.00000,0.00000,0.00000,A,145300.50
0.08194,57.68833733,11.97996367,57.68833733,11.97996367,14:53:00.620873,0.00728,0.00000,0.00000,-0.00506,0.00000,-0.00706,0.00165,-0.00006,-0.05148,-0.12005,0.99168,0.07565,0.00000,0.00000,0.00000,0.00000,0.00000,0.02482,0.00000,0.00000,0.00000,0.00000,A,145300.50
0.09015,57.68833733,11.97996367,57.68833733,11.97996367,14:53:00.629085,0.00508,0.00000,0.00000,-0.00721,0.00000,-0.00034,0.00135,0.00086,-0.04740,-0.11663,0.99284,0.08448,0.00000,0.00000,0.00000,0.00000,0.00000,0.02482,0.00000,0.00000,0.00000,0.00000,A,145300.50
0.10087,57.68833733,11.97996367,57.68833733,11.97996367,14:53:00.639803,0.00534,0.00000,0.00000,-0.00935,0.00000,0.00256,-0.00003,0.00300,-0.05026,-0.12029,0.99265,0.09475,0.00000,0.00000,0.00000,0.00000,0.00000,0.02482,0.00000,0.00000,0.00000,0.00000,A,145300.50
0.11148,57.68833733,11.97996367,57.68833733,11.97996367,14:53:00.650431,0.00555,0.00000,0.00000,-0.01143,0.00000,0.00042,0.00150,-0.00204,-0.05295,-0.11694,0.99332,0.10548,0.00000,0.00000,0.00000,0.00000,0.00000,0.02482,0.00000,0.00000,0.00000,0.00000,A,145300.50
0.12225,57.68833733,11.97996367,57.68833733,11.97996367,14:53:00.661187,0.00592,0.00000,0.00000,-0.01348,0.00000,0.00149,-0.00308,0.00147,-0.05069,-0.11779,0.99320,0.11657,0.00000,0.00000,0.00000,0.00000,0.00000,0.02482,0.00000,0.00000,0.00000,0.00000,A,145300.50
0.15133,57.68833733,11.97996367,57.68833767,11.97996483,14:53:00.690286,0.02460,0.00000,0.00000,-0.01556,0.00000,-0.00309,-0.00003,0.00025,-0.05264,-0.11846,0.99162,0.12613,0.00000,0.00000,0.00000,0.00000,0.00000,0.14257,0.06934,0.03706,0.49088,0.49088,A,145300.60
0.16567,57.68833735,11.97996372,57.68833767,11.97996483,14:53:00.704600,0.00635,0.00000,0.00000,-0.01739,0.00000,0.00561,-0.00125,0.00300,-0.04947,-0.11846,0.99046,0.15971,0.00000,0.07363,0.07363,0.00347,0.00185,0.14257,0.06934,0.03706,0.49088,0.49088,A,145300.60
0.17537,57.68833737,11.97996378,57.68833767,11.97996483,14:53:00.714322,0.00566,0.00000,0.00000,-0.01941,0.00000,-0.00111,-0.00125,0.00269,-0.04990,-0.11956,0.99082,0.16915,0.00000,0.13622,0.13622,0.00676,0.00361,0.14257,0.06934,0.03706,0.49088,0.49088,A,145300.60
0.18510,57.68833738,11.97996383,57.68833767,11.97996483,14:53:00.724025,0.00515,0.00000,0.00000,-0.02132,0.00000,0.00516,0.00074,-0.00051,-0.05441,-0.11840,0.99137,0.17919,0.00000,0.18942,0.18942,0.00989,0.00529,0.14257,0.06934,0.03706,0.49088,0.49088,A,145300.60
0.19642,57.68833740,11.97996388,57.68833767,11.97996483,14:53:00.735372,0.00596,0.00000,0.00000,-0.02324,0.00000,0.00302,-0.00369,-0.00204,-0.05136,-0.12011,0.99253,0.18998,0.00000,0.23464,0.23464,0.01286,0.00688,0.14257,0.06934,0.03706,0.49088,0.49088,A,145300.60
0.20579,57.68833741,11.97996393,57.68833767,11.97996483,14:53:00.744717,0.00507,0.00000,0.00000,-0.02514,0.00000,-0.00034,-0.00049,-0.00189,-0.05075,-0.11865,0.99290,0.20013,0.00000,0.27307,0.27307,0.01569,0.00838,0.14257,0.06934,0.03706,0.49088,0.49088,A,145300.60
0.21651,57.68833742,11.97996398,57.68833767,11.97996483,14:53:00.755449,0.00555,0.00000,0.00000,-0.02702,0.00000,-0.00034,-0.00155,0.00162,-0.05020,-0.11852,0.99149,0.21053,0.00000,0.30575,0.30575,0.01837,0.00982,0.14257,0.06934,0.03706,0.49088,0.49088,A,145300.60
0.22642,57.68833743,11.97996402,57.68833767,11.97996483,14:53:00.765360,0.00506,0.00000,0.00000,-0.02884,0.00000,0.00271,-0.00033,-0.00051,-0.05240,-0.11822,0.99058,0.22077,0.00000,0.33352,0.33352,0.02092,0.01118,0.14257,0.06934,0.03706,0.49088,0.49088,A,145300.60
0.23677,57.68833745,11.97996406,57.68833767,11.97996483,14:53:00.775709,0.00518,0.00000,0.00000,-0.03072,0.00000,-0.00248,-0.00049,0.00132,-0.05228,-0.12127,0.99216,0.23084,0.00000,0.35712,0.35712,0.02334,0.01248,0.14257,0.06934,0.03706,0.49088,0.49088,A,145300.60
0.27010,57.68833746,11.97996410,57.68833800,11.97996317,14:53:00.809063,0.02810,0.00000,0.00000,-0.03249,0.00000,-0.00217,0.00104,-0.00128,-0.05222,-0.11572,0.99204,0.24143,0.00000,0.37719,0.37719,0.02564,0.01370,0.25919,-0.02972,0.07413,2.78355,2.78355,A,145300.70
0.28904,57.68833748,11.97996405,57.68833800,11.97996317,14:53:00.827969,0.00669,0.00000,0.00000,-0.03424,0.00000,0.00042,0.00028,0.00376,-0.05246,-0.11883,0.99247,0.28302,0.00000,0.73814,0.73814,0.02287,0.01673,0.25919,-0.02972,0.07413,2.78355,2.78355,A,145300.70
0.29781,57.68833751,11.97996401,57.68833800,11.97996317,14:53:00.836742,0.00505,0.00000,0.00000,-0.03601,0.00000,-0.00065,-0.00094,-0.00387,-0.05026,-0.11956,0.98850,0.29217,0.00000,1.04495,1.04495,0.02024,0.01960,0.25919,-0.02972,0.07413,2.78355,2.78355,A,145300.70
0.30863,57.68833753,11.97996397,57.68833800,11.97996317,14:53:00.847564,0.00530,0.00000,0.00000,-0.03772,0.00000,-0.00034,0.00165,0.00178,-0.05112,-0.11840,0.99186,0.30256,0.00000,1.30574,1.30574,0.01774,0.02232,0.25919,-0.02972,0.07413,2.78355,2.78355,A,145300.70
0.31882,57.68833756,11.97996393,57.68833800,11.97996317,14:53:00.857759,0.00509,0.00000,0.00000,-0.03937,0.00000,0.00241,-0.00171,-0.00189,-0.05167,-0.11810,0.99393,0.31317,0.00000,1.52741,1.52741,0.01537,0.02491,0.25919,-0.02972,0.07413,2.78355,2.78355,A,145300.70
0.32926,57.68833758,11.97996389,57.68833800,11.97996317,14:53:00.868192,0.00513,0.00000,0.00000,-0.04103,0.00000,-0.00172,0.00119,0.00117,-0.04984,-0.11700,0.99033,0.32335,0.00000,1.71584,1.71584,0.01312,0.02737,0.25919,-0.02972,0.07413,2.78355,2.78355,A,145300.70
0.33988,57.68833760,11.97996385,57.68833800,11.97996317,14:53:00.878807,0.00534,0.00000,0.00000,-0.04268,0.00000,-0.00263,0.00165,0.00147,-0.05081,-0.11828,0.99491,0.33397,0.00000,1.87599,1.87599,0.01097,0.02971,0.25919,-0.02972,0.07413,2.78355,2.78355,A,145300.70
0.35150,57.68833762,11.97996382,57.68833800,11.97996317,14:53:00.890669,0.00655,0.00000,0.00000,-0.04429,0.00000,-0.00019,-0.00232,0.00056,-0.05185,-0.11840,0.99442,0.34505,0.00000,2.01213,2.01213,0.00894,0.03193,0.25919,-0.02972,0.07413,2.78355,2.78355,A,145300.70
0.38270,57.68833764,11.97996378,57.68833817,11.97996183,14:53:00.921661,0.02722,0.00000,0.00000,-0.04587,0.00000,0.00012,0.00181,0.00040,-0.05228,-0.11871,0.99479,0.35471,0.00000,2.12784,2.12784,0.00701,0.03404,0.37187,-0.10897,0.09266,2.91187,2.91187,A,145300.80
0.40031,57.68833767,11.97996369,57.68833817,11.97996183,14:53:00.939240,0.00644,0.00000,0.00000,-0.04732,0.00000,0.00378,-0.00125,-0.00082,-0.05197,-0.12035,0.99168,0.39413,0.00000,2.24545,2.24545,0.00121,0.03697,0.37187,-0.10897,0.09266,2.91187,2.91187,A,145300.80
0.40948,57.68833769,11.97996359,57.68833817,11.97996183,14:53:00.948412,0.00522,0.00000,0.00000,-0.04885,0.00000,0.00119,0.00043,0.00208,-0.05173,-0.11895,0.99412,0.40358,0.00000,2.34541,2.34541,-0.00430,0.03976,0.37187,-0.10897,0.09266,2.91187,2.91187,A,145300.80
0.42012,57.68833771,11.97996351,57.68833817,11.97996183,14:53:00.959049,0.00546,0.00000,0.00000,-0.05042,0.00000,-0.00309,-0.00247,0.00010,-0.04953,-0.11986,0.99229,0.41415,0.00000,2.43038,2.43038,-0.00953,0.04240,0.37187,-0.10897,0.09266,2.91187,2.91187,A,145300.80
0.43008,57.68833774,11.97996342,57.68833817,11.97996183,14:53:00.969019,0.00503,0.00000,0.00000,-0.05193,0.00000,-0.00080,-0.00110,0.00132,-0.04941,-0.11883,0.99271,0.42444,0.00000,2.50260,2.50260,-0.01451,0.04492,0.37187,-0.10897,0.09266,2.91187,2.91187,A,145300.80
0.44066,57.68833776,11.97996334,57.68833817,11.97996183,14:53:00.979595,0.00514,0.00000,0.00000,-0.05340,0.00000,0.00180,0.00119,0.00224,-0.05002,-0.12029,0.99534,0.43474,0.00000,2.56399,2.56399,-0.01923,0.04730,0.37187,-0.10897,0.09266,2.91187,2.91187,A,145300.80
0.45127,57.68833778,11.97996327,57.68833817,11.97996183,14:53:00.990229,0.00513,0.00000,0.00000,-0.05481,0.00000,0.00164,-0.00293,0.00300,-0.05033,-0.11688,0.98924,0.44541,0.00000,2.61617,2.61617,-0.02372,0.04957,0.37187,-0.10897,0.09266,2.91187,2.91187,A,145300.80
0.46211,57.68833780,11.97996320,57.68833817,11.97996183,14:53:01.001046,0.00579,0.00000,0.00000,-0.05626,0.00000,-0.00080,0.00303,0.00071,-0.05136,-0.11852,0.98875,0.45553,0.00000,2.66053,2.66053,-0.02798,0.05173,0.37187,-0.10897,0.09266,2.91187,2.91187,A,145300.80
0.47210,57.68833782,11.97996313,57.68833817,11.97996183,14:53:01.011040,0.00538,0.00000,0.00000,-0.05771,0.00000,-0.00233,-0.00323,0.00254,-0.05008,-0.11999,0.99064,0.46615,0.00000,2.69823,2.69823,-0.03203,0.05377,0.37187,-0.10897,0.09266,2.91187,2.91187,A,145300.80
0.50400,57.68833783,11.97996306,57.68833833,11.97996117,14:53:01.042961,0.02687,0.00000,0.00000,-0.05906,0.00000,0.00378,0.00410,-0.00342,-0.05148,-0.11846,0.99033,0.47654,0.00000,2.73027,2.73027,-0.03587,0.05572,0.49287,-0.14859,0.11119,2.70411,2.70411,A,145300.90
0.52408,57.68833786,11.97996297,57.68833833,11.97996117,14:53:01.063015,0.00652,0.00000,0.00000,-0.06026,0.00000,0.00393,0.00135,0.00147,-0.05051,-0.11834,0.99101,0.51809,0.00000,2.72635,2.72635,-0.04151,0.05849,0.49287,-0.14859,0.11119,2.70411,2.70411,A,145300.90
0.53303,57.68833788,11.97996288,57.68833833,11.97996117,14:53:01.071961,0.00523,0.00000,0.00000,-0.06158,0.00000,0.00287,-0.00140,-0.00158,-0.05301,-0.11840,0.99381,0.52702,0.00000,2.72301,2.72301,-0.04686,0.06113,0.49287,-0.14859,0.11119,2.70411,2.70411,A,145300.90
0.54349,57.68833791,11.97996279,57.68833833,11.97996117,14:53:01.082438,0.00530,0.00000,0.00000,-0.06285,0.00000,0.00317,-0.00415,0.00178,-0.05026,-0.11712,0.99198,0.53762,0.00000,2.72018,2.72018,-0.05195,0.06363,0.49287,-0.14859,0.11119,2.70411,2.70411,A,145300.90
0.55381,57.68833793,11.97996271,57.68833833,11.97996117,14:53:01.092746,0.00522,0.00000,0.00000,-0.06413,0.00000,-0.00049,-0.00033,0.00147,-0.05118,-0.11608,0.99107,0.54780,0.00000,2.71777,2.71777,-0.05678,0.06601,0.49287,-0.14859,0.11119,2.70411,2.70411,A,145300.90
0.56492,57.68833795,11.97996263,57.68833833,11.97996117,14:53:01.103860,0.00594,0.00000,0.00000,-0.06542,0.00000,-0.00034,0.00181,0.00239,-0.04929,-0.11828,0.99198,0.55839,0.00000,2.71572,2.71572,-0.06137,0.06827,0.49287,-0.14859,0.11119,2.70411,2.70411,A,145300.90
0.57432,57.68833797,11.97996256,57.68833833,11.97996117,14:53:01.113252,0.00508,0.00000,0.00000,-0.06673,0.00000,-0.00217,0.00013,-0.00174,-0.05270,-0.11938,0.99040,0.56864,0.00000,2.71398,2.71398,-0.06573,0.07041,0.49287,-0.14859,0.11119,2.70411,2.70411,A,145300.90
0.58469,57.68833798,11.97996249,57.68833833,11.97996117,14:53:01.123622,0.00515,0.00000,0.00000,-0.06796,0.00000,0.00042,0.00257,-0.00174,-0.05026,-0.11773,0.99204,0.57876,0.00000,2.71250,2.71250,-0.06988,0.07245,0.49287,-0.14859,0.11119,2.70411,2.70411,A,145300.90
0.62646,57.68833800,11.97996242,57.68833900,11.97996300,14:53:01.165415,0.03653,0.00000,0.00000,-0.06922,0.00000,-0.00080,0.00058,0.00071,-0.05026,-0.12017,0.99332,0.58936,0.00000,2.71124,2.71124,-0.07381,0.07439,0.61593,-0.03962,0.18532,0.59738,0.59738,A,145301.10
0.64470,57.68833805,11.97996245,57.68833900,11.97996300,14:53:01.183631,0.00694,0.00000,0.00000,-0.07030,0.00000,0.00287,0.00532,-0.00280,-0.05039,-0.11858,0.99259,0.63871,0.00000,2.39416,2.39416,-0.07210,0.07994,0.61593,-0.03962,0.18532,0.59738,0.59738,A,145301.10
0.65326,57.68833810,11.97996248,57.68833900,11.97996300,14:53:01.192194,0.00510,0.00000,0.00000,-0.07152,0.00000,-0.00248,-0.00018,0.00056,-0.05075,-0.11865,0.99137,0.64734,0.00000,2.12465,2.12465,-0.07048,0.08521,0.61593,-0.03962,0.18532,0.59738,0.59738,A,145301.10
0.66404,57.68833814,11.97996251,57.68833900,11.97996300,14:53:01.202975,0.00562,0.00000,0.00000,-0.07272,0.00000,-0.00340,-0.00217,-0.00219,-0.04935,-0.11785,0.99235,0.65805,0.00000,1.89556,1.89556,-0.06894,0.09021,0.61593,-0.03962,0.18532,0.59738,0.59738,A,145301.10
0.67471,57.68833819,11.97996253,57.68833900,11.97996300,14:53:01.213642,0.00589,0.00000,0.00000,-0.07390,0.00000,-0.00279,0.00119,-0.00036,-0.05215,-0.11822,0.99308,0.66823,0.00000,1.70083,1.70083,-0.06747,0.09497,0.61593,-0.03962,0.18532,0.59738,0.59738,A,145301.10
0.68455,57.68833823,11.97996255,57.68833900,11.97996300,14:53:01.223484,0.00518,0.00000,0.00000,-0.07505,0.00000,-0.00111,0.00242,-0.00112,-0.05026,-0.11846,0.99241,0.67860,0.00000,1.53531,1.53531,-0.06608,0.09949,0.61593,-0.03962,0.18532,0.59738,0.59738,A,145301.10
0.69587,57.68833827,11.97996258,57.68833900,11.97996300,14:53:01.234812,0.00610,0.00000,0.00000,-0.07616,0.00000,0.00027,0.00043,0.00010,-0.05234,-0.11730,0.99064,0.68986,0.00000,1.39462,1.39462,-0.06476,0.10378,0.61593,-0.03962,0.18532,0.59738,0.59738,A,145301.10
0.70548,57.68833830,11.97996260,57.68833900,11.97996300,14:53:01.244414,0.00531,0.00000,0.00000,-0.07726,0.00000,0.00149,-0.00094,0.00025,-0.04972,-0.11840,0.98966,0.69955,0.00000,1.27504,1.27504,-0.06350,0.10785,0.61593,-0.03962,0.18532,0.59738,0.59738,A,145301.10
0.71592,57.68833834,11.97996262,57.68833900,11.97996300,14:53:01.254855,0.00535,0.00000,0.00000,-0.07836,0.00000,0.00225,-0.00110,0.00056,-0.05136,-0.12047,0.99137,0.70999,0.00000,1.17339,1.17339,-0.06231,0.11173,0.61593,-0.03962,0.18532,0.59738,0.59738,A,145301.10
0.74690,57.68833837,11.97996264,57.68833800,11.97996283,14:53:01.286745,0.02593,0.00000,0.00000,-0.07941,0.00000,0.00149,0.00043,0.00193,-0.05039,-0.11785,0.99180,0.72037,0.00000,1.08699,1.08699,-0.06117,0.11541,0.73677,-0.04953,0.07413,-1.65965,-1.65965,A,145301.20
0.76621,57.68833835,11.97996265,57.68833800,11.97996283,14:53:01.305142,0.00692,0.00000,0.00000,-0.08034,0.00000,0.00317,-0.00140,0.00025,-0.05008,-0.11883,0.99369,0.76050,0.00000,0.67499,0.67499,-0.06059,0.11334,0.73677,-0.04953,0.07413,-1.65965,-1.65965,A,145301.20
0.77476,57.68833834,11.97996266,57.68833800,11.97996283,14:53:01.313691,0.00507,0.00000,0.00000,-0.08142,0.00000,-0.00294,-0.00476,0.00407,-0.05014,-0.11907,0.99119,0.76911,0.00000,0.32480,0.32480,-0.06004,0.11138,0.73677,-0.04953,0.07413,-1.65965,-1.65965,A,145301.20
0.78521,57.68833832,11.97996267,57.68833800,11.97996283,14:53:01.324143,0.00512,0.00000,0.00000,-0.08249,0.00000,-0.00080,0.00074,0.00025,-0.05142,-0.12011,0.99149,0.77929,0.00000,0.02713,0.02713,-0.05951,0.10952,0.73677,-0.04953,0.07413,-1.65965,-1.65965,A,145301.20
0.79584,57.68833830,11.97996267,57.68833800,11.97996283,14:53:01.334776,0.00535,0.00000,0.00000,-0.08353,0.00000,-0.00355,-0.00125,0.00162,-0.05161,-0.11834,0.99204,0.78991,0.00000,-0.22589,-0.22589,-0.05901,0.10775,0.73677,-0.04953,0.07413,-1.65965,-1.65965,A,145301.20
0.80648,57.68833829,11.97996268,57.68833800,11.97996283,14:53:01.345420,0.00559,0.00000,0.00000,-0.08448,0.00000,0.00393,-0.00155,-0.00143,-0.05008,-0.11743,0.99076,0.80080,0.00000,-0.44095,-0.44095,-0.05854,0.10607,0.73677,-0.04953,0.07413,-1.65965,-1.65965,A,145301.20
0.81739,57.68833827,11.97996269,57.68833800,11.97996283,14:53:01.356334,0.00596,0.00000,0.00000,-0.08549,0.00000,-0.00172,0.00104,-0.00189,-0.05075,-0.11944,0.99137,0.81066,0.00000,-0.62376,-0.62376,-0.05809,0.10447,0.73677,-0.04953,0.07413,-1.65965,-1.65965,A,145301.20
0.82690,57.68833826,11.97996270,57.68833800,11.97996283,14:53:01.366068,0.00507,0.00000,0.00000,-0.08645,0.00000,0.00103,0.00089,0.00208,-0.05283,-0.11828,0.99192,0.82126,0.00000,-0.77914,-0.77914,-0.05766,0.10296,0.73677,-0.04953,0.07413,-1.65965,-1.65965,A,145301.20
0.86044,57.68833825,11.97996270,57.68833683,11.97996250,14:53:01.399407,0.02821,0.00000,0.00000,-0.08743,0.00000,-0.00156,-0.00171,0.00010,-0.05228,-0.11944,0.99235,0.83143,0.00000,-0.91122,-0.91122,-0.05725,0.10151,0.84793,-0.06934,-0.05560,-1.72235,-1.72235,A,145301.30
0.87479,57.68833818,11.97996269,57.68833683,11.97996250,14:53:01.413729,0.00747,0.00000,0.00000,-0.08839,0.00000,-0.00034,-0.00446,0.00056,-0.05014,-0.11901,0.99113,0.86689,0.00000,-1.03289,-1.03289,-0.05786,0.09366,0.84793,-0.06934,-0.05560,-1.72235,-1.72235,A,145301.30
0.88279,57.68833811,11.97996268,57.68833683,11.97996250,14:53:01.421714,0.00506,0.00000,0.00000,-0.08926,0.00000,0.00195,0.00211,-0.00006,-0.05033,-0.11602,0.99210,0.87714,0.00000,-1.13631,-1.13631,-0.05843,0.08620,0.84793,-0.06934,-0.05560,-1.72235,-1.72235,A,145301.30
0.89325,57.68833804,11.97996267,57.68833683,11.97996250,14:53:01.432192,0.00513,0.00000,0.00000,-0.09020,0.00000,-0.00126,0.00028,-0.00235,-0.05142,-0.11956,0.98875,0.88734,0.00000,-1.22421,-1.22421,-0.05898,0.07911,0.84793,-0.06934,-0.05560,-1.72235,-1.72235,A,145301.30
0.90414,57.68833798,11.97996267,57.68833683,11.97996250,14:53:01.443070,0.00560,0.00000,0.00000,-0.09106,0.00000,0.00210,0.00043,-0.00219,-0.05173,-0.11743,0.99351,0.89816,0.00000,-1.29893,-1.29893,-0.05950,0.07237,0.84793,-0.06934,-0.05560,-1.72235,-1.72235,A,145301.30
0.91400,57.68833793,11.97996266,57.68833683,11.97996250,14:53:01.452934,0.00507,0.00000,0.00000,-0.09194,0.00000,-0.00080,0.00242,-0.00021,-0.05472,-0.11761,0.99088,0.90834,0.00000,-1.36244,-1.36244,-0.05999,0.06597,0.84793,-0.06934,-0.05560,-1.72235,-1.72235,A,145301.30
0.92462,57.68833787,11.97996265,57.68833683,11.97996250,14:53:01.463556,0.00514,0.00000,0.00000,-0.09276,0.00000,0.00470,0.00028,-0.00235,-0.05209,-0.11822,0.99186,0.91869,0.00000,-1.41643,-1.41643,-0.06046,0.05989,0.84793,-0.06934,-0.05560,-1.72235,-1.72235,A,145301.30
0.93495,57.68833782,11.97996264,57.68833683,11.97996250,14:53:01.474130,0.00506,0.00000,0.00000,-0.09361,0.00000,0.00225,-0.00003,0.00269,-0.04972,-0.11968,0.99418,0.92930,0.00000,-1.46232,-1.46232,-0.06090,0.05412,0.84793,-0.06934,-0.05560,-1.72235,-1.72235,A,145301.30
0.94538,57.68833777,11.97996263,57.68833683,11.97996250,14:53:01.484314,0.00510,0.00000,0.00000,-0.09450,0.00000,-0.00477,0.00135,0.00269,-0.05502,-0.11810,0.99338,0.93948,0.00000,-1.50132,-1.50132,-0.06132,0.04863,0.84793,-0.06934,-0.05560,-1.72235,-1.72235,A,145301.30
0.97530,57.68833772,11.97996263,57.68833633,11.97996017,14:53:01.515119,0.02462,0.00000,0.00000,-0.09534,0.00000,-0.00187,-0.00064,0.00086,-0.05002,-0.11785,0.99210,0.95010,0.00000,-1.53448,-1.53448,-0.06172,0.04342,0.96744,-0.20803,-0.11119,-2.76032,-2.76032,A,145301.40
0.99627,57.68833765,11.97996251,57.68833633,11.97996017,14:53:01.535208,0.00825,0.00000,0.00000,-0.09605,0.00000,0.00317,0.00425,-0.00036,-0.05100,-0.11968,0.99192,0.98915,0.00000,-1.71835,-1.71835,-0.06904,0.03569,0.96744,-0.20803,-0.11119,-2.76032,-2.76032,A,145301.40
1.00402,57.68833759,11.97996239,57.68833633,11.97996017,14:53:01.542957,0.00561,0.00000,0.00000,-0.09690,0.00000,-0.00447,-0.00049,0.00147,-0.05173,-0.11834,0.99192,0.99801,0.00000,-1.87465,-1.87465,-0.07599,0.02835,0.96744,-0.20803,-0.11119,-2.76032,-2.76032,A,145301.40
1.01391,57.68833753,11.97996228,57.68833633,11.97996017,14:53:01.552845,0.00509,0.00000,0.00000,-0.09773,0.00000,-0.00233,0.00028,0.00269,-0.04776,-0.11925,0.99241,1.00824,0.00000,-2.00750,-2.00750,-0.08259,0.02137,0.96744,-0.20803,-0.11119,-2.76032,-2.76032,A,145301.40
1.02455,57.68833747,11.97996217,57.68833633,11.97996017,14:53:01.563481,0.00517,0.00000,0.00000,-0.09853,0.00000,0.00256,-0.00094,-0.00051,-0.05130,-0.12078,0.99125,1.01859,0.00000,-2.12042,-2.12042,-0.08886,0.01474,0.96744,-0.20803,-0.11119,-2.76032,-2.76032,A,145301.40
1.03484,57.68833741,11.97996207,57.68833633,11.97996017,14:53:01.573774,0.00507,0.00000,0.00000,-0.09924,0.00000,0.00180,0.00028,0.00101,-0.05014,-0.11596,0.99204,1.02920,0.00000,-2.21641,-2.21641,-0.09482,0.00845,0.96744,-0.20803,-0.11119,-2.76032,-2.76032,A,145301.40
1.04527,57.68833736,11.97996198,57.68833633,11.97996017,14:53:01.584201,0.00510,0.00000,0.00000,-0.10003,0.00000,-0.00233,0.00379,0.00224,-0.04984,-0.11895,0.99326,1.03937,0.00000,-2.29799,-2.29799,-0.10048,0.00246,0.96744,-0.20803,-0.11119,-2.76032,-2.76032,A,145301.40
1.05591,57.68833730,11.97996189,57.68833633,11.97996017,14:53:01.594846,0.00534,0.00000,0.00000,-0.10076,0.00000,0.00195,0.00196,0.00040,-0.05002,-0.11852,0.99180,1.04998,0.00000,-2.36734,-2.36734,-0.10586,-0.00322,0.96744,-0.20803,-0.11119,-2.76032,-2.76032,A,145301.40
1.06603,57.68833726,11.97996180,57.68833633,11.97996017,14:53:01.604961,0.00504,0.00000,0.00000,-0.10151,0.00000,0.00149,-0.00003,0.00132,-0.05033,-0.12023,0.99204,1.06038,0.00000,-2.42629,-2.42629,-0.11097,-0.00862,0.96744,-0.20803,-0.11119,-2.76032,-2.76032,A,145301.40
1.09794,57.68833721,11.97996172,57.68833550,11.97995567,14:53:01.636913,0.02643,0.00000,0.00000,-0.10224,0.00000,-0.00095,0.00058,-0.00250,-0.04843,-0.11804,0.99216,1.07073,0.00000,-2.47639,-2.47639,-0.11582,-0.01375,1.08818,-0.47549,-0.20386,-2.80808,-2.80808,A,145301.50
1.11762,57.68833712,11.97996142,57.68833550,11.97995567,14:53:01.656563,0.00672,0.00000,0.00000,-0.10291,0.00000,0.00134,0.00043,-0.00280,-0.04843,-0.11858,0.99076,1.11130,0.00000,-2.52615,-2.52615,-0.13380,-0.02325,1.08818,-0.47549,-0.20386,-2.80808,-2.80808,A,145301.50
1.12622,57.68833704,11.97996113,57.68833550,11.97995567,14:53:01.665154,0.00492,0.00000,0.00000,-0.10363,0.00000,-0.00004,0.00150,-0.00143,-0.04984,-0.11913,0.99204,1.12059,0.00000,-2.56844,-2.56844,-0.15089,-0.03228,1.08818,-0.47549,-0.20386,-2.80808,-2.80808,A,145301.50
1.13720,57.68833697,11.97996085,57.68833550,11.97995567,14:53:01.676136,0.00540,0.00000,0.00000,-0.10435,0.00000,-0.00294,0.00242,-0.00158,-0.05075,-0.11822,0.99119,1.13128,0.00000,-2.60438,-2.60438,-0.16712,-0.04086,1.08818,-0.47549,-0.20386,-2.80808,-2.80808,A,145301.50
1.14751,57.68833689,11.97996060,57.68833550,11.97995567,14:53:01.686457,0.00532,0.00000,0.00000,-0.10506,0.00000,-0.00095,0.00074,-0.00235,-0.05191,-0.11956,0.99155,1.14162,0.00000,-2.63494,-2.63494,-0.18254,-0.04901,1.08818,-0.47549,-0.20386,-2.80808,-2.80808,A,145301.50
1.15768,57.68833682,11.97996035,57.68833550,11.97995567,14:53:01.696608,0.00508,0.00000,0.00000,-0.10577,0.00000,-0.00187,-0.00186,-0.00021,-0.05069,-0.11907,0.99125,1.15200,0.00000,-2.66091,-2.66091,-0.19718,-0.05675,1.08818,-0.47549,-0.20386,-2.80808,-2.80808,A,145301.50
1.16849,57.68833676,11.97996011,57.68833550,11.97995567,14:53:01.707424,0.00549,0.00000,0.00000,-0.10641,0.00000,0.00042,0.00119,0.00010,-0.05057,-0.11724,0.99186,1.16239,0.00000,-2.68299,-2.68299,-0.21110,-0.06411,1.08818,-0.47549,-0.20386,-2.80808,-2.80808,A,145301.50
1.17970,57.68833669,11.97995989,57.68833550,11.97995567,14:53:01.718640,0.00631,0.00000,0.00000,-0.10707,0.00000,-0.00049,0.00043,0.00178,-0.05289,-0.11907,0.99259,1.17284,0.00000,-2.70175,-2.70175,-0.22432,-0.07110,1.08818,-0.47549,-0.20386,-2.80808,-2.80808,A,145301.50
1.21123,57.68833663,11.97995968,57.68833483,11.97995083,14:53:01.750200,0.02759,0.00000,0.00000,-0.10770,0.00000,0.00271,-0.00049,0.00208,-0.05222,-0.11883,0.99162,1.18289,0.00000,-2.71770,-2.71770,-0.23688,-0.07773,1.19955,-0.76277,-0.27799,-2.88906,-2.88906,A,145301.60
1.22918,57.68833654,11.97995924,57.68833483,11.97995083,14:53:01.768111,0.00556,0.00000,0.00000,-0.10820,0.00000,0.00287,0.00058,-0.00082,-0.05069,-0.11749,0.99192,1.22323,0.00000,-2.74341,-2.74341,-0.26317,-0.08775,1.19955,-0.76277,-0.27799,-2.88906,-2.88906,A,145301.60
1.24601,57.68833646,11.97995882,57.68833483,11.97995083,14:53:01.784948,0.01123,0.00000,0.00000,-0.10881,0.00000,0.00195,0.00211,-0.00036,-0.05081,-0.11871,0.98924,1.23642,0.00000,-2.76525,-2.76525,-0.28815,-0.09726,1.19955,-0.76277,-0.27799,-2.88906,-2.88906,A,145301.60
1.26367,57.68833638,11.97995842,57.68833483,11.97995083,14:53:01.802610,0.00821,0.00000,0.00000,-0.10937,0.00000,0.00287,0.00135,-0.00082,-0.05179,-0.11834,0.99284,1.25769,0.00000,-2.78382,-2.78382,-0.31188,-0.10630,1.19955,-0.76277,-0.27799,-2.88906,-2.88906,A,145301.60
1.27093,57.68833630,11.97995804,57.68833483,11.97995083,14:53:01.810110,0.00507,0.00000,0.00000,-0.10999,0.00000,-0.00187,-0.00079,0.00040,-0.04843,-0.11804,0.99204,1.26529,0.00000,-2.79961,-2.79961,-0.33443,-0.11488,1.19955,-0.76277,-0.27799,-2.88906,-2.88906,A,145301.60
1.28484,57.68833623,11.97995768,57.68833483,11.97995083,14:53:01.823780,0.00857,0.00000,0.00000,-0.11059,0.00000,0.00103,0.00074,0.00101,-0.05197,-0.11932,0.99308,1.27660,0.00000,-2.81303,-2.81303,-0.35584,-0.12304,1.19955,-0.76277,-0.27799,-2.88906,-2.88906,A,145301.60
1.29207,57.68833616,11.97995734,57.68833483,11.97995083,14:53:01.831005,0.00540,0.00000,0.00000,-0.11118,0.00000,-0.00049,0.00303,-0.00006,-0.05014,-0.11883,0.99338,1.28611,0.00000,-2.82443,-2.82443,-0.37619,-0.13078,1.19955,-0.76277,-0.27799,-2.88906,-2.88906,A,145301.60
1.33341,57.68833609,11.97995701,57.68833350,11.97993950,14:53:01.873024,0.03633,0.00000,0.00000,-0.11170,0.00000,0.00485,0.00257,-0.00006,-0.05301,-0.11749,0.99113,1.29661,0.00000,-2.83412,-2.83412,-0.39552,-0.13814,1.32600,-1.43638,-0.42625,-2.92495,-2.92495,A,145301.80
1.34988,57.68833596,11.97995614,57.68833350,11.97993950,14:53:01.888814,0.00607,0.00000,0.00000,-0.11239,0.00000,-0.00202,-0.00003,0.00056,-0.05045,-0.11986,0.99357,1.34418,0.00000,-2.84775,-2.84775,-0.44756,-0.15255,1.32600,-1.43638,-0.42625,-2.92495,-2.92495,A,145301.80
1.35951,57.68833584,11.97995530,57.68833350,11.97993950,14:53:01.898452,0.00530,0.00000,0.00000,-0.11293,0.00000,-0.00080,0.00104,0.00132,-0.05118,-0.11669,0.99393,1.35365,0.00000,-2.85933,-2.85933,-0.49700,-0.16623,1.32600,-1.43638,-0.42625,-2.92495,-2.92495,A,145301.80
1.36967,57.68833572,11.97995451,57.68833350,11.97993950,14:53:01.908595,0.00506,0.00000,0.00000,-0.11343,0.00000,0.00332,-0.00201,-0.00112,-0.05075,-0.11682,0.99296,1.36400,0.00000,-2.86917,-2.86917,-0.54397,-0.17923,1.32600,-1.43638,-0.42625,-2.92495,-2.92495,A,145301.80
1.38088,57.68833561,11.97995376,57.68833350,11.97993950,14:53:01.919810,0.00553,0.00000,0.00000,-0.11394,0.00000,0.00164,0.00150,-0.00128,-0.05252,-0.11724,0.99540,1.37491,0.00000,-2.87754,-2.87754,-0.58859,-0.19158,1.32600,-1.43638,-0.42625,-2.92495,-2.92495,A,145301.80
1.39231,57.68833550,11.97995305,57.68833350,11.97993950,14:53:01.931245,0.00656,0.00000,0.00000,-0.11447,0.00000,0.00012,-0.00033,0.00010,-0.04965,-0.11761,0.98863,1.38630,0.00000,-2.88465,-2.88465,-0.63098,-0.20332,1.32600,-1.43638,-0.42625,-2.92495,-2.92495,A,145301.80
1.40127,57.68833540,11.97995237,57.68833350,11.97993950,14:53:01.940200,0.00529,0.00000,0.00000,-0.11501,0.00000,-0.00187,-0.00354,0.00010,-0.05161,-0.11810,0.99180,1.39538,0.00000,-2.89070,-2.89070,-0.67125,-0.21446,1.32600,-1.43638,-0.42625,-2.92495,-2.92495,A,145301.80
1.41173,57.68833531,11.97995173,57.68833350,11.97993950,14:53:01.950662,0.00535,0.00000,0.00000,-0.11558,0.00000,-0.00156,-0.00033,-0.00067,-0.05331,-0.12023,0.99204,1.40581,0.00000,-2.89583,-2.89583,-0.70951,-0.22505,1.32600,-1.43638,-0.42625,-2.92495,-2.92495,A,145301.80
1.42185,57.68833522,11.97995112,57.68833350,11.97993950,14:53:01.960777,0.00507,0.00000,0.00000,-0.11609,0.00000,-0.00034,-0.00064,0.00086,-0.04898,-0.11730,0.98905,1.41619,0.00000,-2.90020,-2.90020,-0.74585,-0.23511,1.32600,-1.43638,-0.42625,-2.92495,-2.92495,A,145301.80
1.45430,57.68833513,11.97995054,57.68833250,11.97993400,14:53:01.993276,0.02695,0.00000,0.00000,-0.11656,0.00000,0.00195,0.00089,0.00056,-0.04843,-0.11755,0.99503,1.42658,0.00000,-2.90391,-2.90391,-0.78038,-0.24467,1.44383,-1.76328,-0.53744,-2.81372,-2.81372,A,145301.90
1.46905,57.68833500,11.97994971,57.68833250,11.97993400,14:53:02.007988,0.00815,0.00000,0.00000,-0.11709,0.00000,-0.00111,0.00303,-0.00051,-0.05106,-0.11785,0.99277,1.46240,0.00000,-2.89038,-2.89038,-0.82952,-0.25931,1.44383,-1.76328,-0.53744,-2.81372,-2.81372,A,145301.90
1.47672,57.68833488,11.97994892,57.68833250,11.97993400,14:53:02.015655,0.00521,0.00000,0.00000,-0.11759,0.00000,0.00073,0.00119,-0.00174,-0.05057,-0.11980,0.99290,1.47075,0.00000,-2.87888,-2.87888,-0.87621,-0.27322,1.44383,-1.76328,-0.53744,-2.81372,-2.81372,A,145301.90
1.48698,57.68833476,11.97994818,57.68833250,11.97993400,14:53:02.026155,0.00507,0.00000,0.00000,-0.11812,0.00000,-0.00340,-0.00171,0.00437,-0.05252,-0.11901,0.99393,1.48133,0.00000,-2.86911,-2.86911,-0.92056,-0.28643,1.44383,-1.76328,-0.53744,-2.81372,-2.81372,A,145301.90
1.49796,57.68833464,11.97994747,57.68833250,11.97993400,14:53:02.036887,0.00533,0.00000,0.00000,-0.11862,0.00000,-0.00126,0.00318,-0.00021,-0.05087,-0.11858,0.99168,1.49228,0.00000,-2.86080,-2.86080,-0.96270,-0.29898,1.44383,-1.76328,-0.53744,-2.81372,-2.81372,A,145301.90
1.50852,57.68833454,11.97994680,57.68833250,11.97993400,14:53:02.047451,0.00549,0.00000,0.00000,-0.11908,0.00000,-0.00340,0.00119,-0.00006,-0.05014,-0.11621,0.99345,1.50257,0.00000,-2.85374,-2.85374,-1.00273,-0.31090,1.44383,-1.76328,-0.53744,-2.81372,-2.81372,A,145301.90
1.51962,57.68833444,11.97994616,57.68833250,11.97993400,14:53:02.058569,0.00618,0.00000,0.00000,-0.11953,0.00000,0.00287,0.00119,0.00193,-0.05002,-0.11932,0.99253,1.51284,0.00000,-2.84774,-2.84774,-1.04076,-0.32223,1.44383,-1.76328,-0.53744,-2.81372,-2.81372,A,145301.90
1.52894,57.68833434,11.97994555,57.68833250,11.97993400,14:53:02.067867,0.00519,0.00000,0.00000,-0.12003,0.00000,-0.00111,-0.00018,-0.00204,-0.05191,-0.12035,0.99308,1.52298,0.00000,-2.84263,-2.84263,-1.07688,-0.33299,1.44383,-1.76328,-0.53744,-2.81372,-2.81372,A,145301.90
1.53947,57.68833425,11.97994497,57.68833250,11.97993400,14:53:02.078411,0.00532,0.00000,0.00000,-0.12046,0.00000,0.00256,0.00119,-0.00311,-0.05106,-0.11919,0.99296,1.53358,0.00000,-2.83830,-2.83830,-1.11120,-0.34321,1.44383,-1.76328,-0.53744,-2.81372,-2.81372,A,145301.90
1.57203,57.68833416,11.97994442,57.68833150,11.97992867,14:53:02.111637,0.02725,0.00000,0.00000,-0.12099,0.00000,-0.00828,-0.00232,-0.00006,-0.05100,-0.11858,0.99204,1.54426,0.00000,-2.83461,-2.83461,-1.14381,-0.35292,1.56048,-2.08027,-0.64864,-2.80422,-2.80422,A,145302.00
1.59266,57.68833403,11.97994363,57.68833150,11.97992867,14:53:02.131598,0.00874,0.00000,0.00000,-0.12138,0.00000,0.00119,0.00135,-0.00051,-0.05094,-0.11919,0.99363,1.58565,0.00000,-2.83005,-2.83005,-1.19063,-0.36771,1.56048,-2.08027,-0.64864,-2.80422,-2.80422,A,145302.00
1.60022,57.68833390,11.97994289,57.68833150,11.97992867,14:53:02.139149,0.00609,0.00000,0.00000,-0.12184,0.00000,-0.00034,-0.00461,-0.00555,-0.05094,-0.11993,0.99204,1.59356,0.00000,-2.82618,-2.82618,-1.23511,-0.38175,1.56048,-2.08027,-0.64864,-2.80422,-2.80422,A,145302.00
1.60979,57.68833378,11.97994218,57.68833150,11.97992867,14:53:02.148719,0.00525,0.00000,0.00000,-0.12225,0.00000,-0.00034,0.00013,-0.00112,-0.05069,-0.11730,0.99198,1.60372,0.00000,-2.82288,-2.82288,-1.27737,-0.39510,1.56048,-2.08027,-0.64864,-2.80422,-2.80422,A,145302.00
1.62027,57.68833367,11.97994150,57.68833150,11.97992867,14:53:02.159197,0.00533,0.00000,0.00000,-0.12262,0.00000,0.00210,0.00364,0.00101,-0.04886,-0.11767,0.99601,1.61434,0.00000,-2.82009,-2.82009,-1.31751,-0.40778,1.56048,-2.08027,-0.64864,-2.80422,-2.80422,A,145302.00
1.63040,57.68833356,11.97994086,57.68833150,11.97992867,14:53:02.169332,0.00506,0.00000,0.00000,-0.12303,0.00000,0.00287,0.00196,-0.00219,-0.05100,-0.11993,0.99198,1.62475,0.00000,-2.81771,-2.81771,-1.35565,-0.41982,1.56048,-2.08027,-0.64864,-2.80422,-2.80422,A,145302.00
1.64076,57.68833345,11.97994025,57.68833150,11.97992867,14:53:02.179693,0.00517,0.00000,0.00000,-0.12341,0.00000,0.00164,-0.00201,-0.00036,-0.05026,-0.11816,0.99186,1.63483,0.00000,-2.81568,-2.81568,-1.39188,-0.43126,1.56048,-2.08027,-0.64864,-2.80422,-2.80422,A,145302.00
1.65207,57.68833336,11.97993967,57.68833150,11.97992867,14:53:02.190997,0.00607,0.00000,0.00000,-0.12384,0.00000,-0.00279,0.00089,-0.00097,-0.04990,-0.11883,0.99186,1.64602,0.00000,-2.81396,-2.81396,-1.42630,-0.44213,1.56048,-2.08027,-0.64864,-2.80422,-2.80422,A,145302.00
1.68437,57.68833326,11.97993912,57.68833050,11.97992333,14:53:02.223339,0.02798,0.00000,0.00000,-0.12425,0.00000,-0.00049,-0.00751,0.00224,-0.05289,-0.11865,0.99143,1.65558,0.00000,-2.81250,-2.81250,-1.45900,-0.45245,1.67203,-2.39727,-0.75983,-2.80422,-2.80422,A,145302.10
1.69878,57.68833313,11.97993833,57.68833050,11.97992333,14:53:02.237702,0.00682,0.00000,0.00000,-0.12457,0.00000,0.00210,0.00074,-0.00006,-0.04947,-0.11919,0.99113,1.69309,0.00000,-2.81126,-2.81126,-1.50591,-0.46782,1.67203,-2.39727,-0.75983,-2.80422,-2.80422,A,145302.10
1.70853,57.68833299,11.97993758,57.68833050,11.97992333,14:53:02.247463,0.00617,0.00000,0.00000,-0.12492,0.00000,0.00317,-0.00049,-0.00387,-0.05142,-0.11865,0.99296,1.70208,0.00000,-2.81021,-2.81021,-1.55048,-0.48242,1.67203,-2.39727,-0.75983,-2.80422,-2.80422,A,145302.10
1.71783,57.68833287,11.97993687,57.68833050,11.97992333,14:53:02.256766,0.00508,0.00000,0.00000,-0.12526,0.00000,0.00256,0.00211,-0.00235,-0.04892,-0.11761,0.98911,1.71218,0.00000,-2.80931,-2.80931,-1.59282,-0.49629,1.67203,-2.39727,-0.75983,-2.80422,-2.80422,A,145302.10
1.72856,57.68833275,11.97993619,57.68833050,11.97992333,14:53:02.267493,0.00524,0.00000,0.00000,-0.12562,0.00000,0.00088,-0.00094,0.00193,-0.05209,-0.11785,0.99162,1.72255,0.00000,-2.80855,-2.80855,-1.63304,-0.50947,1.67203,-2.39727,-0.75983,-2.80422,-2.80422,A,145302.10
1.73881,57.68833264,11.97993555,57.68833050,11.97992333,14:53:02.277743,0.00508,0.00000,0.00000,-0.12595,0.00000,0.00119,0.00074,0.00285,-0.05112,-0.11730,0.99357,1.73316,0.00000,-2.80790,-2.80790,-1.67125,-0.52199,1.67203,-2.39727,-0.75983,-2.80422,-2.80422,A,145302.10
1.74927,57.68833253,11.97993494,57.68833050,11.97992333,14:53:02.288197,0.00514,0.00000,0.00000,-0.12629,0.00000,0.00225,-0.00079,0.00239,-0.05161,-0.11865,0.99174,1.74333,0.00000,-2.80735,-2.80735,-1.70756,-0.53388,1.67203,-2.39727,-0.75983,-2.80422,-2.80422,A,145302.10
1.76047,57.68833243,11.97993436,57.68833050,11.97992333,14:53:02.299408,0.00563,0.00000,0.00000,-0.12660,0.00000,0.00500,-0.00125,-0.00204,-0.05014,-0.11925,0.99448,1.75450,0.00000,-2.80688,-2.80688,-1.74204,-0.54518,1.67203,-2.39727,-0.75983,-2.80422,-2.80422,A,145302.10
1.77024,57.68833233,11.97993381,57.68833050,11.97992333,14:53:02.309168,0.00500,0.00000,0.00000,-0.12691,0.00000,0.00363,0.00028,-0.00158,-0.05051,-0.11791,0.99192,1.76459,0.00000,-2.80648,-2.80648,-1.77480,-0.55591,1.67203,-2.39727,-0.75983,-2.80422,-2.80422,A,145302.10
1.80394,57.68833224,11.97993328,57.68833117,11.97991700,14:53:02.342920,0.02841,0.00000,0.00000,-0.12725,0.00000,0.00164,0.00272,-0.00082,-0.05142,-0.11950,0.99418,1.77474,0.00000,-2.80614,-2.80614,-1.80593,-0.56611,1.79298,-2.77370,-0.68570,2.94715,2.94715,A,145302.20
1.82039,57.68833219,11.97993247,57.68833117,11.97991700,14:53:02.359325,0.00708,0.00000,0.00000,-0.12765,0.00000,-0.00172,0.00058,0.00101,-0.05136,-0.11816,0.99320,1.81440,0.00000,-1.94315,-1.94315,-1.85431,-0.57209,1.79298,-2.77370,-0.68570,2.94715,2.94715,A,145302.20
1.82871,57.68833214,11.97993169,57.68833117,11.97991700,14:53:02.367644,0.00517,0.00000,0.00000,-0.12802,0.00000,-0.00569,0.00104,-0.00067,-0.04984,-0.11743,0.99216,1.82278,0.00000,-1.20960,-1.20960,-1.90028,-0.57777,1.79298,-2.77370,-0.68570,2.94715,2.94715,A,145302.20
1.83904,57.68833209,11.97993096,57.68833117,11.97991700,14:53:02.378213,0.00509,0.00000,0.00000,-0.12834,0.00000,0.00134,0.00119,0.00147,-0.05039,-0.11901,0.99473,1.83339,0.00000,-0.58609,-0.58609,-1.94395,-0.58316,1.79298,-2.77370,-0.68570,2.94715,2.94715,A,145302.20
1.84943,57.68833204,11.97993026,57.68833117,11.97991700,14:53:02.388366,0.00509,0.00000,0.00000,-0.12862,0.00000,0.00195,0.00013,-0.00265,-0.05136,-0.11688,0.99332,1.84355,0.00000,-0.05610,-0.05610,-1.98544,-0.58829,1.79298,-2.77370,-0.68570,2.94715,2.94715,A,145302.20
1.86016,57.68833200,11.97992960,57.68833117,11.97991700,14:53:02.399089,0.00541,0.00000,0.00000,-0.12894,0.00000,0.00057,0.00287,0.00010,-0.04917,-0.11932,0.99320,1.85423,0.00000,0.39439,0.39439,-2.02485,-0.59316,1.79298,-2.77370,-0.68570,2.94715,2.94715,A,145302.20
1.87020,57.68833196,11.97992897,57.68833117,11.97991700,14:53:02.409126,0.00505,0.00000,0.00000,-0.12927,0.00000,0.00103,0.00181,-0.00021,-0.04965,-0.12023,0.99216,1.86456,0.00000,0.77730,0.77730,-2.06230,-0.59779,1.79298,-2.77370,-0.68570,2.94715,2.94715,A,145302.20
1.88100,57.68833192,11.97992837,57.68833117,11.97991700,14:53:02.419929,0.00537,0.00000,0.00000,-0.12962,0.00000,-0.00172,0.00318,0.00025,-0.04959,-0.11938,0.99174,1.87486,0.00000,1.10278,1.10278,-2.09787,-0.60218,1.79298,-2.77370,-0.68570,2.94715,2.94715,A,145302.20
1.89211,57.68833188,11.97992780,57.68833117,11.97991700,14:53:02.431048,0.00609,0.00000,0.00000,-0.12988,0.00000,0.00241,0.00043,0.00208,-0.05173,-0.11755,0.99186,1.88616,0.00000,1.37943,1.37943,-2.13166,-0.60636,1.79298,-2.77370,-0.68570,2.94715,2.94715,A,145302.20
1.93332,57.68833184,11.97992726,57.68833383,11.97991633,14:53:02.472913,0.03704,0.00000,0.00000,-0.13022,0.00000,-0.00447,0.00028,0.00361,-0.04996,-0.11791,0.99186,1.89555,0.00000,1.61459,1.61459,-2.16376,-0.61033,1.92230,-2.81332,-0.38918,1.70364,1.70364,A,145302.40
1.95256,57.68833194,11.97992672,57.68833383,11.97991633,14:53:02.491491,0.00619,0.00000,0.00000,-0.13053,0.00000,0.00012,0.00181,0.00132,-0.05014,-0.11974,0.99015,1.94655,0.00000,1.62795,1.62795,-2.19624,-0.59927,1.92230,-2.81332,-0.38918,1.70364,1.70364,A,145302.40
1.96190,57.68833204,11.97992620,57.68833383,11.97991633,14:53:02.500826,0.00506,0.00000,0.00000,-0.13083,0.00000,0.00027,0.00257,0.00010,-0.05209,-0.11907,0.99284,1.95625,0.00000,1.63930,1.63930,-2.22709,-0.58877,1.92230,-2.81332,-0.38918,1.70364,1.70364,A,145302.40
1.97255,57.68833213,11.97992570,57.68833383,11.97991633,14:53:02.511480,0.00516,0.00000,0.00000,-0.13109,0.00000,0.00134,-0.00201,-0.00082,-0.05057,-0.11779,0.99216,1.96660,0.00000,1.64895,1.64895,-2.25640,-0.57879,1.92230,-2.81332,-0.38918,1.70364,1.70364,A,145302.40
1.98352,57.68833221,11.97992523,57.68833383,11.97991633,14:53:02.522472,0.00574,0.00000,0.00000,-0.13141,0.00000,-0.00294,0.00150,0.00162,-0.05191,-0.11895,0.99229,1.97745,0.00000,1.65716,1.65716,-2.28425,-0.56931,1.92230,-2.81332,-0.38918,1.70364,1.70364,A,145302.40
1.99469,57.68833229,11.97992479,57.68833383,11.97991633,14:53:02.533622,0.00651,0.00000,0.00000,-0.13168,0.00000,0.00088,-0.00369,-0.00036,-0.05081,-0.11816,0.98911,1.98823,0.00000,1.66413,1.66413,-2.31070,-0.56030,1.92230,-2.81332,-0.38918,1.70364,1.70364,A,145302.40
2.00434,57.68833237,11.97992437,57.68833383,11.97991633,14:53:02.543267,0.00554,0.00000,0.00000,-0.13195,0.00000,-0.00217,-0.00018,0.00010,-0.05179,-0.11633,0.99308,1.99838,0.00000,1.67006,1.67006,-2.33583,-0.55174,1.92230,-2.81332,-0.38918,1.70364,1.70364,A,145302.40
2.01630,57.68833244,11.97992397,57.68833383,11.97991633,14:53:02.555281,0.00710,0.00000,0.00000,-0.13224,0.00000,-0.00080,-0.00155,-0.00067,-0.04898,-0.11968,0.99186,2.00859,0.00000,1.67509,1.67509,-2.35971,-0.54362,1.92230,-2.81332,-0.38918,1.70364,1.70364,A,145302.40
2.04661,57.68833251,11.97992358,57.68833617,11.97991850,14:53:02.585562,0.02686,0.00000,0.00000,-0.13257,0.00000,-0.00385,-0.00217,0.00269,-0.05094,-0.12005,0.99204,2.01909,0.00000,1.67938,1.67938,-2.38239,-0.53589,2.03588,-2.68454,-0.12973,1.11008,1.11008,A,145302.50
2.06572,57.68833270,11.97992333,57.68833617,11.97991850,14:53:02.604645,0.00698,0.00000,0.00000,-0.13291,0.00000,-0.00126,0.00028,0.00178,-0.05179,-0.12029,0.99265,2.05979,0.00000,1.59398,1.59398,-2.39750,-0.51559,2.03588,-2.68454,-0.12973,1.11008,1.11008,A,145302.50
2.07417,57.68833287,11.97992309,57.68833617,11.97991850,14:53:02.613103,0.00504,0.00000,0.00000,-0.13318,0.00000,-0.00477,0.00028,-0.00158,-0.05191,-0.11669,0.99198,2.06852,0.00000,1.52140,1.52140,-2.41185,-0.49629,2.03588,-2.68454,-0.12973,1.11008,1.11008,A,145302.50
2.08464,57.68833303,11.97992286,57.68833617,11.97991850,14:53:02.623574,0.00522,0.00000,0.00000,-0.13348,0.00000,-0.00217,-0.00049,0.00025,-0.05051,-0.12023,0.99302,2.07868,0.00000,1.45970,1.45970,-2.42548,-0.47796,2.03588,-2.68454,-0.12973,1.11008,1.11008,A,145302.50
2.09572,57.68833319,11.97992264,57.68833617,11.97991850,14:53:02.634659,0.00590,0.00000,0.00000,-0.13378,0.00000,-0.00340,-0.00018,0.00117,-0.05130,-0.11925,0.99149,2.08978,0.00000,1.40725,1.40725,-2.43844,-0.46055,2.03588,-2.68454,-0.12973,1.11008,1.11008,A,145302.50
2.10561,57.68833334,11.97992243,57.68833617,11.97991850,14:53:02.644542,0.00556,0.00000,0.00000,-0.13397,0.00000,0.00455,-0.00094,0.00117,-0.05002,-0.11773,0.99229,2.09965,0.00000,1.36268,1.36268,-2.45074,-0.44401,2.03588,-2.68454,-0.12973,1.11008,1.11008,A,145302.50
2.11675,57.68833348,11.97992224,57.68833617,11.97991850,14:53:02.655679,0.00630,0.00000,0.00000,-0.13425,0.00000,-0.00324,-0.00186,0.00117,-0.04941,-0.11913,0.99302,2.10996,0.00000,1.32479,1.32479,-2.46243,-0.42830,2.03588,-2.68454,-0.12973,1.11008,1.11008,A,145302.50
2.12592,57.68833362,11.97992205,57.68833617,11.97991850,14:53:02.664851,0.00507,0.00000,0.00000,-0.13452,0.00000,-0.00080,-0.00217,0.00285,-0.04868,-0.12011,0.99253,2.12026,0.00000,1.29258,1.29258,-2.47354,-0.41337,2.03588,-2.68454,-0.12973,1.11008,1.11008,A,145302.50
2.15930,57.68833374,11.97992187,57.68833883,11.97992083,14:53:02.698270,0.02790,0.00000,0.00000,-0.13481,0.00000,-0.00340,-0.00125,0.00101,-0.05289,-0.12041,0.99198,2.13063,0.00000,1.26521,1.26521,-2.48409,-0.39919,2.14727,-2.54586,0.16679,1.13331,1.13331,A,145302.60
2.17730,57.68833400,11.97992182,57.68833883,11.97992083,14:53:02.716238,0.00670,0.00000,0.00000,-0.13500,0.00000,0.00103,-0.00278,-0.00097,-0.05002,-0.11834,0.99180,2.17134,0.00000,1.24542,1.24542,-2.48718,-0.37089,2.14727,-2.54586,0.16679,1.13331,1.13331,A,145302.60
2.18607,57.68833424,11.97992177,57.68833883,11.97992083,14:53:02.724998,0.00507,0.00000,0.00000,-0.13525,0.00000,-0.00111,0.00379,0.00025,-0.05118,-0.11950,0.99338,2.18039,0.00000,1.22861,1.22861,-2.49011,-0.34400,2.14727,-2.54586,0.16679,1.13331,1.13331,A,145302.60
2.19738,57.68833447,11.97992172,57.68833883,11.97992083,14:53:02.736311,0.00586,0.00000,0.00000,-0.13549,0.00000,-0.00065,-0.00201,0.00086,-0.04923,-0.11962,0.99253,2.19125,0.00000,1.21431,1.21431,-2.49290,-0.31846,2.14727,-2.54586,0.16679,1.13331,1.13331,A,145302.60
2.20780,57.68833469,11.97992168,57.68833883,11.97992083,14:53:02.746734,0.00559,0.00000,0.00000,-0.13571,0.00000,-0.00080,-0.00003,-0.00082,-0.05161,-0.11791,0.99046,2.20167,0.00000,1.20216,1.20216,-2.49555,-0.29420,2.14727,-2.54586,0.16679,1.13331,1.13331,A,145302.60
2.21765,57.68833489,11.97992164,57.68833883,11.97992083,14:53:02.756582,0.00504,0.00000,0.00000,-0.13590,0.00000,0.00271,-0.00385,0.00056,-0.04978,-0.11834,0.99186,2.21180,0.00000,1.19184,1.19184,-2.49806,-0.27115,2.14727,-2.54586,0.16679,1.13331,1.13331,A,145302.60
2.22895,57.68833509,11.97992160,57.68833883,11.97992083,14:53:02.767877,0.00530,0.00000,0.00000,-0.13616,0.00000,-0.00355,-0.00003,-0.00296,-0.05197,-0.11974,0.99314,2.22299,0.00000,1.18306,1.18306,-2.50045,-0.24925,2.14727,-2.54586,0.16679,1.13331,1.13331,A,145302.60
2.23996,57.68833528,11.97992156,57.68833883,11.97992083,14:53:02.778900,0.00565,0.00000,0.00000,-0.13636,0.00000,-0.00034,-0.00049,-0.00051,-0.05301,-0.11773,0.99229,2.23395,0.00000,1.17560,1.17560,-2.50272,-0.22845,2.14727,-2.54586,0.16679,1.13331,1.13331,A,145302.60
2.27281,57.68833546,11.97992152,57.68834133,11.97992267,14:53:02.811773,0.02810,0.00000,0.00000,-0.13659,0.00000,-0.00034,-0.00110,-0.00082,-0.05106,-0.11986,0.99271,2.24410,0.00000,1.16925,1.16925,-2.50488,-0.20869,2.26106,-2.43689,0.44478,1.19722,1.19722,A,145302.70
2.29027,57.68833575,11.97992158,57.68834133,11.97992267,14:53:02.829193,0.00728,0.00000,0.00000,-0.13672,0.00000,0.00180,-0.00049,0.00056,-0.05185,-0.11852,0.99229,2.28458,0.00000,1.17345,1.17345,-2.50148,-0.17602,2.26106,-2.43689,0.44478,1.19722,1.19722,A,145302.70
2.29960,57.68833603,11.97992163,57.68834133,11.97992267,14:53:02.838541,0.00622,0.00000,0.00000,-0.13687,0.00000,0.00164,0.00089,-0.00036,-0.05179,-0.11590,0.99290,2.29283,0.00000,1.17701,1.17701,-2.49825,-0.14498,2.26106,-2.43689,0.44478,1.19722,1.19722,A,145302.70
2.30949,57.68833629,11.97992169,57.68834133,11.97992267,14:53:02.848425,0.00587,0.00000,0.00000,-0.13704,0.00000,0.00195,-0.00094,-0.00143,-0.05081,-0.11816,0.99247,2.30359,0.00000,1.18004,1.18004,-2.49518,-0.11549,2.26106,-2.43689,0.44478,1.19722,1.19722,A,145302.70
2.31934,57.68833655,11.97992174,57.68834133,11.97992267,14:53:02.858283,0.00532,0.00000,0.00000,-0.13726,0.00000,-0.00217,-0.00018,0.00086,-0.05325,-0.11846,0.98960,2.31346,0.00000,1.18262,1.18262,-2.49227,-0.08748,2.26106,-2.43689,0.44478,1.19722,1.19722,A,145302.70
2.32950,57.68833679,11.97992178,57.68834133,11.97992267,14:53:02.868432,0.00508,0.00000,0.00000,-0.13749,0.00000,-0.00263,0.00181,0.00071,-0.05051,-0.11919,0.99235,2.32363,0.00000,1.18481,1.18481,-2.48950,-0.06086,2.26106,-2.43689,0.44478,1.19722,1.19722,A,145302.70
2.34032,57.68833701,11.97992183,57.68834133,11.97992267,14:53:02.879246,0.00550,0.00000,0.00000,-0.13769,0.00000,0.00225,0.00333,-0.00265,-0.05057,-0.12078,0.99155,2.33422,0.00000,1.18667,1.18667,-2.48687,-0.03558,2.26106,-2.43689,0.44478,1.19722,1.19722,A,145302.70
2.35026,57.68833723,11.97992187,57.68834133,11.97992267,14:53:02.889184,0.00503,0.00000,0.00000,-0.13786,0.00000,0.00119,0.00257,0.00132,-0.05252,-0.11858,0.98985,2.34459,0.00000,1.18825,1.18825,-2.48437,-0.01156,2.26106,-2.43689,0.44478,1.19722,1.19722,A,145302.70
2.36073,57.68833743,11.97992191,57.68834133,11.97992267,14:53:02.899655,0.00520,0.00000,0.00000,-0.13802,0.00000,0.00271,-0.00094,0.00101,-0.05148,-0.11828,0.99253,2.35475,0.00000,1.18960,1.18960,-2.48199,0.01125,2.26106,-2.43689,0.44478,1.19722,1.19722,A,145302.70
2.39025,57.68833763,11.97992195,57.68834367,11.97992250,14:53:02.929196,0.02433,0.00000,0.00000,-0.13818,0.00000,0.00149,0.00089,0.00086,-0.05142,-0.11865,0.99235,2.36541,0.00000,1.19074,1.19074,-2.47974,0.03293,2.38193,-2.44680,0.70423,1.60896,1.60896,A,145302.80
2.40803,57.68833793,11.97992197,57.68834367,11.97992250,14:53:02.946958,0.00627,0.00000,0.00000,-0.13830,0.00000,0.00180,0.00028,-0.00189,-0.05161,-0.11889,0.99155,2.40124,0.00000,1.25347,1.25347,-2.47809,0.06650,2.38193,-2.44680,0.70423,1.60896,1.60896,A,145302.80
2.41729,57.68833822,11.97992200,57.68834367,11.97992250,14:53:02.956223,0.00529,0.00000,0.00000,-0.13848,0.00000,0.00119,-0.00110,-0.00128,-0.04874,-0.11968,0.99198,2.41134,0.00000,1.30680,1.30680,-2.47653,0.09838,2.38193,-2.44680,0.70423,1.60896,1.60896,A,145302.80
2.42774,57.68833849,11.97992202,57.68834367,11.97992250,14:53:02.966679,0.00534,0.00000,0.00000,-0.13869,0.00000,-0.00248,-0.00247,-0.00112,-0.05069,-0.11932,0.99406,2.42184,0.00000,1.35212,1.35212,-2.47504,0.12868,2.38193,-2.44680,0.70423,1.60896,1.60896,A,145302.80
2.43797,57.68833875,11.97992205,57.68834367,11.97992250,14:53:02.976904,0.00517,0.00000,0.00000,-0.13888,0.00000,-0.00202,0.00074,0.00132,-0.05344,-0.11810,0.99277,2.43230,0.00000,1.39065,1.39065,-2.47363,0.15745,2.38193,-2.44680,0.70423,1.60896,1.60896,A,145302.80
2.44871,57.68833900,11.97992207,57.68834367,11.97992250,14:53:02.987648,0.00535,0.00000,0.00000,-0.13903,0.00000,0.00119,0.00181,-0.00311,-0.05283,-0.11883,0.99296,2.44258,0.00000,1.42339,1.42339,-2.47229,0.18479,2.38193,-2.44680,0.70423,1.60896,1.60896,A,145302.80
2.46003,57.68833923,11.97992209,57.68834367,11.97992250,14:53:02.998960,0.00626,0.00000,0.00000,-0.13921,0.00000,0.00042,0.00181,-0.00296,-0.05191,-0.11986,0.99375,2.45402,0.00000,1.45123,1.45123,-2.47101,0.21076,2.38193,-2.44680,0.70423,1.60896,1.60896,A,145302.80
2.46929,57.68833945,11.97992211,57.68834367,11.97992250,14:53:03.008217,0.00512,0.00000,0.00000,-0.13932,0.00000,0.00287,0.00211,-0.00265,-0.05136,-0.11706,0.99345,2.46337,0.00000,1.47489,1.47489,-2.46980,0.23544,2.38193,-2.44680,0.70423,1.60896,1.60896,A,145302.80
2.47994,57.68833966,11.97992213,57.68834367,11.97992250,14:53:03.019109,0.00537,0.00000,0.00000,-0.13946,0.00000,0.00225,0.00028,0.00071,-0.05008,-0.11828,0.99094,2.47399,0.00000,1.49500,1.49500,-2.46865,0.25888,2.38193,-2.44680,0.70423,1.60896,1.60896,A,145302.80
2.50922,57.68833986,11.97992215,57.68834483,11.97991950,14:53:03.048183,0.02425,0.00000,0.00000,-0.13964,0.00000,-0.00340,-0.00094,0.00040,-0.05148,-0.11797,0.99320,2.48452,0.00000,1.51209,1.51209,-2.46756,0.28115,2.50089,-2.62511,0.83396,2.51262,2.51262,A,145302.90
2.52864,57.68834011,11.97992202,57.68834483,11.97991950,14:53:03.067580,0.00642,0.00000,0.00000,-0.13983,0.00000,-0.00111,0.00379,-0.00464,-0.05100,-0.11773,0.99058,2.52266,0.00000,1.66217,1.66217,-2.47544,0.30879,2.50089,-2.62511,0.83396,2.51262,2.51262,A,145302.90
2.53767,57.68834035,11.97992189,57.68834483,11.97991950,14:53:03.076594,0.00504,0.00000,0.00000,-0.13998,0.00000,-0.00156,0.00089,-0.00387,-0.04917,-0.11675,0.98911,2.53201,0.00000,1.78974,1.78974,-2.48292,0.33505,2.50089,-2.62511,0.83396,2.51262,2.51262,A,145302.90
2.54852,57.68834057,11.97992177,57.68834483,11.97991950,14:53:03.087452,0.00549,0.00000,0.00000,-0.14014,0.00000,-0.00049,0.00074,0.00269,-0.05295,-0.11895,0.99296,2.54244,0.00000,1.89817,1.89817,-2.49003,0.35999,2.50089,-2.62511,0.83396,2.51262,2.51262,A,145302.90
2.55853,57.68834078,11.97992166,57.68834483,11.97991950,14:53:03.097460,0.00510,0.00000,0.00000,-0.14025,0.00000,0.00180,0.00181,0.00407,-0.05173,-0.11694,0.99021,2.55287,0.00000,1.99034,1.99034,-2.49678,0.38369,2.50089,-2.62511,0.83396,2.51262,2.51262,A,145302.90
2.56885,57.68834099,11.97992155,57.68834483,11.97991950,14:53:03.107777,0.00518,0.00000,0.00000,-0.14040,0.00000,-0.00095,0.00104,-0.00082,-0.05228,-0.11767,0.99107,2.56291,0.00000,2.06868,2.06868,-2.50320,0.40620,2.50089,-2.62511,0.83396,2.51262,2.51262,A,145302.90
2.58007,57.68834118,11.97992145,57.68834483,11.97991950,14:53:03.119030,0.00600,0.00000,0.00000,-0.14055,0.00000,-0.00263,0.00303,0.00285,-0.05215,-0.11706,0.99040,2.57349,0.00000,2.13527,2.13527,-2.50929,0.42759,2.50089,-2.62511,0.83396,2.51262,2.51262,A,145302.90
2.58956,57.68834136,11.97992135,57.68834483,11.97991950,14:53:03.128490,0.00509,0.00000,0.00000,-0.14072,0.00000,-0.00156,0.00119,-0.00006,-0.05173,-0.11907,0.99088,2.58367,0.00000,2.19187,2.19187,-2.51508,0.44791,2.50089,-2.62511,0.83396,2.51262,2.51262,A,145302.90
2.60029,57.68834154,11.97992126,57.68834483,11.97991950,14:53:03.139221,0.00536,0.00000,0.00000,-0.14082,0.00000,0.00455,0.00226,0.00208,-0.04849,-0.11925,0.99332,2.59434,0.00000,2.23999,2.23999,-2.52059,0.46721,2.50089,-2.62511,0.83396,2.51262,2.51262,A,145302.90
2.64220,57.68834170,11.97992117,57.68834800,11.97991150,14:53:03.181153,0.03668,0.00000,0.00000,-0.14099,0.00000,0.00088,0.00211,0.00025,-0.04990,-0.12127,0.99296,2.60506,0.00000,2.28088,2.28088,-2.52581,0.48555,2.63192,-3.10060,1.18608,2.50418,2.50418,A,145303.10
2.66154,57.68834201,11.97992069,57.68834800,11.97991150,14:53:03.200476,0.00629,0.00000,0.00000,-0.14117,0.00000,-0.00065,-0.00033,-0.00174,-0.05045,-0.11932,0.99009,2.65565,0.00000,2.31438,2.31438,-2.55455,0.52058,2.63192,-3.10060,1.18608,2.50418,2.50418,A,145303.10
2.67073,57.68834231,11.97992023,57.68834800,11.97991150,14:53:03.209658,0.00507,0.00000,0.00000,-0.14125,0.00000,0.00485,0.00196,0.00300,-0.05197,-0.11816,0.99149,2.66508,0.00000,2.34285,2.34285,-2.58185,0.55385,2.63192,-3.10060,1.18608,2.50418,2.50418,A,145303.10
2.68136,57.68834260,11.97991979,57.68834800,11.97991150,14:53:03.220291,0.00547,0.00000,0.00000,-0.14138,0.00000,0.00073,0.00165,-0.00174,-0.05283,-0.11883,0.99399,2.67514,0.00000,2.36705,2.36705,-2.60779,0.58546,2.63192,-3.10060,1.18608,2.50418,2.50418,A,145303.10
2.69181,57.68834287,11.97991938,57.68834800,11.97991150,14:53:03.230746,0.00551,0.00000,0.00000,-0.14156,0.00000,-0.00095,0.00394,0.00071,-0.05289,-0.12145,0.99235,2.68571,0.00000,2.38762,2.38762,-2.63243,0.61549,2.63192,-3.10060,1.18608,2.50418,2.50418,A,145303.10
2.70202,57.68834313,11.97991898,57.68834800,11.97991150,14:53:03.240951,0.00533,0.00000,0.00000,-0.14172,0.00000,-0.00202,0.00196,-0.00036,-0.05136,-0.11919,0.99357,2.69609,0.00000,2.40510,2.40510,-2.65584,0.64402,2.63192,-3.10060,1.18608,2.50418,2.50418,A,145303.10
2.71290,57.68834337,11.97991861,57.68834800,11.97991150,14:53:03.251830,0.00541,0.00000,0.00000,-0.14185,0.00000,-0.00095,0.00150,-0.00204,-0.04825,-0.11858,0.99357,2.70694,0.00000,2.41996,2.41996,-2.67808,0.67113,2.63192,-3.10060,1.18608,2.50418,2.50418,A,145303.10
2.72297,57.68834360,11.97991825,57.68834800,11.97991150,14:53:03.262146,0.00508,0.00000,0.00000,-0.14198,0.00000,0.00057,-0.00094,-0.00158,-0.05112,-0.11895,0.99204,2.71733,0.00000,2.43259,2.43259,-2.69920,0.69687,2.63192,-3.10060,1.18608,2.50418,2.50418,A,145303.10
2.75572,57.68834382,11.97991792,57.68834950,11.97990700,14:53:03.294994,0.02743,0.00000,0.00000,-0.14207,0.00000,0.00042,-0.00323,-0.00158,-0.05209,-0.11724,0.99442,2.72750,0.00000,2.44333,2.44333,-2.71927,0.72133,2.74393,-3.36806,1.35287,2.58400,2.58400,A,145303.20
2.77215,57.68834410,11.97991737,57.68834950,11.97990700,14:53:03.311085,0.00717,0.00000,0.00000,-0.14230,0.00000,-0.00355,0.00028,0.00025,-0.05276,-0.11669,0.99131,2.76616,0.00000,2.46443,2.46443,-2.75171,0.75291,2.74393,-3.36806,1.35287,2.58400,2.58400,A,145303.20
2.78068,57.68834437,11.97991685,57.68834950,11.97990700,14:53:03.319856,0.00517,0.00000,0.00000,-0.14239,0.00000,0.00241,-0.00079,-0.00036,-0.04953,-0.11816,0.98979,2.77473,0.00000,2.48237,2.48237,-2.78253,0.78291,2.74393,-3.36806,1.35287,2.58400,2.58400,A,145303.20
2.79098,57.68834463,11.97991636,57.68834950,11.97990700,14:53:03.330160,0.00507,0.00000,0.00000,-0.14252,0.00000,-0.00248,0.00211,0.00315,-0.05020,-0.11779,0.99210,2.78533,0.00000,2.49761,2.49761,-2.81181,0.81141,2.74393,-3.36806,1.35287,2.58400,2.58400,A,145303.20
2.80166,57.68834487,11.97991589,57.68834950,11.97990700,14:53:03.340591,0.00535,0.00000,0.00000,-0.14263,0.00000,0.00302,0.00471,0.00208,-0.05075,-0.11986,0.99174,2.79551,0.00000,2.51057,2.51057,-2.83962,0.83848,2.74393,-3.36806,1.35287,2.58400,2.58400,A,145303.20
2.81363,57.68834511,11.97991545,57.68834950,11.97990700,14:53:03.352557,0.00691,0.00000,0.00000,-0.14273,0.00000,0.00103,-0.00217,-0.00158,-0.04990,-0.11846,0.99229,2.80695,0.00000,2.52158,2.52158,-2.86604,0.86420,2.74393,-3.36806,1.35287,2.58400,2.58400,A,145303.20
2.82216,57.68834533,11.97991502,57.68834950,11.97990700,14:53:03.361086,0.00505,0.00000,0.00000,-0.14285,0.00000,0.00012,0.00104,-0.00143,-0.05240,-0.11938,0.99040,2.81649,0.00000,2.53094,2.53094,-2.89114,0.88863,2.74393,-3.36806,1.35287,2.58400,2.58400,A,145303.20
2.83268,57.68834553,11.97991462,57.68834950,11.97990700,14:53:03.371609,0.00516,0.00000,0.00000,-0.14294,0.00000,0.00256,0.00135,-0.00494,-0.05185,-0.11871,0.99149,2.82674,0.00000,2.53890,2.53890,-2.91499,0.91185,2.74393,-3.36806,1.35287,2.58400,2.58400,A,145303.20
2.84299,57.68834573,11.97991424,57.68834950,11.97990700,14:53:03.382168,0.00508,0.00000,0.00000,-0.14311,0.00000,-0.00538,0.00196,-0.00036,-0.05167,-0.11938,0.99137,2.83734,0.00000,2.54567,2.54567,-2.93764,0.93390,2.74393,-3.36806,1.35287,2.58400,2.58400,A,145303.20
2.87600,57.68834592,11.97991388,57.68835083,11.97990083,14:53:03.414974,0.02769,0.00000,0.00000,-0.14325,0.00000,-0.00095,0.00119,-0.00112,-0.05252,-0.11974,0.99064,2.84752,0.00000,2.55141,2.55141,-2.95916,0.95485,2.86412,-3.73458,1.50113,2.75721,2.75721,A,145303.30
2.89371,57.68834617,11.97991323,57.68835083,11.97990083,14:53:03.432648,0.00647,0.00000,0.00000,-0.14344,0.00000,-0.00233,-0.00003,-0.00174,-0.05026,-0.11865,0.99259,2.88724,0.00000,2.58228,2.58228,-2.99793,0.98216,2.86412,-3.73458,1.50113,2.75721,2.75721,A,145303.30
2.90332,57.68834640,11.97991261,57.68835083,11.97990083,14:53:03.442266,0.00567,0.00000,0.00000,-0.14355,0.00000,0.00287,-0.00018,0.00117,-0.05002,-0.12066,0.99125,2.89709,0.00000,2.60852,2.60852,-3.03477,1.00811,2.86412,-3.73458,1.50113,2.75721,2.75721,A,145303.30
2.91379,57.68834662,11.97991202,57.68835083,11.97990083,14:53:03.452729,0.00591,0.00000,0.00000,-0.14363,0.00000,-0.00049,0.00013,0.00040,-0.05313,-0.11718,0.99113,2.90727,0.00000,2.63083,2.63083,-3.06976,1.03276,2.86412,-3.73458,1.50113,2.75721,2.75721,A,145303.30
2.92421,57.68834683,11.97991146,57.68835083,11.97990083,14:53:03.463138,0.00593,0.00000,0.00000,-0.14365,0.00000,0.00287,0.00226,-0.00204,-0.05215,-0.11480,0.98893,2.91825,0.00000,2.64978,2.64978,-3.10300,1.05618,2.86412,-3.73458,1.50113,2.75721,2.75721,A,145303.30
2.93378,57.68834703,11.97991093,57.68835083,11.97990083,14:53:03.472707,0.00510,0.00000,0.00000,-0.14372,0.00000,0.00256,0.00104,-0.00036,-0.05203,-0.11925,0.99436,2.92809,0.00000,2.66590,2.66590,-3.13458,1.07843,2.86412,-3.73458,1.50113,2.75721,2.75721,A,145303.30
2.94446,57.68834722,11.97991042,57.68835083,11.97990083,14:53:03.483391,0.00519,0.00000,0.00000,-0.14378,0.00000,0.00195,0.00043,0.00208,-0.05173,-0.11730,0.99296,2.93849,0.00000,2.67960,2.67960,-3.16458,1.09956,2.86412,-3.73458,1.50113,2.75721,2.75721,A,145303.30
2.95476,57.68834740,11.97990994,57.68835083,11.97990083,14:53:03.493685,0.00509,0.00000,0.00000,-0.14386,0.00000,-0.00065,-0.00247,0.00178,-0.05087,-0.11700,0.99277,2.94909,0.00000,2.69124,2.69124,-3.19308,1.11964,2.86412,-3.73458,1.50113,2.75721,2.75721,A,145303.30
2.98701,57.68834757,11.97990949,57.68835183,11.97989983,14:53:03.526160,0.02711,0.00000,0.00000,-0.14393,0.00000,0.00302,0.00257,-0.00006,-0.05142,-0.11834,0.98680,2.95914,0.00000,2.70113,2.70113,-3.22015,1.13871,2.97559,-3.79402,1.61233,2.06168,2.06168,A,145303.40
3.00470,57.68834779,11.97990901,57.68835183,11.97989983,14:53:03.543626,0.00679,0.00000,0.00000,-0.14413,0.00000,-0.00263,0.00058,0.00162,-0.04788,-0.11907,0.99259,2.99865,0.00000,2.60522,2.60522,-3.24885,1.16239,2.97559,-3.79402,1.61233,2.06168,2.06168,A,145303.40
3.01375,57.68834799,11.97990855,57.68835183,11.97989983,14:53:03.552687,0.00553,0.00000,0.00000,-0.14419,0.00000,0.00119,0.00028,0.00025,-0.05124,-0.11724,0.99320,3.00743,0.00000,2.52369,2.52369,-3.27611,1.18489,2.97559,-3.79402,1.61233,2.06168,2.06168,A,145303.40
3.02469,57.68834818,11.97990811,57.68835183,11.97989983,14:53:03.563625,0.00607,0.00000,0.00000,-0.14428,0.00000,-0.00187,-0.00385,-0.00372,-0.05191,-0.11730,0.99064,3.01870,0.00000,2.45438,2.45438,-3.30200,1.20626,2.97559,-3.79402,1.61233,2.06168,2.06168,A,145303.40
3.03408,57.68834836,11.97990770,57.68835183,11.97989983,14:53:03.573009,0.00506,0.00000,0.00000,-0.14438,0.00000,0.00134,0.00089,0.00010,-0.04898,-0.12029,0.99174,3.02841,0.00000,2.39548,2.39548,-3.32660,1.22657,2.97559,-3.79402,1.61233,2.06168,2.06168,A,145303.40
3.04468,57.68834854,11.97990730,57.68835183,11.97989983,14:53:03.583610,0.00516,0.00000,0.00000,-0.14447,0.00000,-0.00065,-0.00140,-0.00265,-0.05045,-0.11804,0.99082,3.03874,0.00000,2.34541,2.34541,-3.34997,1.24585,2.97559,-3.79402,1.61233,2.06168,2.06168,A,145303.40
3.05498,57.68834870,11.97990693,57.68835183,11.97989983,14:53:03.594309,0.00506,0.00000,0.00000,-0.14454,0.00000,0.00012,-0.00278,-0.00021,-0.04874,-0.11761,0.99082,3.04933,0.00000,2.30285,2.30285,-3.37218,1.26418,2.97559,-3.79402,1.61233,2.06168,2.06168,A,145303.40
3.06544,57.68834886,11.97990658,57.68835183,11.97989983,14:53:03.604366,0.00512,0.00000,0.00000,-0.14462,0.00000,0.00103,-0.00033,-0.00143,-0.05222,-0.11925,0.99174,3.05955,0.00000,2.26667,2.26667,-3.39327,1.28159,2.97559,-3.79402,1.61233,2.06168,2.06168,A,145303.40
3.09756,57.68834901,11.97990624,57.68835300,11.97989800,14:53:03.636513,0.02684,0.00000,0.00000,-0.14469,0.00000,-0.00126,-0.00186,0.00208,-0.05258,-0.11688,0.99216,3.07013,0.00000,2.23593,2.23593,-3.41331,1.29812,3.08687,-3.90299,1.74205,2.26944,2.26944,A,145303.50
3.11498,57.68834921,11.97990583,57.68835300,11.97989800,14:53:03.654458,0.00625,0.00000,0.00000,-0.14460,0.00000,0.00348,0.00104,-0.00036,-0.04923,-0.11602,0.99345,3.10929,0.00000,2.24095,2.24095,-3.43779,1.32032,3.08687,-3.90299,1.74205,2.26944,2.26944,A,145303.50
3.12525,57.68834940,11.97990544,57.68835300,11.97989800,14:53:03.664181,0.00575,0.00000,0.00000,-0.14474,0.00000,-0.00645,-0.00094,0.00056,-0.04910,-0.11810,0.99064,3.11873,0.00000,2.24522,2.24522,-3.46105,1.34141,3.08687,-3.90299,1.74205,2.26944,2.26944,A,145303.50
3.13495,57.68834958,11.97990506,57.68835300,11.97989800,14:53:03.674193,0.00504,0.00000,0.00000,-0.14477,0.00000,0.00531,0.00516,0.00010,-0.04978,-0.11901,0.99326,3.12932,0.00000,2.24886,2.24886,-3.48315,1.36144,3.08687,-3.90299,1.74205,2.26944,2.26944,A,145303.50
3.14541,57.68834975,11.97990471,57.68835300,11.97989800,14:53:03.684341,0.00511,0.00000,0.00000,-0.14482,0.00000,0.00119,0.00394,-0.00112,-0.05283,-0.11773,0.99338,3.13950,0.00000,2.25194,2.25194,-3.50414,1.38047,3.08687,-3.90299,1.74205,2.26944,2.26944,A,145303.50
3.15689,57.68834991,11.97990438,57.68835300,11.97989800,14:53:03.695818,0.00613,0.00000,0.00000,-0.14488,0.00000,0.00042,0.00257,0.00178,-0.05203,-0.11755,0.99351,3.15018,0.00000,2.25457,2.25457,-3.52408,1.39855,3.08687,-3.90299,1.74205,2.26944,2.26944,A,145303.50
3.16624,57.68835007,11.97990406,57.68835300,11.97989800,14:53:03.705162,0.00507,0.00000,0.00000,-0.14490,0.00000,0.00149,-0.00094,0.00101,-0.05240,-0.11602,0.99027,3.16056,0.00000,2.25680,2.25680,-3.54303,1.41572,3.08687,-3.90299,1.74205,2.26944,2.26944,A,145303.50
3.17683,57.68835021,11.97990375,57.68835300,11.97989800,14:53:03.715757,0.00518,0.00000,0.00000,-0.14497,0.00000,0.00088,0.00058,0.00162,-0.04886,-0.11865,0.99326,3.17088,0.00000,2.25869,2.25869,-3.56102,1.43204,3.08687,-3.90299,1.74205,2.26944,2.26944,A,145303.50
3.20934,57.68835035,11.97990347,57.68835200,11.97989767,14:53:03.748303,0.02730,0.00000,0.00000,-0.14505,0.00000,0.00073,0.00043,-0.00036,-0.05094,-0.11901,0.99192,3.18227,0.00000,2.26030,2.26030,-3.57812,1.44754,3.19893,-3.92280,1.63086,4.53606,-1.74712,A,145303.60
3.22670,57.68835043,11.97990318,57.68835200,11.97989767,14:53:03.765646,0.00596,0.00000,0.00000,-0.14506,0.00000,0.00149,0.00150,0.00147,-0.05033,-0.11773,0.99137,3.22027,0.00000,2.60167,2.60167,-3.59536,1.45671,3.19893,-3.92280,1.63086,4.53606,-1.74712,A,145303.60
3.23681,57.68835051,11.97990290,57.68835200,11.97989767,14:53:03.775745,0.00534,0.00000,0.00000,-0.14509,0.00000,0.00241,-0.00033,0.00147,-0.05002,-0.11718,0.99143,3.23081,0.00000,2.89183,2.89183,-3.61173,1.46541,3.19893,-3.92280,1.63086,4.53606,-1.74712,A,145303.60
3.24697,57.68835059,11.97990264,57.68835200,11.97989767,14:53:03.786147,0.00510,0.00000,0.00000,-0.14517,0.00000,-0.00095,0.00242,-0.00021,-0.05002,-0.11840,0.99094,3.24130,0.00000,3.13846,3.13846,-3.62728,1.47369,3.19893,-3.92280,1.63086,4.53606,-1.74712,A,145303.60
3.25744,57.68835066,11.97990239,57.68835200,11.97989767,14:53:03.796369,0.00510,0.00000,0.00000,-0.14522,0.00000,0.00164,-0.00293,-0.00112,-0.05100,-0.11816,0.99418,3.25155,0.00000,3.34810,3.34810,-3.64206,1.48154,3.19893,-3.92280,1.63086,4.53606,-1.74712,A,145303.60
3.26832,57.68835072,11.97990215,57.68835200,11.97989767,14:53:03.807255,0.00559,0.00000,0.00000,-0.14531,0.00000,-0.00111,0.00058,-0.00128,-0.05142,-0.11883,0.99003,3.26222,0.00000,3.52630,3.52630,-3.65609,1.48901,3.19893,-3.92280,1.63086,4.53606,-1.74712,A,145303.60
3.27820,57.68835079,11.97990193,57.68835200,11.97989767,14:53:03.817127,0.00507,0.00000,0.00000,-0.14538,0.00000,-0.00065,-0.00049,0.00025,-0.05344,-0.11779,0.99186,3.27255,0.00000,3.67776,3.67776,-3.66943,1.49610,3.19893,-3.92280,1.63086,4.53606,-1.74712,A,145303.60
3.28862,57.68835085,11.97990172,57.68835200,11.97989767,14:53:03.827552,0.00527,0.00000,0.00000,-0.14541,0.00000,0.00287,0.00013,-0.00219,-0.05173,-0.11749,0.99143,3.28264,0.00000,3.80651,3.80651,-3.68210,1.50284,3.19893,-3.92280,1.63086,4.53606,-1.74712,A,145303.60
3.29883,57.68835091,11.97990151,57.68835200,11.97989767,14:53:03.837762,0.00507,0.00000,0.00000,-0.14544,0.00000,0.00210,0.00028,-0.00067,-0.04910,-0.11755,0.99198,3.29319,0.00000,3.91594,3.91594,-3.69413,1.50924,3.19893,-3.92280,1.63086,4.53606,-1.74712,A,145303.60
3.34262,57.68835096,11.97990132,57.68834933,11.97989600,14:53:03.881581,0.03847,0.00000,0.00000,-0.14550,0.00000,0.00195,0.00150,0.00208,-0.05020,-0.11919,0.99137,3.30334,0.00000,4.00896,4.00896,-3.70557,1.51532,3.33117,-4.02186,1.33434,4.38997,-1.89322,A,145303.80
3.35834,57.68835088,11.97990106,57.68834933,11.97989600,14:53:03.897267,0.00639,0.00000,0.00000,-0.14552,0.00000,0.00119,-0.00049,-0.00051,-0.04965,-0.11932,0.99363,3.35262,0.00000,4.06611,4.06611,-3.72138,1.50627,3.33117,-4.02186,1.33434,4.38997,-1.89322,A,145303.80
3.36768,57.68835080,11.97990080,57.68834933,11.97989600,14:53:03.906617,0.00534,0.00000,0.00000,-0.14558,0.00000,-0.00049,0.00165,0.00193,-0.05033,-0.11767,0.99101,3.36177,0.00000,4.11469,4.11469,-3.73641,1.49768,3.33117,-4.02186,1.33434,4.38997,-1.89322,A,145303.80
3.37780,57.68835073,11.97990056,57.68834933,11.97989600,14:53:03.916730,0.00506,0.00000,0.00000,-0.14569,0.00000,-0.00401,0.00119,-0.00204,-0.05057,-0.11816,0.99186,3.37215,0.00000,4.15598,4.15598,-3.75068,1.48951,3.33117,-4.02186,1.33434,4.38997,-1.89322,A,145303.80
3.38885,57.68835066,11.97990033,57.68834933,11.97989600,14:53:03.927778,0.00538,0.00000,0.00000,-0.14576,0.00000,-0.00034,-0.00293,0.00162,-0.05209,-0.11919,0.99412,3.38273,0.00000,4.19108,4.19108,-3.76424,1.48175,3.33117,-4.02186,1.33434,4.38997,-1.89322,A,145303.80
3.39894,57.68835059,11.97990012,57.68834933,11.97989600,14:53:03.938118,0.00507,0.00000,0.00000,-0.14580,0.00000,0.00332,0.00119,0.00025,-0.05039,-0.11865,0.98972,3.39329,0.00000,4.22091,4.22091,-3.77712,1.47438,3.33117,-4.02186,1.33434,4.38997,-1.89322,A,145303.80
3.40955,57.68835053,11.97989991,57.68834933,11.97989600,14:53:03.948479,0.00522,0.00000,0.00000,-0.14587,0.00000,-0.00126,0.00135,-0.00082,-0.05148,-0.11883,0.99528,3.40353,0.00000,4.24627,4.24627,-3.78936,1.46738,3.33117,-4.02186,1.33434,4.38997,-1.89322,A,145303.80
3.42011,57.68835047,11.97989972,57.68834933,11.97989600,14:53:03.959040,0.00538,0.00000,0.00000,-0.14595,0.00000,-0.00263,0.00013,0.00208,-0.05051,-0.11724,0.99021,3.41414,0.00000,4.26783,4.26783,-3.80098,1.46073,3.33117,-4.02186,1.33434,4.38997,-1.89322,A,145303.80
3.43090,57.68835041,11.97989953,57.68834933,11.97989600,14:53:03.970052,0.00577,0.00000,0.00000,-0.14603,0.00000,-0.00156,-0.00125,0.00010,-0.05039,-0.11919,0.99253,3.42454,0.00000,4.28615,4.28615,-3.81202,1.45441,3.33117,-4.02186,1.33434,4.38997,-1.89322,A,145303.80
3.46129,57.68835036,11.97989935,57.68834800,11.97989467,14:53:04.000922,0.02577,0.00000,0.00000,-0.14609,0.00000,0.00119,-0.00094,0.00071,-0.05142,-0.11913,0.99143,3.43476,0.00000,4.30172,4.30172,-3.82252,1.44840,3.45123,-4.10111,1.18608,4.22151,-2.06168,A,145303.90
3.48037,57.68835024,11.97989912,57.68834800,11.97989467,14:53:04.019302,0.00730,0.00000,0.00000,-0.14609,0.00000,0.00134,-0.00217,0.00224,-0.05106,-0.11773,0.99363,3.47373,0.00000,4.28969,4.28969,-3.83645,1.43529,3.45123,-4.10111,1.18608,4.22151,-2.06168,A,145303.90
3.48890,57.68835013,11.97989890,57.68834800,11.97989467,14:53:04.027828,0.00523,0.00000,0.00000,-0.14613,0.00000,0.00103,0.00119,-0.00006,-0.05033,-0.11804,0.99210,3.48294,0.00000,4.27946,4.27946,-3.84968,1.42283,3.45123,-4.10111,1.18608,4.22151,-2.06168,A,145303.90
3.49938,57.68835002,11.97989869,57.68834800,11.97989467,14:53:04.038320,0.00531,0.00000,0.00000,-0.14617,0.00000,0.00180,0.00058,0.00086,-0.04923,-0.11883,0.99332,3.49349,0.00000,4.27077,4.27077,-3.86225,1.41099,3.45123,-4.10111,1.18608,4.22151,-2.06168,A,145303.90
3.50949,57.68834992,11.97989848,57.68834800,11.97989467,14:53:04.048422,0.00510,0.00000,0.00000,-0.14625,0.00000,-0.00004,0.00013,0.00361,-0.05124,-0.11986,0.99204,3.50361,0.00000,4.26338,4.26338,-3.87419,1.39974,3.45123,-4.10111,1.18608,4.22151,-2.06168,A,145303.90
3.52073,57.68834983,11.97989829,57.68834800,11.97989467,14:53:04.059660,0.00593,0.00000,0.00000,-0.14630,0.00000,0.00180,0.00364,-0.00097,-0.05246,-0.11913,0.99204,3.51421,0.00000,4.25710,4.25710,-3.88554,1.38906,3.45123,-4.10111,1.18608,4.22151,-2.06168,A,145303.90
3.53085,57.68834973,11.97989811,57.68834800,11.97989467,14:53:04.069779,0.00535,0.00000,0.00000,-0.14638,0.00000,-0.00248,-0.00247,0.00086,-0.04941,-0.11834,0.99192,3.52516,0.00000,4.25176,4.25176,-3.89632,1.37891,3.45123,-4.10111,1.18608,4.22151,-2.06168,A,145303.90
3.54119,57.68834965,11.97989794,57.68834800,11.97989467,14:53:04.080121,0.00545,0.00000,0.00000,-0.14645,0.00000,-0.00111,-0.00262,0.00025,-0.04959,-0.11858,0.99113,3.53499,0.00000,4.24722,4.24722,-3.90656,1.36927,3.45123,-4.10111,1.18608,4.22151,-2.06168,A,145303.90
3.55146,57.68834957,11.97989778,57.68834800,11.97989467,14:53:04.090401,0.00532,0.00000,0.00000,-0.14647,0.00000,0.00210,-0.00003,0.00162,-0.05087,-0.11804,0.99271,3.54556,0.00000,4.24336,4.24336,-3.91628,1.36011,3.45123,-4.10111,1.18608,4.22151,-2.06168,A,145303.90
3.58538,57.68834949,11.97989762,57.68834650,11.97989350,14:53:04.124351,0.02884,0.00000,0.00000,-0.14652,0.00000,-0.00217,-0.00354,0.00056,-0.05106,-0.11688,0.99363,3.55573,0.00000,4.24008,4.24008,-3.92553,1.35141,3.57233,-4.17045,1.01929,4.31839,-1.96480,A,145304.00
3.60403,57.68834934,11.97989741,57.68834650,11.97989350,14:53:04.142962,0.00735,0.00000,0.00000,-0.14658,0.00000,-0.00019,0.00379,0.00086,-0.05197,-0.11840,0.99180,3.59797,0.00000,4.25183,4.25183,-3.93777,1.33480,3.57233,-4.17045,1.01929,4.31839,-1.96480,A,145304.00
3.61258,57.68834920,11.97989722,57.68834650,11.97989350,14:53:04.151512,0.00533,0.00000,0.00000,-0.14661,0.00000,0.00042,-0.00186,0.00224,-0.04843,-0.11755,0.99162,3.60663,0.00000,4.26181,4.26181,-3.94941,1.31903,3.57233,-4.17045,1.01929,4.31839,-1.96480,A,145304.00
3.62274,57.68834906,11.97989703,57.68834650,11.97989350,14:53:04.161665,0.00508,0.00000,0.00000,-0.14664,0.00000,0.00149,-0.00232,0.00040,-0.05191,-0.11822,0.99265,3.61710,0.00000,4.27030,4.27030,-3.96046,1.30404,3.57233,-4.17045,1.01929,4.31839,-1.96480,A,145304.00
3.63327,57.68834893,11.97989686,57.68834650,11.97989350,14:53:04.172200,0.00538,0.00000,0.00000,-0.14668,0.00000,-0.00004,-0.00049,0.00010,-0.05155,-0.11755,0.99204,3.62736,0.00000,4.27751,4.27751,-3.97096,1.28980,3.57233,-4.17045,1.01929,4.31839,-1.96480,A,145304.00
3.64433,57.68834881,11.97989669,57.68834650,11.97989350,14:53:04.183261,0.00604,0.00000,0.00000,-0.14669,0.00000,0.00225,-0.00094,0.00071,-0.04972,-0.11743,0.99540,3.63773,0.00000,4.28364,4.28364,-3.98093,1.27628,3.57233,-4.17045,1.01929,4.31839,-1.96480,A,145304.00
3.65375,57.68834870,11.97989653,57.68834650,11.97989350,14:53:04.192683,0.00506,0.00000,0.00000,-0.14673,0.00000,0.00027,0.00135,0.00162,-0.05289,-0.11804,0.99027,3.64807,0.00000,4.28886,4.28886,-3.99041,1.26343,3.57233,-4.17045,1.01929,4.31839,-1.96480,A,145304.00
3.66446,57.68834859,11.97989638,57.68834650,11.97989350,14:53:04.203390,0.00519,0.00000,0.00000,-0.14677,0.00000,0.00012,-0.00094,-0.00189,-0.05295,-0.11743,0.99052,3.65850,0.00000,4.29328,4.29328,-3.99941,1.25122,3.57233,-4.17045,1.01929,4.31839,-1.96480,A,145304.00
3.69873,57.68834848,11.97989623,57.68834517,11.97989333,14:53:04.237702,0.02906,0.00000,0.00000,-0.14682,0.00000,-0.00294,-0.00369,0.00117,-0.05161,-0.11663,0.99192,3.66910,0.00000,4.29705,4.29705,-4.00796,1.23962,3.68580,-4.18036,0.87103,4.64567,-1.63751,A,145304.10
3.71745,57.68834832,11.97989609,57.68834517,11.97989333,14:53:04.256381,0.00744,0.00000,0.00000,-0.14678,0.00000,0.00103,0.00226,0.00086,-0.05331,-0.11596,0.99357,3.71145,0.00000,4.34934,4.34934,-4.01658,1.22119,3.68580,-4.18036,0.87103,4.64567,-1.63751,A,145304.10
3.72550,57.68834816,11.97989595,57.68834517,11.97989333,14:53:04.264437,0.00510,0.00000,0.00000,-0.14685,0.00000,-0.00049,-0.00110,-0.00051,-0.05319,-0.11968,0.99375,3.71962,0.00000,4.39379,4.39379,-4.02477,1.20369,3.68580,-4.18036,0.87103,4.64567,-1.63751,A,145304.10
3.73623,57.68834801,11.97989582,57.68834517,11.97989333,14:53:04.275507,0.00557,0.00000,0.00000,-0.14688,0.00000,0.00134,0.00150,0.00178,-0.05087,-0.11834,0.99229,3.73024,0.00000,4.43157,4.43157,-4.03255,1.18705,3.68580,-4.18036,0.87103,4.64567,-1.63751,A,145304.10
3.74620,57.68834787,11.97989570,57.68834517,11.97989333,14:53:04.285127,0.00512,0.00000,0.00000,-0.14694,0.00000,0.00012,-0.00064,0.00117,-0.05319,-0.11901,0.99131,3.74053,0.00000,4.46369,4.46369,-4.03994,1.17125,3.68580,-4.18036,0.87103,4.64567,-1.63751,A,145304.10
3.75670,57.68834773,11.97989558,57.68834517,11.97989333,14:53:04.295627,0.00517,0.00000,0.00000,-0.14702,0.00000,-0.00416,0.00196,0.00269,-0.05209,-0.11810,0.99137,3.75074,0.00000,4.49099,4.49099,-4.04696,1.15624,3.68580,-4.18036,0.87103,4.64567,-1.63751,A,145304.10
3.76701,57.68834760,11.97989547,57.68834517,11.97989333,14:53:04.306189,0.00508,0.00000,0.00000,-0.14708,0.00000,-0.00080,-0.00262,0.00117,-0.04929,-0.11895,0.99174,3.76134,0.00000,4.51419,4.51419,-4.05363,1.14198,3.68580,-4.18036,0.87103,4.64567,-1.63751,A,145304.10
3.77750,57.68834748,11.97989536,57.68834517,11.97989333,14:53:04.316434,0.00517,0.00000,0.00000,-0.14712,0.00000,0.00042,-0.00049,-0.00174,-0.05179,-0.11828,0.99088,3.77153,0.00000,4.53391,4.53391,-4.05997,1.12843,3.68580,-4.18036,0.87103,4.64567,-1.63751,A,145304.10
3.81020,57.68834737,11.97989526,57.68834500,11.97989350,14:53:04.349157,0.02747,0.00000,0.00000,-0.14715,0.00000,-0.00080,-0.00018,0.00132,-0.04978,-0.11675,0.99198,3.78239,0.00000,4.55068,4.55068,-4.06599,1.11556,3.79879,-4.17045,0.85249,5.20327,-1.07991,A,145304.20
3.82971,57.68834725,11.97989517,57.68834500,11.97989350,14:53:04.368638,0.00610,0.00000,0.00000,-0.14714,0.00000,0.00119,0.00089,0.00056,-0.05203,-0.11804,0.99046,3.82380,0.00000,4.64857,4.64857,-4.07121,1.10241,3.79879,-4.17045,0.85249,5.20327,-1.07991,A,145304.20
3.83902,57.68834714,11.97989509,57.68834500,11.97989350,14:53:04.378263,0.00516,0.00000,0.00000,-0.14717,0.00000,0.00012,-0.00140,0.00132,-0.05191,-0.11816,0.99253,3.83335,0.00000,4.73177,4.73177,-4.07617,1.08991,3.79879,-4.17045,0.85249,5.20327,-1.07991,A,145304.20
3.84940,57.68834703,11.97989501,57.68834500,11.97989350,14:53:04.388324,0.00513,0.00000,0.00000,-0.14716,0.00000,0.00470,-0.00140,0.00208,-0.05179,-0.11779,0.99271,3.84347,0.00000,4.80250,4.80250,-4.08089,1.07804,3.79879,-4.17045,0.85249,5.20327,-1.07991,A,145304.20
3.86005,57.68834693,11.97989493,57.68834500,11.97989350,14:53:04.398977,0.00538,0.00000,0.00000,-0.14716,0.00000,0.00180,-0.00186,-0.00006,-0.05075,-0.11724,0.99149,3.85408,0.00000,4.86261,4.86261,-4.08536,1.06676,3.79879,-4.17045,0.85249,5.20327,-1.07991,A,145304.20
3.87012,57.68834683,11.97989486,57.68834500,11.97989350,14:53:04.409047,0.00505,0.00000,0.00000,-0.14721,0.00000,-0.00065,0.00043,0.00040,-0.05069,-0.11834,0.99290,3.86446,0.00000,4.91371,4.91371,-4.08962,1.05605,3.79879,-4.17045,0.85249,5.20327,-1.07991,A,145304.20
3.88084,57.68834674,11.97989479,57.68834500,11.97989350,14:53:04.419765,0.00520,0.00000,0.00000,-0.14722,0.00000,0.00317,0.00013,0.00147,-0.04880,-0.11858,0.99345,3.87490,0.00000,4.95715,4.95715,-4.09366,1.04587,3.79879,-4.17045,0.85249,5.20327,-1.07991,A,145304.20
3.89134,57.68834665,11.97989473,57.68834500,11.97989350,14:53:04.430284,0.00530,0.00000,0.00000,-0.14723,0.00000,0.00332,-0.00018,0.00101,-0.04856,-0.11871,0.99149,3.88547,0.00000,4.99407,4.99407,-4.09750,1.03620,3.79879,-4.17045,0.85249,5.20327,-1.07991,A,145304.20
3.93784,57.68834657,11.97989467,57.68834383,11.97989233,14:53:04.476795,0.04139,0.00000,0.00000,-0.14733,0.00000,-0.00584,0.00181,0.00040,-0.05106,-0.11883,0.99406,3.89564,0.00000,5.02545,5.02545,-4.10115,1.02702,3.92239,-4.23979,0.72277,4.22151,-2.06168,A,145304.40
3.95304,57.68834643,11.97989455,57.68834383,11.97989233,14:53:04.491971,0.00736,0.00000,0.00000,-0.14745,0.00000,-0.00202,0.00135,0.00071,-0.05094,-0.11743,0.99418,3.94704,0.00000,4.90486,4.90486,-4.10808,1.01181,3.92239,-4.23979,0.72277,4.22151,-2.06168,A,145304.40
3.96107,57.68834630,11.97989444,57.68834383,11.97989233,14:53:04.500001,0.00516,0.00000,0.00000,-0.14751,0.00000,-0.00416,-0.00262,0.00071,-0.04831,-0.11718,0.99247,3.95516,0.00000,4.80235,4.80235,-4.11467,0.99735,3.92239,-4.23979,0.72277,4.22151,-2.06168,A,145304.40
3.97174,57.68834618,11.97989433,57.68834383,11.97989233,14:53:04.510675,0.00537,0.00000,0.00000,-0.14754,0.00000,0.00042,0.00486,-0.00051,-0.04959,-0.11858,0.99338,3.96582,0.00000,4.71523,4.71523,-4.12092,0.98362,3.92239,-4.23979,0.72277,4.22151,-2.06168,A,145304.40
3.98187,57.68834606,11.97989423,57.68834383,11.97989233,14:53:04.520800,0.00510,0.00000,0.00000,-0.14755,0.00000,0.00012,0.00181,0.00239,-0.05081,-0.11663,0.99131,3.97619,0.00000,4.64117,4.64117,-4.12687,0.97058,3.92239,-4.23979,0.72277,4.22151,-2.06168,A,145304.40
3.99255,57.68834595,11.97989414,57.68834383,11.97989233,14:53:04.531482,0.00519,0.00000,0.00000,-0.14759,0.00000,-0.00095,0.00074,-0.00128,-0.04972,-0.11804,0.99162,3.98658,0.00000,4.57822,4.57822,-4.13251,0.95819,3.92239,-4.23979,0.72277,4.22151,-2.06168,A,145304.40
4.00293,57.68834584,11.97989405,57.68834383,11.97989233,14:53:04.542107,0.00517,0.00000,0.00000,-0.14761,0.00000,-0.00004,-0.00354,0.00147,-0.05313,-0.11779,0.99546,3.99728,0.00000,4.52471,4.52471,-4.13788,0.94642,3.92239,-4.23979,0.72277,4.22151,-2.06168,A,145304.40
4.01327,57.68834574,11.97989396,57.68834383,11.97989233,14:53:04.552200,0.00511,0.00000,0.00000,-0.14766,0.00000,-0.00126,0.00181,-0.00082,-0.05008,-0.11919,0.99491,4.00736,0.00000,4.47923,4.47923,-4.14297,0.93524,3.92239,-4.23979,0.72277,4.22151,-2.06168,A,145304.40
4.04459,57.68834565,11.97989388,57.68834250,11.97988667,14:53:04.583540,0.02604,0.00000,0.00000,-0.14764,0.00000,0.00577,-0.00201,0.00254,-0.05033,-0.11828,0.99155,4.01799,0.00000,4.44057,4.44057,-4.14781,0.92461,4.03460,-4.57660,0.57451,3.55626,-2.72692,A,145304.50
4.06494,57.68834549,11.97989352,57.68834250,11.97988667,14:53:04.603874,0.00771,0.00000,0.00000,-0.14756,0.00000,0.00241,-0.00079,0.00162,-0.05240,-0.11749,0.99131,4.05896,0.00000,4.30793,4.30793,-4.16925,0.90711,4.03460,-4.57660,0.57451,3.55626,-2.72692,A,145304.50
4.07278,57.68834534,11.97989318,57.68834250,11.97988667,14:53:04.611715,0.00526,0.00000,0.00000,-0.14761,0.00000,-0.00248,0.00394,0.00117,-0.05045,-0.11858,0.99491,4.06676,0.00000,4.19518,4.19518,-4.18962,0.89048,4.03460,-4.57660,0.57451,3.55626,-2.72692,A,145304.50
4.08300,57.68834520,11.97989285,57.68834250,11.97988667,14:53:04.622178,0.00507,0.00000,0.00000,-0.14765,0.00000,0.00195,-0.00262,0.00101,-0.04990,-0.11974,0.99253,4.07734,0.00000,4.09934,4.09934,-4.20897,0.87468,4.03460,-4.57660,0.57451,3.55626,-2.72692,A,145304.50
4.09347,57.68834506,11.97989254,57.68834250,11.97988667,14:53:04.632397,0.00530,0.00000,0.00000,-0.14767,0.00000,0.00164,0.00257,0.00300,-0.04935,-0.11907,0.99332,4.08758,0.00000,4.01788,4.01788,-4.22735,0.85967,4.03460,-4.57660,0.57451,3.55626,-2.72692,A,145304.50
4.10472,57.68834494,11.97989225,57.68834250,11.97988667,14:53:04.643659,0.00601,0.00000,0.00000,-0.14774,0.00000,-0.00202,0.00348,-0.00097,-0.05228,-0.11883,0.99009,4.09845,0.00000,3.94863,3.94863,-4.24481,0.84541,4.03460,-4.57660,0.57451,3.55626,-2.72692,A,145304.50
4.11433,57.68834481,11.97989197,57.68834250,11.97988667,14:53:04.653266,0.00513,0.00000,0.00000,-0.14777,0.00000,-0.00080,-0.00018,0.00025,-0.05033,-0.11767,0.99033,4.10862,0.00000,3.88978,3.88978,-4.26140,0.83187,4.03460,-4.57660,0.57451,3.55626,-2.72692,A,145304.50
4.12472,57.68834470,11.97989170,57.68834250,11.97988667,14:53:04.663653,0.00519,0.00000,0.00000,-0.14781,0.00000,-0.00049,-0.00003,0.00285,-0.05161,-0.11877,0.99674,4.11875,0.00000,3.83975,3.83975,-4.27716,0.81900,4.03460,-4.57660,0.57451,3.55626,-2.72692,A,145304.50
4.15787,57.68834459,11.97989145,57.68834133,11.97988317,14:53:04.696816,0.02794,0.00000,0.00000,-0.14789,0.00000,-0.00569,-0.00507,0.00132,-0.05094,-0.11749,0.99094,4.12935,0.00000,3.79723,3.79723,-4.29213,0.80677,4.14662,-4.78463,0.44478,3.69919,-2.58400,A,145304.60
4.17354,57.68834443,11.97989104,57.68834133,11.97988317,14:53:04.712472,0.00709,0.00000,0.00000,-0.14783,0.00000,0.00287,-0.00232,0.00162,-0.05033,-0.11938,0.99113,4.16763,0.00000,3.78252,3.78252,-4.31676,0.78868,4.14662,-4.78463,0.44478,3.69919,-2.58400,A,145304.60
4.18195,57.68834427,11.97989064,57.68834133,11.97988317,14:53:04.720883,0.00511,0.00000,0.00000,-0.14787,0.00000,0.00119,0.00226,0.00193,-0.05197,-0.11986,0.99125,4.17625,0.00000,3.77002,3.77002,-4.34015,0.77148,4.14662,-4.78463,0.44478,3.69919,-2.58400,A,145304.60
4.19257,57.68834412,11.97989027,57.68834133,11.97988317,14:53:04.731498,0.00517,0.00000,0.00000,-0.14789,0.00000,0.00271,0.00028,0.00224,-0.04917,-0.11956,0.99143,4.18662,0.00000,3.75940,3.75940,-4.36238,0.75515,4.14662,-4.78463,0.44478,3.69919,-2.58400,A,145304.60
4.20348,57.68834398,11.97988992,57.68834133,11.97988317,14:53:04.742430,0.00568,0.00000,0.00000,-0.14789,0.00000,0.00332,0.00104,0.00147,-0.05039,-0.11865,0.99137,4.19738,0.00000,3.75037,3.75037,-4.38349,0.73963,4.14662,-4.78463,0.44478,3.69919,-2.58400,A,145304.60
4.21331,57.68834385,11.97988958,57.68834133,11.97988317,14:53:04.752238,0.00511,0.00000,0.00000,-0.14787,0.00000,0.00470,-0.00033,-0.00021,-0.04941,-0.11773,0.99241,4.20741,0.00000,3.74269,3.74269,-4.40354,0.72488,4.14662,-4.78463,0.44478,3.69919,-2.58400,A,145304.60
4.22395,57.68834373,11.97988926,57.68834133,11.97988317,14:53:04.762885,0.00535,0.00000,0.00000,-0.14794,0.00000,-0.00034,0.00089,-0.00006,-0.05026,-0.12102,0.99369,4.21801,0.00000,3.73617,3.73617,-4.42260,0.71088,4.14662,-4.78463,0.44478,3.69919,-2.58400,A,145304.60
4.23408,57.68834361,11.97988895,57.68834133,11.97988317,14:53:04.773001,0.00508,0.00000,0.00000,-0.14799,0.00000,-0.00049,0.00043,-0.00036,-0.05106,-0.11962,0.99241,4.22839,0.00000,3.73062,3.73062,-4.44070,0.69757,4.14662,-4.78463,0.44478,3.69919,-2.58400,A,145304.60
4.24525,57.68834349,11.97988866,57.68834133,11.97988317,14:53:04.784177,0.00573,0.00000,0.00000,-0.14802,0.00000,-0.00004,-0.00232,0.00010,-0.05185,-0.11828,0.99186,4.23909,0.00000,3.72590,3.72590,-4.45790,0.68493,4.14662,-4.78463,0.44478,3.69919,-2.58400,A,145304.60
4.27528,57.68834339,11.97988839,57.68834083,11.97988033,14:53:04.814230,0.02521,0.00000,0.00000,-0.14802,0.00000,0.00149,-0.00110,0.00025,-0.05075,-0.11785,0.99162,4.24954,0.00000,3.72190,3.72190,-4.47423,0.67293,4.26585,-4.95303,0.38918,3.46047,-2.82271,A,145304.70
4.29359,57.68834326,11.97988799,57.68834083,11.97988033,14:53:04.832519,0.00824,0.00000,0.00000,-0.14832,0.00000,-0.00706,0.00043,-0.00082,-0.05350,-0.11822,0.98997,4.28766,0.00000,3.68268,3.68268,-4.49817,0.65874,4.26585,-4.95303,0.38918,3.46047,-2.82271,A,145304.70
4.30086,57.68834314,11.97988760,57.68834083,11.97988033,14:53:04.839786,0.00533,0.00000,0.00000,-0.14836,0.00000,-0.00172,0.00181,0.00178,-0.05203,-0.11895,0.99247,4.29475,0.00000,3.64935,3.64935,-4.52092,0.64526,4.26585,-4.95303,0.38918,3.46047,-2.82271,A,145304.70
4.31139,57.68834302,11.97988724,57.68834083,11.97988033,14:53:04.850330,0.00545,0.00000,0.00000,-0.14841,0.00000,-0.00141,-0.00125,0.00254,-0.05124,-0.11895,0.99088,4.30549,0.00000,3.62102,3.62102,-4.54252,0.63246,4.26585,-4.95303,0.38918,3.46047,-2.82271,A,145304.70
4.32143,57.68834291,11.97988689,57.68834083,11.97988033,14:53:04.860365,0.00510,0.00000,0.00000,-0.14841,0.00000,0.00149,-0.00201,-0.00082,-0.05033,-0.11749,0.99210,4.31554,0.00000,3.59694,3.59694,-4.56305,0.62029,4.26585,-4.95303,0.38918,3.46047,-2.82271,A,145304.70
4.33208,57.68834281,11.97988657,57.68834083,11.97988033,14:53:04.871018,0.00536,0.00000,0.00000,-0.14842,0.00000,0.00103,-0.00094,0.00254,-0.04978,-0.11865,0.99491,4.32613,0.00000,3.57647,3.57647,-4.58255,0.60874,4.26585,-4.95303,0.38918,3.46047,-2.82271,A,145304.70
4.34218,57.68834271,11.97988626,57.68834083,11.97988033,14:53:04.881103,0.00505,0.00000,0.00000,-0.14842,0.00000,0.00348,-0.00171,-0.00128,-0.05002,-0.11956,0.99003,4.33652,0.00000,3.55907,3.55907,-4.60107,0.59776,4.26585,-4.95303,0.38918,3.46047,-2.82271,A,145304.70
4.35270,57.68834262,11.97988596,57.68834083,11.97988033,14:53:04.891632,0.00518,0.00000,0.00000,-0.14847,0.00000,-0.00202,-0.00049,0.00239,-0.04947,-0.11865,0.99253,4.34676,0.00000,3.54428,3.54428,-4.61867,0.58733,4.26585,-4.95303,0.38918,3.46047,-2.82271,A,145304.70
4.36300,57.68834253,11.97988568,57.68834083,11.97988033,14:53:04.902183,0.00507,0.00000,0.00000,-0.14847,0.00000,0.00119,0.00058,-0.00051,-0.04843,-0.11755,0.99241,4.35735,0.00000,3.53171,3.53171,-4.63539,0.57742,4.26585,-4.95303,0.38918,3.46047,-2.82271,A,145304.70
4.39616,57.68834244,11.97988541,57.68834000,11.97987533,14:53:04.935801,0.02783,0.00000,0.00000,-0.14847,0.00000,0.00103,0.00226,0.00346,-0.04965,-0.11706,0.98783,4.36753,0.00000,3.52102,3.52102,-4.65127,0.56801,4.38401,-5.25021,0.29652,3.44384,-2.83934,A,145304.80
4.41723,57.68834232,11.97988491,57.68834000,11.97987533,14:53:04.956163,0.00662,0.00000,0.00000,-0.14848,0.00000,-0.00049,0.00089,0.00392,-0.05094,-0.11651,0.99198,4.41116,0.00000,3.50945,3.50945,-4.68122,0.55444,4.38401,-5.25021,0.29652,3.44384,-2.83934,A,145304.80
4.42607,57.68834220,11.97988443,57.68834000,11.97987533,14:53:04.964998,0.00505,0.00000,0.00000,-0.14854,0.00000,-0.00279,-0.00232,0.00269,-0.05222,-0.11925,0.99418,4.42041,0.00000,3.49960,3.49960,-4.70967,0.54154,4.38401,-5.25021,0.29652,3.44384,-2.83934,A,145304.80
4.43673,57.68834209,11.97988397,57.68834000,11.97987533,14:53:04.975662,0.00521,0.00000,0.00000,-0.14852,0.00000,0.00180,0.00074,-0.00097,-0.05173,-0.11730,0.99296,4.43075,0.00000,3.49124,3.49124,-4.73669,0.52929,4.38401,-5.25021,0.29652,3.44384,-2.83934,A,145304.80
4.44787,57.68834199,11.97988354,57.68834000,11.97987533,14:53:04.986811,0.00595,0.00000,0.00000,-0.14857,0.00000,-0.00172,-0.00232,-0.00189,-0.04984,-0.11852,0.99040,4.44135,0.00000,3.48413,3.48413,-4.76237,0.51765,4.38401,-5.25021,0.29652,3.44384,-2.83934,A,145304.80
4.45798,57.68834189,11.97988313,57.68834000,11.97987533,14:53:04.996911,0.00566,0.00000,0.00000,-0.14868,0.00000,-0.00447,-0.00247,0.00101,-0.04923,-0.12102,0.99113,4.45229,0.00000,3.47809,3.47809,-4.78676,0.50660,4.38401,-5.25021,0.29652,3.44384,-2.83934,A,145304.80
4.46824,57.68834179,11.97988274,57.68834000,11.97987533,14:53:05.007167,0.00552,0.00000,0.00000,-0.14869,0.00000,-0.00080,-0.00049,-0.00036,-0.04917,-0.11791,0.99290,4.46215,0.00000,3.47295,3.47295,-4.80993,0.49609,4.38401,-5.25021,0.29652,3.44384,-2.83934,A,145304.80
4.47818,57.68834171,11.97988237,57.68834000,11.97987533,14:53:05.017111,0.00506,0.00000,0.00000,-0.14869,0.00000,0.00012,-0.00262,-0.00006,-0.05124,-0.11755,0.99430,4.47251,0.00000,3.46858,3.46858,-4.83195,0.48611,4.38401,-5.25021,0.29652,3.44384,-2.83934,A,145304.80
4.51220,57.68834162,11.97988202,57.68834017,11.97987417,14:53:05.051515,0.02867,0.00000,0.00000,-0.14872,0.00000,-0.00385,-0.00064,0.00346,-0.04953,-0.11633,0.99314,4.48274,0.00000,3.46487,3.46487,-4.85286,0.47663,4.49963,-5.31955,0.31505,2.88044,2.88044,A,145304.90
4.53174,57.68834155,11.97988163,57.68834017,11.97987417,14:53:05.070679,0.00723,0.00000,0.00000,-0.14883,0.00000,-0.00202,0.00058,0.00101,-0.05045,-0.11883,0.99314,4.52568,0.00000,3.37721,3.37721,-4.87619,0.46855,4.49963,-5.31955,0.31505,2.88044,2.88044,A,145304.90
4.54027,57.68834148,11.97988125,57.68834017,11.97987417,14:53:05.079205,0.00536,0.00000,0.00000,-0.14887,0.00000,-0.00340,0.00074,0.00086,-0.04947,-0.11865,0.99332,4.53433,0.00000,3.30269,3.30269,-4.89836,0.46088,4.49963,-5.31955,0.31505,2.88044,2.88044,A,145304.90
4.55221,57.68834141,11.97988090,57.68834017,11.97987417,14:53:05.091144,0.00690,0.00000,0.00000,-0.14889,0.00000,0.00119,0.00058,-0.00097,-0.05100,-0.11968,0.99271,4.54584,0.00000,3.23935,3.23935,-4.91942,0.45359,4.49963,-5.31955,0.31505,2.88044,2.88044,A,145304.90
4.56073,57.68834135,11.97988056,57.68834017,11.97987417,14:53:05.099664,0.00518,0.00000,0.00000,-0.14890,0.00000,0.00027,-0.00049,-0.00067,-0.05069,-0.11773,0.99204,4.55479,0.00000,3.18552,3.18552,-4.93943,0.44666,4.49963,-5.31955,0.31505,2.88044,2.88044,A,145304.90
4.57099,57.68834129,11.97988024,57.68834017,11.97987417,14:53:05.110173,0.00517,0.00000,0.00000,-0.14889,0.00000,0.00287,0.00013,0.00193,-0.05124,-0.11846,0.98960,4.56532,0.00000,3.13975,3.13975,-4.95844,0.44008,4.49963,-5.31955,0.31505,2.88044,2.88044,A,145304.90
4.58133,57.68834123,11.97987994,57.68834017,11.97987417,14:53:05.120256,0.00511,0.00000,0.00000,-0.14889,0.00000,-0.00111,0.00303,-0.00006,-0.04801,-0.11663,0.98924,4.57542,0.00000,3.10086,3.10086,-4.97649,0.43383,4.49963,-5.31955,0.31505,2.88044,2.88044,A,145304.90
4.59217,57.68834118,11.97987965,57.68834017,11.97987417,14:53:05.131097,0.00555,0.00000,0.00000,-0.14894,0.00000,-0.00355,-0.00217,0.00117,-0.05039,-0.11785,0.99290,4.58623,0.00000,3.06779,3.06779,-4.99364,0.42789,4.49963,-5.31955,0.31505,2.88044,2.88044,A,145304.90
4.63341,57.68834113,11.97987938,57.68833883,11.97986633,14:53:05.172368,0.03640,0.00000,0.00000,-0.14890,0.00000,0.00332,-0.00079,-0.00235,-0.05045,-0.11736,0.99192,4.59656,0.00000,3.03969,3.03969,-5.00994,0.42225,4.62290,-5.78514,0.16679,3.44988,-2.83331,A,145305.10
4.65368,57.68834102,11.97987872,57.68833883,11.97986633,14:53:05.192624,0.00843,0.00000,0.00000,-0.14887,0.00000,0.00119,0.00303,-0.00036,-0.04923,-0.11877,0.99131,4.64697,0.00000,3.10122,3.10122,-5.04870,0.40948,4.62290,-5.78514,0.16679,3.44988,-2.83331,A,145305.10
4.66126,57.68834091,11.97987810,57.68833883,11.97986633,14:53:05.200198,0.00574,0.00000,0.00000,-0.14890,0.00000,0.00042,0.00165,0.00315,-0.05197,-0.11944,0.99021,4.65506,0.00000,3.15352,3.15352,-5.08552,0.39734,4.62290,-5.78514,0.16679,3.44988,-2.83331,A,145305.10
4.67099,57.68834080,11.97987752,57.68833883,11.97986633,14:53:05.210237,0.00507,0.00000,0.00000,-0.14889,0.00000,0.00103,0.00043,-0.00006,-0.04929,-0.11773,0.99198,4.66535,0.00000,3.19797,3.19797,-5.12050,0.38581,4.62290,-5.78514,0.16679,3.44988,-2.83331,A,145305.10
4.68142,57.68834070,11.97987696,57.68833883,11.97986633,14:53:05.220342,0.00509,0.00000,0.00000,-0.14891,0.00000,0.00042,-0.00155,0.00117,-0.05094,-0.11907,0.99320,4.67552,0.00000,3.23576,3.23576,-5.15373,0.37486,4.62290,-5.78514,0.16679,3.44988,-2.83331,A,145305.10
4.69229,57.68834061,11.97987643,57.68833883,11.97986633,14:53:05.231222,0.00556,0.00000,0.00000,-0.14894,0.00000,0.00164,0.00104,-0.00067,-0.05252,-0.12054,0.99204,4.68633,0.00000,3.26788,3.26788,-5.18530,0.36446,4.62290,-5.78514,0.16679,3.44988,-2.83331,A,145305.10
4.70256,57.68834052,11.97987592,57.68833883,11.97986633,14:53:05.241492,0.00540,0.00000,0.00000,-0.14893,0.00000,0.00393,0.00165,0.00040,-0.05155,-0.11895,0.99155,4.69663,0.00000,3.29518,3.29518,-5.21530,0.35458,4.62290,-5.78514,0.16679,3.44988,-2.83331,A,145305.10
4.71285,57.68834044,11.97987544,57.68833883,11.97986633,14:53:05.251776,0.00532,0.00000,0.00000,-0.14893,0.00000,-0.00126,0.00181,-0.00235,-0.05008,-0.11657,0.99064,4.70689,0.00000,3.31838,3.31838,-5.24379,0.34519,4.62290,-5.78514,0.16679,3.44988,-2.83331,A,145305.10
4.72299,57.68834036,11.97987499,57.68833883,11.97986633,14:53:05.262171,0.00507,0.00000,0.00000,-0.14893,0.00000,0.00027,0.00181,0.00071,-0.05112,-0.11785,0.99198,4.71733,0.00000,3.33811,3.33811,-5.27086,0.33627,4.62290,-5.78514,0.16679,3.44988,-2.83331,A,145305.10
4.75682,57.68834028,11.97987455,57.68834067,11.97986183,14:53:05.295782,0.02850,0.00000,0.00000,-0.14891,0.00000,0.00195,-0.00003,0.00071,-0.05051,-0.11761,0.99399,4.72753,0.00000,3.35487,3.35487,-5.29657,0.32779,4.74409,-6.05260,0.37065,2.49034,2.49034,A,145305.20
4.76946,57.68834030,11.97987392,57.68834067,11.97986183,14:53:05.308397,0.00741,0.00000,0.00000,-0.14879,0.00000,0.00287,-0.00049,0.00162,-0.05100,-0.11608,0.99229,4.76309,0.00000,3.22519,3.22519,-5.33437,0.32994,4.74409,-6.05260,0.37065,2.49034,2.49034,A,145305.20
4.77756,57.68834032,11.97987331,57.68834067,11.97986183,14:53:05.316493,0.00510,0.00000,0.00000,-0.14878,0.00000,0.00164,0.00013,0.00010,-0.04990,-0.11688,0.99168,4.77167,0.00000,3.11496,3.11496,-5.37028,0.33197,4.74409,-6.05260,0.37065,2.49034,2.49034,A,145305.20
4.78842,57.68834034,11.97987274,57.68834067,11.97986183,14:53:05.327357,0.00557,0.00000,0.00000,-0.14882,0.00000,-0.00111,-0.00217,0.00056,-0.05069,-0.11962,0.99180,4.78227,0.00000,3.02127,3.02127,-5.40440,0.33391,4.74409,-6.05260,0.37065,2.49034,2.49034,A,145305.20
4.79826,57.68834035,11.97987219,57.68834067,11.97986183,14:53:05.337192,0.00501,0.00000,0.00000,-0.14881,0.00000,0.00180,-0.00018,0.00193,-0.05356,-0.11755,0.99046,4.79259,0.00000,2.94163,2.94163,-5.43681,0.33574,4.74409,-6.05260,0.37065,2.49034,2.49034,A,145305.20
4.80903,57.68834037,11.97987168,57.68834067,11.97986183,14:53:05.347959,0.00538,0.00000,0.00000,-0.14883,0.00000,0.00088,-0.00125,-0.00036,-0.05075,-0.11944,0.99290,4.80290,0.00000,2.87394,2.87394,-5.46760,0.33749,4.74409,-6.05260,0.37065,2.49034,2.49034,A,145305.20
4.81936,57.68834038,11.97987118,57.68834067,11.97986183,14:53:05.358305,0.00531,0.00000,0.00000,-0.14882,0.00000,0.00271,0.00150,-0.00051,-0.05020,-0.11871,0.99430,4.81347,0.00000,2.81640,2.81640,-5.49685,0.33915,4.74409,-6.05260,0.37065,2.49034,2.49034,A,145305.20
4.82952,57.68834040,11.97987072,57.68834067,11.97986183,14:53:05.368456,0.00508,0.00000,0.00000,-0.14880,0.00000,0.00378,0.00226,0.00330,-0.04990,-0.11822,0.99253,4.82366,0.00000,2.76749,2.76749,-5.52464,0.34072,4.74409,-6.05260,0.37065,2.49034,2.49034,A,145305.20
4.84026,57.68834041,11.97987027,57.68834067,11.97986183,14:53:05.379193,0.00541,0.00000,0.00000,-0.14881,0.00000,-0.00156,0.00425,-0.00036,-0.05185,-0.11700,0.99107,4.83427,0.00000,2.72591,2.72591,-5.55103,0.34222,4.74409,-6.05260,0.37065,2.49034,2.49034,A,145305.20
4.87220,57.68834042,11.97986985,57.68834283,11.97985767,14:53:05.411152,0.02695,0.00000,0.00000,-0.14884,0.00000,0.00042,0.00013,-0.00067,-0.05222,-0.11950,0.99204,4.84459,0.00000,2.69058,2.69058,-5.57611,0.34364,4.86163,-6.30025,0.61157,2.36997,2.36997,A,145305.30
4.89203,57.68834054,11.97986924,57.68834283,11.97985767,14:53:05.430966,0.00716,0.00000,0.00000,-0.14875,0.00000,0.00287,0.00119,-0.00082,-0.05130,-0.11919,0.99143,4.88602,0.00000,2.64249,2.64249,-5.61232,0.35704,4.86163,-6.30025,0.61157,2.36997,2.36997,A,145305.30
4.90061,57.68834066,11.97986866,57.68834283,11.97985767,14:53:05.439683,0.00519,0.00000,0.00000,-0.14879,0.00000,-0.00049,0.00013,-0.00128,-0.04880,-0.11925,0.99265,4.89464,0.00000,2.60161,2.60161,-5.64672,0.36976,4.86163,-6.30025,0.61157,2.36997,2.36997,A,145305.30
4.91102,57.68834077,11.97986811,57.68834283,11.97985767,14:53:05.450190,0.00520,0.00000,0.00000,-0.14881,0.00000,-0.00065,-0.00049,-0.00235,-0.05215,-0.11852,0.99162,4.90537,0.00000,2.56686,2.56686,-5.67939,0.38185,4.86163,-6.30025,0.61157,2.36997,2.36997,A,145305.30
4.92131,57.68834087,11.97986759,57.68834283,11.97985767,14:53:05.460240,0.00510,0.00000,0.00000,-0.14881,0.00000,0.00012,0.00211,0.00269,-0.05075,-0.11730,0.99345,4.91541,0.00000,2.53733,2.53733,-5.71044,0.39334,4.86163,-6.30025,0.61157,2.36997,2.36997,A,145305.30
4.93290,57.68834097,11.97986709,57.68834283,11.97985767,14:53:05.471830,0.00628,0.00000,0.00000,-0.14883,0.00000,-0.00111,-0.00049,0.00010,-0.05002,-0.11810,0.99381,4.92690,0.00000,2.51222,2.51222,-5.73993,0.40425,4.86163,-6.30025,0.61157,2.36997,2.36997,A,145305.30
4.94208,57.68834106,11.97986662,57.68834283,11.97985767,14:53:05.481012,0.00506,0.00000,0.00000,-0.14881,0.00000,0.00378,0.00333,-0.00143,-0.05124,-0.11840,0.99137,4.93641,0.00000,2.49089,2.49089,-5.76794,0.41462,4.86163,-6.30025,0.61157,2.36997,2.36997,A,145305.30
4.95272,57.68834115,11.97986617,57.68834283,11.97985767,14:53:05.491648,0.00520,0.00000,0.00000,-0.14883,0.00000,-0.00187,-0.00125,0.00285,-0.05069,-0.11669,0.99198,4.94676,0.00000,2.47275,2.47275,-5.79456,0.42446,4.86163,-6.30025,0.61157,2.36997,2.36997,A,145305.30
4.98523,57.68834123,11.97986575,57.68834433,11.97985150,14:53:05.524180,0.02730,0.00000,0.00000,-0.14886,0.00000,-0.00004,0.00287,0.00254,-0.05130,-0.11999,0.99338,4.95797,0.00000,2.45733,2.45733,-5.81984,0.43382,4.97500,-6.66678,0.77836,2.71453,2.71453,A,145305.40
5.00504,57.68834139,11.97986504,57.68834433,11.97985150,14:53:05.543972,0.00703,0.00000,0.00000,-0.14893,0.00000,-0.00111,0.00028,-0.00006,-0.05081,-0.11877,0.99320,4.99905,0.00000,2.49591,2.49591,-5.86219,0.45105,4.97500,-6.66678,0.77836,2.71453,2.71453,A,145305.40
5.02046,57.68834154,11.97986436,57.68834433,11.97985150,14:53:05.559696,0.01205,0.00000,0.00000,0.00000,0.00000,-0.00477,-0.00125,0.00147,-0.05301,-0.11834,0.99137,5.00837,0.00000,3.02537,3.02537,-6.66678,0.77836,4.97500,-6.66678,0.77836,2.71453,2.71453,A,145305.40
5.08724,57.68834433,11.97985150,57.68834433,11.97985150,14:53:05.626176,0.05792,0.00000,0.00000,-0.00224,-1.59684,-0.00019,-0.00140,-0.00326,-0.05234,-0.11773,0.99369,5.03315,0.00000,2.74952,4.27769,-6.66678,0.77836,4.97500,-6.66678,0.77836,2.71453,2.71453,A,145305.40
