Time,lat_estimated,lon_estimated,latitude,longitude,RealTime,CalculationTime,MeasuredVelocity,FilteredVelocity,Roll,SteeringAngle,RollRate,gy,gz,ax,ay,az,imu_read_timing,v_estimated,yaw_estimated,heading_estimated,x_estimated,y_estimated,GPS_timestamp,x_GPS,y_GPS,theta_GPS,theta_GPS_noUnwrap,status,NMEA timestamp
0.06594,57.68818633,11.98002267,57.68818633,11.98002267,15:25:35.183546,0.06588,0.00000,1.50000,-0.00222,0.02000,-0.00442,0.00072,-0.00122,-0.05155,-0.11303,0.99046,0.00001,0.00000,0.00000,0.00000,0.00000,0.00000,0.01532,0.00000,0.00000,0.00000,0.00000,A,152535.00
0.08384,57.68818633,11.98002267,57.68818633,11.98002267,15:25:35.201426,0.00637,0.00000,0.00000,-0.00447,0.00000,-0.00106,-0.00126,0.00000,-0.05069,-0.11560,0.99119,0.07727,0.00000,0.00000,0.00000,0.00000,0.00000,0.01532,0.00000,0.00000,0.00000,0.00000,A,152535.00
0.09364,57.68818633,11.98002267,57.68818633,11.98002267,15:25:35.211223,0.00553,0.00000,0.00000,-0.00657,0.00000,0.00307,-0.00096,0.00000,-0.05246,-0.11456,0.99162,0.08697,0.00000,0.00000,0.00000,0.00000,0.00000,0.01532,0.00000,0.00000,0.00000,0.00000,A,152535.00
0.10356,57.68818633,11.98002267,57.68818633,11.98002267,15:25:35.221142,0.00505,0.00000,0.00000,-0.00873,0.00000,-0.00442,-0.00126,0.00092,-0.05258,-0.11602,0.99125,0.09720,0.00000,0.00000,0.00000,0.00000,0.00000,0.01532,0.00000,0.00000,0.00000,0.00000,A,152535.00
0.11402,57.68818633,11.98002267,57.68818633,11.98002267,15:25:35.231606,0.00514,0.00000,0.00000,-0.01080,0.00000,-0.00167,-0.00065,0.00199,-0.05069,-0.11376,0.98991,0.10740,0.00000,0.00000,0.00000,0.00000,0.00000,0.01532,0.00000,0.00000,0.00000,0.00000,A,152535.00
0.16794,57.68818633,11.98002267,57.68818433,11.98001467,15:25:35.285572,0.04866,0.00000,1.50000,-0.01285,0.02000,-0.00152,0.00088,-0.00091,-0.05228,-0.11499,0.99284,0.11799,0.00000,0.00000,0.00000,0.00000,0.00000,0.14725,-0.47549,-0.22239,-2.70411,-2.70411,A,152535.20
0.18070,57.68818623,11.98002227,57.68818433,11.98001467,15:25:35.298297,0.00733,0.00000,0.00000,-0.01484,0.00000,0.00032,0.00256,-0.00107,-0.05142,-0.11517,0.99155,0.17409,0.00000,-0.40562,-0.40562,-0.02377,-0.01112,0.14725,-0.47549,-0.22239,-2.70411,-2.70411,A,152535.20
0.18908,57.68818614,11.98002189,57.68818433,11.98001467,15:25:35.306664,0.00530,0.00000,0.00000,-0.01682,0.00000,-0.00320,-0.00279,0.00321,-0.05191,-0.11334,0.99088,0.18248,0.00000,-0.75039,-0.75039,-0.04636,-0.02168,0.14725,-0.47549,-0.22239,-2.70411,-2.70411,A,152535.20
0.19923,57.68818605,11.98002153,57.68818433,11.98001467,15:25:35.316815,0.00506,0.00000,0.00000,-0.01874,0.00000,0.00261,-0.00325,-0.00198,-0.05167,-0.11511,0.99052,0.19287,0.00000,-1.04345,-1.04345,-0.06782,-0.03172,0.14725,-0.47549,-0.22239,-2.70411,-2.70411,A,152535.20
0.21043,57.68818596,11.98002118,57.68818433,11.98001467,15:25:35.328015,0.00569,0.00000,0.00000,-0.02067,0.00000,0.00016,0.00072,0.00275,-0.05197,-0.11560,0.98887,0.20378,0.00000,-1.29255,-1.29255,-0.08820,-0.04125,0.14725,-0.47549,-0.22239,-2.70411,-2.70411,A,152535.20
0.22035,57.68818588,11.98002086,57.68818433,11.98001467,15:25:35.338180,0.00531,0.00000,0.00000,-0.02251,0.00000,0.00154,0.00149,0.00138,-0.05228,-0.11254,0.99229,0.21401,0.00000,-1.50428,-1.50428,-0.10757,-0.05031,0.14725,-0.47549,-0.22239,-2.70411,-2.70411,A,152535.20
0.23178,57.68818580,11.98002055,57.68818433,11.98001467,15:25:35.349378,0.00651,0.00000,0.00000,-0.02433,0.00000,0.00291,-0.00126,-0.00091,-0.05222,-0.11413,0.99162,0.22388,0.00000,-1.68426,-1.68426,-0.12596,-0.05891,0.14725,-0.47549,-0.22239,-2.70411,-2.70411,A,152535.20
0.24126,57.68818573,11.98002025,57.68818433,11.98001467,15:25:35.358847,0.00559,0.00000,0.00000,-0.02616,0.00000,0.00062,-0.00142,-0.00091,-0.05276,-0.11511,0.99210,0.23463,0.00000,-1.83724,-1.83724,-0.14344,-0.06709,0.14725,-0.47549,-0.22239,-2.70411,-2.70411,A,152535.20
0.27687,57.68818566,11.98001997,57.68818333,11.98000933,15:25:35.394467,0.03079,0.00000,1.50000,-0.02796,0.02000,0.00261,-0.00050,0.00153,-0.04947,-0.11688,0.99259,0.24475,0.00000,-1.96727,-1.96727,-0.16004,-0.07485,0.26172,-0.79249,-0.33358,-2.80423,-2.80423,A,152535.30
0.29826,57.68818554,11.98001944,57.68818333,11.98000933,15:25:35.415845,0.00692,0.00000,0.00000,-0.02967,0.00000,0.00139,0.00149,-0.00076,-0.05081,-0.11376,0.98832,0.29158,0.00000,-2.09281,-2.09281,-0.19166,-0.08779,0.26172,-0.79249,-0.33358,-2.80423,-2.80423,A,152535.30
0.30691,57.68818543,11.98001894,57.68818333,11.98000933,15:25:35.424492,0.00533,0.00000,0.00000,-0.03144,0.00000,-0.00274,0.00240,0.00229,-0.05344,-0.11474,0.98966,0.30034,0.00000,-2.19952,-2.19952,-0.22170,-0.10008,0.26172,-0.79249,-0.33358,-2.80423,-2.80423,A,152535.30
0.31733,57.68818533,11.98001846,57.68818333,11.98000933,15:25:35.434911,0.00536,0.00000,0.00000,-0.03316,0.00000,0.00261,0.00042,-0.00061,-0.05337,-0.11627,0.99198,0.31069,0.00000,-2.29023,-2.29023,-0.25024,-0.11175,0.26172,-0.79249,-0.33358,-2.80423,-2.80423,A,152535.30
0.32757,57.68818523,11.98001800,57.68818333,11.98000933,15:25:35.445147,0.00519,0.00000,0.00000,-0.03486,0.00000,-0.00014,0.00057,-0.00290,-0.05197,-0.11492,0.99345,0.32121,0.00000,-2.36733,-2.36733,-0.27736,-0.12285,0.26172,-0.79249,-0.33358,-2.80423,-2.80423,A,152535.30
0.33845,57.68818513,11.98001757,57.68818333,11.98000933,15:25:35.456026,0.00557,0.00000,0.00000,-0.03653,0.00000,0.00230,-0.00187,0.00016,-0.05222,-0.11602,0.99210,0.33140,0.00000,-2.43286,-2.43286,-0.30311,-0.13338,0.26172,-0.79249,-0.33358,-2.80423,-2.80423,A,152535.30
0.34834,57.68818504,11.98001716,57.68818333,11.98000933,15:25:35.466171,0.00505,0.00000,0.00000,-0.03819,0.00000,-0.00197,-0.00233,0.00397,-0.05325,-0.11431,0.99058,0.34199,0.00000,-2.48857,-2.48857,-0.32758,-0.14339,0.26172,-0.79249,-0.33358,-2.80423,-2.80423,A,152535.30
0.36012,57.68818496,11.98001676,57.68818333,11.98000933,15:25:35.477701,0.00612,0.00000,0.00000,-0.03978,0.00000,0.00169,-0.00050,0.00138,-0.05087,-0.11364,0.99119,0.35338,0.00000,-2.53592,-2.53592,-0.35083,-0.15290,0.26172,-0.79249,-0.33358,-2.80423,-2.80423,A,152535.30
0.39963,57.68818488,11.98001639,57.68818167,11.98000900,15:25:35.517240,0.03523,0.00000,1.50000,-0.04137,0.02000,0.00093,0.00256,-0.00107,-0.05191,-0.11468,0.99314,0.36309,0.00000,-2.57616,-2.57616,-0.37291,-0.16194,0.38094,-0.81230,-0.51891,-1.67730,-1.67730,A,152535.40
0.41829,57.68818472,11.98001602,57.68818167,11.98000900,15:25:35.535874,0.00737,0.00000,0.00000,-0.04293,0.00000,0.00032,0.00561,-0.00045,-0.05325,-0.11474,0.99107,0.41158,0.00000,-2.44133,-2.44133,-0.39488,-0.17978,0.38094,-0.81230,-0.51891,-1.67730,-1.67730,A,152535.40
0.42648,57.68818456,11.98001567,57.68818167,11.98000900,15:25:35.544051,0.00532,0.00000,0.00000,-0.04447,0.00000,-0.00029,0.00057,0.00123,-0.05514,-0.11431,0.99302,0.41987,0.00000,-2.32673,-2.32673,-0.41575,-0.19674,0.38094,-0.81230,-0.51891,-1.67730,-1.67730,A,152535.40
0.44020,57.68818442,11.98001534,57.68818167,11.98000900,15:25:35.557781,0.00783,0.00000,0.00000,-0.04600,0.00000,-0.00060,-0.00233,0.00367,-0.05331,-0.11419,0.98936,0.43272,0.00000,-2.22931,-2.22931,-0.43558,-0.21285,0.38094,-0.81230,-0.51891,-1.67730,-1.67730,A,152535.40
0.44819,57.68818428,11.98001502,57.68818167,11.98000900,15:25:35.565785,0.00542,0.00000,0.00000,-0.04745,0.00000,0.00444,0.00026,-0.00091,-0.05319,-0.11334,0.99271,0.44147,0.00000,-2.14651,-2.14651,-0.45441,-0.22815,0.38094,-0.81230,-0.51891,-1.67730,-1.67730,A,152535.40
0.45956,57.68818415,11.98001472,57.68818167,11.98000900,15:25:35.577143,0.00656,0.00000,0.00000,-0.04893,0.00000,0.00230,-0.00187,-0.00168,-0.05051,-0.11627,0.99223,0.45153,0.00000,-2.07613,-2.07613,-0.47231,-0.24269,0.38094,-0.81230,-0.51891,-1.67730,-1.67730,A,152535.40
0.46905,57.68818403,11.98001443,57.68818167,11.98000900,15:25:35.586635,0.00539,0.00000,0.00000,-0.05044,0.00000,-0.00457,0.00286,-0.00137,-0.04917,-0.11450,0.99155,0.46245,0.00000,-2.01630,-2.01630,-0.48931,-0.25650,0.38094,-0.81230,-0.51891,-1.67730,-1.67730,A,152535.40
0.47978,57.68818391,11.98001416,57.68818167,11.98000900,15:25:35.597361,0.00572,0.00000,0.00000,-0.05188,0.00000,0.00169,0.00454,-0.00107,-0.05209,-0.11590,0.99137,0.47341,0.00000,-1.96545,-1.96545,-0.50546,-0.26962,0.38094,-0.81230,-0.51891,-1.67730,-1.67730,A,152535.40
0.51580,57.68818380,11.98001390,57.68818133,11.98000800,15:25:35.633407,0.03116,0.00000,1.50000,-0.05329,0.02000,0.00184,-0.00035,0.00046,-0.05350,-0.11596,0.99277,0.48315,0.00000,-1.92223,-1.92223,-0.52080,-0.28209,0.50016,-0.87174,-0.55597,-2.58400,-2.58400,A,152535.50
0.53601,57.68818367,11.98001361,57.68818133,11.98000800,15:25:35.653591,0.00611,0.00000,0.00000,-0.05477,0.00000,-0.00106,-0.00050,0.00321,-0.05045,-0.11688,0.99040,0.52963,0.00000,-2.02149,-2.02149,-0.53835,-0.29578,0.50016,-0.87174,-0.55597,-2.58400,-2.58400,A,152535.50
0.54565,57.68818356,11.98001333,57.68818133,11.98000800,15:25:35.663231,0.00534,0.00000,0.00000,-0.05615,0.00000,0.00016,0.00179,-0.00076,-0.05222,-0.11541,0.99064,0.53901,0.00000,-2.10587,-2.10587,-0.55502,-0.30879,0.50016,-0.87174,-0.55597,-2.58400,-2.58400,A,152535.50
0.55576,57.68818345,11.98001306,57.68818133,11.98000800,15:25:35.673341,0.00506,0.00000,0.00000,-0.05755,0.00000,-0.00427,-0.00035,-0.00290,-0.05203,-0.11535,0.99430,0.54942,0.00000,-2.17759,-2.17759,-0.57085,-0.32115,0.50016,-0.87174,-0.55597,-2.58400,-2.58400,A,152535.50
0.56628,57.68818334,11.98001281,57.68818133,11.98000800,15:25:35.683861,0.00533,0.00000,0.00000,-0.05889,0.00000,0.00032,-0.00065,-0.00366,-0.05222,-0.11517,0.99265,0.55948,0.00000,-2.23855,-2.23855,-0.58590,-0.33289,0.50016,-0.87174,-0.55597,-2.58400,-2.58400,A,152535.50
0.57801,57.68818324,11.98001257,57.68818133,11.98000800,15:25:35.695589,0.00666,0.00000,0.00000,-0.06018,0.00000,0.00108,-0.00157,0.00214,-0.05258,-0.11438,0.99137,0.57048,0.00000,-2.29037,-2.29037,-0.60019,-0.34404,0.50016,-0.87174,-0.55597,-2.58400,-2.58400,A,152535.50
0.58683,57.68818314,11.98001234,57.68818133,11.98000800,15:25:35.704405,0.00507,0.00000,0.00000,-0.06138,0.00000,0.00749,0.00317,0.00031,-0.05240,-0.11322,0.99052,0.58024,0.00000,-2.33441,-2.33441,-0.61377,-0.35464,0.50016,-0.87174,-0.55597,-2.58400,-2.58400,A,152535.50
0.59812,57.68818305,11.98001212,57.68818133,11.98000800,15:25:35.715695,0.00597,0.00000,0.00000,-0.06262,0.00000,0.00368,-0.00080,-0.00229,-0.05020,-0.11468,0.99241,0.59118,0.00000,-2.37185,-2.37185,-0.62666,-0.36471,0.50016,-0.87174,-0.55597,-2.58400,-2.58400,A,152535.50
0.63962,57.68818297,11.98001192,57.68818183,11.98000983,15:25:35.757248,0.03707,0.00000,1.50000,-0.06384,0.02000,0.00261,-0.00035,0.00077,-0.05197,-0.11468,0.99192,0.60125,0.00000,-2.40367,-2.40367,-0.63892,-0.37427,0.61833,-0.76277,-0.50038,0.47179,0.47179,A,152535.60
0.65860,57.68818291,11.98001181,57.68818183,11.98000983,15:25:35.776177,0.00724,0.00000,0.00000,-0.06510,0.00000,-0.00060,0.00072,0.00016,-0.05344,-0.11407,0.99070,0.65195,0.00000,-1.97235,-1.97235,-0.64511,-0.38058,0.61833,-0.76277,-0.50038,0.47179,0.47179,A,152535.60
0.66793,57.68818286,11.98001171,57.68818183,11.98000983,15:25:35.785508,0.00617,0.00000,0.00000,-0.06632,0.00000,0.00169,0.00332,-0.00168,-0.05197,-0.11553,0.98954,0.66120,0.00000,-1.60573,-1.60573,-0.65099,-0.38657,0.61833,-0.76277,-0.50038,0.47179,0.47179,A,152535.60
0.67751,57.68818281,11.98001162,57.68818183,11.98000983,15:25:35.795095,0.00535,0.00000,0.00000,-0.06751,0.00000,0.00245,-0.00294,0.00138,-0.05161,-0.11499,0.98936,0.67087,0.00000,-1.29410,-1.29410,-0.65658,-0.39226,0.61833,-0.76277,-0.50038,0.47179,0.47179,A,152535.60
0.68831,57.68818276,11.98001153,57.68818183,11.98000983,15:25:35.806131,0.00574,0.00000,0.00000,-0.06871,0.00000,-0.00106,-0.00111,-0.00045,-0.05264,-0.11572,0.99204,0.68123,0.00000,-1.02922,-1.02922,-0.66189,-0.39766,0.61833,-0.76277,-0.50038,0.47179,0.47179,A,152535.60
0.69804,57.68818271,11.98001145,57.68818183,11.98000983,15:25:35.815621,0.00516,0.00000,0.00000,-0.06985,0.00000,0.00307,-0.00004,-0.00061,-0.05002,-0.11486,0.99094,0.69140,0.00000,-0.80407,-0.80407,-0.66694,-0.40280,0.61833,-0.76277,-0.50038,0.47179,0.47179,A,152535.60
0.71014,57.68818267,11.98001137,57.68818183,11.98000983,15:25:35.827721,0.00682,0.00000,0.00000,-0.07099,0.00000,0.00062,-0.00248,-0.00305,-0.05417,-0.11462,0.99119,0.70347,0.00000,-0.61269,-0.61269,-0.67173,-0.40768,0.61833,-0.76277,-0.50038,0.47179,0.47179,A,152535.60
0.75024,57.68818263,11.98001129,57.68818317,11.98001233,15:25:35.867842,0.03652,0.00000,1.50000,-0.07210,0.02000,0.00413,-0.00340,-0.00198,-0.05112,-0.11566,0.99223,0.71221,0.00000,-0.45002,-0.45002,-0.67628,-0.41231,0.74037,-0.61418,-0.35212,0.78428,0.78428,A,152535.80
0.76095,57.68818265,11.98001134,57.68818317,11.98001233,15:25:35.878547,0.00544,0.00000,0.00000,-0.07300,0.00000,0.00520,-0.00508,0.00000,-0.05130,-0.11486,0.99009,0.75434,0.00000,-0.26487,-0.26487,-0.67317,-0.40930,0.74037,-0.61418,-0.35212,0.78428,0.78428,A,152535.80
0.77097,57.68818268,11.98001139,57.68818317,11.98001233,15:25:35.888558,0.00506,0.00000,0.00000,-0.07409,0.00000,0.00169,-0.00172,-0.00152,-0.05173,-0.11517,0.98979,0.76440,0.00000,-0.10750,-0.10750,-0.67022,-0.40644,0.74037,-0.61418,-0.35212,0.78428,0.78428,A,152535.80
0.78174,57.68818270,11.98001144,57.68818317,11.98001233,15:25:35.899322,0.00542,0.00000,0.00000,-0.07520,0.00000,-0.00121,0.00042,0.00077,-0.05258,-0.11547,0.99186,0.77504,0.00000,0.02627,0.02627,-0.66742,-0.40373,0.74037,-0.61418,-0.35212,0.78428,0.78428,A,152535.80
0.79320,57.68818273,11.98001148,57.68818317,11.98001233,15:25:35.910775,0.00645,0.00000,0.00000,-0.07624,0.00000,0.00139,0.00072,0.00016,-0.05094,-0.11383,0.98918,0.78650,0.00000,0.13997,0.13997,-0.66476,-0.40115,0.74037,-0.61418,-0.35212,0.78428,0.78428,A,152535.80
0.80214,57.68818275,11.98001152,57.68818317,11.98001233,15:25:35.919727,0.00517,0.00000,0.00000,-0.07731,0.00000,-0.00167,-0.00355,0.00123,-0.05124,-0.11456,0.98918,0.79550,0.00000,0.23662,0.23662,-0.66223,-0.39870,0.74037,-0.61418,-0.35212,0.78428,0.78428,A,152535.80
0.81267,57.68818277,11.98001157,57.68818317,11.98001233,15:25:35.930268,0.00530,0.00000,0.00000,-0.07829,0.00000,0.00581,-0.00309,-0.00015,-0.05008,-0.11505,0.99003,0.80609,0.00000,0.31877,0.31877,-0.65983,-0.39637,0.74037,-0.61418,-0.35212,0.78428,0.78428,A,152535.80
0.82502,57.68818279,11.98001160,57.68818317,11.98001233,15:25:35.942611,0.00696,0.00000,0.00000,-0.07936,0.00000,-0.00472,-0.00142,0.00291,-0.05173,-0.11425,0.99149,0.81836,0.00000,0.38859,0.38859,-0.65755,-0.39415,0.74037,-0.61418,-0.35212,0.78428,0.78428,A,152535.80
0.83461,57.68818281,11.98001164,57.68818317,11.98001233,15:25:35.952187,0.00555,0.00000,0.00000,-0.08035,0.00000,0.00016,0.00026,0.00046,-0.05356,-0.11370,0.99113,0.82795,0.00000,0.44795,0.44795,-0.65538,-0.39205,0.74037,-0.61418,-0.35212,0.78428,0.78428,A,152535.80
0.86431,57.68818283,11.98001167,57.68818350,11.98001467,15:25:35.982175,0.02485,0.00000,1.50000,-0.08130,0.02000,0.00307,-0.00218,-0.00015,-0.05301,-0.11395,0.99076,0.83818,0.00000,0.49840,0.49840,-0.65332,-0.39006,0.85508,-0.47549,-0.31505,0.26116,0.26116,A,152535.90
0.88223,57.68818286,11.98001182,57.68818350,11.98001467,15:25:35.999818,0.00726,0.00000,0.00000,-0.08209,0.00000,0.00398,0.00133,0.00275,-0.05155,-0.11273,0.99534,0.87516,0.00000,0.46281,0.46281,-0.64443,-0.38631,0.85508,-0.47549,-0.31505,0.26116,0.26116,A,152535.90
0.89286,57.68818289,11.98001197,57.68818350,11.98001467,15:25:36.010457,0.00748,0.00000,0.00000,-0.08304,0.00000,0.00276,0.00103,-0.00122,-0.05331,-0.11529,0.99027,0.88423,0.00000,0.43256,0.43256,-0.63598,-0.38274,0.85508,-0.47549,-0.31505,0.26116,0.26116,A,152535.90
0.90112,57.68818292,11.98001210,57.68818350,11.98001467,15:25:36.018711,0.00534,0.00000,0.00000,-0.08393,0.00000,0.00413,-0.00309,0.00153,-0.05112,-0.11340,0.99052,0.89450,0.00000,0.40685,0.40685,-0.62796,-0.37936,0.85508,-0.47549,-0.31505,0.26116,0.26116,A,152535.90
0.91124,57.68818295,11.98001223,57.68818350,11.98001467,15:25:36.028815,0.00505,0.00000,0.00000,-0.08487,0.00000,-0.00014,-0.00203,0.00260,-0.05124,-0.11450,0.99235,0.90487,0.00000,0.38500,0.38500,-0.62033,-0.37614,0.85508,-0.47549,-0.31505,0.26116,0.26116,A,152535.90
0.92331,57.68818298,11.98001235,57.68818350,11.98001467,15:25:36.040902,0.00652,0.00000,0.00000,-0.08581,0.00000,-0.00075,-0.00004,-0.00045,-0.05185,-0.11547,0.98863,0.91532,0.00000,0.36642,0.36642,-0.61309,-0.37309,0.85508,-0.47549,-0.31505,0.26116,0.26116,A,152535.90
0.93225,57.68818300,11.98001247,57.68818350,11.98001467,15:25:36.050064,0.00506,0.00000,0.00000,-0.08668,0.00000,0.00337,-0.00111,0.00275,-0.05167,-0.11431,0.98911,0.92589,0.00000,0.35063,0.35063,-0.60621,-0.37019,0.85508,-0.47549,-0.31505,0.26116,0.26116,A,152535.90
0.94315,57.68818303,11.98001258,57.68818350,11.98001467,15:25:36.060734,0.00556,0.00000,0.00000,-0.08758,0.00000,0.00032,-0.00096,0.00077,-0.05350,-0.11492,0.99284,0.93676,0.00000,0.33721,0.33721,-0.59967,-0.36743,0.85508,-0.47549,-0.31505,0.26116,0.26116,A,152535.90
0.95334,57.68818305,11.98001268,57.68818350,11.98001467,15:25:36.070919,0.00534,0.00000,0.00000,-0.08844,0.00000,-0.00075,0.00042,-0.00015,-0.05222,-0.11358,0.99296,0.94669,0.00000,0.32580,0.32580,-0.59347,-0.36481,0.85508,-0.47549,-0.31505,0.26116,0.26116,A,152535.90
0.99441,57.68818307,11.98001278,57.68818283,11.98002000,15:25:36.112550,0.03602,0.00000,1.50000,-0.08934,0.02000,0.00016,-0.00432,0.00367,-0.05307,-0.11669,0.99137,0.95733,0.00000,0.31610,0.31610,-0.58757,-0.36232,0.97442,-0.15850,-0.38918,-0.22972,-0.22972,A,152536.00
1.01290,57.68818306,11.98001314,57.68818283,11.98002000,15:25:36.130493,0.00685,0.00000,0.00000,-0.09007,0.00000,0.00337,-0.00065,0.00107,-0.05142,-0.11688,0.98972,1.00631,0.00000,0.23423,0.23423,-0.56611,-0.36367,0.97442,-0.15850,-0.38918,-0.22972,-0.22972,A,152536.00
1.02179,57.68818305,11.98001348,57.68818283,11.98002000,15:25:36.139364,0.00517,0.00000,0.00000,-0.09094,0.00000,-0.00304,0.00103,0.00092,-0.05203,-0.11456,0.99186,1.01513,0.00000,0.16464,0.16464,-0.54573,-0.36494,0.97442,-0.15850,-0.38918,-0.22972,-0.22972,A,152536.00
1.03232,57.68818304,11.98001381,57.68818283,11.98002000,15:25:36.150147,0.00530,0.00000,0.00000,-0.09178,0.00000,-0.00197,0.00103,0.00046,-0.05222,-0.11389,0.99119,1.02574,0.00000,0.10548,0.10548,-0.52637,-0.36615,0.97442,-0.15850,-0.38918,-0.22972,-0.22972,A,152536.00
1.04265,57.68818303,11.98001412,57.68818283,11.98002000,15:25:36.160230,0.00540,0.00000,0.00000,-0.09257,0.00000,0.00261,0.00149,0.00168,-0.05264,-0.11468,0.99125,1.03604,0.00000,0.05520,0.05520,-0.50798,-0.36731,0.97442,-0.15850,-0.38918,-0.22972,-0.22972,A,152536.00
1.05295,57.68818302,11.98001441,57.68818283,11.98002000,15:25:36.170535,0.00530,0.00000,0.00000,-0.09333,0.00000,0.00139,-0.00172,-0.00076,-0.04856,-0.11285,0.99137,1.04637,0.00000,0.01246,0.01246,-0.49050,-0.36840,0.97442,-0.15850,-0.38918,-0.22972,-0.22972,A,152536.00
1.06386,57.68818301,11.98001469,57.68818283,11.98002000,15:25:36.181437,0.00573,0.00000,0.00000,-0.09410,0.00000,0.00245,0.00179,-0.00045,-0.05344,-0.11499,0.99290,1.05747,0.00000,-0.02386,-0.02386,-0.47390,-0.36944,0.97442,-0.15850,-0.38918,-0.22972,-0.22972,A,152536.00
1.07425,57.68818300,11.98001496,57.68818283,11.98002000,15:25:36.191843,0.00554,0.00000,0.00000,-0.09492,0.00000,-0.00243,0.00103,-0.00213,-0.05002,-0.11523,0.99052,1.06725,0.00000,-0.05474,-0.05474,-0.45813,-0.37043,0.97442,-0.15850,-0.38918,-0.22972,-0.22972,A,152536.00
1.10519,57.68818299,11.98001521,57.68818400,11.98002117,15:25:36.222788,0.02607,0.00000,1.50000,-0.09571,0.02000,0.00077,0.00118,-0.00366,-0.05075,-0.11663,0.99113,1.07783,0.00000,-0.08099,-0.08099,-0.44315,-0.37136,1.09568,-0.08915,-0.25945,1.07991,1.07991,A,152536.10
1.11556,57.68818304,11.98001551,57.68818400,11.98002117,15:25:36.233145,0.00515,0.00000,0.00000,-0.09641,0.00000,0.00200,-0.00264,-0.00091,-0.05179,-0.11511,0.99247,1.10917,0.00000,0.09314,0.09314,-0.42545,-0.36577,1.09568,-0.08915,-0.25945,1.07991,1.07991,A,152536.10
1.12837,57.68818309,11.98001579,57.68818400,11.98002117,15:25:36.246396,0.00743,0.00000,0.00000,-0.09717,0.00000,0.00047,0.00103,0.00107,-0.05295,-0.11560,0.99082,1.11981,0.00000,0.24116,0.24116,-0.40864,-0.36045,1.09568,-0.08915,-0.25945,1.07991,1.07991,A,152536.10
1.13689,57.68818314,11.98001606,57.68818400,11.98002117,15:25:36.254481,0.00541,0.00000,0.00000,-0.09788,0.00000,0.00077,0.00164,-0.00168,-0.05179,-0.11358,0.99241,1.13027,0.00000,0.36697,0.36697,-0.39266,-0.35540,1.09568,-0.08915,-0.25945,1.07991,1.07991,A,152536.10
1.14694,57.68818318,11.98001632,57.68818400,11.98002117,15:25:36.264524,0.00505,0.00000,0.00000,-0.09858,0.00000,0.00032,0.00088,0.00168,-0.05179,-0.11334,0.99271,1.14039,0.00000,0.47391,0.47391,-0.37749,-0.35060,1.09568,-0.08915,-0.25945,1.07991,1.07991,A,152536.10
1.16212,57.68818322,11.98001656,57.68818400,11.98002117,15:25:36.279703,0.00921,0.00000,0.00000,-0.09934,0.00000,-0.00075,0.00317,-0.00030,-0.04862,-0.11663,0.99009,1.15344,0.00000,0.56481,0.56481,-0.36307,-0.34605,1.09568,-0.08915,-0.25945,1.07991,1.07991,A,152536.10
1.16796,57.68818326,11.98001679,57.68818400,11.98002117,15:25:36.285537,0.00498,0.00000,0.00000,-0.10005,0.00000,-0.00259,0.00026,0.00260,-0.05344,-0.11315,0.99052,1.16164,0.00000,0.64208,0.64208,-0.34937,-0.34172,1.09568,-0.08915,-0.25945,1.07991,1.07991,A,152536.10
1.17957,57.68818330,11.98001701,57.68818400,11.98002117,15:25:36.297153,0.00635,0.00000,0.00000,-0.10077,0.00000,-0.00350,0.00271,0.00382,-0.05033,-0.11438,0.99302,1.17314,0.00000,0.70775,0.70775,-0.33636,-0.33760,1.09568,-0.08915,-0.25945,1.07991,1.07991,A,152536.10
1.18998,57.68818333,11.98001722,57.68818400,11.98002117,15:25:36.307578,0.00582,0.00000,0.00000,-0.10145,0.00000,0.00062,-0.00386,0.00031,-0.05319,-0.11462,0.99143,1.18295,0.00000,0.76358,0.76358,-0.32400,-0.33370,1.09568,-0.08915,-0.25945,1.07991,1.07991,A,152536.10
1.22177,57.68818337,11.98001741,57.68818567,11.98002233,15:25:36.339706,0.02721,0.00000,1.50000,-0.10218,0.02000,-0.00274,-0.00157,0.00046,-0.05209,-0.11669,0.99223,1.19399,0.00000,0.81103,0.81103,-0.31226,-0.32999,1.21262,-0.01981,-0.07413,1.21275,1.21275,A,152536.20
1.23597,57.68818348,11.98001766,57.68818567,11.98002233,15:25:36.353555,0.00811,0.00000,0.00000,-0.10288,0.00000,-0.00152,0.00103,0.00061,-0.05319,-0.11376,0.99192,1.22760,0.00000,0.87129,0.87129,-0.29764,-0.31719,1.21262,-0.01981,-0.07413,1.21275,1.21275,A,152536.20
1.24417,57.68818359,11.98001789,57.68818567,11.98002233,15:25:36.361748,0.00591,0.00000,0.00000,-0.10349,0.00000,0.00276,0.00011,-0.00229,-0.05148,-0.11395,0.99216,1.23781,0.00000,0.92251,0.92251,-0.28375,-0.30504,1.21262,-0.01981,-0.07413,1.21275,1.21275,A,152536.20
1.25413,57.68818369,11.98001811,57.68818567,11.98002233,15:25:36.371707,0.00527,0.00000,0.00000,-0.10413,0.00000,0.00154,-0.00157,0.00031,-0.05026,-0.11590,0.99155,1.24738,0.00000,0.96604,0.96604,-0.27055,-0.29349,1.21262,-0.01981,-0.07413,1.21275,1.21275,A,152536.20
1.26549,57.68818379,11.98001833,57.68818567,11.98002233,15:25:36.383069,0.00623,0.00000,0.00000,-0.10474,0.00000,0.00307,0.00256,-0.00030,-0.05228,-0.11474,0.98954,1.25880,0.00000,1.00305,1.00305,-0.25801,-0.28253,1.21262,-0.01981,-0.07413,1.21275,1.21275,A,152536.20
1.27472,57.68818389,11.98001853,57.68818567,11.98002233,15:25:36.392299,0.00507,0.00000,0.00000,-0.10536,0.00000,-0.00136,0.00240,0.00000,-0.05106,-0.11407,0.99223,1.26815,0.00000,1.03451,1.03451,-0.24610,-0.27211,1.21262,-0.01981,-0.07413,1.21275,1.21275,A,152536.20
1.28542,57.68818398,11.98001872,57.68818567,11.98002233,15:25:36.402999,0.00536,0.00000,0.00000,-0.10601,0.00000,-0.00396,-0.00340,-0.00091,-0.05094,-0.11413,0.99137,1.27877,0.00000,1.06124,1.06124,-0.23479,-0.26221,1.21262,-0.01981,-0.07413,1.21275,1.21275,A,152536.20
1.29892,57.68818406,11.98001890,57.68818567,11.98002233,15:25:36.416496,0.00813,0.00000,0.00000,-0.10656,0.00000,0.00200,0.00042,0.00092,-0.05307,-0.11303,0.99290,1.29225,0.00000,1.08397,1.08397,-0.22404,-0.25280,1.21262,-0.01981,-0.07413,1.21275,1.21275,A,152536.20
1.30623,57.68818414,11.98001907,57.68818567,11.98002233,15:25:36.423803,0.00521,0.00000,0.00000,-0.10716,0.00000,-0.00243,-0.00004,0.00321,-0.05429,-0.11419,0.99302,1.29954,0.00000,1.10329,1.10329,-0.21383,-0.24387,1.21262,-0.01981,-0.07413,1.21275,1.21275,A,152536.20
1.34785,57.68818422,11.98001923,57.68818733,11.98003000,15:25:36.465451,0.03644,0.00000,1.50000,-0.10766,0.02000,0.00795,0.00485,-0.00168,-0.05289,-0.11438,0.99119,1.31014,0.00000,1.11971,1.11971,-0.20413,-0.23538,1.33795,0.43587,0.11119,0.38627,0.38627,A,152536.40
1.35900,57.68818437,11.98001977,57.68818733,11.98003000,15:25:36.476579,0.00521,0.00000,0.00000,-0.10817,0.00000,0.00169,-0.00096,0.00031,-0.05112,-0.11474,0.99259,1.35240,0.00000,1.00969,1.00969,-0.17213,-0.21805,1.33795,0.43587,0.11119,0.38627,0.38627,A,152536.40
1.38344,57.68818452,11.98002028,57.68818733,11.98003000,15:25:36.501025,0.00971,0.00000,0.00000,-0.10875,0.00000,-0.00060,0.00057,-0.00137,-0.05246,-0.11413,0.99137,1.37698,0.00000,0.91618,0.91618,-0.14173,-0.20159,1.33795,0.43587,0.11119,0.38627,0.38627,A,152536.40
1.39036,57.68818466,11.98002077,57.68818733,11.98003000,15:25:36.507934,0.00605,0.00000,0.00000,-0.10935,0.00000,-0.00045,0.00072,0.00046,-0.05124,-0.11675,0.99143,1.38303,0.00000,0.83669,0.83669,-0.11285,-0.18595,1.33795,0.43587,0.11119,0.38627,0.38627,A,152536.40
1.39977,57.68818479,11.98002123,57.68818733,11.98003000,15:25:36.517350,0.00506,0.00000,0.00000,-0.10993,0.00000,-0.00060,0.00133,0.00504,-0.05331,-0.11614,0.99174,1.39342,0.00000,0.76913,0.76913,-0.08541,-0.17109,1.33795,0.43587,0.11119,0.38627,0.38627,A,152536.40
1.41031,57.68818492,11.98002167,57.68818733,11.98003000,15:25:36.527888,0.00537,0.00000,0.00000,-0.11049,0.00000,-0.00060,-0.00050,-0.00244,-0.05087,-0.11529,0.99326,1.40365,0.00000,0.71170,0.71170,-0.05935,-0.15698,1.33795,0.43587,0.11119,0.38627,0.38627,A,152536.40
1.42063,57.68818504,11.98002208,57.68818733,11.98003000,15:25:36.538236,0.00506,0.00000,0.00000,-0.11100,0.00000,0.00261,0.00149,0.00000,-0.05234,-0.11486,0.99223,1.41407,0.00000,0.66288,0.66288,-0.03459,-0.14357,1.33795,0.43587,0.11119,0.38627,0.38627,A,152536.40
1.43102,57.68818516,11.98002248,57.68818733,11.98003000,15:25:36.548598,0.00527,0.00000,0.00000,-0.11157,0.00000,-0.00136,0.00042,-0.00122,-0.04904,-0.11651,0.99265,1.42425,0.00000,0.62139,0.62139,-0.01106,-0.13083,1.33795,0.43587,0.11119,0.38627,0.38627,A,152536.40
1.47409,57.68818527,11.98002286,57.68818700,11.98003267,15:25:36.592346,0.03794,0.00000,1.50000,-0.11206,0.02000,0.00062,-0.00600,0.00046,-0.05197,-0.11322,0.99338,1.43517,0.00000,0.58612,0.58612,0.01128,-0.11873,1.45255,0.59437,0.07413,-0.22972,-0.22972,A,152536.50
1.49492,57.68818535,11.98002335,57.68818700,11.98003267,15:25:36.612503,0.00843,0.00000,0.00000,-0.11265,0.00000,-0.00167,-0.00569,-0.00168,-0.05161,-0.11419,0.99308,1.48832,0.00000,0.46375,0.46375,0.04044,-0.10909,1.45255,0.59437,0.07413,-0.22972,-0.22972,A,152536.50
1.50204,57.68818543,11.98002381,57.68818700,11.98003267,15:25:36.619621,0.00518,0.00000,0.00000,-0.11318,0.00000,0.00093,-0.00019,0.00046,-0.05344,-0.11651,0.98930,1.49540,0.00000,0.35973,0.35973,0.06813,-0.09993,1.45255,0.59437,0.07413,-0.22972,-0.22972,A,152536.50
1.51304,57.68818551,11.98002426,57.68818700,11.98003267,15:25:36.630627,0.00578,0.00000,0.00000,-0.11370,0.00000,-0.00259,0.00011,0.00153,-0.05398,-0.11462,0.99186,1.50643,0.00000,0.27131,0.27131,0.09444,-0.09122,1.45255,0.59437,0.07413,-0.22972,-0.22972,A,152536.50
1.52268,57.68818559,11.98002468,57.68818700,11.98003267,15:25:36.640255,0.00517,0.00000,0.00000,-0.11420,0.00000,0.00200,0.00271,0.00046,-0.05276,-0.11657,0.98991,1.51609,0.00000,0.19615,0.19615,0.11944,-0.08296,1.45255,0.59437,0.07413,-0.22972,-0.22972,A,152536.50
1.53408,57.68818566,11.98002508,57.68818700,11.98003267,15:25:36.651655,0.00598,0.00000,0.00000,-0.11468,0.00000,0.00123,0.00149,0.00199,-0.05100,-0.11499,0.99119,1.52739,0.00000,0.13227,0.13227,0.14319,-0.07510,1.45255,0.59437,0.07413,-0.22972,-0.22972,A,152536.50
1.54377,57.68818573,11.98002546,57.68818700,11.98003267,15:25:36.661349,0.00526,0.00000,0.00000,-0.11514,0.00000,0.00032,0.00072,0.00031,-0.05112,-0.11438,0.99107,1.53742,0.00000,0.07797,0.07797,0.16575,-0.06764,1.45255,0.59437,0.07413,-0.22972,-0.22972,A,152536.50
1.58762,57.68818579,11.98002582,57.68818533,11.98003267,15:25:36.705380,0.03873,0.00000,1.50000,-0.11562,0.02000,-0.00106,0.00240,-0.00061,-0.05392,-0.11401,0.98838,1.54739,0.00000,0.03182,0.03182,0.18718,-0.06055,1.56527,0.59437,-0.11119,-1.57080,-1.57080,A,152536.60
1.60726,57.68818577,11.98002616,57.68818533,11.98003267,15:25:36.725218,0.00827,0.00000,0.00000,-0.11592,0.00000,0.00276,-0.00004,0.00153,-0.05295,-0.11431,0.99229,1.60087,0.00000,-0.20857,-0.20857,0.20754,-0.06308,1.56527,0.59437,-0.11119,-1.57080,-1.57080,A,152536.60
1.61433,57.68818574,11.98002648,57.68818533,11.98003267,15:25:36.731897,0.00514,0.00000,0.00000,-0.11636,0.00000,0.00245,0.00133,-0.00061,-0.05118,-0.11492,0.99277,1.60771,0.00000,-0.41291,-0.41291,0.22688,-0.06549,1.56527,0.59437,-0.11119,-1.57080,-1.57080,A,152536.60
1.62512,57.68818572,11.98002679,57.68818533,11.98003267,15:25:36.742699,0.00553,0.00000,0.00000,-0.11681,0.00000,0.00001,0.00210,0.00138,-0.05155,-0.11474,0.99204,1.61848,0.00000,-0.58659,-0.58659,0.24525,-0.06778,1.56527,0.59437,-0.11119,-1.57080,-1.57080,A,152536.60
1.63510,57.68818570,11.98002709,57.68818533,11.98003267,15:25:36.752683,0.00511,0.00000,0.00000,-0.11728,0.00000,0.00093,0.00042,0.00031,-0.05057,-0.11657,0.99058,1.62874,0.00000,-0.73422,-0.73422,0.26271,-0.06995,1.56527,0.59437,-0.11119,-1.57080,-1.57080,A,152536.60
1.64637,57.68818569,11.98002737,57.68818533,11.98003267,15:25:36.763947,0.00612,0.00000,0.00000,-0.11769,0.00000,0.00215,0.00072,0.00168,-0.05362,-0.11462,0.99265,1.63973,0.00000,-0.85971,-0.85971,0.27929,-0.07201,1.56527,0.59437,-0.11119,-1.57080,-1.57080,A,152536.60
1.65596,57.68818567,11.98002763,57.68818533,11.98003267,15:25:36.773547,0.00530,0.00000,0.00000,-0.11809,0.00000,0.00245,0.00179,0.00168,-0.05234,-0.11499,0.99290,1.64923,0.00000,-0.96637,-0.96637,0.29504,-0.07397,1.56527,0.59437,-0.11119,-1.57080,-1.57080,A,152536.60
1.69624,57.68818565,11.98002788,57.68818417,11.98003317,15:25:36.814048,0.03532,0.00000,1.50000,-0.11853,0.02000,-0.00029,0.00026,0.00336,-0.05118,-0.11547,0.99204,1.65945,0.00000,-1.05703,-1.05703,0.31001,-0.07583,1.67653,0.62408,-0.24092,-1.34560,-1.34560,A,152536.70
1.71554,57.68818558,11.98002815,57.68818417,11.98003317,15:25:36.833117,0.00781,0.00000,0.00000,-0.11891,0.00000,0.00093,0.00103,0.00199,-0.05142,-0.11499,0.98911,1.70913,0.00000,-1.10032,-1.10032,0.32571,-0.08408,1.67653,0.62408,-0.24092,-1.34560,-1.34560,A,152536.70
1.72347,57.68818551,11.98002840,57.68818417,11.98003317,15:25:36.841045,0.00534,0.00000,0.00000,-0.11931,0.00000,0.00200,0.00317,-0.00229,-0.05100,-0.11486,0.99155,1.71683,0.00000,-1.13711,-1.13711,0.34063,-0.09193,1.67653,0.62408,-0.24092,-1.34560,-1.34560,A,152536.70
1.73410,57.68818544,11.98002864,57.68818417,11.98003317,15:25:36.851676,0.00540,0.00000,0.00000,-0.11976,0.00000,-0.00289,-0.00584,0.00138,-0.05124,-0.11560,0.99149,1.72744,0.00000,-1.16838,-1.16838,0.35481,-0.09938,1.67653,0.62408,-0.24092,-1.34560,-1.34560,A,152536.70
1.74562,57.68818538,11.98002886,57.68818417,11.98003317,15:25:36.863204,0.00668,0.00000,0.00000,-0.12018,0.00000,-0.00091,-0.00004,0.00046,-0.05240,-0.11572,0.99119,1.73836,0.00000,-1.19497,-1.19497,0.36827,-0.10645,1.67653,0.62408,-0.24092,-1.34560,-1.34560,A,152536.70
1.75435,57.68818532,11.98002908,57.68818417,11.98003317,15:25:36.871922,0.00517,0.00000,0.00000,-0.12055,0.00000,0.00291,-0.00142,-0.00275,-0.05020,-0.11517,0.99363,1.74772,0.00000,-1.21756,-1.21756,0.38106,-0.11318,1.67653,0.62408,-0.24092,-1.34560,-1.34560,A,152536.70
1.76549,57.68818526,11.98002928,57.68818417,11.98003317,15:25:36.883065,0.00591,0.00000,0.00000,-0.12095,0.00000,-0.00075,-0.00142,-0.00091,-0.05222,-0.11517,0.99424,1.75881,0.00000,-1.23677,-1.23677,0.39321,-0.11956,1.67653,0.62408,-0.24092,-1.34560,-1.34560,A,152536.70
1.77503,57.68818520,11.98002948,57.68818417,11.98003317,15:25:36.892608,0.00505,0.00000,0.00000,-0.12129,0.00000,0.00245,0.00088,-0.00259,-0.05222,-0.11383,0.99131,1.76866,0.00000,-1.25309,-1.25309,0.40476,-0.12563,1.67653,0.62408,-0.24092,-1.34560,-1.34560,A,152536.70
1.81579,57.68818515,11.98002966,57.68818350,11.98003083,15:25:36.933411,0.03555,0.00000,1.50000,-0.12162,0.02000,0.00261,-0.00248,-0.00259,-0.05124,-0.11370,0.99101,1.77960,0.00000,-1.26697,-1.26697,0.41572,-0.13140,1.79700,0.48540,-0.31505,-2.65071,-2.65071,A,152536.80
1.83409,57.68818507,11.98002972,57.68818350,11.98003083,15:25:36.951672,0.00626,0.00000,0.00000,-0.12192,0.00000,0.00139,-0.00035,0.00031,-0.05203,-0.11376,0.99155,1.82742,0.00000,-1.47453,-1.47453,0.41921,-0.14058,1.79700,0.48540,-0.31505,-2.65071,-2.65071,A,152536.80
1.84352,57.68818499,11.98002978,57.68818350,11.98003083,15:25:36.961100,0.00529,0.00000,0.00000,-0.12232,0.00000,-0.00350,0.00118,-0.00030,-0.05045,-0.11547,0.99296,1.83694,0.00000,-1.65096,-1.65096,0.42252,-0.14930,1.79700,0.48540,-0.31505,-2.65071,-2.65071,A,152536.80
1.85540,57.68818492,11.98002983,57.68818350,11.98003083,15:25:36.972985,0.00657,0.00000,0.00000,-0.12268,0.00000,-0.00029,-0.00447,0.00061,-0.05209,-0.11413,0.99314,1.84810,0.00000,-1.80092,-1.80092,0.42566,-0.15759,1.79700,0.48540,-0.31505,-2.65071,-2.65071,A,152536.80
1.86432,57.68818485,11.98002988,57.68818350,11.98003083,15:25:36.982154,0.00508,0.00000,0.00000,-0.12306,0.00000,-0.00091,-0.00035,0.00138,-0.05185,-0.11633,0.99137,1.85796,0.00000,-1.92839,-1.92839,0.42865,-0.16546,1.79700,0.48540,-0.31505,-2.65071,-2.65071,A,152536.80
1.87558,57.68818478,11.98002993,57.68818350,11.98003083,15:25:36.993162,0.00594,0.00000,0.00000,-0.12345,0.00000,0.00154,0.00088,-0.00076,-0.05124,-0.11822,0.98942,1.86813,0.00000,-2.03674,-2.03674,0.43148,-0.17294,1.79700,0.48540,-0.31505,-2.65071,-2.65071,A,152536.80
1.88543,57.68818471,11.98002997,57.68818350,11.98003083,15:25:37.003001,0.00539,0.00000,0.00000,-0.12383,0.00000,-0.00457,-0.00172,-0.00168,-0.05258,-0.11413,0.99210,1.87875,0.00000,-2.12883,-2.12883,0.43418,-0.18005,1.79700,0.48540,-0.31505,-2.65071,-2.65071,A,152536.80
1.89547,57.68818465,11.98003001,57.68818350,11.98003083,15:25:37.013045,0.00503,0.00000,0.00000,-0.12415,0.00000,0.00291,-0.00172,0.00153,-0.05563,-0.11511,0.99033,1.88912,0.00000,-2.20712,-2.20712,0.43674,-0.18680,1.79700,0.48540,-0.31505,-2.65071,-2.65071,A,152536.80
1.94340,57.68818460,11.98003006,57.68818400,11.98003150,15:25:37.061020,0.04252,0.00000,1.50000,-0.12449,0.02000,-0.00121,-0.00065,0.00291,-0.05252,-0.11413,0.99027,1.89938,0.00000,-2.27366,-2.27366,0.43917,-0.19321,1.91836,0.52502,-0.25945,0.95160,0.95160,A,152536.90
1.96259,57.68818457,11.98003013,57.68818400,11.98003150,15:25:37.080170,0.00728,0.00000,0.00000,-0.12447,0.00000,0.00597,-0.00325,-0.00213,-0.05276,-0.11346,0.99088,1.95594,0.00000,-1.78987,-1.78987,0.44347,-0.19652,1.91836,0.52502,-0.25945,0.95160,0.95160,A,152536.90
1.97301,57.68818454,11.98003020,57.68818400,11.98003150,15:25:37.090599,0.00731,0.00000,0.00000,-0.12482,0.00000,-0.00381,-0.00447,0.00184,-0.05313,-0.11383,0.99296,1.96586,0.00000,-1.37865,-1.37865,0.44754,-0.19967,1.91836,0.52502,-0.25945,0.95160,0.95160,A,152536.90
1.98219,57.68818451,11.98003026,57.68818400,11.98003150,15:25:37.099778,0.00608,0.00000,0.00000,-0.12518,0.00000,-0.00045,-0.00111,0.00168,-0.05319,-0.11688,0.98979,1.97483,0.00000,-1.02911,-1.02911,0.45142,-0.20266,1.91836,0.52502,-0.25945,0.95160,0.95160,A,152536.90
1.99155,57.68818449,11.98003032,57.68818400,11.98003150,15:25:37.109132,0.00505,0.00000,0.00000,-0.12548,0.00000,-0.00014,-0.00462,-0.00213,-0.05155,-0.11334,0.98966,1.98520,0.00000,-0.73201,-0.73201,0.45510,-0.20550,1.91836,0.52502,-0.25945,0.95160,0.95160,A,152536.90
2.00223,57.68818446,11.98003038,57.68818400,11.98003150,15:25:37.119803,0.00526,0.00000,0.00000,-0.12579,0.00000,-0.00060,-0.00187,-0.00107,-0.05155,-0.11419,0.99046,1.99557,0.00000,-0.47947,-0.47947,0.45859,-0.20820,1.91836,0.52502,-0.25945,0.95160,0.95160,A,152536.90
2.01627,57.68818444,11.98003044,57.68818400,11.98003150,15:25:37.134143,0.00890,0.00000,0.00000,-0.12613,0.00000,-0.00259,0.00057,0.00275,-0.05215,-0.11474,0.99253,2.00684,0.00000,-0.26481,-0.26481,0.46192,-0.21076,1.91836,0.52502,-0.25945,0.95160,0.95160,A,152536.90
2.06039,57.68818442,11.98003049,57.68818133,11.98003650,15:25:37.178188,0.04180,0.00000,1.50000,-0.12642,0.02000,0.00032,-0.00035,-0.00076,-0.05130,-0.11419,0.99162,2.01830,0.00000,-0.08235,-0.08235,0.46507,-0.21319,2.04578,0.82221,-0.55597,-0.78428,-0.78428,A,152537.10
2.07890,57.68818426,11.98003079,57.68818133,11.98003650,15:25:37.196482,0.00585,0.00000,0.00000,-0.12672,0.00000,-0.00029,0.00088,0.00046,-0.05301,-0.11413,0.99265,2.07229,0.00000,-0.18764,-0.18764,0.48293,-0.23033,2.04578,0.82221,-0.55597,-0.78428,-0.78428,A,152537.10
2.08879,57.68818412,11.98003108,57.68818133,11.98003650,15:25:37.206373,0.00533,0.00000,0.00000,-0.12699,0.00000,0.00429,-0.00157,-0.00045,-0.05301,-0.11566,0.98991,2.08219,0.00000,-0.27713,-0.27713,0.49989,-0.24662,2.04578,0.82221,-0.55597,-0.78428,-0.78428,A,152537.10
2.09892,57.68818398,11.98003135,57.68818133,11.98003650,15:25:37.216502,0.00506,0.00000,0.00000,-0.12731,0.00000,-0.00304,-0.00050,-0.00076,-0.05063,-0.11444,0.99174,2.09236,0.00000,-0.35320,-0.35320,0.51601,-0.26208,2.04578,0.82221,-0.55597,-0.78428,-0.78428,A,152537.10
2.10976,57.68818384,11.98003161,57.68818133,11.98003650,15:25:37.227338,0.00549,0.00000,0.00000,-0.12756,0.00000,0.00383,-0.00142,-0.00336,-0.05222,-0.11486,0.98680,2.10296,0.00000,-0.41787,-0.41787,0.53132,-0.27678,2.04578,0.82221,-0.55597,-0.78428,-0.78428,A,152537.10
2.12123,57.68818372,11.98003185,57.68818133,11.98003650,15:25:37.238812,0.00628,0.00000,0.00000,-0.12783,0.00000,0.00032,0.00072,-0.00061,-0.04910,-0.11346,0.99033,2.11375,0.00000,-0.47283,-0.47283,0.54586,-0.29074,2.04578,0.82221,-0.55597,-0.78428,-0.78428,A,152537.10
2.13072,57.68818360,11.98003208,57.68818133,11.98003650,15:25:37.248309,0.00544,0.00000,0.00000,-0.12812,0.00000,-0.00274,-0.00584,-0.00015,-0.05234,-0.11395,0.99174,2.12385,0.00000,-0.51955,-0.51955,0.55968,-0.30400,2.04578,0.82221,-0.55597,-0.78428,-0.78428,A,152537.10
2.14112,57.68818349,11.98003230,57.68818133,11.98003650,15:25:37.258705,0.00557,0.00000,0.00000,-0.12841,0.00000,-0.00045,-0.00218,-0.00107,-0.05301,-0.11572,0.99210,2.13450,0.00000,-0.55926,-0.55926,0.57281,-0.31660,2.04578,0.82221,-0.55597,-0.78428,-0.78428,A,152537.10
2.18259,57.68818338,11.98003251,57.68817967,11.98004167,15:25:37.300197,0.03663,0.00000,1.50000,-0.12865,0.02000,0.00368,-0.00035,0.00046,-0.05130,-0.11480,0.99021,2.14464,0.00000,-0.59301,-0.59301,0.58528,-0.32857,2.16151,1.12930,-0.74130,-0.54298,-0.54298,A,152537.20
2.20118,57.68818319,11.98003297,57.68817967,11.98004167,15:25:37.318771,0.00690,0.00000,0.00000,-0.12872,0.00000,0.00368,-0.00248,-0.00366,-0.05161,-0.11401,0.99229,2.19447,0.00000,-0.58551,-0.58551,0.61248,-0.34920,2.16151,1.12930,-0.74130,-0.54298,-0.54298,A,152537.20
2.21143,57.68818302,11.98003341,57.68817967,11.98004167,15:25:37.329046,0.00659,0.00000,0.00000,-0.12902,0.00000,-0.00320,-0.00203,0.00504,-0.05295,-0.11523,0.99271,2.20390,0.00000,-0.57913,-0.57913,0.63832,-0.36881,2.16151,1.12930,-0.74130,-0.54298,-0.54298,A,152537.20
2.22132,57.68818285,11.98003382,57.68817967,11.98004167,15:25:37.338904,0.00606,0.00000,0.00000,-0.12930,0.00000,-0.00121,0.00210,0.00199,-0.05161,-0.11511,0.99198,2.21462,0.00000,-0.57371,-0.57371,0.66287,-0.38743,2.16151,1.12930,-0.74130,-0.54298,-0.54298,A,152537.20
2.23074,57.68818269,11.98003421,57.68817967,11.98004167,15:25:37.348524,0.00508,0.00000,0.00000,-0.12956,0.00000,-0.00136,-0.00080,0.00046,-0.05142,-0.11456,0.99223,2.22416,0.00000,-0.56910,-0.56910,0.68619,-0.40513,2.16151,1.12930,-0.74130,-0.54298,-0.54298,A,152537.20
2.24367,57.68818254,11.98003458,57.68817967,11.98004167,15:25:37.361251,0.00768,0.00000,0.00000,-0.12976,0.00000,0.00444,-0.00340,-0.00030,-0.05087,-0.11419,0.99015,2.23566,0.00000,-0.56518,-0.56518,0.70834,-0.42194,2.16151,1.12930,-0.74130,-0.54298,-0.54298,A,152537.20
2.25141,57.68818240,11.98003494,57.68817967,11.98004167,15:25:37.368988,0.00502,0.00000,0.00000,-0.12999,0.00000,0.00276,-0.00371,0.00046,-0.04990,-0.11547,0.99296,2.24507,0.00000,-0.56185,-0.56185,0.72939,-0.43790,2.16151,1.12930,-0.74130,-0.54298,-0.54298,A,152537.20
2.29402,57.68818226,11.98003527,57.68817883,11.98004300,15:25:37.412125,0.03714,0.00000,1.50000,-0.13027,0.02000,-0.00335,-0.00142,-0.00030,-0.05106,-0.11480,0.99168,2.25540,0.00000,-0.55902,-0.55902,0.74939,-0.45307,2.27259,1.20854,-0.83396,-0.86327,-0.86327,A,152537.30
2.31135,57.68818209,11.98003566,57.68817883,11.98004300,15:25:37.428931,0.00669,0.00000,0.00000,-0.13079,0.00000,-0.00533,0.00332,-0.00030,-0.05191,-0.11639,0.99162,2.30403,0.00000,-0.60466,-0.60466,0.77234,-0.47212,2.27259,1.20854,-0.83396,-0.86327,-0.86327,A,152537.30
2.32141,57.68818192,11.98003603,57.68817883,11.98004300,15:25:37.438993,0.00635,0.00000,0.00000,-0.13102,0.00000,-0.00136,-0.00233,0.00016,-0.05344,-0.11407,0.99454,2.31440,0.00000,-0.64345,-0.64345,0.79415,-0.49021,2.27259,1.20854,-0.83396,-0.86327,-0.86327,A,152537.30
2.33079,57.68818177,11.98003638,57.68817883,11.98004300,15:25:37.448376,0.00538,0.00000,0.00000,-0.13121,0.00000,0.00581,-0.00111,0.00306,-0.05276,-0.11535,0.99046,2.32399,0.00000,-0.67642,-0.67642,0.81487,-0.50740,2.27259,1.20854,-0.83396,-0.86327,-0.86327,A,152537.30
2.34115,57.68818162,11.98003671,57.68817883,11.98004300,15:25:37.458733,0.00535,0.00000,0.00000,-0.13140,0.00000,0.00077,-0.00218,0.00092,-0.05222,-0.11285,0.99021,2.33451,0.00000,-0.70445,-0.70445,0.83456,-0.52373,2.27259,1.20854,-0.83396,-0.86327,-0.86327,A,152537.30
2.35201,57.68818148,11.98003702,57.68817883,11.98004300,15:25:37.469591,0.00580,0.00000,0.00000,-0.13165,0.00000,-0.00243,-0.00035,0.00153,-0.05234,-0.11419,0.98979,2.34559,0.00000,-0.72827,-0.72827,0.85326,-0.53924,2.27259,1.20854,-0.83396,-0.86327,-0.86327,A,152537.30
2.36245,57.68818135,11.98003732,57.68817883,11.98004300,15:25:37.480028,0.00582,0.00000,0.00000,-0.13185,0.00000,0.00261,0.00149,0.00077,-0.05215,-0.11523,0.99137,2.35578,0.00000,-0.74852,-0.74852,0.87102,-0.55397,2.27259,1.20854,-0.83396,-0.86327,-0.86327,A,152537.30
2.37211,57.68818123,11.98003761,57.68817883,11.98004300,15:25:37.489686,0.00508,0.00000,0.00000,-0.13207,0.00000,0.00077,0.00026,0.00107,-0.05350,-0.11505,0.98991,2.36577,0.00000,-0.76573,-0.76573,0.88790,-0.56797,2.27259,1.20854,-0.83396,-0.86327,-0.86327,A,152537.30
2.41385,57.68818111,11.98003787,57.68817750,11.98004433,15:25:37.531468,0.03659,0.00000,1.50000,-0.13227,0.02000,-0.00029,0.00072,0.00275,-0.05374,-0.11358,0.99149,2.37581,0.00000,-0.78036,-0.78036,0.90393,-0.58127,2.39354,1.28779,-0.98222,-1.07991,-1.07991,A,152537.40
2.43172,57.68818093,11.98003820,57.68817750,11.98004433,15:25:37.549297,0.00709,0.00000,0.00000,-0.13245,0.00000,0.00047,0.00057,0.00107,-0.05100,-0.11450,0.99247,2.42482,0.00000,-0.82529,-0.82529,0.92312,-0.60132,2.39354,1.28779,-0.98222,-1.07991,-1.07991,A,152537.40
2.44088,57.68818075,11.98003850,57.68817750,11.98004433,15:25:37.558472,0.00593,0.00000,0.00000,-0.13266,0.00000,-0.00045,0.00317,-0.00107,-0.05142,-0.11450,0.99137,2.43425,0.00000,-0.86349,-0.86349,0.94136,-0.62037,2.39354,1.28779,-0.98222,-1.07991,-1.07991,A,152537.40
2.45070,57.68818059,11.98003880,57.68817750,11.98004433,15:25:37.568293,0.00549,0.00000,0.00000,-0.13280,0.00000,0.00551,0.00393,-0.00076,-0.04978,-0.11364,0.99027,2.44374,0.00000,-0.89595,-0.89595,0.95868,-0.63846,2.39354,1.28779,-0.98222,-1.07991,-1.07991,A,152537.40
2.46325,57.68818044,11.98003907,57.68817750,11.98004433,15:25:37.580832,0.00690,0.00000,0.00000,-0.13299,0.00000,0.00032,0.00133,-0.00152,-0.05209,-0.11395,0.99131,2.45517,0.00000,-0.92354,-0.92354,0.97513,-0.65565,2.39354,1.28779,-0.98222,-1.07991,-1.07991,A,152537.40
2.47297,57.68818029,11.98003934,57.68817750,11.98004433,15:25:37.590553,0.00621,0.00000,0.00000,-0.13314,0.00000,0.00230,0.00088,-0.00122,-0.05118,-0.11309,0.99125,2.46548,0.00000,-0.94700,-0.94700,0.99077,-0.67197,2.39354,1.28779,-0.98222,-1.07991,-1.07991,A,152537.40
2.48217,57.68818015,11.98003959,57.68817750,11.98004433,15:25:37.599740,0.00518,0.00000,0.00000,-0.13337,0.00000,-0.00335,-0.00065,-0.00030,-0.05124,-0.11431,0.99046,2.47554,0.00000,-0.96694,-0.96694,1.00562,-0.68749,2.39354,1.28779,-0.98222,-1.07991,-1.07991,A,152537.40
2.52768,57.68818002,11.98003982,57.68817667,11.98004367,15:25:37.645295,0.04029,0.00000,1.50000,-0.13344,0.02000,0.00658,-0.00172,0.00260,-0.05155,-0.11175,0.99363,2.48747,0.00000,-0.98388,-0.98388,1.01973,-0.70222,2.50544,1.24817,-1.07488,-1.97489,-1.97489,A,152537.50
2.54688,57.68817985,11.98004002,57.68817667,11.98004367,15:25:37.664461,0.00623,0.00000,0.00000,-0.13347,0.00000,0.00276,-0.00539,0.00031,-0.05209,-0.11383,0.99216,2.54029,0.00000,-1.13253,-1.13253,1.03115,-0.72086,2.50544,1.24817,-1.07488,-1.97489,-1.97489,A,152537.50
2.55614,57.68817969,11.98004020,57.68817667,11.98004367,15:25:37.673722,0.00509,0.00000,0.00000,-0.13367,0.00000,0.00123,-0.00065,0.00123,-0.05203,-0.11572,0.99235,2.54978,0.00000,-1.25889,-1.25889,1.04200,-0.73856,2.50544,1.24817,-1.07488,-1.97489,-1.97489,A,152537.50
2.56642,57.68817954,11.98004037,57.68817667,11.98004367,15:25:37.684000,0.00513,0.00000,0.00000,-0.13392,0.00000,-0.00549,-0.00233,0.00260,-0.05185,-0.11529,0.98948,2.55982,0.00000,-1.36629,-1.36629,1.05231,-0.75537,2.50544,1.24817,-1.07488,-1.97489,-1.97489,A,152537.50
2.57719,57.68817940,11.98004054,57.68817667,11.98004367,15:25:37.694783,0.00551,0.00000,0.00000,-0.13413,0.00000,-0.00197,-0.00126,0.00107,-0.05155,-0.11468,0.99284,2.57042,0.00000,-1.45758,-1.45758,1.06210,-0.77135,2.50544,1.24817,-1.07488,-1.97489,-1.97489,A,152537.50
2.58817,57.68817926,11.98004069,57.68817667,11.98004367,15:25:37.705757,0.00571,0.00000,0.00000,-0.13421,0.00000,0.00520,-0.00142,-0.00015,-0.05026,-0.11206,0.99107,2.58180,0.00000,-1.53517,-1.53517,1.07141,-0.78653,2.50544,1.24817,-1.07488,-1.97489,-1.97489,A,152537.50
2.59882,57.68817913,11.98004084,57.68817667,11.98004367,15:25:37.716760,0.00595,0.00000,0.00000,-0.13439,0.00000,0.00184,0.00378,-0.00076,-0.05124,-0.11547,0.99149,2.59223,0.00000,-1.60113,-1.60113,1.08024,-0.80094,2.50544,1.24817,-1.07488,-1.97489,-1.97489,A,152537.50
2.63483,57.68817901,11.98004098,57.68817517,11.98004217,15:25:37.753236,0.03156,0.00000,1.50000,-0.13453,0.02000,0.00291,0.00026,-0.00030,-0.05228,-0.11389,0.99125,2.60198,0.00000,-1.65719,-1.65719,1.08864,-0.81464,2.61892,1.15901,-1.24168,-2.06168,-2.06168,A,152537.60
2.65534,57.68817882,11.98004104,57.68817517,11.98004217,15:25:37.772920,0.00746,0.00000,0.00000,-0.13469,0.00000,-0.00014,-0.00050,0.00153,-0.05203,-0.11309,0.99223,2.64892,0.00000,-1.71787,-1.71787,1.09216,-0.83599,2.61892,1.15901,-1.24168,-2.06168,-2.06168,A,152537.60
2.66408,57.68817863,11.98004110,57.68817517,11.98004217,15:25:37.781662,0.00581,0.00000,0.00000,-0.13485,0.00000,0.00139,0.00072,0.00016,-0.05350,-0.11480,0.99088,2.65698,0.00000,-1.76944,-1.76944,1.09550,-0.85628,2.61892,1.15901,-1.24168,-2.06168,-2.06168,A,152537.60
2.67466,57.68817846,11.98004115,57.68817517,11.98004217,15:25:37.792240,0.00584,0.00000,0.00000,-0.13502,0.00000,-0.00182,-0.00142,0.00031,-0.05234,-0.11285,0.98905,2.66735,0.00000,-1.81327,-1.81327,1.09868,-0.87555,2.61892,1.15901,-1.24168,-2.06168,-2.06168,A,152537.60
2.68429,57.68817829,11.98004120,57.68817517,11.98004217,15:25:37.802127,0.00507,0.00000,0.00000,-0.13518,0.00000,0.00184,0.00225,0.00184,-0.04984,-0.11505,0.99052,2.67794,0.00000,-1.85054,-1.85054,1.10169,-0.89385,2.61892,1.15901,-1.24168,-2.06168,-2.06168,A,152537.60
2.69477,57.68817814,11.98004125,57.68817517,11.98004217,15:25:37.812348,0.00514,0.00000,0.00000,-0.13533,0.00000,0.00139,-0.00096,0.00092,-0.05301,-0.11492,0.99210,2.68811,0.00000,-1.88221,-1.88221,1.10456,-0.91125,2.61892,1.15901,-1.24168,-2.06168,-2.06168,A,152537.60
2.70793,57.68817799,11.98004130,57.68817517,11.98004217,15:25:37.825526,0.00791,0.00000,0.00000,-0.13550,0.00000,-0.00014,0.00026,0.00107,-0.05124,-0.11499,0.99155,2.70099,0.00000,-1.90913,-1.90913,1.10728,-0.92777,2.61892,1.15901,-1.24168,-2.06168,-2.06168,A,152537.60
2.71547,57.68817785,11.98004134,57.68817517,11.98004217,15:25:37.833047,0.00504,0.00000,0.00000,-0.13568,0.00000,-0.00029,0.00057,0.00061,-0.05124,-0.11560,0.99210,2.70910,0.00000,-1.93201,-1.93201,1.10987,-0.94346,2.61892,1.15901,-1.24168,-2.06168,-2.06168,A,152537.60
2.76658,57.68817771,11.98004138,57.68817200,11.98003983,15:25:37.884186,0.04571,0.00000,1.50000,-0.13580,0.02000,0.00077,0.00042,-0.00198,-0.05069,-0.11236,0.99229,2.71991,0.00000,-1.95146,-1.95146,1.11233,-0.95837,2.74908,1.02033,-1.59379,-1.94600,-1.94600,A,152537.80
2.78782,57.68817743,11.98004130,57.68817200,11.98003983,15:25:37.905407,0.00795,0.00000,0.00000,-0.13570,0.00000,0.00459,0.00240,-0.00107,-0.05344,-0.11627,0.99119,2.78102,0.00000,-1.95064,-1.95064,1.10773,-0.99014,2.74908,1.02033,-1.59379,-1.94600,-1.94600,A,152537.80
2.79535,57.68817716,11.98004123,57.68817200,11.98003983,15:25:37.912926,0.00507,0.00000,0.00000,-0.13591,0.00000,-0.00457,0.00072,0.00168,-0.05234,-0.11560,0.99149,2.78898,0.00000,-1.94995,-1.94995,1.10336,-1.02033,2.74908,1.02033,-1.59379,-1.94600,-1.94600,A,152537.80
2.80654,57.68817690,11.98004116,57.68817200,11.98003983,15:25:37.924121,0.00571,0.00000,0.00000,-0.13609,0.00000,-0.00136,-0.00065,0.00107,-0.05191,-0.11511,0.99003,2.79935,0.00000,-1.94935,-1.94935,1.09921,-1.04900,2.74908,1.02033,-1.59379,-1.94600,-1.94600,A,152537.80
2.81627,57.68817665,11.98004109,57.68817200,11.98003983,15:25:37.934108,0.00504,0.00000,0.00000,-0.13621,0.00000,0.00245,0.00210,-0.00183,-0.05252,-0.11450,0.99180,2.80993,0.00000,-1.94885,-1.94885,1.09526,-1.07624,2.74908,1.02033,-1.59379,-1.94600,-1.94600,A,152537.80
2.82835,57.68817642,11.98004103,57.68817200,11.98003983,15:25:37.946385,0.00672,0.00000,0.00000,-0.13634,0.00000,-0.00014,0.00240,-0.00091,-0.05319,-0.11328,0.99241,2.82030,0.00000,-1.94842,-1.94842,1.09151,-1.10212,2.74908,1.02033,-1.59379,-1.94600,-1.94600,A,152537.80
2.83824,57.68817620,11.98004097,57.68817200,11.98003983,15:25:37.955822,0.00614,0.00000,0.00000,-0.13649,0.00000,-0.00136,-0.00157,-0.00076,-0.05167,-0.11383,0.99198,2.83085,0.00000,-1.94806,-1.94806,1.08796,-1.12670,2.74908,1.02033,-1.59379,-1.94600,-1.94600,A,152537.80
2.84781,57.68817599,11.98004091,57.68817200,11.98003983,15:25:37.965380,0.00531,0.00000,0.00000,-0.13667,0.00000,-0.00121,-0.00080,-0.00061,-0.05325,-0.11566,0.98893,2.84144,0.00000,-1.94775,-1.94775,1.08457,-1.15006,2.74908,1.02033,-1.59379,-1.94600,-1.94600,A,152537.80
2.89050,57.68817579,11.98004086,57.68816967,11.98003567,15:25:38.008113,0.03762,0.00000,1.50000,-0.13678,0.02000,0.00398,-0.00172,0.00321,-0.05191,-0.11492,0.99119,2.85140,0.00000,-1.94749,-1.94749,1.08136,-1.17224,2.86913,0.77268,-1.85325,-2.33293,-2.33293,A,152537.90
2.90377,57.68817548,11.98004060,57.68816967,11.98003567,15:25:38.021349,0.00654,0.00000,0.00000,-0.13676,0.00000,0.00337,0.00118,-0.00168,-0.05215,-0.11346,0.99174,2.89583,0.00000,-2.00530,-2.00530,1.06593,-1.20629,2.86913,0.77268,-1.85325,-2.33293,-2.33293,A,152537.90
2.91388,57.68817519,11.98004035,57.68816967,11.98003567,15:25:38.031458,0.00625,0.00000,0.00000,-0.13684,0.00000,0.00352,0.00011,-0.00107,-0.05258,-0.11376,0.99509,2.90711,0.00000,-2.05445,-2.05445,1.05126,-1.23864,2.86913,0.77268,-1.85325,-2.33293,-2.33293,A,152537.90
2.92309,57.68817492,11.98004012,57.68816967,11.98003567,15:25:38.040669,0.00506,0.00000,0.00000,-0.13697,0.00000,0.00276,0.00301,-0.00213,-0.05185,-0.11560,0.99162,2.91672,0.00000,-2.09622,-2.09622,1.03734,-1.26937,2.86913,0.77268,-1.85325,-2.33293,-2.33293,A,152537.90
2.93527,57.68817466,11.98003990,57.68816967,11.98003567,15:25:38.052850,0.00665,0.00000,0.00000,-0.13712,0.00000,-0.00045,0.00317,0.00229,-0.05094,-0.11535,0.99314,2.92788,0.00000,-2.13172,-2.13172,1.02410,-1.29857,2.86913,0.77268,-1.85325,-2.33293,-2.33293,A,152537.90
2.95381,57.68817441,11.98003969,57.68816967,11.98003567,15:25:38.071392,0.01480,0.00000,0.00000,-0.13730,0.00000,-0.00182,0.00164,-0.00213,-0.05203,-0.11511,0.99320,2.94604,0.00000,-2.16190,-2.16190,1.01153,-1.32630,2.86913,0.77268,-1.85325,-2.33293,-2.33293,A,152537.90
3.03096,57.68817417,11.98003948,57.68816800,11.98004117,15:25:38.148567,0.06476,0.00000,1.50000,-0.13750,0.02000,-0.00335,-0.00248,0.00214,-0.05380,-0.11468,0.99406,2.96943,0.00000,-2.18756,-2.18756,0.99959,-1.35265,3.00394,1.09958,-2.03857,-0.51574,-0.51574,A,152538.00
3.05218,57.68817386,11.98003957,57.68816800,11.98004117,15:25:38.169762,0.01057,0.00000,0.00000,-0.13782,0.00000,-0.00274,0.00133,0.00168,-0.05179,-0.11315,0.99235,3.04573,0.00000,-1.93678,-1.93678,1.00459,-1.38694,3.00394,1.09958,-2.03857,-0.51574,-0.51574,A,152538.00
3.07780,57.68817357,11.98003965,57.68816800,11.98004117,15:25:38.195382,0.00788,0.00000,0.00000,-0.13807,0.00000,-0.00427,-0.00019,0.00260,-0.05075,-0.11572,0.99143,3.07071,0.00000,-1.72363,-1.72363,1.00934,-1.41952,3.00394,1.09958,-2.03857,-0.51574,-0.51574,A,152538.00
3.08571,57.68817329,11.98003972,57.68816800,11.98004117,15:25:38.203288,0.00538,0.00000,0.00000,-0.13815,0.00000,0.00139,-0.00111,-0.00183,-0.05222,-0.11297,0.99058,3.07903,0.00000,-1.54244,-1.54244,1.01385,-1.45048,3.00394,1.09958,-2.03857,-0.51574,-0.51574,A,152538.00
3.09614,57.68817302,11.98003980,57.68816800,11.98004117,15:25:38.213720,0.00513,0.00000,0.00000,-0.13823,0.00000,0.00261,-0.00325,-0.00015,-0.05185,-0.11352,0.99521,3.08978,0.00000,-1.38844,-1.38844,1.01814,-1.47988,3.00394,1.09958,-2.03857,-0.51574,-0.51574,A,152538.00
3.13043,57.68817277,11.98003986,57.68816683,11.98004400,15:25:38.248862,0.02918,0.00000,1.50000,-0.13833,0.02000,-0.00182,-0.00233,0.00077,-0.05197,-0.11279,0.99308,3.09978,0.00000,-1.25753,-1.25753,1.02221,-1.50782,3.11684,1.26798,-2.16830,-0.65639,-0.65639,A,152538.10
3.15011,57.68817248,11.98004007,57.68816683,11.98004400,15:25:38.267693,0.00728,0.00000,0.00000,-0.13860,0.00000,-0.00411,-0.00172,0.00168,-0.05295,-0.11309,0.99308,3.14341,0.00000,-1.16736,-1.16736,1.03450,-1.54084,3.11684,1.26798,-2.16830,-0.65639,-0.65639,A,152538.10
3.15824,57.68817219,11.98004027,57.68816683,11.98004400,15:25:38.275821,0.00518,0.00000,0.00000,-0.13868,0.00000,-0.00029,0.00301,-0.00061,-0.05228,-0.11224,0.99259,3.15161,0.00000,-1.09072,-1.09072,1.04617,-1.57221,3.11684,1.26798,-2.16830,-0.65639,-0.65639,A,152538.10
3.16884,57.68817193,11.98004045,57.68816683,11.98004400,15:25:38.286424,0.00537,0.00000,0.00000,-0.13880,0.00000,0.00047,0.00103,-0.00107,-0.05106,-0.11492,0.99082,3.16218,0.00000,-1.02557,-1.02557,1.05726,-1.60202,3.11684,1.26798,-2.16830,-0.65639,-0.65639,A,152538.10
3.17894,57.68817167,11.98004063,57.68816683,11.98004400,15:25:38.296520,0.00507,0.00000,0.00000,-0.13893,0.00000,-0.00152,-0.00019,0.00260,-0.05197,-0.11492,0.99235,3.17236,0.00000,-0.97019,-0.97019,1.06780,-1.63033,3.11684,1.26798,-2.16830,-0.65639,-0.65639,A,152538.10
3.19093,57.68817143,11.98004080,57.68816683,11.98004400,15:25:38.308516,0.00682,0.00000,0.00000,-0.13904,0.00000,-0.00029,-0.00416,0.00474,-0.05014,-0.11474,0.99125,3.18385,0.00000,-0.92312,-0.92312,1.07781,-1.65723,3.11684,1.26798,-2.16830,-0.65639,-0.65639,A,152538.10
3.20029,57.68817120,11.98004096,57.68816683,11.98004400,15:25:38.318132,0.00578,0.00000,0.00000,-0.13915,0.00000,0.00123,-0.00355,-0.00107,-0.05075,-0.11541,0.99101,3.19389,0.00000,-0.88311,-0.88311,1.08732,-1.68278,3.11684,1.26798,-2.16830,-0.65639,-0.65639,A,152538.10
3.21058,57.68817098,11.98004111,57.68816683,11.98004400,15:25:38.328159,0.00571,0.00000,0.00000,-0.13923,0.00000,0.00047,-0.00142,0.00260,-0.05240,-0.11346,0.99314,3.20372,0.00000,-0.84910,-0.84910,1.09635,-1.70706,3.11684,1.26798,-2.16830,-0.65639,-0.65639,A,152538.10
3.26529,57.68817077,11.98004126,57.68816450,11.98004850,15:25:38.382892,0.05000,0.00000,1.50000,-0.13932,0.02000,0.00276,-0.00096,0.00061,-0.05069,-0.11523,0.99015,3.21534,0.00000,-0.82020,-0.82020,1.10493,-1.73012,3.24392,1.53545,-2.42776,-0.77020,-0.77020,A,152538.30
3.28483,57.68817046,11.98004162,57.68816450,11.98004850,15:25:38.402416,0.00782,0.00000,0.00000,-0.13954,0.00000,-0.00197,0.00057,0.00061,-0.05051,-0.11419,0.99064,3.27813,0.00000,-0.81270,-0.81270,1.12646,-1.76500,3.24392,1.53545,-2.42776,-0.77020,-0.77020,A,152538.30
3.29350,57.68817016,11.98004196,57.68816450,11.98004850,15:25:38.411081,0.00609,0.00000,0.00000,-0.13965,0.00000,-0.00152,0.00118,0.00138,-0.05191,-0.11468,0.99314,3.28680,0.00000,-0.80632,-0.80632,1.14691,-1.79814,3.24392,1.53545,-2.42776,-0.77020,-0.77020,A,152538.30
3.30290,57.68816988,11.98004229,57.68816450,11.98004850,15:25:38.420485,0.00510,0.00000,0.00000,-0.13970,0.00000,0.00230,-0.00157,-0.00168,-0.05209,-0.11273,0.99247,3.29631,0.00000,-0.80090,-0.80090,1.16633,-1.82962,3.24392,1.53545,-2.42776,-0.77020,-0.77020,A,152538.30
3.31355,57.68816961,11.98004260,57.68816450,11.98004850,15:25:38.431130,0.00534,0.00000,0.00000,-0.13981,0.00000,0.00077,-0.00035,0.00000,-0.05283,-0.11590,0.98954,3.30690,0.00000,-0.79630,-0.79630,1.18479,-1.85953,3.24392,1.53545,-2.42776,-0.77020,-0.77020,A,152538.30
3.32360,57.68816935,11.98004290,57.68816450,11.98004850,15:25:38.441176,0.00499,0.00000,0.00000,-0.13997,0.00000,-0.00427,0.00118,0.00153,-0.05124,-0.11614,0.99399,3.31725,0.00000,-0.79238,-0.79238,1.20232,-1.88794,3.24392,1.53545,-2.42776,-0.77020,-0.77020,A,152538.30
3.33420,57.68816911,11.98004318,57.68816450,11.98004850,15:25:38.451779,0.00531,0.00000,0.00000,-0.14006,0.00000,-0.00121,0.00088,-0.00152,-0.05258,-0.11358,0.99192,3.32755,0.00000,-0.78905,-0.78905,1.21898,-1.91493,3.24392,1.53545,-2.42776,-0.77020,-0.77020,A,152538.30
3.37741,57.68816888,11.98004344,57.68816417,11.98005017,15:25:38.495034,0.03787,0.00000,1.50000,-0.14014,0.02000,0.00032,0.00103,0.00046,-0.05270,-0.11419,0.99174,3.33894,0.00000,-0.78623,-0.78623,1.23480,-1.94057,3.35661,1.63451,-2.46482,-0.35804,-0.35804,A,152538.40
3.39464,57.68816865,11.98004378,57.68816417,11.98005017,15:25:38.512220,0.00709,0.00000,0.00000,-0.14030,0.00000,-0.00136,-0.00035,0.00352,-0.05112,-0.11456,0.99107,3.38799,0.00000,-0.72200,-0.72200,1.25479,-1.96678,3.35661,1.63451,-2.46482,-0.35804,-0.35804,A,152538.40
3.40301,57.68816842,11.98004410,57.68816417,11.98005017,15:25:38.520595,0.00506,0.00000,0.00000,-0.14037,0.00000,0.00108,-0.00248,0.00153,-0.05161,-0.11407,0.99223,3.39645,0.00000,-0.66740,-0.66740,1.27377,-1.99169,3.35661,1.63451,-2.46482,-0.35804,-0.35804,A,152538.40
3.41456,57.68816821,11.98004440,57.68816417,11.98005017,15:25:38.532145,0.00597,0.00000,0.00000,-0.14046,0.00000,0.00108,-0.00218,0.00214,-0.05368,-0.11584,0.99223,3.40713,0.00000,-0.62100,-0.62100,1.29181,-2.01534,3.35661,1.63451,-2.46482,-0.35804,-0.35804,A,152538.40
3.42425,57.68816801,11.98004469,57.68816417,11.98005017,15:25:38.542125,0.00526,0.00000,0.00000,-0.14058,0.00000,-0.00289,-0.00080,0.00321,-0.05161,-0.11450,0.99284,3.41771,0.00000,-0.58155,-0.58155,1.30894,-2.03782,3.35661,1.63451,-2.46482,-0.35804,-0.35804,A,152538.40
3.43547,57.68816781,11.98004496,57.68816417,11.98005017,15:25:38.553052,0.00617,0.00000,0.00000,-0.14064,0.00000,0.00169,0.00042,0.00016,-0.05167,-0.11468,0.99003,3.42907,0.00000,-0.54803,-0.54803,1.32522,-2.05917,3.35661,1.63451,-2.46482,-0.35804,-0.35804,A,152538.40
3.44629,57.68816763,11.98004522,57.68816417,11.98005017,15:25:38.563893,0.00659,0.00000,0.00000,-0.14072,0.00000,-0.00075,-0.00126,0.00000,-0.05228,-0.11376,0.99210,3.43842,0.00000,-0.51953,-0.51953,1.34069,-2.07945,3.35661,1.63451,-2.46482,-0.35804,-0.35804,A,152538.40
3.45719,57.68816746,11.98004547,57.68816417,11.98005017,15:25:38.574790,0.00709,0.00000,0.00000,-0.14081,0.00000,-0.00045,-0.00035,-0.00091,-0.05161,-0.11462,0.99326,3.44926,0.00000,-0.49530,-0.49530,1.35538,-2.09872,3.35661,1.63451,-2.46482,-0.35804,-0.35804,A,152538.40
3.50099,57.68816729,11.98004571,57.68816283,11.98004717,15:25:38.618868,0.04032,0.00000,1.50000,-0.14089,0.02000,-0.00121,-0.00050,-0.00107,-0.05234,-0.11389,0.99204,3.45920,0.00000,-0.47471,-0.47471,1.36933,-2.11702,3.47780,1.45620,-2.61308,-2.44795,-2.44795,A,152538.50
3.51879,57.68816707,11.98004578,57.68816283,11.98004717,15:25:38.636372,0.00770,0.00000,0.00000,-0.14105,0.00000,-0.00167,0.00118,-0.00320,-0.05307,-0.11438,0.99113,3.51187,0.00000,-0.77070,-0.77070,1.37368,-2.14183,3.47780,1.45620,-2.61308,-2.44795,-2.44795,A,152538.50
3.52671,57.68816686,11.98004585,57.68816283,11.98004717,15:25:38.644292,0.00522,0.00000,0.00000,-0.14113,0.00000,0.00093,-0.00493,0.00107,-0.05124,-0.11553,0.99210,3.51998,0.00000,-1.02229,-1.02229,1.37780,-2.16539,3.47780,1.45620,-2.61308,-2.44795,-2.44795,A,152538.50
3.53723,57.68816666,11.98004591,57.68816283,11.98004717,15:25:38.654807,0.00534,0.00000,0.00000,-0.14122,0.00000,-0.00029,0.00026,0.00229,-0.05209,-0.11511,0.99149,3.53061,0.00000,-1.23614,-1.23614,1.38172,-2.18777,3.47780,1.45620,-2.61308,-2.44795,-2.44795,A,152538.50
3.54920,57.68816647,11.98004598,57.68816283,11.98004717,15:25:38.666774,0.00690,0.00000,0.00000,-0.14133,0.00000,-0.00152,-0.00218,0.00123,-0.05148,-0.11584,0.99082,3.54165,0.00000,-1.41791,-1.41791,1.38545,-2.20904,3.47780,1.45620,-2.61308,-2.44795,-2.44795,A,152538.50
3.55808,57.68816629,11.98004604,57.68816283,11.98004717,15:25:38.675657,0.00518,0.00000,0.00000,-0.14140,0.00000,-0.00106,-0.00050,-0.00061,-0.05191,-0.11334,0.99229,3.55144,0.00000,-1.57242,-1.57242,1.38898,-2.22924,3.47780,1.45620,-2.61308,-2.44795,-2.44795,A,152538.50
3.56948,57.68816611,11.98004609,57.68816283,11.98004717,15:25:38.687061,0.00618,0.00000,0.00000,-0.14145,0.00000,0.00261,-0.00050,0.00123,-0.05234,-0.11529,0.99137,3.56277,0.00000,-1.70375,-1.70375,1.39234,-2.24843,3.47780,1.45620,-2.61308,-2.44795,-2.44795,A,152538.50
3.61029,57.68816595,11.98004615,57.68816133,11.98004767,15:25:38.727904,0.03659,0.00000,1.50000,-0.14152,0.02000,0.00184,0.00072,0.00443,-0.05368,-0.11566,0.99101,3.57220,0.00000,-1.81538,-1.81538,1.39554,-2.26667,3.58926,1.48592,-2.77987,-1.39447,-1.39447,A,152538.60
3.63098,57.68816572,11.98004622,57.68816133,11.98004767,15:25:38.748561,0.00948,0.00000,0.00000,-0.14135,0.00000,0.00444,0.00133,0.00184,-0.05069,-0.11328,0.98899,3.62412,0.00000,-1.75224,-1.75224,1.40006,-2.29233,3.58926,1.48592,-2.77987,-1.39447,-1.39447,A,152538.60
3.63716,57.68816550,11.98004629,57.68816133,11.98004767,15:25:38.754738,0.00533,0.00000,0.00000,-0.14141,0.00000,0.00291,-0.00157,-0.00122,-0.05069,-0.11492,0.99326,3.63054,0.00000,-1.69858,-1.69858,1.40435,-2.31670,3.58926,1.48592,-2.77987,-1.39447,-1.39447,A,152538.60
3.64808,57.68816529,11.98004636,57.68816133,11.98004767,15:25:38.765678,0.00598,0.00000,0.00000,-0.14146,0.00000,0.00016,0.00103,0.00291,-0.05331,-0.11322,0.99131,3.64102,0.00000,-1.65296,-1.65296,1.40843,-2.33986,3.58926,1.48592,-2.77987,-1.39447,-1.39447,A,152538.60
3.65842,57.68816509,11.98004643,57.68816133,11.98004767,15:25:38.776005,0.00575,0.00000,0.00000,-0.14147,0.00000,0.00368,-0.00264,-0.00015,-0.05295,-0.11303,0.99119,3.65118,0.00000,-1.61419,-1.61419,1.41230,-2.36186,3.58926,1.48592,-2.77987,-1.39447,-1.39447,A,152538.60
3.66814,57.68816490,11.98004649,57.68816133,11.98004767,15:25:38.785718,0.00506,0.00000,0.00000,-0.14152,0.00000,0.00169,-0.00447,-0.00122,-0.05283,-0.11425,0.99143,3.66179,0.00000,-1.58123,-1.58123,1.41598,-2.38276,3.58926,1.48592,-2.77987,-1.39447,-1.39447,A,152538.60
3.67929,57.68816473,11.98004655,57.68816133,11.98004767,15:25:38.796872,0.00559,0.00000,0.00000,-0.14155,0.00000,0.00261,0.00026,0.00184,-0.05063,-0.11383,0.99119,3.67292,0.00000,-1.55322,-1.55322,1.41948,-2.40262,3.58926,1.48592,-2.77987,-1.39447,-1.39447,A,152538.60
3.68947,57.68816456,11.98004660,57.68816133,11.98004767,15:25:38.807053,0.00537,0.00000,0.00000,-0.14158,0.00000,0.00536,-0.00462,0.00275,-0.05106,-0.11572,0.99338,3.68282,0.00000,-1.52940,-1.52940,1.42280,-2.42148,3.58926,1.48592,-2.77987,-1.39447,-1.39447,A,152538.60
3.73519,57.68816440,11.98004666,57.68815950,11.98004867,15:25:38.852795,0.04068,0.00000,1.50000,-0.14161,0.02000,0.00245,-0.00126,-0.00320,-0.05197,-0.11401,0.99351,3.69398,0.00000,-1.50916,-1.50916,1.42596,-2.43940,3.71272,1.54535,-2.98373,-1.28710,-1.28710,A,152538.70
3.75544,57.68816415,11.98004676,57.68815950,11.98004867,15:25:38.873020,0.00806,0.00000,0.00000,-0.14128,0.00000,0.00765,-0.00126,0.00229,-0.05331,-0.11535,0.99186,3.74870,0.00000,-1.47585,-1.47585,1.43193,-2.46662,3.71272,1.54535,-2.98373,-1.28710,-1.28710,A,152538.70
3.76416,57.68816392,11.98004685,57.68815950,11.98004867,15:25:38.881748,0.00638,0.00000,0.00000,-0.14131,0.00000,0.00490,-0.00111,0.00092,-0.05179,-0.11468,0.99155,3.75699,0.00000,-1.44754,-1.44754,1.43760,-2.49247,3.71272,1.54535,-2.98373,-1.28710,-1.28710,A,152538.70
3.77350,57.68816370,11.98004694,57.68815950,11.98004867,15:25:38.891080,0.00532,0.00000,0.00000,-0.14138,0.00000,0.00093,0.00103,-0.00015,-0.05142,-0.11462,0.99229,3.76687,0.00000,-1.42348,-1.42348,1.44299,-2.51704,3.71272,1.54535,-2.98373,-1.28710,-1.28710,A,152538.70
3.78462,57.68816349,11.98004703,57.68815950,11.98004867,15:25:38.902213,0.00604,0.00000,0.00000,-0.14147,0.00000,-0.00045,-0.00187,0.00382,-0.05106,-0.11596,0.99338,3.77724,0.00000,-1.40302,-1.40302,1.44810,-2.54037,3.71272,1.54535,-2.98373,-1.28710,-1.28710,A,152538.70
3.79405,57.68816329,11.98004711,57.68815950,11.98004867,15:25:38.911628,0.00517,0.00000,0.00000,-0.14149,0.00000,0.00474,0.00301,0.00061,-0.05246,-0.11407,0.99210,3.78738,0.00000,-1.38563,-1.38563,1.45297,-2.56254,3.71272,1.54535,-2.98373,-1.28710,-1.28710,A,152538.70
3.80434,57.68816310,11.98004719,57.68815950,11.98004867,15:25:38.922170,0.00505,0.00000,0.00000,-0.14160,0.00000,-0.00152,-0.00416,0.00016,-0.05081,-0.11614,0.99040,3.79798,0.00000,-1.37085,-1.37085,1.45759,-2.58360,3.71272,1.54535,-2.98373,-1.28710,-1.28710,A,152538.70
3.85784,57.68816292,11.98004726,57.68815533,11.98004700,15:25:38.976356,0.04816,0.00000,1.50000,-0.14170,0.02000,-0.00243,-0.00233,-0.00076,-0.05057,-0.11541,0.99229,3.80816,0.00000,-1.35829,-1.35829,1.46197,-2.60360,3.83674,1.44629,-3.44704,-1.78144,-1.78144,A,152538.90
3.87758,57.68816254,11.98004725,57.68815533,11.98004700,15:25:38.995156,0.00801,0.00000,0.00000,-0.14157,0.00000,0.00276,0.00133,0.00123,-0.05173,-0.11309,0.99241,3.87088,0.00000,-1.42176,-1.42176,1.46119,-2.64578,3.83674,1.44629,-3.44704,-1.78144,-1.78144,A,152538.90
3.88533,57.68816218,11.98004724,57.68815533,11.98004700,15:25:39.002908,0.00535,0.00000,0.00000,-0.14163,0.00000,0.00245,-0.00096,-0.00015,-0.05063,-0.11517,0.99253,3.87866,0.00000,-1.47571,-1.47571,1.46044,-2.68584,3.83674,1.44629,-3.44704,-1.78144,-1.78144,A,152538.90
3.89543,57.68816184,11.98004723,57.68815533,11.98004700,15:25:39.013009,0.00505,0.00000,0.00000,-0.14174,0.00000,-0.00106,-0.00172,-0.00122,-0.05112,-0.11633,0.99107,3.88908,0.00000,-1.52157,-1.52157,1.45974,-2.72390,3.83674,1.44629,-3.44704,-1.78144,-1.78144,A,152538.90
3.90791,57.68816151,11.98004721,57.68815533,11.98004700,15:25:39.025509,0.00703,0.00000,0.00000,-0.14184,0.00000,-0.00243,0.00042,0.00016,-0.05289,-0.11511,0.98985,3.89938,0.00000,-1.56055,-1.56055,1.45907,-2.76006,3.83674,1.44629,-3.44704,-1.78144,-1.78144,A,152538.90
3.91843,57.68816120,11.98004720,57.68815533,11.98004700,15:25:39.036013,0.00709,0.00000,0.00000,-0.14189,0.00000,0.00215,-0.00065,-0.00259,-0.05094,-0.11505,0.99015,3.91150,0.00000,-1.59368,-1.59368,1.45843,-2.79441,3.83674,1.44629,-3.44704,-1.78144,-1.78144,A,152538.90
3.92704,57.68816091,11.98004719,57.68815533,11.98004700,15:25:39.044624,0.00531,0.00000,0.00000,-0.14194,0.00000,0.00291,-0.00203,0.00138,-0.05209,-0.11560,0.99351,3.92022,0.00000,-1.62185,-1.62185,1.45782,-2.82704,3.83674,1.44629,-3.44704,-1.78144,-1.78144,A,152538.90
3.96628,57.68816063,11.98004718,57.68815333,11.98004367,15:25:39.083897,0.03345,0.00000,1.50000,-0.14199,0.02000,0.00077,0.00011,-0.00229,-0.05203,-0.11413,0.99210,3.93195,0.00000,-1.64578,-1.64578,1.45724,-2.85804,3.94982,1.24817,-3.66943,-2.29855,-2.29855,A,152539.00
3.98586,57.68816027,11.98004701,57.68815333,11.98004367,15:25:39.103446,0.00707,0.00000,0.00000,-0.14207,0.00000,-0.00075,0.00301,0.00077,-0.05301,-0.11334,0.99058,3.97916,0.00000,-1.74370,-1.74370,1.44679,-2.89861,3.94982,1.24817,-3.66943,-2.29855,-2.29855,A,152539.00
3.99457,57.68815992,11.98004684,57.68815333,11.98004367,15:25:39.112169,0.00554,0.00000,0.00000,-0.14216,0.00000,-0.00259,-0.00126,-0.00213,-0.05051,-0.11505,0.99290,3.98758,0.00000,-1.82693,-1.82693,1.43686,-2.93715,3.94982,1.24817,-3.66943,-2.29855,-2.29855,A,152539.00
4.00474,57.68815959,11.98004668,57.68815333,11.98004367,15:25:39.122326,0.00530,0.00000,0.00000,-0.14221,0.00000,-0.00106,-0.00294,-0.00015,-0.05301,-0.11352,0.99241,3.99815,0.00000,-1.89767,-1.89767,1.42742,-2.97376,3.94982,1.24817,-3.66943,-2.29855,-2.29855,A,152539.00
4.01488,57.68815928,11.98004653,57.68815333,11.98004367,15:25:39.132461,0.00505,0.00000,0.00000,-0.14230,0.00000,-0.00136,0.00026,0.00000,-0.05423,-0.11505,0.98753,4.00832,0.00000,-1.95780,-1.95780,1.41846,-3.00855,3.94982,1.24817,-3.66943,-2.29855,-2.29855,A,152539.00
4.02648,57.68815898,11.98004639,57.68815333,11.98004367,15:25:39.144078,0.00624,0.00000,0.00000,-0.14237,0.00000,-0.00213,-0.00401,0.00229,-0.05124,-0.11419,0.99406,4.01893,0.00000,-2.00891,-2.00891,1.40995,-3.04159,3.94982,1.24817,-3.66943,-2.29855,-2.29855,A,152539.00
4.03586,57.68815870,11.98004625,57.68815333,11.98004367,15:25:39.153435,0.00522,0.00000,0.00000,-0.14242,0.00000,0.00001,-0.00325,-0.00045,-0.05069,-0.11407,0.99235,4.02950,0.00000,-2.05236,-2.05236,1.40186,-3.07298,3.94982,1.24817,-3.66943,-2.29855,-2.29855,A,152539.00
4.04609,57.68815843,11.98004612,57.68815333,11.98004367,15:25:39.163662,0.00518,0.00000,0.00000,-0.14240,0.00000,0.00398,-0.00309,-0.00152,-0.05197,-0.11248,0.99357,4.03943,0.00000,-2.08929,-2.08929,1.39417,-3.10281,3.94982,1.24817,-3.66943,-2.29855,-2.29855,A,152539.00
4.09032,57.68815817,11.98004600,57.68815200,11.98004567,15:25:39.207940,0.03902,0.00000,1.50000,-0.14242,0.02000,0.00291,0.00149,0.00016,-0.05045,-0.11401,0.98979,4.05009,0.00000,-2.12068,-2.12068,1.38687,-3.13114,4.06880,1.36704,-3.81769,-0.89497,-0.89497,A,152539.10
4.10476,57.68815787,11.98004598,57.68815200,11.98004567,15:25:39.222341,0.00716,0.00000,0.00000,-0.14230,0.00000,0.00383,0.00133,0.00031,-0.05209,-0.11499,0.99302,4.09812,0.00000,-1.93682,-1.93682,1.38588,-3.16546,4.06880,1.36704,-3.81769,-0.89497,-0.89497,A,152539.10
4.11335,57.68815757,11.98004597,57.68815200,11.98004567,15:25:39.230926,0.00535,0.00000,0.00000,-0.14241,0.00000,-0.00442,-0.00111,0.00260,-0.05057,-0.11529,0.99204,4.10669,0.00000,-1.78054,-1.78054,1.38494,-3.19808,4.06880,1.36704,-3.81769,-0.89497,-0.89497,A,152539.10
4.12343,57.68815729,11.98004595,57.68815200,11.98004567,15:25:39.241003,0.00503,0.00000,0.00000,-0.14249,0.00000,-0.00320,-0.00080,0.00168,-0.05081,-0.11450,0.99314,4.11708,0.00000,-1.64771,-1.64771,1.38404,-3.22906,4.06880,1.36704,-3.81769,-0.89497,-0.89497,A,152539.10
4.13443,57.68815703,11.98004594,57.68815200,11.98004567,15:25:39.252017,0.00555,0.00000,0.00000,-0.14253,0.00000,-0.00121,-0.00386,-0.00015,-0.05264,-0.11315,0.99436,4.12780,0.00000,-1.53479,-1.53479,1.38319,-3.25849,4.06880,1.36704,-3.81769,-0.89497,-0.89497,A,152539.10
4.14498,57.68815678,11.98004592,57.68815200,11.98004567,15:25:39.262567,0.00567,0.00000,0.00000,-0.14257,0.00000,0.00276,-0.00248,0.00031,-0.05258,-0.11547,0.99113,4.13837,0.00000,-1.43882,-1.43882,1.38239,-3.28645,4.06880,1.36704,-3.81769,-0.89497,-0.89497,A,152539.10
4.15555,57.68815654,11.98004591,57.68815200,11.98004567,15:25:39.273125,0.00584,0.00000,0.00000,-0.14262,0.00000,0.00307,-0.00355,0.00168,-0.05155,-0.11584,0.99021,4.14917,0.00000,-1.35724,-1.35724,1.38162,-3.31301,4.06880,1.36704,-3.81769,-0.89497,-0.89497,A,152539.10
4.16697,57.68815631,11.98004590,57.68815200,11.98004567,15:25:39.284543,0.00674,0.00000,0.00000,-0.14261,0.00000,0.00459,-0.00096,0.00046,-0.05014,-0.11389,0.99198,4.16036,0.00000,-1.28790,-1.28790,1.38089,-3.33825,4.06880,1.36704,-3.81769,-0.89497,-0.89497,A,152539.10
4.20623,57.68815610,11.98004589,57.68815100,11.98004683,15:25:39.324899,0.03560,0.00000,1.50000,-0.14268,0.02000,0.00001,-0.00111,-0.00122,-0.05350,-0.11547,0.99131,4.16924,0.00000,-1.22896,-1.22896,1.38020,-3.36222,4.18621,1.43639,-3.92889,-1.01319,-1.01319,A,152539.20
4.22636,57.68815584,11.98004594,57.68815100,11.98004683,15:25:39.343940,0.00711,0.00000,0.00000,-0.14284,0.00000,-0.00243,0.00057,0.00229,-0.05148,-0.11413,0.99418,4.21968,0.00000,-1.19659,-1.19659,1.38301,-3.39055,4.18621,1.43639,-3.92889,-1.01319,-1.01319,A,152539.20
4.23486,57.68815560,11.98004598,57.68815100,11.98004683,15:25:39.352430,0.00520,0.00000,0.00000,-0.14290,0.00000,0.00184,-0.00080,-0.00168,-0.05203,-0.11602,0.99113,4.22828,0.00000,-1.16908,-1.16908,1.38568,-3.41747,4.18621,1.43639,-3.92889,-1.01319,-1.01319,A,152539.20
4.24543,57.68815537,11.98004602,57.68815100,11.98004683,15:25:39.363007,0.00538,0.00000,0.00000,-0.14291,0.00000,0.00184,-0.00279,-0.00107,-0.05179,-0.11401,0.99521,4.23876,0.00000,-1.14570,-1.14570,1.38821,-3.44304,4.18621,1.43639,-3.92889,-1.01319,-1.01319,A,152539.20
4.25558,57.68815515,11.98004606,57.68815100,11.98004683,15:25:39.373159,0.00512,0.00000,0.00000,-0.14296,0.00000,0.00032,0.00164,0.00153,-0.05313,-0.11468,0.99198,4.24923,0.00000,-1.12583,-1.12583,1.39062,-3.46733,4.18621,1.43639,-3.92889,-1.01319,-1.01319,A,152539.20
4.26734,57.68815494,11.98004610,57.68815100,11.98004683,15:25:39.384923,0.00618,0.00000,0.00000,-0.14299,0.00000,0.00123,-0.00096,0.00031,-0.05270,-0.11407,0.99186,4.26043,0.00000,-1.10893,-1.10893,1.39291,-3.49041,4.18621,1.43639,-3.92889,-1.01319,-1.01319,A,152539.20
4.27779,57.68815475,11.98004614,57.68815100,11.98004683,15:25:39.395375,0.00620,0.00000,0.00000,-0.14306,0.00000,-0.00304,0.00026,0.00184,-0.05045,-0.11419,0.99101,4.27104,0.00000,-1.09457,-1.09457,1.39508,-3.51233,4.18621,1.43639,-3.92889,-1.01319,-1.01319,A,152539.20
4.31573,57.68815456,11.98004617,57.68814917,11.98004933,15:25:39.433342,0.03375,0.00000,1.50000,-0.14315,0.02000,0.00032,-0.00187,0.00367,-0.05270,-0.11749,0.98942,4.28068,0.00000,-1.08236,-1.08236,1.39715,-3.53316,4.29819,1.58498,-4.13274,-0.94094,-0.94094,A,152539.30
4.33562,57.68815429,11.98004633,57.68814917,11.98004933,15:25:39.453198,0.00688,0.00000,0.00000,-0.14307,0.00000,0.00322,-0.00035,0.00306,-0.05222,-0.11627,0.99210,4.32923,0.00000,-1.06115,-1.06115,1.40654,-3.56314,4.29819,1.58498,-4.13274,-0.94094,-0.94094,A,152539.30
4.34598,57.68815403,11.98004648,57.68814917,11.98004933,15:25:39.463561,0.00683,0.00000,0.00000,-0.14312,0.00000,-0.00014,0.00042,-0.03695,-0.05087,-0.11468,0.99253,4.33851,0.00000,-1.04312,-1.04312,1.41546,-3.59162,4.29819,1.58498,-4.13274,-0.94094,-0.94094,A,152539.30
4.35458,57.68815379,11.98004662,57.68814917,11.98004933,15:25:39.472155,0.00521,0.00000,0.00000,-0.14313,0.00000,0.00383,-0.00126,-0.00091,-0.05094,-0.11468,0.99180,4.34796,0.00000,-1.02779,-1.02779,1.42394,-3.61868,4.29819,1.58498,-4.13274,-0.94094,-0.94094,A,152539.30
4.36616,57.68815356,11.98004676,57.68814917,11.98004933,15:25:39.483749,0.00612,0.00000,0.00000,-0.14312,0.00000,0.00520,-0.00157,0.00428,-0.05313,-0.11517,0.99393,4.35879,0.00000,-1.01476,-1.01476,1.43199,-3.64438,4.29819,1.58498,-4.13274,-0.94094,-0.94094,A,152539.30
4.37599,57.68815334,11.98004689,57.68814917,11.98004933,15:25:39.493566,0.00554,0.00000,0.00000,-0.14317,0.00000,0.00093,-0.00035,0.00000,-0.05057,-0.11517,0.99223,4.36959,0.00000,-1.00369,-1.00369,1.43964,-3.66880,4.29819,1.58498,-4.13274,-0.94094,-0.94094,A,152539.30
4.38738,57.68815313,11.98004701,57.68814917,11.98004933,15:25:39.504957,0.00651,0.00000,0.00000,-0.14328,0.00000,-0.00533,-0.00371,-0.00152,-0.05386,-0.11505,0.98991,4.38035,0.00000,-0.99428,-0.99428,1.44691,-3.69200,4.29819,1.58498,-4.13274,-0.94094,-0.94094,A,152539.30
4.39635,57.68815293,11.98004713,57.68814917,11.98004933,15:25:39.514173,0.00507,0.00000,0.00000,-0.14334,0.00000,0.00077,-0.00065,0.00092,-0.05100,-0.11621,0.99168,4.38999,0.00000,-0.98627,-0.98627,1.45381,-3.71403,4.29819,1.58498,-4.13274,-0.94094,-0.94094,A,152539.30
4.44400,57.68815274,11.98004724,57.68814633,11.98005083,15:25:39.561622,0.04233,0.00000,1.50000,-0.14341,0.02000,-0.00136,-0.00233,0.00061,-0.05313,-0.11547,0.99082,4.40016,0.00000,-0.97947,-0.97947,1.46037,-3.73497,4.42059,1.67413,-4.44780,-1.29502,-1.29502,A,152539.40
4.46634,57.68815242,11.98004742,57.68814633,11.98005083,15:25:39.583924,0.00884,0.00000,0.00000,-0.14327,0.00000,0.00261,-0.00111,0.00061,-0.05075,-0.11254,0.98875,4.45927,0.00000,-1.02681,-1.02681,1.47106,-3.77061,4.42059,1.67413,-4.44780,-1.29502,-1.29502,A,152539.40
4.47360,57.68815212,11.98004759,57.68814633,11.98005083,15:25:39.591180,0.00586,0.00000,0.00000,-0.14329,0.00000,-0.00091,0.00118,0.00581,-0.05362,-0.11230,0.99143,4.46692,0.00000,-1.06704,-1.06704,1.48121,-3.80447,4.42059,1.67413,-4.44780,-1.29502,-1.29502,A,152539.40
4.48424,57.68815183,11.98004775,57.68814633,11.98005083,15:25:39.602030,0.00608,0.00000,0.00000,-0.14332,0.00000,0.00184,0.00072,-0.00137,-0.05124,-0.11486,0.99040,4.47706,0.00000,-1.10124,-1.10124,1.49086,-3.83664,4.42059,1.67413,-4.44780,-1.29502,-1.29502,A,152539.40
4.49389,57.68815155,11.98004790,57.68814633,11.98005083,15:25:39.611470,0.00518,0.00000,0.00000,-0.14331,0.00000,0.00505,-0.00309,-0.00061,-0.05203,-0.11419,0.99070,4.48725,0.00000,-1.13030,-1.13030,1.50002,-3.86719,4.42059,1.67413,-4.44780,-1.29502,-1.29502,A,152539.40
4.50502,57.68815129,11.98004805,57.68814633,11.98005083,15:25:39.622605,0.00590,0.00000,0.00000,-0.14336,0.00000,0.00154,-0.00111,0.00000,-0.05313,-0.11596,0.99076,4.49837,0.00000,-1.15501,-1.15501,1.50872,-3.89622,4.42059,1.67413,-4.44780,-1.29502,-1.29502,A,152539.40
4.51463,57.68815105,11.98004819,57.68814633,11.98005083,15:25:39.632206,0.00512,0.00000,0.00000,-0.14345,0.00000,-0.00304,-0.00447,0.00077,-0.05063,-0.11590,0.99247,4.50800,0.00000,-1.17601,-1.17601,1.51700,-3.92380,4.42059,1.67413,-4.44780,-1.29502,-1.29502,A,152539.40
4.56731,57.68815081,11.98004832,57.68814117,11.98005017,15:25:39.684930,0.04739,0.00000,1.50000,-0.14351,0.02000,-0.00289,0.00057,0.00000,-0.04874,-0.11444,0.99345,4.51862,0.00000,-1.19386,-1.19386,1.52485,-3.95000,4.54596,1.63451,-5.02230,-1.63966,-1.63966,A,152539.60
4.58629,57.68815033,11.98004841,57.68814117,11.98005017,15:25:39.703862,0.00688,0.00000,0.00000,-0.14334,0.00000,0.00322,-0.00264,0.00016,-0.04984,-0.11291,0.99009,4.57960,0.00000,-1.26073,-1.26073,1.53033,-4.00362,4.54596,1.63451,-5.02230,-1.63966,-1.63966,A,152539.60
4.59486,57.68814987,11.98004850,57.68814117,11.98005017,15:25:39.712440,0.00506,0.00000,0.00000,-0.14336,0.00000,0.00200,-0.00111,0.00260,-0.05130,-0.11462,0.99381,4.58829,0.00000,-1.31757,-1.31757,1.53554,-4.05455,4.54596,1.63451,-5.02230,-1.63966,-1.63966,A,152539.60
4.60553,57.68814943,11.98004858,57.68814117,11.98005017,15:25:39.723111,0.00534,0.00000,0.00000,-0.14345,0.00000,-0.00243,-0.00187,0.00123,-0.05069,-0.11566,0.99155,4.59890,0.00000,-1.36589,-1.36589,1.54049,-4.10294,4.54596,1.63451,-5.02230,-1.63966,-1.63966,A,152539.60
4.61562,57.68814902,11.98004866,57.68814117,11.98005017,15:25:39.733191,0.00496,0.00000,0.00000,-0.14344,0.00000,0.00352,-0.00126,-0.00213,-0.04972,-0.11407,0.99284,4.60925,0.00000,-1.40695,-1.40695,1.54519,-4.14891,4.54596,1.63451,-5.02230,-1.63966,-1.63966,A,152539.60
4.62622,57.68814863,11.98004874,57.68814117,11.98005017,15:25:39.743795,0.00532,0.00000,0.00000,-0.14350,0.00000,0.00032,-0.00111,-0.00275,-0.05374,-0.11584,0.99204,4.61958,0.00000,-1.44186,-1.44186,1.54966,-4.19258,4.54596,1.63451,-5.02230,-1.63966,-1.63966,A,152539.60
4.63776,57.68814826,11.98004881,57.68814117,11.98005017,15:25:39.755332,0.00611,0.00000,0.00000,-0.14358,0.00000,-0.00213,0.00179,-0.00122,-0.05112,-0.11602,0.99168,4.63105,0.00000,-1.47153,-1.47153,1.55390,-4.23406,4.54596,1.63451,-5.02230,-1.63966,-1.63966,A,152539.60
4.67834,57.68814790,11.98004888,57.68813967,11.98004817,15:25:39.795938,0.03629,0.00000,1.50000,-0.14368,0.02000,-0.00320,-0.00126,0.00168,-0.05234,-0.11663,0.99320,4.64074,0.00000,-1.49675,-1.49675,1.55793,-4.27348,4.66001,1.51563,-5.18910,-2.19000,-2.19000,A,152539.70
4.69621,57.68814749,11.98004884,57.68813967,11.98004817,15:25:39.813791,0.00668,0.00000,0.00000,-0.14374,0.00000,-0.00045,-0.00004,0.00077,-0.05398,-0.11468,0.99125,4.68982,0.00000,-1.60073,-1.60073,1.55582,-4.31926,4.66001,1.51563,-5.18910,-2.19000,-2.19000,A,152539.70
4.70554,57.68814710,11.98004881,57.68813967,11.98004817,15:25:39.823123,0.00560,0.00000,0.00000,-0.14380,0.00000,-0.00045,-0.00004,-0.00030,-0.05234,-0.11553,0.99265,4.69865,0.00000,-1.68912,-1.68912,1.55381,-4.36275,4.66001,1.51563,-5.18910,-2.19000,-2.19000,A,152539.70
4.71562,57.68814673,11.98004878,57.68813967,11.98004817,15:25:39.833199,0.00542,0.00000,0.00000,-0.14384,0.00000,-0.00106,0.00042,-0.00045,-0.05222,-0.11425,0.99162,4.70926,0.00000,-1.76425,-1.76425,1.55190,-4.40407,4.66001,1.51563,-5.18910,-2.19000,-2.19000,A,152539.70
4.72657,57.68814637,11.98004875,57.68813967,11.98004817,15:25:39.844150,0.00556,0.00000,0.00000,-0.14387,0.00000,0.00169,-0.00203,0.00184,-0.05252,-0.11547,0.99210,4.71994,0.00000,-1.82812,-1.82812,1.55009,-4.44332,4.66001,1.51563,-5.18910,-2.19000,-2.19000,A,152539.70
4.73777,57.68814604,11.98004872,57.68813967,11.98004817,15:25:39.855355,0.00636,0.00000,0.00000,-0.14385,0.00000,0.00276,-0.00126,-0.00107,-0.05228,-0.11309,0.99149,4.73014,0.00000,-1.88240,-1.88240,1.54836,-4.48061,4.66001,1.51563,-5.18910,-2.19000,-2.19000,A,152539.70
4.74691,57.68814572,11.98004869,57.68813967,11.98004817,15:25:39.864485,0.00509,0.00000,0.00000,-0.14389,0.00000,-0.00106,-0.00035,0.00031,-0.05392,-0.11383,0.99058,4.74031,0.00000,-1.92854,-1.92854,1.54673,-4.51603,4.66001,1.51563,-5.18910,-2.19000,-2.19000,A,152539.70
4.75758,57.68814542,11.98004866,57.68813967,11.98004817,15:25:39.875157,0.00537,0.00000,0.00000,-0.14390,0.00000,0.00276,-0.00111,0.00291,-0.05264,-0.11511,0.99271,4.75094,0.00000,-1.96776,-1.96776,1.54517,-4.54968,4.66001,1.51563,-5.18910,-2.19000,-2.19000,A,152539.70
4.80315,57.68814513,11.98004864,57.68813850,11.98005050,15:25:39.921616,0.04052,0.00000,1.50000,-0.14397,0.02000,-0.00029,-0.00248,0.00153,-0.05161,-0.11657,0.98991,4.76123,0.00000,-2.00109,-2.00109,1.54369,-4.58166,4.77965,1.65432,-5.31882,-0.75204,-0.75204,A,152539.80
4.82170,57.68814480,11.98004873,57.68813850,11.98005050,15:25:39.939280,0.00852,0.00000,0.00000,-0.14371,0.00000,0.00627,0.00393,0.00107,-0.04972,-0.11682,0.99192,4.81396,0.00000,-1.81373,-1.81373,1.54923,-4.61851,4.77965,1.65432,-5.31882,-0.75204,-0.75204,A,152539.80
4.82888,57.68814448,11.98004882,57.68813850,11.98005050,15:25:39.946463,0.00530,0.00000,0.00000,-0.14375,0.00000,-0.00182,-0.00080,0.00016,-0.05179,-0.11364,0.99082,4.82230,0.00000,-1.65448,-1.65448,1.55448,-4.65353,4.77965,1.65432,-5.31882,-0.75204,-0.75204,A,152539.80
4.83902,57.68814418,11.98004890,57.68813850,11.98005050,15:25:39.956594,0.00504,0.00000,0.00000,-0.14378,0.00000,-0.00060,-0.00187,-0.00122,-0.05215,-0.11376,0.99143,4.83265,0.00000,-1.51911,-1.51911,1.55947,-4.68679,4.77965,1.65432,-5.31882,-0.75204,-0.75204,A,152539.80
4.85142,57.68814390,11.98004898,57.68813850,11.98005050,15:25:39.969001,0.00704,0.00000,0.00000,-0.14382,0.00000,0.00200,0.00347,0.00214,-0.05191,-0.11651,0.99204,4.84416,0.00000,-1.40405,-1.40405,1.56421,-4.71840,4.77965,1.65432,-5.31882,-0.75204,-0.75204,A,152539.80
4.85983,57.68814363,11.98004906,57.68813850,11.98005050,15:25:39.977403,0.00505,0.00000,0.00000,-0.14385,0.00000,0.00108,0.00439,0.00000,-0.05325,-0.11499,0.99241,4.85348,0.00000,-1.30625,-1.30625,1.56872,-4.74842,4.77965,1.65432,-5.31882,-0.75204,-0.75204,A,152539.80
4.87026,57.68814337,11.98004913,57.68813850,11.98005050,15:25:39.987834,0.00525,0.00000,0.00000,-0.14394,0.00000,-0.00197,-0.00157,-0.00015,-0.05136,-0.11614,0.98954,4.86359,0.00000,-1.22312,-1.22312,1.57300,-4.77694,4.77965,1.65432,-5.31882,-0.75204,-0.75204,A,152539.80
4.91505,57.68814313,11.98004920,57.68813717,11.98005300,15:25:40.032652,0.03975,0.00000,1.50000,-0.14398,0.02000,-0.00029,-0.00340,0.00000,-0.05234,-0.11505,0.99186,4.87586,0.00000,-1.15246,-1.15246,1.57707,-4.80403,4.89410,1.80291,-5.46708,-0.78428,-0.78428,A,152539.90
4.92383,57.68814283,11.98004939,57.68813717,11.98005300,15:25:40.041406,0.00772,0.00000,0.00000,-0.14403,0.00000,-0.00091,-0.00187,-0.00152,-0.05033,-0.11328,0.99107,4.91744,0.00000,-1.09723,-1.09723,1.58836,-4.83718,4.89410,1.80291,-5.46708,-0.78428,-0.78428,A,152539.90
4.93176,57.68814255,11.98004957,57.68813717,11.98005300,15:25:40.049343,0.00525,0.00000,0.00000,-0.14407,0.00000,0.00123,-0.00142,0.00000,-0.05155,-0.11560,0.99168,4.92540,0.00000,-1.05029,-1.05029,1.59909,-4.86868,4.89410,1.80291,-5.46708,-0.78428,-0.78428,A,152539.90
4.94236,57.68814228,11.98004974,57.68813717,11.98005300,15:25:40.059941,0.00548,0.00000,0.00000,-0.14411,0.00000,-0.00014,0.00118,0.00245,-0.05350,-0.11511,0.99253,4.93539,0.00000,-1.01039,-1.01039,1.60928,-4.89860,4.89410,1.80291,-5.46708,-0.78428,-0.78428,A,152539.90
4.95357,57.68814202,11.98004991,57.68813717,11.98005300,15:25:40.071156,0.00629,0.00000,0.00000,-0.14411,0.00000,0.00276,0.00194,-0.00061,-0.05167,-0.11419,0.99070,4.94599,0.00000,-0.97647,-0.97647,1.61896,-4.92702,4.89410,1.80291,-5.46708,-0.78428,-0.78428,A,152539.90
4.96306,57.68814178,11.98005006,57.68813717,11.98005300,15:25:40.080642,0.00525,0.00000,0.00000,-0.14412,0.00000,0.00352,-0.00050,0.00382,-0.05124,-0.11572,0.99125,4.95636,0.00000,-0.94764,-0.94764,1.62816,-4.95403,4.89410,1.80291,-5.46708,-0.78428,-0.78428,A,152539.90
4.97354,57.68814155,11.98005021,57.68813717,11.98005300,15:25:40.091116,0.00533,0.00000,0.00000,-0.14415,0.00000,0.00001,-0.00050,-0.00183,-0.05075,-0.11438,0.98893,4.96690,0.00000,-0.92314,-0.92314,1.63689,-4.97968,4.89410,1.80291,-5.46708,-0.78428,-0.78428,A,152539.90
4.98494,57.68814133,11.98005035,57.68813717,11.98005300,15:25:40.102530,0.00632,0.00000,0.00000,-0.14421,0.00000,-0.00213,0.00225,-0.00137,-0.05527,-0.11535,0.99381,4.97831,0.00000,-0.90231,-0.90231,1.64520,-5.00405,4.89410,1.80291,-5.46708,-0.78428,-0.78428,A,152539.90
4.99426,57.68814112,11.98005048,57.68813717,11.98005300,15:25:40.111846,0.00539,0.00000,0.00000,-0.14424,0.00000,-0.00029,-0.00096,0.00031,-0.05423,-0.11407,0.99216,4.98737,0.00000,-0.88460,-0.88460,1.65308,-5.02720,4.89410,1.80291,-5.46708,-0.78428,-0.78428,A,152539.90
5.03602,57.68814092,11.98005061,57.68813567,11.98005533,15:25:40.154428,0.03675,0.00000,1.50000,-0.14426,0.02000,0.00077,0.00042,-0.00229,-0.05246,-0.11462,0.99076,4.99799,0.00000,-0.86956,-0.86956,1.66057,-5.04920,5.01489,1.94160,-5.63388,-0.87715,-0.87715,A,152540.00
5.06427,57.68814066,11.98005084,57.68813567,11.98005533,15:25:40.182087,0.01627,0.00000,0.00000,0.00000,0.00000,0.00093,-0.00279,0.00245,-0.05185,-0.11444,0.99192,5.05007,0.00000,-1.23891,-1.23891,1.94160,-5.63388,5.01489,1.94160,-5.63388,-0.87715,-0.87715,A,152540.00
5.09486,57.68813567,11.98005533,57.68813567,11.98005533,15:25:40.212823,0.01863,0.00000,0.00000,-0.00214,-0.06842,0.00184,-0.00157,-0.00091,-0.05161,-0.11474,0.99021,5.08025,0.00000,-1.17838,-1.22020,1.94160,-5.63388,5.01489,1.94160,-5.63388,-0.87715,-0.87715,A,152540.00
5.15040,57.68813567,11.98005533,57.68813467,11.98005783,15:25:40.268578,0.04447,0.00000,0.00000,-0.00420,-0.06842,0.00307,-0.00050,0.00000,-0.05148,-0.11364,0.99113,5.10903,0.00000,-1.12692,-1.16874,1.94160,-5.63388,5.13967,2.09019,-5.74507,-0.64243,-0.64243,A,152540.20
5.17549,57.68813562,11.98005546,57.68813467,11.98005783,15:25:40.293106,0.01243,0.00000,0.00000,-0.00639,-0.06842,-0.00121,0.00011,0.00046,-0.05240,-0.11462,0.99479,5.16423,0.00000,-1.04797,-1.08980,1.94903,-5.63944,5.13967,2.09019,-5.74507,-0.64243,-0.64243,A,152540.20
5.20195,57.68813557,11.98005558,57.68813467,11.98005783,15:25:40.319565,0.01383,0.00000,0.00000,-0.00842,-0.06842,0.00215,0.00072,0.00077,-0.05142,-0.11364,0.99302,5.18827,0.00000,-0.98087,-1.02269,1.95608,-5.64472,5.13967,2.09019,-5.74507,-0.64243,-0.64243,A,152540.20
5.22729,57.68813552,11.98005569,57.68813467,11.98005783,15:25:40.345217,0.01278,0.00000,0.00000,-0.01052,-0.06842,0.00016,-0.00187,0.00245,-0.05185,-0.11639,0.98863,5.21613,0.00000,-0.92383,-0.96565,1.96279,-5.64974,5.13967,2.09019,-5.74507,-0.64243,-0.64243,A,152540.20
5.27074,57.68813548,11.98005580,57.68813500,11.98005767,15:25:40.388332,0.03112,0.00000,0.00000,-0.01256,-0.06842,-0.00075,-0.00080,-0.00305,-0.05258,-0.11358,0.99033,5.24230,0.00000,-0.87534,-0.91717,1.96916,-5.65450,5.25971,2.08028,-5.70801,1.83196,1.83196,A,152540.30
5.29509,57.68813546,11.98005589,57.68813500,11.98005767,15:25:40.412682,0.01287,0.00000,0.00000,-0.01455,-0.06842,0.00123,0.00011,0.00000,-0.05081,-0.11669,0.99046,5.28463,0.00000,-0.46297,-0.50480,1.97472,-5.65718,5.25971,2.08028,-5.70801,1.83196,1.83196,A,152540.30
5.31942,57.68813543,11.98005598,57.68813500,11.98005767,15:25:40.437335,0.01263,0.00000,0.00000,-0.01650,-0.06842,0.00001,-0.00325,-0.00091,-0.05112,-0.11346,0.99198,5.30878,0.00000,-0.11246,-0.15429,1.97999,-5.65972,5.25971,2.08028,-5.70801,1.83196,1.83196,A,152540.30
5.34270,57.68813541,11.98005606,57.68813500,11.98005767,15:25:40.460300,0.01484,0.00000,0.00000,-0.01842,-0.06842,0.00062,-0.00416,0.00138,-0.05045,-0.11383,0.99229,5.33150,0.00000,0.18547,0.14365,1.98501,-5.66213,5.25971,2.08028,-5.70801,1.83196,1.83196,A,152540.30
5.38763,57.68813539,11.98005614,57.68813500,11.98005750,15:25:40.505472,0.03238,0.00000,0.00000,-0.02028,-0.06842,0.00200,-0.00142,-0.00061,-0.05222,-0.11383,0.99143,5.35785,0.00000,0.43872,0.39690,1.98977,-5.66443,5.37809,2.07038,-5.70801,3.14159,3.14159,A,152540.40
5.40782,57.68813537,11.98005621,57.68813500,11.98005750,15:25:40.525416,0.01222,0.00000,0.00000,-0.02215,-0.06842,0.00062,-0.00065,0.00275,-0.05136,-0.11535,0.99143,5.39758,0.00000,0.85043,0.80860,1.99380,-5.66661,5.37809,2.07038,-5.70801,3.14159,3.14159,A,152540.40
5.43451,57.68813535,11.98005628,57.68813500,11.98005750,15:25:40.552098,0.01417,0.00000,0.00000,-0.02400,-0.06842,-0.00075,-0.00386,0.00077,-0.04972,-0.11297,0.99351,5.42335,0.00000,1.20037,1.15855,1.99763,-5.66868,5.37809,2.07038,-5.70801,3.14159,3.14159,A,152540.40
5.45483,57.68813534,11.98005634,57.68813500,11.98005750,15:25:40.572732,0.01357,0.00000,0.00000,-0.02585,-0.06842,0.00001,-0.00233,0.00199,-0.05270,-0.11553,0.99155,5.44352,0.00000,1.49783,1.45601,2.00127,-5.67064,5.37809,2.07038,-5.70801,3.14159,3.14159,A,152540.40
