Time,lat_estimated,lon_estimated,latitude,longitude,RealTime,CalculationTime,MeasuredVelocity,FilteredVelocity,Roll,SteeringAngle,RollRate,gy,gz,ax,ay,az,imu_read_timing,v_estimated,yaw_estimated,heading_estimated,x_estimated,y_estimated,GPS_timestamp,x_GPS,y_GPS,theta_GPS,theta_GPS_noUnwrap,status,NMEA timestamp
0.06518,57.68816683,11.97979717,57.68816683,11.97979717,14:56:52.201594,0.06514,0.00000,1.50000,-0.00219,0.02000,0.00084,-0.00132,0.00024,-0.05392,-0.11480,0.99137,0.00001,0.00000,0.00000,0.00000,0.00000,0.00000,0.02490,0.00000,0.00000,0.00000,0.00000,A,145652.10
0.08592,57.68816683,11.97979717,57.68816683,11.97979717,14:56:52.222325,0.00738,0.00000,0.00000,-0.00447,0.00000,-0.00100,0.00234,0.00070,-0.05161,-0.11730,0.99186,0.07925,0.00000,0.00000,0.00000,0.00000,0.00000,0.02490,0.00000,0.00000,0.00000,0.00000,A,145652.10
0.09469,57.68816683,11.97979717,57.68816683,11.97979717,14:56:52.231069,0.00545,0.00000,0.00000,-0.00664,0.00000,-0.00145,-0.00071,-0.00129,-0.05124,-0.11657,0.99094,0.08871,0.00000,0.00000,0.00000,0.00000,0.00000,0.02490,0.00000,0.00000,0.00000,0.00000,A,145652.10
0.10516,57.68816683,11.97979717,57.68816683,11.97979717,14:56:52.241538,0.00552,0.00000,0.00000,-0.00873,0.00000,0.00221,0.00051,-0.00022,-0.05380,-0.11614,0.99271,0.09923,0.00000,0.00000,0.00000,0.00000,0.00000,0.02490,0.00000,0.00000,0.00000,0.00000,A,145652.10
0.11537,57.68816683,11.97979717,57.68816683,11.97979717,14:56:52.251748,0.00530,0.00000,0.00000,-0.01086,0.00000,-0.00344,-0.00209,-0.00007,-0.05191,-0.11700,0.99290,0.10945,0.00000,0.00000,0.00000,0.00000,0.00000,0.02490,0.00000,0.00000,0.00000,0.00000,A,145652.10
0.15138,57.68816683,11.97979717,57.68816633,11.97979417,14:56:52.287794,0.03090,0.00000,1.50000,-0.01289,0.02000,0.00221,-0.00056,-0.00221,-0.05130,-0.11602,0.99094,0.12003,0.00000,0.00000,0.00000,0.00000,0.00000,0.13715,-0.17831,-0.05560,-2.83934,-2.83934,A,145652.20
0.16887,57.68816681,11.97979702,57.68816633,11.97979417,14:56:52.305257,0.00768,0.00000,0.00000,-0.01509,0.00000,-0.00497,-0.00148,0.00100,-0.05185,-0.11395,0.99210,0.16316,0.00000,-0.42590,-0.42590,-0.00892,-0.00278,0.13715,-0.17831,-0.05560,-2.83934,-2.83934,A,145652.20
0.17665,57.68816678,11.97979687,57.68816633,11.97979417,14:56:52.313037,0.00505,0.00000,0.00000,-0.01705,0.00000,0.00313,-0.00148,-0.00037,-0.05075,-0.11572,0.99131,0.17098,0.00000,-0.78792,-0.78792,-0.01739,-0.00542,0.13715,-0.17831,-0.05560,-2.83934,-2.83934,A,145652.20
0.18723,57.68816676,11.97979674,57.68816633,11.97979417,14:56:52.323611,0.00528,0.00000,0.00000,-0.01897,0.00000,0.00450,0.00310,0.00161,-0.05087,-0.11657,0.99186,0.18124,0.00000,-1.09563,-1.09563,-0.02543,-0.00793,0.13715,-0.17831,-0.05560,-2.83934,-2.83934,A,145652.20
0.19742,57.68816674,11.97979661,57.68816633,11.97979417,14:56:52.333796,0.00506,0.00000,0.00000,-0.02087,0.00000,0.00191,-0.00041,-0.00022,-0.05161,-0.11578,0.99448,0.19178,0.00000,-1.35719,-1.35719,-0.03308,-0.01031,0.13715,-0.17831,-0.05560,-2.83934,-2.83934,A,145652.20
0.20789,57.68816672,11.97979649,57.68816633,11.97979417,14:56:52.344271,0.00531,0.00000,0.00000,-0.02280,0.00000,-0.00176,-0.00132,0.00161,-0.05008,-0.11657,0.99216,0.20199,0.00000,-1.57951,-1.57951,-0.04034,-0.01258,0.13715,-0.17831,-0.05560,-2.83934,-2.83934,A,145652.20
0.21831,57.68816670,11.97979637,57.68816633,11.97979417,14:56:52.354697,0.00534,0.00000,0.00000,-0.02460,0.00000,0.00435,-0.00270,-0.00282,-0.04972,-0.11462,0.99198,0.21240,0.00000,-1.76849,-1.76849,-0.04724,-0.01473,0.13715,-0.17831,-0.05560,-2.83934,-2.83934,A,145652.20
0.22844,57.68816668,11.97979626,57.68816633,11.97979417,14:56:52.364819,0.00506,0.00000,0.00000,-0.02643,0.00000,-0.00023,0.00158,-0.00236,-0.05161,-0.11492,0.99180,0.22278,0.00000,-1.92911,-1.92911,-0.05379,-0.01677,0.13715,-0.17831,-0.05560,-2.83934,-2.83934,A,145652.20
0.26333,57.68816667,11.97979616,57.68816683,11.97978983,14:56:52.399738,0.02939,0.00000,1.50000,-0.02823,0.02000,0.00359,-0.00148,0.00283,-0.05045,-0.11712,0.99338,0.23314,0.00000,-2.06565,-2.06565,-0.06002,-0.01871,0.24940,-0.43587,0.00000,2.92899,2.92899,A,145652.30
0.28041,57.68816667,11.97979584,57.68816683,11.97978983,14:56:52.416793,0.00793,0.00000,0.00000,-0.03011,0.00000,-0.00252,0.00036,0.00207,-0.05008,-0.11553,0.99168,0.27345,0.00000,-1.31645,-1.31645,-0.07881,-0.01778,0.24940,-0.43587,0.00000,2.92899,2.92899,A,145652.30
0.28796,57.68816668,11.97979554,57.68816683,11.97978983,14:56:52.424341,0.00508,0.00000,0.00000,-0.03189,0.00000,0.00023,-0.00316,-0.00129,-0.05106,-0.11682,0.98972,0.28208,0.00000,-0.67964,-0.67964,-0.09666,-0.01689,0.24940,-0.43587,0.00000,2.92899,2.92899,A,145652.30
0.29874,57.68816669,11.97979526,57.68816683,11.97978983,14:56:52.435120,0.00546,0.00000,0.00000,-0.03359,0.00000,0.00221,-0.00178,0.00192,-0.04959,-0.11517,0.99259,0.29281,0.00000,-0.13834,-0.13834,-0.11362,-0.01604,0.24940,-0.43587,0.00000,2.92899,2.92899,A,145652.30
0.30882,57.68816670,11.97979498,57.68816683,11.97978983,14:56:52.445195,0.00513,0.00000,0.00000,-0.03533,0.00000,-0.00161,-0.00102,-0.00221,-0.04984,-0.11682,0.99143,0.30315,0.00000,0.32176,0.32176,-0.12973,-0.01524,0.24940,-0.43587,0.00000,2.92899,2.92899,A,145652.30
0.31924,57.68816670,11.97979473,57.68816683,11.97978983,14:56:52.455620,0.00516,0.00000,0.00000,-0.03695,0.00000,0.00236,-0.00071,0.00146,-0.05075,-0.11395,0.99204,0.31329,0.00000,0.71284,0.71284,-0.14504,-0.01448,0.24940,-0.43587,0.00000,2.92899,2.92899,A,145652.30
0.32993,57.68816671,11.97979448,57.68816683,11.97978983,14:56:52.466326,0.00546,0.00000,0.00000,-0.03862,0.00000,-0.00038,-0.00255,0.00024,-0.05246,-0.11621,0.99387,0.32402,0.00000,1.04527,1.04527,-0.15958,-0.01376,0.24940,-0.43587,0.00000,2.92899,2.92899,A,145652.30
0.33996,57.68816672,11.97979425,57.68816683,11.97978983,14:56:52.476337,0.00509,0.00000,0.00000,-0.04028,0.00000,-0.00359,-0.00285,0.00054,-0.04856,-0.11578,0.99223,0.33407,0.00000,1.32782,1.32782,-0.17340,-0.01307,0.24940,-0.43587,0.00000,2.92899,2.92899,A,145652.30
0.37506,57.68816672,11.97979403,57.68816833,11.97978283,14:56:52.511476,0.02979,0.00000,1.50000,-0.04185,0.02000,0.00206,-0.00163,-0.00098,-0.05063,-0.11480,0.99399,0.34474,0.00000,1.56800,1.56800,-0.18652,-0.01241,0.36098,-0.85192,0.16679,2.76032,2.76032,A,145652.40
0.39252,57.68816680,11.97979347,57.68816833,11.97978283,14:56:52.528909,0.00648,0.00000,0.00000,-0.04357,0.00000,-0.00313,-0.00010,0.00085,-0.04935,-0.11633,0.99094,0.38594,0.00000,1.74685,1.74685,-0.21979,-0.00345,0.36098,-0.85192,0.16679,2.76032,2.76032,A,145652.40
0.40151,57.68816688,11.97979294,57.68816833,11.97978283,14:56:52.538205,0.00506,0.00000,0.00000,-0.04510,0.00000,0.00236,-0.00026,0.00008,-0.05069,-0.11572,0.99186,0.39586,0.00000,1.89887,1.89887,-0.25140,0.00506,0.36098,-0.85192,0.16679,2.76032,2.76032,A,145652.40
0.41219,57.68816695,11.97979243,57.68816833,11.97978283,14:56:52.548565,0.00520,0.00000,0.00000,-0.04661,0.00000,0.00328,-0.00041,0.00222,-0.04996,-0.11657,0.99436,0.40619,0.00000,2.02809,2.02809,-0.28142,0.01314,0.36098,-0.85192,0.16679,2.76032,2.76032,A,145652.40
0.42270,57.68816702,11.97979195,57.68816833,11.97978283,14:56:52.559081,0.00531,0.00000,0.00000,-0.04817,0.00000,-0.00069,0.00341,0.00008,-0.05222,-0.11883,0.99192,0.41678,0.00000,2.13792,2.13792,-0.30995,0.02083,0.36098,-0.85192,0.16679,2.76032,2.76032,A,145652.40
0.43293,57.68816709,11.97979150,57.68816833,11.97978283,14:56:52.569311,0.00514,0.00000,0.00000,-0.04961,0.00000,0.00511,-0.00362,-0.00083,-0.05081,-0.11578,0.99143,0.42726,0.00000,2.23128,2.23128,-0.33705,0.02813,0.36098,-0.85192,0.16679,2.76032,2.76032,A,145652.40
0.44325,57.68816715,11.97979106,57.68816833,11.97978283,14:56:52.579635,0.00517,0.00000,0.00000,-0.05108,0.00000,-0.00069,0.00188,-0.00190,-0.05246,-0.11541,0.98997,0.43730,0.00000,2.31064,2.31064,-0.36279,0.03506,0.36098,-0.85192,0.16679,2.76032,2.76032,A,145652.40
0.45355,57.68816721,11.97979065,57.68816833,11.97978283,14:56:52.590173,0.00506,0.00000,0.00000,-0.05251,0.00000,0.00313,-0.00255,0.00192,-0.05295,-0.11718,0.99192,0.44791,0.00000,2.37809,2.37809,-0.38725,0.04165,0.36098,-0.85192,0.16679,2.76032,2.76032,A,145652.40
0.49004,57.68816726,11.97979026,57.68816867,11.97977733,14:56:52.626441,0.03115,0.00000,1.50000,-0.05392,0.02000,-0.00008,-0.00209,0.00039,-0.05173,-0.11499,0.99180,0.45806,0.00000,2.43542,2.43542,-0.41048,0.04790,0.47439,-1.17883,0.20386,3.02869,3.02869,A,145652.50
0.50414,57.68816733,11.97978961,57.68816867,11.97977733,14:56:52.640517,0.00758,0.00000,0.00000,-0.05528,0.00000,0.00084,-0.00163,0.00176,-0.05161,-0.11517,0.99369,0.49765,0.00000,2.52441,2.52441,-0.44890,0.05570,0.47439,-1.17883,0.20386,3.02869,3.02869,A,145652.50
0.51222,57.68816740,11.97978900,57.68816867,11.97977733,14:56:52.648599,0.00526,0.00000,0.00000,-0.05664,0.00000,0.00313,0.00310,-0.00068,-0.05020,-0.11608,0.99314,0.50615,0.00000,2.60006,2.60006,-0.48540,0.06311,0.47439,-1.17883,0.20386,3.02869,3.02869,A,145652.50
0.52271,57.68816746,11.97978842,57.68816867,11.97977733,14:56:52.659085,0.00534,0.00000,0.00000,-0.05796,0.00000,0.00160,0.00066,-0.00037,-0.05197,-0.11456,0.99247,0.51676,0.00000,2.66435,2.66435,-0.52007,0.07015,0.47439,-1.17883,0.20386,3.02869,3.02869,A,145652.50
0.53287,57.68816752,11.97978786,57.68816867,11.97977733,14:56:52.669243,0.00510,0.00000,0.00000,-0.05933,0.00000,-0.00176,0.00112,-0.00236,-0.04880,-0.11639,0.99277,0.52719,0.00000,2.71900,2.71900,-0.55300,0.07683,0.47439,-1.17883,0.20386,3.02869,3.02869,A,145652.50
0.54325,57.68816758,11.97978734,57.68816867,11.97977733,14:56:52.679631,0.00516,0.00000,0.00000,-0.06066,0.00000,-0.00084,0.00234,-0.00129,-0.04917,-0.11614,0.99076,0.53729,0.00000,2.76546,2.76546,-0.58430,0.08318,0.47439,-1.17883,0.20386,3.02869,3.02869,A,145652.50
0.55462,57.68816764,11.97978684,57.68816867,11.97977733,14:56:52.691003,0.00613,0.00000,0.00000,-0.06196,0.00000,-0.00161,-0.00148,-0.00007,-0.05264,-0.11462,0.99265,0.54861,0.00000,2.80494,2.80494,-0.61402,0.08922,0.47439,-1.17883,0.20386,3.02869,3.02869,A,145652.50
0.56395,57.68816769,11.97978636,57.68816867,11.97977733,14:56:52.700329,0.00506,0.00000,0.00000,-0.06321,0.00000,0.00160,0.00326,-0.00343,-0.05179,-0.11456,0.99223,0.55807,0.00000,2.83850,2.83850,-0.64226,0.09495,0.47439,-1.17883,0.20386,3.02869,3.02869,A,145652.50
0.57467,57.68816774,11.97978591,57.68816867,11.97977733,14:56:52.711048,0.00537,0.00000,0.00000,-0.06454,0.00000,-0.00512,-0.00026,0.00100,-0.05148,-0.11663,0.99033,0.56869,0.00000,2.86703,2.86703,-0.66909,0.10039,0.47439,-1.17883,0.20386,3.02869,3.02869,A,145652.50
0.61227,57.68816778,11.97978548,57.68817033,11.97977117,14:56:52.748689,0.03257,0.00000,1.50000,-0.06581,0.02000,-0.00222,0.00097,-0.00144,-0.05228,-0.11627,0.99253,0.57909,0.00000,2.89128,2.89128,-0.69458,0.10557,0.59638,-1.54535,0.38918,2.67345,2.67345,A,145652.60
0.62909,57.68816791,11.97978476,57.68817033,11.97977117,14:56:52.765470,0.00617,0.00000,0.00000,-0.06695,0.00000,0.00221,0.00051,0.00085,-0.05087,-0.11651,0.99149,0.62338,0.00000,2.85861,2.85861,-0.73712,0.11975,0.59638,-1.54535,0.38918,2.67345,2.67345,A,145652.60
0.63868,57.68816803,11.97978409,57.68817033,11.97977117,14:56:52.775053,0.00535,0.00000,0.00000,-0.06817,0.00000,0.00130,0.00158,-0.00114,-0.05173,-0.11755,0.99052,0.63273,0.00000,2.83083,2.83083,-0.77753,0.13322,0.59638,-1.54535,0.38918,2.67345,2.67345,A,145652.60
0.64876,57.68816815,11.97978344,57.68817033,11.97977117,14:56:52.785135,0.00503,0.00000,0.00000,-0.06931,0.00000,0.00206,-0.00041,-0.00114,-0.05289,-0.11376,0.99143,0.64310,0.00000,2.80723,2.80723,-0.81592,0.14602,0.59638,-1.54535,0.38918,2.67345,2.67345,A,145652.60
0.65959,57.68816826,11.97978283,57.68817033,11.97977117,14:56:52.795975,0.00537,0.00000,0.00000,-0.07053,0.00000,-0.00344,-0.00132,-0.00007,-0.05142,-0.11700,0.99235,0.65344,0.00000,2.78716,2.78716,-0.85239,0.15818,0.59638,-1.54535,0.38918,2.67345,2.67345,A,145652.60
0.66993,57.68816836,11.97978224,57.68817033,11.97977117,14:56:52.806324,0.00532,0.00000,0.00000,-0.07166,0.00000,0.00038,0.00234,-0.00098,-0.04947,-0.11462,0.99320,0.66404,0.00000,2.77011,2.77011,-0.88704,0.16973,0.59638,-1.54535,0.38918,2.67345,2.67345,A,145652.60
0.68009,57.68816846,11.97978169,57.68817033,11.97977117,14:56:52.816471,0.00507,0.00000,0.00000,-0.07285,0.00000,-0.00588,-0.00163,0.00207,-0.04868,-0.11584,0.99497,0.67421,0.00000,2.75561,2.75561,-0.91995,0.18070,0.59638,-1.54535,0.38918,2.67345,2.67345,A,145652.60
0.69074,57.68816855,11.97978116,57.68817033,11.97977117,14:56:52.827124,0.00532,0.00000,0.00000,-0.07401,0.00000,-0.00206,-0.00285,0.00070,-0.05155,-0.11669,0.99192,0.68481,0.00000,2.74328,2.74328,-0.95122,0.19112,0.59638,-1.54535,0.38918,2.67345,2.67345,A,145652.60
0.73638,57.68816864,11.97978066,57.68817200,11.97976950,14:56:52.873253,0.04054,0.00000,1.50000,-0.07517,0.02000,-0.00359,-0.00239,0.00115,-0.04941,-0.11779,0.99235,0.69513,0.00000,2.73281,2.73281,-0.98093,0.20103,0.72232,-1.64441,0.57451,2.06168,2.06168,A,145652.80
0.75512,57.68816881,11.97978010,57.68817200,11.97976950,14:56:52.891497,0.00721,0.00000,0.00000,-0.07652,0.00000,-0.00466,-0.00041,-0.00022,-0.05087,-0.11694,0.99186,0.74910,0.00000,2.63214,2.63214,-1.01410,0.21970,0.72232,-1.64441,0.57451,2.06168,2.06168,A,145652.80
0.76331,57.68816897,11.97977957,57.68817200,11.97976950,14:56:52.899692,0.00517,0.00000,0.00000,-0.07761,0.00000,-0.00268,0.00066,-0.00282,-0.05100,-0.11608,0.99345,0.75737,0.00000,2.54657,2.54657,-1.04562,0.23744,0.72232,-1.64441,0.57451,2.06168,2.06168,A,145652.80
0.77387,57.68816912,11.97977907,57.68817200,11.97976950,14:56:52.910258,0.00533,0.00000,0.00000,-0.07862,0.00000,0.00298,-0.00163,-0.00144,-0.04959,-0.11553,0.99168,0.76798,0.00000,2.47384,2.47384,-1.07556,0.25429,0.72232,-1.64441,0.57451,2.06168,2.06168,A,145652.80
0.78401,57.68816926,11.97977859,57.68817200,11.97976950,14:56:52.920395,0.00507,0.00000,0.00000,-0.07968,0.00000,-0.00100,-0.00255,0.00024,-0.05020,-0.11718,0.99296,0.77813,0.00000,2.41202,2.41202,-1.10400,0.27030,0.72232,-1.64441,0.57451,2.06168,2.06168,A,145652.80
0.79543,57.68816940,11.97977814,57.68817200,11.97976950,14:56:52.931827,0.00609,0.00000,0.00000,-0.08068,0.00000,0.00068,0.00204,-0.00037,-0.05112,-0.11523,0.98905,0.78874,0.00000,2.35947,2.35947,-1.13102,0.28551,0.72232,-1.64441,0.57451,2.06168,2.06168,A,145652.80
0.80608,57.68816953,11.97977771,57.68817200,11.97976950,14:56:52.942466,0.00634,0.00000,0.00000,-0.08170,0.00000,-0.00145,0.00127,-0.00068,-0.05124,-0.11627,0.99223,0.79983,0.00000,2.31480,2.31480,-1.15669,0.29996,0.72232,-1.64441,0.57451,2.06168,2.06168,A,145652.80
0.81544,57.68816965,11.97977730,57.68817200,11.97976950,14:56:52.951814,0.00521,0.00000,0.00000,-0.08267,0.00000,0.00298,0.00005,0.00375,-0.05026,-0.11651,0.99101,0.80947,0.00000,2.27683,2.27683,-1.18108,0.31369,0.72232,-1.64441,0.57451,2.06168,2.06168,A,145652.80
0.85072,57.68816977,11.97977691,57.68817283,11.97977033,14:56:52.987865,0.03009,0.00000,1.50000,-0.08366,0.02000,0.00145,-0.00117,0.00054,-0.05118,-0.11761,0.99162,0.82005,0.00000,2.24456,2.24456,-1.20425,0.32673,0.83620,-1.59488,0.66717,1.07991,1.07991,A,145652.90
0.86918,57.68816992,11.97977658,57.68817283,11.97977033,14:56:53.005560,0.00602,0.00000,0.00000,-0.08473,0.00000,-0.00237,-0.00056,-0.00114,-0.05411,-0.11675,0.99107,0.86348,0.00000,2.06986,2.06986,-1.22378,0.34375,0.83620,-1.59488,0.66717,1.07991,1.07991,A,145652.90
0.87898,57.68817007,11.97977626,57.68817283,11.97977033,14:56:53.015365,0.00543,0.00000,0.00000,-0.08568,0.00000,-0.00069,-0.00026,0.00115,-0.05142,-0.11627,0.99204,0.87302,0.00000,1.92137,1.92137,-1.24233,0.35992,0.83620,-1.59488,0.66717,1.07991,1.07991,A,145652.90
0.88902,57.68817021,11.97977597,57.68817283,11.97977033,14:56:53.025391,0.00506,0.00000,0.00000,-0.08659,0.00000,0.00160,0.00188,-0.00236,-0.04935,-0.11553,0.99253,0.88336,0.00000,1.79515,1.79515,-1.25996,0.37529,0.83620,-1.59488,0.66717,1.07991,1.07991,A,145652.90
0.89999,57.68817034,11.97977569,57.68817283,11.97977033,14:56:53.036367,0.00579,0.00000,0.00000,-0.08751,0.00000,-0.00023,-0.00102,-0.00221,-0.05057,-0.11627,0.99155,0.89344,0.00000,1.68786,1.68786,-1.27671,0.38988,0.83620,-1.59488,0.66717,1.07991,1.07991,A,145652.90
0.91012,57.68817046,11.97977542,57.68817283,11.97977033,14:56:53.046506,0.00570,0.00000,0.00000,-0.08838,0.00000,0.00221,-0.00209,-0.00144,-0.05167,-0.11602,0.99229,0.90420,0.00000,1.59667,1.59667,-1.29261,0.40375,0.83620,-1.59488,0.66717,1.07991,1.07991,A,145652.90
0.92060,57.68817058,11.97977516,57.68817283,11.97977033,14:56:53.056984,0.00578,0.00000,0.00000,-0.08932,0.00000,-0.00313,-0.00178,0.00054,-0.05069,-0.11657,0.99021,0.91488,0.00000,1.51916,1.51916,-1.30773,0.41692,0.83620,-1.59488,0.66717,1.07991,1.07991,A,145652.90
0.93060,57.68817070,11.97977492,57.68817283,11.97977033,14:56:53.066974,0.00538,0.00000,0.00000,-0.09019,0.00000,-0.00130,0.00112,-0.00129,-0.05295,-0.11547,0.99277,0.92463,0.00000,1.45327,1.45327,-1.32209,0.42943,0.83620,-1.59488,0.66717,1.07991,1.07991,A,145652.90
0.96667,57.68817080,11.97977469,57.68817333,11.97977217,14:56:53.103084,0.03105,0.00000,1.50000,-0.09108,0.02000,-0.00466,0.00173,0.00008,-0.05014,-0.11505,0.99473,0.93501,0.00000,1.39727,1.39727,-1.33573,0.44132,0.95130,-1.48592,0.72277,0.47179,0.47179,A,145653.00
0.98300,57.68817093,11.97977457,57.68817333,11.97977217,14:56:53.119382,0.00589,0.00000,0.00000,-0.09194,0.00000,-0.00038,-0.00224,-0.00053,-0.05185,-0.11572,0.99259,0.97697,0.00000,1.25844,1.25844,-1.34324,0.45539,0.95130,-1.48592,0.72277,0.47179,0.47179,A,145653.00
0.99258,57.68817105,11.97977445,57.68817333,11.97977217,14:56:53.128958,0.00506,0.00000,0.00000,-0.09281,0.00000,0.00053,0.00005,0.00054,-0.05142,-0.11840,0.99046,0.98692,0.00000,1.14045,1.14045,-1.35037,0.46876,0.95130,-1.48592,0.72277,0.47179,0.47179,A,145653.00
1.00376,57.68817116,11.97977433,57.68817333,11.97977217,14:56:53.140559,0.00570,0.00000,0.00000,-0.09361,0.00000,0.00114,0.00280,-0.00159,-0.05051,-0.11566,0.99149,0.99783,0.00000,1.04015,1.04015,-1.35715,0.48146,0.95130,-1.48592,0.72277,0.47179,0.47179,A,145653.00
1.01392,57.68817127,11.97977422,57.68817333,11.97977217,14:56:53.150308,0.00545,0.00000,0.00000,-0.09447,0.00000,-0.00420,-0.00102,0.00176,-0.05252,-0.11669,0.99314,1.00801,0.00000,0.95490,0.95490,-1.36359,0.49352,0.95130,-1.48592,0.72277,0.47179,0.47179,A,145653.00
1.02394,57.68817137,11.97977412,57.68817333,11.97977217,14:56:53.160316,0.00507,0.00000,0.00000,-0.09526,0.00000,-0.00222,-0.00056,0.00115,-0.04917,-0.11444,0.99369,1.01805,0.00000,0.88243,0.88243,-1.36970,0.50499,0.95130,-1.48592,0.72277,0.47179,0.47179,A,145653.00
1.03464,57.68817147,11.97977402,57.68817333,11.97977217,14:56:53.171024,0.00538,0.00000,0.00000,-0.09603,0.00000,0.00145,0.00356,-0.00236,-0.05124,-0.11578,0.99210,1.02867,0.00000,0.82083,0.82083,-1.37551,0.51588,0.95130,-1.48592,0.72277,0.47179,0.47179,A,145653.00
1.04477,57.68817157,11.97977393,57.68817333,11.97977217,14:56:53.181150,0.00511,0.00000,0.00000,-0.09687,0.00000,-0.00451,0.00173,0.00008,-0.05057,-0.11749,0.99094,1.03910,0.00000,0.76848,0.76848,-1.38103,0.52622,0.95130,-1.48592,0.72277,0.47179,0.47179,A,145653.00
1.08179,57.68817165,11.97977384,57.68817333,11.97977317,14:56:53.218207,0.03171,0.00000,1.50000,-0.09761,0.02000,0.00298,0.00005,0.00115,-0.04886,-0.11657,0.99210,1.04930,0.00000,0.72397,0.72397,-1.38628,0.53605,1.06583,-1.42648,0.72277,0.00000,0.00000,A,145653.10
1.09943,57.68817174,11.97977381,57.68817333,11.97977317,14:56:53.235803,0.00615,0.00000,0.00000,-0.09838,0.00000,-0.00069,-0.00102,0.00054,-0.05026,-0.11511,0.99320,1.09344,0.00000,0.61538,0.61538,-1.38829,0.54538,1.06583,-1.42648,0.72277,0.00000,0.00000,A,145653.10
1.10919,57.68817182,11.97977378,57.68817333,11.97977317,14:56:53.245580,0.00567,0.00000,0.00000,-0.09905,0.00000,0.00633,0.00051,-0.00175,-0.05283,-0.11621,0.99393,1.10315,0.00000,0.52307,0.52307,-1.39020,0.55425,1.06583,-1.42648,0.72277,0.00000,0.00000,A,145653.10
1.11922,57.68817189,11.97977375,57.68817333,11.97977317,14:56:53.255595,0.00515,0.00000,0.00000,-0.09977,0.00000,0.00130,0.00173,-0.00251,-0.04990,-0.11651,0.99235,1.11328,0.00000,0.44461,0.44461,-1.39201,0.56268,1.06583,-1.42648,0.72277,0.00000,0.00000,A,145653.10
1.12954,57.68817197,11.97977372,57.68817333,11.97977317,14:56:53.266167,0.00507,0.00000,0.00000,-0.10053,0.00000,-0.00054,0.00097,-0.00282,-0.05136,-0.11828,0.99247,1.12388,0.00000,0.37792,0.37792,-1.39373,0.57068,1.06583,-1.42648,0.72277,0.00000,0.00000,A,145653.10
1.14001,57.68817203,11.97977369,57.68817333,11.97977317,14:56:53.276389,0.00508,0.00000,0.00000,-0.10119,0.00000,0.00282,0.00127,-0.00053,-0.05112,-0.11505,0.99412,1.13412,0.00000,0.32123,0.32123,-1.39537,0.57829,1.06583,-1.42648,0.72277,0.00000,0.00000,A,145653.10
1.15136,57.68817210,11.97977366,57.68817333,11.97977317,14:56:53.287740,0.00530,0.00000,0.00000,-0.10193,0.00000,-0.00390,-0.00026,0.00131,-0.05167,-0.11614,0.99192,1.14538,0.00000,0.27305,0.27305,-1.39693,0.58551,1.06583,-1.42648,0.72277,0.00000,0.00000,A,145653.10
1.16154,57.68817216,11.97977364,57.68817333,11.97977317,14:56:53.298175,0.00508,0.00000,0.00000,-0.10263,0.00000,-0.00084,-0.00331,0.00039,-0.05002,-0.11627,0.99284,1.15587,0.00000,0.23209,0.23209,-1.39840,0.59237,1.06583,-1.42648,0.72277,0.00000,0.00000,A,145653.10
1.19714,57.68817222,11.97977362,57.68817267,11.97977333,14:56:53.334402,0.03028,0.00000,1.50000,-0.10327,0.02000,0.00313,0.00387,-0.00205,-0.05167,-0.11596,0.99101,1.16605,0.00000,0.19728,0.19728,-1.39981,0.59889,1.18264,-1.41657,0.64864,-1.43795,-1.43795,A,145653.20
1.21687,57.68817224,11.97977360,57.68817267,11.97977333,14:56:53.353248,0.00685,0.00000,0.00000,-0.10390,0.00000,0.00130,0.00295,-0.00144,-0.05033,-0.11736,0.99223,1.21111,0.00000,-0.04801,-0.04801,-1.40065,0.60138,1.18264,-1.41657,0.64864,-1.43795,-1.43795,A,145653.20
1.22546,57.68817226,11.97977359,57.68817267,11.97977333,14:56:53.362103,0.00515,0.00000,0.00000,-0.10459,0.00000,-0.00222,0.00112,-0.00083,-0.05045,-0.11755,0.99216,1.21978,0.00000,-0.25650,-0.25650,-1.40144,0.60374,1.18264,-1.41657,0.64864,-1.43795,-1.43795,A,145653.20
1.23581,57.68817228,11.97977358,57.68817267,11.97977333,14:56:53.372189,0.00510,0.00000,0.00000,-0.10522,0.00000,0.00084,0.00188,-0.00037,-0.04917,-0.11505,0.99155,1.22990,0.00000,-0.43372,-0.43372,-1.40220,0.60599,1.18264,-1.41657,0.64864,-1.43795,-1.43795,A,145653.20
1.24651,57.68817230,11.97977356,57.68817267,11.97977333,14:56:53.382895,0.00540,0.00000,0.00000,-0.10589,0.00000,-0.00268,0.00081,-0.00053,-0.05185,-0.11675,0.99259,1.24056,0.00000,-0.58435,-0.58435,-1.40292,0.60812,1.18264,-1.41657,0.64864,-1.43795,-1.43795,A,145653.20
1.25673,57.68817232,11.97977355,57.68817267,11.97977333,14:56:53.393108,0.00521,0.00000,0.00000,-0.10651,0.00000,0.00236,0.00433,0.00131,-0.04978,-0.11712,0.98966,1.25104,0.00000,-0.71239,-0.71239,-1.40360,0.61015,1.18264,-1.41657,0.64864,-1.43795,-1.43795,A,145653.20
1.26721,57.68817234,11.97977354,57.68817267,11.97977333,14:56:53.403591,0.00515,0.00000,0.00000,-0.10711,0.00000,0.00206,0.00219,-0.00511,-0.05124,-0.11621,0.99210,1.26128,0.00000,-0.82123,-0.82123,-1.40425,0.61207,1.18264,-1.41657,0.64864,-1.43795,-1.43795,A,145653.20
1.27751,57.68817235,11.97977353,57.68817267,11.97977333,14:56:53.414144,0.00505,0.00000,0.00000,-0.10773,0.00000,-0.00298,0.00142,0.00039,-0.04947,-0.11499,0.99332,1.27188,0.00000,-0.91374,-0.91374,-1.40487,0.61390,1.18264,-1.41657,0.64864,-1.43795,-1.43795,A,145653.20
1.31125,57.68817237,11.97977352,57.68817200,11.97977300,14:56:53.447646,0.02838,0.00000,1.50000,-0.10836,0.02000,0.00068,0.00020,0.00131,-0.04947,-0.11883,0.99357,1.28206,0.00000,-0.99237,-0.99237,-1.40545,0.61564,1.29859,-1.43638,0.57451,-1.83196,-1.83196,A,145653.30
1.32901,57.68817235,11.97977349,57.68817200,11.97977300,14:56:53.465384,0.00598,0.00000,0.00000,-0.10902,0.00000,-0.00161,0.00127,-0.00159,-0.05197,-0.11633,0.99277,1.32331,0.00000,-1.11831,-1.11831,-1.40700,0.61358,1.29859,-1.43638,0.57451,-1.83196,-1.83196,A,145653.30
1.33877,57.68817233,11.97977347,57.68817200,11.97977300,14:56:53.475151,0.00533,0.00000,0.00000,-0.10960,0.00000,-0.00054,-0.00331,-0.00007,-0.05313,-0.11621,0.99180,1.33282,0.00000,-1.22535,-1.22535,-1.40847,0.61163,1.29859,-1.43638,0.57451,-1.83196,-1.83196,A,145653.30
1.34879,57.68817232,11.97977345,57.68817200,11.97977300,14:56:53.485172,0.00496,0.00000,0.00000,-0.11021,0.00000,-0.00390,0.00433,-0.00221,-0.05130,-0.11584,0.99284,1.34312,0.00000,-1.31634,-1.31634,-1.40986,0.60977,1.29859,-1.43638,0.57451,-1.83196,-1.83196,A,145653.30
1.35945,57.68817230,11.97977342,57.68817200,11.97977300,14:56:53.495823,0.00533,0.00000,0.00000,-0.11081,0.00000,-0.00588,-0.00026,0.00131,-0.04965,-0.11505,0.99338,1.35333,0.00000,-1.39369,-1.39369,-1.41119,0.60801,1.29859,-1.43638,0.57451,-1.83196,-1.83196,A,145653.30
1.36957,57.68817229,11.97977340,57.68817200,11.97977300,14:56:53.506198,0.00506,0.00000,0.00000,-0.11137,0.00000,-0.00145,-0.00178,0.00054,-0.04996,-0.11572,0.99204,1.36393,0.00000,-1.45943,-1.45943,-1.41245,0.60633,1.29859,-1.43638,0.57451,-1.83196,-1.83196,A,145653.30
1.38086,57.68817227,11.97977338,57.68817200,11.97977300,14:56:53.517241,0.00595,0.00000,0.00000,-0.11194,0.00000,-0.00374,0.00112,0.00008,-0.05118,-0.11511,0.99253,1.37516,0.00000,-1.51531,-1.51531,-1.41365,0.60474,1.29859,-1.43638,0.57451,-1.83196,-1.83196,A,145653.30
1.39065,57.68817226,11.97977336,57.68817200,11.97977300,14:56:53.527021,0.00533,0.00000,0.00000,-0.11250,0.00000,-0.00161,0.00036,0.00146,-0.05161,-0.11669,0.99540,1.38471,0.00000,-1.56280,-1.56280,-1.41478,0.60323,1.29859,-1.43638,0.57451,-1.83196,-1.83196,A,145653.30
1.43684,57.68817225,11.97977335,57.68817033,11.97977350,14:56:53.573250,0.04112,0.00000,1.50000,-0.11300,0.02000,-0.00161,0.00005,-0.00068,-0.05106,-0.11376,0.99186,1.39512,0.00000,-1.60318,-1.60318,-1.41586,0.60179,1.42284,-1.40667,0.38918,-1.41179,-1.41179,A,145653.50
1.45472,57.68817215,11.97977335,57.68817033,11.97977350,14:56:53.591098,0.00623,0.00000,0.00000,-0.11364,0.00000,-0.00222,0.00142,0.00299,-0.05155,-0.11627,0.99186,1.44872,0.00000,-1.57447,-1.57447,-1.41540,0.59116,1.42284,-1.40667,0.38918,-1.41179,-1.41179,A,145653.50
1.46400,57.68817206,11.97977336,57.68817033,11.97977350,14:56:53.600373,0.00511,0.00000,0.00000,-0.11416,0.00000,-0.00145,0.00158,0.00131,-0.05087,-0.11560,0.99015,1.45809,0.00000,-1.55007,-1.55007,-1.41497,0.58106,1.42284,-1.40667,0.38918,-1.41179,-1.41179,A,145653.50
1.47466,57.68817197,11.97977337,57.68817033,11.97977350,14:56:53.611041,0.00537,0.00000,0.00000,-0.11470,0.00000,-0.00252,0.00142,0.00283,-0.05337,-0.11651,0.99320,1.46870,0.00000,-1.52933,-1.52933,-1.41455,0.57147,1.42284,-1.40667,0.38918,-1.41179,-1.41179,A,145653.50
1.48486,57.68817189,11.97977337,57.68817033,11.97977350,14:56:53.621238,0.00517,0.00000,0.00000,-0.11518,0.00000,-0.00038,0.00020,0.00085,-0.05094,-0.11511,0.99198,1.47920,0.00000,-1.51170,-1.51170,-1.41416,0.56235,1.42284,-1.40667,0.38918,-1.41179,-1.41179,A,145653.50
1.49523,57.68817181,11.97977338,57.68817033,11.97977350,14:56:53.631605,0.00515,0.00000,0.00000,-0.11574,0.00000,-0.00604,0.00066,0.00054,-0.04929,-0.11700,0.99143,1.48930,0.00000,-1.49671,-1.49671,-1.41378,0.55370,1.42284,-1.40667,0.38918,-1.41179,-1.41179,A,145653.50
1.50665,57.68817174,11.97977339,57.68817033,11.97977350,14:56:53.643029,0.00598,0.00000,0.00000,-0.11623,0.00000,-0.00298,0.00081,-0.00098,-0.05136,-0.11492,0.99406,1.50022,0.00000,-1.48397,-1.48397,-1.41343,0.54547,1.42284,-1.40667,0.38918,-1.41179,-1.41179,A,145653.50
1.51678,57.68817167,11.97977339,57.68817033,11.97977350,14:56:53.653159,0.00572,0.00000,0.00000,-0.11666,0.00000,0.00298,0.00173,-0.00007,-0.05057,-0.11505,0.99058,1.51110,0.00000,-1.47315,-1.47315,-1.41309,0.53766,1.42284,-1.40667,0.38918,-1.41179,-1.41179,A,145653.50
1.55151,57.68817160,11.97977340,57.68816867,11.97977450,14:56:53.687919,0.02961,0.00000,1.50000,-0.11709,0.02000,0.00023,0.00081,0.00299,-0.05124,-0.11425,0.99186,1.52112,0.00000,-1.46394,-1.46394,-1.41277,0.53023,1.53746,-1.34723,0.20386,-1.26044,-1.26044,A,145653.60
1.57181,57.68817146,11.97977345,57.68816867,11.97977450,14:56:53.708181,0.00637,0.00000,0.00000,-0.11750,0.00000,0.00175,0.00555,-0.00114,-0.05167,-0.11755,0.99204,1.56584,0.00000,-1.43342,-1.43342,-1.40949,0.51391,1.53746,-1.34723,0.20386,-1.26044,-1.26044,A,145653.60
1.58079,57.68817132,11.97977350,57.68816867,11.97977450,14:56:53.717167,0.00495,0.00000,0.00000,-0.11793,0.00000,0.00145,-0.00026,-0.00053,-0.05008,-0.11590,0.99149,1.57512,0.00000,-1.40747,-1.40747,-1.40638,0.49841,1.53746,-1.34723,0.20386,-1.26044,-1.26044,A,145653.60
1.59129,57.68817118,11.97977355,57.68816867,11.97977450,14:56:53.727670,0.00518,0.00000,0.00000,-0.11840,0.00000,-0.00130,0.00020,-0.00053,-0.05014,-0.11682,0.99223,1.58533,0.00000,-1.38542,-1.38542,-1.40342,0.48368,1.53746,-1.34723,0.20386,-1.26044,-1.26044,A,145653.60
1.60158,57.68817106,11.97977360,57.68816867,11.97977450,14:56:53.738339,0.00507,0.00000,0.00000,-0.11885,0.00000,0.00068,0.00066,-0.00159,-0.05167,-0.11718,0.99180,1.59593,0.00000,-1.36667,-1.36667,-1.40061,0.46969,1.53746,-1.34723,0.20386,-1.26044,-1.26044,A,145653.60
1.61217,57.68817094,11.97977365,57.68816867,11.97977450,14:56:53.748547,0.00526,0.00000,0.00000,-0.11929,0.00000,-0.00023,0.00097,-0.00236,-0.05167,-0.11627,0.99125,1.60611,0.00000,-1.35074,-1.35074,-1.39794,0.45640,1.53746,-1.34723,0.20386,-1.26044,-1.26044,A,145653.60
1.62326,57.68817082,11.97977369,57.68816867,11.97977450,14:56:53.759641,0.00595,0.00000,0.00000,-0.11966,0.00000,0.00236,-0.00224,-0.00037,-0.05209,-0.11389,0.99229,1.61671,0.00000,-1.33719,-1.33719,-1.39541,0.44377,1.53746,-1.34723,0.20386,-1.26044,-1.26044,A,145653.60
1.63276,57.68817072,11.97977373,57.68816867,11.97977450,14:56:53.769134,0.00504,0.00000,0.00000,-0.12004,0.00000,0.00160,0.00188,0.00054,-0.04898,-0.11486,0.99015,1.62711,0.00000,-1.32568,-1.32568,-1.39300,0.43178,1.53746,-1.34723,0.20386,-1.26044,-1.26044,A,145653.60
1.66839,57.68817061,11.97977377,57.68816917,11.97977350,14:56:53.804795,0.03020,0.00000,1.50000,-0.12043,0.02000,0.00206,0.00081,-0.00114,-0.05118,-0.11547,0.99277,1.63742,0.00000,-1.31590,-1.31590,-1.39071,0.42038,1.65390,-1.40667,0.25945,2.38956,2.38956,A,145653.70
1.68646,57.68817054,11.97977376,57.68816917,11.97977350,14:56:53.822841,0.00590,0.00000,0.00000,-0.12099,0.00000,-0.00344,-0.00041,-0.00480,-0.05124,-0.11675,0.99204,1.68049,0.00000,-0.76008,-0.76008,-1.39151,0.41233,1.65390,-1.40667,0.25945,2.38956,2.38956,A,145653.70
1.69605,57.68817047,11.97977374,57.68816917,11.97977350,14:56:53.832428,0.00509,0.00000,0.00000,-0.12137,0.00000,0.00221,-0.00026,0.00131,-0.05014,-0.11645,0.99345,1.69015,0.00000,-0.28763,-0.28763,-1.39226,0.40469,1.65390,-1.40667,0.25945,2.38956,2.38956,A,145653.70
1.70721,57.68817041,11.97977373,57.68816917,11.97977350,14:56:53.843593,0.00585,0.00000,0.00000,-0.12179,0.00000,-0.00359,-0.00148,0.00008,-0.05106,-0.11486,0.99223,1.70094,0.00000,0.11395,0.11395,-1.39298,0.39743,1.65390,-1.40667,0.25945,2.38956,2.38956,A,145653.70
1.71785,57.68817035,11.97977372,57.68816917,11.97977350,14:56:53.854252,0.00609,0.00000,0.00000,-0.12217,0.00000,-0.00176,-0.00209,0.00085,-0.05203,-0.11474,0.99186,1.71126,0.00000,0.45529,0.45529,-1.39367,0.39053,1.65390,-1.40667,0.25945,2.38956,2.38956,A,145653.70
1.72781,57.68817029,11.97977371,57.68816917,11.97977350,14:56:53.864183,0.00573,0.00000,0.00000,-0.12257,0.00000,-0.00115,-0.00362,-0.00205,-0.05094,-0.11602,0.99149,1.72189,0.00000,0.74543,0.74543,-1.39432,0.38398,1.65390,-1.40667,0.25945,2.38956,2.38956,A,145653.70
1.73864,57.68817023,11.97977370,57.68816917,11.97977350,14:56:53.875020,0.00616,0.00000,0.00000,-0.12295,0.00000,-0.00222,-0.00117,0.00054,-0.05148,-0.11517,0.99210,1.73267,0.00000,0.99205,0.99205,-1.39494,0.37775,1.65390,-1.40667,0.25945,2.38956,2.38956,A,145653.70
1.74798,57.68817018,11.97977369,57.68816917,11.97977350,14:56:53.884361,0.00509,0.00000,0.00000,-0.12336,0.00000,-0.00313,-0.00056,0.00085,-0.05246,-0.11669,0.99314,1.74208,0.00000,1.20167,1.20167,-1.39552,0.37184,1.65390,-1.40667,0.25945,2.38956,2.38956,A,145653.70
1.78355,57.68817013,11.97977368,57.68817167,11.97977067,14:56:53.919949,0.03026,0.00000,1.50000,-0.12375,0.02000,0.00130,0.00127,0.00253,-0.04892,-0.11877,0.98869,1.75270,0.00000,1.37986,1.37986,-1.39608,0.36622,1.76934,-1.57507,0.53744,2.11547,2.11547,A,145653.80
1.80212,57.68817020,11.97977353,57.68817167,11.97977067,14:56:53.938508,0.00774,0.00000,0.00000,-0.12419,0.00000,-0.00145,-0.00041,-0.00007,-0.05155,-0.11706,0.99442,1.79619,0.00000,1.49020,1.49020,-1.40503,0.37478,1.76934,-1.57507,0.53744,2.11547,2.11547,A,145653.80
1.81057,57.68817028,11.97977338,57.68817167,11.97977067,14:56:53.946952,0.00578,0.00000,0.00000,-0.12458,0.00000,-0.00405,-0.00041,-0.00114,-0.05112,-0.11651,0.98930,1.80443,0.00000,1.58399,1.58399,-1.41353,0.38291,1.76934,-1.57507,0.53744,2.11547,2.11547,A,145653.80
1.82104,57.68817035,11.97977325,57.68817167,11.97977067,14:56:53.957427,0.00586,0.00000,0.00000,-0.12488,0.00000,0.00038,-0.00438,0.00070,-0.05112,-0.11340,0.99229,1.81457,0.00000,1.66371,1.66371,-1.42161,0.39064,1.76934,-1.57507,0.53744,2.11547,2.11547,A,145653.80
1.83099,57.68817041,11.97977312,57.68817167,11.97977067,14:56:53.967368,0.00554,0.00000,0.00000,-0.12526,0.00000,-0.00619,0.00295,0.00161,-0.05289,-0.11389,0.99168,1.82501,0.00000,1.73147,1.73147,-1.42928,0.39798,1.76934,-1.57507,0.53744,2.11547,2.11547,A,145653.80
1.84153,57.68817048,11.97977300,57.68817167,11.97977067,14:56:53.978143,0.00568,0.00000,0.00000,-0.12558,0.00000,0.00130,-0.00163,-0.00297,-0.05112,-0.11590,0.99033,1.83512,0.00000,1.78907,1.78907,-1.43657,0.40495,1.76934,-1.57507,0.53744,2.11547,2.11547,A,145653.80
1.85126,57.68817053,11.97977288,57.68817167,11.97977067,14:56:53.987632,0.00515,0.00000,0.00000,-0.12594,0.00000,-0.00298,0.00051,0.00115,-0.04837,-0.11645,0.99210,1.84533,0.00000,1.83803,1.83803,-1.44350,0.41158,1.76934,-1.57507,0.53744,2.11547,2.11547,A,145653.80
1.86158,57.68817059,11.97977277,57.68817167,11.97977067,14:56:53.998196,0.00507,0.00000,0.00000,-0.12632,0.00000,-0.00359,-0.00041,-0.00053,-0.04923,-0.11657,0.98991,1.85593,0.00000,1.87965,1.87965,-1.45007,0.41787,1.76934,-1.57507,0.53744,2.11547,2.11547,A,145653.80
1.89808,57.68817065,11.97977266,57.68817100,11.97977300,14:56:54.034507,0.03117,0.00000,1.50000,-0.12657,0.02000,0.00435,0.00204,-0.00205,-0.04862,-0.11468,0.99454,1.86611,0.00000,1.91502,1.91502,-1.45632,0.42385,1.88260,-1.43638,0.46331,-0.49088,-0.49088,A,145653.90
1.91348,57.68817066,11.97977268,57.68817100,11.97977300,14:56:54.050070,0.00734,0.00000,0.00000,-0.12707,0.00000,-0.00436,-0.00178,0.00131,-0.05167,-0.11663,0.99326,1.90757,0.00000,1.55413,1.55413,-1.45533,0.42582,1.88260,-1.43638,0.46331,-0.49088,-0.49088,A,145653.90
1.92294,57.68817068,11.97977270,57.68817100,11.97977300,14:56:54.059326,0.00639,0.00000,0.00000,-0.12739,0.00000,-0.00038,0.00173,-0.00007,-0.05045,-0.11657,0.99180,1.91597,0.00000,1.24738,1.24738,-1.45438,0.42770,1.88260,-1.43638,0.46331,-0.49088,-0.49088,A,145653.90
1.93257,57.68817070,11.97977271,57.68817100,11.97977300,14:56:54.068951,0.00562,0.00000,0.00000,-0.12768,0.00000,0.00023,0.00005,-0.00114,-0.05069,-0.11547,0.99448,1.92687,0.00000,0.98664,0.98664,-1.45348,0.42948,1.88260,-1.43638,0.46331,-0.49088,-0.49088,A,145653.90
1.94279,57.68817071,11.97977273,57.68817100,11.97977300,14:56:54.079175,0.00544,0.00000,0.00000,-0.12798,0.00000,-0.00237,0.00371,0.00024,-0.05173,-0.11505,0.99375,1.93684,0.00000,0.76501,0.76501,-1.45263,0.43117,1.88260,-1.43638,0.46331,-0.49088,-0.49088,A,145653.90
1.95279,57.68817073,11.97977274,57.68817100,11.97977300,14:56:54.089166,0.00504,0.00000,0.00000,-0.12832,0.00000,-0.00374,-0.00071,-0.00251,-0.05124,-0.11663,0.99113,1.94713,0.00000,0.57663,0.57663,-1.45181,0.43278,1.88260,-1.43638,0.46331,-0.49088,-0.49088,A,145653.90
1.96342,57.68817074,11.97977275,57.68817100,11.97977300,14:56:54.099792,0.00533,0.00000,0.00000,-0.12865,0.00000,-0.00115,-0.00209,0.00024,-0.04990,-0.11736,0.98997,1.95730,0.00000,0.41650,0.41650,-1.45104,0.43430,1.88260,-1.43638,0.46331,-0.49088,-0.49088,A,145653.90
1.97355,57.68817075,11.97977277,57.68817100,11.97977300,14:56:54.110179,0.00506,0.00000,0.00000,-0.12901,0.00000,-0.00665,0.00066,-0.00236,-0.05020,-0.11657,0.99094,1.96790,0.00000,0.28040,0.28040,-1.45031,0.43575,1.88260,-1.43638,0.46331,-0.49088,-0.49088,A,145653.90
2.00850,57.68817076,11.97977278,57.68817017,11.97977450,14:56:54.144904,0.02961,0.00000,1.50000,-0.12929,0.02000,0.00023,0.00051,-0.00221,-0.05173,-0.11663,0.99363,1.97806,0.00000,0.16471,0.16471,-1.44961,0.43713,1.99434,-1.34723,0.37065,-0.80469,-0.80469,A,145654.00
2.02953,57.68817073,11.97977286,57.68817017,11.97977450,14:56:54.166388,0.00851,0.00000,0.00000,-0.12956,0.00000,-0.00069,-0.00056,-0.00404,-0.05209,-0.11395,0.99564,2.02177,0.00000,0.01930,0.01930,-1.44449,0.43381,1.99434,-1.34723,0.37065,-0.80469,-0.80469,A,145654.00
2.03845,57.68817071,11.97977295,57.68817017,11.97977450,14:56:54.174821,0.00700,0.00000,0.00000,-0.12977,0.00000,0.00435,0.00005,-0.00037,-0.04959,-0.11560,0.99448,2.03247,0.00000,-0.10430,-0.10430,-1.43963,0.43065,1.99434,-1.34723,0.37065,-0.80469,-0.80469,A,145654.00
2.04716,57.68817068,11.97977302,57.68817017,11.97977450,14:56:54.183537,0.00518,0.00000,0.00000,-0.13002,0.00000,-0.00084,0.00173,0.00222,-0.05081,-0.11389,0.99235,2.04120,0.00000,-0.20936,-0.20936,-1.43501,0.42765,1.99434,-1.34723,0.37065,-0.80469,-0.80469,A,145654.00
2.05745,57.68817065,11.97977310,57.68817017,11.97977450,14:56:54.194059,0.00507,0.00000,0.00000,-0.13030,0.00000,-0.00359,0.00036,0.00085,-0.05337,-0.11505,0.99223,2.05180,0.00000,-0.29866,-0.29866,-1.43062,0.42480,1.99434,-1.34723,0.37065,-0.80469,-0.80469,A,145654.00
2.06809,57.68817063,11.97977317,57.68817017,11.97977450,14:56:54.204474,0.00531,0.00000,0.00000,-0.13055,0.00000,-0.00038,0.00204,-0.00221,-0.05264,-0.11523,0.99265,2.06196,0.00000,-0.37456,-0.37456,-1.42645,0.42209,1.99434,-1.34723,0.37065,-0.80469,-0.80469,A,145654.00
2.07933,57.68817061,11.97977323,57.68817017,11.97977450,14:56:54.215709,0.00615,0.00000,0.00000,-0.13079,0.00000,0.00099,0.00081,-0.00037,-0.05014,-0.11541,0.99082,2.07333,0.00000,-0.43908,-0.43908,-1.42249,0.41952,1.99434,-1.34723,0.37065,-0.80469,-0.80469,A,145654.00
2.08863,57.68817058,11.97977330,57.68817017,11.97977450,14:56:54.225011,0.00505,0.00000,0.00000,-0.13105,0.00000,0.00007,-0.00026,-0.00190,-0.05075,-0.11675,0.99131,2.08296,0.00000,-0.49392,-0.49392,-1.41873,0.41708,1.99434,-1.34723,0.37065,-0.80469,-0.80469,A,145654.00
2.13360,57.68817056,11.97977336,57.68817067,11.97977383,14:56:54.270206,0.03952,0.00000,1.50000,-0.13133,0.02000,-0.00374,-0.00407,0.00329,-0.05246,-0.11547,0.99271,2.09330,0.00000,-0.54054,-0.54054,-1.41515,0.41475,2.12002,-1.38685,0.42625,2.19000,2.19000,A,145654.20
2.15505,57.68817057,11.97977338,57.68817067,11.97977383,14:56:54.291435,0.00806,0.00000,0.00000,-0.13161,0.00000,-0.00054,-0.00087,-0.00068,-0.05215,-0.11633,0.99033,2.14905,0.00000,-0.13096,-0.13096,-1.41374,0.41533,2.12002,-1.38685,0.42625,2.19000,2.19000,A,145654.20
2.16273,57.68817057,11.97977340,57.68817067,11.97977383,14:56:54.299104,0.00534,0.00000,0.00000,-0.13188,0.00000,-0.00145,0.00097,-0.00159,-0.05252,-0.11736,0.99192,2.15678,0.00000,0.21719,0.21719,-1.41239,0.41588,2.12002,-1.38685,0.42625,2.19000,2.19000,A,145654.20
2.17280,57.68817058,11.97977343,57.68817067,11.97977383,14:56:54.309177,0.00501,0.00000,0.00000,-0.13214,0.00000,-0.00161,-0.00041,-0.00053,-0.05368,-0.11645,0.99186,2.16713,0.00000,0.51311,0.51311,-1.41112,0.41639,2.12002,-1.38685,0.42625,2.19000,2.19000,A,145654.20
2.18333,57.68817058,11.97977345,57.68817067,11.97977383,14:56:54.319711,0.00519,0.00000,0.00000,-0.13240,0.00000,0.00007,-0.00392,-0.00205,-0.05173,-0.11804,0.99180,2.17737,0.00000,0.76464,0.76464,-1.40990,0.41689,2.12002,-1.38685,0.42625,2.19000,2.19000,A,145654.20
2.19393,57.68817059,11.97977346,57.68817067,11.97977383,14:56:54.330316,0.00538,0.00000,0.00000,-0.13265,0.00000,0.00114,-0.00194,0.00131,-0.05039,-0.11797,0.99082,2.18796,0.00000,0.97844,0.97844,-1.40875,0.41735,2.12002,-1.38685,0.42625,2.19000,2.19000,A,145654.20
2.20425,57.68817059,11.97977348,57.68817067,11.97977383,14:56:54.340634,0.00531,0.00000,0.00000,-0.13287,0.00000,-0.00069,0.00066,0.00024,-0.05008,-0.11584,0.99479,2.19813,0.00000,1.16018,1.16018,-1.40766,0.41780,2.12002,-1.38685,0.42625,2.19000,2.19000,A,145654.20
2.21488,57.68817059,11.97977350,57.68817067,11.97977383,14:56:54.351259,0.00553,0.00000,0.00000,-0.13314,0.00000,-0.00359,0.00097,-0.00175,-0.05203,-0.11688,0.99088,2.20890,0.00000,1.31465,1.31465,-1.40662,0.41822,2.12002,-1.38685,0.42625,2.19000,2.19000,A,145654.20
2.25233,57.68817060,11.97977352,57.68816933,11.97977317,14:56:54.388750,0.03259,0.00000,1.50000,-0.13337,0.02000,-0.00222,0.00036,-0.00098,-0.05185,-0.11517,0.99247,2.21912,0.00000,1.44595,1.44595,-1.40563,0.41862,2.23642,-1.42648,0.27799,4.45123,-1.83196,A,145654.30
2.27040,57.68817053,11.97977350,57.68816933,11.97977317,14:56:54.406778,0.00683,0.00000,0.00000,-0.13354,0.00000,0.00145,0.00036,-0.00190,-0.05283,-0.11749,0.99186,2.26440,0.00000,1.89674,1.89674,-1.40667,0.41159,2.23642,-1.42648,0.27799,4.45123,-1.83196,A,145654.30
2.27950,57.68817047,11.97977348,57.68816933,11.97977317,14:56:54.415872,0.00543,0.00000,0.00000,-0.13374,0.00000,0.00236,-0.00010,0.00008,-0.05252,-0.11651,0.99223,2.27328,0.00000,2.27992,2.27992,-1.40766,0.40491,2.23642,-1.42648,0.27799,4.45123,-1.83196,A,145654.30
2.28955,57.68817042,11.97977347,57.68816933,11.97977317,14:56:54.426187,0.00507,0.00000,0.00000,-0.13394,0.00000,0.00130,0.00463,-0.00557,-0.05094,-0.11657,0.98966,2.28389,0.00000,2.60561,2.60561,-1.40860,0.39856,2.23642,-1.42648,0.27799,4.45123,-1.83196,A,145654.30
2.30022,57.68817036,11.97977345,57.68816933,11.97977317,14:56:54.436590,0.00534,0.00000,0.00000,-0.13417,0.00000,0.00053,0.00005,0.00054,-0.05020,-0.11797,0.99162,2.29418,0.00000,2.88246,2.88246,-1.40950,0.39254,2.23642,-1.42648,0.27799,4.45123,-1.83196,A,145654.30
2.31076,57.68817031,11.97977344,57.68816933,11.97977317,14:56:54.447134,0.00564,0.00000,0.00000,-0.13442,0.00000,-0.00405,0.00066,-0.00404,-0.05087,-0.11651,0.99229,2.30477,0.00000,3.11777,3.11777,-1.41035,0.38681,2.23642,-1.42648,0.27799,4.45123,-1.83196,A,145654.30
2.32058,57.68817026,11.97977342,57.68816933,11.97977317,14:56:54.456953,0.00506,0.00000,0.00000,-0.13465,0.00000,-0.00206,-0.00102,-0.00159,-0.04935,-0.11688,0.99345,2.31491,0.00000,3.31779,3.31779,-1.41115,0.38137,2.23642,-1.42648,0.27799,4.45123,-1.83196,A,145654.30
2.33204,57.68817022,11.97977341,57.68816933,11.97977317,14:56:54.468431,0.00598,0.00000,0.00000,-0.13488,0.00000,-0.00252,-0.00148,0.00222,-0.05161,-0.11700,0.99204,2.32527,0.00000,3.48781,3.48781,-1.41192,0.37620,2.23642,-1.42648,0.27799,4.45123,-1.83196,A,145654.30
2.36783,57.68817017,11.97977340,57.68816983,11.97977217,14:56:54.505259,0.03137,0.00000,1.50000,-0.13511,0.02000,-0.00344,0.00158,0.00268,-0.04898,-0.11584,0.99332,2.33643,0.00000,3.63232,3.63232,-1.41265,0.37129,2.35268,-1.48592,0.33358,2.38956,2.38956,A,145654.40
2.38692,57.68817016,11.97977334,57.68816983,11.97977217,14:56:54.523302,0.00595,0.00000,0.00000,-0.13541,0.00000,-0.00252,0.00036,-0.00236,-0.05215,-0.11663,0.99223,2.38091,0.00000,3.44591,3.44591,-1.41631,0.36940,2.35268,-1.48592,0.33358,2.38956,2.38956,A,145654.40
2.39644,57.68817014,11.97977328,57.68816983,11.97977217,14:56:54.532815,0.00507,0.00000,0.00000,-0.13563,0.00000,-0.00038,-0.00102,-0.00312,-0.04904,-0.11804,0.99253,2.39078,0.00000,3.28745,3.28745,-1.41979,0.36761,2.35268,-1.48592,0.33358,2.38956,2.38956,A,145654.40
2.40731,57.68817012,11.97977322,57.68816983,11.97977217,14:56:54.543678,0.00537,0.00000,0.00000,-0.13583,0.00000,-0.00237,-0.00026,-0.00083,-0.05173,-0.11547,0.99137,2.40132,0.00000,3.15277,3.15277,-1.42310,0.36591,2.35268,-1.48592,0.33358,2.38956,2.38956,A,145654.40
2.41741,57.68817011,11.97977317,57.68816983,11.97977217,14:56:54.553790,0.00508,0.00000,0.00000,-0.13597,0.00000,0.00511,0.00005,0.00131,-0.05100,-0.11724,0.99198,2.41175,0.00000,3.03829,3.03829,-1.42624,0.36429,2.35268,-1.48592,0.33358,2.38956,2.38956,A,145654.40
2.42869,57.68817010,11.97977312,57.68816983,11.97977217,14:56:54.565083,0.00596,0.00000,0.00000,-0.13616,0.00000,-0.00054,-0.00087,0.00024,-0.05148,-0.11694,0.99424,2.42192,0.00000,2.94098,2.94098,-1.42922,0.36276,2.35268,-1.48592,0.33358,2.38956,2.38956,A,145654.40
2.43899,57.68817008,11.97977307,57.68816983,11.97977217,14:56:54.575368,0.00559,0.00000,0.00000,-0.13637,0.00000,-0.00252,0.00158,-0.00037,-0.05087,-0.11663,0.99076,2.43300,0.00000,2.85826,2.85826,-1.43206,0.36130,2.35268,-1.48592,0.33358,2.38956,2.38956,A,145654.40
2.44920,57.68817007,11.97977303,57.68816983,11.97977217,14:56:54.585580,0.00510,0.00000,0.00000,-0.13653,0.00000,-0.00130,0.00066,0.00008,-0.05197,-0.11517,0.99363,2.44352,0.00000,2.78796,2.78796,-1.43475,0.35991,2.35268,-1.48592,0.33358,2.38956,2.38956,A,145654.40
2.48475,57.68817006,11.97977298,57.68816900,11.97977267,14:56:54.621413,0.03042,0.00000,1.50000,-0.13665,0.02000,0.00282,-0.00148,-0.00312,-0.05185,-0.11450,0.99180,2.45357,0.00000,2.72820,2.72820,-1.43731,0.35860,2.46992,-1.45620,0.24092,5.02274,-1.26044,A,145654.50
2.50294,57.68817001,11.97977297,57.68816900,11.97977267,14:56:54.639316,0.00584,0.00000,0.00000,-0.13687,0.00000,-0.00100,-0.00010,-0.00175,-0.04825,-0.11779,0.99564,2.49692,0.00000,3.07238,3.07238,-1.43825,0.35271,2.46992,-1.45620,0.24092,5.02274,-1.26044,A,145654.50
2.51294,57.68816996,11.97977295,57.68816900,11.97977267,14:56:54.649314,0.00543,0.00000,0.00000,-0.13705,0.00000,0.00221,0.00081,-0.00266,-0.05033,-0.11828,0.98930,2.50725,0.00000,3.36493,3.36493,-1.43915,0.34712,2.46992,-1.45620,0.24092,5.02274,-1.26044,A,145654.50
2.52328,57.68816991,11.97977294,57.68816900,11.97977267,14:56:54.659663,0.00523,0.00000,0.00000,-0.13724,0.00000,-0.00252,-0.00239,0.00100,-0.04990,-0.11602,0.98930,2.51726,0.00000,3.61360,3.61360,-1.44000,0.34181,2.46992,-1.45620,0.24092,5.02274,-1.26044,A,145654.50
2.53353,57.68816986,11.97977293,57.68816900,11.97977267,14:56:54.670308,0.00508,0.00000,0.00000,-0.13741,0.00000,-0.00100,0.00051,-0.00022,-0.05301,-0.11688,0.99338,2.52787,0.00000,3.82498,3.82498,-1.44081,0.33677,2.46992,-1.45620,0.24092,5.02274,-1.26044,A,145654.50
2.54465,57.68816982,11.97977291,57.68816900,11.97977267,14:56:54.681027,0.00580,0.00000,0.00000,-0.13758,0.00000,-0.00283,0.00142,-0.00022,-0.05026,-0.11511,0.99418,2.53804,0.00000,4.00464,4.00464,-1.44158,0.33198,2.46992,-1.45620,0.24092,5.02274,-1.26044,A,145654.50
2.55537,57.68816978,11.97977290,57.68816900,11.97977267,14:56:54.691745,0.00611,0.00000,0.00000,-0.13771,0.00000,-0.00054,-0.00132,-0.00205,-0.04917,-0.11456,0.99198,2.54934,0.00000,4.15736,4.15736,-1.44231,0.32742,2.46992,-1.45620,0.24092,5.02274,-1.26044,A,145654.50
2.56473,57.68816974,11.97977289,57.68816900,11.97977267,14:56:54.701107,0.00507,0.00000,0.00000,-0.13788,0.00000,-0.00176,-0.00010,0.00238,-0.05264,-0.11608,0.99198,2.55904,0.00000,4.28716,4.28716,-1.44301,0.32310,2.46992,-1.45620,0.24092,5.02274,-1.26044,A,145654.50
2.60127,57.68816970,11.97977288,57.68816900,11.97977350,14:56:54.737672,0.03119,0.00000,1.50000,-0.13798,0.02000,0.00298,-0.00224,-0.00114,-0.05222,-0.11511,0.98991,2.56930,0.00000,4.39750,4.39750,-1.44367,0.31899,2.58596,-1.40667,0.24092,6.28319,0.00000,A,145654.60
2.62058,57.68816967,11.97977291,57.68816900,11.97977350,14:56:54.756956,0.00673,0.00000,0.00000,-0.13803,0.00000,0.00206,0.00280,0.00039,-0.05276,-0.11566,0.99314,2.61484,0.00000,4.68035,4.68035,-1.44182,0.31509,2.58596,-1.40667,0.24092,6.28319,0.00000,A,145654.60
2.62935,57.68816963,11.97977294,57.68816900,11.97977350,14:56:54.765730,0.00511,0.00000,0.00000,-0.13820,0.00000,-0.00512,0.00005,0.00161,-0.05124,-0.11474,0.99058,2.62368,0.00000,4.92078,4.92078,-1.44006,0.31138,2.58596,-1.40667,0.24092,6.28319,0.00000,A,145654.60
2.64051,57.68816960,11.97977297,57.68816900,11.97977350,14:56:54.776884,0.00587,0.00000,0.00000,-0.13840,0.00000,-0.00436,-0.00362,0.00100,-0.05307,-0.11712,0.99223,2.63384,0.00000,5.12514,5.12514,-1.43839,0.30786,2.58596,-1.40667,0.24092,6.28319,0.00000,A,145654.60
2.65245,57.68816957,11.97977299,57.68816900,11.97977350,14:56:54.788830,0.00644,0.00000,0.00000,-0.13863,0.00000,-0.00542,0.00036,0.00115,-0.04953,-0.11797,0.99424,2.64611,0.00000,5.29885,5.29885,-1.43680,0.30451,2.58596,-1.40667,0.24092,6.28319,0.00000,A,145654.60
2.66149,57.68816954,11.97977302,57.68816900,11.97977350,14:56:54.798132,0.00508,0.00000,0.00000,-0.13877,0.00000,0.00298,0.00173,-0.00175,-0.05002,-0.11840,0.98972,2.65583,0.00000,5.44650,5.44650,-1.43530,0.30133,2.58596,-1.40667,0.24092,6.28319,0.00000,A,145654.60
2.67276,57.68816952,11.97977304,57.68816900,11.97977350,14:56:54.809135,0.00594,0.00000,0.00000,-0.13891,0.00000,-0.00023,0.00036,0.00070,-0.04996,-0.11633,0.99198,2.66601,0.00000,5.57200,5.57200,-1.43386,0.29831,2.58596,-1.40667,0.24092,6.28319,0.00000,A,145654.60
2.68277,57.68816949,11.97977307,57.68816900,11.97977350,14:56:54.819143,0.00533,0.00000,0.00000,-0.13906,0.00000,-0.00145,-0.00071,0.00085,-0.04953,-0.11657,0.99491,2.67683,0.00000,5.67868,5.67868,-1.43250,0.29544,2.58596,-1.40667,0.24092,6.28319,0.00000,A,145654.60
2.73136,57.68816947,11.97977309,57.68816883,11.97977917,14:56:54.867775,0.04352,0.00000,1.50000,-0.13923,0.02000,-0.00481,-0.00270,-0.00129,-0.05045,-0.11566,0.99033,2.68712,0.00000,5.76935,5.76935,-1.43121,0.29271,2.71445,-1.06986,0.22239,6.22822,-0.05497,A,145654.80
2.74952,57.68816943,11.97977339,57.68816883,11.97977917,14:56:54.886144,0.00672,0.00000,0.00000,-0.13940,0.00000,-0.00054,0.00081,0.00131,-0.05228,-0.11639,0.99137,2.74381,0.00000,5.83818,5.83818,-1.41314,0.28920,2.71445,-1.06986,0.22239,6.22822,-0.05497,A,145654.80
2.75866,57.68816940,11.97977368,57.68816883,11.97977917,14:56:54.895035,0.00560,0.00000,0.00000,-0.13949,0.00000,0.00298,-0.00102,-0.00114,-0.04965,-0.11578,0.99277,2.75266,0.00000,5.89669,5.89669,-1.39598,0.28586,2.71445,-1.06986,0.22239,6.22822,-0.05497,A,145654.80
2.76851,57.68816938,11.97977395,57.68816883,11.97977917,14:56:54.904883,0.00505,0.00000,0.00000,-0.13967,0.00000,-0.00527,0.00402,-0.00190,-0.05033,-0.11675,0.99204,2.76285,0.00000,5.94642,5.94642,-1.37967,0.28268,2.71445,-1.06986,0.22239,6.22822,-0.05497,A,145654.80
2.77950,57.68816935,11.97977421,57.68816883,11.97977917,14:56:54.915887,0.00550,0.00000,0.00000,-0.13979,0.00000,-0.00252,0.00127,0.00115,-0.04917,-0.11462,0.99589,2.77322,0.00000,5.98869,5.98869,-1.36418,0.27967,2.71445,-1.06986,0.22239,6.22822,-0.05497,A,145654.80
2.78949,57.68816932,11.97977446,57.68816883,11.97977917,14:56:54.926112,0.00508,0.00000,0.00000,-0.13992,0.00000,-0.00191,-0.00163,0.00008,-0.05026,-0.11529,0.99174,2.78381,0.00000,6.02462,6.02462,-1.34947,0.27681,2.71445,-1.06986,0.22239,6.22822,-0.05497,A,145654.80
2.80067,57.68816930,11.97977470,57.68816883,11.97977917,14:56:54.937044,0.00587,0.00000,0.00000,-0.14003,0.00000,0.00038,0.00127,0.00008,-0.05209,-0.11614,0.99119,2.79497,0.00000,6.05516,6.05516,-1.33549,0.27408,2.71445,-1.06986,0.22239,6.22822,-0.05497,A,145654.80
2.81111,57.68816927,11.97977492,57.68816883,11.97977917,14:56:54.947489,0.00586,0.00000,0.00000,-0.14018,0.00000,-0.00329,-0.00026,0.00085,-0.05094,-0.11657,0.99143,2.80472,0.00000,6.08112,6.08112,-1.32221,0.27150,2.71445,-1.06986,0.22239,6.22822,-0.05497,A,145654.80
2.84726,57.68816925,11.97977513,57.68816967,11.97978317,14:56:54.983677,0.03160,0.00000,1.50000,-0.14029,0.02000,-0.00023,0.00066,0.00085,-0.05148,-0.11596,0.99375,2.81503,0.00000,6.10318,6.10318,-1.30959,0.26904,2.83114,-0.83211,0.31505,6.65483,0.37164,A,145654.90
2.86618,57.68816927,11.97977554,57.68816967,11.97978317,14:56:55.002553,0.00692,0.00000,0.00000,-0.14036,0.00000,0.00099,-0.00255,-0.00068,-0.05081,-0.11590,0.99137,2.86021,0.00000,6.18593,6.18593,-1.28571,0.27134,2.83114,-0.83211,0.31505,6.65483,0.37164,A,145654.90
2.87502,57.68816929,11.97977592,57.68816967,11.97978317,14:56:55.011401,0.00519,0.00000,0.00000,-0.14048,0.00000,-0.00069,0.00112,-0.00312,-0.04819,-0.11627,0.99131,2.86905,0.00000,6.25626,6.25626,-1.26303,0.27353,2.83114,-0.83211,0.31505,6.65483,0.37164,A,145654.90
2.88531,57.68816931,11.97977628,57.68816967,11.97978317,14:56:55.022315,0.00508,0.00000,0.00000,-0.14054,0.00000,0.00359,0.00173,-0.00450,-0.05033,-0.11584,0.99259,2.87965,0.00000,6.31605,6.31605,-1.24149,0.27561,2.83114,-0.83211,0.31505,6.65483,0.37164,A,145654.90
2.89576,57.68816933,11.97977662,57.68816967,11.97978317,14:56:55.032138,0.00530,0.00000,0.00000,-0.14067,0.00000,0.00053,0.00081,-0.00083,-0.05033,-0.11767,0.99296,2.88970,0.00000,6.36686,6.36686,-1.22102,0.27758,2.83114,-0.83211,0.31505,6.65483,0.37164,A,145654.90
2.90717,57.68816935,11.97977695,57.68816967,11.97978317,14:56:55.043546,0.00631,0.00000,0.00000,-0.14075,0.00000,0.00145,0.00158,-0.00022,-0.05039,-0.11547,0.99033,2.90028,0.00000,6.41006,6.41006,-1.20157,0.27945,2.83114,-0.83211,0.31505,6.65483,0.37164,A,145654.90
2.91682,57.68816936,11.97977726,57.68816967,11.97978317,14:56:55.053191,0.00515,0.00000,0.00000,-0.14081,0.00000,0.00252,0.00555,-0.00129,-0.05069,-0.11505,0.99015,2.91112,0.00000,6.44677,6.44677,-1.18310,0.28123,2.83114,-0.83211,0.31505,6.65483,0.37164,A,145654.90
2.92771,57.68816938,11.97977756,57.68816967,11.97978317,14:56:55.064087,0.00559,0.00000,0.00000,-0.14085,0.00000,0.00450,0.00112,-0.00312,-0.05094,-0.11492,0.99369,2.92171,0.00000,6.47798,6.47798,-1.16555,0.28292,2.83114,-0.83211,0.31505,6.65483,0.37164,A,145654.90
2.96384,57.68816939,11.97977784,57.68817083,11.97978750,14:56:55.100757,0.03131,0.00000,1.50000,-0.14094,0.02000,-0.00038,-0.00071,-0.00266,-0.05118,-0.11511,0.99088,2.93195,0.00000,6.50451,6.50451,-1.14888,0.28453,2.94885,-0.57455,0.44478,6.74977,0.46659,A,145655.00
2.98240,57.68816946,11.97977832,57.68817083,11.97978750,14:56:55.118783,0.00725,0.00000,0.00000,-0.14096,0.00000,0.00175,-0.00255,0.00054,-0.05155,-0.11602,0.99192,2.97640,0.00000,6.54130,6.54130,-1.12016,0.29254,2.94885,-0.57455,0.44478,6.74977,0.46659,A,145655.00
2.99093,57.68816953,11.97977878,57.68817083,11.97978750,14:56:55.127306,0.00538,0.00000,0.00000,-0.14106,0.00000,0.00175,-0.00163,-0.00098,-0.05124,-0.11688,0.99162,2.98493,0.00000,6.57257,6.57257,-1.09288,0.30015,2.94885,-0.57455,0.44478,6.74977,0.46659,A,145655.00
3.00111,57.68816960,11.97977922,57.68817083,11.97978750,14:56:55.137487,0.00510,0.00000,0.00000,-0.14115,0.00000,0.00374,0.00036,-0.00083,-0.05313,-0.11773,0.99204,2.99544,0.00000,6.59915,6.59915,-1.06697,0.30739,2.94885,-0.57455,0.44478,6.74977,0.46659,A,145655.00
3.01188,57.68816966,11.97977963,57.68817083,11.97978750,14:56:55.148258,0.00563,0.00000,0.00000,-0.14122,0.00000,-0.00084,-0.00102,0.00268,-0.05008,-0.11401,0.99229,3.00548,0.00000,6.62174,6.62174,-1.04235,0.31426,2.94885,-0.57455,0.44478,6.74977,0.46659,A,145655.00
3.02267,57.68816972,11.97978002,57.68817083,11.97978750,14:56:55.159051,0.00576,0.00000,0.00000,-0.14127,0.00000,0.00450,-0.00255,0.00070,-0.05063,-0.11614,0.99113,3.01655,0.00000,6.64095,6.64095,-1.01896,0.32078,2.94885,-0.57455,0.44478,6.74977,0.46659,A,145655.00
3.03241,57.68816977,11.97978040,57.68817083,11.97978750,14:56:55.168780,0.00509,0.00000,0.00000,-0.14140,0.00000,-0.00283,-0.00392,-0.00053,-0.05203,-0.11688,0.99491,3.02672,0.00000,6.65727,6.65727,-0.99674,0.32698,2.94885,-0.57455,0.44478,6.74977,0.46659,A,145655.00
3.04309,57.68816983,11.97978075,57.68817083,11.97978750,14:56:55.179466,0.00518,0.00000,0.00000,-0.14151,0.00000,0.00160,0.00005,-0.00098,-0.05240,-0.11816,0.99338,3.03711,0.00000,6.67115,6.67115,-0.97563,0.33287,2.94885,-0.57455,0.44478,6.74977,0.46659,A,145655.00
3.07946,57.68816988,11.97978109,57.68817017,11.97979000,14:56:55.216211,0.03116,0.00000,1.50000,-0.14161,0.02000,-0.00054,0.00081,-0.00266,-0.05258,-0.11688,0.99326,3.04772,0.00000,6.68294,6.68294,-0.95557,0.33847,3.06391,-0.42596,0.37065,5.82043,-0.46275,A,145655.10
3.09741,57.68816989,11.97978154,57.68817017,11.97979000,14:56:55.233783,0.00741,0.00000,0.00000,-0.14180,0.00000,-0.00206,0.00112,0.00207,-0.05130,-0.11639,0.99253,3.09169,0.00000,6.55356,6.55356,-0.92909,0.34008,3.06391,-0.42596,0.37065,5.82043,-0.46275,A,145655.10
3.10594,57.68816991,11.97978196,57.68817017,11.97979000,14:56:55.242322,0.00553,0.00000,0.00000,-0.14189,0.00000,-0.00100,-0.00026,0.00100,-0.04734,-0.11614,0.99393,3.09981,0.00000,6.44359,6.44359,-0.90394,0.34160,3.06391,-0.42596,0.37065,5.82043,-0.46275,A,145655.10
3.11591,57.68816992,11.97978236,57.68817017,11.97979000,14:56:55.252279,0.00517,0.00000,0.00000,-0.14199,0.00000,-0.00100,-0.00148,-0.00221,-0.05222,-0.11621,0.99223,3.11001,0.00000,6.35012,6.35012,-0.88004,0.34306,3.06391,-0.42596,0.37065,5.82043,-0.46275,A,145655.10
3.12691,57.68816993,11.97978274,57.68817017,11.97979000,14:56:55.263284,0.00558,0.00000,0.00000,-0.14204,0.00000,0.00068,0.00204,-0.00404,-0.04984,-0.11444,0.99308,3.12076,0.00000,6.27067,6.27067,-0.85733,0.34444,3.06391,-0.42596,0.37065,5.82043,-0.46275,A,145655.10
3.13678,57.68816994,11.97978311,57.68817017,11.97979000,14:56:55.273155,0.00505,0.00000,0.00000,-0.14213,0.00000,-0.00252,-0.00087,-0.00129,-0.04929,-0.11517,0.99247,3.13111,0.00000,6.20313,6.20313,-0.83577,0.34575,3.06391,-0.42596,0.37065,5.82043,-0.46275,A,145655.10
3.14831,57.68816995,11.97978345,57.68817017,11.97979000,14:56:55.284695,0.00610,0.00000,0.00000,-0.14221,0.00000,-0.00008,-0.00026,0.00176,-0.04996,-0.11566,0.99168,3.14145,0.00000,6.14573,6.14573,-0.81528,0.34699,3.06391,-0.42596,0.37065,5.82043,-0.46275,A,145655.10
3.15858,57.68816996,11.97978378,57.68817017,11.97979000,14:56:55.294971,0.00598,0.00000,0.00000,-0.14228,0.00000,-0.00054,-0.00346,0.00314,-0.04984,-0.11499,0.99235,3.15200,0.00000,6.09693,6.09693,-0.79581,0.34818,3.06391,-0.42596,0.37065,5.82043,-0.46275,A,145655.10
3.19380,57.68816997,11.97978409,57.68817100,11.97979100,14:56:55.330210,0.03079,0.00000,1.50000,-0.14229,0.02000,0.00343,-0.00132,0.00253,-0.05069,-0.11364,0.99174,3.16219,0.00000,6.05546,6.05546,-0.77732,0.34930,3.17847,-0.36653,0.46331,7.28365,1.00047,A,145655.20
3.21352,57.68817003,11.97978443,57.68817100,11.97979100,14:56:55.350158,0.00625,0.00000,0.00000,-0.14243,0.00000,-0.00084,0.00142,0.00192,-0.05130,-0.11700,0.99119,3.20778,0.00000,6.23969,6.23969,-0.75678,0.35500,3.17847,-0.36653,0.46331,7.28365,1.00047,A,145655.20
3.22310,57.68817007,11.97978476,57.68817100,11.97979100,14:56:55.359480,0.00520,0.00000,0.00000,-0.14247,0.00000,0.00282,0.00036,-0.00159,-0.04953,-0.11560,0.99235,3.21712,0.00000,6.39628,6.39628,-0.73726,0.36042,3.17847,-0.36653,0.46331,7.28365,1.00047,A,145655.20
3.23340,57.68817012,11.97978507,57.68817100,11.97979100,14:56:55.369770,0.00509,0.00000,0.00000,-0.14257,0.00000,-0.00268,-0.00239,0.00222,-0.05100,-0.11553,0.99082,3.22773,0.00000,6.52939,6.52939,-0.71873,0.36556,3.17847,-0.36653,0.46331,7.28365,1.00047,A,145655.20
3.24398,57.68817016,11.97978537,57.68817100,11.97979100,14:56:55.380356,0.00528,0.00000,0.00000,-0.14263,0.00000,0.00313,-0.00209,0.00176,-0.04941,-0.11682,0.99113,3.23788,0.00000,6.64253,6.64253,-0.70112,0.37045,3.17847,-0.36653,0.46331,7.28365,1.00047,A,145655.20
3.25597,57.68817021,11.97978565,57.68817100,11.97979100,14:56:55.392353,0.00686,0.00000,0.00000,-0.14266,0.00000,0.00343,-0.00102,-0.00114,-0.05136,-0.11560,0.99216,3.24855,0.00000,6.73870,6.73870,-0.68439,0.37509,3.17847,-0.36653,0.46331,7.28365,1.00047,A,145655.20
3.26483,57.68817025,11.97978592,57.68817100,11.97979100,14:56:55.401207,0.00524,0.00000,0.00000,-0.14267,0.00000,0.00328,0.00005,-0.00083,-0.05014,-0.11419,0.98991,3.25914,0.00000,6.82044,6.82044,-0.66850,0.37950,3.17847,-0.36653,0.46331,7.28365,1.00047,A,145655.20
3.27526,57.68817028,11.97978617,57.68817100,11.97979100,14:56:55.411637,0.00519,0.00000,0.00000,-0.14272,0.00000,0.00175,0.00051,-0.00022,-0.05081,-0.11553,0.99192,3.26930,0.00000,6.88992,6.88992,-0.65340,0.38369,3.17847,-0.36653,0.46331,7.28365,1.00047,A,145655.20
3.31306,57.68817032,11.97978641,57.68817133,11.97979050,14:56:55.449465,0.03258,0.00000,1.50000,-0.14279,0.02000,-0.00054,-0.00071,-0.00098,-0.05252,-0.11541,0.99247,3.27990,0.00000,6.94898,6.94898,-0.63905,0.38767,3.29636,-0.39624,0.50038,8.52981,2.24663,A,145655.30
3.33183,57.68817037,11.97978662,57.68817133,11.97979050,14:56:55.468202,0.00691,0.00000,0.00000,-0.14293,0.00000,-0.00161,0.00127,-0.00205,-0.05075,-0.11572,0.99235,3.32584,0.00000,7.18611,7.18611,-0.62691,0.39331,3.29636,-0.39624,0.50038,8.52981,2.24663,A,145655.30
3.34041,57.68817042,11.97978681,57.68817133,11.97979050,14:56:55.476778,0.00509,0.00000,0.00000,-0.14299,0.00000,-0.00206,0.00005,-0.00144,-0.05039,-0.11425,0.99088,3.33472,0.00000,7.38766,7.38766,-0.61538,0.39866,3.29636,-0.39624,0.50038,8.52981,2.24663,A,145655.30
3.35113,57.68817046,11.97978700,57.68817133,11.97979050,14:56:55.487508,0.00518,0.00000,0.00000,-0.14306,0.00000,0.00114,0.00127,-0.00037,-0.05429,-0.11651,0.99107,3.34518,0.00000,7.55898,7.55898,-0.60442,0.40375,3.29636,-0.39624,0.50038,8.52981,2.24663,A,145655.30
3.36230,57.68817051,11.97978717,57.68817133,11.97979050,14:56:55.498703,0.00605,0.00000,0.00000,-0.14313,0.00000,0.00023,-0.00194,-0.00098,-0.04941,-0.11694,0.99430,3.35573,0.00000,7.70461,7.70461,-0.59401,0.40858,3.29636,-0.39624,0.50038,8.52981,2.24663,A,145655.30
3.37163,57.68817055,11.97978734,57.68817133,11.97979050,14:56:55.508011,0.00515,0.00000,0.00000,-0.14315,0.00000,0.00068,-0.00056,0.00054,-0.05264,-0.11303,0.99296,3.36570,0.00000,7.82839,7.82839,-0.58413,0.41317,3.29636,-0.39624,0.50038,8.52981,2.24663,A,145655.30
3.38308,57.68817059,11.97978750,57.68817133,11.97979050,14:56:55.519456,0.00619,0.00000,0.00000,-0.14325,0.00000,-0.00130,0.00249,-0.00083,-0.05148,-0.11718,0.99180,3.37702,0.00000,7.93360,7.93360,-0.57473,0.41753,3.29636,-0.39624,0.50038,8.52981,2.24663,A,145655.30
3.39239,57.68817063,11.97978765,57.68817133,11.97979050,14:56:55.528758,0.00509,0.00000,0.00000,-0.14332,0.00000,-0.00359,-0.00026,0.00024,-0.05051,-0.11480,0.99393,3.38671,0.00000,8.02303,8.02303,-0.56581,0.42167,3.29636,-0.39624,0.50038,8.52981,2.24663,A,145655.30
3.43900,57.68817066,11.97978779,57.68817050,11.97979517,14:56:55.575417,0.04113,0.00000,1.50000,-0.14340,0.02000,0.00084,0.00204,0.00085,-0.05179,-0.11712,0.99223,3.39708,0.00000,8.09905,8.09905,-0.55733,0.42561,3.42383,-0.11887,0.40771,5.96077,-0.32242,A,145655.50
3.45939,57.68817065,11.97978816,57.68817050,11.97979517,14:56:55.595762,0.00784,0.00000,0.00000,-0.14336,0.00000,0.00114,-0.00010,-0.00236,-0.04990,-0.11352,0.99241,3.45272,0.00000,7.77831,7.77831,-0.53541,0.42471,3.42383,-0.11887,0.40771,5.96077,-0.32242,A,145655.50
3.46780,57.68817065,11.97978851,57.68817050,11.97979517,14:56:55.604179,0.00573,0.00000,0.00000,-0.14343,0.00000,-0.00130,0.00280,-0.00282,-0.05325,-0.11566,0.99290,3.46186,0.00000,7.50568,7.50568,-0.51458,0.42386,3.42383,-0.11887,0.40771,5.96077,-0.32242,A,145655.50
3.47786,57.68817064,11.97978884,57.68817050,11.97979517,14:56:55.614247,0.00538,0.00000,0.00000,-0.14345,0.00000,0.00114,0.00356,-0.00175,-0.05155,-0.11462,0.99479,3.47194,0.00000,7.27394,7.27394,-0.49479,0.42306,3.42383,-0.11887,0.40771,5.96077,-0.32242,A,145655.50
3.48804,57.68817063,11.97978916,57.68817050,11.97979517,14:56:55.624420,0.00511,0.00000,0.00000,-0.14353,0.00000,-0.00268,-0.00102,-0.00068,-0.05155,-0.11560,0.99357,3.48214,0.00000,7.07697,7.07697,-0.47600,0.42229,3.42383,-0.11887,0.40771,5.96077,-0.32242,A,145655.50
3.49885,57.68817062,11.97978946,57.68817050,11.97979517,14:56:55.635221,0.00551,0.00000,0.00000,-0.14356,0.00000,0.00435,0.00219,-0.00266,-0.05386,-0.11700,0.99174,3.49273,0.00000,6.90954,6.90954,-0.45814,0.42156,3.42383,-0.11887,0.40771,5.96077,-0.32242,A,145655.50
3.50865,57.68817062,11.97978974,57.68817050,11.97979517,14:56:55.645030,0.00507,0.00000,0.00000,-0.14363,0.00000,0.00023,0.00219,-0.00068,-0.04923,-0.11694,0.99424,3.50298,0.00000,6.76722,6.76722,-0.44118,0.42087,3.42383,-0.11887,0.40771,5.96077,-0.32242,A,145655.50
3.51993,57.68817061,11.97979002,57.68817050,11.97979517,14:56:55.656309,0.00585,0.00000,0.00000,-0.14367,0.00000,0.00068,-0.00056,-0.00022,-0.04935,-0.11529,0.99137,3.51331,0.00000,6.64625,6.64625,-0.42506,0.42021,3.42383,-0.11887,0.40771,5.96077,-0.32242,A,145655.50
3.55718,57.68817061,11.97979027,57.68817100,11.97979850,14:56:55.693598,0.03270,0.00000,1.50000,-0.14371,0.02000,0.00160,0.00097,-0.00312,-0.04965,-0.11547,0.98826,3.52401,0.00000,6.54343,6.54343,-0.40975,0.41958,3.54087,0.07925,0.46331,6.55677,0.27359,A,145655.60
3.57231,57.68817063,11.97979068,57.68817100,11.97979850,14:56:55.708689,0.00775,0.00000,0.00000,-0.14371,0.00000,0.00099,0.00005,-0.00083,-0.05124,-0.11505,0.99381,3.56565,0.00000,6.54543,6.54543,-0.38530,0.42177,3.54087,0.07925,0.46331,6.55677,0.27359,A,145655.60
3.58004,57.68817065,11.97979107,57.68817100,11.97979850,14:56:55.716416,0.00509,0.00000,0.00000,-0.14374,0.00000,0.00404,0.00051,-0.00068,-0.05087,-0.11596,0.99064,3.57414,0.00000,6.54713,6.54713,-0.36208,0.42385,3.54087,0.07925,0.46331,6.55677,0.27359,A,145655.60
3.59070,57.68817066,11.97979145,57.68817100,11.97979850,14:56:55.727081,0.00535,0.00000,0.00000,-0.14382,0.00000,-0.00222,-0.00087,-0.00068,-0.05081,-0.11657,0.99259,3.58475,0.00000,6.54858,6.54858,-0.34001,0.42582,3.54087,0.07925,0.46331,6.55677,0.27359,A,145655.60
3.60078,57.68817068,11.97979180,57.68817100,11.97979850,14:56:55.737150,0.00502,0.00000,0.00000,-0.14388,0.00000,0.00084,0.00081,-0.00053,-0.05124,-0.11675,0.99235,3.59512,0.00000,6.54981,6.54981,-0.31905,0.42770,3.54087,0.07925,0.46331,6.55677,0.27359,A,145655.60
3.61180,57.68817070,11.97979213,57.68817100,11.97979850,14:56:55.748186,0.00560,0.00000,0.00000,-0.14388,0.00000,0.00527,0.00020,-0.00190,-0.04996,-0.11547,0.99253,3.60544,0.00000,6.55085,6.55085,-0.29913,0.42948,3.54087,0.07925,0.46331,6.55677,0.27359,A,145655.60
3.62193,57.68817071,11.97979245,57.68817100,11.97979850,14:56:55.758317,0.00533,0.00000,0.00000,-0.14397,0.00000,-0.00237,-0.00056,0.00070,-0.04941,-0.11712,0.99052,3.61602,0.00000,6.55174,6.55174,-0.28021,0.43117,3.54087,0.07925,0.46331,6.55677,0.27359,A,145655.60
3.63207,57.68817073,11.97979275,57.68817100,11.97979850,14:56:55.768446,0.00507,0.00000,0.00000,-0.14401,0.00000,0.00130,0.00173,-0.00312,-0.04892,-0.11590,0.99387,3.62619,0.00000,6.55249,6.55249,-0.26224,0.43278,3.54087,0.07925,0.46331,6.55677,0.27359,A,145655.60
3.66666,57.68817074,11.97979304,57.68817167,11.97980100,14:56:55.803055,0.02925,0.00000,1.50000,-0.14402,0.02000,0.00252,-0.00087,0.00115,-0.05063,-0.11492,0.99229,3.63682,0.00000,6.55314,6.55314,-0.24517,0.43430,3.65307,0.22784,0.53744,6.74594,0.46275,A,145655.70
3.68088,57.68817079,11.97979344,57.68817167,11.97980100,14:56:55.817259,0.00663,0.00000,0.00000,-0.14399,0.00000,0.00114,0.00097,0.00192,-0.05264,-0.11364,0.99326,3.67517,0.00000,6.58206,6.58206,-0.22151,0.43946,3.65307,0.22784,0.53744,6.74594,0.46275,A,145655.70
3.68999,57.68817083,11.97979382,57.68817167,11.97980100,14:56:55.826375,0.00533,0.00000,0.00000,-0.14402,0.00000,-0.00084,0.00173,0.00054,-0.04929,-0.11334,0.98997,3.68406,0.00000,6.60664,6.60664,-0.19905,0.44436,3.65307,0.22784,0.53744,6.74594,0.46275,A,145655.70
3.70012,57.68817087,11.97979418,57.68817167,11.97980100,14:56:55.836498,0.00506,0.00000,0.00000,-0.14408,0.00000,0.00328,0.00142,-0.00159,-0.05276,-0.11865,0.99094,3.69425,0.00000,6.62753,6.62753,-0.17770,0.44901,3.65307,0.22784,0.53744,6.74594,0.46275,A,145655.70
3.71115,57.68817091,11.97979452,57.68817167,11.97980100,14:56:55.847523,0.00569,0.00000,0.00000,-0.14409,0.00000,0.00328,0.00234,-0.00068,-0.04965,-0.11584,0.99229,3.70485,0.00000,6.64529,6.64529,-0.15743,0.45343,3.65307,0.22784,0.53744,6.74594,0.46275,A,145655.70
3.72156,57.68817095,11.97979484,57.68817167,11.97980100,14:56:55.858185,0.00570,0.00000,0.00000,-0.14415,0.00000,-0.00313,0.00005,0.00268,-0.05155,-0.11431,0.99284,3.71584,0.00000,6.66039,6.66039,-0.13816,0.45763,3.65307,0.22784,0.53744,6.74594,0.46275,A,145655.70
3.73136,57.68817098,11.97979515,57.68817167,11.97980100,14:56:55.867739,0.00525,0.00000,0.00000,-0.14422,0.00000,-0.00084,-0.00026,-0.00007,-0.05087,-0.11639,0.99345,3.72532,0.00000,6.67322,6.67322,-0.11986,0.46163,3.65307,0.22784,0.53744,6.74594,0.46275,A,145655.70
3.74158,57.68817102,11.97979544,57.68817167,11.97980100,14:56:55.878193,0.00507,0.00000,0.00000,-0.14423,0.00000,0.00221,0.00219,-0.00068,-0.05222,-0.11492,0.99192,3.73593,0.00000,6.68413,6.68413,-0.10248,0.46542,3.65307,0.22784,0.53744,6.74594,0.46275,A,145655.70
3.75205,57.68817105,11.97979572,57.68817167,11.97980100,14:56:55.888425,0.00514,0.00000,0.00000,-0.14429,0.00000,-0.00084,-0.00468,0.00024,-0.04929,-0.11627,0.99204,3.74609,0.00000,6.69340,6.69340,-0.08596,0.46902,3.65307,0.22784,0.53744,6.74594,0.46275,A,145655.70
3.79064,57.68817108,11.97979598,57.68817117,11.97980417,14:56:55.927059,0.03333,0.00000,1.50000,-0.14436,0.02000,0.00038,0.00081,0.00314,-0.05033,-0.11779,0.99271,3.75671,0.00000,6.70128,6.70128,-0.07027,0.47244,3.77422,0.41606,0.48184,5.99596,-0.28722,A,145655.80
3.81105,57.68817109,11.97979639,57.68817117,11.97980417,14:56:55.947432,0.00786,0.00000,0.00000,-0.14452,0.00000,-0.00298,-0.00132,0.00131,-0.05246,-0.11383,0.99247,3.80490,0.00000,6.59548,6.59548,-0.04595,0.47291,3.77422,0.41606,0.48184,5.99596,-0.28722,A,145655.80
3.81894,57.68817109,11.97979678,57.68817117,11.97980417,14:56:55.955317,0.00535,0.00000,0.00000,-0.14455,0.00000,0.00236,0.00112,-0.00221,-0.05014,-0.11669,0.99119,3.81298,0.00000,6.50556,6.50556,-0.02285,0.47336,3.77422,0.41606,0.48184,5.99596,-0.28722,A,145655.80
3.82909,57.68817109,11.97979715,57.68817117,11.97980417,14:56:55.965461,0.00509,0.00000,0.00000,-0.14460,0.00000,0.00007,-0.00178,-0.00175,-0.05240,-0.11596,0.99155,3.82341,0.00000,6.42912,6.42912,-0.00091,0.47378,3.77422,0.41606,0.48184,5.99596,-0.28722,A,145655.80
3.83944,57.68817110,11.97979750,57.68817117,11.97980417,14:56:55.975810,0.00519,0.00000,0.00000,-0.14463,0.00000,-0.00008,-0.00117,0.00161,-0.05142,-0.11474,0.99113,3.83348,0.00000,6.36414,6.36414,0.01994,0.47418,3.77422,0.41606,0.48184,5.99596,-0.28722,A,145655.80
3.84994,57.68817110,11.97979784,57.68817117,11.97980417,14:56:55.986323,0.00530,0.00000,0.00000,-0.14467,0.00000,0.00007,-0.00239,0.00176,-0.05173,-0.11608,0.99326,3.84405,0.00000,6.30892,6.30892,0.03975,0.47457,3.77422,0.41606,0.48184,5.99596,-0.28722,A,145655.80
3.86103,57.68817110,11.97979815,57.68817117,11.97980417,14:56:55.997401,0.00592,0.00000,0.00000,-0.14469,0.00000,0.00511,-0.00163,-0.00114,-0.05161,-0.11804,0.99216,3.85529,0.00000,6.26197,6.26197,0.05856,0.47493,3.77422,0.41606,0.48184,5.99596,-0.28722,A,145655.80
3.87149,57.68817111,11.97979845,57.68817117,11.97980417,14:56:56.007866,0.00599,0.00000,0.00000,-0.14476,0.00000,-0.00161,-0.00316,-0.00190,-0.05215,-0.11657,0.98954,3.86548,0.00000,6.22207,6.22207,0.07644,0.47528,3.77422,0.41606,0.48184,5.99596,-0.28722,A,145655.80
3.90755,57.68817111,11.97979874,57.68816983,11.97980767,14:56:56.044769,0.03166,0.00000,1.50000,-0.14480,0.02000,-0.00191,-0.00331,-0.00098,-0.04910,-0.11486,0.99210,3.87532,0.00000,6.18815,6.18815,0.09342,0.47560,3.89147,0.62408,0.33358,5.66399,-0.61919,A,145655.90
3.92832,57.68817105,11.97979918,57.68816983,11.97980767,14:56:56.064699,0.00619,0.00000,0.00000,-0.14482,0.00000,0.00160,-0.00148,-0.00175,-0.05222,-0.11889,0.98979,3.92259,0.00000,6.10953,6.10953,0.11995,0.46850,3.89147,0.62408,0.33358,5.66399,-0.61919,A,145655.90
3.93758,57.68817099,11.97979961,57.68816983,11.97980767,14:56:56.074195,0.00504,0.00000,0.00000,-0.14486,0.00000,0.00053,-0.00056,0.00207,-0.05228,-0.11633,0.99137,3.93192,0.00000,6.04270,6.04270,0.14516,0.46176,3.89147,0.62408,0.33358,5.66399,-0.61919,A,145655.90
3.94803,57.68817093,11.97980001,57.68816983,11.97980767,14:56:56.084407,0.00509,0.00000,0.00000,-0.14496,0.00000,-0.00497,0.00066,0.00100,-0.05222,-0.11688,0.99412,3.94213,0.00000,5.98589,5.98589,0.16910,0.45535,3.89147,0.62408,0.33358,5.66399,-0.61919,A,145655.90
3.95893,57.68817087,11.97980039,57.68816983,11.97980767,14:56:56.095308,0.00553,0.00000,0.00000,-0.14503,0.00000,-0.00054,-0.00117,0.00008,-0.05155,-0.11791,0.99174,3.95281,0.00000,5.93761,5.93761,0.19185,0.44926,3.89147,0.62408,0.33358,5.66399,-0.61919,A,145655.90
3.96879,57.68817082,11.97980076,57.68816983,11.97980767,14:56:56.105167,0.00500,0.00000,0.00000,-0.14513,0.00000,-0.00588,0.00127,-0.00037,-0.05081,-0.11596,0.99369,3.96312,0.00000,5.89657,5.89657,0.21346,0.44348,3.89147,0.62408,0.33358,5.66399,-0.61919,A,145655.90
3.97928,57.68817077,11.97980110,57.68816983,11.97980767,14:56:56.115658,0.00519,0.00000,0.00000,-0.14516,0.00000,-0.00023,0.00142,0.00008,-0.05136,-0.11517,0.98979,3.97329,0.00000,5.86168,5.86168,0.23399,0.43798,3.89147,0.62408,0.33358,5.66399,-0.61919,A,145655.90
3.98989,57.68817073,11.97980143,57.68816983,11.97980767,14:56:56.126276,0.00540,0.00000,0.00000,-0.14524,0.00000,-0.00283,0.00158,-0.00205,-0.04917,-0.11718,0.99174,3.98399,0.00000,5.83203,5.83203,0.25350,0.43276,3.89147,0.62408,0.33358,5.66399,-0.61919,A,145655.90
4.03657,57.68817068,11.97980174,57.68817350,11.97980850,14:56:56.172987,0.04168,0.00000,1.50000,-0.14529,0.02000,-0.00176,-0.00285,-0.00022,-0.05051,-0.11584,0.99204,3.99408,0.00000,5.80682,5.80682,0.27203,0.42780,4.02063,0.67361,0.74130,7.73309,1.44991,A,145656.10
4.05452,57.68817082,11.97980208,57.68817350,11.97980850,14:56:56.190903,0.00784,0.00000,0.00000,-0.14523,0.00000,0.00160,-0.00071,0.00070,-0.04917,-0.11523,0.99040,4.04850,0.00000,6.09576,6.09576,0.29211,0.44348,4.02063,0.67361,0.74130,7.73309,1.44991,A,145656.10
4.06243,57.68817096,11.97980240,57.68817350,11.97980850,14:56:56.198805,0.00534,0.00000,0.00000,-0.14528,0.00000,-0.00298,0.00051,0.00008,-0.04880,-0.11596,0.99284,4.05648,0.00000,6.34136,6.34136,0.31118,0.45837,4.02063,0.67361,0.74130,7.73309,1.44991,A,145656.10
4.07327,57.68817108,11.97980271,57.68817350,11.97980850,14:56:56.209648,0.00578,0.00000,0.00000,-0.14526,0.00000,0.00664,-0.00010,-0.00419,-0.05039,-0.11645,0.99070,4.06686,0.00000,6.55012,6.55012,0.32930,0.47252,4.02063,0.67361,0.74130,7.73309,1.44991,A,145656.10
4.08352,57.68817120,11.97980300,57.68817350,11.97980850,14:56:56.219890,0.00540,0.00000,0.00000,-0.14529,0.00000,0.00084,-0.00087,-0.00022,-0.05148,-0.11694,0.99485,4.07753,0.00000,6.72757,6.72757,0.34652,0.48596,4.02063,0.67361,0.74130,7.73309,1.44991,A,145656.10
4.09360,57.68817132,11.97980327,57.68817350,11.97980850,14:56:56.230223,0.00509,0.00000,0.00000,-0.14541,0.00000,-0.00558,-0.00300,-0.00175,-0.05039,-0.11749,0.99229,4.08793,0.00000,6.87839,6.87839,0.36288,0.49872,4.02063,0.67361,0.74130,7.73309,1.44991,A,145656.10
4.10502,57.68817143,11.97980353,57.68817350,11.97980850,14:56:56.241397,0.00605,0.00000,0.00000,-0.14542,0.00000,0.00068,-0.00041,0.00039,-0.05045,-0.11505,0.99174,4.09816,0.00000,7.00660,7.00660,0.37841,0.51085,4.02063,0.67361,0.74130,7.73309,1.44991,A,145656.10
4.11523,57.68817153,11.97980378,57.68817350,11.97980850,14:56:56.251610,0.00585,0.00000,0.00000,-0.14548,0.00000,-0.00222,0.00158,-0.00159,-0.05167,-0.11602,0.98960,4.10892,0.00000,7.11557,7.11557,0.39317,0.52237,4.02063,0.67361,0.74130,7.73309,1.44991,A,145656.10
4.15021,57.68817163,11.97980402,57.68817517,11.97980900,14:56:56.287222,0.03044,0.00000,1.50000,-0.14552,0.02000,-0.00176,0.00081,0.00115,-0.04965,-0.11572,0.99302,4.11913,0.00000,7.20820,7.20820,0.40719,0.53332,4.13528,0.70333,0.92662,7.69498,1.41179,A,145656.20
4.17170,57.68817181,11.97980427,57.68817517,11.97980900,14:56:56.308068,0.00858,0.00000,0.00000,-0.14560,0.00000,-0.00069,0.00066,0.00039,-0.05270,-0.11651,0.98936,4.16569,0.00000,7.28122,7.28122,0.42200,0.55299,4.13528,0.70333,0.92662,7.69498,1.41179,A,145656.20
4.17939,57.68817197,11.97980450,57.68817517,11.97980900,14:56:56.315763,0.00586,0.00000,0.00000,-0.14562,0.00000,-0.00191,0.00219,0.00100,-0.04807,-0.11456,0.99070,4.17340,0.00000,7.34328,7.34328,0.43607,0.57167,4.13528,0.70333,0.92662,7.69498,1.41179,A,145656.20
4.18902,57.68817213,11.97980473,57.68817517,11.97980900,14:56:56.325400,0.00509,0.00000,0.00000,-0.14566,0.00000,-0.00161,0.00020,-0.00098,-0.05191,-0.11578,0.99119,4.18334,0.00000,7.39604,7.39604,0.44943,0.58941,4.13528,0.70333,0.92662,7.69498,1.41179,A,145656.20
4.19935,57.68817229,11.97980494,57.68817517,11.97980900,14:56:56.335734,0.00519,0.00000,0.00000,-0.14574,0.00000,-0.00512,-0.00132,0.00176,-0.05094,-0.11608,0.99204,4.19339,0.00000,7.44088,7.44088,0.46213,0.60628,4.13528,0.70333,0.92662,7.69498,1.41179,A,145656.20
4.21006,57.68817243,11.97980514,57.68817517,11.97980900,14:56:56.346446,0.00536,0.00000,0.00000,-0.14576,0.00000,-0.00023,-0.00132,0.00146,-0.04947,-0.11529,0.99430,4.20412,0.00000,7.47899,7.47899,0.47419,0.62229,4.13528,0.70333,0.92662,7.69498,1.41179,A,145656.20
4.22016,57.68817257,11.97980534,57.68817517,11.97980900,14:56:56.356542,0.00507,0.00000,0.00000,-0.14574,0.00000,0.00068,-0.00071,-0.00266,-0.05118,-0.11370,0.99241,4.21427,0.00000,7.51139,7.51139,0.48564,0.63751,4.13528,0.70333,0.92662,7.69498,1.41179,A,145656.20
4.23088,57.68817270,11.97980552,57.68817517,11.97980900,14:56:56.367255,0.00538,0.00000,0.00000,-0.14575,0.00000,0.00481,0.00219,-0.00297,-0.05094,-0.11810,0.99094,4.22490,0.00000,7.53893,7.53893,0.49653,0.65197,4.13528,0.70333,0.92662,7.69498,1.41179,A,145656.20
4.26686,57.68817282,11.97980569,57.68817483,11.97981017,14:56:56.403766,0.03097,0.00000,1.50000,-0.14581,0.02000,-0.00222,0.00158,0.00008,-0.05057,-0.11621,0.99186,4.23530,0.00000,7.56234,7.56234,0.50687,0.66570,4.25155,0.77268,0.88956,5.79231,-0.49088,A,145656.30
4.28752,57.68817292,11.97980592,57.68817483,11.97981017,14:56:56.423893,0.00850,0.00000,0.00000,-0.14579,0.00000,0.00145,0.00051,0.00222,-0.05575,-0.11688,0.99064,4.27958,0.00000,7.29683,7.29683,0.52016,0.67689,4.25155,0.77268,0.88956,5.79231,-0.49088,A,145656.30
4.29503,57.68817302,11.97980613,57.68817483,11.97981017,14:56:56.431414,0.00579,0.00000,0.00000,-0.14580,0.00000,0.00099,0.00158,-0.00190,-0.05051,-0.11596,0.99223,4.28869,0.00000,7.07115,7.07115,0.53278,0.68752,4.25155,0.77268,0.88956,5.79231,-0.49088,A,145656.30
4.30496,57.68817311,11.97980633,57.68817483,11.97981017,14:56:56.441333,0.00532,0.00000,0.00000,-0.14585,0.00000,-0.00466,-0.00377,0.00115,-0.05020,-0.11480,0.99448,4.29903,0.00000,6.87933,6.87933,0.54478,0.69763,4.25155,0.77268,0.88956,5.79231,-0.49088,A,145656.30
4.31564,57.68817319,11.97980652,57.68817483,11.97981017,14:56:56.452021,0.00555,0.00000,0.00000,-0.14590,0.00000,-0.00115,0.00234,0.00222,-0.05374,-0.11682,0.99186,4.30946,0.00000,6.71627,6.71627,0.55617,0.70722,4.25155,0.77268,0.88956,5.79231,-0.49088,A,145656.30
4.32594,57.68817328,11.97980671,57.68817483,11.97981017,14:56:56.462329,0.00545,0.00000,0.00000,-0.14591,0.00000,0.00007,0.00066,0.00176,-0.05179,-0.11474,0.99015,4.32003,0.00000,6.57768,6.57768,0.56700,0.71634,4.25155,0.77268,0.88956,5.79231,-0.49088,A,145656.30
4.33599,57.68817335,11.97980688,57.68817483,11.97981017,14:56:56.472362,0.00510,0.00000,0.00000,-0.14590,0.00000,0.00221,-0.00026,-0.00053,-0.04886,-0.11535,0.99406,4.33008,0.00000,6.45987,6.45987,0.57728,0.72500,4.25155,0.77268,0.88956,5.79231,-0.49088,A,145656.30
4.34673,57.68817343,11.97980704,57.68817483,11.97981017,14:56:56.483110,0.00544,0.00000,0.00000,-0.14590,0.00000,0.00298,0.00020,-0.00098,-0.04941,-0.11602,0.99155,4.34068,0.00000,6.35974,6.35974,0.58705,0.73323,4.25155,0.77268,0.88956,5.79231,-0.49088,A,145656.30
4.38244,57.68817350,11.97980720,57.68817467,11.97981100,14:56:56.518837,0.03075,0.00000,1.50000,-0.14588,0.02000,0.00130,-0.00056,0.00161,-0.05179,-0.11401,0.99412,4.35108,0.00000,6.27462,6.27462,0.59633,0.74105,4.36724,0.82221,0.87103,5.92515,-0.35804,A,145656.40
4.39899,57.68817356,11.97980739,57.68817467,11.97981100,14:56:56.535367,0.00698,0.00000,0.00000,-0.14604,0.00000,-0.00374,-0.00148,-0.00053,-0.05258,-0.11492,0.99235,4.39297,0.00000,6.22220,6.22220,0.60763,0.74754,4.36724,0.82221,0.87103,5.92515,-0.35804,A,145656.40
4.40759,57.68817361,11.97980757,57.68817467,11.97981100,14:56:56.543968,0.00534,0.00000,0.00000,-0.14607,0.00000,-0.00115,0.00112,-0.00389,-0.04996,-0.11578,0.99119,4.40167,0.00000,6.17764,6.17764,0.61836,0.75372,4.36724,0.82221,0.87103,5.92515,-0.35804,A,145656.40
4.41823,57.68817366,11.97980774,57.68817467,11.97981100,14:56:56.554613,0.00558,0.00000,0.00000,-0.14608,0.00000,0.00267,0.00341,0.00054,-0.05136,-0.11718,0.99418,4.41230,0.00000,6.13977,6.13977,0.62855,0.75958,4.36724,0.82221,0.87103,5.92515,-0.35804,A,145656.40
4.42815,57.68817371,11.97980790,57.68817467,11.97981100,14:56:56.564528,0.00510,0.00000,0.00000,-0.14610,0.00000,-0.00344,0.00188,-0.00389,-0.05002,-0.11376,0.99192,4.42224,0.00000,6.10758,6.10758,0.63823,0.76516,4.36724,0.82221,0.87103,5.92515,-0.35804,A,145656.40
4.44019,57.68817376,11.97980806,57.68817467,11.97981100,14:56:56.576583,0.00674,0.00000,0.00000,-0.14611,0.00000,0.00099,-0.00300,-0.00068,-0.05106,-0.11602,0.99345,4.43284,0.00000,6.08021,6.08021,0.64743,0.77045,4.36724,0.82221,0.87103,5.92515,-0.35804,A,145656.40
4.44880,57.68817381,11.97980821,57.68817467,11.97981100,14:56:56.585180,0.00495,0.00000,0.00000,-0.14614,0.00000,0.00084,-0.00041,0.00085,-0.05130,-0.11724,0.99332,4.44313,0.00000,6.05695,6.05695,0.65617,0.77548,4.36724,0.82221,0.87103,5.92515,-0.35804,A,145656.40
4.45929,57.68817385,11.97980835,57.68817467,11.97981100,14:56:56.595659,0.00518,0.00000,0.00000,-0.14610,0.00000,0.00496,0.00020,-0.00098,-0.05130,-0.11517,0.99247,4.45333,0.00000,6.03718,6.03718,0.66447,0.78026,4.36724,0.82221,0.87103,5.92515,-0.35804,A,145656.40
4.49178,57.68817389,11.97980848,57.68817500,11.97981150,14:56:56.628843,0.02727,0.00000,1.50000,-0.14617,0.02000,-0.00222,0.00020,-0.00144,-0.05240,-0.11767,0.99149,4.46393,0.00000,6.02038,6.02038,0.67236,0.78479,4.48005,0.85192,0.90809,7.17815,0.89497,A,145656.50
4.51176,57.68817395,11.97980863,57.68817500,11.97981150,14:56:56.648141,0.00794,0.00000,0.00000,-0.14617,0.00000,0.00007,0.00142,-0.00297,-0.05161,-0.11499,0.99216,4.50556,0.00000,6.19404,6.19404,0.68134,0.79096,4.48005,0.85192,0.90809,7.17815,0.89497,A,145656.50
4.51944,57.68817400,11.97980877,57.68817500,11.97981150,14:56:56.655814,0.00521,0.00000,0.00000,-0.14618,0.00000,0.00191,0.00005,-0.00098,-0.05020,-0.11633,0.99216,4.51347,0.00000,6.34166,6.34166,0.68987,0.79682,4.48005,0.85192,0.90809,7.17815,0.89497,A,145656.50
4.52996,57.68817405,11.97980891,57.68817500,11.97981150,14:56:56.666350,0.00534,0.00000,0.00000,-0.14621,0.00000,-0.00023,-0.00331,0.00146,-0.05130,-0.11663,0.99454,4.52407,0.00000,6.46713,6.46713,0.69797,0.80238,4.48005,0.85192,0.90809,7.17815,0.89497,A,145656.50
4.54009,57.68817410,11.97980904,57.68817500,11.97981150,14:56:56.676466,0.00507,0.00000,0.00000,-0.14620,0.00000,0.00359,0.00326,0.00070,-0.04978,-0.11645,0.99436,4.53421,0.00000,6.57379,6.57379,0.70567,0.80767,4.48005,0.85192,0.90809,7.17815,0.89497,A,145656.50
4.55075,57.68817414,11.97980916,57.68817500,11.97981150,14:56:56.687124,0.00532,0.00000,0.00000,-0.14621,0.00000,0.00038,0.00371,-0.00022,-0.05045,-0.11627,0.99253,4.54482,0.00000,6.66444,6.66444,0.71298,0.81269,4.48005,0.85192,0.90809,7.17815,0.89497,A,145656.50
4.56080,57.68817418,11.97980928,57.68817500,11.97981150,14:56:56.697172,0.00497,0.00000,0.00000,-0.14618,0.00000,0.00343,0.00509,0.00131,-0.05094,-0.11444,0.99259,4.55513,0.00000,6.74150,6.74150,0.71993,0.81746,4.48005,0.85192,0.90809,7.17815,0.89497,A,145656.50
4.57127,57.68817423,11.97980939,57.68817500,11.97981150,14:56:56.707639,0.00518,0.00000,0.00000,-0.14618,0.00000,0.00252,0.00204,0.00192,-0.04965,-0.11663,0.99277,4.56530,0.00000,6.80699,6.80699,0.72653,0.82199,4.48005,0.85192,0.90809,7.17815,0.89497,A,145656.50
4.60914,57.68817426,11.97980950,57.68817433,11.97981283,14:56:56.746465,0.03265,0.00000,1.50000,-0.14620,0.02000,0.00007,-0.00087,0.00039,-0.04868,-0.11627,0.99271,4.57590,0.00000,6.86267,6.86267,0.73280,0.82629,4.59322,0.93117,0.83396,5.53115,-0.75204,A,145656.60
4.63053,57.68817427,11.97980966,57.68817433,11.97981283,14:56:56.766915,0.00644,0.00000,0.00000,-0.14626,0.00000,-0.00130,0.00020,-0.00526,-0.04880,-0.11407,0.99192,4.62451,0.00000,6.66294,6.66294,0.74272,0.82668,4.59322,0.93117,0.83396,5.53115,-0.75204,A,145656.60
4.63949,57.68817427,11.97980982,57.68817433,11.97981283,14:56:56.775862,0.00516,0.00000,0.00000,-0.14634,0.00000,-0.00573,-0.00285,0.00238,-0.05136,-0.11688,0.99015,4.63356,0.00000,6.49317,6.49317,0.75214,0.82704,4.59322,0.93117,0.83396,5.53115,-0.75204,A,145656.60
4.65008,57.68817427,11.97980997,57.68817433,11.97981283,14:56:56.786471,0.00536,0.00000,0.00000,-0.14637,0.00000,-0.00069,0.00448,0.00451,-0.04972,-0.11578,0.98997,4.64418,0.00000,6.34887,6.34887,0.76109,0.82739,4.59322,0.93117,0.83396,5.53115,-0.75204,A,145656.60
4.66035,57.68817428,11.97981011,57.68817433,11.97981283,14:56:56.796722,0.00522,0.00000,0.00000,-0.14642,0.00000,-0.00222,0.00158,-0.00022,-0.05100,-0.11633,0.99070,4.65431,0.00000,6.22621,6.22621,0.76959,0.82772,4.59322,0.93117,0.83396,5.53115,-0.75204,A,145656.60
4.67091,57.68817428,11.97981025,57.68817433,11.97981283,14:56:56.807291,0.00539,0.00000,0.00000,-0.14642,0.00000,-0.00038,-0.00163,-0.00251,-0.04965,-0.11505,0.99332,4.66492,0.00000,6.12195,6.12195,0.77767,0.82803,4.59322,0.93117,0.83396,5.53115,-0.75204,A,145656.60
4.68098,57.68817428,11.97981038,57.68817433,11.97981283,14:56:56.817362,0.00506,0.00000,0.00000,-0.14640,0.00000,0.00359,0.00097,-0.00053,-0.05130,-0.11596,0.99485,4.67531,0.00000,6.03333,6.03333,0.78535,0.82833,4.59322,0.93117,0.83396,5.53115,-0.75204,A,145656.60
4.69179,57.68817429,11.97981050,57.68817433,11.97981283,14:56:56.828164,0.00541,0.00000,0.00000,-0.14643,0.00000,-0.00237,-0.00071,0.00161,-0.05185,-0.11541,0.99186,4.68585,0.00000,5.95800,5.95800,0.79264,0.82861,4.59322,0.93117,0.83396,5.53115,-0.75204,A,145656.60
4.73873,57.68817429,11.97981062,57.68817083,11.97981667,14:56:56.875395,0.04189,0.00000,1.50000,-0.14646,0.02000,-0.00100,0.00188,0.00192,-0.05222,-0.11645,0.99290,4.69626,0.00000,5.89398,5.89398,0.79957,0.82887,4.72282,1.15901,0.44478,5.24203,-1.04116,A,145656.80
4.75692,57.68817411,11.97981092,57.68817083,11.97981667,14:56:56.893288,0.00614,0.00000,0.00000,-0.14663,0.00000,-0.00268,0.00112,-0.00541,-0.05215,-0.11718,0.99528,4.75115,0.00000,5.79618,5.79618,0.81754,0.80967,4.72282,1.15901,0.44478,5.24203,-1.04116,A,145656.80
4.76653,57.68817395,11.97981121,57.68817083,11.97981667,14:56:56.902913,0.00536,0.00000,0.00000,-0.14666,0.00000,-0.00512,-0.00285,-0.00282,-0.05039,-0.11383,0.99198,4.76058,0.00000,5.71306,5.71306,0.83461,0.79143,4.72282,1.15901,0.44478,5.24203,-1.04116,A,145656.80
4.77663,57.68817379,11.97981148,57.68817083,11.97981667,14:56:56.913006,0.00505,0.00000,0.00000,-0.14669,0.00000,-0.00161,0.00097,-0.00282,-0.05008,-0.11578,0.99076,4.77096,0.00000,5.64241,5.64241,0.85083,0.77409,4.72282,1.15901,0.44478,5.24203,-1.04116,A,145656.80
4.78741,57.68817365,11.97981174,57.68817083,11.97981667,14:56:56.923789,0.00534,0.00000,0.00000,-0.14678,0.00000,-0.00588,0.00066,0.00238,-0.05148,-0.11718,0.99168,4.78129,0.00000,5.58235,5.58235,0.86624,0.75763,4.72282,1.15901,0.44478,5.24203,-1.04116,A,145656.80
4.79916,57.68817351,11.97981199,57.68817083,11.97981667,14:56:56.935533,0.00667,0.00000,0.00000,-0.14680,0.00000,-0.00038,0.00280,0.00024,-0.05057,-0.11602,0.99271,4.79314,0.00000,5.53130,5.53130,0.88088,0.74199,4.72282,1.15901,0.44478,5.24203,-1.04116,A,145656.80
4.80797,57.68817337,11.97981222,57.68817083,11.97981667,14:56:56.944340,0.00508,0.00000,0.00000,-0.14686,0.00000,-0.00252,0.00051,0.00161,-0.04978,-0.11828,0.99235,4.80206,0.00000,5.48791,5.48791,0.89479,0.72712,4.72282,1.15901,0.44478,5.24203,-1.04116,A,145656.80
4.81879,57.68817325,11.97981244,57.68817083,11.97981667,14:56:56.955169,0.00550,0.00000,0.00000,-0.14687,0.00000,0.00191,0.00142,0.00085,-0.05337,-0.11700,0.99296,4.81281,0.00000,5.45103,5.45103,0.90800,0.71301,4.72282,1.15901,0.44478,5.24203,-1.04116,A,145656.80
4.85519,57.68817312,11.97981265,57.68816933,11.97981700,14:56:56.992083,0.03150,0.00000,1.50000,-0.14691,0.02000,-0.00344,-0.00010,0.00008,-0.05014,-0.11572,0.99271,4.82309,0.00000,5.41968,5.41968,0.92055,0.69960,4.83945,1.17883,0.27799,4.83062,-1.45257,A,145656.90
4.87555,57.68817294,11.97981287,57.68816933,11.97981700,14:56:57.011931,0.00710,0.00000,0.00000,-0.14681,0.00000,0.00236,0.00371,-0.00022,-0.04837,-0.11645,0.99332,4.86954,0.00000,5.33132,5.33132,0.93346,0.67852,4.83945,1.17883,0.27799,4.83062,-1.45257,A,145656.90
4.88402,57.68817276,11.97981308,57.68816933,11.97981700,14:56:57.020400,0.00517,0.00000,0.00000,-0.14686,0.00000,-0.00191,-0.00041,-0.00053,-0.04996,-0.11712,0.99290,4.87804,0.00000,5.25621,5.25621,0.94573,0.65849,4.83945,1.17883,0.27799,4.83062,-1.45257,A,145656.90
4.89522,57.68817258,11.97981327,57.68816933,11.97981700,14:56:57.031594,0.00597,0.00000,0.00000,-0.14689,0.00000,-0.00115,0.00081,-0.00098,-0.05276,-0.11688,0.99082,4.88922,0.00000,5.19237,5.19237,0.95739,0.63946,4.83945,1.17883,0.27799,4.83062,-1.45257,A,145656.90
4.90469,57.68817242,11.97981346,57.68816933,11.97981700,14:56:57.041067,0.00504,0.00000,0.00000,-0.14693,0.00000,-0.00176,0.00249,-0.00190,-0.05124,-0.11651,0.99162,4.89902,0.00000,5.13811,5.13811,0.96846,0.62139,4.83945,1.17883,0.27799,4.83062,-1.45257,A,145656.90
4.91659,57.68817227,11.97981364,57.68816933,11.97981700,14:56:57.052970,0.00666,0.00000,0.00000,-0.14694,0.00000,-0.00023,0.00341,0.00161,-0.05002,-0.11602,0.99076,4.90951,0.00000,5.09199,5.09199,0.97898,0.60422,4.83945,1.17883,0.27799,4.83062,-1.45257,A,145656.90
4.92602,57.68817212,11.97981381,57.68816933,11.97981700,14:56:57.062404,0.00569,0.00000,0.00000,-0.14695,0.00000,-0.00054,-0.00148,-0.00007,-0.05155,-0.11572,0.99235,4.92008,0.00000,5.05278,5.05278,0.98897,0.58791,4.83945,1.17883,0.27799,4.83062,-1.45257,A,145656.90
4.93595,57.68817198,11.97981397,57.68816933,11.97981700,14:56:57.072321,0.00521,0.00000,0.00000,-0.14696,0.00000,-0.00008,0.00066,0.00207,-0.05136,-0.11572,0.99235,4.92992,0.00000,5.01946,5.01946,0.99846,0.57241,4.83945,1.17883,0.27799,4.83062,-1.45257,A,145656.90
4.97060,57.68817185,11.97981412,57.68816950,11.97981600,14:56:57.107290,0.02947,0.00000,1.50000,-0.14695,0.02000,0.00038,0.00112,0.00085,-0.05081,-0.11480,0.99186,4.94054,0.00000,4.99113,4.99113,1.00748,0.55769,4.95704,1.11939,0.29652,2.83934,2.83934,A,145657.00
4.98830,57.68817173,11.97981421,57.68816950,11.97981600,14:56:57.124671,0.00727,0.00000,0.00000,-0.14701,0.00000,-0.00130,-0.00224,-0.00236,-0.04978,-0.11614,0.99210,4.98256,0.00000,4.66836,4.66836,1.01308,0.54463,4.95704,1.11939,0.29652,2.83934,2.83934,A,145657.00
4.99707,57.68817162,11.97981430,57.68816950,11.97981600,14:56:57.133442,0.00564,0.00000,0.00000,-0.14702,0.00000,-0.00161,0.00387,-0.00037,-0.05033,-0.11486,0.99216,4.99135,0.00000,4.39401,4.39401,1.01839,0.53223,4.95704,1.11939,0.29652,2.83934,2.83934,A,145657.00
5.00729,57.68817151,11.97981439,57.68816950,11.97981600,14:56:57.143669,0.00532,0.00000,0.00000,-0.14703,0.00000,0.00007,0.00204,0.00039,-0.05179,-0.11657,0.99168,5.00132,0.00000,4.16081,4.16081,1.02344,0.52044,4.95704,1.11939,0.29652,2.83934,2.83934,A,145657.00
5.02185,57.68817141,11.97981447,57.68816950,11.97981600,14:56:57.158256,0.00947,0.00000,0.00000,0.00000,0.00000,-0.00191,-0.00087,-0.00129,-0.05234,-0.11578,0.99320,5.01179,0.00000,0.25895,0.25895,1.11939,0.29652,4.95704,1.11939,0.29652,2.83934,2.83934,A,145657.00
5.07827,57.68816950,11.97981600,57.68816950,11.97981600,14:56:57.214627,0.05406,0.00000,0.00000,-0.00228,-1.61995,-0.00451,-0.00148,0.00070,-0.05130,-0.11584,0.99338,5.02751,0.00000,0.42244,1.91286,1.11939,0.29652,4.95704,1.11939,0.29652,2.83934,2.83934,A,145657.00
