Time,lat_estimated,lon_estimated,latitude,longitude,RealTime,CalculationTime,MeasuredVelocity,Roll,SteeringAngle,RollRate,gy,gz,ax,ay,az,imu_read_timing,v_estimated,yaw_estimated,heading_estimated,x_estimated,y_estimated,GPS_timestamp,x_GPS,y_GPS,status,NMEA timestamp
0.04255,57.68800950,11.98127850,57.68801,11.98128,17:04:34.758653,0.04251,0.00000,-0.00120,0.03263,-0.06397,0.01143,-0.00550,0.00671,-0.01739,1.02315,0.00001,0.00000,0.88527,0.89496,0.08916,0.11119,0.01461,0.08916,0.11119,A,170434.60
0.05442,57.68801050,11.98128000,57.68801,11.98128,17:04:34.770488,0.00613,0.00000,-0.00508,0.03487,-0.06580,0.01433,0.00045,0.00232,-0.02989,0.96020,0.04806,0.00000,0.88527,0.89563,0.08916,0.11119,0.01461,0.08916,0.11119,A,170434.60
0.06220,57.68801050,11.98128000,57.68801,11.98128,17:04:34.778275,0.00334,0.00000,-0.00631,0.03552,-0.05939,0.00563,-0.00077,0.01135,-0.02367,0.95111,0.05864,0.00000,0.88527,0.89563,0.08916,0.11119,0.01461,0.08916,0.11119,A,170434.60
0.07206,57.68801050,11.98128000,57.68801,11.98128,17:04:34.788112,0.00296,0.00000,-0.00752,0.03623,-0.06213,0.00685,-0.00046,0.03032,-0.02434,0.94666,0.06851,0.00000,0.88527,0.89563,0.08916,0.11119,0.01461,0.08916,0.11119,A,170434.60
0.08262,57.68801050,11.98128000,57.68801,11.98128,17:04:34.798677,0.00312,0.00000,-0.00892,0.03702,-0.06213,0.00151,-0.00199,0.03209,-0.03538,0.96301,0.07907,0.00000,0.88527,0.89563,0.08916,0.11119,0.01461,0.08916,0.11119,A,170434.60
0.09304,57.68801050,11.98128000,57.68801,11.98128,17:04:34.809103,0.00314,0.00000,-0.01021,0.03778,-0.05358,-0.00033,-0.00092,-0.00043,-0.03825,1.00388,0.08926,0.00000,0.88527,0.89563,0.08916,0.11119,0.01461,0.08916,0.11119,A,170434.60
0.10356,57.68801050,11.98128000,57.68801,11.98128,17:04:34.819620,0.00327,0.00000,-0.01160,0.03858,-0.05404,0.00624,-0.00169,0.00024,-0.04502,1.02651,0.10001,0.00000,0.88527,0.89563,0.08916,0.11119,0.01461,0.08916,0.11119,A,170434.60
0.11380,57.68801050,11.98128000,57.68801,11.98128,17:04:34.829862,0.00312,0.00000,-0.01291,0.03931,-0.05954,0.00960,-0.00352,-0.01391,-0.04038,1.05975,0.11024,0.00000,0.88527,0.89563,0.08916,0.11119,0.01461,0.08916,0.11119,A,170434.60
0.13589,57.68801050,11.98128000,57.68801,11.98128,17:04:34.851958,0.01489,0.00000,-0.01402,0.04002,-0.05496,0.01235,-0.00001,0.04136,-0.02959,1.02090,0.12041,0.00000,0.88527,0.89563,0.08916,0.11119,0.13462,0.09906,0.16679,A,170434.70
0.15078,57.68801053,11.98128001,57.68801,11.98128,17:04:34.866864,0.00779,0.00000,-0.01558,0.04138,-0.04137,0.00762,-0.00031,0.02068,-0.03172,0.97258,0.14400,0.00000,0.92019,0.93248,0.08965,0.11397,0.13462,0.09906,0.16679,A,170434.70
0.15620,57.68801053,11.98128001,57.68801,11.98128,17:04:34.872272,0.00298,0.00000,-0.01669,0.04192,-0.04182,0.00517,-0.00046,-0.00573,-0.04386,0.97020,0.15264,0.00000,0.92019,0.93248,0.08965,0.11397,0.13462,0.09906,0.16679,A,170434.70
0.16675,57.68801053,11.98128001,57.68801,11.98128,17:04:34.882828,0.00314,0.00000,-0.01783,0.04240,-0.03403,0.00700,-0.00001,-0.00183,-0.04618,0.95947,0.16320,0.00000,0.92019,0.93248,0.08965,0.11397,0.13462,0.09906,0.16679,A,170434.70
0.17741,57.68801053,11.98128001,57.68801,11.98128,17:04:34.893483,0.00340,0.00000,-0.01915,0.04279,-0.03602,0.00487,-0.00138,-0.01507,-0.05856,0.98003,0.17384,0.00000,0.92019,0.93248,0.08965,0.11397,0.13462,0.09906,0.16679,A,170434.70
0.18762,57.68801053,11.98128001,57.68801,11.98128,17:04:34.903697,0.00322,0.00000,-0.01998,0.04310,-0.03052,0.01403,-0.00443,-0.02965,-0.03294,1.01467,0.18406,0.00000,0.92019,0.93248,0.08965,0.11397,0.13462,0.09906,0.16679,A,170434.70
0.19781,57.68801053,11.98128001,57.68801,11.98128,17:04:34.913887,0.00301,0.00000,-0.02106,0.04325,-0.03006,0.02121,-0.00688,-0.01781,-0.05331,1.04029,0.19425,0.00000,0.92019,0.93248,0.08965,0.11397,0.13462,0.09906,0.16679,A,170434.70
0.20797,57.68801053,11.98128001,57.68801,11.98128,17:04:34.924045,0.00295,0.00000,-0.02187,0.04333,-0.02823,0.02762,-0.00627,-0.01043,-0.03678,1.05316,0.20442,0.00000,0.92019,0.93248,0.08965,0.11397,0.13462,0.09906,0.16679,A,170434.70
0.21852,57.68801053,11.98128001,57.68801,11.98128,17:04:34.934593,0.00310,0.00000,-0.02275,0.04339,-0.03037,0.02884,-0.00046,0.05356,-0.03892,1.00180,0.21497,0.00000,0.92019,0.93248,0.08965,0.11397,0.13462,0.09906,0.16679,A,170434.70
0.22895,57.68801053,11.98128001,57.68801,11.98128,17:04:34.945031,0.00313,0.00000,-0.02335,0.04344,-0.02640,0.01311,-0.00367,0.01610,-0.02379,0.99576,0.22519,0.00000,0.92019,0.93248,0.08965,0.11397,0.13462,0.09906,0.16679,A,170434.70
0.26140,57.68801053,11.98128001,57.68801,11.98128,17:04:34.977483,0.02519,0.00000,-0.02390,0.04347,-0.01067,0.01067,-0.00336,-0.00579,-0.03099,0.99119,0.23578,0.00000,0.92019,0.93248,0.08965,0.11397,0.26002,0.11887,0.18532,A,170434.90
0.27863,57.68801056,11.98128003,57.68801,11.98128,17:04:34.994690,0.00558,0.00000,-0.02491,0.04364,-0.00135,0.00303,-0.00535,0.01324,-0.06783,1.00302,0.27258,0.00000,0.90756,0.92052,0.09111,0.11754,0.26002,0.11887,0.18532,A,170434.90
0.28821,57.68801056,11.98128003,57.68801,11.98128,17:04:35.004282,0.00477,0.00000,-0.02559,0.04376,0.00506,-0.00201,-0.00260,-0.00714,-0.05228,0.99058,0.28464,0.00000,0.90756,0.92052,0.09111,0.11754,0.26002,0.11887,0.18532,A,170434.90
0.29733,57.68801056,11.98128003,57.68801,11.98128,17:04:35.013397,0.00328,0.00000,-0.02611,0.04387,0.00934,0.00273,0.00091,-0.05868,-0.04483,1.00083,0.29375,0.00000,0.90756,0.92052,0.09111,0.11754,0.26002,0.11887,0.18532,A,170434.90
0.30757,57.68801056,11.98128003,57.68801,11.98128,17:04:35.023621,0.00313,0.00000,-0.02634,0.04407,0.01545,0.01632,0.00076,-0.06557,-0.03062,0.99589,0.30401,0.00000,0.90756,0.92052,0.09111,0.11754,0.26002,0.11887,0.18532,A,170434.90
0.31796,57.68801056,11.98128003,57.68801,11.98128,17:04:35.034023,0.00313,0.00000,-0.02681,0.04427,0.02171,0.02335,0.00381,-0.02830,-0.05081,0.98088,0.31440,0.00000,0.90756,0.92052,0.09111,0.11754,0.26002,0.11887,0.18532,A,170434.90
0.32802,57.68801056,11.98128003,57.68801,11.98128,17:04:35.044079,0.00296,0.00000,-0.02698,0.04449,0.01942,0.02105,0.00641,-0.00378,-0.02995,0.99229,0.32447,0.00000,0.90756,0.92052,0.09111,0.11754,0.26002,0.11887,0.18532,A,170434.90
0.33857,57.68801056,11.98128003,57.68801,11.98128,17:04:35.054621,0.00311,0.00000,-0.02731,0.04466,0.02232,0.01968,0.00198,0.02940,-0.04191,0.97149,0.33502,0.00000,0.90756,0.92052,0.09111,0.11754,0.26002,0.11887,0.18532,A,170434.90
0.34898,57.68801056,11.98128003,57.68801,11.98128,17:04:35.065046,0.00314,0.00000,-0.02726,0.04477,0.02766,0.00960,-0.00092,-0.00207,-0.02159,1.00174,0.34522,0.00000,0.90756,0.92052,0.09111,0.11754,0.26002,0.11887,0.18532,A,170434.90
0.35936,57.68801056,11.98128003,57.68801,11.98128,17:04:35.075412,0.00312,0.00000,-0.02743,0.04483,0.02873,0.00853,0.00152,-0.01025,-0.03727,1.00125,0.35581,0.00000,0.90756,0.92052,0.09111,0.11754,0.26002,0.11887,0.18532,A,170434.90
0.38210,57.68801056,11.98128003,57.68801,11.98128,17:04:35.098170,0.01547,0.00000,-0.02772,0.04492,0.03270,0.00242,-0.00184,-0.02458,-0.04947,1.02065,0.36620,0.00000,0.90756,0.92052,0.09111,0.11754,0.38082,0.14859,0.18532,A,170435.00
0.39851,57.68801059,11.98128008,57.68801,11.98128,17:04:35.114577,0.00748,0.00000,-0.02731,0.04540,0.03072,-0.00017,0.00305,-0.03825,-0.03111,1.03517,0.39154,0.00000,0.84313,0.85661,0.09399,0.12093,0.38082,0.14859,0.18532,A,170435.00
0.40437,57.68801059,11.98128008,57.68801,11.98128,17:04:35.120648,0.00310,0.00000,-0.02739,0.04577,0.03621,0.00410,0.00473,-0.02416,-0.03385,1.00931,0.40080,0.00000,0.84313,0.85661,0.09399,0.12093,0.38082,0.14859,0.18532,A,170435.00
0.41479,57.68801059,11.98128008,57.68801,11.98128,17:04:35.130851,0.00313,0.00000,-0.02732,0.04619,0.03515,0.00532,0.01023,-0.04654,-0.02580,0.98808,0.41124,0.00000,0.84313,0.85661,0.09399,0.12093,0.38082,0.14859,0.18532,A,170435.00
0.42520,57.68801059,11.98128008,57.68801,11.98128,17:04:35.141261,0.00315,0.00000,-0.02710,0.04667,0.04125,0.00578,0.01221,-0.01616,-0.01787,0.93739,0.42143,0.00000,0.84313,0.85661,0.09399,0.12093,0.38082,0.14859,0.18532,A,170435.00
0.43578,57.68801059,11.98128008,57.68801,11.98128,17:04:35.151833,0.00333,0.00000,-0.02666,0.04721,0.04400,-0.00781,0.01252,0.03904,-0.00726,0.88047,0.43223,0.00000,0.84313,0.85661,0.09399,0.12093,0.38082,0.14859,0.18532,A,170435.00
0.44600,57.68801059,11.98128008,57.68801,11.98128,17:04:35.162056,0.00315,0.00000,-0.02626,0.04769,0.04095,-0.02537,0.00534,-0.00732,-0.00567,0.92409,0.44244,0.00000,0.84313,0.85661,0.09399,0.12093,0.38082,0.14859,0.18532,A,170435.00
0.45602,57.68801059,11.98128008,57.68801,11.98128,17:04:35.172077,0.00295,0.00000,-0.02610,0.04817,0.04324,-0.03576,-0.00321,-0.05813,-0.02342,1.00278,0.45248,0.00000,0.84313,0.85661,0.09399,0.12093,0.38082,0.14859,0.18532,A,170435.00
0.46665,57.68801059,11.98128008,57.68801,11.98128,17:04:35.182707,0.00313,0.00000,-0.02640,0.04868,0.03744,-0.02094,-0.00459,-0.10626,-0.05600,1.10160,0.46310,0.00000,0.84313,0.85661,0.09399,0.12093,0.38082,0.14859,0.18532,A,170435.00
0.47727,57.68801059,11.98128008,57.68801,11.98128,17:04:35.193332,0.00334,0.00000,-0.02674,0.04916,0.02232,-0.00063,-0.00917,-0.10114,-0.04965,1.14430,0.47368,0.00000,0.84313,0.85661,0.09399,0.12093,0.38082,0.14859,0.18532,A,170435.00
0.49931,57.68801059,11.98128008,57.68801,11.98128,17:04:35.215372,0.01499,0.00000,-0.02693,0.04970,0.02003,0.01937,-0.00657,-0.02208,-0.03593,1.11471,0.48389,0.00000,0.84313,0.85661,0.09399,0.12093,0.49805,0.22784,0.22239,A,170435.10
0.52050,57.68801063,11.98128019,57.68801,11.98128,17:04:35.236825,0.00897,0.00000,-0.02573,0.05131,0.01713,-0.01178,0.00962,-0.02867,0.03587,0.90195,0.51489,0.00000,0.81379,0.82903,0.10068,0.12600,0.49805,0.22784,0.22239,A,170435.10
0.52549,57.68801063,11.98128019,57.68801,11.98128,17:04:35.241578,0.00377,0.00000,-0.02518,0.05151,0.02583,-0.01193,0.00946,-0.05557,0.01940,0.90890,0.52106,0.00000,0.81379,0.82903,0.10068,0.12600,0.49805,0.22784,0.22239,A,170435.10
0.53528,57.68801063,11.98128019,57.68801,11.98128,17:04:35.251334,0.00315,0.00000,-0.02519,0.05162,0.01774,-0.00979,0.00794,-0.09778,-0.01641,0.94818,0.53172,0.00000,0.81379,0.82903,0.10068,0.12600,0.49805,0.22784,0.22239,A,170435.10
0.54557,57.68801063,11.98128019,57.68801,11.98128,17:04:35.261628,0.00319,0.00000,-0.02594,0.05162,0.01697,0.00731,0.00137,-0.04276,-0.06472,0.98539,0.54199,0.00000,0.81379,0.82903,0.10068,0.12600,0.49805,0.22784,0.22239,A,170435.10
0.55587,57.68801063,11.98128019,57.68801,11.98128,17:04:35.271926,0.00295,0.00000,-0.02680,0.05162,-0.00181,0.00792,0.00061,0.01873,-0.06124,1.00394,0.55232,0.00000,0.81379,0.82903,0.10068,0.12600,0.49805,0.22784,0.22239,A,170435.10
0.56643,57.68801063,11.98128019,57.68801,11.98128,17:04:35.282486,0.00313,0.00000,-0.02697,0.05162,-0.01113,0.00135,-0.00199,0.00403,-0.00994,1.05774,0.56288,0.00000,0.81379,0.82903,0.10068,0.12600,0.49805,0.22784,0.22239,A,170435.10
0.57703,57.68801063,11.98128019,57.68801,11.98128,17:04:35.293105,0.00334,0.00000,-0.02678,0.05168,-0.01265,-0.00109,0.00167,-0.04581,0.01659,1.07049,0.57309,0.00000,0.81379,0.82903,0.10068,0.12600,0.49805,0.22784,0.22239,A,170435.10
0.58725,57.68801063,11.98128019,57.68801,11.98128,17:04:35.303303,0.00316,0.00000,-0.02654,0.05177,-0.01250,0.00426,0.00167,-0.07137,0.01952,1.05121,0.58369,0.00000,0.81379,0.82903,0.10068,0.12600,0.49805,0.22784,0.22239,A,170435.10
0.59761,57.68801063,11.98128019,57.68801,11.98128,17:04:35.313666,0.00313,0.00000,-0.02666,0.05185,-0.01189,0.00930,0.00137,-0.01092,-0.00549,0.97545,0.59406,0.00000,0.81379,0.82903,0.10068,0.12600,0.49805,0.22784,0.22239,A,170435.10
0.62010,57.68801063,11.98128019,57.68801,11.98128,17:04:35.336196,0.01510,0.00000,-0.02688,0.05196,-0.00914,-0.00369,0.00274,0.00049,-0.01311,0.94154,0.60438,0.00000,0.81379,0.82903,0.10068,0.12600,0.61850,0.22784,0.22239,A,170435.20
0.63561,57.68801068,11.98128030,57.68801,11.98128,17:04:35.351678,0.00686,0.00000,-0.02773,0.05236,-0.01449,-0.02064,0.00519,-0.08082,-0.04063,1.03053,0.62826,0.00000,0.75575,0.77131,0.10704,0.13082,0.61850,0.22784,0.22239,A,170435.20
0.64322,57.68801068,11.98128030,57.68801,11.98128,17:04:35.359291,0.00349,0.00000,-0.02864,0.05276,-0.02548,-0.00292,0.00442,-0.06399,-0.05100,1.05347,0.63966,0.00000,0.75575,0.77131,0.10704,0.13082,0.61850,0.22784,0.22239,A,170435.20
0.65327,57.68801068,11.98128030,57.68801,11.98128,17:04:35.369331,0.00314,0.00000,-0.02930,0.05327,-0.02747,0.00151,0.00565,-0.03001,-0.03428,1.02651,0.64970,0.00000,0.75575,0.77131,0.10704,0.13082,0.61850,0.22784,0.22239,A,170435.20
0.66373,57.68801068,11.98128030,57.68801,11.98128,17:04:35.379791,0.00320,0.00000,-0.02926,0.05392,-0.03052,0.00090,0.00809,-0.01897,0.01452,0.97246,0.66018,0.00000,0.75575,0.77131,0.10704,0.13082,0.61850,0.22784,0.22239,A,170435.20
0.67445,57.68801068,11.98128030,57.68801,11.98128,17:04:35.390507,0.00352,0.00000,-0.02918,0.05454,-0.02426,0.00196,0.00794,-0.03867,0.01342,0.94526,0.67087,0.00000,0.75575,0.77131,0.10704,0.13082,0.61850,0.22784,0.22239,A,170435.20
0.68413,57.68801068,11.98128030,57.68801,11.98128,17:04:35.400193,0.00297,0.00000,-0.02913,0.05516,-0.02243,0.01143,0.00610,-0.08577,0.00927,0.96356,0.68058,0.00000,0.75575,0.77131,0.10704,0.13082,0.61850,0.22784,0.22239,A,170435.20
0.69477,57.68801068,11.98128030,57.68801,11.98128,17:04:35.410822,0.00321,0.00000,-0.02983,0.05590,-0.01922,0.01220,0.01191,-0.05484,-0.04050,0.98088,0.69121,0.00000,0.75575,0.77131,0.10704,0.13082,0.61850,0.22784,0.22239,A,170435.20
0.70510,57.68801068,11.98128030,57.68801,11.98128,17:04:35.421161,0.00315,0.00000,-0.03053,0.05666,-0.02472,0.01098,0.00656,-0.03154,-0.04056,1.02669,0.70132,0.00000,0.75575,0.77131,0.10704,0.13082,0.61850,0.22784,0.22239,A,170435.20
0.71547,57.68801068,11.98128030,57.68801,11.98128,17:04:35.431522,0.00313,0.00000,-0.03120,0.05760,-0.02854,0.00914,0.00870,0.00390,-0.03569,1.05554,0.71192,0.00000,0.75575,0.77131,0.10704,0.13082,0.61850,0.22784,0.22239,A,170435.20
0.73772,57.68801068,11.98128030,57.68801,11.98128,17:04:35.453785,0.01498,0.00000,-0.03168,0.05870,-0.03358,-0.00796,0.00855,0.02318,-0.02135,1.08312,0.72224,0.00000,0.75575,0.77131,0.10704,0.13082,0.73629,0.22784,0.33358,A,170435.30
0.75197,57.68801077,11.98128040,57.68801,11.98128,17:04:35.468074,0.00659,0.00000,-0.03277,0.06167,-0.02869,-0.01667,0.01221,-0.07753,-0.04020,0.99955,0.74506,0.00000,0.81172,0.83004,0.11308,0.14096,0.73629,0.22784,0.33358,A,170435.30
0.75892,57.68801077,11.98128040,57.68801,11.98128,17:04:35.474981,0.00315,0.00000,-0.03311,0.06323,-0.02747,-0.00338,0.01527,-0.12389,-0.01537,0.98222,0.75538,0.00000,0.81172,0.83004,0.11308,0.14096,0.73629,0.22784,0.33358,A,170435.30
0.76934,57.68801077,11.98128040,57.68801,11.98128,17:04:35.485404,0.00317,0.00000,-0.03349,0.06481,-0.02655,0.01265,0.01634,-0.11791,-0.01818,0.94977,0.76578,0.00000,0.81172,0.83004,0.11308,0.14096,0.73629,0.22784,0.33358,A,170435.30
0.77992,57.68801077,11.98128040,57.68801,11.98128,17:04:35.495983,0.00316,0.00000,-0.03342,0.06643,-0.02365,0.02533,0.01985,-0.06600,0.00781,0.93568,0.77637,0.00000,0.81172,0.83004,0.11308,0.14096,0.73629,0.22784,0.33358,A,170435.30
0.79030,57.68801077,11.98128040,57.68801,11.98128,17:04:35.506353,0.00314,0.00000,-0.03382,0.06767,-0.02472,0.02350,0.02031,-0.01623,-0.02050,0.93074,0.78675,0.00000,0.81172,0.83004,0.11308,0.14096,0.73629,0.22784,0.33358,A,170435.30
0.80038,57.68801077,11.98128040,57.68801,11.98128,17:04:35.516645,0.00299,0.00000,-0.03446,0.06866,-0.03022,0.02151,0.01725,-0.04776,-0.03398,0.95282,0.79683,0.00000,0.81172,0.83004,0.11308,0.14096,0.73629,0.22784,0.33358,A,170435.30
0.81107,57.68801077,11.98128040,57.68801,11.98128,17:04:35.527128,0.00329,0.00000,-0.03529,0.06940,-0.03755,0.01388,0.01007,-0.05716,-0.04209,0.98777,0.80752,0.00000,0.81172,0.83004,0.11308,0.14096,0.73629,0.22784,0.33358,A,170435.30
0.82133,57.68801077,11.98128040,57.68801,11.98128,17:04:35.537391,0.00315,0.00000,-0.03590,0.06985,-0.04075,0.01922,0.00183,-0.08760,-0.03019,1.09641,0.81776,0.00000,0.81172,0.83004,0.11308,0.14096,0.73629,0.22784,0.33358,A,170435.30
0.83173,57.68801077,11.98128040,57.68801,11.98128,17:04:35.547781,0.00297,0.00000,-0.03615,0.07011,-0.04167,0.03006,-0.00672,0.03105,-0.00335,1.07787,0.82817,0.00000,0.81172,0.83004,0.11308,0.14096,0.73629,0.22784,0.33358,A,170435.30
0.86476,57.68801077,11.98128040,57.68801,11.98128,17:04:35.580847,0.02561,0.00000,-0.03663,0.07019,-0.03816,0.00380,0.00152,0.09797,-0.02013,1.01150,0.83894,0.00000,0.81172,0.83004,0.11308,0.14096,0.86330,0.18822,0.50038,A,170435.50
0.88052,57.68801093,11.98128047,57.68801,11.98128,17:04:35.596814,0.00683,0.00000,-0.03782,0.07062,-0.03190,0.01372,0.02855,-0.19923,-0.02043,0.97203,0.87418,0.00000,0.87990,0.90089,0.11683,0.15893,0.86330,0.18822,0.50038,A,170435.50
0.88802,57.68801093,11.98128047,57.68801,11.98128,17:04:35.604072,0.00394,0.00000,-0.03853,0.07070,-0.03495,0.03785,0.03176,-0.10077,-0.03965,0.97460,0.88445,0.00000,0.87990,0.90089,0.11683,0.15893,0.86330,0.18822,0.50038,A,170435.50
0.89762,57.68801093,11.98128047,57.68801,11.98128,17:04:35.613679,0.00314,0.00000,-0.03873,0.07070,-0.03434,0.03969,0.03008,0.04892,-0.00909,0.95349,0.89406,0.00000,0.87990,0.90089,0.11683,0.15893,0.86330,0.18822,0.50038,A,170435.50
0.90794,57.68801093,11.98128047,57.68801,11.98128,17:04:35.623996,0.00295,0.00000,-0.03924,0.07070,-0.03465,0.01281,0.02321,0.11004,-0.02696,0.96112,0.90440,0.00000,0.87990,0.90089,0.11683,0.15893,0.86330,0.18822,0.50038,A,170435.50
0.91852,57.68801093,11.98128047,57.68801,11.98128,17:04:35.634580,0.00313,0.00000,-0.03922,0.07070,-0.03953,-0.01819,0.01252,0.00415,0.01135,1.04340,0.91497,0.00000,0.87990,0.90089,0.11683,0.15893,0.86330,0.18822,0.50038,A,170435.50
0.92900,57.68801093,11.98128047,57.68801,11.98128,17:04:35.645071,0.00321,0.00000,-0.03928,0.07070,-0.03449,-0.02705,-0.00062,-0.10285,0.00061,1.09397,0.92516,0.00000,0.87990,0.90089,0.11683,0.15893,0.86330,0.18822,0.50038,A,170435.50
0.93933,57.68801093,11.98128047,57.68801,11.98128,17:04:35.655387,0.00315,0.00000,-0.03975,0.07070,-0.03281,-0.01178,-0.00474,-0.15097,-0.02946,1.11654,0.93578,0.00000,0.87990,0.90089,0.11683,0.15893,0.86330,0.18822,0.50038,A,170435.50
0.94972,57.68801093,11.98128047,57.68801,11.98128,17:04:35.665774,0.00314,0.00000,-0.04095,0.07078,-0.03342,0.01006,-0.00459,-0.03087,-0.07906,1.03834,0.94615,0.00000,0.87990,0.90089,0.11683,0.15893,0.86330,0.18822,0.50038,A,170435.50
0.95994,57.68801093,11.98128047,57.68801,11.98128,17:04:35.675995,0.00293,0.00000,-0.04243,0.07101,-0.04289,0.00471,0.00106,0.06966,-0.08253,0.91744,0.95639,0.00000,0.87990,0.90089,0.11683,0.15893,0.86330,0.18822,0.50038,A,170435.50
0.98369,57.68801093,11.98128047,57.68801,11.98128,17:04:35.699760,0.01629,0.00000,-0.04334,0.07138,-0.04610,-0.00949,0.01435,0.02544,-0.04441,0.88023,0.96697,0.00000,0.87990,0.90089,0.11683,0.15893,0.98240,0.19812,0.59304,A,170435.60
0.99921,57.68801112,11.98128053,57.68801,11.98128,17:04:35.715278,0.00703,0.00000,-0.04386,0.07228,-0.02502,0.01617,0.03023,-0.16671,-0.01281,0.98417,0.99364,0.00000,0.91934,0.94082,0.12090,0.18064,0.98240,0.19812,0.59304,A,170435.60
1.00572,57.68801112,11.98128053,57.68801,11.98128,17:04:35.721768,0.00313,0.00000,-0.04409,0.07234,-0.02609,0.02686,0.02962,-0.04374,-0.02348,0.99735,1.00215,0.00000,0.91934,0.94082,0.12090,0.18064,0.98240,0.19812,0.59304,A,170435.60
1.01596,57.68801112,11.98128053,57.68801,11.98128,17:04:35.732013,0.00296,0.00000,-0.04444,0.07234,-0.02564,0.02518,0.02748,0.09357,-0.02916,0.99802,1.01240,0.00000,0.91934,0.94082,0.12090,0.18064,0.98240,0.19812,0.59304,A,170435.60
1.02651,57.68801112,11.98128053,57.68801,11.98128,17:04:35.742564,0.00312,0.00000,-0.04481,0.07234,-0.02762,-0.00246,0.02061,0.10211,-0.03056,1.04261,1.02296,0.00000,0.91934,0.94082,0.12090,0.18064,0.98240,0.19812,0.59304,A,170435.60
1.03706,57.68801112,11.98128053,57.68801,11.98128,17:04:35.753129,0.00327,0.00000,-0.04535,0.07234,-0.02900,-0.02812,0.01404,-0.03416,-0.04465,1.12075,1.03316,0.00000,0.91934,0.94082,0.12090,0.18064,0.98240,0.19812,0.59304,A,170435.60
1.04748,57.68801112,11.98128053,57.68801,11.98128,17:04:35.763534,0.00330,0.00000,-0.04606,0.07234,-0.02625,-0.02812,0.00809,-0.10968,-0.05972,1.11331,1.04393,0.00000,0.91934,0.94082,0.12090,0.18064,0.98240,0.19812,0.59304,A,170435.60
1.05780,57.68801112,11.98128053,57.68801,11.98128,17:04:35.773859,0.00322,0.00000,-0.04698,0.07240,-0.03190,-0.01529,0.00519,-0.13603,-0.06966,1.07409,1.05423,0.00000,0.91934,0.94082,0.12090,0.18064,0.98240,0.19812,0.59304,A,170435.60
1.06795,57.68801112,11.98128053,57.68801,11.98128,17:04:35.783996,0.00294,0.00000,-0.04754,0.07254,-0.03190,0.00181,0.00809,-0.01318,-0.04203,0.99595,1.06439,0.00000,0.91934,0.94082,0.12090,0.18064,0.98240,0.19812,0.59304,A,170435.60
1.07877,57.68801112,11.98128053,57.68801,11.98128,17:04:35.794835,0.00336,0.00000,-0.04815,0.07288,-0.02472,-0.00521,0.01435,0.03941,-0.04618,0.93062,1.07520,0.00000,0.91934,0.94082,0.12090,0.18064,0.98240,0.19812,0.59304,A,170435.60
1.10164,57.68801112,11.98128053,57.68801,11.98128,17:04:35.817714,0.01584,0.00000,-0.04823,0.07328,-0.01846,-0.02247,0.02687,0.01531,-0.01793,0.89585,1.08518,0.00000,0.91934,0.94082,0.12090,0.18064,1.10030,0.19812,0.70423,A,170435.70
1.11548,57.68801136,11.98128060,57.68801,11.98128,17:04:35.832012,0.00659,0.00000,-0.04848,0.07429,-0.00899,-0.02766,0.03466,-0.13060,-0.02916,0.96356,1.10842,0.00000,0.96343,0.98552,0.12476,0.20682,1.10030,0.19812,0.70423,A,170435.70
1.12245,57.68801136,11.98128060,57.68801,11.98128,17:04:35.838505,0.00315,0.00000,-0.04924,0.07461,-0.00563,-0.01041,0.02748,-0.11053,-0.07472,1.00473,1.11890,0.00000,0.96343,0.98552,0.12476,0.20682,1.10030,0.19812,0.70423,A,170435.70
1.13283,57.68801136,11.98128060,57.68801,11.98128,17:04:35.848903,0.00315,0.00000,-0.04965,0.07475,-0.01113,0.00670,0.02061,-0.06710,-0.04959,1.03218,1.12907,0.00000,0.96343,0.98552,0.12476,0.20682,1.10030,0.19812,0.70423,A,170435.70
1.14344,57.68801136,11.98128060,57.68801,11.98128,17:04:35.859486,0.00335,0.00000,-0.05024,0.07478,-0.00899,0.01372,0.01847,0.01848,-0.06063,0.97813,1.13988,0.00000,0.96343,0.98552,0.12476,0.20682,1.10030,0.19812,0.70423,A,170435.70
1.15360,57.68801136,11.98128060,57.68801,11.98128,17:04:35.869661,0.00313,0.00000,-0.05029,0.07478,-0.01433,0.00059,0.01099,-0.01732,-0.02257,1.00260,1.15004,0.00000,0.96343,0.98552,0.12476,0.20682,1.10030,0.19812,0.70423,A,170435.70
1.16395,57.68801136,11.98128060,57.68801,11.98128,17:04:35.880001,0.00296,0.00000,-0.05030,0.07478,-0.01311,-0.00155,0.01420,-0.09180,-0.02227,1.03950,1.16040,0.00000,0.96343,0.98552,0.12476,0.20682,1.10030,0.19812,0.70423,A,170435.70
1.17452,57.68801136,11.98128060,57.68801,11.98128,17:04:35.890570,0.00312,0.00000,-0.05024,0.07480,-0.01082,-0.00430,0.01282,-0.09473,-0.01915,1.07244,1.17096,0.00000,0.96343,0.98552,0.12476,0.20682,1.10030,0.19812,0.70423,A,170435.70
1.18519,57.68801136,11.98128060,57.68801,11.98128,17:04:35.901260,0.00339,0.00000,-0.05001,0.07480,-0.00868,0.00334,0.01481,-0.04538,-0.00817,1.03938,1.18118,0.00000,0.96343,0.98552,0.12476,0.20682,1.10030,0.19812,0.70423,A,170435.70
1.19545,57.68801136,11.98128060,57.68801,11.98128,17:04:35.911515,0.00326,0.00000,-0.04987,0.07480,0.00521,-0.00430,0.01802,0.02611,-0.02300,0.99863,1.19189,0.00000,0.96343,0.98552,0.12476,0.20682,1.10030,0.19812,0.70423,A,170435.70
1.21830,57.68801136,11.98128060,57.68802,11.98128,17:04:35.934360,0.01571,0.00000,-0.05013,0.07480,0.00812,-0.01651,0.02092,0.01159,-0.05002,0.96301,1.20216,0.00000,0.96343,0.98552,0.12476,0.20682,1.21705,0.23775,0.77836,A,170435.80
1.23370,57.68801162,11.98128069,57.68802,11.98128,17:04:35.949764,0.00775,0.00000,-0.05068,0.07480,-0.00700,-0.02232,0.02886,-0.08125,-0.05276,0.98021,1.22786,0.00000,0.97004,0.99228,0.13041,0.23539,1.21705,0.23775,0.77836,A,170435.80
1.23946,57.68801162,11.98128069,57.68802,11.98128,17:04:35.955515,0.00312,0.00000,-0.05068,0.07480,-0.00563,-0.03148,0.02305,-0.03074,-0.02532,0.93714,1.23591,0.00000,0.97004,0.99228,0.13041,0.23539,1.21705,0.23775,0.77836,A,170435.80
1.25005,57.68801162,11.98128069,57.68802,11.98128,17:04:35.966109,0.00331,0.00000,-0.05026,0.07480,0.00017,-0.03148,0.02535,-0.05966,-0.00146,0.94196,1.24647,0.00000,0.97004,0.99228,0.13041,0.23539,1.21705,0.23775,0.77836,A,170435.80
1.25997,57.68801162,11.98128069,57.68802,11.98128,17:04:35.976024,0.00296,0.00000,-0.05035,0.07480,0.00598,-0.02690,0.02214,-0.04465,-0.03782,0.97649,1.25641,0.00000,0.97004,0.99228,0.13041,0.23539,1.21705,0.23775,0.77836,A,170435.80
1.27053,57.68801162,11.98128069,57.68802,11.98128,17:04:35.986586,0.00313,0.00000,-0.05061,0.07480,0.00414,-0.02476,0.02153,-0.08656,-0.05215,1.04133,1.26698,0.00000,0.97004,0.99228,0.13041,0.23539,1.21705,0.23775,0.77836,A,170435.80
1.28120,57.68801162,11.98128069,57.68802,11.98128,17:04:35.997253,0.00339,0.00000,-0.05109,0.07480,-0.00502,-0.02064,0.02107,-0.08363,-0.06191,1.06616,1.27743,0.00000,0.97004,0.99228,0.13041,0.23539,1.21705,0.23775,0.77836,A,170435.80
1.29134,57.68801162,11.98128069,57.68802,11.98128,17:04:36.007394,0.00314,0.00000,-0.05131,0.07480,-0.01174,-0.02278,0.01313,-0.06423,-0.04063,1.10825,1.28778,0.00000,0.97004,0.99228,0.13041,0.23539,1.21705,0.23775,0.77836,A,170435.80
1.30172,57.68801162,11.98128069,57.68802,11.98128,17:04:36.017777,0.00312,0.00000,-0.05106,0.07480,-0.01403,-0.02736,0.01710,-0.01616,-0.00464,1.07189,1.29816,0.00000,0.97004,0.99228,0.13041,0.23539,1.21705,0.23775,0.77836,A,170435.80
1.31203,57.68801162,11.98128069,57.68802,11.98128,17:04:36.028080,0.00297,0.00000,-0.05074,0.07480,-0.01800,-0.04645,0.01572,0.03459,0.00360,0.96008,1.30847,0.00000,0.97004,0.99228,0.13041,0.23539,1.21705,0.23775,0.77836,A,170435.80
1.33538,57.68801162,11.98128069,57.68802,11.98128,17:04:36.051448,0.01587,0.00000,-0.05089,0.07480,-0.01067,-0.04965,0.01542,-0.06149,-0.02879,0.89908,1.31910,0.00000,0.97004,0.99228,0.13041,0.23539,1.33411,0.22784,0.87103,A,170435.90
1.35098,57.68801190,11.98128078,57.68802,11.98128,17:04:36.067045,0.00784,0.00000,-0.05219,0.07480,-0.01754,-0.00674,0.01374,-0.13036,-0.08388,0.96575,1.34520,0.00000,1.01799,1.04023,0.13528,0.26718,1.33411,0.22784,0.87103,A,170435.90
1.35647,57.68801190,11.98128078,57.68802,11.98128,17:04:36.072761,0.00293,0.00000,-0.05284,0.07480,-0.02701,0.00135,0.01511,-0.05435,-0.06088,0.99973,1.35291,0.00000,1.01799,1.04023,0.13528,0.26718,1.33411,0.22784,0.87103,A,170435.90
1.36706,57.68801190,11.98128078,57.68802,11.98128,17:04:36.083117,0.00313,0.00000,-0.05281,0.07480,-0.03327,-0.00903,0.01572,0.03934,-0.00659,1.02809,1.36351,0.00000,1.01799,1.04023,0.13528,0.26718,1.33411,0.22784,0.87103,A,170435.90
1.37748,57.68801190,11.98128078,57.68802,11.98128,17:04:36.093535,0.00315,0.00000,-0.05241,0.07480,-0.03510,-0.02797,0.01817,0.04813,0.02111,1.11776,1.37391,0.00000,1.01799,1.04023,0.13528,0.26718,1.33411,0.22784,0.87103,A,170435.90
1.38783,57.68801190,11.98128078,57.68802,11.98128,17:04:36.103876,0.00296,0.00000,-0.05238,0.07480,-0.02869,-0.04797,0.01206,-0.06368,-0.01128,1.08989,1.38428,0.00000,1.01799,1.04023,0.13528,0.26718,1.33411,0.22784,0.87103,A,170435.90
1.39840,57.68801190,11.98128078,57.68802,11.98128,17:04:36.114450,0.00314,0.00000,-0.05274,0.07480,-0.02243,-0.02980,0.00763,-0.12444,-0.04325,1.09519,1.39484,0.00000,1.01799,1.04023,0.13528,0.26718,1.33411,0.22784,0.87103,A,170435.90
1.40879,57.68801190,11.98128078,57.68802,11.98128,17:04:36.124862,0.00313,0.00000,-0.05329,0.07480,-0.03022,-0.01682,0.00442,-0.10583,-0.05020,1.03584,1.40503,0.00000,1.01799,1.04023,0.13528,0.26718,1.33411,0.22784,0.87103,A,170435.90
1.41919,57.68801190,11.98128078,57.68802,11.98128,17:04:36.135252,0.00314,0.00000,-0.05461,0.07480,-0.04030,-0.00964,0.00427,-0.02727,-0.08827,0.95776,1.41563,0.00000,1.01799,1.04023,0.13528,0.26718,1.33411,0.22784,0.87103,A,170435.90
1.42960,57.68801190,11.98128078,57.68802,11.98128,17:04:36.145664,0.00315,0.00000,-0.05574,0.07480,-0.04060,-0.02766,0.00122,0.01623,-0.07399,0.90542,1.42604,0.00000,1.01799,1.04023,0.13528,0.26718,1.33411,0.22784,0.87103,A,170435.90
1.46390,57.68801190,11.98128078,57.68802,11.98128,17:04:36.179961,0.02691,0.00000,-0.05629,0.07480,-0.04534,-0.03774,0.00290,-0.03922,-0.03642,0.89786,1.43638,0.00000,1.01799,1.04023,0.13528,0.26718,1.46262,0.25756,1.07488,A,170436.10
1.47819,57.68801227,11.98128088,57.68802,11.98128,17:04:36.195378,0.00656,0.00000,-0.05739,0.07444,-0.03633,0.01006,0.01068,-0.02556,-0.02507,1.01138,1.47139,0.00000,1.04500,1.06713,0.14139,0.30756,1.46262,0.25756,1.07488,A,170436.10
1.48527,57.68801227,11.98128088,57.68802,11.98128,17:04:36.201332,0.00324,0.00000,-0.05776,0.07415,-0.04060,-0.00307,0.00855,0.01885,-0.03569,1.02517,1.48142,0.00000,1.04500,1.06713,0.14139,0.30756,1.46262,0.25756,1.07488,A,170436.10
1.49556,57.68801227,11.98128088,57.68802,11.98128,17:04:36.211612,0.00313,0.00000,-0.05829,0.07378,-0.03678,-0.01697,0.00503,0.01342,-0.04685,1.00705,1.49201,0.00000,1.04500,1.06713,0.14139,0.30756,1.46262,0.25756,1.07488,A,170436.10
1.50605,57.68801227,11.98128088,57.68802,11.98128,17:04:36.222108,0.00322,0.00000,-0.05896,0.07333,-0.04396,-0.02400,0.00366,-0.07271,-0.05368,1.04719,1.50248,0.00000,1.04500,1.06713,0.14139,0.30756,1.46262,0.25756,1.07488,A,170436.10
1.51611,57.68801227,11.98128088,57.68802,11.98128,17:04:36.232161,0.00299,0.00000,-0.05957,0.07291,-0.04610,-0.01438,0.00045,-0.09028,-0.04923,1.02346,1.51255,0.00000,1.04500,1.06713,0.14139,0.30756,1.46262,0.25756,1.07488,A,170436.10
1.52664,57.68801227,11.98128088,57.68802,11.98128,17:04:36.242693,0.00312,0.00000,-0.06026,0.07260,-0.05587,-0.00949,0.00381,-0.03141,-0.04441,0.96173,1.52309,0.00000,1.04500,1.06713,0.14139,0.30756,1.46262,0.25756,1.07488,A,170436.10
1.53708,57.68801227,11.98128088,57.68802,11.98128,17:04:36.253135,0.00317,0.00000,-0.06064,0.07237,-0.05587,-0.01224,0.00595,-0.00494,-0.02544,0.94105,1.53330,0.00000,1.04500,1.06713,0.14139,0.30756,1.46262,0.25756,1.07488,A,170436.10
1.54745,57.68801227,11.98128088,57.68802,11.98128,17:04:36.263504,0.00314,0.00000,-0.06139,0.07220,-0.05374,-0.01758,0.00748,-0.03550,-0.05008,0.95916,1.54390,0.00000,1.04500,1.06713,0.14139,0.30756,1.46262,0.25756,1.07488,A,170436.10
1.55787,57.68801227,11.98128088,57.68802,11.98128,17:04:36.273926,0.00317,0.00000,-0.06176,0.07200,-0.05129,-0.01483,0.00565,-0.08156,-0.03087,1.01498,1.55431,0.00000,1.04500,1.06713,0.14139,0.30756,1.46262,0.25756,1.07488,A,170436.10
1.58014,57.68801227,11.98128088,57.68802,11.98128,17:04:36.296205,0.01513,0.00000,-0.06244,0.07183,-0.04992,-0.00460,0.00885,-0.04666,-0.05252,0.99979,1.56440,0.00000,1.04500,1.06713,0.14139,0.30756,1.57858,0.19812,1.09342,A,170436.20
1.59542,57.68801262,11.98128093,57.68802,11.98128,17:04:36.311481,0.00665,0.00000,-0.06400,0.07149,-0.05312,-0.01178,0.01175,-0.03544,-0.05887,0.98491,1.58912,0.00000,1.16905,1.19031,0.14423,0.34685,1.57858,0.19812,1.09342,A,170436.20
1.60234,57.68801262,11.98128093,57.68802,11.98128,17:04:36.318403,0.00333,0.00000,-0.06448,0.07146,-0.05236,-0.01056,0.00870,-0.02751,-0.04191,1.00857,1.59877,0.00000,1.16905,1.19031,0.14423,0.34685,1.57858,0.19812,1.09342,A,170436.20
1.61222,57.68801262,11.98128093,57.68802,11.98128,17:04:36.328269,0.00298,0.00000,-0.06550,0.07146,-0.05175,-0.01361,0.00977,-0.03422,-0.08046,1.03212,1.60866,0.00000,1.16905,1.19031,0.14423,0.34685,1.57858,0.19812,1.09342,A,170436.20
1.62312,57.68801262,11.98128093,57.68802,11.98128,17:04:36.339179,0.00348,0.00000,-0.06624,0.07146,-0.05404,-0.02079,0.00748,-0.05996,-0.05642,1.01638,1.61956,0.00000,1.16905,1.19031,0.14423,0.34685,1.57858,0.19812,1.09342,A,170436.20
1.63333,57.68801262,11.98128093,57.68802,11.98128,17:04:36.349388,0.00329,0.00000,-0.06641,0.07146,-0.05816,-0.01422,0.00717,-0.06387,-0.01964,1.03480,1.62940,0.00000,1.16905,1.19031,0.14423,0.34685,1.57858,0.19812,1.09342,A,170436.20
1.64374,57.68801262,11.98128093,57.68802,11.98128,17:04:36.359800,0.00331,0.00000,-0.06689,0.07146,-0.05038,-0.01102,0.00733,-0.04307,-0.04093,0.99015,1.64018,0.00000,1.16905,1.19031,0.14423,0.34685,1.57858,0.19812,1.09342,A,170436.20
1.65383,57.68801262,11.98128093,57.68802,11.98128,17:04:36.369880,0.00316,0.00000,-0.06737,0.07146,-0.04564,-0.00170,0.00839,-0.04544,-0.04709,0.97911,1.65025,0.00000,1.16905,1.19031,0.14423,0.34685,1.57858,0.19812,1.09342,A,170436.20
1.66402,57.68801262,11.98128093,57.68802,11.98128,17:04:36.380078,0.00297,0.00000,-0.06802,0.07146,-0.04595,0.00364,0.00473,-0.05087,-0.05777,0.98277,1.66047,0.00000,1.16905,1.19031,0.14423,0.34685,1.57858,0.19812,1.09342,A,170436.20
1.67459,57.68801262,11.98128093,57.68802,11.98128,17:04:36.390639,0.00314,0.00000,-0.06883,0.07146,-0.04182,0.00059,0.00870,-0.07143,-0.07210,1.00028,1.67103,0.00000,1.16905,1.19031,0.14423,0.34685,1.57858,0.19812,1.09342,A,170436.20
1.69758,57.68801262,11.98128093,57.68802,11.98128,17:04:36.413643,0.01573,0.00000,-0.06944,0.07146,-0.04274,0.00441,0.00839,-0.05002,-0.05911,0.98905,1.68124,0.00000,1.16905,1.19031,0.14423,0.34685,1.69622,0.12878,1.16755,A,170436.30
1.71189,57.68801299,11.98128091,57.68802,11.98128,17:04:36.427952,0.00635,0.00000,-0.07018,0.07146,-0.03297,-0.00414,0.01511,-0.00451,-0.04575,0.98131,1.70506,0.00000,1.24833,1.26958,0.14346,0.38789,1.69622,0.12878,1.16755,A,170436.30
1.71908,57.68801299,11.98128091,57.68802,11.98128,17:04:36.435139,0.00314,0.00000,-0.07067,0.07146,-0.02640,-0.01224,0.01175,-0.04770,-0.06472,1.01656,1.71553,0.00000,1.24833,1.26958,0.14346,0.38789,1.69622,0.12878,1.16755,A,170436.30
1.72950,57.68801299,11.98128091,57.68802,11.98128,17:04:36.446264,0.00316,0.00000,-0.07119,0.07146,-0.02548,-0.00720,0.01343,-0.07094,-0.06899,1.03694,1.72592,0.00000,1.24833,1.26958,0.14346,0.38789,1.69622,0.12878,1.16755,A,170436.30
1.73981,57.68801299,11.98128091,57.68802,11.98128,17:04:36.455866,0.00293,0.00000,-0.07171,0.07146,-0.02380,-0.00460,0.01328,-0.03684,-0.06985,1.01589,1.73626,0.00000,1.24833,1.26958,0.14346,0.38789,1.69622,0.12878,1.16755,A,170436.30
1.75057,57.68801299,11.98128091,57.68802,11.98128,17:04:36.466619,0.00328,0.00000,-0.07200,0.07146,-0.02502,-0.00888,0.01389,-0.00213,-0.05258,0.99997,1.74700,0.00000,1.24833,1.26958,0.14346,0.38789,1.69622,0.12878,1.16755,A,170436.30
1.76083,57.68801299,11.98128091,57.68802,11.98128,17:04:36.476897,0.00315,0.00000,-0.07215,0.07146,-0.01724,-0.01025,0.01252,-0.01391,-0.04917,0.99210,1.75706,0.00000,1.24833,1.26958,0.14346,0.38789,1.69622,0.12878,1.16755,A,170436.30
1.77123,57.68801299,11.98128091,57.68802,11.98128,17:04:36.487282,0.00315,0.00000,-0.07258,0.07146,-0.00853,-0.02079,0.01542,-0.02117,-0.07143,0.96557,1.76767,0.00000,1.24833,1.26958,0.14346,0.38789,1.69622,0.12878,1.16755,A,170436.30
1.78181,57.68801299,11.98128091,57.68802,11.98128,17:04:36.497872,0.00334,0.00000,-0.07292,0.07146,-0.00991,-0.01987,0.01847,-0.02367,-0.06381,0.94269,1.77824,0.00000,1.24833,1.26958,0.14346,0.38789,1.69622,0.12878,1.16755,A,170436.30
1.79197,57.68801299,11.98128091,57.68802,11.98128,17:04:36.508017,0.00297,0.00000,-0.07333,0.07146,-0.00975,-0.02400,0.01771,-0.05344,-0.06966,0.95947,1.78841,0.00000,1.24833,1.26958,0.14346,0.38789,1.69622,0.12878,1.16755,A,170436.30
1.81549,57.68801299,11.98128091,57.68802,11.98128,17:04:36.531559,0.01610,0.00000,-0.07350,0.07146,-0.00364,-0.02018,0.01756,-0.02934,-0.05966,0.97252,1.79897,0.00000,1.24833,1.26958,0.14346,0.38789,1.81422,0.03962,1.27874,A,170436.40
1.83019,57.68801339,11.98128083,57.68802,11.98128,17:04:36.546255,0.00537,0.00000,-0.07342,0.07146,0.00705,-0.01560,0.01786,-0.02873,-0.06228,1.05878,1.82435,0.00000,1.31673,1.33797,0.13827,0.43243,1.81422,0.03962,1.27874,A,170436.40
1.83881,57.68801339,11.98128083,57.68802,11.98128,17:04:36.554875,0.00359,0.00000,-0.07346,0.07146,0.01025,-0.00139,0.02260,-0.07692,-0.06753,1.08043,1.83525,0.00000,1.31673,1.33797,0.13827,0.43243,1.81422,0.03962,1.27874,A,170436.40
1.84942,57.68801339,11.98128083,57.68802,11.98128,17:04:36.565493,0.00396,0.00000,-0.07307,0.07146,0.01697,0.00349,0.01985,-0.02544,-0.03934,1.02303,1.84580,0.00000,1.31673,1.33797,0.13827,0.43243,1.81422,0.03962,1.27874,A,170436.40
1.85903,57.68801339,11.98128083,57.68802,11.98128,17:04:36.575082,0.00317,0.00000,-0.07301,0.07146,0.01590,-0.00277,0.02199,-0.02983,-0.05777,1.00217,1.85547,0.00000,1.31673,1.33797,0.13827,0.43243,1.81422,0.03962,1.27874,A,170436.40
1.86943,57.68801339,11.98128083,57.68802,11.98128,17:04:36.585483,0.00318,0.00000,-0.07264,0.07146,0.02522,-0.00460,0.02336,-0.03300,-0.04435,0.98588,1.86585,0.00000,1.31673,1.33797,0.13827,0.43243,1.81422,0.03962,1.27874,A,170436.40
1.87977,57.68801339,11.98128083,57.68802,11.98128,17:04:36.596096,0.00296,0.00000,-0.07287,0.07155,0.02369,-0.01056,0.02443,0.00213,-0.07765,0.93690,1.87622,0.00000,1.31673,1.33797,0.13827,0.43243,1.81422,0.03962,1.27874,A,170436.40
1.89035,57.68801339,11.98128083,57.68802,11.98128,17:04:36.606401,0.00314,0.00000,-0.07295,0.07175,0.02736,-0.02644,0.01954,-0.02202,-0.07216,0.94538,1.88680,0.00000,1.31673,1.33797,0.13827,0.43243,1.81422,0.03962,1.27874,A,170436.40
1.90052,57.68801339,11.98128083,57.68802,11.98128,17:04:36.616809,0.00292,0.00000,-0.07290,0.07206,0.03820,-0.02949,0.02428,-0.02379,-0.07058,0.94831,1.89698,0.00000,1.31673,1.33797,0.13827,0.43243,1.81422,0.03962,1.27874,A,170436.40
1.91114,57.68801339,11.98128083,57.68802,11.98128,17:04:36.627202,0.00314,0.00000,-0.07275,0.07240,0.03545,-0.03041,0.02443,-0.08467,-0.06618,0.99826,1.90759,0.00000,1.31673,1.33797,0.13827,0.43243,1.81422,0.03962,1.27874,A,170436.40
1.93427,57.68801339,11.98128083,57.68802,11.98128,17:04:36.650337,0.01588,0.00000,-0.07243,0.07265,0.03881,-0.01575,0.02672,-0.07491,-0.05758,1.01150,1.91797,0.00000,1.31673,1.33797,0.13827,0.43243,1.93301,-0.03962,1.29727,A,170436.50
1.95326,57.68801378,11.98128068,57.68802,11.98128,17:04:36.669325,0.00781,0.00000,-0.07112,0.07291,0.04202,-0.00078,0.02214,-0.00012,-0.04435,0.97881,1.94742,0.00000,1.42690,1.44857,0.12937,0.47567,1.93301,-0.03962,1.29727,A,170436.50
1.95975,57.68801378,11.98128068,57.68802,11.98128,17:04:36.675826,0.00391,0.00000,-0.07062,0.07291,0.03667,-0.01636,0.02138,-0.02745,-0.03703,0.97722,1.95614,0.00000,1.42690,1.44857,0.12937,0.47567,1.93301,-0.03962,1.29727,A,170436.50
1.96941,57.68801378,11.98128068,57.68802,11.98128,17:04:36.685463,0.00317,0.00000,-0.06995,0.07291,0.03820,-0.01942,0.01679,-0.04099,-0.02891,0.97942,1.96584,0.00000,1.42690,1.44857,0.12937,0.47567,1.93301,-0.03962,1.29727,A,170436.50
1.97977,57.68801378,11.98128068,57.68802,11.98128,17:04:36.695823,0.00296,0.00000,-0.06963,0.07291,0.04263,-0.02247,0.01435,-0.08662,-0.05655,1.00516,1.97621,0.00000,1.42690,1.44857,0.12937,0.47567,1.93301,-0.03962,1.29727,A,170436.50
1.99044,57.68801378,11.98128068,57.68802,11.98128,17:04:36.706487,0.00323,0.00000,-0.06973,0.07291,0.04400,-0.00964,0.01313,-0.03965,-0.08571,0.99064,1.98686,0.00000,1.42690,1.44857,0.12937,0.47567,1.93301,-0.03962,1.29727,A,170436.50
2.00052,57.68801378,11.98128068,57.68802,11.98128,17:04:36.716812,0.00293,0.00000,-0.06985,0.07291,0.03866,-0.01010,0.01924,-0.00726,-0.08046,0.97777,1.99697,0.00000,1.42690,1.44857,0.12937,0.47567,1.93301,-0.03962,1.29727,A,170436.50
2.01647,57.68801378,11.98128068,57.68802,11.98128,17:04:36.732772,0.00848,0.00000,-0.06923,0.07291,0.03866,-0.01254,0.02565,-0.06362,-0.03581,1.03090,2.00759,0.00000,1.57966,1.60133,-0.03962,1.29727,1.93301,-0.03962,1.29727,A,170436.50
2.02178,57.68801378,11.98128068,57.68802,11.98128,17:04:36.737823,0.00357,0.00000,-0.06850,0.00983,0.03286,-0.00445,0.03115,-0.11791,-0.02324,1.08232,2.01782,0.00000,1.57966,1.60133,-0.03962,1.29727,1.93301,-0.03962,1.29727,A,170436.50
2.03314,57.68801378,11.98128068,57.68802,11.98128,17:04:36.749198,0.00434,0.00000,-0.06768,0.00983,0.04110,0.01815,0.02840,-0.08802,-0.02501,1.08549,2.02899,0.00000,1.57966,1.60133,-0.03962,1.29727,1.93301,-0.03962,1.29727,A,170436.50
2.06727,57.68801378,11.98128068,57.68802,11.98128,17:04:36.783327,0.02808,0.00000,-0.06715,0.00983,0.03545,0.02289,0.02657,0.01800,-0.03373,0.98674,2.03892,0.00000,1.57966,1.60133,-0.03962,1.29727,2.06490,-0.03962,1.40847,A,170436.70
2.07987,57.68802122,11.98127783,57.68802,11.98128,17:04:36.795920,0.00561,0.00000,-0.06611,0.00983,0.02400,-0.01392,0.00442,-0.12621,-0.03221,1.00528,2.07397,0.00000,1.57752,1.58044,-0.03962,1.30283,2.06490,-0.03962,1.40847,A,170436.70
2.08883,57.68802122,11.98127783,57.68802,11.98128,17:04:36.804898,0.00398,0.00000,-0.06696,0.00983,0.01377,0.00777,0.00412,-0.00854,-0.10565,0.94818,2.08426,0.00000,1.57752,1.58044,-0.03962,1.30283,2.06490,-0.03962,1.40847,A,170436.70
2.09875,57.68802122,11.98127783,57.68802,11.98128,17:04:36.814793,0.00350,0.00000,-0.06745,0.00983,0.00888,-0.01407,0.00427,0.09858,-0.07558,0.88883,2.09483,0.00000,1.57752,1.58044,-0.03962,1.30283,2.06490,-0.03962,1.40847,A,170436.70
2.10913,57.68802122,11.98127783,57.68802,11.98128,17:04:36.825179,0.00348,0.00000,-0.06758,0.00983,-0.00013,-0.04538,0.01252,0.03422,-0.05124,0.92921,2.10500,0.00000,1.57752,1.58044,-0.03962,1.30283,2.06490,-0.03962,1.40847,A,170436.70
2.11959,57.68802122,11.98127783,57.68802,11.98128,17:04:36.835637,0.00353,0.00000,-0.06694,0.00983,0.00598,-0.05362,0.01970,-0.09662,-0.00817,1.02193,2.11565,0.00000,1.57752,1.58044,-0.03962,1.30283,2.06490,-0.03962,1.40847,A,170436.70
2.13009,57.68802122,11.98127783,57.68802,11.98128,17:04:36.846139,0.00363,0.00000,-0.06672,0.00983,0.01499,-0.03484,0.02305,-0.08467,-0.04429,1.06048,2.12614,0.00000,1.57752,1.58044,-0.03962,1.30283,2.06490,-0.03962,1.40847,A,170436.70
2.14041,57.68802122,11.98127783,57.68802,11.98128,17:04:36.856668,0.00335,0.00000,-0.06711,0.00983,0.01178,-0.03056,0.02458,-0.03324,-0.08198,1.02614,2.13648,0.00000,1.57752,1.58044,-0.03962,1.30283,2.06490,-0.03962,1.40847,A,170436.70
2.15117,57.68802122,11.98127783,57.68802,11.98128,17:04:36.867215,0.00370,0.00000,-0.06748,0.00983,0.00185,-0.02827,0.02321,-0.03916,-0.07448,1.03938,2.14723,0.00000,1.57752,1.58044,-0.03962,1.30283,2.06490,-0.03962,1.40847,A,170436.70
2.16146,57.68802122,11.98127783,57.68802,11.98128,17:04:36.877507,0.00359,0.00000,-0.06715,0.00983,0.00124,-0.01896,0.02672,-0.08650,-0.02769,1.08482,2.15725,0.00000,1.57752,1.58044,-0.03962,1.30283,2.06490,-0.03962,1.40847,A,170436.70
2.18488,57.68802122,11.98127783,57.68802,11.98128,17:04:36.900957,0.01661,0.00000,-0.06667,0.00983,0.00369,0.00975,0.01725,-0.14530,-0.01885,1.12856,2.16785,0.00000,1.57752,1.58044,-0.03962,1.30283,2.18226,0.00000,1.44553,A,170436.80
2.20037,57.68802128,11.98127787,57.68802,11.98128,17:04:36.916664,0.00808,0.00000,-0.06662,0.00983,-0.00074,0.02594,0.01099,0.06423,-0.03886,0.93806,2.19202,0.00000,1.51953,1.52245,-0.03764,1.30997,2.18226,0.00000,1.44553,A,170436.80
2.20611,57.68802128,11.98127787,57.68802,11.98128,17:04:36.922161,0.00353,0.00000,-0.06652,0.00983,-0.00044,-0.00582,0.01267,0.06435,-0.03355,0.87706,2.20217,0.00000,1.51953,1.52245,-0.03764,1.30997,2.18226,0.00000,1.44553,A,170436.80
2.21634,57.68802128,11.98127787,57.68802,11.98128,17:04:36.932594,0.00333,0.00000,-0.06612,0.00983,-0.00273,-0.03438,0.01145,-0.01513,-0.01549,0.91195,2.21241,0.00000,1.51953,1.52245,-0.03764,1.30997,2.18226,0.00000,1.44553,A,170436.80
2.22691,57.68802128,11.98127787,57.68802,11.98128,17:04:36.942962,0.00350,0.00000,-0.06610,0.00983,0.00857,-0.03255,0.00885,-0.07344,-0.04734,0.94751,2.22299,0.00000,1.51953,1.52245,-0.03764,1.30997,2.18226,0.00000,1.44553,A,170436.80
2.23740,57.68802128,11.98127787,57.68802,11.98128,17:04:36.953445,0.00359,0.00000,-0.06667,0.00983,0.00659,-0.00918,0.00671,-0.08558,-0.08735,0.99930,2.23319,0.00000,1.51953,1.52245,-0.03764,1.30997,2.18226,0.00000,1.44553,A,170436.80
2.24771,57.68802128,11.98127787,57.68802,11.98128,17:04:36.963759,0.00350,0.00000,-0.06752,0.00983,-0.00044,-0.00445,0.01282,0.05264,-0.09467,0.92128,2.24379,0.00000,1.51953,1.52245,-0.03764,1.30997,2.18226,0.00000,1.44553,A,170436.80
2.25813,57.68802128,11.98127787,57.68802,11.98128,17:04:36.974173,0.00351,0.00000,-0.06778,0.00983,-0.01128,-0.03026,0.01068,0.04807,-0.05276,0.94440,2.25419,0.00000,1.51953,1.52245,-0.03764,1.30997,2.18226,0.00000,1.44553,A,170436.80
2.26834,57.68802128,11.98127787,57.68802,11.98128,17:04:36.984653,0.00333,0.00000,-0.06715,0.00983,-0.00945,-0.03285,0.01740,-0.11688,0.00201,1.09208,2.26441,0.00000,1.51953,1.52245,-0.03764,1.30997,2.18226,0.00000,1.44553,A,170436.80
2.27890,57.68802128,11.98127787,57.68802,11.98128,17:04:36.994945,0.00350,0.00000,-0.06681,0.00983,-0.00120,0.00273,0.01970,-0.17226,-0.02593,1.13619,2.27498,0.00000,1.51953,1.52245,-0.03764,1.30997,2.18226,0.00000,1.44553,A,170436.80
2.30268,57.68802128,11.98127787,57.68802,11.98128,17:04:37.018739,0.01688,0.00000,-0.06640,0.00983,-0.00425,0.02258,0.01970,-0.03477,-0.01726,1.09666,2.28519,0.00000,1.51953,1.52245,-0.03764,1.30997,2.30022,0.08916,1.50113,A,170436.90
2.31798,57.68802137,11.98127797,57.68802,11.98128,17:04:37.034033,0.00692,0.00000,-0.06689,0.00983,-0.03510,0.01403,0.01420,-0.03599,-0.01635,0.99033,2.31175,0.00000,1.45199,1.45491,-0.03130,1.31953,2.30022,0.08916,1.50113,A,170436.90
2.32564,57.68802137,11.98127797,57.68802,11.98128,17:04:37.041695,0.00434,0.00000,-0.06724,0.00983,-0.03403,0.00838,0.01130,-0.01153,-0.04368,0.92324,2.32168,0.00000,1.45199,1.45491,-0.03130,1.31953,2.30022,0.08916,1.50113,A,170436.90
2.33526,57.68802137,11.98127797,57.68802,11.98128,17:04:37.051305,0.00355,0.00000,-0.06804,0.00983,-0.03633,0.00242,0.00381,-0.04252,-0.07021,0.91653,2.33131,0.00000,1.45199,1.45491,-0.03130,1.31953,2.30022,0.08916,1.50113,A,170436.90
2.34569,57.68802137,11.98127797,57.68802,11.98128,17:04:37.061738,0.00358,0.00000,-0.06929,0.00983,-0.03694,-0.00720,0.00076,-0.06942,-0.09980,0.94782,2.34173,0.00000,1.45199,1.45491,-0.03130,1.31953,2.30022,0.08916,1.50113,A,170436.90
2.35617,57.68802137,11.98127797,57.68802,11.98128,17:04:37.072212,0.00366,0.00000,-0.06975,0.00974,-0.04640,0.00914,-0.00138,-0.07430,-0.04849,1.02187,2.35224,0.00000,1.45199,1.45491,-0.03130,1.31953,2.30022,0.08916,1.50113,A,170436.90
2.36645,57.68802137,11.98127797,57.68802,11.98128,17:04:37.082500,0.00355,0.00000,-0.07045,0.00952,-0.04060,0.01785,0.00015,-0.00305,-0.06985,1.02883,2.36251,0.00000,1.45199,1.45491,-0.03130,1.31953,2.30022,0.08916,1.50113,A,170436.90
2.37649,57.68802137,11.98127797,57.68802,11.98128,17:04:37.092753,0.00335,0.00000,-0.07053,0.00906,-0.03923,0.01006,0.00748,0.00250,-0.03093,1.06292,2.37255,0.00000,1.45199,1.45491,-0.03130,1.31953,2.30022,0.08916,1.50113,A,170436.90
2.38706,57.68802137,11.98127797,57.68802,11.98128,17:04:37.103107,0.00352,0.00000,-0.07015,0.00841,-0.03144,0.01006,0.00839,0.00842,-0.00195,1.02132,2.38314,0.00000,1.45199,1.45491,-0.03130,1.31953,2.30022,0.08916,1.50113,A,170436.90
2.39747,57.68802137,11.98127797,57.68802,11.98128,17:04:37.113521,0.00353,0.00000,-0.07024,0.00762,-0.02121,-0.00506,0.01435,0.02446,-0.04014,0.97094,2.39333,0.00000,1.45199,1.45491,-0.03130,1.31953,2.30022,0.08916,1.50113,A,170436.90
2.42108,57.68802137,11.98127797,57.68802,11.98128,17:04:37.137140,0.01674,0.00000,-0.07109,0.00677,-0.02564,-0.01667,0.00946,0.01751,-0.08235,0.93196,2.40392,0.00000,1.45199,1.45491,-0.03130,1.31953,2.41863,0.12878,1.57526,A,170437.00
2.43536,57.68802148,11.98127811,57.68802,11.98128,17:04:37.151463,0.00765,0.00000,-0.07140,0.00513,-0.03022,0.00319,-0.00566,-0.09162,-0.02367,1.03993,2.42811,0.00000,1.42574,1.42726,-0.02330,1.33231,2.41863,0.12878,1.57526,A,170437.00
2.44166,57.68802148,11.98127811,57.68802,11.98128,17:04:37.157710,0.00354,0.00000,-0.07207,0.00476,-0.02884,0.00807,-0.00459,-0.06222,-0.07851,1.01949,2.43771,0.00000,1.42574,1.42726,-0.02330,1.33231,2.41863,0.12878,1.57526,A,170437.00
2.45219,57.68802148,11.98127811,57.68802,11.98128,17:04:37.168238,0.00367,0.00000,-0.07214,0.00459,-0.03587,0.02151,-0.00245,0.01275,-0.03172,1.01608,2.44812,0.00000,1.42574,1.42726,-0.02330,1.33231,2.41863,0.12878,1.57526,A,170437.00
2.46247,57.68802148,11.98127811,57.68802,11.98128,17:04:37.178511,0.00354,0.00000,-0.07249,0.00459,-0.03083,0.01785,0.00030,-0.01812,-0.05539,1.04438,2.45854,0.00000,1.42574,1.42726,-0.02330,1.33231,2.41863,0.12878,1.57526,A,170437.00
2.47253,57.68802148,11.98127811,57.68802,11.98128,17:04:37.188798,0.00338,0.00000,-0.07292,0.00459,-0.03449,0.02457,-0.00184,-0.04929,-0.05703,0.99528,2.46860,0.00000,1.42574,1.42726,-0.02330,1.33231,2.41863,0.12878,1.57526,A,170437.00
2.48330,57.68802148,11.98127811,57.68802,11.98128,17:04:37.199354,0.00375,0.00000,-0.07314,0.00459,-0.02289,0.01617,0.00519,0.01641,-0.04898,0.96618,2.47936,0.00000,1.42574,1.42726,-0.02330,1.33231,2.41863,0.12878,1.57526,A,170437.00
2.49348,57.68802148,11.98127811,57.68802,11.98128,17:04:37.209525,0.00353,0.00000,-0.07330,0.00459,-0.02197,0.00441,0.00916,0.05649,-0.04508,0.92665,2.48933,0.00000,1.42574,1.42726,-0.02330,1.33231,2.41863,0.12878,1.57526,A,170437.00
2.50383,57.68802148,11.98127811,57.68802,11.98128,17:04:37.219885,0.00349,0.00000,-0.07350,0.00459,-0.02060,-0.02171,0.00794,-0.00433,-0.04819,0.94111,2.49991,0.00000,1.42574,1.42726,-0.02330,1.33231,2.41863,0.12878,1.57526,A,170437.00
2.51420,57.68802148,11.98127811,57.68802,11.98128,17:04:37.230247,0.00345,0.00000,-0.07402,0.00459,-0.01907,-0.02278,0.00106,-0.00134,-0.07253,0.98186,2.51026,0.00000,1.42574,1.42726,-0.02330,1.33231,2.41863,0.12878,1.57526,A,170437.00
2.53767,57.68802148,11.98127811,57.68802,11.98128,17:04:37.253720,0.01665,0.00000,-0.07471,0.00459,-0.01174,-0.01636,0.00061,-0.05960,-0.09156,1.00205,2.52042,0.00000,1.42574,1.42726,-0.02330,1.33231,2.53518,0.11887,1.64939,A,170437.10
2.55487,57.68802162,11.98127823,57.68802,11.98128,17:04:37.270927,0.00853,0.00000,-0.07501,0.00459,-0.01632,0.01098,0.00610,-0.00244,-0.04459,1.01364,2.54864,0.00000,1.44509,1.44645,-0.01619,1.34817,2.53518,0.11887,1.64939,A,170437.10
2.56022,57.68802162,11.98127823,57.68802,11.98128,17:04:37.276267,0.00332,0.00000,-0.07491,0.00459,-0.01097,0.01006,0.00656,0.04362,-0.04215,1.01321,2.55631,0.00000,1.44509,1.44645,-0.01619,1.34817,2.53518,0.11887,1.64939,A,170437.10
2.57080,57.68802162,11.98127823,57.68802,11.98128,17:04:37.286850,0.00350,0.00000,-0.07447,0.00459,-0.01174,-0.00460,0.01114,0.01238,-0.01568,0.96642,2.56688,0.00000,1.44509,1.44645,-0.01619,1.34817,2.53518,0.11887,1.64939,A,170437.10
2.58123,57.68802162,11.98127823,57.68802,11.98128,17:04:37.297531,0.00354,0.00000,-0.07428,0.00459,-0.00685,-0.00231,0.00809,-0.03227,-0.03489,0.96581,2.57709,0.00000,1.44509,1.44645,-0.01619,1.34817,2.53518,0.11887,1.64939,A,170437.10
2.59163,57.68802162,11.98127823,57.68802,11.98128,17:04:37.307681,0.00352,0.00000,-0.07433,0.00459,-0.00288,0.00013,0.00442,-0.02391,-0.05344,0.97112,2.58770,0.00000,1.44509,1.44645,-0.01619,1.34817,2.53518,0.11887,1.64939,A,170437.10
2.60202,57.68802162,11.98127823,57.68802,11.98128,17:04:37.318067,0.00351,0.00000,-0.07525,0.00459,0.00033,0.00410,-0.00230,0.01043,-0.11261,0.98009,2.59808,0.00000,1.44509,1.44645,-0.01619,1.34817,2.53518,0.11887,1.64939,A,170437.10
2.61233,57.68802162,11.98127823,57.68802,11.98128,17:04:37.328599,0.00333,0.00000,-0.07575,0.00453,-0.00364,-0.00124,-0.00718,0.01653,-0.08955,1.04426,2.60840,0.00000,1.44509,1.44645,-0.01619,1.34817,2.53518,0.11887,1.64939,A,170437.10
2.62327,57.68802162,11.98127823,57.68802,11.98128,17:04:37.339314,0.00386,0.00000,-0.07620,0.00436,-0.00685,-0.01529,-0.00764,0.07082,-0.08217,1.02992,2.61933,0.00000,1.44509,1.44645,-0.01619,1.34817,2.53518,0.11887,1.64939,A,170437.10
2.63333,57.68802162,11.98127823,57.68802,11.98128,17:04:37.349382,0.00353,0.00000,-0.07643,0.00403,0.00476,-0.03224,-0.00963,0.02806,-0.07662,1.03718,2.62919,0.00000,1.44509,1.44645,-0.01619,1.34817,2.53518,0.11887,1.64939,A,170437.10
2.66741,57.68802162,11.98127823,57.68803,11.98128,17:04:37.383462,0.02720,0.00000,-0.07645,0.00360,0.00048,-0.03270,-0.00596,-0.00549,-0.05917,1.03523,2.63978,0.00000,1.44509,1.44645,-0.01619,1.34817,2.66508,0.18822,1.89031,A,170437.30
2.68429,57.68802187,11.98127840,57.68803,11.98128,17:04:37.400600,0.00789,0.00000,-0.07645,0.00236,0.02171,-0.02919,0.01236,-0.02336,-0.10388,0.96136,2.67679,0.00000,1.43417,1.43487,-0.00597,1.37527,2.66508,0.18822,1.89031,A,170437.30
2.69124,57.68802187,11.98127840,57.68803,11.98128,17:04:37.407292,0.00396,0.00000,-0.07617,0.00196,0.01911,-0.01407,0.01374,0.00689,-0.04770,0.95343,2.68728,0.00000,1.43417,1.43487,-0.00597,1.37527,2.66508,0.18822,1.89031,A,170437.30
2.70109,57.68802187,11.98127840,57.68803,11.98128,17:04:37.417147,0.00358,0.00000,-0.07617,0.00139,0.01377,-0.01346,0.00259,-0.01202,-0.06368,0.99332,2.69695,0.00000,1.43417,1.43487,-0.00597,1.37527,2.66508,0.18822,1.89031,A,170437.30
2.71159,57.68802187,11.98127840,57.68803,11.98128,17:04:37.427639,0.00368,0.00000,-0.07504,0.00046,0.00964,-0.01529,-0.00688,0.02416,0.01330,1.00900,2.70766,0.00000,1.43417,1.43487,-0.00597,1.37527,2.66508,0.18822,1.89031,A,170437.30
2.72303,57.68802187,11.98127840,57.68803,11.98128,17:04:37.439083,0.00472,0.00000,-0.07447,-0.00050,0.01010,-0.02369,-0.01696,-0.03947,-0.02452,1.05011,2.71900,0.00000,1.43417,1.43487,-0.00597,1.37527,2.66508,0.18822,1.89031,A,170437.30
2.73219,57.68802187,11.98127840,57.68803,11.98128,17:04:37.448238,0.00334,0.00000,-0.07380,-0.00152,0.02140,-0.01499,-0.02062,-0.01092,-0.02239,1.02669,2.72827,0.00000,1.43417,1.43487,-0.00597,1.37527,2.66508,0.18822,1.89031,A,170437.30
2.74277,57.68802187,11.98127840,57.68803,11.98128,17:04:37.458818,0.00352,0.00000,-0.07414,-0.00246,0.01438,-0.02705,-0.02184,0.01769,-0.08906,1.03920,2.73885,0.00000,1.43417,1.43487,-0.00597,1.37527,2.66508,0.18822,1.89031,A,170437.30
2.75335,57.68802187,11.98127840,57.68803,11.98128,17:04:37.469405,0.00370,0.00000,-0.07463,-0.00322,0.01575,-0.03438,-0.01757,0.02739,-0.10340,1.07293,2.74920,0.00000,1.43417,1.43487,-0.00597,1.37527,2.66508,0.18822,1.89031,A,170437.30
2.76359,57.68802187,11.98127840,57.68803,11.98128,17:04:37.479633,0.00353,0.00000,-0.07514,-0.00390,0.01086,-0.04706,-0.01558,0.02245,-0.09949,1.04157,2.75966,0.00000,1.43417,1.43487,-0.00597,1.37527,2.66508,0.18822,1.89031,A,170437.30
2.78755,57.68802187,11.98127840,57.68803,11.98128,17:04:37.503601,0.01703,0.00000,-0.07500,-0.00458,0.01132,-0.04965,-0.01039,-0.03617,-0.05490,1.03706,2.77016,0.00000,1.43417,1.43487,-0.00597,1.37527,2.78521,0.22784,2.02004,A,170437.40
2.79980,57.68802216,11.98127860,57.68803,11.98128,17:04:37.515859,0.00566,0.00000,-0.07433,-0.00659,0.01819,-0.01346,-0.00825,-0.12773,-0.03599,0.96160,2.79386,0.00000,1.42294,1.42098,0.00572,1.40751,2.78521,0.22784,2.02004,A,170437.40
2.80819,57.68802216,11.98127860,57.68803,11.98128,17:04:37.524234,0.00337,0.00000,-0.07398,-0.00783,0.02064,0.01464,-0.00382,-0.02458,-0.03953,0.90280,2.80426,0.00000,1.42294,1.42098,0.00572,1.40751,2.78521,0.22784,2.02004,A,170437.40
2.81886,57.68802216,11.98127860,57.68803,11.98128,17:04:37.534906,0.00363,0.00000,-0.07376,-0.00925,0.02033,0.01922,-0.00398,-0.03062,-0.04874,0.92031,2.81481,0.00000,1.42294,1.42098,0.00572,1.40751,2.78521,0.22784,2.02004,A,170437.40
2.82912,57.68802216,11.98127860,57.68803,11.98128,17:04:37.545183,0.00367,0.00000,-0.07321,-0.01069,0.01758,0.02182,-0.01283,0.00579,-0.02672,0.97155,2.82488,0.00000,1.42294,1.42098,0.00572,1.40751,2.78521,0.22784,2.02004,A,170437.40
2.83937,57.68802216,11.98127860,57.68803,11.98128,17:04:37.555593,0.00352,0.00000,-0.07350,-0.01216,0.02354,0.00746,-0.01925,0.01135,-0.08558,0.97234,2.83544,0.00000,1.42294,1.42098,0.00572,1.40751,2.78521,0.22784,2.02004,A,170437.40
2.84992,57.68802216,11.98127860,57.68803,11.98128,17:04:37.565969,0.00367,0.00000,-0.07351,-0.01347,0.00827,-0.00582,-0.02795,0.02940,-0.05807,0.98265,2.84597,0.00000,1.42294,1.42098,0.00572,1.40751,2.78521,0.22784,2.02004,A,170437.40
2.86015,57.68802216,11.98127860,57.68803,11.98128,17:04:37.576191,0.00333,0.00000,-0.07370,-0.01463,0.00323,-0.02048,-0.03024,0.02330,-0.06820,1.01431,2.85622,0.00000,1.42294,1.42098,0.00572,1.40751,2.78521,0.22784,2.02004,A,170437.40
2.87074,57.68802216,11.98127860,57.68803,11.98128,17:04:37.586785,0.00352,0.00000,-0.07394,-0.01556,0.00735,-0.02827,-0.03391,0.02855,-0.07674,1.04048,2.86680,0.00000,1.42294,1.42098,0.00572,1.40751,2.78521,0.22784,2.02004,A,170437.40
2.88116,57.68802216,11.98127860,57.68803,11.98128,17:04:37.597212,0.00354,0.00000,-0.07447,-0.01627,0.00949,-0.03850,-0.03162,0.05057,-0.09571,1.00674,2.87700,0.00000,1.42294,1.42098,0.00572,1.40751,2.78521,0.22784,2.02004,A,170437.40
2.90514,57.68802216,11.98127860,57.68803,11.98128,17:04:37.621198,0.01712,0.00000,-0.07493,-0.01678,0.00476,-0.05118,-0.02688,-0.00189,-0.08436,0.96197,2.88760,0.00000,1.42294,1.42098,0.00572,1.40751,2.90258,0.19812,2.13124,A,170437.50
2.91652,57.68802248,11.98127876,57.68803,11.98128,17:04:37.632816,0.00568,0.00000,-0.07429,-0.01734,0.01514,-0.01712,-0.01528,-0.06527,-0.03367,0.99284,2.91060,0.00000,1.45171,1.44656,0.01534,1.44370,2.90258,0.19812,2.13124,A,170437.50
2.92442,57.68802248,11.98127876,57.68803,11.98128,17:04:37.640687,0.00335,0.00000,-0.07414,-0.01763,0.01621,-0.01575,-0.01268,-0.01537,-0.05106,0.95447,2.92049,0.00000,1.45171,1.44656,0.01534,1.44370,2.90258,0.19812,2.13124,A,170437.50
2.93496,57.68802248,11.98127876,57.68803,11.98128,17:04:37.651007,0.00349,0.00000,-0.07394,-0.01816,0.00750,-0.01712,-0.02077,0.02214,-0.04441,0.98539,2.93104,0.00000,1.45171,1.44656,0.01534,1.44370,2.90258,0.19812,2.13124,A,170437.50
2.94562,57.68802248,11.98127876,57.68803,11.98128,17:04:37.661681,0.00375,0.00000,-0.07394,-0.01898,0.01209,-0.01789,-0.02337,-0.00506,-0.06338,1.03627,2.94126,0.00000,1.45171,1.44656,0.01534,1.44370,2.90258,0.19812,2.13124,A,170437.50
2.95593,57.68802248,11.98127876,57.68803,11.98128,17:04:37.671975,0.00366,0.00000,-0.07389,-0.02006,0.01209,-0.01819,-0.03421,0.04111,-0.05703,0.98344,2.95201,0.00000,1.45171,1.44656,0.01534,1.44370,2.90258,0.19812,2.13124,A,170437.50
2.96821,57.68802248,11.98127876,57.68803,11.98128,17:04:37.684991,0.00554,0.00000,-0.07388,-0.02108,0.00567,-0.04461,-0.04048,0.04892,-0.05710,1.00565,2.96269,0.00000,1.45171,1.44656,0.01534,1.44370,2.90258,0.19812,2.13124,A,170437.50
2.97635,57.68802248,11.98127876,57.68803,11.98128,17:04:37.692599,0.00334,0.00000,-0.07408,-0.02204,0.00582,-0.05637,-0.04521,0.03800,-0.06942,0.99204,2.97242,0.00000,1.45171,1.44656,0.01534,1.44370,2.90258,0.19812,2.13124,A,170437.50
2.98682,57.68802248,11.98127876,57.68803,11.98128,17:04:37.702869,0.00359,0.00000,-0.07450,-0.02286,0.00476,-0.06050,-0.04674,-0.01800,-0.08534,1.01498,2.98289,0.00000,1.45171,1.44656,0.01534,1.44370,2.90258,0.19812,2.13124,A,170437.50
2.99721,57.68802248,11.98127876,57.68803,11.98128,17:04:37.713256,0.00352,0.00000,-0.07509,-0.02343,0.00949,-0.05133,-0.04353,-0.06637,-0.10370,1.04334,2.99307,0.00000,1.45171,1.44656,0.01534,1.44370,2.90258,0.19812,2.13124,A,170437.50
3.02139,57.68802248,11.98127876,57.68803,11.98128,17:04:37.737445,0.01730,0.00000,-0.07501,-0.02380,0.01514,-0.03438,-0.04277,-0.01061,-0.06167,1.02761,3.00385,0.00000,1.45171,1.44656,0.01534,1.44370,3.01893,0.17831,2.26096,A,170437.60
3.03611,57.68802285,11.98127890,57.68803,11.98128,17:04:37.752168,0.00797,0.00000,-0.07457,-0.02439,0.01545,-0.01697,-0.02337,-0.06747,-0.04941,1.01907,3.02788,0.00000,1.47101,1.46377,0.02349,1.48456,3.01893,0.17831,2.26096,A,170437.60
3.04195,57.68802285,11.98127890,57.68803,11.98128,17:04:37.758004,0.00353,0.00000,-0.07433,-0.02479,0.01590,0.00380,-0.02475,-0.01025,-0.04837,0.99723,3.03802,0.00000,1.47101,1.46377,0.02349,1.48456,3.01893,0.17831,2.26096,A,170437.60
3.05242,57.68802285,11.98127890,57.68803,11.98128,17:04:37.768702,0.00345,0.00000,-0.07450,-0.02544,0.01285,-0.00552,-0.02994,0.04862,-0.06856,0.92891,3.04849,0.00000,1.47101,1.46377,0.02349,1.48456,3.01893,0.17831,2.26096,A,170437.60
3.06302,57.68802285,11.98127890,57.68803,11.98128,17:04:37.779069,0.00359,0.00000,-0.07444,-0.02634,-0.00028,-0.02384,-0.03895,0.03044,-0.04679,0.96044,3.05910,0.00000,1.47101,1.46377,0.02349,1.48456,3.01893,0.17831,2.26096,A,170437.60
3.07345,57.68802285,11.98127890,57.68803,11.98128,17:04:37.789506,0.00363,0.00000,-0.07422,-0.02722,0.00033,-0.03331,-0.04215,-0.02227,-0.03873,0.99107,3.06922,0.00000,1.47101,1.46377,0.02349,1.48456,3.01893,0.17831,2.26096,A,170437.60
3.08399,57.68802285,11.98127890,57.68803,11.98128,17:04:37.800041,0.00376,0.00000,-0.07360,-0.02798,0.00323,-0.04110,-0.04628,0.02062,-0.01452,0.99698,3.07982,0.00000,1.47101,1.46377,0.02349,1.48456,3.01893,0.17831,2.26096,A,170437.60
3.09414,57.68802285,11.98127890,57.68803,11.98128,17:04:37.810183,0.00351,0.00000,-0.07366,-0.02849,0.00246,-0.03667,-0.04674,-0.05215,-0.05941,1.02962,3.09020,0.00000,1.47101,1.46377,0.02349,1.48456,3.01893,0.17831,2.26096,A,170437.60
3.10436,57.68802285,11.98127890,57.68803,11.98128,17:04:37.820608,0.00335,0.00000,-0.07412,-0.02881,-0.00899,-0.01926,-0.04307,-0.10785,-0.08534,1.09989,3.10043,0.00000,1.47101,1.46377,0.02349,1.48456,3.01893,0.17831,2.26096,A,170437.60
3.11496,57.68802285,11.98127890,57.68803,11.98128,17:04:37.831009,0.00355,0.00000,-0.07466,-0.02883,-0.01403,0.00975,-0.03956,0.00653,-0.08040,1.01370,3.11099,0.00000,1.47101,1.46377,0.02349,1.48456,3.01893,0.17831,2.26096,A,170437.60
3.13880,57.68802285,11.98127890,57.68803,11.98128,17:04:37.854847,0.01699,0.00000,-0.07469,-0.02883,-0.01922,-0.01300,-0.03391,0.15811,-0.03904,0.90164,3.12119,0.00000,1.47101,1.46377,0.02349,1.48456,3.13632,0.10897,2.31656,A,170437.70
3.15620,57.68802323,11.98127897,57.68803,11.98128,17:04:37.872253,0.00945,0.00000,-0.07376,-0.02883,-0.00960,-0.05729,-0.02032,-0.15134,0.02623,1.02303,3.14880,0.00000,1.54115,1.53259,0.02776,1.52616,3.13632,0.10897,2.31656,A,170437.70
3.16273,57.68802323,11.98127897,57.68803,11.98128,17:04:37.878863,0.00498,0.00000,-0.07414,-0.02883,-0.01006,-0.03179,-0.02108,-0.07046,-0.07369,1.01736,3.15718,0.00000,1.54115,1.53259,0.02776,1.52616,3.13632,0.10897,2.31656,A,170437.70
3.17173,57.68802323,11.98127897,57.68803,11.98128,17:04:37.887783,0.00352,0.00000,-0.07492,-0.02883,-0.02579,-0.01987,-0.03238,-0.04782,-0.09290,1.06262,3.16781,0.00000,1.54115,1.53259,0.02776,1.52616,3.13632,0.10897,2.31656,A,170437.70
3.18266,57.68802323,11.98127897,57.68803,11.98128,17:04:37.898717,0.00404,0.00000,-0.07534,-0.02883,-0.03297,0.00303,-0.04002,-0.02190,-0.06204,1.06280,3.17872,0.00000,1.54115,1.53259,0.02776,1.52616,3.13632,0.10897,2.31656,A,170437.70
3.19235,57.68802323,11.98127897,57.68803,11.98128,17:04:37.908612,0.00334,0.00000,-0.07519,-0.02883,-0.04121,0.00853,-0.04002,0.06515,-0.01775,0.98106,3.18843,0.00000,1.54115,1.53259,0.02776,1.52616,3.13632,0.10897,2.31656,A,170437.70
3.20315,57.68802323,11.98127897,57.68803,11.98128,17:04:37.919200,0.00374,0.00000,-0.07532,-0.02883,-0.03770,-0.00643,-0.03589,-0.03684,-0.03581,0.99698,3.19923,0.00000,1.54115,1.53259,0.02776,1.52616,3.13632,0.10897,2.31656,A,170437.70
3.21435,57.68802323,11.98127897,57.68803,11.98128,17:04:37.930394,0.00369,0.00000,-0.07571,-0.02883,-0.04503,-0.02583,-0.03467,0.00555,-0.04721,1.00284,3.21037,0.00000,1.54115,1.53259,0.02776,1.52616,3.13632,0.10897,2.31656,A,170437.70
3.22480,57.68802323,11.98127897,57.68803,11.98128,17:04:37.940863,0.00351,0.00000,-0.07625,-0.02883,-0.03449,-0.04278,-0.03101,0.00366,-0.06942,1.02297,3.22066,0.00000,1.54115,1.53259,0.02776,1.52616,3.13632,0.10897,2.31656,A,170437.70
3.23535,57.68802323,11.98127897,57.68803,11.98128,17:04:37.951394,0.00366,0.00000,-0.07703,-0.02883,-0.02823,-0.05515,-0.02322,0.00616,-0.08204,0.94166,3.23141,0.00000,1.54115,1.53259,0.02776,1.52616,3.13632,0.10897,2.31656,A,170437.70
3.27011,57.68802323,11.98127897,57.68803,11.98128,17:04:37.986166,0.02803,0.00000,-0.07840,-0.02883,-0.02808,-0.05851,-0.01329,-0.00195,-0.11736,0.91128,3.24185,0.00000,1.54115,1.53259,0.02776,1.52616,3.26765,0.06934,2.61308,A,170437.90
3.28847,57.68802371,11.98127900,57.68803,11.98128,17:04:38.004773,0.00700,0.00000,-0.07953,-0.02883,-0.03999,0.02625,-0.02093,-0.00543,-0.02519,0.96008,3.28253,0.00000,1.55313,1.54456,0.02984,1.58051,3.26765,0.06934,2.61308,A,170437.90
3.29542,57.68802371,11.98127900,57.68803,11.98128,17:04:38.011472,0.00355,0.00000,-0.07951,-0.02883,-0.03694,0.02350,-0.02413,-0.01781,-0.03593,1.02456,3.29149,0.00000,1.55313,1.54456,0.02984,1.58051,3.26765,0.06934,2.61308,A,170437.90
3.30588,57.68802371,11.98127900,57.68803,11.98128,17:04:38.021932,0.00361,0.00000,-0.07912,-0.02883,-0.03190,0.01021,-0.02749,0.07613,-0.01159,1.03724,3.30194,0.00000,1.55313,1.54456,0.02984,1.58051,3.26765,0.06934,2.61308,A,170437.90
3.31620,57.68802371,11.98127900,57.68803,11.98128,17:04:38.032242,0.00336,0.00000,-0.07939,-0.02883,-0.02533,-0.01621,-0.03101,0.00061,-0.06795,1.15321,3.31226,0.00000,1.55313,1.54456,0.02984,1.58051,3.26765,0.06934,2.61308,A,170437.90
3.32674,57.68802371,11.98127900,57.68803,11.98128,17:04:38.042784,0.00349,0.00000,-0.08076,-0.02883,-0.02014,-0.02568,-0.03559,0.02818,-0.15360,1.12472,3.32282,0.00000,1.55313,1.54456,0.02984,1.58051,3.26765,0.06934,2.61308,A,170437.90
3.33739,57.68802371,11.98127900,57.68803,11.98128,17:04:38.053450,0.00392,0.00000,-0.08148,-0.02883,-0.02930,-0.03637,-0.03559,0.03672,-0.09394,1.06738,3.33292,0.00000,1.55313,1.54456,0.02984,1.58051,3.26765,0.06934,2.61308,A,170437.90
3.34758,57.68802371,11.98127900,57.68803,11.98128,17:04:38.063631,0.00370,0.00000,-0.08232,-0.02883,-0.02487,-0.03453,-0.03269,-0.01989,-0.09821,0.98478,3.34364,0.00000,1.55313,1.54456,0.02984,1.58051,3.26765,0.06934,2.61308,A,170437.90
3.35799,57.68802371,11.98127900,57.68803,11.98128,17:04:38.074034,0.00371,0.00000,-0.08267,-0.02883,-0.01113,-0.03072,-0.02902,-0.06423,-0.07588,0.98338,3.35403,0.00000,1.55313,1.54456,0.02984,1.58051,3.26765,0.06934,2.61308,A,170437.90
3.36819,57.68802371,11.98127900,57.68803,11.98128,17:04:38.084237,0.00334,0.00000,-0.08314,-0.02883,-0.00196,-0.01239,-0.02490,-0.01501,-0.08125,0.88310,3.36426,0.00000,1.55313,1.54456,0.02984,1.58051,3.26765,0.06934,2.61308,A,170437.90
3.39288,57.68802371,11.98127900,57.68803,11.98128,17:04:38.108949,0.01763,0.00000,-0.08448,-0.02883,0.00155,-0.01560,-0.02001,-0.03971,-0.13499,0.88121,3.37495,0.00000,1.55313,1.54456,0.02984,1.58051,3.39033,0.06934,2.76134,A,170438.00
3.40547,57.68802424,11.98127904,57.68803,11.98128,17:04:38.121522,0.00587,0.00000,-0.08404,-0.02883,0.00766,-0.01682,-0.02200,0.03202,-0.04801,1.02395,3.39932,0.00000,1.55496,1.54640,0.03182,1.63955,3.39033,0.06934,2.76134,A,170438.00
3.41354,57.68802424,11.98127904,57.68803,11.98128,17:04:38.129587,0.00354,0.00000,-0.08330,-0.02883,0.01346,-0.02094,-0.02459,-0.03678,-0.02568,1.14662,3.40939,0.00000,1.55496,1.54640,0.03182,1.63955,3.39033,0.06934,2.76134,A,170438.00
3.42390,57.68802424,11.98127904,57.68803,11.98128,17:04:38.139951,0.00351,0.00000,-0.08311,-0.02883,0.02049,-0.01606,-0.02810,0.06625,-0.06911,1.07842,3.41998,0.00000,1.55496,1.54640,0.03182,1.63955,3.39033,0.06934,2.76134,A,170438.00
3.43428,57.68802424,11.98127904,57.68803,11.98128,17:04:38.150329,0.00348,0.00000,-0.08318,-0.02883,0.02354,-0.03270,-0.03513,0.00488,-0.08686,1.05402,3.43033,0.00000,1.55496,1.54640,0.03182,1.63955,3.39033,0.06934,2.76134,A,170438.00
3.44613,57.68802424,11.98127904,57.68803,11.98128,17:04:38.162214,0.00508,0.00000,-0.08271,-0.02883,0.02782,-0.02308,-0.04063,-0.09065,-0.05118,0.98240,3.44176,0.00000,1.55496,1.54640,0.03182,1.63955,3.39033,0.06934,2.76134,A,170438.00
3.45584,57.68802424,11.98127904,57.68803,11.98128,17:04:38.171893,0.00366,0.00000,-0.08291,-0.02883,0.02720,0.00028,-0.04109,-0.06509,-0.08101,0.86748,3.45190,0.00000,1.55496,1.54640,0.03182,1.63955,3.39033,0.06934,2.76134,A,170438.00
3.46610,57.68802424,11.98127904,57.68803,11.98128,17:04:38.182143,0.00351,0.00000,-0.08301,-0.02883,0.03118,-0.00063,-0.03330,0.03630,-0.06887,0.76787,3.46215,0.00000,1.55496,1.54640,0.03182,1.63955,3.39033,0.06934,2.76134,A,170438.00
3.47634,57.68802424,11.98127904,57.68803,11.98128,17:04:38.192602,0.00333,0.00000,-0.08359,-0.02883,0.02843,-0.01743,-0.02368,-0.04898,-0.10754,0.89341,3.47242,0.00000,1.55496,1.54640,0.03182,1.63955,3.39033,0.06934,2.76134,A,170438.00
3.48732,57.68802424,11.98127904,57.68803,11.98128,17:04:38.203373,0.00391,0.00000,-0.08289,-0.02883,0.03973,0.00471,-0.01940,-0.12737,-0.04691,1.05432,3.48338,0.00000,1.55496,1.54640,0.03182,1.63955,3.39033,0.06934,2.76134,A,170438.00
3.51072,57.68802424,11.98127904,57.68804,11.98128,17:04:38.226787,0.01691,0.00000,-0.08297,-0.02883,0.05271,0.02701,-0.01467,-0.12230,-0.11682,1.14808,3.49319,0.00000,1.55496,1.54640,0.03182,1.63955,3.50827,0.11887,2.94667,A,170438.10
3.52341,57.68802483,11.98127911,57.68804,11.98128,17:04:38.239483,0.00567,0.00000,-0.08187,-0.02883,0.04553,0.03678,-0.01741,0.18184,-0.06576,1.09684,3.51726,0.00000,1.53839,1.52983,0.03617,1.70491,3.50827,0.11887,2.94667,A,170438.10
3.53166,57.68802483,11.98127911,57.68804,11.98128,17:04:38.247723,0.00352,0.00000,-0.08065,-0.02883,0.04110,0.00166,-0.02245,0.13762,-0.00848,1.01766,3.52774,0.00000,1.53839,1.52983,0.03617,1.70491,3.50827,0.11887,2.94667,A,170438.10
3.54211,57.68802483,11.98127911,57.68804,11.98128,17:04:38.258179,0.00357,0.00000,-0.07945,-0.02883,0.04690,-0.02247,-0.02322,-0.04557,-0.01116,0.96502,3.53817,0.00000,1.53839,1.52983,0.03617,1.70491,3.50827,0.11887,2.94667,A,170438.10
3.55382,57.68802483,11.98127911,57.68804,11.98128,17:04:38.269954,0.00449,0.00000,-0.07849,-0.02881,0.05118,-0.02904,-0.02688,-0.07216,-0.02690,0.89304,3.54881,0.00000,1.53839,1.52983,0.03617,1.70491,3.50827,0.11887,2.94667,A,170438.10
3.56324,57.68802483,11.98127911,57.68804,11.98128,17:04:38.279298,0.00352,0.00000,-0.07896,-0.02872,0.06386,-0.02720,-0.02123,0.01226,-0.10102,0.75640,3.55930,0.00000,1.53839,1.52983,0.03617,1.70491,3.50827,0.11887,2.94667,A,170438.10
3.57363,57.68802483,11.98127911,57.68804,11.98128,17:04:38.289692,0.00352,0.00000,-0.07998,-0.02849,0.05026,-0.03133,-0.01650,-0.01458,-0.12706,0.78812,3.56969,0.00000,1.53839,1.52983,0.03617,1.70491,3.50827,0.11887,2.94667,A,170438.10
3.58401,57.68802483,11.98127911,57.68804,11.98128,17:04:38.300075,0.00349,0.00000,-0.08014,-0.02804,0.04400,-0.02018,-0.00856,-0.02641,-0.09199,0.91524,3.58009,0.00000,1.53839,1.52983,0.03617,1.70491,3.50827,0.11887,2.94667,A,170438.10
3.59447,57.68802483,11.98127911,57.68804,11.98128,17:04:38.310533,0.00354,0.00000,-0.07936,-0.02745,0.05164,-0.01880,-0.00840,-0.10718,-0.04355,1.02895,3.59053,0.00000,1.53839,1.52983,0.03617,1.70491,3.50827,0.11887,2.94667,A,170438.10
3.60451,57.68802483,11.98127911,57.68804,11.98128,17:04:38.320782,0.00336,0.00000,-0.07822,-0.02674,0.04553,0.01449,-0.00734,-0.12578,-0.01348,1.10800,3.60058,0.00000,1.53839,1.52983,0.03617,1.70491,3.50827,0.11887,2.94667,A,170438.10
3.62913,57.68802483,11.98127911,57.68804,11.98128,17:04:38.345190,0.01757,0.00000,-0.07693,-0.02598,0.05088,0.03953,-0.00764,-0.07796,-0.00823,1.24306,3.61114,0.00000,1.53839,1.52983,0.03617,1.70491,3.62657,0.11887,3.09493,A,170438.20
3.64485,57.68802546,11.98127918,57.68804,11.98128,17:04:38.360917,0.00687,0.00000,-0.07529,-0.02416,0.04935,-0.02110,-0.00932,0.13084,-0.03672,1.05072,3.63847,0.00000,1.54126,1.53408,0.04031,1.77441,3.62657,0.11887,3.09493,A,170438.20
3.65292,57.68802546,11.98127918,57.68804,11.98128,17:04:38.368984,0.00382,0.00000,-0.07498,-0.02340,0.04645,-0.03576,-0.01894,-0.11834,-0.06930,1.07549,3.64863,0.00000,1.54126,1.53408,0.04031,1.77441,3.62657,0.11887,3.09493,A,170438.20
3.66300,57.68802546,11.98127918,57.68804,11.98128,17:04:38.379037,0.00349,0.00000,-0.07488,-0.02255,0.05882,-0.02659,-0.01925,0.01379,-0.08278,0.93842,3.65907,0.00000,1.54126,1.53408,0.04031,1.77441,3.62657,0.11887,3.09493,A,170438.20
3.67343,57.68802546,11.98127918,57.68804,11.98128,17:04:38.389484,0.00354,0.00000,-0.07513,-0.02148,0.05958,-0.02598,-0.01619,0.03556,-0.09132,0.82307,3.66929,0.00000,1.54126,1.53408,0.04031,1.77441,3.62657,0.11887,3.09493,A,170438.20
3.68381,57.68802546,11.98127918,57.68804,11.98128,17:04:38.399857,0.00352,0.00000,-0.07603,-0.02006,0.05576,-0.04248,-0.00581,-0.02599,-0.12712,0.82557,3.67988,0.00000,1.54126,1.53408,0.04031,1.77441,3.62657,0.11887,3.09493,A,170438.20
3.69427,57.68802546,11.98127918,57.68804,11.98128,17:04:38.410312,0.00357,0.00000,-0.07600,-0.01845,0.05500,-0.02415,0.00381,-0.04727,-0.08223,0.90219,3.69033,0.00000,1.54126,1.53408,0.04031,1.77441,3.62657,0.11887,3.09493,A,170438.20
3.70434,57.68802546,11.98127918,57.68804,11.98128,17:04:38.420597,0.00333,0.00000,-0.07498,-0.01678,0.05515,-0.01712,0.01466,-0.12590,-0.02373,1.00857,3.70041,0.00000,1.54126,1.53408,0.04031,1.77441,3.62657,0.11887,3.09493,A,170438.20
3.71491,57.68802546,11.98127918,57.68804,11.98128,17:04:38.430954,0.00350,0.00000,-0.07359,-0.01516,0.05882,0.01204,0.01863,-0.16476,-0.00220,1.17010,3.71100,0.00000,1.54126,1.53408,0.04031,1.77441,3.62657,0.11887,3.09493,A,170438.20
3.72533,57.68802546,11.98127918,57.68804,11.98128,17:04:38.441381,0.00353,0.00000,-0.07167,-0.01389,0.06691,0.03938,0.02107,0.07125,0.03489,1.12576,3.72118,0.00000,1.54126,1.53408,0.04031,1.77441,3.62657,0.11887,3.09493,A,170438.20
3.76019,57.68802546,11.98127918,57.68804,11.98128,17:04:38.476240,0.02798,0.00000,-0.07030,-0.01287,0.06538,0.01769,0.01084,0.14341,-0.00586,1.09794,3.73180,0.00000,1.54126,1.53408,0.04031,1.77441,3.75784,0.06934,3.28025,A,170438.40
3.77768,57.68802613,11.98127920,57.68804,11.98128,17:04:38.493753,0.00680,0.00000,-0.06848,-0.01171,0.05332,-0.03515,-0.01528,-0.09821,-0.05703,0.89816,3.77064,0.00000,1.56211,1.55863,0.04176,1.84970,3.75784,0.06934,3.28025,A,170438.40
3.78649,57.68802613,11.98127920,57.68804,11.98128,17:04:38.502536,0.00442,0.00000,-0.06863,-0.01171,0.06080,-0.00720,-0.01726,-0.04679,-0.09711,0.92073,3.78249,0.00000,1.56211,1.55863,0.04176,1.84970,3.75784,0.06934,3.28025,A,170438.40
3.79598,57.68802613,11.98127920,57.68804,11.98128,17:04:38.512025,0.00352,0.00000,-0.06927,-0.01171,0.05332,-0.00292,-0.02597,-0.00659,-0.11505,0.92836,3.79206,0.00000,1.56211,1.55863,0.04176,1.84970,3.75784,0.06934,3.28025,A,170438.40
3.80642,57.68802613,11.98127920,57.68804,11.98128,17:04:38.522464,0.00355,0.00000,-0.07030,-0.01171,0.04568,0.01235,-0.01803,-0.04593,-0.14109,0.94489,3.80248,0.00000,1.56211,1.55863,0.04176,1.84970,3.75784,0.06934,3.28025,A,170438.40
3.81647,57.68802613,11.98127920,57.68804,11.98128,17:04:38.532867,0.00338,0.00000,-0.07066,-0.01171,0.03087,0.03449,-0.01986,-0.05734,-0.09339,0.99631,3.81253,0.00000,1.56211,1.55863,0.04176,1.84970,3.75784,0.06934,3.28025,A,170438.40
3.82701,57.68802613,11.98127920,57.68804,11.98128,17:04:38.543060,0.00352,0.00000,-0.06914,-0.01171,0.02904,0.02930,-0.01635,0.04148,0.03324,1.05207,3.82308,0.00000,1.56211,1.55863,0.04176,1.84970,3.75784,0.06934,3.28025,A,170438.40
3.83743,57.68802613,11.98127920,57.68804,11.98128,17:04:38.553477,0.00354,0.00000,-0.06743,-0.01171,0.03316,0.00609,-0.01283,0.01543,0.04868,1.11496,3.83328,0.00000,1.56211,1.55863,0.04176,1.84970,3.75784,0.06934,3.28025,A,170438.40
3.84781,57.68802613,11.98127920,57.68804,11.98128,17:04:38.563853,0.00352,0.00000,-0.06556,-0.01171,0.05164,-0.01682,-0.00413,0.10443,0.04795,1.12929,3.84387,0.00000,1.56211,1.55863,0.04176,1.84970,3.75784,0.06934,3.28025,A,170438.40
3.85818,57.68802613,11.98127920,57.68804,11.98128,17:04:38.574233,0.00350,0.00000,-0.06422,-0.01171,0.05989,-0.04477,-0.00504,0.10681,0.00415,1.08793,3.85424,0.00000,1.56211,1.55863,0.04176,1.84970,3.75784,0.06934,3.28025,A,170438.40
3.88187,57.68802613,11.98127920,57.68804,11.98128,17:04:38.597924,0.01686,0.00000,-0.06438,-0.01171,0.06080,-0.05989,-0.01100,0.01580,-0.09504,1.00125,3.86441,0.00000,1.56211,1.55863,0.04176,1.84970,3.87940,0.02972,3.40998,A,170438.50
3.89561,57.68802684,11.98127919,57.68804,11.98128,17:04:38.611668,0.00669,0.00000,-0.06415,-0.01182,0.03026,-0.01361,-0.01971,-0.13871,-0.05795,0.76470,3.88844,0.00000,1.58371,1.58020,0.04116,1.92771,3.87940,0.02972,3.40998,A,170438.50
3.90349,57.68802684,11.98127919,57.68804,11.98128,17:04:38.619539,0.00355,0.00000,-0.06302,-0.01188,0.03194,0.02640,-0.01635,-0.12249,0.00750,0.82179,3.89956,0.00000,1.58371,1.58020,0.04116,1.92771,3.87940,0.02972,3.40998,A,170438.50
3.91387,57.68802684,11.98127919,57.68804,11.98128,17:04:38.629923,0.00354,0.00000,-0.06131,-0.01197,0.02568,0.06809,-0.01696,-0.15677,0.05594,1.02437,3.90993,0.00000,1.58371,1.58020,0.04116,1.92771,3.87940,0.02972,3.40998,A,170438.50
3.92422,57.68802684,11.98127919,57.68804,11.98128,17:04:38.640259,0.00333,0.00000,-0.06030,-0.01205,0.02568,0.09314,-0.01879,-0.04666,0.01037,1.11514,3.92029,0.00000,1.58371,1.58020,0.04116,1.92771,3.87940,0.02972,3.40998,A,170438.50
3.93479,57.68802684,11.98127919,57.68804,11.98128,17:04:38.650846,0.00352,0.00000,-0.05973,-0.01219,0.01667,0.08749,-0.02475,0.09620,-0.01415,1.11935,3.93087,0.00000,1.58371,1.58020,0.04116,1.92771,3.87940,0.02972,3.40998,A,170438.50
3.94548,57.68802684,11.98127919,57.68804,11.98128,17:04:38.661537,0.00380,0.00000,-0.05876,-0.01233,0.00414,0.03785,-0.02749,0.11078,0.02586,1.13021,3.94122,0.00000,1.58371,1.58020,0.04116,1.92771,3.87940,0.02972,3.40998,A,170438.50
3.95574,57.68802684,11.98127919,57.68804,11.98128,17:04:38.671777,0.00366,0.00000,-0.05815,-0.01239,-0.00242,-0.00078,-0.03635,0.19081,0.00488,0.97008,3.95182,0.00000,1.58371,1.58020,0.04116,1.92771,3.87940,0.02972,3.40998,A,170438.50
3.96599,57.68802684,11.98127919,57.68804,11.98128,17:04:38.682034,0.00351,0.00000,-0.05921,-0.01239,0.00384,-0.05454,-0.03788,0.10852,-0.08772,0.78855,3.96205,0.00000,1.58371,1.58020,0.04116,1.92771,3.87940,0.02972,3.40998,A,170438.50
3.97633,57.68802684,11.98127919,57.68804,11.98128,17:04:38.692593,0.00332,0.00000,-0.05993,-0.01239,-0.00334,-0.07668,-0.03238,-0.04172,-0.07033,0.83991,3.97241,0.00000,1.58371,1.58020,0.04116,1.92771,3.87940,0.02972,3.40998,A,170438.50
4.00052,57.68802684,11.98127919,57.68804,11.98128,17:04:38.716805,0.01712,0.00000,-0.06024,-0.01239,0.00231,-0.03606,-0.02520,-0.24894,-0.05887,0.95831,3.98317,0.00000,1.58371,1.58020,0.04116,1.92771,3.99818,0.06934,3.53971,A,170438.60
4.01445,57.68802756,11.98127922,57.68804,11.98128,17:04:38.730945,0.00678,0.00000,-0.06099,-0.01239,0.00720,0.08749,0.00503,0.03355,-0.10766,1.06530,4.00741,0.00000,1.56230,1.55862,0.04256,2.00831,3.99818,0.06934,3.53971,A,170438.60
4.02240,57.68802756,11.98127922,57.68804,11.98128,17:04:38.738458,0.00432,0.00000,-0.06034,-0.01239,0.00903,0.08046,0.01756,0.10236,-0.00262,1.06689,4.01766,0.00000,1.56230,1.55862,0.04256,2.00831,3.99818,0.06934,3.53971,A,170438.60
4.03208,57.68802756,11.98127922,57.68804,11.98128,17:04:38.748130,0.00360,0.00000,-0.05877,-0.01239,-0.00349,0.04427,0.02336,0.08491,0.06966,1.03194,4.02816,0.00000,1.56230,1.55862,0.04256,2.00831,3.99818,0.06934,3.53971,A,170438.60
4.04240,57.68802756,11.98127922,57.68804,11.98128,17:04:38.758632,0.00353,0.00000,-0.05667,-0.01239,0.01453,-0.00109,0.01847,0.01068,0.09827,1.05506,4.03847,0.00000,1.56230,1.55862,0.04256,2.00831,3.99818,0.06934,3.53971,A,170438.60
4.05275,57.68802756,11.98127922,57.68804,11.98128,17:04:38.768815,0.00364,0.00000,-0.05607,-0.01239,0.01377,-0.01850,0.00671,-0.02525,-0.00555,1.06634,4.04863,0.00000,1.56230,1.55862,0.04256,2.00831,3.99818,0.06934,3.53971,A,170438.60
4.06301,57.68802756,11.98127922,57.68804,11.98128,17:04:38.779062,0.00350,0.00000,-0.05604,-0.01239,0.00842,-0.01774,-0.00474,-0.00110,-0.03910,1.01974,4.05909,0.00000,1.56230,1.55862,0.04256,2.00831,3.99818,0.06934,3.53971,A,170438.60
4.07344,57.68802756,11.98127922,57.68804,11.98128,17:04:38.789484,0.00353,0.00000,-0.05640,-0.01222,0.00613,-0.00766,-0.01161,-0.01482,-0.06191,0.97380,4.06929,0.00000,1.56230,1.55862,0.04256,2.00831,3.99818,0.06934,3.53971,A,170438.60
4.08388,57.68802756,11.98127922,57.68804,11.98128,17:04:38.799926,0.00357,0.00000,-0.05775,-0.01146,0.00033,0.00395,-0.00688,-0.07533,-0.12261,0.97210,4.07996,0.00000,1.56230,1.55862,0.04256,2.00831,3.99818,0.06934,3.53971,A,170438.60
4.09418,57.68802756,11.98127922,57.68804,11.98128,17:04:38.810232,0.00347,0.00000,-0.05776,-0.01001,-0.00364,0.02594,0.00855,-0.16903,-0.03306,0.94135,4.09025,0.00000,1.56230,1.55862,0.04256,2.00831,3.99818,0.06934,3.53971,A,170438.60
4.11789,57.68802756,11.98127922,57.68804,11.98128,17:04:38.833942,0.01688,0.00000,-0.05739,-0.00792,-0.01281,0.04030,0.01802,-0.22015,-0.00342,0.94886,4.10041,0.00000,1.56230,1.55862,0.04256,2.00831,4.11543,0.01981,3.63237,A,170438.70
4.13329,57.68802829,11.98127920,57.68804,11.98128,17:04:38.849359,0.00690,0.00000,-0.05648,-0.00206,0.00567,0.01510,0.03451,0.27755,0.01385,0.91103,4.12611,0.00000,1.59751,1.59690,0.04143,2.08952,4.11543,0.01981,3.63237,A,170438.70
4.14128,57.68802829,11.98127920,57.68804,11.98128,17:04:38.857354,0.00428,0.00000,-0.05622,-0.00002,0.00918,-0.04293,0.02199,0.07509,-0.02233,0.92086,4.13641,0.00000,1.59751,1.59690,0.04143,2.08952,4.11543,0.01981,3.63237,A,170438.70
4.15090,57.68802829,11.98127920,57.68804,11.98128,17:04:38.866938,0.00350,0.00000,-0.05653,0.00168,-0.00120,-0.05729,0.01771,-0.15445,-0.05545,1.00839,4.14697,0.00000,1.59751,1.59690,0.04143,2.08952,4.11543,0.01981,3.63237,A,170438.70
4.16133,57.68802829,11.98127920,57.68804,11.98128,17:04:38.877372,0.00353,0.00000,-0.05698,0.00298,-0.00303,-0.03255,0.01206,-0.20435,-0.06722,1.04963,4.15719,0.00000,1.59751,1.59690,0.04143,2.08952,4.11543,0.01981,3.63237,A,170438.70
4.17171,57.68802829,11.98127920,57.68804,11.98128,17:04:38.887754,0.00351,0.00000,-0.05685,0.00403,-0.01998,0.01632,0.01511,-0.13530,-0.01458,1.13344,4.16779,0.00000,1.59751,1.59690,0.04143,2.08952,4.11543,0.01981,3.63237,A,170438.70
4.18212,57.68802829,11.98127920,57.68804,11.98128,17:04:38.898166,0.00352,0.00000,-0.05663,0.00479,-0.02533,0.03404,0.02122,0.07137,-0.00445,1.05664,4.17818,0.00000,1.59751,1.59690,0.04143,2.08952,4.11543,0.01981,3.63237,A,170438.70
4.19234,57.68802829,11.98127920,57.68804,11.98128,17:04:38.908596,0.00333,0.00000,-0.05636,0.00530,-0.03098,0.02182,0.02626,0.14378,0.00293,0.95538,4.18842,0.00000,1.59751,1.59690,0.04143,2.08952,4.11543,0.01981,3.63237,A,170438.70
4.20293,57.68802829,11.98127920,57.68804,11.98128,17:04:38.918975,0.00352,0.00000,-0.05537,0.00555,-0.02197,-0.00842,0.03375,-0.08693,0.04459,0.96837,4.19901,0.00000,1.59751,1.59690,0.04143,2.08952,4.11543,0.01981,3.63237,A,170438.70
4.21335,57.68802829,11.98127920,57.68804,11.98128,17:04:38.929398,0.00353,0.00000,-0.05482,0.00561,-0.01082,0.00288,0.04337,-0.16458,0.00933,0.95514,4.20920,0.00000,1.59751,1.59690,0.04143,2.08952,4.11543,0.01981,3.63237,A,170438.70
4.23731,57.68802829,11.98127920,57.68804,11.98128,17:04:38.953369,0.01703,0.00000,-0.05488,0.00561,-0.00563,0.01372,0.04398,-0.16659,-0.03361,0.99302,4.21986,0.00000,1.59751,1.59690,0.04143,2.08952,4.23485,-0.05944,3.70650,A,170438.80
4.25246,57.68802902,11.98127911,57.68804,11.98128,17:04:38.968748,0.00731,0.00000,-0.05766,0.00572,-0.02136,-0.01972,0.02672,0.22485,-0.16525,0.89798,4.24629,0.00000,1.65300,1.65470,0.03638,2.17036,4.23485,-0.05944,3.70650,A,170438.80
4.25908,57.68802902,11.98127911,57.68804,11.98128,17:04:38.975137,0.00370,0.00000,-0.05836,0.00586,-0.03266,-0.04186,0.02260,-0.00177,-0.06539,1.01229,4.25513,0.00000,1.65300,1.65470,0.03638,2.17036,4.23485,-0.05944,3.70650,A,170438.80
4.26937,57.68802902,11.98127911,57.68804,11.98128,17:04:38.985420,0.00358,0.00000,-0.05873,0.00615,-0.02670,-0.03774,0.02596,-0.15079,-0.04136,0.92372,4.26517,0.00000,1.65300,1.65470,0.03638,2.17036,4.23485,-0.05944,3.70650,A,170438.80
4.27974,57.68802902,11.98127911,57.68804,11.98128,17:04:38.995784,0.00355,0.00000,-0.05841,0.00660,-0.03067,-0.02598,0.02672,-0.16141,0.00549,1.01126,4.27581,0.00000,1.65300,1.65470,0.03638,2.17036,4.23485,-0.05944,3.70650,A,170438.80
4.29034,57.68802902,11.98127911,57.68804,11.98128,17:04:39.006390,0.00359,0.00000,-0.05767,0.00703,-0.01724,-0.01041,0.02825,-0.05642,0.02495,1.05121,4.28639,0.00000,1.65300,1.65470,0.03638,2.17036,4.23485,-0.05944,3.70650,A,170438.80
4.30035,57.68802902,11.98127911,57.68804,11.98128,17:04:39.016601,0.00334,0.00000,-0.05726,0.00728,-0.00303,-0.00674,0.03054,0.14433,-0.00750,1.00809,4.29642,0.00000,1.65300,1.65470,0.03638,2.17036,4.23485,-0.05944,3.70650,A,170438.80
4.31093,57.68802902,11.98127911,57.68804,11.98128,17:04:39.026974,0.00352,0.00000,-0.05768,0.00731,0.00017,-0.02843,0.03161,0.12914,-0.06240,0.97356,4.30699,0.00000,1.65300,1.65470,0.03638,2.17036,4.23485,-0.05944,3.70650,A,170438.80
4.32136,57.68802902,11.98127911,57.68804,11.98128,17:04:39.037409,0.00355,0.00000,-0.05867,0.00731,-0.00334,-0.03209,0.03222,-0.08076,-0.10077,0.99692,4.31719,0.00000,1.65300,1.65470,0.03638,2.17036,4.23485,-0.05944,3.70650,A,170438.80
4.33185,57.68802902,11.98127911,57.68804,11.98128,17:04:39.047898,0.00365,0.00000,-0.05978,0.00731,-0.00578,-0.00109,0.02504,-0.18452,-0.10102,0.93836,4.32792,0.00000,1.65300,1.65470,0.03638,2.17036,4.23485,-0.05944,3.70650,A,170438.80
4.36646,57.68802902,11.98127911,57.68804,11.98128,17:04:39.082523,0.02786,0.00000,-0.06032,0.00731,-0.01953,0.02441,0.02611,-0.15244,-0.05600,0.91158,4.33818,0.00000,1.65300,1.65470,0.03638,2.17036,4.36400,-0.09906,3.94742,A,170439.00
4.38184,57.68802982,11.98127900,57.68804,11.98128,17:04:39.097913,0.00766,0.00000,-0.05995,0.00731,0.00506,0.00151,0.01634,-0.01360,-0.02959,1.09068,4.37476,0.00000,1.65854,1.66071,0.02961,2.25922,4.36400,-0.09906,3.94742,A,170439.00
4.38831,57.68802982,11.98127900,57.68804,11.98128,17:04:39.104581,0.00355,0.00000,-0.05997,0.00731,0.00582,0.00517,0.01908,-0.09016,-0.04965,1.13326,4.38438,0.00000,1.65854,1.66071,0.02961,2.25922,4.36400,-0.09906,3.94742,A,170439.00
4.39870,57.68802982,11.98127900,57.68804,11.98128,17:04:39.114751,0.00354,0.00000,-0.05965,0.00731,-0.00303,0.01052,0.01267,-0.08192,-0.01629,1.05652,4.39478,0.00000,1.65854,1.66071,0.02961,2.25922,4.36400,-0.09906,3.94742,A,170439.00
4.40893,57.68802982,11.98127900,57.68804,11.98128,17:04:39.124991,0.00354,0.00000,-0.05969,0.00731,0.00842,0.01067,0.01649,0.05588,-0.04453,0.94617,4.40482,0.00000,1.65854,1.66071,0.02961,2.25922,4.36400,-0.09906,3.94742,A,170439.00
4.41932,57.68802982,11.98127900,57.68804,11.98128,17:04:39.135361,0.00352,0.00000,-0.05904,0.00731,0.02369,-0.00246,0.01695,0.03684,-0.01141,0.97691,4.41539,0.00000,1.65854,1.66071,0.02961,2.25922,4.36400,-0.09906,3.94742,A,170439.00
4.42972,57.68802982,11.98127900,57.68804,11.98128,17:04:39.145774,0.00353,0.00000,-0.05962,0.00731,0.02583,-0.00033,0.02260,0.02812,-0.08265,0.87169,4.42578,0.00000,1.65854,1.66071,0.02961,2.25922,4.36400,-0.09906,3.94742,A,170439.00
4.44010,57.68802982,11.98127900,57.68804,11.98128,17:04:39.156141,0.00333,0.00000,-0.06058,0.00731,0.03438,-0.00979,0.02351,-0.09370,-0.11584,0.91701,4.43617,0.00000,1.65854,1.66071,0.02961,2.25922,4.36400,-0.09906,3.94742,A,170439.00
4.45074,57.68802982,11.98127900,57.68804,11.98128,17:04:39.166781,0.00351,0.00000,-0.06073,0.00731,0.02186,0.00838,0.02611,-0.21460,-0.06972,1.06774,4.44681,0.00000,1.65854,1.66071,0.02961,2.25922,4.36400,-0.09906,3.94742,A,170439.00
4.46115,57.68802982,11.98127900,57.68804,11.98128,17:04:39.177204,0.00353,0.00000,-0.05938,0.00731,0.02446,0.01769,0.02489,0.07625,0.03489,1.01394,4.45702,0.00000,1.65854,1.66071,0.02961,2.25922,4.36400,-0.09906,3.94742,A,170439.00
4.48519,57.68802982,11.98127900,57.68804,11.98127,17:04:39.201243,0.01717,0.00000,-0.05815,0.00731,0.03011,-0.00888,0.02351,0.06924,0.02385,1.04902,4.46761,0.00000,1.65854,1.66071,0.02961,2.25922,4.48271,-0.14859,4.04008,A,170439.10
4.50126,57.68803062,11.98127885,57.68804,11.98127,17:04:39.217314,0.00800,0.00000,-0.05732,0.00731,0.03392,0.00777,0.02214,-0.19404,-0.04227,0.98027,4.49503,0.00000,1.68661,1.68878,0.02070,2.34826,4.48271,-0.14859,4.04008,A,170439.10
4.50707,57.68803062,11.98127885,57.68804,11.98127,17:04:39.223112,0.00352,0.00000,-0.05646,0.00731,0.02843,0.03083,0.01954,-0.12304,0.00525,0.93257,4.50316,0.00000,1.68661,1.68878,0.02070,2.34826,4.48271,-0.14859,4.04008,A,170439.10
4.51750,57.68803062,11.98127885,57.68804,11.98127,17:04:39.233552,0.00355,0.00000,-0.05444,0.00731,0.01514,0.05725,0.01572,-0.03001,0.07954,0.88749,4.51333,0.00000,1.68661,1.68878,0.02070,2.34826,4.48271,-0.14859,4.04008,A,170439.10
4.52786,57.68803062,11.98127885,57.68804,11.98127,17:04:39.243909,0.00351,0.00000,-0.05440,0.00731,0.02766,0.05847,0.01298,0.12395,-0.04374,0.87145,4.52393,0.00000,1.68661,1.68878,0.02070,2.34826,4.48271,-0.14859,4.04008,A,170439.10
4.53818,57.68803062,11.98127885,57.68804,11.98127,17:04:39.254229,0.00343,0.00000,-0.05443,0.00731,0.01835,0.01265,0.01771,0.10913,-0.04392,0.92311,4.53425,0.00000,1.68661,1.68878,0.02070,2.34826,4.48271,-0.14859,4.04008,A,170439.10
4.54834,57.68803062,11.98127885,57.68804,11.98127,17:04:39.264593,0.00333,0.00000,-0.05515,0.00731,0.01377,-0.01896,0.01725,0.06454,-0.09156,1.00601,4.54441,0.00000,1.68661,1.68878,0.02070,2.34826,4.48271,-0.14859,4.04008,A,170439.10
4.55898,57.68803062,11.98127885,57.68804,11.98127,17:04:39.275027,0.00357,0.00000,-0.05509,0.00731,0.01117,-0.05989,0.01145,-0.05984,-0.03971,1.05737,4.55505,0.00000,1.68661,1.68878,0.02070,2.34826,4.48271,-0.14859,4.04008,A,170439.10
4.56931,57.68803062,11.98127885,57.68804,11.98127,17:04:39.285368,0.00351,0.00000,-0.05456,0.00731,0.01590,-0.03759,0.00351,-0.10077,-0.01165,1.23763,4.56518,0.00000,1.68661,1.68878,0.02070,2.34826,4.48271,-0.14859,4.04008,A,170439.10
4.57972,57.68803062,11.98127885,57.68804,11.98127,17:04:39.295764,0.00351,0.00000,-0.05406,0.00731,0.01743,-0.02400,-0.00306,0.09882,-0.01458,1.14863,4.57580,0.00000,1.68661,1.68878,0.02070,2.34826,4.48271,-0.14859,4.04008,A,170439.10
4.60376,57.68803062,11.98127885,57.68805,11.98127,17:04:39.319813,0.01715,0.00000,-0.05459,0.00731,0.01804,-0.02018,0.00549,0.07503,-0.07893,0.97399,4.58643,0.00000,1.68661,1.68878,0.02070,2.34826,4.60144,-0.14859,4.15128,A,170439.20
4.62020,57.68803143,11.98127871,57.68805,11.98127,17:04:39.337533,0.00736,0.00000,-0.05435,0.00731,0.00796,0.01052,0.01404,-0.05618,-0.02562,0.80337,4.61387,0.00000,1.67835,1.68052,0.01224,2.43841,4.60144,-0.14859,4.15128,A,170439.20
4.62675,57.68803143,11.98127871,57.68805,11.98127,17:04:39.342797,0.00370,0.00000,-0.05350,0.00731,0.00964,-0.00827,0.02138,-0.09583,0.01476,0.83350,4.62271,0.00000,1.67835,1.68052,0.01224,2.43841,4.60144,-0.14859,4.15128,A,170439.20
4.63683,57.68803143,11.98127871,57.68805,11.98127,17:04:39.352894,0.00356,0.00000,-0.05241,0.00731,0.02140,-0.00399,0.01313,0.07881,0.02501,0.94355,4.63271,0.00000,1.67835,1.68052,0.01224,2.43841,4.60144,-0.14859,4.15128,A,170439.20
4.64719,57.68803143,11.98127871,57.68805,11.98127,17:04:39.363237,0.00351,0.00000,-0.05196,0.00728,0.03011,-0.02430,0.00794,0.09504,-0.02385,1.08049,4.64327,0.00000,1.67835,1.68052,0.01224,2.43841,4.60144,-0.14859,4.15128,A,170439.20
4.65774,57.68803143,11.98127871,57.68805,11.98127,17:04:39.373788,0.00366,0.00000,-0.05145,0.00720,0.02446,-0.03973,0.00030,-0.02111,-0.01684,1.25617,4.65378,0.00000,1.67835,1.68052,0.01224,2.43841,4.60144,-0.14859,4.15128,A,170439.20
4.66798,57.68803143,11.98127871,57.68805,11.98127,17:04:39.384024,0.00351,0.00000,-0.05166,0.00717,0.02262,-0.02537,-0.00245,-0.08540,-0.07521,1.25422,4.66406,0.00000,1.67835,1.68052,0.01224,2.43841,4.60144,-0.14859,4.15128,A,170439.20
4.67843,57.68803143,11.98127871,57.68805,11.98127,17:04:39.394472,0.00355,0.00000,-0.05226,0.00717,0.01636,-0.00552,0.00015,-0.13505,-0.09229,1.12716,4.67448,0.00000,1.67835,1.68052,0.01224,2.43841,4.60144,-0.14859,4.15128,A,170439.20
4.68891,57.68803143,11.98127871,57.68805,11.98127,17:04:39.404975,0.00380,0.00000,-0.05133,0.00717,0.02079,0.00349,0.00442,0.05100,0.01562,0.92391,4.68455,0.00000,1.67835,1.68052,0.01224,2.43841,4.60144,-0.14859,4.15128,A,170439.20
4.69901,57.68803143,11.98127871,57.68805,11.98127,17:04:39.415061,0.00350,0.00000,-0.04994,0.00717,0.02537,-0.02781,0.01313,0.07655,0.03611,0.80496,4.69509,0.00000,1.67835,1.68052,0.01224,2.43841,4.60144,-0.14859,4.15128,A,170439.20
4.72274,57.68803143,11.98127871,57.68805,11.98127,17:04:39.438800,0.01683,0.00000,-0.04856,0.00717,0.04416,-0.04339,0.01710,-0.00689,0.02684,0.80520,4.70530,0.00000,1.67835,1.68052,0.01224,2.43841,4.72032,-0.19812,4.28100,A,170439.30
4.73996,57.68803226,11.98127853,57.68805,11.98127,17:04:39.456018,0.00859,0.00000,-0.04734,0.00717,0.04858,0.01449,0.02076,-0.16189,-0.03056,1.08415,4.73113,0.00000,1.69620,1.69833,0.00172,2.53054,4.72032,-0.19812,4.28100,A,170439.30
4.74531,57.68803226,11.98127853,57.68805,11.98127,17:04:39.461362,0.00375,0.00000,-0.04721,0.00717,0.03942,0.03709,0.01908,0.02922,-0.04654,1.06146,4.74118,0.00000,1.69620,1.69833,0.00172,2.53054,4.72032,-0.19812,4.28100,A,170439.30
4.75552,57.68803226,11.98127853,57.68805,11.98127,17:04:39.471557,0.00355,0.00000,-0.04672,0.00717,0.03667,0.02197,0.01298,0.17721,-0.01732,0.95520,4.75159,0.00000,1.69620,1.69833,0.00172,2.53054,4.72032,-0.19812,4.28100,A,170439.30
4.76591,57.68803226,11.98127853,57.68805,11.98127,17:04:39.481952,0.00354,0.00000,-0.04640,0.00717,0.03301,-0.02064,0.01084,0.00287,-0.02629,0.97783,4.76196,0.00000,1.69620,1.69833,0.00172,2.53054,4.72032,-0.19812,4.28100,A,170439.30
4.77639,57.68803226,11.98127853,57.68805,11.98127,17:04:39.492645,0.00336,0.00000,-0.04523,0.00714,0.02384,-0.01987,0.00427,-0.24857,0.03855,1.07360,4.77246,0.00000,1.69620,1.69833,0.00172,2.53054,4.72032,-0.19812,4.28100,A,170439.30
4.78695,57.68803226,11.98127853,57.68805,11.98127,17:04:39.502996,0.00351,0.00000,-0.04470,0.00708,0.02827,0.01265,-0.00153,-0.17818,-0.00897,1.07702,4.78302,0.00000,1.69620,1.69833,0.00172,2.53054,4.72032,-0.19812,4.28100,A,170439.30
4.79762,57.68803226,11.98127853,57.68805,11.98127,17:04:39.513662,0.00353,0.00000,-0.04399,0.00705,0.03026,0.04442,-0.00703,-0.03867,0.00281,1.08519,4.79368,0.00000,1.69620,1.69833,0.00172,2.53054,4.72032,-0.19812,4.28100,A,170439.30
4.80801,57.68803226,11.98127853,57.68805,11.98127,17:04:39.524053,0.00353,0.00000,-0.04437,0.00703,0.03744,0.05572,-0.00398,0.14616,-0.06618,0.89475,4.80407,0.00000,1.69620,1.69833,0.00172,2.53054,4.72032,-0.19812,4.28100,A,170439.30
4.81842,57.68803226,11.98127853,57.68805,11.98127,17:04:39.534471,0.00353,0.00000,-0.04602,0.00703,0.03347,0.03938,0.00091,-0.00159,-0.11120,0.70669,4.81449,0.00000,1.69620,1.69833,0.00172,2.53054,4.72032,-0.19812,4.28100,A,170439.30
4.84201,57.68803226,11.98127853,57.68805,11.98127,17:04:39.558266,0.01689,0.00000,-0.04606,0.00703,0.02339,0.05480,0.00962,-0.27737,-0.02574,0.59731,4.82455,0.00000,1.69620,1.69833,0.00172,2.53054,4.83953,-0.21794,4.35513,A,170439.40
4.85832,57.68803308,11.98127834,57.68805,11.98127,17:04:39.574375,0.00811,0.00000,-0.04454,0.00671,0.01758,0.15804,0.01557,0.04978,0.04862,1.06829,4.85093,0.00000,1.70555,1.70755,-0.00926,2.62177,4.83953,-0.21794,4.35513,A,170439.40
4.86401,57.68803308,11.98127834,57.68805,11.98127,17:04:39.580056,0.00350,0.00000,-0.04384,0.00640,0.02110,0.10978,0.01557,0.24138,0.01501,1.38854,4.86009,0.00000,1.70555,1.70755,-0.00926,2.62177,4.83953,-0.21794,4.35513,A,170439.40
4.87444,57.68803308,11.98127834,57.68805,11.98127,17:04:39.590486,0.00353,0.00000,-0.04315,0.00592,0.01224,0.01800,0.00473,0.36771,0.02294,1.56520,4.87051,0.00000,1.70555,1.70755,-0.00926,2.62177,4.83953,-0.21794,4.35513,A,170439.40
4.88449,57.68803308,11.98127834,57.68805,11.98127,17:04:39.600759,0.00336,0.00000,-0.04288,0.00544,0.00873,-0.07684,0.00167,0.33446,-0.01543,1.59607,4.88056,0.00000,1.70555,1.70755,-0.00926,2.62177,4.83953,-0.21794,4.35513,A,170439.40
4.89522,57.68803308,11.98127834,57.68805,11.98127,17:04:39.611275,0.00368,0.00000,-0.04262,0.00510,-0.00242,-0.14006,-0.01085,-0.04020,-0.00427,1.42685,4.89130,0.00000,1.70555,1.70755,-0.00926,2.62177,4.83953,-0.21794,4.35513,A,170439.40
4.90548,57.68803308,11.98127834,57.68805,11.98127,17:04:39.621536,0.00354,0.00000,-0.04356,0.00502,0.01529,-0.11731,-0.01222,-0.15524,-0.09235,0.97399,4.90133,0.00000,1.70555,1.70755,-0.00926,2.62177,4.83953,-0.21794,4.35513,A,170439.40
4.91587,57.68803308,11.98127834,57.68805,11.98127,17:04:39.631906,0.00353,0.00000,-0.04577,0.00502,0.02491,-0.08600,-0.00321,-0.24845,-0.13048,0.69040,4.91194,0.00000,1.70555,1.70755,-0.00926,2.62177,4.83953,-0.21794,4.35513,A,170439.40
4.92618,57.68803308,11.98127834,57.68805,11.98127,17:04:39.642234,0.00344,0.00000,-0.04747,0.00502,0.02003,-0.03331,0.01175,-0.13975,-0.07857,0.51399,4.92224,0.00000,1.70555,1.70755,-0.00926,2.62177,4.83953,-0.21794,4.35513,A,170439.40
4.93641,57.68803308,11.98127834,57.68805,11.98127,17:04:39.652667,0.00334,0.00000,-0.04530,0.00502,0.02675,-0.01422,0.03375,-0.05978,0.04984,0.49477,4.93248,0.00000,1.70555,1.70755,-0.00926,2.62177,4.83953,-0.21794,4.35513,A,170439.40
4.97113,57.68803308,11.98127834,57.68805,11.98127,17:04:39.687182,0.02767,0.00000,-0.04622,0.00502,0.05714,0.00502,0.04413,-0.15018,-0.07070,0.56193,4.94305,0.00000,1.70555,1.70755,-0.00926,2.62177,4.96878,-0.23775,4.55899,A,170439.60
4.98444,57.68803395,11.98127815,57.68805,11.98127,17:04:39.700751,0.00643,0.00000,-0.04475,0.00502,0.02339,0.03831,0.03145,-0.09180,0.02568,1.39056,4.97844,0.00000,1.70276,1.70425,-0.02069,2.71863,4.96878,-0.23775,4.55899,A,170439.60
4.99216,57.68803395,11.98127815,57.68805,11.98127,17:04:39.708204,0.00372,0.00000,-0.04385,0.00502,0.01911,0.05480,0.01710,0.11017,0.03355,1.41081,4.98822,0.00000,1.70276,1.70425,-0.02069,2.71863,4.96878,-0.23775,4.55899,A,170439.60
5.00238,57.68803395,11.98127815,57.68805,11.98127,17:04:39.718427,0.00354,0.00000,-0.04380,0.00502,0.01254,0.01281,-0.00046,0.23119,-0.03599,1.29546,4.99844,0.00000,1.70276,1.70425,-0.02069,2.71863,4.96878,-0.23775,4.55899,A,170439.60
5.01695,57.68803395,11.98127815,57.68805,11.98127,17:04:39.733060,0.00788,0.00000,0.00000,0.00502,-0.00120,-0.02232,-0.01619,0.01598,-0.02202,1.15028,5.00847,0.00000,1.70276,1.70425,-0.02069,2.71863,4.96878,-0.23775,4.55899,A,170439.60
5.03219,57.68803395,11.98127815,57.68805,11.98127,17:04:39.748984,0.01293,0.00000,-0.00151,0.00502,0.00414,-0.03087,-0.01344,-0.16238,-0.06679,0.90457,5.02203,0.00000,1.70276,1.70425,0.02578,0.00000,4.96878,-0.23775,4.55899,A,170439.60
5.04803,57.68803395,11.98127815,57.68805,11.98127,17:04:39.764101,0.00925,0.00000,-0.00444,0.00502,0.01987,0.00364,-0.00550,-0.00275,-0.13310,0.66783,5.04261,0.00000,1.70276,1.70425,0.02578,0.00000,4.96878,-0.23775,4.55899,A,170439.60
5.05356,57.68803395,11.98127815,57.68805,11.98127,17:04:39.769628,0.00424,0.00000,-0.00601,0.00502,0.00750,0.00288,0.00030,-0.02806,-0.06478,0.74914,5.04888,0.00000,1.70276,1.70425,0.02578,0.00000,4.96878,-0.23775,4.55899,A,170439.60
5.06490,57.68803395,11.98127815,57.68805,11.98127,17:04:39.780976,0.00517,0.00000,-0.00749,0.00502,0.00491,0.02243,0.01175,-0.05459,-0.06777,0.82509,5.06016,0.00000,1.70276,1.70425,0.02578,0.00000,4.96878,-0.23775,4.55899,A,170439.60
5.08737,57.68803395,11.98127815,57.68805,11.98127,17:04:39.803434,0.01725,0.00000,-0.00799,0.00502,-0.00746,0.01204,0.02428,-0.02355,-0.01165,0.99887,5.06971,0.00000,1.70276,1.70425,0.02578,0.00000,5.08461,-0.21794,4.70725,A,170439.70
5.09993,57.68803484,11.98127799,57.68805,11.98127,17:04:39.815995,0.00601,0.00000,-0.00745,0.00502,0.00262,0.02503,0.02321,-0.12609,0.06417,1.33999,5.09344,0.00000,1.68412,1.68561,-0.03055,2.81806,5.08461,-0.21794,4.70725,A,170439.70
5.10833,57.68803484,11.98127799,57.68805,11.98127,17:04:39.824611,0.00401,0.00000,-0.00709,0.00493,-0.00090,0.03236,0.01236,0.12822,0.04770,1.13545,5.10390,0.00000,1.68412,1.68561,-0.03055,2.81806,5.08461,-0.21794,4.70725,A,170439.70
5.11871,57.68803484,11.98127799,57.68805,11.98127,17:04:39.834774,0.00419,0.00000,-0.00700,0.00470,-0.01388,-0.01636,-0.00016,0.15921,0.03105,0.94428,5.11419,0.00000,1.68412,1.68561,-0.03055,2.81806,5.08461,-0.21794,4.70725,A,170439.70
5.12995,57.68803484,11.98127799,57.68805,11.98127,17:04:39.846017,0.00496,0.00000,-0.00762,0.00445,-0.03541,-0.05485,-0.01024,-0.07899,0.00085,0.82661,5.12438,0.00000,1.68412,1.68561,-0.03055,2.81806,5.08461,-0.21794,4.70725,A,170439.70
5.13962,57.68803484,11.98127799,57.68805,11.98127,17:04:39.855685,0.00424,0.00000,-0.00848,0.00425,-0.04075,-0.04690,-0.01787,-0.12047,-0.00817,0.72980,5.13497,0.00000,1.68412,1.68561,-0.03055,2.81806,5.08461,-0.21794,4.70725,A,170439.70
5.15000,57.68803484,11.98127799,57.68805,11.98127,17:04:39.866256,0.00416,0.00000,-0.01074,0.00420,-0.04854,-0.01896,-0.01451,-0.34441,-0.08680,0.85095,5.14523,0.00000,1.68412,1.68561,-0.03055,2.81806,5.08461,-0.21794,4.70725,A,170439.70
5.16037,57.68803484,11.98127799,57.68805,11.98127,17:04:39.876781,0.00413,0.00000,-0.01233,0.00420,-0.05633,0.03052,-0.00886,-0.13780,-0.04605,0.87102,5.15582,0.00000,1.68412,1.68561,-0.03055,2.81806,5.08461,-0.21794,4.70725,A,170439.70
5.17079,57.68803484,11.98127799,57.68805,11.98127,17:04:39.886854,0.00415,0.00000,-0.01353,0.00420,-0.06259,0.04503,-0.00031,-0.07314,-0.02812,1.10935,5.16623,0.00000,1.68412,1.68561,-0.03055,2.81806,5.08461,-0.21794,4.70725,A,170439.70
5.18123,57.68803484,11.98127799,57.68805,11.98127,17:04:39.897300,0.00423,0.00000,-0.01398,0.00417,-0.05572,0.06091,0.01099,0.12786,0.01964,1.12716,5.17643,0.00000,1.68412,1.68561,-0.03055,2.81806,5.08461,-0.21794,4.70725,A,170439.70
5.20516,57.68803484,11.98127799,57.68805,11.98127,17:04:39.921234,0.01776,0.00000,-0.01534,0.00405,-0.06611,0.02258,0.01404,0.07936,-0.03495,1.04408,5.18723,0.00000,1.68412,1.68561,-0.03055,2.81806,5.20222,-0.25756,4.83698,A,170439.80
5.22153,57.68803575,11.98127780,57.68805,11.98127,17:04:39.937603,0.00876,0.00000,-0.01707,0.00320,-0.06366,-0.01774,0.00824,-0.13871,0.00598,1.00528,5.21422,0.00000,1.69683,1.69779,-0.04190,2.91901,5.20222,-0.25756,4.83698,A,170439.80
5.22702,57.68803575,11.98127780,57.68805,11.98127,17:04:39.943075,0.00404,0.00000,-0.01843,0.00289,-0.05679,0.00074,-0.00398,-0.07094,-0.05270,0.98765,5.22259,0.00000,1.69683,1.69779,-0.04190,2.91901,5.20222,-0.25756,4.83698,A,170439.80
5.23742,57.68803575,11.98127780,57.68805,11.98127,17:04:39.953488,0.00422,0.00000,-0.02042,0.00267,-0.05939,0.01525,-0.00642,-0.01946,-0.08851,0.99528,5.23262,0.00000,1.69683,1.69779,-0.04190,2.91901,5.20222,-0.25756,4.83698,A,170439.80
5.24793,57.68803575,11.98127780,57.68805,11.98127,17:04:39.963994,0.00434,0.00000,-0.02261,0.00267,-0.07542,0.03709,-0.00795,-0.08375,-0.09315,1.01437,5.24320,0.00000,1.69683,1.69779,-0.04190,2.91901,5.20222,-0.25756,4.83698,A,170439.80
5.25814,57.68803575,11.98127780,57.68805,11.98127,17:04:39.974202,0.00415,0.00000,-0.02400,0.00267,-0.08855,0.04671,0.00167,-0.09327,-0.03282,0.99930,5.25337,0.00000,1.69683,1.69779,-0.04190,2.91901,5.20222,-0.25756,4.83698,A,170439.80
5.26853,57.68803575,11.98127780,57.68805,11.98127,17:04:39.984810,0.00414,0.00000,-0.02413,0.00267,-0.09268,0.05618,0.00503,-0.17172,0.05917,1.07043,5.26398,0.00000,1.69683,1.69779,-0.04190,2.91901,5.20222,-0.25756,4.83698,A,170439.80
5.27877,57.68803575,11.98127780,57.68805,11.98127,17:04:39.994835,0.00399,0.00000,-0.02425,0.00264,-0.07573,0.06488,0.01145,-0.06539,0.04459,1.07458,5.27424,0.00000,1.69683,1.69779,-0.04190,2.91901,5.20222,-0.25756,4.83698,A,170439.80
5.28925,57.68803575,11.98127780,57.68805,11.98127,17:04:40.005573,0.00422,0.00000,-0.02567,0.00258,-0.05328,0.05236,0.00565,0.13414,-0.06191,1.02736,5.28444,0.00000,1.69683,1.69779,-0.04190,2.91901,5.20222,-0.25756,4.83698,A,170439.80
5.29955,57.68803575,11.98127780,57.68805,11.98127,17:04:40.015608,0.00413,0.00000,-0.02804,0.00241,-0.06015,0.01540,0.00290,0.08211,-0.11584,0.96917,5.29500,0.00000,1.69683,1.69779,-0.04190,2.91901,5.20222,-0.25756,4.83698,A,170439.80
5.32310,57.68803575,11.98127780,57.68805,11.98127,17:04:40.039160,0.01728,0.00000,-0.03116,0.00221,-0.06412,-0.00552,-0.00077,-0.05612,-0.17483,1.01681,5.30520,0.00000,1.69683,1.69779,-0.04190,2.91901,5.32021,-0.25756,4.94817,A,170439.90
5.33709,57.68803666,11.98127761,57.68805,11.98127,17:04:40.053160,0.00723,0.00000,-0.03407,0.00210,-0.07328,-0.00094,-0.00398,-0.12474,-0.07064,0.82277,5.32937,0.00000,1.68795,1.68857,-0.05268,3.02047,5.32021,-0.25756,4.94817,A,170439.90
5.34435,57.68803666,11.98127761,57.68805,11.98127,17:04:40.060679,0.00409,0.00000,-0.03395,0.00210,-0.05267,0.01159,0.00809,0.01806,0.02763,0.83832,5.33991,0.00000,1.68795,1.68857,-0.05268,3.02047,5.32021,-0.25756,4.94817,A,170439.90
5.35519,57.68803666,11.98127761,57.68805,11.98127,17:04:40.071260,0.00454,0.00000,-0.03219,0.00210,-0.03648,0.00975,0.01359,0.03099,0.12517,0.95056,5.35023,0.00000,1.68795,1.68857,-0.05268,3.02047,5.32021,-0.25756,4.94817,A,170439.90
5.36571,57.68803666,11.98127761,57.68805,11.98127,17:04:40.081775,0.00470,0.00000,-0.03347,0.00210,-0.00639,0.00349,0.01908,-0.04264,-0.09254,1.02431,5.36088,0.00000,1.68795,1.68857,-0.05268,3.02047,5.32021,-0.25756,4.94817,A,170439.90
5.37543,57.68803666,11.98127761,57.68805,11.98127,17:04:40.091484,0.00403,0.00000,-0.03493,0.00210,-0.01739,0.01540,0.01481,-0.13176,-0.11035,1.13173,5.37099,0.00000,1.68795,1.68857,-0.05268,3.02047,5.32021,-0.25756,4.94817,A,170439.90
5.38595,57.68803666,11.98127761,57.68805,11.98127,17:04:40.102020,0.00416,0.00000,-0.03614,0.00202,-0.03098,0.04091,0.00351,-0.06618,-0.08076,1.11709,5.38118,0.00000,1.68795,1.68857,-0.05268,3.02047,5.32021,-0.25756,4.94817,A,170439.90
5.39632,57.68803666,11.98127761,57.68805,11.98127,17:04:40.112600,0.00412,0.00000,-0.03666,0.00173,-0.03571,0.02747,-0.00749,0.03026,-0.02599,1.10270,5.39177,0.00000,1.68795,1.68857,-0.05268,3.02047,5.32021,-0.25756,4.94817,A,170439.90
5.40670,57.68803666,11.98127761,57.68805,11.98127,17:04:40.122775,0.00412,0.00000,-0.03655,0.00120,-0.03602,0.01098,-0.02230,0.10943,0.01793,1.06360,5.40217,0.00000,1.68795,1.68857,-0.05268,3.02047,5.32021,-0.25756,4.94817,A,170439.90
5.41718,57.68803666,11.98127761,57.68805,11.98127,17:04:40.133247,0.00420,0.00000,-0.03749,0.00054,-0.02136,-0.01147,-0.02261,0.11553,-0.05765,0.90774,5.41239,0.00000,1.68795,1.68857,-0.05268,3.02047,5.32021,-0.25756,4.94817,A,170439.90
5.44108,57.68803666,11.98127761,57.68805,11.98127,17:04:40.157142,0.01770,0.00000,-0.03862,-0.00008,-0.01953,-0.04248,-0.01864,-0.10096,-0.07107,0.90573,5.42311,0.00000,1.68795,1.68857,-0.05268,3.02047,5.43813,-0.28728,5.05937,A,170440.00
5.45700,57.68803758,11.98127742,57.68805,11.98127,17:04:40.173078,0.00670,0.00000,-0.03952,-0.00084,-0.00792,-0.05378,-0.00092,0.11285,-0.04795,0.74328,5.45018,0.00000,1.69798,1.69773,-0.06441,3.12241,5.43813,-0.28728,5.05937,A,170440.00
5.46605,57.68803758,11.98127742,57.68805,11.98127,17:04:40.182128,0.00522,0.00000,-0.04178,-0.00087,0.00277,-0.09684,0.01236,0.23949,-0.11102,0.64032,5.46024,0.00000,1.69798,1.69773,-0.06441,3.12241,5.43813,-0.28728,5.05937,A,170440.00
5.47645,57.68803758,11.98127742,57.68805,11.98127,17:04:40.192764,0.00473,0.00000,-0.04419,-0.00087,-0.00044,-0.16343,0.01725,-0.06387,-0.17379,0.94605,5.47189,0.00000,1.69798,1.69773,-0.06441,3.12241,5.43813,-0.28728,5.05937,A,170440.00
5.48616,57.68803758,11.98127742,57.68805,11.98127,17:04:40.202230,0.00404,0.00000,-0.04364,-0.00090,-0.00334,-0.11639,0.03008,-0.72279,0.02483,1.65036,5.48169,0.00000,1.69798,1.69773,-0.06441,3.12241,5.43813,-0.28728,5.05937,A,170440.00
5.49691,57.68803758,11.98127742,57.68805,11.98127,17:04:40.212980,0.00418,0.00000,-0.04205,-0.00093,0.03301,0.05343,0.02290,-0.40638,0.10614,1.76552,5.49216,0.00000,1.69798,1.69773,-0.06441,3.12241,5.43813,-0.28728,5.05937,A,170440.00
5.50728,57.68803758,11.98127742,57.68805,11.98127,17:04:40.223342,0.00415,0.00000,-0.04181,-0.00107,0.04309,0.13498,0.01679,0.29439,-0.04776,1.35719,5.50275,0.00000,1.69798,1.69773,-0.06441,3.12241,5.43813,-0.28728,5.05937,A,170440.00
5.51758,57.68803758,11.98127742,57.68805,11.98127,17:04:40.233646,0.00422,0.00000,-0.04201,-0.00138,0.03835,0.06641,0.01206,0.47458,-0.05856,0.96307,5.51277,0.00000,1.69798,1.69773,-0.06441,3.12241,5.43813,-0.28728,5.05937,A,170440.00
5.52791,57.68803758,11.98127742,57.68805,11.98127,17:04:40.243965,0.00416,0.00000,-0.04158,-0.00197,0.00552,-0.04309,0.00595,0.01763,0.00159,0.76787,5.52335,0.00000,1.69798,1.69773,-0.06441,3.12241,5.43813,-0.28728,5.05937,A,170440.00
5.53829,57.68803758,11.98127742,57.68805,11.98127,17:04:40.254354,0.00414,0.00000,-0.03891,-0.00274,0.03240,-0.05179,-0.00550,-0.54473,0.10699,0.80221,5.53373,0.00000,1.69798,1.69773,-0.06441,3.12241,5.43813,-0.28728,5.05937,A,170440.00
5.57291,57.68803758,11.98127742,57.68806,11.98127,17:04:40.288982,0.02821,0.00000,-0.04178,-0.00367,0.06157,0.01159,-0.03177,-0.38619,-0.19081,0.73255,5.54412,0.00000,1.69798,1.69773,-0.06441,3.12241,5.56977,-0.32690,5.33736,A,170440.20
5.58802,57.68803858,11.98127720,57.68806,11.98127,17:04:40.304091,0.00753,0.00000,-0.04393,-0.00713,0.01147,-0.03026,-0.03467,0.11071,-0.19258,0.96587,5.58015,0.00000,1.69901,1.69689,-0.07754,3.23316,5.56977,-0.32690,5.33736,A,170440.20
5.59496,57.68803858,11.98127720,57.68806,11.98127,17:04:40.311027,0.00420,0.00000,-0.04472,-0.00837,0.00766,-0.02781,-0.02795,-0.26389,-0.10858,1.25483,5.59049,0.00000,1.69901,1.69689,-0.07754,3.23316,5.56977,-0.32690,5.33736,A,170440.20
5.60525,57.68803858,11.98127720,57.68806,11.98127,17:04:40.321307,0.00423,0.00000,-0.04538,-0.00967,0.02171,0.00578,-0.02887,-0.20642,-0.10724,1.22299,5.60044,0.00000,1.69901,1.69689,-0.07754,3.23316,5.56977,-0.32690,5.33736,A,170440.20
5.61556,57.68803858,11.98127720,57.68806,11.98127,17:04:40.331629,0.00415,0.00000,-0.04548,-0.01100,0.02125,0.01327,-0.02856,0.00500,-0.06271,1.16864,5.61101,0.00000,1.69901,1.69689,-0.07754,3.23316,5.56977,-0.32690,5.33736,A,170440.20
5.62599,57.68803858,11.98127720,57.68806,11.98127,17:04:40.342050,0.00417,0.00000,-0.04366,-0.01222,0.03347,-0.00659,-0.02459,0.26108,0.06844,1.04578,5.62121,0.00000,1.69901,1.69689,-0.07754,3.23316,5.56977,-0.32690,5.33736,A,170440.20
5.63649,57.68803858,11.98127720,57.68806,11.98127,17:04:40.352785,0.00428,0.00000,-0.04345,-0.01327,0.05958,-0.05179,-0.02215,0.23723,-0.05978,0.97374,5.63194,0.00000,1.69901,1.69689,-0.07754,3.23316,5.56977,-0.32690,5.33736,A,170440.20
5.64679,57.68803858,11.98127720,57.68806,11.98127,17:04:40.362853,0.00419,0.00000,-0.04367,-0.01406,0.05851,-0.07378,-0.01864,-0.23942,-0.08961,1.02340,5.64224,0.00000,1.69901,1.69689,-0.07754,3.23316,5.56977,-0.32690,5.33736,A,170440.20
5.65722,57.68803858,11.98127720,57.68806,11.98127,17:04:40.373292,0.00423,0.00000,-0.04459,-0.01457,0.05088,-0.00185,-0.01955,-0.31683,-0.12889,0.99399,5.65241,0.00000,1.69901,1.69689,-0.07754,3.23316,5.56977,-0.32690,5.33736,A,170440.20
5.66753,57.68803858,11.98127720,57.68806,11.98127,17:04:40.383594,0.00414,0.00000,-0.04490,-0.01491,0.03133,0.02335,-0.02108,-0.13823,-0.07180,0.90670,5.66298,0.00000,1.69901,1.69689,-0.07754,3.23316,5.56977,-0.32690,5.33736,A,170440.20
5.69342,57.68803858,11.98127720,57.68806,11.98127,17:04:40.409495,0.01964,0.00000,-0.04462,-0.01508,0.03408,0.03068,-0.02245,0.08113,-0.03697,0.81710,5.67446,0.00000,1.69901,1.69689,-0.07754,3.23316,5.68991,-0.33681,5.52268,A,170440.30
5.71172,57.68803961,11.98127698,57.68806,11.98127,17:04:40.427788,0.00867,0.00000,-0.04299,-0.01615,0.05011,0.01999,-0.03452,-0.16653,-0.02763,1.05262,5.70455,0.00000,1.69392,1.68912,-0.09050,3.34764,5.68991,-0.33681,5.52268,A,170440.30
5.71736,57.68803961,11.98127698,57.68806,11.98127,17:04:40.433423,0.00413,0.00000,-0.04305,-0.01675,0.03789,0.05221,-0.04048,-0.20636,-0.06509,1.11947,5.71265,0.00000,1.69392,1.68912,-0.09050,3.34764,5.68991,-0.33681,5.52268,A,170440.30
5.72778,57.68803961,11.98127698,57.68806,11.98127,17:04:40.443840,0.00415,0.00000,-0.04246,-0.01777,0.03591,0.07038,-0.04277,0.06094,-0.02166,1.00290,5.72323,0.00000,1.69392,1.68912,-0.09050,3.34764,5.68991,-0.33681,5.52268,A,170440.30
5.73866,57.68803961,11.98127698,57.68806,11.98127,17:04:40.454712,0.00463,0.00000,-0.04377,-0.01907,0.02033,0.02732,-0.04582,0.20002,-0.13701,0.98533,5.73410,0.00000,1.69392,1.68912,-0.09050,3.34764,5.68991,-0.33681,5.52268,A,170440.30
5.74843,57.68803961,11.98127698,57.68806,11.98127,17:04:40.464726,0.00401,0.00000,-0.04306,-0.02065,0.01209,-0.02400,-0.03956,0.11047,0.00079,1.02992,5.74399,0.00000,1.69392,1.68912,-0.09050,3.34764,5.68991,-0.33681,5.52268,A,170440.30
5.75898,57.68803961,11.98127698,57.68806,11.98127,17:04:40.475046,0.00417,0.00000,-0.04166,-0.02230,0.02033,-0.04996,-0.04582,-0.10144,0.04026,0.99479,5.75442,0.00000,1.69392,1.68912,-0.09050,3.34764,5.68991,-0.33681,5.52268,A,170440.30
5.76928,57.68803961,11.98127698,57.68806,11.98127,17:04:40.485348,0.00424,0.00000,-0.04139,-0.02382,0.02384,-0.02247,-0.04658,-0.19794,-0.03843,1.06927,5.76446,0.00000,1.69392,1.68912,-0.09050,3.34764,5.68991,-0.33681,5.52268,A,170440.30
5.77956,57.68803961,11.98127698,57.68806,11.98127,17:04:40.495622,0.00412,0.00000,-0.04169,-0.02518,0.01850,0.02029,-0.05269,-0.07869,-0.07137,0.96130,5.77502,0.00000,1.69392,1.68912,-0.09050,3.34764,5.68991,-0.33681,5.52268,A,170440.30
5.79000,57.68803961,11.98127698,57.68806,11.98127,17:04:40.506062,0.00417,0.00000,-0.04135,-0.02629,0.01056,0.03892,-0.05330,0.03928,-0.02507,0.89353,5.78523,0.00000,1.69392,1.68912,-0.09050,3.34764,5.68991,-0.33681,5.52268,A,170440.30
5.81418,57.68803961,11.98127698,57.68806,11.98127,17:04:40.530258,0.01794,0.00000,-0.03936,-0.02714,0.01041,0.03129,-0.04322,0.08699,0.06448,0.81490,5.79582,0.00000,1.69392,1.68912,-0.09050,3.34764,5.81082,-0.36653,5.59681,A,170440.40
5.83015,57.68804062,11.98127675,57.68806,11.98127,17:04:40.546227,0.00833,0.00000,-0.03857,-0.02827,0.00353,0.02212,-0.03574,-0.16812,0.00750,1.03120,5.82137,0.00000,1.71233,1.70393,-0.10430,3.46009,5.81082,-0.36653,5.59681,A,170440.40
5.83731,57.68804062,11.98127675,57.68806,11.98127,17:04:40.553375,0.00509,0.00000,-0.03853,-0.02858,-0.01235,0.03434,-0.04842,-0.06124,-0.02959,1.19212,5.83256,0.00000,1.71233,1.70393,-0.10430,3.46009,5.81082,-0.36653,5.59681,A,170440.40
5.84663,57.68804062,11.98127675,57.68806,11.98127,17:04:40.562691,0.00417,0.00000,-0.03782,-0.02895,-0.01220,0.02991,-0.06262,0.17312,0.02092,1.16364,5.84208,0.00000,1.71233,1.70393,-0.10430,3.46009,5.81082,-0.36653,5.59681,A,170440.40
5.85715,57.68804062,11.98127675,57.68806,11.98127,17:04:40.573216,0.00417,0.00000,-0.03768,-0.02932,-0.01036,0.00090,-0.06231,0.16012,-0.02342,1.11295,5.85238,0.00000,1.71233,1.70393,-0.10430,3.46009,5.81082,-0.36653,5.59681,A,170440.40
5.86752,57.68804062,11.98127675,57.68806,11.98127,17:04:40.583587,0.00415,0.00000,-0.03739,-0.02957,-0.01815,-0.02446,-0.06033,-0.01537,-0.00762,1.02907,5.86297,0.00000,1.71233,1.70393,-0.10430,3.46009,5.81082,-0.36653,5.59681,A,170440.40
5.87794,57.68804062,11.98127675,57.68806,11.98127,17:04:40.594009,0.00418,0.00000,-0.03851,-0.02960,-0.01693,-0.02537,-0.05361,-0.17013,-0.09974,0.95264,5.87315,0.00000,1.71233,1.70393,-0.10430,3.46009,5.81082,-0.36653,5.59681,A,170440.40
5.88828,57.68804062,11.98127675,57.68806,11.98127,17:04:40.604567,0.00412,0.00000,-0.03742,-0.02960,-0.02777,-0.01315,-0.04597,-0.09321,0.04618,0.92775,5.88374,0.00000,1.71233,1.70393,-0.10430,3.46009,5.81082,-0.36653,5.59681,A,170440.40
5.89870,57.68804062,11.98127675,57.68806,11.98127,17:04:40.614762,0.00414,0.00000,-0.03669,-0.02960,-0.01571,-0.01315,-0.04597,-0.06033,0.01696,0.93977,5.89416,0.00000,1.71233,1.70393,-0.10430,3.46009,5.81082,-0.36653,5.59681,A,170440.40
5.90918,57.68804062,11.98127675,57.68806,11.98127,17:04:40.625243,0.00419,0.00000,-0.03604,-0.02960,-0.00319,-0.01483,-0.03146,0.05795,0.00415,0.91372,5.90438,0.00000,1.71233,1.70393,-0.10430,3.46009,5.81082,-0.36653,5.59681,A,170440.40
5.93310,57.68804062,11.98127675,57.68806,11.98127,17:04:40.649175,0.01772,0.00000,-0.03650,-0.02960,0.00430,-0.03179,-0.03330,0.07399,-0.07296,1.02724,5.91496,0.00000,1.71233,1.70393,-0.10430,3.46009,5.92996,-0.37643,5.70801,A,170440.50
5.95188,57.68804163,11.98127652,57.68806,11.98127,17:04:40.667955,0.00829,0.00000,-0.03631,-0.02960,-0.01998,0.01098,-0.02719,-0.11572,0.00988,0.93104,5.94432,0.00000,1.70923,1.70044,-0.11791,3.57249,5.92996,-0.37643,5.70801,A,170440.50
5.95861,57.68804163,11.98127652,57.68806,11.98127,17:04:40.674672,0.00427,0.00000,-0.03533,-0.02960,-0.01724,0.00594,-0.03238,0.02641,0.03373,0.93257,5.95411,0.00000,1.70923,1.70044,-0.11791,3.57249,5.92996,-0.37643,5.70801,A,170440.50
5.96906,57.68804163,11.98127652,57.68806,11.98127,17:04:40.685120,0.00419,0.00000,-0.03369,-0.02960,-0.00960,-0.01636,-0.02612,0.14067,0.07820,0.99601,5.96428,0.00000,1.70923,1.70044,-0.11791,3.57249,5.92996,-0.37643,5.70801,A,170440.50
5.97938,57.68804163,11.98127652,57.68806,11.98127,17:04:40.695435,0.00412,0.00000,-0.03333,-0.02960,0.00491,-0.04416,-0.02810,0.04282,-0.01379,1.19121,5.97483,0.00000,1.70923,1.70044,-0.11791,3.57249,5.92996,-0.37643,5.70801,A,170440.50
5.98997,57.68804163,11.98127652,57.68806,11.98127,17:04:40.706042,0.00433,0.00000,-0.03356,-0.02954,-0.00044,-0.05729,-0.02978,-0.08034,-0.05588,1.17663,5.98503,0.00000,1.70923,1.70044,-0.11791,3.57249,5.92996,-0.37643,5.70801,A,170440.50
6.00019,57.68804163,11.98127652,57.68806,11.98127,17:04:40.716255,0.00414,0.00000,-0.03406,-0.02940,0.00262,-0.03453,-0.02704,-0.07405,-0.07503,1.08617,5.99564,0.00000,1.70923,1.70044,-0.11791,3.57249,5.92996,-0.37643,5.70801,A,170440.50
6.01059,57.68804163,11.98127652,57.68806,11.98127,17:04:40.726650,0.00414,0.00000,-0.03430,-0.02898,0.00185,-0.02781,-0.02536,0.03245,-0.05026,0.92293,6.00602,0.00000,1.70923,1.70044,-0.11791,3.57249,5.92996,-0.37643,5.70801,A,170440.50
6.02123,57.68804163,11.98127652,57.68806,11.98127,17:04:40.737292,0.00422,0.00000,-0.03537,-0.02818,0.00155,-0.03469,-0.01024,-0.00982,-0.08912,0.77738,6.01643,0.00000,1.70923,1.70044,-0.11791,3.57249,5.92996,-0.37643,5.70801,A,170440.50
6.04535,57.68804163,11.98127652,57.68806,11.98127,17:04:40.761420,0.01794,0.00000,-0.03426,-0.02705,-0.00380,-0.02965,-0.00001,-0.21539,0.02623,0.76341,6.02700,0.00000,1.70923,1.70044,-0.11791,3.57249,6.04200,-0.38634,5.87480,A,170440.60
6.06003,57.68804266,11.98127629,57.68806,11.98127,17:04:40.776095,0.00687,0.00000,-0.03445,-0.02414,-0.00700,0.07496,-0.01406,-0.12810,-0.03349,1.08391,6.05371,0.00000,1.70430,1.69714,-0.13133,3.68761,6.04200,-0.38634,5.87480,A,170440.60
6.06762,57.68804266,11.98127629,57.68806,11.98127,17:04:40.783695,0.00422,0.00000,-0.03405,-0.02337,-0.02197,0.06473,-0.02184,0.02202,0.01391,1.19847,6.06316,0.00000,1.70430,1.69714,-0.13133,3.68761,6.04200,-0.38634,5.87480,A,170440.60
6.07795,57.68804266,11.98127629,57.68806,11.98127,17:04:40.794015,0.00415,0.00000,-0.03310,-0.02275,-0.02686,0.03251,-0.02291,0.09772,0.06801,1.26069,6.07319,0.00000,1.70430,1.69714,-0.13133,3.68761,6.04200,-0.38634,5.87480,A,170440.60
6.08840,57.68804266,11.98127629,57.68806,11.98127,17:04:40.804678,0.00420,0.00000,-0.03325,-0.02224,-0.02457,-0.00750,-0.02429,0.00458,-0.02367,1.16120,6.08385,0.00000,1.70430,1.69714,-0.13133,3.68761,6.04200,-0.38634,5.87480,A,170440.60
6.09877,57.68804266,11.98127629,57.68806,11.98127,17:04:40.814833,0.00418,0.00000,-0.03325,-0.02181,-0.02670,-0.01254,-0.02154,-0.10748,-0.01092,1.06109,6.09423,0.00000,1.70430,1.69714,-0.13133,3.68761,6.04200,-0.38634,5.87480,A,170440.60
6.10934,57.68804266,11.98127629,57.68806,11.98127,17:04:40.825406,0.00424,0.00000,-0.03363,-0.02122,-0.02365,-0.00078,-0.01573,-0.08089,-0.03471,0.84912,6.10454,0.00000,1.70430,1.69714,-0.13133,3.68761,6.04200,-0.38634,5.87480,A,170440.60
6.11961,57.68804266,11.98127629,57.68806,11.98127,17:04:40.835668,0.00411,0.00000,-0.03509,-0.02046,-0.03571,0.00716,-0.01222,-0.00287,-0.07521,0.69125,6.11508,0.00000,1.70430,1.69714,-0.13133,3.68761,6.04200,-0.38634,5.87480,A,170440.60
6.13007,57.68804266,11.98127629,57.68806,11.98127,17:04:40.846136,0.00417,0.00000,-0.03628,-0.01961,-0.03373,0.00532,-0.00566,-0.11315,-0.06179,0.65581,6.12530,0.00000,1.70430,1.69714,-0.13133,3.68761,6.04200,-0.38634,5.87480,A,170440.60
6.14041,57.68804266,11.98127629,57.68806,11.98127,17:04:40.856709,0.00411,0.00000,-0.03609,-0.01867,-0.03297,0.01128,0.00549,-0.16116,0.00159,0.81398,6.13587,0.00000,1.70430,1.69714,-0.13133,3.68761,6.04200,-0.38634,5.87480,A,170440.60
6.17505,57.68804266,11.98127629,57.68806,11.98127,17:04:40.891117,0.02835,0.00000,-0.03554,-0.01774,-0.02105,0.04091,0.01053,-0.06429,0.02300,1.03066,6.14625,0.00000,1.70430,1.69714,-0.13133,3.68761,6.17192,-0.43587,6.11572,A,170440.80
