Time,lat_estimated,lon_estimated,latitude,longitude,RealTime,CalculationTime,MeasuredVelocity,Roll,SteeringAngle,RollRate,gy,gz,ax,ay,az,imu_read_timing,v_estimated,yaw_estimated,heading_estimated,x_estimated,y_estimated,GPS_timestamp,x_GPS,y_GPS,status,NMEA timestamp
0.04677,0.00000000,0.00000000,57.68795,11.98123,14:54:50.838438,0.04674,0.00000,0.00105,-0.07679,0.01191,0.00919,0.00247,-0.00061,0.08455,1.01034,0.00001,0.00000,0.00000,0.00000,0.00000,0.00000,0.01489,-0.87174,-1.96444,A,145450.70
0.05835,0.00000000,0.00000000,57.68795,11.98123,14:54:50.849225,0.00481,0.00000,0.00221,-0.07378,0.00778,0.02492,-0.00715,-0.00134,0.07082,0.98948,0.05460,0.00000,0.00000,0.00000,0.00000,0.00000,0.01489,-0.87174,-1.96444,A,145450.70
0.06727,0.00000000,0.00000000,57.68795,11.98123,14:54:50.858131,0.00333,0.00000,0.00289,-0.07339,0.01023,0.02309,-0.00898,-0.00171,0.06155,0.98161,0.06357,0.00000,0.00000,0.00000,0.00000,0.00000,0.01489,-0.87174,-1.96444,A,145450.70
0.07746,0.00000000,0.00000000,57.68795,11.98123,14:54:50.868318,0.00312,0.00000,0.00366,-0.07299,0.00992,0.02584,-0.00807,0.00604,0.06667,0.97161,0.07376,0.00000,0.00000,0.00000,0.00000,0.00000,0.01489,-0.87174,-1.96444,A,145450.70
0.08784,0.00000000,0.00000000,57.68795,11.98123,14:54:50.878691,0.00294,0.00000,0.00442,-0.07265,0.00977,0.02386,-0.00532,0.02287,0.06625,0.96398,0.08416,0.00000,0.00000,0.00000,0.00000,0.00000,0.01489,-0.87174,-1.96444,A,145450.70
0.09853,0.00000000,0.00000000,57.68795,11.98123,14:54:50.889386,0.00322,0.00000,0.00514,-0.07231,0.00900,0.01927,-0.00501,0.03617,0.06460,0.95880,0.09474,0.00000,0.00000,0.00000,0.00000,0.00000,0.01489,-0.87174,-1.96444,A,145450.70
0.10860,0.00000000,0.00000000,57.68795,11.98123,14:54:50.899705,0.00291,0.00000,0.00591,-0.07203,0.00473,0.01759,-0.00456,0.03672,0.07271,0.97185,0.10493,0.00000,0.00000,0.00000,0.00000,0.00000,0.01489,-0.87174,-1.96444,A,145450.70
0.13141,0.00000000,0.00000000,57.68795,11.98123,14:54:50.922276,0.01526,0.00000,0.00675,-0.07178,0.00824,0.01866,-0.00761,0.01568,0.07692,1.00223,0.11561,0.00000,0.00000,0.00000,0.00000,0.00000,0.13027,-0.89156,-1.96444,A,145450.80
0.14529,0.00000000,0.00000000,57.68795,11.98123,14:54:50.936154,0.00428,0.00000,0.00729,-0.07146,0.00397,0.02416,-0.01204,0.04910,0.05807,1.01608,0.14140,0.00000,0.00000,0.00000,0.00000,0.00000,0.13027,-0.89156,-1.96444,A,145450.80
0.15457,0.00000000,0.00000000,57.68795,11.98123,14:54:50.945425,0.00317,0.00000,0.00767,-0.07146,-0.00001,0.01591,-0.01418,0.06710,0.05374,0.99881,0.15089,0.00000,0.00000,0.00000,0.00000,0.00000,0.13027,-0.89156,-1.96444,A,145450.80
0.16493,0.00000000,0.00000000,57.68795,11.98123,14:54:50.955800,0.00312,0.00000,0.00822,-0.07146,-0.00245,0.00950,-0.01372,0.05069,0.06594,0.98155,0.16102,0.00000,0.00000,0.00000,0.00000,0.00000,0.13027,-0.89156,-1.96444,A,145450.80
0.17533,0.00000000,0.00000000,57.68795,11.98123,14:54:50.966181,0.00313,0.00000,0.00891,-0.07146,-0.00260,0.00828,-0.01357,0.01360,0.07521,0.97167,0.17164,0.00000,0.00000,0.00000,0.00000,0.00000,0.13027,-0.89156,-1.96444,A,145450.80
0.18572,0.00000000,0.00000000,57.68795,11.98123,14:54:50.976572,0.00313,0.00000,0.00952,-0.07146,-0.00489,0.01149,-0.01662,0.00549,0.07229,0.97722,0.18202,0.00000,0.00000,0.00000,0.00000,0.00000,0.13027,-0.89156,-1.96444,A,145450.80
0.19709,0.00000000,0.00000000,57.68795,11.98123,14:54:50.987980,0.00392,0.00000,0.01015,-0.07146,-0.00489,0.01393,-0.01341,0.04538,0.07369,0.96715,0.19314,0.00000,0.00000,0.00000,0.00000,0.00000,0.13027,-0.89156,-1.96444,A,145450.80
0.20670,0.00000000,0.00000000,57.68795,11.98123,14:54:50.997549,0.00313,0.00000,0.01081,-0.07146,-0.00611,0.00813,-0.01754,0.08021,0.07747,0.97704,0.20302,0.00000,0.00000,0.00000,0.00000,0.00000,0.13027,-0.89156,-1.96444,A,145450.80
0.21707,0.00000000,0.00000000,57.68795,11.98123,14:54:51.007942,0.00312,0.00000,0.01127,-0.07146,-0.00795,-0.00287,-0.01250,0.05716,0.06698,0.98430,0.21318,0.00000,0.00000,0.00000,0.00000,0.00000,0.13027,-0.89156,-1.96444,A,145450.80
0.22749,0.00000000,0.00000000,57.68795,11.98123,14:54:51.018338,0.00314,0.00000,0.01163,-0.07146,-0.01375,-0.00486,-0.01143,0.02532,0.06539,0.99345,0.22381,0.00000,0.00000,0.00000,0.00000,0.00000,0.13027,-0.89156,-1.96444,A,145450.80
0.24968,0.00000000,0.00000000,57.68795,11.98123,14:54:51.040537,0.01493,0.00000,0.01196,-0.07146,-0.01589,-0.00654,-0.01189,0.02525,0.06466,0.98057,0.23418,0.00000,0.00000,0.00000,0.00000,0.00000,0.24836,-0.89156,-1.94591,A,145450.90
0.26353,0.00000000,0.00000000,57.68795,11.98123,14:54:51.054393,0.00483,0.00000,0.01193,-0.07146,-0.02383,-0.00944,-0.01708,0.04282,0.07003,0.98722,0.25982,0.00000,0.00000,0.00000,0.00000,0.00000,0.24836,-0.89156,-1.94591,A,145450.90
0.27315,0.00000000,0.00000000,57.68795,11.98123,14:54:51.064018,0.00405,0.00000,0.01249,-0.07146,-0.02261,-0.00684,-0.01754,0.02050,0.08491,0.99991,0.26925,0.00000,0.00000,0.00000,0.00000,0.00000,0.24836,-0.89156,-1.94591,A,145450.90
0.28265,0.00000000,0.00000000,57.68795,11.98123,14:54:51.073509,0.00315,0.00000,0.01293,-0.07146,-0.02734,-0.00058,-0.01586,-0.00756,0.08180,1.01620,0.27897,0.00000,0.00000,0.00000,0.00000,0.00000,0.24836,-0.89156,-1.94591,A,145450.90
0.29303,0.00000000,0.00000000,57.68795,11.98123,14:54:51.083899,0.00314,0.00000,0.01348,-0.07146,-0.02413,0.00431,-0.01570,-0.00134,0.08784,1.01254,0.28912,0.00000,0.00000,0.00000,0.00000,0.00000,0.24836,-0.89156,-1.94591,A,145450.90
0.30355,0.00000000,0.00000000,57.68795,11.98123,14:54:51.094408,0.00321,0.00000,0.01376,-0.07146,-0.02551,0.00889,-0.01555,0.03477,0.07039,0.98942,0.29987,0.00000,0.00000,0.00000,0.00000,0.00000,0.24836,-0.89156,-1.94591,A,145450.90
0.31386,0.00000000,0.00000000,57.68795,11.98123,14:54:51.104712,0.00312,0.00000,0.01384,-0.07146,-0.02841,0.00110,-0.01463,0.06808,0.05710,0.95739,0.31017,0.00000,0.00000,0.00000,0.00000,0.00000,0.24836,-0.89156,-1.94591,A,145450.90
0.32510,0.00000000,0.00000000,57.68795,11.98123,14:54:51.115967,0.00398,0.00000,0.01378,-0.07146,-0.03482,-0.00623,-0.01433,0.05765,0.05405,0.96301,0.32120,0.00000,0.00000,0.00000,0.00000,0.00000,0.24836,-0.89156,-1.94591,A,145450.90
0.33468,0.00000000,0.00000000,57.68795,11.98123,14:54:51.125530,0.00316,0.00000,0.01397,-0.07146,-0.04124,-0.02165,-0.01815,0.01397,0.07320,0.99131,0.33099,0.00000,0.00000,0.00000,0.00000,0.00000,0.24836,-0.89156,-1.94591,A,145450.90
0.34506,0.00000000,0.00000000,57.68795,11.98123,14:54:51.135922,0.00315,0.00000,0.01432,-0.07146,-0.04078,-0.01753,-0.01418,-0.02355,0.08912,1.03883,0.34114,0.00000,0.00000,0.00000,0.00000,0.00000,0.24836,-0.89156,-1.94591,A,145450.90
0.37815,0.00000000,0.00000000,57.68795,11.98123,14:54:51.169014,0.02584,0.00000,0.01452,-0.07146,-0.04139,-0.00837,-0.02013,0.00195,0.08241,1.06274,0.35175,0.00000,0.00000,0.00000,0.00000,0.00000,0.37701,-0.92127,-1.89031,A,145451.10
0.38814,0.00000000,0.00000000,57.68795,11.98123,14:54:51.178994,0.00306,0.00000,0.01347,-0.07146,-0.05010,-0.01035,-0.02685,0.00159,0.07058,0.95947,0.38445,0.00000,0.00000,0.00000,0.00000,0.00000,0.37701,-0.92127,-1.89031,A,145451.10
0.39860,0.00000000,0.00000000,57.68795,11.98123,14:54:51.189451,0.00312,0.00000,0.01338,-0.07146,-0.05193,-0.00470,-0.02135,-0.04215,0.06033,0.93897,0.39492,0.00000,0.00000,0.00000,0.00000,0.00000,0.37701,-0.92127,-1.89031,A,145451.10
0.40901,0.00000000,0.00000000,57.68795,11.98123,14:54:51.199883,0.00314,0.00000,0.01337,-0.07146,-0.05575,-0.00043,-0.01723,-0.02910,0.06771,0.95331,0.40510,0.00000,0.00000,0.00000,0.00000,0.00000,0.37701,-0.92127,-1.89031,A,145451.10
0.41939,0.00000000,0.00000000,57.68795,11.98123,14:54:51.210247,0.00313,0.00000,0.01325,-0.07146,-0.05162,0.01149,-0.01601,0.00701,0.06216,0.99101,0.41570,0.00000,0.00000,0.00000,0.00000,0.00000,0.37701,-0.92127,-1.89031,A,145451.10
0.43011,0.00000000,0.00000000,57.68795,11.98123,14:54:51.220978,0.00346,0.00000,0.01313,-0.07146,-0.05162,0.00874,-0.01357,0.03953,0.06307,1.01242,0.42639,0.00000,0.00000,0.00000,0.00000,0.00000,0.37701,-0.92127,-1.89031,A,145451.10
0.44004,0.00000000,0.00000000,57.68795,11.98123,14:54:51.230892,0.00293,0.00000,0.01310,-0.07146,-0.04842,0.00843,-0.01418,0.03398,0.06490,1.01864,0.43637,0.00000,0.00000,0.00000,0.00000,0.00000,0.37701,-0.92127,-1.89031,A,145451.10
0.45143,0.00000000,0.00000000,57.68795,11.98123,14:54:51.242289,0.00392,0.00000,0.01306,-0.07146,-0.04918,0.00431,-0.01189,0.01635,0.06893,1.00790,0.44774,0.00000,0.00000,0.00000,0.00000,0.00000,0.37701,-0.92127,-1.89031,A,145451.10
0.46117,0.00000000,0.00000000,57.68795,11.98123,14:54:51.252027,0.00314,0.00000,0.01302,-0.07146,-0.04445,0.00309,-0.01295,0.00476,0.05966,1.00363,0.45728,0.00000,0.00000,0.00000,0.00000,0.00000,0.37701,-0.92127,-1.89031,A,145451.10
0.47155,0.00000000,0.00000000,57.68795,11.98123,14:54:51.262401,0.00312,0.00000,0.01272,-0.07146,-0.04979,-0.00180,-0.01265,-0.00323,0.04904,1.01156,0.46787,0.00000,0.00000,0.00000,0.00000,0.00000,0.37701,-0.92127,-1.89031,A,145451.10
0.49464,0.00000000,0.00000000,57.68795,11.98122,14:54:51.285499,0.01581,0.00000,0.01276,-0.07146,-0.04826,0.00156,-0.01509,0.03050,0.06985,1.00375,0.47823,0.00000,0.00000,0.00000,0.00000,0.00000,0.49350,-0.97080,-1.85325,A,145451.20
0.50993,0.00000000,0.00000000,57.68795,11.98122,14:54:51.300790,0.00570,0.00000,0.01214,-0.07146,-0.04506,0.00431,-0.01738,-0.02544,0.07351,0.97667,0.50620,0.00000,0.00000,0.00000,0.00000,0.00000,0.49350,-0.97080,-1.85325,A,145451.20
0.51775,0.00000000,0.00000000,57.68795,11.98122,14:54:51.308616,0.00313,0.00000,0.01222,-0.07146,-0.04093,0.01347,-0.01891,-0.05893,0.05899,0.98570,0.51405,0.00000,0.00000,0.00000,0.00000,0.00000,0.49350,-0.97080,-1.85325,A,145451.20
0.52804,0.00000000,0.00000000,57.68795,11.98122,14:54:51.318888,0.00293,0.00000,0.01196,-0.07146,-0.03910,0.02294,-0.01998,-0.03483,0.04154,0.98094,0.52436,0.00000,0.00000,0.00000,0.00000,0.00000,0.49350,-0.97080,-1.85325,A,145451.20
0.53870,0.00000000,0.00000000,57.68795,11.98122,14:54:51.329556,0.00319,0.00000,0.01147,-0.07146,-0.04185,0.02447,-0.02120,0.02080,0.03007,1.01010,0.53503,0.00000,0.00000,0.00000,0.00000,0.00000,0.49350,-0.97080,-1.85325,A,145451.20
0.54912,0.00000000,0.00000000,57.68795,11.98122,14:54:51.339985,0.00321,0.00000,0.01133,-0.07146,-0.03849,0.02599,-0.01433,0.04496,0.04972,1.02443,0.54514,0.00000,0.00000,0.00000,0.00000,0.00000,0.49350,-0.97080,-1.85325,A,145451.20
0.55945,0.00000000,0.00000000,57.68795,11.98122,14:54:51.350308,0.00316,0.00000,0.01146,-0.07146,-0.03864,0.01912,-0.01097,0.04898,0.07033,1.02986,0.55576,0.00000,0.00000,0.00000,0.00000,0.00000,0.49350,-0.97080,-1.85325,A,145451.20
0.56995,0.00000000,0.00000000,57.68795,11.98122,14:54:51.360814,0.00325,0.00000,0.01177,-0.07144,-0.03880,0.01607,-0.01112,0.01055,0.08070,1.01339,0.56612,0.00000,0.00000,0.00000,0.00000,0.00000,0.49350,-0.97080,-1.85325,A,145451.20
0.58007,0.00000000,0.00000000,57.68795,11.98122,14:54:51.370920,0.00295,0.00000,0.01194,-0.07132,-0.03635,0.01439,-0.00975,0.01507,0.06759,0.98247,0.57638,0.00000,0.00000,0.00000,0.00000,0.00000,0.49350,-0.97080,-1.85325,A,145451.20
0.59060,0.00000000,0.00000000,57.68795,11.98122,14:54:51.381463,0.00309,0.00000,0.01207,-0.07112,-0.02963,0.01072,-0.01005,0.01214,0.05935,0.96026,0.58694,0.00000,0.00000,0.00000,0.00000,0.00000,0.49350,-0.97080,-1.85325,A,145451.20
0.61513,0.00000000,0.00000000,57.68795,11.98122,14:54:51.405995,0.01722,0.00000,0.01178,-0.07078,-0.03070,0.01362,-0.01326,0.01171,0.03276,0.94080,0.59715,0.00000,0.00000,0.00000,0.00000,0.00000,0.61395,-0.99062,-1.81618,A,145451.30
0.63003,0.00000000,0.00000000,57.68795,11.98122,14:54:51.420904,0.00559,0.00000,0.01102,-0.06960,-0.03147,0.00889,-0.02197,0.00177,0.04203,0.99582,0.62628,0.00000,0.00000,0.00000,0.00000,0.00000,0.61395,-0.99062,-1.81618,A,145451.30
0.63799,0.00000000,0.00000000,57.68795,11.98122,14:54:51.428855,0.00316,0.00000,0.01105,-0.06912,-0.02581,0.00736,-0.02670,0.01867,0.04795,1.00699,0.63430,0.00000,0.00000,0.00000,0.00000,0.00000,0.61395,-0.99062,-1.81618,A,145451.30
0.64809,0.00000000,0.00000000,57.68795,11.98122,14:54:51.438949,0.00296,0.00000,0.01077,-0.06846,-0.03009,0.00507,-0.01952,0.05856,0.03398,1.01010,0.64441,0.00000,0.00000,0.00000,0.00000,0.00000,0.61395,-0.99062,-1.81618,A,145451.30
0.65863,0.00000000,0.00000000,57.68795,11.98122,14:54:51.449492,0.00310,0.00000,0.01059,-0.06773,-0.02780,-0.00684,-0.01754,0.04416,0.03910,1.01290,0.65495,0.00000,0.00000,0.00000,0.00000,0.00000,0.61395,-0.99062,-1.81618,A,145451.30
0.66917,0.00000000,0.00000000,57.68795,11.98122,14:54:51.460039,0.00324,0.00000,0.01079,-0.06699,-0.02490,-0.01325,-0.01631,0.00256,0.06362,1.02639,0.66518,0.00000,0.00000,0.00000,0.00000,0.00000,0.61395,-0.99062,-1.81618,A,145451.30
0.67950,0.00000000,0.00000000,57.68795,11.98122,14:54:51.470355,0.00314,0.00000,0.01116,-0.06628,-0.01971,-0.00760,-0.01555,-0.04465,0.07283,1.03395,0.67582,0.00000,0.00000,0.00000,0.00000,0.00000,0.61395,-0.99062,-1.81618,A,145451.30
0.68990,0.00000000,0.00000000,57.68795,11.98122,14:54:51.480754,0.00314,0.00000,0.01140,-0.06575,-0.01131,0.00583,-0.01234,-0.02507,0.05630,1.01016,0.68620,0.00000,0.00000,0.00000,0.00000,0.00000,0.61395,-0.99062,-1.81618,A,145451.30
0.70169,0.00000000,0.00000000,57.68795,11.98122,14:54:51.492617,0.00457,0.00000,0.01164,-0.06532,-0.00703,0.00919,-0.01265,-0.02782,0.05331,0.99839,0.69639,0.00000,0.00000,0.00000,0.00000,0.00000,0.61395,-0.99062,-1.81618,A,145451.30
0.71066,0.00000000,0.00000000,57.68795,11.98122,14:54:51.501518,0.00314,0.00000,0.01168,-0.06498,-0.00077,0.01591,-0.01387,0.00409,0.03453,0.96911,0.70699,0.00000,0.00000,0.00000,0.00000,0.00000,0.61395,-0.99062,-1.81618,A,145451.30
0.73443,0.00000000,0.00000000,57.68795,11.98122,14:54:51.525299,0.01651,0.00000,0.01169,-0.06470,-0.00398,0.01546,-0.01311,-0.00201,0.03489,0.95819,0.71716,0.00000,0.00000,0.00000,0.00000,0.00000,0.73328,-1.02034,-1.77912,A,145451.40
0.74404,0.00000000,0.00000000,57.68795,11.98122,14:54:51.534899,0.00411,0.00000,0.01183,-0.06368,0.00549,0.01439,-0.00868,-0.01391,0.03410,1.01888,0.74035,0.00000,0.00000,0.00000,0.00000,0.00000,0.73328,-1.02034,-1.77912,A,145451.40
0.75347,0.00000000,0.00000000,57.68795,11.98122,14:54:51.544323,0.00313,0.00000,0.01219,-0.06303,0.01084,0.01637,-0.00898,0.04764,0.05179,1.02510,0.74977,0.00000,0.00000,0.00000,0.00000,0.00000,0.73328,-1.02034,-1.77912,A,145451.40
0.76370,0.00000000,0.00000000,57.68795,11.98122,14:54:51.554554,0.00313,0.00000,0.01277,-0.06210,0.01252,0.00507,-0.00990,0.05984,0.06503,1.02437,0.76002,0.00000,0.00000,0.00000,0.00000,0.00000,0.73328,-1.02034,-1.77912,A,145451.40
0.77416,0.00000000,0.00000000,57.68795,11.98122,14:54:51.565012,0.00314,0.00000,0.01327,-0.06105,0.01618,-0.00745,-0.00593,0.00464,0.05697,1.02327,0.77048,0.00000,0.00000,0.00000,0.00000,0.00000,0.73328,-1.02034,-1.77912,A,145451.40
0.78424,0.00000000,0.00000000,57.68795,11.98122,14:54:51.575095,0.00297,0.00000,0.01362,-0.05992,0.01695,-0.00791,-0.00776,-0.03867,0.04679,0.99948,0.78056,0.00000,0.00000,0.00000,0.00000,0.00000,0.73328,-1.02034,-1.77912,A,145451.40
0.79476,0.00000000,0.00000000,57.68795,11.98122,14:54:51.585612,0.00310,0.00000,0.01424,-0.05873,0.02137,0.00064,-0.00853,-0.03111,0.05954,0.97362,0.79109,0.00000,0.00000,0.00000,0.00000,0.00000,0.73328,-1.02034,-1.77912,A,145451.40
0.80518,0.00000000,0.00000000,57.68795,11.98122,14:54:51.596047,0.00313,0.00000,0.01479,-0.05754,0.02687,0.00141,-0.01066,0.01110,0.05173,0.95337,0.80129,0.00000,0.00000,0.00000,0.00000,0.00000,0.73328,-1.02034,-1.77912,A,145451.40
0.81557,0.00000000,0.00000000,57.68795,11.98122,14:54:51.606417,0.00312,0.00000,0.01538,-0.05635,0.02962,-0.00822,-0.00975,0.03587,0.05203,0.95312,0.81189,0.00000,0.00000,0.00000,0.00000,0.00000,0.73328,-1.02034,-1.77912,A,145451.40
0.82592,0.00000000,0.00000000,57.68795,11.98122,14:54:51.616775,0.00307,0.00000,0.01583,-0.05528,0.03008,-0.02013,-0.00471,0.00769,0.04490,0.98295,0.82223,0.00000,0.00000,0.00000,0.00000,0.00000,0.73328,-1.02034,-1.77912,A,145451.40
0.84940,0.00000000,0.00000000,57.68795,11.98122,14:54:51.640261,0.01627,0.00000,0.01645,-0.05414,0.03451,-0.01845,-0.00242,-0.03019,0.05569,1.00912,0.83239,0.00000,0.00000,0.00000,0.00000,0.00000,0.84810,-1.07977,-1.74205,A,145451.50
0.85836,0.00000000,0.00000000,57.68795,11.98122,14:54:51.649215,0.00325,0.00000,0.01792,-0.05160,0.05161,0.00507,0.00445,-0.00762,0.06045,0.99723,0.85468,0.00000,0.00000,0.00000,0.00000,0.00000,0.84810,-1.07977,-1.74205,A,145451.50
0.86846,0.00000000,0.00000000,57.68795,11.98122,14:54:51.659505,0.00311,0.00000,0.01839,-0.05027,0.05726,0.00293,0.00766,0.03727,0.03202,0.97319,0.86462,0.00000,0.00000,0.00000,0.00000,0.00000,0.84810,-1.07977,-1.74205,A,145451.50
0.87885,0.00000000,0.00000000,57.68795,11.98122,14:54:51.669708,0.00311,0.00000,0.01908,-0.04882,0.06322,-0.00776,0.01041,-0.01812,0.04081,0.99192,0.87518,0.00000,0.00000,0.00000,0.00000,0.00000,0.84810,-1.07977,-1.74205,A,145451.50
0.88937,0.00000000,0.00000000,57.68795,11.98122,14:54:51.680230,0.00323,0.00000,0.02013,-0.04724,0.06826,-0.00272,0.00522,-0.07533,0.06777,1.04048,0.88536,0.00000,0.00000,0.00000,0.00000,0.00000,0.84810,-1.07977,-1.74205,A,145451.50
0.89978,0.00000000,0.00000000,57.68795,11.98122,14:54:51.690626,0.00324,0.00000,0.02087,-0.04537,0.07391,0.00981,0.00675,0.00122,0.03843,0.99942,0.89610,0.00000,0.00000,0.00000,0.00000,0.00000,0.84810,-1.07977,-1.74205,A,145451.50
0.91005,0.00000000,0.00000000,57.68795,11.98122,14:54:51.700905,0.00312,0.00000,0.02147,-0.04339,0.06704,-0.00333,0.00812,0.07594,0.03465,0.94733,0.90636,0.00000,0.00000,0.00000,0.00000,0.00000,0.84810,-1.07977,-1.74205,A,145451.50
0.92010,0.00000000,0.00000000,57.68795,11.98122,14:54:51.710959,0.00295,0.00000,0.02233,-0.04121,0.06826,-0.01585,0.01163,0.04825,0.05173,0.94629,0.91642,0.00000,0.00000,0.00000,0.00000,0.00000,0.84810,-1.07977,-1.74205,A,145451.50
0.93090,0.00000000,0.00000000,57.68795,11.98122,14:54:51.721757,0.00335,0.00000,0.02351,-0.03883,0.06597,-0.02410,0.01117,-0.04935,0.07521,0.99180,0.92721,0.00000,0.00000,0.00000,0.00000,0.00000,0.84810,-1.07977,-1.74205,A,145451.50
0.94109,0.00000000,0.00000000,57.68795,11.98122,14:54:51.731960,0.00314,0.00000,0.02483,-0.03654,0.06872,-0.00990,0.01041,-0.07338,0.08943,1.02041,0.93718,0.00000,0.00000,0.00000,0.00000,0.00000,0.84810,-1.07977,-1.74205,A,145451.50
0.97771,0.00000000,0.00000000,57.68795,11.98122,14:54:51.768578,0.02938,0.00000,0.02586,-0.03436,0.06826,0.00599,0.00675,-0.02574,0.06783,1.01516,0.94778,0.00000,0.00000,0.00000,0.00000,0.00000,0.97642,-1.15902,-1.59379,A,145451.70
0.98995,0.00000000,0.00000000,57.68795,11.98122,14:54:51.780819,0.00489,0.00000,0.02887,-0.02878,0.06062,0.00080,0.01194,-0.07277,0.09943,1.04694,0.98624,0.00000,0.00000,0.00000,0.00000,0.00000,0.97642,-1.15902,-1.59379,A,145451.70
0.99871,0.00000000,0.00000000,57.68795,11.98122,14:54:51.789569,0.00326,0.00000,0.02983,-0.02793,0.06169,0.01057,0.00980,-0.08924,0.08571,1.09001,0.99503,0.00000,0.00000,0.00000,0.00000,0.00000,0.97642,-1.15902,-1.59379,A,145451.70
1.00899,0.00000000,0.00000000,57.68795,11.98122,14:54:51.799864,0.00314,0.00000,0.03050,-0.02723,0.05833,0.01652,0.01728,-0.01043,0.06173,1.08183,1.00508,0.00000,0.00000,0.00000,0.00000,0.00000,0.97642,-1.15902,-1.59379,A,145451.70
1.01937,0.00000000,0.00000000,57.68795,11.98122,14:54:51.810227,0.00312,0.00000,0.03100,-0.02660,0.05650,0.01546,0.01591,0.06149,0.04569,1.00693,1.01570,0.00000,0.00000,0.00000,0.00000,0.00000,0.97642,-1.15902,-1.59379,A,145451.70
1.02983,0.00000000,0.00000000,57.68795,11.98122,14:54:51.820697,0.00319,0.00000,0.03186,-0.02604,0.04474,-0.00272,0.01621,0.03410,0.07405,0.93812,1.02614,0.00000,0.00000,0.00000,0.00000,0.00000,0.97642,-1.15902,-1.59379,A,145451.70
1.04004,0.00000000,0.00000000,57.68795,11.98122,14:54:51.830891,0.00293,0.00000,0.03318,-0.02539,0.04459,-0.00745,0.01896,-0.08046,0.10169,0.91006,1.03637,0.00000,0.00000,0.00000,0.00000,0.00000,0.97642,-1.15902,-1.59379,A,145451.70
1.05062,0.00000000,0.00000000,57.68795,11.98122,14:54:51.841473,0.00311,0.00000,0.03504,-0.02459,0.05619,0.01179,0.02278,-0.12981,0.12517,0.89664,1.04694,0.00000,0.00000,0.00000,0.00000,0.00000,0.97642,-1.15902,-1.59379,A,145451.70
1.06122,0.00000000,0.00000000,57.68795,11.98122,14:54:51.852081,0.00326,0.00000,0.03593,-0.02375,0.05268,0.02767,0.02248,-0.06808,0.07412,0.92934,1.05731,0.00000,0.00000,0.00000,0.00000,0.00000,0.97642,-1.15902,-1.59379,A,145451.70
1.07159,0.00000000,0.00000000,57.68795,11.98122,14:54:51.862443,0.00311,0.00000,0.03643,-0.02276,0.05543,0.02721,0.01973,0.07765,0.04972,0.96112,1.06791,0.00000,0.00000,0.00000,0.00000,0.00000,0.97642,-1.15902,-1.59379,A,145451.70
1.09504,0.00000000,0.00000000,57.68795,11.98122,14:54:51.885911,0.01616,0.00000,0.03683,-0.02179,0.04795,0.01271,0.02309,0.06509,0.05344,1.02285,1.07823,0.00000,0.00000,0.00000,0.00000,0.00000,1.09390,-1.20855,-1.51966,A,145451.80
1.10385,0.00000000,0.00000000,57.68795,11.98122,14:54:51.894703,0.00304,0.00000,0.03794,-0.01961,0.04474,-0.01371,0.03271,-0.04709,0.07143,1.05682,1.10016,0.00000,0.00000,0.00000,0.00000,0.00000,1.09390,-1.20855,-1.51966,A,145451.80
1.11436,0.00000000,0.00000000,57.68795,11.98122,14:54:51.905217,0.00315,0.00000,0.03852,-0.01859,0.03756,-0.00715,0.03378,-0.06240,0.07448,1.04231,1.11068,0.00000,0.00000,0.00000,0.00000,0.00000,1.09390,-1.20855,-1.51966,A,145451.80
1.12439,0.00000000,0.00000000,57.68795,11.98122,14:54:51.915436,0.00295,0.00000,0.03951,-0.01769,0.03894,-0.00043,0.03011,0.01238,0.09876,0.98338,1.12072,0.00000,0.00000,0.00000,0.00000,0.00000,1.09390,-1.20855,-1.51966,A,145451.80
1.13513,0.00000000,0.00000000,57.68795,11.98122,14:54:51.925979,0.00329,0.00000,0.04119,-0.01690,0.03374,-0.00623,0.02568,0.04618,0.13963,0.93300,1.13144,0.00000,0.00000,0.00000,0.00000,0.00000,1.09390,-1.20855,-1.51966,A,145451.80
1.14535,0.00000000,0.00000000,57.68795,11.98122,14:54:51.936206,0.00312,0.00000,0.04249,-0.01633,0.03741,-0.00699,0.02446,-0.01647,0.11193,0.89633,1.14165,0.00000,0.00000,0.00000,0.00000,0.00000,1.09390,-1.20855,-1.51966,A,145451.80
1.15573,0.00000000,0.00000000,57.68795,11.98122,14:54:51.946576,0.00310,0.00000,0.04280,-0.01585,0.04566,-0.00592,0.02018,-0.11694,0.04996,0.94861,1.15205,0.00000,0.00000,0.00000,0.00000,0.00000,1.09390,-1.20855,-1.51966,A,145451.80
1.16752,0.00000000,0.00000000,57.68795,11.98122,14:54:51.958373,0.00450,0.00000,0.04276,-0.01545,0.04184,0.00843,0.01576,-0.06722,0.02733,0.94922,1.16382,0.00000,0.00000,0.00000,0.00000,0.00000,1.09390,-1.20855,-1.51966,A,145451.80
1.17619,0.00000000,0.00000000,57.68795,11.98122,14:54:51.967044,0.00295,0.00000,0.04264,-0.01511,0.03558,0.01378,0.01820,0.00952,0.03428,0.95746,1.17251,0.00000,0.00000,0.00000,0.00000,0.00000,1.09390,-1.20855,-1.51966,A,145451.80
1.18755,0.00000000,0.00000000,57.68795,11.98122,14:54:51.978414,0.00391,0.00000,0.04286,-0.01460,0.03542,0.00400,0.02171,0.09302,0.05100,0.98277,1.18385,0.00000,0.00000,0.00000,0.00000,0.00000,1.09390,-1.20855,-1.51966,A,145451.80
1.20974,0.00000000,0.00000000,57.68795,11.98122,14:54:52.000603,0.01572,0.00000,0.04378,-0.01412,0.03665,-0.00760,0.03057,-0.00512,0.10986,1.06518,1.19326,0.00000,0.00000,0.00000,0.00000,0.00000,1.20852,-1.24818,-1.42700,A,145451.90
1.22311,0.00000000,0.00000000,57.68795,11.98122,14:54:52.013968,0.00537,0.00000,0.04468,-0.01327,0.04535,0.00660,0.03423,-0.00104,0.04953,1.05487,1.21941,0.00000,0.00000,0.00000,0.00000,0.00000,1.20852,-1.24818,-1.42700,A,145451.90
1.23149,0.00000000,0.00000000,57.68795,11.98122,14:54:52.022347,0.00335,0.00000,0.04461,-0.01325,0.03817,-0.00104,0.03423,0.07204,0.04038,1.00101,1.22757,0.00000,0.00000,0.00000,0.00000,0.00000,1.20852,-1.24818,-1.42700,A,145451.90
1.24165,0.00000000,0.00000000,57.68795,11.98122,14:54:52.032509,0.00312,0.00000,0.04526,-0.01325,0.03649,-0.02165,0.03057,0.03190,0.08186,0.96831,1.23796,0.00000,0.00000,0.00000,0.00000,0.00000,1.20852,-1.24818,-1.42700,A,145451.90
1.25209,0.00000000,0.00000000,57.68795,11.98122,14:54:52.042943,0.00296,0.00000,0.04615,-0.01325,0.02993,-0.02761,0.02309,-0.06649,0.10187,0.96740,1.24840,0.00000,0.00000,0.00000,0.00000,0.00000,1.20852,-1.24818,-1.42700,A,145451.90
1.26341,0.00000000,0.00000000,57.68795,11.98122,14:54:52.054286,0.00389,0.00000,0.04722,-0.01325,0.03100,-0.00883,0.02171,-0.10071,0.11572,0.98106,1.25896,0.00000,0.00000,0.00000,0.00000,0.00000,1.20852,-1.24818,-1.42700,A,145451.90
1.27305,0.00000000,0.00000000,57.68795,11.98122,14:54:52.063908,0.00314,0.00000,0.04831,-0.01325,0.03390,-0.00165,0.01728,-0.01531,0.11132,0.93666,1.26914,0.00000,0.00000,0.00000,0.00000,0.00000,1.20852,-1.24818,-1.42700,A,145451.90
1.28343,0.00000000,0.00000000,57.68795,11.98122,14:54:52.074288,0.00313,0.00000,0.04815,-0.01325,0.03298,-0.00806,0.01637,0.08351,0.03050,0.86175,1.27976,0.00000,0.00000,0.00000,0.00000,0.00000,1.20852,-1.24818,-1.42700,A,145451.90
1.29381,0.00000000,0.00000000,57.68795,11.98122,14:54:52.084668,0.00312,0.00000,0.04873,-0.01325,0.02580,-0.02425,0.01759,0.00744,0.08089,0.89310,1.29012,0.00000,0.00000,0.00000,0.00000,0.00000,1.20852,-1.24818,-1.42700,A,145451.90
1.30405,0.00000000,0.00000000,57.68795,11.98122,14:54:52.094897,0.00294,0.00000,0.04990,-0.01325,0.02367,-0.02303,0.02034,-0.07094,0.12657,0.95300,1.30037,0.00000,0.00000,0.00000,0.00000,0.00000,1.20852,-1.24818,-1.42700,A,145451.90
1.32745,0.00000000,0.00000000,57.68795,11.98122,14:54:52.118314,0.01594,0.00000,0.05073,-0.01325,0.03100,0.00095,0.01789,-0.09986,0.10809,1.03432,1.31117,0.00000,0.00000,0.00000,0.00000,0.00000,1.32631,-1.27790,-1.35287,A,145452.00
1.34258,0.00000000,0.00000000,57.68795,11.98122,14:54:52.133446,0.00457,0.00000,0.05098,-0.01325,0.02458,-0.01906,0.02584,0.08278,0.04673,1.05884,1.33884,0.00000,0.00000,0.00000,0.00000,0.00000,1.32631,-1.27790,-1.35287,A,145452.00
1.35152,0.00000000,0.00000000,57.68795,11.98122,14:54:52.142380,0.00312,0.00000,0.05142,-0.01325,0.02733,-0.02410,0.03103,-0.04246,0.08936,1.04621,1.34784,0.00000,0.00000,0.00000,0.00000,0.00000,1.32631,-1.27790,-1.35287,A,145452.00
1.36192,0.00000000,0.00000000,57.68795,11.98122,14:54:52.152775,0.00313,0.00000,0.05230,-0.01325,0.03023,-0.01952,0.03347,-0.05161,0.11248,1.01821,1.35823,0.00000,0.00000,0.00000,0.00000,0.00000,1.32631,-1.27790,-1.35287,A,145452.00
1.37204,0.00000000,0.00000000,57.68795,11.98122,14:54:52.162894,0.00293,0.00000,0.05275,-0.01325,0.03497,-0.01280,0.03210,-0.07613,0.08021,0.99747,1.36837,0.00000,0.00000,0.00000,0.00000,0.00000,1.32631,-1.27790,-1.35287,A,145452.00
1.38263,0.00000000,0.00000000,57.68795,11.98122,14:54:52.173489,0.00312,0.00000,0.05276,-0.01325,0.03161,-0.00928,0.02782,0.01861,0.05191,0.98741,1.37896,0.00000,0.00000,0.00000,0.00000,0.00000,1.32631,-1.27790,-1.35287,A,145452.00
1.39303,0.00000000,0.00000000,57.68795,11.98122,14:54:52.183902,0.00313,0.00000,0.05281,-0.01325,0.02015,-0.02776,0.01850,0.11273,0.06021,0.93879,1.38913,0.00000,0.00000,0.00000,0.00000,0.00000,1.32631,-1.27790,-1.35287,A,145452.00
1.40346,0.00000000,0.00000000,57.68795,11.98122,14:54:52.194306,0.00316,0.00000,0.05374,-0.01325,0.01527,-0.05922,0.01774,0.09607,0.11407,0.91061,1.39978,0.00000,0.00000,0.00000,0.00000,0.00000,1.32631,-1.27790,-1.35287,A,145452.00
1.41379,0.00000000,0.00000000,57.68795,11.98122,14:54:52.204661,0.00311,0.00000,0.05464,-0.01325,0.01343,-0.07205,0.01789,-0.13658,0.12908,1.01693,1.41011,0.00000,0.00000,0.00000,0.00000,0.00000,1.32631,-1.27790,-1.35287,A,145452.00
1.42406,0.00000000,0.00000000,57.68795,11.98122,14:54:52.214907,0.00294,0.00000,0.05553,-0.01325,0.02703,-0.03845,0.01682,-0.24491,0.13194,1.12649,1.42037,0.00000,0.00000,0.00000,0.00000,0.00000,1.32631,-1.27790,-1.35287,A,145452.00
1.44797,0.00000000,0.00000000,57.68795,11.98122,14:54:52.238837,0.01628,0.00000,0.05586,-0.01325,0.02947,0.00141,0.01102,-0.04648,0.08747,1.12569,1.43115,0.00000,0.00000,0.00000,0.00000,0.00000,1.44682,-1.31752,-1.24168,A,145452.10
1.45695,0.00000000,0.00000000,57.68795,11.98122,14:54:52.247824,0.00325,0.00000,0.05572,-0.01336,0.00962,-0.03861,0.00415,0.00232,0.05240,0.97094,1.45304,0.00000,0.00000,0.00000,0.00000,0.00000,1.44682,-1.31752,-1.24168,A,145452.10
1.46723,0.00000000,0.00000000,57.68795,11.98122,14:54:52.258084,0.00313,0.00000,0.05618,-0.01378,0.00946,-0.04487,0.00277,-0.08894,0.10083,0.99674,1.46355,0.00000,0.00000,0.00000,0.00000,0.00000,1.44682,-1.31752,-1.24168,A,145452.10
1.47819,0.00000000,0.00000000,57.68795,11.98122,14:54:52.269061,0.00386,0.00000,0.05673,-0.01463,0.01756,-0.04838,0.00186,-0.03751,0.09485,0.93293,1.47447,0.00000,0.00000,0.00000,0.00000,0.00000,1.44682,-1.31752,-1.24168,A,145452.10
1.48783,0.00000000,0.00000000,57.68795,11.98122,14:54:52.278683,0.00293,0.00000,0.05642,-0.01591,0.01435,-0.05770,-0.00135,0.00915,0.04465,0.93086,1.48415,0.00000,0.00000,0.00000,0.00000,0.00000,1.44682,-1.31752,-1.24168,A,145452.10
1.49850,0.00000000,0.00000000,57.68795,11.98122,14:54:52.289360,0.00320,0.00000,0.05644,-0.01741,0.01145,-0.06854,0.00613,0.07381,0.06673,0.93812,1.49482,0.00000,0.00000,0.00000,0.00000,0.00000,1.44682,-1.31752,-1.24168,A,145452.10
1.50849,0.00000000,0.00000000,57.68795,11.98122,14:54:52.299679,0.00296,0.00000,0.05744,-0.01899,0.01450,-0.08274,0.01331,-0.02617,0.13414,0.98936,1.50481,0.00000,0.00000,0.00000,0.00000,0.00000,1.44682,-1.31752,-1.24168,A,145452.10
1.51905,0.00000000,0.00000000,57.68795,11.98122,14:54:52.309903,0.00313,0.00000,0.05829,-0.02069,0.02412,-0.06396,0.01530,-0.12340,0.12651,1.06439,1.51537,0.00000,0.00000,0.00000,0.00000,0.00000,1.44682,-1.31752,-1.24168,A,145452.10
1.52945,0.00000000,0.00000000,57.68795,11.98122,14:54:52.320309,0.00313,0.00000,0.05879,-0.02230,0.02886,-0.04502,0.01224,-0.10907,0.09644,1.03926,1.52575,0.00000,0.00000,0.00000,0.00000,0.00000,1.44682,-1.31752,-1.24168,A,145452.10
1.53983,0.00000000,0.00000000,57.68795,11.98122,14:54:52.330678,0.00293,0.00000,0.05847,-0.02392,0.02748,-0.02456,0.00216,-0.12621,0.04111,1.02693,1.53615,0.00000,0.00000,0.00000,0.00000,0.00000,1.44682,-1.31752,-1.24168,A,145452.10
1.57602,0.00000000,0.00000000,57.68796,11.98122,14:54:52.367482,0.02873,0.00000,0.05806,-0.02542,0.02092,-0.00852,-0.00364,-0.02141,0.03666,0.98131,1.54674,0.00000,0.00000,0.00000,0.00000,0.00000,1.57484,-1.37696,-1.00075,A,145452.30
1.58542,0.00000000,0.00000000,57.68796,11.98122,14:54:52.376278,0.00323,1.10731,0.05953,-0.02904,0.02260,-0.01341,-0.01250,-0.09559,0.11889,0.96551,1.58171,0.00000,0.00000,0.00000,0.00000,0.00000,1.57484,-1.37696,-1.00075,A,145452.30
1.59570,0.00000000,0.00000000,57.68796,11.98122,14:54:52.386554,0.00312,1.10731,0.06003,-0.02969,0.02962,-0.00486,-0.01265,-0.00122,0.08430,0.93049,1.59202,0.00000,0.00000,0.00000,0.00000,0.00000,1.57484,-1.37696,-1.00075,A,145452.30
1.60609,0.00000000,0.00000000,57.68796,11.98122,14:54:52.396947,0.00312,1.10731,0.05992,-0.03020,0.02290,-0.01188,-0.00975,0.05734,0.05155,0.93971,1.60240,0.00000,0.00000,0.00000,0.00000,0.00000,1.57484,-1.37696,-1.00075,A,145452.30
1.61620,0.00000000,0.00000000,57.68796,11.98122,14:54:52.407053,0.00296,1.10731,0.06031,-0.03071,0.02825,-0.02944,-0.01250,0.06820,0.08131,0.95758,1.61253,0.00000,0.00000,0.00000,0.00000,0.00000,1.57484,-1.37696,-1.00075,A,145452.30
1.62675,0.00000000,0.00000000,57.68796,11.98122,14:54:52.417605,0.00311,1.10731,0.06023,-0.03125,0.02305,-0.04716,-0.00929,-0.03465,0.05551,0.98503,1.62308,0.00000,0.00000,0.00000,0.00000,0.00000,1.57484,-1.37696,-1.00075,A,145452.30
1.63722,0.00000000,0.00000000,57.68796,11.98122,14:54:52.428085,0.00319,1.10731,0.06063,-0.03181,0.02626,-0.03189,-0.00471,-0.03514,0.08497,0.97417,1.63327,0.00000,0.00000,0.00000,0.00000,0.00000,1.57484,-1.37696,-1.00075,A,145452.30
1.64778,0.00000000,0.00000000,57.68796,11.98122,14:54:52.438642,0.00324,1.10731,0.06107,-0.03252,0.02076,-0.02440,-0.00593,-0.07100,0.09321,1.00260,1.64411,0.00000,0.00000,0.00000,0.00000,0.00000,1.57484,-1.37696,-1.00075,A,145452.30
1.65828,0.00000000,0.00000000,57.68796,11.98122,14:54:52.449131,0.00312,1.10731,0.06145,-0.03320,0.02397,-0.01081,-0.01005,-0.01635,0.08815,1.00278,1.65460,0.00000,0.00000,0.00000,0.00000,0.00000,1.57484,-1.37696,-1.00075,A,145452.30
1.66834,0.00000000,0.00000000,57.68796,11.98122,14:54:52.459522,0.00295,1.10731,0.06194,-0.03382,0.02351,-0.00745,-0.01326,0.03123,0.09583,0.99546,1.66466,0.00000,0.00000,0.00000,0.00000,0.00000,1.57484,-1.37696,-1.00075,A,145452.30
1.69147,0.00000000,0.00000000,57.68796,11.98122,14:54:52.482334,0.01569,1.10731,0.06283,-0.03433,0.02794,-0.01478,-0.01433,0.02062,0.11919,0.99741,1.67525,0.00000,0.00000,0.00000,0.00000,0.00000,1.69035,-1.39677,-0.90809,A,145452.40
1.69951,0.00000000,0.00000000,57.68796,11.98122,14:54:52.490360,0.00320,1.10731,0.06337,-0.03461,0.03420,-0.02761,-0.01357,-0.03312,0.07271,1.03688,1.69582,0.00000,0.00000,0.00000,0.00000,0.00000,1.69035,-1.39677,-0.90809,A,145452.40
1.70980,0.00000000,0.00000000,57.68796,11.98122,14:54:52.500658,0.00309,1.10731,0.06372,-0.03461,0.03023,-0.02608,-0.00807,0.01171,0.08442,1.00174,1.70611,0.00000,0.00000,0.00000,0.00000,0.00000,1.69035,-1.39677,-0.90809,A,145452.40
1.72018,0.00000000,0.00000000,57.68796,11.98122,14:54:52.511036,0.00298,1.10731,0.06424,-0.03461,0.03222,-0.03158,-0.00608,0.02397,0.09370,0.99662,1.71650,0.00000,0.00000,0.00000,0.00000,0.00000,1.69035,-1.39677,-0.90809,A,145452.40
1.73071,0.00000000,0.00000000,57.68796,11.98122,14:54:52.521568,0.00310,1.10731,0.06491,-0.03461,0.03191,-0.03112,-0.00425,-0.00915,0.10150,0.97008,1.72703,0.00000,0.00000,0.00000,0.00000,0.00000,1.69035,-1.39677,-0.90809,A,145452.40
1.74113,0.00000000,0.00000000,57.68796,11.98122,14:54:52.531991,0.00312,1.10731,0.06595,-0.03461,0.03741,-0.02837,0.00155,-0.04941,0.12279,0.96990,1.73723,0.00000,0.00000,0.00000,0.00000,0.00000,1.69035,-1.39677,-0.90809,A,145452.40
1.75151,0.00000000,0.00000000,57.68796,11.98122,14:54:52.542362,0.00311,1.10731,0.06676,-0.03461,0.04596,-0.01478,-0.00211,-0.05185,0.09913,0.93733,1.74784,0.00000,0.00000,0.00000,0.00000,0.00000,1.69035,-1.39677,-0.90809,A,145452.40
1.76304,0.00000000,0.00000000,57.68796,11.98122,14:54:52.553904,0.00435,1.10731,0.06711,-0.03461,0.04535,-0.00424,-0.00700,-0.03953,0.06777,0.93037,1.75931,0.00000,0.00000,0.00000,0.00000,0.00000,1.69035,-1.39677,-0.90809,A,145452.40
1.77344,0.00000000,0.00000000,57.68796,11.98122,14:54:52.564299,0.00371,1.10731,0.06696,-0.03461,0.04779,-0.00318,-0.01036,-0.00836,0.04032,0.95788,1.76972,0.00000,0.00000,0.00000,0.00000,0.00000,1.69035,-1.39677,-0.90809,A,145452.40
1.78328,0.00000000,0.00000000,57.68796,11.98122,14:54:52.574128,0.00316,1.10731,0.06808,-0.03461,0.04535,0.00003,-0.00883,0.01555,0.13206,1.01553,1.77960,0.00000,0.00000,0.00000,0.00000,0.00000,1.69035,-1.39677,-0.90809,A,145452.40
1.81043,0.00000000,0.00000000,57.68796,11.98122,14:54:52.601300,0.01991,1.10731,0.06913,-0.03461,0.05971,0.00156,-0.00624,-0.04551,0.11858,1.09940,1.79194,0.00000,0.00000,0.00000,0.00000,0.00000,1.80855,-1.42649,-0.79690,A,145452.50
1.81996,0.00000000,0.00000000,57.68796,11.98122,14:54:52.610852,0.00408,1.10731,0.07056,-0.03461,0.05925,-0.03051,0.00797,0.02775,0.09424,1.03499,1.81545,0.00000,0.00000,0.00000,0.00000,0.00000,1.80855,-1.42649,-0.79690,A,145452.50
1.82939,0.00000000,0.00000000,57.68796,11.98122,14:54:52.620250,0.00311,1.10731,0.07175,-0.03461,0.05986,-0.04059,0.00629,-0.05740,0.13481,1.05414,1.82570,0.00000,0.00000,0.00000,0.00000,0.00000,1.80855,-1.42649,-0.79690,A,145452.50
1.83978,0.00000000,0.00000000,57.68796,11.98122,14:54:52.630631,0.00291,1.10731,0.07323,-0.03461,0.06612,-0.02776,0.00812,-0.08119,0.15195,1.05835,1.83610,0.00000,0.00000,0.00000,0.00000,0.00000,1.80855,-1.42649,-0.79690,A,145452.50
1.85038,0.00000000,0.00000000,57.68796,11.98122,14:54:52.641228,0.00312,1.10731,0.07450,-0.03461,0.07085,-0.02333,0.00995,0.04569,0.10992,0.87260,1.84670,0.00000,0.00000,0.00000,0.00000,0.00000,1.80855,-1.42649,-0.79690,A,145452.50
1.86045,0.00000000,0.00000000,57.68796,11.98122,14:54:52.651651,0.00297,1.10731,0.07575,-0.03461,0.06948,-0.03204,0.00888,0.01257,0.11187,0.86333,1.85677,0.00000,0.00000,0.00000,0.00000,0.00000,1.80855,-1.42649,-0.79690,A,145452.50
1.87115,0.00000000,0.00000000,57.68796,11.98122,14:54:52.662002,0.00327,1.10731,0.07672,-0.03461,0.07101,-0.03632,0.00629,-0.12859,0.09784,0.90658,1.86747,0.00000,0.00000,0.00000,0.00000,0.00000,1.80855,-1.42649,-0.79690,A,145452.50
1.88140,0.00000000,0.00000000,57.68796,11.98122,14:54:52.672264,0.00312,1.10731,0.07785,-0.03461,0.06856,-0.01005,0.00445,-0.13267,0.11956,0.96746,1.87771,0.00000,0.00000,0.00000,0.00000,0.00000,1.80855,-1.42649,-0.79690,A,145452.50
1.89179,0.00000000,0.00000000,57.68796,11.98122,14:54:52.682647,0.00294,1.10731,0.07899,-0.03461,0.06658,0.01103,0.00216,-0.00317,0.12169,0.96356,1.88812,0.00000,0.00000,0.00000,0.00000,0.00000,1.80855,-1.42649,-0.79690,A,145452.50
1.90259,0.00000000,0.00000000,57.68796,11.98122,14:54:52.693444,0.00311,1.10731,0.07975,-0.03461,0.06475,-0.00730,0.01072,0.07198,0.10364,1.02016,1.89892,0.00000,0.00000,0.00000,0.00000,0.00000,1.80855,-1.42649,-0.79690,A,145452.50
1.92598,0.00000000,0.00000000,57.68796,11.98122,14:54:52.716842,0.01610,1.10731,0.08069,-0.03461,0.06963,-0.02135,0.01346,-0.03007,0.13133,1.14576,1.90909,0.00000,0.00000,0.00000,0.00000,0.00000,1.92481,-1.49583,-0.70423,A,145452.60
1.93497,0.00000000,0.00000000,57.68796,11.98122,14:54:52.725829,0.00353,1.10731,0.08150,-0.03461,0.05085,0.00568,0.00629,-0.02843,0.08497,1.08629,1.93128,0.00000,0.00000,0.00000,0.00000,0.00000,1.92481,-1.49583,-0.70423,A,145452.60
1.94496,0.00000000,0.00000000,57.68796,11.98122,14:54:52.735828,0.00312,1.10731,0.08229,-0.03461,0.04306,0.00156,0.00201,0.06539,0.11468,0.92189,1.94107,0.00000,0.00000,0.00000,0.00000,0.00000,1.92481,-1.49583,-0.70423,A,145452.60
1.95537,0.00000000,0.00000000,57.68796,11.98122,14:54:52.746218,0.00313,1.10731,0.08331,-0.03461,0.03084,-0.02074,0.00125,-0.01976,0.13444,0.91897,1.95169,0.00000,0.00000,0.00000,0.00000,0.00000,1.92481,-1.49583,-0.70423,A,145452.60
1.96574,0.00000000,0.00000000,57.68796,11.98122,14:54:52.756596,0.00311,1.10731,0.08502,-0.03461,0.03878,-0.00348,-0.00456,-0.13182,0.18635,0.97759,1.96205,0.00000,0.00000,0.00000,0.00000,0.00000,1.92481,-1.49583,-0.70423,A,145452.60
1.97605,0.00000000,0.00000000,57.68796,11.98122,14:54:52.766910,0.00294,1.10731,0.08534,-0.03461,0.05009,0.01927,-0.00929,-0.08003,0.08156,0.91055,1.97238,0.00000,0.00000,0.00000,0.00000,0.00000,1.92481,-1.49583,-0.70423,A,145452.60
1.98694,0.00000000,0.00000000,57.68796,11.98122,14:54:52.777800,0.00328,1.10731,0.08442,-0.03461,0.03481,0.02554,-0.01005,0.17885,0.01153,0.75036,1.98325,0.00000,0.00000,0.00000,0.00000,0.00000,1.92481,-1.49583,-0.70423,A,145452.60
1.99718,0.00000000,0.00000000,57.68796,11.98122,14:54:52.788038,0.00313,1.10731,0.08292,-0.03461,0.00259,-0.02776,-0.00486,0.20301,-0.00098,0.72071,1.99329,0.00000,0.00000,0.00000,0.00000,0.00000,1.92481,-1.49583,-0.70423,A,145452.60
2.00758,0.00000000,0.00000000,57.68796,11.98122,14:54:52.798424,0.00312,1.10731,0.08314,-0.03461,-0.01375,-0.07190,0.00919,0.03410,0.10388,0.83265,2.00389,0.00000,0.00000,0.00000,0.00000,0.00000,1.92481,-1.49583,-0.70423,A,145452.60
2.02570,57.68794587,11.98122382,57.68796,11.98122,14:54:52.816616,0.01085,1.10731,0.08442,-0.03461,-0.00886,-0.07587,0.01912,-0.19679,0.21789,1.11972,2.01437,1.10731,-2.69130,-2.70158,-1.49583,-0.70423,1.92481,-1.49583,-0.70423,A,145452.60
2.05025,57.68794587,11.98122382,57.68796,11.98121,14:54:52.841126,0.01862,1.10731,0.08431,0.00935,0.01328,0.02034,0.02446,-0.03977,0.10827,1.31760,2.03339,1.10731,-2.69130,-2.70158,-1.49583,-0.70423,2.04876,-1.55527,-0.59304,A,145452.70
2.06961,57.68794009,11.98120036,57.68796,11.98121,14:54:52.860503,0.00754,1.10731,0.08395,0.00935,-0.02077,-0.03815,-0.00089,-0.01336,0.10870,0.87907,2.06311,1.10731,-2.64529,-2.64252,-1.54358,-0.71280,2.04876,-1.55527,-0.59304,A,145452.70
2.07596,57.68794009,11.98120036,57.68796,11.98121,14:54:52.866836,0.00349,1.10731,0.08455,0.00935,-0.01314,-0.04410,-0.00914,-0.11212,0.12810,0.82612,2.07190,1.10731,-2.64529,-2.64252,-1.54358,-0.71280,2.04876,-1.55527,-0.59304,A,145452.70
2.08642,57.68794009,11.98120036,57.68796,11.98121,14:54:52.877303,0.00355,1.10731,0.08425,0.00935,-0.02444,-0.04013,-0.01555,-0.09370,0.07765,0.74475,2.08235,1.10731,-2.64529,-2.64252,-1.54358,-0.71280,2.04876,-1.55527,-0.59304,A,145452.70
2.09652,57.68794009,11.98120036,57.68796,11.98121,14:54:52.887616,0.00332,1.10731,0.08321,0.00935,-0.03162,-0.04151,-0.01158,-0.03166,0.04813,0.82801,2.09247,1.10731,-2.64529,-2.64252,-1.54358,-0.71280,2.04876,-1.55527,-0.59304,A,145452.70
2.10792,57.68794009,11.98120036,57.68796,11.98121,14:54:52.898799,0.00432,1.10731,0.08355,0.00935,-0.04216,-0.02410,-0.00471,0.01311,0.16427,1.02309,2.10385,1.10731,-2.64529,-2.64252,-1.54358,-0.71280,2.04876,-1.55527,-0.59304,A,145452.70
2.11749,57.68794009,11.98120036,57.68796,11.98121,14:54:52.908373,0.00348,1.36342,0.08345,0.00935,-0.03788,-0.01723,-0.00013,0.05106,0.14475,1.17077,2.11322,1.10731,-2.64529,-2.64252,-1.54358,-0.71280,2.04876,-1.55527,-0.59304,A,145452.70
2.12791,57.68794009,11.98120036,57.68796,11.98121,14:54:52.918798,0.00351,1.36342,0.08316,0.00935,-0.03269,-0.00333,0.00598,-0.09937,0.13853,1.26770,2.12386,1.10731,-2.64529,-2.64252,-1.54358,-0.71280,2.04876,-1.55527,-0.59304,A,145452.70
2.13818,57.68794009,11.98120036,57.68796,11.98121,14:54:52.929063,0.00355,1.36342,0.08244,0.00935,-0.02261,0.02156,0.00171,-0.16555,0.09028,1.24165,2.13410,1.10731,-2.64529,-2.64252,-1.54358,-0.71280,2.04876,-1.55527,-0.59304,A,145452.70
2.14858,57.68794009,11.98120036,57.68796,11.98121,14:54:52.939691,0.00333,1.36342,0.08155,0.00935,-0.02795,0.04035,-0.00898,0.04697,0.06789,1.04340,2.14451,1.10731,-2.64529,-2.64252,-1.54358,-0.71280,2.04876,-1.55527,-0.59304,A,145452.70
2.18262,57.68794009,11.98120036,57.68796,11.98121,14:54:52.973505,0.02697,1.36342,0.07998,0.00935,-0.04445,0.00232,-0.01082,0.21942,0.02348,0.76695,2.15508,1.10731,-2.64529,-2.64252,-1.54358,-0.71280,2.18112,-1.63452,-0.35212,A,145452.90
2.19893,57.68793988,11.98119837,57.68796,11.98121,14:54:52.990735,0.00946,1.36342,0.07919,0.00935,-0.05453,-0.04655,0.00919,-0.28981,0.17873,1.01632,2.18987,1.13292,-2.59880,-2.59603,-1.66180,-0.73621,2.18112,-1.63452,-0.35212,A,145452.90
2.20787,57.68793988,11.98119837,57.68796,11.98121,14:54:52.998758,0.00443,1.36342,0.07887,0.00935,-0.04078,0.03745,0.01041,-0.07662,0.14292,1.21183,2.20380,1.13292,-2.59880,-2.59603,-1.66180,-0.73621,2.18112,-1.63452,-0.35212,A,145452.90
2.21735,57.68793988,11.98119837,57.68796,11.98121,14:54:53.008232,0.00350,1.36342,0.07794,0.00935,-0.04811,0.06356,0.00277,0.12523,0.08589,1.25123,2.21307,1.13292,-2.59880,-2.59603,-1.66180,-0.73621,2.18112,-1.63452,-0.35212,A,145452.90
2.22782,57.68793988,11.98119837,57.68796,11.98121,14:54:53.018706,0.00358,1.36342,0.07672,0.00935,-0.05804,0.04264,-0.00211,0.11438,0.07460,1.25489,2.22378,1.13292,-2.59880,-2.59603,-1.66180,-0.73621,2.18112,-1.63452,-0.35212,A,145452.90
2.23823,57.68793988,11.98119837,57.68796,11.98121,14:54:53.029116,0.00354,1.36342,0.07649,0.00935,-0.07423,0.00309,-0.00593,0.08717,0.14921,1.09953,2.23415,1.13292,-2.59880,-2.59603,-1.66180,-0.73621,2.18112,-1.63452,-0.35212,A,145452.90
2.24937,57.68793988,11.98119837,57.68796,11.98121,14:54:53.040304,0.00426,1.36342,0.07539,0.00935,-0.07545,-0.01799,-0.00700,-0.12176,0.07454,0.97252,2.24439,1.13292,-2.59880,-2.59603,-1.66180,-0.73621,2.18112,-1.63452,-0.35212,A,145452.90
2.25908,57.68793988,11.98119837,57.68796,11.98121,14:54:53.049958,0.00356,1.36342,0.07470,0.00935,-0.08049,-0.01157,-0.01082,-0.10041,0.09717,0.89725,2.25503,1.13292,-2.59880,-2.59603,-1.66180,-0.73621,2.18112,-1.63452,-0.35212,A,145452.90
2.26943,57.68793988,11.98119837,57.68796,11.98121,14:54:53.060314,0.00352,1.36342,0.07486,0.00935,-0.08812,-0.00363,-0.00532,-0.05356,0.14079,0.83704,2.26516,1.13292,-2.59880,-2.59603,-1.66180,-0.73621,2.18112,-1.63452,-0.35212,A,145452.90
2.27981,57.68793988,11.98119837,57.68796,11.98121,14:54:53.070694,0.00350,1.36342,0.07526,0.00935,-0.07392,0.01668,0.00293,0.01842,0.15640,0.87986,2.27576,1.13292,-2.59880,-2.59603,-1.66180,-0.73621,2.18112,-1.63452,-0.35212,A,145452.90
2.30313,57.68793988,11.98119837,57.68796,11.98121,14:54:53.094025,0.01642,1.36342,0.07538,0.00940,-0.06063,0.02676,0.00873,0.04490,0.12298,0.82637,2.28614,1.13292,-2.59880,-2.59603,-1.66180,-0.73621,2.30128,-1.67414,-0.20386,A,145453.00
2.32023,57.68793979,11.98119660,57.68796,11.98121,14:54:53.111125,0.00658,1.36342,0.07293,0.01071,-0.05529,0.08387,0.01835,-0.07302,0.04374,1.21603,2.31413,1.15597,-2.55337,-2.55019,-1.76717,-0.74619,2.30128,-1.67414,-0.20386,A,145453.00
2.32757,57.68793979,11.98119660,57.68796,11.98121,14:54:53.118452,0.00352,1.36342,0.07098,0.01192,-0.06491,0.07471,0.02248,0.12060,0.00641,1.19054,2.32352,1.15597,-2.55337,-2.55019,-1.76717,-0.74619,2.30128,-1.67414,-0.20386,A,145453.00
2.33817,57.68793979,11.98119660,57.68796,11.98121,14:54:53.129046,0.00371,1.36342,0.06931,0.01373,-0.07209,0.02034,0.03026,0.24266,0.03569,1.09117,2.33410,1.15597,-2.55337,-2.55019,-1.76717,-0.74619,2.30128,-1.67414,-0.20386,A,145453.00
2.34837,57.68793979,11.98119660,57.68796,11.98121,14:54:53.139598,0.00330,1.36342,0.06956,0.01603,-0.07759,-0.03738,0.03469,0.09815,0.16031,0.98076,2.34433,1.15597,-2.55337,-2.55019,-1.76717,-0.74619,2.30128,-1.67414,-0.20386,A,145453.00
2.35898,57.68793979,11.98119660,57.68796,11.98121,14:54:53.149865,0.00352,1.36342,0.06990,0.01857,-0.07468,-0.04533,0.03775,-0.11578,0.14701,0.86480,2.35493,1.15597,-2.55337,-2.55019,-1.76717,-0.74619,2.30128,-1.67414,-0.20386,A,145453.00
2.36952,57.68793979,11.98119660,57.68796,11.98121,14:54:53.160401,0.00364,1.36342,0.07057,0.02112,-0.06919,-0.03082,0.03149,-0.22558,0.15061,0.79648,2.36524,1.15597,-2.55337,-2.55019,-1.76717,-0.74619,2.30128,-1.67414,-0.20386,A,145453.00
2.37978,57.68793979,11.98119660,57.68796,11.98121,14:54:53.170657,0.00350,1.36342,0.07165,0.02361,-0.06980,0.00751,0.02354,-0.13725,0.17666,0.80380,2.37572,1.15597,-2.55337,-2.55019,-1.76717,-0.74619,2.30128,-1.67414,-0.20386,A,145453.00
2.39092,57.68793979,11.98119660,57.68796,11.98121,14:54:53.181816,0.00425,1.36342,0.07212,0.02579,-0.06628,0.01393,0.02751,0.06618,0.14433,0.81063,2.38652,1.15597,-2.55337,-2.55019,-1.76717,-0.74619,2.30128,-1.67414,-0.20386,A,145453.00
2.40043,57.68793979,11.98119660,57.68796,11.98121,14:54:53.191535,0.00331,1.36342,0.07130,0.02777,-0.06796,0.00003,0.02568,0.00323,0.08211,0.93964,2.39638,1.15597,-2.55337,-2.55019,-1.76717,-0.74619,2.30128,-1.67414,-0.20386,A,145453.00
2.42409,57.68793979,11.98119660,57.68796,11.98121,14:54:53.214973,0.01658,1.36342,0.07063,0.02950,-0.06873,0.00583,0.02813,-0.06997,0.10821,1.08220,2.40696,1.15597,-2.55337,-2.55019,-1.76717,-0.74619,2.42260,-1.75339,-0.11119,A,145453.10
2.43594,57.68793977,11.98119498,57.68796,11.98121,14:54:53.226830,0.00598,1.36342,0.06860,0.03227,-0.06690,0.01484,0.04126,0.03764,0.06350,1.07372,2.42931,1.17672,-2.50380,-2.49422,-1.86383,-0.74853,2.42260,-1.75339,-0.11119,A,145453.10
2.44387,57.68793977,11.98119498,57.68796,11.98121,14:54:53.234748,0.00350,1.36342,0.06797,0.03332,-0.07529,-0.02440,0.04462,0.13756,0.10571,0.99875,2.43982,1.17672,-2.50380,-2.49422,-1.86383,-0.74853,2.42260,-1.75339,-0.11119,A,145453.10
2.45426,57.68793977,11.98119498,57.68796,11.98121,14:54:53.245145,0.00349,1.36342,0.06781,0.03420,-0.07178,-0.04899,0.05302,0.07570,0.12505,0.93361,2.45021,1.17672,-2.50380,-2.49422,-1.86383,-0.74853,2.42260,-1.75339,-0.11119,A,145453.10
2.46449,57.68793977,11.98119498,57.68796,11.98121,14:54:53.255597,0.00333,1.36342,0.06780,0.03502,-0.05559,-0.06625,0.04920,-0.09315,0.12011,0.90530,2.46045,1.17672,-2.50380,-2.49422,-1.86383,-0.74853,2.42260,-1.75339,-0.11119,A,145453.10
2.47504,57.68793977,11.98119498,57.68796,11.98121,14:54:53.265919,0.00348,1.36342,0.06775,0.03573,-0.05147,-0.02853,0.05500,-0.30286,0.12517,0.98167,2.47100,1.17672,-2.50380,-2.49422,-1.86383,-0.74853,2.42260,-1.75339,-0.11119,A,145453.10
2.48547,57.68793977,11.98119498,57.68796,11.98121,14:54:53.276355,0.00351,1.36342,0.06747,0.03632,-0.04567,0.02401,0.04737,-0.20953,0.10608,0.99143,2.48120,1.17672,-2.50380,-2.49422,-1.86383,-0.74853,2.42260,-1.75339,-0.11119,A,145453.10
2.49742,57.68793977,11.98119498,57.68796,11.98121,14:54:53.288322,0.00506,1.36342,0.06594,0.03680,-0.04613,0.05012,0.04584,0.07100,0.02818,1.02742,2.49282,1.17672,-2.50380,-2.49422,-1.86383,-0.74853,2.42260,-1.75339,-0.11119,A,145453.10
2.50629,57.68793977,11.98119498,57.68796,11.98121,14:54:53.297160,0.00352,1.36342,0.06511,0.03711,-0.04719,0.01637,0.04248,0.12188,0.07247,1.09294,2.50222,1.17672,-2.50380,-2.49422,-1.86383,-0.74853,2.42260,-1.75339,-0.11119,A,145453.10
2.51645,57.68793977,11.98119498,57.68796,11.98121,14:54:53.307544,0.00332,1.36342,0.06388,0.03734,-0.04689,-0.01845,0.04401,-0.02434,0.04752,1.16126,2.51239,1.17672,-2.50380,-2.49422,-1.86383,-0.74853,2.42260,-1.75339,-0.11119,A,145453.10
2.54012,57.68793977,11.98119498,57.68796,11.98121,14:54:53.330999,0.01659,1.36342,0.06296,0.03745,-0.05223,-0.03815,0.04752,0.03501,0.06692,1.01443,2.52296,1.17672,-2.50380,-2.49422,-1.86383,-0.74853,2.53862,-1.83264,0.01853,A,145453.20
2.55907,57.68793976,11.98119331,57.68796,11.98121,14:54:53.349967,0.00711,1.36342,0.06207,0.03745,-0.05239,-0.07846,0.04905,-0.03135,0.11407,0.84570,2.55268,1.19539,-2.45347,-2.44235,-1.96293,-0.74911,2.53862,-1.83264,0.01853,A,145453.20
2.56590,57.68793976,11.98119331,57.68796,11.98121,14:54:53.356786,0.00353,1.36342,0.06262,0.03745,-0.05239,-0.05571,0.04676,-0.15823,0.14317,0.90005,2.56182,1.19539,-2.45347,-2.44235,-1.96293,-0.74911,2.53862,-1.83264,0.01853,A,145453.20
2.57660,57.68793976,11.98119331,57.68796,11.98121,14:54:53.367701,0.00364,1.36342,0.06187,0.03745,-0.04261,-0.00990,0.03439,-0.16726,0.06734,0.96795,2.57253,1.19539,-2.45347,-2.44235,-1.96293,-0.74911,2.53862,-1.83264,0.01853,A,145453.20
2.58668,57.68793976,11.98119331,57.68796,11.98121,14:54:53.377563,0.00355,1.53517,0.06078,0.03745,-0.04842,0.02172,0.02431,-0.23223,0.05319,1.06970,2.58262,1.19539,-2.45347,-2.44235,-1.96293,-0.74911,2.53862,-1.83264,0.01853,A,145453.20
2.59691,57.68793976,11.98119331,57.68796,11.98121,14:54:53.387817,0.00354,1.53517,0.05959,0.03745,-0.05544,0.04692,0.01392,-0.01684,0.04984,1.07756,2.59265,1.19539,-2.45347,-2.44235,-1.96293,-0.74911,2.53862,-1.83264,0.01853,A,145453.20
2.60838,57.68793976,11.98119331,57.68796,11.98121,14:54:53.399514,0.00461,1.53517,0.05845,0.03745,-0.05834,0.01927,0.00949,0.02855,0.05880,1.13350,2.60321,1.19539,-2.45347,-2.44235,-1.96293,-0.74911,2.53862,-1.83264,0.01853,A,145453.20
2.61768,57.68793976,11.98119331,57.68796,11.98121,14:54:53.408556,0.00350,1.53517,0.05791,0.03745,-0.05651,-0.00272,0.00904,0.13115,0.09815,1.10489,2.61341,1.19539,-2.45347,-2.44235,-1.96293,-0.74911,2.53862,-1.83264,0.01853,A,145453.20
2.62831,57.68793976,11.98119331,57.68796,11.98121,14:54:53.419197,0.00373,1.53517,0.05746,0.03745,-0.05208,-0.03876,0.02782,0.04477,0.09681,1.04011,2.62423,1.19539,-2.45347,-2.44235,-1.96293,-0.74911,2.53862,-1.83264,0.01853,A,145453.20
2.63873,57.68793976,11.98119331,57.68796,11.98121,14:54:53.429610,0.00375,1.53517,0.05712,0.03745,-0.04949,-0.05602,0.03821,-0.05685,0.09650,0.98039,2.63467,1.19539,-2.45347,-2.44235,-1.96293,-0.74911,2.53862,-1.83264,0.01853,A,145453.20
2.66180,57.68793976,11.98119331,57.68797,11.98121,14:54:53.452689,0.01648,1.53517,0.05717,0.03745,-0.03818,-0.04441,0.04920,-0.04343,0.10303,0.89609,2.64461,1.19539,-2.45347,-2.44235,-1.96293,-0.74911,2.65997,-1.90198,0.16679,A,145453.30
2.67593,57.68793987,11.98119182,57.68797,11.98121,14:54:53.466813,0.00741,1.53517,0.05626,0.03745,-0.02123,-0.00043,0.03882,-0.03745,0.05173,0.85284,2.66900,1.22936,-2.40426,-2.39314,-2.05146,-0.73710,2.65997,-1.90198,0.16679,A,145453.30
2.68229,57.68793987,11.98119182,57.68797,11.98121,14:54:53.473172,0.00338,1.53517,0.05578,0.03745,-0.02459,0.00431,0.03179,-0.10272,0.06649,0.97368,2.67824,1.22936,-2.40426,-2.39314,-2.05146,-0.73710,2.65997,-1.90198,0.16679,A,145453.30
2.69248,57.68793987,11.98119182,57.68797,11.98121,14:54:53.483648,0.00332,1.53517,0.05478,0.03745,-0.01772,0.01240,0.01988,-0.05118,0.03007,1.01223,2.68843,1.22936,-2.40426,-2.39314,-2.05146,-0.73710,2.65997,-1.90198,0.16679,A,145453.30
2.70306,57.68793987,11.98119182,57.68797,11.98121,14:54:53.493933,0.00350,1.53517,0.05443,0.03745,-0.02200,0.01500,0.01270,-0.06198,0.08229,1.10166,2.69901,1.22936,-2.40426,-2.39314,-2.05146,-0.73710,2.65997,-1.90198,0.16679,A,145453.30
2.71344,57.68793987,11.98119182,57.68797,11.98121,14:54:53.504323,0.00348,1.53517,0.05425,0.03745,-0.02062,0.00904,0.01912,0.04740,0.09565,1.12630,2.70918,1.22936,-2.40426,-2.39314,-2.05146,-0.73710,2.65997,-1.90198,0.16679,A,145453.30
2.72400,57.68793987,11.98119182,57.68797,11.98121,14:54:53.514883,0.00364,1.53517,0.05388,0.03745,-0.00993,-0.01325,0.02828,0.08229,0.06814,1.05030,2.71995,1.22936,-2.40426,-2.39314,-2.05146,-0.73710,2.65997,-1.90198,0.16679,A,145453.30
2.73508,57.68793987,11.98119182,57.68797,11.98121,14:54:53.525967,0.00433,1.53517,0.05395,0.03745,-0.00169,-0.03632,0.04386,0.04111,0.08656,0.97210,2.73101,1.22936,-2.40426,-2.39314,-2.05146,-0.73710,2.65997,-1.90198,0.16679,A,145453.30
2.74444,57.68793987,11.98119182,57.68797,11.98121,14:54:53.535553,0.00333,1.53517,0.05447,0.03745,0.00855,-0.05082,0.04722,-0.05893,0.10205,0.90243,2.74037,1.22936,-2.40426,-2.39314,-2.05146,-0.73710,2.65997,-1.90198,0.16679,A,145453.30
2.75501,57.68793987,11.98119182,57.68797,11.98121,14:54:53.545891,0.00349,1.53517,0.05463,0.03745,0.01084,-0.03250,0.05378,-0.13145,0.07948,0.91158,2.75097,1.22936,-2.40426,-2.39314,-2.05146,-0.73710,2.65997,-1.90198,0.16679,A,145453.30
2.78896,57.68793987,11.98119182,57.68797,11.98121,14:54:53.579869,0.02704,1.53517,0.05514,0.03745,0.01924,-0.01478,0.04706,-0.04984,0.08900,0.83204,2.76115,1.22936,-2.40426,-2.39314,-2.05146,-0.73710,2.78726,-2.04067,0.46331,A,145453.50
2.80423,57.68794010,11.98119012,57.68797,11.98121,14:54:53.595136,0.00800,1.53517,0.05562,0.03745,0.01893,-0.01814,0.02843,0.01208,0.08278,1.16046,2.79622,1.25994,-2.35495,-2.34383,-2.15240,-0.71181,2.78726,-2.04067,0.46331,A,145453.50
2.81036,57.68794010,11.98119012,57.68797,11.98121,14:54:53.601240,0.00363,1.53517,0.05556,0.03745,0.01893,-0.02746,0.02858,0.01708,0.07637,1.14082,2.80627,1.25994,-2.35495,-2.34383,-2.15240,-0.71181,2.78726,-2.04067,0.46331,A,145453.50
2.82042,57.68794010,11.98119012,57.68797,11.98121,14:54:53.611531,0.00330,1.53517,0.05529,0.03745,0.01756,-0.04731,0.03332,-0.00433,0.05954,1.10282,2.81638,1.25994,-2.35495,-2.34383,-2.15240,-0.71181,2.78726,-2.04067,0.46331,A,145453.50
2.83295,57.68794010,11.98119012,57.68797,11.98121,14:54:53.623848,0.00408,1.53517,0.05517,0.03745,0.01511,-0.06350,0.03591,0.00366,0.06076,0.94196,2.82867,1.25994,-2.35495,-2.34383,-2.15240,-0.71181,2.78726,-2.04067,0.46331,A,145453.50
2.84492,57.68794010,11.98119012,57.68797,11.98121,14:54:53.635823,0.00565,1.53517,0.05577,0.03745,0.01832,-0.07251,0.03301,-0.13017,0.10077,0.91360,2.84060,1.25994,-2.35495,-2.34383,-2.15240,-0.71181,2.78726,-2.04067,0.46331,A,145453.50
2.85312,57.68794010,11.98119012,57.68797,11.98121,14:54:53.644024,0.00362,1.53517,0.05592,0.03745,0.02932,-0.03372,0.02614,-0.24229,0.07613,0.96209,2.84880,1.25994,-2.35495,-2.34383,-2.15240,-0.71181,2.78726,-2.04067,0.46331,A,145453.50
2.86342,57.68794010,11.98119012,57.68797,11.98121,14:54:53.654291,0.00351,1.53517,0.05587,0.03745,0.03390,0.00904,0.01988,-0.10114,0.05179,0.86919,2.85936,1.25994,-2.35495,-2.34383,-2.15240,-0.71181,2.78726,-2.04067,0.46331,A,145453.50
2.87428,57.68794010,11.98119012,57.68797,11.98121,14:54:53.665160,0.00397,1.53517,0.05533,0.03745,0.02031,0.01194,0.01316,0.03398,0.02959,0.84393,2.87020,1.25994,-2.35495,-2.34383,-2.15240,-0.71181,2.78726,-2.04067,0.46331,A,145453.50
2.88421,57.68794010,11.98119012,57.68797,11.98121,14:54:53.675086,0.00332,1.53517,0.05549,0.03737,0.01328,-0.00898,0.01514,0.02916,0.08217,0.94129,2.88016,1.25994,-2.35495,-2.34383,-2.15240,-0.71181,2.78726,-2.04067,0.46331,A,145453.50
2.90736,57.68794010,11.98119012,57.68797,11.98121,14:54:53.698243,0.01607,1.53517,0.05604,0.03703,0.01068,-0.00806,0.00965,-0.06789,0.12139,1.07433,2.89075,1.25994,-2.35495,-2.34383,-2.15240,-0.71181,2.90589,-2.10011,0.53744,A,145453.60
2.92521,57.68794035,11.98118862,57.68797,11.98121,14:54:53.716108,0.00789,1.53517,0.05635,0.03386,0.00687,-0.06075,0.02095,0.09113,0.10150,1.10605,2.91886,1.28747,-2.30390,-2.29385,-2.24174,-0.68381,2.90589,-2.10011,0.53744,A,145453.60
2.93125,57.68794035,11.98118862,57.68797,11.98121,14:54:53.722127,0.00353,1.53517,0.05683,0.03224,0.00412,-0.08076,0.01942,0.04978,0.12523,1.10648,2.92720,1.28747,-2.30390,-2.29385,-2.24174,-0.68381,2.90589,-2.10011,0.53744,A,145453.60
2.94162,57.68794035,11.98118862,57.68797,11.98121,14:54:53.732499,0.00350,1.53517,0.05725,0.03015,0.00061,-0.07694,0.01744,-0.14176,0.12169,1.08476,2.93736,1.28747,-2.30390,-2.29385,-2.24174,-0.68381,2.90589,-2.10011,0.53744,A,145453.60
2.95200,57.68794035,11.98118862,57.68797,11.98121,14:54:53.742883,0.00348,1.53517,0.05715,0.02789,-0.00107,-0.04349,0.01316,-0.12371,0.07832,1.00327,2.94796,1.28747,-2.30390,-2.29385,-2.24174,-0.68381,2.90589,-2.10011,0.53744,A,145453.60
2.96230,57.68794035,11.98118862,57.68797,11.98121,14:54:53.753171,0.00338,1.53517,0.05702,0.02588,-0.00352,-0.01631,0.00354,-0.14945,0.07375,0.94721,2.95824,1.28747,-2.30390,-2.29385,-2.24174,-0.68381,2.90589,-2.10011,0.53744,A,145453.60
2.97308,57.68794035,11.98118862,57.68797,11.98121,14:54:53.763978,0.00392,1.53517,0.05684,0.02407,-0.00581,0.01469,-0.00425,-0.03678,0.06692,0.88371,2.96881,1.28747,-2.30390,-2.29385,-2.24174,-0.68381,2.90589,-2.10011,0.53744,A,145453.60
2.98520,57.68794035,11.98118862,57.68797,11.98121,14:54:53.776150,0.00563,1.53517,0.05635,0.02257,-0.00627,0.00400,-0.00562,-0.00415,0.04837,0.87468,2.98008,1.28747,-2.30390,-2.29385,-2.24174,-0.68381,2.90589,-2.10011,0.53744,A,145453.60
2.99447,57.68794035,11.98118862,57.68797,11.98121,14:54:53.785373,0.00450,1.53517,0.05652,0.02163,-0.00947,-0.00867,-0.00456,-0.07412,0.09132,0.91427,2.99035,1.28747,-2.30390,-2.29385,-2.24174,-0.68381,2.90589,-2.10011,0.53744,A,145453.60
3.00431,57.68794035,11.98118862,57.68797,11.98121,14:54:53.795201,0.00394,1.53517,0.05706,0.02090,-0.01314,-0.01188,-0.00074,0.01507,0.12462,0.98076,2.99982,1.28747,-2.30390,-2.29385,-2.24174,-0.68381,2.90589,-2.10011,0.53744,A,145453.60
3.02838,57.68794035,11.98118862,57.68797,11.98120,14:54:53.819498,0.01762,1.53517,0.05716,0.02050,-0.00184,-0.02349,0.00277,-0.05222,0.09778,1.08928,3.01020,1.28747,-2.30390,-2.29385,-2.24174,-0.68381,3.02681,-2.15954,0.68570,A,145453.70
3.04307,57.68794068,11.98118726,57.68797,11.98120,14:54:53.833948,0.00785,1.53517,0.05735,0.02039,-0.00520,-0.04945,0.02370,-0.01513,0.11273,1.07897,3.03669,1.31224,-2.25682,-2.25077,-2.32242,-0.64760,3.02681,-2.15954,0.68570,A,145453.70
3.05075,57.68794068,11.98118726,57.68797,11.98120,14:54:53.841637,0.00530,1.53517,0.05786,0.02039,-0.00871,-0.03036,0.01362,-0.08150,0.12889,1.05396,3.04602,1.31224,-2.25682,-2.25077,-2.32242,-0.64760,3.02681,-2.15954,0.68570,A,145453.70
3.05956,57.68794068,11.98118726,57.68797,11.98120,14:54:53.850440,0.00371,1.56753,0.05804,0.02039,0.00106,-0.01371,0.00904,-0.17361,0.09187,0.96593,3.05549,1.31224,-2.25682,-2.25077,-2.32242,-0.64760,3.02681,-2.15954,0.68570,A,145453.70
3.06994,57.68794068,11.98118726,57.68797,11.98120,14:54:53.860825,0.00369,1.56753,0.05756,0.02033,0.00106,0.01133,-0.00776,-0.03849,0.04435,0.87114,3.06588,1.31224,-2.25682,-2.25077,-2.32242,-0.64760,3.02681,-2.15954,0.68570,A,145453.70
3.08013,57.68794068,11.98118726,57.68797,11.98120,14:54:53.871016,0.00348,1.56753,0.05633,0.02022,-0.00703,0.00583,-0.01769,-0.00506,0.00598,0.86376,3.07608,1.31224,-2.25682,-2.25077,-2.32242,-0.64760,3.02681,-2.15954,0.68570,A,145453.70
3.09143,57.68794068,11.98118726,57.68797,11.98120,14:54:53.882314,0.00368,1.56753,0.05560,0.02007,-0.01467,-0.00715,-0.02197,0.01543,0.03782,0.85418,3.08737,1.31224,-2.25682,-2.25077,-2.32242,-0.64760,3.02681,-2.15954,0.68570,A,145453.70
3.10177,57.68794068,11.98118726,57.68797,11.98120,14:54:53.892651,0.00352,1.56753,0.05559,0.01999,-0.01604,-0.02532,-0.01540,-0.00604,0.08601,0.93733,3.09769,1.31224,-2.25682,-2.25077,-2.32242,-0.64760,3.02681,-2.15954,0.68570,A,145453.70
3.11220,57.68794068,11.98118726,57.68797,11.98120,14:54:53.903081,0.00333,1.56753,0.05549,0.01988,-0.00917,-0.02089,-0.00150,-0.08869,0.08936,1.11667,3.10814,1.31224,-2.25682,-2.25077,-2.32242,-0.64760,3.02681,-2.15954,0.68570,A,145453.70
3.12279,57.68794068,11.98118726,57.68797,11.98120,14:54:53.913678,0.00352,1.56753,0.05546,0.01973,0.00091,-0.01387,0.00491,-0.03520,0.08760,1.12216,3.11874,1.31224,-2.25682,-2.25077,-2.32242,-0.64760,3.02681,-2.15954,0.68570,A,145453.70
3.14583,57.68794068,11.98118726,57.68797,11.98120,14:54:53.936716,0.01632,1.56753,0.05487,0.01937,-0.00489,-0.01493,0.00445,0.04496,0.04959,1.12167,3.12879,1.31224,-2.25682,-2.25077,-2.32242,-0.64760,3.14421,-2.21898,0.79690,A,145453.80
3.15901,57.68794104,11.98118602,57.68797,11.98120,14:54:53.949904,0.00642,1.56753,0.05493,0.01750,-0.00245,-0.02257,-0.00547,-0.06551,0.09034,1.02968,3.15215,1.33777,-2.21093,-2.20573,-2.39622,-0.60721,3.14421,-2.21898,0.79690,A,145453.80
3.16667,57.68794104,11.98118602,57.68797,11.98120,14:54:53.957553,0.00368,1.56753,0.05502,0.01634,0.00351,-0.01661,-0.00578,-0.07247,0.07893,0.95239,3.16263,1.33777,-2.21093,-2.20573,-2.39622,-0.60721,3.14421,-2.21898,0.79690,A,145453.80
3.17658,57.68794104,11.98118602,57.68797,11.98120,14:54:53.967685,0.00335,1.56753,0.05423,0.01512,0.00351,-0.00822,-0.00990,-0.03141,0.02208,0.87364,3.17253,1.33777,-2.21093,-2.20573,-2.39622,-0.60721,3.14421,-2.21898,0.79690,A,145453.80
3.18721,57.68794104,11.98118602,57.68797,11.98120,14:54:53.978093,0.00358,1.56753,0.05338,0.01393,-0.01054,-0.01997,-0.01494,0.11755,0.02257,0.76567,3.18316,1.33777,-2.21093,-2.20573,-2.39622,-0.60721,3.14421,-2.21898,0.79690,A,145453.80
3.19755,57.68794104,11.98118602,57.68797,11.98120,14:54:53.988429,0.00351,1.56753,0.05281,0.01297,-0.01894,-0.04991,-0.00914,0.03837,0.04435,0.84186,3.19328,1.33777,-2.21093,-2.20573,-2.39622,-0.60721,3.14421,-2.21898,0.79690,A,145453.80
3.20792,57.68794104,11.98118602,57.68797,11.98120,14:54:53.998805,0.00349,1.56753,0.05271,0.01206,-0.02016,-0.05571,-0.00944,-0.03751,0.08204,0.97435,3.20388,1.33777,-2.21093,-2.20573,-2.39622,-0.60721,3.14421,-2.21898,0.79690,A,145453.80
3.21843,57.68794104,11.98118602,57.68797,11.98120,14:54:54.009313,0.00360,1.56753,0.05289,0.01119,-0.02963,-0.05006,-0.00914,-0.19502,0.11999,1.10386,3.21436,1.33777,-2.21093,-2.20573,-2.39622,-0.60721,3.14421,-2.21898,0.79690,A,145453.80
3.22844,57.68794104,11.98118602,57.68797,11.98120,14:54:54.019602,0.00331,1.56753,0.05330,0.01020,-0.01574,0.00156,-0.01494,-0.27688,0.14786,1.30290,3.22439,1.33777,-2.21093,-2.20573,-2.39622,-0.60721,3.14421,-2.21898,0.79690,A,145453.80
3.23926,57.68794104,11.98118602,57.68797,11.98120,14:54:54.030145,0.00374,1.56753,0.05296,0.00895,-0.01070,0.05684,-0.02502,0.02245,0.07235,1.18279,3.23521,1.33777,-2.21093,-2.20573,-2.39622,-0.60721,3.14421,-2.21898,0.79690,A,145453.80
3.26198,57.68794104,11.98118602,57.68797,11.98120,14:54:54.052871,0.01606,1.56753,0.05247,0.00765,-0.01650,0.03958,-0.02960,0.22131,0.05344,0.99741,3.24516,1.33777,-2.21093,-2.20573,-2.39622,-0.60721,3.26038,-2.27842,0.92662,A,145453.90
3.28024,57.68794138,11.98118478,57.68797,11.98120,14:54:54.071124,0.00964,1.56753,0.05140,0.00490,-0.02337,0.00583,-0.03372,-0.08632,0.03941,0.82862,3.27386,1.36074,-2.16632,-2.16486,-2.46964,-0.56948,3.26038,-2.27842,0.92662,A,145453.90
3.28507,57.68794138,11.98118478,57.68797,11.98120,14:54:54.075960,0.00352,1.56753,0.05047,0.00411,-0.02459,0.00645,-0.03021,0.05246,0.01616,0.69406,3.28081,1.36074,-2.16632,-2.16486,-2.46964,-0.56948,3.26038,-2.27842,0.92662,A,145453.90
3.29547,57.68794138,11.98118478,57.68797,11.98120,14:54:54.086351,0.00351,1.56753,0.04994,0.00363,-0.02826,-0.03754,-0.02487,0.12615,0.04288,0.75439,3.29142,1.36074,-2.16632,-2.16486,-2.46964,-0.56948,3.26038,-2.27842,0.92662,A,145453.90
3.30588,57.68794138,11.98118478,57.68797,11.98120,14:54:54.096765,0.00352,1.56753,0.05003,0.00346,-0.02872,-0.05754,-0.01479,0.01476,0.09119,0.93598,3.30182,1.36074,-2.16632,-2.16486,-2.46964,-0.56948,3.26038,-2.27842,0.92662,A,145453.90
3.31627,57.68794138,11.98118478,57.68797,11.98120,14:54:54.107145,0.00334,1.56753,0.05060,0.00343,-0.01329,-0.05006,-0.01021,-0.19630,0.14396,1.20438,3.31221,1.36074,-2.16632,-2.16486,-2.46964,-0.56948,3.26038,-2.27842,0.92662,A,145453.90
3.32683,57.68794138,11.98118478,57.68797,11.98120,14:54:54.117713,0.00350,1.56753,0.05053,0.00343,-0.00123,0.00614,-0.01066,-0.23503,0.08924,1.30028,3.32278,1.36074,-2.16632,-2.16486,-2.46964,-0.56948,3.26038,-2.27842,0.92662,A,145453.90
3.33715,57.68794138,11.98118478,57.68797,11.98120,14:54:54.128289,0.00358,1.56753,0.04964,0.00343,0.00091,0.03989,-0.01265,-0.06405,0.01470,1.20152,3.33284,1.36074,-2.16632,-2.16486,-2.46964,-0.56948,3.26038,-2.27842,0.92662,A,145453.90
3.34779,57.68794138,11.98118478,57.68797,11.98120,14:54:54.138675,0.00354,1.56753,0.04904,0.00343,-0.00428,0.03241,-0.01082,0.15878,0.03447,1.00388,3.34374,1.36074,-2.16632,-2.16486,-2.46964,-0.56948,3.26038,-2.27842,0.92662,A,145453.90
3.35814,57.68794138,11.98118478,57.68797,11.98120,14:54:54.149026,0.00349,1.56753,0.04872,0.00343,-0.00856,-0.01661,-0.01509,0.07424,0.05063,0.91872,3.35407,1.36074,-2.16632,-2.16486,-2.46964,-0.56948,3.26038,-2.27842,0.92662,A,145453.90
3.39429,57.68794138,11.98118478,57.68798,11.98120,14:54:54.185196,0.02917,1.56753,0.04912,0.00343,-0.00107,-0.04151,-0.00669,-0.10461,0.08760,0.89121,3.36437,1.36074,-2.16632,-2.16486,-2.46964,-0.56948,3.39275,-2.41711,1.20461,A,145454.10
3.40577,57.68794185,11.98118345,57.68798,11.98120,14:54:54.196680,0.00594,1.56753,0.04943,0.00343,0.02351,0.00522,0.00247,0.08070,0.03434,0.90713,3.39942,1.38142,-2.12358,-2.12256,-2.54898,-0.51731,3.39275,-2.41711,1.20461,A,145454.10
3.41461,57.68794185,11.98118345,57.68798,11.98120,14:54:54.205508,0.00437,1.56753,0.04994,0.00343,0.02779,-0.01219,-0.00410,-0.11517,0.09431,1.10996,3.41049,1.38142,-2.12358,-2.12256,-2.54898,-0.51731,3.39275,-2.41711,1.20461,A,145454.10
3.42413,57.68794185,11.98118345,57.68798,11.98120,14:54:54.215026,0.00350,1.56753,0.05008,0.00343,0.02993,0.00889,-0.00578,-0.12670,0.07186,1.15504,3.42008,1.38142,-2.12358,-2.12256,-2.54898,-0.51731,3.39275,-2.41711,1.20461,A,145454.10
3.43457,57.68794185,11.98118345,57.68798,11.98120,14:54:54.225466,0.00353,1.56753,0.04977,0.00343,0.03084,0.01408,-0.00837,-0.07369,0.03385,1.13869,3.43051,1.38142,-2.12358,-2.12256,-2.54898,-0.51731,3.39275,-2.41711,1.20461,A,145454.10
3.44562,57.68794185,11.98118345,57.68798,11.98120,14:54:54.236518,0.00366,1.56753,0.04943,0.00343,0.02855,0.01515,-0.01479,0.04331,0.03007,1.05030,3.44133,1.38142,-2.12358,-2.12256,-2.54898,-0.51731,3.39275,-2.41711,1.20461,A,145454.10
3.45585,57.68794185,11.98118345,57.68798,11.98120,14:54:54.246749,0.00348,1.56753,0.04972,0.00343,0.02962,-0.02227,-0.01097,0.12822,0.06850,0.97167,3.45180,1.38142,-2.12358,-2.12256,-2.54898,-0.51731,3.39275,-2.41711,1.20461,A,145454.10
3.46626,57.68794185,11.98118345,57.68798,11.98120,14:54:54.257162,0.00349,1.56753,0.05049,0.00343,0.03054,-0.04823,-0.00349,0.04746,0.08955,0.87212,3.46221,1.38142,-2.12358,-2.12256,-2.54898,-0.51731,3.39275,-2.41711,1.20461,A,145454.10
3.47706,57.68794185,11.98118345,57.68798,11.98120,14:54:54.267978,0.00367,1.56753,0.05159,0.00343,0.04230,-0.06503,0.00613,-0.12316,0.10638,0.91244,3.47276,1.38142,-2.12358,-2.12256,-2.54898,-0.51731,3.39275,-2.41711,1.20461,A,145454.10
3.48739,57.68794185,11.98118345,57.68798,11.98120,14:54:54.278288,0.00360,1.56753,0.05236,0.00343,0.05115,-0.03082,0.01072,-0.23711,0.08863,0.98753,3.48334,1.38142,-2.12358,-2.12256,-2.54898,-0.51731,3.39275,-2.41711,1.20461,A,145454.10
3.51036,57.68794185,11.98118345,57.68798,11.98120,14:54:54.301239,0.01616,1.56753,0.05223,0.00343,0.04749,-0.00195,0.01056,-0.05514,0.03355,0.99302,3.49343,1.38142,-2.12358,-2.12256,-2.54898,-0.51731,3.50858,-2.49635,1.27874,A,145454.20
3.52414,57.68794235,11.98118226,57.68798,11.98120,14:54:54.315023,0.00567,1.57393,0.05275,0.00343,0.03161,-0.00822,-0.00761,0.02251,0.06277,1.08513,3.51803,1.40067,-2.07795,-2.07694,-2.61965,-0.46107,3.50858,-2.49635,1.27874,A,145454.20
3.53231,57.68794235,11.98118226,57.68798,11.98120,14:54:54.323194,0.00331,1.57393,0.05367,0.00343,0.03130,-0.00699,-0.00975,-0.11145,0.12651,1.09782,3.52827,1.40067,-2.07795,-2.07694,-2.61965,-0.46107,3.50858,-2.49635,1.27874,A,145454.20
3.54293,57.68794235,11.98118226,57.68798,11.98120,14:54:54.333806,0.00351,1.57393,0.05390,0.00343,0.03558,-0.00150,-0.00807,-0.06076,0.06515,0.98234,3.53888,1.40067,-2.07795,-2.07694,-2.61965,-0.46107,3.50858,-2.49635,1.27874,A,145454.20
3.55331,57.68794235,11.98118226,57.68798,11.98120,14:54:54.344200,0.00349,1.57393,0.05390,0.00343,0.03176,0.00003,-0.01234,-0.04294,0.05069,0.93452,3.54906,1.40067,-2.07795,-2.07694,-2.61965,-0.46107,3.50858,-2.49635,1.27874,A,145454.20
3.56386,57.68794235,11.98118226,57.68798,11.98120,14:54:54.354736,0.00351,1.57393,0.05381,0.00343,0.02046,-0.00348,-0.01112,0.04752,0.04660,0.84461,3.55981,1.40067,-2.07795,-2.07694,-2.61965,-0.46107,3.50858,-2.49635,1.27874,A,145454.20
3.57891,57.68794235,11.98118226,57.68798,11.98120,14:54:54.369807,0.00817,1.57393,0.05490,0.00343,0.01313,-0.03708,-0.01112,-0.01348,0.12249,0.89646,3.57481,1.40067,-2.07795,-2.07694,-2.61965,-0.46107,3.50858,-2.49635,1.27874,A,145454.20
3.58437,57.68794235,11.98118226,57.68798,11.98120,14:54:54.375494,0.00332,1.57393,0.05549,0.00343,0.01817,-0.03387,-0.01036,-0.07796,0.10144,0.92635,3.58033,1.40067,-2.07795,-2.07694,-2.61965,-0.46107,3.50858,-2.49635,1.27874,A,145454.20
3.59503,57.68794235,11.98118226,57.68798,11.98120,14:54:54.385909,0.00358,1.57393,0.05583,0.00343,0.01954,-0.02883,-0.00914,-0.13469,0.09162,1.05512,3.59097,1.40067,-2.07795,-2.07694,-2.61965,-0.46107,3.50858,-2.49635,1.27874,A,145454.20
3.60538,57.68794235,11.98118226,57.68798,11.98120,14:54:54.396261,0.00352,1.57393,0.05522,0.00343,0.01786,-0.01829,-0.01143,-0.11120,0.02775,1.09818,3.60109,1.40067,-2.07795,-2.07694,-2.61965,-0.46107,3.50858,-2.49635,1.27874,A,145454.20
3.62969,57.68794235,11.98118226,57.68798,11.98120,14:54:54.420582,0.01744,1.57393,0.05487,0.00343,0.01328,-0.00150,-0.01494,0.02202,0.04727,1.06951,3.61170,1.40067,-2.07795,-2.07694,-2.61965,-0.46107,3.62794,-2.55579,1.40847,A,145454.30
3.64159,57.68794289,11.98118118,57.68798,11.98120,14:54:54.432480,0.00613,1.57393,0.05582,0.00343,-0.00062,0.00202,-0.02517,-0.05368,0.14140,0.99643,3.63502,1.41800,-2.03667,-2.03566,-2.68375,-0.40127,3.62794,-2.55579,1.40847,A,145454.30
3.64957,57.68794289,11.98118118,57.68798,11.98120,14:54:54.440456,0.00355,1.57393,0.05649,0.00343,0.00503,0.00568,-0.03311,-0.18459,0.12163,1.02132,3.64529,1.41800,-2.03667,-2.03566,-2.68375,-0.40127,3.62794,-2.55579,1.40847,A,145454.30
3.65992,57.68794289,11.98118118,57.68798,11.98120,14:54:54.450802,0.00350,1.57393,0.05645,0.00343,0.00977,0.02676,-0.03128,-0.09656,0.06753,0.97374,3.65587,1.41800,-2.03667,-2.03566,-2.68375,-0.40127,3.62794,-2.55579,1.40847,A,145454.30
3.67044,57.68794289,11.98118118,57.68798,11.98120,14:54:54.461318,0.00362,1.57393,0.05648,0.00343,0.00488,0.02004,-0.02639,0.04429,0.07405,0.96795,3.66634,1.41800,-2.03667,-2.03566,-2.68375,-0.40127,3.62794,-2.55579,1.40847,A,145454.30
3.68162,57.68794289,11.98118118,57.68798,11.98120,14:54:54.472508,0.00450,1.57393,0.05589,0.00343,0.00962,-0.00256,-0.01876,0.11029,0.02995,0.92464,3.67731,1.41800,-2.03667,-2.03566,-2.68375,-0.40127,3.62794,-2.55579,1.40847,A,145454.30
3.69103,57.68794289,11.98118118,57.68798,11.98120,14:54:54.481913,0.00350,1.57393,0.05638,0.00343,0.00061,-0.03784,-0.00669,0.06484,0.09931,0.89627,3.68698,1.41800,-2.03667,-2.03566,-2.68375,-0.40127,3.62794,-2.55579,1.40847,A,145454.30
3.70144,57.68794289,11.98118118,57.68798,11.98120,14:54:54.492322,0.00352,1.57393,0.05661,0.00343,0.00213,-0.03677,0.00125,-0.12505,0.08735,0.95111,3.69716,1.41800,-2.03667,-2.03566,-2.68375,-0.40127,3.62794,-2.55579,1.40847,A,145454.30
3.71182,57.68794289,11.98118118,57.68798,11.98120,14:54:54.502700,0.00350,1.57393,0.05711,0.00343,0.01038,-0.02333,-0.00043,-0.16208,0.10376,0.98771,3.70777,1.41800,-2.03667,-2.03566,-2.68375,-0.40127,3.62794,-2.55579,1.40847,A,145454.30
3.72231,57.68794289,11.98118118,57.68798,11.98120,14:54:54.513196,0.00352,1.57393,0.05728,0.00343,0.01710,0.01393,-0.00471,-0.13633,0.08070,1.02815,3.71825,1.41800,-2.03667,-2.03566,-2.68375,-0.40127,3.62794,-2.55579,1.40847,A,145454.30
3.74557,57.68794289,11.98118118,57.68798,11.98120,14:54:54.536460,0.01645,1.57393,0.05764,0.00343,0.01695,0.03271,-0.00685,0.02239,0.09272,1.00833,3.72839,1.41800,-2.03667,-2.03566,-2.68375,-0.40127,3.74396,-2.62513,1.51966,A,145454.40
3.75739,57.68794345,11.98118018,57.68798,11.98120,14:54:54.548286,0.00592,1.57393,0.05839,0.00343,0.03573,0.00843,-0.00807,-0.07643,0.07631,0.99491,3.75105,1.43359,-1.99453,-1.99351,-2.74307,-0.33914,3.74396,-2.62513,1.51966,A,145454.40
3.76540,57.68794345,11.98118018,57.68798,11.98120,14:54:54.556282,0.00352,1.57393,0.05866,0.00343,0.03726,0.01408,-0.00501,-0.18837,0.07662,1.03816,3.76111,1.43359,-1.99453,-1.99351,-2.74307,-0.33914,3.74396,-2.62513,1.51966,A,145454.40
3.77576,57.68794345,11.98118018,57.68798,11.98120,14:54:54.566637,0.00349,1.57393,0.05889,0.00343,0.03710,0.03225,-0.00165,0.03727,0.06393,0.90994,3.77171,1.43359,-1.99453,-1.99351,-2.74307,-0.33914,3.74396,-2.62513,1.51966,A,145454.40
3.78665,57.68794345,11.98118018,57.68798,11.98120,14:54:54.577543,0.00395,1.57393,0.05908,0.00349,0.03558,0.00507,0.00369,0.12554,0.05911,0.86815,3.78255,1.43359,-1.99453,-1.99351,-2.74307,-0.33914,3.74396,-2.62513,1.51966,A,145454.40
3.79645,57.68794345,11.98118018,57.68798,11.98120,14:54:54.587555,0.00333,1.57393,0.05990,0.00380,0.03985,-0.01631,0.01056,-0.04898,0.10699,0.97338,3.79239,1.43359,-1.99453,-1.99351,-2.74307,-0.33914,3.74396,-2.62513,1.51966,A,145454.40
3.80701,57.68794345,11.98118018,57.68798,11.98120,14:54:54.597888,0.00350,1.57393,0.06128,0.00456,0.05772,-0.00608,0.01224,-0.18794,0.14140,1.04523,3.80297,1.43359,-1.99453,-1.99351,-2.74307,-0.33914,3.74396,-2.62513,1.51966,A,145454.40
3.81745,57.68794345,11.98118018,57.68798,11.98120,14:54:54.608340,0.00354,1.57393,0.06167,0.00573,0.06383,0.02783,0.02186,-0.18562,0.07021,1.05652,3.81316,1.43359,-1.99453,-1.99351,-2.74307,-0.33914,3.74396,-2.62513,1.51966,A,145454.40
3.82782,57.68794345,11.98118018,57.68798,11.98120,14:54:54.618701,0.00350,1.57393,0.06111,0.00728,0.07009,0.03974,0.01148,-0.01379,-0.00220,1.03529,3.82378,1.43359,-1.99453,-1.99351,-2.74307,-0.33914,3.74396,-2.62513,1.51966,A,145454.40
3.83821,57.68794345,11.98118018,57.68798,11.98120,14:54:54.629095,0.00350,1.57393,0.06091,0.00904,0.05314,0.02508,0.00644,0.07747,0.03569,1.01492,3.83415,1.43359,-1.99453,-1.99351,-2.74307,-0.33914,3.74396,-2.62513,1.51966,A,145454.40
3.87351,57.68794345,11.98118018,57.68798,11.98119,14:54:54.664393,0.02839,1.57393,0.06142,0.01071,0.04108,0.00538,0.01056,0.08564,0.08918,0.98552,3.84439,1.43359,-1.99453,-1.99351,-2.74307,-0.33914,3.87192,-2.74401,1.79765,A,145454.60
3.88565,57.68794403,11.98117906,57.68798,11.98119,14:54:54.676542,0.00627,1.57393,0.06238,0.01422,0.04367,0.01469,0.00552,-0.11364,0.05057,1.01937,3.87928,1.44763,-1.95428,-1.95006,-2.81005,-0.27416,3.87192,-2.74401,1.79765,A,145454.60
3.89359,57.68794403,11.98117906,57.68798,11.98119,14:54:54.684484,0.00380,1.57393,0.06292,0.01461,0.04917,0.03409,0.00262,-0.00525,0.09065,0.99467,3.88908,1.44763,-1.95428,-1.95006,-2.81005,-0.27416,3.87192,-2.74401,1.79765,A,145454.60
3.90370,57.68794403,11.98117906,57.68798,11.98119,14:54:54.694582,0.00351,1.57393,0.06322,0.01475,0.04459,0.02645,0.00033,0.01006,0.07784,1.01998,3.89965,1.44763,-1.95428,-1.95006,-2.81005,-0.27416,3.87192,-2.74401,1.79765,A,145454.60
3.91429,57.68794403,11.98117906,57.68798,11.98119,14:54:54.705176,0.00348,1.57393,0.06341,0.01475,0.04321,0.02065,-0.00669,-0.09638,0.07540,1.07323,3.91023,1.44763,-1.95428,-1.95006,-2.81005,-0.27416,3.87192,-2.74401,1.79765,A,145454.60
3.92518,57.68794403,11.98117906,57.68798,11.98119,14:54:54.716073,0.00406,1.57393,0.06275,0.01475,0.03374,0.01927,-0.00654,-0.05045,0.02056,1.04279,3.92088,1.44763,-1.95428,-1.95006,-2.81005,-0.27416,3.87192,-2.74401,1.79765,A,145454.60
3.93502,57.68794403,11.98117906,57.68798,11.98119,14:54:54.725899,0.00350,1.57393,0.06265,0.01475,0.01908,0.01912,-0.00776,-0.02355,0.06649,0.97698,3.93097,1.44763,-1.95428,-1.95006,-2.81005,-0.27416,3.87192,-2.74401,1.79765,A,145454.60
3.94543,57.68794403,11.98117906,57.68798,11.98119,14:54:54.736317,0.00350,1.57393,0.06309,0.01475,0.01160,0.01149,-0.00547,0.08985,0.10108,0.92836,3.94117,1.44763,-1.95428,-1.95006,-2.81005,-0.27416,3.87192,-2.74401,1.79765,A,145454.60
3.95583,57.68794403,11.98117906,57.68798,11.98119,14:54:54.746709,0.00350,1.57393,0.06449,0.01475,0.01298,-0.00516,-0.00120,0.02153,0.16934,0.97789,3.95178,1.44763,-1.95428,-1.95006,-2.81005,-0.27416,3.87192,-2.74401,1.79765,A,145454.60
3.96653,57.68794403,11.98117906,57.68798,11.98119,14:54:54.757857,0.00397,1.57393,0.06519,0.01475,0.01267,-0.01280,-0.00257,-0.02294,0.11858,0.92744,3.96243,1.44763,-1.95428,-1.95006,-2.81005,-0.27416,3.87192,-2.74401,1.79765,A,145454.60
3.99181,57.68794403,11.98117906,57.68798,11.98119,14:54:54.785383,0.01870,1.57393,0.06503,0.01467,0.00977,-0.01677,-0.00685,-0.06692,0.06625,0.90829,3.97238,1.44763,-1.95428,-1.95006,-2.81005,-0.27416,3.99018,-2.76382,1.90885,A,145454.70
4.00696,57.68794470,11.98117816,57.68798,11.98119,14:54:54.797843,0.00631,1.52369,0.06406,0.01314,-0.01848,0.01561,-0.02563,0.05679,0.05685,0.97838,4.00059,1.45523,-1.91506,-1.91116,-2.86303,-0.20040,3.99018,-2.76382,1.90885,A,145454.70
4.01579,57.68794470,11.98117816,57.68798,11.98119,14:54:54.806683,0.00473,1.52369,0.06393,0.01226,-0.02459,0.00064,-0.02777,0.05740,0.09546,0.98118,4.01166,1.45523,-1.91506,-1.91116,-2.86303,-0.20040,3.99018,-2.76382,1.90885,A,145454.70
4.02463,57.68794470,11.98117816,57.68798,11.98119,14:54:54.815733,0.00335,1.52369,0.06378,0.01139,-0.02688,-0.01280,-0.02074,-0.02525,0.09632,1.03334,4.02058,1.45523,-1.91506,-1.91116,-2.86303,-0.20040,3.99018,-2.76382,1.90885,A,145454.70
4.03519,57.68794470,11.98117816,57.68798,11.98119,14:54:54.826063,0.00349,1.52369,0.06390,0.01059,-0.02536,0.00919,-0.01937,-0.09711,0.11919,1.05743,4.03115,1.45523,-1.91506,-1.91116,-2.86303,-0.20040,3.99018,-2.76382,1.90885,A,145454.70
4.04567,57.68794470,11.98117816,57.68798,11.98119,14:54:54.836553,0.00357,1.52369,0.06368,0.01000,-0.02643,0.01347,-0.01463,-0.02348,0.09595,1.06573,4.04133,1.45523,-1.91506,-1.91116,-2.86303,-0.20040,3.99018,-2.76382,1.90885,A,145454.70
4.05619,57.68794470,11.98117816,57.68798,11.98119,14:54:54.847075,0.00370,1.52369,0.06374,0.00960,-0.02719,0.00919,-0.00898,-0.03514,0.11499,1.04493,4.05196,1.45523,-1.91506,-1.91116,-2.86303,-0.20040,3.99018,-2.76382,1.90885,A,145454.70
4.06898,57.68794470,11.98117816,57.68798,11.98119,14:54:54.859883,0.00470,1.52369,0.06409,0.00946,-0.02307,0.01820,-0.00562,0.00085,0.13194,1.01406,4.06469,1.45523,-1.91506,-1.91116,-2.86303,-0.20040,3.99018,-2.76382,1.90885,A,145454.70
4.07817,57.68794470,11.98117816,57.68798,11.98119,14:54:54.869050,0.00348,1.52369,0.06370,0.00946,-0.02123,0.01469,-0.00410,0.10529,0.06924,0.92958,4.07410,1.45523,-1.91506,-1.91116,-2.86303,-0.20040,3.99018,-2.76382,1.90885,A,145454.70
4.08845,57.68794470,11.98117816,57.68798,11.98119,14:54:54.879557,0.00333,1.52369,0.06262,0.00946,-0.02688,-0.01829,-0.00868,0.05728,0.02867,0.87663,4.08441,1.45523,-1.91506,-1.91116,-2.86303,-0.20040,3.99018,-2.76382,1.90885,A,145454.70
4.11205,57.68794470,11.98117816,57.68798,11.98119,14:54:54.902937,0.01652,1.52369,0.06212,0.00946,-0.04216,-0.03616,-0.00578,-0.08705,0.08015,0.97643,4.09508,1.45523,-1.91506,-1.91116,-2.86303,-0.20040,4.11056,-2.81335,2.02004,A,145454.80
4.12390,57.68794542,11.98117740,57.68798,11.98119,14:54:54.914784,0.00566,1.52369,0.06143,0.00946,-0.02749,0.00339,0.00171,-0.00128,0.07723,0.95947,4.11780,1.46208,-1.87404,-1.87123,-2.90838,-0.12042,4.11056,-2.81335,2.02004,A,145454.80
4.13243,57.68794542,11.98117740,57.68798,11.98119,14:54:54.923538,0.00356,1.52369,0.06181,0.00946,-0.02612,0.01378,-0.00135,0.07052,0.12920,1.00583,4.12837,1.46208,-1.87404,-1.87123,-2.90838,-0.12042,4.11056,-2.81335,2.02004,A,145454.80
4.14300,57.68794542,11.98117740,57.68798,11.98119,14:54:54.933879,0.00374,1.52369,0.06105,0.00946,-0.02245,0.00278,-0.00074,-0.04837,0.05362,1.07866,4.13895,1.46208,-1.87404,-1.87123,-2.90838,-0.12042,4.11056,-2.81335,2.02004,A,145454.80
4.15304,57.68794542,11.98117740,57.68798,11.98119,14:54:54.943929,0.00354,1.52369,0.06055,0.00946,-0.02475,0.00415,-0.00104,-0.05081,0.07070,1.06451,4.14877,1.46208,-1.87404,-1.87123,-2.90838,-0.12042,4.11056,-2.81335,2.02004,A,145454.80
4.16340,57.68794542,11.98117740,57.68798,11.98119,14:54:54.954277,0.00350,1.52369,0.05970,0.00946,-0.02215,0.00217,-0.00746,-0.03959,0.04526,1.06152,4.15935,1.46208,-1.87404,-1.87123,-2.90838,-0.12042,4.11056,-2.81335,2.02004,A,145454.80
4.17436,57.68794542,11.98117740,57.68798,11.98119,14:54:54.965246,0.00423,1.52369,0.05956,0.00946,-0.02077,0.00813,-0.00196,0.08143,0.08528,0.96343,4.17027,1.46208,-1.87404,-1.87123,-2.90838,-0.12042,4.11056,-2.81335,2.02004,A,145454.80
4.18403,57.68794542,11.98117740,57.68798,11.98119,14:54:54.974906,0.00349,1.52369,0.05962,0.00946,-0.01742,-0.01524,0.00445,0.14054,0.08766,0.89841,4.17997,1.46208,-1.87404,-1.87123,-2.90838,-0.12042,4.11056,-2.81335,2.02004,A,145454.80
4.19444,57.68794542,11.98117740,57.68798,11.98119,14:54:54.985329,0.00351,1.52369,0.05989,0.00946,-0.00779,-0.04334,0.01316,0.01995,0.10077,0.94654,4.19037,1.46208,-1.87404,-1.87123,-2.90838,-0.12042,4.11056,-2.81335,2.02004,A,145454.80
4.20452,57.68794542,11.98117740,57.68798,11.98119,14:54:54.995758,0.00333,1.52369,0.05992,0.00946,-0.00886,-0.03158,0.01820,-0.11913,0.08326,0.91006,4.20047,1.46208,-1.87404,-1.87123,-2.90838,-0.12042,4.11056,-2.81335,2.02004,A,145454.80
4.22765,57.68794542,11.98117740,57.68798,11.98119,14:54:55.018532,0.01606,1.52369,0.06024,0.00949,-0.00398,-0.01463,0.02141,-0.12944,0.09980,0.92885,4.21104,1.46208,-1.87404,-1.87123,-2.90838,-0.12042,4.22617,-2.85298,2.14977,A,145454.90
4.24085,57.68794616,11.98117674,57.68798,11.98119,14:54:55.031763,0.00602,1.52369,0.06081,0.01017,0.01252,0.02233,0.01850,0.01806,0.10669,1.04017,4.23427,1.46824,-1.83521,-1.83219,-2.94746,-0.03744,4.22617,-2.85298,2.14977,A,145454.90
4.24846,57.68794616,11.98117674,57.68798,11.98119,14:54:55.039558,0.00334,1.52369,0.06104,0.01090,0.01267,0.02889,0.02110,-0.05954,0.10248,1.12935,4.24441,1.46824,-1.83521,-1.83219,-2.94746,-0.03744,4.22617,-2.85298,2.14977,A,145454.90
4.25901,57.68794616,11.98117674,57.68798,11.98119,14:54:55.049899,0.00349,1.52369,0.06054,0.01190,0.02183,0.03073,0.01973,-0.04301,0.04063,1.13222,4.25497,1.46824,-1.83521,-1.83219,-2.94746,-0.03744,4.22617,-2.85298,2.14977,A,145454.90
4.26948,57.68794616,11.98117674,57.68798,11.98119,14:54:55.061207,0.00357,1.52369,0.05998,0.01291,0.00732,0.01790,0.01728,0.03581,0.04483,1.06768,4.26515,1.46824,-1.83521,-1.83219,-2.94746,-0.03744,4.22617,-2.85298,2.14977,A,145454.90
4.27983,57.68794616,11.98117674,57.68798,11.98119,14:54:55.070714,0.00351,1.52369,0.05968,0.01393,0.00259,-0.01417,0.01316,0.11852,0.05899,0.95172,4.27578,1.46824,-1.83521,-1.83219,-2.94746,-0.03744,4.22617,-2.85298,2.14977,A,145454.90
4.29022,57.68794616,11.98117674,57.68798,11.98119,14:54:55.081100,0.00350,1.52369,0.06046,0.01464,0.00076,-0.03173,0.01606,0.03934,0.12883,0.94642,4.28615,1.46824,-1.83521,-1.83219,-2.94746,-0.03744,4.22617,-2.85298,2.14977,A,145454.90
4.30044,57.68794616,11.98117674,57.68798,11.98119,14:54:55.091550,0.00332,1.52369,0.06137,0.01509,0.00519,-0.04288,0.01728,-0.02910,0.12249,0.85546,4.29639,1.46824,-1.83521,-1.83219,-2.94746,-0.03744,4.22617,-2.85298,2.14977,A,145454.90
4.31100,57.68794616,11.98117674,57.68798,11.98119,14:54:55.101889,0.00349,1.52369,0.06215,0.01523,0.01145,-0.03647,0.02217,-0.15201,0.11907,0.91055,4.30695,1.46824,-1.83521,-1.83219,-2.94746,-0.03744,4.22617,-2.85298,2.14977,A,145454.90
4.32154,57.68794616,11.98117674,57.68798,11.98119,14:54:55.112425,0.00362,1.52369,0.06228,0.01523,0.01328,0.00843,0.02416,-0.20063,0.08406,0.97411,4.31715,1.46824,-1.83521,-1.83219,-2.94746,-0.03744,4.22617,-2.85298,2.14977,A,145454.90
4.34496,57.68794616,11.98117674,57.68798,11.98119,14:54:55.135862,0.01664,1.52369,0.06134,0.01523,0.00595,0.04447,0.01255,-0.04477,0.01964,1.01547,4.32779,1.46824,-1.83521,-1.83219,-2.94746,-0.03744,4.34324,-2.93223,2.24243,A,145455.00
4.35664,57.68794690,11.98117611,57.68798,11.98119,14:54:55.147836,0.00569,1.52369,0.06106,0.01523,-0.01589,0.03134,-0.01204,0.04618,0.09620,1.05896,4.35054,1.47379,-1.79254,-1.78802,-2.98501,0.04450,4.34324,-2.93223,2.24243,A,145455.00
4.36453,57.68794690,11.98117611,57.68798,11.98119,14:54:55.155635,0.00334,1.52369,0.06093,0.01523,-0.02368,0.01912,-0.01845,0.00952,0.09455,1.03072,4.36047,1.47379,-1.79254,-1.78802,-2.98501,0.04450,4.34324,-2.93223,2.24243,A,145455.00
4.37597,57.68794690,11.98117611,57.68798,11.98119,14:54:55.167412,0.00438,1.52369,0.06122,0.01523,-0.01299,-0.00379,-0.01677,0.00360,0.11663,1.02071,4.37104,1.47379,-1.79254,-1.78802,-2.98501,0.04450,4.34324,-2.93223,2.24243,A,145455.00
4.38615,57.68794690,11.98117611,57.68798,11.98119,14:54:55.177029,0.00389,1.52369,0.06164,0.01518,-0.01283,-0.01631,-0.01983,-0.00232,0.12224,0.99058,4.38205,1.47379,-1.79254,-1.78802,-2.98501,0.04450,4.34324,-2.93223,2.24243,A,145455.00
4.39618,57.68794690,11.98117611,57.68798,11.98119,14:54:55.187061,0.00335,1.52369,0.06136,0.01484,-0.01848,-0.01585,-0.01463,-0.01440,0.07625,0.96624,4.39211,1.47379,-1.79254,-1.78802,-2.98501,0.04450,4.34324,-2.93223,2.24243,A,145455.00
4.40680,57.68794690,11.98117611,57.68798,11.98119,14:54:55.197679,0.00357,1.52369,0.06109,0.01407,-0.02230,-0.00974,-0.02074,-0.01220,0.08186,0.98552,4.40274,1.47379,-1.79254,-1.78802,-2.98501,0.04450,4.34324,-2.93223,2.24243,A,145455.00
4.41716,57.68794690,11.98117611,57.68798,11.98119,14:54:55.208065,0.00369,1.52369,0.06122,0.01280,-0.01451,0.00568,-0.02349,-0.04075,0.10236,0.99149,4.41277,1.47379,-1.79254,-1.78802,-2.98501,0.04450,4.34324,-2.93223,2.24243,A,145455.00
4.42743,57.68794690,11.98117611,57.68798,11.98119,14:54:55.218309,0.00356,1.52369,0.06124,0.01113,-0.01497,0.01790,-0.02258,-0.15305,0.09821,1.01345,4.42337,1.47379,-1.79254,-1.78802,-2.98501,0.04450,4.34324,-2.93223,2.24243,A,145455.00
4.43779,57.68794690,11.98117611,57.68798,11.98119,14:54:55.228669,0.00352,1.52369,0.06068,0.00943,-0.00321,0.03684,-0.02868,-0.02885,0.04544,0.92683,4.43371,1.47379,-1.79254,-1.78802,-2.98501,0.04450,4.34324,-2.93223,2.24243,A,145455.00
4.46118,57.68794690,11.98117611,57.68799,11.98119,14:54:55.252063,0.01632,1.52369,0.05940,0.00779,-0.00337,0.01484,-0.01631,0.08375,0.00030,0.92580,4.44414,1.47379,-1.79254,-1.78802,-2.98501,0.04450,4.45954,-3.00157,2.37216,A,145455.10
4.47321,57.68794766,11.98117553,57.68799,11.98119,14:54:55.264648,0.00611,1.52369,0.05956,0.00522,-0.01299,-0.03021,-0.00425,-0.00817,0.11200,0.99759,4.46685,1.47878,-1.75170,-1.75015,-3.01937,0.12906,4.45954,-3.00157,2.37216,A,145455.10
4.48089,57.68794766,11.98117553,57.68799,11.98119,14:54:55.271790,0.00355,1.53636,0.06051,0.00437,-0.00413,-0.02822,0.00201,-0.07607,0.15775,1.06262,4.47662,1.47878,-1.75170,-1.75015,-3.01937,0.12906,4.45954,-3.00157,2.37216,A,145455.10
4.49125,57.68794766,11.98117553,57.68799,11.98119,14:54:55.282130,0.00352,1.53636,0.06104,0.00352,0.00565,-0.00562,-0.00761,-0.09162,0.12200,1.06909,4.48719,1.47878,-1.75170,-1.75015,-3.01937,0.12906,4.45954,-3.00157,2.37216,A,145455.10
4.50352,57.68794766,11.98117553,57.68799,11.98119,14:54:55.294410,0.00475,1.53636,0.05984,0.00250,0.00030,0.00538,-0.02548,-0.01739,0.00244,0.99753,4.49938,1.47878,-1.75170,-1.75015,-3.01937,0.12906,4.45954,-3.00157,2.37216,A,145455.10
4.51247,57.68794766,11.98117553,57.68799,11.98119,14:54:55.303560,0.00334,1.53636,0.05871,0.00148,-0.00718,0.00568,-0.04121,0.09004,0.00921,0.89145,4.50841,1.47878,-1.75170,-1.75015,-3.01937,0.12906,4.45954,-3.00157,2.37216,A,145455.10
4.52308,57.68794766,11.98117553,57.68799,11.98119,14:54:55.313959,0.00355,1.53636,0.05823,0.00043,-0.02245,-0.02211,-0.05129,0.03196,0.05722,0.90689,4.51902,1.47878,-1.75170,-1.75015,-3.01937,0.12906,4.45954,-3.00157,2.37216,A,145455.10
4.53346,57.68794766,11.98117553,57.68799,11.98119,14:54:55.324331,0.00353,1.53636,0.05804,-0.00050,-0.02551,-0.04258,-0.05006,-0.04044,0.07777,0.92592,4.52918,1.47878,-1.75170,-1.75015,-3.01937,0.12906,4.45954,-3.00157,2.37216,A,145455.10
4.54408,57.68794766,11.98117553,57.68799,11.98119,14:54:55.334968,0.00375,1.53636,0.05815,-0.00138,-0.02398,-0.04044,-0.04182,-0.03465,0.10394,1.00278,4.54001,1.47878,-1.75170,-1.75015,-3.01937,0.12906,4.45954,-3.00157,2.37216,A,145455.10
4.55424,57.68794766,11.98117553,57.68799,11.98119,14:54:55.345126,0.00351,1.53636,0.05814,-0.00211,-0.02215,-0.03601,-0.03266,-0.03263,0.09790,1.05268,4.55018,1.47878,-1.75170,-1.75015,-3.01937,0.12906,4.45954,-3.00157,2.37216,A,145455.10
4.60724,57.68794766,11.98117553,57.68799,11.98119,14:54:55.398137,0.04613,1.53636,0.05763,-0.00296,-0.02139,-0.02013,-0.03021,0.00384,0.06381,1.08299,4.56040,1.47878,-1.75170,-1.75015,-3.01937,0.12906,4.60564,-3.14026,2.65015,A,145455.30
4.62918,57.68794816,11.98117473,57.68799,11.98119,14:54:55.420128,0.01102,1.53636,0.05627,-0.01004,-0.02581,-0.01081,-0.03785,0.05911,0.07253,0.85498,4.61866,1.48453,-1.71280,-1.71578,-3.06706,0.18480,4.60564,-3.14026,2.65015,A,145455.30
4.64423,57.68794816,11.98117473,57.68799,11.98119,14:54:55.435118,0.00786,1.53636,0.05612,-0.01143,-0.02536,-0.03372,-0.03479,-0.10541,0.10651,1.06372,4.63972,1.48453,-1.71280,-1.71578,-3.06706,0.18480,4.60564,-3.14026,2.65015,A,145455.30
4.65593,57.68794816,11.98117473,57.68799,11.98119,14:54:55.446813,0.00793,1.53636,0.05609,-0.01194,-0.01604,-0.00379,-0.03617,-0.07515,0.10419,1.20621,4.65184,1.48453,-1.71280,-1.71578,-3.06706,0.18480,4.60564,-3.14026,2.65015,A,145455.30
4.66407,57.68794816,11.98117473,57.68799,11.98119,14:54:55.454958,0.00474,1.53636,0.05562,-0.01199,-0.01696,0.00782,-0.03708,-0.02910,0.06021,1.14582,4.65989,1.48453,-1.71280,-1.71578,-3.06706,0.18480,4.60564,-3.14026,2.65015,A,145455.30
4.67316,57.68794816,11.98117473,57.68799,11.98119,14:54:55.464057,0.00360,1.53636,0.05471,-0.01199,-0.01803,0.00293,-0.04212,0.11688,0.02489,1.02163,4.66890,1.48453,-1.71280,-1.71578,-3.06706,0.18480,4.60564,-3.14026,2.65015,A,145455.30
4.68345,57.68794816,11.98117473,57.68799,11.98119,14:54:55.474335,0.00349,1.53636,0.05461,-0.01199,-0.02230,-0.01448,-0.04533,0.07942,0.07546,0.92586,4.67940,1.48453,-1.71280,-1.71578,-3.06706,0.18480,4.60564,-3.14026,2.65015,A,145455.30
4.69389,57.68794816,11.98117473,57.68799,11.98119,14:54:55.484773,0.00353,1.53636,0.05513,-0.01199,-0.01787,-0.03464,-0.04090,-0.17586,0.11486,0.94855,4.68982,1.48453,-1.71280,-1.71578,-3.06706,0.18480,4.60564,-3.14026,2.65015,A,145455.30
4.70458,57.68794816,11.98117473,57.68799,11.98119,14:54:55.495778,0.00397,1.53636,0.05595,-0.01199,-0.00321,0.00354,-0.03999,-0.19794,0.12127,0.92519,4.70050,1.48453,-1.71280,-1.71578,-3.06706,0.18480,4.60564,-3.14026,2.65015,A,145455.30
4.72713,57.68794816,11.98117473,57.68799,11.98119,14:54:55.518015,0.01613,1.53636,0.05572,-0.01199,-0.00718,0.03348,-0.04090,-0.06997,0.05777,0.91286,4.71047,1.48453,-1.71280,-1.71578,-3.06706,0.18480,4.72566,-3.21950,2.76134,A,145455.40
4.73865,57.68794915,11.98117411,57.68799,11.98119,14:54:55.529533,0.00574,1.53636,0.05522,-0.01199,-0.01238,0.02095,-0.04365,0.06252,0.05649,0.95996,4.73225,1.48972,-1.67527,-1.67883,-3.10386,0.29482,4.72566,-3.21950,2.76134,A,145455.40
4.74697,57.68794915,11.98117411,57.68799,11.98119,14:54:55.537850,0.00379,1.53636,0.05592,-0.01199,-0.00550,0.00171,-0.04273,0.01921,0.12395,0.98960,4.74290,1.48972,-1.67527,-1.67883,-3.10386,0.29482,4.72566,-3.21950,2.76134,A,145455.40
4.75697,57.68794915,11.98117411,57.68799,11.98119,14:54:55.547866,0.00356,1.53636,0.05621,-0.01199,0.00412,-0.01768,-0.03449,-0.05575,0.09174,1.00863,4.75268,1.48972,-1.67527,-1.67883,-3.10386,0.29482,4.72566,-3.21950,2.76134,A,145455.40
4.76731,57.68794915,11.98117411,57.68799,11.98119,14:54:55.558196,0.00351,1.53636,0.05573,-0.01199,0.00442,-0.01738,-0.03189,-0.08204,0.04301,1.06433,4.76326,1.48972,-1.67527,-1.67883,-3.10386,0.29482,4.72566,-3.21950,2.76134,A,145455.40
4.77788,57.68794915,11.98117411,57.68799,11.98119,14:54:55.568765,0.00368,1.53636,0.05547,-0.01199,0.00381,0.01057,-0.02746,-0.12737,0.06008,1.10800,4.77378,1.48972,-1.67527,-1.67883,-3.10386,0.29482,4.72566,-3.21950,2.76134,A,145455.40
4.78803,57.68794915,11.98117411,57.68799,11.98119,14:54:55.578908,0.00357,1.53636,0.05579,-0.01199,0.00931,0.03088,-0.02655,-0.04124,0.09882,1.09696,4.78396,1.48972,-1.67527,-1.67883,-3.10386,0.29482,4.72566,-3.21950,2.76134,A,145455.40
4.79828,57.68794915,11.98117411,57.68799,11.98119,14:54:55.589158,0.00342,1.53636,0.05618,-0.01199,0.02336,0.04279,-0.03036,0.01519,0.08717,1.02907,4.79422,1.48972,-1.67527,-1.67883,-3.10386,0.29482,4.72566,-3.21950,2.76134,A,145455.40
4.80942,57.68794915,11.98117411,57.68799,11.98119,14:54:55.600320,0.00432,1.53636,0.05614,-0.01199,0.03359,0.03225,-0.02685,-0.15043,0.05100,1.03303,4.80445,1.48972,-1.67527,-1.67883,-3.10386,0.29482,4.72566,-3.21950,2.76134,A,145455.40
4.81900,57.68794915,11.98117411,57.68799,11.98119,14:54:55.609880,0.00351,1.53636,0.05626,-0.01199,0.03084,0.03592,-0.03311,-0.05246,0.06094,0.98759,4.81495,1.48972,-1.67527,-1.67883,-3.10386,0.29482,4.72566,-3.21950,2.76134,A,145455.40
4.84243,57.68794915,11.98117411,57.68799,11.98119,14:54:55.633319,0.01654,1.53636,0.05492,-0.01199,0.02855,0.01943,-0.03235,0.04435,-0.03001,0.87846,4.82512,1.48972,-1.67527,-1.67883,-3.10386,0.29482,4.84039,-3.28885,2.87254,A,145455.50
4.85528,57.68795010,11.98117352,57.68799,11.98119,14:54:55.646167,0.00576,1.53636,0.05594,-0.01199,0.01038,-0.02425,-0.02090,0.02910,0.11962,0.94770,4.84888,1.49438,-1.63906,-1.64262,-3.13891,0.40003,4.84039,-3.28885,2.87254,A,145455.50
4.86354,57.68795010,11.98117352,57.68799,11.98119,14:54:55.654426,0.00362,1.53636,0.05734,-0.01199,0.02229,-0.02059,-0.01051,-0.10285,0.16409,1.06811,4.85940,1.49438,-1.63906,-1.64262,-3.13891,0.40003,4.84039,-3.28885,2.87254,A,145455.50
4.87383,57.68795010,11.98117352,57.68799,11.98119,14:54:55.664714,0.00350,1.53636,0.05846,-0.01199,0.02809,0.01973,-0.02074,-0.19374,0.15189,1.14454,4.86976,1.49438,-1.63906,-1.64262,-3.13891,0.40003,4.84039,-3.28885,2.87254,A,145455.50
4.88564,57.68795010,11.98117352,57.68799,11.98119,14:54:55.676528,0.00463,1.53636,0.05809,-0.01199,0.02489,0.04615,-0.02792,-0.03471,0.03782,1.11758,4.88128,1.49438,-1.63906,-1.64262,-3.13891,0.40003,4.84039,-3.28885,2.87254,A,145455.50
4.89494,57.68795010,11.98117352,57.68799,11.98119,14:54:55.685818,0.00353,1.53636,0.05723,-0.01199,0.01496,0.03225,-0.04197,0.15653,0.00915,0.96227,4.89088,1.49438,-1.63906,-1.64262,-3.13891,0.40003,4.84039,-3.28885,2.87254,A,145455.50
4.90656,57.68795010,11.98117352,57.68799,11.98119,14:54:55.697451,0.00475,1.53636,0.05732,-0.01199,-0.00291,-0.01555,-0.05465,-0.00579,0.08308,0.98765,4.90242,1.49438,-1.63906,-1.64262,-3.13891,0.40003,4.84039,-3.28885,2.87254,A,145455.50
4.91603,57.68795010,11.98117352,57.68799,11.98119,14:54:55.706908,0.00362,1.53636,0.05701,-0.01199,-0.01238,-0.01600,-0.05205,-0.10102,0.05984,0.94538,4.91196,1.49438,-1.63906,-1.64262,-3.13891,0.40003,4.84039,-3.28885,2.87254,A,145455.50
4.92638,57.68795010,11.98117352,57.68799,11.98119,14:54:55.717264,0.00357,1.53636,0.05641,-0.01199,-0.00947,-0.01051,-0.04136,-0.00232,0.03636,0.87547,4.92223,1.49438,-1.63906,-1.64262,-3.13891,0.40003,4.84039,-3.28885,2.87254,A,145455.50
4.93632,57.68795010,11.98117352,57.68799,11.98119,14:54:55.727198,0.00334,1.60128,0.05596,-0.01199,-0.02490,-0.01585,-0.03724,-0.02775,0.05276,0.87035,4.93225,1.49438,-1.63906,-1.64262,-3.13891,0.40003,4.84039,-3.28885,2.87254,A,145455.50
4.97072,57.68795010,11.98117352,57.68799,11.98118,14:54:55.761602,0.02733,1.60128,0.05574,-0.01199,-0.03223,-0.01921,-0.02456,-0.02287,0.07497,0.91036,4.94299,1.49438,-1.63906,-1.64262,-3.13891,0.40003,4.96922,-3.36810,3.09493,A,145455.70
4.98255,57.68795101,11.98117293,57.68799,11.98118,14:54:55.773442,0.00595,1.60128,0.05531,-0.01199,-0.01253,0.03638,-0.03922,-0.08924,0.07826,1.07470,4.97613,1.50507,-1.60555,-1.60911,-3.17390,0.50173,4.96922,-3.36810,3.09493,A,145455.70
4.99052,57.68795101,11.98117293,57.68799,11.98118,14:54:55.781395,0.00351,1.60128,0.05392,-0.01199,-0.02505,0.03836,-0.04518,0.06972,-0.00152,1.12277,4.98647,1.50507,-1.60555,-1.60911,-3.17390,0.50173,4.96922,-3.36810,3.09493,A,145455.70
5.00057,57.68795101,11.98117293,57.68799,11.98118,14:54:55.791675,0.00333,1.60128,0.05313,-0.01199,-0.03742,0.00858,-0.04472,0.01946,0.05203,1.15924,4.99652,1.50507,-1.60555,-1.60911,-3.17390,0.50173,4.96922,-3.36810,3.09493,A,145455.70
5.01498,57.68795101,11.98117293,57.68799,11.98118,14:54:55.806238,0.00735,1.60128,0.00000,-0.01199,-0.04781,-0.01539,-0.03204,0.06301,0.01751,1.02687,5.00811,1.50507,-1.60555,-1.60911,-3.17390,0.50173,4.96922,-3.36810,3.09493,A,145455.70
5.02156,57.68795101,11.98117293,57.68799,11.98118,14:54:55.812447,0.00354,1.60128,0.00154,-0.01199,-0.05223,-0.02043,-0.02532,-0.07082,0.15323,0.99778,5.01727,1.50507,-1.60555,-1.60911,-3.17390,0.50173,4.96922,-3.36810,3.09493,A,145455.70
5.03192,57.68795101,11.98117293,57.68799,11.98118,14:54:55.822811,0.00351,1.60128,0.00179,-0.01199,-0.04994,-0.02028,-0.02074,-0.08113,0.06478,0.90719,5.02785,1.50507,-1.60555,-1.60911,-3.17390,0.50173,4.96922,-3.36810,3.09493,A,145455.70
5.04256,57.68795101,11.98117293,57.68799,11.98118,14:54:55.833465,0.00376,1.60128,0.00234,-0.01199,-0.04643,-0.00990,-0.01998,-0.01885,0.06655,0.75963,5.03823,1.50507,-1.60555,-1.60911,-3.17390,0.50173,4.96922,-3.36810,3.09493,A,145455.70
5.05258,57.68795101,11.98117293,57.68799,11.98118,14:54:55.843718,0.00336,1.60128,0.00318,-0.01199,-0.05055,-0.01234,-0.02762,-0.05264,0.08369,0.75719,5.04851,1.50507,-1.60555,-1.60911,-3.17390,0.50173,4.96922,-3.36810,3.09493,A,145455.70
5.06313,57.68795101,11.98117293,57.68799,11.98118,14:54:55.854024,0.00351,1.60128,0.00432,-0.01199,-0.04994,0.00278,-0.02975,-0.05697,0.11340,0.85601,5.05906,1.50507,-1.60555,-1.60911,-3.17390,0.50173,4.96922,-3.36810,3.09493,A,145455.70
5.08623,57.68795101,11.98117293,57.68799,11.98118,14:54:55.877121,0.01621,1.60128,0.00520,-0.01199,-0.04475,0.00721,-0.03388,-0.09693,0.12279,1.09843,5.06926,1.50507,-1.60555,-1.60911,-3.17390,0.50173,5.08479,-3.39782,3.16906,A,145455.80
5.09786,57.68795203,11.98117246,57.68799,11.98118,14:54:55.888901,0.00577,1.60128,0.00413,-0.01199,-0.04429,0.04050,-0.02762,0.11791,0.02050,1.17071,5.09158,1.51469,-1.57181,-1.57537,-3.20217,0.61515,5.08479,-3.39782,3.16906,A,145455.80
5.10594,57.68795203,11.98117246,57.68799,11.98118,14:54:55.896831,0.00345,1.60128,0.00320,-0.01182,-0.05529,0.00538,-0.01967,0.19788,-0.00159,1.05207,5.10193,1.51469,-1.57181,-1.57537,-3.20217,0.61515,5.08479,-3.39782,3.16906,A,145455.80
5.11632,57.68795203,11.98117246,57.68799,11.98118,14:54:55.907210,0.00332,1.60128,0.00425,-0.01134,-0.06567,-0.04166,-0.00501,0.12188,0.12407,0.90603,5.11226,1.51469,-1.57181,-1.57537,-3.20217,0.61515,5.08479,-3.39782,3.16906,A,145455.80
5.12689,57.68795203,11.98117246,57.68799,11.98118,14:54:55.917781,0.00349,1.60128,0.00560,-0.01058,-0.06354,-0.05861,0.00323,-0.19355,0.14768,0.93464,5.12283,1.51469,-1.57181,-1.57537,-3.20217,0.61515,5.08479,-3.39782,3.16906,A,145455.80
5.13731,57.68795203,11.98117246,57.68799,11.98118,14:54:55.928207,0.00353,1.60128,0.00636,-0.00973,-0.04597,-0.02440,0.00720,-0.17769,0.09479,0.89713,5.13302,1.51469,-1.57181,-1.57537,-3.20217,0.61515,5.08479,-3.39782,3.16906,A,145455.80
5.14784,57.68795203,11.98117246,57.68799,11.98118,14:54:55.938736,0.00365,1.60128,0.00564,-0.00877,-0.04231,0.01515,0.00140,-0.02153,0.00665,0.90573,5.14378,1.51469,-1.57181,-1.57537,-3.20217,0.61515,5.08479,-3.39782,3.16906,A,145455.80
5.15808,57.68795203,11.98117246,57.68799,11.98118,14:54:55.948975,0.00350,1.60128,0.00581,-0.00789,-0.04597,0.02309,-0.01036,0.04764,0.06100,0.91305,5.15401,1.51469,-1.57181,-1.57537,-3.20217,0.61515,5.08479,-3.39782,3.16906,A,145455.80
5.16854,57.68795203,11.98117246,57.68799,11.98118,14:54:55.959660,0.00345,1.60128,0.00649,-0.00701,-0.05117,0.01378,-0.01631,-0.01580,0.11023,1.03688,5.16447,1.51469,-1.57181,-1.57537,-3.20217,0.61515,5.08479,-3.39782,3.16906,A,145455.80
5.17900,57.68795203,11.98117246,57.68799,11.98118,14:54:55.969898,0.00352,1.60128,0.00676,-0.00605,-0.04475,0.02447,-0.02029,-0.05941,0.07521,0.99985,5.17495,1.51469,-1.57181,-1.57537,-3.20217,0.61515,5.08479,-3.39782,3.16906,A,145455.80
5.20182,57.68795203,11.98117246,57.68799,11.98118,14:54:55.992719,0.01595,1.60128,0.00680,-0.00492,-0.03849,0.01683,-0.01586,-0.10870,0.05667,1.03108,5.18512,1.51469,-1.57181,-1.57537,-3.20217,0.61515,5.20028,-3.44735,3.31732,A,145455.90
5.21536,57.68795307,11.98117203,57.68799,11.98118,14:54:56.006267,0.00769,1.60128,0.00579,-0.00158,-0.04093,0.01240,-0.00303,0.10870,0.02080,1.05005,5.20716,1.52335,-1.53900,-1.53947,-3.22739,0.73076,5.20028,-3.44735,3.31732,A,145455.90
5.22152,57.68795307,11.98117203,57.68799,11.98118,14:54:56.012409,0.00346,1.60128,0.00619,0.00023,-0.04261,-0.01493,0.00904,0.04008,0.08388,1.01943,5.21730,1.52335,-1.53900,-1.53947,-3.22739,0.73076,5.20028,-3.44735,3.31732,A,145455.90
5.23194,57.68795307,11.98117203,57.68799,11.98118,14:54:56.022830,0.00350,1.60128,0.00670,0.00213,-0.03559,-0.01585,0.00522,-0.03233,0.08223,0.95191,5.22787,1.52335,-1.53900,-1.53947,-3.22739,0.73076,5.20028,-3.44735,3.31732,A,145455.90
5.24230,57.68795307,11.98117203,57.68799,11.98118,14:54:56.033192,0.00347,1.60128,0.00789,0.00383,-0.02368,-0.00394,0.01270,-0.16622,0.12261,0.98539,5.23823,1.52335,-1.53900,-1.53947,-3.22739,0.73076,5.20028,-3.44735,3.31732,A,145455.90
5.25260,57.68795307,11.98117203,57.68799,11.98118,14:54:56.043731,0.00337,1.60128,0.00819,0.00533,-0.00886,0.02248,0.00690,-0.14500,0.05014,0.88895,5.24854,1.52335,-1.53900,-1.53947,-3.22739,0.73076,5.20028,-3.44735,3.31732,A,145455.90
5.26314,57.68795307,11.98117203,57.68799,11.98118,14:54:56.054031,0.00351,1.60128,0.00753,0.00663,-0.00932,0.03134,0.00262,-0.00872,-0.00549,0.88255,5.25909,1.52335,-1.53900,-1.53947,-3.22739,0.73076,5.20028,-3.44735,3.31732,A,145455.90
5.27367,57.68795307,11.98117203,57.68799,11.98118,14:54:56.064560,0.00365,1.60128,0.00752,0.00779,-0.00535,0.03806,0.00339,-0.02532,0.03215,0.96569,5.26939,1.52335,-1.53900,-1.53947,-3.22739,0.73076,5.20028,-3.44735,3.31732,A,145455.90
5.28391,57.68795307,11.98117203,57.68799,11.98118,14:54:56.074798,0.00349,1.60128,0.00795,0.00895,-0.00337,0.03302,0.00751,-0.07186,0.06911,1.12484,5.27985,1.52335,-1.53900,-1.53947,-3.22739,0.73076,5.20028,-3.44735,3.31732,A,145455.90
5.29430,57.68795307,11.98117203,57.68799,11.98118,14:54:56.085194,0.00348,1.60128,0.00860,0.01011,0.00549,0.04493,0.01637,-0.06307,0.08253,1.17608,5.29023,1.52335,-1.53900,-1.53947,-3.22739,0.73076,5.20028,-3.44735,3.31732,A,145455.90
5.31761,57.68795307,11.98117203,57.68800,11.98118,14:54:56.108499,0.01650,1.60128,0.00892,0.01133,0.00900,0.03684,0.01973,0.04874,0.05270,1.10776,5.30039,1.52335,-1.53900,-1.53947,-3.22739,0.73076,5.31599,-3.49688,3.44704,A,145456.00
5.32958,57.68795413,11.98117166,57.68800,11.98118,14:54:56.120479,0.00604,1.60128,0.00966,0.01399,-0.00596,-0.01692,0.03240,0.05740,0.08607,0.93995,5.32331,1.53115,-1.50450,-1.50035,-3.24952,0.84863,5.31599,-3.49688,3.44704,A,145456.00
5.33773,57.68795413,11.98117166,57.68800,11.98118,14:54:56.128639,0.00380,1.60128,0.01075,0.01490,-0.00566,-0.02746,0.02492,-0.02672,0.09711,0.86901,5.33318,1.53115,-1.50450,-1.50035,-3.24952,0.84863,5.31599,-3.49688,3.44704,A,145456.00
5.34796,57.68795413,11.98117166,57.68800,11.98118,14:54:56.138858,0.00363,1.60128,0.01210,0.01555,-0.00611,-0.00990,0.01942,-0.14115,0.11267,0.86358,5.34390,1.53115,-1.50450,-1.50035,-3.24952,0.84863,5.31599,-3.49688,3.44704,A,145456.00
5.35868,57.68795413,11.98117166,57.68800,11.98118,14:54:56.149576,0.00396,1.60128,0.01303,0.01586,-0.00016,0.01500,0.00919,-0.18001,0.08760,0.87883,5.35460,1.53115,-1.50450,-1.50035,-3.24952,0.84863,5.31599,-3.49688,3.44704,A,145456.00
5.36853,57.68795413,11.98117166,57.68800,11.98118,14:54:56.159627,0.00344,1.60128,0.01277,0.01591,-0.00306,0.05150,0.00415,-0.05417,0.02080,0.91433,5.36437,1.53115,-1.50450,-1.50035,-3.24952,0.84863,5.31599,-3.49688,3.44704,A,145456.00
5.37906,57.68795413,11.98117166,57.68800,11.98118,14:54:56.169943,0.00351,1.60128,0.01309,0.01591,-0.00321,0.05501,-0.00410,0.03526,0.05923,0.97508,5.37499,1.53115,-1.50450,-1.50035,-3.24952,0.84863,5.31599,-3.49688,3.44704,A,145456.00
5.38928,57.68795413,11.98117166,57.68800,11.98118,14:54:56.180168,0.00354,1.61721,0.01317,0.01591,-0.01131,0.04386,-0.00165,0.01434,0.05155,1.01602,5.38501,1.53115,-1.50450,-1.50035,-3.24952,0.84863,5.31599,-3.49688,3.44704,A,145456.00
5.40029,57.68795413,11.98117166,57.68800,11.98118,14:54:56.191180,0.00385,1.61721,0.01332,0.01591,-0.00718,0.01912,0.00720,0.00561,0.05826,1.10203,5.39591,1.53115,-1.50450,-1.50035,-3.24952,0.84863,5.31599,-3.49688,3.44704,A,145456.00
5.41029,57.68795413,11.98117166,57.68800,11.98118,14:54:56.201177,0.00347,1.61721,0.01337,0.01594,-0.00245,-0.00272,0.01606,0.00653,0.04666,1.09971,5.40623,1.53115,-1.50450,-1.50035,-3.24952,0.84863,5.31599,-3.49688,3.44704,A,145456.00
5.43327,57.68795413,11.98117166,57.68800,11.98118,14:54:56.224171,0.01614,1.61721,0.01363,0.01594,0.00473,-0.01020,0.02568,0.03715,0.05527,1.06695,5.41640,1.53115,-1.50450,-1.50035,-3.24952,0.84863,5.43154,-3.52660,3.55824,A,145456.10
5.44404,57.68795518,11.98117138,57.68800,11.98118,14:54:56.234940,0.00581,1.61721,0.01440,0.01594,0.00381,-0.02043,0.03118,-0.03654,0.07942,0.93672,5.43774,1.53975,-1.46897,-1.46424,-3.26631,0.96489,5.43154,-3.52660,3.55824,A,145456.10
5.45205,57.68795518,11.98117138,57.68800,11.98118,14:54:56.242939,0.00343,1.61721,0.01493,0.01594,0.00839,-0.01677,0.02965,-0.10852,0.06423,0.92897,5.44805,1.53975,-1.46897,-1.46424,-3.26631,0.96489,5.43154,-3.52660,3.55824,A,145456.10
5.46676,57.68795518,11.98117138,57.68800,11.98118,14:54:56.257664,0.00774,1.61721,0.01518,0.01594,0.00671,0.00965,0.01331,-0.10956,0.04642,0.90762,5.46127,1.53975,-1.46897,-1.46424,-3.26631,0.96489,5.43154,-3.52660,3.55824,A,145456.10
5.47253,57.68795518,11.98117138,57.68800,11.98118,14:54:56.263740,0.00329,1.61721,0.01525,0.01594,0.00274,0.01332,0.01148,-0.05874,0.03959,0.91445,5.46854,1.53975,-1.46897,-1.46424,-3.26631,0.96489,5.43154,-3.52660,3.55824,A,145456.10
5.48314,57.68795518,11.98117138,57.68800,11.98118,14:54:56.274026,0.00350,1.61721,0.01522,0.01594,-0.00107,-0.00073,0.00201,0.16391,0.03404,0.86345,5.47907,1.53975,-1.46897,-1.46424,-3.26631,0.96489,5.43154,-3.52660,3.55824,A,145456.10
5.49354,57.68795518,11.98117138,57.68800,11.98118,14:54:56.284434,0.00352,1.61721,0.01538,0.01594,-0.00153,-0.04105,0.00919,0.04191,0.05246,1.01358,5.48926,1.53975,-1.46897,-1.46424,-3.26631,0.96489,5.43154,-3.52660,3.55824,A,145456.10
5.50405,57.68795518,11.98117138,57.68800,11.98118,14:54:56.294942,0.00364,1.61721,0.01642,0.01594,0.00122,-0.04594,0.01576,-0.09992,0.12413,1.14180,5.49998,1.53975,-1.46897,-1.46424,-3.26631,0.96489,5.43154,-3.52660,3.55824,A,145456.10
5.51429,57.68795518,11.98117138,57.68800,11.98118,14:54:56.305185,0.00349,1.61721,0.01702,0.01594,0.01298,-0.01723,0.02202,-0.12792,0.08577,1.19975,5.51023,1.53975,-1.46897,-1.46424,-3.26631,0.96489,5.43154,-3.52660,3.55824,A,145456.10
5.53528,57.68795518,11.98117138,57.68800,11.98118,14:54:56.326217,0.01417,1.61721,0.01768,0.01594,0.01328,0.00690,0.02461,-0.14103,0.09638,1.25849,5.52038,1.53975,-1.46897,-1.46424,-3.26631,0.96489,5.43154,-3.52660,3.55824,A,145456.10
5.63882,57.68795518,11.98117138,57.68800,11.98118,14:54:56.429714,0.08061,1.61721,0.01902,0.01594,0.00977,-0.01952,0.01102,-0.09534,0.07655,0.75073,5.56885,1.53975,-1.46897,-1.46424,-3.26631,0.96489,5.63734,-3.60585,3.78063,A,145456.30
5.65348,57.68795515,11.98117132,57.68800,11.98118,14:54:56.444386,0.00773,1.61721,0.01977,0.01594,-0.00046,-0.03830,0.01698,0.05588,0.07875,0.80947,5.64625,1.54750,-1.43057,-1.42584,-3.26981,0.96170,5.63734,-3.60585,3.78063,A,145456.30
5.65977,57.68795515,11.98117132,57.68800,11.98118,14:54:56.450679,0.00363,1.61721,0.02040,0.01594,-0.00046,-0.07281,0.02293,0.03703,0.06905,0.78946,5.65560,1.54750,-1.43057,-1.42584,-3.26981,0.96170,5.63734,-3.60585,3.78063,A,145456.30
5.67019,57.68795515,11.98117132,57.68800,11.98118,14:54:56.461127,0.00365,1.61721,0.02162,0.01594,0.00702,-0.07724,0.02813,-0.12554,0.11157,0.91134,5.66611,1.54750,-1.43057,-1.42584,-3.26981,0.96170,5.63734,-3.60585,3.78063,A,145456.30
5.68039,57.68795515,11.98117132,57.68800,11.98118,14:54:56.471490,0.00333,1.61721,0.02278,0.01594,0.00946,-0.04380,0.02889,-0.14329,0.11663,0.98667,5.67632,1.54750,-1.43057,-1.42584,-3.26981,0.96170,5.63734,-3.60585,3.78063,A,145456.30
5.69096,57.68795515,11.98117132,57.68800,11.98118,14:54:56.481853,0.00351,1.61721,0.02368,0.01594,0.01313,0.00935,0.02568,-0.22777,0.10895,1.11032,5.68689,1.54750,-1.43057,-1.42584,-3.26981,0.96170,5.63734,-3.60585,3.78063,A,145456.30
5.70218,57.68795515,11.98117132,57.68800,11.98118,14:54:56.493078,0.00435,1.61721,0.02393,0.01594,0.02290,0.06433,0.01179,-0.12731,0.05344,1.10929,5.69809,1.54750,-1.43057,-1.42584,-3.26981,0.96170,5.63734,-3.60585,3.78063,A,145456.30
5.71164,57.68795515,11.98117132,57.68800,11.98118,14:54:56.502534,0.00342,1.61721,0.02356,0.01594,0.01939,0.07303,0.00339,0.02251,0.01275,1.10715,5.70765,1.54750,-1.43057,-1.42584,-3.26981,0.96170,5.63734,-3.60585,3.78063,A,145456.30
5.72211,57.68795515,11.98117132,57.68800,11.98118,14:54:56.513004,0.00349,1.61721,0.02297,0.01594,0.01664,0.03958,0.00064,0.06564,-0.00232,0.98362,5.71803,1.54750,-1.43057,-1.42584,-3.26981,0.96170,5.63734,-3.60585,3.78063,A,145456.30
5.73250,57.68795515,11.98117132,57.68800,11.98118,14:54:56.523741,0.00334,1.61721,0.02196,0.01594,0.00106,-0.00363,0.00858,-0.05459,-0.02031,0.98430,5.72843,1.54750,-1.43057,-1.42584,-3.26981,0.96170,5.63734,-3.60585,3.78063,A,145456.30
5.75584,57.68795515,11.98117132,57.68800,11.98118,14:54:56.546734,0.01630,1.61721,0.02200,0.01594,-0.00825,-0.00577,0.01117,-0.02300,0.05411,0.97533,5.73899,1.54750,-1.43057,-1.42584,-3.26981,0.96170,5.75443,-3.67519,3.91035,A,145456.40
5.77217,57.68795634,11.98117104,57.68800,11.98118,14:54:56.563065,0.00659,1.61721,0.02442,0.01594,0.01252,-0.00409,0.02935,-0.03398,0.17233,0.91921,5.76618,1.55447,-1.39305,-1.38831,-3.28671,1.09468,5.75443,-3.67519,3.91035,A,145456.40
5.77951,57.68795634,11.98117104,57.68800,11.98118,14:54:56.570405,0.00348,1.61721,0.02510,0.01594,0.01969,0.00583,0.02568,-0.15555,0.08076,0.97069,5.77551,1.55447,-1.39305,-1.38831,-3.28671,1.09468,5.75443,-3.67519,3.91035,A,145456.40
5.78995,57.68795634,11.98117104,57.68800,11.98118,14:54:56.580848,0.00354,1.61721,0.02572,0.01594,0.02290,0.04142,0.01209,-0.17068,0.07643,1.01370,5.78589,1.55447,-1.39305,-1.38831,-3.28671,1.09468,5.75443,-3.67519,3.91035,A,145456.40
5.80026,57.68795634,11.98117104,57.68800,11.98118,14:54:56.591154,0.00333,1.61721,0.02515,0.01594,0.00946,0.06051,0.00766,-0.05771,0.00579,0.97271,5.79621,1.55447,-1.39305,-1.38831,-3.28671,1.09468,5.75443,-3.67519,3.91035,A,145456.40
5.81083,57.68795634,11.98117104,57.68800,11.98118,14:54:56.601726,0.00350,1.61721,0.02553,0.01594,-0.00382,0.05623,0.00507,0.07424,0.07503,0.96252,5.80677,1.55447,-1.39305,-1.38831,-3.28671,1.09468,5.75443,-3.67519,3.91035,A,145456.40
5.82126,57.68795634,11.98117104,57.68800,11.98118,14:54:56.612161,0.00354,1.61721,0.02590,0.01594,-0.01161,0.02233,-0.00242,0.12633,0.07979,0.95977,5.81696,1.55447,-1.39305,-1.38831,-3.28671,1.09468,5.75443,-3.67519,3.91035,A,145456.40
5.83161,57.68795634,11.98117104,57.68800,11.98118,14:54:56.622501,0.00350,1.61721,0.02635,0.01594,-0.02123,-0.01539,0.00430,0.01055,0.10199,1.06933,5.82755,1.55447,-1.39305,-1.38831,-3.28671,1.09468,5.75443,-3.67519,3.91035,A,145456.40
5.84202,57.68795634,11.98117104,57.68800,11.98118,14:54:56.632911,0.00353,1.62733,0.02663,0.01594,-0.01971,-0.01371,0.00232,-0.14451,0.09449,1.13521,5.83795,1.55447,-1.39305,-1.38831,-3.28671,1.09468,5.75443,-3.67519,3.91035,A,145456.40
5.85234,57.68795634,11.98117104,57.68800,11.98118,14:54:56.643229,0.00331,1.62733,0.02755,0.01594,-0.01833,0.01439,-0.00074,-0.10144,0.13774,1.10056,5.84827,1.55447,-1.39305,-1.38831,-3.28671,1.09468,5.75443,-3.67519,3.91035,A,145456.40
5.88609,57.68795634,11.98117104,57.68800,11.98118,14:54:56.676988,0.02668,1.62733,0.02782,0.01594,-0.01238,0.03149,-0.00456,-0.00903,0.07503,0.94202,5.85888,1.55447,-1.39305,-1.38831,-3.28671,1.09468,5.88459,-3.77425,4.09568,A,145456.60
5.89997,57.68795749,11.98117075,57.68800,11.98118,14:54:56.690872,0.00732,1.62733,0.02685,0.01594,-0.02490,0.01194,-0.00364,-0.08991,0.04221,0.93062,5.89396,1.56176,-1.35570,-1.35096,-3.30350,1.22157,5.88459,-3.77425,4.09568,A,145456.60
5.90651,57.68795749,11.98117075,57.68800,11.98118,14:54:56.697402,0.00347,1.62733,0.02689,0.01594,-0.03360,0.02431,0.00033,-0.11877,0.07735,1.05890,5.90252,1.56176,-1.35570,-1.35096,-3.30350,1.22157,5.88459,-3.77425,4.09568,A,145456.60
5.91662,57.68795749,11.98117075,57.68800,11.98118,14:54:56.707741,0.00336,1.62733,0.02715,0.01594,-0.03162,0.02538,0.00522,0.03434,0.09821,1.10111,5.91256,1.56176,-1.35570,-1.35096,-3.30350,1.22157,5.88459,-3.77425,4.09568,A,145456.60
5.92718,57.68795749,11.98117075,57.68800,11.98118,14:54:56.718076,0.00353,1.62733,0.02734,0.01594,-0.02322,0.01744,0.00262,0.04063,0.09126,1.13539,5.92312,1.56176,-1.35570,-1.35096,-3.30350,1.22157,5.88459,-3.77425,4.09568,A,145456.60
5.93757,57.68795749,11.98117075,57.68800,11.98118,14:54:56.728464,0.00353,1.62733,0.02763,0.01594,-0.01925,0.01087,0.00201,0.06612,0.08997,1.06726,5.93328,1.56176,-1.35570,-1.35096,-3.30350,1.22157,5.88459,-3.77425,4.09568,A,145456.60
5.94814,57.68795749,11.98117075,57.68800,11.98118,14:54:56.739034,0.00371,1.62733,0.02786,0.01594,-0.02490,-0.00409,-0.00562,-0.05667,0.08308,0.96886,5.94408,1.56176,-1.35570,-1.35096,-3.30350,1.22157,5.88459,-3.77425,4.09568,A,145456.60
5.95830,57.68795749,11.98117075,57.68800,11.98118,14:54:56.749402,0.00347,1.62733,0.02655,0.01594,-0.02413,-0.00256,-0.00333,-0.05313,-0.01549,0.87169,5.95423,1.56176,-1.35570,-1.35096,-3.30350,1.22157,5.88459,-3.77425,4.09568,A,145456.60
5.96858,57.68795749,11.98117075,57.68800,11.98118,14:54:56.759719,0.00347,1.62733,0.02680,0.01591,-0.03788,-0.01325,-0.01082,0.00305,0.07558,0.80313,5.96451,1.56176,-1.35570,-1.35096,-3.30350,1.22157,5.88459,-3.77425,4.09568,A,145456.60
5.97901,57.68795749,11.98117075,57.68800,11.98118,14:54:56.769904,0.00351,1.62733,0.02679,0.01569,-0.04322,-0.01646,-0.01769,0.00189,0.07283,0.89578,5.97495,1.56176,-1.35570,-1.35096,-3.30350,1.22157,5.88459,-3.77425,4.09568,A,145456.60
6.00244,57.68795749,11.98117075,57.68800,11.98118,14:54:56.793328,0.01654,1.62733,0.02669,0.01521,-0.04781,-0.02914,-0.01983,-0.03703,0.07893,1.02852,5.98514,1.56176,-1.35570,-1.35096,-3.30350,1.22157,6.00100,-3.84359,4.22541,A,145456.70
6.01369,57.68795881,11.98117042,57.68800,11.98118,14:54:56.804584,0.00574,1.62733,0.02650,0.01311,-0.04322,0.01179,-0.01570,-0.06564,0.12151,1.19895,6.00745,1.56831,-1.31903,-1.31514,-3.32331,1.36890,6.00100,-3.84359,4.22541,A,145456.70
6.02181,57.68795881,11.98117042,57.68800,11.98118,14:54:56.812693,0.00347,1.62733,0.02568,0.01192,-0.04002,0.01057,-0.02242,-0.01122,0.02507,1.12484,6.01780,1.56831,-1.31903,-1.31514,-3.32331,1.36890,6.00100,-3.84359,4.22541,A,145456.70
6.03222,57.68795881,11.98117042,57.68800,11.98118,14:54:56.823112,0.00333,1.62733,0.02542,0.01073,-0.04429,0.00278,-0.01861,0.07869,0.06076,0.97301,6.02816,1.56831,-1.31903,-1.31514,-3.32331,1.36890,6.00100,-3.84359,4.22541,A,145456.70
6.04279,57.68795881,11.98117042,57.68800,11.98118,14:54:56.833693,0.00352,1.62733,0.02519,0.00972,-0.03818,-0.00822,-0.01861,-0.03227,0.05258,0.87791,6.03873,1.56831,-1.31903,-1.31514,-3.32331,1.36890,6.00100,-3.84359,4.22541,A,145456.70
6.05310,57.68795881,11.98117042,57.68800,11.98118,14:54:56.844001,0.00359,1.62733,0.02465,0.00890,-0.04032,-0.00745,-0.02105,0.02812,0.02971,0.75091,6.04880,1.56831,-1.31903,-1.31514,-3.32331,1.36890,6.00100,-3.84359,4.22541,A,145456.70
6.06340,57.68795881,11.98117042,57.68800,11.98118,14:54:56.854301,0.00351,1.62733,0.02419,0.00830,-0.03650,-0.02776,-0.01311,-0.04429,0.03306,0.77208,6.05935,1.56831,-1.31903,-1.31514,-3.32331,1.36890,6.00100,-3.84359,4.22541,A,145456.70
6.07378,57.68795881,11.98117042,57.68800,11.98118,14:54:56.864678,0.00350,1.62733,0.02434,0.00790,-0.04277,-0.01692,-0.01601,-0.07540,0.07784,0.90079,6.06972,1.56831,-1.31903,-1.31514,-3.32331,1.36890,6.00100,-3.84359,4.22541,A,145456.70
6.08514,57.68795881,11.98117042,57.68800,11.98118,14:54:56.876040,0.00416,1.62733,0.02420,0.00773,-0.03437,-0.01005,-0.01280,0.01946,0.06533,1.03230,6.08083,1.56831,-1.31903,-1.31514,-3.32331,1.36890,6.00100,-3.84359,4.22541,A,145456.70
6.09494,57.68795881,11.98117042,57.68800,11.98118,14:54:56.885821,0.00351,1.62733,0.02410,0.00773,-0.02887,-0.00287,-0.01357,-0.02843,0.07338,1.23818,6.09087,1.56831,-1.31903,-1.31514,-3.32331,1.36890,6.00100,-3.84359,4.22541,A,145456.70
6.11804,57.68795881,11.98117042,57.68800,11.98118,14:54:56.908932,0.01622,1.62733,0.02394,0.00773,-0.02505,-0.00333,-0.01677,0.06539,0.06277,1.18834,6.10105,1.56831,-1.31903,-1.31514,-3.32331,1.36890,6.11628,-3.87331,4.33660,A,145456.80
6.13488,57.68796002,11.98117021,57.68800,11.98118,14:54:56.925773,0.00739,1.62733,0.02352,0.00773,-0.02001,-0.03799,-0.00914,-0.10352,0.05447,0.99698,6.12861,1.57421,-1.28533,-1.28303,-3.33582,1.50308,6.11628,-3.87331,4.33660,A,145456.80
6.14135,57.68796002,11.98117021,57.68800,11.98118,14:54:56.932239,0.00347,1.62733,0.02375,0.00773,-0.01680,-0.02410,-0.00165,-0.02147,0.06259,0.87700,6.13712,1.57421,-1.28533,-1.28303,-3.33582,1.50308,6.11628,-3.87331,4.33660,A,145456.80
6.15180,57.68796002,11.98117021,57.68800,11.98118,14:54:56.942686,0.00352,1.62733,0.02401,0.00773,-0.01375,-0.02654,0.00583,-0.05520,0.06240,0.84339,6.14774,1.57421,-1.28533,-1.28303,-3.33582,1.50308,6.11628,-3.87331,4.33660,A,145456.80
6.16208,57.68796002,11.98117021,57.68800,11.98118,14:54:56.952975,0.00355,1.62733,0.02501,0.00773,-0.01054,-0.01982,0.01011,-0.03434,0.10498,0.86431,6.15800,1.57421,-1.28533,-1.28303,-3.33582,1.50308,6.11628,-3.87331,4.33660,A,145456.80
6.17252,57.68796002,11.98117021,57.68800,11.98118,14:54:56.963633,0.00336,1.62733,0.02619,0.00773,0.00015,0.00599,0.00766,-0.11279,0.11901,0.93440,6.16845,1.57421,-1.28533,-1.28303,-3.33582,1.50308,6.11628,-3.87331,4.33660,A,145456.80
6.18306,57.68796002,11.98117021,57.68800,11.98118,14:54:56.973946,0.00351,1.62733,0.02688,0.00773,0.00626,0.02660,0.01484,-0.15573,0.09650,1.06488,6.17899,1.57421,-1.28533,-1.28303,-3.33582,1.50308,6.11628,-3.87331,4.33660,A,145456.80
6.19346,57.68796002,11.98117021,57.68800,11.98118,14:54:56.984354,0.00352,1.62733,0.02714,0.00776,0.01298,0.04325,0.01713,-0.04435,0.06265,1.06799,6.18918,1.57421,-1.28533,-1.28303,-3.33582,1.50308,6.11628,-3.87331,4.33660,A,145456.80
6.20381,57.68796002,11.98117021,57.68800,11.98118,14:54:56.994701,0.00349,1.62733,0.02692,0.00807,0.01374,0.03913,0.01942,0.00762,0.02806,1.09788,6.19976,1.57421,-1.28533,-1.28303,-3.33582,1.50308,6.11628,-3.87331,4.33660,A,145456.80
