Time,lat_estimated,lon_estimated,latitude,longitude,RealTime,CalculationTime,MeasuredVelocity,FilteredVelocity,Roll,SteeringAngle,RollRate,gy,gz,ax,ay,az,imu_read_timing,v_estimated,yaw_estimated,heading_estimated,x_estimated,y_estimated,GPS_timestamp,x_GPS,y_GPS,theta_GPS,theta_GPS_noUnwrap,status,NMEA timestamp
0.05004,57.68812067,11.97965217,57.68812067,11.97965217,15:54:02.708600,0.05000,0.00000,1.50000,-0.00219,0.00000,0.00018,0.00102,0.00078,-0.05466,-0.11431,0.99204,0.00001,0.00000,0.00000,0.00000,0.00000,0.00000,0.01555,0.00000,0.00000,0.00000,0.00000,A,155402.60
0.06928,57.68812067,11.97965217,57.68812067,11.97965217,15:54:02.727041,0.00780,0.00000,0.00000,-0.00429,0.00000,0.00110,-0.00066,0.00169,-0.05087,-0.11468,0.98899,0.06149,0.00000,0.00000,0.00000,0.00000,0.00000,0.01555,0.00000,0.00000,0.00000,0.00000,A,155402.60
0.07724,57.68812067,11.97965217,57.68812067,11.97965217,15:54:02.734993,0.00535,0.00000,0.00000,-0.00639,0.00000,0.00171,-0.00050,0.00001,-0.05398,-0.11413,0.99210,0.07149,0.00000,0.00000,0.00000,0.00000,0.00000,0.01555,0.00000,0.00000,0.00000,0.00000,A,155402.60
0.08742,57.68812067,11.97965217,57.68812067,11.97965217,15:54:02.745180,0.00514,0.00000,0.00000,-0.00844,0.00000,0.00278,0.00240,-0.00106,-0.05185,-0.11364,0.99290,0.08196,0.00000,0.00000,0.00000,0.00000,0.00000,0.01555,0.00000,0.00000,0.00000,0.00000,A,155402.60
0.09786,57.68812067,11.97965217,57.68812067,11.97965217,15:54:02.755618,0.00517,0.00000,0.00000,-0.01052,0.00000,-0.00013,-0.00402,-0.00075,-0.05270,-0.11505,0.99088,0.09212,0.00000,0.00000,0.00000,0.00000,0.00000,0.01555,0.00000,0.00000,0.00000,0.00000,A,155402.60
0.10949,57.68812067,11.97965217,57.68812067,11.97965217,15:54:02.767252,0.00640,0.00000,0.00000,-0.01258,0.00000,0.00003,0.00011,0.00093,-0.05100,-0.11633,0.99003,0.10350,0.00000,0.00000,0.00000,0.00000,0.00000,0.01555,0.00000,0.00000,0.00000,0.00000,A,155402.60
0.13611,57.68812067,11.97965217,57.68811983,11.97965050,15:54:02.794092,0.02262,0.00000,1.50000,-0.01460,0.00000,-0.00165,-0.00218,0.00032,-0.05246,-0.11474,0.99223,0.11289,0.00000,0.00000,0.00000,0.00000,0.00000,0.13063,-0.09906,-0.09266,-2.38956,-2.38956,A,155402.70
0.15374,57.68812062,11.97965208,57.68811983,11.97965050,15:54:02.811518,0.00691,0.00000,0.00000,-0.01672,0.00000,-0.00394,-0.00066,0.00139,-0.05429,-0.11523,0.99210,0.14788,0.00000,-0.35843,-0.35843,-0.00495,-0.00463,0.13063,-0.09906,-0.09266,-2.38956,-2.38956,A,155402.70
0.16329,57.68812059,11.97965200,57.68811983,11.97965050,15:54:02.821048,0.00578,0.00000,0.00000,-0.01867,0.00000,-0.00104,0.00469,-0.00060,-0.05142,-0.11383,0.98728,0.15779,0.00000,-0.66310,-0.66310,-0.00966,-0.00903,0.13063,-0.09906,-0.09266,-2.38956,-2.38956,A,155402.70
0.17358,57.68812055,11.97965193,57.68811983,11.97965050,15:54:02.831341,0.00541,0.00000,0.00000,-0.02059,0.00000,-0.00028,-0.00005,0.00017,-0.05045,-0.11511,0.99064,0.16781,0.00000,-0.92207,-0.92207,-0.01413,-0.01322,0.13063,-0.09906,-0.09266,-2.38956,-2.38956,A,155402.70
0.18447,57.68812051,11.97965186,57.68811983,11.97965050,15:54:02.842243,0.00590,0.00000,0.00000,-0.02254,0.00000,-0.00486,-0.00096,0.00169,-0.05283,-0.11535,0.99094,0.17854,0.00000,-1.14219,-1.14219,-0.01838,-0.01719,0.13063,-0.09906,-0.09266,-2.38956,-2.38956,A,155402.70
0.19478,57.68812048,11.97965179,57.68811983,11.97965050,15:54:02.852541,0.00598,0.00000,0.00000,-0.02441,0.00000,0.00018,-0.00142,0.00200,-0.05167,-0.11547,0.99113,0.18840,0.00000,-1.32930,-1.32930,-0.02241,-0.02096,0.13063,-0.09906,-0.09266,-2.38956,-2.38956,A,155402.70
0.20620,57.68812045,11.97965173,57.68811983,11.97965050,15:54:02.863965,0.00712,0.00000,0.00000,-0.02623,0.00000,0.00033,0.00011,0.00017,-0.05081,-0.11450,0.99247,0.19996,0.00000,-1.48834,-1.48834,-0.02624,-0.02455,0.13063,-0.09906,-0.09266,-2.38956,-2.38956,A,155402.70
0.21456,57.68812042,11.97965166,57.68811983,11.97965050,15:54:02.872321,0.00508,0.00000,0.00000,-0.02806,0.00000,-0.00074,-0.00081,-0.00090,-0.05112,-0.11633,0.99113,0.20888,0.00000,-1.62352,-1.62352,-0.02988,-0.02795,0.13063,-0.09906,-0.09266,-2.38956,-2.38956,A,155402.70
0.22753,57.68812039,11.97965161,57.68811983,11.97965050,15:54:02.885291,0.00780,0.00000,0.00000,-0.02984,0.00000,-0.00089,-0.00249,-0.00151,-0.05142,-0.11383,0.99070,0.22152,0.00000,-1.73843,-1.73843,-0.03334,-0.03119,0.13063,-0.09906,-0.09266,-2.38956,-2.38956,A,155402.70
0.25152,57.68812036,11.97965155,57.68811867,11.97965050,15:54:02.909312,0.02139,0.00000,1.50000,-0.03161,0.00000,-0.00104,0.00011,-0.00350,-0.05215,-0.11633,0.99375,0.22973,0.00000,-1.83610,-1.83610,-0.03663,-0.03426,0.24588,-0.09906,-0.22239,-1.57080,-1.57080,A,155402.80
0.27031,57.68812027,11.97965150,57.68811867,11.97965050,15:54:02.928070,0.00740,0.00000,0.00000,-0.03342,0.00000,-0.00318,-0.00050,-0.00396,-0.05161,-0.11315,0.99021,0.26395,0.00000,-1.79630,-1.79630,-0.03975,-0.04367,0.24588,-0.09906,-0.22239,-1.57080,-1.57080,A,155402.80
0.27841,57.68812019,11.97965145,57.68811867,11.97965050,15:54:02.936176,0.00511,0.00000,0.00000,-0.03509,0.00000,0.00140,0.00118,-0.00335,-0.05185,-0.11407,0.99149,0.27270,0.00000,-1.76247,-1.76247,-0.04272,-0.05260,0.24588,-0.09906,-0.22239,-1.57080,-1.57080,A,155402.80
0.28924,57.68812012,11.97965140,57.68811867,11.97965050,15:54:02.946999,0.00541,0.00000,0.00000,-0.03675,0.00000,0.00079,0.00270,-0.00197,-0.05374,-0.11492,0.99113,0.28345,0.00000,-1.73372,-1.73372,-0.04553,-0.06109,0.24588,-0.09906,-0.22239,-1.57080,-1.57080,A,155402.80
0.29933,57.68812004,11.97965136,57.68811867,11.97965050,15:54:02.957089,0.00504,0.00000,0.00000,-0.03843,0.00000,-0.00058,-0.00096,0.00078,-0.05283,-0.11621,0.99155,0.29388,0.00000,-1.70928,-1.70928,-0.04821,-0.06916,0.24588,-0.09906,-0.22239,-1.57080,-1.57080,A,155402.80
0.30992,57.68811998,11.97965131,57.68811867,11.97965050,15:54:02.967676,0.00522,0.00000,0.00000,-0.04006,0.00000,-0.00257,0.00011,0.00001,-0.05337,-0.11413,0.99125,0.30414,0.00000,-1.68851,-1.68851,-0.05075,-0.07682,0.24588,-0.09906,-0.22239,-1.57080,-1.57080,A,155402.80
0.32055,57.68811991,11.97965127,57.68811867,11.97965050,15:54:02.978322,0.00544,0.00000,0.00000,-0.04168,0.00000,-0.00150,0.00163,0.00139,-0.05258,-0.11523,0.99326,0.31487,0.00000,-1.67085,-1.67085,-0.05317,-0.08410,0.24588,-0.09906,-0.22239,-1.57080,-1.57080,A,155402.80
0.33059,57.68811985,11.97965123,57.68811867,11.97965050,15:54:02.988345,0.00509,0.00000,0.00000,-0.04327,0.00000,-0.00455,0.00133,-0.00044,-0.05142,-0.11358,0.99308,0.32491,0.00000,-1.65585,-1.65585,-0.05546,-0.09101,0.24588,-0.09906,-0.22239,-1.57080,-1.57080,A,155402.80
0.34145,57.68811979,11.97965120,57.68811867,11.97965050,15:54:02.999204,0.00566,0.00000,0.00000,-0.04484,0.00000,-0.00226,0.00072,0.00001,-0.05246,-0.11468,0.99155,0.33569,0.00000,-1.64309,-1.64309,-0.05764,-0.09758,0.24588,-0.09906,-0.22239,-1.57080,-1.57080,A,155402.80
0.36751,57.68811973,11.97965116,57.68811800,11.97965050,15:54:03.025269,0.02137,0.00000,1.50000,-0.04639,0.00000,-0.00242,-0.00203,-0.00182,-0.05344,-0.11450,0.99113,0.34577,0.00000,-1.63224,-1.63224,-0.05971,-0.10382,0.36248,-0.09906,-0.29652,-1.57080,-1.57080,A,155402.90
0.38301,57.68811965,11.97965113,57.68811800,11.97965050,15:54:03.040764,0.00618,0.00000,0.00000,-0.04791,0.00000,-0.00135,-0.00111,-0.00197,-0.05423,-0.11389,0.99338,0.37750,0.00000,-1.62303,-1.62303,-0.06168,-0.11346,0.36248,-0.09906,-0.29652,-1.57080,-1.57080,A,155402.90
0.39266,57.68811956,11.97965110,57.68811800,11.97965050,15:54:03.050427,0.00536,0.00000,0.00000,-0.04940,0.00000,-0.00135,-0.00081,-0.00029,-0.05039,-0.11468,0.99180,0.38695,0.00000,-1.61519,-1.61519,-0.06355,-0.12261,0.36248,-0.09906,-0.29652,-1.57080,-1.57080,A,155402.90
0.40312,57.68811949,11.97965107,57.68811800,11.97965050,15:54:03.060877,0.00542,0.00000,0.00000,-0.05086,0.00000,0.00079,0.00026,0.00017,-0.05313,-0.11572,0.99198,0.39764,0.00000,-1.60853,-1.60853,-0.06532,-0.13131,0.36248,-0.09906,-0.29652,-1.57080,-1.57080,A,155402.90
0.41373,57.68811941,11.97965104,57.68811800,11.97965050,15:54:03.071494,0.00562,0.00000,0.00000,-0.05222,0.00000,0.00507,-0.00005,-0.00304,-0.05222,-0.11315,0.99088,0.40797,0.00000,-1.60287,-1.60287,-0.06701,-0.13957,0.36248,-0.09906,-0.29652,-1.57080,-1.57080,A,155402.90
0.42411,57.68811934,11.97965101,57.68811800,11.97965050,15:54:03.082128,0.00560,0.00000,0.00000,-0.05362,0.00000,0.00262,-0.00234,-0.00044,-0.05331,-0.11596,0.99131,0.41838,0.00000,-1.59806,-1.59806,-0.06861,-0.14741,0.36248,-0.09906,-0.29652,-1.57080,-1.57080,A,155402.90
0.43444,57.68811927,11.97965099,57.68811800,11.97965050,15:54:03.092203,0.00566,0.00000,0.00000,-0.05501,0.00000,-0.00257,0.00011,0.00353,-0.04874,-0.11285,0.99131,0.42871,0.00000,-1.59397,-1.59397,-0.07014,-0.15487,0.36248,-0.09906,-0.29652,-1.57080,-1.57080,A,155402.90
0.44730,57.68811921,11.97965096,57.68811800,11.97965050,15:54:03.105060,0.00811,0.00000,0.00000,-0.05633,0.00000,0.00232,-0.00127,0.00032,-0.05313,-0.11291,0.99143,0.44083,0.00000,-1.59050,-1.59050,-0.07158,-0.16195,0.36248,-0.09906,-0.29652,-1.57080,-1.57080,A,155402.90
0.45549,57.68811915,11.97965094,57.68811800,11.97965050,15:54:03.113249,0.00542,0.00000,0.00000,-0.05767,0.00000,0.00140,0.00255,-0.00136,-0.05283,-0.11505,0.99229,0.45002,0.00000,-1.58754,-1.58754,-0.07296,-0.16868,0.36248,-0.09906,-0.29652,-1.57080,-1.57080,A,155402.90
0.48440,57.68811909,11.97965092,57.68811817,11.97964783,15:54:03.142174,0.02362,0.00000,1.50000,-0.05897,0.00000,0.00155,-0.00234,-0.00243,-0.05411,-0.11438,0.99485,0.46024,0.00000,-1.58503,-1.58503,-0.07426,-0.17507,0.47878,-0.25756,-0.27799,3.02520,3.02520,A,155403.00
0.50346,57.68811905,11.97965076,57.68811817,11.97964783,15:54:03.161219,0.00663,0.00000,0.00000,-0.06023,0.00000,0.00125,-0.00005,0.00001,-0.05051,-0.11413,0.99027,0.49799,0.00000,-0.89350,-0.89350,-0.08343,-0.18022,0.47878,-0.25756,-0.27799,3.02520,3.02520,A,155403.00
0.51253,57.68811900,11.97965062,57.68811817,11.97964783,15:54:03.170292,0.00529,0.00000,0.00000,-0.06149,0.00000,0.00339,-0.00066,0.00032,-0.05234,-0.11431,0.99088,0.50685,0.00000,-0.30569,-0.30569,-0.09213,-0.18511,0.47878,-0.25756,-0.27799,3.02520,3.02520,A,155403.00
0.52271,57.68811896,11.97965048,57.68811817,11.97964783,15:54:03.180468,0.00507,0.00000,0.00000,-0.06278,0.00000,-0.00196,0.00163,0.00062,-0.05246,-0.11486,0.99131,0.51705,0.00000,0.19394,0.19394,-0.10040,-0.18975,0.47878,-0.25756,-0.27799,3.02520,3.02520,A,155403.00
0.53352,57.68811892,11.97965035,57.68811817,11.97964783,15:54:03.191279,0.00549,0.00000,0.00000,-0.06404,0.00000,-0.00104,-0.00234,0.00292,-0.05307,-0.11444,0.98942,0.52763,0.00000,0.61863,0.61863,-0.10826,-0.19416,0.47878,-0.25756,-0.27799,3.02520,3.02520,A,155403.00
0.54341,57.68811888,11.97965022,57.68811817,11.97964783,15:54:03.201157,0.00496,0.00000,0.00000,-0.06531,0.00000,-0.00318,0.00057,-0.00136,-0.05337,-0.11456,0.99119,0.53796,0.00000,0.97961,0.97961,-0.11573,-0.19835,0.47878,-0.25756,-0.27799,3.02520,3.02520,A,155403.00
0.55411,57.68811885,11.97965010,57.68811817,11.97964783,15:54:03.211857,0.00522,0.00000,0.00000,-0.06651,0.00000,0.00110,0.00209,0.00108,-0.05289,-0.11468,0.99125,0.54835,0.00000,1.28645,1.28645,-0.12282,-0.20234,0.47878,-0.25756,-0.27799,3.02520,3.02520,A,155403.00
0.56536,57.68811881,11.97964999,57.68811817,11.97964783,15:54:03.223123,0.00608,0.00000,0.00000,-0.06769,0.00000,-0.00043,0.00041,-0.00274,-0.05167,-0.11273,0.99003,0.55890,0.00000,1.54726,1.54726,-0.12956,-0.20612,0.47878,-0.25756,-0.27799,3.02520,3.02520,A,155403.00
0.57488,57.68811878,11.97964988,57.68811817,11.97964783,15:54:03.232636,0.00537,0.00000,0.00000,-0.06886,0.00000,0.00079,0.00057,-0.00029,-0.05167,-0.11462,0.99125,0.56941,0.00000,1.76895,1.76895,-0.13596,-0.20971,0.47878,-0.25756,-0.27799,3.02520,3.02520,A,155403.00
0.61130,57.68811875,11.97964978,57.68811717,11.97964467,15:54:03.269082,0.03139,0.00000,1.50000,-0.07004,0.00000,0.00033,0.00163,-0.00106,-0.05100,-0.11651,0.99216,0.57951,0.00000,1.95739,1.95739,-0.14204,-0.21313,0.60572,-0.44578,-0.38918,-2.60798,-2.60798,A,155403.20
0.62927,57.68811867,11.97964952,57.68811717,11.97964467,15:54:03.287029,0.00653,0.00000,0.00000,-0.07123,0.00000,-0.00089,0.00041,-0.03694,-0.05337,-0.11492,0.99216,0.62347,0.00000,1.27258,1.27258,-0.15722,-0.22193,0.60572,-0.44578,-0.38918,-2.60798,-2.60798,A,155403.20
0.63856,57.68811860,11.97964928,57.68811717,11.97964467,15:54:03.296319,0.00559,0.00000,0.00000,-0.07235,0.00000,0.00171,0.00194,-0.00197,-0.05118,-0.11523,0.99040,0.63263,0.00000,0.69050,0.69050,-0.17165,-0.23029,0.60572,-0.44578,-0.38918,-2.60798,-2.60798,A,155403.20
0.64903,57.68811852,11.97964905,57.68811717,11.97964467,15:54:03.306789,0.00566,0.00000,0.00000,-0.07342,0.00000,0.00110,0.00118,-0.00044,-0.05130,-0.11309,0.99277,0.64300,0.00000,0.19573,0.19573,-0.18536,-0.23824,0.60572,-0.44578,-0.38918,-2.60798,-2.60798,A,155403.20
0.66076,57.68811846,11.97964883,57.68811717,11.97964467,15:54:03.318523,0.00698,0.00000,0.00000,-0.07454,0.00000,-0.00150,-0.00005,0.00185,-0.05337,-0.11517,0.99058,0.65451,0.00000,-0.22483,-0.22483,-0.19838,-0.24578,0.60572,-0.44578,-0.38918,-2.60798,-2.60798,A,155403.20
0.66961,57.68811839,11.97964862,57.68811717,11.97964467,15:54:03.327707,0.00542,0.00000,0.00000,-0.07560,0.00000,0.00125,-0.00005,-0.00060,-0.05319,-0.11407,0.99009,0.66385,0.00000,-0.58230,-0.58230,-0.21075,-0.25295,0.60572,-0.44578,-0.38918,-2.60798,-2.60798,A,155403.20
0.68062,57.68811833,11.97964842,57.68811717,11.97964467,15:54:03.338381,0.00603,0.00000,0.00000,-0.07670,0.00000,-0.00119,0.00057,-0.00029,-0.05374,-0.11657,0.99174,0.67421,0.00000,-0.88615,-0.88615,-0.22250,-0.25976,0.60572,-0.44578,-0.38918,-2.60798,-2.60798,A,155403.20
0.69213,57.68811827,11.97964824,57.68811717,11.97964467,15:54:03.350139,0.00732,0.00000,0.00000,-0.07775,0.00000,0.00064,0.00301,-0.00197,-0.05100,-0.11566,0.99070,0.68511,0.00000,-1.14443,-1.14443,-0.23366,-0.26624,0.60572,-0.44578,-0.38918,-2.60798,-2.60798,A,155403.20
0.70059,57.68811822,11.97964806,57.68811717,11.97964467,15:54:03.358357,0.00537,0.00000,0.00000,-0.07878,0.00000,-0.00013,-0.00020,-0.00380,-0.05185,-0.11462,0.99088,0.69491,0.00000,-1.36396,-1.36396,-0.24427,-0.27238,0.60572,-0.44578,-0.38918,-2.60798,-2.60798,A,155403.20
0.73013,57.68811816,11.97964789,57.68811650,11.97964517,15:54:03.387904,0.02406,0.00000,1.50000,-0.07976,0.00000,0.00155,-0.00188,-0.00182,-0.05234,-0.11395,0.99180,0.70713,0.00000,-1.55056,-1.55056,-0.25434,-0.27822,0.72466,-0.41606,-0.46331,-1.18952,-1.18952,A,155403.30
0.74912,57.68811808,11.97964775,57.68811650,11.97964517,15:54:03.406883,0.00895,0.00000,0.00000,-0.08053,0.00000,0.00614,0.00072,-0.00121,-0.05423,-0.11395,0.99247,0.74303,0.00000,-1.49641,-1.49641,-0.26243,-0.28748,0.72466,-0.41606,-0.46331,-1.18952,-1.18952,A,155403.30
0.75538,57.68811800,11.97964762,57.68811650,11.97964517,15:54:03.413136,0.00500,0.00000,0.00000,-0.08153,0.00000,-0.00165,-0.00142,-0.00060,-0.05179,-0.11425,0.99076,0.74994,0.00000,-1.45037,-1.45037,-0.27011,-0.29627,0.72466,-0.41606,-0.46331,-1.18952,-1.18952,A,155403.30
0.76587,57.68811793,11.97964750,57.68811650,11.97964517,15:54:03.423625,0.00516,0.00000,0.00000,-0.08252,0.00000,-0.00028,0.00041,-0.00106,-0.05118,-0.11584,0.99192,0.76012,0.00000,-1.41124,-1.41124,-0.27741,-0.30462,0.72466,-0.41606,-0.46331,-1.18952,-1.18952,A,155403.30
0.77762,57.68811786,11.97964738,57.68811650,11.97964517,15:54:03.435372,0.00651,0.00000,0.00000,-0.08347,0.00000,0.00064,-0.00020,0.00017,-0.05392,-0.11450,0.98881,0.77155,0.00000,-1.37799,-1.37799,-0.28434,-0.31256,0.72466,-0.41606,-0.46331,-1.18952,-1.18952,A,155403.30
0.78681,57.68811779,11.97964727,57.68811650,11.97964517,15:54:03.444564,0.00530,0.00000,0.00000,-0.08438,0.00000,0.00064,0.00469,0.00185,-0.05197,-0.11273,0.99003,0.78092,0.00000,-1.34972,-1.34972,-0.29093,-0.32009,0.72466,-0.41606,-0.46331,-1.18952,-1.18952,A,155403.30
0.79748,57.68811772,11.97964717,57.68811650,11.97964517,15:54:03.455234,0.00563,0.00000,0.00000,-0.08526,0.00000,0.00461,0.00118,-0.00274,-0.05222,-0.11499,0.99076,0.79172,0.00000,-1.32569,-1.32569,-0.29718,-0.32725,0.72466,-0.41606,-0.46331,-1.18952,-1.18952,A,155403.30
0.80728,57.68811766,11.97964707,57.68811650,11.97964517,15:54:03.465034,0.00503,0.00000,0.00000,-0.08616,0.00000,0.00110,0.00209,-0.00151,-0.05020,-0.11444,0.99198,0.80184,0.00000,-1.30526,-1.30526,-0.30313,-0.33406,0.72466,-0.41606,-0.46331,-1.18952,-1.18952,A,155403.30
0.81784,57.68811760,11.97964697,57.68811650,11.97964517,15:54:03.475590,0.00514,0.00000,0.00000,-0.08702,0.00000,0.00262,0.00057,-0.00029,-0.05411,-0.11322,0.99216,0.81211,0.00000,-1.28790,-1.28790,-0.30877,-0.34052,0.72466,-0.41606,-0.46331,-1.18952,-1.18952,A,155403.30
0.84525,57.68811755,11.97964688,57.68811600,11.97964733,15:54:03.503030,0.02216,0.00000,1.50000,-0.08789,0.00000,-0.00043,0.00179,-0.00151,-0.05362,-0.11346,0.99192,0.82287,0.00000,-1.27314,-1.27314,-0.31414,-0.34666,0.83889,-0.28728,-0.51891,-0.40755,-0.40755,A,155403.40
0.86604,57.68811747,11.97964690,57.68811600,11.97964733,15:54:03.523792,0.00734,0.00000,0.00000,-0.08872,0.00000,0.00110,0.00026,-0.00029,-0.05264,-0.11389,0.99143,0.86003,0.00000,-1.14330,-1.14330,-0.31279,-0.35527,0.83889,-0.28728,-0.51891,-0.40755,-0.40755,A,155403.40
0.87536,57.68811740,11.97964693,57.68811600,11.97964733,15:54:03.533120,0.00643,0.00000,0.00000,-0.08956,0.00000,0.00033,0.00118,-0.00319,-0.05240,-0.11364,0.98905,0.86898,0.00000,-1.03294,-1.03294,-0.31152,-0.36345,0.83889,-0.28728,-0.51891,-0.40755,-0.40755,A,155403.40
0.88611,57.68811733,11.97964695,57.68811600,11.97964733,15:54:03.543868,0.00643,0.00000,0.00000,-0.09044,0.00000,0.00033,-0.00035,0.00108,-0.05289,-0.11614,0.98905,0.87958,0.00000,-0.93913,-0.93913,-0.31031,-0.37123,0.83889,-0.28728,-0.51891,-0.40755,-0.40755,A,155403.40
0.89532,57.68811726,11.97964697,57.68811600,11.97964733,15:54:03.553078,0.00524,0.00000,0.00000,-0.09128,0.00000,-0.00135,0.00011,0.00124,-0.05319,-0.11364,0.99046,0.88985,0.00000,-0.85940,-0.85940,-0.30916,-0.37861,0.83889,-0.28728,-0.51891,-0.40755,-0.40755,A,155403.40
0.90653,57.68811720,11.97964698,57.68811600,11.97964733,15:54:03.564292,0.00591,0.00000,0.00000,-0.09213,0.00000,-0.00074,-0.00111,-0.00151,-0.05319,-0.11608,0.99058,0.90083,0.00000,-0.79162,-0.79162,-0.30806,-0.38563,0.83889,-0.28728,-0.51891,-0.40755,-0.40755,A,155403.40
0.91610,57.68811714,11.97964700,57.68811600,11.97964733,15:54:03.574104,0.00508,0.00000,0.00000,-0.09297,0.00000,-0.00318,-0.00081,-0.00060,-0.05337,-0.11389,0.99058,0.91066,0.00000,-0.73401,-0.73401,-0.30702,-0.39229,0.83889,-0.28728,-0.51891,-0.40755,-0.40755,A,155403.40
0.92695,57.68811708,11.97964702,57.68811600,11.97964733,15:54:03.584716,0.00569,0.00000,0.00000,-0.09376,0.00000,0.00079,0.00270,0.00169,-0.05356,-0.11474,0.99137,0.92149,0.00000,-0.68504,-0.68504,-0.30603,-0.39862,0.83889,-0.28728,-0.51891,-0.40755,-0.40755,A,155403.40
0.93854,57.68811703,11.97964703,57.68811600,11.97964733,15:54:03.596302,0.00597,0.00000,0.00000,-0.09463,0.00000,-0.00471,0.00057,-0.00029,-0.05063,-0.11663,0.99174,0.93283,0.00000,-0.64342,-0.64342,-0.30510,-0.40464,0.83889,-0.28728,-0.51891,-0.40755,-0.40755,A,155403.40
0.96720,57.68811698,11.97964705,57.68811517,11.97964867,15:54:03.624983,0.02422,0.00000,1.50000,-0.09540,0.00000,-0.00135,0.00026,-0.00228,-0.05228,-0.11370,0.99326,0.94259,0.00000,-0.60804,-0.60804,-0.30421,-0.41035,0.96167,-0.20803,-0.61157,-0.86327,-0.86327,A,155403.50
0.98635,57.68811689,11.97964713,57.68811517,11.97964867,15:54:03.644104,0.00757,0.00000,0.00000,-0.09617,0.00000,-0.00043,0.00041,-0.00060,-0.05374,-0.11438,0.99046,0.98044,0.00000,-0.64632,-0.64632,-0.29940,-0.42041,0.96167,-0.20803,-0.61157,-0.86327,-0.86327,A,155403.50
0.99429,57.68811680,11.97964721,57.68811517,11.97964867,15:54:03.652055,0.00529,0.00000,0.00000,-0.09692,0.00000,0.00018,-0.00188,-0.00197,-0.05087,-0.11444,0.99192,0.98857,0.00000,-0.67886,-0.67886,-0.29483,-0.42997,0.96167,-0.20803,-0.61157,-0.86327,-0.86327,A,155403.50
1.00505,57.68811672,11.97964728,57.68811517,11.97964867,15:54:03.663070,0.00564,0.00000,0.00000,-0.09763,0.00000,0.00446,0.00423,-0.00243,-0.05185,-0.11578,0.99009,0.99903,0.00000,-0.70652,-0.70652,-0.29049,-0.43905,0.96167,-0.20803,-0.61157,-0.86327,-0.86327,A,155403.50
1.01493,57.68811664,11.97964735,57.68811517,11.97964867,15:54:03.672683,0.00512,0.00000,0.00000,-0.09840,0.00000,-0.00348,-0.00066,0.00047,-0.05222,-0.11486,0.99290,1.00946,0.00000,-0.73004,-0.73004,-0.28637,-0.44767,0.96167,-0.20803,-0.61157,-0.86327,-0.86327,A,155403.50
1.02556,57.68811657,11.97964741,57.68811517,11.97964867,15:54:03.683316,0.00535,0.00000,0.00000,-0.09912,0.00000,0.00171,-0.00066,-0.00167,-0.05264,-0.11596,0.99131,1.01980,0.00000,-0.75002,-0.75002,-0.28245,-0.45587,0.96167,-0.20803,-0.61157,-0.86327,-0.86327,A,155403.50
1.03571,57.68811650,11.97964748,57.68811517,11.97964867,15:54:03.693467,0.00510,0.00000,0.00000,-0.09983,0.00000,0.00049,-0.00096,0.00062,-0.05063,-0.11492,0.99259,1.03026,0.00000,-0.76701,-0.76701,-0.27873,-0.46365,0.96167,-0.20803,-0.61157,-0.86327,-0.86327,A,155403.50
1.04606,57.68811643,11.97964754,57.68811517,11.97964867,15:54:03.703816,0.00521,0.00000,0.00000,-0.10051,0.00000,-0.00058,-0.00035,0.00169,-0.05350,-0.11352,0.99070,1.04031,0.00000,-0.78145,-0.78145,-0.27519,-0.47105,0.96167,-0.20803,-0.61157,-0.86327,-0.86327,A,155403.50
1.05658,57.68811637,11.97964759,57.68811517,11.97964867,15:54:03.714342,0.00532,0.00000,0.00000,-0.10122,0.00000,-0.00165,0.00179,-0.00121,-0.05215,-0.11486,0.99265,1.05089,0.00000,-0.79372,-0.79372,-0.27183,-0.47808,0.96167,-0.20803,-0.61157,-0.86327,-0.86327,A,155403.50
1.08759,57.68811631,11.97964765,57.68811417,11.97965000,15:54:03.745356,0.02508,0.00000,1.50000,-0.10188,0.00000,-0.00150,0.00209,0.00139,-0.05246,-0.11248,0.99259,1.06411,0.00000,-0.80415,-0.80415,-0.26864,-0.48475,1.08127,-0.12878,-0.72277,-0.95160,-0.95160,A,155403.60
1.10685,57.68811620,11.97964776,57.68811417,11.97965000,15:54:03.764607,0.00670,0.00000,0.00000,-0.10268,0.00000,-0.00379,-0.00111,0.00108,-0.05124,-0.11462,0.99223,1.10117,0.00000,-0.82627,-0.82627,-0.26165,-0.49665,1.08127,-0.12878,-0.72277,-0.95160,-0.95160,A,155403.60
1.11561,57.68811610,11.97964788,57.68811417,11.97965000,15:54:03.773359,0.00505,0.00000,0.00000,-0.10332,0.00000,0.00033,-0.00035,-0.00167,-0.05386,-0.11370,0.99247,1.11016,0.00000,-0.84507,-0.84507,-0.25501,-0.50796,1.08127,-0.12878,-0.72277,-0.95160,-0.95160,A,155403.60
1.12597,57.68811600,11.97964798,57.68811417,11.97965000,15:54:03.783722,0.00519,0.00000,0.00000,-0.10400,0.00000,-0.00379,-0.00096,0.00276,-0.05173,-0.11431,0.98991,1.12022,0.00000,-0.86105,-0.86105,-0.24870,-0.51870,1.08127,-0.12878,-0.72277,-0.95160,-0.95160,A,155403.60
1.13667,57.68811591,11.97964808,57.68811417,11.97965000,15:54:03.794441,0.00563,0.00000,0.00000,-0.10454,0.00000,0.00507,-0.00218,-0.00350,-0.05264,-0.11230,0.99430,1.13096,0.00000,-0.87463,-0.87463,-0.24270,-0.52890,1.08127,-0.12878,-0.72277,-0.95160,-0.95160,A,155403.60
1.14655,57.68811582,11.97964818,57.68811417,11.97965000,15:54:03.804304,0.00510,0.00000,0.00000,-0.10519,0.00000,-0.00211,-0.00157,0.00414,-0.05179,-0.11541,0.99131,1.14085,0.00000,-0.88617,-0.88617,-0.23700,-0.53860,1.08127,-0.12878,-0.72277,-0.95160,-0.95160,A,155403.60
1.15718,57.68811574,11.97964827,57.68811417,11.97965000,15:54:03.814936,0.00547,0.00000,0.00000,-0.10581,0.00000,-0.00043,0.00118,-0.00136,-0.05313,-0.11407,0.99094,1.15141,0.00000,-0.89599,-0.89599,-0.23159,-0.54780,1.08127,-0.12878,-0.72277,-0.95160,-0.95160,A,155403.60
1.16924,57.68811566,11.97964836,57.68811417,11.97965000,15:54:03.826990,0.00713,0.00000,0.00000,-0.10641,0.00000,0.00064,0.00041,0.00230,-0.05215,-0.11468,0.98899,1.16343,0.00000,-0.90433,-0.90433,-0.22645,-0.55655,1.08127,-0.12878,-0.72277,-0.95160,-0.95160,A,155403.60
1.17795,57.68811559,11.97964844,57.68811417,11.97965000,15:54:03.835703,0.00531,0.00000,0.00000,-0.10701,0.00000,0.00049,-0.00020,-0.00075,-0.04910,-0.11505,0.99076,1.17208,0.00000,-0.91142,-0.91142,-0.22157,-0.56486,1.08127,-0.12878,-0.72277,-0.95160,-0.95160,A,155403.60
1.21672,57.68811552,11.97964852,57.68811367,11.97965300,15:54:03.874504,0.03321,0.00000,1.50000,-0.10758,0.00000,0.00110,-0.00173,-0.00258,-0.05148,-0.11419,0.99033,1.18343,0.00000,-0.91744,-0.91744,-0.21693,-0.57276,1.21116,0.04953,-0.77836,-0.30225,-0.30225,A,155403.80
1.23452,57.68811542,11.97964874,57.68811367,11.97965300,15:54:03.892284,0.00716,0.00000,0.00000,-0.10817,0.00000,-0.00028,0.00133,0.00001,-0.05270,-0.11389,0.99186,1.22880,0.00000,-0.82517,-0.82517,-0.20361,-0.58304,1.21116,0.04953,-0.77836,-0.30225,-0.30225,A,155403.80
1.24446,57.68811534,11.97964895,57.68811367,11.97965300,15:54:03.902241,0.00669,0.00000,0.00000,-0.10880,0.00000,-0.00486,-0.00386,-0.00060,-0.05148,-0.11590,0.99137,1.23716,0.00000,-0.74673,-0.74673,-0.19095,-0.59280,1.21116,0.04953,-0.77836,-0.30225,-0.30225,A,155403.80
1.25376,57.68811525,11.97964916,57.68811367,11.97965300,15:54:03.911514,0.00558,0.00000,0.00000,-0.10940,0.00000,-0.00440,-0.00142,-0.00106,-0.05447,-0.11425,0.99271,1.24802,0.00000,-0.68006,-0.68006,-0.17893,-0.60208,1.21116,0.04953,-0.77836,-0.30225,-0.30225,A,155403.80
1.26364,57.68811517,11.97964935,57.68811367,11.97965300,15:54:03.921390,0.00506,0.00000,0.00000,-0.10995,0.00000,-0.00104,-0.00157,-0.00060,-0.05136,-0.11383,0.99186,1.25819,0.00000,-0.62338,-0.62338,-0.16750,-0.61090,1.21116,0.04953,-0.77836,-0.30225,-0.30225,A,155403.80
1.27401,57.68811510,11.97964953,57.68811367,11.97965300,15:54:03.931761,0.00520,0.00000,0.00000,-0.11050,0.00000,-0.00028,0.00301,-0.00182,-0.05124,-0.11462,0.98979,1.26825,0.00000,-0.57521,-0.57521,-0.15665,-0.61927,1.21116,0.04953,-0.77836,-0.30225,-0.30225,A,155403.80
1.28516,57.68811503,11.97964970,57.68811367,11.97965300,15:54:03.943791,0.00595,0.00000,0.00000,-0.11106,0.00000,-0.00226,0.00163,-0.00335,-0.05252,-0.11468,0.98991,1.27886,0.00000,-0.53427,-0.53427,-0.14634,-0.62722,1.21116,0.04953,-0.77836,-0.30225,-0.30225,A,155403.80
1.29484,57.68811496,11.97964987,57.68811367,11.97965300,15:54:03.952595,0.00509,0.00000,0.00000,-0.11155,0.00000,-0.00119,0.00301,0.00139,-0.05411,-0.11102,0.99003,1.28916,0.00000,-0.49947,-0.49947,-0.13655,-0.63478,1.21116,0.04953,-0.77836,-0.30225,-0.30225,A,155403.80
1.30616,57.68811489,11.97965003,57.68811367,11.97965300,15:54:03.963917,0.00601,0.00000,0.00000,-0.11204,0.00000,0.00110,0.00087,-0.00121,-0.05289,-0.11297,0.99021,1.29973,0.00000,-0.46988,-0.46988,-0.12724,-0.64196,1.21116,0.04953,-0.77836,-0.30225,-0.30225,A,155403.80
1.32997,57.68811483,11.97965017,57.68811433,11.97965467,15:54:03.987730,0.01942,0.00000,1.50000,-0.11255,0.00000,-0.00058,0.00179,0.00307,-0.05459,-0.11468,0.99406,1.31017,0.00000,-0.44474,-0.44474,-0.11841,-0.64878,1.32616,0.14859,-0.70423,0.64243,0.64243,A,155403.90
1.35018,57.68811481,11.97965040,57.68811433,11.97965467,15:54:04.007941,0.00651,0.00000,0.00000,-0.11289,0.00000,0.00491,0.00209,0.00078,-0.05478,-0.11413,0.99070,1.34411,0.00000,-0.28166,-0.28166,-0.10506,-0.65155,1.32616,0.14859,-0.70423,0.64243,0.64243,A,155403.90
1.35981,57.68811478,11.97965061,57.68811433,11.97965467,15:54:04.017560,0.00573,0.00000,0.00000,-0.11338,0.00000,0.00003,0.00057,-0.00243,-0.05094,-0.11425,0.99223,1.35435,0.00000,-0.14305,-0.14305,-0.09237,-0.65419,1.32616,0.14859,-0.70423,0.64243,0.64243,A,155403.90
1.36977,57.68811476,11.97965082,57.68811433,11.97965467,15:54:04.027523,0.00514,0.00000,0.00000,-0.11388,0.00000,-0.00104,-0.00157,-0.00136,-0.05337,-0.11456,0.99308,1.36403,0.00000,-0.02523,-0.02523,-0.08033,-0.65669,1.32616,0.14859,-0.70423,0.64243,0.64243,A,155403.90
1.38086,57.68811474,11.97965101,57.68811433,11.97965467,15:54:04.038623,0.00557,0.00000,0.00000,-0.11436,0.00000,0.00155,-0.00279,0.00001,-0.05368,-0.11505,0.99113,1.37516,0.00000,0.07492,0.07492,-0.06888,-0.65907,1.32616,0.14859,-0.70423,0.64243,0.64243,A,155403.90
1.39195,57.68811472,11.97965119,57.68811433,11.97965467,15:54:04.049717,0.00637,0.00000,0.00000,-0.11488,0.00000,-0.00425,-0.00218,-0.00274,-0.05313,-0.11517,0.99448,1.38552,0.00000,0.16005,0.16005,-0.05801,-0.66133,1.32616,0.14859,-0.70423,0.64243,0.64243,A,155403.90
1.40226,57.68811470,11.97965136,57.68811433,11.97965467,15:54:04.060017,0.00607,0.00000,0.00000,-0.11534,0.00000,-0.00089,0.00194,-0.00243,-0.05100,-0.11315,0.99082,1.39616,0.00000,0.23240,0.23240,-0.04768,-0.66347,1.32616,0.14859,-0.70423,0.64243,0.64243,A,155403.90
1.41165,57.68811468,11.97965153,57.68811433,11.97965467,15:54:04.069411,0.00506,0.00000,0.00000,-0.11577,0.00000,0.00598,0.00118,-0.00121,-0.05185,-0.11675,0.99296,1.40621,0.00000,0.29391,0.29391,-0.03786,-0.66551,1.32616,0.14859,-0.70423,0.64243,0.64243,A,155403.90
1.42208,57.68811466,11.97965169,57.68811433,11.97965467,15:54:04.079834,0.00526,0.00000,0.00000,-0.11623,0.00000,-0.00058,0.00072,0.00047,-0.05386,-0.11425,0.99094,1.41627,0.00000,0.34619,0.34619,-0.02854,-0.66745,1.32616,0.14859,-0.70423,0.64243,0.64243,A,155403.90
1.45297,57.68811465,11.97965184,57.68811517,11.97965533,15:54:04.110731,0.02588,0.00000,1.50000,-0.11665,0.00000,-0.00104,-0.00371,0.00230,-0.05057,-0.11212,0.99430,1.42740,0.00000,0.39062,0.39062,-0.01968,-0.66928,1.44588,0.18822,-0.61157,1.16671,1.16671,A,155404.00
1.47207,57.68811467,11.97965201,57.68811517,11.97965533,15:54:04.130055,0.00735,0.00000,0.00000,-0.11700,0.00000,0.00186,0.00545,0.00017,-0.05344,-0.11303,0.99168,1.46502,0.00000,0.50703,0.50703,-0.00929,-0.66640,1.44588,0.18822,-0.61157,1.16671,1.16671,A,155404.00
1.48015,57.68811470,11.97965218,57.68811517,11.97965533,15:54:04.138160,0.00503,0.00000,0.00000,-0.11743,0.00000,0.00171,0.00316,-0.00197,-0.05301,-0.11492,0.99277,1.47473,0.00000,0.60599,0.60599,0.00059,-0.66366,1.44588,0.18822,-0.61157,1.16671,1.16671,A,155404.00
1.49166,57.68811472,11.97965233,57.68811517,11.97965533,15:54:04.149675,0.00613,0.00000,0.00000,-0.11789,0.00000,-0.00547,-0.00295,-0.00319,-0.05319,-0.11315,0.99058,1.48491,0.00000,0.69009,0.69009,0.00997,-0.66105,1.44588,0.18822,-0.61157,1.16671,1.16671,A,155404.00
1.50225,57.68811474,11.97965248,57.68811517,11.97965533,15:54:04.160024,0.00633,0.00000,0.00000,-0.11838,0.00000,-0.00425,-0.00035,-0.00274,-0.05118,-0.11535,0.98857,1.49614,0.00000,0.76159,0.76159,0.01888,-0.65858,1.44588,0.18822,-0.61157,1.16671,1.16671,A,155404.00
1.51142,57.68811477,11.97965263,57.68811517,11.97965533,15:54:04.169171,0.00503,0.00000,0.00000,-0.11881,0.00000,-0.00226,-0.00188,0.00062,-0.05380,-0.11413,0.99204,1.50596,0.00000,0.82235,0.82235,0.02735,-0.65623,1.44588,0.18822,-0.61157,1.16671,1.16671,A,155404.00
1.52291,57.68811479,11.97965276,57.68811517,11.97965533,15:54:04.180660,0.00565,0.00000,0.00000,-0.11924,0.00000,-0.00196,-0.00096,0.00093,-0.05203,-0.11407,0.99058,1.51742,0.00000,0.87401,0.87401,0.03539,-0.65400,1.44588,0.18822,-0.61157,1.16671,1.16671,A,155404.00
1.53302,57.68811480,11.97965289,57.68811517,11.97965533,15:54:04.190773,0.00536,0.00000,0.00000,-0.11974,0.00000,-0.00791,-0.00081,-0.00121,-0.05289,-0.11553,0.99113,1.52730,0.00000,0.91791,0.91791,0.04303,-0.65188,1.44588,0.18822,-0.61157,1.16671,1.16671,A,155404.00
1.54314,57.68811482,11.97965301,57.68811517,11.97965533,15:54:04.200896,0.00508,0.00000,0.00000,-0.12013,0.00000,-0.00013,-0.00127,0.00047,-0.05234,-0.11444,0.99101,1.53768,0.00000,0.95523,0.95523,0.05029,-0.64986,1.44588,0.18822,-0.61157,1.16671,1.16671,A,155404.00
1.57052,57.68811484,11.97965313,57.68811567,11.97965750,15:54:04.228285,0.02191,0.00000,1.50000,-0.12048,0.00000,0.00064,0.00057,-0.00151,-0.05557,-0.11212,0.99070,1.54829,0.00000,0.98695,0.98695,0.05719,-0.64795,1.56469,0.31700,-0.55597,0.40755,0.40755,A,155404.10
1.59078,57.68811488,11.97965335,57.68811567,11.97965750,15:54:04.248541,0.00757,0.00000,0.00000,-0.12085,0.00000,0.00049,-0.00188,-0.00121,-0.05222,-0.11450,0.99259,1.58436,0.00000,0.90004,0.90004,0.07018,-0.64335,1.56469,0.31700,-0.55597,0.40755,0.40755,A,155404.10
1.59917,57.68811492,11.97965356,57.68811567,11.97965750,15:54:04.256919,0.00570,0.00000,0.00000,-0.12124,0.00000,0.00003,0.00011,-0.00167,-0.05380,-0.11517,0.99186,1.59368,0.00000,0.82617,0.82617,0.08252,-0.63898,1.56469,0.31700,-0.55597,0.40755,0.40755,A,155404.10
1.60923,57.68811496,11.97965375,57.68811567,11.97965750,15:54:04.266989,0.00536,0.00000,0.00000,-0.12162,0.00000,0.00125,-0.00173,-0.00121,-0.05362,-0.11621,0.99009,1.60349,0.00000,0.76338,0.76338,0.09424,-0.63483,1.56469,0.31700,-0.55597,0.40755,0.40755,A,155404.10
1.61931,57.68811499,11.97965394,57.68811567,11.97965750,15:54:04.277063,0.00504,0.00000,0.00000,-0.12194,0.00000,0.00385,0.00209,-0.00228,-0.05008,-0.11340,0.99131,1.61386,0.00000,0.71000,0.71000,0.10538,-0.63089,1.56469,0.31700,-0.55597,0.40755,0.40755,A,155404.10
1.62985,57.68811503,11.97965412,57.68811567,11.97965750,15:54:04.287611,0.00515,0.00000,0.00000,-0.12230,0.00000,-0.00303,-0.00371,0.00124,-0.05094,-0.11273,0.99314,1.62412,0.00000,0.66464,0.66464,0.11596,-0.62714,1.56469,0.31700,-0.55597,0.40755,0.40755,A,155404.10
1.64057,57.68811506,11.97965429,57.68811567,11.97965750,15:54:04.298332,0.00546,0.00000,0.00000,-0.12267,0.00000,-0.00013,-0.00234,-0.00060,-0.05215,-0.11566,0.99235,1.63487,0.00000,0.62607,0.62607,0.12601,-0.62358,1.56469,0.31700,-0.55597,0.40755,0.40755,A,155404.10
1.65086,57.68811509,11.97965445,57.68811567,11.97965750,15:54:04.308625,0.00547,0.00000,0.00000,-0.12302,0.00000,-0.00043,0.00102,0.00047,-0.05234,-0.11401,0.99137,1.64486,0.00000,0.59330,0.59330,0.13556,-0.62020,1.56469,0.31700,-0.55597,0.40755,0.40755,A,155404.10
1.66306,57.68811512,11.97965460,57.68811567,11.97965750,15:54:04.320817,0.00634,0.00000,0.00000,-0.12336,0.00000,0.00186,-0.00356,-0.00075,-0.05075,-0.11511,0.99058,1.65717,0.00000,0.56543,0.56543,0.14463,-0.61699,1.56469,0.31700,-0.55597,0.40755,0.40755,A,155404.10
1.70232,57.68811515,11.97965475,57.68811633,11.97966217,15:54:04.360085,0.03521,0.00000,1.50000,-0.12365,0.00000,0.00400,0.00041,0.00383,-0.05167,-0.11383,0.99210,1.66674,0.00000,0.54175,0.54175,0.15325,-0.61394,1.69785,0.59437,-0.48184,0.26116,0.26116,A,155404.30
1.72411,57.68811520,11.97965512,57.68811633,11.97966217,15:54:04.382112,0.00774,0.00000,0.00000,-0.12400,0.00000,0.00033,-0.00035,0.00017,-0.05319,-0.11651,0.99259,1.71861,0.00000,0.49966,0.49966,0.17531,-0.60733,1.69785,0.59437,-0.48184,0.26116,0.26116,A,155404.30
1.73278,57.68811526,11.97965547,57.68811633,11.97966217,15:54:04.390544,0.00601,0.00000,0.00000,-0.12433,0.00000,-0.00425,0.00041,0.00017,-0.05094,-0.11291,0.99454,1.72639,0.00000,0.46389,0.46389,0.19626,-0.60106,1.69785,0.59437,-0.48184,0.26116,0.26116,A,155404.30
1.74216,57.68811531,11.97965580,57.68811633,11.97966217,15:54:04.399916,0.00515,0.00000,0.00000,-0.12464,0.00000,0.00171,0.00118,0.00062,-0.05374,-0.11389,0.99119,1.73644,0.00000,0.43348,0.43348,0.21617,-0.59510,1.69785,0.59437,-0.48184,0.26116,0.26116,A,155404.30
1.75303,57.68811537,11.97965612,57.68811633,11.97966217,15:54:04.410789,0.00562,0.00000,0.00000,-0.12496,0.00000,-0.00150,0.00225,-0.00075,-0.05222,-0.11352,0.99107,1.74705,0.00000,0.40763,0.40763,0.23508,-0.58944,1.69785,0.59437,-0.48184,0.26116,0.26116,A,155404.30
1.76287,57.68811541,11.97965642,57.68811633,11.97966217,15:54:04.420619,0.00506,0.00000,0.00000,-0.12527,0.00000,0.00079,-0.00005,-0.00167,-0.05222,-0.11486,0.99241,1.75740,0.00000,0.38566,0.38566,0.25304,-0.58406,1.69785,0.59437,-0.48184,0.26116,0.26116,A,155404.30
1.77358,57.68811546,11.97965671,57.68811633,11.97966217,15:54:04.431338,0.00537,0.00000,0.00000,-0.12559,0.00000,-0.00181,0.00270,-0.00182,-0.05155,-0.11383,0.99210,1.76780,0.00000,0.36698,0.36698,0.27011,-0.57895,1.69785,0.59437,-0.48184,0.26116,0.26116,A,155404.30
1.78369,57.68811550,11.97965698,57.68811633,11.97966217,15:54:04.441447,0.00508,0.00000,0.00000,-0.12591,0.00000,0.00079,0.00118,0.00047,-0.05118,-0.11621,0.99497,1.77824,0.00000,0.35111,0.35111,0.28632,-0.57409,1.69785,0.59437,-0.48184,0.26116,0.26116,A,155404.30
1.79432,57.68811555,11.97965724,57.68811633,11.97966217,15:54:04.452080,0.00548,0.00000,0.00000,-0.12623,0.00000,-0.00226,0.00209,-0.00106,-0.05191,-0.11407,0.99070,1.78830,0.00000,0.33762,0.33762,0.30172,-0.56948,1.69785,0.59437,-0.48184,0.26116,0.26116,A,155404.30
1.82135,57.68811558,11.97965749,57.68811700,11.97966533,15:54:04.479122,0.02190,0.00000,1.50000,-0.12654,0.00000,0.00049,0.00011,-0.00335,-0.05136,-0.11529,0.99155,1.79916,0.00000,0.32615,0.32615,0.31635,-0.56510,1.81551,0.78258,-0.40771,0.37520,0.37520,A,155404.40
1.83857,57.68811566,11.97965788,57.68811700,11.97966533,15:54:04.496325,0.00679,0.00000,0.00000,-0.12693,0.00000,-0.00379,-0.00234,-0.00136,-0.05258,-0.11261,0.99107,1.83285,0.00000,0.33350,0.33350,0.33967,-0.55723,1.81551,0.78258,-0.40771,0.37520,0.37520,A,155404.40
1.84722,57.68811572,11.97965825,57.68811700,11.97966533,15:54:04.504977,0.00504,0.00000,0.00000,-0.12723,0.00000,-0.00074,0.00026,-0.00075,-0.05240,-0.11511,0.99076,1.84177,0.00000,0.33976,0.33976,0.36181,-0.54975,1.81551,0.78258,-0.40771,0.37520,0.37520,A,155404.40
1.85786,57.68811579,11.97965861,57.68811700,11.97966533,15:54:04.515610,0.00516,0.00000,0.00000,-0.12756,0.00000,-0.00348,0.00209,-0.00167,-0.05197,-0.11523,0.99192,1.85212,0.00000,0.34507,0.34507,0.38285,-0.54265,1.81551,0.78258,-0.40771,0.37520,0.37520,A,155404.40
1.86814,57.68811585,11.97965894,57.68811700,11.97966533,15:54:04.526465,0.00503,0.00000,0.00000,-0.12785,0.00000,-0.00104,-0.00111,0.00017,-0.05215,-0.11425,0.99052,1.86271,0.00000,0.34959,0.34959,0.40284,-0.53590,1.81551,0.78258,-0.40771,0.37520,0.37520,A,155404.40
1.87881,57.68811590,11.97965926,57.68811700,11.97966533,15:54:04.536567,0.00506,0.00000,0.00000,-0.12819,0.00000,-0.00516,0.00072,0.00001,-0.05417,-0.11529,0.99229,1.87315,0.00000,0.35343,0.35343,0.42182,-0.52949,1.81551,0.78258,-0.40771,0.37520,0.37520,A,155404.40
1.89192,57.68811596,11.97965957,57.68811700,11.97966533,15:54:04.549684,0.00747,0.00000,0.00000,-0.12844,0.00000,-0.00013,0.00209,-0.00274,-0.05203,-0.11291,0.98991,1.88449,0.00000,0.35670,0.35670,0.43986,-0.52341,1.81551,0.78258,-0.40771,0.37520,0.37520,A,155404.40
1.90220,57.68811601,11.97965986,57.68811700,11.97966533,15:54:04.559952,0.00734,0.00000,0.00000,-0.12869,0.00000,0.00110,-0.00081,-0.00075,-0.05246,-0.11480,0.99284,1.89558,0.00000,0.35947,0.35947,0.45700,-0.51762,1.81551,0.78258,-0.40771,0.37520,0.37520,A,155404.40
1.91127,57.68811606,11.97966013,57.68811700,11.97966533,15:54:04.569027,0.00595,0.00000,0.00000,-0.12891,0.00000,0.00094,0.00454,0.00017,-0.05301,-0.11236,0.99345,1.90506,0.00000,0.36183,0.36183,0.47328,-0.51213,1.81551,0.78258,-0.40771,0.37520,0.37520,A,155404.40
1.94313,57.68811611,11.97966039,57.68811767,11.97966450,15:54:04.600888,0.02740,0.00000,1.50000,-0.12921,0.00000,-0.00074,0.00026,-0.00243,-0.05051,-0.11657,0.98875,1.91537,0.00000,0.36384,0.36384,0.48874,-0.50690,1.93352,0.73305,-0.33358,2.15983,2.15983,A,155404.50
1.96326,57.68811619,11.97966060,57.68811767,11.97966450,15:54:04.621009,0.00669,0.00000,0.00000,-0.12956,0.00000,-0.00242,-0.00096,0.00062,-0.05234,-0.11407,0.99259,1.95776,0.00000,0.63324,0.63324,0.50096,-0.49824,1.93352,0.73305,-0.33358,2.15983,2.15983,A,155404.50
1.97201,57.68811626,11.97966079,57.68811767,11.97966450,15:54:04.629763,0.00504,0.00000,0.00000,-0.12985,0.00000,-0.00501,-0.00035,-0.00060,-0.05234,-0.11438,0.99223,1.96658,0.00000,0.86223,0.86223,0.51256,-0.49001,1.93352,0.73305,-0.33358,2.15983,2.15983,A,155404.50
1.98247,57.68811633,11.97966098,57.68811767,11.97966450,15:54:04.640223,0.00510,0.00000,0.00000,-0.13010,0.00000,0.00125,0.00331,-0.00075,-0.05148,-0.11560,0.98924,1.97677,0.00000,1.05687,1.05687,0.52359,-0.48219,1.93352,0.73305,-0.33358,2.15983,2.15983,A,155404.50
1.99345,57.68811640,11.97966115,57.68811767,11.97966450,15:54:04.651207,0.00568,0.00000,0.00000,-0.13034,0.00000,-0.00135,-0.00020,-0.00060,-0.05246,-0.11358,0.99271,1.98739,0.00000,1.22231,1.22231,0.53406,-0.47476,1.93352,0.73305,-0.33358,2.15983,2.15983,A,155404.50
2.00464,57.68811646,11.97966132,57.68811767,11.97966450,15:54:04.662408,0.00647,0.00000,0.00000,-0.13056,0.00000,0.00155,0.00194,-0.00151,-0.05136,-0.11474,0.99320,1.99777,0.00000,1.36294,1.36294,0.54401,-0.46770,1.93352,0.73305,-0.33358,2.15983,2.15983,A,155404.50
2.01657,57.68811652,11.97966148,57.68811767,11.97966450,15:54:04.674372,0.00787,0.00000,0.00000,-0.13075,0.00000,0.00217,0.00102,-0.00258,-0.05295,-0.11334,0.99247,2.00812,0.00000,1.48247,1.48247,0.55346,-0.46099,1.93352,0.73305,-0.33358,2.15983,2.15983,A,155404.50
2.02546,57.68811658,11.97966163,57.68811767,11.97966450,15:54:04.683209,0.00655,0.00000,0.00000,-0.13100,0.00000,-0.00150,0.00087,-0.00335,-0.05069,-0.11395,0.98838,2.01966,0.00000,1.58408,1.58408,0.56244,-0.45462,1.93352,0.73305,-0.33358,2.15983,2.15983,A,155404.50
2.05175,57.68811663,11.97966177,57.68811833,11.97966367,15:54:04.709521,0.02244,0.00000,1.50000,-0.13121,0.00000,0.00385,0.00255,0.00108,-0.05380,-0.11608,0.99387,2.02869,0.00000,1.67044,1.67044,0.57097,-0.44857,2.04515,0.68352,-0.25945,2.15983,2.15983,A,155404.60
2.07171,57.68811672,11.97966187,57.68811833,11.97966367,15:54:04.729464,0.00863,0.00000,0.00000,-0.13138,0.00000,0.00140,0.00072,-0.00258,-0.05258,-0.11456,0.99174,2.06620,0.00000,1.74385,1.74385,0.57660,-0.43911,2.04515,0.68352,-0.25945,2.15983,2.15983,A,155404.60
2.07934,57.68811680,11.97966196,57.68811833,11.97966367,15:54:04.737095,0.00579,0.00000,0.00000,-0.13161,0.00000,-0.00119,0.00225,-0.00060,-0.05203,-0.11419,0.99204,2.07385,0.00000,1.80625,1.80625,0.58195,-0.43013,2.04515,0.68352,-0.25945,2.15983,2.15983,A,155404.60
2.08946,57.68811688,11.97966204,57.68811833,11.97966367,15:54:04.747214,0.00551,0.00000,0.00000,-0.13180,0.00000,0.00278,-0.00050,0.00001,-0.05325,-0.11486,0.99320,2.08370,0.00000,1.85928,1.85928,0.58703,-0.42160,2.04515,0.68352,-0.25945,2.15983,2.15983,A,155404.60
2.09940,57.68811695,11.97966212,57.68811833,11.97966367,15:54:04.757150,0.00505,0.00000,0.00000,-0.13205,0.00000,-0.00303,0.00072,-0.00212,-0.04990,-0.11492,0.99223,2.09395,0.00000,1.90437,1.90437,0.59185,-0.41349,2.04515,0.68352,-0.25945,2.15983,2.15983,A,155404.60
2.11062,57.68811702,11.97966220,57.68811833,11.97966367,15:54:04.768372,0.00548,0.00000,0.00000,-0.13221,0.00000,0.00217,0.00148,-0.00472,-0.05130,-0.11285,0.99290,2.10485,0.00000,1.94269,1.94269,0.59643,-0.40579,2.04515,0.68352,-0.25945,2.15983,2.15983,A,155404.60
2.12086,57.68811708,11.97966227,57.68811833,11.97966367,15:54:04.778613,0.00533,0.00000,0.00000,-0.13243,0.00000,-0.00211,0.00072,0.00093,-0.05258,-0.11346,0.99003,2.11516,0.00000,1.97526,1.97526,0.60079,-0.39847,2.04515,0.68352,-0.25945,2.15983,2.15983,A,155404.60
2.13110,57.68811715,11.97966234,57.68811833,11.97966367,15:54:04.788853,0.00516,0.00000,0.00000,-0.13265,0.00000,-0.00211,-0.00218,0.00047,-0.05197,-0.11383,0.98875,2.12560,0.00000,2.00294,2.00294,0.60492,-0.39152,2.04515,0.68352,-0.25945,2.15983,2.15983,A,155404.60
2.14170,57.68811721,11.97966241,57.68811833,11.97966367,15:54:04.799454,0.00519,0.00000,0.00000,-0.13286,0.00000,-0.00119,0.00011,-0.00121,-0.05203,-0.11370,0.98930,2.13592,0.00000,2.02648,2.02648,0.60885,-0.38492,2.04515,0.68352,-0.25945,2.15983,2.15983,A,155404.60
2.17435,57.68811726,11.97966247,57.68811917,11.97966317,15:54:04.832106,0.02744,0.00000,1.50000,-0.13306,0.00000,-0.00165,0.00072,-0.00212,-0.05063,-0.11358,0.99223,2.14723,0.00000,2.04648,2.04648,0.61259,-0.37864,2.16721,0.65380,-0.16679,1.88115,1.88115,A,155404.70
2.19347,57.68811736,11.97966251,57.68811917,11.97966317,15:54:04.851222,0.00765,0.00000,0.00000,-0.13317,0.00000,0.00171,0.00255,-0.00212,-0.05258,-0.11370,0.99155,2.18766,0.00000,2.02168,2.02168,0.61465,-0.36805,2.16721,0.65380,-0.16679,1.88115,1.88115,A,155404.70
2.20158,57.68811745,11.97966254,57.68811917,11.97966317,15:54:04.859335,0.00536,0.00000,0.00000,-0.13337,0.00000,-0.00119,0.00194,-0.00075,-0.05173,-0.11376,0.98875,2.19581,0.00000,2.00060,2.00060,0.61661,-0.35799,2.16721,0.65380,-0.16679,1.88115,1.88115,A,155404.70
2.21252,57.68811753,11.97966257,57.68811917,11.97966317,15:54:04.870298,0.00575,0.00000,0.00000,-0.13359,0.00000,-0.00287,0.00225,0.00154,-0.05234,-0.11401,0.99070,2.20675,0.00000,1.98268,1.98268,0.61847,-0.34843,2.16721,0.65380,-0.16679,1.88115,1.88115,A,155404.70
2.22263,57.68811761,11.97966260,57.68811917,11.97966317,15:54:04.880387,0.00592,0.00000,0.00000,-0.13376,0.00000,0.00262,0.00026,-0.00289,-0.05307,-0.11523,0.99210,2.21662,0.00000,1.96745,1.96745,0.62023,-0.33935,2.16721,0.65380,-0.16679,1.88115,1.88115,A,155404.70
2.23218,57.68811769,11.97966263,57.68811917,11.97966317,15:54:04.890194,0.00507,0.00000,0.00000,-0.13401,0.00000,-0.00516,-0.00020,-0.00029,-0.05429,-0.11572,0.99149,2.22673,0.00000,1.95451,1.95451,0.62191,-0.33072,2.16721,0.65380,-0.16679,1.88115,1.88115,A,155404.70
2.24261,57.68811777,11.97966266,57.68811917,11.97966317,15:54:04.900360,0.00509,0.00000,0.00000,-0.13423,0.00000,-0.00379,0.00194,-0.00197,-0.04917,-0.11425,0.98979,2.23692,0.00000,1.94350,1.94350,0.62351,-0.32252,2.16721,0.65380,-0.16679,1.88115,1.88115,A,155404.70
2.25366,57.68811784,11.97966268,57.68811917,11.97966317,15:54:04.911409,0.00574,0.00000,0.00000,-0.13437,0.00000,0.00385,0.00072,-0.00182,-0.05417,-0.11450,0.99131,2.24760,0.00000,1.93415,1.93415,0.62502,-0.31474,2.16721,0.65380,-0.16679,1.88115,1.88115,A,155404.70
2.26337,57.68811790,11.97966271,57.68811917,11.97966317,15:54:04.921126,0.00505,0.00000,0.00000,-0.13457,0.00000,-0.00013,-0.00050,0.00062,-0.05295,-0.11566,0.98966,2.25792,0.00000,1.92620,1.92620,0.62646,-0.30734,2.16721,0.65380,-0.16679,1.88115,1.88115,A,155404.70
2.30227,57.68811797,11.97966273,57.68812200,11.97966200,15:54:04.960031,0.03357,0.00000,1.50000,-0.13483,0.00000,-0.00425,-0.00035,0.00062,-0.05155,-0.11730,0.98997,2.26814,0.00000,1.91944,1.91944,0.62783,-0.30031,2.29579,0.58446,0.14826,1.78744,1.78744,A,155404.90
2.32074,57.68811817,11.97966269,57.68812200,11.97966200,15:54:04.978503,0.00772,0.00000,0.00000,-0.13507,0.00000,-0.00181,-0.00081,-0.00304,-0.05295,-0.11370,0.99186,2.31256,0.00000,1.89964,1.89964,0.62566,-0.27788,2.29579,0.58446,0.14826,1.78744,1.78744,A,155404.90
2.32875,57.68811836,11.97966266,57.68812200,11.97966200,15:54:04.986514,0.00533,0.00000,0.00000,-0.13521,0.00000,0.00171,0.00393,-0.00396,-0.05136,-0.11407,0.99210,2.32306,0.00000,1.88281,1.88281,0.62360,-0.25658,2.29579,0.58446,0.14826,1.78744,1.78744,A,155404.90
2.33888,57.68811854,11.97966263,57.68812200,11.97966200,15:54:04.996629,0.00506,0.00000,0.00000,-0.13539,0.00000,-0.00303,-0.00157,0.00246,-0.05051,-0.11322,0.98905,2.33341,0.00000,1.86851,1.86851,0.62164,-0.23633,2.29579,0.58446,0.14826,1.78744,1.78744,A,155404.90
2.34961,57.68811871,11.97966259,57.68812200,11.97966200,15:54:05.007366,0.00539,0.00000,0.00000,-0.13557,0.00000,-0.00348,-0.00402,0.00047,-0.05100,-0.11340,0.99088,2.34383,0.00000,1.85635,1.85635,0.61978,-0.21710,2.29579,0.58446,0.14826,1.78744,1.78744,A,155404.90
2.36022,57.68811888,11.97966256,57.68812200,11.97966200,15:54:05.018239,0.00577,0.00000,0.00000,-0.13576,0.00000,-0.00410,0.00011,0.00032,-0.05148,-0.11413,0.99302,2.35475,0.00000,1.84601,1.84601,0.61802,-0.19884,2.29579,0.58446,0.14826,1.78744,1.78744,A,155404.90
2.37067,57.68811903,11.97966254,57.68812200,11.97966200,15:54:05.028429,0.00595,0.00000,0.00000,-0.13593,0.00000,-0.00196,0.00041,-0.00090,-0.05307,-0.11450,0.99338,2.36415,0.00000,1.83723,1.83723,0.61634,-0.18148,2.29579,0.58446,0.14826,1.78744,1.78744,A,155404.90
2.38109,57.68811918,11.97966251,57.68812200,11.97966200,15:54:05.038844,0.00596,0.00000,0.00000,-0.13608,0.00000,0.00079,-0.00249,0.00062,-0.05313,-0.11492,0.99216,2.37523,0.00000,1.82976,1.82976,0.61475,-0.16499,2.29579,0.58446,0.14826,1.78744,1.78744,A,155404.90
2.39189,57.68811932,11.97966248,57.68812200,11.97966200,15:54:05.049644,0.00601,0.00000,0.00000,-0.13626,0.00000,-0.00089,0.00194,-0.00136,-0.05307,-0.11547,0.99204,2.38640,0.00000,1.82341,1.82341,0.61323,-0.14933,2.29579,0.58446,0.14826,1.78744,1.78744,A,155404.90
2.42328,57.68811946,11.97966246,57.68812333,11.97966450,15:54:05.081056,0.02682,0.00000,1.50000,-0.13645,0.00000,-0.00455,-0.00081,-0.00014,-0.05337,-0.11480,0.99399,2.39588,0.00000,1.81802,1.81802,0.61179,-0.13445,2.41667,0.73305,0.29652,0.78428,0.78428,A,155405.00
2.44284,57.68811965,11.97966256,57.68812333,11.97966450,15:54:05.100593,0.00614,0.00000,0.00000,-0.13659,0.00000,0.00018,0.00041,0.00215,-0.05063,-0.11505,0.99052,2.43714,0.00000,1.66295,1.66295,0.61786,-0.11290,2.41667,0.73305,0.29652,0.78428,0.78428,A,155405.00
2.45322,57.68811984,11.97966266,57.68812333,11.97966450,15:54:05.110981,0.00612,0.00000,0.00000,-0.13677,0.00000,-0.00196,0.00041,0.00078,-0.05094,-0.11572,0.99186,2.44724,0.00000,1.53115,1.53115,0.62362,-0.09243,2.41667,0.73305,0.29652,0.78428,0.78428,A,155405.00
2.46259,57.68812001,11.97966275,57.68812333,11.97966450,15:54:05.120338,0.00509,0.00000,0.00000,-0.13691,0.00000,0.00033,-0.00066,0.00093,-0.05295,-0.11474,0.99180,2.45690,0.00000,1.41912,1.41912,0.62909,-0.07298,2.41667,0.73305,0.29652,0.78428,0.78428,A,155405.00
2.47329,57.68812018,11.97966284,57.68812333,11.97966450,15:54:05.131039,0.00538,0.00000,0.00000,-0.13707,0.00000,-0.00196,-0.00005,-0.00029,-0.04978,-0.11456,0.99302,2.46753,0.00000,1.32390,1.32390,0.63429,-0.05451,2.41667,0.73305,0.29652,0.78428,0.78428,A,155405.00
2.48337,57.68812033,11.97966292,57.68812333,11.97966450,15:54:05.141121,0.00506,0.00000,0.00000,-0.13720,0.00000,0.00033,-0.00188,0.00062,-0.05087,-0.11413,0.99210,2.47790,0.00000,1.24295,1.24295,0.63922,-0.03696,2.41667,0.73305,0.29652,0.78428,0.78428,A,155405.00
2.49411,57.68812048,11.97966300,57.68812333,11.97966450,15:54:05.151860,0.00535,0.00000,0.00000,-0.13737,0.00000,-0.00425,-0.00096,0.00261,-0.05319,-0.11401,0.99162,2.48820,0.00000,1.17415,1.17415,0.64392,-0.02028,2.41667,0.73305,0.29652,0.78428,0.78428,A,155405.00
2.50423,57.68812063,11.97966308,57.68812333,11.97966450,15:54:05.162231,0.00507,0.00000,0.00000,-0.13752,0.00000,-0.00074,0.00270,-0.00075,-0.05228,-0.11529,0.99168,2.49876,0.00000,1.11567,1.11567,0.64837,-0.00444,2.41667,0.73305,0.29652,0.78428,0.78428,A,155405.00
2.51568,57.68812076,11.97966315,57.68812333,11.97966450,15:54:05.173724,0.00613,0.00000,0.00000,-0.13760,0.00000,-0.00013,0.00133,-0.00090,-0.05106,-0.11139,0.99155,2.50895,0.00000,1.06596,1.06596,0.65261,0.01060,2.41667,0.73305,0.29652,0.78428,0.78428,A,155405.00
2.54214,57.68812089,11.97966321,57.68812550,11.97966800,15:54:05.199900,0.02219,0.00000,1.50000,-0.13773,0.00000,0.00049,0.00194,-0.00106,-0.05179,-0.11529,0.99223,2.51957,0.00000,1.02371,1.02371,0.65663,0.02490,2.53647,0.94108,0.53744,0.85854,0.85854,A,155405.10
2.56217,57.68812112,11.97966345,57.68812550,11.97966800,15:54:05.219924,0.00785,0.00000,0.00000,-0.13784,0.00000,0.00064,0.00087,-0.00151,-0.04996,-0.11511,0.99296,2.55594,0.00000,0.99893,0.99893,0.67085,0.05053,2.53647,0.94108,0.53744,0.85854,0.85854,A,155405.10
2.56987,57.68812134,11.97966368,57.68812550,11.97966800,15:54:05.227617,0.00517,0.00000,0.00000,-0.13794,0.00000,0.00064,0.00087,-0.00304,-0.05209,-0.11322,0.99131,2.56413,0.00000,0.97787,0.97787,0.68436,0.07487,2.53647,0.94108,0.53744,0.85854,0.85854,A,155405.10
2.58016,57.68812155,11.97966390,57.68812550,11.97966800,15:54:05.238167,0.00507,0.00000,0.00000,-0.13808,0.00000,0.00003,0.00011,0.00093,-0.05173,-0.11553,0.99119,2.57471,0.00000,0.95997,0.95997,0.69720,0.09800,2.53647,0.94108,0.53744,0.85854,0.85854,A,155405.10
2.59141,57.68812175,11.97966410,57.68812550,11.97966800,15:54:05.249357,0.00564,0.00000,0.00000,-0.13824,0.00000,-0.00058,0.00148,-0.00197,-0.05094,-0.11645,0.99143,2.58591,0.00000,0.94476,0.94476,0.70939,0.11997,2.53647,0.94108,0.53744,0.85854,0.85854,A,155405.10
2.60231,57.68812193,11.97966430,57.68812550,11.97966800,15:54:05.260092,0.00615,0.00000,0.00000,-0.13833,0.00000,0.00018,-0.00111,-0.00121,-0.05148,-0.11303,0.99216,2.59577,0.00000,0.93182,0.93182,0.72098,0.14085,2.53647,0.94108,0.53744,0.85854,0.85854,A,155405.10
2.61162,57.68812211,11.97966448,57.68812550,11.97966800,15:54:05.269372,0.00506,0.00000,0.00000,-0.13846,0.00000,0.00033,-0.00127,-0.00121,-0.05167,-0.11553,0.98979,2.60617,0.00000,0.92083,0.92083,0.73198,0.16068,2.53647,0.94108,0.53744,0.85854,0.85854,A,155405.10
2.62291,57.68812228,11.97966466,57.68812550,11.97966800,15:54:05.280660,0.00550,0.00000,0.00000,-0.13857,0.00000,0.00018,0.00102,0.00017,-0.05240,-0.11425,0.99143,2.61741,0.00000,0.91149,0.91149,0.74244,0.17951,2.53647,0.94108,0.53744,0.85854,0.85854,A,155405.10
2.63320,57.68812244,11.97966482,57.68812550,11.97966800,15:54:05.290950,0.00537,0.00000,0.00000,-0.13875,0.00000,-0.00593,-0.00050,0.00185,-0.05118,-0.11517,0.99271,2.62744,0.00000,0.90354,0.90354,0.75237,0.19741,2.53647,0.94108,0.53744,0.85854,0.85854,A,155405.10
2.66363,57.68812259,11.97966498,57.68812567,11.97967033,15:54:05.321401,0.02540,0.00000,1.50000,-0.13888,0.00000,0.00064,0.00209,0.00124,-0.05386,-0.11627,0.99088,2.63780,0.00000,0.89679,0.89679,0.76181,0.21441,2.65588,1.07977,0.55597,0.13284,0.13284,A,155405.20
2.68322,57.68812275,11.97966525,57.68812567,11.97967033,15:54:05.340978,0.00573,0.00000,0.00000,-0.13892,0.00000,0.00232,-0.00066,-0.00167,-0.05130,-0.11596,0.99168,2.67770,0.00000,0.78220,0.78220,0.77770,0.23149,2.65588,1.07977,0.55597,0.13284,0.13284,A,155405.20
2.69347,57.68812289,11.97966551,57.68812567,11.97967033,15:54:05.351229,0.00558,0.00000,0.00000,-0.13900,0.00000,0.00186,-0.00157,-0.00151,-0.05191,-0.11340,0.99003,2.68752,0.00000,0.68480,0.68480,0.79281,0.24772,2.65588,1.07977,0.55597,0.13284,0.13284,A,155405.20
2.70337,57.68812303,11.97966575,57.68812567,11.97967033,15:54:05.361119,0.00507,0.00000,0.00000,-0.13912,0.00000,-0.00104,0.00240,0.00169,-0.05130,-0.11468,0.99253,2.69790,0.00000,0.60200,0.60200,0.80715,0.26313,2.65588,1.07977,0.55597,0.13284,0.13284,A,155405.20
2.71404,57.68812316,11.97966598,57.68812567,11.97967033,15:54:05.371788,0.00534,0.00000,0.00000,-0.13920,0.00000,0.00140,-0.00325,-0.00075,-0.05191,-0.11407,0.99216,2.70813,0.00000,0.53163,0.53163,0.82079,0.27777,2.65588,1.07977,0.55597,0.13284,0.13284,A,155405.20
2.72513,57.68812329,11.97966619,57.68812567,11.97967033,15:54:05.382887,0.00565,0.00000,0.00000,-0.13929,0.00000,0.00049,0.00057,0.00139,-0.05075,-0.11413,0.99137,2.71937,0.00000,0.47181,0.47181,0.83373,0.29168,2.65588,1.07977,0.55597,0.13284,0.13284,A,155405.20
2.73533,57.68812341,11.97966640,57.68812567,11.97967033,15:54:05.393085,0.00558,0.00000,0.00000,-0.13938,0.00000,-0.00074,0.00255,0.00017,-0.05203,-0.11254,0.99088,2.72984,0.00000,0.42097,0.42097,0.84604,0.30490,2.65588,1.07977,0.55597,0.13284,0.13284,A,155405.20
2.74551,57.68812352,11.97966660,57.68812567,11.97967033,15:54:05.403263,0.00536,0.00000,0.00000,-0.13946,0.00000,0.00293,-0.00264,-0.00274,-0.05100,-0.11541,0.99125,2.73976,0.00000,0.37775,0.37775,0.85772,0.31745,2.65588,1.07977,0.55597,0.13284,0.13284,A,155405.20
2.75594,57.68812363,11.97966678,57.68812567,11.97967033,15:54:05.413696,0.00539,0.00000,0.00000,-0.13953,0.00000,0.00339,-0.00127,0.00001,-0.05289,-0.11474,0.98985,2.75023,0.00000,0.34101,0.34101,0.86883,0.32938,2.65588,1.07977,0.55597,0.13284,0.13284,A,155405.20
2.78282,57.68812373,11.97966696,57.68812550,11.97967317,15:54:05.440583,0.02205,0.00000,1.50000,-0.13964,0.00000,-0.00181,-0.00188,-0.00075,-0.05081,-0.11376,0.99186,2.76022,0.00000,0.30979,0.30979,0.87937,0.34071,2.77639,1.24817,0.53744,-0.10961,-0.10961,A,155405.30
2.80122,57.68812382,11.97966727,57.68812550,11.97967317,15:54:05.458976,0.00675,0.00000,0.00000,-0.13969,0.00000,0.00110,0.00331,-0.00182,-0.04953,-0.11389,0.99070,2.79508,0.00000,0.24688,0.24688,0.89781,0.35054,2.77639,1.24817,0.53744,-0.10961,-0.10961,A,155405.30
2.80994,57.68812390,11.97966757,57.68812550,11.97967317,15:54:05.467693,0.00522,0.00000,0.00000,-0.13977,0.00000,0.00079,0.00240,0.00032,-0.05374,-0.11358,0.99198,2.80416,0.00000,0.19340,0.19340,0.91533,0.35989,2.77639,1.24817,0.53744,-0.10961,-0.10961,A,155405.30
2.82113,57.68812398,11.97966785,57.68812550,11.97967317,15:54:05.478883,0.00601,0.00000,0.00000,-0.13986,0.00000,-0.00119,0.00133,-0.00136,-0.05301,-0.11352,0.98869,2.81508,0.00000,0.14795,0.14795,0.93197,0.36877,2.77639,1.24817,0.53744,-0.10961,-0.10961,A,155405.30
2.83134,57.68812406,11.97966811,57.68812550,11.97967317,15:54:05.489098,0.00599,0.00000,0.00000,-0.13994,0.00000,0.00186,-0.00005,-0.00121,-0.05045,-0.11480,0.99131,2.82485,0.00000,0.10932,0.10932,0.94778,0.37720,2.77639,1.24817,0.53744,-0.10961,-0.10961,A,155405.30
2.84111,57.68812413,11.97966837,57.68812550,11.97967317,15:54:05.498863,0.00535,0.00000,0.00000,-0.14003,0.00000,-0.00150,0.00408,0.00078,-0.05270,-0.11334,0.99308,2.83538,0.00000,0.07648,0.07648,0.96280,0.38521,2.77639,1.24817,0.53744,-0.10961,-0.10961,A,155405.30
2.85196,57.68812420,11.97966861,57.68812550,11.97967317,15:54:05.509714,0.00581,0.00000,0.00000,-0.14015,0.00000,-0.00104,-0.00127,0.00108,-0.05228,-0.11547,0.98979,2.84643,0.00000,0.04857,0.04857,0.97707,0.39282,2.77639,1.24817,0.53744,-0.10961,-0.10961,A,155405.30
2.86189,57.68812426,11.97966883,57.68812550,11.97967317,15:54:05.519645,0.00519,0.00000,0.00000,-0.14028,0.00000,-0.00379,-0.00005,0.00124,-0.05240,-0.11431,0.99046,2.85614,0.00000,0.02484,0.02484,0.99063,0.40005,2.77639,1.24817,0.53744,-0.10961,-0.10961,A,155405.30
2.87469,57.68812433,11.97966905,57.68812550,11.97967317,15:54:05.532440,0.00722,0.00000,0.00000,-0.14030,0.00000,0.00522,0.00163,-0.00533,-0.05374,-0.11456,0.99253,2.86861,0.00000,0.00467,0.00467,1.00350,0.40692,2.77639,1.24817,0.53744,-0.10961,-0.10961,A,155405.30
2.91409,57.68812438,11.97966926,57.68812683,11.97967683,15:54:05.571847,0.03621,0.00000,1.50000,-0.14040,0.00000,-0.00196,-0.00111,0.00215,-0.05112,-0.11370,0.98979,2.87857,0.00000,-0.01247,-0.01247,1.01574,0.41345,2.90682,1.46611,0.68570,0.59738,0.59738,A,155405.50
2.93342,57.68812451,11.97966963,57.68812683,11.97967683,15:54:05.591201,0.00664,0.00000,0.00000,-0.14052,0.00000,-0.00028,0.00255,-0.00075,-0.05173,-0.11584,0.99143,2.92648,0.00000,0.07901,0.07901,1.03825,0.42706,2.90682,1.46611,0.68570,0.59738,0.59738,A,155405.50
2.94294,57.68812462,11.97966999,57.68812683,11.97967683,15:54:05.601055,0.00557,0.00000,0.00000,-0.14062,0.00000,-0.00196,0.00118,0.00017,-0.05197,-0.11413,0.99210,2.93745,0.00000,0.15676,0.15676,1.05965,0.43999,2.90682,1.46611,0.68570,0.59738,0.59738,A,155405.50
2.95315,57.68812473,11.97967034,57.68812683,11.97967683,15:54:05.610900,0.00537,0.00000,0.00000,-0.14072,0.00000,0.00201,0.00133,-0.00060,-0.05173,-0.11700,0.99235,2.94740,0.00000,0.22286,0.22286,1.07997,0.45228,2.90682,1.46611,0.68570,0.59738,0.59738,A,155405.50
2.96386,57.68812484,11.97967066,57.68812683,11.97967683,15:54:05.621618,0.00569,0.00000,0.00000,-0.14085,0.00000,-0.00410,0.00194,-0.00136,-0.05209,-0.11529,0.99137,2.95838,0.00000,0.27903,0.27903,1.09928,0.46395,2.90682,1.46611,0.68570,0.59738,0.59738,A,155405.50
2.97386,57.68812494,11.97967097,57.68812683,11.97967683,15:54:05.631621,0.00517,0.00000,0.00000,-0.14098,0.00000,-0.00165,0.00072,-0.00411,-0.05459,-0.11651,0.99143,2.96813,0.00000,0.32679,0.32679,1.11762,0.47504,2.90682,1.46611,0.68570,0.59738,0.59738,A,155405.50
2.98464,57.68812503,11.97967126,57.68812683,11.97967683,15:54:05.642400,0.00554,0.00000,0.00000,-0.14109,0.00000,-0.00455,0.00102,-0.00151,-0.05179,-0.11376,0.99119,2.97871,0.00000,0.36738,0.36738,1.13504,0.48557,2.90682,1.46611,0.68570,0.59738,0.59738,A,155405.50
2.99526,57.68812512,11.97967154,57.68812683,11.97967683,15:54:05.653013,0.00575,0.00000,0.00000,-0.14121,0.00000,-0.00242,-0.00173,-0.00335,-0.05270,-0.11523,0.99076,2.98976,0.00000,0.40188,0.40188,1.15160,0.49558,2.90682,1.46611,0.68570,0.59738,0.59738,A,155405.50
3.00527,57.68812521,11.97967181,57.68812683,11.97967683,15:54:05.663025,0.00536,0.00000,0.00000,-0.14129,0.00000,-0.00364,-0.00203,-0.00136,-0.05209,-0.11261,0.99162,2.99951,0.00000,0.43120,0.43120,1.16732,0.50508,2.90682,1.46611,0.68570,0.59738,0.59738,A,155405.50
3.03361,57.68812529,11.97967206,57.68812767,11.97967850,15:54:05.691377,0.02330,0.00000,1.50000,-0.14136,0.00000,-0.00196,0.00286,0.00062,-0.05087,-0.11340,0.99308,3.00996,0.00000,0.45613,0.45613,1.18226,0.51411,3.02695,1.56517,0.77836,0.75204,0.75204,A,155405.60
3.05343,57.68812541,11.97967238,57.68812767,11.97967850,15:54:05.711188,0.00661,0.00000,0.00000,-0.14151,0.00000,-0.00181,-0.00050,-0.00014,-0.05155,-0.11529,0.98869,3.04761,0.00000,0.50051,0.50051,1.20141,0.52733,3.02695,1.56517,0.77836,0.75204,0.75204,A,155405.60
3.06220,57.68812552,11.97967269,57.68812767,11.97967850,15:54:05.719956,0.00514,0.00000,0.00000,-0.14156,0.00000,-0.00333,0.00087,0.00062,-0.05520,-0.11114,0.99363,3.05648,0.00000,0.53824,0.53824,1.21959,0.53988,3.02695,1.56517,0.77836,0.75204,0.75204,A,155405.60
3.07278,57.68812563,11.97967298,57.68812767,11.97967850,15:54:05.730543,0.00532,0.00000,0.00000,-0.14166,0.00000,-0.00272,0.00163,-0.00472,-0.05234,-0.11444,0.99058,3.06709,0.00000,0.57031,0.57031,1.23687,0.55180,3.02695,1.56517,0.77836,0.75204,0.75204,A,155405.60
3.08319,57.68812573,11.97967325,57.68812767,11.97967850,15:54:05.740954,0.00533,0.00000,0.00000,-0.14174,0.00000,-0.00226,-0.00020,-0.00029,-0.05283,-0.11407,0.98918,3.07751,0.00000,0.59757,0.59757,1.25329,0.56313,3.02695,1.56517,0.77836,0.75204,0.75204,A,155405.60
3.09416,57.68812583,11.97967352,57.68812767,11.97967850,15:54:05.751929,0.00571,0.00000,0.00000,-0.14182,0.00000,-0.00074,-0.00402,-0.00014,-0.05197,-0.11486,0.99253,3.08801,0.00000,0.62074,0.62074,1.26888,0.57389,3.02695,1.56517,0.77836,0.75204,0.75204,A,155405.60
3.10422,57.68812592,11.97967376,57.68812767,11.97967850,15:54:05.762216,0.00521,0.00000,0.00000,-0.14190,0.00000,0.00064,-0.00066,-0.00044,-0.05191,-0.11572,0.99186,3.09872,0.00000,0.64043,0.64043,1.28370,0.58412,3.02695,1.56517,0.77836,0.75204,0.75204,A,155405.60
3.11773,57.68812601,11.97967400,57.68812767,11.97967850,15:54:05.775487,0.00831,0.00000,0.00000,-0.14200,0.00000,-0.00379,-0.00356,0.00062,-0.05368,-0.11419,0.99101,3.11014,0.00000,0.65717,0.65717,1.29777,0.59383,3.02695,1.56517,0.77836,0.75204,0.75204,A,155405.60
3.12519,57.68812609,11.97967423,57.68812767,11.97967850,15:54:05.782945,0.00538,0.00000,0.00000,-0.14205,0.00000,0.00033,0.00133,0.00215,-0.05325,-0.11425,0.99192,3.11942,0.00000,0.67140,0.67140,1.31114,0.60306,3.02695,1.56517,0.77836,0.75204,0.75204,A,155405.60
3.15573,57.68812617,11.97967444,57.68812800,11.97967667,15:54:05.813513,0.02524,0.00000,1.50000,-0.14210,0.00000,-0.00165,0.00041,-0.00396,-0.05240,-0.11261,0.99101,3.13016,0.00000,0.68350,0.68350,1.32384,0.61182,3.14920,1.45620,0.81543,2.81372,2.81372,A,155405.70
3.17329,57.68812626,11.97967455,57.68812800,11.97967667,15:54:05.831310,0.00702,0.00000,0.00000,-0.14234,0.00000,-0.00501,-0.00279,-0.00182,-0.05118,-0.11364,0.99058,3.16721,0.00000,1.00303,1.00303,1.33046,0.62200,3.14920,1.45620,0.81543,2.81372,2.81372,A,155405.70
3.18207,57.68812635,11.97967466,57.68812800,11.97967667,15:54:05.839830,0.00538,0.00000,0.00000,-0.14242,0.00000,-0.00394,-0.00417,0.00185,-0.05246,-0.11383,0.99131,3.17612,0.00000,1.27464,1.27464,1.33675,0.63167,3.14920,1.45620,0.81543,2.81372,2.81372,A,155405.70
3.19322,57.68812643,11.97967476,57.68812800,11.97967667,15:54:05.850972,0.00579,0.00000,0.00000,-0.14250,0.00000,-0.00089,-0.00417,-0.00044,-0.05337,-0.11517,0.99052,3.18744,0.00000,1.50550,1.50550,1.34272,0.64086,3.14920,1.45620,0.81543,2.81372,2.81372,A,155405.70
3.20289,57.68812651,11.97967485,57.68812800,11.97967667,15:54:05.860645,0.00506,0.00000,0.00000,-0.14260,0.00000,-0.00211,0.00057,-0.00136,-0.05087,-0.11621,0.99015,3.19742,0.00000,1.70173,1.70173,1.34839,0.64959,3.14920,1.45620,0.81543,2.81372,2.81372,A,155405.70
3.21360,57.68812658,11.97967494,57.68812800,11.97967667,15:54:05.871352,0.00537,0.00000,0.00000,-0.14266,0.00000,0.00018,-0.00127,-0.00136,-0.05033,-0.11511,0.99223,3.20782,0.00000,1.86853,1.86853,1.35378,0.65788,3.14920,1.45620,0.81543,2.81372,2.81372,A,155405.70
3.22481,57.68812665,11.97967503,57.68812800,11.97967667,15:54:05.882575,0.00619,0.00000,0.00000,-0.14268,0.00000,0.00278,0.00087,-0.00014,-0.05240,-0.11419,0.99168,3.21825,0.00000,2.01031,2.01031,1.35890,0.66576,3.14920,1.45620,0.81543,2.81372,2.81372,A,155405.70
3.23491,57.68812672,11.97967511,57.68812800,11.97967667,15:54:05.892664,0.00606,0.00000,0.00000,-0.14278,0.00000,-0.00425,0.00240,0.00108,-0.05039,-0.11511,0.99101,3.22893,0.00000,2.13082,2.13082,1.36377,0.67324,3.14920,1.45620,0.81543,2.81372,2.81372,A,155405.70
3.24581,57.68812679,11.97967519,57.68812800,11.97967667,15:54:05.903567,0.00668,0.00000,0.00000,-0.14282,0.00000,-0.00043,-0.00249,0.00276,-0.05069,-0.11346,0.99284,3.23930,0.00000,2.23326,2.23326,1.36839,0.68035,3.14920,1.45620,0.81543,2.81372,2.81372,A,155405.70
3.27259,57.68812685,11.97967526,57.68812883,11.97967367,15:54:05.930356,0.02307,0.00000,1.50000,-0.14288,0.00000,-0.00043,0.00179,0.00078,-0.04984,-0.11480,0.99094,3.24891,0.00000,2.32033,2.32033,1.37278,0.68711,3.26610,1.27789,0.90809,2.66233,2.66233,A,155405.80
3.28922,57.68812695,11.97967518,57.68812883,11.97967367,15:54:05.946972,0.00653,0.00000,0.00000,-0.14307,0.00000,-0.00410,0.00179,0.00001,-0.05319,-0.11486,0.99204,3.28340,0.00000,2.37163,2.37163,1.36804,0.69815,3.26610,1.27789,0.90809,2.66233,2.66233,A,155405.80
3.29819,57.68812704,11.97967511,57.68812883,11.97967367,15:54:05.955945,0.00527,0.00000,0.00000,-0.14316,0.00000,-0.00639,-0.00050,-0.00044,-0.05405,-0.11364,0.98857,3.29236,0.00000,2.41523,2.41523,1.36353,0.70865,3.26610,1.27789,0.90809,2.66233,2.66233,A,155405.80
3.30862,57.68812713,11.97967504,57.68812883,11.97967367,15:54:05.966381,0.00530,0.00000,0.00000,-0.14323,0.00000,-0.00623,0.00148,-0.00075,-0.05490,-0.11175,0.99088,3.30294,0.00000,2.45230,2.45230,1.35925,0.71862,3.26610,1.27789,0.90809,2.66233,2.66233,A,155405.80
3.31892,57.68812721,11.97967497,57.68812883,11.97967367,15:54:05.976674,0.00534,0.00000,0.00000,-0.14326,0.00000,-0.00119,0.00057,0.00062,-0.05173,-0.11273,0.99265,3.31342,0.00000,2.48380,2.48380,1.35518,0.72810,3.26610,1.27789,0.90809,2.66233,2.66233,A,155405.80
3.33112,57.68812730,11.97967490,57.68812883,11.97967367,15:54:05.988898,0.00714,0.00000,0.00000,-0.14331,0.00000,-0.00104,0.00179,-0.00197,-0.05240,-0.11401,0.98979,3.32360,0.00000,2.51058,2.51058,1.35131,0.73710,3.26610,1.27789,0.90809,2.66233,2.66233,A,155405.80
3.34008,57.68812737,11.97967484,57.68812883,11.97967367,15:54:05.998070,0.00583,0.00000,0.00000,-0.14331,0.00000,0.00308,0.00118,-0.00228,-0.05252,-0.11407,0.99198,3.33457,0.00000,2.53335,2.53335,1.34764,0.74565,3.26610,1.27789,0.90809,2.66233,2.66233,A,155405.80
3.35029,57.68812745,11.97967478,57.68812883,11.97967367,15:54:06.008046,0.00570,0.00000,0.00000,-0.14335,0.00000,-0.00089,0.00057,-0.00106,-0.05435,-0.11340,0.99186,3.34449,0.00000,2.55269,2.55269,1.34416,0.75377,3.26610,1.27789,0.90809,2.66233,2.66233,A,155405.80
3.36052,57.68812751,11.97967473,57.68812883,11.97967367,15:54:06.018285,0.00534,0.00000,0.00000,-0.14338,0.00000,0.00003,0.00072,-0.00258,-0.05222,-0.11431,0.99338,3.35482,0.00000,2.56914,2.56914,1.34084,0.76149,3.26610,1.27789,0.90809,2.66233,2.66233,A,155405.80
3.39213,57.68812758,11.97967467,57.68813050,11.97967067,15:54:06.050258,0.02656,0.00000,1.50000,-0.14339,0.00000,0.00278,0.00148,-0.00167,-0.05228,-0.11425,0.98930,3.36498,0.00000,2.58312,2.58312,1.33769,0.76882,3.38485,1.09958,1.09342,2.33691,2.33691,A,155405.90
3.40999,57.68812773,11.97967447,57.68813050,11.97967067,15:54:06.067741,0.00649,0.00000,0.00000,-0.14350,0.00000,-0.00135,0.00255,-0.00075,-0.05185,-0.11529,0.99277,3.40420,0.00000,2.54619,2.54619,1.32579,0.78505,3.38485,1.09958,1.09342,2.33691,2.33691,A,155405.90
3.42015,57.68812787,11.97967428,57.68813050,11.97967067,15:54:06.078169,0.00625,0.00000,0.00000,-0.14353,0.00000,0.00201,-0.00035,0.00108,-0.05307,-0.11547,0.99082,3.41466,0.00000,2.51479,2.51479,1.31448,0.80046,3.38485,1.09958,1.09342,2.33691,2.33691,A,155405.90
3.42967,57.68812800,11.97967410,57.68813050,11.97967067,15:54:06.087418,0.00520,0.00000,0.00000,-0.14356,0.00000,0.00293,0.00255,-0.00090,-0.05386,-0.11566,0.99168,3.42389,0.00000,2.48811,2.48811,1.30373,0.81511,3.38485,1.09958,1.09342,2.33691,2.33691,A,155405.90
3.44117,57.68812812,11.97967393,57.68813050,11.97967067,15:54:06.098928,0.00605,0.00000,0.00000,-0.14362,0.00000,-0.00318,-0.00157,0.00047,-0.05057,-0.11315,0.98954,3.43538,0.00000,2.46543,2.46543,1.29353,0.82903,3.38485,1.09958,1.09342,2.33691,2.33691,A,155405.90
3.45064,57.68812824,11.97967377,57.68813050,11.97967067,15:54:06.108397,0.00511,0.00000,0.00000,-0.14367,0.00000,-0.00074,0.00057,-0.00151,-0.05179,-0.11492,0.99223,3.44492,0.00000,2.44615,2.44615,1.28383,0.84225,3.38485,1.09958,1.09342,2.33691,2.33691,A,155405.90
3.46140,57.68812835,11.97967361,57.68813050,11.97967067,15:54:06.119163,0.00550,0.00000,0.00000,-0.14382,0.00000,-0.00623,-0.00050,0.00017,-0.05069,-0.11785,0.98918,3.45560,0.00000,2.42977,2.42977,1.27462,0.85480,3.38485,1.09958,1.09342,2.33691,2.33691,A,155405.90
3.47138,57.68812846,11.97967346,57.68813050,11.97967067,15:54:06.129133,0.00507,0.00000,0.00000,-0.14386,0.00000,-0.00272,0.00286,-0.00075,-0.05130,-0.11273,0.99033,3.46591,0.00000,2.41584,2.41584,1.26586,0.86674,3.38485,1.09958,1.09342,2.33691,2.33691,A,155405.90
3.48203,57.68812856,11.97967332,57.68813050,11.97967067,15:54:06.139785,0.00517,0.00000,0.00000,-0.14391,0.00000,-0.00104,-0.00020,-0.00029,-0.05203,-0.11486,0.99033,3.47628,0.00000,2.40400,2.40400,1.25755,0.87807,3.38485,1.09958,1.09342,2.33691,2.33691,A,155405.90
3.51967,57.68812866,11.97967319,57.68813283,11.97966833,15:54:06.177433,0.03241,0.00000,1.50000,-0.14399,0.00000,-0.00135,0.00484,-0.00060,-0.05148,-0.11633,0.99180,3.48688,0.00000,2.39393,2.39393,1.24965,0.88884,3.51305,0.96089,1.35287,2.06168,2.06168,A,155406.10
3.53900,57.68812887,11.97967295,57.68813283,11.97966833,15:54:06.196762,0.00807,0.00000,0.00000,-0.14417,0.00000,-0.00318,0.00194,0.00124,-0.05283,-0.11456,0.98936,3.53243,0.00000,2.34410,2.34410,1.23521,0.91204,3.51305,0.96089,1.35287,2.06168,2.06168,A,155406.10
3.54661,57.68812907,11.97967272,57.68813283,11.97966833,15:54:06.204362,0.00510,0.00000,0.00000,-0.14418,0.00000,-0.00058,0.00118,-0.00335,-0.05155,-0.11328,0.99082,3.54091,0.00000,2.30173,2.30173,1.22150,0.93408,3.51305,0.96089,1.35287,2.06168,2.06168,A,155406.10
3.55818,57.68812926,11.97967250,57.68813283,11.97966833,15:54:06.215943,0.00628,0.00000,0.00000,-0.14423,0.00000,-0.00150,0.00240,0.00185,-0.05185,-0.11480,0.99210,3.55153,0.00000,2.26573,2.26573,1.20847,0.95502,3.51305,0.96089,1.35287,2.06168,2.06168,A,155406.10
3.56737,57.68812943,11.97967229,57.68813283,11.97966833,15:54:06.225126,0.00506,0.00000,0.00000,-0.14422,0.00000,0.00125,0.00179,0.00047,-0.05197,-0.11267,0.99094,3.56190,0.00000,2.23512,2.23512,1.19609,0.97491,3.51305,0.96089,1.35287,2.06168,2.06168,A,155406.10
3.57796,57.68812960,11.97967209,57.68813283,11.97966833,15:54:06.235717,0.00518,0.00000,0.00000,-0.14431,0.00000,-0.00348,0.00011,-0.00014,-0.05106,-0.11645,0.99162,3.57221,0.00000,2.20910,2.20910,1.18433,0.99381,3.51305,0.96089,1.35287,2.06168,2.06168,A,155406.10
3.58869,57.68812977,11.97967190,57.68813283,11.97966833,15:54:06.246453,0.00551,0.00000,0.00000,-0.14433,0.00000,-0.00013,0.00270,-0.00029,-0.05130,-0.11352,0.99107,3.58297,0.00000,2.18699,2.18699,1.17316,1.01176,3.51305,0.96089,1.35287,2.06168,2.06168,A,155406.10
3.60004,57.68812992,11.97967173,57.68813283,11.97966833,15:54:06.257799,0.00647,0.00000,0.00000,-0.14437,0.00000,-0.00119,-0.00066,-0.00365,-0.05039,-0.11468,0.99070,3.59399,0.00000,2.16819,2.16819,1.16254,1.02882,3.51305,0.96089,1.35287,2.06168,2.06168,A,155406.10
3.60966,57.68813006,11.97967156,57.68813283,11.97966833,15:54:06.267434,0.00567,0.00000,0.00000,-0.14441,0.00000,-0.00013,-0.00066,-0.00304,-0.05161,-0.11499,0.99009,3.60359,0.00000,2.15222,2.15222,1.15246,1.04502,3.51305,0.96089,1.35287,2.06168,2.06168,A,155406.10
3.64172,57.68813020,11.97967140,57.68813333,11.97966833,15:54:06.299489,0.02734,0.00000,1.50000,-0.14444,0.00000,-0.00211,0.00087,0.00169,-0.05435,-0.11328,0.99174,3.61486,0.00000,2.13864,2.13864,1.14288,1.06041,3.63439,0.96089,1.40847,1.57080,1.57080,A,155406.20
3.65533,57.68813036,11.97967124,57.68813333,11.97966833,15:54:06.313088,0.00756,0.00000,0.00000,-0.14447,0.00000,-0.00028,-0.00264,0.00108,-0.05240,-0.11431,0.98997,3.64978,0.00000,2.05346,2.05346,1.13378,1.07782,3.63439,0.96089,1.40847,1.57080,1.57080,A,155406.20
3.66325,57.68813051,11.97967110,57.68813333,11.97966833,15:54:06.321003,0.00508,0.00000,0.00000,-0.14450,0.00000,0.00339,0.00041,-0.00029,-0.05222,-0.11602,0.99119,3.65778,0.00000,1.98106,1.98106,1.12514,1.09435,3.63439,0.96089,1.40847,1.57080,1.57080,A,155406.20
3.67394,57.68813065,11.97967096,57.68813333,11.97966833,15:54:06.331693,0.00520,0.00000,0.00000,-0.14456,0.00000,-0.00181,0.00026,0.00124,-0.05069,-0.11602,0.99076,3.66818,0.00000,1.91952,1.91952,1.11693,1.11006,3.63439,0.96089,1.40847,1.57080,1.57080,A,155406.20
3.68422,57.68813078,11.97967083,57.68813333,11.97966833,15:54:06.342635,0.00507,0.00000,0.00000,-0.14459,0.00000,0.00110,-0.00188,-0.00044,-0.05051,-0.11578,0.99204,3.67877,0.00000,1.86721,1.86721,1.10913,1.12498,3.63439,0.96089,1.40847,1.57080,1.57080,A,155406.20
3.69479,57.68813091,11.97967070,57.68813333,11.97966833,15:54:06.352542,0.00524,0.00000,0.00000,-0.14460,0.00000,0.00018,0.00240,0.00215,-0.05209,-0.11352,0.99101,3.68907,0.00000,1.82275,1.82275,1.10171,1.13915,3.63439,0.96089,1.40847,1.57080,1.57080,A,155406.20
3.70540,57.68813103,11.97967058,57.68813333,11.97966833,15:54:06.363156,0.00559,0.00000,0.00000,-0.14460,0.00000,0.00323,0.00026,0.00001,-0.05325,-0.11541,0.99070,3.69963,0.00000,1.78496,1.78496,1.09467,1.15262,3.63439,0.96089,1.40847,1.57080,1.57080,A,155406.20
3.71529,57.68813115,11.97967047,57.68813333,11.97966833,15:54:06.373038,0.00507,0.00000,0.00000,-0.14461,0.00000,0.00049,0.00240,-0.00274,-0.05112,-0.11370,0.99223,3.70981,0.00000,1.75283,1.75283,1.08798,1.16541,3.63439,0.96089,1.40847,1.57080,1.57080,A,155406.20
3.72584,57.68813126,11.97967036,57.68813333,11.97966833,15:54:06.383594,0.00515,0.00000,0.00000,-0.14466,0.00000,-0.00028,-0.00020,0.00001,-0.05222,-0.11572,0.98875,3.72011,0.00000,1.72553,1.72553,1.08163,1.17756,3.63439,0.96089,1.40847,1.57080,1.57080,A,155406.20
3.75499,57.68813136,11.97967026,57.68813383,11.97966917,15:54:06.412755,0.02389,0.00000,1.50000,-0.14473,0.00000,-0.00165,-0.00020,-0.00060,-0.05161,-0.11651,0.99113,3.73072,0.00000,1.70232,1.70232,1.07559,1.18911,3.74805,1.01042,1.46407,0.84304,0.84304,A,155406.30
3.77375,57.68813148,11.97967021,57.68813383,11.97966917,15:54:06.431508,0.00655,0.00000,0.00000,-0.14467,0.00000,0.00140,-0.00157,0.00169,-0.05008,-0.11273,0.99265,3.76731,0.00000,1.57343,1.57343,1.07233,1.20286,3.74805,1.01042,1.46407,0.84304,0.84304,A,155406.30
3.78270,57.68813160,11.97967016,57.68813383,11.97966917,15:54:06.440457,0.00510,0.00000,0.00000,-0.14476,0.00000,-0.00639,-0.00111,0.00047,-0.05258,-0.11499,0.99119,3.77702,0.00000,1.46387,1.46387,1.06924,1.21592,3.74805,1.01042,1.46407,0.84304,0.84304,A,155406.30
3.79356,57.68813171,11.97967011,57.68813383,11.97966917,15:54:06.451309,0.00555,0.00000,0.00000,-0.14482,0.00000,-0.00257,0.00331,0.00215,-0.05215,-0.11505,0.99070,3.78761,0.00000,1.37075,1.37075,1.06630,1.22832,3.74805,1.01042,1.46407,0.84304,0.84304,A,155406.30
3.80344,57.68813182,11.97967006,57.68813383,11.97966917,15:54:06.461197,0.00503,0.00000,0.00000,-0.14480,0.00000,0.00369,0.00316,-0.00060,-0.05039,-0.11480,0.99113,3.79796,0.00000,1.29159,1.29159,1.06350,1.24011,3.74805,1.01042,1.46407,0.84304,0.84304,A,155406.30
3.81460,57.68813192,11.97967002,57.68813383,11.97966917,15:54:06.472362,0.00524,0.00000,0.00000,-0.14478,0.00000,0.00232,0.00133,0.00246,-0.04904,-0.11309,0.99046,3.80889,0.00000,1.22431,1.22431,1.06085,1.25131,3.74805,1.01042,1.46407,0.84304,0.84304,A,155406.30
3.82702,57.68813202,11.97966997,57.68813383,11.97966917,15:54:06.484799,0.00726,0.00000,0.00000,-0.14478,0.00000,-0.00028,-0.00234,-0.00090,-0.05331,-0.11328,0.99149,3.81937,0.00000,1.16712,1.16712,1.05833,1.26195,3.74805,1.01042,1.46407,0.84304,0.84304,A,155406.30
3.83520,57.68813211,11.97966993,57.68813383,11.97966917,15:54:06.492952,0.00504,0.00000,0.00000,-0.14480,0.00000,0.00125,0.00026,-0.00167,-0.05374,-0.11474,0.99094,3.82974,0.00000,1.11851,1.11851,1.05593,1.27205,3.74805,1.01042,1.46407,0.84304,0.84304,A,155406.30
3.84801,57.68813219,11.97966989,57.68813383,11.97966917,15:54:06.505763,0.00715,0.00000,0.00000,-0.14487,0.00000,-0.00440,0.00011,0.00001,-0.05252,-0.11450,0.99192,3.84177,0.00000,1.07719,1.07719,1.05366,1.28165,3.74805,1.01042,1.46407,0.84304,0.84304,A,155406.30
3.87741,57.68813227,11.97966986,57.68813333,11.97967333,15:54:06.535174,0.02615,0.00000,1.50000,-0.14487,0.00000,0.00033,0.00179,0.00108,-0.05081,-0.11340,0.99229,3.85236,0.00000,1.04207,1.04207,1.05150,1.29077,3.87025,1.25808,1.40847,-0.22084,-0.22084,A,155406.40
3.89722,57.68813233,11.97967003,57.68813333,11.97967333,15:54:06.554987,0.00824,0.00000,0.00000,-0.14485,0.00000,0.00079,-0.00005,-0.00136,-0.05331,-0.11413,0.99094,3.89067,0.00000,0.85263,0.85263,1.06183,1.29666,3.87025,1.25808,1.40847,-0.22084,-0.22084,A,155406.40
3.90470,57.68813238,11.97967020,57.68813333,11.97967333,15:54:06.562456,0.00530,0.00000,0.00000,-0.14484,0.00000,0.00110,0.00072,0.00062,-0.05362,-0.11303,0.99021,3.89902,0.00000,0.69161,0.69161,1.07164,1.30225,3.87025,1.25808,1.40847,-0.22084,-0.22084,A,155406.40
3.91558,57.68813243,11.97967035,57.68813333,11.97967333,15:54:06.573330,0.00579,0.00000,0.00000,-0.14485,0.00000,0.00171,0.00179,-0.00044,-0.05014,-0.11523,0.99186,3.90936,0.00000,0.55474,0.55474,1.08096,1.30756,3.87025,1.25808,1.40847,-0.22084,-0.22084,A,155406.40
3.92556,57.68813247,11.97967050,57.68813333,11.97967333,15:54:06.583314,0.00536,0.00000,0.00000,-0.14486,0.00000,-0.00119,-0.00050,0.00047,-0.05118,-0.11340,0.99308,3.91981,0.00000,0.43841,0.43841,1.08982,1.31261,3.87025,1.25808,1.40847,-0.22084,-0.22084,A,155406.40
3.93569,57.68813251,11.97967064,57.68813333,11.97967333,15:54:06.593439,0.00509,0.00000,0.00000,-0.14486,0.00000,0.00064,-0.00035,-0.00029,-0.05386,-0.11358,0.99168,3.93022,0.00000,0.33952,0.33952,1.09823,1.31740,3.87025,1.25808,1.40847,-0.22084,-0.22084,A,155406.40
3.94601,57.68813256,11.97967078,57.68813333,11.97967333,15:54:06.603760,0.00518,0.00000,0.00000,-0.14486,0.00000,0.00262,-0.00356,0.00032,-0.05301,-0.11499,0.99290,3.94027,0.00000,0.25547,0.25547,1.10622,1.32195,3.87025,1.25808,1.40847,-0.22084,-0.22084,A,155406.40
3.95744,57.68813259,11.97967091,57.68813333,11.97967333,15:54:06.615193,0.00620,0.00000,0.00000,-0.14488,0.00000,0.00018,-0.00020,-0.00350,-0.05057,-0.11444,0.98808,3.95087,0.00000,0.18402,0.18402,1.11381,1.32628,3.87025,1.25808,1.40847,-0.22084,-0.22084,A,155406.40
3.96718,57.68813263,11.97967103,57.68813333,11.97967333,15:54:06.624932,0.00555,0.00000,0.00000,-0.14490,0.00000,0.00049,0.00072,0.00032,-0.05222,-0.11462,0.99143,3.96103,0.00000,0.12329,0.12329,1.12103,1.33039,3.87025,1.25808,1.40847,-0.22084,-0.22084,A,155406.40
4.00497,57.68813267,11.97967114,57.68813167,11.97967583,15:54:06.662743,0.03295,0.00000,1.50000,-0.14491,0.00000,-0.00074,-0.00111,-0.00106,-0.05264,-0.11364,0.99223,3.97163,0.00000,0.07167,0.07167,1.12788,1.33429,3.99853,1.40667,1.22314,-0.89496,-0.89496,A,155406.60
4.02375,57.68813262,11.97967138,57.68813167,11.97967583,15:54:06.681501,0.00679,0.00000,0.00000,-0.14489,0.00000,0.00018,-0.00096,0.00078,-0.05295,-0.11261,0.99113,4.01824,0.00000,-0.07332,-0.07332,1.14182,1.32873,3.99853,1.40667,1.22314,-0.89496,-0.89496,A,155406.60
4.03269,57.68813257,11.97967160,57.68813167,11.97967583,15:54:06.690453,0.00534,0.00000,0.00000,-0.14488,0.00000,0.00247,0.00087,0.00001,-0.05386,-0.11383,0.99198,4.02698,0.00000,-0.19657,-0.19657,1.15506,1.32345,3.99853,1.40667,1.22314,-0.89496,-0.89496,A,155406.60
4.04280,57.68813252,11.97967181,57.68813167,11.97967583,15:54:06.700552,0.00504,0.00000,0.00000,-0.14492,0.00000,-0.00226,-0.00005,-0.00075,-0.05392,-0.11419,0.99040,4.03714,0.00000,-0.30133,-0.30133,1.16764,1.31844,3.99853,1.40667,1.22314,-0.89496,-0.89496,A,155406.60
4.05459,57.68813248,11.97967201,57.68813167,11.97967583,15:54:06.712344,0.00606,0.00000,0.00000,-0.14491,0.00000,0.00186,-0.00127,0.00139,-0.05215,-0.11395,0.99033,4.04854,0.00000,-0.39037,-0.39037,1.17959,1.31367,3.99853,1.40667,1.22314,-0.89496,-0.89496,A,155406.60
4.06546,57.68813244,11.97967220,57.68813167,11.97967583,15:54:06.723214,0.00641,0.00000,0.00000,-0.14491,0.00000,0.00400,-0.00066,-0.00243,-0.05148,-0.11621,0.99332,4.05965,0.00000,-0.46606,-0.46606,1.19095,1.30915,3.99853,1.40667,1.22314,-0.89496,-0.89496,A,155406.60
4.07621,57.68813240,11.97967239,57.68813167,11.97967583,15:54:06.734509,0.00650,0.00000,0.00000,-0.14491,0.00000,0.00125,0.00240,-0.00243,-0.05423,-0.11431,0.99155,4.06915,0.00000,-0.53040,-0.53040,1.20173,1.30485,3.99853,1.40667,1.22314,-0.89496,-0.89496,A,155406.60
4.08572,57.68813236,11.97967256,57.68813167,11.97967583,15:54:06.743477,0.00560,0.00000,0.00000,-0.14493,0.00000,0.00140,0.00179,-0.00121,-0.05240,-0.11578,0.99186,4.07995,0.00000,-0.58508,-0.58508,1.21198,1.30076,3.99853,1.40667,1.22314,-0.89496,-0.89496,A,155406.60
4.09613,57.68813233,11.97967272,57.68813167,11.97967583,15:54:06.754463,0.00562,0.00000,0.00000,-0.14495,0.00000,-0.00181,-0.00066,-0.00167,-0.05033,-0.11303,0.99033,4.09011,0.00000,-0.63156,-0.63156,1.22171,1.29688,3.99853,1.40667,1.22314,-0.89496,-0.89496,A,155406.60
4.12585,57.68813230,11.97967288,57.68813167,11.97967883,15:54:06.783615,0.02509,0.00000,1.50000,-0.14500,0.00000,-0.00287,-0.00020,0.00032,-0.05344,-0.11468,0.99101,4.10273,0.00000,-0.67107,-0.67107,1.23096,1.29319,4.11873,1.58498,1.22314,0.00000,0.00000,A,155406.70
4.14266,57.68813227,11.97967317,57.68813167,11.97967883,15:54:06.800418,0.00663,0.00000,0.00000,-0.14498,0.00000,0.00232,-0.00188,-0.00014,-0.05155,-0.11706,0.99186,4.13672,0.00000,-0.57041,-0.57041,1.24866,1.28969,4.11873,1.58498,1.22314,0.00000,0.00000,A,155406.70
4.15141,57.68813224,11.97967346,57.68813167,11.97967883,15:54:06.809160,0.00497,0.00000,0.00000,-0.14502,0.00000,-0.00196,-0.00127,0.00017,-0.05209,-0.11474,0.99052,4.14596,0.00000,-0.48485,-0.48485,1.26548,1.28636,4.11873,1.58498,1.22314,0.00000,0.00000,A,155406.70
4.16279,57.68813221,11.97967373,57.68813167,11.97967883,15:54:06.820542,0.00602,0.00000,0.00000,-0.14503,0.00000,-0.00043,0.00041,-0.00106,-0.05215,-0.11358,0.99033,4.15640,0.00000,-0.41212,-0.41212,1.28145,1.28320,4.11873,1.58498,1.22314,0.00000,0.00000,A,155406.70
4.17247,57.68813218,11.97967398,57.68813167,11.97967883,15:54:06.830241,0.00529,0.00000,0.00000,-0.14511,0.00000,-0.00562,-0.00234,0.00001,-0.05429,-0.11444,0.98997,4.16679,0.00000,-0.35031,-0.35031,1.29663,1.28020,4.11873,1.58498,1.22314,0.00000,0.00000,A,155406.70
4.18270,57.68813215,11.97967422,57.68813167,11.97967883,15:54:06.840462,0.00514,0.00000,0.00000,-0.14513,0.00000,0.00049,0.00179,-0.00060,-0.05435,-0.11523,0.98972,4.17694,0.00000,-0.29776,-0.29776,1.31105,1.27735,4.11873,1.58498,1.22314,0.00000,0.00000,A,155406.70
4.19352,57.68813213,11.97967445,57.68813167,11.97967883,15:54:06.851272,0.00556,0.00000,0.00000,-0.14511,0.00000,0.00140,0.00072,-0.00136,-0.05246,-0.11358,0.99210,4.18774,0.00000,-0.25310,-0.25310,1.32474,1.27464,4.11873,1.58498,1.22314,0.00000,0.00000,A,155406.70
4.20337,57.68813211,11.97967467,57.68813167,11.97967883,15:54:06.861125,0.00516,0.00000,0.00000,-0.14507,0.00000,0.00430,0.00087,0.00185,-0.05264,-0.11358,0.99290,4.19788,0.00000,-0.21513,-0.21513,1.33776,1.27206,4.11873,1.58498,1.22314,0.00000,0.00000,A,155406.70
4.21445,57.68813208,11.97967488,57.68813167,11.97967883,15:54:06.872203,0.00573,0.00000,0.00000,-0.14514,0.00000,-0.00471,-0.00142,0.00108,-0.05209,-0.11444,0.99046,4.20873,0.00000,-0.18286,-0.18286,1.35012,1.26962,4.11873,1.58498,1.22314,0.00000,0.00000,A,155406.70
4.24215,57.68813206,11.97967508,57.68813167,11.97967850,15:54:06.899920,0.02303,0.00000,1.50000,-0.14514,0.00000,0.00140,0.00118,0.00001,-0.05185,-0.11480,0.99088,4.21872,0.00000,-0.15543,-0.15543,1.36186,1.26729,4.23480,1.56517,1.22314,3.14159,3.14159,A,155406.80
4.26056,57.68813204,11.97967525,57.68813167,11.97967850,15:54:06.918338,0.00721,0.00000,0.00000,-0.14511,0.00000,0.00110,-0.00005,-0.00121,-0.05246,-0.11413,0.99204,4.25479,0.00000,0.33912,0.33912,1.37203,1.26509,4.23480,1.56517,1.22314,3.14159,3.14159,A,155406.80
4.26911,57.68813202,11.97967541,57.68813167,11.97967850,15:54:06.926867,0.00535,0.00000,0.00000,-0.14515,0.00000,-0.00425,0.00438,-0.00044,-0.05478,-0.11376,0.99204,4.26337,0.00000,0.75949,0.75949,1.38168,1.26299,4.23480,1.56517,1.22314,3.14159,3.14159,A,155406.80
4.27923,57.68813201,11.97967557,57.68813167,11.97967850,15:54:06.936978,0.00507,0.00000,0.00000,-0.14518,0.00000,-0.00104,0.00209,-0.00335,-0.05350,-0.11450,0.99229,4.27376,0.00000,1.11681,1.11681,1.39086,1.26100,4.23480,1.56517,1.22314,3.14159,3.14159,A,155406.80
4.29004,57.68813199,11.97967571,57.68813167,11.97967850,15:54:06.947800,0.00533,0.00000,0.00000,-0.14517,0.00000,0.00110,0.00118,-0.00319,-0.05130,-0.11419,0.99235,4.28414,0.00000,1.42053,1.42053,1.39957,1.25910,4.23480,1.56517,1.22314,3.14159,3.14159,A,155406.80
4.30018,57.68813197,11.97967585,57.68813167,11.97967850,15:54:06.958188,0.00506,0.00000,0.00000,-0.14518,0.00000,-0.00028,-0.00279,0.00032,-0.05124,-0.11376,0.98911,4.29472,0.00000,1.67869,1.67869,1.40785,1.25731,4.23480,1.56517,1.22314,3.14159,3.14159,A,155406.80
4.31298,57.68813196,11.97967599,57.68813167,11.97967850,15:54:06.970737,0.00746,0.00000,0.00000,-0.14519,0.00000,0.00171,-0.00035,-0.00014,-0.04965,-0.11505,0.99351,4.30491,0.00000,1.89812,1.89812,1.41572,1.25560,4.23480,1.56517,1.22314,3.14159,3.14159,A,155406.80
4.32128,57.68813194,11.97967611,57.68813167,11.97967850,15:54:06.979035,0.00536,0.00000,0.00000,-0.14518,0.00000,0.00232,-0.00173,-0.00090,-0.05319,-0.11505,0.99186,4.31552,0.00000,2.08464,2.08464,1.42319,1.25398,4.23480,1.56517,1.22314,3.14159,3.14159,A,155406.80
4.33305,57.68813193,11.97967623,57.68813167,11.97967850,15:54:06.990808,0.00674,0.00000,0.00000,-0.14518,0.00000,0.00446,0.00423,0.00154,-0.05234,-0.11663,0.99101,4.32682,0.00000,2.24318,2.24318,1.43029,1.25243,4.23480,1.56517,1.22314,3.14159,3.14159,A,155406.80
4.36136,57.68813192,11.97967634,57.68813133,11.97967800,15:54:07.019118,0.02390,0.00000,1.50000,-0.14518,0.00000,0.00125,0.00408,-0.00197,-0.05337,-0.11480,0.99210,4.33776,0.00000,2.37795,2.37795,1.43703,1.25097,4.35445,1.53545,1.18608,4.03656,-2.24663,A,155406.90
4.37730,57.68813189,11.97967643,57.68813133,11.97967800,15:54:07.035053,0.00588,0.00000,0.00000,-0.14539,0.00000,-0.00501,-0.00096,0.00124,-0.05405,-0.11633,0.99265,4.37148,0.00000,2.62674,2.62674,1.44195,1.24772,4.35445,1.53545,1.18608,4.03656,-2.24663,A,155406.90
4.38690,57.68813186,11.97967651,57.68813133,11.97967800,15:54:07.044879,0.00508,0.00000,0.00000,-0.14536,0.00000,0.00140,-0.00249,0.00032,-0.05222,-0.11303,0.99253,4.38141,0.00000,2.83821,2.83821,1.44663,1.24464,4.35445,1.53545,1.18608,4.03656,-2.24663,A,155406.90
4.39773,57.68813183,11.97967658,57.68813133,11.97967800,15:54:07.055484,0.00551,0.00000,0.00000,-0.14537,0.00000,0.00094,0.00041,0.00001,-0.05423,-0.11462,0.99149,4.39197,0.00000,3.01796,3.01796,1.45107,1.24171,4.35445,1.53545,1.18608,4.03656,-2.24663,A,155406.90
4.40938,57.68813181,11.97967665,57.68813133,11.97967800,15:54:07.067138,0.00676,0.00000,0.00000,-0.14538,0.00000,0.00079,0.00133,0.00032,-0.05356,-0.11535,0.99277,4.40281,0.00000,3.17075,3.17075,1.45529,1.23893,4.35445,1.53545,1.18608,4.03656,-2.24663,A,155406.90
4.41874,57.68813178,11.97967672,57.68813133,11.97967800,15:54:07.076527,0.00589,0.00000,0.00000,-0.14539,0.00000,0.00049,-0.00173,-0.00060,-0.05142,-0.11468,0.99192,4.41229,0.00000,3.30062,3.30062,1.45930,1.23629,4.35445,1.53545,1.18608,4.03656,-2.24663,A,155406.90
4.42909,57.68813176,11.97967678,57.68813133,11.97967800,15:54:07.086846,0.00573,0.00000,0.00000,-0.14538,0.00000,0.00171,-0.00203,0.00047,-0.05319,-0.11419,0.99149,4.42322,0.00000,3.41101,3.41101,1.46310,1.23378,4.35445,1.53545,1.18608,4.03656,-2.24663,A,155406.90
4.43889,57.68813174,11.97967684,57.68813133,11.97967800,15:54:07.096634,0.00512,0.00000,0.00000,-0.14537,0.00000,0.00293,-0.00157,0.00307,-0.05234,-0.11511,0.99162,4.43315,0.00000,3.50484,3.50484,1.46672,1.23139,4.35445,1.53545,1.18608,4.03656,-2.24663,A,155406.90
4.44953,57.68813172,11.97967690,57.68813133,11.97967800,15:54:07.107286,0.00537,0.00000,0.00000,-0.14539,0.00000,-0.00135,-0.00325,0.00047,-0.05234,-0.11419,0.99363,4.44377,0.00000,3.58460,3.58460,1.47016,1.22913,4.35445,1.53545,1.18608,4.03656,-2.24663,A,155406.90
4.47888,57.68813170,11.97967696,57.68813050,11.97967717,15:54:07.136642,0.02432,0.00000,1.50000,-0.14535,0.00000,0.00155,-0.00096,-0.00350,-0.05295,-0.11261,0.99448,4.45433,0.00000,3.65239,3.65239,1.47342,1.22698,4.47254,1.48592,1.09342,4.22150,-2.06168,A,155407.00
4.49877,57.68813164,11.97967697,57.68813050,11.97967717,15:54:07.156523,0.00776,0.00000,0.00000,-0.14515,0.00000,0.00598,-0.00081,-0.00121,-0.05368,-0.11572,0.99241,4.49274,0.00000,3.73776,3.73776,1.47405,1.22030,4.47254,1.48592,1.09342,4.22150,-2.06168,A,155407.00
4.50651,57.68813158,11.97967698,57.68813050,11.97967717,15:54:07.164264,0.00510,0.00000,0.00000,-0.14514,0.00000,-0.00089,-0.00249,-0.00075,-0.05276,-0.11291,0.99265,4.50081,0.00000,3.81032,3.81032,1.47464,1.21395,4.47254,1.48592,1.09342,4.22150,-2.06168,A,155407.00
4.51717,57.68813153,11.97967699,57.68813050,11.97967717,15:54:07.174923,0.00537,0.00000,0.00000,-0.14519,0.00000,-0.00226,0.00133,0.00108,-0.05209,-0.11468,0.99137,4.51142,0.00000,3.87200,3.87200,1.47520,1.20793,4.47254,1.48592,1.09342,4.22150,-2.06168,A,155407.00
4.52728,57.68813148,11.97967700,57.68813050,11.97967717,15:54:07.185030,0.00507,0.00000,0.00000,-0.14515,0.00000,0.00385,0.00057,-0.00243,-0.05337,-0.11389,0.99137,4.52179,0.00000,3.92442,3.92442,1.47574,1.20220,4.47254,1.48592,1.09342,4.22150,-2.06168,A,155407.00
4.53801,57.68813143,11.97967700,57.68813050,11.97967717,15:54:07.195770,0.00519,0.00000,0.00000,-0.14518,0.00000,-0.00364,0.00301,0.00047,-0.05374,-0.11273,0.99119,4.53227,0.00000,3.96899,3.96899,1.47625,1.19676,4.47254,1.48592,1.09342,4.22150,-2.06168,A,155407.00
4.55112,57.68813138,11.97967701,57.68813050,11.97967717,15:54:07.208878,0.00668,0.00000,0.00000,-0.14521,0.00000,0.00049,0.00072,0.00139,-0.05423,-0.11566,0.99033,4.54479,0.00000,4.00686,4.00686,1.47673,1.19160,4.47254,1.48592,1.09342,4.22150,-2.06168,A,155407.00
4.56048,57.68813134,11.97967702,57.68813050,11.97967717,15:54:07.218245,0.00564,0.00000,0.00000,-0.14523,0.00000,0.00094,-0.00188,-0.00014,-0.05380,-0.11560,0.99155,4.55447,0.00000,4.03906,4.03906,1.47719,1.18669,4.47254,1.48592,1.09342,4.22150,-2.06168,A,155407.00
4.57210,57.68813130,11.97967703,57.68813050,11.97967717,15:54:07.230092,0.00702,0.00000,0.00000,-0.14524,0.00000,-0.00043,-0.00035,-0.00060,-0.05398,-0.11389,0.99088,4.56498,0.00000,4.06643,4.06643,1.47763,1.18202,4.47254,1.48592,1.09342,4.22150,-2.06168,A,155407.00
4.60922,57.68813126,11.97967703,57.68813050,11.97967683,15:54:07.267013,0.03374,0.00000,1.50000,-0.14518,0.00000,0.00659,-0.00020,-0.00090,-0.05124,-0.11450,0.99168,4.57513,0.00000,4.08969,4.08969,1.47804,1.17759,4.60296,1.46611,1.09342,3.14159,3.14159,A,155407.20
4.62751,57.68813122,11.97967702,57.68813050,11.97967683,15:54:07.285264,0.00612,0.00000,0.00000,-0.14516,0.00000,0.00094,0.00347,0.00108,-0.05325,-0.11474,0.99137,4.62200,0.00000,3.94747,3.94747,1.47745,1.17338,4.60296,1.46611,1.09342,3.14159,3.14159,A,155407.20
4.63825,57.68813118,11.97967701,57.68813050,11.97967683,15:54:07.296004,0.00646,0.00000,0.00000,-0.14516,0.00000,0.00217,-0.00096,-0.00243,-0.05502,-0.11492,0.99210,4.63216,0.00000,3.82659,3.82659,1.47688,1.16939,4.60296,1.46611,1.09342,3.14159,3.14159,A,155407.20
4.64725,57.68813115,11.97967701,57.68813050,11.97967683,15:54:07.305001,0.00506,0.00000,0.00000,-0.14515,0.00000,0.00003,0.00011,-0.00106,-0.05344,-0.11340,0.99265,4.64178,0.00000,3.72384,3.72384,1.47634,1.16559,4.60296,1.46611,1.09342,3.14159,3.14159,A,155407.20
4.65793,57.68813112,11.97967700,57.68813050,11.97967683,15:54:07.315682,0.00527,0.00000,0.00000,-0.14516,0.00000,0.00049,-0.00050,0.00154,-0.05197,-0.11413,0.99094,4.65213,0.00000,3.63650,3.63650,1.47583,1.16198,4.60296,1.46611,1.09342,3.14159,3.14159,A,155407.20
4.66931,57.68813109,11.97967699,57.68813050,11.97967683,15:54:07.327059,0.00625,0.00000,0.00000,-0.14518,0.00000,-0.00211,-0.00188,0.00093,-0.05240,-0.11340,0.99155,4.66350,0.00000,3.56227,3.56227,1.47534,1.15855,4.60296,1.46611,1.09342,3.14159,3.14159,A,155407.20
4.67887,57.68813106,11.97967698,57.68813050,11.97967683,15:54:07.336625,0.00515,0.00000,0.00000,-0.14522,0.00000,-0.00028,-0.00050,-0.00136,-0.05398,-0.11621,0.98997,4.67338,0.00000,3.49917,3.49917,1.47488,1.15529,4.60296,1.46611,1.09342,3.14159,3.14159,A,155407.20
4.68973,57.68813103,11.97967697,57.68813050,11.97967683,15:54:07.347487,0.00561,0.00000,0.00000,-0.14529,0.00000,-0.00272,0.00087,0.00200,-0.05307,-0.11621,0.98942,4.68387,0.00000,3.44553,3.44553,1.47444,1.15220,4.60296,1.46611,1.09342,3.14159,3.14159,A,155407.20
4.69959,57.68813100,11.97967697,57.68813050,11.97967683,15:54:07.357350,0.00507,0.00000,0.00000,-0.14534,0.00000,-0.00348,-0.00356,-0.00106,-0.05264,-0.11474,0.99302,4.69413,0.00000,3.39994,3.39994,1.47403,1.14926,4.60296,1.46611,1.09342,3.14159,3.14159,A,155407.20
4.72774,57.68813098,11.97967696,57.68813033,11.97967767,15:54:07.385496,0.02297,0.00000,1.50000,-0.14535,0.00000,0.00217,-0.00035,-0.00151,-0.05295,-0.11602,0.99308,4.70455,0.00000,3.36119,3.36119,1.47363,1.14647,4.72106,1.51564,1.07488,5.92515,-0.35804,A,155407.30
4.74513,57.68813094,11.97967700,57.68813033,11.97967767,15:54:07.402884,0.00682,0.00000,0.00000,-0.14535,0.00000,0.00018,-0.00127,0.00169,-0.05209,-0.11364,0.99033,4.73933,0.00000,3.74578,3.74578,1.47573,1.14289,4.72106,1.51564,1.07488,5.92515,-0.35804,A,155407.30
4.75392,57.68813091,11.97967703,57.68813033,11.97967767,15:54:07.411668,0.00517,0.00000,0.00000,-0.14536,0.00000,0.00293,-0.00111,-0.00304,-0.05234,-0.11639,0.99113,4.74818,0.00000,4.07269,4.07269,1.47773,1.13949,4.72106,1.51564,1.07488,5.92515,-0.35804,A,155407.30
4.76456,57.68813089,11.97967706,57.68813033,11.97967767,15:54:07.422322,0.00539,0.00000,0.00000,-0.14538,0.00000,-0.00150,-0.00142,0.00108,-0.05215,-0.11456,0.99412,4.75883,0.00000,4.35056,4.35056,1.47962,1.13626,4.72106,1.51564,1.07488,5.92515,-0.35804,A,155407.30
4.77592,57.68813086,11.97967709,57.68813033,11.97967767,15:54:07.433710,0.00636,0.00000,0.00000,-0.14543,0.00000,-0.00058,0.00087,0.00001,-0.05167,-0.11627,0.98972,4.76895,0.00000,4.58675,4.58675,1.48142,1.13319,4.72106,1.51564,1.07488,5.92515,-0.35804,A,155407.30
4.78551,57.68813083,11.97967712,57.68813033,11.97967767,15:54:07.443276,0.00566,0.00000,0.00000,-0.14544,0.00000,0.00079,0.00102,-0.00212,-0.05142,-0.11486,0.99101,4.77954,0.00000,4.78751,4.78751,1.48313,1.13027,4.72106,1.51564,1.07488,5.92515,-0.35804,A,155407.30
4.79659,57.68813081,11.97967715,57.68813033,11.97967767,15:54:07.454360,0.00634,0.00000,0.00000,-0.14551,0.00000,-0.00242,0.00362,-0.00151,-0.05112,-0.11663,0.98979,4.78995,0.00000,4.95815,4.95815,1.48476,1.12751,4.72106,1.51564,1.07488,5.92515,-0.35804,A,155407.30
4.80595,57.68813078,11.97967717,57.68813033,11.97967767,15:54:07.463701,0.00519,0.00000,0.00000,-0.14555,0.00000,-0.00303,0.00270,-0.00243,-0.05124,-0.11450,0.99058,4.80019,0.00000,5.10320,5.10320,1.48630,1.12487,4.72106,1.51564,1.07488,5.92515,-0.35804,A,155407.30
4.81809,57.68813076,11.97967720,57.68813033,11.97967767,15:54:07.476755,0.00693,0.00000,0.00000,-0.14556,0.00000,0.00201,0.00026,0.00062,-0.05167,-0.11608,0.98979,4.81134,0.00000,5.22649,5.22649,1.48777,1.12237,4.72106,1.51564,1.07488,5.92515,-0.35804,A,155407.30
4.84446,57.68813074,11.97967722,57.68813100,11.97968083,15:54:07.502232,0.02256,0.00000,1.50000,-0.14556,0.00000,0.00140,-0.00188,0.00169,-0.05392,-0.11438,0.99107,4.82196,0.00000,5.33129,5.33129,1.48916,1.12000,4.83808,1.70385,1.14901,6.65838,0.37520,A,155407.40
4.86201,57.68813075,11.97967740,57.68813100,11.97968083,15:54:07.519766,0.00607,0.00000,0.00000,-0.14553,0.00000,0.00155,0.00057,-0.00258,-0.05161,-0.11572,0.99064,4.85598,0.00000,5.53036,5.53036,1.49990,1.12145,4.83808,1.70385,1.14901,6.65838,0.37520,A,155407.40
4.87260,57.68813076,11.97967757,57.68813100,11.97968083,15:54:07.530372,0.00613,0.00000,0.00000,-0.14554,0.00000,0.00003,-0.00005,-0.00060,-0.05203,-0.11444,0.99168,4.86620,0.00000,5.69956,5.69956,1.51009,1.12283,4.83808,1.70385,1.14901,6.65838,0.37520,A,155407.40
4.88243,57.68813078,11.97967774,57.68813100,11.97968083,15:54:07.540184,0.00570,0.00000,0.00000,-0.14551,0.00000,0.00491,0.00209,0.00078,-0.05630,-0.11523,0.99180,4.87670,0.00000,5.84338,5.84338,1.51978,1.12414,4.83808,1.70385,1.14901,6.65838,0.37520,A,155407.40
4.89265,57.68813079,11.97967789,57.68813100,11.97968083,15:54:07.550411,0.00551,0.00000,0.00000,-0.14555,0.00000,-0.00089,-0.00188,-0.00121,-0.05069,-0.11572,0.99040,4.88674,0.00000,5.96563,5.96563,1.52899,1.12538,4.83808,1.70385,1.14901,6.65838,0.37520,A,155407.40
4.90262,57.68813080,11.97967804,57.68813100,11.97968083,15:54:07.560379,0.00508,0.00000,0.00000,-0.14559,0.00000,-0.00135,-0.00066,-0.00090,-0.05130,-0.11578,0.98863,4.89692,0.00000,6.06955,6.06955,1.53773,1.12656,4.83808,1.70385,1.14901,6.65838,0.37520,A,155407.40
4.91424,57.68813081,11.97967818,57.68813100,11.97968083,15:54:07.571999,0.00631,0.00000,0.00000,-0.14562,0.00000,-0.00196,-0.00142,-0.00014,-0.05185,-0.11468,0.99174,4.90761,0.00000,6.15787,6.15787,1.54604,1.12769,4.83808,1.70385,1.14901,6.65838,0.37520,A,155407.40
4.92460,57.68813082,11.97967831,57.68813100,11.97968083,15:54:07.582367,0.00598,0.00000,0.00000,-0.14557,0.00000,0.00033,0.00225,-0.00075,-0.05124,-0.11084,0.99223,4.91886,0.00000,6.23295,6.23295,1.55393,1.12875,4.83808,1.70385,1.14901,6.65838,0.37520,A,155407.40
4.93404,57.68813083,11.97967844,57.68813100,11.97968083,15:54:07.591798,0.00519,0.00000,0.00000,-0.14557,0.00000,0.00079,0.00469,-0.00075,-0.05258,-0.11456,0.99040,4.92829,0.00000,6.29676,6.29676,1.56142,1.12977,4.83808,1.70385,1.14901,6.65838,0.37520,A,155407.40
4.96184,57.68813084,11.97967856,57.68813133,11.97968500,15:54:07.619602,0.02259,0.00000,1.50000,-0.14560,0.00000,-0.00150,0.00240,-0.00228,-0.05283,-0.11419,0.99052,4.93899,0.00000,6.35101,6.35101,1.56854,1.13073,4.95513,1.95151,1.18608,6.43175,0.14856,A,155407.50
4.98160,57.68813086,11.97967888,57.68813133,11.97968500,15:54:07.639357,0.00685,0.00000,0.00000,-0.14560,0.00000,0.00049,-0.00340,-0.00060,-0.05094,-0.11529,0.99088,4.97519,0.00000,6.36312,6.36312,1.58769,1.13350,4.95513,1.95151,1.18608,6.43175,0.14856,A,155407.50
4.99041,57.68813088,11.97967919,57.68813133,11.97968500,15:54:07.648169,0.00543,0.00000,0.00000,-0.14563,0.00000,-0.00242,-0.00005,0.00017,-0.05319,-0.11450,0.99009,4.98442,0.00000,6.37341,6.37341,1.60588,1.13612,4.95513,1.95151,1.18608,6.43175,0.14856,A,155407.50
5.00077,57.68813091,11.97967948,57.68813133,11.97968500,15:54:07.658533,0.00538,0.00000,0.00000,-0.14566,0.00000,-0.00135,-0.00234,-0.00014,-0.05148,-0.11511,0.99192,4.99501,0.00000,6.38216,6.38216,1.62316,1.13862,4.95513,1.95151,1.18608,6.43175,0.14856,A,155407.50
5.01736,57.68813093,11.97967975,57.68813133,11.97968500,15:54:07.675813,0.01157,0.00000,0.00000,0.00000,0.00000,-0.00669,-0.00081,-0.00243,-0.05228,-0.11468,0.99021,5.00594,0.00000,0.54612,0.54612,1.95151,1.18608,4.95513,1.95151,1.18608,6.43175,0.14856,A,155407.50
5.05050,57.68813133,11.97968500,57.68813133,11.97968500,15:54:07.708632,0.01997,0.00000,0.00000,-0.00212,-0.01879,0.00339,0.00209,-0.00106,-0.05094,-0.11663,0.99046,5.03740,0.00000,1.43060,1.41967,1.95151,1.18608,4.95513,1.95151,1.18608,6.43175,0.14856,A,155407.50
5.10576,57.68813133,11.97968500,57.68813317,11.97969500,15:54:07.763796,0.04255,0.00000,0.00000,-0.00433,-0.01879,-0.00119,-0.00295,-0.00258,-0.05325,-0.11560,0.99412,5.06775,0.00000,2.18241,2.17148,1.95151,1.18608,5.09560,2.54587,1.38994,6.61359,0.33041,A,155407.70
5.12991,57.68813142,11.97968550,57.68813317,11.97969500,15:54:07.787712,0.01260,0.00000,0.00000,-0.00671,-0.01879,-0.00471,0.00194,-0.00121,-0.05191,-0.11523,0.99125,5.11955,0.00000,2.84873,2.83780,1.98122,1.19627,5.09560,2.54587,1.38994,6.61359,0.33041,A,155407.70
5.15741,57.68813151,11.97968597,57.68813317,11.97969500,15:54:07.815487,0.01499,0.00000,0.00000,-0.00883,-0.01879,-0.00119,-0.00127,0.00017,-0.05252,-0.11468,0.99101,5.14729,0.00000,3.41510,3.40417,2.00946,1.20596,5.09560,2.54587,1.38994,6.61359,0.33041,A,155407.70
5.18278,57.68813159,11.97968643,57.68813317,11.97969500,15:54:07.840741,0.01317,0.00000,0.00000,-0.01086,-0.01879,0.00155,0.00194,0.00047,-0.05161,-0.11480,0.98924,5.17310,0.00000,3.89651,3.88558,2.03628,1.21515,5.09560,2.54587,1.38994,6.61359,0.33041,A,155407.70
5.22132,57.68813167,11.97968685,57.68813350,11.97969900,15:54:07.879086,0.02755,0.00000,0.00000,-0.01288,-0.01879,0.00003,0.00240,-0.00106,-0.05057,-0.11389,0.99070,5.19580,0.00000,4.30571,4.29479,2.06176,1.22389,5.21195,2.78362,1.42700,6.43784,0.15466,A,155407.80
5.24722,57.68813176,11.97968746,57.68813350,11.97969900,15:54:07.904989,0.01449,0.00000,0.00000,-0.01473,-0.01879,0.00354,-0.00050,-0.00289,-0.05228,-0.11444,0.99296,5.23787,0.00000,4.62717,4.61624,2.09785,1.23405,5.21195,2.78362,1.42700,6.43784,0.15466,A,155407.80
5.27339,57.68813185,11.97968804,57.68813350,11.97969900,15:54:07.931180,0.01436,0.00000,0.00000,-0.01672,-0.01879,-0.00074,0.00179,-0.00014,-0.05356,-0.11456,0.99070,5.26155,0.00000,4.90041,4.88948,2.13214,1.24370,5.21195,2.78362,1.42700,6.43784,0.15466,A,155407.80
5.29916,57.68813193,11.97968859,57.68813350,11.97969900,15:54:07.956921,0.01394,0.00000,0.00000,-0.01874,-0.01879,-0.00272,-0.00050,-0.00014,-0.05270,-0.11523,0.99058,5.28749,0.00000,5.13267,5.12174,2.16471,1.25286,5.21195,2.78362,1.42700,6.43784,0.15466,A,155407.80
5.34262,57.68813201,11.97968911,57.68813367,11.97970217,15:54:08.000407,0.03084,0.00000,0.00000,-0.02060,-0.01879,0.00155,-0.00096,0.00276,-0.05301,-0.11376,0.99082,5.31665,0.00000,5.33008,5.31915,2.19566,1.26157,5.33279,2.97184,1.44553,6.38133,0.09815,A,155407.90
5.36704,57.68813209,11.97968976,57.68813367,11.97970217,15:54:08.024825,0.01503,0.00000,0.00000,-0.02250,-0.01879,-0.00089,0.00209,-0.00014,-0.05167,-0.11322,0.99064,5.35608,0.00000,5.48941,5.47848,2.23447,1.27077,5.33279,2.97184,1.44553,6.38133,0.09815,A,155407.90
5.39366,57.68813217,11.97969038,57.68813367,11.97970217,15:54:08.051442,0.01553,0.00000,0.00000,-0.02438,-0.01879,0.00079,0.00225,0.00169,-0.04898,-0.11736,0.99241,5.38233,0.00000,5.62484,5.61391,2.27134,1.27951,5.33279,2.97184,1.44553,6.38133,0.09815,A,155407.90
5.41994,57.68813225,11.97969097,57.68813367,11.97970217,15:54:08.077707,0.01496,0.00000,0.00000,-0.02612,-0.01879,0.00323,0.00209,0.00032,-0.05118,-0.11499,0.99223,5.41055,0.00000,5.73995,5.72902,2.30636,1.28781,5.33279,2.97184,1.44553,6.38133,0.09815,A,155407.90
5.45803,57.68813232,11.97969153,57.68813433,11.97970750,15:54:08.115802,0.03071,0.00000,0.00000,-0.02785,-0.01879,0.00323,0.00057,-0.00136,-0.05234,-0.11462,0.99277,5.43100,0.00000,5.83780,5.82687,2.33963,1.29569,5.44816,3.28883,1.51966,6.51291,0.22972,A,155408.00
5.48324,57.68813242,11.97969233,57.68813433,11.97970750,15:54:08.141516,0.01368,0.00000,0.00000,-0.02968,-0.01879,-0.00089,-0.00005,0.00108,-0.05057,-0.11572,0.99332,5.47376,0.00000,5.94070,5.92977,2.38709,1.30689,5.44816,3.28883,1.51966,6.51291,0.22972,A,155408.00
5.50494,57.68813252,11.97969309,57.68813433,11.97970750,15:54:08.162725,0.01462,0.00000,0.00000,-0.03139,-0.01879,0.00140,0.00057,-0.00044,-0.05167,-0.11370,0.99216,5.49281,0.00000,6.02817,6.01724,2.43218,1.31753,5.44816,3.28883,1.51966,6.51291,0.22972,A,155408.00
5.52710,57.68813261,11.97969381,57.68813433,11.97970750,15:54:08.184862,0.01185,0.00000,0.00000,-0.03301,-0.01879,0.00278,-0.00310,0.00139,-0.05209,-0.11261,0.99009,5.51800,0.00000,6.10252,6.09159,2.47501,1.32764,5.44816,3.28883,1.51966,6.51291,0.22972,A,155408.00
5.55296,57.68813269,11.97969449,57.68813433,11.97970750,15:54:08.210753,0.01377,0.00000,0.00000,-0.03465,-0.01879,0.00293,-0.00356,0.00108,-0.05173,-0.11505,0.99174,5.54262,0.00000,6.16572,6.15479,2.51571,1.33724,5.44816,3.28883,1.51966,6.51291,0.22972,A,155408.00
5.60687,57.68813277,11.97969514,57.68813567,11.97971833,15:54:08.264638,0.04111,0.00000,0.00000,-0.03630,-0.01879,0.00171,-0.00096,-0.00304,-0.05246,-0.11669,0.99113,5.57020,0.00000,6.21944,6.20851,2.55436,1.34636,5.59714,3.93273,1.66792,6.50949,0.22631,A,155408.20
5.63474,57.68813292,11.97969630,57.68813567,11.97971833,15:54:08.293621,0.01486,0.00000,0.00000,-0.03789,-0.01879,0.00079,-0.00111,0.00017,-0.05289,-0.11303,0.99088,5.62390,0.00000,6.26458,6.25366,2.62328,1.36244,5.59714,3.93273,1.66792,6.50949,0.22631,A,155408.20
5.66226,57.68813306,11.97969740,57.68813567,11.97971833,15:54:08.320034,0.01449,0.00000,0.00000,-0.03940,-0.01879,0.00415,0.00011,-0.00014,-0.05252,-0.11499,0.99436,5.65172,0.00000,6.30296,6.29203,2.68875,1.37771,5.59714,3.93273,1.66792,6.50949,0.22631,A,155408.20
5.68736,57.68813319,11.97969845,57.68813567,11.97971833,15:54:08.345135,0.01397,0.00000,0.00000,-0.04107,-0.01879,-0.00257,-0.00173,-0.00060,-0.05033,-0.11474,0.99192,5.67694,0.00000,6.33558,6.32465,2.75095,1.39222,5.59714,3.93273,1.66792,6.50949,0.22631,A,155408.20
5.72251,57.68813331,11.97969944,57.68813567,11.97972217,15:54:08.380291,0.02885,0.00000,0.00000,-0.04267,-0.01879,-0.00058,0.00026,-0.00243,-0.05398,-0.11566,0.99229,5.69604,0.00000,6.36331,6.35238,2.81004,1.40601,5.71233,4.16057,1.66792,6.28319,0.00000,A,155408.30
5.74777,57.68813343,11.97970058,57.68813567,11.97972217,15:54:08.405531,0.01421,0.00000,0.00000,-0.04420,-0.01879,0.00064,-0.00615,0.00292,-0.05276,-0.11505,0.99241,5.73838,0.00000,6.35293,6.34200,2.87757,1.41910,5.71233,4.16057,1.66792,6.28319,0.00000,A,155408.30
5.77609,57.68813354,11.97970166,57.68813567,11.97972217,15:54:08.434078,0.01548,0.00000,0.00000,-0.04570,-0.01879,0.00155,0.00087,0.00337,-0.05209,-0.11492,0.98924,5.76598,0.00000,6.34411,6.33318,2.94172,1.43154,5.71233,4.16057,1.66792,6.28319,0.00000,A,155408.30
5.80307,57.68813365,11.97970269,57.68813567,11.97972217,15:54:08.461674,0.01523,0.00000,0.00000,-0.04719,-0.01879,0.00049,0.00194,-0.00044,-0.05337,-0.11395,0.99070,5.79274,0.00000,6.33661,6.32568,3.00266,1.44336,5.71233,4.16057,1.66792,6.28319,0.00000,A,155408.30
5.84648,57.68813375,11.97970366,57.68813533,11.97972617,15:54:08.504264,0.03088,0.00000,0.00000,-0.04878,-0.01879,-0.00348,-0.00081,-0.00182,-0.05301,-0.11560,0.99174,5.81918,0.00000,6.33023,6.31930,3.06056,1.45459,5.83525,4.39832,1.63086,6.12853,-0.15466,A,155408.40
5.87203,57.68813383,11.97970478,57.68813533,11.97972617,15:54:08.529793,0.01382,0.00000,0.00000,-0.05027,-0.01879,-0.00074,-0.00234,0.00139,-0.05264,-0.11474,0.99125,5.86254,0.00000,6.30162,6.29069,3.12744,1.46340,5.83525,4.39832,1.63086,6.12853,-0.15466,A,155408.40
5.89758,57.68813390,11.97970585,57.68813533,11.97972617,15:54:08.555341,0.01257,0.00000,0.00000,-0.05172,-0.01879,-0.00058,-0.00356,0.00093,-0.04978,-0.11413,0.99229,5.88864,0.00000,6.27729,6.26636,3.19099,1.47178,5.83525,4.39832,1.63086,6.12853,-0.15466,A,155408.40
5.92007,57.68813397,11.97970687,57.68813533,11.97972617,15:54:08.578336,0.01348,0.00000,0.00000,-0.05318,-0.01879,-0.00211,0.00270,0.00047,-0.05350,-0.11450,0.99088,5.91025,0.00000,6.25662,6.24569,3.25135,1.47973,5.83525,4.39832,1.63086,6.12853,-0.15466,A,155408.40
5.96113,57.68813404,11.97970783,57.68813517,11.97972867,15:54:08.618895,0.02938,0.00000,0.00000,-0.05446,-0.01879,0.00568,0.00011,-0.00014,-0.05142,-0.11547,0.98924,5.93502,0.00000,6.23904,6.22812,3.30870,1.48729,5.95101,4.54691,1.61233,6.15911,-0.12408,A,155408.50
5.98855,57.68813410,11.97970888,57.68813517,11.97972867,15:54:08.646349,0.01497,0.00000,0.00000,-0.05592,-0.01879,-0.00150,-0.00005,-0.00106,-0.05209,-0.11651,0.99076,5.97654,0.00000,6.22869,6.21776,3.37061,1.49354,5.95101,4.54691,1.61233,6.15911,-0.12408,A,155408.50
6.01345,57.68813415,11.97970987,57.68813517,11.97972867,15:54:08.671541,0.01325,0.00000,0.00000,-0.05717,-0.01879,0.00461,-0.00188,-0.00212,-0.05155,-0.11523,0.99155,6.00135,0.00000,6.21989,6.20896,3.42943,1.49948,5.95101,4.54691,1.61233,6.15911,-0.12408,A,155408.50
6.03980,57.68813420,11.97971081,57.68813517,11.97972867,15:54:08.697567,0.01486,0.00000,0.00000,-0.05856,-0.01879,-0.00272,0.00072,0.00261,-0.05319,-0.11291,0.99192,6.03001,0.00000,6.21241,6.20149,3.48530,1.50512,5.95101,4.54691,1.61233,6.15911,-0.12408,A,155408.50
6.08138,57.68813425,11.97971170,57.68813517,11.97973000,15:54:08.739149,0.03065,0.00000,0.00000,-0.05989,-0.01879,-0.00165,-0.00173,0.00062,-0.05191,-0.11309,0.99345,6.05425,0.00000,6.20606,6.19513,3.53838,1.51048,6.07060,4.62616,1.61233,6.28319,0.00000,A,155408.60
6.10752,57.68813430,11.97971261,57.68813517,11.97973000,15:54:08.765304,0.01452,0.00000,0.00000,-0.06100,-0.01879,0.00430,0.00270,-0.00289,-0.04929,-0.11474,0.99009,6.09784,0.00000,6.21927,6.20834,3.59277,1.51557,6.07060,4.62616,1.61233,6.28319,0.00000,A,155408.60
6.13375,57.68813434,11.97971348,57.68813517,11.97973000,15:54:08.791513,0.01465,0.00000,0.00000,-0.06234,-0.01879,-0.00272,-0.00142,0.00230,-0.05069,-0.11401,0.99247,6.12330,0.00000,6.23049,6.21956,3.64444,1.52041,6.07060,4.62616,1.61233,6.28319,0.00000,A,155408.60
6.15604,57.68813438,11.97971431,57.68813517,11.97973000,15:54:08.813816,0.01281,0.00000,0.00000,-0.06364,-0.01879,-0.00043,0.00026,0.00017,-0.05051,-0.11694,0.99155,6.14664,0.00000,6.24004,6.22911,3.69353,1.52501,6.07060,4.62616,1.61233,6.28319,0.00000,A,155408.60
6.20807,57.68813442,11.97971509,57.68813600,11.97973117,15:54:08.866799,0.04036,0.00000,0.00000,-0.06484,-0.01879,0.00186,-0.00295,0.00398,-0.05045,-0.11474,0.99088,6.17169,0.00000,6.24815,6.23722,3.74016,1.52937,6.19906,4.69550,1.70499,7.21154,0.92836,A,155408.80
6.23453,57.68813450,11.97971590,57.68813600,11.97973117,15:54:08.892312,0.01396,0.00000,0.00000,-0.06607,-0.01879,-0.00013,-0.00066,-0.00182,-0.05020,-0.11462,0.99198,6.22360,0.00000,6.39430,6.38337,3.78793,1.53815,6.19906,4.69550,1.70499,7.21154,0.92836,A,155408.80
6.25774,57.68813457,11.97971666,57.68813600,11.97973117,15:54:08.915519,0.01243,0.00000,0.00000,-0.06732,-0.01879,-0.00425,0.00026,0.00322,-0.05203,-0.11175,0.99204,6.24738,0.00000,6.51852,6.50759,3.83330,1.54650,6.19906,4.69550,1.70499,7.21154,0.92836,A,155408.80
6.28638,57.68813465,11.97971739,57.68813600,11.97973117,15:54:08.944150,0.01494,0.00000,0.00000,-0.06848,-0.01879,0.00125,0.00362,-0.00182,-0.05142,-0.11474,0.99040,6.27591,0.00000,6.62412,6.61319,3.87641,1.55442,6.19906,4.69550,1.70499,7.21154,0.92836,A,155408.80
