Time,lat_estimated,lon_estimated,latitude,longitude,RealTime,CalculationTime,MeasuredVelocity,FilteredVelocity,Roll,SteeringAngle,RollRate,gy,gz,ax,ay,az,imu_read_timing,v_estimated,yaw_estimated,heading_estimated,x_estimated,y_estimated,GPS_timestamp,x_GPS,y_GPS,theta_GPS,theta_GPS_noUnwrap,status,NMEA timestamp
0.04656,57.68805800,11.98147750,57.68805800,11.98147750,16:18:02.121818,0.04651,0.00000,0.00000,-0.00134,-0.07146,0.02038,-0.00205,-0.01058,0.01543,-0.07168,0.99991,0.00001,0.00000,0.02124,0.00000,0.00000,0.00000,0.01440,0.00000,0.00000,0.00000,0.00000,A,161802.00
0.06538,57.68805800,11.98147750,57.68805800,11.98147750,16:18:02.140401,0.00809,0.00000,0.00000,-0.00157,-0.07146,0.03031,-0.01182,-0.01944,-0.00561,-0.10022,0.98314,0.05830,0.00000,0.02124,0.00000,0.00000,0.00000,0.01440,0.00000,0.00000,0.00000,0.00000,A,161802.00
0.07296,57.68805800,11.98147750,57.68805800,11.98147750,16:18:02.147975,0.00528,0.00000,0.00000,-0.00319,-0.07146,0.02939,-0.01106,-0.01638,-0.00201,-0.09315,0.97472,0.06706,0.00000,0.02124,0.00000,0.00000,0.00000,0.01440,0.00000,0.00000,0.00000,0.00000,A,161802.00
0.08354,57.68805800,11.98147750,57.68805800,11.98147750,16:18:02.158560,0.00546,0.00000,0.00000,-0.00432,-0.07146,0.03031,-0.01411,-0.01409,-0.00964,-0.06637,0.96417,0.07771,0.00000,0.02124,0.00000,0.00000,0.00000,0.01440,0.00000,0.00000,0.00000,0.00000,A,161802.00
0.09354,57.68805800,11.98147750,57.68805800,11.98147750,16:18:02.168555,0.00506,0.00000,0.00000,-0.00541,-0.07146,0.03183,-0.01533,-0.00722,0.00195,-0.06551,0.96972,0.08805,0.00000,0.02124,0.00000,0.00000,0.00000,0.01440,0.00000,0.00000,0.00000,0.00000,A,161802.00
0.10434,57.68805800,11.98147750,57.68805800,11.98147750,16:18:02.179353,0.00522,0.00000,0.00000,-0.00641,-0.07146,0.03275,-0.01350,-0.01012,-0.01269,-0.06265,0.99399,0.09854,0.00000,0.02124,0.00000,0.00000,0.00000,0.01440,0.00000,0.00000,0.00000,0.00000,A,161802.00
0.13339,57.68805800,11.98147750,57.68805800,11.98147733,16:18:02.208420,0.02388,0.00000,0.00000,-0.00747,-0.07146,0.03138,-0.01808,-0.00920,0.01251,-0.07021,1.03047,0.10926,0.00000,0.02124,0.00000,0.00000,0.00000,0.12751,-0.00991,0.00000,3.14159,3.14159,A,161802.10
0.15130,57.68805800,11.98147749,57.68805800,11.98147733,16:18:02.227672,0.00773,0.00000,0.00000,-0.00798,-0.07146,0.02878,-0.01762,-0.02478,-0.02013,-0.07869,1.00394,0.14499,0.00000,0.49248,0.47124,-0.00050,0.00000,0.12751,-0.00991,0.00000,3.14159,3.14159,A,161802.10
0.15982,57.68805800,11.98147748,57.68805800,11.98147733,16:18:02.234832,0.00602,0.00000,0.00000,-0.00954,-0.07146,0.01733,-0.02389,-0.02463,-0.00006,-0.08808,0.96417,0.15382,0.00000,0.89304,0.87179,-0.00097,0.00000,0.12751,-0.00991,0.00000,3.14159,3.14159,A,161802.10
0.17191,57.68805800,11.98147748,57.68805800,11.98147733,16:18:02.246926,0.00771,0.00000,0.00000,-0.01080,-0.07146,0.01672,-0.02312,-0.02203,-0.02367,-0.07222,0.96069,0.16595,0.00000,1.23351,1.21226,-0.00141,0.00000,0.12751,-0.00991,0.00000,3.14159,3.14159,A,161802.10
0.17997,57.68805800,11.98147747,57.68805800,11.98147733,16:18:02.254987,0.00538,0.00000,0.00000,-0.01198,-0.07146,0.01595,-0.01915,-0.01959,-0.03861,-0.06551,0.97734,0.17417,0.00000,1.52291,1.50166,-0.00184,0.00000,0.12751,-0.00991,0.00000,3.14159,3.14159,A,161802.10
0.19007,57.68805800,11.98147746,57.68805800,11.98147733,16:18:02.265094,0.00509,0.00000,0.00000,-0.01319,-0.07146,0.02405,-0.01533,-0.01562,-0.06594,-0.08015,1.01833,0.18458,0.00000,1.76890,1.74765,-0.00224,0.00000,0.12751,-0.00991,0.00000,3.14159,3.14159,A,161802.10
0.20063,57.68805800,11.98147746,57.68805800,11.98147733,16:18:02.275642,0.00541,0.00000,0.00000,-0.01438,-0.07146,0.02114,-0.00205,-0.00875,-0.04233,-0.07710,1.02712,0.19472,0.00000,1.97799,1.95674,-0.00262,0.00000,0.12751,-0.00991,0.00000,3.14159,3.14159,A,161802.10
0.21097,57.68805800,11.98147745,57.68805800,11.98147733,16:18:02.285992,0.00535,0.00000,0.00000,-0.01550,-0.07146,0.01763,0.00253,-0.00462,-0.01116,-0.07174,1.02309,0.20524,0.00000,2.15571,2.13447,-0.00299,0.00000,0.12751,-0.00991,0.00000,3.14159,3.14159,A,161802.10
0.22111,57.68805800,11.98147744,57.68805800,11.98147733,16:18:02.296130,0.00510,0.00000,0.00000,-0.01641,-0.07146,0.01412,-0.00342,-0.00478,0.00610,-0.05533,1.00894,0.21539,0.00000,2.30678,2.28554,-0.00333,0.00000,0.12751,-0.00991,0.00000,3.14159,3.14159,A,161802.10
0.24730,57.68805800,11.98147744,57.68805767,11.98147667,16:18:02.322326,0.02089,0.00000,0.00000,-0.01720,-0.07146,0.00908,-0.00800,-0.00722,-0.03465,-0.04532,1.02126,0.22614,0.00000,2.43519,2.41395,-0.00366,0.00000,0.24260,-0.04953,-0.03706,-2.38956,-2.38956,A,161802.20
0.26460,57.68805798,11.98147740,57.68805767,11.98147667,16:18:02.339615,0.00614,0.00000,0.00000,-0.01867,-0.07146,0.00053,-0.00021,-0.02188,0.00994,-0.08503,0.99442,0.25878,0.00000,1.71466,1.69342,-0.00596,-0.00185,0.24260,-0.04953,-0.03706,-2.38956,-2.38956,A,161802.20
0.27385,57.68805797,11.98147736,57.68805767,11.98147667,16:18:02.348868,0.00499,0.00000,0.00000,-0.02003,-0.07144,0.00022,-0.00388,-0.02371,-0.01299,-0.07698,0.98301,0.26837,0.00000,1.10222,1.08098,-0.00814,-0.00361,0.24260,-0.04953,-0.03706,-2.38956,-2.38956,A,161802.20
0.28442,57.68805795,11.98147733,57.68805767,11.98147667,16:18:02.359431,0.00521,0.00000,0.00000,-0.02130,-0.07144,-0.00466,-0.00312,-0.02463,-0.01952,-0.06765,0.96227,0.27863,0.00000,0.58163,0.56040,-0.01020,-0.00529,0.24260,-0.04953,-0.03706,-2.38956,-2.38956,A,161802.20
0.29496,57.68805794,11.98147730,57.68805767,11.98147667,16:18:02.369991,0.00536,0.00000,0.00000,-0.02253,-0.07144,-0.00696,-0.00602,-0.02112,-0.03812,-0.06564,0.96667,0.28922,0.00000,0.13914,0.11790,-0.01217,-0.00688,0.24260,-0.04953,-0.03706,-2.38956,-2.38956,A,161802.20
0.30521,57.68805792,11.98147726,57.68805767,11.98147667,16:18:02.380229,0.00522,0.00000,0.00000,-0.02369,-0.07144,-0.00787,-0.00770,-0.01806,-0.03959,-0.06252,0.98759,0.29937,0.00000,-0.23698,-0.25822,-0.01404,-0.00838,0.24260,-0.04953,-0.03706,-2.38956,-2.38956,A,161802.20
0.31578,57.68805791,11.98147723,57.68805767,11.98147667,16:18:02.390797,0.00539,0.00000,0.00000,-0.02489,-0.07144,-0.00940,-0.00861,-0.01623,-0.01616,-0.06533,0.99387,0.31000,0.00000,-0.55668,-0.57792,-0.01581,-0.00982,0.24260,-0.04953,-0.03706,-2.38956,-2.38956,A,161802.20
0.32598,57.68805790,11.98147721,57.68805767,11.98147667,16:18:02.400998,0.00520,0.00000,0.00000,-0.02618,-0.07144,-0.00696,-0.01136,-0.01149,0.00634,-0.07521,0.99833,0.32048,0.00000,-0.82843,-0.84966,-0.01750,-0.01118,0.24260,-0.04953,-0.03706,-2.38956,-2.38956,A,161802.20
0.33656,57.68805789,11.98147718,57.68805767,11.98147667,16:18:02.411576,0.00541,0.00000,0.00000,-0.02765,-0.07144,-0.00970,-0.01121,-0.01348,0.00177,-0.08699,0.99936,0.33078,0.00000,-1.05941,-1.08065,-0.01910,-0.01248,0.24260,-0.04953,-0.03706,-2.38956,-2.38956,A,161802.20
0.36197,57.68805788,11.98147715,57.68805517,11.98147417,16:18:02.436994,0.02042,0.00000,0.00000,-0.02902,-0.07144,-0.01612,-0.01106,-0.01715,-0.04355,-0.07668,1.00101,0.34116,0.00000,-1.25575,-1.27699,-0.02062,-0.01370,0.35757,-0.19812,-0.31505,-2.06169,-2.06169,A,161802.30
0.37773,57.68805774,11.98147700,57.68805517,11.98147417,16:18:02.452748,0.00606,0.00000,0.00000,-0.03069,-0.07144,-0.02253,-0.00495,-0.02692,0.00128,-0.06185,0.97661,0.37218,0.00000,-1.37346,-1.39469,-0.02950,-0.02877,0.35757,-0.19812,-0.31505,-2.06169,-2.06169,A,161802.30
0.38747,57.68805761,11.98147686,57.68805517,11.98147417,16:18:02.462489,0.00540,0.00000,0.00000,-0.03186,-0.07144,-0.02039,-0.00984,-0.02722,0.03367,-0.06332,0.97759,0.38169,0.00000,-1.47351,-1.49474,-0.03793,-0.04309,0.35757,-0.19812,-0.31505,-2.06169,-2.06169,A,161802.30
0.39756,57.68805749,11.98147673,57.68805517,11.98147417,16:18:02.472580,0.00510,0.00000,0.00000,-0.03305,-0.07144,-0.02314,-0.01319,-0.02722,0.01080,-0.06539,1.00589,0.39205,0.00000,-1.55855,-1.57978,-0.04594,-0.05668,0.35757,-0.19812,-0.31505,-2.06169,-2.06169,A,161802.30
0.40845,57.68805737,11.98147660,57.68805517,11.98147417,16:18:02.483474,0.00545,0.00000,0.00000,-0.03442,-0.07144,-0.01688,-0.01823,-0.02448,0.00262,-0.08229,1.01168,0.40240,0.00000,-1.63083,-1.65207,-0.05355,-0.06960,0.35757,-0.19812,-0.31505,-2.06169,-2.06169,A,161802.30
0.41848,57.68805726,11.98147648,57.68805517,11.98147417,16:18:02.493497,0.00508,0.00000,0.00000,-0.03585,-0.07144,-0.02223,-0.01457,-0.02142,-0.04093,-0.08601,1.02876,0.41299,0.00000,-1.69228,-1.71351,-0.06078,-0.08188,0.35757,-0.19812,-0.31505,-2.06169,-2.06169,A,161802.30
0.42901,57.68805716,11.98147636,57.68805517,11.98147417,16:18:02.504024,0.00520,0.00000,0.00000,-0.03738,-0.07144,-0.01902,-0.01396,-0.01699,-0.03532,-0.09601,1.01730,0.42318,0.00000,-1.74450,-1.76574,-0.06764,-0.09353,0.35757,-0.19812,-0.31505,-2.06169,-2.06169,A,161802.30
0.43947,57.68805706,11.98147625,57.68805517,11.98147417,16:18:02.514487,0.00542,0.00000,0.00000,-0.03887,-0.07144,-0.02177,-0.01152,-0.01715,0.00287,-0.08888,0.97838,0.43368,0.00000,-1.78890,-1.81013,-0.07417,-0.10461,0.35757,-0.19812,-0.31505,-2.06169,-2.06169,A,161802.30
0.44952,57.68805696,11.98147615,57.68805517,11.98147417,16:18:02.524531,0.00508,0.00000,0.00000,-0.04027,-0.07144,-0.02284,-0.00968,-0.01317,-0.00836,-0.08381,0.98070,0.44403,0.00000,-1.82663,-1.84786,-0.08037,-0.11513,0.35757,-0.19812,-0.31505,-2.06169,-2.06169,A,161802.30
0.48810,57.68805687,11.98147605,57.68805983,11.98147550,16:18:02.563126,0.03299,0.00000,0.00000,-0.04118,-0.07144,-0.02604,-0.01319,-0.01485,-0.03654,-0.05191,0.99906,0.45454,0.00000,-1.85870,-1.87994,-0.08625,-0.12513,0.48391,-0.11887,0.20386,1.41924,1.41924,A,161802.50
0.50115,57.68805702,11.98147602,57.68805983,11.98147550,16:18:02.576159,0.00697,0.00000,0.00000,-0.04321,-0.07144,-0.02864,-0.00312,-0.03211,-0.00939,-0.06881,0.99662,0.49539,0.00000,-1.36383,-1.38506,-0.08789,-0.10868,0.48391,-0.11887,0.20386,1.41924,1.41924,A,161802.50
0.50963,57.68805716,11.98147600,57.68805983,11.98147550,16:18:02.584645,0.00506,0.00000,0.00000,-0.04443,-0.07144,-0.02727,-0.00464,-0.03074,-0.00335,-0.07686,0.99412,0.50414,0.00000,-0.94318,-0.96441,-0.08943,-0.09305,0.48391,-0.11887,0.20386,1.41924,1.41924,A,161802.50
0.52028,57.68805730,11.98147597,57.68805983,11.98147550,16:18:02.595301,0.00518,0.00000,0.00000,-0.04588,-0.07144,-0.02864,-0.01060,-0.03730,-0.03642,-0.09321,1.02828,0.51451,0.00000,-0.58563,-0.60687,-0.09091,-0.07821,0.48391,-0.11887,0.20386,1.41924,1.41924,A,161802.50
0.53059,57.68805742,11.98147595,57.68805983,11.98147550,16:18:02.606002,0.00508,0.00000,0.00000,-0.04744,-0.07144,-0.03170,-0.00907,-0.03410,-0.02007,-0.09845,1.01162,0.52509,0.00000,-0.28171,-0.30295,-0.09231,-0.06410,0.48391,-0.11887,0.20386,1.41924,1.41924,A,161802.50
0.54103,57.68805754,11.98147592,57.68805983,11.98147550,16:18:02.616045,0.00513,0.00000,0.00000,-0.04897,-0.07144,-0.02772,-0.00281,-0.03455,-0.01507,-0.10022,0.99875,0.53528,0.00000,-0.02339,-0.04462,-0.09363,-0.05071,0.48391,-0.11887,0.20386,1.41924,1.41924,A,161802.50
0.55174,57.68805766,11.98147590,57.68805983,11.98147550,16:18:02.626759,0.00545,0.00000,0.00000,-0.05061,-0.07144,-0.03383,-0.00663,-0.02585,-0.00085,-0.10132,0.97856,0.54596,0.00000,0.19619,0.17496,-0.09490,-0.03798,0.48391,-0.11887,0.20386,1.41924,1.41924,A,161802.50
0.56211,57.68805777,11.98147588,57.68805983,11.98147550,16:18:02.637130,0.00542,0.00000,0.00000,-0.05171,-0.07144,-0.02986,-0.00434,-0.02463,-0.02830,-0.07259,0.99863,0.55639,0.00000,0.38284,0.36160,-0.09609,-0.02589,0.48391,-0.11887,0.20386,1.41924,1.41924,A,161802.50
0.57231,57.68805787,11.98147586,57.68805983,11.98147550,16:18:02.647335,0.00524,0.00000,0.00000,-0.05270,-0.07144,-0.02177,-0.00174,-0.02173,0.00043,-0.07088,0.97960,0.56651,0.00000,0.54148,0.52025,-0.09723,-0.01440,0.48391,-0.11887,0.20386,1.41924,1.41924,A,161802.50
0.58256,57.68805797,11.98147585,57.68805983,11.98147550,16:18:02.657833,0.00509,0.00000,0.00000,-0.05363,-0.07144,-0.02055,-0.00648,-0.02203,0.01501,-0.06820,0.98356,0.57708,0.00000,0.67633,0.65510,-0.09832,-0.00349,0.48391,-0.11887,0.20386,1.41924,1.41924,A,161802.50
0.60971,57.68805806,11.98147583,57.68805917,11.98147450,16:18:02.684727,0.02184,0.00000,0.00000,-0.05474,-0.07144,-0.02162,-0.01167,-0.02478,0.00909,-0.08003,0.97923,0.58725,0.00000,0.79095,0.76972,-0.09934,0.00688,0.60601,-0.17831,0.12973,-2.24663,-2.24663,A,161802.60
0.62422,57.68805812,11.98147576,57.68805917,11.98147450,16:18:02.699241,0.00537,0.00000,0.00000,-0.05647,-0.07144,-0.01444,-0.02175,-0.03608,-0.00244,-0.11029,1.00260,0.61839,0.00000,0.33850,0.31727,-0.10329,0.01302,0.60601,-0.17831,0.12973,-2.24663,-2.24663,A,161802.60
0.63804,57.68805817,11.98147570,57.68805917,11.98147450,16:18:02.713064,0.00878,0.00000,0.00000,-0.05745,-0.07144,-0.01276,-0.02358,-0.03165,-0.04569,-0.08204,1.00278,0.62895,0.00000,-0.04608,-0.06732,-0.10704,0.01886,0.60601,-0.17831,0.12973,-2.24663,-2.24663,A,161802.60
0.64548,57.68805822,11.98147564,57.68805917,11.98147450,16:18:02.720497,0.00574,0.00000,0.00000,-0.05860,-0.07144,-0.01199,-0.01717,-0.03349,-0.00738,-0.09461,0.99198,0.63919,0.00000,-0.37298,-0.39422,-0.11061,0.02440,0.60601,-0.17831,0.12973,-2.24663,-2.24663,A,161802.60
0.65554,57.68805827,11.98147558,57.68805917,11.98147450,16:18:02.730557,0.00540,0.00000,0.00000,-0.05947,-0.07144,-0.00375,-0.01396,-0.02890,-0.01653,-0.08394,1.00790,0.64976,0.00000,-0.65084,-0.67208,-0.11399,0.02967,0.60601,-0.17831,0.12973,-2.24663,-2.24663,A,161802.60
0.66563,57.68805831,11.98147553,57.68805917,11.98147450,16:18:02.740646,0.00510,0.00000,0.00000,-0.06043,-0.07144,-0.00130,-0.01457,-0.02218,0.00043,-0.09089,0.99345,0.66013,0.00000,-0.88703,-0.90826,-0.11721,0.03467,0.60601,-0.17831,0.12973,-2.24663,-2.24663,A,161802.60
0.67628,57.68805835,11.98147548,57.68805917,11.98147450,16:18:02.751296,0.00520,0.00000,0.00000,-0.06103,-0.07144,-0.00008,-0.02068,-0.01959,-0.00579,-0.06917,0.99955,0.67049,0.00000,-1.08778,-1.10902,-0.12026,0.03942,0.60601,-0.17831,0.12973,-2.24663,-2.24663,A,161802.60
0.68769,57.68805840,11.98147543,57.68805917,11.98147450,16:18:02.762713,0.00622,0.00000,0.00000,-0.06175,-0.07144,0.01137,-0.01350,-0.01837,-0.03416,-0.08693,1.01101,0.68108,0.00000,-1.25842,-1.27966,-0.12317,0.04394,0.60601,-0.17831,0.12973,-2.24663,-2.24663,A,161802.60
0.69705,57.68805843,11.98147538,57.68805917,11.98147450,16:18:02.772062,0.00518,0.00000,0.00000,-0.06232,-0.07144,0.01168,-0.01304,-0.01852,0.01452,-0.07655,0.99741,0.69124,0.00000,-1.40347,-1.42471,-0.12592,0.04823,0.60601,-0.17831,0.12973,-2.24663,-2.24663,A,161802.60
0.72406,57.68805847,11.98147534,57.68805733,11.98147267,16:18:02.799099,0.02180,0.00000,0.00000,-0.06322,-0.07144,0.01672,-0.01182,-0.02035,-0.01391,-0.10272,0.99869,0.70187,0.00000,-1.52676,-1.54800,-0.12854,0.05230,0.71893,-0.28728,-0.07413,-2.06169,-2.06169,A,161802.70
0.74226,57.68805841,11.98147520,57.68805733,11.98147267,16:18:02.817777,0.01191,0.00000,0.00000,-0.06332,-0.07144,0.02191,-0.00831,-0.03043,0.02409,-0.08686,0.99387,0.73551,0.00000,-1.60381,-1.62505,-0.13648,0.04598,0.71893,-0.28728,-0.07413,-2.06169,-2.06169,A,161802.70
0.75858,57.68805836,11.98147508,57.68805733,11.98147267,16:18:02.833809,0.00636,0.00000,0.00000,-0.06357,-0.07144,0.02328,-0.02892,-0.02707,0.00335,-0.07509,0.98844,0.75284,0.00000,-1.66931,-1.69055,-0.14402,0.03998,0.71893,-0.28728,-0.07413,-2.06169,-2.06169,A,161802.70
0.76825,57.68805831,11.98147496,57.68805733,11.98147267,16:18:02.843267,0.00563,0.00000,0.00000,-0.06395,-0.07144,0.02710,-0.02511,-0.02570,-0.03849,-0.07698,1.04066,0.76221,0.00000,-1.72498,-1.74622,-0.15118,0.03427,0.71893,-0.28728,-0.07413,-2.06169,-2.06169,A,161802.70
0.77812,57.68805826,11.98147484,57.68805733,11.98147267,16:18:02.853133,0.00510,0.00000,0.00000,-0.06432,-0.07144,0.02878,-0.01472,-0.01852,-0.02031,-0.08156,1.04755,0.77263,0.00000,-1.77230,-1.79354,-0.15799,0.02885,0.71893,-0.28728,-0.07413,-2.06169,-2.06169,A,161802.70
0.78876,57.68805821,11.98147473,57.68805733,11.98147267,16:18:02.863782,0.00552,0.00000,0.00000,-0.06491,-0.07144,0.03168,-0.01594,-0.01272,0.03178,-0.09339,1.00131,0.78265,0.00000,-1.81252,-1.83376,-0.16445,0.02370,0.71893,-0.28728,-0.07413,-2.06169,-2.06169,A,161802.70
0.79917,57.68805817,11.98147463,57.68805733,11.98147267,16:18:02.874201,0.00553,0.00000,0.00000,-0.06551,-0.07144,0.03321,-0.02373,-0.01073,0.04685,-0.09394,0.96813,0.79326,0.00000,-1.84671,-1.86795,-0.17059,0.01881,0.71893,-0.28728,-0.07413,-2.06169,-2.06169,A,161802.70
0.80909,57.68805813,11.98147453,57.68805733,11.98147267,16:18:02.884107,0.00505,0.00000,0.00000,-0.06572,-0.07141,0.02725,-0.03335,-0.01302,-0.02306,-0.06454,0.96807,0.80341,0.00000,-1.87578,-1.89700,-0.17643,0.01416,0.71893,-0.28728,-0.07413,-2.06169,-2.06169,A,161802.70
0.83653,57.68805809,11.98147444,57.68805583,11.98147100,16:18:02.911570,0.02209,0.00000,0.00000,-0.06551,-0.07135,0.03275,-0.02266,-0.01165,-0.08772,-0.04392,1.01339,0.81402,0.00000,-1.90048,-1.92169,-0.18197,0.00975,0.83091,-0.38634,-0.24092,-2.10674,-2.10674,A,161802.80
0.84954,57.68805797,11.98147427,57.68805583,11.98147100,16:18:02.924556,0.00717,0.00000,0.00000,-0.06562,-0.07059,0.02741,-0.01304,-0.02050,0.06966,-0.09736,1.01181,0.84398,0.00000,-1.92827,-1.94925,-0.19219,-0.00278,0.83091,-0.38634,-0.24092,-2.10674,-2.10674,A,161802.80
0.85785,57.68805787,11.98147410,57.68805583,11.98147100,16:18:02.933083,0.00507,0.00000,0.00000,-0.06572,-0.07005,0.02756,-0.02358,-0.01821,0.02336,-0.05722,1.01278,0.85234,0.00000,-1.95192,-1.97274,-0.20190,-0.01469,0.83091,-0.38634,-0.24092,-2.10674,-2.10674,A,161802.80
0.86850,57.68805777,11.98147395,57.68805583,11.98147100,16:18:02.943513,0.00535,0.00000,0.00000,-0.06579,-0.06934,0.02985,-0.02495,-0.02585,-0.01098,-0.05978,1.01437,0.86255,0.00000,-1.97205,-1.99266,-0.21112,-0.02600,0.83091,-0.38634,-0.24092,-2.10674,-2.10674,A,161802.80
0.87862,57.68805767,11.98147380,57.68805583,11.98147100,16:18:02.954029,0.00508,0.00000,0.00000,-0.06599,-0.06855,0.03764,-0.01839,-0.02234,-0.04246,-0.07448,1.00199,0.87313,0.00000,-1.98920,-2.00957,-0.21988,-0.03675,0.83091,-0.38634,-0.24092,-2.10674,-2.10674,A,161802.80
0.88906,57.68805758,11.98147366,57.68805583,11.98147100,16:18:02.964075,0.00513,0.00000,0.00000,-0.06665,-0.06787,0.03306,-0.01289,-0.02112,-0.01525,-0.09742,0.96337,0.88331,0.00000,-2.00380,-2.02397,-0.22820,-0.04696,0.83091,-0.38634,-0.24092,-2.10674,-2.10674,A,161802.80
0.89969,57.68805749,11.98147353,57.68805583,11.98147100,16:18:02.974707,0.00536,0.00000,0.00000,-0.06711,-0.06725,0.03382,-0.01274,-0.01715,0.02422,-0.08815,0.97576,0.89391,0.00000,-2.01624,-2.03623,-0.23611,-0.05666,0.83091,-0.38634,-0.24092,-2.10674,-2.10674,A,161802.80
0.90990,57.68805741,11.98147340,57.68805583,11.98147100,16:18:02.984920,0.00518,0.00000,0.00000,-0.06741,-0.06691,0.03199,-0.02053,-0.01501,-0.01147,-0.08003,1.02663,0.90440,0.00000,-2.02684,-2.04672,-0.24362,-0.06587,0.83091,-0.38634,-0.24092,-2.10674,-2.10674,A,161802.80
0.92033,57.68805733,11.98147328,57.68805583,11.98147100,16:18:02.995341,0.00518,0.00000,0.00000,-0.06741,-0.06682,0.03581,-0.01365,-0.01211,0.01366,-0.06124,1.02029,0.91454,0.00000,-2.03584,-2.05570,-0.25076,-0.07462,0.83091,-0.38634,-0.24092,-2.10674,-2.10674,A,161802.80
0.93062,57.68805725,11.98147317,57.68805583,11.98147100,16:18:03.005892,0.00508,0.00000,0.00000,-0.06732,-0.06682,0.03382,-0.02037,-0.01424,0.00543,-0.05478,1.01242,0.92513,0.00000,-2.04350,-2.06336,-0.25754,-0.08294,0.83091,-0.38634,-0.24092,-2.10674,-2.10674,A,161802.80
0.95609,57.68805718,11.98147306,57.68805750,11.98147150,16:18:03.031117,0.02034,0.00000,0.00000,-0.06730,-0.06682,0.03290,-0.02541,-0.01195,-0.01214,-0.05642,1.00485,0.93521,0.00000,-2.05000,-2.06986,-0.26398,-0.09084,0.95272,-0.35662,-0.05560,1.41179,1.41179,A,161802.90
0.96629,57.68805720,11.98147298,57.68805750,11.98147150,16:18:03.041304,0.00535,0.00000,0.00000,-0.06687,-0.06682,0.03153,-0.00403,-0.01989,-0.04758,-0.06198,1.02346,0.96077,0.00000,-1.52776,-1.54762,-0.26861,-0.08907,0.95272,-0.35662,-0.05560,1.41179,1.41179,A,161802.90
0.97733,57.68805721,11.98147291,57.68805750,11.98147150,16:18:03.052350,0.00583,0.00000,0.00000,-0.06729,-0.06682,0.02649,-0.00128,-0.02096,0.03276,-0.08040,0.96764,0.97157,0.00000,-1.08385,-1.10371,-0.27301,-0.08740,0.95272,-0.35662,-0.05560,1.41179,1.41179,A,161802.90
0.98725,57.68805723,11.98147284,57.68805750,11.98147150,16:18:03.062271,0.00536,0.00000,0.00000,-0.06749,-0.06682,0.02374,-0.00357,-0.01989,-0.02769,-0.06417,0.99101,0.98153,0.00000,-0.70652,-0.72638,-0.27719,-0.08581,0.95272,-0.35662,-0.05560,1.41179,1.41179,A,161802.90
0.99738,57.68805724,11.98147277,57.68805750,11.98147150,16:18:03.072388,0.00508,0.00000,0.00000,-0.06758,-0.06682,0.02328,0.00177,-0.02142,-0.03105,-0.05905,1.01028,0.99187,0.00000,-0.38580,-0.40566,-0.28116,-0.08430,0.95272,-0.35662,-0.05560,1.41179,1.41179,A,161802.90
1.00824,57.68805725,11.98147271,57.68805750,11.98147150,16:18:03.083264,0.00537,0.00000,0.00000,-0.06785,-0.06682,0.01931,0.00467,-0.02035,-0.05026,-0.06985,1.03486,1.00227,0.00000,-0.11318,-0.13304,-0.28494,-0.08286,0.95272,-0.35662,-0.05560,1.41179,1.41179,A,161802.90
1.01835,57.68805727,11.98147265,57.68805750,11.98147150,16:18:03.093367,0.00508,0.00000,0.00000,-0.06825,-0.06682,0.01779,0.01277,-0.02188,0.02367,-0.07643,1.00967,1.01287,0.00000,0.11855,0.09869,-0.28852,-0.08150,0.95272,-0.35662,-0.05560,1.41179,1.41179,A,161802.90
1.02868,57.68805728,11.98147259,57.68805750,11.98147150,16:18:03.103697,0.00518,0.00000,0.00000,-0.06865,-0.06682,0.01595,0.00101,-0.02203,0.05344,-0.07418,0.98979,1.02292,0.00000,0.31551,0.29565,-0.29193,-0.08021,0.95272,-0.35662,-0.05560,1.41179,1.41179,A,161802.90
1.03965,57.68805729,11.98147253,57.68805750,11.98147150,16:18:03.114673,0.00575,0.00000,0.00000,-0.06926,-0.06682,0.01244,-0.00953,-0.02096,0.02946,-0.08375,0.96258,1.03377,0.00000,0.48293,0.46307,-0.29516,-0.07898,0.95272,-0.35662,-0.05560,1.41179,1.41179,A,161802.90
1.04938,57.68805730,11.98147248,57.68805750,11.98147150,16:18:03.124395,0.00509,0.00000,0.00000,-0.06968,-0.06682,0.01656,-0.00968,-0.02112,-0.00701,-0.07491,0.97356,1.04386,0.00000,0.62524,0.60538,-0.29823,-0.07781,0.95272,-0.35662,-0.05560,1.41179,1.41179,A,161802.90
1.08575,57.68805731,11.98147243,57.68805783,11.98146833,16:18:03.160771,0.03088,0.00000,0.00000,-0.07004,-0.06682,0.01259,-0.01228,-0.02066,-0.02690,-0.07052,0.98716,1.05427,0.00000,0.74620,0.72634,-0.30115,-0.07670,1.08245,-0.54484,-0.01853,2.94716,2.94716,A,161803.10
1.09589,57.68805734,11.98147223,57.68805783,11.98146833,16:18:03.170913,0.00560,0.00000,0.00000,-0.07014,-0.06682,0.00923,-0.01335,-0.01760,0.04215,-0.06728,0.99601,1.09007,0.00000,1.07932,1.05946,-0.31334,-0.07379,1.08245,-0.54484,-0.01853,2.94716,2.94716,A,161803.10
1.10575,57.68805736,11.98147203,57.68805783,11.98146833,16:18:03.180765,0.00506,0.00000,0.00000,-0.07024,-0.06682,0.01870,-0.02266,-0.01913,-0.01982,-0.05777,0.99076,1.10026,0.00000,1.36248,1.34262,-0.32491,-0.07103,1.08245,-0.54484,-0.01853,2.94716,2.94716,A,161803.10
1.11634,57.68805738,11.98147185,57.68805783,11.98146833,16:18:03.191352,0.00518,0.00000,0.00000,-0.07045,-0.06682,0.02023,-0.02190,-0.01989,-0.02855,-0.06734,1.01107,1.11055,0.00000,1.60316,1.58330,-0.33591,-0.06840,1.08245,-0.54484,-0.01853,2.94716,2.94716,A,161803.10
1.12665,57.68805741,11.98147167,57.68805783,11.98146833,16:18:03.201903,0.00510,0.00000,0.00000,-0.07102,-0.06682,0.01672,-0.01823,-0.02050,-0.01812,-0.09022,1.00888,1.12115,0.00000,1.80774,1.78788,-0.34636,-0.06591,1.08245,-0.54484,-0.01853,2.94716,2.94716,A,161803.10
1.13738,57.68805743,11.98147151,57.68805783,11.98146833,16:18:03.212391,0.00543,0.00000,0.00000,-0.07153,-0.06682,0.01488,-0.02312,-0.01699,0.02812,-0.08113,0.97002,1.13131,0.00000,1.98163,1.96177,-0.35628,-0.06354,1.08245,-0.54484,-0.01853,2.94716,2.94716,A,161803.10
1.14782,57.68805745,11.98147135,57.68805783,11.98146833,16:18:03.222833,0.00548,0.00000,0.00000,-0.07188,-0.06679,0.01717,-0.03228,-0.01592,0.06423,-0.07052,0.92439,1.14195,0.00000,2.12944,2.10958,-0.36571,-0.06129,1.08245,-0.54484,-0.01853,2.94716,2.94716,A,161803.10
1.15779,57.68805747,11.98147120,57.68805783,11.98146833,16:18:03.232800,0.00505,0.00000,0.00000,-0.07212,-0.06679,0.01397,-0.04267,-0.01852,0.03019,-0.06033,0.91110,1.15229,0.00000,2.25507,2.23522,-0.37467,-0.05915,1.08245,-0.54484,-0.01853,2.94716,2.94716,A,161803.10
1.16856,57.68805749,11.98147105,57.68805783,11.98146833,16:18:03.243567,0.00542,0.00000,0.00000,-0.07232,-0.06679,0.01198,-0.04389,-0.01623,-0.02068,-0.05655,0.91036,1.16254,0.00000,2.36186,2.34201,-0.38317,-0.05712,1.08245,-0.54484,-0.01853,2.94716,2.94716,A,161803.10
1.18258,57.68805750,11.98147092,57.68805783,11.98146833,16:18:03.257850,0.00843,0.00000,0.00000,-0.07292,-0.06679,0.00893,-0.03855,-0.01821,-0.05033,-0.08497,0.95813,1.17483,0.00000,2.45263,2.43278,-0.39126,-0.05519,1.08245,-0.54484,-0.01853,2.94716,2.94716,A,161803.10
1.20930,57.68805752,11.98147079,57.68805683,11.98146617,16:18:03.284330,0.02495,0.00000,0.00000,-0.07313,-0.06679,0.00114,-0.03442,-0.02264,-0.01031,-0.05728,1.00766,1.18534,0.00000,2.52979,2.50994,-0.39894,-0.05336,1.20477,-0.67362,-0.12973,-2.42935,-2.42935,A,161803.20
1.22909,57.68805749,11.98147056,57.68805683,11.98146617,16:18:03.304105,0.00736,0.00000,0.00000,-0.07350,-0.06679,0.00099,-0.02083,-0.03303,-0.04203,-0.07399,1.07317,1.22295,0.00000,1.78890,1.76904,-0.41267,-0.05718,1.20477,-0.67362,-0.12973,-2.42935,-2.42935,A,161803.20
1.23758,57.68805745,11.98147034,57.68805683,11.98146617,16:18:03.313243,0.00546,0.00000,0.00000,-0.07419,-0.06679,-0.00085,-0.01182,-0.02784,-0.05222,-0.09193,1.04109,1.23151,0.00000,1.15914,1.13929,-0.42572,-0.06080,1.20477,-0.67362,-0.12973,-2.42935,-2.42935,A,161803.20
1.24787,57.68805742,11.98147013,57.68805683,11.98146617,16:18:03.322882,0.00535,1.00741,1.00741,-0.07458,-0.06679,0.00404,0.00009,-0.03028,-0.01806,-0.07814,1.00430,1.24209,0.20148,0.62384,0.60399,-0.43811,-0.06425,1.20477,-0.67362,-0.12973,-2.42935,-2.42935,A,161803.20
1.25784,57.68805740,11.98146995,57.68805683,11.98146617,16:18:03.332858,0.00493,1.00741,1.00741,-0.07484,-0.06679,-0.00604,-0.01136,-0.02371,0.02275,-0.06082,0.96356,1.25237,0.36267,0.16876,0.14890,-0.44859,-0.06663,1.20477,-0.67362,-0.12973,-2.42935,-2.42935,A,161803.20
1.26850,57.68805738,11.98146981,57.68805683,11.98146617,16:18:03.343519,0.00533,1.00741,1.00741,-0.07479,-0.06679,0.00435,-0.01274,-0.02157,0.02409,-0.04709,0.96087,1.26259,0.49162,-0.21814,-0.23799,-0.45696,-0.06935,1.20477,-0.67362,-0.12973,-2.42935,-2.42935,A,161803.20
1.27936,57.68805734,11.98146970,57.68805683,11.98146617,16:18:03.354383,0.00552,1.00741,1.00741,-0.07519,-0.06679,0.01091,-0.02022,-0.01989,0.00378,-0.08357,0.98411,1.27358,0.59477,-0.54707,-0.56692,-0.46380,-0.07334,1.20477,-0.67362,-0.12973,-2.42935,-2.42935,A,161803.20
1.28931,57.68805729,11.98146959,57.68805683,11.98146617,16:18:03.364326,0.00507,1.00741,1.00741,-0.07551,-0.06679,0.01152,-0.01472,-0.02020,-0.06942,-0.08082,1.02901,1.28381,0.67730,-0.82669,-0.84655,-0.47026,-0.07873,1.20477,-0.67362,-0.12973,-2.42935,-2.42935,A,161803.20
1.30001,57.68805723,11.98146948,57.68805683,11.98146617,16:18:03.375025,0.00538,1.00741,1.00741,-0.07593,-0.06679,0.01305,0.00147,-0.02234,-0.05551,-0.09004,1.03120,1.29421,0.74332,-1.06442,-1.08427,-0.47675,-0.08543,1.20477,-0.67362,-0.12973,-2.42935,-2.42935,A,161803.20
1.32710,57.68805716,11.98146936,57.68805650,11.98146517,16:18:03.402126,0.02207,1.00741,1.00741,-0.07600,-0.06679,0.00557,0.01124,-0.02509,0.01806,-0.05935,1.00266,1.30477,0.79614,-1.26651,-1.28636,-0.48380,-0.09294,1.32276,-0.73306,-0.16679,-2.58400,-2.58400,A,161803.30
1.34900,57.68805689,11.98146928,57.68805650,11.98146517,16:18:03.424011,0.01128,9.04529,1.00741,-0.07579,-0.06679,0.00939,-0.01152,-0.02509,-0.04435,-0.06100,1.00339,1.34319,0.83839,-1.46267,-1.48252,-0.48848,-0.12325,1.32276,-0.73306,-0.16679,-2.58400,-2.58400,A,161803.30
1.36892,57.68805675,11.98146910,57.68805650,11.98146517,16:18:03.443939,0.01218,9.04529,1.00741,-0.07633,-0.06679,0.01427,-0.00067,-0.01974,0.04727,-0.10321,0.97667,1.36299,0.87220,-1.62866,-1.64851,-0.49946,-0.13950,1.32276,-0.73306,-0.16679,-2.58400,-2.58400,A,161803.30
1.38752,57.68805661,11.98146888,57.68805650,11.98146517,16:18:03.462535,0.01148,9.04529,1.00741,-0.07633,-0.06665,0.01443,-0.01579,-0.01012,-0.06545,-0.06881,1.01358,1.38114,0.89924,-1.76972,-1.78953,-0.51217,-0.15406,1.32276,-0.73306,-0.16679,-2.58400,-2.58400,A,161803.30
1.40608,57.68805648,11.98146864,57.68805650,11.98146517,16:18:03.481095,0.01141,9.04529,1.00741,-0.07603,-0.06600,0.01595,0.02239,-0.00615,-0.05167,-0.05398,1.05603,1.40049,0.92087,-1.88970,-1.90931,-0.52632,-0.16866,1.32276,-0.73306,-0.16679,-2.58400,-2.58400,A,161803.30
1.44314,57.68805634,11.98146838,57.68805700,11.98146417,16:18:03.518168,0.02781,9.04529,1.00741,-0.07552,-0.06436,0.01213,-0.00357,-0.01485,0.04490,-0.03410,1.00229,1.42174,0.93818,-1.99189,-2.01102,-0.54229,-0.18458,1.43906,-0.79250,-0.11119,2.38956,2.38956,A,161803.40
1.46196,57.68805614,11.98146796,57.68805700,11.98146417,16:18:03.536973,0.01014,9.04529,1.00741,-0.07572,-0.06173,0.01580,0.01536,-0.02509,0.03202,-0.09559,0.96331,1.45641,0.95203,-1.33345,-1.35179,-0.56717,-0.20716,1.43906,-0.79250,-0.11119,2.38956,2.38956,A,161803.40
1.48428,57.68805603,11.98146783,57.68805700,11.98146417,16:18:03.559294,0.01136,9.04529,1.00741,-0.07518,-0.05969,0.01076,-0.00831,-0.00951,0.00970,-0.02800,0.96923,1.47740,0.96310,-0.77321,-0.79095,-0.57467,-0.21928,1.43906,-0.79250,-0.11119,2.38956,2.38956,A,161803.40
1.50109,57.68805599,11.98146781,57.68805700,11.98146417,16:18:03.576098,0.00833,9.04529,1.00741,-0.07444,-0.05808,0.02832,0.00330,-0.00432,-0.07930,-0.03508,1.05048,1.49535,0.97196,-0.29687,-0.31412,-0.57602,-0.22352,1.43906,-0.79250,-0.11119,2.38956,2.38956,A,161803.40
1.51368,57.68805601,11.98146779,57.68805700,11.98146417,16:18:03.588699,0.01055,9.04529,1.00741,-0.07464,-0.05728,0.02741,0.02178,-0.00462,-0.01958,-0.08656,1.02523,1.50812,0.97905,0.10818,0.09116,-0.57738,-0.22098,1.43906,-0.79250,-0.11119,2.38956,2.38956,A,161803.40
1.53340,57.68805608,11.98146788,57.68805700,11.98146417,16:18:03.608416,0.01076,9.04529,1.00741,-0.07434,-0.05658,0.01855,0.01811,-0.00310,0.05777,-0.05234,0.99875,1.52787,0.98472,0.45212,0.43531,-0.57153,-0.21397,1.43906,-0.79250,-0.11119,2.38956,2.38956,A,161803.40
1.57835,57.68805618,11.98146793,57.68805800,11.98146233,16:18:03.653370,0.03815,9.04529,1.00741,-0.07406,-0.05632,0.01779,-0.00128,-0.01073,0.00555,-0.05014,0.98472,1.54605,0.98926,0.74454,0.72781,-0.56868,-0.20237,1.57415,-0.90147,0.00000,2.34608,2.34608,A,161803.60
1.60008,57.68805653,11.98146820,57.68805800,11.98146233,16:18:03.675099,0.01233,9.04529,1.00741,-0.07334,-0.05295,0.01504,0.00528,-0.00554,-0.05325,-0.04868,1.03651,1.59422,0.99289,0.98514,0.96941,-0.55298,-0.16344,1.57415,-0.90147,0.00000,2.34608,2.34608,A,161803.60
1.61718,57.68805671,11.98146804,57.68805800,11.98146233,16:18:03.692197,0.01173,9.04529,1.00741,-0.07320,-0.05128,0.02389,0.02010,-0.00401,0.03056,-0.06698,1.03749,1.61143,0.99579,1.19094,1.17570,-0.56225,-0.14338,1.57415,-0.90147,0.00000,2.34608,2.34608,A,161803.60
1.63292,57.68805688,11.98146783,57.68805800,11.98146233,16:18:03.708322,0.00787,9.04529,1.00741,-0.07301,-0.05010,0.01626,0.00635,-0.00142,0.06649,-0.04996,1.00784,1.62621,0.99812,1.36594,1.35106,-0.57456,-0.12507,1.57415,-0.90147,0.00000,2.34608,2.34608,A,161803.60
1.64584,57.68805702,11.98146760,57.68805800,11.98146233,16:18:03.720857,0.01059,9.04529,1.00741,-0.07281,-0.04942,0.02527,-0.01365,-0.00707,0.02721,-0.05575,0.98948,1.64031,0.99998,1.51473,1.50005,-0.58860,-0.10850,1.57415,-0.90147,0.00000,2.34608,2.34608,A,161803.60
1.65956,57.68805716,11.98146734,57.68805800,11.98146233,16:18:03.734581,0.00907,9.04529,1.00741,-0.07293,-0.04905,0.02481,-0.02175,-0.00752,-0.02031,-0.07113,0.97002,1.65198,1.00146,1.64124,1.62667,-0.60358,-0.09372,1.57415,-0.90147,0.00000,2.34608,2.34608,A,161803.60
1.67285,57.68805730,11.98146708,57.68805800,11.98146233,16:18:03.747864,0.01178,9.04529,1.00741,-0.07325,-0.04868,0.02802,-0.01106,-0.00401,-0.01623,-0.09302,0.97582,1.66700,1.00265,1.74870,1.73425,-0.61907,-0.07839,1.57415,-0.90147,0.00000,2.34608,2.34608,A,161803.60
1.70700,57.68805748,11.98146680,57.68805900,11.98146117,16:18:03.782028,0.02509,9.04529,1.00741,-0.07277,-0.04800,0.02008,0.00498,-0.00004,-0.02727,-0.04154,1.04072,1.68660,1.00360,1.83979,1.82553,-0.63591,-0.05802,1.70360,-0.97081,0.11119,2.12840,2.12840,A,161803.70
1.72517,57.68805781,11.98146639,57.68805900,11.98146117,16:18:03.800189,0.00798,9.04529,1.00741,-0.07218,-0.04741,0.01946,0.01353,0.00286,0.04032,-0.04666,0.95032,1.71942,1.00436,1.88403,1.86995,-0.66008,-0.02104,1.70360,-0.97081,0.11119,2.12840,2.12840,A,161803.70
1.73693,57.68805794,11.98146609,57.68805900,11.98146117,16:18:03.811974,0.00951,9.04529,1.00741,-0.07224,-0.04741,0.01824,-0.00189,-0.00661,0.01659,-0.05868,0.93739,1.73037,1.00497,1.92247,1.90839,-0.67812,-0.00629,1.70360,-0.97081,0.11119,2.12840,2.12840,A,161803.70
1.74703,57.68805806,11.98146580,57.68805900,11.98146117,16:18:03.822066,0.00863,9.04529,1.00741,-0.07231,-0.04741,0.01290,-0.00739,-0.00676,0.03538,-0.05502,0.93275,1.74025,1.00546,1.95519,1.94111,-0.69521,0.00658,1.70360,-0.97081,0.11119,2.12840,2.12840,A,161803.70
1.75729,57.68805816,11.98146553,57.68805900,11.98146117,16:18:03.832310,0.00849,9.04529,1.00741,-0.07307,-0.04741,0.01045,-0.01594,-0.00981,0.01397,-0.09815,0.95136,1.75022,1.00585,1.98302,1.96894,-0.71147,0.01820,1.70360,-0.97081,0.11119,2.12840,2.12840,A,161803.70
1.76873,57.68805828,11.98146525,57.68805900,11.98146117,16:18:03.843745,0.00975,9.04529,1.00741,-0.07363,-0.04741,0.01122,-0.01365,-0.01027,0.03056,-0.08973,0.96758,1.76277,1.00616,2.00659,1.99251,-0.72786,0.03097,1.70360,-0.97081,0.11119,2.12840,2.12840,A,161803.70
1.77988,57.68805839,11.98146499,57.68805900,11.98146117,16:18:03.854891,0.01029,9.04529,1.00741,-0.07349,-0.04741,0.00862,-0.01610,-0.00462,-0.01263,-0.04636,1.06000,1.77403,1.00641,2.02664,2.01256,-0.74355,0.04288,1.70360,-0.97081,0.11119,2.12840,2.12840,A,161803.70
1.79433,57.68805851,11.98146471,57.68805900,11.98146117,16:18:03.869342,0.00796,9.04529,1.00741,-0.07343,-0.04741,0.01320,-0.00510,0.00301,-0.01708,-0.05771,1.04957,1.78876,1.00661,2.04355,2.02947,-0.76008,0.05722,1.70360,-0.97081,0.11119,2.12840,2.12840,A,161803.70
1.82141,57.68805862,11.98146446,57.68805783,11.98146017,16:18:03.896432,0.02482,9.04529,1.00741,-0.07306,-0.04741,0.01824,0.00498,0.00210,0.00012,-0.03611,1.03224,1.79958,1.00677,2.05802,2.04394,-0.77481,0.06841,1.81808,-1.03025,-0.01853,-2.00042,-2.00042,A,161803.80
1.83677,57.68805878,11.98146405,57.68805783,11.98146017,16:18:03.911785,0.00985,9.04529,1.00741,-0.07283,-0.04741,0.01045,0.01552,-0.00691,0.01867,-0.04978,0.96703,1.82947,1.00690,1.45038,1.43630,-0.79922,0.08679,1.81808,-1.03025,-0.01853,-2.00042,-2.00042,A,161803.80
1.84862,57.68805882,11.98146388,57.68805783,11.98146017,16:18:03.923639,0.01066,9.04529,1.00741,-0.07271,-0.04741,0.00847,0.00559,-0.01241,-0.00030,-0.04496,0.99381,1.84280,1.00700,0.93451,0.92043,-0.80951,0.09081,1.81808,-1.03025,-0.01853,-2.00042,-2.00042,A,161803.80
1.86853,57.68805888,11.98146386,57.68805783,11.98146017,16:18:03.943545,0.01225,9.04529,1.00741,-0.07266,-0.04741,0.01030,-0.00480,-0.01043,0.01915,-0.05612,1.01437,1.86159,1.00708,0.49576,0.48168,-0.81088,0.09805,1.81808,-1.03025,-0.01853,-2.00042,-2.00042,A,161803.80
1.88208,57.68805887,11.98146382,57.68805783,11.98146017,16:18:03.957098,0.00822,9.04529,1.00741,-0.07276,-0.04738,0.01229,0.00544,-0.00737,0.02086,-0.06246,0.99168,1.87497,1.00715,0.12307,0.10899,-0.81321,0.09674,1.81808,-1.03025,-0.01853,-2.00042,-2.00042,A,161803.80
1.89327,57.68805883,11.98146378,57.68805783,11.98146017,16:18:03.968993,0.00919,9.04529,1.00741,-0.07311,-0.04724,0.00816,0.00009,0.00057,0.00403,-0.07302,0.95959,1.88709,1.00720,-0.19368,-0.20771,-0.81573,0.09188,1.81808,-1.03025,-0.01853,-2.00042,-2.00042,A,161803.80
1.90412,57.68805876,11.98146373,57.68805783,11.98146017,16:18:03.979132,0.00897,9.04529,1.00741,-0.07334,-0.04695,0.00862,0.00360,0.00469,0.01604,-0.06692,0.98423,1.89824,1.00724,-0.46292,-0.47687,-0.81830,0.08465,1.81808,-1.03025,-0.01853,-2.00042,-2.00042,A,161803.80
1.91610,57.68805868,11.98146370,57.68805783,11.98146017,16:18:03.991118,0.01021,9.04529,1.00741,-0.07283,-0.04633,0.01443,0.00574,0.01645,-0.02867,-0.02416,1.01473,1.91024,1.00728,-0.69184,-0.70560,-0.82051,0.07515,1.81808,-1.03025,-0.01853,-2.00042,-2.00042,A,161803.80
1.94660,57.68805857,11.98146367,57.68805567,11.98145767,16:18:04.021851,0.02463,9.04529,1.00741,-0.07243,-0.04551,0.01977,0.00605,0.01370,-0.01086,-0.03898,1.04853,1.92438,1.00730,-0.88654,-0.90006,-0.82224,0.06301,1.94339,-1.17884,-0.25945,-2.12346,-2.12346,A,161803.90
1.95846,57.68805824,11.98146363,57.68805567,11.98145767,16:18:04.033477,0.00613,1.21482,1.21482,-0.07252,-0.04387,0.00954,0.02315,-0.00187,0.01507,-0.07027,0.99607,1.95292,1.04881,-1.07107,-1.08410,-0.82417,0.02685,1.94339,-1.17884,-0.25945,-2.12346,-2.12346,A,161803.90
1.96911,57.68805804,11.98146340,57.68805567,11.98145767,16:18:04.044129,0.00654,1.21482,1.21482,-0.07244,-0.04339,0.00328,0.01994,-0.00416,0.00226,-0.04349,0.97637,1.96335,1.08201,-1.22731,-1.24019,-0.83789,0.00495,1.94339,-1.17884,-0.25945,-2.12346,-2.12346,A,161803.90
1.97803,57.68805786,11.98146316,57.68805567,11.98145767,16:18:04.053039,0.00506,1.21482,1.21482,-0.07255,-0.04302,-0.00069,0.02071,-0.00813,0.04191,-0.05148,0.96105,1.97255,1.10857,-1.36007,-1.37285,-0.85255,-0.01523,1.94339,-1.17884,-0.25945,-2.12346,-2.12346,A,161803.90
1.98844,57.68805768,11.98146291,57.68805567,11.98145767,16:18:04.063449,0.00523,1.21482,1.21482,-0.07208,-0.04271,0.00099,0.00895,-0.00371,0.03489,-0.01574,0.95965,1.98262,1.12982,-1.47299,-1.48567,-0.86715,-0.03603,1.94339,-1.17884,-0.25945,-2.12346,-2.12346,A,161803.90
1.99905,57.68805749,11.98146266,57.68805567,11.98145767,16:18:04.074092,0.00545,1.21482,1.21482,-0.07163,-0.04254,0.00236,0.00834,-0.00661,0.02696,-0.01818,0.96417,1.99321,1.14682,-1.56898,-1.58161,-0.88196,-0.05627,1.94339,-1.17884,-0.25945,-2.12346,-2.12346,A,161803.90
2.00909,57.68805732,11.98146241,57.68805567,11.98145767,16:18:04.084111,0.00509,1.21482,1.21482,-0.07184,-0.04245,0.00435,0.00651,0.00317,0.01440,-0.06332,1.00943,2.00338,1.16042,-1.65058,-1.66319,-0.89690,-0.07558,1.94339,-1.17884,-0.25945,-2.12346,-2.12346,A,161803.90
2.02419,57.68805715,11.98146216,57.68805567,11.98145767,16:18:04.099256,0.00980,1.21482,1.21482,-0.07238,-0.04245,0.00694,0.00864,0.00607,0.01348,-0.08888,1.02419,2.01399,1.21482,-2.91235,-2.92495,-1.17884,-0.25945,1.94339,-1.17884,-0.25945,-2.12346,-2.12346,A,161803.90
2.03235,57.68805564,11.98145747,57.68805567,11.98145767,16:18:04.107366,0.00718,1.21482,1.21482,-0.07291,0.02197,0.00740,0.01063,0.00821,0.01482,-0.08125,1.01724,2.02656,1.21482,-2.79541,-2.78889,-1.19069,-0.26206,1.94339,-1.17884,-0.25945,-2.12346,-2.12346,A,161803.90
2.04081,57.68805562,11.98145736,57.68805567,11.98145767,16:18:04.115820,0.00540,1.21482,1.21482,-0.07359,0.02197,0.00404,0.00864,0.00927,0.01434,-0.09022,1.03432,2.03504,1.21482,-2.69546,-2.68894,-1.19705,-0.26449,1.94339,-1.17884,-0.25945,-2.12346,-2.12346,A,161803.90
2.07980,57.68805559,11.98145723,57.68805617,11.98145583,16:18:04.154824,0.03400,1.21482,1.21482,-0.07411,0.02197,0.01091,0.00803,0.00653,0.00122,-0.08503,1.04023,2.04541,1.21482,-2.61047,-2.60395,-1.20479,-0.26845,2.07316,-1.28781,-0.20386,-3.61338,2.66981,A,161804.10
2.09820,57.68805537,11.98145640,57.68805617,11.98145583,16:18:04.173213,0.00797,1.21482,1.21482,-0.07348,0.02236,0.01641,0.00421,-0.00050,0.01403,-0.04715,0.95593,2.09262,1.21482,-2.76096,-2.75432,-1.25400,-0.29208,2.07316,-1.28781,-0.20386,-3.61338,2.66981,A,161804.10
2.10568,57.68805539,11.98145627,57.68805617,11.98145583,16:18:04.180702,0.00506,1.21482,1.21482,-0.07329,0.02245,0.01809,0.00192,-0.00035,-0.00738,-0.03385,0.96136,2.10019,1.21482,-2.88970,-2.88304,-1.26182,-0.29017,2.07316,-1.28781,-0.20386,-3.61338,2.66981,A,161804.10
2.11633,57.68805541,11.98145609,57.68805617,11.98145583,16:18:04.191340,0.00519,1.21482,1.21482,-0.07324,0.02251,0.02252,0.00391,-0.00004,-0.00451,-0.04910,0.95361,2.11055,1.21482,-2.99907,-2.99239,-1.27269,-0.28839,2.07316,-1.28781,-0.20386,-3.61338,2.66981,A,161804.10
2.12662,57.68805543,11.98145591,57.68805617,11.98145583,16:18:04.201884,0.00508,1.21482,1.21482,-0.07342,0.02251,0.03351,0.00620,0.00057,0.01055,-0.07082,0.95172,2.12115,1.21482,-3.09204,-3.08536,-1.28319,-0.28563,2.07316,-1.28781,-0.20386,-3.61338,2.66981,A,161804.10
2.13705,57.68805546,11.98145574,57.68805617,11.98145583,16:18:04.212061,0.00511,1.21482,1.21482,-0.07355,0.02251,0.03046,0.00269,-0.00111,0.01013,-0.06588,0.96801,2.13132,1.21482,-3.17106,-3.16438,-1.29310,-0.28208,2.07316,-1.28781,-0.20386,-3.61338,2.66981,A,161804.10
2.14773,57.68805550,11.98145558,57.68805617,11.98145583,16:18:04.222742,0.00539,1.21482,1.21482,-0.07372,0.02251,0.03077,0.00192,0.00256,-0.01921,-0.07216,0.99515,2.14194,1.21482,-3.23823,-3.23155,-1.30277,-0.27794,2.07316,-1.28781,-0.20386,-3.61338,2.66981,A,161804.10
2.15782,57.68805554,11.98145543,57.68805617,11.98145583,16:18:04.232834,0.00508,1.21482,1.21482,-0.07362,0.02251,0.03199,0.00712,-0.00157,-0.01171,-0.05520,1.00607,2.15232,1.21482,-3.29533,-3.28865,-1.31157,-0.27338,2.07316,-1.28781,-0.20386,-3.61338,2.66981,A,161804.10
2.16856,57.68805559,11.98145529,57.68805617,11.98145583,16:18:04.243580,0.00542,1.21482,1.21482,-0.07359,0.02251,0.03672,0.00452,-0.00111,0.01494,-0.06271,1.00363,2.16255,1.21482,-3.34386,-3.33718,-1.32003,-0.26847,2.07316,-1.28781,-0.20386,-3.61338,2.66981,A,161804.10
2.19431,57.68805563,11.98145516,57.68805717,11.98145433,16:18:04.269323,0.02077,1.21482,1.21482,-0.07386,0.02251,0.03687,0.00467,-0.00142,0.03373,-0.08510,1.01992,2.17313,1.21482,-3.38511,-3.37843,-1.32781,-0.26338,2.18989,-1.37697,-0.09266,-4.03655,2.24663,A,161804.20
2.20482,57.68805577,11.98145466,57.68805717,11.98145433,16:18:04.279829,0.00525,1.21482,1.21482,-0.07320,0.02253,0.03321,-0.00373,0.00561,0.05734,-0.05039,0.96575,2.19904,1.21482,-3.48332,-3.47663,-1.35733,-0.24831,2.18989,-1.37697,-0.09266,-4.03655,2.24663,A,161804.20
2.21534,57.68805587,11.98145449,57.68805717,11.98145433,16:18:04.290356,0.00538,1.21482,1.21482,-0.07313,0.02259,0.03687,-0.01487,0.01019,0.00939,-0.05893,0.98564,2.20959,1.21482,-3.56713,-3.56042,-1.36758,-0.23731,2.18989,-1.37697,-0.09266,-4.03655,2.24663,A,161804.20
2.22543,57.68805597,11.98145433,57.68805717,11.98145433,16:18:04.300442,0.00507,1.21482,1.21482,-0.07316,0.02268,0.03382,-0.02037,0.00989,0.03288,-0.06076,0.94776,2.21992,1.21482,-3.63837,-3.63164,-1.37707,-0.22606,2.18989,-1.37697,-0.09266,-4.03655,2.24663,A,161804.20
2.23628,57.68805607,11.98145418,57.68805717,11.98145433,16:18:04.311295,0.00523,1.21482,1.21482,-0.07319,0.02279,0.03122,-0.02694,0.00546,-0.01671,-0.05813,0.92970,2.23048,1.21482,-3.69892,-3.69216,-1.38599,-0.21462,2.18989,-1.37697,-0.09266,-4.03655,2.24663,A,161804.20
2.24813,57.68805617,11.98145404,57.68805717,11.98145433,16:18:04.323145,0.00681,1.21482,1.21482,-0.07296,0.02293,0.03046,-0.01579,0.00683,-0.00958,-0.04483,0.97795,2.24151,1.21482,-3.75040,-3.74359,-1.39434,-0.20312,2.18989,-1.37697,-0.09266,-4.03655,2.24663,A,161804.20
2.25703,57.68805626,11.98145395,57.68805717,11.98145433,16:18:04.332047,0.00526,1.21482,1.21482,-0.07271,0.02299,0.02099,-0.00724,0.00378,-0.02916,-0.03581,1.00589,2.25125,1.21482,-3.79420,-3.78737,-1.40000,-0.19311,2.18989,-1.37697,-0.09266,-4.03655,2.24663,A,161804.20
2.26849,57.68805636,11.98145383,57.68805717,11.98145433,16:18:04.343514,0.00617,1.21482,1.21482,-0.07242,0.02299,0.02450,0.00269,0.00622,0.03837,-0.03660,1.00247,2.26210,1.21482,-3.83138,-3.82456,-1.40696,-0.18198,2.18989,-1.37697,-0.09266,-4.03655,2.24663,A,161804.20
2.28003,57.68805647,11.98145371,57.68805717,11.98145433,16:18:04.355045,0.00602,1.21482,1.21482,-0.07221,0.02299,0.01672,-0.00205,-0.00111,-0.00311,-0.04002,1.05188,2.27419,1.21482,-3.86298,-3.85615,-1.41392,-0.17063,2.18989,-1.37697,-0.09266,-4.03655,2.24663,A,161804.20
2.28949,57.68805655,11.98145363,57.68805717,11.98145433,16:18:04.364506,0.00510,1.21482,1.21482,-0.07193,0.02299,0.01443,-0.00480,-0.00203,0.06911,-0.02946,1.01907,2.28401,1.21482,-3.88987,-3.88305,-1.41879,-0.16090,2.18989,-1.37697,-0.09266,-4.03655,2.24663,A,161804.20
2.31739,57.68805664,11.98145354,57.68805717,11.98145267,16:18:04.392415,0.02242,1.21482,1.21482,-0.07195,0.02299,0.00633,-0.01610,-0.00340,0.03989,-0.04264,0.99436,2.29438,1.21482,-3.91271,-3.90588,-1.42402,-0.15079,2.31148,-1.47603,-0.09266,-3.14159,3.14159,A,161804.30
2.32917,57.68805686,11.98145313,57.68805717,11.98145267,16:18:04.404183,0.00631,1.21482,1.21482,-0.07225,0.02299,0.00542,-0.01655,-0.00707,-0.00305,-0.06985,1.02456,2.32235,1.21482,-3.79750,-3.79068,-1.44819,-0.12720,2.31148,-1.47603,-0.09266,-3.14159,3.14159,A,161804.30
2.33836,57.68805692,11.98145300,57.68805717,11.98145267,16:18:04.413370,0.00510,1.21482,1.21482,-0.07235,0.02299,0.00893,-0.01075,-0.00172,0.05356,-0.05087,1.00034,2.33287,1.21482,-3.69998,-3.69315,-1.45644,-0.12028,2.31148,-1.47603,-0.09266,-3.14159,3.14159,A,161804.30
2.34867,57.68805698,11.98145284,57.68805717,11.98145267,16:18:04.423682,0.00518,1.21482,1.21482,-0.07304,0.02299,0.00160,-0.01442,0.00210,0.03697,-0.08101,0.94446,2.34291,1.21482,-3.61707,-3.61024,-1.46554,-0.11390,2.31148,-1.47603,-0.09266,-3.14159,3.14159,A,161804.30
2.35953,57.68805703,11.98145269,57.68805717,11.98145267,16:18:04.434545,0.00563,1.21482,1.21482,-0.07107,0.02299,0.00694,-0.01258,0.01309,-0.01482,0.08564,0.97435,2.35352,1.21482,-3.54658,-3.53976,-1.47488,-0.10838,2.31148,-1.47603,-0.09266,-3.14159,3.14159,A,161804.30
2.36965,57.68805707,11.98145254,57.68805717,11.98145267,16:18:04.444659,0.00535,1.21482,1.21482,-0.07138,0.02299,0.02038,-0.00235,0.01615,-0.03257,-0.07149,0.99381,2.36412,1.21482,-3.48668,-3.47985,-1.48379,-0.10387,2.31148,-1.47603,-0.09266,-3.14159,3.14159,A,161804.30
2.38009,57.68805710,11.98145239,57.68805717,11.98145267,16:18:04.455103,0.00522,1.21482,1.21482,-0.07067,0.02299,0.00740,0.00238,0.01111,-0.03477,0.00537,1.00638,2.37427,1.21482,-3.43576,-3.42893,-1.49249,-0.10011,2.31148,-1.47603,-0.09266,-3.14159,3.14159,A,161804.30
2.39035,57.68805713,11.98145224,57.68805717,11.98145267,16:18:04.465368,0.00509,1.21482,1.21482,-0.07146,0.02299,0.01152,0.01078,0.01126,0.03501,-0.09760,0.99979,2.38487,1.21482,-3.39247,-3.38565,-1.50108,-0.09695,2.31148,-1.47603,-0.09266,-3.14159,3.14159,A,161804.30
2.40066,57.68805715,11.98145211,57.68805717,11.98145267,16:18:04.475672,0.00517,1.21482,1.21482,-0.07130,0.02299,-0.00726,0.00223,0.00225,0.11035,-0.02111,0.97752,2.39491,1.21482,-3.35568,-3.34886,-1.50908,-0.09443,2.31148,-1.47603,-0.09266,-3.14159,3.14159,A,161804.30
2.41126,57.68805717,11.98145198,57.68805717,11.98145267,16:18:04.486280,0.00537,1.21482,1.21482,-0.07122,0.02299,0.00038,-0.01503,-0.00233,0.02525,-0.03337,1.02181,2.40552,1.21482,-3.32441,-3.31758,-1.51712,-0.09231,2.31148,-1.47603,-0.09266,-3.14159,3.14159,A,161804.30
2.43701,57.68805719,11.98145185,57.68805500,11.98144967,16:18:04.512028,0.02072,1.21482,1.21482,-0.07135,0.02299,-0.00253,-0.01136,-0.01073,0.00799,-0.04471,1.01955,2.41584,1.21482,-3.29782,-3.29100,-1.52478,-0.09060,2.43294,-1.65434,-0.33358,-2.20795,-2.20795,A,161804.40
2.44821,57.68805711,11.98145126,57.68805500,11.98144967,16:18:04.523222,0.00532,1.41984,1.41984,-0.07133,0.02299,-0.00329,-0.00785,-0.00646,0.02769,-0.02855,0.97899,2.44235,1.25582,-3.13483,-3.12801,-1.55948,-0.09850,2.43294,-1.65434,-0.33358,-2.20795,-2.20795,A,161804.40
2.45859,57.68805701,11.98145101,57.68805500,11.98144967,16:18:04.533826,0.00530,1.41984,1.41984,-0.07203,0.02299,0.00572,-0.00861,-0.00157,-0.00683,-0.08388,0.96526,2.45290,1.28863,-2.99663,-2.98981,-1.57425,-0.11039,2.43294,-1.65434,-0.33358,-2.20795,-2.20795,A,161804.40
2.46901,57.68805689,11.98145078,57.68805500,11.98144967,16:18:04.544030,0.00550,1.41984,1.41984,-0.07275,0.02299,-0.00130,-0.00098,0.00240,-0.02830,-0.08381,0.99631,2.46294,1.31487,-2.87916,-2.87234,-1.58827,-0.12308,2.43294,-1.65434,-0.33358,-2.20795,-2.20795,A,161804.40
2.47926,57.68805677,11.98145056,57.68805500,11.98144967,16:18:04.554280,0.00535,1.41984,1.41984,-0.07342,0.02299,0.00160,0.00635,0.00912,-0.01751,-0.08070,0.96642,2.47352,1.33586,-2.77931,-2.77249,-1.60148,-0.13634,2.43294,-1.65434,-0.33358,-2.20795,-2.20795,A,161804.40
2.48938,57.68805665,11.98145034,57.68805500,11.98144967,16:18:04.564383,0.00507,1.41984,1.41984,-0.07402,0.02299,-0.00772,0.00819,0.00530,-0.01934,-0.07082,0.97374,2.48388,1.35266,-2.69442,-2.68760,-1.61428,-0.15013,2.43294,-1.65434,-0.33358,-2.20795,-2.20795,A,161804.40
2.50007,57.68805652,11.98145014,57.68805500,11.98144967,16:18:04.575086,0.00519,1.41984,1.41984,-0.07325,0.02299,-0.00665,-0.00281,0.00698,0.05636,0.01726,0.99918,2.49428,1.36609,-2.62227,-2.61545,-1.62623,-0.16416,2.43294,-1.65434,-0.33358,-2.20795,-2.20795,A,161804.40
2.51157,57.68805639,11.98144994,57.68805500,11.98144967,16:18:04.586581,0.00645,1.41984,1.41984,-0.07401,0.02299,-0.00421,-0.01182,-0.00523,0.01080,-0.08851,1.03047,2.50574,1.37684,-2.56091,-2.55409,-1.63818,-0.17875,2.43294,-1.65434,-0.33358,-2.20795,-2.20795,A,161804.40
2.52053,57.68805628,11.98144980,57.68805500,11.98144967,16:18:04.595543,0.00518,1.41984,1.41984,-0.07300,0.02299,0.00083,-0.01930,-0.00203,0.04026,0.02910,1.04969,2.51477,1.38544,-2.50882,-2.50200,-1.64654,-0.19152,2.43294,-1.65434,-0.33358,-2.20795,-2.20795,A,161804.40
2.53108,57.68805615,11.98144964,57.68805500,11.98144967,16:18:04.606111,0.00534,1.41984,1.41984,-0.07369,0.02299,0.02267,-0.02175,-0.00798,0.01946,-0.10455,1.04536,2.52535,1.39232,-2.46450,-2.45768,-1.65593,-0.20532,2.43294,-1.65434,-0.33358,-2.20795,-2.20795,A,161804.40
2.55813,57.68805603,11.98144949,57.68805200,11.98144617,16:18:04.633144,0.02198,1.41984,1.41984,-0.07401,0.02299,0.00251,-0.02511,-0.00371,-0.04264,-0.06472,1.04816,2.53551,1.39782,-2.42683,-2.42000,-1.66480,-0.21903,2.55284,-1.86237,-0.66717,-2.12840,-2.12840,A,161804.50
2.57243,57.68805561,11.98144886,57.68805200,11.98144617,16:18:04.647471,0.00683,1.41984,1.41984,-0.07356,0.02299,0.00709,-0.01228,0.00362,-0.03141,-0.02184,0.96978,2.56547,1.40222,-2.38240,-2.37558,-1.70214,-0.26560,2.55284,-1.86237,-0.66717,-2.12840,-2.12840,A,161804.50
2.58108,57.68805536,11.98144860,57.68805200,11.98144617,16:18:04.656097,0.00509,1.41984,1.41984,-0.07318,0.02299,0.00633,-0.00938,0.00805,-0.02672,-0.01708,0.97801,2.57537,1.40575,-2.34512,-2.33830,-1.71793,-0.29316,2.55284,-1.86237,-0.66717,-2.12840,-2.12840,A,161804.50
2.59190,57.68805512,11.98144834,57.68805200,11.98144617,16:18:04.666916,0.00551,1.41984,1.41984,-0.07337,0.02299,0.01275,-0.01335,0.00989,0.04605,-0.05771,0.96648,2.58612,1.40856,-2.31342,-2.30659,-1.73327,-0.32027,2.55284,-1.86237,-0.66717,-2.12840,-2.12840,A,161804.50
2.60184,57.68805489,11.98144811,57.68805200,11.98144617,16:18:04.676853,0.00505,1.41984,1.41984,-0.07307,0.02299,0.00648,-0.01319,0.00683,-0.01793,-0.02324,1.03877,2.59636,1.41082,-2.28648,-2.27966,-1.74706,-0.34572,2.55284,-1.86237,-0.66717,-2.12840,-2.12840,A,161804.50
2.61250,57.68805467,11.98144788,57.68805200,11.98144617,16:18:04.687518,0.00521,1.41984,1.41984,-0.07323,0.02299,0.00801,-0.01717,0.00378,-0.00958,-0.05581,1.02852,2.60674,1.41262,-2.26358,-2.25676,-1.76034,-0.37055,2.55284,-1.86237,-0.66717,-2.12840,-2.12840,A,161804.50
2.62386,57.68805445,11.98144767,57.68805200,11.98144617,16:18:04.698878,0.00617,1.41984,1.41984,-0.07325,0.02299,0.00526,-0.00877,-0.00248,-0.04075,-0.04423,1.02041,2.61730,1.41406,-2.24409,-2.23727,-1.77326,-0.39494,2.55284,-1.86237,-0.66717,-2.12840,-2.12840,A,161804.50
2.63316,57.68805425,11.98144749,57.68805200,11.98144617,16:18:04.708173,0.00507,1.41984,1.41984,-0.07355,0.02299,0.00389,-0.00113,-0.00279,0.01739,-0.06045,1.00150,2.62745,1.41522,-2.22757,-2.22075,-1.78398,-0.41651,2.55284,-1.86237,-0.66717,-2.12840,-2.12840,A,161804.50
2.64411,57.68805406,11.98144730,57.68805200,11.98144617,16:18:04.719130,0.00562,1.41984,1.41984,-0.07376,0.02299,-0.00222,0.00131,-0.00294,0.05411,-0.05240,1.03120,2.63831,1.41614,-2.21350,-2.20667,-1.79511,-0.43853,2.55284,-1.86237,-0.66717,-2.12840,-2.12840,A,161804.50
2.68134,57.68805388,11.98144713,57.68805217,11.98144400,16:18:04.756376,0.03245,1.41984,1.41984,-0.07462,0.02299,-0.00512,-0.01442,-0.00813,-0.00458,-0.09284,0.99912,2.64838,1.41688,-2.20156,-2.19473,-1.80485,-0.45860,2.67610,-1.99115,-0.64864,-3.28452,2.99867,A,161804.70
2.69864,57.68805338,11.98144642,57.68805217,11.98144400,16:18:04.773888,0.00775,1.41984,1.41984,-0.07454,0.02304,0.00480,-0.02358,0.01477,-0.07143,-0.04801,1.00192,2.69226,1.41747,-2.36396,-2.35712,-1.84728,-0.51411,2.67610,-1.99115,-0.64864,-3.28452,2.99867,A,161804.70
2.70637,57.68805326,11.98144620,57.68805217,11.98144400,16:18:04.781389,0.00508,1.41984,1.41984,-0.07464,0.02316,0.00297,-0.01182,0.01218,0.03922,-0.04691,0.98728,2.70089,1.41794,-2.50292,-2.49605,-1.86019,-0.52654,2.67610,-1.99115,-0.64864,-3.28452,2.99867,A,161804.70
2.71672,57.68805315,11.98144594,57.68805217,11.98144400,16:18:04.791738,0.00520,1.41984,1.41984,-0.07439,0.02338,0.00038,-0.00877,0.01477,-0.06722,-0.02470,1.05243,2.71097,1.41832,-2.62099,-2.61405,-1.87568,-0.53938,2.67610,-1.99115,-0.64864,-3.28452,2.99867,A,161804.70
2.72725,57.68805305,11.98144568,57.68805217,11.98144400,16:18:04.802272,0.00534,1.41984,1.41984,-0.07439,0.02367,0.00496,-0.00586,0.01416,0.07442,-0.04355,1.02016,2.72151,1.41863,-2.72136,-2.71433,-1.89135,-0.55061,2.67610,-1.99115,-0.64864,-3.28452,2.99867,A,161804.70
2.73738,57.68805296,11.98144542,57.68805217,11.98144400,16:18:04.812388,0.00507,1.41984,1.41984,-0.07460,0.02398,0.00175,-0.01808,0.00866,-0.03001,-0.05740,1.05689,2.73188,1.41887,-2.80667,-2.79956,-1.90687,-0.56030,2.67610,-1.99115,-0.64864,-3.28452,2.99867,A,161804.70
2.74808,57.68805289,11.98144516,57.68805217,11.98144400,16:18:04.823093,0.00518,1.41984,1.41984,-0.07489,0.02435,-0.00268,-0.02557,0.01004,-0.04691,-0.06076,1.06360,2.74229,1.41906,-2.87921,-2.87198,-1.92203,-0.56862,2.67610,-1.99115,-0.64864,-3.28452,2.99867,A,161804.70
2.75858,57.68805282,11.98144492,57.68805217,11.98144400,16:18:04.833826,0.00529,1.41984,1.41984,-0.07483,0.02480,0.00206,-0.01823,0.00301,0.01946,-0.03934,1.07037,2.75289,1.41922,-2.94088,-2.93352,-1.93657,-0.57568,2.67610,-1.99115,-0.64864,-3.28452,2.99867,A,161804.70
2.76897,57.68805277,11.98144469,57.68805217,11.98144400,16:18:04.843986,0.00529,1.41984,1.41984,-0.07482,0.02534,0.00679,-0.01594,0.00286,-0.02251,-0.04502,1.03011,2.76307,1.41934,-2.99332,-2.98580,-1.95040,-0.58167,2.67610,-1.99115,-0.64864,-3.28452,2.99867,A,161804.70
2.79574,57.68805272,11.98144446,57.68805217,11.98144283,16:18:04.870790,0.02166,1.41984,1.41984,-0.07495,0.02604,0.00877,-0.02282,0.00347,0.01531,-0.05325,0.99076,2.77368,1.41944,-3.03793,-3.03020,-1.96367,-0.58678,2.79046,-2.06050,-0.64864,-3.14159,3.14159,A,161804.80
2.80897,57.68805266,11.98144376,57.68805217,11.98144283,16:18:04.883985,0.00747,1.41984,1.41984,-0.07482,0.02853,0.01305,-0.02068,0.01523,-0.03215,-0.04843,0.88426,2.80312,1.41952,-3.05396,-3.04549,-2.00526,-0.59399,2.79046,-2.06050,-0.64864,-3.14159,3.14159,A,161804.80
2.81723,57.68805263,11.98144358,57.68805217,11.98144283,16:18:04.892239,0.00532,1.41984,1.41984,-0.07487,0.02935,0.02023,-0.01167,0.01767,0.00738,-0.04636,0.88993,2.81128,1.41958,-3.06822,-3.05951,-2.01614,-0.59750,2.79046,-2.06050,-0.64864,-3.14159,3.14159,A,161804.80
2.82771,57.68805260,11.98144335,57.68805217,11.98144283,16:18:04.902718,0.00540,1.41984,1.41984,-0.07528,0.03020,0.01427,-0.00785,0.02409,0.00232,-0.07241,0.95746,2.82192,1.41963,-3.08030,-3.07133,-2.02966,-0.60099,2.79046,-2.06050,-0.64864,-3.14159,3.14159,A,161804.80
2.83779,57.68805257,11.98144314,57.68805217,11.98144283,16:18:04.912797,0.00509,1.41984,1.41984,-0.07508,0.03091,0.02298,0.00452,0.02088,0.04593,-0.03959,0.97277,2.83228,1.41967,-3.09060,-3.08142,-2.04235,-0.60416,2.79046,-2.06050,-0.64864,-3.14159,3.14159,A,161804.80
2.84835,57.68805254,11.98144293,57.68805217,11.98144283,16:18:04.923371,0.00521,1.41984,1.41984,-0.07461,0.03156,0.02084,-0.00984,0.01981,0.03288,-0.02233,1.03926,2.84257,1.41971,-3.09936,-3.08999,-2.05470,-0.60707,2.79046,-2.06050,-0.64864,-3.14159,3.14159,A,161804.80
2.85925,57.68805252,11.98144273,57.68805217,11.98144283,16:18:04.934271,0.00553,1.77235,1.77235,-0.07417,0.03213,0.02359,-0.00922,0.02012,-0.00262,-0.02452,1.09044,2.85333,1.49024,-3.10682,-3.09729,-2.06670,-0.60975,2.79046,-2.06050,-0.64864,-3.14159,3.14159,A,161804.80
2.86931,57.68805249,11.98144253,57.68805217,11.98144283,16:18:04.944327,0.00519,1.77235,1.77235,-0.07428,0.03264,0.02114,-0.01625,0.01783,-0.05734,-0.06210,1.10160,2.86350,1.54666,-3.11318,-3.10349,-2.07838,-0.61223,2.79046,-2.06050,-0.64864,-3.14159,3.14159,A,161804.80
2.87988,57.68805247,11.98144234,57.68805217,11.98144283,16:18:04.954889,0.00536,1.77235,1.77235,-0.07378,0.03318,0.02496,-0.00388,0.01263,0.03166,-0.01909,1.04194,2.87411,1.59180,-3.11858,-3.10873,-2.08998,-0.61453,2.79046,-2.06050,-0.64864,-3.14159,3.14159,A,161804.80
2.88984,57.68805245,11.98144215,57.68805217,11.98144283,16:18:04.964858,0.00494,1.77235,1.77235,-0.07361,0.03371,0.02252,-0.00739,0.01737,-0.00561,-0.03898,1.02822,2.88437,1.62791,-3.12320,-3.11319,-2.10091,-0.61664,2.79046,-2.06050,-0.64864,-3.14159,3.14159,A,161804.80
2.91674,57.68805244,11.98144197,57.68805433,11.98144183,16:18:04.991765,0.02157,1.77235,1.77235,-0.07356,0.03428,0.02649,-0.00648,0.01584,-0.00092,-0.04648,0.99088,2.89460,1.65680,-3.12713,-3.11695,-2.11197,-0.61861,2.91266,-2.11993,-0.40771,-4.47051,1.81267,A,161804.90
2.92664,57.68805252,11.98144131,57.68805433,11.98144183,16:18:05.001907,0.00518,1.77235,1.77235,-0.07298,0.03564,0.02145,-0.01182,0.03249,-0.04392,-0.02940,0.95008,2.92113,1.67991,-3.32914,-3.31856,-2.15087,-0.60902,2.91266,-2.11993,-0.40771,-4.47051,1.81267,A,161804.90
2.93700,57.68805263,11.98144112,57.68805433,11.98144183,16:18:05.012015,0.00515,1.77235,1.77235,-0.07244,0.03601,0.02618,0.00116,0.03707,-0.06411,-0.01220,0.94556,2.93124,1.69840,-3.50156,-3.49087,-2.16240,-0.59661,2.91266,-2.11993,-0.40771,-4.47051,1.81267,A,161804.90
2.94791,57.68805276,11.98144093,57.68805433,11.98144183,16:18:05.022932,0.00565,1.77235,1.77235,-0.07220,0.03618,0.02160,0.00162,0.03417,-0.00592,-0.02794,0.93537,2.94195,1.71319,-3.64811,-3.63736,-2.17342,-0.58238,2.91266,-2.11993,-0.40771,-4.47051,1.81267,A,161804.90
2.95772,57.68805290,11.98144078,57.68805433,11.98144183,16:18:05.032732,0.00506,1.77235,1.77235,-0.07202,0.03618,0.02145,-0.00113,0.02791,0.01940,-0.03123,0.94123,2.95223,1.72502,-3.77269,-3.76195,-2.18226,-0.56742,2.91266,-2.11993,-0.40771,-4.47051,1.81267,A,161804.90
2.96843,57.68805304,11.98144065,57.68805433,11.98144183,16:18:05.043445,0.00530,1.77235,1.77235,-0.07191,0.03618,0.01443,0.00070,0.02562,-0.00592,-0.03459,1.04072,2.96254,1.73449,-3.87856,-3.86782,-2.19052,-0.55131,2.91266,-2.11993,-0.40771,-4.47051,1.81267,A,161804.90
2.97860,57.68805319,11.98144053,57.68805433,11.98144183,16:18:05.053867,0.00507,1.77235,1.77235,-0.07194,0.03620,0.00939,0.01643,0.01783,-0.06869,-0.04490,1.10929,2.97313,1.74206,-3.96856,-3.95781,-2.19736,-0.53492,2.91266,-2.11993,-0.40771,-4.47051,1.81267,A,161804.90
2.98903,57.68805334,11.98144044,57.68805433,11.98144183,16:18:05.064041,0.00510,1.77235,1.77235,-0.07181,0.03623,0.00740,0.02605,0.01493,0.02348,-0.03160,1.11398,2.98330,1.74812,-4.04505,-4.03429,-2.20302,-0.51841,2.91266,-2.11993,-0.40771,-4.47051,1.81267,A,161804.90
2.99971,57.68805349,11.98144035,57.68805433,11.98144183,16:18:05.074721,0.00538,1.77235,1.77235,-0.07171,0.03635,0.01137,0.02636,0.01309,0.00439,-0.03562,1.09684,2.99391,1.75297,-4.11007,-4.09927,-2.20782,-0.50176,2.91266,-2.11993,-0.40771,-4.47051,1.81267,A,161804.90
3.00978,57.68805363,11.98144029,57.68805433,11.98144183,16:18:05.084790,0.00506,1.77235,1.77235,-0.07202,0.03654,0.01091,0.01750,0.01844,0.03971,-0.06326,1.06463,3.00430,1.75684,-4.16535,-4.15450,-2.21139,-0.48574,2.91266,-2.11993,-0.40771,-4.47051,1.81267,A,161804.90
3.03965,57.68805379,11.98144022,57.68805533,11.98143983,16:18:05.114680,0.02452,1.77235,1.77235,-0.07190,0.03688,0.01794,0.01368,0.02073,0.02763,-0.03489,0.96496,3.01589,1.75995,-4.21228,-4.20132,-2.21552,-0.46790,3.03377,-2.23881,-0.29652,-3.89362,2.38956,A,161805.00
3.05780,57.68805431,11.98143975,57.68805533,11.98143983,16:18:05.132809,0.00635,1.77235,1.77235,-0.07165,0.03901,0.02466,-0.00342,0.02974,0.00750,-0.06362,0.89511,3.05224,1.76243,-4.16453,-4.15295,-2.24403,-0.41056,3.03377,-2.23881,-0.29652,-3.89362,2.38956,A,161805.00
3.06733,57.68805445,11.98143964,57.68805533,11.98143983,16:18:05.142351,0.00549,1.77235,1.77235,-0.07159,0.03946,0.02680,0.00116,0.03050,-0.04551,-0.03934,0.95477,3.06146,1.76441,-4.12526,-4.11354,-2.25034,-0.39437,3.03377,-2.23881,-0.29652,-3.89362,2.38956,A,161805.00
3.07730,57.68805460,11.98143951,57.68805533,11.98143983,16:18:05.152313,0.00506,1.77235,1.77235,-0.07197,0.03977,0.02771,0.00635,0.02806,-0.04435,-0.07210,0.98039,3.07180,1.76600,-4.09182,-4.08001,-2.25787,-0.37760,3.03377,-2.23881,-0.29652,-3.89362,2.38956,A,161805.00
3.08823,57.68805475,11.98143938,57.68805533,11.98143983,16:18:05.163249,0.00560,1.77235,1.77235,-0.07141,0.03988,0.02512,0.01139,0.02913,-0.05051,-0.01098,1.04487,3.08223,1.76727,-4.06339,-4.05155,-2.26548,-0.36186,3.03377,-2.23881,-0.29652,-3.89362,2.38956,A,161805.00
3.09823,57.68805487,11.98143926,57.68805533,11.98143983,16:18:05.173246,0.00520,1.77235,1.77235,-0.07122,0.03988,0.01809,0.02025,0.02714,0.00921,-0.03099,1.05780,3.09273,1.76829,-4.03925,-4.02741,-2.27263,-0.34767,3.03377,-2.23881,-0.29652,-3.89362,2.38956,A,161805.00
3.10850,57.68805499,11.98143915,57.68805533,11.98143983,16:18:05.183512,0.00523,1.77235,1.77235,-0.07075,0.03988,0.02359,0.01735,0.02852,0.06588,-0.01379,0.99845,3.10271,1.76910,-4.01874,-4.00689,-2.27965,-0.33446,3.03377,-2.23881,-0.29652,-3.89362,2.38956,A,161805.00
3.11903,57.68805511,11.98143902,57.68805533,11.98143983,16:18:05.194051,0.00536,1.77235,1.77235,-0.07033,0.03988,0.02328,-0.00724,0.02485,0.11236,-0.01671,1.00034,3.11327,1.76975,-4.00128,-3.98944,-2.28686,-0.32169,3.03377,-2.23881,-0.29652,-3.89362,2.38956,A,161805.00
3.12914,57.68805522,11.98143890,57.68805533,11.98143983,16:18:05.204153,0.00508,1.77235,1.77235,-0.06993,0.03988,0.02603,-0.03900,0.02363,0.04416,-0.01940,1.01199,3.12343,1.77027,-3.98644,-3.97460,-2.29399,-0.30963,3.03377,-2.23881,-0.29652,-3.89362,2.38956,A,161805.00
3.15567,57.68805532,11.98143879,57.68805667,11.98143867,16:18:05.230687,0.02121,1.77235,1.77235,-0.06953,0.03988,0.03031,-0.04664,0.02317,-0.08778,-0.02361,1.04347,3.13403,1.77069,-3.97382,-3.96198,-2.30096,-0.29827,3.15123,-2.30815,-0.14826,-4.27490,2.00829,A,161805.10
3.16570,57.68805565,11.98143832,57.68805667,11.98143867,16:18:05.240713,0.00522,1.77235,1.77235,-0.06954,0.03994,0.03061,-0.00174,0.02164,-0.07247,-0.08363,1.03535,3.16018,1.77102,-4.01944,-4.00758,-2.32896,-0.26113,3.15123,-2.30815,-0.14826,-4.27490,2.00829,A,161805.10
3.17833,57.68805581,11.98143816,57.68805667,11.98143867,16:18:05.253344,0.00711,1.77235,1.77235,-0.06994,0.04000,0.03046,0.01475,0.03142,0.06844,-0.06917,0.92629,3.17067,1.77129,-4.05901,-4.04713,-2.33853,-0.24301,3.15123,-2.30815,-0.14826,-4.27490,2.00829,A,161805.10
3.18694,57.68805594,11.98143806,57.68805667,11.98143867,16:18:05.261967,0.00532,1.77235,1.77235,-0.06967,0.04002,0.02435,0.00589,0.03905,-0.03172,-0.02312,0.90512,3.18124,1.77150,-4.09281,-4.08092,-2.34391,-0.22948,3.15123,-2.30815,-0.14826,-4.27490,2.00829,A,161805.10
3.19712,57.68805608,11.98143795,57.68805667,11.98143867,16:18:05.272130,0.00510,1.77235,1.77235,-0.06849,0.04002,0.02909,-0.00373,0.04470,0.05655,0.02952,0.89536,3.19140,1.77167,-4.12143,-4.10955,-2.35067,-0.21374,3.15123,-2.30815,-0.14826,-4.27490,2.00829,A,161805.10
3.20778,57.68805621,11.98143785,57.68805667,11.98143867,16:18:05.282795,0.00536,1.77235,1.77235,-0.06760,0.04002,0.04359,-0.02007,0.03951,-0.08082,0.00342,0.96752,3.20200,1.77181,-4.14576,-4.13388,-2.35675,-0.19854,3.15123,-2.30815,-0.14826,-4.27490,2.00829,A,161805.10
3.21789,57.68805634,11.98143776,57.68805667,11.98143867,16:18:05.292906,0.00508,1.77235,1.77235,-0.06728,0.04002,0.04543,-0.00785,0.03310,-0.01946,-0.03520,0.99930,3.21239,1.77192,-4.16646,-4.15457,-2.36198,-0.18429,3.15123,-2.30815,-0.14826,-4.27490,2.00829,A,161805.10
3.22847,57.68805647,11.98143768,57.68805667,11.98143867,16:18:05.303479,0.00523,1.77235,1.77235,-0.06697,0.04002,0.04161,-0.00770,0.02699,-0.02025,-0.03758,1.11569,3.22268,1.77200,-4.18404,-4.17215,-2.36686,-0.17036,3.15123,-2.30815,-0.14826,-4.27490,2.00829,A,161805.10
3.23897,57.68805659,11.98143760,57.68805667,11.98143867,16:18:05.313998,0.00534,1.77235,1.77235,-0.06663,0.04002,0.04146,0.00757,0.02119,0.00909,-0.03794,1.15424,3.23324,1.77207,-4.19898,-4.18710,-2.37128,-0.15699,3.15123,-2.30815,-0.14826,-4.27490,2.00829,A,161805.10
3.24915,57.68805670,11.98143754,57.68805667,11.98143867,16:18:05.324163,0.00512,1.77235,1.77235,-0.06670,0.04002,0.02954,0.00238,0.01951,0.01202,-0.05453,1.09410,3.24342,1.77213,-4.21168,-4.19979,-2.37539,-0.14402,3.15123,-2.30815,-0.14826,-4.27490,2.00829,A,161805.10
3.28627,57.68805682,11.98143747,57.68806167,11.98143817,16:18:05.361290,0.03184,1.77235,1.77235,-0.06622,0.04002,0.02848,0.00528,0.01905,-0.05716,-0.01354,1.05646,3.25401,1.77217,-4.22247,-4.21059,-2.37911,-0.13165,3.28190,-2.33787,0.40771,-4.65899,1.62420,A,161805.30
3.29647,57.68805751,11.98143704,57.68806167,11.98143817,16:18:05.371488,0.00528,1.77235,1.77235,-0.06447,0.04005,0.05276,-0.05458,0.03264,0.00360,-0.03007,0.91049,3.29064,1.77221,-4.28784,-4.27595,-2.40489,-0.05393,3.28190,-2.33787,0.40771,-4.65899,1.62420,A,161805.30
3.30692,57.68805784,11.98143699,57.68806167,11.98143817,16:18:05.381947,0.00533,1.77235,1.77235,-0.06473,0.04005,0.05627,-0.03427,0.03127,-0.01854,-0.07418,0.94818,3.30121,1.77224,-4.34483,-4.33294,-2.40755,-0.01795,3.28190,-2.33787,0.40771,-4.65899,1.62420,A,161805.30
3.31695,57.68805815,11.98143697,57.68806167,11.98143817,16:18:05.391969,0.00517,1.60039,1.60039,-0.06490,0.04005,0.05474,-0.01197,0.04089,-0.17483,-0.06978,0.96880,3.31119,1.73787,-4.39328,-4.38139,-2.40920,0.01619,3.28190,-2.33787,0.40771,-4.65899,1.62420,A,161805.30
3.32788,57.68805844,11.98143695,57.68806167,11.98143817,16:18:05.402904,0.00586,1.60039,1.60039,-0.06315,0.04005,0.04650,0.01994,0.04165,-0.12200,0.05813,0.96959,3.32180,1.71037,-4.43446,-4.42257,-2.41023,0.04914,3.28190,-2.33787,0.40771,-4.65899,1.62420,A,161805.30
3.33752,57.68805871,11.98143695,57.68806167,11.98143817,16:18:05.412536,0.00510,1.60039,1.60039,-0.06218,0.04005,0.05092,0.04667,0.03982,-0.03642,0.00769,0.99564,3.33202,1.68838,-4.46950,-4.45761,-2.41026,0.07933,3.28190,-2.33787,0.40771,-4.65899,1.62420,A,161805.30
3.34822,57.68805898,11.98143695,57.68806167,11.98143817,16:18:05.423233,0.00526,1.60039,1.60039,-0.06137,0.04005,0.04085,0.03964,0.03096,0.06875,0.00427,1.00906,3.34239,1.67078,-4.49926,-4.48737,-2.41011,0.10907,3.28190,-2.33787,0.40771,-4.65899,1.62420,A,161805.30
3.35901,57.68805924,11.98143696,57.68806167,11.98143817,16:18:05.434034,0.00565,1.60039,1.60039,-0.06039,0.04005,0.04008,0.01888,0.02516,0.08125,0.01574,0.99790,3.35311,1.65670,-4.52455,-4.51266,-2.40956,0.13734,3.28190,-2.33787,0.40771,-4.65899,1.62420,A,161805.30
3.37285,57.68805949,11.98143697,57.68806167,11.98143817,16:18:05.447869,0.00910,1.60039,1.60039,-0.05914,0.04005,0.02802,-0.00418,0.01859,-0.03587,0.04612,1.12210,3.36459,1.64544,-4.54600,-4.53411,-2.40900,0.16584,3.28190,-2.33787,0.40771,-4.65899,1.62420,A,161805.30
3.37942,57.68805966,11.98143701,57.68806167,11.98143817,16:18:05.454436,0.00543,1.60039,1.60039,-0.05795,0.04005,0.03611,-0.00312,0.00973,-0.02135,0.04209,1.11160,3.37361,1.63643,-4.56450,-4.55261,-2.40670,0.18489,3.28190,-2.33787,0.40771,-4.65899,1.62420,A,161805.30
3.40477,57.68805988,11.98143703,57.68806300,11.98143717,16:18:05.479791,0.02039,1.60039,1.60039,-0.05818,0.04005,0.04207,-0.00144,0.00821,0.01665,-0.06222,1.00613,3.38398,1.62922,-4.58002,-4.56813,-2.40539,0.20925,3.40069,-2.39731,0.55597,-4.33111,1.95208,A,161805.40
3.41467,57.68806036,11.98143695,57.68806300,11.98143717,16:18:05.489945,0.00519,1.60039,1.60039,-0.05791,0.04005,0.03245,0.01384,0.01813,-0.13060,-0.05234,0.97020,3.40915,1.62345,-4.54328,-4.53139,-2.41019,0.26241,3.40069,-2.39731,0.55597,-4.33111,1.95208,A,161805.40
3.42651,57.68806063,11.98143691,57.68806300,11.98143717,16:18:05.501769,0.00663,1.60039,1.60039,-0.05829,0.04005,0.03077,0.04132,0.03371,-0.04325,-0.06063,0.91677,3.42093,1.61884,-4.51274,-4.50084,-2.41232,0.29226,3.40069,-2.39731,0.55597,-4.33111,1.95208,A,161805.40
3.43569,57.68806084,11.98143689,57.68806300,11.98143717,16:18:05.510702,0.00540,1.60039,1.60039,-0.05816,0.04005,0.03306,0.04071,0.03875,0.00927,-0.02544,0.91634,3.42988,1.61515,-4.48692,-4.47502,-2.41387,0.31614,3.40069,-2.39731,0.55597,-4.33111,1.95208,A,161805.40
3.44639,57.68806106,11.98143685,57.68806300,11.98143717,16:18:05.521402,0.00571,1.60039,1.60039,-0.05754,0.04005,0.03489,0.03293,0.04272,0.03080,-0.00049,0.96337,3.44041,1.61220,-4.46491,-4.45301,-2.41608,0.34071,3.40069,-2.39731,0.55597,-4.33111,1.95208,A,161805.40
3.45664,57.68806127,11.98143681,57.68806300,11.98143717,16:18:05.531649,0.00550,1.60039,1.60039,-0.05672,0.04005,0.04023,0.01017,0.03783,0.07857,0.00952,0.99265,3.45085,1.60983,-4.44621,-4.43432,-2.41837,0.36362,3.40069,-2.39731,0.55597,-4.33111,1.95208,A,161805.40
3.46661,57.68806147,11.98143677,57.68806300,11.98143717,16:18:05.542014,0.00508,1.60039,1.60039,-0.05605,0.04005,0.03550,-0.00586,0.02974,0.03514,0.00396,1.05091,3.46113,1.60795,-4.43032,-4.41842,-2.42076,0.38531,3.40069,-2.39731,0.55597,-4.33111,1.95208,A,161805.40
3.47796,57.68806167,11.98143672,57.68806300,11.98143717,16:18:05.552975,0.00610,1.60039,1.60039,-0.05603,0.04005,0.03336,-0.02221,0.01935,-0.04362,-0.04148,1.03962,3.47241,1.60643,-4.41674,-4.40485,-2.42380,0.40774,3.40069,-2.39731,0.55597,-4.33111,1.95208,A,161805.40
3.48764,57.68806183,11.98143668,57.68806300,11.98143717,16:18:05.562658,0.00539,1.60039,1.60039,-0.05608,0.04005,0.02527,-0.02465,0.01431,0.04075,-0.03587,1.03157,3.48185,1.60522,-4.40530,-4.39341,-2.42599,0.42622,3.40069,-2.39731,0.55597,-4.33111,1.95208,A,161805.40
3.49772,57.68806200,11.98143664,57.68806300,11.98143717,16:18:05.572737,0.00507,1.60039,1.60039,-0.05602,0.04005,0.02328,-0.02954,0.00637,-0.02074,-0.02794,0.99894,3.49223,1.60426,-4.39554,-4.38365,-2.42852,0.44473,3.40069,-2.39731,0.55597,-4.33111,1.95208,A,161805.40
3.52406,57.68806216,11.98143660,57.68806500,11.98143617,16:18:05.599424,0.02092,1.60039,1.60039,-0.05574,0.04005,0.01794,-0.02404,0.00927,-0.03764,-0.00958,1.01608,3.50255,1.60348,-4.38723,-4.37534,-2.43116,0.46260,3.51962,-2.45675,0.77836,-4.45123,1.83196,A,161805.50
3.53541,57.68806262,11.98143636,57.68806500,11.98143617,16:18:05.610434,0.00553,1.60039,1.60039,-0.05546,0.04005,0.01641,0.00574,0.02943,-0.02263,-0.02233,0.88737,3.52962,1.60286,-4.39738,-4.38548,-2.44496,0.51413,3.51962,-2.45675,0.77836,-4.45123,1.83196,A,161805.50
3.54558,57.68806285,11.98143629,57.68806500,11.98143617,16:18:05.620599,0.00530,1.60039,1.60039,-0.05537,0.04005,0.02084,0.00620,0.03401,-0.07430,-0.01995,0.90225,3.53986,1.60237,-4.40682,-4.39493,-2.44966,0.53946,3.51962,-2.45675,0.77836,-4.45123,1.83196,A,161805.50
3.55607,57.68806307,11.98143621,57.68806500,11.98143617,16:18:05.631084,0.00539,1.60039,1.60039,-0.05509,0.04005,0.00954,-0.00052,0.03188,-0.04953,-0.00287,0.94233,3.55026,1.60197,-4.41485,-4.40295,-2.45401,0.56355,3.51962,-2.45675,0.77836,-4.45123,1.83196,A,161805.50
3.56631,57.68806328,11.98143614,57.68806500,11.98143617,16:18:05.641321,0.00523,1.60039,1.60039,-0.05461,0.04005,0.01183,-0.00373,0.02562,0.03776,0.00945,0.97179,3.56082,1.60166,-4.42167,-4.40977,-2.45807,0.58656,3.51962,-2.45675,0.77836,-4.45123,1.83196,A,161805.50
3.57784,57.68806347,11.98143608,57.68806500,11.98143617,16:18:05.652864,0.00654,1.60039,1.60039,-0.05440,0.04005,0.00694,-0.01365,0.01722,-0.05148,-0.00647,1.06915,3.57073,1.60140,-4.42748,-4.41559,-2.46169,0.60796,3.51962,-2.45675,0.77836,-4.45123,1.83196,A,161805.50
3.58777,57.68806365,11.98143603,57.68806500,11.98143617,16:18:05.662782,0.00597,1.60039,1.60039,-0.05490,0.04005,0.00816,-0.01258,0.01141,-0.02336,-0.06045,1.10831,3.58192,1.60120,-4.43243,-4.42054,-2.46493,0.62787,3.51962,-2.45675,0.77836,-4.45123,1.83196,A,161805.50
3.59727,57.68806382,11.98143598,57.68806500,11.98143617,16:18:05.672282,0.00507,1.60039,1.60039,-0.05492,0.04005,-0.00818,-0.01167,-0.00096,0.00268,-0.01257,1.08995,3.59157,1.60104,-4.43665,-4.42476,-2.46790,0.64666,3.51962,-2.45675,0.77836,-4.45123,1.83196,A,161805.50
3.60804,57.68806399,11.98143593,57.68806500,11.98143617,16:18:05.683053,0.00545,1.60039,1.60039,-0.05577,0.04005,-0.01276,-0.01396,-0.00111,-0.08583,-0.06594,1.04127,3.60217,1.60091,-4.44019,-4.42830,-2.47106,0.66580,3.51962,-2.45675,0.77836,-4.45123,1.83196,A,161805.50
3.61831,57.68806415,11.98143588,57.68806500,11.98143617,16:18:05.693326,0.00532,1.60039,1.60039,-0.05616,0.04005,-0.01535,-0.00113,0.00042,-0.06399,-0.03123,1.01223,3.61280,1.60080,-4.44321,-4.43132,-2.47396,0.68383,3.51962,-2.45675,0.77836,-4.45123,1.83196,A,161805.50
3.64646,57.68806433,11.98143582,57.68806600,11.98143533,16:18:05.721473,0.02324,1.60039,1.60039,-0.05681,0.04005,-0.01154,-0.00296,0.00271,-0.03892,-0.04581,0.92086,3.62464,1.60072,-4.44568,-4.43379,-2.47746,0.70367,3.64168,-2.50628,0.88956,-4.29333,1.98986,A,161805.60
3.65670,57.68806473,11.98143562,57.68806600,11.98143533,16:18:05.731710,0.00527,1.60039,1.60039,-0.05710,0.04005,-0.00604,0.00070,0.01263,-0.04099,-0.02568,0.99692,3.65088,1.60065,-4.42341,-4.41152,-2.48900,0.74824,3.64168,-2.50628,0.88956,-4.29333,1.98986,A,161805.60
3.66726,57.68806490,11.98143555,57.68806600,11.98143533,16:18:05.742291,0.00544,1.60039,1.60039,-0.05738,0.04005,-0.00619,0.00925,0.01141,-0.04624,-0.03148,1.01394,3.66144,1.60060,-4.40526,-4.39337,-2.49367,0.76759,3.64168,-2.50628,0.88956,-4.29333,1.98986,A,161805.60
3.67766,57.68806507,11.98143546,57.68806600,11.98143533,16:18:05.752671,0.00543,1.60039,1.60039,-0.05763,0.04005,-0.01047,0.01704,0.00729,-0.02489,-0.02721,1.01974,3.67215,1.60056,-4.38981,-4.37792,-2.49857,0.78661,3.64168,-2.50628,0.88956,-4.29333,1.98986,A,161805.60
3.68807,57.68806523,11.98143539,57.68806600,11.98143533,16:18:05.763083,0.00522,1.60039,1.60039,-0.05783,0.04005,-0.01322,0.01109,0.01050,0.04124,-0.02123,0.95886,3.68226,1.60052,-4.37671,-4.36481,-2.50311,0.80370,3.64168,-2.50628,0.88956,-4.29333,1.98986,A,161805.60
3.69865,57.68806538,11.98143531,57.68806600,11.98143533,16:18:05.773919,0.00541,1.60039,1.60039,-0.05719,0.04005,-0.00573,-0.00388,0.00775,0.01702,0.02855,0.95593,3.69317,1.60050,-4.36555,-4.35365,-2.50784,0.82061,3.64168,-2.50628,0.88956,-4.29333,1.98986,A,161805.60
3.70986,57.68806553,11.98143522,57.68806600,11.98143533,16:18:05.784878,0.00639,1.60039,1.60039,-0.05676,0.04005,-0.00222,-0.01518,0.00912,-0.02733,0.01324,1.00504,3.70435,1.60047,-4.35603,-4.34414,-2.51278,0.83745,3.64168,-2.50628,0.88956,-4.29333,1.98986,A,161805.60
3.72006,57.68806565,11.98143516,57.68806600,11.98143533,16:18:05.795084,0.00619,1.60039,1.60039,-0.05664,0.04005,0.00709,-0.01182,0.00683,-0.03434,-0.01366,1.04310,3.71347,1.60046,-4.34804,-4.33615,-2.51646,0.85045,3.64168,-2.50628,0.88956,-4.29333,1.98986,A,161805.60
3.72932,57.68806576,11.98143510,57.68806600,11.98143533,16:18:05.804331,0.00506,1.80222,1.80222,-0.05661,0.04005,-0.00054,-0.00739,0.01172,0.06374,-0.01305,1.04902,3.72382,1.64081,-4.34125,-4.32935,-2.52014,0.86300,3.64168,-2.50628,0.88956,-4.29333,1.98986,A,161805.60
3.74026,57.68806589,11.98143503,57.68806600,11.98143533,16:18:05.815280,0.00560,1.80222,1.80222,-0.05690,0.04005,0.00068,-0.02480,0.01859,-0.05728,-0.03392,1.00473,3.73432,1.67309,-4.33540,-4.32351,-2.52452,0.87692,3.64168,-2.50628,0.88956,-4.29333,1.98986,A,161805.60
3.77656,57.68806600,11.98143496,57.68806833,11.98143483,16:18:05.851579,0.03149,1.80222,1.80222,-0.05686,0.04005,-0.00207,-0.01335,0.02226,-0.08320,-0.01263,1.09422,3.74467,1.69892,-4.33045,-4.31856,-2.52850,0.88950,3.77214,-2.53600,1.14901,-4.59834,1.68484,A,161805.80
3.79043,57.68806658,11.98143459,57.68806833,11.98143483,16:18:05.865454,0.00916,1.80222,1.80222,-0.05663,0.04005,0.00740,-0.01686,0.03172,0.06655,-0.01403,0.91042,3.78095,1.71958,-4.37059,-4.35870,-2.55026,0.95392,3.77214,-2.53600,1.14901,-4.59834,1.68484,A,161805.80
3.79671,57.68806673,11.98143456,57.68806833,11.98143483,16:18:05.871722,0.00512,1.80222,1.80222,-0.05688,0.04005,0.00343,-0.02511,0.02745,-0.01244,-0.02702,0.86760,3.79095,1.73611,-4.40631,-4.39442,-2.55196,0.97023,3.77214,-2.53600,1.14901,-4.59834,1.68484,A,161805.80
3.80774,57.68806693,11.98143450,57.68806833,11.98143483,16:18:05.882753,0.00548,1.80222,1.80222,-0.05687,0.04005,0.00587,-0.02236,0.02791,-0.12725,-0.01543,0.90103,3.80192,1.74933,-4.43642,-4.42453,-2.55576,0.99314,3.77214,-2.53600,1.14901,-4.59834,1.68484,A,161805.80
3.81799,57.68806712,11.98143445,57.68806833,11.98143483,16:18:05.893010,0.00534,1.80222,1.80222,-0.05709,0.04005,0.00374,0.00513,0.01935,-0.19069,-0.03172,1.00979,3.81249,1.75991,-4.46203,-4.45014,-2.55877,1.01443,3.77214,-2.53600,1.14901,-4.59834,1.68484,A,161805.80
3.82835,57.68806730,11.98143441,57.68806833,11.98143483,16:18:05.903369,0.00522,1.80222,1.80222,-0.05704,0.04014,0.00083,0.02285,0.02577,-0.01641,-0.01141,0.98155,3.82255,1.76837,-4.48381,-4.47189,-2.56122,1.03452,3.77214,-2.53600,1.14901,-4.59834,1.68484,A,161805.80
3.83861,57.68806748,11.98143437,57.68806833,11.98143483,16:18:05.913875,0.00518,1.80222,1.80222,-0.05716,0.04034,-0.00375,0.01261,0.03066,0.12853,-0.01903,0.96581,3.83309,1.77514,-4.50232,-4.49034,-2.56335,1.05406,3.77214,-2.53600,1.14901,-4.59834,1.68484,A,161805.80
3.84913,57.68806765,11.98143434,57.68806833,11.98143483,16:18:05.924141,0.00530,1.80222,1.80222,-0.05713,0.04065,-0.00466,-0.01411,0.03172,0.17159,-0.00811,0.95331,3.84341,1.78056,-4.51805,-4.50598,-2.56522,1.07316,3.77214,-2.53600,1.14901,-4.59834,1.68484,A,161805.80
3.85978,57.68806781,11.98143432,57.68806833,11.98143483,16:18:05.934792,0.00556,1.80222,1.80222,-0.05686,0.04099,-0.00970,-0.06313,0.03799,-0.10687,0.01025,1.03078,3.85383,1.78489,-4.53145,-4.51928,-2.56667,1.09087,3.77214,-2.53600,1.14901,-4.59834,1.68484,A,161805.80
3.86993,57.68806796,11.98143430,57.68806833,11.98143483,16:18:05.944940,0.00531,1.80222,1.80222,-0.05636,0.04130,0.00221,-0.03213,0.03493,-0.20527,0.01873,1.12624,3.86441,1.78835,-4.54285,-4.53058,-2.56786,1.10769,3.77214,-2.53600,1.14901,-4.59834,1.68484,A,161805.80
3.89771,57.68806811,11.98143428,57.68807067,11.98143467,16:18:05.972724,0.02264,1.80222,1.80222,-0.05629,0.04153,0.00526,0.01613,0.02699,-0.26443,-0.01842,1.25562,3.87453,1.79113,-4.55254,-4.54021,-2.56882,1.12366,3.89158,-2.54590,1.40847,-4.67423,1.60896,A,161805.90
3.91315,57.68806870,11.98143415,57.68807067,11.98143467,16:18:05.988162,0.00705,1.80222,1.80222,-0.05699,0.04189,-0.01047,0.00589,0.03356,0.03276,-0.03056,0.86162,3.90741,1.79335,-4.57088,-4.55844,-2.57669,1.18974,3.89158,-2.54590,1.40847,-4.67423,1.60896,A,161805.90
3.92159,57.68806890,11.98143414,57.68807067,11.98143467,16:18:05.996601,0.00508,1.80222,1.80222,-0.05601,0.04189,-0.01291,-0.00693,0.03615,-0.09034,0.05228,0.86718,3.91609,1.79512,-4.58786,-4.57542,-2.57689,1.21188,3.89158,-2.54590,1.40847,-4.67423,1.60896,A,161805.90
3.93226,57.68806912,11.98143414,57.68807067,11.98143467,16:18:06.007277,0.00522,1.80222,1.80222,-0.05552,0.04189,0.00022,-0.00953,0.03829,-0.15177,0.01879,0.87517,3.92645,1.79654,-4.60218,-4.58974,-2.57734,1.23621,3.89158,-2.54590,1.40847,-4.67423,1.60896,A,161805.90
3.94253,57.68806932,11.98143413,57.68807067,11.98143467,16:18:06.017938,0.00509,1.80222,1.80222,-0.05522,0.04189,0.00465,-0.00602,0.03249,-0.04721,0.00537,0.87724,3.93705,1.79768,-4.61435,-4.60191,-2.57754,1.25923,3.89158,-2.54590,1.40847,-4.67423,1.60896,A,161805.90
3.95294,57.68806952,11.98143413,57.68807067,11.98143467,16:18:06.027949,0.00510,1.80222,1.80222,-0.05566,0.04189,0.00175,-0.00144,0.03050,0.09156,-0.03928,0.93422,3.94721,1.79859,-4.62471,-4.61227,-2.57754,1.28093,3.89158,-2.54590,1.40847,-4.67423,1.60896,A,161805.90
3.96384,57.68806971,11.98143414,57.68807067,11.98143467,16:18:06.038851,0.00560,1.80222,1.80222,-0.05699,0.04189,0.00007,-0.01274,0.02271,0.05344,-0.10150,0.99845,3.95784,1.79931,-4.63350,-4.62106,-2.57743,1.30197,3.89158,-2.54590,1.40847,-4.67423,1.60896,A,161805.90
3.97388,57.68806988,11.98143414,57.68807067,11.98143467,16:18:06.048890,0.00524,1.80222,1.80222,-0.05700,0.04189,0.00374,-0.01228,0.02607,-0.03465,-0.01891,1.07000,3.96838,1.79989,-4.64099,-4.62855,-2.57714,1.32137,3.89158,-2.54590,1.40847,-4.67423,1.60896,A,161805.90
3.98432,57.68807005,11.98143415,57.68807067,11.98143467,16:18:06.059331,0.00519,1.80222,1.80222,-0.05723,0.04192,0.00144,0.00681,0.01951,-0.09705,-0.03697,1.14534,3.97854,1.80036,-4.64735,-4.63490,-2.57678,1.34002,3.89158,-2.54590,1.40847,-4.67423,1.60896,A,161805.90
4.01135,57.68807022,11.98143415,57.68807150,11.98143283,16:18:06.086368,0.02182,1.80222,1.80222,-0.05807,0.04198,-0.00008,0.01246,0.02760,-0.06539,-0.07899,1.11020,3.98934,1.80073,-4.65274,-4.64027,-2.57640,1.35833,4.00617,-2.65487,1.50113,-3.84630,2.43689,A,161806.00
4.02384,57.68807068,11.98143403,57.68807150,11.98143283,16:18:06.098892,0.00625,1.80222,1.80222,-0.05678,0.04209,0.02557,-0.06665,0.03264,0.07344,0.02379,0.97466,4.01729,1.80103,-4.53211,-4.51961,-2.58354,1.41011,4.00617,-2.65487,1.50113,-3.84630,2.43689,A,161806.00
4.03309,57.68807085,11.98143393,57.68807150,11.98143283,16:18:06.108101,0.00508,1.80222,1.80222,-0.05708,0.04209,0.03718,-0.06588,0.03600,-0.03233,-0.05222,0.91061,4.02738,1.80127,-4.43063,-4.41813,-2.58983,1.42857,4.00617,-2.65487,1.50113,-3.84630,2.43689,A,161806.00
4.04377,57.68807101,11.98143380,57.68807150,11.98143283,16:18:06.118785,0.00537,1.80222,1.80222,-0.05838,0.04209,0.03932,-0.05153,0.03386,-0.12157,-0.11096,0.87175,4.03800,1.80146,-4.34434,-4.33185,-2.59736,1.44632,4.00617,-2.65487,1.50113,-3.84630,2.43689,A,161806.00
4.05387,57.68807115,11.98143366,57.68807150,11.98143283,16:18:06.128890,0.00507,1.80222,1.80222,-0.05956,0.04209,0.03321,-0.00770,0.02592,-0.14750,-0.10157,0.88139,4.04839,1.80161,-4.27102,-4.25852,-2.60553,1.46230,4.00617,-2.65487,1.50113,-3.84630,2.43689,A,161806.00
4.06454,57.68807129,11.98143351,57.68807150,11.98143283,16:18:06.139556,0.00521,1.80222,1.80222,-0.06011,0.04209,0.02695,0.01307,0.02913,-0.12786,-0.06496,0.91958,4.05875,1.80173,-4.20868,-4.19618,-2.61445,1.47746,4.00617,-2.65487,1.50113,-3.84630,2.43689,A,161806.00
4.07503,57.68807141,11.98143336,57.68807150,11.98143283,16:18:06.150052,0.00530,1.80222,1.80222,-0.05990,0.04209,0.02771,0.03461,0.02485,-0.00073,-0.02257,1.01681,4.06933,1.80183,-4.15570,-4.14320,-2.62365,1.49130,4.00617,-2.65487,1.50113,-3.84630,2.43689,A,161806.00
4.08659,57.68807153,11.98143319,57.68807150,11.98143283,16:18:06.161865,0.00658,1.80222,1.80222,-0.05862,0.04209,0.03138,0.02514,0.02699,0.11145,0.04825,1.06866,4.08013,1.80191,-4.11063,-4.09813,-2.63357,1.50486,4.00617,-2.65487,1.50113,-3.84630,2.43689,A,161806.00
4.09588,57.68807162,11.98143305,57.68807150,11.98143283,16:18:06.170892,0.00541,1.99768,1.99768,-0.05736,0.04209,0.02817,-0.00907,0.02684,0.04642,0.06112,1.22226,4.09008,1.84106,-4.07243,-4.05993,-2.64177,1.51479,4.00617,-2.65487,1.50113,-3.84630,2.43689,A,161806.00
4.10588,57.68807172,11.98143290,57.68807150,11.98143283,16:18:06.180881,0.00500,1.99768,1.99768,-0.05695,0.04209,0.04085,-0.01197,0.02394,-0.01543,-0.01787,1.24251,4.10038,1.87239,-4.03989,-4.02739,-2.65116,1.52554,4.00617,-2.65487,1.50113,-3.84630,2.43689,A,161806.00
4.13444,57.68807181,11.98143273,57.68807183,11.98143083,16:18:06.209458,0.02330,1.99768,1.99768,-0.05704,0.04209,0.03947,-0.02022,0.01752,0.02166,-0.05545,1.20749,4.11055,1.89745,-4.01221,-3.99971,-2.66078,1.53587,4.12780,-2.77375,1.53820,-3.44384,2.83935,A,161806.10
4.14946,57.68807220,11.98143202,57.68807183,11.98143083,16:18:06.224472,0.00741,1.99768,1.99768,-0.05657,0.04209,0.02863,-0.03564,0.00103,-0.03562,-0.02971,0.77757,4.14392,1.91749,-3.92690,-3.91440,-2.70316,1.57849,4.12780,-2.77375,1.53820,-3.44384,2.83935,A,161806.10
4.15752,57.68807225,11.98143182,57.68807183,11.98143083,16:18:06.232535,0.00506,1.99768,1.99768,-0.05576,0.04209,0.02848,-0.03213,0.00943,-0.13878,0.02538,0.81081,4.15203,1.93353,-3.85592,-3.84342,-2.71492,1.58449,4.12780,-2.77375,1.53820,-3.44384,2.83935,A,161806.10
4.16845,57.68807232,11.98143157,57.68807183,11.98143083,16:18:06.243462,0.00545,1.99768,1.99768,-0.05529,0.04209,0.03749,-0.00418,0.01141,-0.13463,-0.00232,0.89450,4.16241,1.94636,-3.79544,-3.78294,-2.72991,1.59237,4.12780,-2.77375,1.53820,-3.44384,2.83935,A,161806.10
4.17848,57.68807238,11.98143133,57.68807183,11.98143083,16:18:06.253490,0.00509,1.99768,1.99768,-0.05442,0.04209,0.04283,0.01246,0.02378,0.02129,0.01854,0.90994,4.17300,1.95663,-3.74405,-3.73155,-2.74436,1.59881,4.12780,-2.77375,1.53820,-3.44384,2.83935,A,161806.10
4.18893,57.68807243,11.98143108,57.68807183,11.98143083,16:18:06.263948,0.00514,1.99768,1.99768,-0.05401,0.04209,0.04253,0.00467,0.02073,0.09839,-0.00927,0.99381,4.18317,1.96484,-3.70035,-3.68785,-2.75880,1.60447,4.12780,-2.77375,1.53820,-3.44384,2.83935,A,161806.10
4.19956,57.68807247,11.98143084,57.68807183,11.98143083,16:18:06.274577,0.00538,1.99768,1.99768,-0.05285,0.04209,0.04802,-0.00449,0.01859,0.04807,0.03849,1.13960,4.19379,1.97141,-3.66320,-3.65070,-2.77323,1.60947,4.12780,-2.77375,1.53820,-3.44384,2.83935,A,161806.10
4.20966,57.68807251,11.98143061,57.68807183,11.98143083,16:18:06.284674,0.00508,1.99768,1.99768,-0.05298,0.04209,0.03825,-0.01518,0.01661,-0.09492,-0.05008,1.14686,4.20416,1.97666,-3.63163,-3.61913,-2.78686,1.61350,4.12780,-2.77375,1.53820,-3.44384,2.83935,A,161806.10
4.22033,57.68807254,11.98143038,57.68807183,11.98143083,16:18:06.295342,0.00520,1.99768,1.99768,-0.05238,0.04203,0.03458,-0.00403,-0.00096,-0.04429,0.00878,1.15565,4.21454,1.98087,-3.60478,-3.59230,-2.80052,1.61714,4.12780,-2.77375,1.53820,-3.44384,2.83935,A,161806.10
4.24716,57.68807257,11.98143016,57.68807100,11.98142767,16:18:06.322193,0.02163,1.99768,1.99768,-0.05241,0.04184,0.03550,0.01048,-0.00829,-0.02117,-0.03739,1.08476,4.22513,1.98423,-3.58195,-3.56953,-2.81364,1.62019,4.24188,-2.96196,1.44553,-2.68411,-2.68411,A,161806.20
4.25711,57.68807266,11.98142933,57.68807100,11.98142767,16:18:06.332125,0.00521,1.99768,1.99768,-0.05118,0.04144,0.03596,-0.00037,-0.00355,0.03562,0.01287,0.93629,4.25137,1.98692,-3.44755,-3.43524,-2.86300,1.63059,4.24188,-2.96196,1.44553,-2.68411,-2.68411,A,161806.20
4.26788,57.68807262,11.98142899,57.68807100,11.98142767,16:18:06.342903,0.00552,1.99768,1.99768,-0.05143,0.04141,0.03840,-0.00281,0.00240,-0.03282,-0.04240,0.90085,4.26196,1.98907,-3.33433,-3.32203,-2.88345,1.62603,4.24188,-2.96196,1.44553,-2.68411,-2.68411,A,161806.20
4.27783,57.68807257,11.98142867,57.68807100,11.98142767,16:18:06.352848,0.00508,1.99768,1.99768,-0.05242,0.04141,0.04115,-0.00739,0.00759,0.06179,-0.07863,0.81014,4.27235,1.99080,-3.23812,-3.22582,-2.90259,1.61978,4.24188,-2.96196,1.44553,-2.68411,-2.68411,A,161806.20
4.28855,57.68807250,11.98142834,57.68807100,11.98142767,16:18:06.363568,0.00518,1.99768,1.99768,-0.05213,0.04133,0.03443,-0.03320,0.01279,-0.01781,-0.00653,0.82661,4.28279,1.99217,-3.15630,-3.14403,-2.92189,1.61244,4.24188,-2.96196,1.44553,-2.68411,-2.68411,A,161806.20
4.29911,57.68807243,11.98142803,57.68807100,11.98142767,16:18:06.374126,0.00533,1.99768,1.99768,-0.05152,0.04116,0.03779,-0.03977,0.01401,-0.03483,0.00817,0.95813,4.29337,1.99328,-3.08676,-3.07454,-2.94005,1.60414,4.24188,-2.96196,1.44553,-2.68411,-2.68411,A,161806.20
4.30927,57.68807235,11.98142774,57.68807100,11.98142767,16:18:06.384283,0.00510,1.99768,1.99768,-0.05057,0.04102,0.04833,-0.02648,0.01386,-0.10242,0.02653,1.16650,4.30355,1.99416,-3.02764,-3.01546,-2.95742,1.59511,4.24188,-2.96196,1.44553,-2.68411,-2.68411,A,161806.20
4.31994,57.68807226,11.98142747,57.68807100,11.98142767,16:18:06.394949,0.00537,1.99768,1.99768,-0.04990,0.04096,0.05169,0.01078,0.01691,-0.07710,0.00146,1.21170,4.31415,1.99486,-2.97739,-2.96523,-2.97379,1.58559,4.24188,-2.96196,1.44553,-2.68411,-2.68411,A,161806.20
4.33003,57.68807217,11.98142722,57.68807100,11.98142767,16:18:06.405045,0.00507,1.99768,1.99768,-0.05039,0.04096,0.04924,0.02407,0.01584,0.03355,-0.07887,1.08928,4.32455,1.99543,-2.93470,-2.92253,-2.98874,1.57582,4.24188,-2.96196,1.44553,-2.68411,-2.68411,A,161806.20
4.34040,57.68807208,11.98142698,57.68807100,11.98142767,16:18:06.415417,0.00520,1.99768,1.99768,-0.05072,0.04096,0.04115,0.02010,0.01034,0.08418,-0.05069,0.95050,4.33462,1.99588,-2.89841,-2.88624,-3.00276,1.56588,4.24188,-2.96196,1.44553,-2.68411,-2.68411,A,161806.20
4.38180,57.68807198,11.98142670,57.68807550,11.98142700,16:18:06.456831,0.03620,1.99768,1.99768,-0.05016,0.04096,0.03183,-0.01991,0.00973,-0.05045,0.00720,0.93690,4.34686,1.99624,-2.86744,-2.85528,-3.01941,1.55499,4.37596,-3.00159,1.94591,-4.63336,1.64982,A,161806.40
4.39656,57.68807197,11.98142550,57.68807550,11.98142700,16:18:06.471924,0.00653,1.99768,1.99768,-0.04910,0.04096,0.03581,-0.01029,0.01279,0.14237,-0.03215,0.93794,4.38980,1.99653,-3.13163,-3.11947,-3.09081,1.55325,4.37596,-3.00159,1.94591,-4.63336,1.64982,A,161806.40
4.40552,57.68807214,11.98142534,57.68807550,11.98142700,16:18:06.480534,0.00509,1.99768,1.99768,-0.04889,0.04096,0.02160,-0.03610,0.01890,0.03587,-0.00317,0.95538,4.40002,1.99676,-3.35826,-3.34609,-3.10004,1.57258,4.37596,-3.00159,1.94591,-4.63336,1.64982,A,161806.40
4.41619,57.68807234,11.98142516,57.68807550,11.98142700,16:18:06.491206,0.00521,1.99768,1.99768,-0.04832,0.04096,0.03092,-0.03122,0.02302,-0.16665,0.01379,1.00497,4.41040,1.99694,-3.55080,-3.53864,-3.11107,1.59455,4.37596,-3.00159,1.94591,-4.63336,1.64982,A,161806.40
4.42820,57.68807256,11.98142497,57.68807550,11.98142700,16:18:06.503216,0.00682,1.99768,1.99768,-0.04762,0.04096,0.02832,-0.01060,0.01691,-0.22314,0.02269,1.07970,4.42194,1.99709,-3.71441,-3.70224,-3.12218,1.61908,4.37596,-3.00159,1.94591,-4.63336,1.64982,A,161806.40
4.43692,57.68807277,11.98142489,57.68807550,11.98142700,16:18:06.511934,0.00514,1.99768,1.99768,-0.04735,0.04096,0.03107,0.02254,0.01722,-0.03465,-0.00366,1.03877,4.43116,1.99721,-3.85365,-3.84149,-3.12693,1.64218,4.37596,-3.00159,1.94591,-4.63336,1.64982,A,161806.40
4.44787,57.68807300,11.98142479,57.68807550,11.98142700,16:18:06.522888,0.00570,1.99768,1.99768,-0.04740,0.04096,0.02649,0.02132,0.01416,-0.02580,-0.02629,1.06561,4.44179,1.99731,-3.97189,-3.95972,-3.13311,1.66785,4.37596,-3.00159,1.94591,-4.63336,1.64982,A,161806.40
4.45765,57.68807322,11.98142472,57.68807550,11.98142700,16:18:06.532655,0.00508,1.99768,1.99768,-0.04654,0.04096,0.02893,0.01949,0.01340,0.15043,0.03532,0.97728,4.45215,1.99738,-4.07242,-4.06026,-3.13691,1.69284,4.37596,-3.00159,1.94591,-4.63336,1.64982,A,161806.40
4.46859,57.68807346,11.98142467,57.68807550,11.98142700,16:18:06.543607,0.00536,1.99768,1.99768,-0.04599,0.04096,0.02374,-0.01258,0.00698,0.00781,0.01934,0.98966,4.46268,1.99744,-4.15783,-4.14567,-3.14021,1.71868,4.37596,-3.00159,1.94591,-4.63336,1.64982,A,161806.40
4.49564,57.68807368,11.98142464,57.68807633,11.98142500,16:18:06.571199,0.02201,1.99768,1.99768,-0.04616,0.04096,0.02756,-0.01549,0.00607,-0.14054,-0.03166,1.00406,4.47326,1.99749,-4.23045,-4.21829,-3.14183,1.74347,4.49000,-3.12046,2.03857,-3.80371,2.47948,A,161806.50
4.51199,57.68807427,11.98142420,57.68807633,11.98142500,16:18:06.587011,0.00755,1.99768,1.99768,-0.04548,0.04096,0.02695,-0.03458,0.00805,0.12163,-0.01031,0.94696,4.50520,1.99753,-4.16635,-4.15419,-3.16793,1.80866,4.49000,-3.12046,2.03857,-3.80371,2.47948,A,161806.50
4.52018,57.68807446,11.98142414,57.68807633,11.98142500,16:18:06.595187,0.00519,1.72758,1.72758,-0.04456,0.04096,0.03947,-0.04465,0.01370,-0.10169,0.03483,1.04523,4.51440,1.94354,-4.11339,-4.10122,-3.17173,1.83005,4.49000,-3.12046,2.03857,-3.80371,2.47948,A,161806.50
4.53048,57.68807467,11.98142403,57.68807633,11.98142500,16:18:06.605493,0.00509,1.72758,1.72758,-0.04461,0.04096,0.04146,-0.00388,0.01263,-0.16458,-0.03806,1.07689,4.52499,1.90035,-4.06823,-4.05607,-3.17821,1.85338,4.49000,-3.12046,2.03857,-3.80371,2.47948,A,161806.50
4.54090,57.68807486,11.98142392,57.68807633,11.98142500,16:18:06.615915,0.00511,1.72758,1.72758,-0.04481,0.04096,0.04253,0.03476,0.01722,-0.13926,-0.04886,1.07305,4.53516,1.86579,-4.02987,-4.01771,-3.18455,1.87462,4.49000,-3.12046,2.03857,-3.80371,2.47948,A,161806.50
4.55177,57.68807504,11.98142381,57.68807633,11.98142500,16:18:06.626782,0.00559,1.72758,1.72758,-0.04478,0.04096,0.03077,0.05522,0.01966,0.06503,-0.02263,1.00083,4.54598,1.83815,-3.99725,-3.98508,-3.19133,1.89481,4.49000,-3.12046,2.03857,-3.80371,2.47948,A,161806.50
4.56182,57.68807520,11.98142371,57.68807633,11.98142500,16:18:06.636833,0.00524,1.72758,1.72758,-0.04387,0.04096,0.02023,0.02010,0.01951,0.07375,0.04227,0.95935,4.55633,1.81603,-3.96956,-3.95739,-3.19739,1.91278,4.49000,-3.12046,2.03857,-3.80371,2.47948,A,161806.50
4.57231,57.68807535,11.98142360,57.68807633,11.98142500,16:18:06.647322,0.00522,1.72758,1.72758,-0.04278,0.04096,0.01580,-0.00984,0.01874,0.03599,0.05746,0.94294,4.56651,1.79834,-3.94602,-3.93385,-3.20348,1.92963,4.49000,-3.12046,2.03857,-3.80371,2.47948,A,161806.50
4.58256,57.68807550,11.98142350,57.68807633,11.98142500,16:18:06.657831,0.00507,1.72758,1.72758,-0.04227,0.04096,0.01840,-0.03045,0.01202,-0.03068,0.02019,0.98905,4.57709,1.78419,-3.92601,-3.91385,-3.20951,1.94540,4.49000,-3.12046,2.03857,-3.80371,2.47948,A,161806.50
4.61026,57.68807563,11.98142340,57.68807583,11.98142283,16:18:06.685289,0.02237,1.72758,1.72758,-0.04163,0.04096,0.01580,-0.02831,-0.00294,-0.11828,0.03373,1.10038,4.58726,1.77287,-3.90901,-3.89685,-3.21527,1.96001,4.60416,-3.24925,1.98298,-2.73404,-2.73404,A,161806.60
4.62499,57.68807595,11.98142276,57.68807583,11.98142283,16:18:06.700005,0.00605,1.72758,1.72758,-0.04180,0.04096,0.01137,0.02101,-0.00661,-0.05246,-0.03434,0.99040,4.61924,1.76381,-3.73290,-3.72074,-3.25371,1.99574,4.60416,-3.24925,1.98298,-2.73404,-2.73404,A,161806.60
4.63499,57.68807601,11.98142257,57.68807583,11.98142283,16:18:06.710016,0.00566,1.72758,1.72758,-0.04150,0.04096,0.01076,0.01277,0.00179,-0.08802,0.01275,0.96221,4.62924,1.75656,-3.58445,-3.57229,-3.26468,2.00242,4.60416,-3.24925,1.98298,-2.73404,-2.73404,A,161806.60
4.64484,57.68807605,11.98142238,57.68807583,11.98142283,16:18:06.719854,0.00511,1.72758,1.72758,-0.04111,0.04096,0.01901,0.02269,0.01126,0.00921,0.01397,0.93348,4.63910,1.75077,-3.45826,-3.44610,-3.27612,2.00706,4.60416,-3.24925,1.98298,-2.73404,-2.73404,A,161806.60
4.65710,57.68807608,11.98142217,57.68807583,11.98142283,16:18:06.732151,0.00696,1.72758,1.72758,-0.04119,0.04096,0.01611,0.00269,0.01554,0.00915,-0.01470,0.96136,4.64972,1.74613,-3.35098,-3.33881,-3.28841,2.01014,4.60416,-3.24925,1.98298,-2.73404,-2.73404,A,161806.60
4.66846,57.68807609,11.98142198,57.68807583,11.98142283,16:18:06.743499,0.00792,1.72758,1.72758,-0.04145,0.04096,0.02160,-0.01045,0.02149,0.00775,-0.02763,0.91024,4.66013,1.74242,-3.25980,-3.24764,-3.29987,2.01147,4.60416,-3.24925,1.98298,-2.73404,-2.73404,A,161806.60
4.67625,57.68807609,11.98142185,57.68807583,11.98142283,16:18:06.751265,0.00517,1.72758,1.72758,-0.04099,0.04096,0.02130,-0.02831,0.01737,0.08815,0.01592,0.93037,4.67049,1.73945,-3.18241,-3.17025,-3.30773,2.01115,4.60416,-3.24925,1.98298,-2.73404,-2.73404,A,161806.60
4.68652,57.68807608,11.98142166,57.68807583,11.98142283,16:18:06.761774,0.00518,1.72758,1.72758,-0.04019,0.04096,0.02389,-0.03580,0.01355,-0.01677,0.04032,1.09220,4.68104,1.73707,-3.11651,-3.10435,-3.31884,2.01014,4.60416,-3.24925,1.98298,-2.73404,-2.73404,A,161806.60
4.69687,57.68807606,11.98142149,57.68807583,11.98142283,16:18:06.771887,0.00514,1.72758,1.72758,-0.03993,0.04093,0.03016,-0.01823,0.00622,-0.16141,-0.00262,1.12850,4.69112,1.73518,-3.06051,-3.04835,-3.32906,2.00827,4.60416,-3.24925,1.98298,-2.73404,-2.73404,A,161806.60
4.72360,57.68807604,11.98142132,57.68807500,11.98142183,16:18:06.799456,0.02160,1.72758,1.72758,-0.04010,0.04093,0.02924,0.01582,-0.00096,-0.13884,-0.03599,1.15089,4.70172,1.73366,-3.01289,-3.00073,-3.33913,2.00569,4.71856,-3.30868,1.89031,-2.14113,-2.14113,A,161806.70
4.73979,57.68807592,11.98142052,57.68807500,11.98142183,16:18:06.814804,0.00707,1.72758,1.72758,-0.03952,0.04093,0.02603,-0.01747,0.00347,0.05081,-0.00952,0.82832,4.73355,1.73244,-2.88229,-2.87013,-3.38666,1.99297,4.71856,-3.30868,1.89031,-2.14113,-2.14113,A,161806.70
4.74863,57.68807585,11.98142041,57.68807500,11.98142183,16:18:06.823649,0.00549,1.72758,1.72758,-0.03839,0.04093,0.02573,-0.04450,0.01233,-0.05319,0.05478,0.85601,4.74256,1.73147,-2.77258,-2.76042,-3.39310,1.98496,4.71856,-3.30868,1.89031,-2.14113,-2.14113,A,161806.70
4.75918,57.68807576,11.98142027,57.68807500,11.98142183,16:18:06.834218,0.00565,1.72758,1.72758,-0.03849,0.04087,0.03214,-0.03794,0.01202,-0.27901,-0.02623,1.01510,4.75316,1.73069,-2.67923,-2.66709,-3.40150,1.97517,4.71856,-3.30868,1.89031,-2.14113,-2.14113,A,161806.70
4.76917,57.68807567,11.98142014,57.68807500,11.98142183,16:18:06.844186,0.00524,1.72758,1.72758,-0.03808,0.04062,0.02832,-0.00312,0.00714,-0.09400,0.01165,0.99058,4.76331,1.73007,-2.59986,-2.58780,-3.40910,1.96464,4.71856,-3.30868,1.89031,-2.14113,-2.14113,A,161806.70
4.77975,57.68807557,11.98142003,57.68807500,11.98142183,16:18:06.854767,0.00543,1.72758,1.72758,-0.03823,0.04011,0.03061,0.02407,0.00439,0.06246,-0.03105,1.09403,4.77393,1.72957,-2.53238,-2.52047,-3.41594,1.95359,4.71856,-3.30868,1.89031,-2.14113,-2.14113,A,161806.70
4.79062,57.68807547,11.98141993,57.68807500,11.98142183,16:18:06.865894,0.00590,1.72758,1.72758,-0.03827,0.03935,0.02069,0.02453,0.00194,0.05941,-0.01513,1.06048,4.78430,1.72917,-2.47500,-2.46331,-3.42162,1.94252,4.71856,-3.30868,1.89031,-2.14113,-2.14113,A,161806.70
4.80041,57.68807537,11.98141986,57.68807500,11.98142183,16:18:06.875429,0.00527,1.72758,1.72758,-0.03829,0.03836,0.01962,0.00620,0.00026,-0.12499,-0.01269,1.04676,4.79456,1.72885,-2.42622,-2.41483,-3.42580,1.93199,4.71856,-3.30868,1.89031,-2.14113,-2.14113,A,161806.70
4.81066,57.68807527,11.98141979,57.68807500,11.98142183,16:18:06.885925,0.00512,1.72758,1.72758,-0.03761,0.03722,0.01519,0.01063,-0.00508,-0.12365,0.03648,0.96490,4.80517,1.72860,-2.38468,-2.37362,-3.43036,1.92065,4.71856,-3.30868,1.89031,-2.14113,-2.14113,A,161806.70
4.83703,57.68807517,11.98141972,57.68807517,11.98142183,16:18:06.912049,0.02110,1.72758,1.72758,-0.03770,0.03598,0.00740,0.00116,-0.00600,-0.09553,-0.00726,0.95886,4.81533,1.72839,-2.34933,-2.33865,-3.43417,1.90957,4.83265,-3.30868,1.90885,-4.71239,1.57080,A,161806.80
4.85540,57.68807483,11.98141921,57.68807517,11.98142183,16:18:06.930412,0.00660,1.72758,1.72758,-0.03757,0.03134,-0.00100,-0.01335,-0.02386,-0.11645,0.01263,1.04005,4.84959,1.72823,-2.70362,-2.69432,-3.46470,1.87142,4.83265,-3.30868,1.90885,-4.71239,1.57080,A,161806.80
4.86434,57.68807480,11.98141917,57.68807517,11.98142183,16:18:06.939356,0.00520,1.72758,1.72758,-0.03809,0.03009,-0.00512,0.00651,-0.02799,-0.19148,-0.03068,1.02004,4.85857,1.72810,-3.00599,-2.99705,-3.46716,1.86837,4.83265,-3.30868,1.90885,-4.71239,1.57080,A,161806.80
4.87466,57.68807480,11.98141907,57.68807517,11.98142183,16:18:06.949914,0.00511,1.72758,1.72758,-0.03864,0.02887,-0.01291,0.04530,-0.02188,-0.22655,-0.02934,1.04902,4.86916,1.72799,-3.26289,-3.25432,-3.47312,1.86837,4.83265,-3.30868,1.90885,-4.71239,1.57080,A,161806.80
4.88507,57.68807483,11.98141897,57.68807517,11.98142183,16:18:06.960084,0.00513,1.72758,1.72758,-0.03912,0.02783,-0.01887,0.05904,-0.01699,-0.05502,-0.01842,0.96929,4.87933,1.72791,-3.48123,-3.47297,-3.47860,1.87195,4.83265,-3.30868,1.90885,-4.71239,1.57080,A,161806.80
4.89575,57.68807489,11.98141889,57.68807517,11.98142183,16:18:06.970758,0.00541,1.72758,1.72758,-0.03938,0.02672,-0.01780,0.03949,-0.01485,0.08101,-0.00543,0.92854,4.88997,1.72784,-3.66677,-3.65884,-3.48349,1.87840,4.83265,-3.30868,1.90885,-4.71239,1.57080,A,161806.80
4.90693,57.68807497,11.98141882,57.68807517,11.98142183,16:18:06.981955,0.00620,1.72758,1.72758,-0.03897,0.02536,-0.02253,0.01216,-0.02096,0.11132,0.04154,0.96935,4.90117,1.72779,-3.82441,-3.81688,-3.48780,1.88735,4.83265,-3.30868,1.90885,-4.71239,1.57080,A,161806.80
4.91635,57.68807505,11.98141881,57.68807517,11.98142183,16:18:06.991367,0.00523,1.86605,1.86605,-0.03888,0.02412,-0.01734,-0.00754,-0.02539,-0.01995,0.01641,1.04670,4.91056,1.75544,-3.95843,-3.95127,-3.48858,1.89622,4.83265,-3.30868,1.90885,-4.71239,1.57080,A,161806.80
4.92665,57.68807515,11.98141879,57.68807517,11.98142183,16:18:07.001919,0.00513,1.86605,1.86605,-0.03895,0.02279,-0.00986,-0.00220,-0.03058,-0.08479,0.00134,1.07403,4.92114,1.77756,-4.07226,-4.06549,-3.48938,1.90713,4.83265,-3.30868,1.90885,-4.71239,1.57080,A,161806.80
4.95460,57.68807525,11.98141880,57.68807267,11.98142000,16:18:07.029858,0.02269,1.86605,1.86605,-0.03959,0.02177,-0.01230,0.00345,-0.03562,-0.02946,-0.03849,1.05628,4.93131,1.79526,-4.16898,-4.16252,-3.48887,1.91850,4.94848,-3.41765,1.63086,-1.94438,-1.94438,A,161806.90
4.96922,57.68807552,11.98141841,57.68807267,11.98142000,16:18:07.044241,0.00627,1.86605,1.86605,-0.03993,0.02058,-0.01383,-0.03946,-0.02035,-0.13481,0.00451,0.96825,4.96345,1.80942,-3.83529,-3.82918,-3.51235,1.94823,4.94848,-3.41765,1.63086,-1.94438,-1.94438,A,161806.90
4.97847,57.68807545,11.98141832,57.68807267,11.98142000,16:18:07.053483,0.00512,1.86605,1.86605,-0.03945,0.02058,-0.00161,-0.00907,-0.01241,-0.16073,0.03019,0.98826,4.97298,1.82074,-3.55235,-3.54624,-3.51755,1.94053,4.94848,-3.41765,1.63086,-1.94438,-1.94438,A,161806.90
4.98892,57.68807536,11.98141818,57.68807267,11.98142000,16:18:07.063939,0.00517,1.86605,1.86605,-0.03918,0.02058,0.00877,0.02651,-0.00737,-0.20289,0.01061,1.04603,4.98316,1.82980,-3.31183,-3.30572,-3.52591,1.93076,4.94848,-3.41765,1.63086,-1.94438,-1.94438,A,161806.90
4.99955,57.68807525,11.98141802,57.68807267,11.98142000,16:18:07.074567,0.00541,1.86605,1.86605,-0.03910,0.02058,0.01748,0.05140,-0.00371,0.04178,-0.00866,0.97990,4.99377,1.83705,-3.10738,-3.10127,-3.53519,1.91820,4.94848,-3.41765,1.63086,-1.94438,-1.94438,A,161806.90
5.01189,57.68807512,11.98141788,57.68807267,11.98142000,16:18:07.086910,0.00735,1.86605,1.86605,-0.03944,0.02058,0.01840,0.03644,-0.00355,0.13871,-0.03416,0.94184,5.00415,1.84285,-2.93360,-2.92749,-3.54383,1.90325,4.94848,-3.41765,1.63086,-1.94438,-1.94438,A,161806.90
5.02620,57.68807497,11.98141774,57.68807267,11.98142000,16:18:07.101252,0.01103,1.86605,1.86605,0.00000,0.02058,0.01351,0.01735,-0.00050,-0.03550,0.02836,1.00278,5.01652,1.84749,-2.78588,-2.77978,-3.55189,1.88650,4.94848,-3.41765,1.63086,-1.94438,-1.94438,A,161806.90
5.05136,57.68807476,11.98141739,57.68807267,11.98142000,16:18:07.126396,0.01605,1.86605,1.86605,0.00011,0.02058,0.01427,0.02040,-0.01989,-0.12542,0.02599,1.00491,5.03683,1.85120,-2.66008,-2.65397,0.04789,0.00000,4.94848,-3.41765,1.63086,-1.94438,-1.94438,A,161806.90
5.10040,57.68807448,11.98141690,57.68807417,11.98141883,16:18:07.175433,0.03874,1.86605,1.86605,-0.00045,0.02058,0.01107,0.02101,-0.02997,0.04502,-0.01891,1.01705,5.06250,1.85417,-2.55294,-2.54683,-3.60204,1.83201,5.09094,-3.48700,1.79765,-4.31838,1.96480,A,161807.10
5.12114,57.68807405,11.98141586,57.68807417,11.98141883,16:18:07.196175,0.01008,1.86605,1.86605,-0.00106,0.02058,0.01458,0.03262,-0.01715,0.12151,-0.04349,0.87639,5.11149,1.85655,-2.81730,-2.81119,-3.66360,1.78475,5.09094,-3.48700,1.79765,-4.31838,1.96480,A,161807.10
5.14040,57.68807397,11.98141553,57.68807417,11.98141883,16:18:07.215432,0.01114,1.86605,1.86605,-0.00130,0.02058,0.01870,-0.00541,-0.02738,-0.17660,-0.00329,1.00260,5.13078,1.85845,-3.04287,-3.03676,-3.68359,1.77551,5.09094,-3.48700,1.79765,-4.31838,1.96480,A,161807.10
5.16001,57.68807395,11.98141518,57.68807417,11.98141883,16:18:07.235041,0.01098,1.86605,1.86605,-0.00228,0.02047,0.01366,0.02911,-0.04601,-0.05051,-0.05039,1.05542,5.15028,1.85997,-3.23459,-3.22851,-3.70428,1.77341,5.09094,-3.48700,1.79765,-4.31838,1.96480,A,161807.10
5.17734,57.68807398,11.98141490,57.68807417,11.98141883,16:18:07.252367,0.01105,1.86605,1.86605,-0.00312,0.02024,-0.00024,0.02300,-0.04097,0.06899,-0.02233,1.07970,5.16792,1.86118,-3.39760,-3.39159,-3.72074,1.77700,5.09094,-3.48700,1.79765,-4.31838,1.96480,A,161807.10
5.21350,57.68807406,11.98141459,57.68807283,11.98141733,16:18:07.289028,0.02688,1.86605,1.86605,-0.00358,0.01970,-0.00207,0.00849,-0.03532,-0.06722,0.00586,1.02334,5.18715,1.86216,-3.53609,-3.53024,-3.73889,1.78565,5.20407,-3.57615,1.64939,-2.11221,-2.11221,A,161807.20
5.23715,57.68807423,11.98141369,57.68807283,11.98141733,16:18:07.312477,0.01231,1.86605,1.86605,-0.00316,0.01786,0.01397,0.01032,-0.02860,0.03898,0.02227,0.88914,5.22704,1.86294,-3.32222,-3.31692,-3.79269,1.80420,5.20407,-3.57615,1.64939,-2.11221,-2.11221,A,161807.20
5.25663,57.68807420,11.98141338,57.68807283,11.98141733,16:18:07.331677,0.01164,1.86605,1.86605,-0.00344,0.01750,0.01198,0.02926,-0.02738,-0.10827,0.00006,1.01217,5.24588,1.86356,-3.14106,-3.13587,-3.81115,1.80165,5.20407,-3.57615,1.64939,-2.11221,-2.11221,A,161807.20
5.27678,57.68807413,11.98141299,57.68807283,11.98141733,16:18:07.351805,0.01025,1.86605,1.86605,-0.00366,0.01750,0.00664,0.04010,-0.02524,-0.01226,0.00872,1.09422,5.26813,1.86406,-2.98701,-2.98182,-3.83439,1.79384,5.20407,-3.57615,1.64939,-2.11221,-2.11221,A,161807.20
5.29688,57.68807403,11.98141272,57.68807283,11.98141733,16:18:07.371909,0.01143,2.00101,2.00101,-0.00337,0.01750,0.00816,0.02086,-0.01928,-0.03623,0.04483,1.04279,5.28653,1.89145,-2.85615,-2.85096,-3.85050,1.78194,5.20407,-3.57615,1.64939,-2.11221,-2.11221,A,161807.20
5.33335,57.68807388,11.98141241,57.68807200,11.98141583,16:18:07.408374,0.02618,2.00101,2.00101,-0.00313,0.01750,0.00435,0.02651,-0.02325,-0.06399,0.04288,0.97557,5.30705,1.91336,-2.74487,-2.73967,-3.86848,1.76583,5.32470,-3.66531,1.55673,-2.33691,-2.33691,A,161807.30
5.35100,57.68807358,11.98141168,57.68807200,11.98141583,16:18:07.426035,0.01133,2.00101,2.00101,-0.00336,0.01750,-0.00512,0.01093,-0.01180,-0.04081,0.02861,0.91537,5.34110,1.93089,-2.68362,-2.67843,-3.91187,1.73262,5.32470,-3.66531,1.55673,-2.33691,-2.33691,A,161807.30
5.37042,57.68807336,11.98141138,57.68807200,11.98141583,16:18:07.445445,0.00886,2.00101,2.00101,-0.00411,0.01750,-0.01429,0.02804,-0.01226,-0.13030,0.00244,1.04048,5.36162,1.94491,-2.63190,-2.62671,-3.93020,1.70851,5.32470,-3.66531,1.55673,-2.33691,-2.33691,A,161807.30
5.38182,57.68807322,11.98141135,57.68807200,11.98141583,16:18:07.456856,0.00951,2.00101,2.00101,-0.00428,0.01750,-0.01658,0.05446,-0.01699,-0.08583,0.03684,1.07732,5.37311,1.95613,-2.58819,-2.58299,-3.93201,1.69241,5.32470,-3.66531,1.55673,-2.33691,-2.33691,A,161807.30
5.39427,57.68807309,11.98141135,57.68807200,11.98141583,16:18:07.469728,0.01128,2.00101,2.00101,-0.00488,0.01750,-0.02635,0.04911,-0.02249,0.06716,0.01037,1.04755,5.38318,1.96511,-2.55105,-2.54586,-3.93174,1.67746,5.32470,-3.66531,1.55673,-2.33691,-2.33691,A,161807.30
5.41758,57.68807282,11.98141100,57.68807200,11.98141583,16:18:07.492605,0.01119,2.00101,2.00101,-0.00649,0.01750,-0.03841,-0.00663,-0.03135,-0.14841,-0.01092,0.97271,5.40823,1.97229,-2.51912,-2.51393,-3.95241,1.64838,5.32470,-3.66531,1.55673,-2.33691,-2.33691,A,161807.30
5.45592,57.68807259,11.98141074,57.68807050,11.98141350,16:18:07.530951,0.02750,2.00101,2.00101,-0.00751,0.01750,-0.04788,0.02468,-0.03776,-0.03684,0.02861,0.94111,5.42962,1.97803,-2.49205,-2.48685,-3.96773,1.62226,5.44701,-3.80399,1.38994,-2.26445,-2.26445,A,161807.40
5.47572,57.68807212,11.98141000,57.68807050,11.98141350,16:18:07.550747,0.01048,2.00101,2.00101,-0.00964,0.01750,-0.05796,0.02727,-0.00829,-0.14914,0.02928,1.00119,5.46683,1.98262,-2.45774,-2.45255,-4.01199,1.57038,5.44701,-3.80399,1.38994,-2.26445,-2.26445,A,161807.40
5.49667,57.68807186,11.98140975,57.68807050,11.98141350,16:18:07.571721,0.01132,2.00101,2.00101,-0.01056,0.01750,-0.06315,0.03430,-0.01455,0.02300,0.04563,0.97698,5.48613,1.98630,-2.42906,-2.42387,-4.02661,1.54075,5.44701,-3.80399,1.38994,-2.26445,-2.26445,A,161807.40
5.51929,57.68807156,11.98140946,57.68807050,11.98141350,16:18:07.594344,0.01145,2.00101,2.00101,-0.01232,0.01750,-0.07690,0.00253,-0.03104,-0.04947,0.02580,1.06402,5.50896,1.98924,-2.40460,-2.39941,-4.04433,1.50802,5.44701,-3.80399,1.38994,-2.26445,-2.26445,A,161807.40
5.54097,57.68807127,11.98140917,57.68807050,11.98141350,16:18:07.616546,0.01079,2.00101,2.00101,-0.01416,0.01750,-0.07766,0.01017,-0.03990,-0.10297,0.01702,1.02254,5.53140,1.99159,-2.38380,-2.37860,-4.06135,1.47548,5.44701,-3.80399,1.38994,-2.26445,-2.26445,A,161807.40
5.58888,57.68807101,11.98140896,57.68807167,11.98141083,16:18:07.663909,0.03808,2.00101,2.00101,-0.01613,0.01750,-0.07400,0.02392,-0.03165,-0.04423,-0.00817,1.02425,5.55211,1.99348,-2.36617,-2.36097,-4.07405,1.44676,5.57996,-3.96249,1.51966,-3.82750,2.45569,A,161807.60
5.60907,57.68807050,11.98140801,57.68807167,11.98141083,16:18:07.684936,0.01086,2.00101,2.00101,-0.01945,0.01750,-0.05979,0.00773,-0.00325,-0.07893,-0.01183,0.89865,5.59951,1.99498,-2.58491,-2.57971,-4.13006,1.38941,5.57996,-3.96249,1.51966,-3.82750,2.45569,A,161807.60
5.63242,57.68807036,11.98140758,57.68807167,11.98141083,16:18:07.707445,0.01109,2.00101,2.00101,-0.02026,0.01750,-0.04330,0.00421,-0.00371,-0.06051,0.03087,1.04786,5.62284,1.99619,-2.77150,-2.76630,-4.15587,1.37440,5.57996,-3.96249,1.51966,-3.82750,2.45569,A,161807.60
5.65167,57.68807032,11.98140722,57.68807167,11.98141083,16:18:07.726698,0.01047,2.00101,2.00101,-0.02135,0.01781,-0.04422,0.00605,-0.00371,0.03050,0.00134,1.03005,5.64249,1.99715,-2.93021,-2.92493,-4.17722,1.36944,5.57996,-3.96249,1.51966,-3.82750,2.45569,A,161807.60
5.67270,57.68807032,11.98140685,57.68807167,11.98141083,16:18:07.747759,0.01199,2.00101,2.00101,-0.02226,0.01936,-0.04239,-0.00403,0.00714,-0.03556,0.01080,0.98869,5.66219,1.99792,-3.06518,-3.05943,-4.19910,1.36977,5.57996,-3.96249,1.51966,-3.82750,2.45569,A,161807.60
5.70697,57.68807037,11.98140658,57.68807417,11.98141167,16:18:07.782015,0.02894,2.00101,2.00101,-0.02261,0.02183,-0.03017,-0.01274,0.01691,0.00671,0.02562,0.91683,5.67931,1.99854,-3.18005,-3.17357,-4.21546,1.37494,5.69623,-3.91296,1.79765,-4.88872,1.39447,A,161807.70
5.73494,57.68807058,11.98140551,57.68807417,11.98141167,16:18:07.809989,0.01610,1.68721,1.68721,-0.02390,0.02842,-0.02666,0.04316,0.01523,-0.19569,0.00561,1.03846,5.72281,1.93627,-3.43621,-3.42778,-4.27903,1.39860,5.69623,-3.91296,1.79765,-4.88872,1.39447,A,161807.70
5.75670,57.68807087,11.98140513,57.68807417,11.98141167,16:18:07.831721,0.01033,1.68721,1.68721,-0.02485,0.03023,-0.04865,0.02239,0.01370,0.01751,0.03361,1.07250,5.74799,1.88646,-3.65445,-3.64547,-4.30148,1.43054,5.69623,-3.91296,1.79765,-4.88872,1.39447,A,161807.70
5.77788,57.68807118,11.98140495,57.68807417,11.98141167,16:18:07.852902,0.01042,1.68721,1.68721,-0.02575,0.03054,-0.05598,-0.01426,0.01095,-0.16696,0.03440,1.12191,5.76913,1.84661,-3.84009,-3.83103,-4.31234,1.46560,5.69623,-3.91296,1.79765,-4.88872,1.39447,A,161807.70
5.79583,57.68807149,11.98140492,57.68807417,11.98141167,16:18:07.870863,0.01025,1.68721,1.68721,-0.02697,0.03054,-0.05995,-0.01014,0.00530,-0.06332,0.00183,1.01107,5.78686,1.81473,-3.99805,-3.98898,-4.31394,1.49998,5.69623,-3.91296,1.79765,-4.88872,1.39447,A,161807.70
5.83314,57.68807183,11.98140492,57.68807617,11.98141250,16:18:07.908168,0.02801,1.68721,1.68721,-0.02877,0.03054,-0.06254,0.00315,0.00821,-0.16482,-0.02166,0.84906,5.80675,1.78923,-4.13224,-4.12318,-4.31421,1.53787,5.82376,-3.86343,2.02004,-4.93153,1.35165,A,161807.80
5.85490,57.68807251,11.98140472,57.68807617,11.98141250,16:18:07.930705,0.01108,1.68721,1.68721,-0.03070,0.03054,-0.06300,0.04759,0.02623,0.00451,0.03794,1.06646,5.84418,1.76882,-4.25196,-4.24289,-4.32588,1.61315,5.82376,-3.86343,2.02004,-4.93153,1.35165,A,161807.80
5.87272,57.68807290,11.98140491,57.68807617,11.98141250,16:18:07.947774,0.01170,1.68721,1.68721,-0.03161,0.03054,-0.06911,0.01292,0.01416,0.03697,0.03087,1.06805,5.86218,1.75250,-4.35462,-4.34555,-4.31437,1.65639,5.82376,-3.86343,2.02004,-4.93153,1.35165,A,161807.80
5.89352,57.68807332,11.98140510,57.68807617,11.98141250,16:18:07.968554,0.01142,1.68721,1.68721,-0.03355,0.03054,-0.06254,-0.02114,-0.00539,-0.08766,-0.03721,0.99955,5.88294,1.73944,-4.44173,-4.43266,-4.30305,1.70379,5.82376,-3.86343,2.02004,-4.93153,1.35165,A,161807.80
5.91222,57.68807371,11.98140534,57.68807617,11.98141250,16:18:07.987249,0.01129,1.68721,1.68721,-0.03552,0.03066,-0.05842,-0.00678,-0.00462,-0.04020,-0.04892,0.94001,5.90216,1.72899,-4.51587,-4.50677,-4.28877,1.74641,5.82376,-3.86343,2.02004,-4.93153,1.35165,A,161807.80
5.95147,57.68807412,11.98140559,57.68807950,11.98141283,16:18:08.026862,0.02821,1.68721,1.68721,-0.03638,0.03213,-0.02788,0.01475,0.02394,-0.03263,-0.01287,0.99582,5.92440,1.72064,-4.57882,-4.56928,-4.27425,1.79246,5.94114,-3.84362,2.39069,-4.76579,1.51739,A,161807.90
5.96770,57.68807485,11.98140582,57.68807950,11.98141283,16:18:08.042730,0.01053,1.68721,1.68721,-0.03712,0.03646,-0.01337,0.00819,0.03417,0.09748,-0.01519,0.98033,5.95809,1.71395,-4.60712,-4.59630,-4.26016,1.87396,5.94114,-3.84362,2.39069,-4.76579,1.51739,A,161807.90
5.98861,57.68807535,11.98140612,57.68807950,11.98141283,16:18:08.063646,0.01018,1.68721,1.68721,-0.03677,0.03802,0.00832,-0.03396,0.02668,-0.10919,0.01616,1.10361,5.97899,1.70860,-4.63174,-4.62045,-4.24275,1.92910,5.94114,-3.84362,2.39069,-4.76579,1.51739,A,161807.90
6.00732,57.68807581,11.98140641,57.68807950,11.98141283,16:18:08.082341,0.01005,1.68721,1.68721,-0.03685,0.03901,0.01687,0.00040,0.01737,-0.11017,-0.02416,1.04475,5.99837,1.70432,-4.65271,-4.64113,-4.22537,1.98014,5.94114,-3.84362,2.39069,-4.76579,1.51739,A,161807.90
6.02934,57.68807628,11.98140669,57.68807950,11.98141283,16:18:08.104370,0.01128,1.68721,1.68721,-0.03758,0.03986,0.00404,0.01643,0.02562,-0.02952,-0.04746,0.94489,6.02000,1.70090,-4.67044,-4.65861,-4.20853,2.03221,5.94114,-3.84362,2.39069,-4.76579,1.51739,A,161807.90
6.08051,57.68807673,11.98140697,57.68808617,11.98141183,16:18:08.155536,0.04024,1.68721,1.68721,-0.03729,0.04000,0.01427,0.02117,0.02302,-0.05075,0.00189,1.02181,6.04221,1.69816,-4.68545,-4.67357,-4.19206,2.08306,6.07168,-3.90306,3.13199,-4.63238,1.65081,A,161808.10
6.10065,57.68807786,11.98140717,57.68808617,11.98141183,16:18:08.175686,0.01243,1.68721,1.68721,-0.03642,0.04000,0.03122,0.01032,0.01844,-0.07448,-0.03410,0.99595,6.08924,1.69597,-4.67690,-4.66502,-4.18042,2.20794,6.07168,-3.90306,3.13199,-4.63238,1.65081,A,161808.10
6.12588,57.68807862,11.98140737,57.68808617,11.98141183,16:18:08.200906,0.01318,1.79112,1.79112,-0.03620,0.04000,0.03764,0.01322,0.03188,0.06338,-0.04111,0.96002,6.11512,1.71500,-4.67074,-4.65886,-4.16839,2.29289,6.07168,-3.90306,3.13199,-4.63238,1.65081,A,161808.10
6.14696,57.68807929,11.98140756,57.68808617,11.98141183,16:18:08.222013,0.01019,1.79112,1.79112,-0.03564,0.04000,0.03840,-0.00312,0.03035,-0.03581,-0.01275,0.99894,6.13733,1.73022,-4.66572,-4.65384,-4.15684,2.36682,6.07168,-3.90306,3.13199,-4.63238,1.65081,A,161808.10
6.16460,57.68807988,11.98140775,57.68808617,11.98141183,16:18:08.239621,0.01041,1.79112,1.79112,-0.03519,0.04000,0.04940,0.00162,0.03096,-0.04764,-0.02208,0.97569,6.15585,1.74240,-4.66160,-4.64972,-4.14576,2.43254,6.07168,-3.90306,3.13199,-4.63238,1.65081,A,161808.10
6.19954,57.68808040,11.98140793,57.68808950,11.98141083,16:18:08.274563,0.02736,1.79112,1.79112,-0.03497,0.04000,0.04940,0.01582,0.03188,-0.03385,-0.03318,1.05292,6.17197,1.75215,-4.65823,-4.64635,-4.13510,2.49103,6.19062,-3.96249,3.50264,-4.55338,1.72980,A,161808.20
6.21865,57.68808137,11.98140801,57.68808950,11.98141083,16:18:08.294647,0.01000,1.79112,1.79112,-0.03362,0.04000,0.04497,-0.00220,0.03340,-0.01623,-0.01135,0.95343,6.20922,1.75994,-4.64243,-4.63055,-4.13021,2.59820,6.19062,-3.96249,3.50264,-4.55338,1.72980,A,161808.20
6.23005,57.68808191,11.98140813,57.68808950,11.98141083,16:18:08.305322,0.00947,1.79112,1.79112,-0.03418,0.04000,0.04726,-0.01900,0.02332,0.00073,-0.05703,0.92897,6.22021,1.76618,-4.63035,-4.61847,-4.12308,2.65870,6.19062,-3.96249,3.50264,-4.55338,1.72980,A,161808.20
6.24058,57.68808242,11.98140824,57.68808950,11.98141083,16:18:08.315603,0.00911,1.79112,1.79112,-0.03388,0.04000,0.03535,-0.02465,0.02332,-0.08882,0.00342,0.96587,6.23087,1.77116,-4.62010,-4.60822,-4.11645,2.71573,6.19062,-3.96249,3.50264,-4.55338,1.72980,A,161808.20
6.25261,57.68808291,11.98140835,57.68808950,11.98141083,16:18:08.327654,0.01025,1.79112,1.79112,-0.03396,0.04000,0.03917,-0.01258,0.02485,-0.09510,-0.02306,0.93147,6.24203,1.77516,-4.61137,-4.59950,-4.11034,2.77030,6.19062,-3.96249,3.50264,-4.55338,1.72980,A,161808.20
6.27508,57.68808356,11.98140840,57.68808950,11.98141083,16:18:08.350112,0.01077,1.79112,1.79112,-0.03363,0.04000,0.02603,0.02559,0.03020,-0.11730,-0.00964,1.03059,6.26519,1.77835,-4.60329,-4.59142,-4.10695,2.84226,6.19062,-3.96249,3.50264,-4.55338,1.72980,A,161808.20
6.29417,57.68808413,11.98140846,57.68808950,11.98141083,16:18:08.369204,0.01006,1.79112,1.79112,-0.03304,0.04000,0.01183,0.06377,0.03172,0.01177,0.03538,1.13552,6.28482,1.78090,-4.59660,-4.58473,-4.10337,2.90517,6.19062,-3.96249,3.50264,-4.55338,1.72980,A,161808.20
6.32939,57.68808461,11.98140853,57.68809117,11.98141033,16:18:08.404425,0.02814,1.79112,1.79112,-0.03294,0.04000,0.00801,0.01429,0.02760,0.05807,0.00756,1.01156,6.30094,1.78295,-4.59111,-4.57923,-4.09941,2.95907,6.31962,-3.99221,3.68797,-4.55338,1.72980,A,161808.30
6.35004,57.68808548,11.98140848,57.68809117,11.98141033,16:18:08.425083,0.01186,1.79112,1.79112,-0.03495,0.04000,-0.01169,-0.04206,-0.00325,-0.05819,-0.08333,0.89365,6.33994,1.78458,-4.58526,-4.57338,-4.10206,3.05532,6.31962,-3.99221,3.68797,-4.55338,1.72980,A,161808.30
6.36844,57.68808602,11.98140851,57.68809117,11.98141033,16:18:08.443472,0.01042,1.79112,1.79112,-0.03649,0.04000,-0.01780,-0.00418,-0.00966,-0.05106,-0.07948,1.05774,6.35909,1.78589,-4.58130,-4.56942,-4.10065,3.11614,6.31962,-3.99221,3.68797,-4.55338,1.72980,A,161808.30
6.38242,57.68808645,11.98140855,57.68809117,11.98141033,16:18:08.457437,0.00935,1.79112,1.79112,-0.03587,0.04000,-0.01322,0.01964,-0.00310,-0.09321,0.06686,1.16455,6.37277,1.78693,-4.57827,-4.56639,-4.09794,3.16359,6.31962,-3.99221,3.68797,-4.55338,1.72980,A,161808.30
6.39282,57.68808679,11.98140861,57.68809117,11.98141033,16:18:08.468528,0.00922,1.79112,1.79112,-0.03624,0.04000,-0.01352,0.02193,0.00362,-0.04178,-0.01177,1.13820,6.38301,1.78777,-4.57593,-4.56405,-4.09438,3.20157,6.31962,-3.99221,3.68797,-4.55338,1.72980,A,161808.30
6.40529,57.68808718,11.98140865,57.68809117,11.98141033,16:18:08.480321,0.00903,1.79112,1.79112,-0.03702,0.03977,-0.01337,0.01735,0.01019,-0.03660,-0.03837,1.07317,6.39593,1.78844,-4.57371,-4.56190,-4.09201,3.24416,6.31962,-3.99221,3.68797,-4.55338,1.72980,A,161808.30
6.41571,57.68808751,11.98140870,57.68809117,11.98141033,16:18:08.491486,0.00912,1.79112,1.79112,-0.03757,0.03906,-0.02681,-0.00342,0.00530,0.04868,-0.01141,0.95794,6.40677,1.78898,-4.57191,-4.56031,-4.08932,3.28151,6.31962,-3.99221,3.68797,-4.55338,1.72980,A,161808.30
6.44415,57.68808783,11.98140874,57.68809133,11.98140917,16:18:08.519508,0.02674,1.79112,1.79112,-0.03759,0.03802,-0.02635,-0.03183,-0.00065,0.11535,0.01989,0.78666,6.41810,1.78940,-4.57032,-4.55903,-4.08684,3.31736,6.43528,-4.06156,3.70650,-3.40274,2.88044,A,161808.40
6.45950,57.68808847,11.98140863,57.68809133,11.98140917,16:18:08.534523,0.00820,1.79112,1.79112,-0.03877,0.03394,-0.02574,0.00467,-0.01379,-0.31567,-0.02397,1.15052,6.45113,1.78975,-4.39507,-4.38499,-4.09358,3.38858,6.43528,-4.06156,3.70650,-3.40274,2.88044,A,161808.40
