Time,lat_estimated,lon_estimated,latitude,longitude,RealTime,CalculationTime,MeasuredVelocity,FilteredVelocity,Roll,SteeringAngle,RollRate,gy,gz,ax,ay,az,imu_read_timing,v_estimated,yaw_estimated,heading_estimated,x_estimated,y_estimated,GPS_timestamp,x_GPS,y_GPS,theta_GPS,theta_GPS_noUnwrap,status,NMEA timestamp
0.05494,57.68833300,11.97999533,57.68833300,11.97999533,14:54:29.771206,0.05490,0.00000,1.50000,-0.00220,0.02000,0.00168,0.00164,0.00051,-0.04935,-0.11639,0.99247,0.00001,0.00000,0.00000,0.00000,0.00000,0.00000,0.01523,0.00000,0.00000,0.00000,0.00000,A,145429.60
0.07077,57.68833300,11.97999533,57.68833300,11.97999533,14:54:29.786993,0.00826,0.00000,0.00000,-0.00444,0.00000,-0.00122,-0.00172,0.00310,-0.05081,-0.11523,0.99277,0.06258,0.00000,0.00000,0.00000,0.00000,0.00000,0.01523,0.00000,0.00000,0.00000,0.00000,A,145429.60
0.07823,57.68833300,11.97999533,57.68833300,11.97999533,14:54:29.794458,0.00532,0.00000,0.00000,-0.00658,0.00000,0.00122,-0.00004,-0.00255,-0.04917,-0.11572,0.99119,0.07248,0.00000,0.00000,0.00000,0.00000,0.00000,0.01523,0.00000,0.00000,0.00000,0.00000,A,145429.60
0.08835,57.68833300,11.97999533,57.68833300,11.97999533,14:54:29.804571,0.00505,0.00000,0.00000,-0.00873,0.00000,-0.00336,-0.00019,-0.00072,-0.05051,-0.11639,0.99143,0.08264,0.00000,0.00000,0.00000,0.00000,0.00000,0.01523,0.00000,0.00000,0.00000,0.00000,A,145429.60
0.09907,57.68833300,11.97999533,57.68833300,11.97999533,14:54:29.815293,0.00537,0.00000,0.00000,-0.01086,0.00000,-0.00321,-0.00035,-0.00041,-0.05112,-0.11730,0.99332,0.09325,0.00000,0.00000,0.00000,0.00000,0.00000,0.01523,0.00000,0.00000,0.00000,0.00000,A,145429.60
0.10918,57.68833300,11.97999533,57.68833300,11.97999533,14:54:29.825402,0.00508,0.00000,0.00000,-0.01298,0.00000,-0.00535,-0.00126,0.00234,-0.05051,-0.11712,0.99338,0.10367,0.00000,0.00000,0.00000,0.00000,0.00000,0.01523,0.00000,0.00000,0.00000,0.00000,A,145429.60
0.15357,57.68833300,11.97999533,57.68833117,11.98000050,14:54:29.870024,0.03924,0.00000,1.50000,-0.01499,0.02000,0.00046,0.00011,0.00127,-0.05118,-0.11535,0.99229,0.11371,0.00000,0.00000,0.00000,0.00000,0.00000,0.14188,0.30709,-0.20386,-0.58604,-0.58604,A,145429.80
0.17258,57.68833291,11.97999559,57.68833117,11.98000050,14:54:29.888817,0.00767,0.00000,0.00000,-0.01695,0.00000,0.00076,0.00149,-0.00301,-0.05051,-0.11688,0.99015,0.16455,0.00000,-0.08791,-0.08791,0.01535,-0.01019,0.14188,0.30709,-0.20386,-0.58604,-0.58604,A,145429.80
0.18038,57.68833282,11.97999584,57.68833117,11.98000050,14:54:29.896605,0.00507,0.00000,0.00000,-0.01888,0.00000,0.00061,0.00088,0.00035,-0.05112,-0.11389,0.98960,0.17485,0.00000,-0.16263,-0.16263,0.02994,-0.01988,0.14188,0.30709,-0.20386,-0.58604,-0.58604,A,145429.80
0.19108,57.68833274,11.97999607,57.68833117,11.98000050,14:54:29.907299,0.00537,0.00000,0.00000,-0.02083,0.00000,-0.00199,-0.00050,0.00035,-0.05289,-0.11578,0.99235,0.18526,0.00000,-0.22614,-0.22614,0.04380,-0.02908,0.14188,0.30709,-0.20386,-0.58604,-0.58604,A,145429.80
0.20119,57.68833266,11.97999629,57.68833117,11.98000050,14:54:29.917413,0.00508,0.00000,0.00000,-0.02270,0.00000,0.00214,0.00057,-0.00133,-0.05026,-0.11560,0.99186,0.19568,0.00000,-0.28012,-0.28012,0.05696,-0.03781,0.14188,0.30709,-0.20386,-0.58604,-0.58604,A,145429.80
0.21172,57.68833259,11.97999650,57.68833117,11.98000050,14:54:29.927953,0.00524,0.00000,0.00000,-0.02458,0.00000,-0.00214,-0.00279,0.00249,-0.05258,-0.11523,0.99247,0.20592,0.00000,-0.32601,-0.32601,0.06947,-0.04612,0.14188,0.30709,-0.20386,-0.58604,-0.58604,A,145429.80
0.22314,57.68833251,11.97999670,57.68833117,11.98000050,14:54:29.939366,0.00625,0.00000,0.00000,-0.02643,0.00000,0.00076,-0.00141,0.00203,-0.05014,-0.11669,0.99174,0.21690,0.00000,-0.36502,-0.36502,0.08135,-0.05400,0.14188,0.30709,-0.20386,-0.58604,-0.58604,A,145429.80
0.23258,57.68833245,11.97999689,57.68833117,11.98000050,14:54:29.948805,0.00529,0.00000,0.00000,-0.02832,0.00000,-0.00596,-0.00340,0.00173,-0.04917,-0.11730,0.99552,0.22662,0.00000,-0.39817,-0.39817,0.09264,-0.06150,0.14188,0.30709,-0.20386,-0.58604,-0.58604,A,145429.80
0.26597,57.68833238,11.97999707,57.68833033,11.97999967,14:54:29.982216,0.02827,0.00000,1.50000,-0.03015,0.02000,-0.00275,0.00042,-0.00026,-0.05081,-0.11688,0.99088,0.23723,0.00000,-0.42635,-0.42635,0.10336,-0.06861,0.25477,0.25756,-0.29652,-2.06168,-2.06168,A,145429.90
0.28268,57.68833228,11.97999720,57.68833033,11.97999967,14:54:29.998908,0.00701,0.00000,0.00000,-0.03195,0.00000,-0.00092,0.00118,0.00402,-0.05069,-0.11596,0.99076,0.27683,0.00000,-0.67165,-0.67165,0.11107,-0.08001,0.25477,0.25756,-0.29652,-2.06168,-2.06168,A,145429.90
0.29140,57.68833218,11.97999733,57.68833033,11.97999967,14:54:30.007626,0.00518,0.00000,0.00000,-0.03368,0.00000,-0.00031,0.00011,0.00188,-0.05106,-0.11584,0.99216,0.28559,0.00000,-0.88016,-0.88016,0.11839,-0.09084,0.25477,0.25756,-0.29652,-2.06168,-2.06168,A,145429.90
0.30169,57.68833209,11.97999744,57.68833033,11.97999967,14:54:30.018167,0.00507,0.00000,0.00000,-0.03540,0.00000,-0.00137,0.00133,0.00127,-0.05081,-0.11578,0.99436,0.29618,0.00000,-1.05738,-1.05738,0.12535,-0.10112,0.25477,0.25756,-0.29652,-2.06168,-2.06168,A,145429.90
0.31226,57.68833200,11.97999755,57.68833033,11.97999967,14:54:30.028483,0.00524,0.00000,0.00000,-0.03708,0.00000,-0.00275,0.00347,-0.00102,-0.05215,-0.11480,0.99430,0.30637,0.00000,-1.20803,-1.20803,0.13196,-0.11089,0.25477,0.25756,-0.29652,-2.06168,-2.06168,A,145429.90
0.32280,57.68833192,11.97999766,57.68833033,11.97999967,14:54:30.039022,0.00538,0.00000,0.00000,-0.03875,0.00000,-0.00092,-0.00203,0.00035,-0.05106,-0.11547,0.99064,0.31697,0.00000,-1.33608,-1.33608,0.13824,-0.12017,0.25477,0.25756,-0.29652,-2.06168,-2.06168,A,145429.90
0.33286,57.68833184,11.97999776,57.68833033,11.97999967,14:54:30.049082,0.00503,0.00000,0.00000,-0.04038,0.00000,-0.00122,-0.00080,0.00356,-0.05155,-0.11535,0.99259,0.32735,0.00000,-1.44492,-1.44492,0.14421,-0.12899,0.25477,0.25756,-0.29652,-2.06168,-2.06168,A,145429.90
0.34371,57.68833176,11.97999785,57.68833033,11.97999967,14:54:30.059939,0.00548,0.00000,0.00000,-0.04197,0.00000,-0.00092,0.00057,0.00264,-0.05203,-0.11438,0.99119,0.33760,0.00000,-1.53743,-1.53743,0.14988,-0.13736,0.25477,0.25756,-0.29652,-2.06168,-2.06168,A,145429.90
0.35427,57.68833169,11.97999795,57.68833033,11.97999967,14:54:30.070507,0.00558,0.00000,0.00000,-0.04361,0.00000,-0.00229,0.00118,-0.00056,-0.04990,-0.11785,0.99296,0.34850,0.00000,-1.61607,-1.61607,0.15526,-0.14532,0.25477,0.25756,-0.29652,-2.06168,-2.06168,A,145429.90
0.38686,57.68833163,11.97999803,57.68832917,11.97999717,14:54:30.103114,0.02777,0.00000,1.50000,-0.04517,0.02000,-0.00107,0.00042,-0.00011,-0.05148,-0.11566,0.99393,0.35842,0.00000,-1.68291,-1.68291,0.16037,-0.15288,0.37592,0.10897,-0.42625,-2.42387,-2.42387,A,145430.00
0.40552,57.68833150,11.97999799,57.68832917,11.97999717,14:54:30.121750,0.00608,0.00000,0.00000,-0.04669,0.00000,0.00107,0.00164,-0.00270,-0.05167,-0.11773,0.99119,0.39999,0.00000,-1.79405,-1.79405,0.15780,-0.16655,0.37592,0.10897,-0.42625,-2.42387,-2.42387,A,145430.00
0.41519,57.68833139,11.97999795,57.68832917,11.97999717,14:54:30.131410,0.00518,0.00000,0.00000,-0.04820,0.00000,0.00015,-0.00325,-0.00102,-0.05130,-0.11590,0.99308,0.40937,0.00000,-1.88853,-1.88853,0.15536,-0.17954,0.37592,0.10897,-0.42625,-2.42387,-2.42387,A,145430.00
0.42572,57.68833127,11.97999791,57.68832917,11.97999717,14:54:30.142191,0.00531,0.00000,0.00000,-0.04964,0.00000,0.00321,0.00149,0.00081,-0.04965,-0.11523,0.99345,0.42020,0.00000,-1.96883,-1.96883,0.15304,-0.19187,0.37592,0.10897,-0.42625,-2.42387,-2.42387,A,145430.00
0.43598,57.68833117,11.97999787,57.68832917,11.97999717,14:54:30.152201,0.00534,0.00000,0.00000,-0.05112,0.00000,0.00046,0.00133,-0.00224,-0.05276,-0.11682,0.99113,0.43004,0.00000,-2.03708,-2.03708,0.15084,-0.20359,0.37592,0.10897,-0.42625,-2.42387,-2.42387,A,145430.00
0.44639,57.68833107,11.97999784,57.68832917,11.97999717,14:54:30.162618,0.00535,0.00000,0.00000,-0.05260,0.00000,-0.00321,0.00027,-0.00072,-0.05148,-0.11651,0.99241,0.44064,0.00000,-2.09510,-2.09510,0.14875,-0.21472,0.37592,0.10897,-0.42625,-2.42387,-2.42387,A,145430.00
0.45673,57.68833097,11.97999780,57.68832917,11.97999717,14:54:30.172948,0.00510,0.00000,0.00000,-0.05408,0.00000,-0.00382,0.00133,-0.00178,-0.05063,-0.11651,0.99058,0.45119,0.00000,-2.14442,-2.14442,0.14676,-0.22530,0.37592,0.10897,-0.42625,-2.42387,-2.42387,A,145430.00
0.46775,57.68833088,11.97999777,57.68832917,11.97999717,14:54:30.183989,0.00557,0.00000,0.00000,-0.05552,0.00000,-0.00229,0.00072,0.00295,-0.05051,-0.11755,0.99332,0.46154,0.00000,-2.18633,-2.18633,0.14487,-0.23535,0.37592,0.10897,-0.42625,-2.42387,-2.42387,A,145430.00
0.49987,57.68833080,11.97999774,57.68832867,11.97999717,14:54:30.216786,0.02730,0.00000,1.50000,-0.05689,0.02000,-0.00076,-0.00203,-0.00194,-0.05222,-0.11462,0.99406,0.47271,0.00000,-2.22196,-2.22196,0.14307,-0.24489,0.48881,0.10897,-0.48184,-1.57080,-1.57080,A,145430.10
0.52000,57.68833069,11.97999771,57.68832867,11.97999717,14:54:30.236227,0.00667,0.00000,0.00000,-0.05843,0.00000,-0.00397,0.00240,0.00173,-0.05161,-0.11749,0.99137,0.51419,0.00000,-2.12429,-2.12429,0.14137,-0.25674,0.48881,0.10897,-0.48184,-1.57080,-1.57080,A,145430.10
0.52896,57.68833059,11.97999768,57.68832867,11.97999717,14:54:30.245175,0.00521,0.00000,0.00000,-0.05977,0.00000,-0.00092,-0.00065,-0.00178,-0.04880,-0.11560,0.99467,0.52343,0.00000,-2.04127,-2.04127,0.13975,-0.26799,0.48881,0.10897,-0.48184,-1.57080,-1.57080,A,145430.10
0.53943,57.68833049,11.97999766,57.68832867,11.97999717,14:54:30.255652,0.00519,0.00000,0.00000,-0.06112,0.00000,-0.00183,0.00210,-0.00026,-0.05386,-0.11743,0.99277,0.53361,0.00000,-1.97069,-1.97069,0.13821,-0.27869,0.48881,0.10897,-0.48184,-1.57080,-1.57080,A,145430.10
0.54971,57.68833040,11.97999763,57.68832867,11.97999717,14:54:30.266322,0.00508,0.00000,0.00000,-0.06244,0.00000,-0.00076,0.00133,-0.00270,-0.05100,-0.11651,0.99198,0.54419,0.00000,-1.91071,-1.91071,0.13675,-0.28884,0.48881,0.10897,-0.48184,-1.57080,-1.57080,A,145430.10
0.56012,57.68833032,11.97999761,57.68832867,11.97999717,14:54:30.276338,0.00509,0.00000,0.00000,-0.06376,0.00000,-0.00321,-0.00019,0.00005,-0.05051,-0.11749,0.99503,0.55438,0.00000,-1.85972,-1.85972,0.13536,-0.29849,0.48881,0.10897,-0.48184,-1.57080,-1.57080,A,145430.10
0.57143,57.68833023,11.97999759,57.68832867,11.97999717,14:54:30.287658,0.00600,0.00000,0.00000,-0.06499,0.00000,0.00519,-0.00416,-0.00072,-0.05222,-0.11743,0.99168,0.56499,0.00000,-1.81638,-1.81638,0.13404,-0.30766,0.48881,0.10897,-0.48184,-1.57080,-1.57080,A,145430.10
0.58152,57.68833015,11.97999757,57.68832867,11.97999717,14:54:30.297742,0.00569,0.00000,0.00000,-0.06621,0.00000,-0.00183,-0.00004,0.00096,-0.05161,-0.11401,0.99290,0.57600,0.00000,-1.77955,-1.77955,0.13278,-0.31637,0.48881,0.10897,-0.48184,-1.57080,-1.57080,A,145430.10
0.61245,57.68833008,11.97999755,57.68832800,11.97999883,14:54:30.328702,0.02623,0.00000,1.50000,-0.06743,0.02000,0.00183,-0.00187,0.00173,-0.05142,-0.11682,0.99131,0.58558,0.00000,-1.74823,-1.74823,0.13159,-0.32465,0.60171,0.20803,-0.55597,-0.64243,-0.64243,A,145430.20
0.63079,57.68832998,11.97999761,57.68832800,11.97999883,14:54:30.347192,0.00719,0.00000,0.00000,-0.06884,0.00000,-0.00458,-0.00340,0.00005,-0.04929,-0.11761,0.98991,0.62490,0.00000,-1.58236,-1.58236,0.13541,-0.33621,0.60171,0.20803,-0.55597,-0.64243,-0.64243,A,145430.20
0.63941,57.68832988,11.97999767,57.68832800,11.97999883,14:54:30.355639,0.00528,0.00000,0.00000,-0.07006,0.00000,-0.00504,-0.00035,-0.00148,-0.05142,-0.11596,0.99284,0.63352,0.00000,-1.44137,-1.44137,0.13905,-0.34720,0.60171,0.20803,-0.55597,-0.64243,-0.64243,A,145430.20
0.64963,57.68832978,11.97999773,57.68832800,11.97999883,14:54:30.366100,0.00510,0.00000,0.00000,-0.07123,0.00000,-0.00092,0.00011,0.00234,-0.04813,-0.11633,0.99247,0.64412,0.00000,-1.32153,-1.32153,0.14249,-0.35764,0.60171,0.20803,-0.55597,-0.64243,-0.64243,A,145430.20
0.66005,57.68832969,11.97999779,57.68832800,11.97999883,14:54:30.376270,0.00510,0.00000,0.00000,-0.07238,0.00000,0.00382,0.00088,0.00173,-0.05161,-0.11901,0.99259,0.65428,0.00000,-1.21967,-1.21967,0.14577,-0.36756,0.60171,0.20803,-0.55597,-0.64243,-0.64243,A,145430.20
0.67076,57.68832961,11.97999784,57.68832800,11.97999883,14:54:30.386977,0.00542,0.00000,0.00000,-0.07349,0.00000,0.00076,0.00408,0.00157,-0.04959,-0.11511,0.99381,0.66493,0.00000,-1.13308,-1.13308,0.14888,-0.37698,0.60171,0.20803,-0.55597,-0.64243,-0.64243,A,145430.20
0.68081,57.68832953,11.97999789,57.68832800,11.97999883,14:54:30.397032,0.00506,0.00000,0.00000,-0.07459,0.00000,-0.00137,0.00057,-0.00178,-0.05185,-0.11474,0.99186,0.67529,0.00000,-1.05948,-1.05948,0.15184,-0.38593,0.60171,0.20803,-0.55597,-0.64243,-0.64243,A,145430.20
0.69207,57.68832945,11.97999794,57.68832800,11.97999883,14:54:30.408291,0.00584,0.00000,0.00000,-0.07570,0.00000,-0.00015,-0.00279,0.00219,-0.05185,-0.11682,0.99259,0.68629,0.00000,-0.99693,-0.99693,0.15465,-0.39443,0.60171,0.20803,-0.55597,-0.64243,-0.64243,A,145430.20
0.70169,57.68832938,11.97999798,57.68832800,11.97999883,14:54:30.418164,0.00505,0.00000,0.00000,-0.07680,0.00000,-0.00061,-0.00096,-0.00117,-0.05063,-0.11669,0.99137,0.69620,0.00000,-0.94375,-0.94375,0.15732,-0.40251,0.60171,0.20803,-0.55597,-0.64243,-0.64243,A,145430.20
0.73417,57.68832931,11.97999802,57.68832633,11.98000500,14:54:30.450423,0.02715,0.00000,1.50000,-0.07789,0.02000,-0.00458,-0.00416,0.00203,-0.05179,-0.11547,0.99406,0.70637,0.00000,-0.89855,-0.89855,0.15985,-0.41018,0.72287,0.57455,-0.74130,-0.46814,-0.46814,A,145430.30
0.75409,57.68832916,11.97999837,57.68832633,11.98000500,14:54:30.470322,0.00721,0.00000,0.00000,-0.07897,0.00000,-0.00092,0.00317,0.00005,-0.04990,-0.11566,0.99216,0.74798,0.00000,-0.83399,-0.83399,0.18059,-0.42674,0.72287,0.57455,-0.74130,-0.46814,-0.46814,A,145430.30
0.76274,57.68832902,11.97999870,57.68832633,11.98000500,14:54:30.478961,0.00545,0.00000,0.00000,-0.08001,0.00000,0.00107,0.00271,-0.00041,-0.05045,-0.11736,0.99247,0.75691,0.00000,-0.77911,-0.77911,0.20029,-0.44246,0.72287,0.57455,-0.74130,-0.46814,-0.46814,A,145430.30
0.77275,57.68832889,11.97999902,57.68832633,11.98000500,14:54:30.488972,0.00506,0.00000,0.00000,-0.08104,0.00000,0.00092,0.00118,-0.00026,-0.04880,-0.11761,0.99137,0.76723,0.00000,-0.73247,-0.73247,0.21900,-0.45741,0.72287,0.57455,-0.74130,-0.46814,-0.46814,A,145430.30
0.78405,57.68832876,11.97999932,57.68832633,11.98000500,14:54:30.500280,0.00582,0.00000,0.00000,-0.08202,0.00000,0.00321,-0.00309,-0.00209,-0.05222,-0.11700,0.99192,0.77761,0.00000,-0.69282,-0.69282,0.23678,-0.47160,0.72287,0.57455,-0.74130,-0.46814,-0.46814,A,145430.30
0.79370,57.68832864,11.97999960,57.68832633,11.98000500,14:54:30.510173,0.00507,0.00000,0.00000,-0.08297,0.00000,0.00076,0.00347,0.00142,-0.05155,-0.11468,0.99265,0.78820,0.00000,-0.65912,-0.65912,0.25367,-0.48509,0.72287,0.57455,-0.74130,-0.46814,-0.46814,A,145430.30
0.80484,57.68832852,11.97999987,57.68832633,11.98000500,14:54:30.521060,0.00581,0.00000,0.00000,-0.08398,0.00000,-0.00107,-0.00218,0.00020,-0.05264,-0.11749,0.98887,0.79838,0.00000,-0.63047,-0.63047,0.26971,-0.49790,0.72287,0.57455,-0.74130,-0.46814,-0.46814,A,145430.30
0.81503,57.68832841,11.98000013,57.68832633,11.98000500,14:54:30.531257,0.00560,0.00000,0.00000,-0.08492,0.00000,0.00137,-0.00157,-0.00148,-0.04990,-0.11645,0.99375,0.80898,0.00000,-0.60612,-0.60612,0.28495,-0.51007,0.72287,0.57455,-0.74130,-0.46814,-0.46814,A,145430.30
0.85692,57.68832831,11.98000037,57.68832633,11.98001400,14:54:30.573169,0.03709,0.00000,1.50000,-0.08587,0.02000,0.00092,0.00088,0.00051,-0.04978,-0.11718,0.99308,0.81937,0.00000,-0.58542,-0.58542,0.29943,-0.52163,0.84555,1.10948,-0.74130,0.00000,0.00000,A,145430.50
0.87449,57.68832821,11.98000105,57.68832633,11.98001400,14:54:30.590718,0.00687,0.00000,0.00000,-0.08660,0.00000,0.00382,-0.00004,-0.00072,-0.05069,-0.11553,0.99332,0.86866,0.00000,-0.49761,-0.49761,0.33994,-0.53261,0.84555,1.10948,-0.74130,0.00000,0.00000,A,145430.50
0.88405,57.68832812,11.98000170,57.68832633,11.98001400,14:54:30.600278,0.00564,0.00000,0.00000,-0.08751,0.00000,0.00061,0.00164,-0.00148,-0.05264,-0.11645,0.99314,0.87785,0.00000,-0.42297,-0.42297,0.37841,-0.54305,0.84555,1.10948,-0.74130,0.00000,0.00000,A,145430.50
0.89420,57.68832803,11.98000232,57.68832633,11.98001400,14:54:30.610437,0.00539,0.00000,0.00000,-0.08836,0.00000,0.00351,0.00408,0.00142,-0.05026,-0.11480,0.99241,0.88837,0.00000,-0.35952,-0.35952,0.41497,-0.55296,0.84555,1.10948,-0.74130,0.00000,0.00000,A,145430.50
0.90429,57.68832794,11.98000290,57.68832633,11.98001400,14:54:30.620516,0.00508,0.00000,0.00000,-0.08924,0.00000,0.00122,-0.00111,0.00035,-0.04947,-0.11627,0.99216,0.89855,0.00000,-0.30559,-0.30559,0.44969,-0.56238,0.84555,1.10948,-0.74130,0.00000,0.00000,A,145430.50
0.91500,57.68832786,11.98000345,57.68832633,11.98001400,14:54:30.631221,0.00539,0.00000,0.00000,-0.09015,0.00000,-0.00229,0.00088,-0.00194,-0.04837,-0.11700,0.99302,0.90917,0.00000,-0.25976,-0.25976,0.48268,-0.57132,0.84555,1.10948,-0.74130,0.00000,0.00000,A,145430.50
0.92644,57.68832779,11.98000398,57.68832633,11.98001400,14:54:30.642670,0.00643,0.00000,0.00000,-0.09100,0.00000,0.00321,-0.00203,-0.00148,-0.05045,-0.11712,0.99155,0.91944,0.00000,-0.22079,-0.22079,0.51402,-0.57982,0.84555,1.10948,-0.74130,0.00000,0.00000,A,145430.50
0.93561,57.68832771,11.98000448,57.68832633,11.98001400,14:54:30.651834,0.00519,0.00000,0.00000,-0.09184,0.00000,-0.00137,-0.00141,-0.00224,-0.05209,-0.11492,0.99198,0.92981,0.00000,-0.18767,-0.18767,0.54379,-0.58789,0.84555,1.10948,-0.74130,0.00000,0.00000,A,145430.50
0.94612,57.68832764,11.98000496,57.68832633,11.98001400,14:54:30.662356,0.00530,0.00000,0.00000,-0.09261,0.00000,0.00504,-0.00157,-0.00102,-0.05155,-0.11505,0.99241,0.94038,0.00000,-0.15952,-0.15952,0.57208,-0.59556,0.84555,1.10948,-0.74130,0.00000,0.00000,A,145430.50
0.97336,57.68832758,11.98000541,57.68832600,11.98001283,14:54:30.689594,0.02214,0.00000,1.50000,-0.09335,0.02000,0.00489,-0.00019,-0.00026,-0.05142,-0.11370,0.99241,0.95095,0.00000,-0.13559,-0.13559,0.59895,-0.60285,0.96707,1.04014,-0.77836,-2.65071,-2.65071,A,145430.60
0.98412,57.68832750,11.98000578,57.68832600,11.98001283,14:54:30.700347,0.00588,0.00000,0.00000,-0.09403,0.00000,0.00473,0.00271,0.00112,-0.05155,-0.11578,0.99259,0.97832,0.00000,-0.51286,-0.51286,0.62101,-0.61163,0.96707,1.04014,-0.77836,-2.65071,-2.65071,A,145430.60
0.99373,57.68832742,11.98000613,57.68832600,11.98001283,14:54:30.710201,0.00509,0.00000,0.00000,-0.09486,0.00000,-0.00397,-0.00401,0.00142,-0.05276,-0.11541,0.99253,0.98822,0.00000,-0.83354,-0.83354,0.64196,-0.61996,0.96707,1.04014,-0.77836,-2.65071,-2.65071,A,145430.60
1.00413,57.68832735,11.98000647,57.68832600,11.98001283,14:54:30.720348,0.00509,0.00000,0.00000,-0.09564,0.00000,0.00015,-0.00126,0.00188,-0.05240,-0.11578,0.99357,0.99838,0.00000,-1.10611,-1.10611,0.66187,-0.62788,0.96707,1.04014,-0.77836,-2.65071,-2.65071,A,145430.60
1.01484,57.68832729,11.98000679,57.68832600,11.98001283,14:54:30.731062,0.00540,0.00000,0.00000,-0.09647,0.00000,-0.00305,-0.00065,0.00066,-0.05155,-0.11700,0.99107,1.00902,0.00000,-1.33780,-1.33780,0.68079,-0.63541,0.96707,1.04014,-0.77836,-2.65071,-2.65071,A,145430.60
1.02530,57.68832722,11.98000709,57.68832600,11.98001283,14:54:30.741523,0.00547,0.00000,0.00000,-0.09722,0.00000,0.00244,0.00393,0.00020,-0.05240,-0.11639,0.99186,1.01955,0.00000,-1.53474,-1.53474,0.69875,-0.64256,0.96707,1.04014,-0.77836,-2.65071,-2.65071,A,145430.60
1.03560,57.68832716,11.98000738,57.68832600,11.98001283,14:54:30.751822,0.00532,0.00000,0.00000,-0.09796,0.00000,-0.00046,-0.00004,0.00173,-0.05069,-0.11456,0.99290,1.02980,0.00000,-1.70214,-1.70214,0.71582,-0.64935,0.96707,1.04014,-0.77836,-2.65071,-2.65071,A,145430.60
1.04574,57.68832710,11.98000765,57.68832600,11.98001283,14:54:30.762209,0.00506,0.00000,0.00000,-0.09868,0.00000,0.00199,-0.00096,-0.00102,-0.05045,-0.11602,0.99094,1.04023,0.00000,-1.84442,-1.84442,0.73204,-0.65580,0.96707,1.04014,-0.77836,-2.65071,-2.65071,A,145430.60
1.05886,57.68832705,11.98000791,57.68832600,11.98001283,14:54:30.775085,0.00778,0.00000,0.00000,-0.09942,0.00000,-0.00015,-0.00203,-0.00178,-0.04990,-0.11621,0.99326,1.05085,0.00000,-1.96537,-1.96537,0.74744,-0.66193,0.96707,1.04014,-0.77836,-2.65071,-2.65071,A,145430.60
1.06681,57.68832699,11.98000816,57.68832600,11.98001283,14:54:30.783039,0.00534,0.00000,0.00000,-0.10016,0.00000,-0.00107,-0.00126,-0.00041,-0.05161,-0.11627,0.99021,1.06103,0.00000,-2.06817,-2.06817,0.76208,-0.66775,0.96707,1.04014,-0.77836,-2.65071,-2.65071,A,145430.60
1.09615,57.68832695,11.98000839,57.68832450,11.98001817,14:54:30.812381,0.02427,0.00000,1.50000,-0.10083,0.02000,0.00168,-0.00035,0.00142,-0.05087,-0.11486,0.99338,1.07143,0.00000,-2.15555,-2.15555,0.77598,-0.67328,1.09021,1.35713,-0.94516,-0.48436,-0.48436,A,145430.70
1.10657,57.68832682,11.98000888,57.68832450,11.98001817,14:54:30.822803,0.00570,0.00000,0.00000,-0.10159,0.00000,-0.00046,0.00271,0.00096,-0.05185,-0.11889,0.99137,1.10050,0.00000,-1.90487,-1.90487,0.80504,-0.68687,1.09021,1.35713,-0.94516,-0.48436,-0.48436,A,145430.70
1.11633,57.68832671,11.98000934,57.68832450,11.98001817,14:54:30.832549,0.00506,0.00000,0.00000,-0.10227,0.00000,0.00092,-0.00111,-0.00087,-0.04910,-0.11608,0.99155,1.11060,0.00000,-1.69180,-1.69180,0.83264,-0.69979,1.09021,1.35713,-0.94516,-0.48436,-0.48436,A,145430.70
1.12744,57.68832660,11.98000978,57.68832450,11.98001817,14:54:30.843666,0.00577,0.00000,0.00000,-0.10294,0.00000,0.00061,0.00103,0.00112,-0.05094,-0.11566,0.99009,1.12138,0.00000,-1.51068,-1.51068,0.85887,-0.71206,1.09021,1.35713,-0.94516,-0.48436,-0.48436,A,145430.70
1.13769,57.68832649,11.98001020,57.68832450,11.98001817,14:54:30.854159,0.00534,0.00000,0.00000,-0.10358,0.00000,0.00275,0.00103,-0.00056,-0.04959,-0.11608,0.99247,1.13216,0.00000,-1.35673,-1.35673,0.88378,-0.72371,1.09021,1.35713,-0.94516,-0.48436,-0.48436,A,145430.70
1.14775,57.68832639,11.98001060,57.68832450,11.98001817,14:54:30.863976,0.00517,0.00000,0.00000,-0.10425,0.00000,-0.00153,0.00179,-0.00087,-0.05075,-0.11590,0.99381,1.14197,0.00000,-1.22588,-1.22588,0.90745,-0.73478,1.09021,1.35713,-0.94516,-0.48436,-0.48436,A,145430.70
1.15928,57.68832630,11.98001098,57.68832450,11.98001817,14:54:30.875510,0.00630,0.00000,0.00000,-0.10489,0.00000,-0.00061,0.00057,0.00188,-0.05234,-0.11517,0.99332,1.15280,0.00000,-1.11465,-1.11465,0.92993,-0.74530,1.09021,1.35713,-0.94516,-0.48436,-0.48436,A,145430.70
1.16844,57.68832621,11.98001134,57.68832450,11.98001817,14:54:30.884652,0.00505,0.00000,0.00000,-0.10551,0.00000,0.00260,-0.00386,0.00188,-0.05124,-0.11614,0.99216,1.16291,0.00000,-1.02011,-1.02011,0.95129,-0.75529,1.09021,1.35713,-0.94516,-0.48436,-0.48436,A,145430.70
1.17916,57.68832612,11.98001168,57.68832450,11.98001817,14:54:30.895384,0.00519,0.00000,0.00000,-0.10615,0.00000,-0.00153,-0.00248,0.00295,-0.05270,-0.11523,0.99107,1.17334,0.00000,-0.93975,-0.93975,0.97158,-0.76479,1.09021,1.35713,-0.94516,-0.48436,-0.48436,A,145430.70
1.19014,57.68832604,11.98001200,57.68832450,11.98001817,14:54:30.906374,0.00555,0.00000,0.00000,-0.10674,0.00000,0.00015,0.00057,0.00264,-0.05191,-0.11438,0.99155,1.18439,0.00000,-0.87144,-0.87144,0.99086,-0.77381,1.09021,1.35713,-0.94516,-0.48436,-0.48436,A,145430.70
1.22208,57.68832596,11.98001231,57.68832333,11.98001883,14:54:30.938378,0.02603,0.00000,1.50000,-0.10739,0.02000,-0.00229,0.00363,0.00127,-0.05033,-0.11688,0.99180,1.19433,0.00000,-0.81338,-0.81338,1.00918,-0.78237,1.21053,1.39676,-1.07488,-1.27435,-1.27435,A,145430.80
1.24051,57.68832583,11.98001264,57.68832333,11.98001883,14:54:30.957016,0.00728,0.00000,0.00000,-0.10800,0.00000,-0.00031,-0.00325,0.00020,-0.04801,-0.11553,0.99204,1.23428,0.00000,-0.88252,-0.88252,1.02855,-0.79700,1.21053,1.39676,-1.07488,-1.27435,-1.27435,A,145430.80
1.24870,57.68832571,11.98001295,57.68832333,11.98001883,14:54:30.964927,0.00505,0.00000,0.00000,-0.10861,0.00000,-0.00183,0.00088,-0.00087,-0.05106,-0.11633,0.99314,1.24319,0.00000,-0.94130,-0.94130,1.04696,-0.81089,1.21053,1.39676,-1.07488,-1.27435,-1.27435,A,145430.80
1.25990,57.68832559,11.98001324,57.68832333,11.98001883,14:54:30.976126,0.00556,0.00000,0.00000,-0.10916,0.00000,0.00382,0.00103,-0.00087,-0.05136,-0.11645,0.99180,1.25374,0.00000,-0.99126,-0.99126,1.06445,-0.82409,1.21053,1.39676,-1.07488,-1.27435,-1.27435,A,145430.80
1.27080,57.68832548,11.98001352,57.68832333,11.98001883,14:54:30.987026,0.00609,0.00000,0.00000,-0.10969,0.00000,0.00275,-0.00233,0.00295,-0.05014,-0.11499,0.99265,1.26434,0.00000,-1.03372,-1.03372,1.08107,-0.83663,1.21053,1.39676,-1.07488,-1.27435,-1.27435,A,145430.80
1.28076,57.68832537,11.98001379,57.68832333,11.98001883,14:54:30.996973,0.00542,0.00000,0.00000,-0.11027,0.00000,-0.00046,0.00195,0.00081,-0.05063,-0.11614,0.99241,1.27521,0.00000,-1.06982,-1.06982,1.09685,-0.84854,1.21053,1.39676,-1.07488,-1.27435,-1.27435,A,145430.80
1.29206,57.68832527,11.98001404,57.68832333,11.98001883,14:54:31.008284,0.00632,0.00000,0.00000,-0.11083,0.00000,-0.00046,-0.00004,0.00310,-0.04984,-0.11590,0.99235,1.28585,0.00000,-1.10050,-1.10050,1.11185,-0.85986,1.21053,1.39676,-1.07488,-1.27435,-1.27435,A,145430.80
1.30123,57.68832517,11.98001428,57.68832333,11.98001883,14:54:31.017457,0.00510,0.00000,0.00000,-0.11139,0.00000,-0.00061,0.00057,0.00264,-0.05075,-0.11645,0.99412,1.29573,0.00000,-1.12657,-1.12657,1.12609,-0.87061,1.21053,1.39676,-1.07488,-1.27435,-1.27435,A,145430.80
1.32869,57.68832508,11.98001451,57.68832217,11.98001767,14:54:31.044924,0.02232,0.00000,1.50000,-0.11190,0.02000,0.00031,-0.00432,0.00157,-0.05081,-0.11438,0.99198,1.30615,0.00000,-1.14874,-1.14874,1.13963,-0.88083,1.32257,1.32741,-1.20461,-2.06168,-2.06168,A,145430.90
1.33964,57.68832493,11.98001467,57.68832217,11.98001767,14:54:31.055862,0.00549,0.00000,0.00000,-0.11237,0.00000,0.00305,0.00072,-0.00087,-0.04898,-0.11688,0.98997,1.33381,0.00000,-1.28568,-1.28568,1.14902,-0.89702,1.32257,1.32741,-1.20461,-2.06168,-2.06168,A,145430.90
1.34964,57.68832479,11.98001482,57.68832217,11.98001767,14:54:31.066113,0.00508,0.00000,0.00000,-0.11287,0.00000,0.00275,0.00042,-0.00011,-0.05069,-0.11584,0.99406,1.34413,0.00000,-1.40208,-1.40208,1.15794,-0.91240,1.32257,1.32741,-1.20461,-2.06168,-2.06168,A,145430.90
1.35993,57.68832466,11.98001496,57.68832217,11.98001767,14:54:31.076151,0.00515,0.00000,0.00000,-0.11340,0.00000,-0.00076,-0.00126,0.00112,-0.04923,-0.11669,0.99345,1.35418,0.00000,-1.50102,-1.50102,1.16641,-0.92701,1.32257,1.32741,-1.20461,-2.06168,-2.06168,A,145430.90
1.37134,57.68832454,11.98001509,57.68832217,11.98001767,14:54:31.087567,0.00616,0.00000,0.00000,-0.11391,0.00000,-0.00000,-0.00279,-0.00316,-0.05161,-0.11590,0.99204,1.36476,0.00000,-1.58512,-1.58512,1.17446,-0.94089,1.32257,1.32741,-1.20461,-2.06168,-2.06168,A,145430.90
1.38066,57.68832442,11.98001522,57.68832217,11.98001767,14:54:31.096884,0.00508,0.00000,0.00000,-0.11445,0.00000,-0.00183,-0.00218,0.00112,-0.05014,-0.11694,0.99101,1.37514,0.00000,-1.65660,-1.65660,1.18211,-0.95407,1.32257,1.32741,-1.20461,-2.06168,-2.06168,A,145430.90
1.39131,57.68832431,11.98001534,57.68832217,11.98001767,14:54:31.107527,0.00519,0.00000,0.00000,-0.11493,0.00000,-0.00046,0.00210,-0.00026,-0.05020,-0.11413,0.99235,1.38549,0.00000,-1.71737,-1.71737,1.18937,-0.96660,1.32257,1.32741,-1.20461,-2.06168,-2.06168,A,145430.90
1.40202,57.68832420,11.98001546,57.68832217,11.98001767,14:54:31.118256,0.00564,0.00000,0.00000,-0.11546,0.00000,-0.00290,-0.00126,0.00051,-0.05124,-0.11706,0.99168,1.39626,0.00000,-1.76901,-1.76901,1.19628,-0.97850,1.32257,1.32741,-1.20461,-2.06168,-2.06168,A,145430.90
1.41411,57.68832410,11.98001557,57.68832217,11.98001767,14:54:31.130345,0.00749,0.00000,0.00000,-0.11593,0.00000,0.00092,0.00118,-0.00178,-0.05276,-0.11553,0.99186,1.40756,0.00000,-1.81291,-1.81291,1.20283,-0.98981,1.32257,1.32741,-1.20461,-2.06168,-2.06168,A,145430.90
1.42264,57.68832400,11.98001568,57.68832217,11.98001767,14:54:31.138876,0.00563,0.00000,0.00000,-0.11639,0.00000,-0.00061,-0.00187,-0.00148,-0.05118,-0.11492,0.99143,1.41659,0.00000,-1.85023,-1.85023,1.20906,-1.00055,1.32257,1.32741,-1.20461,-2.06168,-2.06168,A,145430.90
1.46444,57.68832391,11.98001578,57.68832017,11.98001333,14:54:31.181403,0.03703,0.00000,1.50000,-0.11685,0.02000,-0.00031,0.00072,0.00127,-0.04953,-0.11517,0.99247,1.42725,0.00000,-1.88195,-1.88195,1.21498,-1.01075,1.45335,1.06986,-1.42700,-2.42934,-2.42934,A,145431.10
1.48026,57.68832372,11.98001565,57.68832017,11.98001333,14:54:31.196477,0.00689,0.00000,0.00000,-0.11735,0.00000,-0.00092,0.00424,0.00356,-0.05002,-0.11572,0.99284,1.47449,0.00000,-1.96406,-1.96406,1.20772,-1.03156,1.45335,1.06986,-1.42700,-2.42934,-2.42934,A,145431.10
1.48878,57.68832355,11.98001554,57.68832017,11.98001333,14:54:31.205003,0.00517,0.00000,0.00000,-0.11780,0.00000,-0.00076,0.00164,0.00051,-0.05008,-0.11529,0.99162,1.48323,0.00000,-2.03385,-2.03385,1.20083,-1.05133,1.45335,1.06986,-1.42700,-2.42934,-2.42934,A,145431.10
1.49994,57.68832338,11.98001543,57.68832017,11.98001333,14:54:31.216165,0.00579,0.00000,0.00000,-0.11832,0.00000,-0.00458,-0.00141,0.00234,-0.04978,-0.11822,0.99253,1.49352,0.00000,-2.09317,-2.09317,1.19428,-1.07012,1.45335,1.06986,-1.42700,-2.42934,-2.42934,A,145431.10
1.50961,57.68832322,11.98001532,57.68832017,11.98001333,14:54:31.226063,0.00506,0.00000,0.00000,-0.11875,0.00000,0.00153,-0.00111,-0.00087,-0.05014,-0.11657,0.99338,1.50410,0.00000,-2.14360,-2.14360,1.18806,-1.08796,1.45335,1.06986,-1.42700,-2.42934,-2.42934,A,145431.10
1.52007,57.68832306,11.98001522,57.68832017,11.98001333,14:54:31.236284,0.00511,0.00000,0.00000,-0.11915,0.00000,0.00244,0.00286,0.00081,-0.04935,-0.11560,0.99015,1.51430,0.00000,-2.18646,-2.18646,1.18215,-1.10491,1.45335,1.06986,-1.42700,-2.42934,-2.42934,A,145431.10
1.53073,57.68832292,11.98001513,57.68832017,11.98001333,14:54:31.247128,0.00538,0.00000,0.00000,-0.11962,0.00000,-0.00092,-0.00111,-0.00178,-0.04776,-0.11810,0.99052,1.52490,0.00000,-2.22289,-2.22289,1.17653,-1.12102,1.45335,1.06986,-1.42700,-2.42934,-2.42934,A,145431.10
1.54082,57.68832278,11.98001504,57.68832017,11.98001333,14:54:31.257038,0.00506,0.00000,0.00000,-0.12008,0.00000,-0.00183,-0.00080,-0.00240,-0.05112,-0.11736,0.99247,1.53528,0.00000,-2.25386,-2.25386,1.17120,-1.13632,1.45335,1.06986,-1.42700,-2.42934,-2.42934,A,145431.10
1.55140,57.68832265,11.98001495,57.68832017,11.98001333,14:54:31.267622,0.00517,0.00000,0.00000,-0.12049,0.00000,-0.00015,-0.00187,0.00188,-0.05002,-0.11572,0.99174,1.54559,0.00000,-2.28018,-2.28018,1.16613,-1.15085,1.45335,1.06986,-1.42700,-2.42934,-2.42934,A,145431.10
1.57895,57.68832253,11.98001487,57.68831950,11.98001067,14:54:31.295195,0.02231,0.00000,1.50000,-0.12090,0.02000,0.00092,-0.00050,0.00127,-0.05313,-0.11706,0.99137,1.55620,0.00000,-2.30255,-2.30255,1.16132,-1.16466,1.57243,0.91136,-1.50113,-2.70411,-2.70411,A,145431.20
1.58887,57.68832237,11.98001466,57.68831950,11.98001067,14:54:31.305095,0.00513,0.00000,0.00000,-0.12135,0.00000,-0.00031,0.00103,0.00387,-0.05063,-0.11871,0.99284,1.58333,0.00000,-2.36279,-2.36279,1.14882,-1.18148,1.57243,0.91136,-1.50113,-2.70411,-2.70411,A,145431.20
1.59972,57.68832223,11.98001446,57.68831950,11.98001067,14:54:31.315941,0.00540,0.00000,0.00000,-0.12173,0.00000,0.00076,-0.00035,0.00341,-0.05100,-0.11572,0.99204,1.59392,0.00000,-2.41399,-2.41399,1.13695,-1.19747,1.57243,0.91136,-1.50113,-2.70411,-2.70411,A,145431.20
1.61054,57.68832209,11.98001427,57.68831950,11.98001067,14:54:31.326761,0.00558,0.00000,0.00000,-0.12215,0.00000,-0.00290,-0.00279,0.00035,-0.05087,-0.11639,0.99320,1.60470,0.00000,-2.45751,-2.45751,1.12567,-1.21265,1.57243,0.91136,-1.50113,-2.70411,-2.70411,A,145431.20
1.62042,57.68832196,11.98001409,57.68831950,11.98001067,14:54:31.336644,0.00506,0.00000,0.00000,-0.12255,0.00000,-0.00061,0.00149,0.00035,-0.05142,-0.11657,0.99381,1.61490,0.00000,-2.49450,-2.49450,1.11495,-1.22707,1.57243,0.91136,-1.50113,-2.70411,-2.70411,A,145431.20
1.63166,57.68832184,11.98001392,57.68831950,11.98001067,14:54:31.347885,0.00591,0.00000,0.00000,-0.12295,0.00000,-0.00458,0.00179,0.00173,-0.05106,-0.11492,0.99223,1.62565,0.00000,-2.52594,-2.52594,1.10477,-1.24078,1.57243,0.91136,-1.50113,-2.70411,-2.70411,A,145431.20
1.64125,57.68832172,11.98001376,57.68831950,11.98001067,14:54:31.357467,0.00509,0.00000,0.00000,-0.12331,0.00000,-0.00107,-0.00233,0.00280,-0.05020,-0.11468,0.99204,1.63573,0.00000,-2.55266,-2.55266,1.09510,-1.25379,1.57243,0.91136,-1.50113,-2.70411,-2.70411,A,145431.20
1.65156,57.68832161,11.98001360,57.68831950,11.98001067,14:54:31.367776,0.00517,0.00000,0.00000,-0.12365,0.00000,0.00031,0.00088,0.00142,-0.05026,-0.11456,0.99473,1.64576,0.00000,-2.57538,-2.57538,1.08592,-1.26616,1.57243,0.91136,-1.50113,-2.70411,-2.70411,A,145431.20
1.66217,57.68832151,11.98001346,57.68831950,11.98001067,14:54:31.378409,0.00538,0.00000,0.00000,-0.12402,0.00000,0.00199,0.00271,0.00020,-0.05228,-0.11797,0.99204,1.65636,0.00000,-2.59469,-2.59469,1.07719,-1.27791,1.57243,0.91136,-1.50113,-2.70411,-2.70411,A,145431.20
1.67228,57.68832141,11.98001332,57.68831950,11.98001067,14:54:31.388502,0.00509,0.00000,0.00000,-0.12435,0.00000,0.00534,-0.00309,0.00051,-0.05258,-0.11797,0.99101,1.66654,0.00000,-2.61111,-2.61111,1.06890,-1.28907,1.57243,0.91136,-1.50113,-2.70411,-2.70411,A,145431.20
1.70070,57.68832131,11.98001318,57.68831950,11.98000767,14:54:31.416931,0.02310,0.00000,1.50000,-0.12473,0.02000,-0.00107,0.00301,0.00249,-0.05008,-0.11743,0.99259,1.67732,0.00000,-2.62506,-2.62506,1.06102,-1.29967,1.69408,0.73305,-1.50113,3.14159,3.14159,A,145431.30
1.71161,57.68832122,11.98001291,57.68831950,11.98000767,14:54:31.427838,0.00530,0.00000,0.00000,-0.12500,0.00000,0.00199,-0.00203,0.00142,-0.04959,-0.11553,0.99271,1.70574,0.00000,-1.76006,-1.76006,1.04462,-1.30975,1.69408,0.73305,-1.50113,3.14159,3.14159,A,145431.30
1.72228,57.68832114,11.98001265,57.68831950,11.98000767,14:54:31.438509,0.00557,0.00000,0.00000,-0.12529,0.00000,0.00321,-0.00187,0.00173,-0.05136,-0.11450,0.99076,1.71628,0.00000,-1.02481,-1.02481,1.02904,-1.31932,1.69408,0.73305,-1.50113,3.14159,3.14159,A,145431.30
1.73242,57.68832105,11.98001240,57.68831950,11.98000767,14:54:31.448638,0.00530,0.00000,0.00000,-0.12562,0.00000,-0.00000,0.00072,-0.00117,-0.05264,-0.11590,0.99137,1.72645,0.00000,-0.39985,-0.39985,1.01424,-1.32841,1.69408,0.73305,-1.50113,3.14159,3.14159,A,145431.30
1.74302,57.68832098,11.98001216,57.68831950,11.98000767,14:54:31.459243,0.00551,0.00000,0.00000,-0.12596,0.00000,-0.00015,-0.00065,0.00066,-0.05100,-0.11682,0.99418,1.73721,0.00000,0.13137,0.13137,1.00018,-1.33704,1.69408,0.73305,-1.50113,3.14159,3.14159,A,145431.30
1.75293,57.68832090,11.98001194,57.68831950,11.98000767,14:54:31.469153,0.00502,0.00000,0.00000,-0.12630,0.00000,0.00031,0.00240,0.00005,-0.05234,-0.11682,0.99088,1.74743,0.00000,0.58290,0.58290,0.98683,-1.34525,1.69408,0.73305,-1.50113,3.14159,3.14159,A,145431.30
1.76343,57.68832083,11.98001172,57.68831950,11.98000767,14:54:31.479655,0.00519,0.00000,0.00000,-0.12660,0.00000,0.00168,0.00195,-0.00194,-0.05075,-0.11633,0.99192,1.75762,0.00000,0.96670,0.96670,0.97414,-1.35304,1.69408,0.73305,-1.50113,3.14159,3.14159,A,145431.30
1.77370,57.68832077,11.98001152,57.68831950,11.98000767,14:54:31.490176,0.00505,0.00000,0.00000,-0.12692,0.00000,-0.00031,-0.00172,0.00005,-0.04874,-0.11608,0.99210,1.76820,0.00000,1.29294,1.29294,0.96208,-1.36045,1.69408,0.73305,-1.50113,3.14159,3.14159,A,145431.30
1.78414,57.68832070,11.98001133,57.68831950,11.98000767,14:54:31.500366,0.00509,0.00000,0.00000,-0.12720,0.00000,0.00290,-0.00218,0.00157,-0.04904,-0.11584,0.99186,1.77839,0.00000,1.57024,1.57024,0.95063,-1.36748,1.69408,0.73305,-1.50113,3.14159,3.14159,A,145431.30
1.81253,57.68832064,11.98001114,57.68831883,11.98000900,14:54:31.528770,0.02308,0.00000,1.50000,-0.12752,0.02000,-0.00061,0.00118,0.00112,-0.04978,-0.11633,0.99064,1.78908,0.00000,1.80594,1.80594,0.93975,-1.37416,1.80623,0.81230,-1.57526,-0.75204,-0.75204,A,145431.40
1.82534,57.68832055,11.98001104,57.68831883,11.98000900,14:54:31.541563,0.00757,0.00000,0.00000,-0.12778,0.00000,0.00153,-0.00141,-0.00026,-0.05179,-0.11651,0.99332,1.81739,0.00000,1.42224,1.42224,0.93338,-1.38422,1.80623,0.81230,-1.57526,-0.75204,-0.75204,A,145431.40
1.83336,57.68832047,11.98001094,57.68831883,11.98000900,14:54:31.549586,0.00520,0.00000,0.00000,-0.12801,0.00000,0.00214,-0.00233,0.00035,-0.05179,-0.11340,0.99473,1.82785,0.00000,1.09610,1.09610,0.92733,-1.39377,1.80623,0.81230,-1.57526,-0.75204,-0.75204,A,145431.40
1.84394,57.68832038,11.98001084,57.68831883,11.98000900,14:54:31.560159,0.00554,0.00000,0.00000,-0.12830,0.00000,-0.00107,-0.00096,-0.00041,-0.05215,-0.11505,0.99613,1.83779,0.00000,0.81888,0.81888,0.92157,-1.40284,1.80623,0.81230,-1.57526,-0.75204,-0.75204,A,145431.40
1.85411,57.68832031,11.98001075,57.68831883,11.98000900,14:54:31.570345,0.00531,0.00000,0.00000,-0.12857,0.00000,-0.00122,0.00133,-0.00011,-0.05112,-0.11389,0.99198,1.84837,0.00000,0.58324,0.58324,0.91611,-1.41146,1.80623,0.81230,-1.57526,-0.75204,-0.75204,A,145431.40
1.86428,57.68832023,11.98001066,57.68831883,11.98000900,14:54:31.580495,0.00508,0.00000,0.00000,-0.12883,0.00000,0.00046,0.00027,0.00127,-0.05057,-0.11486,0.99235,1.85855,0.00000,0.38295,0.38295,0.91092,-1.41965,1.80623,0.81230,-1.57526,-0.75204,-0.75204,A,145431.40
1.87590,57.68832016,11.98001058,57.68831883,11.98000900,14:54:31.592123,0.00629,0.00000,0.00000,-0.12912,0.00000,-0.00000,-0.00203,-0.00224,-0.05167,-0.11682,0.99375,1.87010,0.00000,0.21270,0.21270,0.90599,-1.42744,1.80623,0.81230,-1.57526,-0.75204,-0.75204,A,145431.40
1.88600,57.68832010,11.98001050,57.68831883,11.98000900,14:54:31.602237,0.00599,0.00000,0.00000,-0.12946,0.00000,-0.00336,-0.00294,0.00096,-0.05063,-0.11761,0.99070,1.88022,0.00000,0.06799,0.06799,0.90130,-1.43483,1.80623,0.81230,-1.57526,-0.75204,-0.75204,A,145431.40
1.89586,57.68832003,11.98001042,57.68831883,11.98000900,14:54:31.612340,0.00560,0.00000,0.00000,-0.12972,0.00000,-0.00000,0.00027,0.00035,-0.05045,-0.11572,0.99137,1.88963,0.00000,-0.05501,-0.05501,0.89685,-1.44185,1.80623,0.81230,-1.57526,-0.75204,-0.75204,A,145431.40
1.90656,57.68831997,11.98001035,57.68831883,11.98000900,14:54:31.622781,0.00591,0.00000,0.00000,-0.12994,0.00000,0.00321,0.00363,0.00203,-0.04996,-0.11456,0.99076,1.90074,0.00000,-0.15957,-0.15957,0.89263,-1.44852,1.80623,0.81230,-1.57526,-0.75204,-0.75204,A,145431.40
1.94278,57.68831992,11.98001028,57.68831833,11.98000567,14:54:31.659020,0.03173,0.00000,1.50000,-0.13024,0.02000,-0.00504,0.00286,-0.00178,-0.05106,-0.11529,0.99351,1.91039,0.00000,-0.24844,-0.24844,0.88861,-1.45486,1.93657,0.61418,-1.63086,-2.86801,-2.86801,A,145431.60
1.95266,57.68831984,11.98001005,57.68831833,11.98000567,14:54:31.668879,0.00515,0.00000,0.00000,-0.13048,0.00000,0.00092,0.00042,-0.00270,-0.05118,-0.11749,0.99198,1.94713,0.00000,-0.64137,-0.64137,0.87489,-1.46366,1.93657,0.61418,-1.63086,-2.86801,-2.86801,A,145431.60
1.96324,57.68831976,11.98000983,57.68831833,11.98000567,14:54:31.679461,0.00517,0.00000,0.00000,-0.13075,0.00000,-0.00107,-0.00080,0.00096,-0.04953,-0.11578,0.99143,1.95744,0.00000,-0.97537,-0.97537,0.86185,-1.47202,1.93657,0.61418,-1.63086,-2.86801,-2.86801,A,145431.60
1.97355,57.68831969,11.98000963,57.68831833,11.98000567,14:54:31.689775,0.00508,0.00000,0.00000,-0.13099,0.00000,0.00061,-0.00080,-0.00224,-0.05020,-0.11566,0.99088,1.96805,0.00000,-1.25926,-1.25926,0.84947,-1.47996,1.93657,0.61418,-1.63086,-2.86801,-2.86801,A,145431.60
1.98398,57.68831962,11.98000943,57.68831833,11.98000567,14:54:31.700205,0.00512,0.00000,0.00000,-0.13122,0.00000,0.00351,0.00057,-0.00072,-0.05136,-0.11669,0.99204,1.97820,0.00000,-1.50058,-1.50058,0.83770,-1.48750,1.93657,0.61418,-1.63086,-2.86801,-2.86801,A,145431.60
1.99470,57.68831956,11.98000924,57.68831833,11.98000567,14:54:31.710920,0.00543,0.00000,0.00000,-0.13143,0.00000,0.00260,-0.00004,-0.00011,-0.05179,-0.11566,0.99198,1.98889,0.00000,-1.70569,-1.70569,0.82653,-1.49467,1.93657,0.61418,-1.63086,-2.86801,-2.86801,A,145431.60
2.00556,57.68831950,11.98000906,57.68831833,11.98000567,14:54:31.721785,0.00590,0.00000,0.00000,-0.13165,0.00000,0.00092,0.00057,-0.00270,-0.05142,-0.11547,0.99216,1.99920,0.00000,-1.88004,-1.88004,0.81591,-1.50148,1.93657,0.61418,-1.63086,-2.86801,-2.86801,A,145431.60
2.02006,57.68831944,11.98000889,57.68831833,11.98000567,14:54:31.736326,0.00984,0.00000,0.00000,-0.13187,0.00000,0.00061,0.00133,0.00112,-0.05124,-0.11517,0.99149,2.00960,0.00000,-2.02823,-2.02823,0.80582,-1.50795,1.93657,0.61418,-1.63086,-2.86801,-2.86801,A,145431.60
2.02837,57.68831938,11.98000873,57.68831833,11.98000567,14:54:31.744594,0.00661,0.00000,0.00000,-0.13204,0.00000,0.00733,-0.00080,-0.00316,-0.05020,-0.11779,0.99082,2.02257,0.00000,-2.15420,-2.15420,0.79624,-1.51409,1.93657,0.61418,-1.63086,-2.86801,-2.86801,A,145431.60
2.06005,57.68831933,11.98000858,57.68831783,11.98000450,14:54:31.776300,0.02789,0.00000,1.50000,-0.13229,0.02000,-0.00153,0.00011,0.00341,-0.05222,-0.11584,0.99046,2.03172,0.00000,-2.26127,-2.26127,0.78714,-1.51993,2.04782,0.54483,-1.68646,-2.46577,-2.46577,A,145431.70
2.07741,57.68831926,11.98000837,57.68831783,11.98000450,14:54:31.793635,0.00640,0.00000,0.00000,-0.13226,0.00000,0.00657,-0.00065,-0.00178,-0.05008,-0.11608,0.99290,2.07187,0.00000,-2.29194,-2.29194,0.77502,-1.52826,2.04782,0.54483,-1.68646,-2.46577,-2.46577,A,145431.70
2.08682,57.68831918,11.98000818,57.68831783,11.98000450,14:54:31.803040,0.00540,0.00000,0.00000,-0.13251,0.00000,-0.00107,-0.00355,0.00203,-0.04996,-0.11682,0.99186,2.08100,0.00000,-2.31802,-2.31802,0.76351,-1.53617,2.04782,0.54483,-1.68646,-2.46577,-2.46577,A,145431.70
2.09684,57.68831912,11.98000800,57.68831783,11.98000450,14:54:31.813065,0.00503,0.00000,0.00000,-0.13270,0.00000,0.00412,-0.00096,0.00173,-0.04825,-0.11663,0.99210,2.09134,0.00000,-2.34018,-2.34018,0.75258,-1.54368,2.04782,0.54483,-1.68646,-2.46577,-2.46577,A,145431.70
2.10811,57.68831905,11.98000782,57.68831783,11.98000450,14:54:31.824337,0.00588,0.00000,0.00000,-0.13294,0.00000,-0.00199,-0.00126,-0.00270,-0.05252,-0.11572,0.99186,2.10160,0.00000,-2.35902,-2.35902,0.74219,-1.55082,2.04782,0.54483,-1.68646,-2.46577,-2.46577,A,145431.70
2.11825,57.68831899,11.98000765,57.68831783,11.98000450,14:54:31.834482,0.00558,0.00000,0.00000,-0.13321,0.00000,-0.00305,0.00072,0.00341,-0.04978,-0.11724,0.99198,2.11246,0.00000,-2.37503,-2.37503,0.73232,-1.55760,2.04782,0.54483,-1.68646,-2.46577,-2.46577,A,145431.70
2.12835,57.68831893,11.98000750,57.68831783,11.98000450,14:54:31.844582,0.00541,0.00000,0.00000,-0.13343,0.00000,0.00183,-0.00172,-0.00163,-0.05033,-0.11718,0.99345,2.12231,0.00000,-2.38864,-2.38864,0.72295,-1.56405,2.04782,0.54483,-1.68646,-2.46577,-2.46577,A,145431.70
2.13873,57.68831888,11.98000735,57.68831783,11.98000450,14:54:31.854949,0.00539,0.00000,0.00000,-0.13358,0.00000,0.00489,-0.00172,-0.00011,-0.05033,-0.11492,0.98832,2.13289,0.00000,-2.40021,-2.40021,0.71404,-1.57017,2.04782,0.54483,-1.68646,-2.46577,-2.46577,A,145431.70
2.16694,57.68831883,11.98000720,57.68831783,11.98000133,14:54:31.883180,0.02320,0.00000,1.50000,-0.13376,0.02000,0.00092,0.00347,0.00020,-0.05130,-0.11499,0.99467,2.14341,0.00000,-2.41004,-2.41004,0.70558,-1.57598,2.15970,0.35662,-1.68646,-3.14159,3.14159,A,145431.80
2.17691,57.68831878,11.98000691,57.68831783,11.98000133,14:54:31.893130,0.00522,0.00000,0.00000,-0.13393,0.00000,0.00122,0.00164,-0.00209,-0.05033,-0.11621,0.99259,2.17135,0.00000,-2.51978,-2.51978,0.68814,-1.58151,2.15970,0.35662,-1.68646,-3.14159,3.14159,A,145431.80
2.18744,57.68831873,11.98000663,57.68831783,11.98000133,14:54:31.903661,0.00520,0.00000,0.00000,-0.13416,0.00000,-0.00214,0.00042,-0.00133,-0.05014,-0.11608,0.99052,2.18161,0.00000,-2.61305,-2.61305,0.67156,-1.58675,2.15970,0.35662,-1.68646,-3.14159,3.14159,A,145431.80
2.19815,57.68831869,11.98000637,57.68831783,11.98000133,14:54:31.914388,0.00552,0.00000,0.00000,-0.13441,0.00000,-0.00214,0.00057,0.00112,-0.05203,-0.11749,0.99070,2.19236,0.00000,-2.69233,-2.69233,0.65581,-1.59174,2.15970,0.35662,-1.68646,-3.14159,3.14159,A,145431.80
2.20865,57.68831864,11.98000612,57.68831783,11.98000133,14:54:31.924888,0.00561,0.00000,0.00000,-0.13462,0.00000,-0.00107,-0.00080,-0.00026,-0.05020,-0.11633,0.99308,2.20239,0.00000,-2.75972,-2.75972,0.64085,-1.59647,2.15970,0.35662,-1.68646,-3.14159,3.14159,A,145431.80
2.22155,57.68831860,11.98000588,57.68831783,11.98000133,14:54:31.937778,0.00811,0.00000,0.00000,-0.13478,0.00000,0.00229,-0.00080,0.00096,-0.05197,-0.11535,0.99345,2.21443,0.00000,-2.81700,-2.81700,0.62664,-1.60097,2.15970,0.35662,-1.68646,-3.14159,3.14159,A,145431.80
2.22918,57.68831856,11.98000565,57.68831783,11.98000133,14:54:31.945395,0.00534,0.00000,0.00000,-0.13497,0.00000,-0.00290,0.00271,0.00249,-0.05155,-0.11486,0.99332,2.22339,0.00000,-2.86569,-2.86569,0.61314,-1.60525,2.15970,0.35662,-1.68646,-3.14159,3.14159,A,145431.80
2.23942,57.68831853,11.98000543,57.68831783,11.98000133,14:54:31.955643,0.00519,0.00000,0.00000,-0.13519,0.00000,-0.00275,0.00118,-0.00194,-0.04886,-0.11627,0.99198,2.23359,0.00000,-2.90707,-2.90707,0.60031,-1.60931,2.15970,0.35662,-1.68646,-3.14159,3.14159,A,145431.80
2.24973,57.68831849,11.98000523,57.68831783,11.98000133,14:54:31.966194,0.00509,0.00000,0.00000,-0.13537,0.00000,0.00153,0.00011,0.00234,-0.05081,-0.11633,0.99113,2.24420,0.00000,-2.94225,-2.94225,0.58813,-1.61317,2.15970,0.35662,-1.68646,-3.14159,3.14159,A,145431.80
2.28387,57.68831846,11.98000503,57.68831650,11.97999933,14:54:32.000133,0.02884,0.00000,1.50000,-0.13554,0.02000,0.00199,-0.00172,-0.00011,-0.04917,-0.11633,0.99241,2.25458,0.00000,-2.97215,-2.97215,0.57655,-1.61683,2.27079,0.23775,-1.83472,-2.24663,-2.24663,A,145431.90
2.30044,57.68831836,11.98000475,57.68831650,11.97999933,14:54:32.016662,0.00770,0.00000,0.00000,-0.13569,0.00000,0.00046,0.00332,-0.00026,-0.05228,-0.11523,0.99137,2.29484,0.00000,-2.86332,-2.86332,0.55961,-1.62772,2.27079,0.23775,-1.83472,-2.24663,-2.24663,A,145431.90
2.30818,57.68831827,11.98000448,57.68831650,11.97999933,14:54:32.024400,0.00518,0.00000,0.00000,-0.13587,0.00000,-0.00137,-0.00019,-0.00041,-0.04935,-0.11572,0.99180,2.30240,0.00000,-2.77082,-2.77082,0.54352,-1.63807,2.27079,0.23775,-1.83472,-2.24663,-2.24663,A,145431.90
2.31949,57.68831818,11.98000422,57.68831650,11.97999933,14:54:32.035719,0.00610,0.00000,0.00000,-0.13599,0.00000,0.00596,-0.00157,-0.00453,-0.05020,-0.11669,0.99345,2.31298,0.00000,-2.69219,-2.69219,0.52823,-1.64791,2.27079,0.23775,-1.83472,-2.24663,-2.24663,A,145431.90
2.32903,57.68831810,11.98000398,57.68831650,11.97999933,14:54:32.045246,0.00524,0.00000,0.00000,-0.13615,0.00000,0.00076,0.00225,-0.00102,-0.05179,-0.11590,0.99448,2.32332,0.00000,-2.62536,-2.62536,0.51371,-1.65725,2.27079,0.23775,-1.83472,-2.24663,-2.24663,A,145431.90
2.33940,57.68831802,11.98000374,57.68831650,11.97999933,14:54:32.055613,0.00524,0.00000,0.00000,-0.13630,0.00000,0.00137,-0.00019,0.00203,-0.05087,-0.11517,0.99113,2.33356,0.00000,-2.56855,-2.56855,0.49991,-1.66612,2.27079,0.23775,-1.83472,-2.24663,-2.24663,A,145431.90
2.34966,57.68831794,11.98000352,57.68831650,11.97999933,14:54:32.066137,0.00509,0.00000,0.00000,-0.13643,0.00000,0.00382,0.00271,0.00234,-0.05039,-0.11633,0.99271,2.34413,0.00000,-2.52026,-2.52026,0.48680,-1.67455,2.27079,0.23775,-1.83472,-2.24663,-2.24663,A,145431.90
2.36033,57.68831787,11.98000331,57.68831650,11.97999933,14:54:32.076554,0.00538,0.00000,0.00000,-0.13657,0.00000,0.00305,0.00240,-0.00224,-0.05075,-0.11627,0.99320,2.35457,0.00000,-2.47921,-2.47921,0.47435,-1.68256,2.27079,0.23775,-1.83472,-2.24663,-2.24663,A,145431.90
2.37076,57.68831780,11.98000312,57.68831650,11.97999933,14:54:32.086982,0.00541,0.00000,0.00000,-0.13675,0.00000,-0.00107,0.00042,-0.00072,-0.05100,-0.11602,0.99247,2.36491,0.00000,-2.44433,-2.44433,0.46252,-1.69017,2.27079,0.23775,-1.83472,-2.24663,-2.24663,A,145431.90
2.39861,57.68831773,11.98000293,57.68831417,11.98000317,14:54:32.114843,0.02286,0.00000,1.50000,-0.13692,0.02000,-0.00061,0.00027,-0.00026,-0.04984,-0.11639,0.99125,2.37528,0.00000,-2.41467,-2.41467,0.45128,-1.69739,2.39137,0.46559,-2.09417,-0.85019,-0.85019,A,145432.00
2.40848,57.68831756,11.98000294,57.68831417,11.98000317,14:54:32.124701,0.00516,0.00000,0.00000,-0.13716,0.00000,-0.00336,-0.00080,0.00142,-0.04953,-0.11560,0.99308,2.40291,0.00000,-2.18000,-2.18000,0.45199,-1.71723,2.39137,0.46559,-2.09417,-0.85019,-0.85019,A,145432.00
2.41917,57.68831739,11.98000295,57.68831417,11.98000317,14:54:32.135717,0.00559,0.00000,0.00000,-0.13734,0.00000,-0.00153,0.00164,-0.00087,-0.04990,-0.11614,0.99296,2.41332,0.00000,-1.98053,-1.98053,0.45267,-1.73608,2.39137,0.46559,-2.09417,-0.85019,-0.85019,A,145432.00
2.43055,57.68831723,11.98000296,57.68831417,11.98000317,14:54:32.146775,0.00614,0.00000,0.00000,-0.13753,0.00000,-0.00336,0.00011,0.00142,-0.04965,-0.11590,0.99137,2.42467,0.00000,-1.81098,-1.81098,0.45332,-1.75398,2.39137,0.46559,-2.09417,-0.85019,-0.85019,A,145432.00
2.43979,57.68831707,11.98000297,57.68831417,11.98000317,14:54:32.156015,0.00515,0.00000,0.00000,-0.13774,0.00000,-0.00672,-0.00019,0.00249,-0.05246,-0.11621,0.99381,2.43402,0.00000,-1.66686,-1.66686,0.45393,-1.77099,2.39137,0.46559,-2.09417,-0.85019,-0.85019,A,145432.00
2.45039,57.68831693,11.98000298,57.68831417,11.98000317,14:54:32.166612,0.00534,0.00000,0.00000,-0.13782,0.00000,0.00260,-0.00248,-0.00148,-0.04874,-0.11370,0.99576,2.44461,0.00000,-1.54436,-1.54436,0.45452,-1.78715,2.39137,0.46559,-2.09417,-0.85019,-0.85019,A,145432.00
2.46089,57.68831679,11.98000299,57.68831417,11.98000317,14:54:32.177106,0.00545,0.00000,0.00000,-0.13802,0.00000,-0.00336,0.00118,0.00188,-0.04978,-0.11730,0.99052,2.45533,0.00000,-1.44023,-1.44023,0.45507,-1.80250,2.39137,0.46559,-2.09417,-0.85019,-0.85019,A,145432.00
2.47120,57.68831666,11.98000300,57.68831417,11.98000317,14:54:32.187425,0.00518,0.00000,0.00000,-0.13817,0.00000,0.00061,0.00286,0.00173,-0.04978,-0.11706,0.99247,2.46538,0.00000,-1.35172,-1.35172,0.45559,-1.81709,2.39137,0.46559,-2.09417,-0.85019,-0.85019,A,145432.00
2.48153,57.68831653,11.98000301,57.68831417,11.98000317,14:54:32.197744,0.00510,0.00000,0.00000,-0.13830,0.00000,0.00275,0.00088,-0.00209,-0.05051,-0.11724,0.99296,2.47601,0.00000,-1.27649,-1.27649,0.45609,-1.83094,2.39137,0.46559,-2.09417,-0.85019,-0.85019,A,145432.00
2.51158,57.68831642,11.98000301,57.68831233,11.98000767,14:54:32.227815,0.02475,0.00000,1.50000,-0.13843,0.02000,0.00199,-0.00203,-0.00087,-0.05002,-0.11651,0.99094,2.48617,0.00000,-1.21255,-1.21255,0.45657,-1.84410,2.50234,0.73305,-2.29803,-0.65125,-0.65125,A,145432.10
2.52295,57.68831621,11.98000325,57.68831233,11.98000767,14:54:32.239179,0.00588,0.00000,0.00000,-0.13855,0.00000,0.00046,0.00072,-0.00209,-0.05234,-0.11596,0.99210,2.51677,0.00000,-1.12835,-1.12835,0.47039,-1.86680,2.50234,0.73305,-2.29803,-0.65125,-0.65125,A,145432.10
2.53279,57.68831602,11.98000347,57.68831233,11.98000767,14:54:32.249010,0.00532,0.00000,0.00000,-0.13864,0.00000,0.00244,-0.00203,0.00112,-0.05276,-0.11456,0.99113,2.52703,0.00000,-1.05679,-1.05679,0.48353,-1.88836,2.50234,0.73305,-2.29803,-0.65125,-0.65125,A,145432.10
2.54324,57.68831583,11.98000368,57.68831233,11.98000767,14:54:32.259455,0.00519,0.00000,0.00000,-0.13877,0.00000,0.00107,-0.00111,-0.00041,-0.05008,-0.11651,0.99198,2.53742,0.00000,-0.99596,-0.99596,0.49600,-1.90884,2.50234,0.73305,-2.29803,-0.65125,-0.65125,A,145432.10
2.55354,57.68831566,11.98000388,57.68831233,11.98000767,14:54:32.269759,0.00509,0.00000,0.00000,-0.13891,0.00000,-0.00076,-0.00294,-0.00026,-0.05002,-0.11596,0.99143,2.54802,0.00000,-0.94425,-0.94425,0.50785,-1.92830,2.50234,0.73305,-2.29803,-0.65125,-0.65125,A,145432.10
2.56397,57.68831549,11.98000407,57.68831233,11.98000767,14:54:32.280186,0.00525,0.00000,0.00000,-0.13909,0.00000,-0.00382,0.00286,0.00234,-0.05295,-0.11621,0.99174,2.55816,0.00000,-0.90030,-0.90030,0.51911,-1.94679,2.50234,0.73305,-2.29803,-0.65125,-0.65125,A,145432.10
2.57448,57.68831533,11.98000425,57.68831233,11.98000767,14:54:32.290711,0.00537,0.00000,0.00000,-0.13919,0.00000,0.00092,-0.00371,-0.00163,-0.05155,-0.11529,0.99436,2.56869,0.00000,-0.86295,-0.86295,0.52981,-1.96435,2.50234,0.73305,-2.29803,-0.65125,-0.65125,A,145432.10
2.58459,57.68831518,11.98000442,57.68831233,11.98000767,14:54:32.300811,0.00508,0.00000,0.00000,-0.13935,0.00000,-0.00367,-0.00203,0.00188,-0.05069,-0.11547,0.99101,2.57907,0.00000,-0.83119,-0.83119,0.53997,-1.98103,2.50234,0.73305,-2.29803,-0.65125,-0.65125,A,145432.10
2.59700,57.68831504,11.98000458,57.68831233,11.98000767,14:54:32.313221,0.00674,0.00000,0.00000,-0.13941,0.00000,0.00107,-0.00187,-0.00240,-0.04953,-0.11285,0.99204,2.59146,0.00000,-0.80420,-0.80420,0.54963,-1.99688,2.50234,0.73305,-2.29803,-0.65125,-0.65125,A,145432.10
2.62341,57.68831491,11.98000473,57.68831217,11.98000667,14:54:32.339643,0.02275,0.00000,1.50000,-0.13951,0.02000,0.00229,0.00271,-0.00301,-0.05167,-0.11614,0.99204,2.60024,0.00000,-0.78126,-0.78126,0.55880,-2.01194,2.61633,0.67361,-2.31656,-2.83934,-2.83934,A,145432.20
2.64130,57.68831477,11.98000483,57.68831217,11.98000667,14:54:32.357527,0.00676,0.00000,0.00000,-0.13972,0.00000,-0.00214,0.00133,-0.00117,-0.04959,-0.11675,0.99229,2.63576,0.00000,-1.08997,-1.08997,0.56454,-2.02717,2.61633,0.67361,-2.31656,-2.83934,-2.83934,A,145432.20
2.65026,57.68831464,11.98000492,57.68831217,11.98000667,14:54:32.366494,0.00532,0.00000,0.00000,-0.13985,0.00000,-0.00107,-0.00080,0.00020,-0.05026,-0.11621,0.99259,2.64451,0.00000,-1.35238,-1.35238,0.56999,-2.04164,2.61633,0.67361,-2.31656,-2.83934,-2.83934,A,145432.20
2.66069,57.68831452,11.98000501,57.68831217,11.98000667,14:54:32.376910,0.00534,0.00000,0.00000,-0.13998,0.00000,-0.00367,-0.00080,0.00325,-0.05173,-0.11486,0.99247,2.65489,0.00000,-1.57542,-1.57542,0.57517,-2.05539,2.61633,0.67361,-2.31656,-2.83934,-2.83934,A,145432.20
2.67130,57.68831440,11.98000509,57.68831217,11.98000667,14:54:32.387517,0.00555,0.00000,0.00000,-0.14004,0.00000,0.00305,-0.00050,0.00051,-0.05167,-0.11431,0.99241,2.66529,0.00000,-1.76501,-1.76501,0.58010,-2.06845,2.61633,0.67361,-2.31656,-2.83934,-2.83934,A,145432.20
2.68120,57.68831429,11.98000517,57.68831217,11.98000667,14:54:32.397421,0.00506,0.00000,0.00000,-0.14013,0.00000,0.00244,-0.00050,0.00066,-0.05075,-0.11596,0.99235,2.67570,0.00000,-1.92616,-1.92616,0.58477,-2.08085,2.61633,0.67361,-2.31656,-2.83934,-2.83934,A,145432.20
2.69172,57.68831418,11.98000525,57.68831217,11.98000667,14:54:32.407944,0.00534,0.00000,0.00000,-0.14022,0.00000,-0.00076,-0.00096,0.00127,-0.04965,-0.11462,0.99357,2.68577,0.00000,-2.06314,-2.06314,0.58921,-2.09264,2.61633,0.67361,-2.31656,-2.83934,-2.83934,A,145432.20
2.70209,57.68831408,11.98000532,57.68831217,11.98000667,14:54:32.418318,0.00531,0.00000,0.00000,-0.14032,0.00000,0.00229,0.00088,0.00310,-0.05100,-0.11639,0.99040,2.69635,0.00000,-2.17957,-2.17957,0.59343,-2.10383,2.61633,0.67361,-2.31656,-2.83934,-2.83934,A,145432.20
2.71272,57.68831398,11.98000539,57.68831217,11.98000667,14:54:32.428942,0.00554,0.00000,0.00000,-0.14049,0.00000,-0.00382,-0.00035,0.00310,-0.05094,-0.11816,0.99290,2.70652,0.00000,-2.27853,-2.27853,0.59744,-2.11447,2.61633,0.67361,-2.31656,-2.83934,-2.83934,A,145432.20
2.75156,57.68831389,11.98000545,57.68831133,11.98000567,14:54:32.467792,0.03399,0.00000,1.50000,-0.14063,0.02000,-0.00092,-0.00340,0.00524,-0.04935,-0.11743,0.99241,2.71755,0.00000,-2.36266,-2.36266,0.60125,-2.12457,2.74465,0.61418,-2.40922,-2.14112,-2.14112,A,145432.40
2.76174,57.68831377,11.98000546,57.68831133,11.98000567,14:54:32.478201,0.00544,0.00000,0.00000,-0.14064,0.00000,0.00336,-0.00172,0.00005,-0.05039,-0.11804,0.98960,2.75616,0.00000,-2.32943,-2.32943,0.60190,-2.13881,2.74465,0.61418,-2.40922,-2.14112,-2.14112,A,145432.40
2.77172,57.68831364,11.98000547,57.68831133,11.98000567,14:54:32.487939,0.00519,0.00000,0.00000,-0.14079,0.00000,-0.00428,0.00088,-0.00163,-0.05179,-0.11614,0.99210,2.76591,0.00000,-2.30118,-2.30118,0.60251,-2.15233,2.74465,0.61418,-2.40922,-2.14112,-2.14112,A,145432.40
2.78244,57.68831353,11.98000548,57.68831133,11.98000567,14:54:32.498677,0.00551,0.00000,0.00000,-0.14092,0.00000,-0.00046,-0.00340,-0.00117,-0.04953,-0.11785,0.99241,2.77649,0.00000,-2.27717,-2.27717,0.60309,-2.16517,2.74465,0.61418,-2.40922,-2.14112,-2.14112,A,145432.40
2.79242,57.68831342,11.98000549,57.68831133,11.98000567,14:54:32.508640,0.00508,0.00000,0.00000,-0.14102,0.00000,-0.00122,-0.00019,0.00005,-0.05246,-0.11517,0.99131,2.78687,0.00000,-2.25676,-2.25676,0.60365,-2.17738,2.74465,0.61418,-2.40922,-2.14112,-2.14112,A,145432.40
2.80355,57.68831331,11.98000550,57.68831133,11.98000567,14:54:32.519771,0.00582,0.00000,0.00000,-0.14108,0.00000,0.00458,-0.00035,0.00051,-0.04776,-0.11663,0.99345,2.79728,0.00000,-2.23942,-2.23942,0.60417,-2.18897,2.74465,0.61418,-2.40922,-2.14112,-2.14112,A,145432.40
2.81319,57.68831322,11.98000551,57.68831133,11.98000567,14:54:32.529414,0.00506,0.00000,0.00000,-0.14122,0.00000,-0.00367,-0.00019,0.00142,-0.04910,-0.11627,0.99174,2.80768,0.00000,-2.22467,-2.22467,0.60467,-2.19998,2.74465,0.61418,-2.40922,-2.14112,-2.14112,A,145432.40
2.82451,57.68831312,11.98000551,57.68831133,11.98000567,14:54:32.540734,0.00610,0.00000,0.00000,-0.14131,0.00000,0.00260,-0.00065,0.00020,-0.05026,-0.11730,0.99235,2.81782,0.00000,-2.21214,-2.21214,0.60515,-2.21044,2.74465,0.61418,-2.40922,-2.14112,-2.14112,A,145432.40
2.83696,57.68831303,11.98000552,57.68831133,11.98000567,14:54:32.553184,0.00787,0.00000,0.00000,-0.14135,0.00000,0.00336,0.00561,-0.00072,-0.05228,-0.11511,0.99332,2.83002,0.00000,-2.20149,-2.20149,0.60560,-2.22038,2.74465,0.61418,-2.40922,-2.14112,-2.14112,A,145432.40
2.84468,57.68831295,11.98000553,57.68831133,11.98000567,14:54:32.560904,0.00518,0.00000,0.00000,-0.14142,0.00000,0.00229,0.00195,-0.00056,-0.05124,-0.11627,0.99326,2.83913,0.00000,-2.19243,-2.19243,0.60603,-2.22982,2.74465,0.61418,-2.40922,-2.14112,-2.14112,A,145432.40
2.87765,57.68831287,11.98000554,57.68830967,11.98000733,14:54:32.594360,0.02757,0.00000,1.50000,-0.14150,0.02000,-0.00031,-0.00126,0.00203,-0.05087,-0.11560,0.99509,2.84945,0.00000,-2.18474,-2.18474,0.60644,-2.23879,2.86588,0.71324,-2.59455,-1.07991,-1.07991,A,145432.50
2.89588,57.68831271,11.98000563,57.68830967,11.98000733,14:54:32.612101,0.00702,0.00000,0.00000,-0.14154,0.00000,0.00168,-0.00035,-0.00087,-0.04923,-0.11669,0.99070,2.89005,0.00000,-2.01901,-2.01901,0.61178,-2.25658,2.86588,0.71324,-2.59455,-1.07991,-1.07991,A,145432.50
2.90436,57.68831255,11.98000571,57.68830967,11.98000733,14:54:32.620577,0.00510,0.00000,0.00000,-0.14162,0.00000,0.00153,-0.00218,-0.00240,-0.05142,-0.11633,0.99534,2.89861,0.00000,-1.87815,-1.87815,0.61685,-2.27348,2.86588,0.71324,-2.59455,-1.07991,-1.07991,A,145432.50
2.91501,57.68831241,11.98000579,57.68830967,11.98000733,14:54:32.631230,0.00536,0.00000,0.00000,-0.14171,0.00000,-0.00092,-0.00340,0.00234,-0.05039,-0.11553,0.99180,2.90920,0.00000,-1.75841,-1.75841,0.62167,-2.28953,2.86588,0.71324,-2.59455,-1.07991,-1.07991,A,145432.50
2.92634,57.68831227,11.98000587,57.68830967,11.98000733,14:54:32.642571,0.00627,0.00000,0.00000,-0.14182,0.00000,-0.00107,0.00454,0.00371,-0.04941,-0.11706,0.99192,2.91962,0.00000,-1.65664,-1.65664,0.62625,-2.30478,2.86588,0.71324,-2.59455,-1.07991,-1.07991,A,145432.50
2.93610,57.68831214,11.98000594,57.68830967,11.98000733,14:54:32.652318,0.00579,0.00000,0.00000,-0.14188,0.00000,0.00290,-0.00126,-0.00026,-0.05215,-0.11608,0.99186,2.93009,0.00000,-1.57013,-1.57013,0.63060,-2.31927,2.86588,0.71324,-2.59455,-1.07991,-1.07991,A,145432.50
2.94613,57.68831202,11.98000601,57.68830967,11.98000733,14:54:32.662367,0.00543,0.00000,0.00000,-0.14194,0.00000,0.00168,-0.00141,0.00264,-0.04965,-0.11547,0.99345,2.94037,0.00000,-1.49660,-1.49660,0.63473,-2.33304,2.86588,0.71324,-2.59455,-1.07991,-1.07991,A,145432.50
2.95619,57.68831190,11.98000608,57.68830967,11.98000733,14:54:32.672410,0.00508,0.00000,0.00000,-0.14207,0.00000,-0.00305,0.00133,0.00035,-0.05155,-0.11706,0.99229,2.95045,0.00000,-1.43409,-1.43409,0.63865,-2.34611,2.86588,0.71324,-2.59455,-1.07991,-1.07991,A,145432.50
2.98447,57.68831179,11.98000614,57.68830967,11.98000567,14:54:32.700703,0.02297,0.00000,1.50000,-0.14215,0.02000,0.00260,-0.00325,-0.00209,-0.04892,-0.11779,0.99143,2.96106,0.00000,-1.38097,-1.38097,0.64238,-2.35853,2.97733,0.61418,-2.59455,-3.14159,3.14159,A,145432.60
2.99472,57.68831168,11.98000612,57.68830967,11.98000567,14:54:32.710939,0.00554,0.00000,0.00000,-0.14225,0.00000,-0.00122,-0.00187,-0.00240,-0.04898,-0.11474,0.99216,2.98884,0.00000,-1.64506,-1.64506,0.64097,-2.37033,2.97733,0.61418,-2.59455,-3.14159,3.14159,A,145432.60
3.00471,57.68831158,11.98000609,57.68830967,11.98000567,14:54:32.720936,0.00513,0.00000,0.00000,-0.14230,0.00000,0.00076,0.00210,0.00173,-0.04984,-0.11511,0.99473,2.99912,0.00000,-1.86954,-1.86954,0.63963,-2.38154,2.97733,0.61418,-2.59455,-3.14159,3.14159,A,145432.60
3.01548,57.68831149,11.98000607,57.68830967,11.98000567,14:54:32.731703,0.00536,0.00000,0.00000,-0.14238,0.00000,-0.00183,-0.00218,0.00249,-0.05020,-0.11499,0.99149,3.00949,0.00000,-2.06035,-2.06035,0.63836,-2.39220,2.97733,0.61418,-2.59455,-3.14159,3.14159,A,145432.60
3.02608,57.68831140,11.98000605,57.68830967,11.98000567,14:54:32.742318,0.00555,0.00000,0.00000,-0.14248,0.00000,-0.00244,0.00240,0.00142,-0.05136,-0.11547,0.99021,3.02026,0.00000,-2.22253,-2.22253,0.63715,-2.40231,2.97733,0.61418,-2.59455,-3.14159,3.14159,A,145432.60
3.03961,57.68831131,11.98000603,57.68830967,11.98000567,14:54:32.755840,0.00829,0.00000,0.00000,-0.14257,0.00000,-0.00168,0.00057,0.00173,-0.05051,-0.11566,0.99137,3.03153,0.00000,-2.36039,-2.36039,0.63600,-2.41192,2.97733,0.61418,-2.59455,-3.14159,3.14159,A,145432.60
3.04710,57.68831123,11.98000602,57.68830967,11.98000567,14:54:32.763317,0.00538,0.00000,0.00000,-0.14266,0.00000,-0.00367,0.00179,0.00295,-0.05142,-0.11438,0.99314,3.04126,0.00000,-2.47757,-2.47757,0.63491,-2.42106,2.97733,0.61418,-2.59455,-3.14159,3.14159,A,145432.60
3.05723,57.68831115,11.98000600,57.68830967,11.98000567,14:54:32.773444,0.00511,0.00000,0.00000,-0.14280,0.00000,-0.00443,-0.00004,-0.00209,-0.05124,-0.11755,0.99247,3.05168,0.00000,-2.57718,-2.57718,0.63387,-2.42973,2.97733,0.61418,-2.59455,-3.14159,3.14159,A,145432.60
3.06785,57.68831107,11.98000598,57.68830967,11.98000567,14:54:32.784070,0.00545,0.00000,0.00000,-0.14291,0.00000,-0.00199,-0.00126,-0.00102,-0.04923,-0.11730,0.99113,3.06180,0.00000,-2.66184,-2.66184,0.63289,-2.43797,2.97733,0.61418,-2.59455,-3.14159,3.14159,A,145432.60
3.09975,57.68831100,11.98000597,57.68830883,11.98000550,14:54:32.815990,0.02694,0.00000,1.50000,-0.14293,0.02000,0.00275,-0.00187,0.00112,-0.04972,-0.11486,0.99155,3.07253,0.00000,-2.73380,-2.73380,0.63195,-2.44580,3.08861,0.60427,-2.68721,-1.67730,-1.67730,A,145432.70
3.11702,57.68831090,11.98000594,57.68830883,11.98000550,14:54:32.833231,0.00557,0.00000,0.00000,-0.14302,0.00000,-0.00092,0.00179,0.00173,-0.04923,-0.11480,0.99393,3.11145,0.00000,-2.57533,-2.57533,0.63057,-2.45787,3.08861,0.60427,-2.68721,-1.67730,-1.67730,A,145432.70
3.12709,57.68831079,11.98000592,57.68830883,11.98000550,14:54:32.843315,0.00540,0.00000,0.00000,-0.14306,0.00000,0.00046,0.00088,-0.00102,-0.05057,-0.11431,0.99101,3.12126,0.00000,-2.44062,-2.44062,0.62926,-2.46934,3.08861,0.60427,-2.68721,-1.67730,-1.67730,A,145432.70
3.13759,57.68831069,11.98000590,57.68830883,11.98000550,14:54:32.854023,0.00549,0.00000,0.00000,-0.14323,0.00000,-0.00764,-0.00080,0.00203,-0.05075,-0.11773,0.99216,3.13168,0.00000,-2.32612,-2.32612,0.62801,-2.48023,3.08861,0.60427,-2.68721,-1.67730,-1.67730,A,145432.70
3.14754,57.68831060,11.98000588,57.68830883,11.98000550,14:54:32.863763,0.00521,0.00000,0.00000,-0.14332,0.00000,-0.00107,-0.00203,-0.00087,-0.04959,-0.11700,0.99131,3.14171,0.00000,-2.22880,-2.22880,0.62682,-2.49058,3.08861,0.60427,-2.68721,-1.67730,-1.67730,A,145432.70
3.15808,57.68831051,11.98000586,57.68830883,11.98000550,14:54:32.874312,0.00535,0.00000,0.00000,-0.14336,0.00000,0.00122,-0.00218,-0.00117,-0.04923,-0.11523,0.99302,3.15230,0.00000,-2.14607,-2.14607,0.62569,-2.50041,3.08861,0.60427,-2.68721,-1.67730,-1.67730,A,145432.70
3.16824,57.68831043,11.98000584,57.68830883,11.98000550,14:54:32.884458,0.00510,0.00000,0.00000,-0.14341,0.00000,0.00321,-0.00096,0.00081,-0.04849,-0.11743,0.99259,3.16248,0.00000,-2.07576,-2.07576,0.62462,-2.50975,3.08861,0.60427,-2.68721,-1.67730,-1.67730,A,145432.70
3.17915,57.68831035,11.98000583,57.68830883,11.98000550,14:54:32.895368,0.00561,0.00000,0.00000,-0.14346,0.00000,-0.00000,0.00210,-0.00102,-0.05063,-0.11511,0.99094,3.17329,0.00000,-2.01599,-2.01599,0.62360,-2.51862,3.08861,0.60427,-2.68721,-1.67730,-1.67730,A,145432.70
3.18896,57.68831027,11.98000581,57.68830883,11.98000550,14:54:32.905173,0.00502,0.00000,0.00000,-0.14357,0.00000,-0.00260,0.00195,0.00325,-0.05045,-0.11724,0.98966,3.18343,0.00000,-1.96518,-1.96518,0.62264,-2.52705,3.08861,0.60427,-2.68721,-1.67730,-1.67730,A,145432.70
3.21603,57.68831020,11.98000579,57.68830800,11.98000400,14:54:32.932261,0.02179,0.00000,1.50000,-0.14362,0.02000,-0.00183,-0.00554,-0.00240,-0.04965,-0.11438,0.99174,3.19360,0.00000,-1.92200,-1.92200,0.62172,-2.53506,3.20987,0.51512,-2.77987,-2.33690,-2.33690,A,145432.80
3.22911,57.68831009,11.98000570,57.68830800,11.98000400,14:54:32.945337,0.00833,0.00000,0.00000,-0.14366,0.00000,0.00183,0.00378,0.00142,-0.05063,-0.11749,0.99277,3.22064,0.00000,-1.98424,-1.98424,0.61639,-2.54730,3.20987,0.51512,-2.77987,-2.33690,-2.33690,A,145432.80
3.23664,57.68830999,11.98000562,57.68830800,11.98000400,14:54:32.952858,0.00565,0.00000,0.00000,-0.14373,0.00000,0.00031,-0.00187,-0.00163,-0.05002,-0.11706,0.99058,3.23108,0.00000,-2.03714,-2.03714,0.61132,-2.55893,3.20987,0.51512,-2.77987,-2.33690,-2.33690,A,145432.80
3.24680,57.68830989,11.98000554,57.68830800,11.98000400,14:54:32.963023,0.00541,0.00000,0.00000,-0.14382,0.00000,-0.00367,-0.00035,-0.00011,-0.05118,-0.11566,0.99186,3.24097,0.00000,-2.08210,-2.08210,0.60651,-2.56998,3.20987,0.51512,-2.77987,-2.33690,-2.33690,A,145432.80
3.25693,57.68830979,11.98000546,57.68830800,11.98000400,14:54:32.973148,0.00508,0.00000,0.00000,-0.14396,0.00000,-0.00718,-0.00309,0.00112,-0.05020,-0.11651,0.99082,3.25140,0.00000,-2.12032,-2.12032,0.60194,-2.58047,3.20987,0.51512,-2.77987,-2.33690,-2.33690,A,145432.80
3.26789,57.68830970,11.98000539,57.68830800,11.98000400,14:54:32.984108,0.00540,0.00000,0.00000,-0.14401,0.00000,0.00122,-0.00126,0.00173,-0.05100,-0.11639,0.98930,3.26207,0.00000,-2.15281,-2.15281,0.59760,-2.59044,3.20987,0.51512,-2.77987,-2.33690,-2.33690,A,145432.80
3.27894,57.68830962,11.98000532,57.68830800,11.98000400,14:54:32.995159,0.00605,0.00000,0.00000,-0.14406,0.00000,0.00015,0.00027,0.00188,-0.04941,-0.11614,0.99265,3.27246,0.00000,-2.18042,-2.18042,0.59348,-2.59991,3.20987,0.51512,-2.77987,-2.33690,-2.33690,A,145432.80
3.28838,57.68830954,11.98000525,57.68830800,11.98000400,14:54:33.004605,0.00526,0.00000,0.00000,-0.14413,0.00000,-0.00260,0.00027,0.00127,-0.05203,-0.11511,0.99149,3.28261,0.00000,-2.20390,-2.20390,0.58956,-2.60891,3.20987,0.51512,-2.77987,-2.33690,-2.33690,A,145432.80
3.29890,57.68830946,11.98000519,57.68830800,11.98000400,14:54:33.015124,0.00538,0.00000,0.00000,-0.14415,0.00000,0.00153,-0.00141,0.00295,-0.05155,-0.11553,0.99363,3.29308,0.00000,-2.22385,-2.22385,0.58584,-2.61746,3.20987,0.51512,-2.77987,-2.33690,-2.33690,A,145432.80
3.30894,57.68830939,11.98000513,57.68830800,11.98000400,14:54:33.025167,0.00502,0.00000,0.00000,-0.14416,0.00000,-0.00061,0.00179,0.00264,-0.04965,-0.11242,0.99247,3.30342,0.00000,-2.24081,-2.24081,0.58230,-2.62558,3.20987,0.51512,-2.77987,-2.33690,-2.33690,A,145432.80
3.34938,57.68830932,11.98000507,57.68830850,11.97999433,14:54:33.065612,0.03515,0.00000,1.50000,-0.14420,0.02000,-0.00046,-0.00600,0.00051,-0.05319,-0.11541,0.99229,3.31360,0.00000,-2.25522,-2.25522,0.57894,-2.63330,3.34185,-0.05944,-2.72428,-3.23806,3.04513,A,145433.00
3.35967,57.68830928,11.98000454,57.68830850,11.97999433,14:54:33.075893,0.00530,0.00000,0.00000,-0.14417,0.00000,0.00137,-0.00080,0.00035,-0.05112,-0.11340,0.98832,3.35379,0.00000,-2.40265,-2.40265,0.54702,-2.63784,3.34185,-0.05944,-2.72428,-3.23806,3.04513,A,145433.00
3.37009,57.68830924,11.98000403,57.68830850,11.97999433,14:54:33.086328,0.00532,0.00000,0.00000,-0.14424,0.00000,-0.00153,0.00011,-0.00041,-0.05069,-0.11639,0.99162,3.36434,0.00000,-2.52796,-2.52796,0.51670,-2.64217,3.34185,-0.05944,-2.72428,-3.23806,3.04513,A,145433.00
3.38039,57.68830920,11.98000354,57.68830850,11.97999433,14:54:33.096607,0.00522,0.00000,0.00000,-0.14421,0.00000,0.00519,0.00240,0.00142,-0.05209,-0.11401,0.99235,3.37450,0.00000,-2.63447,-2.63447,0.48789,-2.64627,3.34185,-0.05944,-2.72428,-3.23806,3.04513,A,145433.00
3.39092,57.68830917,11.98000308,57.68830850,11.97999433,14:54:33.107143,0.00535,0.00000,0.00000,-0.14426,0.00000,0.00076,-0.00233,0.00096,-0.04923,-0.11694,0.99320,3.38511,0.00000,-2.72501,-2.72501,0.46053,-2.65017,3.34185,-0.05944,-2.72428,-3.23806,3.04513,A,145433.00
3.40098,57.68830913,11.98000264,57.68830850,11.97999433,14:54:33.117203,0.00502,0.00000,0.00000,-0.14435,0.00000,-0.00443,-0.00264,0.00066,-0.05264,-0.11590,0.99351,3.39544,0.00000,-2.80197,-2.80197,0.43453,-2.65388,3.34185,-0.05944,-2.72428,-3.23806,3.04513,A,145433.00
3.41151,57.68830910,11.98000223,57.68830850,11.97999433,14:54:33.127726,0.00521,0.00000,0.00000,-0.14441,0.00000,0.00153,-0.00340,0.00234,-0.05197,-0.11797,0.99235,3.40568,0.00000,-2.86738,-2.86738,0.40983,-2.65740,3.34185,-0.05944,-2.72428,-3.23806,3.04513,A,145433.00
3.42202,57.68830907,11.98000183,57.68830850,11.97999433,14:54:33.138252,0.00532,0.00000,0.00000,-0.14452,0.00000,-0.00473,0.00164,0.00173,-0.05069,-0.11694,0.99454,3.41627,0.00000,-2.92298,-2.92298,0.38637,-2.66074,3.34185,-0.05944,-2.72428,-3.23806,3.04513,A,145433.00
3.43245,57.68830904,11.98000146,57.68830850,11.97999433,14:54:33.148674,0.00535,0.00000,0.00000,-0.14460,0.00000,-0.00168,-0.00096,0.00234,-0.05094,-0.11749,0.99393,3.42644,0.00000,-2.97024,-2.97024,0.36408,-2.66392,3.34185,-0.05944,-2.72428,-3.23806,3.04513,A,145433.00
3.46911,57.68830902,11.98000110,57.68830950,11.97998867,14:54:33.186003,0.03165,0.00000,1.50000,-0.14464,0.02000,0.00137,-0.00248,0.00005,-0.04972,-0.11651,0.99284,3.43727,0.00000,-3.01042,-3.01042,0.34290,-2.66694,3.45611,-0.39624,-2.61308,-3.46047,2.82271,A,145433.10
3.48773,57.68830904,11.98000048,57.68830950,11.97998867,14:54:33.203951,0.00621,0.00000,0.00000,-0.14465,0.00000,0.00122,0.00317,0.00188,-0.05112,-0.11761,0.99320,3.48188,0.00000,-3.07792,-3.07792,0.30594,-2.66424,3.45611,-0.39624,-2.61308,-3.46047,2.82271,A,145433.10
3.49696,57.68830906,11.97999989,57.68830950,11.97998867,14:54:33.213183,0.00505,0.00000,0.00000,-0.14472,0.00000,-0.00199,-0.00065,0.00112,-0.05130,-0.11706,0.99338,3.49143,0.00000,-3.13531,-3.13531,0.27084,-2.66168,3.45611,-0.39624,-2.61308,-3.46047,2.82271,A,145433.10
3.50750,57.68830908,11.97999933,57.68830950,11.97998867,14:54:33.223719,0.00520,0.00000,0.00000,-0.14478,0.00000,-0.00076,0.00118,0.00203,-0.04904,-0.11627,0.99155,3.50168,0.00000,-3.18408,-3.18408,0.23748,-2.65925,3.45611,-0.39624,-2.61308,-3.46047,2.82271,A,145433.10
3.51819,57.68830911,11.97999880,57.68830950,11.97998867,14:54:33.234421,0.00549,0.00000,0.00000,-0.14480,0.00000,0.00321,0.00057,0.00371,-0.05002,-0.11663,0.99223,3.51229,0.00000,-3.22554,-3.22554,0.20579,-2.65695,3.45611,-0.39624,-2.61308,-3.46047,2.82271,A,145433.10
3.52920,57.68830913,11.97999829,57.68830950,11.97998867,14:54:33.245414,0.00610,0.00000,0.00000,-0.14488,0.00000,-0.00199,0.00149,0.00005,-0.04941,-0.11730,0.99265,3.52261,0.00000,-3.26078,-3.26078,0.17569,-2.65475,3.45611,-0.39624,-2.61308,-3.46047,2.82271,A,145433.10
3.53889,57.68830914,11.97999781,57.68830950,11.97998867,14:54:33.255106,0.00539,0.00000,0.00000,-0.14496,0.00000,-0.00290,-0.00050,0.00096,-0.05081,-0.11675,0.99277,3.53306,0.00000,-3.29073,-3.29073,0.14710,-2.65267,3.45611,-0.39624,-2.61308,-3.46047,2.82271,A,145433.10
3.54949,57.68830916,11.97999735,57.68830950,11.97998867,14:54:33.265716,0.00560,0.00000,0.00000,-0.14496,0.00000,0.00275,0.00057,0.00509,-0.05118,-0.11584,0.99277,3.54393,0.00000,-3.31619,-3.31619,0.11993,-2.65069,3.45611,-0.39624,-2.61308,-3.46047,2.82271,A,145433.10
3.57688,57.68830918,11.97999692,57.68830967,11.97998467,14:54:33.293105,0.02264,0.00000,1.50000,-0.14504,0.02000,-0.00244,-0.00233,0.00173,-0.05203,-0.11712,0.99119,3.55362,0.00000,-3.33784,-3.33784,0.09412,-2.64881,3.57013,-0.63399,-2.59455,-3.21939,3.06380,A,145433.20
3.58728,57.68830920,11.97999630,57.68830967,11.97998467,14:54:33.303494,0.00556,0.00000,0.00000,-0.14523,0.00000,-0.00504,-0.00325,0.00463,-0.04764,-0.11688,0.98966,3.58132,0.00000,-3.32007,-3.32007,0.05772,-2.64610,3.57013,-0.63399,-2.59455,-3.21939,3.06380,A,145433.20
3.59719,57.68830923,11.97999572,57.68830967,11.97998467,14:54:33.313413,0.00507,0.00000,0.00000,-0.14524,0.00000,-0.00000,0.00164,0.00020,-0.05020,-0.11425,0.99332,3.59168,0.00000,-3.30497,-3.30497,0.02313,-2.64352,3.57013,-0.63399,-2.59455,-3.21939,3.06380,A,145433.20
3.60771,57.68830925,11.97999517,57.68830967,11.97998467,14:54:33.323931,0.00536,0.00000,0.00000,-0.14525,0.00000,0.00199,0.00179,-0.00133,-0.04972,-0.11584,0.99168,3.60174,0.00000,-3.29213,-3.29213,-0.00973,-2.64107,3.57013,-0.63399,-2.59455,-3.21939,3.06380,A,145433.20
3.61809,57.68830927,11.97999464,57.68830967,11.97998467,14:54:33.334324,0.00534,0.00000,0.00000,-0.14534,0.00000,-0.00397,-0.00172,0.00096,-0.05124,-0.11675,0.99198,3.61232,0.00000,-3.28122,-3.28122,-0.04094,-2.63874,3.57013,-0.63399,-2.59455,-3.21939,3.06380,A,145433.20
3.62842,57.68830929,11.97999415,57.68830967,11.97998467,14:54:33.344643,0.00527,0.00000,0.00000,-0.14538,0.00000,0.00153,-0.00141,0.00051,-0.05014,-0.11767,0.99314,3.62288,0.00000,-3.27194,-3.27194,-0.07059,-2.63653,3.57013,-0.63399,-2.59455,-3.21939,3.06380,A,145433.20
3.63901,57.68830931,11.97999367,57.68830967,11.97998467,14:54:33.355227,0.00546,0.00000,0.00000,-0.14541,0.00000,0.00031,-0.00065,0.00249,-0.05252,-0.11614,0.99399,3.63319,0.00000,-3.26406,-3.26406,-0.09876,-2.63443,3.57013,-0.63399,-2.59455,-3.21939,3.06380,A,145433.20
3.64938,57.68830933,11.97999322,57.68830967,11.97998467,14:54:33.366167,0.00543,0.00000,0.00000,-0.14539,0.00000,0.00428,0.00027,0.00249,-0.04978,-0.11566,0.99296,3.64343,0.00000,-3.25736,-3.25736,-0.12552,-2.63244,3.57013,-0.63399,-2.59455,-3.21939,3.06380,A,145433.20
3.65995,57.68830934,11.97999279,57.68830967,11.97998467,14:54:33.376163,0.00531,0.00000,0.00000,-0.14542,0.00000,-0.00000,-0.00126,-0.00102,-0.05142,-0.11590,0.99253,3.65412,0.00000,-3.25166,-3.25166,-0.15095,-2.63055,3.57013,-0.63399,-2.59455,-3.21939,3.06380,A,145433.20
3.67042,57.68830936,11.97999239,57.68830967,11.97998467,14:54:33.386648,0.00538,0.00000,0.00000,-0.14547,0.00000,-0.00046,0.00363,-0.00133,-0.04947,-0.11639,0.99131,3.66463,0.00000,-3.24682,-3.24682,-0.17510,-2.62875,3.57013,-0.63399,-2.59455,-3.21939,3.06380,A,145433.20
3.70337,57.68830937,11.97999200,57.68830867,11.97998267,14:54:33.420250,0.02793,0.00000,1.50000,-0.14550,0.02000,0.00122,-0.00477,-0.00087,-0.04947,-0.11694,0.99027,3.67499,0.00000,-3.24271,-3.24271,-0.19804,-2.62704,3.69120,-0.75286,-2.70574,-2.38955,-2.38955,A,145433.30
3.72315,57.68830934,11.97999153,57.68830867,11.97998267,14:54:33.439368,0.00706,0.00000,0.00000,-0.14567,0.00000,-0.00397,0.00027,0.00066,-0.05045,-0.11401,0.99247,3.71725,0.00000,-3.11473,-3.11473,-0.22578,-2.63097,3.69120,-0.75286,-2.70574,-2.38955,-2.38955,A,145433.30
3.73163,57.68830931,11.97999109,57.68830867,11.97998267,14:54:33.447854,0.00532,0.00000,0.00000,-0.14570,0.00000,-0.00061,0.00225,-0.00148,-0.04959,-0.11614,0.99162,3.72578,0.00000,-3.00596,-3.00596,-0.25214,-2.63471,3.69120,-0.75286,-2.70574,-2.38955,-2.38955,A,145433.30
3.74250,57.68830927,11.97999067,57.68830867,11.97998267,14:54:33.458735,0.00553,0.00000,0.00000,-0.14573,0.00000,-0.00168,0.00027,0.00020,-0.05087,-0.11499,0.99204,3.73663,0.00000,-2.91350,-2.91350,-0.27717,-2.63826,3.69120,-0.75286,-2.70574,-2.38955,-2.38955,A,145433.30
3.75282,57.68830924,11.97999027,57.68830867,11.97998267,14:54:33.469050,0.00544,0.00000,0.00000,-0.14577,0.00000,0.00076,-0.00416,-0.00209,-0.05081,-0.11700,0.99302,3.74692,0.00000,-2.83490,-2.83490,-0.30096,-2.64164,3.69120,-0.75286,-2.70574,-2.38955,-2.38955,A,145433.30
3.76345,57.68830921,11.97998989,57.68830867,11.97998267,14:54:33.479675,0.00548,0.00000,0.00000,-0.14581,0.00000,-0.00031,-0.00355,0.00081,-0.05270,-0.11675,0.99113,3.75735,0.00000,-2.76810,-2.76810,-0.32355,-2.64484,3.69120,-0.75286,-2.70574,-2.38955,-2.38955,A,145433.30
3.77347,57.68830919,11.97998953,57.68830867,11.97998267,14:54:33.489696,0.00511,0.00000,0.00000,-0.14585,0.00000,-0.00153,0.00057,0.00142,-0.05258,-0.11621,0.99290,3.76794,0.00000,-2.71132,-2.71132,-0.34502,-2.64789,3.69120,-0.75286,-2.70574,-2.38955,-2.38955,A,145433.30
3.78376,57.68830916,11.97998919,57.68830867,11.97998267,14:54:33.499976,0.00516,0.00000,0.00000,-0.14588,0.00000,0.00092,0.00103,-0.00026,-0.04904,-0.11706,0.99265,3.77798,0.00000,-2.66306,-2.66306,-0.36541,-2.65078,3.69120,-0.75286,-2.70574,-2.38955,-2.38955,A,145433.30
3.81192,57.68830914,11.97998886,57.68830717,11.97998183,14:54:33.528146,0.02292,0.00000,1.50000,-0.14590,0.02000,0.00092,-0.00096,0.00096,-0.05191,-0.11608,0.99412,3.78859,0.00000,-2.62203,-2.62203,-0.38478,-2.65353,3.80470,-0.80239,-2.87254,-1.85946,-1.85946,A,145433.40
3.82202,57.68830904,11.97998851,57.68830717,11.97998183,14:54:33.538256,0.00542,0.00000,0.00000,-0.14600,0.00000,-0.00153,-0.00050,-0.00056,-0.04941,-0.11846,0.99107,3.81624,0.00000,-2.50764,-2.50764,-0.40566,-2.66448,3.80470,-0.80239,-2.87254,-1.85946,-1.85946,A,145433.40
3.83234,57.68830894,11.97998817,57.68830717,11.97998183,14:54:33.548565,0.00534,0.00000,0.00000,-0.14599,0.00000,0.00305,-0.00096,0.00157,-0.05045,-0.11566,0.99107,3.82635,0.00000,-2.41042,-2.41042,-0.42550,-2.67488,3.80470,-0.80239,-2.87254,-1.85946,-1.85946,A,145433.40
3.84295,57.68830886,11.97998786,57.68830717,11.97998183,14:54:33.559175,0.00554,0.00000,0.00000,-0.14601,0.00000,0.00061,0.00225,-0.00011,-0.05142,-0.11633,0.99418,3.83695,0.00000,-2.32777,-2.32777,-0.44434,-2.68476,3.80470,-0.80239,-2.87254,-1.85946,-1.85946,A,145433.40
3.85366,57.68830877,11.97998756,57.68830717,11.97998183,14:54:33.570111,0.00558,0.00000,0.00000,-0.14602,0.00000,0.00061,0.00393,0.00035,-0.04904,-0.11553,0.99223,3.84772,0.00000,-2.25753,-2.25753,-0.46225,-2.69415,3.80470,-0.80239,-2.87254,-1.85946,-1.85946,A,145433.40
3.86395,57.68830869,11.97998727,57.68830717,11.97998183,14:54:33.580170,0.00563,0.00000,0.00000,-0.14601,0.00000,-0.00046,-0.00096,-0.00056,-0.04929,-0.11383,0.99247,3.85780,0.00000,-2.19782,-2.19782,-0.47925,-2.70307,3.80470,-0.80239,-2.87254,-1.85946,-1.85946,A,145433.40
3.87405,57.68830861,11.97998700,57.68830717,11.97998183,14:54:33.590285,0.00533,0.00000,0.00000,-0.14600,0.00000,0.00076,0.00042,-0.00301,-0.05155,-0.11468,0.99473,3.86828,0.00000,-2.14706,-2.14706,-0.49541,-2.71154,3.80470,-0.80239,-2.87254,-1.85946,-1.85946,A,145433.40
3.88421,57.68830854,11.97998674,57.68830717,11.97998183,14:54:33.600429,0.00509,0.00000,0.00000,-0.14602,0.00000,-0.00031,-0.00126,-0.00224,-0.04929,-0.11523,0.99223,3.87846,0.00000,-2.10392,-2.10392,-0.51076,-2.71959,3.80470,-0.80239,-2.87254,-1.85946,-1.85946,A,145433.40
3.89504,57.68830847,11.97998649,57.68830717,11.97998183,14:54:33.611265,0.00553,0.00000,0.00000,-0.14604,0.00000,0.00199,0.00057,-0.00133,-0.04752,-0.11767,0.99357,3.88921,0.00000,-2.06725,-2.06725,-0.52534,-2.72724,3.80470,-0.80239,-2.87254,-1.85946,-1.85946,A,145433.40
3.90496,57.68830841,11.97998626,57.68830717,11.97998183,14:54:33.621182,0.00504,0.00000,0.00000,-0.14606,0.00000,0.00260,0.00317,-0.00178,-0.05100,-0.11712,0.98985,3.89944,0.00000,-2.03608,-2.03608,-0.53919,-2.73451,3.80470,-0.80239,-2.87254,-1.85946,-1.85946,A,145433.40
3.94690,57.68830835,11.97998604,57.68830417,11.97998350,14:54:33.663136,0.03666,0.00000,1.50000,-0.14609,0.02000,0.00153,-0.00050,-0.00194,-0.05142,-0.11736,0.99186,3.90962,0.00000,-2.00959,-2.00959,-0.55235,-2.74141,3.93589,-0.70333,-3.20612,-1.28213,-1.28213,A,145433.60
3.95909,57.68830814,11.97998591,57.68830417,11.97998350,14:54:33.675311,0.00623,0.00000,0.00000,-0.14619,0.00000,-0.00199,0.00149,-0.00163,-0.05020,-0.11590,0.99345,3.95291,0.00000,-1.90047,-1.90047,-0.55990,-2.76464,3.93589,-0.70333,-3.20612,-1.28213,-1.28213,A,145433.60
3.96829,57.68830794,11.97998579,57.68830417,11.97998350,14:54:33.684504,0.00513,0.00000,0.00000,-0.14621,0.00000,0.00061,-0.00035,-0.00301,-0.05075,-0.11675,0.99296,3.96253,0.00000,-1.80772,-1.80772,-0.56707,-2.78672,3.93589,-0.70333,-3.20612,-1.28213,-1.28213,A,145433.60
3.97893,57.68830775,11.97998568,57.68830417,11.97998350,14:54:33.695150,0.00538,0.00000,0.00000,-0.14623,0.00000,0.00260,0.00027,-0.00041,-0.05087,-0.11797,0.99381,3.97311,0.00000,-1.72888,-1.72888,-0.57389,-2.80769,3.93589,-0.70333,-3.20612,-1.28213,-1.28213,A,145433.60
3.98895,57.68830757,11.97998557,57.68830417,11.97998350,14:54:33.705166,0.00500,0.00000,0.00000,-0.14622,0.00000,0.00092,-0.00294,0.00325,-0.04990,-0.11474,0.99448,3.98343,0.00000,-1.66187,-1.66187,-0.58036,-2.82761,3.93589,-0.70333,-3.20612,-1.28213,-1.28213,A,145433.60
3.99940,57.68830740,11.97998547,57.68830417,11.97998350,14:54:33.715616,0.00516,0.00000,0.00000,-0.14626,0.00000,-0.00183,-0.00340,0.00234,-0.04996,-0.11578,0.99259,3.99361,0.00000,-1.60491,-1.60491,-0.58651,-2.84653,3.93589,-0.70333,-3.20612,-1.28213,-1.28213,A,145433.60
4.01013,57.68830724,11.97998537,57.68830417,11.97998350,14:54:33.726363,0.00547,0.00000,0.00000,-0.14622,0.00000,0.00397,0.00011,0.00173,-0.04782,-0.11505,0.99143,4.00436,0.00000,-1.55649,-1.55649,-0.59235,-2.86451,3.93589,-0.70333,-3.20612,-1.28213,-1.28213,A,145433.60
4.02106,57.68830709,11.97998527,57.68830417,11.97998350,14:54:33.737286,0.00600,0.00000,0.00000,-0.14625,0.00000,-0.00137,-0.00172,-0.00026,-0.05203,-0.11566,0.99357,4.01441,0.00000,-1.51534,-1.51534,-0.59790,-2.88159,3.93589,-0.70333,-3.20612,-1.28213,-1.28213,A,145433.60
4.03109,57.68830694,11.97998519,57.68830417,11.97998350,14:54:33.747306,0.00562,0.00000,0.00000,-0.14624,0.00000,0.00015,-0.00019,0.00020,-0.05240,-0.11480,0.99277,4.02511,0.00000,-1.48036,-1.48036,-0.60317,-2.89782,3.93589,-0.70333,-3.20612,-1.28213,-1.28213,A,145433.60
4.06259,57.68830680,11.97998510,57.68830367,11.97998567,14:54:33.778845,0.02673,0.00000,1.50000,-0.14625,0.02000,0.00183,-0.00172,0.00127,-0.05142,-0.11584,0.99094,4.03541,0.00000,-1.45062,-1.45062,-0.60818,-2.91324,4.05319,-0.57455,-3.26172,-0.40756,-0.40756,A,145433.70
4.08151,57.68830664,11.97998513,57.68830367,11.97998567,14:54:33.797725,0.00679,0.00000,0.00000,-0.14638,0.00000,-0.00367,-0.00080,0.00005,-0.05033,-0.11431,0.99399,4.07596,0.00000,-1.29416,-1.29416,-0.60650,-2.93066,4.05319,-0.57455,-3.26172,-0.40756,-0.40756,A,145433.70
4.09059,57.68830650,11.97998516,57.68830367,11.97998567,14:54:33.806813,0.00546,0.00000,0.00000,-0.14633,0.00000,0.00504,0.00103,0.00203,-0.04996,-0.11407,0.99204,4.08479,0.00000,-1.16117,-1.16117,-0.60490,-2.94721,4.05319,-0.57455,-3.26172,-0.40756,-0.40756,A,145433.70
4.10060,57.68830635,11.97998518,57.68830367,11.97998567,14:54:33.816815,0.00507,0.00000,0.00000,-0.14634,0.00000,0.00031,-0.00080,0.00234,-0.05026,-0.11596,0.99204,4.09507,0.00000,-1.04813,-1.04813,-0.60338,-2.96294,4.05319,-0.57455,-3.26172,-0.40756,-0.40756,A,145433.70
4.11143,57.68830622,11.97998521,57.68830367,11.97998567,14:54:33.827656,0.00536,0.00000,0.00000,-0.14639,0.00000,-0.00305,-0.00111,0.00112,-0.05057,-0.11614,0.99558,4.10543,0.00000,-0.95204,-0.95204,-0.60194,-2.97788,4.05319,-0.57455,-3.26172,-0.40756,-0.40756,A,145433.70
4.12156,57.68830609,11.97998523,57.68830367,11.97998567,14:54:33.837778,0.00508,0.00000,0.00000,-0.14640,0.00000,-0.00031,-0.00019,0.00234,-0.05094,-0.11553,0.99369,4.11604,0.00000,-0.87037,-0.87037,-0.60057,-2.99207,4.05319,-0.57455,-3.26172,-0.40756,-0.40756,A,145433.70
4.13236,57.68830597,11.97998525,57.68830367,11.97998567,14:54:33.848584,0.00549,0.00000,0.00000,-0.14646,0.00000,-0.00137,0.00072,0.00280,-0.05087,-0.11791,0.98997,4.12621,0.00000,-0.80095,-0.80095,-0.59927,-3.00555,4.05319,-0.57455,-3.26172,-0.40756,-0.40756,A,145433.70
4.14266,57.68830586,11.97998527,57.68830367,11.97998567,14:54:33.858877,0.00539,0.00000,0.00000,-0.14649,0.00000,0.00122,-0.00294,-0.00041,-0.05100,-0.11755,0.99229,4.13684,0.00000,-0.74194,-0.74194,-0.59803,-3.01836,4.05319,-0.57455,-3.26172,-0.40756,-0.40756,A,145433.70
4.15274,57.68830575,11.97998529,57.68830367,11.97998567,14:54:33.868960,0.00507,0.00000,0.00000,-0.14649,0.00000,0.00244,-0.00080,-0.00133,-0.05057,-0.11675,0.99460,4.14722,0.00000,-0.69178,-0.69178,-0.59686,-3.03053,4.05319,-0.57455,-3.26172,-0.40756,-0.40756,A,145433.70
4.18221,57.68830564,11.97998531,57.68830283,11.97999017,14:54:33.898460,0.02399,0.00000,1.50000,-0.14652,0.02000,0.00290,-0.00096,0.00157,-0.05002,-0.11889,0.98924,4.15759,0.00000,-0.64915,-0.64915,-0.59574,-3.04209,4.17460,-0.30709,-3.35438,-0.33351,-0.33351,A,145433.80
4.19216,57.68830550,11.97998555,57.68830283,11.97999017,14:54:33.908383,0.00517,0.00000,0.00000,-0.14647,0.00000,0.00275,-0.00508,0.00127,-0.05112,-0.11694,0.99113,4.18640,0.00000,-0.60180,-0.60180,-0.58131,-3.05770,4.17460,-0.30709,-3.35438,-0.33351,-0.33351,A,145433.80
4.20280,57.68830537,11.97998578,57.68830283,11.97999017,14:54:33.919015,0.00541,0.00000,0.00000,-0.14647,0.00000,0.00336,-0.00080,-0.00011,-0.05026,-0.11730,0.99186,4.19698,0.00000,-0.56156,-0.56156,-0.56760,-3.07254,4.17460,-0.30709,-3.35438,-0.33351,-0.33351,A,145433.80
4.21284,57.68830524,11.97998600,57.68830283,11.97999017,14:54:33.929056,0.00505,0.00000,0.00000,-0.14649,0.00000,-0.00061,0.00210,0.00005,-0.05106,-0.11547,0.99290,4.20731,0.00000,-0.52735,-0.52735,-0.55458,-3.08663,4.17460,-0.30709,-3.35438,-0.33351,-0.33351,A,145433.80
4.22356,57.68830512,11.97998621,57.68830283,11.97999017,14:54:33.939982,0.00532,0.00000,0.00000,-0.14651,0.00000,0.00275,0.00271,0.00371,-0.05215,-0.11810,0.99082,4.21760,0.00000,-0.49827,-0.49827,-0.54220,-3.10002,4.17460,-0.30709,-3.35438,-0.33351,-0.33351,A,145433.80
4.23426,57.68830501,11.97998641,57.68830283,11.97999017,14:54:33.950482,0.00562,0.00000,0.00000,-0.14649,0.00000,0.00412,0.00088,0.00249,-0.04990,-0.11633,0.99155,4.22849,0.00000,-0.47356,-0.47356,-0.53045,-3.11273,4.17460,-0.30709,-3.35438,-0.33351,-0.33351,A,145433.80
4.24416,57.68830490,11.97998660,57.68830283,11.97999017,14:54:33.960380,0.00513,0.00000,0.00000,-0.14653,0.00000,-0.00137,0.00072,0.00356,-0.05051,-0.11700,0.99216,4.23838,0.00000,-0.45255,-0.45255,-0.51928,-3.12482,4.17460,-0.30709,-3.35438,-0.33351,-0.33351,A,145433.80
4.25480,57.68830479,11.97998678,57.68830283,11.97999017,14:54:33.971023,0.00537,0.00000,0.00000,-0.14651,0.00000,0.00244,-0.00462,0.00127,-0.04770,-0.11547,0.99204,4.24899,0.00000,-0.43469,-0.43469,-0.50867,-3.13629,4.17460,-0.30709,-3.35438,-0.33351,-0.33351,A,145433.80
4.26800,57.68830470,11.97998694,57.68830283,11.97999017,14:54:33.984235,0.00817,0.00000,0.00000,-0.14645,0.00000,0.00794,-0.00386,0.00051,-0.05130,-0.11627,0.99088,4.25968,0.00000,-0.41952,-0.41952,-0.49859,-3.14720,4.17460,-0.30709,-3.35438,-0.33351,-0.33351,A,145433.80
4.29537,57.68830460,11.97998711,57.68830283,11.97999217,14:54:34.011609,0.02514,0.00000,1.50000,-0.14649,0.02000,-0.00351,-0.00080,-0.00117,-0.05124,-0.11505,0.99277,4.26960,0.00000,-0.40661,-0.40661,-0.48901,-3.15756,4.28586,-0.18822,-3.35438,0.00000,0.00000,A,145433.90
4.30534,57.68830451,11.97998736,57.68830283,11.97999217,14:54:34.022802,0.00520,0.00000,0.00000,-0.14647,0.00000,0.00183,-0.00141,0.00173,-0.05130,-0.11743,0.99357,4.29979,0.00000,-0.34562,-0.34562,-0.47397,-3.16740,4.28586,-0.18822,-3.35438,0.00000,0.00000,A,145433.90
4.31572,57.68830443,11.97998760,57.68830283,11.97999217,14:54:34.031945,0.00530,0.00000,0.00000,-0.14645,0.00000,0.00443,-0.00157,0.00096,-0.05313,-0.11682,0.99259,4.30981,0.00000,-0.29378,-0.29378,-0.45969,-3.17675,4.28586,-0.18822,-3.35438,0.00000,0.00000,A,145433.90
4.32614,57.68830435,11.97998783,57.68830283,11.97999217,14:54:34.042371,0.00533,0.00000,0.00000,-0.14651,0.00000,-0.00351,-0.00096,-0.00102,-0.05087,-0.11651,0.99381,4.32037,0.00000,-0.24971,-0.24971,-0.44611,-3.18563,4.28586,-0.18822,-3.35438,0.00000,0.00000,A,145433.90
4.33650,57.68830428,11.97998804,57.68830283,11.97999217,14:54:34.052719,0.00529,0.00000,0.00000,-0.14650,0.00000,0.00519,0.00164,0.00142,-0.05203,-0.11791,0.99338,4.33055,0.00000,-0.21226,-0.21226,-0.43322,-3.19407,4.28586,-0.18822,-3.35438,0.00000,0.00000,A,145433.90
4.34726,57.68830420,11.97998825,57.68830283,11.97999217,14:54:34.063482,0.00573,0.00000,0.00000,-0.14651,0.00000,-0.00046,0.00118,0.00325,-0.04965,-0.11523,0.99149,4.34127,0.00000,-0.18042,-0.18042,-0.42097,-3.20208,4.28586,-0.18822,-3.35438,0.00000,0.00000,A,145433.90
4.35695,57.68830413,11.97998845,57.68830283,11.97999217,14:54:34.073170,0.00502,0.00000,0.00000,-0.14651,0.00000,-0.00122,-0.00355,0.00096,-0.05087,-0.11474,0.99534,4.35144,0.00000,-0.15335,-0.15335,-0.40933,-3.20970,4.28586,-0.18822,-3.35438,0.00000,0.00000,A,145433.90
4.36824,57.68830407,11.97998863,57.68830283,11.97999217,14:54:34.084461,0.00600,0.00000,0.00000,-0.14653,0.00000,0.00153,-0.00157,0.00127,-0.05100,-0.11700,0.99143,4.36213,0.00000,-0.13035,-0.13035,-0.39827,-3.21693,4.28586,-0.18822,-3.35438,0.00000,0.00000,A,145433.90
4.37772,57.68830401,11.97998881,57.68830283,11.97999217,14:54:34.094206,0.00508,0.00000,0.00000,-0.14656,0.00000,-0.00290,-0.00065,0.00081,-0.05270,-0.11547,0.99186,4.37221,0.00000,-0.11080,-0.11080,-0.38777,-3.22380,4.28586,-0.18822,-3.35438,0.00000,0.00000,A,145433.90
4.40540,57.68830395,11.97998898,57.68830483,11.97999233,14:54:34.121629,0.02236,0.00000,1.50000,-0.14661,0.02000,-0.00031,-0.00019,0.00066,-0.05203,-0.11755,0.99040,4.38239,0.00000,-0.09418,-0.09418,-0.37779,-3.23033,4.39860,-0.17831,-3.13199,1.52628,1.52628,A,145434.00
4.41592,57.68830399,11.97998914,57.68830483,11.97999233,14:54:34.132138,0.00528,0.00000,0.00000,-0.14661,0.00000,-0.00031,-0.00065,0.00127,-0.05075,-0.11474,0.99137,4.41007,0.00000,0.14889,0.14889,-0.36782,-3.22542,4.39860,-0.17831,-3.13199,1.52628,1.52628,A,145434.00
4.42673,57.68830404,11.97998930,57.68830483,11.97999233,14:54:34.142954,0.00569,0.00000,0.00000,-0.14664,0.00000,-0.00107,-0.00172,-0.00041,-0.05002,-0.11651,0.99265,4.42068,0.00000,0.35550,0.35550,-0.35834,-3.22074,4.39860,-0.17831,-3.13199,1.52628,1.52628,A,145434.00
4.43681,57.68830408,11.97998946,57.68830483,11.97999233,14:54:34.153026,0.00537,0.00000,0.00000,-0.14666,0.00000,0.00183,0.00072,0.00051,-0.04959,-0.11767,0.99229,4.43125,0.00000,0.53112,0.53112,-0.34934,-3.21631,4.39860,-0.17831,-3.13199,1.52628,1.52628,A,145434.00
4.44723,57.68830411,11.97998960,57.68830483,11.97999233,14:54:34.163447,0.00522,0.00000,0.00000,-0.14672,0.00000,-0.00397,-0.00019,0.00081,-0.05173,-0.11663,0.99180,4.44139,0.00000,0.68039,0.68039,-0.34079,-3.21209,4.39860,-0.17831,-3.13199,1.52628,1.52628,A,145434.00
4.45748,57.68830415,11.97998974,57.68830483,11.97999233,14:54:34.173701,0.00507,0.00000,0.00000,-0.14675,0.00000,-0.00122,-0.00309,0.00234,-0.05325,-0.11621,0.99460,4.45198,0.00000,0.80727,0.80727,-0.33267,-3.20809,4.39860,-0.17831,-3.13199,1.52628,1.52628,A,145434.00
4.46874,57.68830418,11.97998987,57.68830483,11.97999233,14:54:34.184970,0.00609,0.00000,0.00000,-0.14673,0.00000,0.00565,-0.00233,0.00203,-0.05148,-0.11743,0.99082,4.46230,0.00000,0.91513,0.91513,-0.32495,-3.20428,4.39860,-0.17831,-3.13199,1.52628,1.52628,A,145434.00
4.47906,57.68830422,11.97998999,57.68830483,11.97999233,14:54:34.195284,0.00552,0.00000,0.00000,-0.14675,0.00000,0.00153,-0.00096,0.00081,-0.04917,-0.11755,0.99143,4.47320,0.00000,1.00680,1.00680,-0.31762,-3.20067,4.39860,-0.17831,-3.13199,1.52628,1.52628,A,145434.00
4.48898,57.68830425,11.97999011,57.68830483,11.97999233,14:54:34.205199,0.00504,0.00000,0.00000,-0.14675,0.00000,-0.00015,-0.00325,-0.00072,-0.05112,-0.11517,0.99168,4.48345,0.00000,1.08472,1.08472,-0.31065,-3.19723,4.39860,-0.17831,-3.13199,1.52628,1.52628,A,145434.00
4.52351,57.68830428,11.97999022,57.68830517,11.97999267,14:54:34.240001,0.02927,0.00000,1.50000,-0.14674,0.02000,-0.00015,-0.00432,0.00173,-0.04910,-0.11511,0.99454,4.49396,0.00000,1.15096,1.15096,-0.30403,-3.19397,4.51014,-0.15850,-3.09493,1.07991,1.07991,A,145434.10
4.54313,57.68830432,11.97999034,57.68830517,11.97999267,14:54:34.259347,0.00653,0.00000,0.00000,-0.14672,0.00000,0.00122,-0.00264,0.00081,-0.05301,-0.11682,0.99271,4.53724,0.00000,1.14030,1.14030,-0.29676,-3.18902,4.51014,-0.15850,-3.09493,1.07991,1.07991,A,145434.10
4.55212,57.68830436,11.97999046,57.68830517,11.97999267,14:54:34.268344,0.00513,0.00000,0.00000,-0.14672,0.00000,-0.00168,-0.00141,-0.00041,-0.04990,-0.11480,0.99338,4.54635,0.00000,1.13124,1.13124,-0.28984,-3.18431,4.51014,-0.15850,-3.09493,1.07991,1.07991,A,145434.10
4.56280,57.68830440,11.97999057,57.68830517,11.97999267,14:54:34.279018,0.00540,0.00000,0.00000,-0.14681,0.00000,-0.00764,-0.00050,0.00219,-0.05094,-0.11596,0.99363,4.55697,0.00000,1.12354,1.12354,-0.28328,-3.17984,4.51014,-0.15850,-3.09493,1.07991,1.07991,A,145434.10
4.57342,57.68830444,11.97999067,57.68830517,11.97999267,14:54:34.289641,0.00561,0.00000,0.00000,-0.14682,0.00000,0.00046,-0.00019,0.00157,-0.05063,-0.11614,0.99064,4.56763,0.00000,1.11700,1.11700,-0.27704,-3.17560,4.51014,-0.15850,-3.09493,1.07991,1.07991,A,145434.10
4.58341,57.68830448,11.97999077,57.68830517,11.97999267,14:54:34.299632,0.00518,0.00000,0.00000,-0.14677,0.00000,0.00519,-0.00157,0.00249,-0.05002,-0.11547,0.99509,4.57759,0.00000,1.11143,1.11143,-0.27111,-3.17156,4.51014,-0.15850,-3.09493,1.07991,1.07991,A,145434.10
4.59370,57.68830451,11.97999087,57.68830517,11.97999267,14:54:34.310172,0.00507,0.00000,0.00000,-0.14674,0.00000,0.00214,0.00164,0.00127,-0.05179,-0.11492,0.99479,4.58819,0.00000,1.10671,1.10671,-0.26548,-3.16773,4.51014,-0.15850,-3.09493,1.07991,1.07991,A,145434.10
4.60414,57.68830454,11.97999096,57.68830517,11.97999267,14:54:34.320365,0.00512,0.00000,0.00000,-0.14677,0.00000,-0.00076,-0.00432,0.00402,-0.05069,-0.11669,0.99223,4.59838,0.00000,1.10269,1.10269,-0.26013,-3.16409,4.51014,-0.15850,-3.09493,1.07991,1.07991,A,145434.10
4.64229,57.68830458,11.97999104,57.68830583,11.97999317,14:54:34.358523,0.03286,0.00000,1.50000,-0.14677,0.02000,-0.00107,-0.00019,-0.00041,-0.05020,-0.11456,0.99430,4.60898,0.00000,1.09927,1.09927,-0.25505,-3.16063,4.63513,-0.12878,-3.02080,1.18952,1.18952,A,145434.30
4.65285,57.68830464,11.97999115,57.68830583,11.97999317,14:54:34.369066,0.00517,0.00000,0.00000,-0.14681,0.00000,-0.00076,0.00027,-0.00148,-0.05215,-0.11602,0.99180,4.64729,0.00000,1.11281,1.11281,-0.24874,-3.15364,4.63513,-0.12878,-3.02080,1.18952,1.18952,A,145434.30
4.66342,57.68830470,11.97999125,57.68830583,11.97999317,14:54:34.379641,0.00518,0.00000,0.00000,-0.14690,0.00000,-0.00596,0.00088,0.00066,-0.05087,-0.11700,0.99113,4.65759,0.00000,1.12431,1.12431,-0.24274,-3.14700,4.63513,-0.12878,-3.02080,1.18952,1.18952,A,145434.30
4.67463,57.68830476,11.97999135,57.68830583,11.97999317,14:54:34.390861,0.00600,0.00000,0.00000,-0.14691,0.00000,-0.00244,-0.00050,0.00157,-0.04959,-0.11505,0.99338,4.66820,0.00000,1.13410,1.13410,-0.23704,-3.14069,4.63513,-0.12878,-3.02080,1.18952,1.18952,A,145434.30
4.68664,57.68830481,11.97999144,57.68830583,11.97999317,14:54:34.402887,0.00755,0.00000,0.00000,-0.14693,0.00000,0.00107,-0.00126,-0.00011,-0.05008,-0.11718,0.99015,4.67845,0.00000,1.14241,1.14241,-0.23163,-3.13469,4.63513,-0.12878,-3.02080,1.18952,1.18952,A,145434.30
4.69485,57.68830486,11.97999152,57.68830583,11.97999317,14:54:34.411069,0.00535,0.00000,0.00000,-0.14694,0.00000,-0.00260,-0.00157,-0.00133,-0.05026,-0.11419,0.99235,4.68904,0.00000,1.14948,1.14948,-0.22648,-3.12900,4.63513,-0.12878,-3.02080,1.18952,1.18952,A,145434.30
4.70496,57.68830491,11.97999160,57.68830583,11.97999317,14:54:34.421186,0.00507,0.00000,0.00000,-0.14700,0.00000,-0.00290,-0.00065,-0.00163,-0.05075,-0.11743,0.99534,4.69943,0.00000,1.15548,1.15548,-0.22160,-3.12359,4.63513,-0.12878,-3.02080,1.18952,1.18952,A,145434.30
4.71541,57.68830496,11.97999168,57.68830583,11.97999317,14:54:34.431628,0.00518,0.00000,0.00000,-0.14698,0.00000,0.00183,0.00072,0.00142,-0.05106,-0.11553,0.99155,4.70960,0.00000,1.16059,1.16059,-0.21696,-3.11845,4.63513,-0.12878,-3.02080,1.18952,1.18952,A,145434.30
4.72630,57.68830500,11.97999176,57.68830583,11.97999317,14:54:34.442528,0.00575,0.00000,0.00000,-0.14696,0.00000,0.00199,0.00027,0.00081,-0.04996,-0.11517,0.99168,4.72029,0.00000,1.16493,1.16493,-0.21255,-3.11357,4.63513,-0.12878,-3.02080,1.18952,1.18952,A,145434.30
4.75871,57.68830504,11.97999183,57.68830567,11.97999817,14:54:34.474966,0.02776,0.00000,1.50000,-0.14691,0.02000,0.00412,-0.00035,0.00081,-0.04978,-0.11492,0.99192,4.73044,0.00000,1.16862,1.16862,-0.20836,-3.10893,4.74660,0.16840,-3.03933,-0.06228,-0.06228,A,145434.40
4.77124,57.68830507,11.97999214,57.68830567,11.97999817,14:54:34.487469,0.00653,0.00000,0.00000,-0.14697,0.00000,-0.00183,0.00133,0.00081,-0.05033,-0.11535,0.99180,4.76466,0.00000,0.98398,0.98398,-0.18952,-3.10545,4.74660,0.16840,-3.03933,-0.06228,-0.06228,A,145434.40
4.78079,57.68830510,11.97999245,57.68830567,11.97999817,14:54:34.497011,0.00568,0.00000,0.00000,-0.14699,0.00000,-0.00015,0.00164,0.00051,-0.05161,-0.11645,0.99223,4.77525,0.00000,0.82704,0.82704,-0.17163,-3.10214,4.74660,0.16840,-3.03933,-0.06228,-0.06228,A,145434.40
4.79088,57.68830513,11.97999273,57.68830567,11.97999817,14:54:34.507100,0.00537,0.00000,0.00000,-0.14702,0.00000,-0.00107,-0.00157,-0.00117,-0.04917,-0.11675,0.99058,4.78506,0.00000,0.69364,0.69364,-0.15462,-3.09900,4.74660,0.16840,-3.03933,-0.06228,-0.06228,A,145434.40
4.80098,57.68830516,11.97999300,57.68830567,11.97999817,14:54:34.517196,0.00506,0.00000,0.00000,-0.14709,0.00000,-0.00290,0.00317,0.00264,-0.04917,-0.11779,0.99131,4.79547,0.00000,0.58026,0.58026,-0.13847,-3.09602,4.74660,0.16840,-3.03933,-0.06228,-0.06228,A,145434.40
4.81199,57.68830518,11.97999326,57.68830567,11.97999817,14:54:34.528212,0.00530,0.00000,0.00000,-0.14707,0.00000,0.00443,0.00103,0.00035,-0.05179,-0.11767,0.99198,4.80617,0.00000,0.48388,0.48388,-0.12313,-3.09318,4.74660,0.16840,-3.03933,-0.06228,-0.06228,A,145434.40
4.82243,57.68830521,11.97999351,57.68830567,11.97999817,14:54:34.538657,0.00534,0.00000,0.00000,-0.14705,0.00000,0.00168,0.00088,0.00020,-0.04996,-0.11511,0.99259,4.81666,0.00000,0.40195,0.40195,-0.10855,-3.09049,4.74660,0.16840,-3.03933,-0.06228,-0.06228,A,145434.40
4.83275,57.68830523,11.97999374,57.68830567,11.97999817,14:54:34.548966,0.00526,0.00000,0.00000,-0.14704,0.00000,-0.00046,-0.00218,0.00203,-0.05179,-0.11474,0.99430,4.82705,0.00000,0.33232,0.33232,-0.09471,-3.08793,4.74660,0.16840,-3.03933,-0.06228,-0.06228,A,145434.40
4.84347,57.68830525,11.97999396,57.68830567,11.97999817,14:54:34.559697,0.00541,0.00000,0.00000,-0.14702,0.00000,0.00275,-0.00065,-0.00011,-0.05081,-0.11645,0.99241,4.83743,0.00000,0.27313,0.27313,-0.08155,-3.08550,4.74660,0.16840,-3.03933,-0.06228,-0.06228,A,145434.40
4.87097,57.68830527,11.97999417,57.68830550,11.98000250,14:54:34.587209,0.02251,0.00000,1.50000,-0.14700,0.02000,0.00092,-0.00096,-0.00087,-0.05057,-0.11462,0.99393,4.84802,0.00000,0.22282,0.22282,-0.06905,-3.08319,4.86400,0.42596,-3.05786,-0.07183,-0.07183,A,145434.50
4.88414,57.68830528,11.97999459,57.68830550,11.98000250,14:54:34.600357,0.00799,0.00000,0.00000,-0.14696,0.00000,0.00107,-0.00203,0.00280,-0.05026,-0.11511,0.99082,4.87643,0.00000,0.17862,0.17862,-0.04430,-3.08193,4.86400,0.42596,-3.05786,-0.07183,-0.07183,A,145434.50
4.89158,57.68830529,11.97999498,57.68830550,11.98000250,14:54:34.607798,0.00520,0.00000,0.00000,-0.14699,0.00000,0.00122,-0.00462,0.00005,-0.05179,-0.11791,0.99308,4.88575,0.00000,0.14105,0.14105,-0.02079,-3.08072,4.86400,0.42596,-3.05786,-0.07183,-0.07183,A,145434.50
4.90212,57.68830530,11.97999536,57.68830550,11.98000250,14:54:34.618350,0.00534,0.00000,0.00000,-0.14702,0.00000,-0.00107,0.00195,0.00035,-0.05014,-0.11682,0.99265,4.89635,0.00000,0.10912,0.10912,0.00155,-3.07958,4.86400,0.42596,-3.05786,-0.07183,-0.07183,A,145434.50
4.91225,57.68830531,11.97999572,57.68830550,11.98000250,14:54:34.628472,0.00508,0.00000,0.00000,-0.14704,0.00000,-0.00305,-0.00035,-0.00178,-0.05002,-0.11468,0.99284,4.90651,0.00000,0.08198,0.08198,0.02277,-3.07849,4.86400,0.42596,-3.05786,-0.07183,-0.07183,A,145434.50
4.92330,57.68830532,11.97999606,57.68830550,11.98000250,14:54:34.639521,0.00573,0.00000,0.00000,-0.14706,0.00000,-0.00290,-0.00187,0.00280,-0.05033,-0.11486,0.99192,4.91726,0.00000,0.05891,0.05891,0.04293,-3.07746,4.86400,0.42596,-3.05786,-0.07183,-0.07183,A,145434.50
4.93322,57.68830533,11.97999638,57.68830550,11.98000250,14:54:34.649441,0.00524,0.00000,0.00000,-0.14710,0.00000,-0.00168,-0.00325,-0.00011,-0.04965,-0.11682,0.99076,4.92769,0.00000,0.03930,0.03930,0.06208,-3.07648,4.86400,0.42596,-3.05786,-0.07183,-0.07183,A,145434.50
4.94342,57.68830534,11.97999668,57.68830550,11.98000250,14:54:34.659645,0.00518,0.00000,0.00000,-0.14707,0.00000,0.00321,0.00133,-0.00408,-0.04825,-0.11608,0.99430,4.93762,0.00000,0.02263,0.02263,0.08027,-3.07555,4.86400,0.42596,-3.05786,-0.07183,-0.07183,A,145434.50
4.95371,57.68830535,11.97999697,57.68830550,11.98000250,14:54:34.670177,0.00506,0.00000,0.00000,-0.14706,0.00000,0.00076,0.00118,0.00112,-0.05063,-0.11517,0.98997,4.94820,0.00000,0.00846,0.00846,0.09756,-3.07467,4.86400,0.42596,-3.05786,-0.07183,-0.07183,A,145434.50
4.96415,57.68830536,11.97999725,57.68830550,11.98000250,14:54:34.680366,0.00511,0.00000,0.00000,-0.14707,0.00000,0.00092,-0.00004,-0.00072,-0.05124,-0.11675,0.99137,4.95840,0.00000,-0.00359,-0.00359,0.11398,-3.07383,4.86400,0.42596,-3.05786,-0.07183,-0.07183,A,145434.50
4.99858,57.68830536,11.97999751,57.68830633,11.98000367,14:54:34.714819,0.02913,0.00000,1.50000,-0.14710,0.02000,-0.00122,0.00072,0.00142,-0.05106,-0.11694,0.99253,4.96914,0.00000,-0.01382,-0.01382,0.12958,-3.07303,4.98665,0.49530,-2.96520,0.92836,0.92836,A,145434.60
5.01741,57.68830541,11.97999782,57.68830633,11.98000367,14:54:34.733632,0.00635,0.00000,0.00000,-0.14702,0.00000,0.00214,-0.00126,-0.00392,-0.05014,-0.11657,0.99643,5.01185,0.00000,0.12751,0.12751,0.14786,-3.06764,4.98665,0.49530,-2.96520,0.92836,0.92836,A,145434.60
5.03366,57.68830546,11.97999811,57.68830633,11.98000367,14:54:34.751043,0.01219,0.00000,0.00000,0.00000,0.00000,0.00321,-0.00172,0.00341,-0.05081,-0.11767,0.99345,5.02118,0.00000,-1.40529,-1.40529,0.49530,-2.96520,4.98665,0.49530,-2.96520,0.92836,0.92836,A,145434.60
5.10729,57.68830633,11.98000367,57.68830633,11.98000367,14:54:34.824541,0.06096,0.00000,0.00000,-0.00216,-1.91225,0.00229,-0.00065,-0.00117,-0.05002,-0.11657,0.99174,5.04970,0.00000,-1.21180,-0.16803,0.49530,-2.96520,4.98665,0.49530,-2.96520,0.92836,0.92836,A,145434.60
