Time,lat_estimated,lon_estimated,latitude,longitude,RealTime,CalculationTime,MeasuredVelocity,Roll,SteeringAngle,RollRate,gy,gz,ax,ay,az,imu_read_timing,v_estimated,yaw_estimated,heading_estimated,x_estimated,y_estimated,GPS_timestamp,x_GPS,y_GPS,theta_GPS,theta_GPS_noUnwrap,status,NMEA timestamp
0.05594,57.68785800,11.98133917,57.68785800,11.98133917,16:14:05.823674,0.05590,0.00000,-0.00063,-0.00543,0.00714,-0.00287,-0.00387,-0.00885,-0.02611,1.00894,0.00001,0.00000,0.00161,0.00000,0.00000,0.00000,0.01900,0.00000,0.00000,0.00000,0.00000,A,161405.70
0.07386,57.68785800,11.98133917,57.68785800,11.98133917,16:14:05.840619,0.00587,0.00000,-0.00020,-0.00543,0.01676,0.00140,-0.00311,-0.00024,-0.02556,1.00034,0.06772,0.00000,0.00161,0.00000,0.00000,0.00000,0.01900,0.00000,0.00000,0.00000,0.00000,A,161405.70
0.08171,57.68785800,11.98133917,57.68785800,11.98133917,16:14:05.848466,0.00325,0.00000,-0.00073,-0.00543,0.02073,-0.00043,-0.00158,0.01251,-0.02861,0.99845,0.07829,0.00000,0.00161,0.00000,0.00000,0.00000,0.01900,0.00000,0.00000,0.00000,0.00000,A,161405.70
0.09198,57.68785800,11.98133917,57.68785800,11.98133917,16:14:05.858735,0.00313,0.00000,-0.00114,-0.00543,0.02439,-0.00364,-0.00113,0.00171,-0.02324,0.99900,0.08856,0.00000,0.00161,0.00000,0.00000,0.00000,0.01900,0.00000,0.00000,0.00000,0.00000,A,161405.70
0.10252,57.68785800,11.98133917,57.68785800,11.98133917,16:14:05.869273,0.00310,0.00000,-0.00166,-0.00543,0.03050,-0.00043,0.00117,-0.01787,-0.03630,1.00461,0.09911,0.00000,0.00161,0.00000,0.00000,0.00000,0.01900,0.00000,0.00000,0.00000,0.00000,A,161405.70
0.11311,57.68785800,11.98133917,57.68785800,11.98133917,16:14:05.879871,0.00330,0.00000,-0.00210,-0.00543,0.03081,0.00201,-0.00281,-0.02690,-0.03117,0.99991,0.10971,0.00000,0.00161,0.00000,0.00000,0.00000,0.01900,0.00000,0.00000,0.00000,0.00000,A,161405.70
0.13874,57.68785800,11.98133917,57.68785850,11.98133900,16:14:05.906461,0.01871,0.00000,-0.00256,-0.00543,0.02943,0.00201,-0.00051,-0.00665,-0.03087,0.99107,0.11961,0.00000,0.00161,0.00000,0.00000,0.00000,0.13548,-0.00991,0.05560,1.74712,1.74712,A,161405.80
0.15177,57.68785803,11.98133916,57.68785850,11.98133900,16:14:05.918573,0.00710,0.00000,-0.00240,-0.00543,0.03004,-0.00623,-0.00067,-0.01726,-0.02214,0.99015,0.14575,0.00000,0.26368,0.26207,-0.00050,0.00278,0.13548,-0.00991,0.05560,1.74712,1.74712,A,161405.80
0.15857,57.68785803,11.98133916,57.68785850,11.98133900,16:14:05.925351,0.00350,0.00000,-0.00267,-0.00543,0.03325,-0.00257,-0.00082,-0.03044,-0.02001,1.00369,0.15516,0.00000,0.26368,0.26207,-0.00050,0.00278,0.13548,-0.00991,0.05560,1.74712,1.74712,A,161405.80
0.16847,57.68785803,11.98133916,57.68785850,11.98133900,16:14:05.935247,0.00301,0.00000,-0.00302,-0.00543,0.03692,0.00232,-0.00128,-0.01080,-0.02885,1.01187,0.16506,0.00000,0.26368,0.26207,-0.00050,0.00278,0.13548,-0.00991,0.05560,1.74712,1.74712,A,161405.80
0.17864,57.68785803,11.98133916,57.68785850,11.98133900,16:14:05.945414,0.00295,0.00000,-0.00339,-0.00543,0.03264,0.00049,0.00132,0.00403,-0.02910,1.01303,0.17525,0.00000,0.26368,0.26207,-0.00050,0.00278,0.13548,-0.00991,0.05560,1.74712,1.74712,A,161405.80
0.18920,57.68785803,11.98133916,57.68785850,11.98133900,16:14:05.955972,0.00311,0.00000,-0.00368,-0.00543,0.03340,0.00491,0.00391,0.01720,-0.02477,1.00357,0.18581,0.00000,0.26368,0.26207,-0.00050,0.00278,0.13548,-0.00991,0.05560,1.74712,1.74712,A,161405.80
0.19962,57.68785803,11.98133916,57.68785850,11.98133900,16:14:05.966405,0.00314,0.00000,-0.00383,-0.00543,0.03783,-0.00578,0.00101,0.00165,-0.01800,0.99595,0.19601,0.00000,0.26368,0.26207,-0.00050,0.00278,0.13548,-0.00991,0.05560,1.74712,1.74712,A,161405.80
0.21003,57.68785803,11.98133916,57.68785850,11.98133900,16:14:05.976805,0.00315,0.00000,-0.00399,-0.00543,0.03631,-0.00150,-0.00021,-0.02318,-0.01824,0.98558,0.20662,0.00000,0.26368,0.26207,-0.00050,0.00278,0.13548,-0.00991,0.05560,1.74712,1.74712,A,161405.80
0.22041,57.68785803,11.98133916,57.68785850,11.98133900,16:14:05.987181,0.00313,0.00000,-0.00423,-0.00543,0.03432,0.00293,0.00025,-0.02562,-0.02245,0.99302,0.21700,0.00000,0.26368,0.26207,-0.00050,0.00278,0.13548,-0.00991,0.05560,1.74712,1.74712,A,161405.80
0.23077,57.68785803,11.98133916,57.68785850,11.98133900,16:14:05.997550,0.00299,0.00000,-0.00459,-0.00543,0.03096,0.00278,0.00422,-0.01598,-0.02775,0.99137,0.22737,0.00000,0.26368,0.26207,-0.00050,0.00278,0.13548,-0.00991,0.05560,1.74712,1.74712,A,161405.80
0.25741,57.68785803,11.98133916,57.68785883,11.98133850,16:14:06.024252,0.01923,0.00000,-0.00477,-0.00543,0.03340,0.00797,0.00132,0.01037,-0.01879,0.99509,0.23792,0.00000,0.26368,0.26207,-0.00050,0.00278,0.25276,-0.03962,0.09266,2.24663,2.24663,A,161405.90
0.26939,57.68785807,11.98133913,57.68785883,11.98133850,16:14:06.036157,0.00693,0.00000,-0.00432,-0.00543,0.03478,0.00461,-0.00128,-0.03337,-0.01330,1.03663,0.26373,0.00000,0.56137,0.55975,-0.00245,0.00727,0.25276,-0.03962,0.09266,2.24663,2.24663,A,161405.90
0.27599,57.68785807,11.98133913,57.68785883,11.98133850,16:14:06.042752,0.00314,0.00000,-0.00465,-0.00543,0.03906,0.01270,-0.00113,-0.00354,-0.02794,1.01236,0.27258,0.00000,0.56137,0.55975,-0.00245,0.00727,0.25276,-0.03962,0.09266,2.24663,2.24663,A,161405.90
0.28649,57.68785807,11.98133913,57.68785883,11.98133850,16:14:06.053249,0.00296,0.00000,-0.00501,-0.00543,0.03279,0.00217,-0.00021,0.02147,-0.02959,0.97893,0.28309,0.00000,0.56137,0.55975,-0.00245,0.00727,0.25276,-0.03962,0.09266,2.24663,2.24663,A,161405.90
0.29788,57.68785807,11.98133913,57.68785883,11.98133850,16:14:06.064638,0.00396,0.00000,-0.00526,-0.00543,0.03142,-0.00196,0.00117,0.01763,-0.02348,0.96471,0.29447,0.00000,0.56137,0.55975,-0.00245,0.00727,0.25276,-0.03962,0.09266,2.24663,2.24663,A,161405.90
0.30714,57.68785807,11.98133913,57.68785883,11.98133850,16:14:06.074118,0.00299,0.00000,-0.00529,-0.00543,0.03249,-0.01143,0.00407,-0.03288,-0.00586,0.98814,0.30375,0.00000,0.56137,0.55975,-0.00245,0.00727,0.25276,-0.03962,0.09266,2.24663,2.24663,A,161405.90
0.31845,57.68785807,11.98133913,57.68785883,11.98133850,16:14:06.085234,0.00391,0.00000,-0.00548,-0.00543,0.03402,-0.00364,-0.00006,-0.04185,-0.02068,1.00491,0.31429,0.00000,0.56137,0.55975,-0.00245,0.00727,0.25276,-0.03962,0.09266,2.24663,2.24663,A,161405.90
0.32810,57.68785807,11.98133913,57.68785883,11.98133850,16:14:06.094863,0.00316,0.00000,-0.00569,-0.00543,0.03570,0.00186,0.00743,-0.01787,-0.02269,1.00821,0.32468,0.00000,0.56137,0.55975,-0.00245,0.00727,0.25276,-0.03962,0.09266,2.24663,2.24663,A,161405.90
0.33846,57.68785807,11.98133913,57.68785883,11.98133850,16:14:06.105216,0.00295,0.00000,-0.00611,-0.00543,0.03676,0.00430,0.00819,0.00622,-0.03849,1.01071,0.33506,0.00000,0.56137,0.55975,-0.00245,0.00727,0.25276,-0.03962,0.09266,2.24663,2.24663,A,161405.90
0.34903,57.68785807,11.98133913,57.68785883,11.98133850,16:14:06.115791,0.00313,0.00000,-0.00638,-0.00543,0.03432,0.00140,0.00712,0.00238,-0.02733,1.01132,0.34563,0.00000,0.56137,0.55975,-0.00245,0.00727,0.25276,-0.03962,0.09266,2.24663,2.24663,A,161405.90
0.37576,57.68785807,11.98133913,57.68785917,11.98133817,16:14:06.143098,0.01946,0.00000,-0.00644,-0.00543,0.03310,0.00049,0.00865,-0.01092,-0.01220,1.01504,0.35606,0.00000,0.56137,0.55975,-0.00245,0.00727,0.37090,-0.05944,0.12973,2.06169,2.06169,A,161406.00
0.39172,57.68785812,11.98133908,57.68785917,11.98133817,16:14:06.158491,0.00712,0.00000,-0.00589,-0.00538,0.03646,0.00110,0.01048,-0.00037,-0.02092,1.00754,0.38611,0.00000,0.78665,0.78506,-0.00530,0.01340,0.37090,-0.05944,0.12973,2.06169,2.06169,A,161406.00
0.39830,57.68785812,11.98133908,57.68785917,11.98133817,16:14:06.165054,0.00330,0.00000,-0.00607,-0.00529,0.03157,-0.00012,0.00758,0.01586,-0.01476,1.00138,0.39489,0.00000,0.78665,0.78506,-0.00530,0.01340,0.37090,-0.05944,0.12973,2.06169,2.06169,A,161406.00
0.40869,57.68785812,11.98133908,57.68785917,11.98133817,16:14:06.175436,0.00317,0.00000,-0.00639,-0.00515,0.03066,-0.00471,0.00605,-0.00104,-0.02733,1.00473,0.40528,0.00000,0.78665,0.78506,-0.00530,0.01340,0.37090,-0.05944,0.12973,2.06169,2.06169,A,161406.00
0.41872,57.68785812,11.98133908,57.68785917,11.98133817,16:14:06.185468,0.00296,0.00000,-0.00655,-0.00498,0.03631,-0.00348,0.00285,-0.02562,-0.02025,1.02584,0.41532,0.00000,0.78665,0.78506,-0.00530,0.01340,0.37090,-0.05944,0.12973,2.06169,2.06169,A,161406.00
0.43440,57.68785812,11.98133908,57.68785917,11.98133817,16:14:06.201168,0.00811,5.62198,-0.00644,-0.00464,0.02684,0.00568,0.00453,-0.01568,-0.02690,1.01492,0.43095,0.00000,0.78665,0.78506,-0.00530,0.01340,0.37090,-0.05944,0.12973,2.06169,2.06169,A,161406.00
0.44359,57.68785812,11.98133908,57.68785917,11.98133817,16:14:06.210351,0.00689,5.62198,-0.00643,-0.00444,0.02516,0.00339,0.00391,0.00079,-0.01135,0.99839,0.43990,0.00000,0.78665,0.78506,-0.00530,0.01340,0.37090,-0.05944,0.12973,2.06169,2.06169,A,161406.00
0.45386,57.68785812,11.98133908,57.68785917,11.98133817,16:14:06.220622,0.00677,5.62198,-0.00638,-0.00425,0.02898,0.00201,0.00514,-0.00836,-0.01403,0.99326,0.45044,0.00000,0.78665,0.78506,-0.00530,0.01340,0.37090,-0.05944,0.12973,2.06169,2.06169,A,161406.00
0.46452,57.68785812,11.98133908,57.68785917,11.98133817,16:14:06.231280,0.00704,5.62198,-0.00617,-0.00413,0.02562,-0.00257,0.00376,-0.00213,-0.00116,0.98039,0.46107,0.00000,0.78665,0.78506,-0.00530,0.01340,0.37090,-0.05944,0.12973,2.06169,2.06169,A,161406.00
0.49040,57.68785812,11.98133908,57.68785950,11.98133783,16:14:06.257180,0.02268,5.62198,-0.00616,-0.00413,0.03004,0.00155,0.00193,-0.00604,-0.01202,0.97935,0.46938,0.00000,0.78665,0.78506,-0.00530,0.01340,0.48609,-0.07925,0.16679,2.06169,2.06169,A,161406.10
0.50935,57.68785819,11.98133902,57.68785950,11.98133783,16:14:06.276114,0.00975,5.62198,-0.00562,-0.00413,0.02058,0.00262,0.00651,-0.01781,-0.00701,1.00748,0.50364,1.12440,0.97809,0.97687,-0.00900,0.02107,0.48609,-0.07925,0.16679,2.06169,2.06169,A,161406.10
0.51763,57.68785819,11.98133902,57.68785950,11.98133783,16:14:06.284381,0.00681,5.62198,-0.00533,-0.00413,0.02760,0.00400,0.00544,0.00213,0.00476,1.01687,0.51421,1.12440,0.97809,0.97687,-0.00900,0.02107,0.48609,-0.07925,0.16679,2.06169,2.06169,A,161406.10
0.52632,57.68785819,11.98133902,57.68785950,11.98133783,16:14:06.293065,0.00510,5.62198,-0.00549,-0.00413,0.02470,0.00461,0.00468,-0.01153,-0.02074,1.00784,0.52290,1.12440,0.97809,0.97687,-0.00900,0.02107,0.48609,-0.07925,0.16679,2.06169,2.06169,A,161406.10
0.53699,57.68785819,11.98133902,57.68785950,11.98133783,16:14:06.303747,0.00534,5.62198,-0.00552,-0.00413,0.02058,0.00323,0.00605,0.00665,-0.01226,1.00656,0.53358,1.12440,0.97809,0.97687,-0.00900,0.02107,0.48609,-0.07925,0.16679,2.06169,2.06169,A,161406.10
0.54887,57.68785819,11.98133902,57.68785950,11.98133783,16:14:06.315621,0.00682,5.62198,-0.00562,-0.00413,0.01935,0.00217,0.00269,-0.00067,-0.01745,0.98680,0.54545,1.12440,0.97809,0.97687,-0.00900,0.02107,0.48609,-0.07925,0.16679,2.06169,2.06169,A,161406.10
0.55955,57.68785819,11.98133902,57.68785950,11.98133783,16:14:06.326325,0.00710,5.62198,-0.00556,-0.00413,0.01767,-0.00287,0.00285,-0.00982,-0.00415,0.97289,0.55588,1.12440,0.97809,0.97687,-0.00900,0.02107,0.48609,-0.07925,0.16679,2.06169,2.06169,A,161406.10
0.56953,57.68785819,11.98133902,57.68785950,11.98133783,16:14:06.336292,0.00669,5.62198,-0.00559,-0.00413,0.01615,0.00369,0.00208,-0.02428,-0.00866,0.98545,0.56611,1.12440,0.97809,0.97687,-0.00900,0.02107,0.48609,-0.07925,0.16679,2.06169,2.06169,A,161406.10
0.58018,57.68785819,11.98133902,57.68785950,11.98133783,16:14:06.346934,0.00693,5.62198,-0.00577,-0.00413,0.01493,0.00553,0.00132,-0.03825,-0.01842,1.00436,0.57673,1.12440,0.97809,0.97687,-0.00900,0.02107,0.48609,-0.07925,0.16679,2.06169,2.06169,A,161406.10
0.61737,57.68785819,11.98133902,57.68786100,11.98133767,16:14:06.384137,0.03373,5.62198,-0.00586,-0.00413,0.01416,0.00995,0.00086,-0.00756,-0.01153,1.00870,0.58677,1.12440,0.97809,0.97687,-0.00900,0.02107,0.61253,-0.08916,0.33358,1.63012,1.63012,A,161406.30
0.63627,57.68785932,11.98134020,57.68786100,11.98133767,16:14:06.403027,0.00884,5.62198,-0.00573,-0.00413,-0.00035,0.00782,-0.00204,-0.04636,0.01354,1.01565,0.63055,2.02391,1.07563,1.07440,0.06159,0.14716,0.61253,-0.08916,0.33358,1.63012,1.63012,A,161406.30
0.64445,57.68785932,11.98134020,57.68786100,11.98133767,16:14:06.411210,0.00682,5.62198,-0.00598,-0.00413,0.00256,0.01118,-0.00311,-0.01318,-0.01440,1.00357,0.64103,2.02391,1.07563,1.07440,0.06159,0.14716,0.61253,-0.08916,0.33358,1.63012,1.63012,A,161406.30
0.65466,57.68785932,11.98134020,57.68786100,11.98133767,16:14:06.421413,0.00679,5.62198,-0.00627,-0.00413,-0.00645,0.00919,-0.00174,0.02470,-0.01171,0.98253,0.65123,2.02391,1.07563,1.07440,0.06159,0.14716,0.61253,-0.08916,0.33358,1.63012,1.63012,A,161406.30
0.66531,57.68785932,11.98134020,57.68786100,11.98133767,16:14:06.432070,0.00686,5.62198,-0.00677,-0.00413,-0.00707,-0.00257,-0.00219,0.02525,-0.02428,0.95770,0.66185,2.02391,1.07563,1.07440,0.06159,0.14716,0.61253,-0.08916,0.33358,1.63012,1.63012,A,161406.30
0.67567,57.68785932,11.98134020,57.68786100,11.98133767,16:14:06.442449,0.00682,5.62198,-0.00674,-0.00413,-0.00630,-0.00975,-0.00311,-0.01110,0.00836,0.96892,0.67200,2.02391,1.07563,1.07440,0.06159,0.14716,0.61253,-0.08916,0.33358,1.63012,1.63012,A,161406.30
0.68613,57.68785932,11.98134020,57.68786100,11.98133767,16:14:06.452895,0.00673,5.62198,-0.00700,-0.00413,-0.01409,-0.00990,-0.00342,-0.02062,-0.00439,0.98588,0.68269,2.02391,1.07563,1.07440,0.06159,0.14716,0.61253,-0.08916,0.33358,1.63012,1.63012,A,161406.30
0.69599,57.68785932,11.98134020,57.68786100,11.98133767,16:14:06.462934,0.00618,5.62198,-0.00717,-0.00413,-0.01592,-0.00746,-0.00372,-0.02172,0.00116,0.99936,0.69255,2.02391,1.07563,1.07440,0.06159,0.14716,0.61253,-0.08916,0.33358,1.63012,1.63012,A,161406.30
0.70652,57.68785932,11.98134020,57.68786100,11.98133767,16:14:06.473291,0.00632,5.62198,-0.00760,-0.00413,-0.00905,-0.00730,-0.00250,0.01403,-0.02031,0.99430,0.70266,2.02391,1.07563,1.07440,0.06159,0.14716,0.61253,-0.08916,0.33358,1.63012,1.63012,A,161406.30
0.73302,57.68785932,11.98134020,57.68786117,11.98133667,16:14:06.499794,0.02242,5.62198,-0.00840,-0.00413,-0.01730,-0.00700,-0.00616,-0.00342,-0.04020,1.00034,0.71213,2.02391,1.07563,1.07440,0.06159,0.14716,0.72888,-0.14859,0.35212,2.83935,2.83935,A,161406.40
0.74770,57.68786107,11.98134170,57.68786117,11.98133667,16:14:06.514481,0.00822,5.62198,-0.00907,-0.00413,-0.02814,-0.00486,-0.00143,-0.02568,0.00988,0.99015,0.74129,2.74352,1.33967,1.33844,0.15053,0.34103,0.72888,-0.14859,0.35212,2.83935,2.83935,A,161406.40
0.75638,57.68786107,11.98134170,57.68786117,11.98133667,16:14:06.523136,0.00650,5.62198,-0.00941,-0.00413,-0.02860,-0.00348,0.00132,-0.00933,-0.00037,0.98637,0.75294,2.74352,1.33967,1.33844,0.15053,0.34103,0.72888,-0.14859,0.35212,2.83935,2.83935,A,161406.40
0.76624,57.68786107,11.98134170,57.68786117,11.98133667,16:14:06.533004,0.00597,5.62198,-0.00958,-0.00413,-0.02722,-0.00364,-0.00082,0.01336,0.00647,0.99936,0.76279,2.74352,1.33967,1.33844,0.15053,0.34103,0.72888,-0.14859,0.35212,2.83935,2.83935,A,161406.40
0.77700,57.68786107,11.98134170,57.68786117,11.98133667,16:14:06.543761,0.00630,5.62198,-0.01010,-0.00413,-0.02783,-0.00578,-0.00296,-0.01714,-0.01513,1.02681,0.77358,2.74352,1.33967,1.33844,0.15053,0.34103,0.72888,-0.14859,0.35212,2.83935,2.83935,A,161406.40
0.78802,57.68786107,11.98134170,57.68786117,11.98133667,16:14:06.554786,0.00693,5.62198,-0.01064,-0.00413,-0.03058,0.00598,0.00010,-0.03916,-0.01409,1.02626,0.78456,2.74352,1.33967,1.33844,0.15053,0.34103,0.72888,-0.14859,0.35212,2.83935,2.83935,A,161406.40
0.79851,57.68786107,11.98134170,57.68786117,11.98133667,16:14:06.565261,0.00687,5.62198,-0.01138,-0.00413,-0.03959,0.00934,-0.00082,-0.03837,-0.02348,1.01547,0.79508,2.74352,1.33967,1.33844,0.15053,0.34103,0.72888,-0.14859,0.35212,2.83935,2.83935,A,161406.40
0.80895,57.68786107,11.98134170,57.68786117,11.98133667,16:14:06.575718,0.00692,5.62198,-0.01194,-0.00413,-0.04234,0.01545,-0.00479,-0.01031,-0.01013,0.99918,0.80547,2.74352,1.33967,1.33844,0.15053,0.34103,0.72888,-0.14859,0.35212,2.83935,2.83935,A,161406.40
0.81823,57.68786107,11.98134170,57.68786117,11.98133667,16:14:06.585002,0.00580,5.62198,-0.01214,-0.00413,-0.04509,0.01820,-0.00448,0.00451,0.00915,0.98460,0.81400,2.74352,1.33967,1.33844,0.15053,0.34103,0.72888,-0.14859,0.35212,2.83935,2.83935,A,161406.40
0.82970,57.68786107,11.98134170,57.68786117,11.98133667,16:14:06.596492,0.00688,5.62198,-0.01254,-0.00413,-0.04311,0.00919,-0.00403,0.00470,0.00378,0.99515,0.82570,2.74352,1.33967,1.33844,0.15053,0.34103,0.72888,-0.14859,0.35212,2.83935,2.83935,A,161406.40
0.85473,57.68786107,11.98134170,57.68786217,11.98133650,16:14:06.621498,0.02152,5.62198,-0.01290,-0.00413,-0.04769,0.00537,-0.00494,-0.00927,0.00348,1.00674,0.83541,2.74352,1.33967,1.33844,0.15053,0.34103,0.85152,-0.15850,0.46331,1.65965,1.65965,A,161406.50
0.87046,57.68786386,11.98134265,57.68786217,11.98133650,16:14:06.637227,0.00940,5.62198,-0.01453,-0.00413,-0.04127,-0.00257,-0.00418,-0.00531,-0.03459,1.01516,0.86403,3.31921,1.38679,1.38556,0.20718,0.65184,0.85152,-0.15850,0.46331,1.65965,1.65965,A,161406.50
0.87766,57.68786386,11.98134265,57.68786217,11.98133650,16:14:06.644811,0.00593,5.62198,-0.01543,-0.00413,-0.03959,0.00079,-0.00311,0.01763,-0.03788,0.98344,0.87424,3.31921,1.38679,1.38556,0.20718,0.65184,0.85152,-0.15850,0.46331,1.65965,1.65965,A,161406.50
0.88710,57.68786386,11.98134265,57.68786217,11.98133650,16:14:06.654094,0.00497,5.62198,-0.01620,-0.00413,-0.04662,0.00125,-0.00265,0.00543,-0.02739,0.95447,0.88368,3.31921,1.38679,1.38556,0.20718,0.65184,0.85152,-0.15850,0.46331,1.65965,1.65965,A,161406.50
0.89975,57.68786386,11.98134265,57.68786217,11.98133650,16:14:06.666663,0.00713,5.62198,-0.01698,-0.00413,-0.04051,-0.00425,0.00208,-0.00061,-0.02470,0.93617,0.89611,3.31921,1.38679,1.38556,0.20718,0.65184,0.85152,-0.15850,0.46331,1.65965,1.65965,A,161406.50
0.90926,57.68786386,11.98134265,57.68786217,11.98133650,16:14:06.676030,0.00624,5.62198,-0.01736,-0.00413,-0.04051,-0.01173,0.00666,0.00299,-0.00744,0.94959,0.90578,3.31921,1.38679,1.38556,0.20718,0.65184,0.85152,-0.15850,0.46331,1.65965,1.65965,A,161406.50
0.91835,57.68786386,11.98134265,57.68786217,11.98133650,16:14:06.685100,0.00494,5.62198,-0.01769,-0.00413,-0.02982,-0.01173,0.00804,-0.00970,-0.01183,0.98521,0.91493,3.31921,1.38679,1.38556,0.20718,0.65184,0.85152,-0.15850,0.46331,1.65965,1.65965,A,161406.50
0.92812,57.68786386,11.98134265,57.68786217,11.98133650,16:14:06.694880,0.00440,5.62198,-0.01821,-0.00413,-0.03150,-0.00929,0.00544,-0.01946,-0.02245,1.02565,0.92469,3.31921,1.38679,1.38556,0.20718,0.65184,0.85152,-0.15850,0.46331,1.65965,1.65965,A,161406.50
0.93956,57.68786386,11.98134265,57.68786217,11.98133650,16:14:06.706335,0.00545,5.62198,-0.01874,-0.00413,-0.02509,0.00003,0.00223,0.00842,-0.02617,1.05011,0.93592,3.31921,1.38679,1.38556,0.20718,0.65184,0.85152,-0.15850,0.46331,1.65965,1.65965,A,161406.50
0.95162,57.68786386,11.98134265,57.68786217,11.98133650,16:14:06.718386,0.00710,5.62198,-0.01938,-0.00413,-0.03074,-0.00058,0.00117,-0.00055,-0.02843,1.05365,0.94797,3.31921,1.38679,1.38556,0.20718,0.65184,0.85152,-0.15850,0.46331,1.65965,1.65965,A,161406.50
0.97627,57.68786386,11.98134265,57.68786283,11.98133567,16:14:06.743037,0.02137,5.62198,-0.01996,-0.00413,-0.02509,0.00018,0.00117,0.01610,-0.03416,1.03310,0.95709,3.31921,1.38679,1.38556,0.20718,0.65184,0.97291,-0.20803,0.53744,2.15984,2.15984,A,161406.60
0.98773,57.68786701,11.98134343,57.68786283,11.98133567,16:14:06.754500,0.00657,5.62198,-0.02042,-0.00413,-0.02463,-0.00333,-0.00021,0.00482,-0.00134,0.98283,0.98172,3.77977,1.50171,1.50048,0.25312,1.00209,0.97291,-0.20803,0.53744,2.15984,2.15984,A,161406.60
0.99620,57.68786701,11.98134343,57.68786283,11.98133567,16:14:06.762955,0.00455,5.62198,-0.02096,-0.00413,-0.02264,-0.00684,0.00223,0.00348,-0.02995,0.96996,0.99276,3.77977,1.50171,1.50048,0.25312,1.00209,0.97291,-0.20803,0.53744,2.15984,2.15984,A,161406.60
1.00649,57.68786701,11.98134343,57.68786283,11.98133567,16:14:06.773239,0.00433,5.62198,-0.02158,-0.00413,-0.02127,-0.00914,0.00239,0.01903,-0.03727,0.95691,1.00307,3.77977,1.50171,1.50048,0.25312,1.00209,0.97291,-0.20803,0.53744,2.15984,2.15984,A,161406.60
1.01694,57.68786701,11.98134343,57.68786283,11.98133567,16:14:06.783684,0.00438,5.62198,-0.02227,-0.00413,-0.02677,-0.01341,0.00605,-0.01555,-0.03867,0.98094,1.01353,3.77977,1.50171,1.50048,0.25312,1.00209,0.97291,-0.20803,0.53744,2.15984,2.15984,A,161406.60
1.03150,57.68786701,11.98134343,57.68786283,11.98133567,16:14:06.798271,0.00845,5.62198,-0.02275,-0.00413,-0.02585,-0.00639,0.00956,-0.01055,-0.02037,1.00516,1.02788,3.77977,1.50171,1.50048,0.25312,1.00209,0.97291,-0.20803,0.53744,2.15984,2.15984,A,161406.60
1.04028,57.68786701,11.98134343,57.68786283,11.98133567,16:14:06.807039,0.00682,5.62198,-0.02295,-0.00413,-0.01989,-0.00440,0.00956,-0.00256,-0.01513,0.99515,1.03683,3.77977,1.50171,1.50048,0.25312,1.00209,0.97291,-0.20803,0.53744,2.15984,2.15984,A,161406.60
1.05011,57.68786701,11.98134343,57.68786283,11.98133567,16:14:06.816884,0.00642,5.62198,-0.02297,-0.00413,-0.02234,-0.00700,0.00850,0.00610,-0.00037,1.00064,1.04633,3.77977,1.50171,1.50048,0.25312,1.00209,0.97291,-0.20803,0.53744,2.15984,2.15984,A,161406.60
1.06120,57.68786701,11.98134343,57.68786283,11.98133567,16:14:06.827957,0.00711,5.62198,-0.02319,-0.00413,-0.02066,-0.00746,0.00682,0.00012,-0.01311,1.01205,1.05778,3.77977,1.50171,1.50048,0.25312,1.00209,0.97291,-0.20803,0.53744,2.15984,2.15984,A,161406.60
1.07105,57.68786701,11.98134343,57.68786283,11.98133567,16:14:06.838036,0.00657,5.62198,-0.02347,-0.00413,-0.02325,-0.01005,0.00697,-0.01305,-0.01720,1.01974,1.06763,3.77977,1.50171,1.50048,0.25312,1.00209,0.97291,-0.20803,0.53744,2.15984,2.15984,A,161406.60
1.11326,57.68786701,11.98134343,57.68786417,11.98133467,16:14:06.880045,0.03838,5.62198,-0.02372,-0.00413,-0.02371,-0.01219,0.00330,-0.01921,-0.01385,1.00418,1.07833,3.77977,1.50171,1.50048,0.25312,1.00209,1.10817,-0.26747,0.68570,1.95208,1.95208,A,161406.80
1.13336,57.68787150,11.98134360,57.68786417,11.98133467,16:14:06.900116,0.00884,5.62198,-0.02522,-0.00413,-0.02753,0.00827,0.00300,0.00445,-0.02458,0.99802,1.12767,4.14821,1.56770,1.56648,0.26336,1.50121,1.10817,-0.26747,0.68570,1.95208,1.95208,A,161406.80
1.14270,57.68787150,11.98134360,57.68786417,11.98133467,16:14:06.909499,0.00797,5.62198,-0.02559,-0.00413,-0.02753,0.00278,0.00361,0.00006,-0.02062,0.99680,1.13862,4.14821,1.56770,1.56648,0.26336,1.50121,1.10817,-0.26747,0.68570,1.95208,1.95208,A,161406.80
1.15194,57.68787150,11.98134360,57.68786417,11.98133467,16:14:06.918718,0.00682,5.62198,-0.02591,-0.00413,-0.02524,0.00430,0.00162,-0.00396,-0.02227,1.01547,1.14775,4.14821,1.56770,1.56648,0.26336,1.50121,1.10817,-0.26747,0.68570,1.95208,1.95208,A,161406.80
1.16249,57.68787150,11.98134360,57.68786417,11.98133467,16:14:06.929253,0.00684,5.62198,-0.02650,-0.00413,-0.02066,0.00843,0.00162,-0.01372,-0.04160,1.01943,1.15847,4.14821,1.56770,1.56648,0.26336,1.50121,1.10817,-0.26747,0.68570,1.95208,1.95208,A,161406.80
1.17296,57.68787150,11.98134360,57.68786417,11.98133467,16:14:06.939720,0.00692,5.62198,-0.02702,-0.00413,-0.02447,0.00904,0.00040,0.00659,-0.03416,1.00308,1.16952,4.14821,1.56770,1.56648,0.26336,1.50121,1.10817,-0.26747,0.68570,1.95208,1.95208,A,161406.80
1.18315,57.68787150,11.98134360,57.68786417,11.98133467,16:14:06.950154,0.00672,5.62198,-0.02759,-0.00413,-0.03104,0.00598,-0.00418,0.02995,-0.03398,0.97874,1.17968,4.14821,1.56770,1.56648,0.26336,1.50121,1.10817,-0.26747,0.68570,1.95208,1.95208,A,161406.80
1.19389,57.68787150,11.98134360,57.68786417,11.98133467,16:14:06.960644,0.00705,5.62198,-0.02796,-0.00413,-0.02631,-0.00623,-0.00540,0.01421,-0.02373,0.97984,1.19045,4.14821,1.56770,1.56648,0.26336,1.50121,1.10817,-0.26747,0.68570,1.95208,1.95208,A,161406.80
1.20410,57.68787150,11.98134360,57.68786417,11.98133467,16:14:06.970870,0.00688,5.62198,-0.02813,-0.00413,-0.02081,-0.00807,-0.00281,-0.03312,-0.01598,0.99412,1.20063,4.14821,1.56770,1.56648,0.26336,1.50121,1.10817,-0.26747,0.68570,1.95208,1.95208,A,161406.80
1.23066,57.68787150,11.98134360,57.68786500,11.98133400,16:14:06.997460,0.02302,5.62198,-0.02859,-0.00413,-0.02050,-0.00074,-0.00662,-0.02141,-0.03782,0.99723,1.20909,4.14821,1.56770,1.56648,0.26336,1.50121,1.22580,-0.30709,0.77836,1.97489,1.97489,A,161406.90
1.24550,57.68787506,11.98134315,57.68786500,11.98133400,16:14:07.012267,0.00830,5.62198,-0.02925,-0.00413,-0.01638,-0.00180,0.00071,-0.01574,-0.03117,1.03078,1.23892,4.44296,1.62751,1.62628,0.23670,1.89721,1.22580,-0.30709,0.77836,1.97489,1.97489,A,161406.90
1.25434,57.68787506,11.98134315,57.68786500,11.98133400,16:14:07.021105,0.00687,5.62198,-0.02940,-0.00413,-0.00661,0.00629,0.00559,-0.01873,-0.02550,1.03791,1.25089,4.44296,1.62751,1.62628,0.23670,1.89721,1.22580,-0.30709,0.77836,1.97489,1.97489,A,161406.90
1.26156,57.68787506,11.98134315,57.68786500,11.98133400,16:14:07.028303,0.00334,0.88114,-0.02972,-0.00413,-0.00584,0.00980,0.00590,-0.02403,-0.02800,1.03779,1.25815,4.44296,1.62751,1.62628,0.23670,1.89721,1.22580,-0.30709,0.77836,1.97489,1.97489,A,161406.90
1.27175,57.68787506,11.98134315,57.68786500,11.98133400,16:14:07.038509,0.00314,0.88114,-0.03010,-0.00413,0.00057,0.01912,0.00330,-0.00982,-0.03501,1.00674,1.26814,4.44296,1.62751,1.62628,0.23670,1.89721,1.22580,-0.30709,0.77836,1.97489,1.97489,A,161406.90
1.28212,57.68787506,11.98134315,57.68786500,11.98133400,16:14:07.048873,0.00311,0.88114,-0.03065,-0.00413,-0.00157,0.02049,0.00575,0.00458,-0.04355,0.96697,1.27873,4.44296,1.62751,1.62628,0.23670,1.89721,1.22580,-0.30709,0.77836,1.97489,1.97489,A,161406.90
1.29244,57.68787506,11.98134315,57.68786500,11.98133400,16:14:07.059188,0.00304,0.88114,-0.03095,-0.00413,0.00164,0.01652,-0.00158,0.00701,-0.02977,0.96343,1.28904,4.44296,1.62751,1.62628,0.23670,1.89721,1.22580,-0.30709,0.77836,1.97489,1.97489,A,161406.90
1.30263,57.68787506,11.98134315,57.68786500,11.98133400,16:14:07.069381,0.00296,0.88114,-0.03127,-0.00413,0.00301,0.02126,-0.00036,-0.01391,-0.03331,0.98820,1.29923,4.44296,1.62751,1.62628,0.23670,1.89721,1.22580,-0.30709,0.77836,1.97489,1.97489,A,161406.90
1.31319,57.68787506,11.98134315,57.68786500,11.98133400,16:14:07.079945,0.00313,0.88114,-0.03134,-0.00413,0.00179,0.01240,-0.00265,-0.01793,-0.01610,1.00443,1.30979,4.44296,1.62751,1.62628,0.23670,1.89721,1.22580,-0.30709,0.77836,1.97489,1.97489,A,161406.90
1.32358,57.68787506,11.98134315,57.68786500,11.98133400,16:14:07.090334,0.00312,0.88114,-0.03172,-0.00413,0.00714,0.02003,-0.00357,0.05642,-0.04124,1.00412,1.31999,4.44296,1.62751,1.62628,0.23670,1.89721,1.22580,-0.30709,0.77836,1.97489,1.97489,A,161406.90
1.34929,57.68787506,11.98134315,57.68786583,11.98133350,16:14:07.116051,0.01843,0.88114,-0.03231,-0.00413,0.00958,0.00201,-0.00265,0.05368,-0.05795,1.02144,1.33072,4.44296,1.62751,1.62628,0.23670,1.89721,1.34555,-0.33681,0.87103,1.88115,1.88115,A,161407.00
1.36185,57.68787888,11.98134222,57.68786583,11.98133350,16:14:07.128620,0.00772,0.88114,-0.03224,-0.00413,0.02103,-0.01769,-0.00174,-0.04465,-0.04172,1.04249,1.35485,3.73060,1.66413,1.66290,0.18159,2.32185,1.34555,-0.33681,0.87103,1.88115,1.88115,A,161407.00
1.36768,57.68787888,11.98134222,57.68786583,11.98133350,16:14:07.134434,0.00315,0.88114,-0.03250,-0.00413,0.02058,-0.01219,-0.00051,-0.03453,-0.04240,1.01882,1.36406,3.73060,1.66413,1.66290,0.18159,2.32185,1.34555,-0.33681,0.87103,1.88115,1.88115,A,161407.00
1.37804,57.68787888,11.98134222,57.68786583,11.98133350,16:14:07.144779,0.00312,0.88114,-0.03316,-0.00413,0.02394,-0.00761,0.00178,0.00634,-0.07088,0.97539,1.37464,3.73060,1.66413,1.66290,0.18159,2.32185,1.34555,-0.33681,0.87103,1.88115,1.88115,A,161407.00
1.38843,57.68787888,11.98134222,57.68786583,11.98133350,16:14:07.155182,0.00311,0.88114,-0.03347,-0.00413,0.02699,-0.01326,0.00468,0.03971,-0.04862,0.94446,1.38503,3.73060,1.66413,1.66290,0.18159,2.32185,1.34555,-0.33681,0.87103,1.88115,1.88115,A,161407.00
1.39889,57.68787888,11.98134222,57.68786583,11.98133350,16:14:07.165638,0.00301,0.88114,-0.03344,-0.00413,0.02501,-0.01158,0.00575,-0.04093,-0.02672,0.96929,1.39549,3.73060,1.66413,1.66290,0.18159,2.32185,1.34555,-0.33681,0.87103,1.88115,1.88115,A,161407.00
1.40939,57.68787888,11.98134222,57.68786583,11.98133350,16:14:07.176135,0.00310,0.88114,-0.03297,-0.00413,0.02302,-0.00287,0.00101,-0.08351,0.00262,1.00040,1.40599,3.73060,1.66413,1.66290,0.18159,2.32185,1.34555,-0.33681,0.87103,1.88115,1.88115,A,161407.00
1.41980,57.68787888,11.98134222,57.68786583,11.98133350,16:14:07.186548,0.00312,0.88114,-0.03297,-0.00413,0.03417,0.01316,-0.00784,-0.02904,-0.03404,0.96911,1.41620,3.73060,1.66413,1.66290,0.18159,2.32185,1.34555,-0.33681,0.87103,1.88115,1.88115,A,161407.00
1.43017,57.68787888,11.98134222,57.68786583,11.98133350,16:14:07.196920,0.00310,0.88114,-0.03289,-0.00413,0.02333,0.01377,-0.01182,0.03361,-0.02220,0.96856,1.42678,3.73060,1.66413,1.66290,0.18159,2.32185,1.34555,-0.33681,0.87103,1.88115,1.88115,A,161407.00
1.44059,57.68787888,11.98134222,57.68786583,11.98133350,16:14:07.207337,0.00311,0.88114,-0.03312,-0.00413,0.02058,0.00827,-0.01716,0.02220,-0.04075,0.98149,1.43718,3.73060,1.66413,1.66290,0.18159,2.32185,1.34555,-0.33681,0.87103,1.88115,1.88115,A,161407.00
1.46622,57.68787888,11.98134222,57.68786683,11.98133267,16:14:07.232979,0.01847,0.88114,-0.03290,-0.00425,0.02103,-0.00028,-0.02098,0.01818,-0.01251,1.02883,1.44731,3.73060,1.66413,1.66290,0.18159,2.32185,1.46286,-0.38634,0.98222,1.98985,1.98985,A,161407.10
1.47643,57.68788185,11.98134113,57.68786683,11.98133267,16:14:07.243192,0.00548,0.88114,-0.03243,-0.00558,0.03096,0.00079,-0.02648,-0.00305,-0.02904,1.03072,1.47074,3.16071,1.71189,1.71023,0.11652,2.65200,1.46286,-0.38634,0.98222,1.98985,1.98985,A,161407.10
1.48444,57.68788185,11.98134113,57.68786683,11.98133267,16:14:07.251191,0.00309,0.88114,-0.03270,-0.00642,0.02699,-0.00089,-0.02098,0.01629,-0.04801,0.99162,1.48103,3.16071,1.71189,1.71023,0.11652,2.65200,1.46286,-0.38634,0.98222,1.98985,1.98985,A,161407.10
1.49462,57.68788185,11.98134113,57.68786683,11.98133267,16:14:07.261365,0.00296,0.88114,-0.03277,-0.00730,0.02867,-0.00776,-0.01487,-0.01293,-0.03471,0.97887,1.49122,3.16071,1.71189,1.71023,0.11652,2.65200,1.46286,-0.38634,0.98222,1.98985,1.98985,A,161407.10
1.50516,57.68788185,11.98134113,57.68786683,11.98133267,16:14:07.272087,0.00311,0.88114,-0.03268,-0.00812,0.03570,-0.00074,-0.00784,0.01287,-0.03032,0.95800,1.50176,3.16071,1.71189,1.71023,0.11652,2.65200,1.46286,-0.38634,0.98222,1.98985,1.98985,A,161407.10
1.51559,57.68788185,11.98134113,57.68786683,11.98133267,16:14:07.282343,0.00313,0.88114,-0.03242,-0.00883,0.03829,-0.00669,0.00254,-0.04764,-0.01989,0.96898,1.51199,3.16071,1.71189,1.71023,0.11652,2.65200,1.46286,-0.38634,0.98222,1.98985,1.98985,A,161407.10
1.52597,57.68788185,11.98134113,57.68786683,11.98133267,16:14:07.292713,0.00312,0.88114,-0.03222,-0.00945,0.03661,-0.00684,0.00483,-0.00006,-0.02275,0.96221,1.52256,3.16071,1.71189,1.71023,0.11652,2.65200,1.46286,-0.38634,0.98222,1.98985,1.98985,A,161407.10
1.53813,57.68788185,11.98134113,57.68786683,11.98133267,16:14:07.304894,0.00423,0.88114,-0.03212,-0.01002,0.03585,-0.00959,-0.00082,0.04362,-0.03294,0.95959,1.53471,3.16071,1.71189,1.71023,0.11652,2.65200,1.46286,-0.38634,0.98222,1.98985,1.98985,A,161407.10
1.54745,57.68788185,11.98134113,57.68786683,11.98133267,16:14:07.314211,0.00315,0.88114,-0.03196,-0.01042,0.03799,-0.01891,-0.00479,0.02373,-0.02330,0.97521,1.54386,3.16071,1.71189,1.71023,0.11652,2.65200,1.46286,-0.38634,0.98222,1.98985,1.98985,A,161407.10
1.55782,57.68788185,11.98134113,57.68786683,11.98133267,16:14:07.324570,0.00312,0.88114,-0.03160,-0.01078,0.03035,-0.01402,-0.01701,-0.04490,-0.00860,1.04517,1.55443,3.16071,1.71189,1.71023,0.11652,2.65200,1.46286,-0.38634,0.98222,1.98985,1.98985,A,161407.10
1.58343,57.68788185,11.98134113,57.68786767,11.98133183,16:14:07.350206,0.01834,0.88114,-0.03119,-0.01104,0.02439,0.00155,-0.02037,-0.06673,-0.00110,1.07476,1.56482,3.16071,1.71189,1.71023,0.11652,2.65200,1.57974,-0.43587,1.07488,2.06169,2.06169,A,161407.20
1.59448,57.68788422,11.98133985,57.68786767,11.98133183,16:14:07.361635,0.00623,0.88114,-0.03100,-0.01121,0.01645,0.00858,-0.02755,0.03520,-0.02306,1.00211,1.58785,2.70479,1.76328,1.75996,0.04091,2.91506,1.57974,-0.43587,1.07488,2.06169,2.06169,A,161407.20
1.60181,57.68788422,11.98133985,57.68786767,11.98133183,16:14:07.368555,0.00317,0.88114,-0.03094,-0.01121,0.01370,-0.00074,-0.02312,0.01793,-0.01562,0.98789,1.59841,2.70479,1.76328,1.75996,0.04091,2.91506,1.57974,-0.43587,1.07488,2.06169,2.06169,A,161407.20
1.61216,57.68788422,11.98133985,57.68786767,11.98133183,16:14:07.378909,0.00311,0.88114,-0.03066,-0.01124,0.02149,-0.00883,-0.01579,0.01183,-0.00683,0.94660,1.60875,2.70479,1.76328,1.75996,0.04091,2.91506,1.57974,-0.43587,1.07488,2.06169,2.06169,A,161407.20
1.62250,57.68788422,11.98133985,57.68786767,11.98133183,16:14:07.389249,0.00293,0.88114,-0.03063,-0.01129,0.02180,-0.01708,-0.01014,-0.02245,-0.02196,0.95044,1.61911,2.70479,1.76328,1.75996,0.04091,2.91506,1.57974,-0.43587,1.07488,2.06169,2.06169,A,161407.20
1.63322,57.68788422,11.98133985,57.68786767,11.98133183,16:14:07.399971,0.00326,0.88114,-0.03078,-0.01143,0.02775,-0.00746,-0.00601,-0.00647,-0.03788,0.95849,1.62982,2.70479,1.76328,1.75996,0.04091,2.91506,1.57974,-0.43587,1.07488,2.06169,2.06169,A,161407.20
1.64349,57.68788422,11.98133985,57.68786767,11.98133183,16:14:07.410254,0.00313,0.88114,-0.03135,-0.01166,0.01981,-0.01295,-0.00586,-0.02824,-0.05978,0.96892,1.63990,2.70479,1.76328,1.75996,0.04091,2.91506,1.57974,-0.43587,1.07488,2.06169,2.06169,A,161407.20
1.65388,57.68788422,11.98133985,57.68786767,11.98133183,16:14:07.420632,0.00312,0.88114,-0.03150,-0.01192,0.01432,-0.00791,-0.00739,-0.01092,-0.03074,0.98582,1.65049,2.70479,1.76328,1.75996,0.04091,2.91506,1.57974,-0.43587,1.07488,2.06169,2.06169,A,161407.20
1.66445,57.68788422,11.98133985,57.68786767,11.98133183,16:14:07.431197,0.00313,0.88114,-0.03130,-0.01217,0.01019,-0.00242,-0.00891,-0.04819,-0.00506,1.01955,1.66104,2.70479,1.76328,1.75996,0.04091,2.91506,1.57974,-0.43587,1.07488,2.06169,2.06169,A,161407.20
1.67461,57.68788422,11.98133985,57.68786767,11.98133183,16:14:07.441355,0.00295,0.88114,-0.03077,-0.01234,0.01065,0.00858,-0.01380,0.00000,0.01836,1.07043,1.67121,2.70479,1.76328,1.75996,0.04091,2.91506,1.57974,-0.43587,1.07488,2.06169,2.06169,A,161407.20
1.71140,57.68788422,11.98133985,57.68786933,11.98133017,16:14:07.478180,0.02934,0.88114,-0.03062,-0.01237,0.00928,0.00385,-0.01869,-0.00195,-0.00781,1.07061,1.68176,2.70479,1.76328,1.75996,0.04091,2.91506,1.70805,-0.53493,1.26021,2.06169,2.06169,A,161407.40
1.72151,57.68788631,11.98133835,57.68786933,11.98133017,16:14:07.488265,0.00523,0.88114,-0.03050,-0.01237,0.00698,-0.02899,-0.02174,-0.02586,-0.01757,0.97106,1.71588,2.34006,1.80565,1.80198,-0.04827,3.14776,1.70805,-0.53493,1.26021,2.06169,2.06169,A,161407.40
1.72982,57.68788631,11.98133835,57.68786933,11.98133017,16:14:07.496565,0.00314,0.88114,-0.03110,-0.01237,0.00653,-0.02609,-0.01777,-0.04063,-0.05142,0.94166,1.72642,2.34006,1.80565,1.80198,-0.04827,3.14776,1.70805,-0.53493,1.26021,2.06169,2.06169,A,161407.40
1.74013,57.68788631,11.98133835,57.68786933,11.98133017,16:14:07.506891,0.00320,0.88114,-0.03160,-0.01237,0.00103,-0.02334,-0.01411,-0.01726,-0.04325,0.95660,1.73671,2.34006,1.80565,1.80198,-0.04827,3.14776,1.70805,-0.53493,1.26021,2.06169,2.06169,A,161407.40
1.75082,57.68788631,11.98133835,57.68786933,11.98133017,16:14:07.517572,0.00308,0.88114,-0.03201,-0.01237,0.00088,-0.01753,-0.00876,-0.06088,-0.03916,1.00162,1.74741,2.34006,1.80565,1.80198,-0.04827,3.14776,1.70805,-0.53493,1.26021,2.06169,2.06169,A,161407.40
1.76147,57.68788631,11.98133835,57.68786933,11.98133017,16:14:07.528235,0.00333,0.88114,-0.03185,-0.01237,-0.00248,-0.00410,-0.00708,-0.01177,0.00024,1.02346,1.75785,2.34006,1.80565,1.80198,-0.04827,3.14776,1.70805,-0.53493,1.26021,2.06169,2.06169,A,161407.40
1.77165,57.68788631,11.98133835,57.68786933,11.98133017,16:14:07.538401,0.00311,0.88114,-0.03164,-0.01237,0.00362,-0.00242,-0.01075,0.01623,-0.00006,1.02736,1.76805,2.34006,1.80565,1.80198,-0.04827,3.14776,1.70805,-0.53493,1.26021,2.06169,2.06169,A,161407.40
1.78214,57.68788631,11.98133835,57.68786933,11.98133017,16:14:07.548894,0.00322,0.88114,-0.03190,-0.01237,0.00057,-0.00303,-0.01304,-0.03892,-0.03056,1.05646,1.77863,2.34006,1.80565,1.80198,-0.04827,3.14776,1.70805,-0.53493,1.26021,2.06169,2.06169,A,161407.40
1.79257,57.68788631,11.98133835,57.68786933,11.98133017,16:14:07.559319,0.00325,0.88114,-0.03173,-0.01237,-0.00111,0.00079,-0.02281,-0.04038,0.00061,1.04145,1.78916,2.34006,1.80565,1.80198,-0.04827,3.14776,1.70805,-0.53493,1.26021,2.06169,2.06169,A,161407.40
1.80275,57.68788631,11.98133835,57.68786933,11.98133017,16:14:07.569500,0.00309,0.88114,-0.03206,-0.01240,-0.00844,0.00155,-0.02113,0.00037,-0.02867,1.01583,1.79935,2.34006,1.80565,1.80198,-0.04827,3.14776,1.70805,-0.53493,1.26021,2.06169,2.06169,A,161407.40
1.82938,57.68788631,11.98133835,57.68787033,11.98132983,16:14:07.596146,0.01931,0.88114,-0.03187,-0.01242,-0.01256,-0.01051,-0.02678,0.03373,0.00921,0.98796,1.80978,2.34006,1.80565,1.80198,-0.04827,3.14776,1.82466,-0.55475,1.37140,1.74712,1.74712,A,161407.50
1.84522,57.68788788,11.98133689,57.68787033,11.98132983,16:14:07.611980,0.00680,0.88114,-0.03240,-0.01245,-0.00768,-0.01356,-0.01762,-0.09900,-0.03099,0.97618,1.83956,2.04828,1.79470,1.79100,-0.13555,3.32211,1.82466,-0.55475,1.37140,1.74712,1.74712,A,161407.50
1.85192,57.68788788,11.98133689,57.68787033,11.98132983,16:14:07.618673,0.00311,0.88114,-0.03301,-0.01245,-0.01058,-0.00791,-0.01533,-0.06515,-0.04453,0.95697,1.84851,2.04828,1.79470,1.79100,-0.13555,3.32211,1.82466,-0.55475,1.37140,1.74712,1.74712,A,161407.50
1.86255,57.68788788,11.98133689,57.68787033,11.98132983,16:14:07.629296,0.00318,0.88114,-0.03351,-0.01245,-0.01058,-0.00150,-0.00616,-0.02714,-0.03812,0.97167,1.85912,2.04828,1.79470,1.79100,-0.13555,3.32211,1.82466,-0.55475,1.37140,1.74712,1.74712,A,161407.50
1.87290,57.68788788,11.98133689,57.68787033,11.98132983,16:14:07.639636,0.00312,0.88114,-0.03342,-0.01251,-0.01959,-0.00043,-0.00494,0.00354,0.00573,0.98478,1.86950,2.04828,1.79470,1.79100,-0.13555,3.32211,1.82466,-0.55475,1.37140,1.74712,1.74712,A,161407.50
1.88360,57.68788788,11.98133689,57.68787033,11.98132983,16:14:07.650350,0.00360,0.88114,-0.03289,-0.01265,-0.02020,-0.01265,-0.00632,0.00866,0.03630,1.01980,1.87955,2.04828,1.79470,1.79100,-0.13555,3.32211,1.82466,-0.55475,1.37140,1.74712,1.74712,A,161407.50
1.89351,57.68788788,11.98133689,57.68787033,11.98132983,16:14:07.660261,0.00311,1.17202,-0.03265,-0.01288,-0.02218,-0.01295,-0.00876,-0.01141,0.01989,1.07677,1.89011,2.04828,1.79470,1.79100,-0.13555,3.32211,1.82466,-0.55475,1.37140,1.74712,1.74712,A,161407.50
1.90391,57.68788788,11.98133689,57.68787033,11.98132983,16:14:07.670658,0.00311,1.17202,-0.03274,-0.01313,-0.01699,-0.00791,-0.01945,-0.06387,-0.00793,1.06091,1.90049,2.04828,1.79470,1.79100,-0.13555,3.32211,1.82466,-0.55475,1.37140,1.74712,1.74712,A,161407.50
1.91429,57.68788788,11.98133689,57.68787033,11.98132983,16:14:07.681031,0.00310,1.17202,-0.03329,-0.01330,-0.02264,-0.00471,-0.02083,-0.03489,-0.03556,1.03084,1.91089,2.04828,1.79470,1.79100,-0.13555,3.32211,1.82466,-0.55475,1.37140,1.74712,1.74712,A,161407.50
1.92472,57.68788788,11.98133689,57.68787033,11.98132983,16:14:07.691469,0.00312,1.17202,-0.03413,-0.01336,-0.02524,0.00079,-0.02663,0.02641,-0.05100,0.96063,1.92133,2.04828,1.79470,1.79100,-0.13555,3.32211,1.82466,-0.55475,1.37140,1.74712,1.74712,A,161407.50
1.94998,57.68788788,11.98133689,57.68787150,11.98132900,16:14:07.716742,0.01811,1.17202,-0.03444,-0.01336,-0.02753,-0.00165,-0.02189,-0.02245,-0.01635,0.97923,1.93144,2.04828,1.79470,1.79100,-0.13555,3.32211,1.94620,-0.60428,1.50113,1.93552,1.93552,A,161407.60
1.96111,57.68788900,11.98133568,57.68787150,11.98132900,16:14:07.727874,0.00636,1.17202,-0.03482,-0.01336,-0.03165,-0.00089,-0.01563,-0.07820,0.00866,0.98045,1.95537,1.87302,1.81416,1.81020,-0.20733,3.44704,1.94620,-0.60428,1.50113,1.93552,1.93552,A,161407.60
1.97076,57.68788900,11.98133568,57.68787150,11.98132900,16:14:07.737552,0.00561,1.17202,-0.03535,-0.01336,-0.03135,0.00430,-0.01380,-0.03562,-0.02593,0.97521,1.96693,1.87302,1.81416,1.81020,-0.20733,3.44704,1.94620,-0.60428,1.50113,1.93552,1.93552,A,161407.60
1.97863,57.68788900,11.98133568,57.68787150,11.98132900,16:14:07.745377,0.00299,1.17202,-0.03541,-0.01336,-0.03471,0.00644,-0.01624,-0.00805,-0.00146,1.00809,1.97522,1.87302,1.81416,1.81020,-0.20733,3.44704,1.94620,-0.60428,1.50113,1.93552,1.93552,A,161407.60
1.98909,57.68788900,11.98133568,57.68787150,11.98132900,16:14:07.755840,0.00323,1.17202,-0.03549,-0.01336,-0.03211,0.00827,-0.01243,-0.00335,0.00085,1.02041,1.98568,1.87302,1.81416,1.81020,-0.20733,3.44704,1.94620,-0.60428,1.50113,1.93552,1.93552,A,161407.60
1.99939,57.68788900,11.98133568,57.68787150,11.98132900,16:14:07.766161,0.00314,1.17202,-0.03589,-0.01336,-0.03700,0.01011,-0.01243,-0.02263,-0.01867,1.03169,1.99581,1.87302,1.81416,1.81020,-0.20733,3.44704,1.94620,-0.60428,1.50113,1.93552,1.93552,A,161407.60
2.00980,57.68788900,11.98133568,57.68787150,11.98132900,16:14:07.776543,0.00315,1.17202,-0.03660,-0.01336,-0.02951,0.01499,-0.01747,0.02300,-0.04343,1.00235,2.00638,1.87302,1.81416,1.81020,-0.20733,3.44704,1.94620,-0.60428,1.50113,1.93552,1.93552,A,161407.60
2.02621,57.68788900,11.98133568,57.68787150,11.98132900,16:14:07.793055,0.00917,1.17202,-0.03741,-0.01336,-0.03822,0.00430,-0.02037,0.00549,-0.04477,0.98887,2.01677,1.17202,1.95746,1.95350,-0.60428,1.50113,1.94620,-0.60428,1.50113,1.93552,1.93552,A,161407.60
2.03175,57.68788900,11.98133568,57.68787150,11.98132900,16:14:07.798512,0.00389,1.17202,-0.03798,-0.00679,-0.03776,0.00278,-0.01762,-0.01592,-0.02684,1.00619,2.02807,1.17202,1.95746,1.95350,-0.60428,1.50113,1.94620,-0.60428,1.50113,1.93552,1.93552,A,161407.60
2.04142,57.68788900,11.98133568,57.68787150,11.98132900,16:14:07.808170,0.00317,1.17202,-0.03865,-0.00679,-0.03211,0.00461,-0.02266,-0.01604,-0.04105,0.97752,2.03802,1.17202,1.95746,1.95350,-0.60428,1.50113,1.94620,-0.60428,1.50113,1.93552,1.93552,A,161407.60
2.06884,57.68788900,11.98133568,57.68787233,11.98132800,16:14:07.835600,0.02018,1.17202,-0.03913,-0.00679,-0.03394,0.00736,-0.01945,0.01391,-0.02684,0.98137,2.04821,1.17202,1.95746,1.95350,-0.60428,1.50113,2.06358,-0.66372,1.59379,2.14113,2.14113,A,161407.70
2.08411,57.68787267,11.98132810,57.68787233,11.98132800,16:14:07.850865,0.00635,1.17202,-0.04039,-0.00679,-0.03333,0.00079,-0.00723,0.01470,-0.03721,1.01126,2.07846,1.17202,1.98385,1.98183,-0.65753,1.63067,2.06358,-0.66372,1.59379,2.14113,2.14113,A,161407.70
2.09100,57.68787267,11.98132810,57.68787233,11.98132800,16:14:07.857947,0.00301,1.17202,-0.04039,-0.00679,-0.02906,-0.00761,-0.00739,-0.00988,-0.00305,1.02187,2.08760,1.17202,1.98385,1.98183,-0.65753,1.63067,2.06358,-0.66372,1.59379,2.14113,2.14113,A,161407.70
2.10154,57.68787267,11.98132810,57.68787233,11.98132800,16:14:07.868284,0.00316,1.17202,-0.04015,-0.00679,-0.02615,-0.01753,-0.00326,-0.00226,0.01470,1.05097,2.09814,1.17202,1.98385,1.98183,-0.65753,1.63067,2.06358,-0.66372,1.59379,2.14113,2.14113,A,161407.70
2.11193,57.68787267,11.98132810,57.68787233,11.98132800,16:14:07.878682,0.00315,1.17202,-0.04022,-0.00679,-0.02860,-0.02044,-0.00525,0.00183,-0.00537,1.04536,2.10850,1.17202,1.98385,1.98183,-0.65753,1.63067,2.06358,-0.66372,1.59379,2.14113,2.14113,A,161407.70
2.12231,57.68787267,11.98132810,57.68787233,11.98132800,16:14:07.889061,0.00313,1.17202,-0.04068,-0.00679,-0.02478,-0.01692,-0.00616,-0.02409,-0.03373,1.01711,2.11891,1.17202,1.98385,1.98183,-0.65753,1.63067,2.06358,-0.66372,1.59379,2.14113,2.14113,A,161407.70
2.13275,57.68787267,11.98132810,57.68787233,11.98132800,16:14:07.899496,0.00317,1.17202,-0.04145,-0.00679,-0.02341,-0.01143,-0.00800,0.00689,-0.05478,0.96947,2.12933,1.17202,1.98385,1.98183,-0.65753,1.63067,2.06358,-0.66372,1.59379,2.14113,2.14113,A,161407.70
2.14281,57.68787267,11.98132810,57.68787233,11.98132800,16:14:07.909554,0.00301,1.17202,-0.04187,-0.00679,-0.02829,-0.00547,-0.01243,-0.08436,-0.02898,0.95691,2.13940,1.17202,1.98385,1.98183,-0.65753,1.63067,2.06358,-0.66372,1.59379,2.14113,2.14113,A,161407.70
2.15336,57.68787267,11.98132810,57.68787233,11.98132800,16:14:07.920112,0.00316,1.17202,-0.04228,-0.00679,-0.02112,0.00675,-0.00998,-0.05215,-0.03135,0.91049,2.14996,1.17202,1.98385,1.98183,-0.65753,1.63067,2.06358,-0.66372,1.59379,2.14113,2.14113,A,161407.70
2.18158,57.68787267,11.98132810,57.68787350,11.98132733,16:14:07.948343,0.02098,1.17202,-0.04168,-0.00679,-0.02386,0.00934,-0.00601,-0.03825,0.03166,0.91872,2.16055,1.17202,1.98385,1.98183,-0.65753,1.63067,2.17753,-0.70334,1.72352,1.86724,1.86724,A,161407.80
2.19783,57.68787372,11.98132724,57.68787350,11.98132733,16:14:07.964598,0.00795,1.17202,-0.04236,-0.00679,-0.01608,0.00721,-0.00265,0.00439,-0.03495,1.01297,2.19134,1.17202,1.96597,1.96396,-0.70913,1.74844,2.17753,-0.70334,1.72352,1.86724,1.86724,A,161407.80
2.20376,57.68787372,11.98132724,57.68787350,11.98132733,16:14:07.970519,0.00342,1.17202,-0.04313,-0.00679,-0.01959,0.00125,-0.00616,0.04002,-0.06277,1.01534,2.20003,1.17202,1.96597,1.96396,-0.70913,1.74844,2.17753,-0.70334,1.72352,1.86724,1.86724,A,161407.80
2.21389,57.68787372,11.98132724,57.68787350,11.98132733,16:14:07.980634,0.00314,1.17202,-0.04305,-0.00679,-0.01959,-0.00623,-0.00357,0.03569,-0.00433,1.03798,2.21048,1.17202,1.96597,1.96396,-0.70913,1.74844,2.17753,-0.70334,1.72352,1.86724,1.86724,A,161407.80
2.22564,57.68787372,11.98132724,57.68787350,11.98132733,16:14:07.992400,0.00371,1.17202,-0.04309,-0.00679,-0.01333,-0.01845,-0.00525,0.00506,-0.01684,1.05865,2.22183,1.17202,1.96597,1.96396,-0.70913,1.74844,2.17753,-0.70334,1.72352,1.86724,1.86724,A,161407.80
2.23547,57.68787372,11.98132724,57.68787350,11.98132733,16:14:08.002228,0.00313,1.17202,-0.04309,-0.00668,-0.01440,-0.02899,-0.00296,-0.03751,-0.01403,1.06055,2.23187,1.17202,1.96597,1.96396,-0.70913,1.74844,2.17753,-0.70334,1.72352,1.86724,1.86724,A,161407.80
2.24587,57.68787372,11.98132724,57.68787350,11.98132733,16:14:08.012621,0.00314,1.17202,-0.04368,-0.00634,-0.00630,-0.01616,0.00254,-0.04526,-0.06130,1.06207,2.24247,1.17202,1.96597,1.96396,-0.70913,1.74844,2.17753,-0.70334,1.72352,1.86724,1.86724,A,161407.80
2.25625,57.68787372,11.98132724,57.68787350,11.98132733,16:14:08.022991,0.00312,1.17202,-0.04377,-0.00574,-0.01012,0.00293,0.00559,-0.08052,-0.02361,1.04975,2.25283,1.17202,1.96597,1.96396,-0.70913,1.74844,2.17753,-0.70334,1.72352,1.86724,1.86724,A,161407.80
2.26664,57.68787372,11.98132724,57.68787350,11.98132733,16:14:08.033387,0.00298,1.17202,-0.04415,-0.00495,-0.00416,0.02507,0.00850,-0.07131,-0.04721,1.02876,2.26324,1.17202,1.96597,1.96396,-0.70913,1.74844,2.17753,-0.70334,1.72352,1.86724,1.86724,A,161407.80
2.27718,57.68787372,11.98132724,57.68787350,11.98132733,16:14:08.043928,0.00312,1.17202,-0.04426,-0.00413,-0.00233,0.02462,0.00789,0.02300,-0.02769,0.95660,2.27379,1.17202,1.96597,1.96396,-0.70913,1.74844,2.17753,-0.70334,1.72352,1.86724,1.86724,A,161407.80
2.30342,57.68787372,11.98132724,57.68787450,11.98132633,16:14:08.070200,0.01897,1.17202,-0.04414,-0.00348,-0.00309,0.02431,0.00727,0.02696,-0.01336,0.94050,2.28397,1.17202,1.96597,1.96396,-0.70913,1.74844,2.29877,-0.76278,1.83472,2.06169,2.06169,A,161407.90
2.31666,57.68787483,11.98132637,57.68787450,11.98132633,16:14:08.083437,0.00739,1.17202,-0.04409,-0.00277,0.00805,-0.00440,0.00223,0.04380,-0.03099,0.93354,2.30909,1.17202,1.97974,1.97892,-0.76080,1.87087,2.29877,-0.76278,1.83472,2.06169,2.06169,A,161407.90
2.32262,57.68787483,11.98132637,57.68787450,11.98132633,16:14:08.089363,0.00295,1.17202,-0.04443,-0.00277,0.00179,-0.01830,-0.00113,-0.00744,-0.04636,0.98661,2.31922,1.17202,1.97974,1.97892,-0.76080,1.87087,2.29877,-0.76278,1.83472,2.06169,2.06169,A,161407.90
2.33332,57.68787483,11.98132637,57.68787450,11.98132633,16:14:08.100071,0.00326,1.17202,-0.04480,-0.00277,0.00775,-0.02319,-0.00097,-0.06033,-0.06002,1.10556,2.32992,1.17202,1.97974,1.97892,-0.76080,1.87087,2.29877,-0.76278,1.83472,2.06169,2.06169,A,161407.90
2.34358,57.68787483,11.98132637,57.68787450,11.98132633,16:14:08.110346,0.00313,1.17202,-0.04505,-0.00277,0.00882,-0.00104,-0.00846,-0.01848,-0.05136,1.10105,2.33998,1.17202,1.97974,1.97892,-0.76080,1.87087,2.29877,-0.76278,1.83472,2.06169,2.06169,A,161407.90
2.35412,57.68787483,11.98132637,57.68787450,11.98132633,16:14:08.120864,0.00328,1.17202,-0.04523,-0.00277,0.00592,0.01423,-0.00204,0.03227,-0.04325,1.08488,2.35071,1.17202,1.97974,1.97892,-0.76080,1.87087,2.29877,-0.76278,1.83472,2.06169,2.06169,A,161407.90
2.36462,57.68787483,11.98132637,57.68787450,11.98132633,16:14:08.131371,0.00337,1.17202,-0.04526,-0.00277,0.00928,0.00980,-0.00082,0.01257,-0.03343,1.01553,2.36121,1.17202,1.97974,1.97892,-0.76080,1.87087,2.29877,-0.76278,1.83472,2.06169,2.06169,A,161407.90
2.37572,57.68787483,11.98132637,57.68787450,11.98132633,16:14:08.142480,0.00326,1.49970,-0.04427,-0.00277,0.00912,0.00766,0.00330,-0.00555,0.03282,0.94751,2.37208,1.17202,1.97974,1.97892,-0.76080,1.87087,2.29877,-0.76278,1.83472,2.06169,2.06169,A,161407.90
2.38599,57.68787483,11.98132637,57.68787450,11.98132633,16:14:08.152738,0.00314,1.49970,-0.04385,-0.00277,0.02241,0.00614,0.00315,0.00372,-0.01031,0.90378,2.38258,1.17202,1.97974,1.97892,-0.76080,1.87087,2.29877,-0.76278,1.83472,2.06169,2.06169,A,161407.90
2.39637,57.68787483,11.98132637,57.68787450,11.98132633,16:14:08.163114,0.00312,1.49970,-0.04343,-0.00277,0.02210,-0.00333,0.00727,-0.01696,-0.00854,0.82222,2.39296,1.17202,1.97974,1.97892,-0.76080,1.87087,2.29877,-0.76278,1.83472,2.06169,2.06169,A,161407.90
2.43500,57.68787483,11.98132637,57.68787667,11.98132433,16:14:08.202605,0.03134,1.49970,-0.04321,-0.00277,0.02959,0.00217,0.00712,-0.02763,-0.02641,0.91213,2.40338,1.17202,1.97974,1.97892,-0.76080,1.87087,2.42948,-0.88165,2.07564,2.02916,2.02916,A,161408.10
2.45465,57.68787616,11.98132526,57.68787667,11.98132433,16:14:08.221412,0.01017,12.98214,-0.04106,-0.00277,0.02867,0.00339,0.00575,0.01818,-0.01263,1.02334,2.44797,3.83404,1.98694,1.98612,-0.82662,2.01936,2.42948,-0.88165,2.07564,2.02916,2.02916,A,161408.10
2.46955,57.68787616,11.98132526,57.68787667,11.98132433,16:14:08.236732,0.00750,12.98214,-0.03904,-0.00274,0.02562,-0.01876,0.00865,0.00653,0.04185,0.97167,2.46607,3.83404,1.98694,1.98612,-0.82662,2.01936,2.42948,-0.88165,2.07564,2.02916,2.02916,A,161408.10
2.47893,57.68787616,11.98132526,57.68787667,11.98132433,16:14:08.245905,0.00648,12.98214,-0.03758,-0.00271,0.04272,-0.02914,0.00956,-0.00817,0.01104,0.95672,2.47550,3.83404,1.98694,1.98612,-0.82662,2.01936,2.42948,-0.88165,2.07564,2.02916,2.02916,A,161408.10
2.48961,57.68787616,11.98132526,57.68787667,11.98132433,16:14:08.256360,0.00676,12.98214,-0.03680,-0.00268,0.04455,-0.02548,0.00972,-0.00122,-0.03550,0.98716,2.48619,3.83404,1.98694,1.98612,-0.82662,2.01936,2.42948,-0.88165,2.07564,2.02916,2.02916,A,161408.10
2.50018,57.68787616,11.98132526,57.68787667,11.98132433,16:14:08.266938,0.00694,12.98214,-0.03655,-0.00266,0.04623,-0.02105,0.01002,-0.02525,-0.07082,1.00406,2.49673,3.83404,1.98694,1.98612,-0.82662,2.01936,2.42948,-0.88165,2.07564,2.02916,2.02916,A,161408.10
2.51015,57.68787616,11.98132526,57.68787667,11.98132433,16:14:08.276901,0.00650,12.98214,-0.03653,-0.00266,0.03295,-0.02013,0.00529,-0.02214,-0.07765,1.08049,2.50673,3.83404,1.98694,1.98612,-0.82662,2.01936,2.42948,-0.88165,2.07564,2.02916,2.02916,A,161408.10
2.52093,57.68787616,11.98132526,57.68787667,11.98132433,16:14:08.287680,0.00689,12.98214,-0.03571,-0.00266,0.03447,-0.01005,0.00376,-0.08192,-0.02312,1.08397,2.51751,3.83404,1.98694,1.98612,-0.82662,2.01936,2.42948,-0.88165,2.07564,2.02916,2.02916,A,161408.10
2.53022,57.68787616,11.98132526,57.68787667,11.98132433,16:14:08.297010,0.00578,12.98214,-0.03536,-0.00263,0.03936,-0.00532,-0.00387,0.03233,-0.05252,1.06042,2.52603,3.83404,1.98694,1.98612,-0.82662,2.01936,2.42948,-0.88165,2.07564,2.02916,2.02916,A,161408.10
2.55718,57.68787616,11.98132526,57.68787800,11.98132317,16:14:08.323943,0.02234,12.98214,-0.03367,-0.00257,0.04440,-0.01234,0.00315,-0.00531,0.02977,1.08098,2.53816,3.83404,1.98694,1.98612,-0.82662,2.01936,2.55308,-0.95100,2.22390,2.00828,2.00828,A,161408.20
2.57460,57.68787975,11.98132227,57.68787800,11.98132317,16:14:08.341368,0.00828,12.98214,-0.03277,-0.00223,0.05417,-0.04563,0.00682,-0.03306,-0.08259,0.85986,2.56781,5.66366,1.98928,1.98862,-1.00443,2.41870,2.55308,-0.95100,2.22390,2.00828,2.00828,A,161408.20
2.58262,57.68787975,11.98132227,57.68787800,11.98132317,16:14:08.349381,0.00591,12.98214,-0.03184,-0.00206,0.04807,-0.02700,0.00712,-0.14542,-0.01745,0.91543,2.57920,5.66366,1.98928,1.98862,-1.00443,2.41870,2.55308,-0.95100,2.22390,2.00828,2.00828,A,161408.20
2.59387,57.68787975,11.98132227,57.68787800,11.98132317,16:14:08.360623,0.00675,12.98214,-0.03110,-0.00198,0.06028,0.00598,0.00972,-0.13225,-0.03508,0.96429,2.59045,5.66366,1.98928,1.98862,-1.00443,2.41870,2.55308,-0.95100,2.22390,2.00828,2.00828,A,161408.20
2.60437,57.68787975,11.98132227,57.68787800,11.98132317,16:14:08.371131,0.00686,12.98214,-0.03011,-0.00195,0.05433,0.02782,0.00682,-0.00927,-0.01006,0.97240,2.60079,5.66366,1.98928,1.98862,-1.00443,2.41870,2.55308,-0.95100,2.22390,2.00828,2.00828,A,161408.20
2.61429,57.68787975,11.98132227,57.68787800,11.98132317,16:14:08.381036,0.00655,12.98214,-0.02940,-0.00195,0.05081,0.03317,0.00911,-0.00567,-0.02385,1.01980,2.61086,5.66366,1.98928,1.98862,-1.00443,2.41870,2.55308,-0.95100,2.22390,2.00828,2.00828,A,161408.20
2.62510,57.68787975,11.98132227,57.68787800,11.98132317,16:14:08.391848,0.00695,12.98214,-0.02803,-0.00195,0.04975,0.03393,0.01124,-0.02037,0.02056,1.02864,2.62165,5.66366,1.98928,1.98862,-1.00443,2.41870,2.55308,-0.95100,2.22390,2.00828,2.00828,A,161408.20
2.63468,57.68787975,11.98132227,57.68787800,11.98132317,16:14:08.401465,0.00613,12.98214,-0.02668,-0.00195,0.05097,0.03607,0.00437,-0.01318,0.02507,1.03432,2.63092,5.66366,1.98928,1.98862,-1.00443,2.41870,2.55308,-0.95100,2.22390,2.00828,2.00828,A,161408.20
2.64415,57.68787975,11.98132227,57.68787800,11.98132317,16:14:08.410903,0.00521,12.98214,-0.02548,-0.00195,0.04654,0.03164,-0.00174,-0.02001,0.01708,1.02901,2.64071,5.66366,1.98928,1.98862,-1.00443,2.41870,2.55308,-0.95100,2.22390,2.00828,2.00828,A,161408.20
2.67308,57.68787975,11.98132227,57.68787900,11.98132200,16:14:08.439857,0.02388,12.98214,-0.02412,-0.00195,0.04425,0.01988,-0.00723,0.09327,0.02666,0.99235,2.65128,5.66366,1.98928,1.98862,-1.00443,2.41870,2.66823,-1.02034,2.33509,2.12840,2.12840,A,161408.30
2.68848,57.68788466,11.98131815,57.68787900,11.98132200,16:14:08.455240,0.00804,12.98214,-0.02289,-0.00195,0.04226,-0.01677,-0.01059,-0.15927,-0.03672,1.12094,2.68233,7.12735,2.00914,2.00856,-1.24932,2.96432,2.66823,-1.02034,2.33509,2.12840,2.12840,A,161408.30
2.69736,57.68788466,11.98131815,57.68787900,11.98132200,16:14:08.464122,0.00668,12.98214,-0.02234,-0.00195,0.03386,0.00003,-0.00510,-0.07564,-0.01867,1.10428,2.69391,7.12735,2.00914,2.00856,-1.24932,2.96432,2.66823,-1.02034,2.33509,2.12840,2.12840,A,161408.30
2.70611,57.68788466,11.98131815,57.68787900,11.98132200,16:14:08.472854,0.00503,12.98214,-0.02201,-0.00195,0.03631,0.00843,-0.00296,0.00018,-0.02916,1.10014,2.70268,7.12735,2.00914,2.00856,-1.24932,2.96432,2.66823,-1.02034,2.33509,2.12840,2.12840,A,161408.30
2.71658,57.68788466,11.98131815,57.68787900,11.98132200,16:14:08.483337,0.00498,12.98214,-0.02141,-0.00195,0.03585,0.00461,-0.00036,0.09248,-0.01385,1.03950,2.71316,7.12735,2.00914,2.00856,-1.24932,2.96432,2.66823,-1.02034,2.33509,2.12840,2.12840,A,161408.30
2.72834,57.68788466,11.98131815,57.68787900,11.98132200,16:14:08.495108,0.00634,12.98214,-0.02059,-0.00195,0.03172,-0.02425,0.00697,0.02470,0.00092,0.96874,2.72452,7.12735,2.00914,2.00856,-1.24932,2.96432,2.66823,-1.02034,2.33509,2.12840,2.12840,A,161408.30
2.73868,57.68788466,11.98131815,57.68787900,11.98132200,16:14:08.505442,0.00628,12.98214,-0.01955,-0.00195,0.03600,-0.03418,0.00834,-0.02824,0.01098,0.89127,2.73523,7.12735,2.00914,2.00856,-1.24932,2.96432,2.66823,-1.02034,2.33509,2.12840,2.12840,A,161408.30
2.74799,57.68788466,11.98131815,57.68787900,11.98132200,16:14:08.514746,0.00520,12.98214,-0.01878,-0.00195,0.03249,-0.03769,0.00804,-0.05045,0.00104,0.90615,2.74454,7.12735,2.00914,2.00856,-1.24932,2.96432,2.66823,-1.02034,2.33509,2.12840,2.12840,A,161408.30
2.75845,57.68788466,11.98131815,57.68787900,11.98132200,16:14:08.525203,0.00543,12.98214,-0.01849,-0.00195,0.03203,-0.03891,0.00529,-0.05905,-0.02922,0.88877,2.75503,7.12735,2.00914,2.00856,-1.24932,2.96432,2.66823,-1.02034,2.33509,2.12840,2.12840,A,161408.30
2.78597,57.68788466,11.98131815,57.68788033,11.98132133,16:14:08.552725,0.02242,12.98214,-0.01875,-0.00195,0.02714,-0.03388,0.00437,-0.04258,-0.06460,1.01120,2.76694,7.12735,2.00914,2.00856,-1.24932,2.96432,2.78184,-1.05996,2.48335,1.83196,1.83196,A,161408.40
2.80370,57.68789067,11.98131285,57.68788033,11.98132133,16:14:08.570464,0.00863,12.98214,-0.01795,-0.00195,0.02439,0.00797,-0.00174,0.01189,-0.02257,1.10526,2.79785,8.29831,1.98143,1.98085,-1.56407,3.63300,2.78184,-1.05996,2.48335,1.83196,1.83196,A,161408.40
2.81035,57.68789067,11.98131285,57.68788033,11.98132133,16:14:08.577102,0.00508,12.98214,-0.01788,-0.00195,0.01599,0.00079,-0.00357,0.04709,-0.03050,1.01266,2.80694,8.29831,1.98143,1.98085,-1.56407,3.63300,2.78184,-1.05996,2.48335,1.83196,1.83196,A,161408.40
2.82067,57.68789067,11.98131285,57.68788033,11.98132133,16:14:08.587426,0.00500,12.98214,-0.01753,-0.00195,0.00989,-0.01845,-0.00433,-0.00073,-0.00799,1.04273,2.81724,8.29831,1.98143,1.98085,-1.56407,3.63300,2.78184,-1.05996,2.48335,1.83196,1.83196,A,161408.40
2.83179,57.68789067,11.98131285,57.68788033,11.98132133,16:14:08.598563,0.00573,12.98214,-0.01694,-0.00195,0.00454,-0.02731,-0.01090,0.01287,0.01092,1.00327,2.82812,8.29831,1.98143,1.98085,-1.56407,3.63300,2.78184,-1.05996,2.48335,1.83196,1.83196,A,161408.40
2.84146,57.68789067,11.98131285,57.68788033,11.98132133,16:14:08.608208,0.00500,12.98214,-0.01594,-0.00195,0.00775,-0.03632,-0.00754,-0.01068,0.04093,1.05451,2.83804,8.29831,1.98143,1.98085,-1.56407,3.63300,2.78184,-1.05996,2.48335,1.83196,1.83196,A,161408.40
2.85208,57.68789067,11.98131285,57.68788033,11.98132133,16:14:08.619625,0.00522,12.98214,-0.01491,-0.00195,0.01111,-0.04182,-0.00907,-0.03691,0.03910,1.02309,2.84863,8.29831,1.98143,1.98085,-1.56407,3.63300,2.78184,-1.05996,2.48335,1.83196,1.83196,A,161408.40
2.86225,57.68789067,11.98131285,57.68788033,11.98132133,16:14:08.628998,0.00500,12.98214,-0.01412,-0.00195,0.01233,-0.03220,-0.01014,-0.09723,0.02300,1.02248,2.85884,8.29831,1.98143,1.98085,-1.56407,3.63300,2.78184,-1.05996,2.48335,1.83196,1.83196,A,161408.40
2.87479,57.68789067,11.98131285,57.68788033,11.98132133,16:14:08.641941,0.00707,12.98214,-0.01419,-0.00195,0.01890,-0.00501,-0.00326,-0.04423,-0.03983,0.97027,2.87004,8.29831,1.98143,1.98085,-1.56407,3.63300,2.78184,-1.05996,2.48335,1.83196,1.83196,A,161408.40
2.88127,57.68789067,11.98131285,57.68788033,11.98132133,16:14:08.648021,0.00316,1.64277,-0.01450,-0.00195,0.00485,0.00110,-0.00433,0.01452,-0.01610,0.94208,2.87786,8.29831,1.98143,1.98085,-1.56407,3.63300,2.78184,-1.05996,2.48335,1.83196,1.83196,A,161408.40
2.91838,57.68789067,11.98131285,57.68788283,11.98131967,16:14:08.685139,0.02987,1.64277,-0.01463,-0.00195,-0.00309,0.00369,-0.00204,-0.05667,-0.00079,0.89365,2.88804,8.29831,1.98143,1.98085,-1.56407,3.63300,2.91396,-1.15903,2.76134,1.91312,1.91312,A,161408.60
2.93034,57.68789841,11.98130658,57.68788283,11.98131967,16:14:08.697087,0.00719,1.64277,-0.01516,-0.00195,-0.01776,-0.03647,-0.01120,0.00823,0.01525,1.11331,2.92489,6.96720,1.96970,1.96912,-1.93666,4.49312,2.91396,-1.15903,2.76134,1.91312,1.91312,A,161408.60
2.93672,57.68789841,11.98130658,57.68788283,11.98131967,16:14:08.703473,0.00317,1.64277,-0.01525,-0.00195,-0.01287,-0.04212,-0.01304,-0.00952,0.00830,1.17950,2.93331,6.96720,1.96970,1.96912,-1.93666,4.49312,2.91396,-1.15903,2.76134,1.91312,1.91312,A,161408.60
2.94677,57.68789841,11.98130658,57.68788283,11.98131967,16:14:08.713512,0.00299,1.64277,-0.01605,-0.00195,-0.01562,-0.03357,-0.01945,0.01202,-0.04544,1.20810,2.94337,6.96720,1.96970,1.96912,-1.93666,4.49312,2.91396,-1.15903,2.76134,1.91312,1.91312,A,161408.60
2.95730,57.68789841,11.98130658,57.68788283,11.98131967,16:14:08.724052,0.00312,1.64277,-0.01684,-0.00195,-0.01913,-0.03586,-0.02541,-0.04551,-0.03977,1.12612,2.95391,6.96720,1.96970,1.96912,-1.93666,4.49312,2.91396,-1.15903,2.76134,1.91312,1.91312,A,161408.60
2.96793,57.68789841,11.98130658,57.68788283,11.98131967,16:14:08.734680,0.00335,1.64277,-0.01801,-0.00195,-0.02631,-0.01677,-0.02098,-0.06808,-0.05636,1.00943,2.96450,6.96720,1.96970,1.96912,-1.93666,4.49312,2.91396,-1.15903,2.76134,1.91312,1.91312,A,161408.60
2.97812,57.68789841,11.98130658,57.68788283,11.98131967,16:14:08.744873,0.00314,1.64277,-0.01845,-0.00195,-0.03730,-0.01234,-0.02205,-0.02196,-0.00171,0.85369,2.97473,6.96720,1.96970,1.96912,-1.93666,4.49312,2.91396,-1.15903,2.76134,1.91312,1.91312,A,161408.60
2.98883,57.68789841,11.98130658,57.68788283,11.98131967,16:14:08.755577,0.00321,1.64277,-0.01860,-0.00195,-0.03486,-0.01601,-0.01991,-0.05514,0.01330,0.78403,2.98542,6.96720,1.96970,1.96912,-1.93666,4.49312,2.91396,-1.15903,2.76134,1.91312,1.91312,A,161408.60
2.99885,57.68789841,11.98130658,57.68788283,11.98131967,16:14:08.765591,0.00299,1.64277,-0.01830,-0.00195,-0.03058,-0.02273,-0.01044,-0.05222,0.03398,0.81264,2.99544,6.96720,1.96970,1.96912,-1.93666,4.49312,2.91396,-1.15903,2.76134,1.91312,1.91312,A,161408.60
3.00938,57.68789841,11.98130658,57.68788283,11.98131967,16:14:08.776120,0.00312,1.64277,-0.01816,-0.00201,-0.02661,-0.02746,-0.00739,-0.07412,0.02708,0.89670,3.00598,6.96720,1.96970,1.96912,-1.93666,4.49312,2.91396,-1.15903,2.76134,1.91312,1.91312,A,161408.60
3.03570,57.68789841,11.98130658,57.68788433,11.98131883,16:14:08.802473,0.01905,1.64277,-0.01834,-0.00226,-0.02677,-0.01463,-0.00830,-0.08693,0.00830,1.00601,3.01620,6.96720,1.96970,1.96912,-1.93666,4.49312,3.03160,-1.20856,2.92813,1.85946,1.85946,A,161408.70
3.04595,57.68790395,11.98130228,57.68788433,11.98131883,16:14:08.812700,0.00518,1.64277,-0.01978,-0.00387,-0.03914,0.00155,-0.02327,-0.02678,-0.03672,1.16455,3.04058,5.90232,1.95214,1.95099,-2.19247,5.10928,3.03160,-1.20856,2.92813,1.85946,1.85946,A,161408.70
3.05430,57.68790395,11.98130228,57.68788433,11.98131883,16:14:08.821039,0.00313,1.64277,-0.02005,-0.00481,-0.04188,0.00186,-0.03014,-0.02525,0.01183,1.13064,3.05090,5.90232,1.95214,1.95099,-2.19247,5.10928,3.03160,-1.20856,2.92813,1.85946,1.85946,A,161408.70
3.06470,57.68790395,11.98130228,57.68788433,11.98131883,16:14:08.831711,0.00313,1.64277,-0.02023,-0.00549,-0.04020,-0.00119,-0.02953,0.06307,0.01537,1.00436,3.06130,5.90232,1.95214,1.95099,-2.19247,5.10928,3.03160,-1.20856,2.92813,1.85946,1.85946,A,161408.70
3.07573,57.68790395,11.98130228,57.68788433,11.98131883,16:14:08.842522,0.00394,1.64277,-0.02022,-0.00594,-0.03318,-0.02807,-0.02632,0.09784,0.01903,0.87535,3.07138,5.90232,1.95214,1.95099,-2.19247,5.10928,3.03160,-1.20856,2.92813,1.85946,1.85946,A,161408.70
3.08533,57.68790395,11.98130228,57.68788433,11.98131883,16:14:08.852071,0.00313,1.64277,-0.02121,-0.00611,-0.02799,-0.06121,-0.01823,0.01842,-0.03684,0.77342,3.08192,5.90232,1.95214,1.95099,-2.19247,5.10928,3.03160,-1.20856,2.92813,1.85946,1.85946,A,161408.70
3.09590,57.68790395,11.98130228,57.68788433,11.98131883,16:14:08.862643,0.00331,1.64277,-0.02220,-0.00611,-0.02463,-0.07801,-0.01151,-0.05703,-0.04117,0.80124,3.09247,5.90232,1.95214,1.95099,-2.19247,5.10928,3.03160,-1.20856,2.92813,1.85946,1.85946,A,161408.70
3.10612,57.68790395,11.98130228,57.68788433,11.98131883,16:14:08.872861,0.00313,1.64277,-0.02280,-0.00611,-0.01898,-0.06732,-0.00968,-0.17312,-0.02782,0.94739,3.10272,5.90232,1.95214,1.95099,-2.19247,5.10928,3.03160,-1.20856,2.92813,1.85946,1.85946,A,161408.70
3.11645,57.68790395,11.98130228,57.68788433,11.98131883,16:14:08.883197,0.00307,1.64277,-0.02340,-0.00611,-0.00523,-0.02899,-0.00998,-0.15366,-0.04209,1.06055,3.11304,5.90232,1.95214,1.95099,-2.19247,5.10928,3.03160,-1.20856,2.92813,1.85946,1.85946,A,161408.70
3.12664,57.68790395,11.98130228,57.68788433,11.98131883,16:14:08.893391,0.00297,1.64277,-0.02431,-0.00611,-0.00737,0.00644,-0.00983,-0.04740,-0.06740,1.13161,3.12324,5.90232,1.95214,1.95099,-2.19247,5.10928,3.03160,-1.20856,2.92813,1.85946,1.85946,A,161408.70
3.15390,57.68790395,11.98130228,57.68788550,11.98131750,16:14:08.920670,0.01983,1.64277,-0.02568,-0.00611,-0.00691,0.00843,-0.01411,0.08912,-0.10083,1.10563,3.13380,5.90232,1.95214,1.95099,-2.19247,5.10928,3.14858,-1.28781,3.05786,2.11919,2.11919,A,161408.80
3.17071,57.68790872,11.98129879,57.68788550,11.98131750,16:14:08.937465,0.00764,1.64277,-0.02558,-0.00611,-0.01501,-0.05953,-0.02159,-0.03440,0.03166,1.04969,3.16391,5.05041,1.97531,1.97350,-2.40015,5.63955,3.14858,-1.28781,3.05786,2.11919,2.11919,A,161408.80
3.17661,57.68790872,11.98129879,57.68788550,11.98131750,16:14:08.943358,0.00314,1.64277,-0.02523,-0.00611,-0.00691,-0.05312,-0.02067,-0.08625,0.02324,1.06671,3.17319,5.05041,1.97531,1.97350,-2.40015,5.63955,3.14858,-1.28781,3.05786,2.11919,2.11919,A,161408.80
3.18666,57.68790872,11.98129879,57.68788550,11.98131750,16:14:08.953408,0.00297,1.64277,-0.02563,-0.00611,0.00133,-0.03937,-0.01685,-0.01354,-0.03501,1.05243,3.18325,5.05041,1.97531,1.97350,-2.40015,5.63955,3.14858,-1.28781,3.05786,2.11919,2.11919,A,161408.80
3.19710,57.68790872,11.98129879,57.68788550,11.98131750,16:14:08.963839,0.00317,1.64277,-0.02604,-0.00611,-0.00477,-0.02990,-0.01869,-0.01305,-0.02959,0.99003,3.19368,5.05041,1.97531,1.97350,-2.40015,5.63955,3.14858,-1.28781,3.05786,2.11919,2.11919,A,161408.80
3.20719,57.68790872,11.98129879,57.68788550,11.98131750,16:14:08.974144,0.00303,1.64277,-0.02669,-0.00611,-0.00600,-0.01891,-0.01426,-0.04105,-0.04477,0.97460,3.20377,5.05041,1.97531,1.97350,-2.40015,5.63955,3.14858,-1.28781,3.05786,2.11919,2.11919,A,161408.80
3.21771,57.68790872,11.98129879,57.68788550,11.98131750,16:14:08.984460,0.00315,1.64277,-0.02677,-0.00611,-0.00737,-0.00959,-0.00952,-0.04111,-0.00744,0.97685,3.21431,5.05041,1.97531,1.97350,-2.40015,5.63955,3.14858,-1.28781,3.05786,2.11919,2.11919,A,161408.80
3.22822,57.68790872,11.98129879,57.68788550,11.98131750,16:14:08.994974,0.00327,1.64277,-0.02645,-0.00611,-0.00569,0.00033,-0.00937,-0.13774,0.01793,0.99534,3.22479,5.05041,1.97531,1.97350,-2.40015,5.63955,3.14858,-1.28781,3.05786,2.11919,2.11919,A,161408.80
3.23845,57.68790872,11.98129879,57.68788550,11.98131750,16:14:09.005191,0.00296,1.64277,-0.02603,-0.00611,-0.00065,0.01347,-0.00662,-0.04752,0.02092,0.97307,3.23505,5.05041,1.97531,1.97350,-2.40015,5.63955,3.14858,-1.28781,3.05786,2.11919,2.11919,A,161408.80
3.26765,57.68790872,11.98129879,57.68788667,11.98131633,16:14:09.034417,0.02176,1.64277,-0.02609,-0.00611,0.01096,0.00980,-0.00998,0.04032,-0.01824,1.00400,3.24609,5.05041,1.97531,1.97350,-2.40015,5.63955,3.26329,-1.35715,3.18759,2.06169,2.06169,A,161408.90
3.28531,57.68791208,11.98129610,57.68788667,11.98131633,16:14:09.052063,0.00810,1.64277,-0.02600,-0.00611,0.00866,-0.05678,-0.01151,-0.01263,-0.01854,0.97594,3.27825,4.36888,1.98584,1.98403,-2.55949,6.01343,3.26329,-1.35715,3.18759,2.06169,2.06169,A,161408.90
3.29061,57.68791208,11.98129610,57.68788667,11.98131633,16:14:09.057356,0.00296,1.64277,-0.02655,-0.00611,0.00958,-0.05999,-0.01243,-0.07369,-0.04752,0.98143,3.28720,4.36888,1.98584,1.98403,-2.55949,6.01343,3.26329,-1.35715,3.18759,2.06169,2.06169,A,161408.90
3.30177,57.68791208,11.98129610,57.68788667,11.98131633,16:14:09.068514,0.00335,1.64277,-0.02602,-0.00611,0.01126,-0.03357,-0.01227,-0.03623,0.01909,0.96423,3.29834,4.36888,1.98584,1.98403,-2.55949,6.01343,3.26329,-1.35715,3.18759,2.06169,2.06169,A,161408.90
3.31210,57.68791208,11.98129610,57.68788667,11.98131633,16:14:09.078857,0.00330,1.64277,-0.02603,-0.00611,0.01599,-0.02853,-0.00815,0.04178,-0.01671,0.92555,3.30868,4.36888,1.98584,1.98403,-2.55949,6.01343,3.26329,-1.35715,3.18759,2.06169,2.06169,A,161408.90
3.32243,57.68791208,11.98129610,57.68788667,11.98131633,16:14:09.089174,0.00300,1.65695,-0.02610,-0.00611,0.02302,-0.03265,0.00086,0.06069,-0.02355,0.87175,3.31902,4.36888,1.98584,1.98403,-2.55949,6.01343,3.26329,-1.35715,3.18759,2.06169,2.06169,A,161408.90
3.33310,57.68791208,11.98129610,57.68788667,11.98131633,16:14:09.099844,0.00326,1.65695,-0.02651,-0.00611,0.02669,-0.05663,0.00850,0.05600,-0.04307,0.81691,3.32969,4.36888,1.98584,1.98403,-2.55949,6.01343,3.26329,-1.35715,3.18759,2.06169,2.06169,A,161408.90
3.34315,57.68791208,11.98129610,57.68788667,11.98131633,16:14:09.110113,0.00292,1.65695,-0.02661,-0.00611,0.02638,-0.06717,0.01186,-0.05868,-0.02794,0.90256,3.33976,4.36888,1.98584,1.98403,-2.55949,6.01343,3.26329,-1.35715,3.18759,2.06169,2.06169,A,161408.90
3.35375,57.68791208,11.98129610,57.68788667,11.98131633,16:14:09.120498,0.00312,1.65695,-0.02671,-0.00611,0.03325,-0.06014,0.01048,-0.13701,-0.03849,1.03737,3.35035,4.36888,1.98584,1.98403,-2.55949,6.01343,3.26329,-1.35715,3.18759,2.06169,2.06169,A,161408.90
3.38136,57.68791208,11.98129610,57.68788817,11.98131533,16:14:09.148152,0.02033,1.65695,-0.02644,-0.00611,0.03264,-0.03968,-0.00326,-0.11059,-0.01305,1.18883,3.36077,4.36888,1.98584,1.98403,-2.55949,6.01343,3.37577,-1.41659,3.35438,1.91312,1.91312,A,161409.00
3.39712,57.68791463,11.98129399,57.68788817,11.98131533,16:14:09.163876,0.00710,1.65695,-0.02563,-0.00611,0.04257,-0.01738,-0.00937,0.05911,-0.04124,1.06671,3.39138,3.82649,1.97294,1.97112,-2.68515,6.29739,3.37577,-1.41659,3.35438,1.91312,1.91312,A,161409.00
3.40357,57.68791463,11.98129399,57.68788817,11.98131533,16:14:09.170326,0.00315,1.65695,-0.02574,-0.00611,0.03142,-0.03235,-0.01304,-0.05893,-0.03099,1.01077,3.39995,3.82649,1.97294,1.97112,-2.68515,6.29739,3.37577,-1.41659,3.35438,1.91312,1.91312,A,161409.00
3.41396,57.68791463,11.98129399,57.68788817,11.98131533,16:14:09.180706,0.00316,1.65695,-0.02515,-0.00611,0.03050,-0.02731,-0.00968,-0.06002,0.01092,0.92903,3.41056,3.82649,1.97294,1.97112,-2.68515,6.29739,3.37577,-1.41659,3.35438,1.91312,1.91312,A,161409.00
3.42432,57.68791463,11.98129399,57.68788817,11.98131533,16:14:09.191066,0.00311,1.65695,-0.02384,-0.00611,0.03188,-0.03464,-0.00571,-0.09193,0.05331,0.88975,3.42091,3.82649,1.97294,1.97112,-2.68515,6.29739,3.37577,-1.41659,3.35438,1.91312,1.91312,A,161409.00
3.43463,57.68791463,11.98129399,57.68788817,11.98131533,16:14:09.201375,0.00297,1.65695,-0.02254,-0.00611,0.04929,-0.02548,0.00071,-0.00885,0.04166,0.85973,3.43122,3.82649,1.97294,1.97112,-2.68515,6.29739,3.37577,-1.41659,3.35438,1.91312,1.91312,A,161409.00
3.44515,57.68791463,11.98129399,57.68788817,11.98131533,16:14:09.211891,0.00309,1.65695,-0.02250,-0.00611,0.05616,-0.02303,0.00865,0.01610,-0.03538,0.91085,3.44175,3.82649,1.97294,1.97112,-2.68515,6.29739,3.37577,-1.41659,3.35438,1.91312,1.91312,A,161409.00
3.45558,57.68791463,11.98129399,57.68788817,11.98131533,16:14:09.222338,0.00314,1.65695,-0.02280,-0.00611,0.05524,-0.01280,0.00926,-0.04325,-0.06051,1.00540,3.45198,3.82649,1.97294,1.97112,-2.68515,6.29739,3.37577,-1.41659,3.35438,1.91312,1.91312,A,161409.00
3.46599,57.68791463,11.98129399,57.68788817,11.98131533,16:14:09.232738,0.00314,1.65695,-0.02299,-0.00611,0.04073,0.00369,0.01109,-0.10644,-0.04703,1.06848,3.46258,3.82649,1.97294,1.97112,-2.68515,6.29739,3.37577,-1.41659,3.35438,1.91312,1.91312,A,161409.00
3.49255,57.68791463,11.98129399,57.68788950,11.98131417,16:14:09.259317,0.01931,1.65695,-0.02202,-0.00611,0.02775,0.02431,0.00636,-0.07052,0.04758,1.12838,3.47294,3.82649,1.97294,1.97112,-2.68515,6.29739,3.48800,-1.48593,3.50264,2.00828,2.00828,A,161409.10
3.50810,57.68791663,11.98129242,57.68788950,11.98131417,16:14:09.274862,0.00740,1.65695,-0.02030,-0.00611,0.03631,-0.00868,-0.00235,0.01604,0.04605,1.04914,3.50172,3.39259,1.97655,1.97473,-2.77846,6.51984,3.48800,-1.48593,3.50264,2.00828,2.00828,A,161409.10
3.51421,57.68791663,11.98129242,57.68788950,11.98131417,16:14:09.280951,0.00311,1.65695,-0.01990,-0.00611,0.03631,-0.01830,-0.01411,-0.07259,0.00482,1.07598,3.51081,3.39259,1.97655,1.97473,-2.77846,6.51984,3.48800,-1.48593,3.50264,2.00828,2.00828,A,161409.10
3.52463,57.68791663,11.98129242,57.68788950,11.98131417,16:14:09.291374,0.00314,1.65695,-0.01920,-0.00611,0.03844,0.00339,-0.01518,-0.14146,0.02117,1.04109,3.52122,3.39259,1.97655,1.97473,-2.77846,6.51984,3.48800,-1.48593,3.50264,2.00828,2.00828,A,161409.10
3.53471,57.68791663,11.98129242,57.68788950,11.98131417,16:14:09.301460,0.00299,1.65695,-0.01942,-0.00611,0.03615,0.01790,-0.01212,-0.17348,-0.03758,0.97734,3.53130,3.39259,1.97655,1.97473,-2.77846,6.51984,3.48800,-1.48593,3.50264,2.00828,2.00828,A,161409.10
3.54528,57.68791663,11.98129242,57.68788950,11.98131417,16:14:09.312023,0.00317,1.65695,-0.01906,-0.00611,0.03936,0.02599,-0.01273,0.04532,-0.00299,0.84448,3.54183,3.39259,1.97655,1.97473,-2.77846,6.51984,3.48800,-1.48593,3.50264,2.00828,2.00828,A,161409.10
3.55564,57.68791663,11.98129242,57.68788950,11.98131417,16:14:09.322394,0.00313,1.65695,-0.01960,-0.00611,0.03432,0.00782,-0.00647,0.07710,-0.04813,0.82124,3.55203,3.39259,1.97655,1.97473,-2.77846,6.51984,3.48800,-1.48593,3.50264,2.00828,2.00828,A,161409.10
3.56603,57.68791663,11.98129242,57.68788950,11.98131417,16:14:09.332777,0.00313,1.65695,-0.01990,-0.00611,0.03524,-0.00807,-0.00693,0.00933,-0.03776,0.84058,3.56263,3.39259,1.97655,1.97473,-2.77846,6.51984,3.48800,-1.48593,3.50264,2.00828,2.00828,A,161409.10
3.57641,57.68791663,11.98129242,57.68788950,11.98131417,16:14:09.343160,0.00312,1.65695,-0.02009,-0.00611,0.03844,-0.01769,-0.00632,-0.07058,-0.03532,0.90506,3.57301,3.39259,1.97655,1.97473,-2.77846,6.51984,3.48800,-1.48593,3.50264,2.00828,2.00828,A,161409.10
3.58662,57.68791663,11.98129242,57.68788950,11.98131417,16:14:09.353366,0.00296,1.65695,-0.01979,-0.00611,0.03447,-0.00669,-0.00433,-0.14335,-0.00396,1.05445,3.58323,3.39259,1.97655,1.97473,-2.77846,6.51984,3.48800,-1.48593,3.50264,2.00828,2.00828,A,161409.10
3.62467,57.68791663,11.98129242,57.68789217,11.98131250,16:14:09.391812,0.03076,1.65695,-0.01919,-0.00611,0.03264,0.01973,-0.00784,-0.03886,0.02086,1.17840,3.59367,3.39259,1.97655,1.97473,-2.77846,6.51984,3.61935,-1.58499,3.79916,1.89322,1.89322,A,161409.30
3.63948,57.68791886,11.98129067,57.68789217,11.98131250,16:14:09.406252,0.00551,1.65695,-0.01817,-0.00611,0.00164,0.01667,-0.01945,-0.05112,0.06259,0.97466,3.63388,3.04546,1.96224,1.96042,-2.88266,6.76719,3.61935,-1.58499,3.79916,1.89322,1.89322,A,161409.30
3.64845,57.68791886,11.98129067,57.68789217,11.98131250,16:14:09.415215,0.00374,1.65695,-0.01785,-0.00611,0.00592,0.00537,-0.01915,-0.04014,0.01623,0.91506,3.64498,3.04546,1.96224,1.96042,-2.88266,6.76719,3.61935,-1.58499,3.79916,1.89322,1.89322,A,161409.30
3.65824,57.68791886,11.98129067,57.68789217,11.98131250,16:14:09.424984,0.00313,1.65695,-0.01793,-0.00611,0.01034,-0.00425,-0.02251,0.06521,-0.00866,0.82844,3.65483,3.04546,1.96224,1.96042,-2.88266,6.76719,3.61935,-1.58499,3.79916,1.89322,1.89322,A,161409.30
3.66886,57.68791886,11.98129067,57.68789217,11.98131250,16:14:09.435611,0.00336,1.65695,-0.01912,-0.00611,0.00958,-0.02593,-0.02174,-0.02593,-0.07100,0.84168,3.66545,3.04546,1.96224,1.96042,-2.88266,6.76719,3.61935,-1.58499,3.79916,1.89322,1.89322,A,161409.30
3.67873,57.68791886,11.98129067,57.68789217,11.98131250,16:14:09.445474,0.00300,1.65695,-0.02005,-0.00611,0.00225,-0.02257,-0.02098,-0.06393,-0.06063,0.95252,3.67532,3.04546,1.96224,1.96042,-2.88266,6.76719,3.61935,-1.58499,3.79916,1.89322,1.89322,A,161409.30
3.68948,57.68791886,11.98129067,57.68789217,11.98131250,16:14:09.456233,0.00336,1.65695,-0.02070,-0.00611,-0.00279,-0.00364,-0.02174,-0.12999,-0.04331,1.04603,3.68608,3.04546,1.96224,1.96042,-2.88266,6.76719,3.61935,-1.58499,3.79916,1.89322,1.89322,A,161409.30
3.70034,57.68791886,11.98129067,57.68789217,11.98131250,16:14:09.467092,0.00329,1.65695,-0.02106,-0.00611,-0.01409,0.01759,-0.02189,-0.12243,-0.01708,1.10514,3.69690,3.04546,1.96224,1.96042,-2.88266,6.76719,3.61935,-1.58499,3.79916,1.89322,1.89322,A,161409.30
3.71055,57.68791886,11.98129067,57.68789217,11.98131250,16:14:09.477291,0.00297,1.65695,-0.02142,-0.00611,-0.01226,0.03699,-0.02251,-0.00305,-0.01836,1.09916,3.70714,3.04546,1.96224,1.96042,-2.88266,6.76719,3.61935,-1.58499,3.79916,1.89322,1.89322,A,161409.30
3.73881,57.68791886,11.98129067,57.68789350,11.98131150,16:14:09.505575,0.02084,1.84597,-0.02129,-0.00611,-0.01653,0.02431,-0.02434,0.04904,0.01909,1.05310,3.71771,3.04546,1.96224,1.96042,-2.88266,6.76719,3.73269,-1.64443,3.94742,1.95208,1.95208,A,161409.40
3.75661,57.68792036,11.98128958,57.68789350,11.98131150,16:14:09.523364,0.00717,1.84597,-0.02213,-0.00611,-0.02173,-0.01585,-0.02373,-0.14725,-0.01068,0.99808,3.75089,2.80556,1.95932,1.95751,-2.94735,6.93453,3.73269,-1.64443,3.94742,1.95208,1.95208,A,161409.40
3.76267,57.68792036,11.98128958,57.68789350,11.98131150,16:14:09.529409,0.00298,1.84597,-0.02216,-0.00611,-0.01104,0.00705,-0.01960,-0.07881,0.00073,0.96880,3.75926,2.80556,1.95932,1.95751,-2.94735,6.93453,3.73269,-1.64443,3.94742,1.95208,1.95208,A,161409.40
3.77900,57.68792036,11.98128958,57.68789350,11.98131150,16:14:09.545987,0.00891,14.71403,-0.02107,-0.00611,-0.01653,0.01423,-0.01212,0.05362,-0.05832,0.91793,3.77558,2.80556,1.95932,1.95751,-2.94735,6.93453,3.73269,-1.64443,3.94742,1.95208,1.95208,A,161409.40
3.78639,57.68792036,11.98128958,57.68789350,11.98131150,16:14:09.553134,0.00616,14.71403,-0.01991,-0.00611,-0.01516,0.01118,-0.00922,0.02105,-0.03691,0.92635,3.78296,2.80556,1.95932,1.95751,-2.94735,6.93453,3.73269,-1.64443,3.94742,1.95208,1.95208,A,161409.40
3.79598,57.68792036,11.98128958,57.68789350,11.98131150,16:14:09.562733,0.00535,14.71403,-0.01823,-0.00611,-0.02921,0.00705,-0.01059,-0.05783,0.01427,0.97972,3.79253,2.80556,1.95932,1.95751,-2.94735,6.93453,3.73269,-1.64443,3.94742,1.95208,1.95208,A,161409.40
3.80650,57.68792036,11.98128958,57.68789350,11.98131150,16:14:09.573248,0.00547,14.71403,-0.01627,-0.00611,-0.02081,0.00217,-0.00723,-0.12529,0.03873,1.03291,3.80307,2.80556,1.95932,1.95751,-2.94735,6.93453,3.73269,-1.64443,3.94742,1.95208,1.95208,A,161409.40
3.81816,57.68792036,11.98128958,57.68789350,11.98131150,16:14:09.584918,0.00660,14.71403,-0.01495,-0.00611,-0.01210,0.01790,-0.00952,-0.11065,-0.00073,1.11947,3.81470,2.80556,1.95932,1.95751,-2.94735,6.93453,3.73269,-1.64443,3.94742,1.95208,1.95208,A,161409.40
3.82875,57.68792036,11.98128958,57.68789350,11.98131150,16:14:09.595499,0.00679,14.71403,-0.01402,-0.00611,-0.01287,0.01866,-0.01976,0.07594,-0.03184,1.08946,3.82532,2.80556,1.95932,1.95751,-2.94735,6.93453,3.73269,-1.64443,3.94742,1.95208,1.95208,A,161409.40
3.85557,57.68792036,11.98128958,57.68789483,11.98131033,16:14:09.623070,0.02323,14.71403,-0.01262,-0.00611,-0.01653,0.00827,-0.01640,0.04978,0.00604,1.08495,3.83553,2.80556,1.95932,1.95751,-2.94735,6.93453,3.85050,-1.71377,4.09568,2.00828,2.00828,A,161409.50
3.87239,57.68792161,11.98128870,57.68789483,11.98131033,16:14:09.639152,0.00860,14.71403,-0.01148,-0.00611,-0.01409,0.01499,-0.01518,-0.10736,-0.01171,0.91421,3.86662,5.18726,1.96543,1.96361,-2.99988,7.07305,3.85050,-1.71377,4.09568,2.00828,2.00828,A,161409.50
3.88014,57.68792161,11.98128870,57.68789483,11.98131033,16:14:09.646908,0.00613,14.71403,-0.00929,-0.00611,-0.01653,0.01683,-0.00800,-0.14725,0.03758,0.91262,3.87664,5.18726,1.96543,1.96361,-2.99988,7.07305,3.85050,-1.71377,4.09568,2.00828,2.00828,A,161409.50
3.89087,57.68792161,11.98128870,57.68789483,11.98131033,16:14:09.658670,0.00646,14.71403,-0.00816,-0.00611,-0.00920,0.02797,-0.00174,-0.00445,-0.03032,0.90866,3.88738,5.18726,1.96543,1.96361,-2.99988,7.07305,3.85050,-1.71377,4.09568,2.00828,2.00828,A,161409.50
3.90185,57.68792161,11.98128870,57.68789483,11.98131033,16:14:09.668616,0.00704,14.71403,-0.00642,-0.00611,-0.01149,0.01973,0.00666,0.03111,0.01464,0.94440,3.89784,5.18726,1.96543,1.96361,-2.99988,7.07305,3.85050,-1.71377,4.09568,2.00828,2.00828,A,161409.50
3.91026,57.68792161,11.98128870,57.68789483,11.98131033,16:14:09.677008,0.00495,14.71403,-0.00514,-0.00611,0.00072,0.01866,0.00773,-0.02214,-0.01513,1.00632,3.90682,5.18726,1.96543,1.96361,-2.99988,7.07305,3.85050,-1.71377,4.09568,2.00828,2.00828,A,161409.50
3.92236,57.68792161,11.98128870,57.68789483,11.98131033,16:14:09.689116,0.00670,14.71403,-0.00434,-0.00611,-0.01302,0.00980,0.00926,-0.11846,-0.02898,1.09397,3.91893,5.18726,1.96543,1.96361,-2.99988,7.07305,3.85050,-1.71377,4.09568,2.00828,2.00828,A,161409.50
3.93288,57.68792161,11.98128870,57.68789483,11.98131033,16:14:09.699631,0.00682,14.71403,-0.00326,-0.00611,-0.00798,0.02691,0.00483,-0.11389,-0.00878,1.12515,3.92944,5.18726,1.96543,1.96361,-2.99988,7.07305,3.85050,-1.71377,4.09568,2.00828,2.00828,A,161409.50
3.94308,57.68792161,11.98128870,57.68789483,11.98131033,16:14:09.710121,0.00664,14.71403,-0.00221,-0.00611,-0.01760,0.03317,-0.00174,0.02525,-0.00903,1.07427,3.93965,5.18726,1.96543,1.96361,-2.99988,7.07305,3.85050,-1.71377,4.09568,2.00828,2.00828,A,161409.50
3.97031,57.68792161,11.98128870,57.68789633,11.98130950,16:14:09.737427,0.02348,14.71403,-0.00072,-0.00611,-0.02539,0.00980,-0.00510,0.06551,0.02739,1.04316,3.95022,5.18726,1.96543,1.96361,-2.99988,7.07305,3.96510,-1.76330,4.26247,1.85946,1.85946,A,161409.60
3.98579,57.68792489,11.98128621,57.68789633,11.98130950,16:14:09.752554,0.00808,14.71403,0.00012,-0.00611,-0.01485,-0.00761,-0.00510,-0.13768,-0.02489,0.86394,3.97980,7.09261,1.94707,1.94526,-3.14744,7.43785,3.96510,-1.76330,4.26247,1.85946,1.85946,A,161409.60
3.99454,57.68792489,11.98128621,57.68789633,11.98130950,16:14:09.761294,0.00644,14.71403,0.00153,-0.00611,-0.02997,0.00308,-0.00800,-0.10218,0.00561,0.87767,3.99112,7.09261,1.94707,1.94526,-3.14744,7.43785,3.96510,-1.76330,4.26247,1.85946,1.85946,A,161409.60
4.00375,57.68792489,11.98128621,57.68789633,11.98130950,16:14:09.770660,0.00524,14.71403,0.00284,-0.00611,-0.01928,0.01973,-0.00281,-0.08503,-0.00006,0.94940,4.00007,7.09261,1.94707,1.94526,-3.14744,7.43785,3.96510,-1.76330,4.26247,1.85946,1.85946,A,161409.60
4.01332,57.68792489,11.98128621,57.68789633,11.98130950,16:14:09.780903,0.00441,14.71403,0.00374,-0.00611,-0.02722,0.03088,-0.00525,-0.05356,-0.01122,1.02754,4.00990,7.09261,1.94707,1.94526,-3.14744,7.43785,3.96510,-1.76330,4.26247,1.85946,1.85946,A,161409.60
4.02605,57.68792489,11.98128621,57.68789633,11.98130950,16:14:09.792809,0.00661,14.71403,0.00416,-0.00611,-0.02646,0.02278,-0.00158,-0.02928,-0.03148,1.12441,4.02256,7.09261,1.94707,1.94526,-3.14744,7.43785,3.96510,-1.76330,4.26247,1.85946,1.85946,A,161409.60
4.03671,57.68792489,11.98128621,57.68789633,11.98130950,16:14:09.803506,0.00688,14.71403,0.00473,-0.00611,-0.03364,0.01438,-0.00067,-0.00043,-0.02159,1.11392,4.03224,7.09261,1.94707,1.94526,-3.14744,7.43785,3.96510,-1.76330,4.26247,1.85946,1.85946,A,161409.60
4.04678,57.68792489,11.98128621,57.68789633,11.98130950,16:14:09.813530,0.00672,14.71403,0.00553,-0.00611,-0.03669,-0.00394,-0.00219,0.01641,-0.00098,1.07744,4.04336,7.09261,1.94707,1.94526,-3.14744,7.43785,3.96510,-1.76330,4.26247,1.85946,1.85946,A,161409.60
4.05642,57.68792489,11.98128621,57.68789633,11.98130950,16:14:09.823176,0.00596,14.71403,0.00637,-0.00611,-0.03333,-0.01387,-0.00403,0.02525,-0.01177,1.00174,4.05298,7.09261,1.94707,1.94526,-3.14744,7.43785,3.96510,-1.76330,4.26247,1.85946,1.85946,A,161409.60
4.08459,57.68792489,11.98128621,57.68789767,11.98130833,16:14:09.851348,0.02387,14.71403,0.00755,-0.00611,-0.03791,-0.02990,-0.00143,-0.04483,0.01153,0.95276,4.06359,7.09261,1.94707,1.94526,-3.14744,7.43785,4.07961,-1.83265,4.41073,2.00828,2.00828,A,161409.70
4.09843,57.68792972,11.98128277,57.68789767,11.98130833,16:14:09.865541,0.00751,14.71403,0.00820,-0.00608,-0.02386,0.00965,0.00071,-0.08778,0.00238,1.01260,4.09164,8.61690,1.95283,1.95103,-3.35227,7.97496,4.07961,-1.83265,4.41073,2.00828,2.00828,A,161409.70
4.10713,57.68792972,11.98128277,57.68789767,11.98130833,16:14:09.874127,0.00600,14.71403,0.00925,-0.00588,-0.01317,0.02385,0.00544,-0.01415,0.00098,1.03242,4.10292,8.61690,1.95283,1.95103,-3.35227,7.97496,4.07961,-1.83265,4.41073,2.00828,2.00828,A,161409.70
4.11769,57.68792972,11.98128277,57.68789767,11.98130833,16:14:09.884447,0.00569,14.71403,0.00997,-0.00543,-0.00691,0.01454,0.01186,-0.00415,-0.01897,0.99686,4.11427,8.61690,1.95283,1.95103,-3.35227,7.97496,4.07961,-1.83265,4.41073,2.00828,2.00828,A,161409.70
4.12881,57.68792972,11.98128277,57.68789767,11.98130833,16:14:09.895562,0.00642,14.71403,0.00980,-0.00481,-0.00600,0.00614,0.00895,0.02623,-0.06753,0.98088,4.12538,8.61690,1.95283,1.95103,-3.35227,7.97496,4.07961,-1.83265,4.41073,2.00828,2.00828,A,161409.70
4.13860,57.68792972,11.98128277,57.68789767,11.98130833,16:14:09.905345,0.00580,14.71403,0.01030,-0.00416,-0.00523,-0.00990,0.00972,-0.03684,-0.00915,1.03560,4.13516,8.61690,1.95283,1.95103,-3.35227,7.97496,4.07961,-1.83265,4.41073,2.00828,2.00828,A,161409.70
4.15163,57.68792972,11.98128277,57.68789767,11.98130833,16:14:09.918403,0.00844,14.71403,0.01079,-0.00359,-0.00661,-0.01494,0.00162,-0.03184,0.00647,1.07140,4.14799,8.61690,1.95283,1.95103,-3.35227,7.97496,4.07961,-1.83265,4.41073,2.00828,2.00828,A,161409.70
4.16043,57.68792972,11.98128277,57.68789767,11.98130833,16:14:09.927197,0.00685,14.71403,0.01145,-0.00331,0.00362,-0.01952,-0.00464,0.02166,0.01263,1.02035,4.15698,8.61690,1.95283,1.95103,-3.35227,7.97496,4.07961,-1.83265,4.41073,2.00828,2.00828,A,161409.70
4.17077,57.68792972,11.98128277,57.68789767,11.98130833,16:14:09.937568,0.00691,14.71403,0.01214,-0.00317,0.00744,-0.01723,-0.00769,-0.00525,0.01464,1.00479,4.16679,8.61690,1.95283,1.95103,-3.35227,7.97496,4.07961,-1.83265,4.41073,2.00828,2.00828,A,161409.70
4.19940,57.68792972,11.98128277,57.68789883,11.98130700,16:14:09.966170,0.02513,14.71403,0.01308,-0.00311,0.00378,-0.01937,-0.00097,-0.01013,0.03129,0.96642,4.17771,8.61690,1.95283,1.95103,-3.35227,7.97496,4.19423,-1.91190,4.54046,2.11919,2.11919,A,161409.80
4.21387,57.68793587,11.98127823,57.68789883,11.98130700,16:14:09.980660,0.00723,1.75015,0.01297,-0.00311,0.00576,0.00354,0.01018,-0.04874,0.01415,0.99552,4.20737,7.24355,1.97335,1.97242,-3.62216,8.65868,4.19423,-1.91190,4.54046,2.11919,2.11919,A,161409.80
4.22065,57.68793587,11.98127823,57.68789883,11.98130700,16:14:09.987405,0.00362,1.75015,0.01287,-0.00311,0.00668,0.00033,0.00498,-0.03739,0.02312,1.02626,4.21722,7.24355,1.97335,1.97242,-3.62216,8.65868,4.19423,-1.91190,4.54046,2.11919,2.11919,A,161409.80
4.23055,57.68793587,11.98127823,57.68789883,11.98130700,16:14:09.997294,0.00298,1.75015,0.01282,-0.00311,0.01523,-0.00883,0.00453,-0.00909,0.02068,1.04310,4.22714,7.24355,1.97335,1.97242,-3.62216,8.65868,4.19423,-1.91190,4.54046,2.11919,2.11919,A,161409.80
4.24110,57.68793587,11.98127823,57.68789883,11.98130700,16:14:10.007843,0.00313,1.75015,0.01237,-0.00311,0.02455,-0.01998,0.00254,0.00079,-0.01452,1.03956,4.23770,7.24355,1.97335,1.97242,-3.62216,8.65868,4.19423,-1.91190,4.54046,2.11919,2.11919,A,161409.80
4.25172,57.68793587,11.98127823,57.68789883,11.98130700,16:14:10.018487,0.00336,1.75015,0.01112,-0.00311,0.02424,-0.01662,-0.00067,-0.00744,-0.06930,1.03066,4.24788,7.24355,1.97335,1.97242,-3.62216,8.65868,4.19423,-1.91190,4.54046,2.11919,2.11919,A,161409.80
4.26193,57.68793587,11.98127823,57.68789883,11.98130700,16:14:10.028676,0.00318,1.75015,0.00941,-0.00311,0.02439,-0.02028,-0.00510,-0.05819,-0.09699,0.97393,4.25852,7.24355,1.97335,1.97242,-3.62216,8.65868,4.19423,-1.91190,4.54046,2.11919,2.11919,A,161409.80
4.27324,57.68793587,11.98127823,57.68789883,11.98130700,16:14:10.040004,0.00394,1.75015,0.00862,-0.00311,0.02317,-0.01662,-0.00769,-0.02538,-0.03861,0.94672,4.26979,7.24355,1.97335,1.97242,-3.62216,8.65868,4.19423,-1.91190,4.54046,2.11919,2.11919,A,161409.80
4.28264,57.68793587,11.98127823,57.68789883,11.98130700,16:14:10.049377,0.00297,1.75015,0.00904,-0.00311,0.02836,-0.00623,-0.00204,-0.04240,0.03715,0.93751,4.27923,7.24355,1.97335,1.97242,-3.62216,8.65868,4.19423,-1.91190,4.54046,2.11919,2.11919,A,161409.80
4.29320,57.68793587,11.98127823,57.68789883,11.98130700,16:14:10.059944,0.00314,1.75015,0.00896,-0.00311,0.03844,-0.00012,0.00498,-0.02550,-0.00305,0.95367,4.28979,7.24355,1.97335,1.97242,-3.62216,8.65868,4.19423,-1.91190,4.54046,2.11919,2.11919,A,161409.80
4.33720,57.68793587,11.98127823,57.68790150,11.98130483,16:14:10.103962,0.03674,1.75015,0.00922,-0.00297,0.04425,0.00598,0.01369,0.00439,0.01653,0.98899,4.30016,7.24355,1.97335,1.97242,-3.62216,8.65868,4.33006,-2.04068,4.83698,1.98052,1.98052,A,161410.00
4.35724,57.68794211,11.98127323,57.68790150,11.98130483,16:14:10.124011,0.01011,1.75015,0.01151,-0.00164,0.05158,-0.00150,0.00682,0.00708,0.02336,1.05780,4.34752,6.14487,1.97205,1.97157,-3.91916,9.35309,4.33006,-2.04068,4.83698,1.98052,1.98052,A,161410.00
4.37148,57.68794211,11.98127323,57.68790150,11.98130483,16:14:10.138258,0.00498,1.75015,0.01239,-0.00161,0.05738,-0.02059,0.00040,0.03977,0.01324,0.92019,4.36786,6.14487,1.97205,1.97157,-3.91916,9.35309,4.33006,-2.04068,4.83698,1.98052,1.98052,A,161410.00
4.38017,57.68794211,11.98127323,57.68790150,11.98130483,16:14:10.146916,0.00327,1.75015,0.01224,-0.00161,0.06334,-0.02899,0.00086,-0.12115,-0.01269,0.91512,4.37673,6.14487,1.97205,1.97157,-3.91916,9.35309,4.33006,-2.04068,4.83698,1.98052,1.98052,A,161410.00
4.39042,57.68794211,11.98127323,57.68790150,11.98130483,16:14:10.157169,0.00295,1.75015,0.01225,-0.00161,0.07067,-0.01952,-0.00189,-0.07204,-0.01342,0.90957,4.38702,6.14487,1.97205,1.97157,-3.91916,9.35309,4.33006,-2.04068,4.83698,1.98052,1.98052,A,161410.00
4.40103,57.68794211,11.98127323,57.68790150,11.98130483,16:14:10.167785,0.00317,1.75015,0.01188,-0.00161,0.07082,-0.01036,0.00223,-0.07308,-0.03959,0.96575,4.39763,6.14487,1.97205,1.97157,-3.91916,9.35309,4.33006,-2.04068,4.83698,1.98052,1.98052,A,161410.00
4.41112,57.68794211,11.98127323,57.68790150,11.98130483,16:14:10.178081,0.00302,1.75015,0.01100,-0.00161,0.06853,-0.00822,0.00743,0.04862,-0.07064,0.99119,4.40771,6.14487,1.97205,1.97157,-3.91916,9.35309,4.33006,-2.04068,4.83698,1.98052,1.98052,A,161410.00
4.42166,57.68794211,11.98127323,57.68790150,11.98130483,16:14:10.188398,0.00317,1.75015,0.01091,-0.00161,0.07021,-0.01616,0.00575,0.02281,-0.02397,1.03011,4.41825,6.14487,1.97205,1.97157,-3.91916,9.35309,4.33006,-2.04068,4.83698,1.98052,1.98052,A,161410.00
4.44777,57.68794211,11.98127323,57.68790250,11.98130350,16:14:10.215313,0.01888,1.75015,0.01090,-0.00161,0.05967,-0.01387,0.00621,0.01964,-0.01031,1.03151,4.42864,6.14487,1.97205,1.97157,-3.91916,9.35309,4.44332,-2.11993,4.94817,2.19000,2.19000,A,161410.10
4.46495,57.68794524,11.98127069,57.68790250,11.98130350,16:14:10.231707,0.00723,1.75015,0.01270,-0.00161,0.06914,-0.02929,0.00208,-0.06740,0.01257,0.99485,4.45926,5.26593,2.00399,2.00351,-4.06976,9.70060,4.44332,-2.11993,4.94817,2.19000,2.19000,A,161410.10
4.47119,57.68794524,11.98127069,57.68790250,11.98130350,16:14:10.238146,0.00325,1.75015,0.01316,-0.00161,0.06838,-0.02517,-0.00113,-0.03032,0.02629,1.01888,4.46778,5.26593,2.00399,2.00351,-4.06976,9.70060,4.44332,-2.11993,4.94817,2.19000,2.19000,A,161410.10
4.48151,57.68794524,11.98127069,57.68790250,11.98130350,16:14:10.248259,0.00317,1.75015,0.01335,-0.00161,0.06181,-0.02975,0.00132,-0.02623,0.00470,1.03828,4.47811,5.26593,2.00399,2.00351,-4.06976,9.70060,4.44332,-2.11993,4.94817,2.19000,2.19000,A,161410.10
4.49190,57.68794524,11.98127069,57.68790250,11.98130350,16:14:10.258647,0.00316,1.75015,0.01384,-0.00161,0.06028,-0.02960,0.00178,-0.04362,0.02727,1.05432,4.48847,5.26593,2.00399,2.00351,-4.06976,9.70060,4.44332,-2.11993,4.94817,2.19000,2.19000,A,161410.10
4.50245,57.68794524,11.98127069,57.68790250,11.98130350,16:14:10.269201,0.00332,1.75015,0.01352,-0.00161,0.06899,-0.02807,0.00391,-0.05575,-0.03581,1.02986,4.49904,5.26593,2.00399,2.00351,-4.06976,9.70060,4.44332,-2.11993,4.94817,2.19000,2.19000,A,161410.10
4.51273,57.68794524,11.98127069,57.68790250,11.98130350,16:14:10.279473,0.00320,1.75015,0.01358,-0.00161,0.05860,-0.02654,-0.00006,-0.04386,-0.00128,0.97155,4.50931,5.26593,2.00399,2.00351,-4.06976,9.70060,4.44332,-2.11993,4.94817,2.19000,2.19000,A,161410.10
4.52277,57.68794524,11.98127069,57.68790250,11.98130350,16:14:10.289520,0.00302,1.75015,0.01340,-0.00161,0.05417,-0.02380,0.00422,-0.02348,-0.01336,0.96996,4.51936,5.26593,2.00399,2.00351,-4.06976,9.70060,4.44332,-2.11993,4.94817,2.19000,2.19000,A,161410.10
4.53331,57.68794524,11.98127069,57.68790250,11.98130350,16:14:10.300054,0.00316,1.75015,0.01396,-0.00161,0.04883,-0.02685,0.00025,0.01830,0.03544,0.94886,4.52990,5.26593,2.00399,2.00351,-4.06976,9.70060,4.44332,-2.11993,4.94817,2.19000,2.19000,A,161410.10
4.56053,57.68794524,11.98127069,57.68790383,11.98130267,16:14:10.327292,0.01992,1.75015,0.01467,-0.00161,0.04639,-0.02013,-0.00418,-0.06204,0.04935,0.96618,4.54017,5.26593,2.00399,2.00351,-4.06976,9.70060,4.55504,-2.16946,5.09643,1.89322,1.89322,A,161410.20
4.57380,57.68794754,11.98126852,57.68790383,11.98130267,16:14:10.340550,0.00685,1.75015,0.01517,-0.00161,0.03096,-0.00486,-0.01609,0.00592,0.01238,1.06219,4.56817,4.56277,1.98674,1.98627,-4.19925,9.95642,4.55504,-2.16946,5.09643,1.89322,1.89322,A,161410.20
4.58053,57.68794754,11.98126852,57.68790383,11.98130267,16:14:10.347288,0.00334,1.75015,0.01548,-0.00161,0.02577,-0.00623,-0.02403,0.01208,0.04337,1.05176,4.57710,4.56277,1.98674,1.98627,-4.19925,9.95642,4.55504,-2.16946,5.09643,1.89322,1.89322,A,161410.20
4.59065,57.68794754,11.98126852,57.68790383,11.98130267,16:14:10.357393,0.00299,1.75015,0.01559,-0.00161,0.02210,-0.01799,-0.02357,-0.00433,0.03141,1.07653,4.58724,4.56277,1.98674,1.98627,-4.19925,9.95642,4.55504,-2.16946,5.09643,1.89322,1.89322,A,161410.20
4.60120,57.68794754,11.98126852,57.68790383,11.98130267,16:14:10.367949,0.00315,1.75015,0.01610,-0.00172,0.01370,-0.02563,-0.02525,-0.07271,0.06307,1.04408,4.59780,4.56277,1.98674,1.98627,-4.19925,9.95642,4.55504,-2.16946,5.09643,1.89322,1.89322,A,161410.20
4.61162,57.68794754,11.98126852,57.68790383,11.98130267,16:14:10.378380,0.00317,1.75015,0.01591,-0.00212,0.01233,-0.02563,-0.02663,-0.06503,0.01513,0.97771,4.60800,4.56277,1.98674,1.98627,-4.19925,9.95642,4.55504,-2.16946,5.09643,1.89322,1.89322,A,161410.20
4.62205,57.68794754,11.98126852,57.68790383,11.98130267,16:14:10.388795,0.00319,1.69013,0.01526,-0.00297,0.01630,-0.00929,-0.02342,-0.10797,-0.01757,0.95245,4.61864,4.56277,1.98674,1.98627,-4.19925,9.95642,4.55504,-2.16946,5.09643,1.89322,1.89322,A,161410.20
4.63242,57.68794754,11.98126852,57.68790383,11.98130267,16:14:10.399170,0.00316,1.69013,0.01464,-0.00421,0.01477,0.00598,-0.02312,-0.02239,-0.01494,0.93232,4.62900,4.56277,1.98674,1.98627,-4.19925,9.95642,4.55504,-2.16946,5.09643,1.89322,1.89322,A,161410.20
4.64265,57.68794754,11.98126852,57.68790383,11.98130267,16:14:10.409398,0.00300,1.69013,0.01411,-0.00583,0.00912,0.01377,-0.02235,-0.03934,-0.00683,0.92561,4.63924,4.56277,1.98674,1.98627,-4.19925,9.95642,4.55504,-2.16946,5.09643,1.89322,1.89322,A,161410.20
4.65324,57.68794754,11.98126852,57.68790383,11.98130267,16:14:10.419996,0.00318,1.69013,0.01391,-0.00758,-0.00859,0.01408,-0.02021,-0.00885,0.02422,0.93757,4.64983,4.56277,1.98674,1.98627,-4.19925,9.95642,4.55504,-2.16946,5.09643,1.89322,1.89322,A,161410.20
4.68046,57.68794754,11.98126852,57.68790517,11.98130167,16:14:10.447233,0.02001,1.69013,0.01416,-0.00925,-0.01501,0.00568,-0.01960,0.05325,0.05667,0.95398,4.66000,4.56277,1.98674,1.98627,-4.19925,9.95642,4.67516,-2.22890,5.24469,1.95208,1.95208,A,161410.30
4.69649,57.68794971,11.98126663,57.68790517,11.98130167,16:14:10.463242,0.00735,1.69013,0.01291,-0.01290,-0.02738,-0.01921,-0.03762,-0.04136,0.00372,1.12216,4.69053,3.98824,1.98143,1.97760,-4.31123,10.19800,4.67516,-2.22890,5.24469,1.95208,1.95208,A,161410.30
4.70263,57.68794971,11.98126663,57.68790517,11.98130167,16:14:10.469547,0.00299,1.69013,0.01317,-0.01361,-0.02799,-0.00730,-0.04251,-0.00921,0.07131,1.09892,4.69923,3.98824,1.98143,1.97760,-4.31123,10.19800,4.67516,-2.22890,5.24469,1.95208,1.95208,A,161410.30
4.71319,57.68794971,11.98126663,57.68790517,11.98130167,16:14:10.479942,0.00315,1.69013,0.01207,-0.01406,-0.02860,-0.00501,-0.04755,-0.03623,-0.02330,1.01522,4.70979,3.98824,1.98143,1.97760,-4.31123,10.19800,4.67516,-2.22890,5.24469,1.95208,1.95208,A,161410.30
4.72360,57.68794971,11.98126663,57.68790517,11.98130167,16:14:10.490356,0.00316,1.69013,0.01120,-0.01420,-0.03013,0.00308,-0.04312,-0.01769,-0.00836,0.93232,4.71998,3.98824,1.98143,1.97760,-4.31123,10.19800,4.67516,-2.22890,5.24469,1.95208,1.95208,A,161410.30
4.73403,57.68794971,11.98126663,57.68790517,11.98130167,16:14:10.500774,0.00320,1.69013,0.00995,-0.01420,-0.02341,-0.00165,-0.03472,-0.02922,-0.03361,0.87346,4.73062,3.98824,1.98143,1.97760,-4.31123,10.19800,4.67516,-2.22890,5.24469,1.95208,1.95208,A,161410.30
4.74438,57.68794971,11.98126663,57.68790517,11.98130167,16:14:10.511125,0.00315,1.69013,0.00921,-0.01420,-0.02799,-0.00501,-0.03274,0.01348,-0.00287,0.86327,4.74096,3.98824,1.98143,1.97760,-4.31123,10.19800,4.67516,-2.22890,5.24469,1.95208,1.95208,A,161410.30
4.75467,57.68794971,11.98126663,57.68790517,11.98130167,16:14:10.521631,0.00301,1.69013,0.00832,-0.01420,-0.02096,-0.00257,-0.02495,-0.07082,-0.01745,0.94245,4.75127,3.98824,1.98143,1.97760,-4.31123,10.19800,4.67516,-2.22890,5.24469,1.95208,1.95208,A,161410.30
4.76531,57.68794971,11.98126663,57.68790517,11.98130167,16:14:10.532056,0.00325,1.69013,0.00855,-0.01420,-0.02692,0.00033,-0.01777,-0.03642,0.06246,1.04444,4.76190,3.98824,1.98143,1.97760,-4.31123,10.19800,4.67516,-2.22890,5.24469,1.95208,1.95208,A,161410.30
4.77565,57.68794971,11.98126663,57.68790517,11.98130167,16:14:10.542404,0.00319,1.69013,0.00821,-0.01420,-0.02234,0.00400,-0.01655,-0.00323,0.02111,1.12582,4.77203,3.98824,1.98143,1.97760,-4.31123,10.19800,4.67516,-2.22890,5.24469,1.95208,1.95208,A,161410.30
4.81268,57.68794971,11.98126663,57.68790783,11.98129967,16:14:10.579445,0.02999,1.69013,0.00799,-0.01420,-0.01653,0.01683,-0.02235,-0.03355,0.02635,1.16351,4.78251,3.98824,1.98143,1.97760,-4.31123,10.19800,4.80859,-2.34777,5.54121,1.95208,1.95208,A,161410.50
4.82299,57.68795152,11.98126514,57.68790783,11.98129967,16:14:10.590006,0.00526,1.69013,0.00736,-0.01420,-0.01852,0.00094,-0.03610,0.02775,0.02403,0.91726,4.81760,3.52862,1.97268,1.96846,-4.40000,10.39905,4.80859,-2.34777,5.54121,1.95208,1.95208,A,161410.50
4.83098,57.68795152,11.98126514,57.68790783,11.98129967,16:14:10.597953,0.00302,1.69013,0.00756,-0.01420,-0.01882,-0.00669,-0.02923,-0.11065,0.04294,0.86315,4.82757,3.52862,1.97268,1.96846,-4.40000,10.39905,4.80859,-2.34777,5.54121,1.95208,1.95208,A,161410.50
4.84152,57.68795152,11.98126514,57.68790783,11.98129967,16:14:10.608270,0.00317,1.69013,0.00784,-0.01420,-0.01333,0.01255,-0.02571,-0.02952,0.04551,0.86894,4.83811,3.52862,1.97268,1.96846,-4.40000,10.39905,4.80859,-2.34777,5.54121,1.95208,1.95208,A,161410.50
4.85198,57.68795152,11.98126514,57.68790783,11.98129967,16:14:10.618743,0.00324,1.69013,0.00714,-0.01420,-0.00493,0.02126,-0.02052,-0.10364,-0.01635,0.91610,4.84856,3.52862,1.97268,1.96846,-4.40000,10.39905,4.80859,-2.34777,5.54121,1.95208,1.95208,A,161410.50
4.86232,57.68795152,11.98126514,57.68790783,11.98129967,16:14:10.629072,0.00318,1.69013,0.00581,-0.01420,-0.01501,0.02859,-0.01853,-0.06033,-0.05222,0.95575,4.85891,3.52862,1.97268,1.96846,-4.40000,10.39905,4.80859,-2.34777,5.54121,1.95208,1.95208,A,161410.50
4.87297,57.68795152,11.98126514,57.68790783,11.98129967,16:14:10.639723,0.00343,1.69013,0.00478,-0.01420,-0.02325,0.02981,-0.02052,-0.00762,-0.02971,1.02498,4.86955,3.52862,1.97268,1.96846,-4.40000,10.39905,4.80859,-2.34777,5.54121,1.95208,1.95208,A,161410.50
4.88278,57.68795152,11.98126514,57.68790783,11.98129967,16:14:10.649519,0.00301,1.69013,0.00414,-0.01420,-0.02799,0.01881,-0.02342,0.05618,-0.00201,1.03438,4.87937,3.52862,1.97268,1.96846,-4.40000,10.39905,4.80859,-2.34777,5.54121,1.95208,1.95208,A,161410.50
4.89343,57.68795152,11.98126514,57.68790783,11.98129967,16:14:10.660181,0.00327,1.69013,0.00398,-0.01420,-0.03730,-0.01234,-0.02663,0.01208,0.04343,1.17029,4.89001,3.52862,1.97268,1.96846,-4.40000,10.39905,4.80859,-2.34777,5.54121,1.95208,1.95208,A,161410.50
4.90387,57.68795152,11.98126514,57.68790783,11.98129967,16:14:10.670626,0.00331,1.69013,0.00354,-0.01420,-0.03715,-0.02380,-0.02739,0.01702,0.02043,1.15754,4.90023,3.52862,1.97268,1.96846,-4.40000,10.39905,4.80859,-2.34777,5.54121,1.95208,1.95208,A,161410.50
4.92904,57.68795152,11.98126514,57.68790933,11.98129850,16:14:10.695794,0.01808,1.69013,0.00313,-0.01420,-0.04418,-0.03449,-0.03594,-0.09498,0.02763,1.11002,4.91074,3.52862,1.97268,1.96846,-4.40000,10.39905,4.92554,-2.41711,5.70801,1.96480,1.96480,A,161410.60
4.94051,57.68795262,11.98126429,57.68790933,11.98129850,16:14:10.707263,0.00560,1.69013,0.00145,-0.01420,-0.04860,-0.00455,-0.03961,-0.02605,-0.01372,0.88743,4.93480,3.16092,1.96764,1.96343,-4.45064,10.52110,4.92554,-2.41711,5.70801,1.96480,1.96480,A,161410.60
4.94848,57.68795262,11.98126429,57.68790933,11.98129850,16:14:10.715238,0.00318,1.69013,-0.00014,-0.01420,-0.05242,-0.00012,-0.03320,-0.04301,-0.04307,0.82801,4.94507,3.16092,1.96764,1.96343,-4.45064,10.52110,4.92554,-2.41711,5.70801,1.96480,1.96480,A,161410.60
4.95865,57.68795262,11.98126429,57.68790933,11.98129850,16:14:10.725400,0.00299,1.69013,-0.00016,-0.01420,-0.06250,0.00186,-0.02052,-0.06100,0.04898,0.86370,4.95524,3.16092,1.96764,1.96343,-4.45064,10.52110,4.92554,-2.41711,5.70801,1.96480,1.96480,A,161410.60
4.96938,57.68795262,11.98126429,57.68790933,11.98129850,16:14:10.736132,0.00331,1.69013,0.00021,-0.01420,-0.05242,0.01072,-0.01976,-0.07558,0.06991,0.88517,4.96597,3.16092,1.96764,1.96343,-4.45064,10.52110,4.92554,-2.41711,5.70801,1.96480,1.96480,A,161410.60
4.97963,57.68795262,11.98126429,57.68790933,11.98129850,16:14:10.746386,0.00317,1.69013,0.00027,-0.01420,-0.05227,0.01515,-0.02083,-0.02013,0.05685,1.01284,4.97601,3.16092,1.96764,1.96343,-4.45064,10.52110,4.92554,-2.41711,5.70801,1.96480,1.96480,A,161410.60
4.99006,57.68795262,11.98126429,57.68790933,11.98129850,16:14:10.756802,0.00319,1.69013,-0.00050,-0.01420,-0.05319,0.01423,-0.02541,-0.06374,0.00464,1.09288,4.98665,3.16092,1.96764,1.96343,-4.45064,10.52110,4.92554,-2.41711,5.70801,1.96480,1.96480,A,161410.60
5.00049,57.68795262,11.98126429,57.68790933,11.98129850,16:14:10.767241,0.00323,1.69013,-0.00225,-0.01420,-0.06388,0.01301,-0.03472,0.02952,-0.06509,1.17102,4.99707,3.16092,1.96764,1.96343,-4.45064,10.52110,4.92554,-2.41711,5.70801,1.96480,1.96480,A,161410.60
5.01239,57.68795262,11.98126429,57.68790933,11.98129850,16:14:10.779310,0.00436,1.69013,0.00000,-0.01426,-0.07594,-0.00837,-0.03992,-0.05167,-0.03812,1.18865,5.00724,3.16092,1.96764,1.96343,-4.45064,10.52110,4.92554,-2.41711,5.70801,1.96480,1.96480,A,161410.60
5.03073,57.68795262,11.98126429,57.68790933,11.98129850,16:14:10.797511,0.01261,1.85174,-0.00089,-0.01443,-0.08648,-0.01845,-0.04495,-0.02257,0.01952,1.07348,5.01795,3.16092,1.96764,1.96343,0.02763,0.00000,4.92554,-2.41711,5.70801,1.96480,1.96480,A,161410.60
5.06085,57.68795262,11.98126429,57.68791083,11.98129733,16:14:10.827616,0.02277,1.85174,-0.00225,-0.01491,-0.07182,-0.00730,-0.03992,-0.05655,0.02361,0.90750,5.03937,3.16092,1.96764,1.96343,0.02763,0.00000,5.05422,-2.48646,5.87480,1.96480,1.96480,A,161410.70
5.08306,57.68795402,11.98126323,57.68791083,11.98129733,16:14:10.850080,0.01245,14.79155,0.00044,-0.01502,-0.05395,0.04462,-0.02128,0.01635,0.00244,1.02144,5.07695,5.78705,1.96300,1.95854,-4.51333,10.67729,5.05422,-2.48646,5.87480,1.96480,1.96480,A,161410.70
5.10168,57.68795402,11.98126323,57.68791083,11.98129733,16:14:10.868438,0.00815,14.79155,0.00324,-0.01502,-0.04845,-0.01066,-0.01075,0.10608,0.03703,1.16205,5.09729,5.78705,1.96300,1.95854,-4.51333,10.67729,5.05422,-2.48646,5.87480,1.96480,1.96480,A,161410.70
5.11158,57.68795402,11.98126323,57.68791083,11.98129733,16:14:10.878356,0.00789,14.79155,0.00607,-0.01502,-0.04433,-0.04777,-0.01685,0.02818,0.00244,1.17889,5.10704,5.78705,1.96300,1.95854,-4.51333,10.67729,5.05422,-2.48646,5.87480,1.96480,1.96480,A,161410.70
5.12104,57.68795402,11.98126323,57.68791083,11.98129733,16:14:10.887800,0.00695,14.79155,0.00942,-0.01502,-0.04784,-0.06014,-0.02220,-0.03989,0.03099,1.10813,5.11664,5.78705,1.96300,1.95854,-4.51333,10.67729,5.05422,-2.48646,5.87480,1.96480,1.96480,A,161410.70
5.13345,57.68795402,11.98126323,57.68791083,11.98129733,16:14:10.900226,0.00897,14.79155,0.01233,-0.01502,-0.03761,-0.04869,-0.03946,-0.14701,-0.03166,0.99698,5.12762,5.78705,1.96300,1.95854,-4.51333,10.67729,5.05422,-2.48646,5.87480,1.96480,1.96480,A,161410.70
5.14255,57.68795402,11.98126323,57.68791083,11.98129733,16:14:10.909322,0.00786,14.79155,0.01639,-0.01502,-0.03119,-0.01509,-0.04266,-0.12901,0.01110,0.89566,5.13719,5.78705,1.96300,1.95854,-4.51333,10.67729,5.05422,-2.48646,5.87480,1.96480,1.96480,A,161410.70
5.15310,57.68795402,11.98126323,57.68791083,11.98129733,16:14:10.919860,0.00801,14.79155,0.01908,-0.01502,-0.02554,0.02141,-0.04175,-0.07168,-0.09687,0.79642,5.14866,5.78705,1.96300,1.95854,-4.51333,10.67729,5.05422,-2.48646,5.87480,1.96480,1.96480,A,161410.70
5.18069,57.68795402,11.98126323,57.68791233,11.98129667,16:14:10.947449,0.02507,14.79155,0.02208,-0.01502,-0.03471,0.03775,-0.03320,-0.05661,-0.07253,0.80429,5.15873,5.78705,1.96300,1.95854,-4.51333,10.67729,5.17387,-2.52608,6.04159,1.80404,1.80404,A,161410.80
5.20151,57.68795726,11.98126084,57.68791233,11.98129667,16:14:10.968270,0.01052,14.79155,0.02427,-0.01502,-0.02341,0.02248,-0.02388,0.16702,0.00964,1.19603,5.19505,7.58795,1.93198,1.92752,-4.65567,11.03732,5.17387,-2.52608,6.04159,1.80404,1.80404,A,161410.80
5.21971,57.68795726,11.98126084,57.68791233,11.98129667,16:14:10.986486,0.00657,14.79155,0.02612,-0.01502,-0.02890,-0.04472,-0.03579,0.04197,-0.04703,1.15412,5.21503,7.58795,1.93198,1.92752,-4.65567,11.03732,5.17387,-2.52608,6.04159,1.80404,1.80404,A,161410.80
5.23202,57.68795726,11.98126084,57.68791233,11.98129667,16:14:10.998775,0.00837,14.79155,0.02894,-0.01502,-0.03486,-0.03189,-0.04236,-0.13139,-0.01934,1.00351,5.22733,7.58795,1.93198,1.92752,-4.65567,11.03732,5.17387,-2.52608,6.04159,1.80404,1.80404,A,161410.80
5.24363,57.68795726,11.98126084,57.68791233,11.98129667,16:14:11.010400,0.00959,14.79155,0.03248,-0.01502,-0.02890,0.00415,-0.04709,-0.16531,-0.02714,0.82826,5.23874,7.58795,1.93198,1.92752,-4.65567,11.03732,5.17387,-2.52608,6.04159,1.80404,1.80404,A,161410.80
5.25243,57.68795726,11.98126084,57.68791233,11.98129667,16:14:11.019192,0.00777,14.79155,0.03629,-0.01502,-0.02325,0.03653,-0.04251,-0.07662,-0.05417,0.70992,5.24785,7.58795,1.93198,1.92752,-4.65567,11.03732,5.17387,-2.52608,6.04159,1.80404,1.80404,A,161410.80
5.26277,57.68795726,11.98126084,57.68791233,11.98129667,16:14:11.029528,0.00772,14.79155,0.03982,-0.01502,-0.01867,0.05012,-0.02861,-0.04002,-0.07216,0.69357,5.25836,7.58795,1.93198,1.92752,-4.65567,11.03732,5.17387,-2.52608,6.04159,1.80404,1.80404,A,161410.80
5.27358,57.68795726,11.98126084,57.68791233,11.98129667,16:14:11.040346,0.00814,14.79155,0.04312,-0.01502,-0.01134,0.06096,-0.02006,0.01867,-0.05215,0.80300,5.26915,7.58795,1.93198,1.92752,-4.65567,11.03732,5.17387,-2.52608,6.04159,1.80404,1.80404,A,161410.80
5.30057,57.68795726,11.98126084,57.68791367,11.98129550,16:14:11.067332,0.02481,14.79155,0.04527,-0.01502,-0.01623,0.04477,-0.01090,0.04685,-0.06686,1.00845,5.27850,7.58795,1.93198,1.92752,-4.65567,11.03732,5.29369,-2.59542,6.18985,2.00828,2.00828,A,161410.90
5.31869,57.68796209,11.98125768,57.68791367,11.98129550,16:14:11.085451,0.00983,14.79155,0.04762,-0.01502,-0.00890,-0.02654,-0.03136,0.12340,0.01659,1.24257,5.31253,9.02867,1.93389,1.92943,-4.84305,11.57415,5.29369,-2.59542,6.18985,2.00828,2.00828,A,161410.90
5.32784,57.68796209,11.98125768,57.68791367,11.98129550,16:14:11.094610,0.00788,14.79155,0.04883,-0.01502,-0.00401,-0.04029,-0.04114,-0.00146,-0.12548,1.06994,5.32317,9.02867,1.93389,1.92943,-4.84305,11.57415,5.29369,-2.59542,6.18985,2.00828,2.00828,A,161410.90
5.33659,57.68796209,11.98125768,57.68791367,11.98129550,16:14:11.103347,0.00623,14.79155,0.05067,-0.01502,-0.01134,-0.03067,-0.03885,-0.08528,-0.10254,0.92824,5.33194,9.02867,1.93389,1.92943,-4.84305,11.57415,5.29369,-2.59542,6.18985,2.00828,2.00828,A,161410.90
5.34931,57.68796209,11.98125768,57.68791367,11.98129550,16:14:11.116074,0.00857,14.79155,0.05352,-0.01502,-0.02463,-0.01417,-0.03045,-0.15958,-0.06521,0.78043,5.34467,9.02867,1.93389,1.92943,-4.84305,11.57415,5.29369,-2.59542,6.18985,2.00828,2.00828,A,161410.90
5.35883,57.68796209,11.98125768,57.68791367,11.98129550,16:14:11.125585,0.00769,14.79155,0.05824,-0.01502,-0.01058,0.00721,-0.02312,-0.08076,0.01964,0.74963,5.35450,9.02867,1.93389,1.92943,-4.84305,11.57415,5.29369,-2.59542,6.18985,2.00828,2.00828,A,161410.90
5.36928,57.68796209,11.98125768,57.68791367,11.98129550,16:14:11.136040,0.00775,14.79155,0.06284,-0.01502,-0.01073,0.00186,-0.01059,0.06344,0.03855,0.80258,5.36485,9.02867,1.93389,1.92943,-4.84305,11.57415,5.29369,-2.59542,6.18985,2.00828,2.00828,A,161410.90
5.38114,57.68796209,11.98125768,57.68791367,11.98129550,16:14:11.147911,0.00939,14.79155,0.06677,-0.01502,-0.00096,-0.00287,0.00651,-0.00092,0.06387,0.99009,5.37523,9.02867,1.93389,1.92943,-4.84305,11.57415,5.29369,-2.59542,6.18985,2.00828,2.00828,A,161410.90
5.39205,57.68796209,11.98125768,57.68791367,11.98129550,16:14:11.159353,0.00987,14.79155,0.06940,-0.01502,0.00057,-0.00119,0.00269,-0.01781,0.01287,1.13326,5.38520,9.02867,1.93389,1.92943,-4.84305,11.57415,5.29369,-2.59542,6.18985,2.00828,2.00828,A,161410.90
5.43643,57.68796209,11.98125768,57.68791650,11.98129333,16:14:11.203212,0.04280,14.79155,0.07107,-0.01502,0.00805,0.02080,-0.01563,-0.04874,-0.05417,1.19359,5.39700,9.02867,1.93389,1.92943,-4.84305,11.57415,5.42470,-2.72421,6.50490,1.95883,1.95883,A,161411.10
5.45060,57.68796911,11.98125295,57.68791650,11.98129333,16:14:11.217358,0.00849,14.79155,0.07428,-0.01502,-0.00157,0.01057,-0.02693,-0.06600,-0.00055,0.91219,5.44308,10.18124,1.92474,1.92028,-5.12457,12.35437,5.42470,-2.72421,6.50490,1.95883,1.95883,A,161411.10
5.45978,57.68796911,11.98125295,57.68791650,11.98129333,16:14:11.226544,0.00750,14.79155,0.07714,-0.01497,0.01065,0.00766,-0.01151,0.03422,-0.02013,0.95477,5.45519,10.18124,1.92474,1.92028,-5.12457,12.35437,5.42470,-2.72421,6.50490,1.95883,1.95883,A,161411.10
5.47055,57.68796911,11.98125295,57.68791650,11.98129333,16:14:11.237310,0.00787,14.79155,0.07989,-0.01463,0.01065,0.00201,-0.00281,0.08095,-0.01128,0.97588,5.46613,10.18124,1.92474,1.92028,-5.12457,12.35437,5.42470,-2.72421,6.50490,1.95883,1.95883,A,161411.10
5.47712,57.68796911,11.98125295,57.68791650,11.98129333,16:14:11.243875,0.00398,1.78487,0.07688,-0.01429,0.02149,-0.00180,0.00941,0.06814,-0.11517,1.01626,5.47282,10.18124,1.92474,1.92028,-5.12457,12.35437,5.42470,-2.72421,6.50490,1.95883,1.95883,A,161411.10
5.48785,57.68796911,11.98125295,57.68791650,11.98129333,16:14:11.254612,0.00421,1.78487,0.07479,-0.01364,0.01355,-0.01723,0.01537,0.07527,-0.05533,1.02218,5.48320,10.18124,1.92474,1.92028,-5.12457,12.35437,5.42470,-2.72421,6.50490,1.95883,1.95883,A,161411.10
5.49832,57.68796911,11.98125295,57.68791650,11.98129333,16:14:11.265073,0.00429,1.78487,0.07384,-0.01287,0.00072,-0.03311,0.01705,-0.05240,0.02739,0.97777,5.49392,10.18124,1.92474,1.92028,-5.12457,12.35437,5.42470,-2.72421,6.50490,1.95883,1.95883,A,161411.10
5.50856,57.68796911,11.98125295,57.68791650,11.98129333,16:14:11.275316,0.00414,1.78487,0.07262,-0.01217,0.00500,-0.02288,0.01063,-0.03843,0.00701,1.02791,5.50395,10.18124,1.92474,1.92028,-5.12457,12.35437,5.42470,-2.72421,6.50490,1.95883,1.95883,A,161411.10
5.51999,57.68796911,11.98125295,57.68791650,11.98129333,16:14:11.286757,0.00518,1.78487,0.07140,-0.01149,0.01157,-0.02288,-0.00006,-0.08607,0.00177,1.03108,5.51453,10.18124,1.92474,1.92028,-5.12457,12.35437,5.42470,-2.72421,6.50490,1.95883,1.95883,A,161411.10
5.54661,57.68796911,11.98125295,57.68791783,11.98129200,16:14:11.313370,0.02141,1.78487,0.06987,-0.01095,0.00653,-0.00364,-0.00326,-0.08333,-0.01757,1.03730,5.52492,10.18124,1.92474,1.92028,-5.12457,12.35437,5.53976,-2.80345,6.65316,2.06169,2.06169,A,161411.20
5.56224,57.68797550,11.98124879,57.68791783,11.98129200,16:14:11.329003,0.00835,1.78487,0.06850,-0.01010,-0.00615,0.01408,-0.02510,-0.13139,0.00891,1.02138,5.55563,8.50197,1.93272,1.92972,-5.37145,13.06517,5.53976,-2.80345,6.65316,2.06169,2.06169,A,161411.20
5.56838,57.68797550,11.98124879,57.68791783,11.98129200,16:14:11.335137,0.00409,1.78487,0.06717,-0.00999,-0.00966,0.02752,-0.02296,-0.07631,0.00372,1.06866,5.56383,8.50197,1.93272,1.92972,-5.37145,13.06517,5.53976,-2.80345,6.65316,2.06169,2.06169,A,161411.20
5.57884,57.68797550,11.98124879,57.68791783,11.98129200,16:14:11.345597,0.00415,1.78487,0.06623,-0.00987,0.00164,0.01912,-0.01380,-0.01208,0.02306,1.03639,5.57444,8.50197,1.93272,1.92972,-5.37145,13.06517,5.53976,-2.80345,6.65316,2.06169,2.06169,A,161411.20
5.58920,57.68797550,11.98124879,57.68791783,11.98129200,16:14:11.355960,0.00413,1.78487,0.06550,-0.00982,-0.00065,0.01026,-0.00601,0.06661,0.03611,1.00626,5.58482,8.50197,1.93272,1.92972,-5.37145,13.06517,5.53976,-2.80345,6.65316,2.06169,2.06169,A,161411.20
5.59976,57.68797550,11.98124879,57.68791783,11.98129200,16:14:11.366523,0.00417,1.78487,0.06349,-0.00982,0.00897,-0.01906,-0.00235,0.13993,-0.05161,0.91177,5.59515,8.50197,1.93272,1.92972,-5.37145,13.06517,5.53976,-2.80345,6.65316,2.06169,2.06169,A,161411.20
5.61011,57.68797550,11.98124879,57.68791783,11.98129200,16:14:11.376865,0.00412,1.78487,0.06173,-0.00982,0.00194,-0.04365,0.00254,-0.05301,-0.03501,0.94684,5.60572,8.50197,1.93272,1.92972,-5.37145,13.06517,5.53976,-2.80345,6.65316,2.06169,2.06169,A,161411.20
5.62056,57.68797550,11.98124879,57.68791783,11.98129200,16:14:11.387327,0.00419,1.78487,0.06001,-0.00982,0.01019,-0.02914,0.00376,-0.19410,-0.03965,0.96258,5.61592,8.50197,1.93272,1.92972,-5.37145,13.06517,5.53976,-2.80345,6.65316,2.06169,2.06169,A,161411.20
5.63090,57.68797550,11.98124879,57.68791783,11.98129200,16:14:11.397653,0.00413,1.78487,0.05787,-0.00982,0.00072,0.00629,0.00605,-0.15219,-0.06332,0.97362,5.62651,8.50197,1.93272,1.92972,-5.37145,13.06517,5.53976,-2.80345,6.65316,2.06169,2.06169,A,161411.20
5.65874,57.68797550,11.98124879,57.68791917,11.98129083,16:14:11.425498,0.02157,1.78487,0.05660,-0.00982,0.00240,0.02324,0.00422,0.06661,-0.00964,0.93348,5.63688,8.50197,1.93272,1.92972,-5.37145,13.06517,5.65161,-2.87280,6.80142,2.00828,2.00828,A,161411.30
5.67772,57.68798039,11.98124549,57.68791917,11.98129083,16:14:11.444487,0.00838,1.78487,0.05532,-0.00982,-0.01684,0.00247,-0.01533,-0.27334,0.03642,1.29619,5.67108,7.15855,1.93694,1.93402,-5.56815,13.60926,5.65161,-2.87280,6.80142,2.00828,2.00828,A,161411.30
5.68357,57.68798039,11.98124549,57.68791917,11.98129083,16:14:11.450331,0.00405,1.78487,0.05466,-0.00982,-0.01134,0.04722,-0.01808,-0.00994,0.04258,1.18785,5.67906,7.15855,1.93694,1.93402,-5.56815,13.60926,5.65161,-2.87280,6.80142,2.00828,2.00828,A,161411.30
5.69404,57.68798039,11.98124549,57.68791917,11.98129083,16:14:11.460796,0.00413,1.78487,0.05205,-0.00982,-0.01501,0.02141,-0.02128,0.15110,-0.09656,1.06793,5.68965,7.15855,1.93694,1.93402,-5.56815,13.60926,5.65161,-2.87280,6.80142,2.00828,2.00828,A,161411.30
5.70461,57.68798039,11.98124549,57.68791917,11.98129083,16:14:11.471378,0.00431,1.78487,0.05050,-0.00982,-0.04555,-0.03067,-0.01120,0.27346,-0.00268,0.87254,5.69984,7.15855,1.93694,1.93402,-5.56815,13.60926,5.65161,-2.87280,6.80142,2.00828,2.00828,A,161411.30
5.71481,57.68798039,11.98124549,57.68791917,11.98129083,16:14:11.481564,0.00411,1.78487,0.04849,-0.00982,-0.04662,-0.09084,-0.00937,0.04782,-0.02428,0.70974,5.71042,7.15855,1.93694,1.93402,-5.56815,13.60926,5.65161,-2.87280,6.80142,2.00828,2.00828,A,161411.30
5.72578,57.68798039,11.98124549,57.68791917,11.98129083,16:14:11.492540,0.00432,1.78487,0.04850,-0.00982,-0.02860,-0.10779,-0.00464,-0.22173,0.07168,0.81856,5.72136,7.15855,1.93694,1.93402,-5.56815,13.60926,5.65161,-2.87280,6.80142,2.00828,2.00828,A,161411.30
5.73580,57.68798039,11.98124549,57.68791917,11.98129083,16:14:11.502556,0.00411,1.78487,0.04725,-0.00982,-0.00294,-0.06152,-0.00616,-0.40065,-0.01434,0.97100,5.73126,7.15855,1.93694,1.93402,-5.56815,13.60926,5.65161,-2.87280,6.80142,2.00828,2.00828,A,161411.30
5.74619,57.68798039,11.98124549,57.68791917,11.98129083,16:14:11.512947,0.00412,1.78487,0.04577,-0.00982,0.00515,0.02996,-0.00525,-0.29634,-0.04111,1.13393,5.74181,7.15855,1.93694,1.93402,-5.56815,13.60926,5.65161,-2.87280,6.80142,2.00828,2.00828,A,161411.30
5.77446,57.68798039,11.98124549,57.68792083,11.98129017,16:14:11.541226,0.02200,1.78487,0.04280,-0.00982,-0.00645,0.09960,-0.00937,0.01726,-0.14738,1.13637,5.75200,7.15855,1.93694,1.93402,-5.56815,13.60926,5.76711,-2.91242,6.98675,1.78144,1.78144,A,161411.40
5.79253,57.68798385,11.98124314,57.68792083,11.98129017,16:14:11.559292,0.00843,1.78487,0.04235,-0.00982,-0.02570,-0.01311,-0.00571,-0.00012,0.07960,0.90237,5.78585,6.08381,1.90790,1.90499,-5.70759,13.99435,5.76711,-2.91242,6.98675,1.78144,1.78144,A,161411.40
5.79868,57.68798385,11.98124314,57.68792083,11.98129017,16:14:11.565434,0.00405,1.78487,0.04032,-0.00979,-0.01073,-0.04548,-0.00387,-0.02574,-0.05710,0.82155,5.79439,6.08381,1.90790,1.90499,-5.70759,13.99435,5.76711,-2.91242,6.98675,1.78144,1.78144,A,161411.40
5.80917,57.68798385,11.98124314,57.68792083,11.98129017,16:14:11.575920,0.00415,1.78487,0.03723,-0.00965,0.00011,-0.07251,-0.00342,-0.04990,-0.11950,0.80233,5.80476,6.08381,1.90790,1.90499,-5.70759,13.99435,5.76711,-2.91242,6.98675,1.78144,1.78144,A,161411.40
5.81988,57.68798385,11.98124314,57.68792083,11.98129017,16:14:11.586635,0.00433,1.78487,0.03639,-0.00931,-0.00080,-0.06457,0.00376,-0.12304,0.00018,0.97746,5.81509,6.08381,1.90790,1.90499,-5.70759,13.99435,5.76711,-2.91242,6.98675,1.78144,1.78144,A,161411.40
5.83008,57.68798385,11.98124314,57.68792083,11.98129017,16:14:11.596831,0.00415,1.78487,0.03397,-0.00885,-0.00126,-0.00944,0.00682,-0.05551,-0.11401,1.07451,5.82567,6.08381,1.90790,1.90499,-5.70759,13.99435,5.76711,-2.91242,6.98675,1.78144,1.78144,A,161411.40
5.84050,57.68798385,11.98124314,57.68792083,11.98129017,16:14:11.607259,0.00418,1.78487,0.03217,-0.00826,-0.01241,0.03103,0.00834,-0.03532,-0.06448,1.10678,5.83586,6.08381,1.90790,1.90499,-5.70759,13.99435,5.76711,-2.91242,6.98675,1.78144,1.78144,A,161411.40
5.85085,57.68798385,11.98124314,57.68792083,11.98129017,16:14:11.617603,0.00413,1.78487,0.03080,-0.00750,-0.00691,0.03973,0.00697,-0.03880,-0.03989,1.12014,5.84646,6.08381,1.90790,1.90499,-5.70759,13.99435,5.76711,-2.91242,6.98675,1.78144,1.78144,A,161411.40
5.86123,57.68798385,11.98124314,57.68792083,11.98129017,16:14:11.627994,0.00413,1.78487,0.03055,-0.00665,-0.01791,0.03011,0.00758,-0.17562,0.04892,1.06427,5.85683,6.08381,1.90790,1.90499,-5.70759,13.99435,5.76711,-2.91242,6.98675,1.78144,1.78144,A,161411.40
5.88940,57.68798385,11.98124314,57.68792217,11.98128917,16:14:11.656166,0.02177,1.78487,0.02900,-0.00563,-0.00203,0.03515,0.00529,-0.08985,-0.05533,1.05731,5.86719,6.08381,1.90790,1.90499,-5.70759,13.99435,5.88232,-2.97186,7.13501,1.95208,1.95208,A,161411.50
5.90350,57.68798607,11.98124200,57.68792217,11.98128917,16:14:11.670284,0.00757,1.74059,0.02731,-0.00294,-0.01256,-0.06656,0.00590,0.20838,-0.02806,0.70193,5.89556,5.21517,1.90966,1.90878,-5.77533,14.24042,5.88232,-2.97186,7.13501,1.95208,1.95208,A,161411.50
