Time,lat_estimated,lon_estimated,latitude,longitude,RealTime,CalculationTime,MeasuredVelocity,FilteredVelocity,Roll,SteeringAngle,RollRate,gy,gz,ax,ay,az,imu_read_timing,v_estimated,yaw_estimated,heading_estimated,x_estimated,y_estimated,GPS_timestamp,x_GPS,y_GPS,theta_GPS,theta_GPS_noUnwrap,status,NMEA timestamp
0.04958,0.00000000,0.00000000,0.00000000,0.00000000,14:45:27.229750,0.04952,0.00000,0.00000,-0.00219,0.00000,0.00173,-0.00093,0.00151,-0.05045,-0.11541,0.99155,0.00001,0.00000,0.00000,0.00000,0.00000,0.00000,0.00000,0.00000,0.00000,0.00000,0.00000,No status,0.0
0.08929,0.00000000,0.00000000,0.00000000,0.00000000,14:45:27.268830,0.02969,0.00000,0.00000,-0.00425,0.00000,0.00188,0.00289,0.00105,-0.04880,-0.11578,0.99460,0.06067,0.00000,0.00000,0.00000,0.00000,0.00000,0.00000,0.00000,0.00000,0.00000,0.00000,No status,0.0
0.13280,0.00000000,0.00000000,0.00000000,0.00000000,14:45:27.312338,0.03056,0.00000,0.00000,-0.00636,0.00000,0.00050,-0.00093,0.00105,-0.04972,-0.11492,0.99265,0.10275,0.00000,0.00000,0.00000,0.00000,0.00000,0.00000,0.00000,0.00000,0.00000,0.00000,No status,0.0
0.17720,0.00000000,0.00000000,0.00000000,0.00000000,14:45:27.356744,0.03385,0.00000,0.00000,-0.00843,0.00000,0.00096,-0.00047,-0.00201,-0.05124,-0.11566,0.99326,0.14407,0.00000,0.00000,0.00000,0.00000,0.00000,0.00000,0.00000,0.00000,0.00000,0.00000,No status,0.0
0.21876,0.00000000,0.00000000,0.00000000,0.00000000,14:45:27.398309,0.03539,0.00000,0.00000,-0.01049,0.00000,0.00035,-0.00047,0.00059,-0.05112,-0.11511,0.99027,0.18512,0.00000,0.00000,0.00000,0.00000,0.00000,0.00000,0.00000,0.00000,0.00000,0.00000,No status,0.0
0.25992,0.00000000,0.00000000,0.00000000,0.00000000,14:45:27.439468,0.03221,0.00000,0.00000,-0.01249,0.00000,0.00127,0.00243,0.00135,-0.04996,-0.11590,0.99247,0.22852,0.00000,0.00000,0.00000,0.00000,0.00000,0.00000,0.00000,0.00000,0.00000,0.00000,No status,0.0
0.29615,0.00000000,0.00000000,0.00000000,0.00000000,14:45:27.475697,0.02873,0.00000,0.00000,-0.01456,0.00000,-0.00041,-0.00139,0.00120,-0.04788,-0.11767,0.99247,0.26819,0.00000,0.00000,0.00000,0.00000,0.00000,0.00000,0.00000,0.00000,0.00000,0.00000,No status,0.0
0.34549,0.00000000,0.00000000,0.00000000,0.00000000,14:45:27.525028,0.03671,0.00000,0.00000,-0.01646,0.00000,0.00203,-0.00154,-0.00002,-0.05075,-0.11535,0.99180,0.31032,0.00000,0.00000,0.00000,0.00000,0.00000,0.00000,0.00000,0.00000,0.00000,0.00000,No status,0.0
0.38730,0.00000000,0.00000000,0.00000000,0.00000000,14:45:27.566838,0.03121,0.00000,0.00000,-0.01832,0.00000,0.00188,0.00136,-0.00017,-0.05008,-0.11468,0.99302,0.35865,0.00000,0.00000,0.00000,0.00000,0.00000,0.00000,0.00000,0.00000,0.00000,0.00000,No status,0.0
0.43008,0.00000000,0.00000000,0.00000000,0.00000000,14:45:27.609629,0.03328,0.00000,0.00000,-0.02024,0.00000,-0.00026,0.00167,-0.00002,-0.04886,-0.11438,0.99125,0.39814,0.00000,0.00000,0.00000,0.00000,0.00000,0.00000,0.00000,0.00000,0.00000,0.00000,No status,0.0
0.45890,0.00000000,0.00000000,0.00000000,0.00000000,14:45:27.638439,0.02391,0.00000,0.00000,-0.02210,0.00000,0.00096,0.00564,-0.00063,-0.04734,-0.11523,0.99259,0.43634,0.00000,0.00000,0.00000,0.00000,0.00000,0.00000,0.00000,0.00000,0.00000,0.00000,No status,0.0
0.49236,0.00000000,0.00000000,0.00000000,0.00000000,14:45:27.672140,0.02730,0.00000,0.00000,-0.02388,0.00000,0.00249,0.00014,0.00059,-0.04868,-0.11425,0.99363,0.46673,0.00000,0.00000,0.00000,0.00000,0.00000,0.00000,0.00000,0.00000,0.00000,0.00000,No status,0.0
0.52398,0.00000000,0.00000000,0.00000000,0.00000000,14:45:27.703526,0.02589,0.00000,0.00000,-0.02568,0.00000,0.00081,0.00060,-0.00063,-0.04856,-0.11419,0.99418,0.49798,0.00000,0.00000,0.00000,0.00000,0.00000,0.00000,0.00000,0.00000,0.00000,0.00000,No status,0.0
0.56425,0.00000000,0.00000000,0.00000000,0.00000000,14:45:27.743793,0.03421,0.00000,0.00000,-0.02754,0.00000,-0.00087,-0.00200,0.00044,-0.04953,-0.11596,0.99210,0.52966,0.00000,0.00000,0.00000,0.00000,0.00000,0.00000,0.00000,0.00000,0.00000,0.00000,No status,0.0
0.60052,0.00000000,0.00000000,0.00000000,0.00000000,14:45:27.780073,0.02818,0.00000,0.00000,-0.02932,0.00000,0.00096,-0.00185,0.00181,-0.05124,-0.11749,0.99277,0.57196,0.00000,0.00000,0.00000,0.00000,0.00000,0.00000,0.00000,0.00000,0.00000,0.00000,No status,0.0
0.63465,0.00000000,0.00000000,0.00000000,0.00000000,14:45:27.814844,0.02561,0.00000,0.00000,-0.03108,0.00000,0.00050,-0.00383,0.00090,-0.05106,-0.11614,0.99149,0.60871,0.00000,0.00000,0.00000,0.00000,0.00000,0.00000,0.00000,0.00000,0.00000,0.00000,No status,0.0
0.68170,0.00000000,0.00000000,0.00000000,0.00000000,14:45:27.862399,0.03610,0.00000,0.00000,-0.03273,0.00000,0.00218,-0.00108,0.00059,-0.04935,-0.11541,0.99418,0.64659,0.00000,0.00000,0.00000,0.00000,0.00000,0.00000,0.00000,0.00000,0.00000,0.00000,No status,0.0
0.72691,0.00000000,0.00000000,0.00000000,0.00000000,14:45:27.906458,0.03524,0.00000,0.00000,-0.03467,0.00000,-0.00545,-0.00169,0.00151,-0.05063,-0.11419,0.99351,0.69213,0.00000,0.00000,0.00000,0.00000,0.00000,0.00000,0.00000,0.00000,0.00000,0.00000,No status,0.0
0.77069,0.00000000,0.00000000,0.00000000,0.00000000,14:45:27.950839,0.03609,0.00000,0.00000,-0.03647,0.00000,-0.00316,-0.00307,-0.00139,-0.04813,-0.11462,0.99375,0.73649,0.00000,0.00000,0.00000,0.00000,0.00000,0.00000,0.00000,0.00000,0.00000,0.00000,No status,0.0
0.81246,0.00000000,0.00000000,0.00000000,0.00000000,14:45:27.992011,0.03008,0.00000,0.00000,-0.03811,0.00000,0.00096,0.00197,0.00227,-0.04862,-0.11700,0.99345,0.78397,0.00000,0.00000,0.00000,0.00000,0.00000,0.00000,0.00000,0.00000,0.00000,0.00000,No status,0.0
0.85604,0.00000000,0.00000000,0.00000000,0.00000000,14:45:28.035590,0.03466,0.00000,0.00000,-0.03963,0.00000,0.00280,0.00075,0.00441,-0.04868,-0.11517,0.99424,0.82285,0.00000,0.00000,0.00000,0.00000,0.00000,0.00000,0.00000,0.00000,0.00000,0.00000,No status,0.0
0.89802,0.00000000,0.00000000,0.00000000,0.00000000,14:45:28.077555,0.03324,0.00000,0.00000,-0.04124,0.00000,0.00035,-0.00154,-0.00155,-0.04886,-0.11645,0.98991,0.86671,0.00000,0.00000,0.00000,0.00000,0.00000,0.00000,0.00000,0.00000,0.00000,0.00000,No status,0.0
0.93984,0.00000000,0.00000000,0.00000000,0.00000000,14:45:28.119387,0.03066,0.00000,0.00000,-0.04295,0.00000,-0.00194,0.00411,0.00059,-0.05167,-0.11767,0.99149,0.91163,0.00000,0.00000,0.00000,0.00000,0.00000,0.00000,0.00000,0.00000,0.00000,0.00000,No status,0.0
0.98706,0.00000000,0.00000000,0.00000000,0.00000000,14:45:28.167566,0.03581,0.00000,0.00000,-0.04459,0.00000,-0.00179,-0.00261,-0.00216,-0.05026,-0.11657,0.99399,0.95293,0.00000,0.00000,0.00000,0.00000,0.00000,0.00000,0.00000,0.00000,0.00000,0.00000,No status,0.0
1.03348,0.00000000,0.00000000,0.00000000,0.00000000,14:45:28.213023,0.03523,0.00000,0.00000,-0.04618,0.00000,-0.00133,-0.00032,0.00074,-0.05209,-0.11468,0.99338,0.99986,0.00000,0.00000,0.00000,0.00000,0.00000,0.00000,0.00000,0.00000,0.00000,0.00000,No status,0.0
1.07948,0.00000000,0.00000000,0.00000000,0.00000000,14:45:28.259023,0.03641,0.00000,0.00000,-0.04759,0.00000,0.00264,0.00197,0.00120,-0.04868,-0.11694,0.99277,1.04517,0.00000,0.00000,0.00000,0.00000,0.00000,0.00000,0.00000,0.00000,0.00000,0.00000,No status,0.0
1.11969,0.00000000,0.00000000,0.00000000,0.00000000,14:45:28.299213,0.02822,0.00000,0.00000,-0.04900,0.00000,0.00188,0.00121,-0.00170,-0.04630,-0.11602,0.99320,1.09242,0.00000,0.00000,0.00000,0.00000,0.00000,0.00000,0.00000,0.00000,0.00000,0.00000,No status,0.0
1.14611,0.00000000,0.00000000,0.00000000,0.00000000,14:45:28.325660,0.02537,0.00000,0.00000,-0.05059,0.00000,-0.00423,0.00136,0.00074,-0.04874,-0.11450,0.99259,1.12428,0.00000,0.00000,0.00000,0.00000,0.00000,0.00000,0.00000,0.00000,0.00000,0.00000,No status,0.0
1.19470,0.00000000,0.00000000,0.00000000,0.00000000,14:45:28.374278,0.03392,0.00000,0.00000,-0.05204,0.00000,-0.00087,0.00182,0.00013,-0.05039,-0.11383,0.99406,1.16181,0.00000,0.00000,0.00000,0.00000,0.00000,0.00000,0.00000,0.00000,0.00000,0.00000,No status,0.0
1.24173,0.00000000,0.00000000,0.00000000,0.00000000,14:45:28.421276,0.03552,0.00000,0.00000,-0.05350,0.00000,-0.00072,0.00274,-0.00201,-0.04813,-0.11560,0.99247,1.20727,0.00000,0.00000,0.00000,0.00000,0.00000,0.00000,0.00000,0.00000,0.00000,0.00000,No status,0.0
1.28853,0.00000000,0.00000000,0.00000000,0.00000000,14:45:28.468075,0.03658,0.00000,0.00000,-0.05482,0.00000,0.00173,-0.00047,0.00471,-0.04825,-0.11529,0.99198,1.25334,0.00000,0.00000,0.00000,0.00000,0.00000,0.00000,0.00000,0.00000,0.00000,0.00000,No status,0.0
1.33345,0.00000000,0.00000000,0.00000000,0.00000000,14:45:28.512991,0.03434,0.00000,0.00000,-0.05617,0.00000,0.00112,-0.00078,0.00288,-0.05215,-0.11675,0.99210,1.30133,0.00000,0.00000,0.00000,0.00000,0.00000,0.00000,0.00000,0.00000,0.00000,0.00000,No status,0.0
1.38430,0.00000000,0.00000000,0.00000000,0.00000000,14:45:28.563848,0.03937,0.00000,0.00000,-0.05736,0.00000,0.00371,0.00350,-0.00277,-0.05094,-0.11566,0.99241,1.34925,0.00000,0.00000,0.00000,0.00000,0.00000,0.00000,0.00000,0.00000,0.00000,0.00000,No status,0.0
1.42520,0.00000000,0.00000000,0.00000000,0.00000000,14:45:28.604754,0.03402,0.00000,0.00000,-0.05867,0.00000,0.00142,0.00304,0.00151,-0.04917,-0.11706,0.99223,1.39268,0.00000,0.00000,0.00000,0.00000,0.00000,0.00000,0.00000,0.00000,0.00000,0.00000,No status,0.0
1.47097,0.00000000,0.00000000,0.00000000,0.00000000,14:45:28.651539,0.03550,0.00000,0.00000,-0.06008,0.00000,-0.00240,-0.00246,0.00029,-0.05185,-0.11450,0.99332,1.43682,0.00000,0.00000,0.00000,0.00000,0.00000,0.00000,0.00000,0.00000,0.00000,0.00000,No status,0.0
1.51263,0.00000000,0.00000000,0.00000000,0.00000000,14:45:28.692175,0.03205,0.00000,0.00000,-0.06146,0.00000,-0.00179,-0.00261,-0.00369,-0.04972,-0.11511,0.99363,1.48216,0.00000,0.00000,0.00000,0.00000,0.00000,0.00000,0.00000,0.00000,0.00000,0.00000,No status,0.0
1.55746,0.00000000,0.00000000,0.00000000,0.00000000,14:45:28.737012,0.03582,0.00000,0.00000,-0.06277,0.00000,-0.00072,-0.00719,0.00105,-0.04795,-0.11584,0.99601,1.52502,0.00000,0.00000,0.00000,0.00000,0.00000,0.00000,0.00000,0.00000,0.00000,0.00000,No status,0.0
1.59822,0.00000000,0.00000000,0.00000000,0.00000000,14:45:28.777739,0.02923,0.00000,0.00000,-0.06414,0.00000,-0.00148,-0.00230,0.00227,-0.05039,-0.11828,0.99192,1.57209,0.00000,0.00000,0.00000,0.00000,0.00000,0.00000,0.00000,0.00000,0.00000,0.00000,No status,0.0
1.64316,0.00000000,0.00000000,0.00000000,0.00000000,14:45:28.822697,0.03107,0.00000,0.00000,-0.06519,0.00000,0.00417,-0.00215,-0.00185,-0.04965,-0.11370,0.99503,1.61259,0.00000,0.00000,0.00000,0.00000,0.00000,0.00000,0.00000,0.00000,0.00000,0.00000,No status,0.0
1.68901,0.00000000,0.00000000,0.00000000,0.00000000,14:45:28.868563,0.03539,0.00000,0.00000,-0.06640,0.00000,0.00005,0.00212,-0.00109,-0.04868,-0.11492,0.99418,1.65565,0.00000,0.00000,0.00000,0.00000,0.00000,0.00000,0.00000,0.00000,0.00000,0.00000,No status,0.0
1.73118,0.00000000,0.00000000,0.00000000,0.00000000,14:45:28.911733,0.03040,0.00000,0.00000,-0.06768,0.00000,-0.00163,0.00136,0.00166,-0.04990,-0.11492,0.99094,1.70219,0.00000,0.00000,0.00000,0.00000,0.00000,0.00000,0.00000,0.00000,0.00000,0.00000,No status,0.0
1.77897,0.00000000,0.00000000,0.00000000,0.00000000,14:45:28.958516,0.03564,0.00000,0.00000,-0.06882,0.00000,0.00173,0.00518,-0.00216,-0.05258,-0.11724,0.99320,1.74467,0.00000,0.00000,0.00000,0.00000,0.00000,0.00000,0.00000,0.00000,0.00000,0.00000,No status,0.0
1.82054,0.00000000,0.00000000,0.00000000,0.00000000,14:45:29.000074,0.03272,0.00000,0.00000,-0.07005,0.00000,-0.00087,-0.00108,0.00242,-0.05008,-0.11663,0.99125,1.79026,0.00000,0.00000,0.00000,0.00000,0.00000,0.00000,0.00000,0.00000,0.00000,0.00000,No status,0.0
1.86811,0.00000000,0.00000000,0.00000000,0.00000000,14:45:29.047654,0.03673,0.00000,0.00000,-0.07117,0.00000,0.00081,-0.00169,0.00013,-0.04947,-0.11505,0.99247,1.83262,0.00000,0.00000,0.00000,0.00000,0.00000,0.00000,0.00000,0.00000,0.00000,0.00000,No status,0.0
1.91269,0.00000000,0.00000000,0.00000000,0.00000000,14:45:29.094229,0.03222,0.00000,0.00000,-0.07213,0.00000,0.00386,-0.00001,0.00334,-0.04923,-0.11657,0.99430,1.88201,0.00000,0.00000,0.00000,0.00000,0.00000,0.00000,0.00000,0.00000,0.00000,0.00000,No status,0.0
1.95328,0.00000000,0.00000000,0.00000000,0.00000000,14:45:29.132801,0.02948,0.00000,0.00000,-0.07322,0.00000,0.00112,-0.00261,-0.00063,-0.04990,-0.11651,0.99351,1.92568,0.00000,0.00000,0.00000,0.00000,0.00000,0.00000,0.00000,0.00000,0.00000,0.00000,No status,0.0
1.99630,0.00000000,0.00000000,0.00000000,0.00000000,14:45:29.176535,0.03156,0.00000,0.00000,-0.07444,0.00000,-0.00240,-0.00047,0.00090,-0.05100,-0.11669,0.99271,1.96641,0.00000,0.00000,0.00000,0.00000,0.00000,0.00000,0.00000,0.00000,0.00000,0.00000,No status,0.0
2.03634,0.00000000,0.00000000,0.00000000,0.00000000,14:45:29.215886,0.03173,0.00000,0.00000,-0.07557,0.00000,-0.00102,-0.00230,-0.00292,-0.05039,-0.11584,0.99241,2.00686,0.00000,0.00000,0.00000,0.00000,0.00000,0.00000,0.00000,0.00000,0.00000,0.00000,No status,0.0
2.08392,0.00000000,0.00000000,0.00000000,0.00000000,14:45:29.263467,0.03602,0.00000,0.00000,-0.07659,0.00000,0.00142,0.00197,-0.00353,-0.04972,-0.11614,0.99302,2.04940,0.00000,0.00000,0.00000,0.00000,0.00000,0.00000,0.00000,0.00000,0.00000,0.00000,No status,0.0
2.12759,0.00000000,0.00000000,0.00000000,0.00000000,14:45:29.307128,0.03173,0.00000,0.00000,-0.07752,0.00000,0.00264,0.00274,0.00151,-0.05246,-0.11511,0.99198,2.09741,0.00000,0.00000,0.00000,0.00000,0.00000,0.00000,0.00000,0.00000,0.00000,0.00000,No status,0.0
2.17342,0.00000000,0.00000000,0.00000000,0.00000000,14:45:29.352970,0.03661,0.00000,0.00000,-0.07864,0.00000,-0.00194,-0.00353,0.00181,-0.05020,-0.11535,0.99235,2.13820,0.00000,0.00000,0.00000,0.00000,0.00000,0.00000,0.00000,0.00000,0.00000,0.00000,No status,0.0
2.20469,0.00000000,0.00000000,0.00000000,0.00000000,14:45:29.384225,0.02295,0.00000,0.00000,-0.07997,0.00000,-0.00637,0.00060,0.00273,-0.05026,-0.11730,0.99601,2.18354,0.00000,0.00000,0.00000,0.00000,0.00000,0.00000,0.00000,0.00000,0.00000,0.00000,No status,0.0
2.24049,0.00000000,0.00000000,0.00000000,0.00000000,14:45:29.420040,0.02781,0.00000,0.00000,-0.08094,0.00000,0.00050,-0.00001,0.00059,-0.05136,-0.11444,0.99168,2.21332,0.00000,0.00000,0.00000,0.00000,0.00000,0.00000,0.00000,0.00000,0.00000,0.00000,No status,0.0
2.28264,0.00000000,0.00000000,0.00000000,0.00000000,14:45:29.462192,0.02927,0.00000,0.00000,-0.08204,0.00000,-0.00163,0.00029,0.00044,-0.05020,-0.11791,0.99284,2.25424,0.00000,0.00000,0.00000,0.00000,0.00000,0.00000,0.00000,0.00000,0.00000,0.00000,No status,0.0
2.32240,0.00000000,0.00000000,0.00000000,0.00000000,14:45:29.502676,0.02683,0.00000,0.00000,-0.08320,0.00000,-0.00408,0.00472,-0.00139,-0.05185,-0.11633,0.98893,2.29630,0.00000,0.00000,0.00000,0.00000,0.00000,0.00000,0.00000,0.00000,0.00000,0.00000,No status,0.0
2.36899,0.00000000,0.00000000,0.00000000,0.00000000,14:45:29.548528,0.03584,0.00000,0.00000,-0.08418,0.00000,-0.00011,-0.00017,0.00166,-0.04831,-0.11712,0.99369,2.33402,0.00000,0.00000,0.00000,0.00000,0.00000,0.00000,0.00000,0.00000,0.00000,0.00000,No status,0.0
2.40850,0.00000000,0.00000000,0.00000000,0.00000000,14:45:29.588039,0.03120,0.00000,0.00000,-0.08530,0.00000,-0.00377,0.00167,0.00044,-0.04972,-0.11621,0.99381,2.37852,0.00000,0.00000,0.00000,0.00000,0.00000,0.00000,0.00000,0.00000,0.00000,0.00000,No status,0.0
2.45258,0.00000000,0.00000000,0.00000000,0.00000000,14:45:29.632099,0.03365,0.00000,0.00000,-0.08630,0.00000,-0.00133,0.00044,0.00181,-0.05094,-0.11749,0.99540,2.42197,0.00000,0.00000,0.00000,0.00000,0.00000,0.00000,0.00000,0.00000,0.00000,0.00000,No status,0.0
2.49473,0.00000000,0.00000000,0.00000000,0.00000000,14:45:29.674285,0.03097,0.00000,0.00000,-0.08725,0.00000,-0.00087,0.00289,-0.00078,-0.05246,-0.11578,0.99363,2.46508,0.00000,0.00000,0.00000,0.00000,0.00000,0.00000,0.00000,0.00000,0.00000,0.00000,No status,0.0
2.53482,0.00000000,0.00000000,0.00000000,0.00000000,14:45:29.714354,0.02768,0.00000,0.00000,-0.08819,0.00000,0.00020,0.00442,0.00197,-0.05033,-0.11871,0.99168,2.50814,0.00000,0.00000,0.00000,0.00000,0.00000,0.00000,0.00000,0.00000,0.00000,0.00000,No status,0.0
2.57505,0.00000000,0.00000000,0.00000000,0.00000000,14:45:29.754601,0.03431,0.00000,0.00000,-0.08907,0.00000,0.00081,0.00243,0.00181,-0.04965,-0.11730,0.99345,2.54144,0.00000,0.00000,0.00000,0.00000,0.00000,0.00000,0.00000,0.00000,0.00000,0.00000,No status,0.0
2.61665,0.00000000,0.00000000,0.00000000,0.00000000,14:45:29.796198,0.03160,0.00000,0.00000,-0.09002,0.00000,-0.00163,-0.00215,0.00074,-0.04910,-0.11675,0.99503,2.58501,0.00000,0.00000,0.00000,0.00000,0.00000,0.00000,0.00000,0.00000,0.00000,0.00000,No status,0.0
2.65480,0.00000000,0.00000000,0.00000000,0.00000000,14:45:29.835018,0.02600,0.00000,0.00000,-0.09083,0.00000,0.00142,0.00350,-0.00017,-0.04947,-0.11621,0.99229,2.62984,0.00000,0.00000,0.00000,0.00000,0.00000,0.00000,0.00000,0.00000,0.00000,0.00000,No status,0.0
2.70875,0.00000000,0.00000000,0.00000000,0.00000000,14:45:29.888305,0.04145,0.00000,0.00000,-0.09170,0.00000,-0.00041,0.00121,0.00044,-0.04898,-0.11651,0.99290,2.67286,0.00000,0.00000,0.00000,0.00000,0.00000,0.00000,0.00000,0.00000,0.00000,0.00000,No status,0.0
2.74725,0.00000000,0.00000000,0.00000000,0.00000000,14:45:29.926771,0.02915,0.00000,0.00000,-0.09258,0.00000,-0.00072,-0.00032,-0.00231,-0.05069,-0.11627,0.99180,2.71910,0.00000,0.00000,0.00000,0.00000,0.00000,0.00000,0.00000,0.00000,0.00000,0.00000,No status,0.0
2.79041,0.00000000,0.00000000,0.00000000,0.00000000,14:45:29.970125,0.04210,0.00000,0.00000,-0.09345,0.00000,-0.00148,0.00212,0.00166,-0.05051,-0.11572,0.99290,2.75526,0.00000,0.00000,0.00000,0.00000,0.00000,0.00000,0.00000,0.00000,0.00000,0.00000,No status,0.0
2.84223,0.00000000,0.00000000,0.00000000,0.00000000,14:45:30.021781,0.04269,0.00000,0.00000,-0.09429,0.00000,-0.00102,0.00014,0.00258,-0.04984,-0.11474,0.99296,2.80602,0.00000,0.00000,0.00000,0.00000,0.00000,0.00000,0.00000,0.00000,0.00000,0.00000,No status,0.0
2.88528,0.00000000,0.00000000,0.00000000,0.00000000,14:45:30.064828,0.03226,0.00000,0.00000,-0.09509,0.00000,0.00035,-0.00246,-0.00063,-0.04972,-0.11736,0.99198,2.85863,0.00000,0.00000,0.00000,0.00000,0.00000,0.00000,0.00000,0.00000,0.00000,0.00000,No status,0.0
2.92330,0.00000000,0.00000000,0.00000000,0.00000000,14:45:30.102879,0.02419,0.00000,0.00000,-0.09567,0.00000,0.00478,0.00304,0.00151,-0.05051,-0.11462,0.99357,2.89789,0.00000,0.00000,0.00000,0.00000,0.00000,0.00000,0.00000,0.00000,0.00000,0.00000,No status,0.0
2.96849,0.00000000,0.00000000,0.00000000,0.00000000,14:45:30.148039,0.03246,0.00000,0.00000,-0.09645,0.00000,0.00066,0.00044,-0.00185,-0.04801,-0.11797,0.99430,2.93710,0.00000,0.00000,0.00000,0.00000,0.00000,0.00000,0.00000,0.00000,0.00000,0.00000,No status,0.0
3.01717,0.00000000,0.00000000,0.00000000,0.00000000,14:45:30.196715,0.03689,0.00000,0.00000,-0.09720,0.00000,0.00081,0.00197,0.00288,-0.05063,-0.11730,0.99406,2.98064,0.00000,0.00000,0.00000,0.00000,0.00000,0.00000,0.00000,0.00000,0.00000,0.00000,No status,0.0
3.06058,0.00000000,0.00000000,0.00000000,0.00000000,14:45:30.240239,0.03367,0.00000,0.00000,-0.09802,0.00000,-0.00102,0.00044,0.00227,-0.04788,-0.11712,0.99003,3.02911,0.00000,0.00000,0.00000,0.00000,0.00000,0.00000,0.00000,0.00000,0.00000,0.00000,No status,0.0
3.10842,0.00000000,0.00000000,0.00000000,0.00000000,14:45:30.287971,0.03470,0.00000,0.00000,-0.09885,0.00000,-0.00148,0.00029,0.00044,-0.05002,-0.11736,0.99290,3.07406,0.00000,0.00000,0.00000,0.00000,0.00000,0.00000,0.00000,0.00000,0.00000,0.00000,No status,0.0
3.14996,0.00000000,0.00000000,0.00000000,0.00000000,14:45:30.329500,0.03221,0.00000,0.00000,-0.09955,0.00000,0.00005,-0.00261,-0.00078,-0.04965,-0.11407,0.99332,3.11924,0.00000,0.00000,0.00000,0.00000,0.00000,0.00000,0.00000,0.00000,0.00000,0.00000,No status,0.0
3.19210,0.00000000,0.00000000,0.00000000,0.00000000,14:45:30.371640,0.03305,0.00000,0.00000,-0.10031,0.00000,-0.00041,0.00228,0.00074,-0.04843,-0.11743,0.99101,3.16029,0.00000,0.00000,0.00000,0.00000,0.00000,0.00000,0.00000,0.00000,0.00000,0.00000,No status,0.0
3.23674,0.00000000,0.00000000,0.00000000,0.00000000,14:45:30.416285,0.03516,0.00000,0.00000,-0.10094,0.00000,0.00157,-0.00032,0.00135,-0.05008,-0.11584,0.99485,3.20288,0.00000,0.00000,0.00000,0.00000,0.00000,0.00000,0.00000,0.00000,0.00000,0.00000,No status,0.0
3.27577,0.00000000,0.00000000,0.00000000,0.00000000,14:45:30.455316,0.02977,0.00000,0.00000,-0.10176,0.00000,-0.00240,0.00121,-0.00170,-0.04923,-0.11706,0.99631,3.24871,0.00000,0.00000,0.00000,0.00000,0.00000,0.00000,0.00000,0.00000,0.00000,0.00000,No status,0.0
3.31412,0.00000000,0.00000000,0.00000000,0.00000000,14:45:30.494451,0.02924,0.00000,0.00000,-0.10245,0.00000,-0.00056,-0.00185,-0.00262,-0.05008,-0.11486,0.99040,3.28626,0.00000,0.00000,0.00000,0.00000,0.00000,0.00000,0.00000,0.00000,0.00000,0.00000,No status,0.0
3.35947,0.00000000,0.00000000,0.00000000,0.00000000,14:45:30.540280,0.03392,0.00000,0.00000,-0.10304,0.00000,0.00280,0.00044,0.00212,-0.04904,-0.11785,0.99247,3.32796,0.00000,0.00000,0.00000,0.00000,0.00000,0.00000,0.00000,0.00000,0.00000,0.00000,No status,0.0
3.40444,0.00000000,0.00000000,0.00000000,0.00000000,14:45:30.583981,0.03494,0.00000,0.00000,-0.10383,0.00000,-0.00316,-0.00154,-0.00139,-0.05094,-0.11523,0.99546,3.37218,0.00000,0.00000,0.00000,0.00000,0.00000,0.00000,0.00000,0.00000,0.00000,0.00000,No status,0.0
3.45202,0.00000000,0.00000000,0.00000000,0.00000000,14:45:30.631563,0.03557,0.00000,0.00000,-0.10436,0.00000,0.00218,0.00014,-0.00139,-0.04849,-0.11474,0.99314,3.41875,0.00000,0.00000,0.00000,0.00000,0.00000,0.00000,0.00000,0.00000,0.00000,0.00000,No status,0.0
3.49901,0.00000000,0.00000000,0.00000000,0.00000000,14:45:30.678578,0.03623,0.00000,0.00000,-0.10501,0.00000,-0.00011,-0.00001,-0.00124,-0.04978,-0.11596,0.99564,3.46442,0.00000,0.00000,0.00000,0.00000,0.00000,0.00000,0.00000,0.00000,0.00000,0.00000,No status,0.0
3.54374,0.00000000,0.00000000,0.00000000,0.00000000,14:45:30.723293,0.03270,0.00000,0.00000,-0.10565,0.00000,0.00020,0.00014,0.00212,-0.05020,-0.11694,0.99162,3.51267,0.00000,0.00000,0.00000,0.00000,0.00000,0.00000,0.00000,0.00000,0.00000,0.00000,No status,0.0
3.59400,0.00000000,0.00000000,0.00000000,0.00000000,14:45:30.773539,0.03806,0.00000,0.00000,-0.10649,0.00000,-0.00454,0.00121,0.00197,-0.05155,-0.11633,0.99162,3.55788,0.00000,0.00000,0.00000,0.00000,0.00000,0.00000,0.00000,0.00000,0.00000,0.00000,No status,0.0
3.64099,0.00000000,0.00000000,0.00000000,0.00000000,14:45:30.820534,0.03602,0.00000,0.00000,-0.10707,0.00000,0.00050,-0.00230,-0.00078,-0.04904,-0.11535,0.99265,3.60722,0.00000,0.00000,0.00000,0.00000,0.00000,0.00000,0.00000,0.00000,0.00000,0.00000,No status,0.0
3.68141,0.00000000,0.00000000,0.00000000,0.00000000,14:45:30.860950,0.03041,0.00000,0.00000,-0.10762,0.00000,0.00096,0.00044,-0.00017,-0.04673,-0.11566,0.99711,3.65402,0.00000,0.00000,0.00000,0.00000,0.00000,0.00000,0.00000,0.00000,0.00000,0.00000,No status,0.0
3.72788,0.00000000,0.00000000,0.00000000,0.00000000,14:45:30.907435,0.03393,0.00000,0.00000,-0.10812,0.00000,0.00157,0.00014,-0.00292,-0.04929,-0.11364,0.99137,3.69515,0.00000,0.00000,0.00000,0.00000,0.00000,0.00000,0.00000,0.00000,0.00000,0.00000,No status,0.0
3.76831,0.00000000,0.00000000,0.00000000,0.00000000,14:45:30.947848,0.02804,0.00000,0.00000,-0.10893,0.00000,-0.00469,-0.00047,0.00334,-0.05057,-0.11669,0.99412,3.74097,0.00000,0.00000,0.00000,0.00000,0.00000,0.00000,0.00000,0.00000,0.00000,0.00000,No status,0.0
3.81409,0.00000000,0.00000000,0.00000000,0.00000000,14:45:30.993636,0.03503,0.00000,0.00000,-0.10958,0.00000,-0.00148,0.00182,0.00242,-0.04984,-0.11669,0.99119,3.78029,0.00000,0.00000,0.00000,0.00000,0.00000,0.00000,0.00000,0.00000,0.00000,0.00000,No status,0.0
3.85573,0.00000000,0.00000000,0.00000000,0.00000000,14:45:31.035279,0.03177,0.00000,0.00000,-0.11013,0.00000,0.00066,-0.00230,0.00334,-0.04886,-0.11724,0.99253,3.82560,0.00000,0.00000,0.00000,0.00000,0.00000,0.00000,0.00000,0.00000,0.00000,0.00000,No status,0.0
3.90078,0.00000000,0.00000000,0.00000000,0.00000000,14:45:31.080317,0.03411,0.00000,0.00000,-0.11070,0.00000,0.00081,0.00304,0.00151,-0.05094,-0.11852,0.99265,3.86683,0.00000,0.00000,0.00000,0.00000,0.00000,0.00000,0.00000,0.00000,0.00000,0.00000,No status,0.0
3.94859,0.00000000,0.00000000,0.00000000,0.00000000,14:45:31.128142,0.03633,0.00000,0.00000,-0.11111,0.00000,0.00310,0.00106,0.00181,-0.04984,-0.11608,0.99369,3.91363,0.00000,0.00000,0.00000,0.00000,0.00000,0.00000,0.00000,0.00000,0.00000,0.00000,No status,0.0
3.98417,0.00000000,0.00000000,0.00000000,0.00000000,14:45:31.164292,0.02592,0.00000,0.00000,-0.11182,0.00000,-0.00347,0.00243,-0.00017,-0.04856,-0.11700,0.99345,3.95972,0.00000,0.00000,0.00000,0.00000,0.00000,0.00000,0.00000,0.00000,0.00000,0.00000,No status,0.0
4.02517,0.00000000,0.00000000,0.00000000,0.00000000,14:45:31.204715,0.03294,0.00000,0.00000,-0.11225,0.00000,0.00310,-0.00047,-0.00262,-0.05106,-0.11529,0.99046,3.99366,0.00000,0.00000,0.00000,0.00000,0.00000,0.00000,0.00000,0.00000,0.00000,0.00000,No status,0.0
4.06770,0.00000000,0.00000000,0.00000000,0.00000000,14:45:31.248274,0.03327,0.00000,0.00000,-0.11268,0.00000,0.00280,0.00228,0.00166,-0.05142,-0.11749,0.99467,4.03598,0.00000,0.00000,0.00000,0.00000,0.00000,0.00000,0.00000,0.00000,0.00000,0.00000,No status,0.0
4.10528,0.00000000,0.00000000,0.00000000,0.00000000,14:45:31.284825,0.02874,0.00000,0.00000,-0.11324,0.00000,-0.00072,0.00182,-0.00124,-0.05002,-0.11675,0.99399,4.07806,0.00000,0.00000,0.00000,0.00000,0.00000,0.00000,0.00000,0.00000,0.00000,0.00000,No status,0.0
4.14946,0.00000000,0.00000000,0.00000000,0.00000000,14:45:31.329010,0.03235,0.00000,0.00000,-0.11379,0.00000,-0.00102,0.00167,0.00074,-0.04990,-0.11578,0.99082,4.11763,0.00000,0.00000,0.00000,0.00000,0.00000,0.00000,0.00000,0.00000,0.00000,0.00000,No status,0.0
4.18619,0.00000000,0.00000000,0.00000000,0.00000000,14:45:31.365729,0.02949,0.00000,0.00000,-0.11440,0.00000,-0.00209,-0.00139,-0.00063,-0.04612,-0.11700,0.99101,4.15798,0.00000,0.00000,0.00000,0.00000,0.00000,0.00000,0.00000,0.00000,0.00000,0.00000,No status,0.0
4.22965,0.00000000,0.00000000,0.00000000,0.00000000,14:45:31.409191,0.03371,0.00000,0.00000,-0.11486,0.00000,0.00142,0.00121,0.00074,-0.04947,-0.11749,0.99296,4.19757,0.00000,0.00000,0.00000,0.00000,0.00000,0.00000,0.00000,0.00000,0.00000,0.00000,No status,0.0
4.27590,0.00000000,0.00000000,0.00000000,0.00000000,14:45:31.455438,0.03476,0.00000,0.00000,-0.11526,0.00000,0.00218,0.00121,-0.00170,-0.04813,-0.11614,0.98991,4.24188,0.00000,0.00000,0.00000,0.00000,0.00000,0.00000,0.00000,0.00000,0.00000,0.00000,No status,0.0
4.31662,0.00000000,0.00000000,0.00000000,0.00000000,14:45:31.496172,0.03275,0.00000,0.00000,-0.11591,0.00000,-0.00347,0.00090,0.00242,-0.04898,-0.11712,0.99198,4.28581,0.00000,0.00000,0.00000,0.00000,0.00000,0.00000,0.00000,0.00000,0.00000,0.00000,No status,0.0
4.35471,0.00000000,0.00000000,0.00000000,0.00000000,14:45:31.534885,0.03099,0.00000,0.00000,-0.11637,0.00000,0.00005,0.00014,-0.00017,-0.04788,-0.11517,0.99399,4.32548,0.00000,0.00000,0.00000,0.00000,0.00000,0.00000,0.00000,0.00000,0.00000,0.00000,No status,0.0
4.39799,0.00000000,0.00000000,0.00000000,0.00000000,14:45:31.577540,0.03231,0.00000,0.00000,-0.11680,0.00000,0.00173,-0.00062,-0.00094,-0.04886,-0.11840,0.99387,4.36713,0.00000,0.00000,0.00000,0.00000,0.00000,0.00000,0.00000,0.00000,0.00000,0.00000,No status,0.0
4.44532,0.00000000,0.00000000,0.00000000,0.00000000,14:45:31.624864,0.03529,0.00000,0.00000,-0.11716,0.00000,0.00249,0.00075,0.00105,-0.05069,-0.11718,0.99284,4.41307,0.00000,0.00000,0.00000,0.00000,0.00000,0.00000,0.00000,0.00000,0.00000,0.00000,No status,0.0
4.48458,0.00000000,0.00000000,0.00000000,0.00000000,14:45:31.664123,0.02910,0.00000,0.00000,-0.11773,0.00000,-0.00194,0.00228,-0.00048,-0.05081,-0.11718,0.98972,4.45669,0.00000,0.00000,0.00000,0.00000,0.00000,0.00000,0.00000,0.00000,0.00000,0.00000,No status,0.0
4.53236,0.00000000,0.00000000,0.00000000,0.00000000,14:45:31.711905,0.03521,0.00000,0.00000,-0.11813,0.00000,0.00081,-0.00093,0.00242,-0.05057,-0.11492,0.99040,4.49867,0.00000,0.00000,0.00000,0.00000,0.00000,0.00000,0.00000,0.00000,0.00000,0.00000,No status,0.0
4.57832,0.00000000,0.00000000,0.00000000,0.00000000,14:45:31.759075,0.03466,0.00000,0.00000,-0.11871,0.00000,-0.00286,-0.00062,0.00029,-0.05100,-0.11688,0.99271,4.54526,0.00000,0.00000,0.00000,0.00000,0.00000,0.00000,0.00000,0.00000,0.00000,0.00000,No status,0.0
4.61649,0.00000000,0.00000000,0.00000000,0.00000000,14:45:31.796028,0.03085,0.00000,0.00000,-0.11925,0.00000,-0.00331,-0.00383,-0.00139,-0.04752,-0.11407,0.99174,4.58529,0.00000,0.00000,0.00000,0.00000,0.00000,0.00000,0.00000,0.00000,0.00000,0.00000,No status,0.0
4.65585,0.00000000,0.00000000,0.00000000,0.00000000,14:45:31.836022,0.02765,0.00000,0.00000,-0.11943,0.00000,0.00509,0.00075,-0.00216,-0.05094,-0.11468,0.99369,4.62948,0.00000,0.00000,0.00000,0.00000,0.00000,0.00000,0.00000,0.00000,0.00000,0.00000,No status,0.0
4.69349,0.00000000,0.00000000,0.00000000,0.00000000,14:45:31.873038,0.02805,0.00000,0.00000,-0.11984,0.00000,0.00020,0.00121,-0.00033,-0.05008,-0.11602,0.99479,4.66703,0.00000,0.00000,0.00000,0.00000,0.00000,0.00000,0.00000,0.00000,0.00000,0.00000,No status,0.0
4.74071,0.00000000,0.00000000,0.00000000,0.00000000,14:45:31.920258,0.03588,0.00000,0.00000,-0.12013,0.00000,0.00325,0.00442,0.00197,-0.05118,-0.11657,0.99253,4.70641,0.00000,0.00000,0.00000,0.00000,0.00000,0.00000,0.00000,0.00000,0.00000,0.00000,No status,0.0
4.78483,0.00000000,0.00000000,0.00000000,0.00000000,14:45:31.964382,0.03455,0.00000,0.00000,-0.12051,0.00000,0.00081,0.00197,-0.00139,-0.05014,-0.11621,0.99241,4.75227,0.00000,0.00000,0.00000,0.00000,0.00000,0.00000,0.00000,0.00000,0.00000,0.00000,No status,0.0
4.82195,0.00000000,0.00000000,0.00000000,0.00000000,14:45:32.002215,0.03081,0.00000,0.00000,-0.12086,0.00000,0.00173,-0.00169,-0.00002,-0.05185,-0.11694,0.99302,4.79207,0.00000,0.00000,0.00000,0.00000,0.00000,0.00000,0.00000,0.00000,0.00000,0.00000,No status,0.0
4.87113,0.00000000,0.00000000,0.00000000,0.00000000,14:45:32.050669,0.03576,0.00000,0.00000,-0.12131,0.00000,-0.00148,0.00197,-0.00048,-0.05051,-0.11505,0.99168,4.83704,0.00000,0.00000,0.00000,0.00000,0.00000,0.00000,0.00000,0.00000,0.00000,0.00000,No status,0.0
4.91534,0.00000000,0.00000000,0.00000000,0.00000000,14:45:32.094886,0.03240,0.00000,0.00000,-0.12167,0.00000,0.00127,0.00029,0.00273,-0.05173,-0.11749,0.99363,4.88517,0.00000,0.00000,0.00000,0.00000,0.00000,0.00000,0.00000,0.00000,0.00000,0.00000,No status,0.0
4.96200,0.00000000,0.00000000,0.00000000,0.00000000,14:45:32.142260,0.03637,0.00000,0.00000,-0.12226,0.00000,-0.00499,-0.00124,0.00029,-0.04923,-0.11602,0.99076,4.92670,0.00000,0.00000,0.00000,0.00000,0.00000,0.00000,0.00000,0.00000,0.00000,0.00000,No status,0.0
5.00400,0.00000000,0.00000000,0.00000000,0.00000000,14:45:32.183545,0.03122,0.00000,0.00000,-0.12255,0.00000,0.00218,-0.00078,-0.00002,-0.05033,-0.11657,0.99284,4.97432,0.00000,0.00000,0.00000,0.00000,0.00000,0.00000,0.00000,0.00000,0.00000,0.00000,No status,0.0
5.04714,0.00000000,0.00000000,0.00000000,0.00000000,14:45:32.226688,0.03477,0.00000,0.00000,-0.12300,0.00000,-0.00163,-0.00093,-0.00094,-0.05020,-0.11706,0.99418,5.01583,0.00000,0.00000,0.00000,0.00000,0.00000,0.00000,0.00000,0.00000,0.00000,0.00000,No status,0.0
5.08890,0.00000000,0.00000000,0.00000000,0.00000000,14:45:32.268450,0.03191,0.00000,0.00000,-0.12336,0.00000,0.00020,-0.00017,0.00181,-0.04904,-0.11614,0.99424,5.05774,0.00000,0.00000,0.00000,0.00000,0.00000,0.00000,0.00000,0.00000,0.00000,0.00000,No status,0.0
5.13178,0.00000000,0.00000000,0.00000000,0.00000000,14:45:32.312098,0.03398,0.00000,0.00000,-0.12373,0.00000,-0.00041,0.00151,-0.00231,-0.05033,-0.11547,0.99241,5.09983,0.00000,0.00000,0.00000,0.00000,0.00000,0.00000,0.00000,0.00000,0.00000,0.00000,No status,0.0
5.17593,0.00000000,0.00000000,0.00000000,0.00000000,14:45:32.355481,0.03301,0.00000,0.00000,-0.12411,0.00000,-0.00056,-0.00139,-0.00063,-0.04929,-0.11596,0.99479,5.14380,0.00000,0.00000,0.00000,0.00000,0.00000,0.00000,0.00000,0.00000,0.00000,0.00000,No status,0.0
5.21236,0.00000000,0.00000000,0.00000000,0.00000000,14:45:32.391910,0.02658,0.00000,0.00000,-0.12454,0.00000,-0.00194,0.00075,-0.00277,-0.04947,-0.11590,0.99192,5.18701,0.00000,0.00000,0.00000,0.00000,0.00000,0.00000,0.00000,0.00000,0.00000,0.00000,No status,0.0
5.25606,0.00000000,0.00000000,0.00000000,0.00000000,14:45:32.435609,0.03417,0.00000,0.00000,-0.12496,0.00000,-0.00209,-0.00169,0.00044,-0.04910,-0.11639,0.99363,5.22311,0.00000,0.00000,0.00000,0.00000,0.00000,0.00000,0.00000,0.00000,0.00000,0.00000,No status,0.0
5.29953,0.00000000,0.00000000,0.00000000,0.00000000,14:45:32.479074,0.03428,0.00000,0.00000,-0.12542,0.00000,-0.00240,-0.00017,0.00090,-0.04953,-0.11779,0.99418,5.26591,0.00000,0.00000,0.00000,0.00000,0.00000,0.00000,0.00000,0.00000,0.00000,0.00000,No status,0.0
5.34318,0.00000000,0.00000000,0.00000000,0.00000000,14:45:32.522725,0.03430,0.00000,0.00000,-0.12568,0.00000,0.00127,0.00136,-0.00139,-0.04941,-0.11511,0.99332,5.31118,0.00000,0.00000,0.00000,0.00000,0.00000,0.00000,0.00000,0.00000,0.00000,0.00000,No status,0.0
5.38611,0.00000000,0.00000000,0.00000000,0.00000000,14:45:32.566447,0.03264,0.00000,0.00000,-0.12628,0.00000,-0.00606,-0.00169,-0.00078,-0.04874,-0.11657,0.99399,5.35512,0.00000,0.00000,0.00000,0.00000,0.00000,0.00000,0.00000,0.00000,0.00000,0.00000,No status,0.0
5.42807,0.00000000,0.00000000,0.00000000,0.00000000,14:45:32.607886,0.03206,0.00000,0.00000,-0.12662,0.00000,-0.00072,-0.00032,0.00090,-0.04843,-0.11578,0.99290,5.39760,0.00000,0.00000,0.00000,0.00000,0.00000,0.00000,0.00000,0.00000,0.00000,0.00000,No status,0.0
5.47375,0.00000000,0.00000000,0.00000000,0.00000000,14:45:32.653291,0.03693,0.00000,0.00000,-0.12701,0.00000,-0.00072,-0.00154,-0.00109,-0.05057,-0.11871,0.99137,5.44015,0.00000,0.00000,0.00000,0.00000,0.00000,0.00000,0.00000,0.00000,0.00000,0.00000,No status,0.0
5.51585,0.00000000,0.00000000,0.00000000,0.00000000,14:45:32.695981,0.03053,0.00000,0.00000,-0.12728,0.00000,0.00157,0.00075,-0.00094,-0.04978,-0.11822,0.99235,5.48694,0.00000,0.00000,0.00000,0.00000,0.00000,0.00000,0.00000,0.00000,0.00000,0.00000,No status,0.0
5.56053,0.00000000,0.00000000,0.00000000,0.00000000,14:45:32.740074,0.03446,0.00000,0.00000,-0.12760,0.00000,0.00005,-0.00062,-0.00017,-0.04996,-0.11773,0.99235,5.52882,0.00000,0.00000,0.00000,0.00000,0.00000,0.00000,0.00000,0.00000,0.00000,0.00000,No status,0.0
5.60766,0.00000000,0.00000000,0.00000000,0.00000000,14:45:32.787214,0.03490,0.00000,0.00000,-0.12787,0.00000,0.00050,0.00197,0.00044,-0.05039,-0.11541,0.99186,5.57458,0.00000,0.00000,0.00000,0.00000,0.00000,0.00000,0.00000,0.00000,0.00000,0.00000,No status,0.0
5.64559,0.00000000,0.00000000,0.00000000,0.00000000,14:45:32.825134,0.03167,0.00000,0.00000,-0.12825,0.00000,-0.00224,-0.00062,-0.00002,-0.05075,-0.11596,0.99393,5.61563,0.00000,0.00000,0.00000,0.00000,0.00000,0.00000,0.00000,0.00000,0.00000,0.00000,No status,0.0
5.69138,0.00000000,0.00000000,0.00000000,0.00000000,14:45:32.870927,0.03633,0.00000,0.00000,-0.12844,0.00000,0.00203,0.00228,-0.00399,-0.04868,-0.11480,0.99290,5.65782,0.00000,0.00000,0.00000,0.00000,0.00000,0.00000,0.00000,0.00000,0.00000,0.00000,No status,0.0
5.73978,0.00000000,0.00000000,0.00000000,0.00000000,14:45:32.919325,0.03657,0.00000,0.00000,-0.12875,0.00000,-0.00087,0.00197,0.00074,-0.04990,-0.11529,0.99503,5.70639,0.00000,0.00000,0.00000,0.00000,0.00000,0.00000,0.00000,0.00000,0.00000,0.00000,No status,0.0
5.78467,0.00000000,0.00000000,0.00000000,0.00000000,14:45:32.964823,0.03717,0.00000,0.00000,-0.12896,0.00000,0.00234,0.00411,-0.00094,-0.04935,-0.11840,0.99637,5.74910,0.00000,0.00000,0.00000,0.00000,0.00000,0.00000,0.00000,0.00000,0.00000,0.00000,No status,0.0
5.82325,0.00000000,0.00000000,0.00000000,0.00000000,14:45:33.002794,0.02893,0.00000,0.00000,-0.12926,0.00000,-0.00056,0.00304,0.00212,-0.05069,-0.11578,0.99375,5.79515,0.00000,0.00000,0.00000,0.00000,0.00000,0.00000,0.00000,0.00000,0.00000,0.00000,No status,0.0
5.86823,0.00000000,0.00000000,0.00000000,0.00000000,14:45:33.047770,0.03251,0.00000,0.00000,-0.12948,0.00000,0.00142,-0.00215,-0.00109,-0.04917,-0.11651,0.99406,5.83723,0.00000,0.00000,0.00000,0.00000,0.00000,0.00000,0.00000,0.00000,0.00000,0.00000,No status,0.0
5.91624,0.00000000,0.00000000,0.00000000,0.00000000,14:45:33.095791,0.03662,0.00000,0.00000,-0.12987,0.00000,-0.00316,0.00106,0.00319,-0.04953,-0.11505,0.99521,5.88153,0.00000,0.00000,0.00000,0.00000,0.00000,0.00000,0.00000,0.00000,0.00000,0.00000,No status,0.0
5.96005,0.00000000,0.00000000,0.00000000,0.00000000,14:45:33.139600,0.03250,0.00000,0.00000,-0.13005,0.00000,0.00203,-0.00185,0.00013,-0.05026,-0.11669,0.99338,5.92990,0.00000,0.00000,0.00000,0.00000,0.00000,0.00000,0.00000,0.00000,0.00000,0.00000,No status,0.0
5.99961,0.00000000,0.00000000,0.00000000,0.00000000,14:45:33.179137,0.02771,0.00000,0.00000,-0.13029,0.00000,0.00020,0.00289,-0.00078,-0.04782,-0.11499,0.99277,5.97341,0.00000,0.00000,0.00000,0.00000,0.00000,0.00000,0.00000,0.00000,0.00000,0.00000,No status,0.0
6.03170,0.00000000,0.00000000,0.00000000,0.00000000,14:45:33.212119,0.02934,0.00000,0.00000,-0.13042,0.00000,0.00371,0.00014,0.00288,-0.05002,-0.11523,0.99338,6.00266,0.00000,0.00000,0.00000,0.00000,0.00000,0.00000,0.00000,0.00000,0.00000,0.00000,No status,0.0
6.07472,0.00000000,0.00000000,0.00000000,0.00000000,14:45:33.254264,0.03371,0.00000,0.00000,-0.13067,0.00000,0.00005,-0.00139,0.00181,-0.05386,-0.11560,0.99247,6.04232,0.00000,0.00000,0.00000,0.00000,0.00000,0.00000,0.00000,0.00000,0.00000,0.00000,No status,0.0
6.11946,0.00000000,0.00000000,0.00000000,0.00000000,14:45:33.298996,0.03445,0.00000,0.00000,-0.13099,0.00000,-0.00240,-0.00032,0.00059,-0.05033,-0.11315,0.99119,6.08653,0.00000,0.00000,0.00000,0.00000,0.00000,0.00000,0.00000,0.00000,0.00000,0.00000,No status,0.0
6.16042,0.00000000,0.00000000,0.00000000,0.00000000,14:45:33.340530,0.03291,0.00000,0.00000,-0.13121,0.00000,0.00020,-0.00230,0.00029,-0.05161,-0.11541,0.99546,6.12752,0.00000,0.00000,0.00000,0.00000,0.00000,0.00000,0.00000,0.00000,0.00000,0.00000,No status,0.0
6.20594,0.00000000,0.00000000,0.00000000,0.00000000,14:45:33.385481,0.03409,0.00000,0.00000,-0.13145,0.00000,0.00020,0.00182,-0.00063,-0.05106,-0.11639,0.99314,6.17368,0.00000,0.00000,0.00000,0.00000,0.00000,0.00000,0.00000,0.00000,0.00000,0.00000,No status,0.0
6.25409,0.00000000,0.00000000,0.00000000,0.00000000,14:45:33.433630,0.03739,0.00000,0.00000,-0.13170,0.00000,-0.00056,0.00075,0.00029,-0.04923,-0.11492,0.99290,6.21894,0.00000,0.00000,0.00000,0.00000,0.00000,0.00000,0.00000,0.00000,0.00000,0.00000,No status,0.0
6.29374,0.00000000,0.00000000,0.00000000,0.00000000,14:45:33.473282,0.02934,0.00000,0.00000,-0.13184,0.00000,0.00142,0.00090,-0.00262,-0.04898,-0.11352,0.99369,6.26469,0.00000,0.00000,0.00000,0.00000,0.00000,0.00000,0.00000,0.00000,0.00000,0.00000,No status,0.0
