Time,lat_estimated,lon_estimated,latitude,longitude,RealTime,CalculationTime,MeasuredVelocity,FilteredVelocity,Roll,SteeringAngle,RollRate,gy,gz,ax,ay,az,imu_read_timing,v_estimated,yaw_estimated,heading_estimated,x_estimated,y_estimated,GPS_timestamp,x_GPS,y_GPS,theta_GPS,theta_GPS_noUnwrap,status,NMEA timestamp
0.05242,57.68786800,11.97898050,57.68786800,11.97898050,15:01:19.630476,0.05238,0.00000,0.00000,-0.00223,0.00000,0.00408,-0.00129,-0.00202,-0.04276,-0.12938,0.98796,0.00001,0.00000,0.00000,0.00000,0.00000,0.00000,0.01801,0.00000,0.00000,0.00000,0.00000,A,150119.50
0.06770,57.68786800,11.97898050,57.68786800,11.97898050,15:01:19.645530,0.00634,0.00000,0.00000,-0.00457,0.00000,-0.00188,0.00329,-0.00141,-0.04185,-0.12920,0.98911,0.06112,0.00000,0.00000,0.00000,0.00000,0.00000,0.01801,0.00000,0.00000,0.00000,0.00000,A,150119.50
0.07647,57.68786800,11.97898050,57.68786800,11.97898050,15:01:19.654664,0.00470,0.00000,0.00000,-0.00671,0.00000,0.00362,0.00069,-0.00172,-0.04398,-0.12847,0.99033,0.07296,0.00000,0.00000,0.00000,0.00000,0.00000,0.01801,0.00000,0.00000,0.00000,0.00000,A,150119.50
0.08562,57.68786800,11.97898050,57.68786800,11.97898050,15:01:19.663409,0.00336,0.00000,0.00000,-0.00885,0.00000,-0.00005,0.00268,-0.00187,-0.04160,-0.12712,0.98802,0.08213,0.00000,0.00000,0.00000,0.00000,0.00000,0.01801,0.00000,0.00000,0.00000,0.00000,A,150119.50
0.09579,57.68786800,11.97898050,57.68786800,11.97898050,15:01:19.673571,0.00296,0.00000,0.00000,-0.01098,0.00000,-0.00066,0.00008,-0.00126,-0.04435,-0.12877,0.99082,0.09232,0.00000,0.00000,0.00000,0.00000,0.00000,0.01801,0.00000,0.00000,0.00000,0.00000,A,150119.50
0.10677,57.68786800,11.97898050,57.68786800,11.97898050,15:01:19.684568,0.00355,0.00000,0.00000,-0.01309,0.00000,-0.00096,-0.00068,-0.00019,-0.04343,-0.12969,0.98936,0.10296,0.00000,0.00000,0.00000,0.00000,0.00000,0.01801,0.00000,0.00000,0.00000,0.00000,A,150119.50
0.11675,57.68786800,11.97898050,57.68786800,11.97898050,15:01:19.694544,0.00313,0.00000,0.00000,-0.01519,0.00000,-0.00127,-0.00053,0.00286,-0.04191,-0.13048,0.99009,0.11308,0.00000,0.00000,0.00000,0.00000,0.00000,0.01801,0.00000,0.00000,0.00000,0.00000,A,150119.50
0.14473,57.68786800,11.97898050,57.68786800,11.97898050,15:01:19.722529,0.02071,0.00000,0.00000,-0.01721,0.00000,0.00102,-0.00083,-0.00126,-0.04209,-0.12883,0.99046,0.12389,0.00000,0.00000,0.00000,0.00000,0.00000,0.14047,0.00000,0.00000,0.00000,0.00000,A,150119.60
0.15966,57.68786800,11.97898050,57.68786800,11.97898050,15:01:19.737437,0.00668,0.00000,0.00000,-0.01919,0.00000,0.00041,0.00207,-0.00324,-0.04398,-0.12889,0.99198,0.15415,0.00000,0.00000,0.00000,0.00000,0.00000,0.14047,0.00000,0.00000,0.00000,0.00000,A,150119.60
0.16654,57.68786800,11.97898050,57.68786800,11.97898050,15:01:19.744323,0.00316,0.00000,0.00000,-0.02117,0.00000,0.00026,-0.00007,-0.00065,-0.04240,-0.12950,0.98899,0.16307,0.00000,0.00000,0.00000,0.00000,0.00000,0.14047,0.00000,0.00000,0.00000,0.00000,A,150119.60
0.17778,57.68786800,11.97898050,57.68786800,11.97898050,15:01:19.755920,0.00401,0.00000,0.00000,-0.02314,0.00000,-0.00051,-0.00114,0.00088,-0.04246,-0.13060,0.99094,0.17426,0.00000,0.00000,0.00000,0.00000,0.00000,0.14047,0.00000,0.00000,0.00000,0.00000,A,150119.60
0.18781,57.68786800,11.97898050,57.68786800,11.97898050,15:01:19.765594,0.00336,0.00000,0.00000,-0.02505,0.00000,-0.00188,0.00008,0.00164,-0.04203,-0.12822,0.99125,0.18433,0.00000,0.00000,0.00000,0.00000,0.00000,0.14047,0.00000,0.00000,0.00000,0.00000,A,150119.60
0.19800,57.68786800,11.97898050,57.68786800,11.97898050,15:01:19.775784,0.00316,0.00000,0.00000,-0.02692,0.00000,0.00117,-0.00114,0.00011,-0.04575,-0.12840,0.98954,0.19452,0.00000,0.00000,0.00000,0.00000,0.00000,0.14047,0.00000,0.00000,0.00000,0.00000,A,150119.60
0.20925,57.68786800,11.97898050,57.68786800,11.97898050,15:01:19.787042,0.00394,0.00000,0.00000,-0.02876,0.00000,0.00010,-0.00037,0.00149,-0.04093,-0.12828,0.99162,0.20574,0.00000,0.00000,0.00000,0.00000,0.00000,0.14047,0.00000,0.00000,0.00000,0.00000,A,150119.60
0.21892,57.68786800,11.97898050,57.68786800,11.97898050,15:01:19.796701,0.00336,0.00000,0.00000,-0.03056,0.00000,0.00331,0.00176,-0.00187,-0.04233,-0.12962,0.99137,0.21544,0.00000,0.00000,0.00000,0.00000,0.00000,0.14047,0.00000,0.00000,0.00000,0.00000,A,150119.60
0.22912,57.68786800,11.97898050,57.68786800,11.97898050,15:01:19.806906,0.00316,0.00000,0.00000,-0.03234,0.00000,0.00133,0.00329,-0.00187,-0.04301,-0.12822,0.98863,0.22543,0.00000,0.00000,0.00000,0.00000,0.00000,0.14047,0.00000,0.00000,0.00000,0.00000,A,150119.60
0.23947,57.68786800,11.97898050,57.68786800,11.97898050,15:01:19.817248,0.00311,0.00000,0.00000,-0.03413,0.00000,-0.00081,0.00207,0.00179,-0.04270,-0.12944,0.98911,0.23600,0.00000,0.00000,0.00000,0.00000,0.00000,0.14047,0.00000,0.00000,0.00000,0.00000,A,150119.60
0.26659,57.68786800,11.97898050,57.68786800,11.97898033,15:01:19.844387,0.01984,0.00000,0.00000,-0.03592,0.00000,-0.00478,-0.00037,-0.00080,-0.04294,-0.12847,0.99040,0.24644,0.00000,0.00000,0.00000,0.00000,0.00000,0.26253,-0.00991,0.00000,3.14159,3.14159,A,150119.70
0.28273,57.68786800,11.97898049,57.68786800,11.97898033,15:01:19.860519,0.00867,0.00000,0.00000,-0.03754,0.00000,0.00270,-0.00114,-0.00187,-0.04178,-0.12798,0.99094,0.27552,0.00000,0.47124,0.47124,-0.00050,0.00000,0.26253,-0.00991,0.00000,3.14159,3.14159,A,150119.70
0.28768,57.68786800,11.97898049,57.68786800,11.97898033,15:01:19.865466,0.00322,0.00000,0.00000,-0.03919,0.00000,0.00469,-0.00114,-0.00172,-0.04197,-0.12859,0.99241,0.28420,0.00000,0.47124,0.47124,-0.00050,0.00000,0.26253,-0.00991,0.00000,3.14159,3.14159,A,150119.70
0.29876,57.68786800,11.97898049,57.68786800,11.97898033,15:01:19.876549,0.00371,0.00000,0.00000,-0.04085,0.00000,0.00194,-0.00312,-0.00065,-0.04343,-0.12938,0.98972,0.29529,0.00000,0.47124,0.47124,-0.00050,0.00000,0.26253,-0.00991,0.00000,3.14159,3.14159,A,150119.70
0.30826,57.68786800,11.97898049,57.68786800,11.97898033,15:01:19.886045,0.00298,0.00000,0.00000,-0.04247,0.00000,0.00408,0.00054,0.00134,-0.04197,-0.12962,0.98918,0.30479,0.00000,0.47124,0.47124,-0.00050,0.00000,0.26253,-0.00991,0.00000,3.14159,3.14159,A,150119.70
0.31880,57.68786800,11.97898049,57.68786800,11.97898033,15:01:19.896578,0.00313,0.00000,0.00000,-0.04408,0.00000,-0.00005,-0.00221,0.00027,-0.04130,-0.12865,0.99210,0.31532,0.00000,0.47124,0.47124,-0.00050,0.00000,0.26253,-0.00991,0.00000,3.14159,3.14159,A,150119.70
0.32920,57.68786800,11.97898049,57.68786800,11.97898033,15:01:19.906991,0.00313,0.00000,0.00000,-0.04564,0.00000,0.00301,0.00176,0.00011,-0.04398,-0.12865,0.99094,0.32571,0.00000,0.47124,0.47124,-0.00050,0.00000,0.26253,-0.00991,0.00000,3.14159,3.14159,A,150119.70
0.33960,57.68786800,11.97898049,57.68786800,11.97898033,15:01:19.917385,0.00314,0.00000,0.00000,-0.04720,0.00000,-0.00096,-0.00205,0.00302,-0.04136,-0.12761,0.99015,0.33613,0.00000,0.47124,0.47124,-0.00050,0.00000,0.26253,-0.00991,0.00000,3.14159,3.14159,A,150119.70
0.35048,57.68786800,11.97898049,57.68786800,11.97898033,15:01:19.928262,0.00377,0.00000,0.00000,-0.04876,0.00000,-0.00325,-0.00099,-0.00157,-0.04154,-0.12725,0.99009,0.34698,0.00000,0.47124,0.47124,-0.00050,0.00000,0.26253,-0.00991,0.00000,3.14159,3.14159,A,150119.70
0.35992,57.68786800,11.97898049,57.68786800,11.97898033,15:01:19.937708,0.00294,0.00000,0.00000,-0.05030,0.00000,-0.00112,-0.00404,-0.00126,-0.04032,-0.12932,0.99235,0.35646,0.00000,0.47124,0.47124,-0.00050,0.00000,0.26253,-0.00991,0.00000,3.14159,3.14159,A,150119.70
0.39894,57.68786800,11.97898049,57.68786817,11.97898017,15:01:19.976745,0.03156,0.00000,0.00000,-0.05182,0.00000,-0.00112,-0.00068,0.00088,-0.04246,-0.12883,0.98979,0.36779,0.00000,0.47124,0.47124,-0.00050,0.00000,0.39488,-0.01981,0.01853,2.06169,2.06169,A,150119.90
0.41457,57.68786801,11.97898048,57.68786817,11.97898017,15:01:19.992351,0.00722,0.00000,0.00000,-0.05330,0.00000,-0.00096,0.00024,0.00027,-0.04246,-0.12664,0.99204,0.40806,0.00000,0.70981,0.70981,-0.00146,0.00093,0.39488,-0.01981,0.01853,2.06169,2.06169,A,150119.90
0.42118,57.68786801,11.97898048,57.68786817,11.97898017,15:01:19.998986,0.00343,0.00000,0.00000,-0.05473,0.00000,0.00102,0.00024,0.00011,-0.04197,-0.12749,0.98789,0.41720,0.00000,0.70981,0.70981,-0.00146,0.00093,0.39488,-0.01981,0.01853,2.06169,2.06169,A,150119.90
0.43131,57.68786801,11.97898048,57.68786817,11.97898017,15:01:20.009102,0.00316,0.00000,0.00000,-0.05619,0.00000,-0.00295,0.00131,-0.00233,-0.04209,-0.12810,0.98826,0.42785,0.00000,0.70981,0.70981,-0.00146,0.00093,0.39488,-0.01981,0.01853,2.06169,2.06169,A,150119.90
0.44224,57.68786801,11.97898048,57.68786817,11.97898017,15:01:20.020033,0.00341,0.00000,0.00000,-0.05762,0.00000,-0.00081,-0.00328,0.00118,-0.04197,-0.12932,0.99125,0.43877,0.00000,0.70981,0.70981,-0.00146,0.00093,0.39488,-0.01981,0.01853,2.06169,2.06169,A,150119.90
0.45203,57.68786801,11.97898048,57.68786817,11.97898017,15:01:20.029805,0.00297,0.00000,0.00000,-0.05897,0.00000,0.00224,-0.00037,0.00149,-0.04374,-0.12749,0.99021,0.44855,0.00000,0.70981,0.70981,-0.00146,0.00093,0.39488,-0.01981,0.01853,2.06169,2.06169,A,150119.90
0.46259,57.68786801,11.97898048,57.68786817,11.97898017,15:01:20.040379,0.00315,0.00000,0.00000,-0.06034,0.00000,-0.00310,-0.00175,-0.00157,-0.04258,-0.12676,0.98905,0.45913,0.00000,0.70981,0.70981,-0.00146,0.00093,0.39488,-0.01981,0.01853,2.06169,2.06169,A,150119.90
0.47398,57.68786801,11.97898048,57.68786817,11.97898017,15:01:20.051773,0.00414,0.00000,0.00000,-0.06170,0.00000,0.00056,-0.00037,0.00103,-0.04044,-0.12969,0.99162,0.47048,0.00000,0.70981,0.70981,-0.00146,0.00093,0.39488,-0.01981,0.01853,2.06169,2.06169,A,150119.90
0.48416,57.68786801,11.97898048,57.68786817,11.97898017,15:01:20.061960,0.00385,0.00000,0.00000,-0.06302,0.00000,-0.00341,0.00146,0.00271,-0.04081,-0.12651,0.99125,0.48031,0.00000,0.70981,0.70981,-0.00146,0.00093,0.39488,-0.01981,0.01853,2.06169,2.06169,A,150119.90
0.49440,57.68786801,11.97898048,57.68786817,11.97898017,15:01:20.072181,0.00370,0.00000,0.00000,-0.06439,0.00000,-0.00387,-0.00068,0.00027,-0.04185,-0.12993,0.98942,0.49092,0.00000,0.70981,0.70981,-0.00146,0.00093,0.39488,-0.01981,0.01853,2.06169,2.06169,A,150119.90
0.52040,57.68786801,11.97898048,57.68786817,11.97898017,15:01:20.098423,0.01943,0.00000,0.00000,-0.06568,0.00000,0.00056,-0.00083,0.00134,-0.04270,-0.12926,0.99155,0.50047,0.00000,0.70981,0.70981,-0.00146,0.00093,0.51714,-0.01981,0.01853,0.00000,0.00000,A,150120.00
0.53690,57.68786802,11.97898046,57.68786817,11.97898017,15:01:20.114701,0.00750,0.00000,0.00000,-0.06687,0.00000,0.00316,0.00253,0.00210,-0.04093,-0.12950,0.99088,0.53035,0.00000,0.60334,0.60334,-0.00238,0.00181,0.51714,-0.01981,0.01853,0.00000,0.00000,A,150120.00
0.54298,57.68786802,11.97898046,57.68786817,11.97898017,15:01:20.120768,0.00318,0.00000,0.00000,-0.06815,0.00000,-0.00158,-0.00144,0.00027,-0.03916,-0.12956,0.99015,0.53951,0.00000,0.60334,0.60334,-0.00238,0.00181,0.51714,-0.01981,0.01853,0.00000,0.00000,A,150120.00
0.55334,57.68786802,11.97898046,57.68786817,11.97898017,15:01:20.131125,0.00314,0.00000,0.00000,-0.06933,0.00000,0.00469,-0.00144,-0.00034,-0.04081,-0.12816,0.98893,0.54986,0.00000,0.60334,0.60334,-0.00238,0.00181,0.51714,-0.01981,0.01853,0.00000,0.00000,A,150120.00
0.56372,57.68786802,11.97898046,57.68786817,11.97898017,15:01:20.141505,0.00296,0.00000,0.00000,-0.07052,0.00000,0.00346,-0.00083,-0.00324,-0.04392,-0.12932,0.98918,0.56025,0.00000,0.60334,0.60334,-0.00238,0.00181,0.51714,-0.01981,0.01853,0.00000,0.00000,A,150120.00
0.57429,57.68786802,11.97898046,57.68786817,11.97898017,15:01:20.152072,0.00313,0.00000,0.00000,-0.07173,0.00000,-0.00127,-0.00053,0.00149,-0.04166,-0.12871,0.98875,0.57082,0.00000,0.60334,0.60334,-0.00238,0.00181,0.51714,-0.01981,0.01853,0.00000,0.00000,A,150120.00
0.58447,57.68786802,11.97898046,57.68786817,11.97898017,15:01:20.162846,0.00291,0.00000,0.00000,-0.07291,0.00000,0.00163,0.00115,-0.00126,-0.04227,-0.12969,0.98924,0.58102,0.00000,0.60334,0.60334,-0.00238,0.00181,0.51714,-0.01981,0.01853,0.00000,0.00000,A,150120.00
0.59508,57.68786802,11.97898046,57.68786817,11.97898017,15:01:20.172867,0.00313,0.00000,0.00000,-0.07408,0.00000,0.00163,-0.00037,-0.00095,-0.04349,-0.13060,0.99058,0.59162,0.00000,0.60334,0.60334,-0.00238,0.00181,0.51714,-0.01981,0.01853,0.00000,0.00000,A,150120.00
0.60607,57.68786802,11.97898046,57.68786817,11.97898017,15:01:20.183861,0.00372,0.00000,0.00000,-0.07524,0.00000,-0.00035,-0.00236,0.00042,-0.04050,-0.12981,0.99088,0.60259,0.00000,0.60334,0.60334,-0.00238,0.00181,0.51714,-0.01981,0.01853,0.00000,0.00000,A,150120.00
0.61583,57.68786802,11.97898046,57.68786817,11.97898017,15:01:20.193613,0.00295,0.00000,0.00000,-0.07634,0.00000,0.00148,-0.00037,0.00073,-0.04349,-0.12773,0.99064,0.61237,0.00000,0.60334,0.60334,-0.00238,0.00181,0.51714,-0.01981,0.01853,0.00000,0.00000,A,150120.00
0.64314,57.68786802,11.97898046,57.68786817,11.97898000,15:01:20.220931,0.01986,0.00000,0.00000,-0.07744,0.00000,-0.00096,-0.00053,0.00286,-0.04423,-0.12786,0.99186,0.62292,0.00000,0.60334,0.60334,-0.00238,0.00181,0.63894,-0.02972,0.01853,3.14159,3.14159,A,150120.10
0.65761,57.68786802,11.97898044,57.68786817,11.97898000,15:01:20.235762,0.00690,0.00000,0.00000,-0.07865,0.00000,-0.00417,0.00146,-0.00065,-0.04105,-0.12877,0.98997,0.65163,0.00000,0.98407,0.98407,-0.00375,0.00264,0.63894,-0.02972,0.01853,3.14159,3.14159,A,150120.10
0.66425,57.68786802,11.97898044,57.68786817,11.97898000,15:01:20.242030,0.00302,0.00000,0.00000,-0.07972,0.00000,0.00010,0.00192,-0.00141,-0.04185,-0.12847,0.99076,0.66077,0.00000,0.98407,0.98407,-0.00375,0.00264,0.63894,-0.02972,0.01853,3.14159,3.14159,A,150120.10
0.67511,57.68786802,11.97898044,57.68786817,11.97898000,15:01:20.253245,0.00349,0.00000,0.00000,-0.08080,0.00000,-0.00112,0.00054,-0.00095,-0.04203,-0.12962,0.99186,0.67160,0.00000,0.98407,0.98407,-0.00375,0.00264,0.63894,-0.02972,0.01853,3.14159,3.14159,A,150120.10
0.68516,57.68786802,11.97898044,57.68786817,11.97898000,15:01:20.262953,0.00315,0.00000,0.00000,-0.08184,0.00000,0.00056,-0.00160,-0.00187,-0.04264,-0.12853,0.99058,0.68147,0.00000,0.98407,0.98407,-0.00375,0.00264,0.63894,-0.02972,0.01853,3.14159,3.14159,A,150120.10
0.69552,57.68786802,11.97898044,57.68786817,11.97898000,15:01:20.273304,0.00312,0.00000,0.00000,-0.08284,0.00000,0.00224,0.00253,0.00317,-0.04270,-0.12834,0.98887,0.69205,0.00000,0.98407,0.98407,-0.00375,0.00264,0.63894,-0.02972,0.01853,3.14159,3.14159,A,150120.10
0.70611,57.68786802,11.97898044,57.68786817,11.97898000,15:01:20.283898,0.00331,0.00000,0.00000,-0.08383,0.00000,-0.00035,-0.00160,-0.00141,-0.04233,-0.12743,0.99155,0.70262,0.00000,0.98407,0.98407,-0.00375,0.00264,0.63894,-0.02972,0.01853,3.14159,3.14159,A,150120.10
0.71601,57.68786802,11.97898044,57.68786817,11.97898000,15:01:20.293798,0.00297,0.00000,0.00000,-0.08482,0.00000,0.00194,-0.00007,0.00042,-0.04441,-0.12914,0.99021,0.71254,0.00000,0.98407,0.98407,-0.00375,0.00264,0.63894,-0.02972,0.01853,3.14159,3.14159,A,150120.10
0.72681,57.68786802,11.97898044,57.68786817,11.97898000,15:01:20.304595,0.00338,0.00000,0.00000,-0.08580,0.00000,0.00010,0.00192,0.00103,-0.04386,-0.12920,0.99198,0.72309,0.00000,0.98407,0.98407,-0.00375,0.00264,0.63894,-0.02972,0.01853,3.14159,3.14159,A,150120.10
0.73694,57.68786802,11.97898044,57.68786817,11.97898000,15:01:20.314740,0.00312,0.00000,0.00000,-0.08675,0.00000,0.00224,-0.00129,0.00118,-0.04215,-0.12901,0.98911,0.73327,0.00000,0.98407,0.98407,-0.00375,0.00264,0.63894,-0.02972,0.01853,3.14159,3.14159,A,150120.10
0.76488,57.68786802,11.97898044,57.68786817,11.97897983,15:01:20.342673,0.02066,0.00000,0.00000,-0.08778,0.00000,-0.00570,-0.00297,0.00073,-0.04240,-0.12981,0.99204,0.74448,0.00000,0.98407,0.98407,-0.00375,0.00264,0.76026,-0.03962,0.01853,3.14159,3.14159,A,150120.20
0.78192,57.68786803,11.97898041,57.68786817,11.97897983,15:01:20.359695,0.00694,0.00000,0.00000,-0.08869,0.00000,0.00072,-0.00099,0.00363,-0.04276,-0.12822,0.98826,0.77613,0.00000,1.30770,1.30770,-0.00554,0.00344,0.76026,-0.03962,0.01853,3.14159,3.14159,A,150120.20
0.78817,57.68786803,11.97898041,57.68786817,11.97897983,15:01:20.365952,0.00296,0.00000,0.00000,-0.08958,0.00000,0.00255,0.00436,0.00317,-0.04502,-0.12737,0.98905,0.78470,0.00000,1.30770,1.30770,-0.00554,0.00344,0.76026,-0.03962,0.01853,3.14159,3.14159,A,150120.20
0.79907,57.68786803,11.97898041,57.68786817,11.97897983,15:01:20.376869,0.00347,0.00000,0.00000,-0.09045,0.00000,0.00178,-0.00175,-0.00080,-0.04221,-0.12731,0.99064,0.79526,0.00000,1.30770,1.30770,-0.00554,0.00344,0.76026,-0.03962,0.01853,3.14159,3.14159,A,150120.20
0.80914,57.68786803,11.97898041,57.68786817,11.97897983,15:01:20.386924,0.00314,0.00000,0.00000,-0.09137,0.00000,-0.00432,0.00069,0.00195,-0.04294,-0.12731,0.98918,0.80546,0.00000,1.30770,1.30770,-0.00554,0.00344,0.76026,-0.03962,0.01853,3.14159,3.14159,A,150120.20
0.82001,57.68786803,11.97898041,57.68786817,11.97897983,15:01:20.397799,0.00362,0.00000,0.00000,-0.09227,0.00000,0.00148,-0.00205,0.00134,-0.04374,-0.13097,0.99131,0.81628,0.00000,1.30770,1.30770,-0.00554,0.00344,0.76026,-0.03962,0.01853,3.14159,3.14159,A,150120.20
0.83062,57.68786803,11.97898041,57.68786817,11.97897983,15:01:20.408417,0.00372,0.00000,0.00000,-0.09309,0.00000,0.00591,0.00237,0.00164,-0.04319,-0.12932,0.98832,0.82690,0.00000,1.30770,1.30770,-0.00554,0.00344,0.76026,-0.03962,0.01853,3.14159,3.14159,A,150120.20
0.84014,57.68786803,11.97898041,57.68786817,11.97897983,15:01:20.417928,0.00302,0.00000,0.00000,-0.09400,0.00000,-0.00341,0.00421,0.00042,-0.04032,-0.12999,0.99070,0.83667,0.00000,1.30770,1.30770,-0.00554,0.00344,0.76026,-0.03962,0.01853,3.14159,3.14159,A,150120.20
0.85065,57.68786803,11.97898041,57.68786817,11.97897983,15:01:20.428437,0.00313,0.00000,0.00000,-0.09482,0.00000,0.00240,0.00283,0.00286,-0.04063,-0.12901,0.99052,0.84718,0.00000,1.30770,1.30770,-0.00554,0.00344,0.76026,-0.03962,0.01853,3.14159,3.14159,A,150120.20
0.88700,57.68786803,11.97898041,57.68786817,11.97897967,15:01:20.464780,0.02909,0.00000,0.00000,-0.09564,0.00000,0.00148,0.00390,-0.00157,-0.04178,-0.12822,0.98936,0.85736,0.00000,1.30770,1.30770,-0.00554,0.00344,0.88362,-0.04953,0.01853,3.14159,3.14159,A,150120.40
0.90202,57.68786804,11.97898037,57.68786817,11.97897967,15:01:20.479801,0.00552,0.00000,0.00000,-0.09648,0.00000,-0.00066,-0.00007,-0.00157,-0.04276,-0.12804,0.98735,0.89628,0.00000,1.58279,1.58279,-0.00774,0.00419,0.88362,-0.04953,0.01853,3.14159,3.14159,A,150120.40
0.91117,57.68786804,11.97898037,57.68786817,11.97897967,15:01:20.488962,0.00427,0.00000,0.00000,-0.09726,0.00000,0.00148,0.00054,0.00103,-0.04227,-0.12810,0.98918,0.90738,0.00000,1.58279,1.58279,-0.00774,0.00419,0.88362,-0.04953,0.01853,3.14159,3.14159,A,150120.40
0.92010,57.68786804,11.97898037,57.68786817,11.97897967,15:01:20.497884,0.00297,0.00000,0.00000,-0.09805,0.00000,0.00026,0.00008,0.00134,-0.04240,-0.12822,0.99040,0.91663,0.00000,1.58279,1.58279,-0.00774,0.00419,0.88362,-0.04953,0.01853,3.14159,3.14159,A,150120.40
0.93053,57.68786804,11.97898037,57.68786817,11.97897967,15:01:20.508321,0.00318,0.00000,0.00000,-0.09882,0.00000,-0.00096,0.00024,0.00179,-0.04172,-0.12773,0.99137,0.92706,0.00000,1.58279,1.58279,-0.00774,0.00419,0.88362,-0.04953,0.01853,3.14159,3.14159,A,150120.40
0.94216,57.68786804,11.97898037,57.68786817,11.97897967,15:01:20.519962,0.00442,0.00000,0.00000,-0.10000,0.00000,-0.03563,-0.00068,0.00256,-0.04124,-0.12981,0.98960,0.93823,0.00000,1.58279,1.58279,-0.00774,0.00419,0.88362,-0.04953,0.01853,3.14159,3.14159,A,150120.40
0.95130,57.68786804,11.97898037,57.68786817,11.97897967,15:01:20.529081,0.00316,0.00000,0.00000,-0.10073,0.00000,0.00255,-0.00068,-0.00233,-0.04075,-0.12840,0.98997,0.94782,0.00000,1.58279,1.58279,-0.00774,0.00419,0.88362,-0.04953,0.01853,3.14159,3.14159,A,150120.40
0.96312,57.68786804,11.97898037,57.68786817,11.97897967,15:01:20.540914,0.00459,0.00000,0.00000,-0.10149,0.00000,0.00102,0.00192,-0.00279,-0.04185,-0.13048,0.98899,0.95957,0.00000,1.58279,1.58279,-0.00774,0.00419,0.88362,-0.04953,0.01853,3.14159,3.14159,A,150120.40
0.97192,57.68786804,11.97898037,57.68786817,11.97897967,15:01:20.549707,0.00312,0.00000,0.00000,-0.10225,0.00000,-0.00158,0.00131,0.00073,-0.04105,-0.12920,0.98759,0.96844,0.00000,1.58279,1.58279,-0.00774,0.00419,0.88362,-0.04953,0.01853,3.14159,3.14159,A,150120.40
0.98350,57.68786804,11.97898037,57.68786817,11.97897967,15:01:20.561284,0.00433,0.00000,0.00000,-0.10294,0.00000,0.00362,-0.00251,-0.00157,-0.04117,-0.12932,0.99137,0.97999,0.00000,1.58279,1.58279,-0.00774,0.00419,0.88362,-0.04953,0.01853,3.14159,3.14159,A,150120.40
1.03297,57.68786804,11.97898037,57.68786833,11.97897967,15:01:20.610787,0.04357,0.00000,0.00000,-0.10361,0.00000,0.00255,0.00283,-0.00126,-0.04307,-0.12767,0.99015,0.98897,0.00000,1.58279,1.58279,-0.00774,0.00419,1.02681,-0.04953,0.03706,1.57080,1.57080,A,150120.50
1.05402,57.68786805,11.97898033,57.68786833,11.97897967,15:01:20.631807,0.01101,0.00000,0.00000,-0.10427,0.00000,0.00072,-0.00037,-0.00340,-0.04185,-0.12871,0.99003,1.04751,0.00000,1.58099,1.58099,-0.00983,0.00584,1.02681,-0.04953,0.03706,1.57080,1.57080,A,150120.50
1.06391,57.68786805,11.97898033,57.68786833,11.97897967,15:01:20.641702,0.00443,0.00000,0.00000,-0.10495,0.00000,0.00117,-0.00083,-0.00233,-0.04288,-0.12920,0.98991,1.06042,0.00000,1.58099,1.58099,-0.00983,0.00584,1.02681,-0.04953,0.03706,1.57080,1.57080,A,150120.50
1.07303,57.68786805,11.97898033,57.68786833,11.97897967,15:01:20.650821,0.00315,0.00000,0.00000,-0.10565,0.00000,-0.00280,-0.00144,-0.00019,-0.04270,-0.12828,0.99076,1.06934,0.00000,1.58099,1.58099,-0.00983,0.00584,1.02681,-0.04953,0.03706,1.57080,1.57080,A,150120.50
1.08340,57.68786805,11.97898033,57.68786833,11.97897967,15:01:20.661187,0.00313,0.00000,0.00000,-0.10627,0.00000,0.00148,-0.00160,-0.00095,-0.04166,-0.12676,0.99210,1.07993,0.00000,1.58099,1.58099,-0.00983,0.00584,1.02681,-0.04953,0.03706,1.57080,1.57080,A,150120.50
1.09377,57.68786805,11.97898033,57.68786833,11.97897967,15:01:20.671563,0.00311,0.00000,0.00000,-0.10694,0.00000,-0.00249,0.00436,-0.00019,-0.04252,-0.12779,0.99155,1.09029,0.00000,1.58099,1.58099,-0.00983,0.00584,1.02681,-0.04953,0.03706,1.57080,1.57080,A,150120.50
1.10416,57.68786805,11.97898033,57.68786833,11.97897967,15:01:20.681946,0.00301,0.00000,0.00000,-0.10756,0.00000,0.00102,-0.00221,-0.00019,-0.04282,-0.12725,0.98826,1.10068,0.00000,1.58099,1.58099,-0.00983,0.00584,1.02681,-0.04953,0.03706,1.57080,1.57080,A,150120.50
1.11468,57.68786805,11.97898033,57.68786833,11.97897967,15:01:20.692466,0.00314,0.00000,0.00000,-0.10821,0.00000,-0.00249,0.00131,0.00042,-0.04191,-0.12792,0.99210,1.11121,0.00000,1.58099,1.58099,-0.00983,0.00584,1.02681,-0.04953,0.03706,1.57080,1.57080,A,150120.50
1.12508,57.68786805,11.97898033,57.68786833,11.97897967,15:01:20.702868,0.00315,0.00000,0.00000,-0.10884,0.00000,-0.00035,-0.00205,-0.00034,-0.04124,-0.12822,0.98838,1.12139,0.00000,1.58099,1.58099,-0.00983,0.00584,1.02681,-0.04953,0.03706,1.57080,1.57080,A,150120.50
1.15184,57.68786805,11.97898033,57.68786833,11.97897950,15:01:20.729627,0.01951,0.00000,0.00000,-0.10945,0.00000,0.00102,0.00039,-0.00202,-0.04197,-0.12834,0.99149,1.13201,0.00000,1.58099,1.58099,-0.00983,0.00584,1.14845,-0.05944,0.03706,3.14159,3.14159,A,150120.60
1.16608,57.68786807,11.97898029,57.68786833,11.97897950,15:01:20.743860,0.00664,0.00000,0.00000,-0.10997,0.00000,0.00301,-0.00267,-0.00141,-0.04172,-0.12810,0.99113,1.16032,0.00000,1.81508,1.81508,-0.01231,0.00740,1.14845,-0.05944,0.03706,3.14159,3.14159,A,150120.60
1.17295,57.68786807,11.97898029,57.68786833,11.97897950,15:01:20.750747,0.00312,0.00000,0.00000,-0.11061,0.00000,-0.00219,-0.00007,-0.00141,-0.04050,-0.13017,0.98966,1.16928,0.00000,1.81508,1.81508,-0.01231,0.00740,1.14845,-0.05944,0.03706,3.14159,3.14159,A,150120.60
1.18336,57.68786807,11.97898029,57.68786833,11.97897950,15:01:20.761144,0.00314,0.00000,0.00000,-0.11122,0.00000,-0.00203,-0.00267,-0.00126,-0.04050,-0.12834,0.99052,1.17989,0.00000,1.81508,1.81508,-0.01231,0.00740,1.14845,-0.05944,0.03706,3.14159,3.14159,A,150120.60
1.19375,57.68786807,11.97898029,57.68786833,11.97897950,15:01:20.771533,0.00314,0.00000,0.00000,-0.11179,0.00000,0.00072,0.00039,0.00088,-0.04020,-0.12773,0.99021,1.19028,0.00000,1.81508,1.81508,-0.01231,0.00740,1.14845,-0.05944,0.03706,3.14159,3.14159,A,150120.60
1.20561,57.68786807,11.97898029,57.68786833,11.97897950,15:01:20.783399,0.00432,0.00000,0.00000,-0.11234,0.00000,0.00377,-0.00007,0.00195,-0.04301,-0.12981,0.98918,1.20144,0.00000,1.81508,1.81508,-0.01231,0.00740,1.14845,-0.05944,0.03706,3.14159,3.14159,A,150120.60
1.21527,57.68786807,11.97898029,57.68786833,11.97897950,15:01:20.793053,0.00359,0.00000,0.00000,-0.11285,0.00000,0.00545,-0.00236,-0.00111,-0.04301,-0.12834,0.98954,1.21179,0.00000,1.81508,1.81508,-0.01231,0.00740,1.14845,-0.05944,0.03706,3.14159,3.14159,A,150120.60
1.22521,57.68786807,11.97898029,57.68786833,11.97897950,15:01:20.803002,0.00313,0.00000,0.00000,-0.11338,0.00000,0.00133,0.00024,0.00042,-0.04258,-0.12670,0.98765,1.22172,0.00000,1.81508,1.81508,-0.01231,0.00740,1.14845,-0.05944,0.03706,3.14159,3.14159,A,150120.60
1.23560,57.68786807,11.97898029,57.68786833,11.97897950,15:01:20.813384,0.00313,0.00000,0.00000,-0.11389,0.00000,0.00469,0.00192,-0.00095,-0.04496,-0.12950,0.98997,1.23214,0.00000,1.81508,1.81508,-0.01231,0.00740,1.14845,-0.05944,0.03706,3.14159,3.14159,A,150120.60
1.24602,57.68786807,11.97898029,57.68786833,11.97897950,15:01:20.823803,0.00315,0.00000,0.00000,-0.11439,0.00000,0.00438,0.00146,-0.00279,-0.04301,-0.12816,0.98972,1.24255,0.00000,1.81508,1.81508,-0.01231,0.00740,1.14845,-0.05944,0.03706,3.14159,3.14159,A,150120.60
1.27270,57.68786807,11.97898029,57.68786833,11.97897933,15:01:20.850861,0.01946,0.00000,0.00000,-0.11492,0.00000,-0.00158,0.00192,0.00134,-0.04258,-0.12767,0.99198,1.25278,0.00000,1.81508,1.81508,-0.01231,0.00740,1.26912,-0.06934,0.03706,3.14159,3.14159,A,150120.70
1.28500,57.68786808,11.97898024,57.68786833,11.97897933,15:01:20.862786,0.00549,0.00000,0.00000,-0.11539,0.00000,0.00316,0.00375,-0.00111,-0.04172,-0.12987,0.98936,1.27932,0.00000,2.01405,2.01405,-0.01516,0.00888,1.26912,-0.06934,0.03706,3.14159,3.14159,A,150120.70
1.29297,57.68786808,11.97898024,57.68786833,11.97897933,15:01:20.870768,0.00322,0.00000,0.00000,-0.11590,0.00000,0.00163,-0.00022,0.00317,-0.04154,-0.12920,0.99168,1.28928,0.00000,2.01405,2.01405,-0.01516,0.00888,1.26912,-0.06934,0.03706,3.14159,3.14159,A,150120.70
1.30374,57.68786808,11.97898024,57.68786833,11.97897933,15:01:20.881882,0.00359,0.00000,0.00000,-0.11642,0.00000,0.00056,-0.00251,0.00256,-0.04301,-0.12956,0.99064,1.30023,0.00000,2.01405,2.01405,-0.01516,0.00888,1.26912,-0.06934,0.03706,3.14159,3.14159,A,150120.70
1.31424,57.68786808,11.97898024,57.68786833,11.97897933,15:01:20.892029,0.00342,0.00000,0.00000,-0.11691,0.00000,0.00194,0.00283,0.00256,-0.04282,-0.12828,0.98911,1.31076,0.00000,2.01405,2.01405,-0.01516,0.00888,1.26912,-0.06934,0.03706,3.14159,3.14159,A,150120.70
1.32400,57.68786808,11.97898024,57.68786833,11.97897933,15:01:20.901783,0.00295,0.00000,0.00000,-0.11739,0.00000,0.00163,0.00222,-0.00340,-0.04258,-0.12840,0.99174,1.32054,0.00000,2.01405,2.01405,-0.01516,0.00888,1.26912,-0.06934,0.03706,3.14159,3.14159,A,150120.70
1.33460,57.68786808,11.97898024,57.68786833,11.97897933,15:01:20.912383,0.00315,0.00000,0.00000,-0.11782,0.00000,0.00637,-0.00144,0.00103,-0.04435,-0.12938,0.98972,1.33113,0.00000,2.01405,2.01405,-0.01516,0.00888,1.26912,-0.06934,0.03706,3.14159,3.14159,A,150120.70
1.34609,57.68786808,11.97898024,57.68786833,11.97897933,15:01:20.923886,0.00417,0.00000,0.00000,-0.11828,0.00000,0.00163,-0.00037,0.00347,-0.04172,-0.12773,0.98881,1.34228,0.00000,2.01405,2.01405,-0.01516,0.00888,1.26912,-0.06934,0.03706,3.14159,3.14159,A,150120.70
1.35544,57.68786808,11.97898024,57.68786833,11.97897933,15:01:20.933223,0.00313,0.00000,0.00000,-0.11880,0.00000,-0.00264,-0.00190,0.00011,-0.04172,-0.12920,0.98881,1.35197,0.00000,2.01405,2.01405,-0.01516,0.00888,1.26912,-0.06934,0.03706,3.14159,3.14159,A,150120.70
1.36577,57.68786808,11.97898024,57.68786833,11.97897933,15:01:20.943556,0.00307,0.00000,0.00000,-0.11929,0.00000,-0.00264,0.00283,-0.00187,-0.04368,-0.12877,0.99271,1.36229,0.00000,2.01405,2.01405,-0.01516,0.00888,1.26912,-0.06934,0.03706,3.14159,3.14159,A,150120.70
1.39994,57.68786808,11.97898024,57.68786833,11.97897917,15:01:20.977723,0.02696,0.00000,0.00000,-0.11974,0.00000,0.00285,0.00161,-0.00004,-0.04197,-0.12944,0.98893,1.37262,0.00000,2.01405,2.01405,-0.01516,0.00888,1.39762,-0.07925,0.03706,3.14159,3.14159,A,150120.90
1.41093,57.68786809,11.97898019,57.68786833,11.97897917,15:01:20.988706,0.00618,0.00000,0.00000,-0.12002,0.00000,0.00469,0.00314,0.00042,-0.04264,-0.12712,0.99210,1.40526,0.00000,2.18319,2.18319,-0.01837,0.01029,1.39762,-0.07925,0.03706,3.14159,3.14159,A,150120.90
1.41838,57.68786809,11.97898019,57.68786833,11.97897917,15:01:20.996165,0.00317,0.00000,0.00000,-0.12047,0.00000,-0.00066,-0.00373,-0.00050,-0.04313,-0.12786,0.98820,1.41490,0.00000,2.18319,2.18319,-0.01837,0.01029,1.39762,-0.07925,0.03706,3.14159,3.14159,A,150120.90
1.42891,57.68786809,11.97898019,57.68786833,11.97897917,15:01:21.006711,0.00332,0.00000,0.00000,-0.12091,0.00000,0.00163,0.00192,-0.00034,-0.04044,-0.12901,0.98881,1.42504,0.00000,2.18319,2.18319,-0.01837,0.01029,1.39762,-0.07925,0.03706,3.14159,3.14159,A,150120.90
1.43917,57.68786809,11.97898019,57.68786833,11.97897917,15:01:21.016954,0.00318,0.00000,0.00000,-0.12138,0.00000,-0.00035,0.00024,0.00088,-0.04301,-0.13060,0.99076,1.43568,0.00000,2.18319,2.18319,-0.01837,0.01029,1.39762,-0.07925,0.03706,3.14159,3.14159,A,150120.90
1.44952,57.68786809,11.97898019,57.68786833,11.97897917,15:01:21.027308,0.00314,0.00000,0.00000,-0.12180,0.00000,0.00026,-0.00099,0.00057,-0.04069,-0.12749,0.98924,1.44604,0.00000,2.18319,2.18319,-0.01837,0.01029,1.39762,-0.07925,0.03706,3.14159,3.14159,A,150120.90
1.45987,57.68786809,11.97898019,57.68786833,11.97897917,15:01:21.037660,0.00296,0.00000,0.00000,-0.12226,0.00000,-0.00158,-0.00068,-0.00263,-0.04203,-0.12999,0.98948,1.45641,0.00000,2.18319,2.18319,-0.01837,0.01029,1.39762,-0.07925,0.03706,3.14159,3.14159,A,150120.90
1.47044,57.68786809,11.97898019,57.68786833,11.97897917,15:01:21.048230,0.00314,0.00000,0.00000,-0.12268,0.00000,-0.00203,0.00207,-0.00172,-0.04154,-0.12779,0.99332,1.46698,0.00000,2.18319,2.18319,-0.01837,0.01029,1.39762,-0.07925,0.03706,3.14159,3.14159,A,150120.90
1.48100,57.68786809,11.97898019,57.68786833,11.97897917,15:01:21.058787,0.00330,0.00000,0.00000,-0.12308,0.00000,-0.00020,-0.00205,0.00118,-0.04124,-0.12706,0.98747,1.47731,0.00000,2.18319,2.18319,-0.01837,0.01029,1.39762,-0.07925,0.03706,3.14159,3.14159,A,150120.90
1.49122,57.68786809,11.97898019,57.68786833,11.97897917,15:01:21.068999,0.00313,0.00000,0.00000,-0.12345,0.00000,0.00469,-0.00037,-0.00233,-0.04294,-0.12932,0.99040,1.48775,0.00000,2.18319,2.18319,-0.01837,0.01029,1.39762,-0.07925,0.03706,3.14159,3.14159,A,150120.90
1.51770,57.68786809,11.97898019,57.68786833,11.97897917,15:01:21.095481,0.01922,0.00000,0.00000,-0.12378,0.00000,0.00560,0.00146,0.00011,-0.04105,-0.12804,0.99131,1.49862,0.00000,2.18319,2.18319,-0.01837,0.01029,1.51523,-0.07925,0.03706,0.00000,0.00000,A,150121.00
1.52816,57.68786810,11.97898014,57.68786833,11.97897917,15:01:21.105938,0.00573,0.00000,0.00000,-0.12415,0.00000,0.00041,0.00024,0.00027,-0.04124,-0.12749,0.99204,1.52241,0.00000,1.85571,1.85571,-0.02141,0.01163,1.51523,-0.07925,0.03706,0.00000,0.00000,A,150121.00
1.53593,57.68786810,11.97898014,57.68786833,11.97897917,15:01:21.113708,0.00296,0.00000,0.00000,-0.12452,0.00000,0.00072,0.00161,-0.00218,-0.04246,-0.12828,0.99143,1.53246,0.00000,1.85571,1.85571,-0.02141,0.01163,1.51523,-0.07925,0.03706,0.00000,0.00000,A,150121.00
1.54790,57.68786810,11.97898014,57.68786833,11.97897917,15:01:21.125691,0.00453,0.00000,0.00000,-0.12494,0.00000,-0.00432,0.00207,-0.00080,-0.04276,-0.12743,0.99082,1.54440,0.00000,1.85571,1.85571,-0.02141,0.01163,1.51523,-0.07925,0.03706,0.00000,0.00000,A,150121.00
1.55692,57.68786810,11.97898014,57.68786833,11.97897917,15:01:21.134715,0.00315,0.00000,0.00000,-0.12537,0.00000,-0.00142,-0.00144,-0.00126,-0.04185,-0.13066,0.98802,1.55323,0.00000,1.85571,1.85571,-0.02141,0.01163,1.51523,-0.07925,0.03706,0.00000,0.00000,A,150121.00
1.56731,57.68786810,11.97898014,57.68786833,11.97897917,15:01:21.145092,0.00315,0.00000,0.00000,-0.12575,0.00000,-0.00142,-0.00251,-0.00065,-0.04349,-0.12847,0.98863,1.56384,0.00000,1.85571,1.85571,-0.02141,0.01163,1.51523,-0.07925,0.03706,0.00000,0.00000,A,150121.00
1.57769,57.68786810,11.97898014,57.68786833,11.97897917,15:01:21.155474,0.00314,0.00000,0.00000,-0.12609,0.00000,0.00056,0.00069,0.00363,-0.04441,-0.12651,0.98674,1.57420,0.00000,1.85571,1.85571,-0.02141,0.01163,1.51523,-0.07925,0.03706,0.00000,0.00000,A,150121.00
1.58793,57.68786810,11.97898014,57.68786833,11.97897917,15:01:21.165718,0.00296,0.00000,0.00000,-0.12646,0.00000,-0.00158,0.00253,0.00134,-0.04075,-0.12847,0.99216,1.58446,0.00000,1.85571,1.85571,-0.02141,0.01163,1.51523,-0.07925,0.03706,0.00000,0.00000,A,150121.00
1.59908,57.68786810,11.97898014,57.68786833,11.97897917,15:01:21.176860,0.00371,0.00000,0.00000,-0.12679,0.00000,-0.00081,0.00054,-0.00233,-0.04130,-0.12615,0.99033,1.59560,0.00000,1.85571,1.85571,-0.02141,0.01163,1.51523,-0.07925,0.03706,0.00000,0.00000,A,150121.00
1.60892,57.68786810,11.97898014,57.68786833,11.97897917,15:01:21.186707,0.00315,0.00000,0.00000,-0.12714,0.00000,-0.00096,-0.00236,-0.00126,-0.04124,-0.12767,0.98991,1.60523,0.00000,1.85571,1.85571,-0.02141,0.01163,1.51523,-0.07925,0.03706,0.00000,0.00000,A,150121.00
1.63585,57.68786810,11.97898014,57.68786850,11.97897900,15:01:21.213638,0.01969,0.00000,0.00000,-0.12751,0.00000,-0.00127,0.00054,0.00179,-0.04252,-0.12920,0.98893,1.61640,0.00000,1.85571,1.85571,-0.02141,0.01163,1.63246,-0.08916,0.05560,2.06169,2.06169,A,150121.10
1.64986,57.68786812,11.97898008,57.68786850,11.97897900,15:01:21.227653,0.00803,0.00000,0.00000,-0.12781,0.00000,0.00056,0.00131,0.00164,-0.04410,-0.12700,0.99149,1.64378,0.00000,1.88660,1.88660,-0.02480,0.01383,1.63246,-0.08916,0.05560,2.06169,2.06169,A,150121.10
1.65589,57.68786812,11.97898008,57.68786850,11.97897900,15:01:21.233674,0.00340,0.00000,0.00000,-0.12815,0.00000,-0.00127,0.00176,-0.00218,-0.04160,-0.12877,0.99192,1.65241,0.00000,1.88660,1.88660,-0.02480,0.01383,1.63246,-0.08916,0.05560,2.06169,2.06169,A,150121.10
1.66610,57.68786812,11.97898008,57.68786850,11.97897900,15:01:21.243891,0.00322,0.00000,0.00000,-0.12845,0.00000,0.00270,0.00054,-0.00263,-0.04398,-0.12810,0.99040,1.66263,0.00000,1.88660,1.88660,-0.02480,0.01383,1.63246,-0.08916,0.05560,2.06169,2.06169,A,150121.10
1.67641,57.68786812,11.97898008,57.68786850,11.97897900,15:01:21.254404,0.00307,0.00000,0.00000,-0.12876,0.00000,0.00056,-0.00236,-0.00111,-0.04209,-0.12755,0.98887,1.67293,0.00000,1.88660,1.88660,-0.02480,0.01383,1.63246,-0.08916,0.05560,2.06169,2.06169,A,150121.10
1.68688,57.68786812,11.97898008,57.68786850,11.97897900,15:01:21.264659,0.00315,0.00000,0.00000,-0.12906,0.00000,0.00148,0.00115,-0.00095,-0.04148,-0.12853,0.99119,1.68341,0.00000,1.88660,1.88660,-0.02480,0.01383,1.63246,-0.08916,0.05560,2.06169,2.06169,A,150121.10
1.69726,57.68786812,11.97898008,57.68786850,11.97897900,15:01:21.275040,0.00314,0.00000,0.00000,-0.12941,0.00000,-0.00402,-0.00129,0.00195,-0.04154,-0.12840,0.99070,1.69377,0.00000,1.88660,1.88660,-0.02480,0.01383,1.63246,-0.08916,0.05560,2.06169,2.06169,A,150121.10
1.70764,57.68786812,11.97898008,57.68786850,11.97897900,15:01:21.285418,0.00312,0.00000,0.00000,-0.12969,0.00000,0.00423,0.00024,-0.00202,-0.04307,-0.12914,0.98875,1.70417,0.00000,1.88660,1.88660,-0.02480,0.01383,1.63246,-0.08916,0.05560,2.06169,2.06169,A,150121.10
1.71841,57.68786812,11.97898008,57.68786850,11.97897900,15:01:21.296199,0.00322,0.00000,0.00000,-0.12998,0.00000,0.00453,0.00054,0.00057,-0.04392,-0.13042,0.98918,1.71493,0.00000,1.88660,1.88660,-0.02480,0.01383,1.63246,-0.08916,0.05560,2.06169,2.06169,A,150121.10
1.72850,57.68786812,11.97898008,57.68786850,11.97897900,15:01:21.306502,0.00292,0.00000,0.00000,-0.13031,0.00000,-0.00173,0.00192,0.00271,-0.04221,-0.12895,0.98979,1.72504,0.00000,1.88660,1.88660,-0.02480,0.01383,1.63246,-0.08916,0.05560,2.06169,2.06169,A,150121.10
1.75675,57.68786812,11.97898008,57.68786850,11.97897900,15:01:21.334546,0.02078,0.00000,0.00000,-0.13063,0.00000,-0.00096,0.00115,-0.00034,-0.04148,-0.12962,0.99107,1.73564,0.00000,1.88660,1.88660,-0.02480,0.01383,1.75243,-0.08916,0.05560,0.00000,0.00000,A,150121.20
1.77303,57.68786814,11.97898003,57.68786850,11.97897900,15:01:21.350848,0.00797,0.00000,0.00000,-0.13091,0.00000,0.00056,-0.00068,-0.00050,-0.04246,-0.12883,0.98844,1.76672,0.00000,1.60361,1.60361,-0.02801,0.01592,1.75243,-0.08916,0.05560,0.00000,0.00000,A,150121.20
1.77863,57.68786814,11.97898003,57.68786850,11.97897900,15:01:21.356411,0.00316,0.00000,0.00000,-0.13118,0.00000,-0.00081,-0.00068,-0.00019,-0.04301,-0.12651,0.99101,1.77516,0.00000,1.60361,1.60361,-0.02801,0.01592,1.75243,-0.08916,0.05560,0.00000,0.00000,A,150121.20
1.78899,57.68786814,11.97898003,57.68786850,11.97897900,15:01:21.366778,0.00314,0.00000,0.00000,-0.13144,0.00000,-0.00173,0.00283,0.00470,-0.04050,-0.12633,0.99137,1.78531,0.00000,1.60361,1.60361,-0.02801,0.01592,1.75243,-0.08916,0.05560,0.00000,0.00000,A,150121.20
1.79938,57.68786814,11.97898003,57.68786850,11.97897900,15:01:21.377164,0.00313,0.00000,0.00000,-0.13172,0.00000,-0.00203,-0.00053,0.00149,-0.04160,-0.12712,0.99204,1.79591,0.00000,1.60361,1.60361,-0.02801,0.01592,1.75243,-0.08916,0.05560,0.00000,0.00000,A,150121.20
1.80977,57.68786814,11.97898003,57.68786850,11.97897900,15:01:21.387555,0.00313,0.00000,0.00000,-0.13205,0.00000,-0.00249,0.00146,-0.00141,-0.04282,-0.13054,0.98857,1.80629,0.00000,1.60361,1.60361,-0.02801,0.01592,1.75243,-0.08916,0.05560,0.00000,0.00000,A,150121.20
1.82122,57.68786814,11.97898003,57.68786850,11.97897900,15:01:21.399022,0.00412,0.00000,0.00000,-0.13244,0.00000,-0.00753,0.00222,0.00317,-0.04227,-0.13030,0.98783,1.81769,0.00000,1.60361,1.60361,-0.02801,0.01592,1.75243,-0.08916,0.05560,0.00000,0.00000,A,150121.20
1.83089,57.68786814,11.97898003,57.68786850,11.97897900,15:01:21.408674,0.00339,0.00000,0.00000,-0.13268,0.00000,0.00255,0.00405,-0.00034,-0.04081,-0.12847,0.99107,1.82741,0.00000,1.60361,1.60361,-0.02801,0.01592,1.75243,-0.08916,0.05560,0.00000,0.00000,A,150121.20
1.84118,57.68786814,11.97898003,57.68786850,11.97897900,15:01:21.418969,0.00329,0.00000,0.00000,-0.13299,0.00000,-0.00264,-0.00083,-0.00004,-0.04203,-0.13005,0.98814,1.83747,0.00000,1.60361,1.60361,-0.02801,0.01592,1.75243,-0.08916,0.05560,0.00000,0.00000,A,150121.20
1.85142,57.68786814,11.97898003,57.68786850,11.97897900,15:01:21.429198,0.00314,0.00000,0.00000,-0.13328,0.00000,-0.00310,-0.00114,-0.00050,-0.04465,-0.12828,0.98966,1.84795,0.00000,1.60361,1.60361,-0.02801,0.01592,1.75243,-0.08916,0.05560,0.00000,0.00000,A,150121.20
1.88758,57.68786814,11.97898003,57.68786850,11.97897867,15:01:21.465366,0.02890,0.00000,0.00000,-0.13352,0.00000,0.00148,-0.00404,0.00073,-0.04368,-0.12877,0.99180,1.85829,0.00000,1.60361,1.60361,-0.02801,0.01592,1.88435,-0.10897,0.05560,3.14159,3.14159,A,150121.40
1.89794,57.68786816,11.97897996,57.68786850,11.97897867,15:01:21.475723,0.00548,0.00000,0.00000,-0.13359,0.00000,0.00514,0.00131,0.00164,-0.04276,-0.12834,0.98991,1.89218,0.00000,1.83431,1.83431,-0.03206,0.01790,1.88435,-0.10897,0.05560,3.14159,3.14159,A,150121.40
1.90702,57.68786816,11.97897996,57.68786850,11.97897867,15:01:21.484813,0.00353,0.00000,0.00000,-0.13381,0.00000,0.00270,-0.00435,0.00042,-0.04203,-0.12877,0.98899,1.90354,0.00000,1.83431,1.83431,-0.03206,0.01790,1.88435,-0.10897,0.05560,3.14159,3.14159,A,150121.40
1.91701,57.68786816,11.97897996,57.68786850,11.97897867,15:01:21.495121,0.00313,0.00000,0.00000,-0.13408,0.00000,0.00117,0.00192,0.00164,-0.03977,-0.13078,0.99070,1.91333,0.00000,1.83431,1.83431,-0.03206,0.01790,1.88435,-0.10897,0.05560,3.14159,3.14159,A,150121.40
1.92806,57.68786816,11.97897996,57.68786850,11.97897867,15:01:21.505841,0.00379,0.00000,0.00000,-0.13436,0.00000,-0.00249,0.00207,-0.00172,-0.04148,-0.12938,0.98893,1.92458,0.00000,1.83431,1.83431,-0.03206,0.01790,1.88435,-0.10897,0.05560,3.14159,3.14159,A,150121.40
1.93778,57.68786816,11.97897996,57.68786850,11.97897867,15:01:21.515566,0.00311,0.00000,0.00000,-0.13464,0.00000,-0.00020,-0.00037,-0.00019,-0.04075,-0.13091,0.98832,1.93430,0.00000,1.83431,1.83431,-0.03206,0.01790,1.88435,-0.10897,0.05560,3.14159,3.14159,A,150121.40
1.94801,57.68786816,11.97897996,57.68786850,11.97897867,15:01:21.525794,0.00297,0.00000,0.00000,-0.13489,0.00000,-0.00188,0.00131,-0.00019,-0.04154,-0.12865,0.99168,1.94455,0.00000,1.83431,1.83431,-0.03206,0.01790,1.88435,-0.10897,0.05560,3.14159,3.14159,A,150121.40
1.95952,57.68786816,11.97897996,57.68786850,11.97897867,15:01:21.537325,0.00408,0.00000,0.00000,-0.13508,0.00000,0.00285,-0.00083,0.00011,-0.04258,-0.12792,0.98997,1.95570,0.00000,1.83431,1.83431,-0.03206,0.01790,1.88435,-0.10897,0.05560,3.14159,3.14159,A,150121.40
1.96913,57.68786816,11.97897996,57.68786850,11.97897867,15:01:21.546919,0.00329,0.00000,0.00000,-0.13530,0.00000,-0.00096,-0.00022,-0.00340,-0.04301,-0.12743,0.99180,1.96530,0.00000,1.83431,1.83431,-0.03206,0.01790,1.88435,-0.10897,0.05560,3.14159,3.14159,A,150121.40
1.97936,57.68786816,11.97897996,57.68786850,11.97897867,15:01:21.557150,0.00313,0.00000,0.00000,-0.13549,0.00000,0.00133,-0.00037,0.00011,-0.04203,-0.12761,0.98808,1.97590,0.00000,1.83431,1.83431,-0.03206,0.01790,1.88435,-0.10897,0.05560,3.14159,3.14159,A,150121.40
2.00475,57.68786816,11.97897996,57.68786850,11.97897867,15:01:21.582541,0.01811,0.00000,0.00000,-0.13568,0.00000,0.00194,-0.00099,0.00027,-0.04203,-0.12792,0.99216,1.98629,0.00000,1.83431,1.83431,-0.03206,0.01790,2.00213,-0.10897,0.05560,0.00000,0.00000,A,150121.50
2.02079,57.68786818,11.97897990,57.68786850,11.97897867,15:01:21.598619,0.01027,0.00000,0.00000,-0.13590,0.00000,0.00026,-0.00328,-0.00233,-0.04240,-0.12914,0.98820,2.01112,0.00000,2.66980,2.66980,-0.10897,0.05560,2.00213,-0.10897,0.05560,0.00000,0.00000,A,150121.50
2.02971,57.68786818,11.97897990,57.68786850,11.97897867,15:01:21.607496,0.00387,0.00000,0.00000,-0.13616,0.00000,-0.00203,-0.00037,-0.00050,-0.04191,-0.12926,0.99064,2.02618,0.00000,2.66980,2.66980,-0.10897,0.05560,2.00213,-0.10897,0.05560,0.00000,0.00000,A,150121.50
2.03938,57.68786818,11.97897990,57.68786850,11.97897867,15:01:21.617160,0.00314,0.00000,0.00000,-0.13638,0.00000,-0.00096,0.00375,-0.00202,-0.04233,-0.12877,0.98899,2.03591,0.00000,2.66980,2.66980,-0.10897,0.05560,2.00213,-0.10897,0.05560,0.00000,0.00000,A,150121.50
2.05031,57.68786818,11.97897990,57.68786850,11.97897867,15:01:21.628093,0.00342,0.00000,0.00000,-0.13661,0.00000,-0.00020,-0.00022,-0.00095,-0.04178,-0.12993,0.99082,2.04682,0.00000,2.66980,2.66980,-0.10897,0.05560,2.00213,-0.10897,0.05560,0.00000,0.00000,A,150121.50
2.06085,57.68786818,11.97897990,57.68786850,11.97897867,15:01:21.638649,0.00373,0.00000,0.00000,-0.13685,0.00000,0.00026,-0.00312,-0.00111,-0.04148,-0.13103,0.98826,2.05715,0.00000,2.66980,2.66980,-0.10897,0.05560,2.00213,-0.10897,0.05560,0.00000,0.00000,A,150121.50
2.07091,57.68786818,11.97897990,57.68786850,11.97897867,15:01:21.648697,0.00334,0.00000,0.00000,-0.13708,0.00000,-0.00325,-0.00099,0.00409,-0.04246,-0.12828,0.99003,2.06744,0.00000,2.66980,2.66980,-0.10897,0.05560,2.00213,-0.10897,0.05560,0.00000,0.00000,A,150121.50
2.08111,57.68786818,11.97897990,57.68786850,11.97897867,15:01:21.658894,0.00315,0.00000,0.00000,-0.13729,0.00000,-0.00219,-0.00190,0.00241,-0.04209,-0.12804,0.98814,2.07742,0.00000,2.66980,2.66980,-0.10897,0.05560,2.00213,-0.10897,0.05560,0.00000,0.00000,A,150121.50
2.09150,57.68786818,11.97897990,57.68786850,11.97897867,15:01:21.669290,0.00314,0.00000,0.00000,-0.13746,0.00000,0.00285,-0.00114,-0.00202,-0.04240,-0.12901,0.99308,2.08803,0.00000,2.66980,2.66980,-0.10897,0.05560,2.00213,-0.10897,0.05560,0.00000,0.00000,A,150121.50
2.10178,57.68786818,11.97897990,57.68786850,11.97897867,15:01:21.679565,0.00303,0.00000,0.00000,-0.13766,0.00000,-0.00142,-0.00450,0.00195,-0.04435,-0.12883,0.99387,2.09829,0.00000,2.66980,2.66980,-0.10897,0.05560,2.00213,-0.10897,0.05560,0.00000,0.00000,A,150121.50
2.12880,57.68786818,11.97897990,57.68786850,11.97897850,15:01:21.706594,0.01980,0.00000,0.00000,-0.13788,0.00000,0.00072,-0.00022,-0.00019,-0.04087,-0.13078,0.98887,2.10850,0.00000,2.66980,2.66980,-0.10897,0.05560,2.12505,-0.11887,0.05560,3.14159,3.14159,A,150121.60
2.13926,57.68786850,11.97897866,57.68786850,11.97897850,15:01:21.717384,0.00519,0.00000,0.00000,-0.13810,0.00000,-0.00020,0.00207,0.00179,-0.03977,-0.13115,0.98972,2.13384,0.00000,2.74057,2.74057,-0.10946,0.05560,2.12505,-0.11887,0.05560,3.14159,3.14159,A,150121.60
2.14762,57.68786850,11.97897866,57.68786850,11.97897850,15:01:21.725398,0.00315,0.00000,0.00000,-0.13826,0.00000,-0.00051,0.00405,0.00164,-0.04093,-0.12657,0.98881,2.14415,0.00000,2.74057,2.74057,-0.10946,0.05560,2.12505,-0.11887,0.05560,3.14159,3.14159,A,150121.60
2.15802,57.68786850,11.97897866,57.68786850,11.97897850,15:01:21.735803,0.00316,0.00000,0.00000,-0.13839,0.00000,0.00545,0.00146,0.00225,-0.04502,-0.12865,0.98960,2.15454,0.00000,2.74057,2.74057,-0.10946,0.05560,2.12505,-0.11887,0.05560,3.14159,3.14159,A,150121.60
2.16923,57.68786850,11.97897866,57.68786850,11.97897850,15:01:21.747030,0.00380,0.00000,0.00000,-0.13852,0.00000,0.00285,-0.00282,-0.00111,-0.04215,-0.12767,0.99119,2.16572,0.00000,2.74057,2.74057,-0.10946,0.05560,2.12505,-0.11887,0.05560,3.14159,3.14159,A,150121.60
2.17899,57.68786850,11.97897866,57.68786850,11.97897850,15:01:21.756771,0.00317,0.00000,0.00000,-0.13872,0.00000,-0.00219,-0.00022,0.00225,-0.04227,-0.12908,0.98960,2.17552,0.00000,2.74057,2.74057,-0.10946,0.05560,2.12505,-0.11887,0.05560,3.14159,3.14159,A,150121.60
2.18939,57.68786850,11.97897866,57.68786850,11.97897850,15:01:21.767182,0.00318,0.00000,0.00000,-0.13887,0.00000,0.00178,-0.00022,-0.00172,-0.04240,-0.12853,0.99155,2.18590,0.00000,2.74057,2.74057,-0.10946,0.05560,2.12505,-0.11887,0.05560,3.14159,3.14159,A,150121.60
2.20005,57.68786850,11.97897866,57.68786850,11.97897850,15:01:21.777834,0.00301,0.00000,0.00000,-0.13903,0.00000,0.00209,-0.00022,-0.00157,-0.04227,-0.12944,0.99125,2.19657,0.00000,2.74057,2.74057,-0.10946,0.05560,2.12505,-0.11887,0.05560,3.14159,3.14159,A,150121.60
2.21089,57.68786850,11.97897866,57.68786850,11.97897850,15:01:21.788689,0.00346,0.00000,0.00000,-0.13922,0.00000,-0.00066,0.00176,-0.00004,-0.03989,-0.12932,0.99040,2.20710,0.00000,2.74057,2.74057,-0.10946,0.05560,2.12505,-0.11887,0.05560,3.14159,3.14159,A,150121.60
2.22096,57.68786850,11.97897866,57.68786850,11.97897850,15:01:21.798756,0.00313,0.00000,0.00000,-0.13938,0.00000,0.00438,0.00283,0.00439,-0.04441,-0.13164,0.99046,2.21728,0.00000,2.74057,2.74057,-0.10946,0.05560,2.12505,-0.11887,0.05560,3.14159,3.14159,A,150121.60
2.24727,57.68786850,11.97897866,57.68786867,11.97897850,15:01:21.825045,0.01905,0.00000,0.00000,-0.13952,0.00000,-0.00081,0.00039,0.00210,-0.04294,-0.12633,0.98863,2.22792,0.00000,2.74057,2.74057,-0.10946,0.05560,2.24407,-0.11887,0.07413,1.57080,1.57080,A,150121.70
2.25746,57.68786851,11.97897865,57.68786867,11.97897850,15:01:21.835237,0.00550,0.00000,0.00000,-0.13964,0.00000,0.00072,-0.00053,0.00134,-0.04240,-0.12700,0.98960,2.25173,0.00000,2.56511,2.56511,-0.10993,0.05652,2.24407,-0.11887,0.07413,1.57080,1.57080,A,150121.70
2.26614,57.68786851,11.97897865,57.68786867,11.97897850,15:01:21.844366,0.00379,0.00000,0.00000,-0.13975,0.00000,0.00423,0.00299,-0.00218,-0.04288,-0.12834,0.99143,2.26265,0.00000,2.56511,2.56511,-0.10993,0.05652,2.24407,-0.11887,0.07413,1.57080,1.57080,A,150121.70
2.27589,57.68786851,11.97897865,57.68786867,11.97897850,15:01:21.853670,0.00300,0.00000,0.00000,-0.13991,0.00000,0.00163,-0.00099,0.00149,-0.04349,-0.13005,0.99070,2.27241,0.00000,2.56511,2.56511,-0.10993,0.05652,2.24407,-0.11887,0.07413,1.57080,1.57080,A,150121.70
2.28636,57.68786851,11.97897865,57.68786867,11.97897850,15:01:21.864145,0.00322,0.00000,0.00000,-0.14004,0.00000,0.00209,0.00069,0.00164,-0.04313,-0.12816,0.99021,2.28288,0.00000,2.56511,2.56511,-0.10993,0.05652,2.24407,-0.11887,0.07413,1.57080,1.57080,A,150121.70
2.29634,57.68786851,11.97897865,57.68786867,11.97897850,15:01:21.874316,0.00298,0.00000,0.00000,-0.14018,0.00000,-0.00020,0.00573,-0.00172,-0.04392,-0.12840,0.99247,2.29287,0.00000,2.56511,2.56511,-0.10993,0.05652,2.24407,-0.11887,0.07413,1.57080,1.57080,A,150121.70
2.30691,57.68786851,11.97897865,57.68786867,11.97897850,15:01:21.884692,0.00315,0.00000,0.00000,-0.14035,0.00000,0.00056,-0.00343,0.00073,-0.04288,-0.13030,0.98997,2.30343,0.00000,2.56511,2.56511,-0.10993,0.05652,2.24407,-0.11887,0.07413,1.57080,1.57080,A,150121.70
2.31744,57.68786851,11.97897865,57.68786867,11.97897850,15:01:21.895227,0.00329,0.00000,0.00000,-0.14053,0.00000,-0.00280,0.00085,-0.00126,-0.04124,-0.12840,0.98850,2.31393,0.00000,2.56511,2.56511,-0.10993,0.05652,2.24407,-0.11887,0.07413,1.57080,1.57080,A,150121.70
2.32840,57.68786851,11.97897865,57.68786867,11.97897850,15:01:21.906459,0.00368,0.00000,0.00000,-0.14070,0.00000,-0.00096,0.00039,-0.00050,-0.04270,-0.12962,0.99192,2.32456,0.00000,2.56511,2.56511,-0.10993,0.05652,2.24407,-0.11887,0.07413,1.57080,1.57080,A,150121.70
2.33845,57.68786851,11.97897865,57.68786867,11.97897850,15:01:21.916236,0.00337,0.00000,0.00000,-0.14081,0.00000,0.00362,-0.00190,-0.00050,-0.04124,-0.12908,0.98777,2.33498,0.00000,2.56511,2.56511,-0.10993,0.05652,2.24407,-0.11887,0.07413,1.57080,1.57080,A,150121.70
2.36391,57.68786851,11.97897865,57.68786867,11.97897833,15:01:21.941690,0.01860,0.00000,0.00000,-0.14092,0.00000,0.00453,0.00268,0.00011,-0.04081,-0.12926,0.98838,2.34482,0.00000,2.56511,2.56511,-0.10993,0.05652,2.36084,-0.12878,0.07413,3.14159,3.14159,A,150121.80
2.37484,57.68786852,11.97897863,57.68786867,11.97897833,15:01:21.952618,0.00527,0.00000,0.00000,-0.14100,0.00000,0.00301,0.00146,0.00210,-0.04093,-0.12914,0.99058,2.36915,0.00000,2.65158,2.65158,-0.11088,0.05740,2.36084,-0.12878,0.07413,3.14159,3.14159,A,150121.80
2.38316,57.68786852,11.97897863,57.68786867,11.97897833,15:01:21.960945,0.00319,0.00000,0.00000,-0.14112,0.00000,-0.00035,0.00146,-0.00172,-0.04429,-0.12712,0.98875,2.37968,0.00000,2.65158,2.65158,-0.11088,0.05740,2.36084,-0.12878,0.07413,3.14159,3.14159,A,150121.80
2.39350,57.68786852,11.97897863,57.68786867,11.97897833,15:01:21.971290,0.00314,0.00000,0.00000,-0.14126,0.00000,-0.00173,-0.00236,-0.00095,-0.04337,-0.12761,0.99052,2.39002,0.00000,2.65158,2.65158,-0.11088,0.05740,2.36084,-0.12878,0.07413,3.14159,3.14159,A,150121.80
2.40401,57.68786852,11.97897863,57.68786867,11.97897833,15:01:21.981791,0.00299,0.00000,0.00000,-0.14141,0.00000,-0.00173,0.00100,-0.00294,-0.04276,-0.12914,0.99253,2.40053,0.00000,2.65158,2.65158,-0.11088,0.05740,2.36084,-0.12878,0.07413,3.14159,3.14159,A,150121.80
2.41454,57.68786852,11.97897863,57.68786867,11.97897833,15:01:21.992324,0.00313,0.00000,0.00000,-0.14157,0.00000,-0.00158,-0.00312,0.00439,-0.04209,-0.12932,0.98942,2.41107,0.00000,2.65158,2.65158,-0.11088,0.05740,2.36084,-0.12878,0.07413,3.14159,3.14159,A,150121.80
2.42494,57.68786852,11.97897863,57.68786867,11.97897833,15:01:22.002734,0.00314,0.00000,0.00000,-0.14172,0.00000,-0.00203,-0.00144,0.00118,-0.04105,-0.12853,0.99058,2.42126,0.00000,2.65158,2.65158,-0.11088,0.05740,2.36084,-0.12878,0.07413,3.14159,3.14159,A,150121.80
2.43564,57.68786852,11.97897863,57.68786867,11.97897833,15:01:22.013424,0.00321,0.00000,0.00000,-0.14183,0.00000,0.00026,-0.00053,0.00134,-0.04246,-0.12755,0.99052,2.43216,0.00000,2.65158,2.65158,-0.11088,0.05740,2.36084,-0.12878,0.07413,3.14159,3.14159,A,150121.80
2.44599,57.68786852,11.97897863,57.68786867,11.97897833,15:01:22.023773,0.00317,0.00000,0.00000,-0.14196,0.00000,-0.00112,-0.00053,0.00225,-0.04337,-0.12773,0.98875,2.44251,0.00000,2.65158,2.65158,-0.11088,0.05740,2.36084,-0.12878,0.07413,3.14159,3.14159,A,150121.80
2.45691,57.68786852,11.97897863,57.68786867,11.97897833,15:01:22.034711,0.00387,0.00000,0.00000,-0.14204,0.00000,0.00194,0.00161,0.00027,-0.04526,-0.12694,0.98850,2.45316,0.00000,2.65158,2.65158,-0.11088,0.05740,2.36084,-0.12878,0.07413,3.14159,3.14159,A,150121.80
2.49173,57.68786852,11.97897863,57.68786867,11.97897817,15:01:22.069507,0.02799,0.00000,0.00000,-0.14217,0.00000,-0.00081,-0.00373,-0.00065,-0.04227,-0.12895,0.99186,2.46343,0.00000,2.65158,2.65158,-0.11088,0.05740,2.48867,-0.13869,0.07413,3.14159,3.14159,A,150122.00
2.50207,57.68786852,11.97897861,57.68786867,11.97897817,15:01:22.079842,0.00532,0.00000,0.00000,-0.14225,0.00000,0.00148,0.00085,-0.00355,-0.04264,-0.12883,0.98881,2.49630,0.00000,2.72508,2.72508,-0.11227,0.05824,2.48867,-0.13869,0.07413,3.14159,3.14159,A,150122.00
2.51030,57.68786852,11.97897861,57.68786867,11.97897817,15:01:22.088092,0.00317,0.00000,0.00000,-0.14240,0.00000,-0.00417,-0.00267,-0.00095,-0.04032,-0.12786,0.98844,2.50683,0.00000,2.72508,2.72508,-0.11227,0.05824,2.48867,-0.13869,0.07413,3.14159,3.14159,A,150122.00
2.52033,57.68786852,11.97897861,57.68786867,11.97897817,15:01:22.098112,0.00297,0.00000,0.00000,-0.14252,0.00000,0.00056,-0.00037,-0.00157,-0.04166,-0.12908,0.99101,2.51686,0.00000,2.72508,2.72508,-0.11227,0.05824,2.48867,-0.13869,0.07413,3.14159,3.14159,A,150122.00
2.53090,57.68786852,11.97897861,57.68786867,11.97897817,15:01:22.108686,0.00314,0.00000,0.00000,-0.14261,0.00000,-0.00005,0.00390,-0.00126,-0.04130,-0.12670,0.98966,2.52743,0.00000,2.72508,2.72508,-0.11227,0.05824,2.48867,-0.13869,0.07413,3.14159,3.14159,A,150122.00
2.54131,57.68786852,11.97897861,57.68786867,11.97897817,15:01:22.119085,0.00315,0.00000,0.00000,-0.14272,0.00000,0.00072,0.00253,-0.00141,-0.04282,-0.12908,0.98918,2.53781,0.00000,2.72508,2.72508,-0.11227,0.05824,2.48867,-0.13869,0.07413,3.14159,3.14159,A,150122.00
2.55168,57.68786852,11.97897861,57.68786867,11.97897817,15:01:22.129829,0.00296,0.00000,0.00000,-0.14279,0.00000,0.00178,-0.00190,-0.00019,-0.04276,-0.12664,0.99180,2.54821,0.00000,2.72508,2.72508,-0.11227,0.05824,2.48867,-0.13869,0.07413,3.14159,3.14159,A,150122.00
2.56233,57.68786852,11.97897861,57.68786867,11.97897817,15:01:22.140118,0.00336,0.00000,0.00000,-0.14285,0.00000,0.00514,0.00176,0.00042,-0.04197,-0.12895,0.98850,2.55885,0.00000,2.72508,2.72508,-0.11227,0.05824,2.48867,-0.13869,0.07413,3.14159,3.14159,A,150122.00
2.57233,57.68786852,11.97897861,57.68786867,11.97897817,15:01:22.150114,0.00312,0.00000,0.00000,-0.14292,0.00000,0.00178,-0.00236,0.00027,-0.04215,-0.12664,0.98863,2.56886,0.00000,2.72508,2.72508,-0.11227,0.05824,2.48867,-0.13869,0.07413,3.14159,3.14159,A,150122.00
2.58272,57.68786852,11.97897861,57.68786867,11.97897817,15:01:22.160505,0.00313,0.00000,0.00000,-0.14298,0.00000,0.00346,0.00146,-0.00004,-0.04191,-0.12810,0.99155,2.57925,0.00000,2.72508,2.72508,-0.11227,0.05824,2.48867,-0.13869,0.07413,3.14159,3.14159,A,150122.00
2.60797,57.68786852,11.97897861,57.68786867,11.97897800,15:01:22.185751,0.01798,0.00000,0.00000,-0.14309,0.00000,-0.00096,-0.00007,0.00225,-0.04178,-0.12834,0.99033,2.58944,0.00000,2.72508,2.72508,-0.11227,0.05824,2.60490,-0.14859,0.07413,3.14159,3.14159,A,150122.10
2.61820,57.68786853,11.97897858,57.68786867,11.97897800,15:01:22.195976,0.00527,0.00000,0.00000,-0.14317,0.00000,0.00010,-0.00022,0.00347,-0.04380,-0.12657,0.99076,2.61245,0.00000,2.78756,2.78756,-0.11408,0.05904,2.60490,-0.14859,0.07413,3.14159,3.14159,A,150122.10
2.62650,57.68786853,11.97897858,57.68786867,11.97897800,15:01:22.204280,0.00318,0.00000,0.00000,-0.14330,0.00000,0.00087,-0.00068,-0.00187,-0.04203,-0.13091,0.99064,2.62303,0.00000,2.78756,2.78756,-0.11408,0.05904,2.60490,-0.14859,0.07413,3.14159,3.14159,A,150122.10
2.63688,57.68786853,11.97897858,57.68786867,11.97897800,15:01:22.214667,0.00316,0.00000,0.00000,-0.14344,0.00000,-0.00295,0.00024,-0.00034,-0.04233,-0.12895,0.98960,2.63317,0.00000,2.78756,2.78756,-0.11408,0.05904,2.60490,-0.14859,0.07413,3.14159,3.14159,A,150122.10
2.64725,57.68786853,11.97897858,57.68786867,11.97897800,15:01:22.225037,0.00314,0.00000,0.00000,-0.14354,0.00000,-0.00234,-0.00160,-0.00233,-0.04294,-0.12725,0.98960,2.64378,0.00000,2.78756,2.78756,-0.11408,0.05904,2.60490,-0.14859,0.07413,3.14159,3.14159,A,150122.10
2.65821,57.68786853,11.97897858,57.68786867,11.97897800,15:01:22.236002,0.00340,0.00000,0.00000,-0.14365,0.00000,-0.00203,-0.00083,-0.00095,-0.04111,-0.12816,0.99277,2.65473,0.00000,2.78756,2.78756,-0.11408,0.05904,2.60490,-0.14859,0.07413,3.14159,3.14159,A,150122.10
2.66815,57.68786853,11.97897858,57.68786867,11.97897800,15:01:22.245942,0.00312,0.00000,0.00000,-0.14378,0.00000,-0.00173,0.00100,-0.00248,-0.04172,-0.12969,0.99009,2.66466,0.00000,2.78756,2.78756,-0.11408,0.05904,2.60490,-0.14859,0.07413,3.14159,3.14159,A,150122.10
2.67857,57.68786853,11.97897858,57.68786867,11.97897800,15:01:22.256353,0.00313,0.00000,0.00000,-0.14389,0.00000,-0.00173,0.00131,0.00149,-0.04166,-0.12792,0.98936,2.67510,0.00000,2.78756,2.78756,-0.11408,0.05904,2.60490,-0.14859,0.07413,3.14159,3.14159,A,150122.10
2.68898,57.68786853,11.97897858,57.68786867,11.97897800,15:01:22.266771,0.00316,0.00000,0.00000,-0.14398,0.00000,-0.00188,0.00436,0.00118,-0.04605,-0.12712,0.99186,2.68529,0.00000,2.78756,2.78756,-0.11408,0.05904,2.60490,-0.14859,0.07413,3.14159,3.14159,A,150122.10
2.69953,57.68786853,11.97897858,57.68786867,11.97897800,15:01:22.277306,0.00331,0.00000,0.00000,-0.14408,0.00000,0.00041,-0.00099,0.00073,-0.04374,-0.12962,0.99186,2.69605,0.00000,2.78756,2.78756,-0.11408,0.05904,2.60490,-0.14859,0.07413,3.14159,3.14159,A,150122.10
2.72567,57.68786853,11.97897858,57.68786883,11.97897800,15:01:22.303481,0.01906,0.00000,0.00000,-0.14416,0.00000,0.00102,0.00253,-0.00111,-0.04252,-0.12804,0.98783,2.70628,0.00000,2.78756,2.78756,-0.11408,0.05904,2.72158,-0.14859,0.09266,1.57080,1.57080,A,150122.20
2.73859,57.68786855,11.97897855,57.68786883,11.97897800,15:01:22.316374,0.00701,0.00000,0.00000,-0.14424,0.00000,-0.00020,0.00069,0.00134,-0.03989,-0.12737,0.98796,2.73217,0.00000,2.60504,2.60504,-0.11581,0.06072,2.72158,-0.14859,0.09266,1.57080,1.57080,A,150122.20
2.74573,57.68786855,11.97897855,57.68786883,11.97897800,15:01:22.323521,0.00375,0.00000,0.00000,-0.14432,0.00000,0.00194,-0.00373,-0.00080,-0.04038,-0.12987,0.99210,2.74197,0.00000,2.60504,2.60504,-0.11581,0.06072,2.72158,-0.14859,0.09266,1.57080,1.57080,A,150122.20
2.75631,57.68786855,11.97897855,57.68786883,11.97897800,15:01:22.335022,0.00402,0.00000,0.00000,-0.14439,0.00000,0.00362,0.00039,-0.00004,-0.04026,-0.12962,0.98722,2.75282,0.00000,2.60504,2.60504,-0.11581,0.06072,2.72158,-0.14859,0.09266,1.57080,1.57080,A,150122.20
2.76627,57.68786855,11.97897855,57.68786883,11.97897800,15:01:22.344057,0.00334,0.00000,0.00000,-0.14452,0.00000,-0.00524,-0.00022,-0.00034,-0.04221,-0.12816,0.99174,2.76279,0.00000,2.60504,2.60504,-0.11581,0.06072,2.72158,-0.14859,0.09266,1.57080,1.57080,A,150122.20
2.77626,57.68786855,11.97897855,57.68786883,11.97897800,15:01:22.354041,0.00311,0.00000,0.00000,-0.14459,0.00000,0.00056,0.00069,0.00057,-0.04215,-0.12792,0.99107,2.77277,0.00000,2.60504,2.60504,-0.11581,0.06072,2.72158,-0.14859,0.09266,1.57080,1.57080,A,150122.20
2.78704,57.68786855,11.97897855,57.68786883,11.97897800,15:01:22.364825,0.00350,0.00000,0.00000,-0.14471,0.00000,-0.00371,-0.00099,0.00225,-0.04282,-0.12865,0.99119,2.78356,0.00000,2.60504,2.60504,-0.11581,0.06072,2.72158,-0.14859,0.09266,1.57080,1.57080,A,150122.20
2.79709,57.68786855,11.97897855,57.68786883,11.97897800,15:01:22.375208,0.00316,0.00000,0.00000,-0.14477,0.00000,0.00209,-0.00160,-0.00019,-0.04063,-0.12840,0.98918,2.79340,0.00000,2.60504,2.60504,-0.11581,0.06072,2.72158,-0.14859,0.09266,1.57080,1.57080,A,150122.20
2.80747,57.68786855,11.97897855,57.68786883,11.97897800,15:01:22.385254,0.00314,0.00000,0.00000,-0.14484,0.00000,-0.00020,0.00131,-0.00126,-0.04252,-0.12694,0.98893,2.80400,0.00000,2.60504,2.60504,-0.11581,0.06072,2.72158,-0.14859,0.09266,1.57080,1.57080,A,150122.20
2.81777,57.68786855,11.97897855,57.68786883,11.97897800,15:01:22.395551,0.00305,0.00000,0.00000,-0.14493,0.00000,-0.00325,-0.00022,-0.00095,-0.04240,-0.12737,0.99064,2.81430,0.00000,2.60504,2.60504,-0.11581,0.06072,2.72158,-0.14859,0.09266,1.57080,1.57080,A,150122.20
2.84523,57.68786855,11.97897855,57.68786883,11.97897783,15:01:22.423010,0.02023,0.00000,0.00000,-0.14503,0.00000,-0.00158,-0.00236,0.00241,-0.04246,-0.12877,0.98881,2.82449,0.00000,2.60504,2.60504,-0.11581,0.06072,2.84165,-0.15850,0.09266,3.14159,3.14159,A,150122.30
2.85962,57.68786856,11.97897852,57.68786883,11.97897783,15:01:22.437399,0.00744,0.00000,0.00000,-0.14521,0.00000,-0.00295,-0.00068,0.00073,-0.03983,-0.12981,0.99064,2.85414,0.00000,2.68553,2.68553,-0.11794,0.06231,2.84165,-0.15850,0.09266,3.14159,3.14159,A,150122.30
2.86609,57.68786856,11.97897852,57.68786883,11.97897783,15:01:22.444139,0.00351,0.00000,0.00000,-0.14526,0.00000,0.00270,0.00329,0.00210,-0.04014,-0.12847,0.98936,2.86257,0.00000,2.68553,2.68553,-0.11794,0.06231,2.84165,-0.15850,0.09266,3.14159,3.14159,A,150122.30
2.87627,57.68786856,11.97897852,57.68786883,11.97897783,15:01:22.454061,0.00330,0.00000,0.00000,-0.14536,0.00000,-0.00127,-0.00053,0.00057,-0.04233,-0.12950,0.99082,2.87246,0.00000,2.68553,2.68553,-0.11794,0.06231,2.84165,-0.15850,0.09266,3.14159,3.14159,A,150122.30
2.88650,57.68786856,11.97897852,57.68786883,11.97897783,15:01:22.464286,0.00313,0.00000,0.00000,-0.14547,0.00000,-0.00158,0.00008,-0.00172,-0.04313,-0.12969,0.99015,2.88303,0.00000,2.68553,2.68553,-0.11794,0.06231,2.84165,-0.15850,0.09266,3.14159,3.14159,A,150122.30
2.89691,57.68786856,11.97897852,57.68786883,11.97897783,15:01:22.474702,0.00315,0.00000,0.00000,-0.14554,0.00000,-0.00035,0.00192,-0.00065,-0.04008,-0.12840,0.98759,2.89321,0.00000,2.68553,2.68553,-0.11794,0.06231,2.84165,-0.15850,0.09266,3.14159,3.14159,A,150122.30
2.90730,57.68786856,11.97897852,57.68786883,11.97897783,15:01:22.485088,0.00315,0.00000,0.00000,-0.14562,0.00000,-0.00096,0.00299,-0.00355,-0.04172,-0.12877,0.99168,2.90383,0.00000,2.68553,2.68553,-0.11794,0.06231,2.84165,-0.15850,0.09266,3.14159,3.14159,A,150122.30
2.91767,57.68786856,11.97897852,57.68786883,11.97897783,15:01:22.495452,0.00312,0.00000,0.00000,-0.14569,0.00000,0.00026,-0.00144,0.00088,-0.04325,-0.12828,0.98826,2.91419,0.00000,2.68553,2.68553,-0.11794,0.06231,2.84165,-0.15850,0.09266,3.14159,3.14159,A,150122.30
2.92793,57.68786856,11.97897852,57.68786883,11.97897783,15:01:22.505714,0.00296,0.00000,0.00000,-0.14570,0.00000,0.00408,0.00176,0.00195,-0.04246,-0.12792,0.99076,2.92446,0.00000,2.68553,2.68553,-0.11794,0.06231,2.84165,-0.15850,0.09266,3.14159,3.14159,A,150122.30
2.93850,57.68786856,11.97897852,57.68786883,11.97897783,15:01:22.516285,0.00313,0.00000,0.00000,-0.14573,0.00000,0.00178,0.00146,-0.00172,-0.04453,-0.12718,0.99040,2.93503,0.00000,2.68553,2.68553,-0.11794,0.06231,2.84165,-0.15850,0.09266,3.14159,3.14159,A,150122.30
2.96843,57.68786856,11.97897852,57.68786883,11.97897783,15:01:22.546460,0.02283,0.00000,0.00000,-0.14578,0.00000,0.00178,0.00085,-0.00263,-0.04136,-0.12871,0.98966,2.94516,0.00000,2.68553,2.68553,-0.11794,0.06231,2.96235,-0.15850,0.09266,0.00000,0.00000,A,150122.40
2.98369,57.68786857,11.97897848,57.68786883,11.97897783,15:01:22.561469,0.00636,0.00000,0.00000,-0.14566,0.00000,0.00514,0.00207,-0.00172,-0.04227,-0.12718,0.99162,2.97822,0.00000,2.28270,2.28270,-0.11997,0.06383,2.96235,-0.15850,0.09266,0.00000,0.00000,A,150122.40
2.99091,57.68786857,11.97897848,57.68786883,11.97897783,15:01:22.568694,0.00317,0.00000,0.00000,-0.14568,0.00000,0.00117,0.00100,-0.00019,-0.04191,-0.12657,0.99210,2.98744,0.00000,2.28270,2.28270,-0.11997,0.06383,2.96235,-0.15850,0.09266,0.00000,0.00000,A,150122.40
3.00128,57.68786857,11.97897848,57.68786883,11.97897783,15:01:22.579062,0.00314,0.00000,0.00000,-0.14573,0.00000,0.00072,-0.00068,0.00118,-0.04227,-0.12816,0.98972,2.99779,0.00000,2.28270,2.28270,-0.11997,0.06383,2.96235,-0.15850,0.09266,0.00000,0.00000,A,150122.40
3.01167,57.68786857,11.97897848,57.68786883,11.97897783,15:01:22.589456,0.00297,0.00000,0.00000,-0.14576,0.00000,0.00392,0.00161,-0.00263,-0.04124,-0.12877,0.99003,3.00820,0.00000,2.28270,2.28270,-0.11997,0.06383,2.96235,-0.15850,0.09266,0.00000,0.00000,A,150122.40
3.02225,57.68786857,11.97897848,57.68786883,11.97897783,15:01:22.600038,0.00316,0.00000,0.00000,-0.14586,0.00000,-0.00081,-0.00114,-0.00034,-0.04337,-0.12999,0.99198,3.01878,0.00000,2.28270,2.28270,-0.11997,0.06383,2.96235,-0.15850,0.09266,0.00000,0.00000,A,150122.40
3.03285,57.68786857,11.97897848,57.68786883,11.97897783,15:01:22.610645,0.00348,0.00000,0.00000,-0.14595,0.00000,-0.00203,-0.00068,-0.00218,-0.04307,-0.12883,0.98905,3.02916,0.00000,2.28270,2.28270,-0.11997,0.06383,2.96235,-0.15850,0.09266,0.00000,0.00000,A,150122.40
3.04293,57.68786857,11.97897848,57.68786883,11.97897783,15:01:22.620716,0.00317,0.00000,0.00000,-0.14604,0.00000,-0.00081,-0.00114,0.00347,-0.03886,-0.13005,0.99070,3.03945,0.00000,2.28270,2.28270,-0.11997,0.06383,2.96235,-0.15850,0.09266,0.00000,0.00000,A,150122.40
3.05381,57.68786857,11.97897848,57.68786883,11.97897783,15:01:22.631597,0.00365,0.00000,0.00000,-0.14607,0.00000,0.00133,-0.00251,-0.00187,-0.04191,-0.12743,0.98979,3.05030,0.00000,2.28270,2.28270,-0.11997,0.06383,2.96235,-0.15850,0.09266,0.00000,0.00000,A,150122.40
3.09316,57.68786857,11.97897848,57.68786883,11.97897750,15:01:22.670947,0.03242,0.00000,0.00000,-0.14608,0.00000,0.00423,-0.00053,-0.00050,-0.03983,-0.12798,0.99064,3.06021,0.00000,2.28270,2.28270,-0.11997,0.06383,3.08733,-0.17831,0.09266,3.14159,3.14159,A,150122.60
3.10801,57.68786859,11.97897843,57.68786883,11.97897750,15:01:22.685789,0.00730,0.00000,0.00000,-0.14602,0.00000,0.00316,-0.00343,-0.00095,-0.04069,-0.12926,0.99326,3.10192,0.00000,2.41153,2.41153,-0.12289,0.06527,3.08733,-0.17831,0.09266,3.14159,3.14159,A,150122.60
3.11428,57.68786859,11.97897843,57.68786883,11.97897750,15:01:22.692064,0.00318,0.00000,0.00000,-0.14605,0.00000,0.00270,0.00054,0.00027,-0.04307,-0.12804,0.98924,3.11080,0.00000,2.41153,2.41153,-0.12289,0.06527,3.08733,-0.17831,0.09266,3.14159,3.14159,A,150122.60
3.12430,57.68786859,11.97897843,57.68786883,11.97897750,15:01:22.702084,0.00298,0.00000,0.00000,-0.14614,0.00000,-0.00234,0.00008,-0.00050,-0.04185,-0.12895,0.98789,3.12082,0.00000,2.41153,2.41153,-0.12289,0.06527,3.08733,-0.17831,0.09266,3.14159,3.14159,A,150122.60
3.13510,57.68786859,11.97897843,57.68786883,11.97897750,15:01:22.712885,0.00338,0.00000,0.00000,-0.14621,0.00000,-0.00020,-0.00236,0.00164,-0.04124,-0.12816,0.98710,3.13160,0.00000,2.41153,2.41153,-0.12289,0.06527,3.08733,-0.17831,0.09266,3.14159,3.14159,A,150122.60
3.14564,57.68786859,11.97897843,57.68786883,11.97897750,15:01:22.723436,0.00353,0.00000,0.00000,-0.14629,0.00000,-0.00158,-0.00037,-0.00065,-0.04380,-0.12956,0.99192,3.14177,0.00000,2.41153,2.41153,-0.12289,0.06527,3.08733,-0.17831,0.09266,3.14159,3.14159,A,150122.60
3.15611,57.68786859,11.97897843,57.68786883,11.97897750,15:01:22.733891,0.00371,0.00000,0.00000,-0.14629,0.00000,0.00408,-0.00236,0.00027,-0.04093,-0.12725,0.99149,3.15260,0.00000,2.41153,2.41153,-0.12289,0.06527,3.08733,-0.17831,0.09266,3.14159,3.14159,A,150122.60
3.16595,57.68786859,11.97897843,57.68786883,11.97897750,15:01:22.743730,0.00316,0.00000,0.00000,-0.14630,0.00000,0.00331,0.00069,-0.00141,-0.04288,-0.12804,0.99027,3.16246,0.00000,2.41153,2.41153,-0.12289,0.06527,3.08733,-0.17831,0.09266,3.14159,3.14159,A,150122.60
3.17687,57.68786859,11.97897843,57.68786883,11.97897750,15:01:22.754665,0.00359,0.00000,0.00000,-0.14642,0.00000,-0.00509,0.00131,-0.00065,-0.04270,-0.12895,0.98942,3.17318,0.00000,2.41153,2.41153,-0.12289,0.06527,3.08733,-0.17831,0.09266,3.14159,3.14159,A,150122.60
3.18740,57.68786859,11.97897843,57.68786883,11.97897750,15:01:22.765188,0.00373,0.00000,0.00000,-0.14645,0.00000,0.00285,0.00375,-0.00050,-0.04349,-0.12895,0.99204,3.18392,0.00000,2.41153,2.41153,-0.12289,0.06527,3.08733,-0.17831,0.09266,3.14159,3.14159,A,150122.60
3.21546,57.68786859,11.97897843,57.68786883,11.97897750,15:01:22.793244,0.02140,0.00000,0.00000,-0.14643,0.00000,0.00606,0.00024,0.00073,-0.04343,-0.12743,0.99021,3.19370,0.00000,2.41153,2.41153,-0.12289,0.06527,3.20964,-0.17831,0.09266,0.00000,0.00000,A,150122.70
3.23175,57.68786860,11.97897839,57.68786883,11.97897750,15:01:22.809532,0.00611,0.00000,0.00000,-0.14658,0.00000,-0.00310,-0.00404,-0.00065,-0.04154,-0.12822,0.99131,3.22632,0.00000,2.04980,2.04980,-0.12566,0.06664,3.20964,-0.17831,0.09266,0.00000,0.00000,A,150122.70
3.23922,57.68786860,11.97897839,57.68786883,11.97897750,15:01:22.817008,0.00318,0.00000,0.00000,-0.14661,0.00000,0.00270,-0.00465,0.00210,-0.04270,-0.12883,0.99088,3.23575,0.00000,2.04980,2.04980,-0.12566,0.06664,3.20964,-0.17831,0.09266,0.00000,0.00000,A,150122.70
3.25050,57.68786860,11.97897839,57.68786883,11.97897750,15:01:22.828291,0.00406,0.00000,0.00000,-0.14666,0.00000,-0.00219,0.00131,0.00088,-0.04282,-0.12664,0.99174,3.24667,0.00000,2.04980,2.04980,-0.12566,0.06664,3.20964,-0.17831,0.09266,0.00000,0.00000,A,150122.70
3.25993,57.68786860,11.97897839,57.68786883,11.97897750,15:01:22.837717,0.00296,0.00000,0.00000,-0.14675,0.00000,-0.00219,0.00024,0.00164,-0.04233,-0.13005,0.99235,3.25647,0.00000,2.04980,2.04980,-0.12566,0.06664,3.20964,-0.17831,0.09266,0.00000,0.00000,A,150122.70
3.27103,57.68786860,11.97897839,57.68786883,11.97897750,15:01:22.848821,0.00359,0.00000,0.00000,-0.14679,0.00000,0.00163,0.00192,0.00118,-0.04368,-0.12883,0.98948,3.26754,0.00000,2.04980,2.04980,-0.12566,0.06664,3.20964,-0.17831,0.09266,0.00000,0.00000,A,150122.70
3.28099,57.68786860,11.97897839,57.68786883,11.97897750,15:01:22.858773,0.00315,0.00000,0.00000,-0.14684,0.00000,-0.00051,0.00192,-0.00034,-0.04276,-0.12853,0.98850,3.27730,0.00000,2.04980,2.04980,-0.12566,0.06664,3.20964,-0.17831,0.09266,0.00000,0.00000,A,150122.70
3.29138,57.68786860,11.97897839,57.68786883,11.97897750,15:01:22.869158,0.00314,0.00000,0.00000,-0.14690,0.00000,0.00041,0.00069,0.00073,-0.04063,-0.12926,0.99119,3.28790,0.00000,2.04980,2.04980,-0.12566,0.06664,3.20964,-0.17831,0.09266,0.00000,0.00000,A,150122.70
3.30177,57.68786860,11.97897839,57.68786883,11.97897750,15:01:22.879562,0.00314,0.00000,0.00000,-0.14696,0.00000,0.00072,-0.00053,-0.00324,-0.04197,-0.13011,0.99284,3.29829,0.00000,2.04980,2.04980,-0.12566,0.06664,3.20964,-0.17831,0.09266,0.00000,0.00000,A,150122.70
3.33175,57.68786860,11.97897839,57.68786883,11.97897733,15:01:22.909534,0.02266,0.00000,0.00000,-0.14700,0.00000,-0.00112,-0.00022,0.00118,-0.04105,-0.12786,0.99180,3.30860,0.00000,2.04980,2.04980,-0.12566,0.06664,3.32590,-0.18822,0.09266,3.14159,3.14159,A,150122.80
3.34762,57.68786861,11.97897833,57.68786883,11.97897733,15:01:22.926069,0.00582,0.00000,0.00000,-0.14709,0.00000,-0.00127,0.00131,-0.00095,-0.04050,-0.12834,0.99027,3.34144,0.00000,2.21357,2.21357,-0.12879,0.06794,3.32590,-0.18822,0.09266,3.14159,3.14159,A,150122.80
3.35595,57.68786861,11.97897833,57.68786883,11.97897733,15:01:22.933734,0.00349,0.00000,0.00000,-0.14714,0.00000,0.00072,0.00100,0.00256,-0.04117,-0.12914,0.99003,3.35246,0.00000,2.21357,2.21357,-0.12879,0.06794,3.32590,-0.18822,0.09266,3.14159,3.14159,A,150122.80
3.36600,57.68786861,11.97897833,57.68786883,11.97897733,15:01:22.943782,0.00315,0.00000,0.00000,-0.14719,0.00000,-0.00020,-0.00572,-0.00019,-0.04252,-0.12926,0.99271,3.36252,0.00000,2.21357,2.21357,-0.12879,0.06794,3.32590,-0.18822,0.09266,3.14159,3.14159,A,150122.80
3.37627,57.68786861,11.97897833,57.68786883,11.97897733,15:01:22.954055,0.00319,0.00000,0.00000,-0.14719,0.00000,0.00255,-0.00175,-0.00172,-0.04233,-0.12706,0.98911,3.37279,0.00000,2.21357,2.21357,-0.12879,0.06794,3.32590,-0.18822,0.09266,3.14159,3.14159,A,150122.80
3.38661,57.68786861,11.97897833,57.68786883,11.97897733,15:01:22.964394,0.00314,0.00000,0.00000,-0.14724,0.00000,-0.00356,-0.00053,0.00103,-0.04252,-0.12645,0.99046,3.38314,0.00000,2.21357,2.21357,-0.12879,0.06794,3.32590,-0.18822,0.09266,3.14159,3.14159,A,150122.80
3.39717,57.68786861,11.97897833,57.68786883,11.97897733,15:01:22.974954,0.00345,0.00000,0.00000,-0.14727,0.00000,0.00087,-0.00099,-0.00050,-0.04038,-0.12883,0.99113,3.39346,0.00000,2.21357,2.21357,-0.12879,0.06794,3.32590,-0.18822,0.09266,3.14159,3.14159,A,150122.80
3.40728,57.68786861,11.97897833,57.68786883,11.97897733,15:01:22.985066,0.00317,0.00000,0.00000,-0.14726,0.00000,0.00621,0.00192,0.00118,-0.04075,-0.12914,0.99155,3.40381,0.00000,2.21357,2.21357,-0.12879,0.06794,3.32590,-0.18822,0.09266,3.14159,3.14159,A,150122.80
3.41765,57.68786861,11.97897833,57.68786883,11.97897733,15:01:22.995435,0.00314,0.00000,0.00000,-0.14730,0.00000,-0.00173,0.00054,-0.00065,-0.04044,-0.12694,0.98954,3.41417,0.00000,2.21357,2.21357,-0.12879,0.06794,3.32590,-0.18822,0.09266,3.14159,3.14159,A,150122.80
3.44668,57.68786861,11.97897833,57.68786900,11.97897733,15:01:23.024460,0.02171,0.00000,0.00000,-0.14734,0.00000,-0.00112,0.00085,-0.00004,-0.04483,-0.12804,0.99198,3.42446,0.00000,2.21357,2.21357,-0.12879,0.06794,3.44084,-0.18822,0.11119,1.57080,1.57080,A,150122.90
3.46123,57.68786863,11.97897828,57.68786900,11.97897733,15:01:23.039041,0.00640,0.00000,0.00000,-0.14732,0.00000,0.00285,-0.00205,0.00042,-0.04160,-0.13017,0.99009,3.45527,0.00000,2.11715,2.11715,-0.13176,0.07011,3.44084,-0.18822,0.11119,1.57080,1.57080,A,150122.90
3.46886,57.68786863,11.97897828,57.68786900,11.97897733,15:01:23.046651,0.00331,0.00000,0.00000,-0.14738,0.00000,-0.00158,0.00222,-0.00126,-0.04197,-0.12847,0.98887,3.46515,0.00000,2.11715,2.11715,-0.13176,0.07011,3.44084,-0.18822,0.11119,1.57080,1.57080,A,150122.90
3.47963,57.68786863,11.97897828,57.68786900,11.97897733,15:01:23.057680,0.00369,0.00000,0.00000,-0.14739,0.00000,0.00392,-0.00007,0.00271,-0.04038,-0.12920,0.98887,3.47599,0.00000,2.11715,2.11715,-0.13176,0.07011,3.44084,-0.18822,0.11119,1.57080,1.57080,A,150122.90
3.48948,57.68786863,11.97897828,57.68786900,11.97897733,15:01:23.067262,0.00314,0.00000,0.00000,-0.14743,0.00000,-0.00127,0.00146,0.00225,-0.04258,-0.12773,0.99003,3.48600,0.00000,2.11715,2.11715,-0.13176,0.07011,3.44084,-0.18822,0.11119,1.57080,1.57080,A,150122.90
3.49984,57.68786863,11.97897828,57.68786900,11.97897733,15:01:23.077620,0.00296,0.00000,0.00000,-0.14747,0.00000,-0.00158,0.00253,0.00073,-0.04026,-0.12706,0.98789,3.49636,0.00000,2.11715,2.11715,-0.13176,0.07011,3.44084,-0.18822,0.11119,1.57080,1.57080,A,150122.90
3.51041,57.68786863,11.97897828,57.68786900,11.97897733,15:01:23.088194,0.00314,0.00000,0.00000,-0.14747,0.00000,0.00408,-0.00129,-0.00050,-0.04404,-0.12847,0.99113,3.50694,0.00000,2.11715,2.11715,-0.13176,0.07011,3.44084,-0.18822,0.11119,1.57080,1.57080,A,150122.90
3.52079,57.68786863,11.97897828,57.68786900,11.97897733,15:01:23.098586,0.00313,0.00000,0.00000,-0.14752,0.00000,-0.00020,-0.00465,-0.00233,-0.04111,-0.12920,0.98997,3.51712,0.00000,2.11715,2.11715,-0.13176,0.07011,3.44084,-0.18822,0.11119,1.57080,1.57080,A,150122.90
3.53121,57.68786863,11.97897828,57.68786900,11.97897733,15:01:23.108997,0.00315,0.00000,0.00000,-0.14749,0.00000,0.00438,-0.00007,0.00088,-0.04416,-0.12706,0.98972,3.52774,0.00000,2.11715,2.11715,-0.13176,0.07011,3.44084,-0.18822,0.11119,1.57080,1.57080,A,150122.90
3.55812,57.68786863,11.97897828,57.68786900,11.97897717,15:01:23.135899,0.01967,0.00000,0.00000,-0.14748,0.00000,0.00178,-0.00037,-0.00202,-0.04294,-0.12627,0.99003,3.53811,0.00000,2.11715,2.11715,-0.13176,0.07011,3.55415,-0.19812,0.11119,3.14159,3.14159,A,150123.00
3.56979,57.68786865,11.97897823,57.68786900,11.97897717,15:01:23.147571,0.00668,0.00000,0.00000,-0.14752,0.00000,-0.00081,-0.00129,0.00042,-0.04020,-0.12755,0.99131,3.56291,0.00000,2.27082,2.27082,-0.13508,0.07216,3.55415,-0.19812,0.11119,3.14159,3.14159,A,150123.00
3.57742,57.68786865,11.97897823,57.68786900,11.97897717,15:01:23.155205,0.00394,0.00000,0.00000,-0.14753,0.00000,0.00285,0.00268,-0.00111,-0.04288,-0.12889,0.99082,3.57391,0.00000,2.27082,2.27082,-0.13508,0.07216,3.55415,-0.19812,0.11119,3.14159,3.14159,A,150123.00
3.58706,57.68786865,11.97897823,57.68786900,11.97897717,15:01:23.164848,0.00319,0.00000,0.00000,-0.14756,0.00000,0.00224,-0.00129,0.00011,-0.04105,-0.12926,0.98991,3.58359,0.00000,2.27082,2.27082,-0.13508,0.07216,3.55415,-0.19812,0.11119,3.14159,3.14159,A,150123.00
3.59798,57.68786865,11.97897823,57.68786900,11.97897717,15:01:23.175760,0.00371,0.00000,0.00000,-0.14757,0.00000,0.00209,0.00161,0.00164,-0.04313,-0.12773,0.98924,3.59448,0.00000,2.27082,2.27082,-0.13508,0.07216,3.55415,-0.19812,0.11119,3.14159,3.14159,A,150123.00
3.60778,57.68786865,11.97897823,57.68786900,11.97897717,15:01:23.185568,0.00297,0.00000,0.00000,-0.14759,0.00000,0.00163,0.00085,0.00073,-0.04392,-0.12840,0.99180,3.60430,0.00000,2.27082,2.27082,-0.13508,0.07216,3.55415,-0.19812,0.11119,3.14159,3.14159,A,150123.00
3.61835,57.68786865,11.97897823,57.68786900,11.97897717,15:01:23.196130,0.00314,0.00000,0.00000,-0.14762,0.00000,-0.00127,-0.00129,-0.00050,-0.04233,-0.12767,0.99094,3.61488,0.00000,2.27082,2.27082,-0.13508,0.07216,3.55415,-0.19812,0.11119,3.14159,3.14159,A,150123.00
3.62988,57.68786865,11.97897823,57.68786900,11.97897717,15:01:23.207673,0.00429,0.00000,0.00000,-0.14769,0.00000,-0.00158,-0.00053,0.00057,-0.04221,-0.12895,0.98838,3.62637,0.00000,2.27082,2.27082,-0.13508,0.07216,3.55415,-0.19812,0.11119,3.14159,3.14159,A,150123.00
3.63925,57.68786865,11.97897823,57.68786900,11.97897717,15:01:23.217037,0.00320,0.00000,0.00000,-0.14771,0.00000,0.00087,-0.00099,-0.00065,-0.04319,-0.12828,0.99027,3.63577,0.00000,2.27082,2.27082,-0.13508,0.07216,3.55415,-0.19812,0.11119,3.14159,3.14159,A,150123.00
3.64958,57.68786865,11.97897823,57.68786900,11.97897717,15:01:23.227363,0.00313,0.00000,0.00000,-0.14775,0.00000,0.00178,0.00100,-0.00233,-0.04221,-0.12969,0.99046,3.64610,0.00000,2.27082,2.27082,-0.13508,0.07216,3.55415,-0.19812,0.11119,3.14159,3.14159,A,150123.00
3.68754,57.68786865,11.97897823,57.68786900,11.97897700,15:01:23.265322,0.03057,0.00000,0.00000,-0.14775,0.00000,0.00423,-0.00129,-0.00050,-0.04258,-0.12883,0.98826,3.65702,0.00000,2.27082,2.27082,-0.13508,0.07216,3.68361,-0.20803,0.11119,3.14159,3.14159,A,150123.20
3.70374,57.68786867,11.97897817,57.68786900,11.97897700,15:01:23.281521,0.00812,0.00000,0.00000,-0.14758,0.00000,0.00469,0.00100,-0.00050,-0.04240,-0.12773,0.99119,3.69830,0.00000,2.40144,2.40144,-0.13872,0.07411,3.68361,-0.20803,0.11119,3.14159,3.14159,A,150123.20
3.70918,57.68786867,11.97897817,57.68786900,11.97897700,15:01:23.286957,0.00316,0.00000,0.00000,-0.14758,0.00000,0.00484,-0.00099,0.00073,-0.04215,-0.12859,0.98881,3.70549,0.00000,2.40144,2.40144,-0.13872,0.07411,3.68361,-0.20803,0.11119,3.14159,3.14159,A,150123.20
3.71946,57.68786867,11.97897817,57.68786900,11.97897700,15:01:23.297246,0.00319,0.00000,0.00000,-0.14762,0.00000,0.00117,-0.00007,0.00195,-0.04160,-0.12962,0.99216,3.71598,0.00000,2.40144,2.40144,-0.13872,0.07411,3.68361,-0.20803,0.11119,3.14159,3.14159,A,150123.20
3.72978,57.68786867,11.97897817,57.68786900,11.97897700,15:01:23.307571,0.00312,0.00000,0.00000,-0.14768,0.00000,-0.00249,-0.00175,-0.00019,-0.04477,-0.12798,0.98954,3.72630,0.00000,2.40144,2.40144,-0.13872,0.07411,3.68361,-0.20803,0.11119,3.14159,3.14159,A,150123.20
3.73990,57.68786867,11.97897817,57.68786900,11.97897700,15:01:23.317675,0.00303,0.00000,0.00000,-0.14769,0.00000,0.00133,0.00024,-0.00034,-0.03953,-0.12779,0.98997,3.73642,0.00000,2.40144,2.40144,-0.13872,0.07411,3.68361,-0.20803,0.11119,3.14159,3.14159,A,150123.20
3.75056,57.68786867,11.97897817,57.68786900,11.97897700,15:01:23.328344,0.00330,0.00000,0.00000,-0.14772,0.00000,-0.00005,-0.00114,0.00057,-0.04136,-0.12840,0.99308,3.74709,0.00000,2.40144,2.40144,-0.13872,0.07411,3.68361,-0.20803,0.11119,3.14159,3.14159,A,150123.20
3.76122,57.68786867,11.97897817,57.68786900,11.97897700,15:01:23.339011,0.00356,0.00000,0.00000,-0.14777,0.00000,-0.00066,0.00069,-0.00126,-0.04349,-0.12908,0.98899,3.75711,0.00000,2.40144,2.40144,-0.13872,0.07411,3.68361,-0.20803,0.11119,3.14159,3.14159,A,150123.20
3.77186,57.68786867,11.97897817,57.68786900,11.97897700,15:01:23.349643,0.00381,0.00000,0.00000,-0.14780,0.00000,0.00010,-0.00053,-0.00370,-0.03959,-0.12816,0.99253,3.76838,0.00000,2.40144,2.40144,-0.13872,0.07411,3.68361,-0.20803,0.11119,3.14159,3.14159,A,150123.20
3.78182,57.68786867,11.97897817,57.68786900,11.97897700,15:01:23.359603,0.00338,0.00000,0.00000,-0.14780,0.00000,-0.00020,-0.00297,-0.00095,-0.04313,-0.12627,0.99113,3.77832,0.00000,2.40144,2.40144,-0.13872,0.07411,3.68361,-0.20803,0.11119,3.14159,3.14159,A,150123.20
3.80968,57.68786867,11.97897817,57.68786900,11.97897683,15:01:23.387457,0.02044,0.00000,0.00000,-0.14785,0.00000,-0.00173,0.00008,0.00042,-0.04264,-0.12840,0.98850,3.78899,0.00000,2.40144,2.40144,-0.13872,0.07411,3.80564,-0.21794,0.11119,3.14159,3.14159,A,150123.30
3.82319,57.68786868,11.97897810,57.68786900,11.97897683,15:01:23.400984,0.00764,0.00000,0.00000,-0.14790,0.00000,-0.00005,0.00008,-0.00050,-0.04282,-0.12908,0.98777,3.81678,0.00000,2.51246,2.51246,-0.14269,0.07597,3.80564,-0.21794,0.11119,3.14159,3.14159,A,150123.30
3.82912,57.68786868,11.97897810,57.68786900,11.97897683,15:01:23.406899,0.00317,0.00000,0.00000,-0.14795,0.00000,-0.00005,-0.00053,0.00027,-0.04477,-0.12920,0.98997,3.82542,0.00000,2.51246,2.51246,-0.14269,0.07597,3.80564,-0.21794,0.11119,3.14159,3.14159,A,150123.30
3.83979,57.68786868,11.97897810,57.68786900,11.97897683,15:01:23.417577,0.00311,0.00000,0.00000,-0.14799,0.00000,-0.00096,0.00237,0.00118,-0.04178,-0.12865,0.99198,3.83631,0.00000,2.51246,2.51246,-0.14269,0.07597,3.80564,-0.21794,0.11119,3.14159,3.14159,A,150123.30
3.85023,57.68786868,11.97897810,57.68786900,11.97897683,15:01:23.428010,0.00315,0.00000,0.00000,-0.14801,0.00000,-0.00203,0.00268,0.00042,-0.04465,-0.12688,0.99155,3.84675,0.00000,2.51246,2.51246,-0.14269,0.07597,3.80564,-0.21794,0.11119,3.14159,3.14159,A,150123.30
3.86032,57.68786868,11.97897810,57.68786900,11.97897683,15:01:23.438101,0.00302,0.00000,0.00000,-0.14810,0.00000,-0.00310,-0.00160,-0.00095,-0.04258,-0.12999,0.98893,3.85684,0.00000,2.51246,2.51246,-0.14269,0.07597,3.80564,-0.21794,0.11119,3.14159,3.14159,A,150123.30
3.87102,57.68786868,11.97897810,57.68786900,11.97897683,15:01:23.448805,0.00332,0.00000,0.00000,-0.14809,0.00000,0.00163,0.00085,0.00164,-0.04191,-0.12688,0.98869,3.86754,0.00000,2.51246,2.51246,-0.14269,0.07597,3.80564,-0.21794,0.11119,3.14159,3.14159,A,150123.30
3.88178,57.68786868,11.97897810,57.68786900,11.97897683,15:01:23.459576,0.00369,0.00000,0.00000,-0.14814,0.00000,-0.00173,0.00039,0.00027,-0.04087,-0.12828,0.98930,3.87805,0.00000,2.51246,2.51246,-0.14269,0.07597,3.80564,-0.21794,0.11119,3.14159,3.14159,A,150123.30
3.89162,57.68786868,11.97897810,57.68786900,11.97897683,15:01:23.469405,0.00313,0.00000,0.00000,-0.14817,0.00000,-0.00020,-0.00190,-0.00157,-0.04258,-0.12908,0.99168,3.88814,0.00000,2.51246,2.51246,-0.14269,0.07597,3.80564,-0.21794,0.11119,3.14159,3.14159,A,150123.30
3.90203,57.68786868,11.97897810,57.68786900,11.97897683,15:01:23.479813,0.00315,0.00000,0.00000,-0.14820,0.00000,0.00133,-0.00267,0.00042,-0.04386,-0.12950,0.99223,3.89856,0.00000,2.51246,2.51246,-0.14269,0.07597,3.80564,-0.21794,0.11119,3.14159,3.14159,A,150123.30
3.93052,57.68786868,11.97897810,57.68786917,11.97897683,15:01:23.508303,0.02142,0.00000,0.00000,-0.14825,0.00000,0.00041,-0.00419,-0.00034,-0.04166,-0.12999,0.99021,3.90861,0.00000,2.51246,2.51246,-0.14269,0.07597,3.92502,-0.21794,0.12973,1.57080,1.57080,A,150123.40
3.94768,57.68786871,11.97897804,57.68786917,11.97897683,15:01:23.525462,0.00655,0.00000,0.00000,-0.14829,0.00000,-0.00005,0.00085,-0.00034,-0.04337,-0.12938,0.99052,3.94221,0.00000,2.37121,2.37121,-0.14645,0.07865,3.92502,-0.21794,0.12973,1.57080,1.57080,A,150123.40
3.95527,57.68786871,11.97897804,57.68786917,11.97897683,15:01:23.533060,0.00323,0.00000,0.00000,-0.14835,0.00000,-0.00219,0.00390,0.00164,-0.04148,-0.12956,0.99027,3.95179,0.00000,2.37121,2.37121,-0.14645,0.07865,3.92502,-0.21794,0.12973,1.57080,1.57080,A,150123.40
3.96591,57.68786871,11.97897804,57.68786917,11.97897683,15:01:23.543698,0.00348,0.00000,0.00000,-0.14838,0.00000,0.00010,-0.00037,-0.00355,-0.04185,-0.12847,0.99033,3.96209,0.00000,2.37121,2.37121,-0.14645,0.07865,3.92502,-0.21794,0.12973,1.57080,1.57080,A,150123.40
3.97689,57.68786871,11.97897804,57.68786917,11.97897683,15:01:23.554686,0.00361,0.00000,0.00000,-0.14843,0.00000,-0.00295,-0.00099,-0.00187,-0.04252,-0.12767,0.98844,3.97320,0.00000,2.37121,2.37121,-0.14645,0.07865,3.92502,-0.21794,0.12973,1.57080,1.57080,A,150123.40
3.98762,57.68786871,11.97897804,57.68786917,11.97897683,15:01:23.565413,0.00395,0.00000,0.00000,-0.14841,0.00000,0.00072,0.00329,-0.00157,-0.04264,-0.12682,0.99155,3.98414,0.00000,2.37121,2.37121,-0.14645,0.07865,3.92502,-0.21794,0.12973,1.57080,1.57080,A,150123.40
3.99719,57.68786871,11.97897804,57.68786917,11.97897683,15:01:23.574976,0.00313,0.00000,0.00000,-0.14842,0.00000,0.00178,-0.00267,0.00088,-0.04142,-0.12834,0.99223,3.99371,0.00000,2.37121,2.37121,-0.14645,0.07865,3.92502,-0.21794,0.12973,1.57080,1.57080,A,150123.40
4.00877,57.68786871,11.97897804,57.68786917,11.97897683,15:01:23.586561,0.00430,0.00000,0.00000,-0.14841,0.00000,0.00194,-0.00068,0.00210,-0.04276,-0.12749,0.99015,4.00483,0.00000,2.37121,2.37121,-0.14645,0.07865,3.92502,-0.21794,0.12973,1.57080,1.57080,A,150123.40
4.01801,57.68786871,11.97897804,57.68786917,11.97897683,15:01:23.595798,0.00315,0.00000,0.00000,-0.14841,0.00000,0.00362,0.00192,-0.00050,-0.04124,-0.12926,0.99003,4.01454,0.00000,2.37121,2.37121,-0.14645,0.07865,3.92502,-0.21794,0.12973,1.57080,1.57080,A,150123.40
4.04515,57.68786871,11.97897804,57.68786917,11.97897667,15:01:23.622943,0.02006,0.00000,0.00000,-0.14840,0.00000,0.00041,-0.00144,0.00149,-0.04081,-0.12682,0.99125,4.02460,0.00000,2.37121,2.37121,-0.14645,0.07865,4.04074,-0.22784,0.12973,3.14159,3.14159,A,150123.50
4.06013,57.68786873,11.97897797,57.68786917,11.97897667,15:01:23.637911,0.00706,0.00000,0.00000,-0.14840,0.00000,0.00072,0.00024,0.00042,-0.04362,-0.12840,0.99302,4.05466,0.00000,2.48677,2.48677,-0.15052,0.08121,4.04074,-0.22784,0.12973,3.14159,3.14159,A,150123.50
4.06726,57.68786873,11.97897797,57.68786917,11.97897667,15:01:23.645045,0.00331,0.00000,0.00000,-0.14844,0.00000,0.00117,0.00268,-0.00157,-0.03971,-0.13023,0.98802,4.06378,0.00000,2.48677,2.48677,-0.15052,0.08121,4.04074,-0.22784,0.12973,3.14159,3.14159,A,150123.50
4.07823,57.68786873,11.97897797,57.68786917,11.97897667,15:01:23.656017,0.00388,0.00000,0.00000,-0.14850,0.00000,-0.00020,0.00268,-0.00111,-0.04203,-0.13011,0.98960,4.07474,0.00000,2.48677,2.48677,-0.15052,0.08121,4.04074,-0.22784,0.12973,3.14159,3.14159,A,150123.50
4.08786,57.68786873,11.97897797,57.68786917,11.97897667,15:01:23.665642,0.00297,0.00000,0.00000,-0.14853,0.00000,0.00056,-0.00083,0.00011,-0.04252,-0.12956,0.99088,4.08438,0.00000,2.48677,2.48677,-0.15052,0.08121,4.04074,-0.22784,0.12973,3.14159,3.14159,A,150123.50
4.09902,57.68786873,11.97897797,57.68786917,11.97897667,15:01:23.676807,0.00341,0.00000,0.00000,-0.14856,0.00000,0.00194,0.00008,0.00042,-0.04343,-0.13036,0.99015,4.09554,0.00000,2.48677,2.48677,-0.15052,0.08121,4.04074,-0.22784,0.12973,3.14159,3.14159,A,150123.50
4.10968,57.68786873,11.97897797,57.68786917,11.97897667,15:01:23.687470,0.00367,0.00000,0.00000,-0.14858,0.00000,-0.00219,0.00069,0.00225,-0.04416,-0.12657,0.99021,4.10619,0.00000,2.48677,2.48677,-0.15052,0.08121,4.04074,-0.22784,0.12973,3.14159,3.14159,A,150123.50
4.11956,57.68786873,11.97897797,57.68786917,11.97897667,15:01:23.697342,0.00316,0.00000,0.00000,-0.14865,0.00000,-0.00295,0.00024,0.00027,-0.04026,-0.12999,0.98796,4.11608,0.00000,2.48677,2.48677,-0.15052,0.08121,4.04074,-0.22784,0.12973,3.14159,3.14159,A,150123.50
4.12996,57.68786873,11.97897797,57.68786917,11.97897667,15:01:23.707740,0.00316,0.00000,0.00000,-0.14866,0.00000,0.00331,-0.00083,0.00027,-0.04246,-0.13030,0.99277,4.12647,0.00000,2.48677,2.48677,-0.15052,0.08121,4.04074,-0.22784,0.12973,3.14159,3.14159,A,150123.50
4.14022,57.68786873,11.97897797,57.68786917,11.97897667,15:01:23.718001,0.00319,0.00000,0.00000,-0.14868,0.00000,-0.00005,-0.00114,0.00149,-0.04307,-0.12847,0.99113,4.13673,0.00000,2.48677,2.48677,-0.15052,0.08121,4.04074,-0.22784,0.12973,3.14159,3.14159,A,150123.50
4.16994,57.68786873,11.97897797,57.68786917,11.97897650,15:01:23.747729,0.02252,0.00000,0.00000,-0.14866,0.00000,0.00453,-0.00099,0.00164,-0.04154,-0.12859,0.99174,4.14709,0.00000,2.48677,2.48677,-0.15052,0.08121,4.16313,-0.23775,0.12973,3.14159,3.14159,A,150123.60
4.18362,57.68786875,11.97897789,57.68786917,11.97897650,15:01:23.761402,0.00730,0.00000,0.00000,-0.14857,0.00000,0.00301,0.00069,0.00118,-0.04294,-0.12694,0.98808,4.17686,0.00000,2.58499,2.58499,-0.15488,0.08363,4.16313,-0.23775,0.12973,3.14159,3.14159,A,150123.60
4.19044,57.68786875,11.97897789,57.68786917,11.97897650,15:01:23.768225,0.00372,0.00000,0.00000,-0.14865,0.00000,-0.00280,0.00146,0.00011,-0.04172,-0.13060,0.99119,4.18696,0.00000,2.58499,2.58499,-0.15488,0.08363,4.16313,-0.23775,0.12973,3.14159,3.14159,A,150123.60
4.19996,57.68786875,11.97897789,57.68786917,11.97897650,15:01:23.777743,0.00297,0.00000,0.00000,-0.14866,0.00000,-0.00020,0.00024,-0.00004,-0.04258,-0.12761,0.99223,4.19648,0.00000,2.58499,2.58499,-0.15488,0.08363,4.16313,-0.23775,0.12973,3.14159,3.14159,A,150123.60
4.21054,57.68786875,11.97897789,57.68786917,11.97897650,15:01:23.788317,0.00315,0.00000,0.00000,-0.14866,0.00000,0.00072,-0.00007,0.00347,-0.04197,-0.12773,0.99088,4.20707,0.00000,2.58499,2.58499,-0.15488,0.08363,4.16313,-0.23775,0.12973,3.14159,3.14159,A,150123.60
4.22092,57.68786875,11.97897789,57.68786917,11.97897650,15:01:23.798713,0.00314,0.00000,0.00000,-0.14864,0.00000,0.00346,-0.00099,0.00042,-0.04081,-0.12810,0.98991,4.21723,0.00000,2.58499,2.58499,-0.15488,0.08363,4.16313,-0.23775,0.12973,3.14159,3.14159,A,150123.60
4.23133,57.68786875,11.97897789,57.68786917,11.97897650,15:01:23.809114,0.00316,0.00000,0.00000,-0.14867,0.00000,-0.00371,0.00192,-0.00126,-0.04331,-0.12590,0.98832,4.22785,0.00000,2.58499,2.58499,-0.15488,0.08363,4.16313,-0.23775,0.12973,3.14159,3.14159,A,150123.60
4.24245,57.68786875,11.97897789,57.68786917,11.97897650,15:01:23.820251,0.00389,0.00000,0.00000,-0.14867,0.00000,0.00392,-0.00190,0.00179,-0.04130,-0.13017,0.99064,4.23859,0.00000,2.58499,2.58499,-0.15488,0.08363,4.16313,-0.23775,0.12973,3.14159,3.14159,A,150123.60
4.25200,57.68786875,11.97897789,57.68786917,11.97897650,15:01:23.829779,0.00296,0.00000,0.00000,-0.14867,0.00000,0.00087,0.00161,0.00317,-0.04038,-0.12792,0.99094,4.24853,0.00000,2.58499,2.58499,-0.15488,0.08363,4.16313,-0.23775,0.12973,3.14159,3.14159,A,150123.60
4.26264,57.68786875,11.97897789,57.68786917,11.97897650,15:01:23.840430,0.00335,0.00000,0.00000,-0.14871,0.00000,-0.00188,0.00069,0.00134,-0.04148,-0.12816,0.98997,4.25916,0.00000,2.58499,2.58499,-0.15488,0.08363,4.16313,-0.23775,0.12973,3.14159,3.14159,A,150123.60
4.30110,57.68786875,11.97897789,57.68786917,11.97897633,15:01:23.878881,0.03114,0.00000,0.00000,-0.14869,0.00000,0.00072,0.00314,-0.00065,-0.04410,-0.12639,0.99027,4.27025,0.00000,2.58499,2.58499,-0.15488,0.08363,4.29709,-0.24765,0.12973,3.14159,3.14159,A,150123.80
4.31731,57.68786877,11.97897782,57.68786917,11.97897633,15:01:23.895092,0.00810,0.00000,0.00000,-0.14881,0.00000,-0.00325,0.00024,-0.00202,-0.04111,-0.12651,0.99235,4.31127,0.00000,2.66848,2.66848,-0.15952,0.08594,4.29709,-0.24765,0.12973,3.14159,3.14159,A,150123.80
4.32276,57.68786877,11.97897782,57.68786917,11.97897633,15:01:23.900544,0.00316,0.00000,0.00000,-0.14885,0.00000,-0.00295,-0.00022,-0.00111,-0.04252,-0.12847,0.98942,4.31928,0.00000,2.66848,2.66848,-0.15952,0.08594,4.29709,-0.24765,0.12973,3.14159,3.14159,A,150123.80
4.33347,57.68786877,11.97897782,57.68786917,11.97897633,15:01:23.911263,0.00322,0.00000,0.00000,-0.14889,0.00000,0.00072,-0.00129,0.00088,-0.04111,-0.13023,0.98960,4.32998,0.00000,2.66848,2.66848,-0.15952,0.08594,4.29709,-0.24765,0.12973,3.14159,3.14159,A,150123.80
4.34380,57.68786877,11.97897782,57.68786917,11.97897633,15:01:23.921586,0.00297,0.00000,0.00000,-0.14895,0.00000,-0.00219,0.00008,0.00225,-0.04264,-0.12944,0.98905,4.34033,0.00000,2.66848,2.66848,-0.15952,0.08594,4.29709,-0.24765,0.12973,3.14159,3.14159,A,150123.80
4.35438,57.68786877,11.97897782,57.68786917,11.97897633,15:01:23.932164,0.00316,0.00000,0.00000,-0.14894,0.00000,0.00194,0.00115,-0.00187,-0.04337,-0.12822,0.99143,4.35091,0.00000,2.66848,2.66848,-0.15952,0.08594,4.29709,-0.24765,0.12973,3.14159,3.14159,A,150123.80
4.36475,57.68786877,11.97897782,57.68786917,11.97897633,15:01:23.942547,0.00314,0.00000,0.00000,-0.14892,0.00000,0.00408,0.00085,-0.00202,-0.04166,-0.12883,0.98997,4.36107,0.00000,2.66848,2.66848,-0.15952,0.08594,4.29709,-0.24765,0.12973,3.14159,3.14159,A,150123.80
4.37562,57.68786877,11.97897782,57.68786917,11.97897633,15:01:23.953411,0.00361,0.00000,0.00000,-0.14894,0.00000,-0.00066,0.00161,-0.00050,-0.04063,-0.12816,0.98997,4.37166,0.00000,2.66848,2.66848,-0.15952,0.08594,4.29709,-0.24765,0.12973,3.14159,3.14159,A,150123.80
4.38612,57.68786877,11.97897782,57.68786917,11.97897633,15:01:23.963905,0.00373,0.00000,0.00000,-0.14895,0.00000,0.00331,0.00329,-0.00034,-0.04032,-0.13097,0.99186,4.38264,0.00000,2.66848,2.66848,-0.15952,0.08594,4.29709,-0.24765,0.12973,3.14159,3.14159,A,150123.80
4.39589,57.68786877,11.97897782,57.68786917,11.97897633,15:01:23.973666,0.00296,0.00000,0.00000,-0.14898,0.00000,-0.00295,-0.00022,0.00347,-0.04008,-0.12700,0.98881,4.39241,0.00000,2.66848,2.66848,-0.15952,0.08594,4.29709,-0.24765,0.12973,3.14159,3.14159,A,150123.80
4.42602,57.68786877,11.97897782,57.68786917,11.97897617,15:01:24.004341,0.02249,0.00000,0.00000,-0.14903,0.00000,-0.00341,0.00146,-0.00294,-0.04136,-0.12822,0.99003,4.40325,0.00000,2.66848,2.66848,-0.15952,0.08594,4.41977,-0.25756,0.12973,3.14159,3.14159,A,150123.90
4.44276,57.68786879,11.97897773,57.68786917,11.97897617,15:01:24.020532,0.00697,0.00000,0.00000,-0.14900,0.00000,0.00133,0.00176,0.00134,-0.04178,-0.12834,0.99155,4.43705,0.00000,2.73945,2.73945,-0.16442,0.08813,4.41977,-0.25756,0.12973,3.14159,3.14159,A,150123.90
4.44934,57.68786879,11.97897773,57.68786917,11.97897617,15:01:24.027127,0.00316,0.00000,0.00000,-0.14896,0.00000,0.00591,0.00558,-0.00248,-0.04392,-0.12822,0.99125,4.44586,0.00000,2.73945,2.73945,-0.16442,0.08813,4.41977,-0.25756,0.12973,3.14159,3.14159,A,150123.90
4.45970,57.68786879,11.97897773,57.68786917,11.97897617,15:01:24.037489,0.00295,0.00000,0.00000,-0.14893,0.00000,0.00255,0.00146,-0.00187,-0.04276,-0.12786,0.99210,4.45623,0.00000,2.73945,2.73945,-0.16442,0.08813,4.41977,-0.25756,0.12973,3.14159,3.14159,A,150123.90
4.47030,57.68786879,11.97897773,57.68786917,11.97897617,15:01:24.048082,0.00314,0.00000,0.00000,-0.14896,0.00000,-0.00096,0.00024,-0.00111,-0.04282,-0.12847,0.99058,4.46682,0.00000,2.73945,2.73945,-0.16442,0.08813,4.41977,-0.25756,0.12973,3.14159,3.14159,A,150123.90
4.48169,57.68786879,11.97897773,57.68786917,11.97897617,15:01:24.059474,0.00379,0.00000,0.00000,-0.14895,0.00000,0.00194,0.00161,0.00057,-0.04063,-0.12859,0.99058,4.47818,0.00000,2.73945,2.73945,-0.16442,0.08813,4.41977,-0.25756,0.12973,3.14159,3.14159,A,150123.90
4.49144,57.68786879,11.97897773,57.68786917,11.97897617,15:01:24.069220,0.00314,0.00000,0.00000,-0.14900,0.00000,-0.00035,0.00115,0.00241,-0.04368,-0.12969,0.98850,4.48796,0.00000,2.73945,2.73945,-0.16442,0.08813,4.41977,-0.25756,0.12973,3.14159,3.14159,A,150123.90
4.50178,57.68786879,11.97897773,57.68786917,11.97897617,15:01:24.079563,0.00309,0.00000,0.00000,-0.14900,0.00000,0.00209,-0.00221,0.00179,-0.04154,-0.12908,0.98875,4.49830,0.00000,2.73945,2.73945,-0.16442,0.08813,4.41977,-0.25756,0.12973,3.14159,3.14159,A,150123.90
4.51194,57.68786879,11.97897773,57.68786917,11.97897617,15:01:24.089723,0.00296,0.00000,0.00000,-0.14902,0.00000,0.00133,0.00024,-0.00095,-0.04063,-0.12969,0.99186,4.50846,0.00000,2.73945,2.73945,-0.16442,0.08813,4.41977,-0.25756,0.12973,3.14159,3.14159,A,150123.90
4.54123,57.68786879,11.97897773,57.68786933,11.97897617,15:01:24.119015,0.02186,0.00000,0.00000,-0.14906,0.00000,-0.00112,0.00039,0.00073,-0.04325,-0.12938,0.99259,4.51903,0.00000,2.73945,2.73945,-0.16442,0.08813,4.53526,-0.25756,0.14826,1.57080,1.57080,A,150124.00
4.55805,57.68786882,11.97897766,57.68786933,11.97897617,15:01:24.135823,0.00653,0.00000,0.00000,-0.14907,0.00000,0.00041,0.00283,-0.00050,-0.04221,-0.12950,0.99107,4.55231,0.00000,2.56415,2.56415,-0.16908,0.09113,4.53526,-0.25756,0.14826,1.57080,1.57080,A,150124.00
4.56507,57.68786882,11.97897766,57.68786933,11.97897617,15:01:24.142851,0.00316,0.00000,0.00000,-0.14908,0.00000,0.00102,-0.00083,-0.00050,-0.04392,-0.12859,0.99204,4.56138,0.00000,2.56415,2.56415,-0.16908,0.09113,4.53526,-0.25756,0.14826,1.57080,1.57080,A,150124.00
4.57545,57.68786882,11.97897766,57.68786933,11.97897617,15:01:24.153231,0.00314,0.00000,0.00000,-0.14909,0.00000,0.00087,0.00100,-0.00019,-0.04416,-0.12901,0.98991,4.57198,0.00000,2.56415,2.56415,-0.16908,0.09113,4.53526,-0.25756,0.14826,1.57080,1.57080,A,150124.00
4.58622,57.68786882,11.97897766,57.68786933,11.97897617,15:01:24.164007,0.00324,0.00000,0.00000,-0.14911,0.00000,-0.00188,0.00176,-0.00141,-0.04111,-0.12718,0.98942,4.58274,0.00000,2.56415,2.56415,-0.16908,0.09113,4.53526,-0.25756,0.14826,1.57080,1.57080,A,150124.00
4.59617,57.68786882,11.97897766,57.68786933,11.97897617,15:01:24.173958,0.00297,0.00000,0.00000,-0.14911,0.00000,0.00301,0.00024,-0.00202,-0.04362,-0.12999,0.99101,4.59271,0.00000,2.56415,2.56415,-0.16908,0.09113,4.53526,-0.25756,0.14826,1.57080,1.57080,A,150124.00
4.60675,57.68786882,11.97897766,57.68786933,11.97897617,15:01:24.184534,0.00315,0.00000,0.00000,-0.14913,0.00000,-0.00096,-0.00129,-0.00263,-0.04227,-0.12828,0.99021,4.60328,0.00000,2.56415,2.56415,-0.16908,0.09113,4.53526,-0.25756,0.14826,1.57080,1.57080,A,150124.00
4.61714,57.68786882,11.97897766,57.68786933,11.97897617,15:01:24.194925,0.00315,0.00000,0.00000,-0.14914,0.00000,-0.00096,-0.00083,-0.00370,-0.04331,-0.12725,0.98875,4.61345,0.00000,2.56415,2.56415,-0.16908,0.09113,4.53526,-0.25756,0.14826,1.57080,1.57080,A,150124.00
4.62752,57.68786882,11.97897766,57.68786933,11.97897617,15:01:24.205308,0.00328,0.00000,0.00000,-0.14917,0.00000,-0.00081,0.00299,-0.00004,-0.04185,-0.12859,0.98844,4.62404,0.00000,2.56415,2.56415,-0.16908,0.09113,4.53526,-0.25756,0.14826,1.57080,1.57080,A,150124.00
4.65677,57.68786882,11.97897766,57.68786933,11.97897600,15:01:24.234561,0.02213,0.00000,0.00000,-0.14915,0.00000,0.00133,0.00161,-0.00065,-0.04337,-0.12731,0.98924,4.63464,0.00000,2.56415,2.56415,-0.16908,0.09113,4.65095,-0.26747,0.14826,3.14159,3.14159,A,150124.10
4.67314,57.68786885,11.97897757,57.68786933,11.97897600,15:01:24.250953,0.00652,0.00000,0.00000,-0.14924,0.00000,-0.00234,-0.00144,-0.00095,-0.04252,-0.12828,0.99015,4.66647,0.00000,2.65077,2.65077,-0.17400,0.09399,4.65095,-0.26747,0.14826,3.14159,3.14159,A,150124.10
4.68147,57.68786885,11.97897757,57.68786933,11.97897600,15:01:24.259263,0.00415,0.00000,0.00000,-0.14926,0.00000,-0.00051,0.00283,-0.00004,-0.04166,-0.12865,0.98759,4.67748,0.00000,2.65077,2.65077,-0.17400,0.09399,4.65095,-0.26747,0.14826,3.14159,3.14159,A,150124.10
4.69134,57.68786885,11.97897757,57.68786933,11.97897600,15:01:24.269130,0.00362,0.00000,0.00000,-0.14930,0.00000,-0.00035,-0.00007,-0.00126,-0.04032,-0.12950,0.98838,4.68760,0.00000,2.65077,2.65077,-0.17400,0.09399,4.65095,-0.26747,0.14826,3.14159,3.14159,A,150124.10
4.70126,57.68786885,11.97897757,57.68786933,11.97897600,15:01:24.279039,0.00314,0.00000,0.00000,-0.14930,0.00000,0.00133,0.00176,0.00271,-0.04160,-0.12883,0.99137,4.69777,0.00000,2.65077,2.65077,-0.17400,0.09399,4.65095,-0.26747,0.14826,3.14159,3.14159,A,150124.10
4.71219,57.68786885,11.97897757,57.68786933,11.97897600,15:01:24.289971,0.00369,0.00000,0.00000,-0.14936,0.00000,-0.00188,0.00100,0.00103,-0.04148,-0.13017,0.99015,4.70870,0.00000,2.65077,2.65077,-0.17400,0.09399,4.65095,-0.26747,0.14826,3.14159,3.14159,A,150124.10
4.72263,57.68786885,11.97897757,57.68786933,11.97897600,15:01:24.300415,0.00374,0.00000,0.00000,-0.14929,0.00000,0.00576,0.00039,-0.00279,-0.04087,-0.12725,0.99052,4.71916,0.00000,2.65077,2.65077,-0.17400,0.09399,4.65095,-0.26747,0.14826,3.14159,3.14159,A,150124.10
4.73210,57.68786885,11.97897757,57.68786933,11.97897600,15:01:24.309881,0.00298,0.00000,0.00000,-0.14935,0.00000,-0.00616,0.00299,-0.00095,-0.04294,-0.12822,0.99070,4.72862,0.00000,2.65077,2.65077,-0.17400,0.09399,4.65095,-0.26747,0.14826,3.14159,3.14159,A,150124.10
4.74258,57.68786885,11.97897757,57.68786933,11.97897600,15:01:24.320359,0.00318,0.00000,0.00000,-0.14929,0.00000,0.00285,-0.00037,-0.00202,-0.04203,-0.12572,0.99076,4.73909,0.00000,2.65077,2.65077,-0.17400,0.09399,4.65095,-0.26747,0.14826,3.14159,3.14159,A,150124.10
4.77001,57.68786885,11.97897757,57.68786933,11.97897600,15:01:24.347795,0.02022,0.00000,0.00000,-0.14931,0.00000,0.00072,-0.00037,-0.00218,-0.04355,-0.12987,0.99210,4.74926,0.00000,2.65077,2.65077,-0.17400,0.09399,4.76572,-0.26747,0.14826,0.00000,0.00000,A,150124.20
4.78646,57.68786887,11.97897749,57.68786933,11.97897600,15:01:24.364247,0.00839,0.00000,0.00000,-0.14949,0.00000,-0.00417,0.00085,-0.00157,-0.04252,-0.13121,0.99052,4.77894,0.00000,2.25315,2.25315,-0.17867,0.09670,4.76572,-0.26747,0.14826,0.00000,0.00000,A,150124.20
4.79160,57.68786887,11.97897749,57.68786933,11.97897600,15:01:24.369384,0.00315,0.00000,0.00000,-0.14949,0.00000,-0.00051,-0.00144,0.00195,-0.04520,-0.12743,0.98942,4.78812,0.00000,2.25315,2.25315,-0.17867,0.09670,4.76572,-0.26747,0.14826,0.00000,0.00000,A,150124.20
4.80234,57.68786887,11.97897749,57.68786933,11.97897600,15:01:24.380137,0.00350,0.00000,0.00000,-0.14951,0.00000,-0.00127,0.00069,0.00103,-0.04087,-0.12877,0.98985,4.79853,0.00000,2.25315,2.25315,-0.17867,0.09670,4.76572,-0.26747,0.14826,0.00000,0.00000,A,150124.20
4.81203,57.68786887,11.97897749,57.68786933,11.97897600,15:01:24.389812,0.00296,0.00000,0.00000,-0.14953,0.00000,0.00087,-0.00053,-0.00004,-0.04337,-0.12969,0.98875,4.80856,0.00000,2.25315,2.25315,-0.17867,0.09670,4.76572,-0.26747,0.14826,0.00000,0.00000,A,150124.20
4.82262,57.68786887,11.97897749,57.68786933,11.97897600,15:01:24.400402,0.00316,0.00000,0.00000,-0.14951,0.00000,0.00270,-0.00022,0.00088,-0.04185,-0.12853,0.99235,4.81915,0.00000,2.25315,2.25315,-0.17867,0.09670,4.76572,-0.26747,0.14826,0.00000,0.00000,A,150124.20
4.83299,57.68786887,11.97897749,57.68786933,11.97897600,15:01:24.410778,0.00314,0.00000,0.00000,-0.14953,0.00000,0.00026,0.00131,-0.00172,-0.04252,-0.12981,0.99186,4.82931,0.00000,2.25315,2.25315,-0.17867,0.09670,4.76572,-0.26747,0.14826,0.00000,0.00000,A,150124.20
4.84338,57.68786887,11.97897749,57.68786933,11.97897600,15:01:24.421170,0.00313,0.00000,0.00000,-0.14952,0.00000,0.00041,0.00192,0.00011,-0.03922,-0.12767,0.99046,4.83991,0.00000,2.25315,2.25315,-0.17867,0.09670,4.76572,-0.26747,0.14826,0.00000,0.00000,A,150124.20
4.85377,57.68786887,11.97897749,57.68786933,11.97897600,15:01:24.431546,0.00312,0.00000,0.00000,-0.14953,0.00000,0.00056,-0.00114,-0.00080,-0.04349,-0.12895,0.99064,4.85028,0.00000,2.25315,2.25315,-0.17867,0.09670,4.76572,-0.26747,0.14826,0.00000,0.00000,A,150124.20
4.86394,57.68786887,11.97897749,57.68786933,11.97897600,15:01:24.441718,0.00296,0.00000,0.00000,-0.14956,0.00000,-0.00142,0.00039,-0.00355,-0.04154,-0.12840,0.98832,4.86046,0.00000,2.25315,2.25315,-0.17867,0.09670,4.76572,-0.26747,0.14826,0.00000,0.00000,A,150124.20
4.90315,57.68786887,11.97897749,57.68786933,11.97897583,15:01:24.480930,0.03178,0.00000,0.00000,-0.14954,0.00000,0.00240,0.00085,-0.00019,-0.04246,-0.12883,0.99204,4.87160,0.00000,2.25315,2.25315,-0.17867,0.09670,4.89907,-0.27737,0.14826,3.14159,3.14159,A,150124.40
4.91850,57.68786889,11.97897741,57.68786933,11.97897583,15:01:24.496295,0.00691,0.00000,0.00000,-0.14948,0.00000,0.00270,-0.00083,-0.00050,-0.04227,-0.13121,0.99033,4.91172,0.00000,2.38642,2.38642,-0.18361,0.09928,4.89907,-0.27737,0.14826,3.14159,3.14159,A,150124.40
4.92515,57.68786889,11.97897741,57.68786933,11.97897583,15:01:24.502934,0.00316,0.00000,0.00000,-0.14950,0.00000,-0.00005,-0.00205,0.00149,-0.04111,-0.12901,0.99107,4.92145,0.00000,2.38642,2.38642,-0.18361,0.09928,4.89907,-0.27737,0.14826,3.14159,3.14159,A,150124.40
4.93551,57.68786889,11.97897741,57.68786933,11.97897583,15:01:24.513290,0.00313,0.00000,0.00000,-0.14952,0.00000,0.00041,0.00283,0.00027,-0.04301,-0.12987,0.99082,4.93204,0.00000,2.38642,2.38642,-0.18361,0.09928,4.89907,-0.27737,0.14826,3.14159,3.14159,A,150124.40
4.94654,57.68786889,11.97897741,57.68786933,11.97897583,15:01:24.524330,0.00377,0.00000,0.00000,-0.14956,0.00000,-0.00127,-0.00160,-0.00111,-0.03873,-0.12981,0.99076,4.94306,0.00000,2.38642,2.38642,-0.18361,0.09928,4.89907,-0.27737,0.14826,3.14159,3.14159,A,150124.40
4.95598,57.68786889,11.97897741,57.68786933,11.97897583,15:01:24.533760,0.00297,0.00000,0.00000,-0.14956,0.00000,0.00224,0.00360,0.00118,-0.04197,-0.12932,0.98979,4.95251,0.00000,2.38642,2.38642,-0.18361,0.09928,4.89907,-0.27737,0.14826,3.14159,3.14159,A,150124.40
4.96653,57.68786889,11.97897741,57.68786933,11.97897583,15:01:24.544315,0.00313,0.00000,0.00000,-0.14958,0.00000,-0.00173,-0.00099,-0.00065,-0.04386,-0.12792,0.99027,4.96306,0.00000,2.38642,2.38642,-0.18361,0.09928,4.89907,-0.27737,0.14826,3.14159,3.14159,A,150124.40
4.97710,57.68786889,11.97897741,57.68786933,11.97897583,15:01:24.554886,0.00331,0.00000,0.00000,-0.14965,0.00000,-0.00509,0.00421,0.00011,-0.04392,-0.12914,0.99082,4.97340,0.00000,2.38642,2.38642,-0.18361,0.09928,4.89907,-0.27737,0.14826,3.14159,3.14159,A,150124.40
4.98734,57.68786889,11.97897741,57.68786933,11.97897583,15:01:24.565118,0.00315,0.00000,0.00000,-0.14961,0.00000,0.00408,0.00115,-0.00431,-0.04331,-0.12834,0.98911,4.98387,0.00000,2.38642,2.38642,-0.18361,0.09928,4.89907,-0.27737,0.14826,3.14159,3.14159,A,150124.40
4.99832,57.68786889,11.97897741,57.68786933,11.97897583,15:01:24.576117,0.00373,0.00000,0.00000,-0.14967,0.00000,-0.00356,0.00436,0.00225,-0.04325,-0.12944,0.98850,4.99457,0.00000,2.38642,2.38642,-0.18361,0.09928,4.89907,-0.27737,0.14826,3.14159,3.14159,A,150124.40
5.02753,57.68786889,11.97897741,57.68786933,11.97897583,15:01:24.605338,0.02255,0.00000,0.00000,-0.14965,0.00000,0.00178,0.00222,0.00088,-0.04386,-0.12792,0.98991,5.00448,0.00000,2.38642,2.38642,-0.18361,0.09928,5.02144,-0.27737,0.14826,0.00000,0.00000,A,150124.50
5.04701,57.68786891,11.97897733,57.68786933,11.97897583,15:01:24.624825,0.01058,0.00000,0.00000,0.00000,0.00000,-0.00096,0.00085,0.00210,-0.04301,-0.12633,0.98844,5.03779,0.00000,2.02846,2.02846,-0.18829,0.10173,5.02144,-0.27737,0.14826,0.00000,0.00000,A,150124.50
5.06350,57.68786891,11.97897733,57.68786933,11.97897583,15:01:24.641279,0.00809,0.00000,0.00000,-0.00225,0.00000,0.00148,-0.00022,0.00042,-0.04301,-0.13060,0.99186,5.05919,0.00000,2.02846,2.02846,-0.18829,0.10173,5.02144,-0.27737,0.14826,0.00000,0.00000,A,150124.50
5.07346,57.68786891,11.97897733,57.68786933,11.97897583,15:01:24.651241,0.00767,0.00000,0.00000,-0.00443,0.00000,0.00194,0.00314,-0.00157,-0.04093,-0.12743,0.98930,5.06901,0.00000,2.02846,2.02846,-0.18829,0.10173,5.02144,-0.27737,0.14826,0.00000,0.00000,A,150124.50
5.08368,57.68786891,11.97897733,57.68786933,11.97897583,15:01:24.661464,0.00767,0.00000,0.00000,-0.00667,0.00000,-0.00280,0.00207,0.00042,-0.04362,-0.13005,0.99076,5.07950,0.00000,2.02846,2.02846,-0.18829,0.10173,5.02144,-0.27737,0.14826,0.00000,0.00000,A,150124.50
5.09308,57.68786891,11.97897733,57.68786933,11.97897583,15:01:24.670864,0.00667,0.00000,0.00000,-0.00886,0.00000,-0.00142,0.00543,0.00073,-0.04136,-0.13042,0.99094,5.08834,0.00000,2.02846,2.02846,-0.18829,0.10173,5.02144,-0.27737,0.14826,0.00000,0.00000,A,150124.50
5.10351,57.68786891,11.97897733,57.68786933,11.97897583,15:01:24.681312,0.00657,0.00000,0.00000,-0.01100,0.00000,0.00041,0.00146,-0.00095,-0.04416,-0.13078,0.99204,5.09861,0.00000,2.02846,2.02846,-0.18829,0.10173,5.02144,-0.27737,0.14826,0.00000,0.00000,A,150124.50
5.11510,57.68786891,11.97897733,57.68786933,11.97897583,15:01:24.692881,0.00776,0.00000,0.00000,-0.01302,0.00000,0.00438,0.00237,-0.00172,-0.04050,-0.12694,0.98936,5.11090,0.00000,2.02846,2.02846,-0.18829,0.10173,5.02144,-0.27737,0.14826,0.00000,0.00000,A,150124.50
5.14295,57.68786891,11.97897733,57.68786933,11.97897567,15:01:24.720724,0.02523,0.00000,0.00000,-0.01507,0.00000,0.00102,-0.00053,-0.00050,-0.04227,-0.12920,0.99003,5.12085,0.00000,2.02846,2.02846,-0.18829,0.10173,5.13757,-0.28728,0.14826,3.14159,3.14159,A,150124.60
5.16211,57.68786894,11.97897725,57.68786933,11.97897567,15:01:24.739885,0.01000,0.00000,0.00000,-0.01714,0.00000,-0.00142,0.00054,-0.00111,-0.04209,-0.12840,0.99186,5.15586,0.00000,2.19543,2.19543,-0.19324,0.10406,5.13757,-0.28728,0.14826,3.14159,3.14159,A,150124.60
5.17823,57.68786894,11.97897725,57.68786933,11.97897567,15:01:24.756010,0.00593,0.00000,0.00000,-0.01912,0.00000,0.00148,0.00039,-0.00111,-0.04197,-0.12932,0.98948,5.17405,0.00000,2.19543,2.19543,-0.19324,0.10406,5.13757,-0.28728,0.14826,3.14159,3.14159,A,150124.60
5.19025,57.68786894,11.97897725,57.68786933,11.97897567,15:01:24.768026,0.00756,0.00000,0.00000,-0.02110,0.00000,-0.00096,0.00222,0.00011,-0.04240,-0.12871,0.99259,5.18606,0.00000,2.19543,2.19543,-0.19324,0.10406,5.13757,-0.28728,0.14826,3.14159,3.14159,A,150124.60
5.19950,57.68786894,11.97897725,57.68786933,11.97897567,15:01:24.777279,0.00653,0.00000,0.00000,-0.02303,0.00000,0.00133,-0.00373,0.00179,-0.04264,-0.12914,0.99009,5.19538,0.00000,2.19543,2.19543,-0.19324,0.10406,5.13757,-0.28728,0.14826,3.14159,3.14159,A,150124.60
5.21092,57.68786894,11.97897725,57.68786933,11.97897567,15:01:24.788702,0.00729,0.00000,0.00000,-0.02497,0.00000,-0.00264,-0.00083,0.00256,-0.04185,-0.12926,0.99369,5.20674,0.00000,2.19543,2.19543,-0.19324,0.10406,5.13757,-0.28728,0.14826,3.14159,3.14159,A,150124.60
5.22102,57.68786894,11.97897725,57.68786933,11.97897567,15:01:24.798804,0.00701,0.00000,0.00000,-0.02682,0.00000,0.00209,0.00085,0.00317,-0.04258,-0.12810,0.98924,5.21662,0.00000,2.19543,2.19543,-0.19324,0.10406,5.13757,-0.28728,0.14826,3.14159,3.14159,A,150124.60
5.23012,57.68786894,11.97897725,57.68786933,11.97897567,15:01:24.807891,0.00587,0.00000,0.00000,-0.02871,0.00000,-0.00142,-0.00144,-0.00034,-0.04124,-0.13030,0.98948,5.22593,0.00000,2.19543,2.19543,-0.19324,0.10406,5.13757,-0.28728,0.14826,3.14159,3.14159,A,150124.60
5.26023,57.68786894,11.97897725,57.68786950,11.97897550,15:01:24.838004,0.02573,0.00000,0.00000,-0.03059,0.00000,-0.00387,0.00146,-0.00065,-0.04233,-0.12895,0.98918,5.23823,0.00000,2.19543,2.19543,-0.19324,0.10406,5.25463,-0.29719,0.16679,2.06169,2.06169,A,150124.70
5.27802,57.68786896,11.97897716,57.68786950,11.97897550,15:01:24.855795,0.00748,0.00000,0.00000,-0.03240,0.00000,-0.00035,0.00161,-0.00141,-0.04166,-0.12859,0.98924,5.27179,0.00000,2.17536,2.17536,-0.19844,0.10719,5.25463,-0.29719,0.16679,2.06169,2.06169,A,150124.70
5.28617,57.68786896,11.97897716,57.68786950,11.97897550,15:01:24.863953,0.00521,0.00000,0.00000,-0.03421,0.00000,-0.00127,0.00268,0.00057,-0.04056,-0.13036,0.98838,5.28205,0.00000,2.17536,2.17536,-0.19844,0.10719,5.25463,-0.29719,0.16679,2.06169,2.06169,A,150124.70
5.30024,57.68786896,11.97897716,57.68786950,11.97897550,15:01:24.878022,0.00888,0.00000,0.00000,-0.03598,0.00000,-0.00173,-0.00053,-0.00172,-0.04307,-0.12889,0.98796,5.29577,0.00000,2.17536,2.17536,-0.19844,0.10719,5.25463,-0.29719,0.16679,2.06169,2.06169,A,150124.70
5.30789,57.68786896,11.97897716,57.68786950,11.97897550,15:01:24.885671,0.00651,0.00000,0.00000,-0.03768,0.00000,0.00010,-0.00251,-0.00202,-0.04142,-0.12816,0.99271,5.30297,0.00000,2.17536,2.17536,-0.19844,0.10719,5.25463,-0.29719,0.16679,2.06169,2.06169,A,150124.70
5.31943,57.68786896,11.97897716,57.68786950,11.97897550,15:01:24.897209,0.00766,0.00000,0.00000,-0.03938,0.00000,-0.00066,0.00237,0.00118,-0.04459,-0.12877,0.99113,5.31522,0.00000,2.17536,2.17536,-0.19844,0.10719,5.25463,-0.29719,0.16679,2.06169,2.06169,A,150124.70
5.32837,57.68786896,11.97897716,57.68786950,11.97897550,15:01:24.906401,0.00621,0.00000,0.00000,-0.04098,0.00000,0.00453,-0.00236,-0.00034,-0.03953,-0.12706,0.98893,5.32427,0.00000,2.17536,2.17536,-0.19844,0.10719,5.25463,-0.29719,0.16679,2.06169,2.06169,A,150124.70
5.34162,57.68786896,11.97897716,57.68786950,11.97897550,15:01:24.919406,0.00860,0.00000,0.00000,-0.04253,0.00000,0.00499,-0.00450,-0.00095,-0.04050,-0.12651,0.98783,5.33692,0.00000,2.17536,2.17536,-0.19844,0.10719,5.25463,-0.29719,0.16679,2.06169,2.06169,A,150124.70
5.35007,57.68786896,11.97897716,57.68786950,11.97897550,15:01:24.928223,0.00666,0.00000,0.00000,-0.04413,0.00000,0.00224,0.00085,0.00164,-0.04124,-0.12914,0.99088,5.34493,0.00000,2.17536,2.17536,-0.19844,0.10719,5.25463,-0.29719,0.16679,2.06169,2.06169,A,150124.70
5.38888,57.68786896,11.97897716,57.68786950,11.97897533,15:01:24.966657,0.03508,0.00000,0.00000,-0.04573,0.00000,-0.00081,0.00253,-0.00248,-0.03977,-0.12871,0.98942,5.35694,0.00000,2.17536,2.17536,-0.19844,0.10719,5.38275,-0.30709,0.16679,3.14159,3.14159,A,150124.90
5.40253,57.68786899,11.97897707,57.68786950,11.97897533,15:01:24.980319,0.00828,0.00000,0.00000,-0.04715,0.00000,0.00285,0.00069,0.00103,-0.04099,-0.12590,0.99058,5.39515,0.00000,2.32030,2.32030,-0.20387,0.11017,5.38275,-0.30709,0.16679,3.14159,3.14159,A,150124.90
5.40983,57.68786899,11.97897707,57.68786950,11.97897533,15:01:24.987608,0.00502,0.00000,0.00000,-0.04866,0.00000,0.00056,0.00176,-0.00080,-0.04441,-0.12621,0.98850,5.40572,0.00000,2.32030,2.32030,-0.20387,0.11017,5.38275,-0.30709,0.16679,3.14159,3.14159,A,150124.90
5.42117,57.68786899,11.97897707,57.68786950,11.97897533,15:01:24.998958,0.00597,0.00000,0.00000,-0.05019,0.00000,-0.00112,-0.00160,0.00011,-0.04557,-0.12828,0.99186,5.41671,0.00000,2.32030,2.32030,-0.20387,0.11017,5.38275,-0.30709,0.16679,3.14159,3.14159,A,150124.90
5.43048,57.68786899,11.97897707,57.68786950,11.97897533,15:01:25.008252,0.00489,0.00000,0.00000,-0.05167,0.00000,0.00178,-0.00404,-0.00324,-0.04258,-0.12853,0.98863,5.42636,0.00000,2.32030,2.32030,-0.20387,0.11017,5.38275,-0.30709,0.16679,3.14159,3.14159,A,150124.90
5.44426,57.68786899,11.97897707,57.68786950,11.97897533,15:01:25.022036,0.00828,0.00000,0.00000,-0.05310,0.00000,0.00453,0.00207,-0.00111,-0.04166,-0.12944,0.99162,5.44008,0.00000,2.32030,2.32030,-0.20387,0.11017,5.38275,-0.30709,0.16679,3.14159,3.14159,A,150124.90
5.45440,57.68786899,11.97897707,57.68786950,11.97897533,15:01:25.032215,0.00817,0.00000,0.00000,-0.05460,0.00000,-0.00341,0.00283,-0.00065,-0.04209,-0.12950,0.98997,5.44913,0.00000,2.32030,2.32030,-0.20387,0.11017,5.38275,-0.30709,0.16679,3.14159,3.14159,A,150124.90
5.46432,57.68786899,11.97897707,57.68786950,11.97897533,15:01:25.042101,0.00753,0.00000,0.00000,-0.05604,0.00000,-0.00005,0.00283,-0.00095,-0.04087,-0.12883,0.99094,5.45948,0.00000,2.32030,2.32030,-0.20387,0.11017,5.38275,-0.30709,0.16679,3.14159,3.14159,A,150124.90
5.47552,57.68786899,11.97897707,57.68786950,11.97897533,15:01:25.053298,0.00834,0.00000,0.00000,-0.05739,0.00000,0.00331,-0.00083,0.00057,-0.04227,-0.12731,0.98789,5.47132,0.00000,2.32030,2.32030,-0.20387,0.11017,5.38275,-0.30709,0.16679,3.14159,3.14159,A,150124.90
5.50256,57.68786899,11.97897707,57.68786950,11.97897533,15:01:25.080754,0.02500,0.00000,0.00000,-0.05884,0.00000,-0.00203,0.00451,-0.00401,-0.03916,-0.13115,0.99125,5.48025,0.00000,2.32030,2.32030,-0.20387,0.11017,5.49759,-0.30709,0.16679,0.00000,0.00000,A,150125.00
5.52002,57.68786902,11.97897698,57.68786950,11.97897533,15:01:25.097790,0.01008,0.00000,0.00000,-0.06012,0.00000,0.00194,-0.00297,0.00210,-0.04117,-0.12767,0.99448,5.51407,0.00000,1.97225,1.97225,-0.20903,0.11301,5.49759,-0.30709,0.16679,0.00000,0.00000,A,150125.00
5.53054,57.68786902,11.97897698,57.68786950,11.97897533,15:01:25.108315,0.00481,0.00000,0.00000,-0.06148,0.00000,-0.00020,0.00299,-0.00065,-0.04374,-0.12895,0.99040,5.52636,0.00000,1.97225,1.97225,-0.20903,0.11301,5.49759,-0.30709,0.16679,0.00000,0.00000,A,150125.00
5.54506,57.68786902,11.97897698,57.68786950,11.97897533,15:01:25.122845,0.00894,0.00000,0.00000,-0.06286,0.00000,-0.00310,-0.00037,-0.00065,-0.04136,-0.12883,0.99180,5.54061,0.00000,1.97225,1.97225,-0.20903,0.11301,5.49759,-0.30709,0.16679,0.00000,0.00000,A,150125.00
5.55322,57.68786902,11.97897698,57.68786950,11.97897533,15:01:25.130999,0.00691,0.00000,0.00000,-0.06412,0.00000,0.00240,-0.00496,-0.00111,-0.04209,-0.12676,0.98753,5.54884,0.00000,1.97225,1.97225,-0.20903,0.11301,5.49759,-0.30709,0.16679,0.00000,0.00000,A,150125.00
5.56389,57.68786902,11.97897698,57.68786950,11.97897533,15:01:25.141669,0.00718,0.00000,0.00000,-0.06536,0.00000,0.00423,0.00207,-0.00218,-0.04099,-0.12786,0.98887,5.55968,0.00000,1.97225,1.97225,-0.20903,0.11301,5.49759,-0.30709,0.16679,0.00000,0.00000,A,150125.00
5.57478,57.68786902,11.97897698,57.68786950,11.97897533,15:01:25.152551,0.00768,0.00000,0.00000,-0.06661,0.00000,0.00041,-0.00343,-0.00218,-0.04453,-0.12786,0.99253,5.57057,0.00000,1.97225,1.97225,-0.20903,0.11301,5.49759,-0.30709,0.16679,0.00000,0.00000,A,150125.00
5.58510,57.68786902,11.97897698,57.68786950,11.97897533,15:01:25.162880,0.00778,0.00000,0.00000,-0.06789,0.00000,-0.00127,0.00008,-0.00080,-0.04252,-0.12908,0.99021,5.58060,0.00000,1.97225,1.97225,-0.20903,0.11301,5.49759,-0.30709,0.16679,0.00000,0.00000,A,150125.00
5.59458,57.68786902,11.97897698,57.68786950,11.97897533,15:01:25.172361,0.00687,0.00000,0.00000,-0.06915,0.00000,-0.00219,-0.00129,-0.00004,-0.04209,-0.12920,0.99058,5.59012,0.00000,1.97225,1.97225,-0.20903,0.11301,5.49759,-0.30709,0.16679,0.00000,0.00000,A,150125.00
5.62475,57.68786902,11.97897698,57.68786950,11.97897517,15:01:25.202536,0.02665,0.00000,0.00000,-0.07041,0.00000,-0.00280,0.00176,0.00073,-0.04130,-0.12956,0.98875,5.60068,0.00000,1.97225,1.97225,-0.20903,0.11301,5.61868,-0.31700,0.16679,3.14159,3.14159,A,150125.10
5.64345,57.68786904,11.97897689,57.68786950,11.97897517,15:01:25.221235,0.01152,0.00000,0.00000,-0.07157,0.00000,0.00041,0.00039,-0.00050,-0.04337,-0.12718,0.99143,5.63323,0.00000,2.14765,2.14765,-0.21443,0.11569,5.61868,-0.31700,0.16679,3.14159,3.14159,A,150125.10
5.65872,57.68786904,11.97897689,57.68786950,11.97897517,15:01:25.236526,0.00659,0.00000,0.00000,-0.07268,0.00000,0.00423,0.00039,-0.00141,-0.04203,-0.12920,0.99058,5.65315,0.00000,2.14765,2.14765,-0.21443,0.11569,5.61868,-0.31700,0.16679,3.14159,3.14159,A,150125.10
5.67083,57.68786904,11.97897689,57.68786950,11.97897517,15:01:25.248611,0.00792,0.00000,0.00000,-0.07376,0.00000,0.00591,0.00131,-0.00340,-0.04398,-0.12877,0.99180,5.66664,0.00000,2.14765,2.14765,-0.21443,0.11569,5.61868,-0.31700,0.16679,3.14159,3.14159,A,150125.10
5.68098,57.68786904,11.97897689,57.68786950,11.97897517,15:01:25.258761,0.00784,0.00000,0.00000,-0.07486,0.00000,0.00133,-0.00144,-0.00431,-0.04160,-0.12670,0.99162,5.67657,0.00000,2.14765,2.14765,-0.21443,0.11569,5.61868,-0.31700,0.16679,3.14159,3.14159,A,150125.10
5.69105,57.68786904,11.97897689,57.68786950,11.97897517,15:01:25.268834,0.00753,0.00000,0.00000,-0.07596,0.00000,0.00148,0.00085,-0.00095,-0.04264,-0.12737,0.99259,5.68685,0.00000,2.14765,2.14765,-0.21443,0.11569,5.61868,-0.31700,0.16679,3.14159,3.14159,A,150125.10
5.70156,57.68786904,11.97897689,57.68786950,11.97897517,15:01:25.279344,0.00766,0.00000,0.00000,-0.07706,0.00000,0.00163,0.00054,0.00073,-0.04355,-0.12944,0.99143,5.69713,0.00000,2.14765,2.14765,-0.21443,0.11569,5.61868,-0.31700,0.16679,3.14159,3.14159,A,150125.10
