Time,lat_estimated,lon_estimated,latitude,longitude,RealTime,CalculationTime,MeasuredVelocity,Roll,SteeringAngle,RollRate,gy,gz,ax,ay,az,imu_read_timing,v_estimated,yaw_estimated,heading_estimated,x_estimated,y_estimated,GPS_timestamp,x_GPS,y_GPS,status,NMEA timestamp
0.05087,0.00000000,0.00000000,57.68799,11.98128,14:49:30.905141,0.05083,0.00000,-0.00045,0.08485,-0.02383,0.01411,0.00656,0.01074,0.00628,0.98576,0.00001,0.00000,0.00000,0.00000,0.00000,0.00000,0.01827,-0.31700,-2.00151,A,144930.80
0.06167,0.00000000,0.00000000,57.68799,11.98128,14:49:30.915856,0.00407,0.00000,-0.00202,0.08157,-0.02215,0.00983,0.00610,0.01415,-0.00061,0.98527,0.05729,0.00000,0.00000,0.00000,0.00000,0.00000,0.01827,-0.31700,-2.00151,A,144930.80
0.07113,0.00000000,0.00000000,57.68799,11.98128,14:49:30.925288,0.00313,0.00000,-0.00259,0.08103,-0.02322,0.00846,0.00640,0.01732,-0.00342,0.99033,0.06746,0.00000,0.00000,0.00000,0.00000,0.00000,0.01827,-0.31700,-2.00151,A,144930.80
0.08130,0.00000000,0.00000000,57.68799,11.98128,14:49:30.935683,0.00290,0.00000,-0.00308,0.08046,-0.02139,0.00663,0.00472,0.01726,0.00018,1.00022,0.07762,0.00000,0.00000,0.00000,0.00000,0.00000,0.01827,-0.31700,-2.00151,A,144930.80
0.09190,0.00000000,0.00000000,57.68799,11.98128,14:49:30.946047,0.00311,0.00000,-0.00363,0.07993,-0.02077,0.00724,0.00503,0.02062,-0.00403,0.99930,0.08821,0.00000,0.00000,0.00000,0.00000,0.00000,0.01827,-0.31700,-2.00151,A,144930.80
0.10287,0.00000000,0.00000000,57.68799,11.98128,14:49:30.957042,0.00369,0.00000,-0.00426,0.07939,-0.02077,0.00220,0.00213,0.02519,-0.00958,0.99326,0.09918,0.00000,0.00000,0.00000,0.00000,0.00000,0.01827,-0.31700,-2.00151,A,144930.80
0.11307,0.00000000,0.00000000,57.68799,11.98128,14:49:30.967435,0.00302,0.00000,-0.00484,0.07888,-0.02047,0.00067,0.00595,0.01360,-0.00823,0.99296,0.10938,0.00000,0.00000,0.00000,0.00000,0.00000,0.01827,-0.31700,-2.00151,A,144930.80
0.13774,0.00000000,0.00000000,57.68799,11.98128,14:49:30.991926,0.01730,0.00000,-0.00537,0.07837,-0.02337,-0.00345,0.01068,0.00293,-0.00323,0.98777,0.11994,0.00000,0.00000,0.00000,0.00000,0.00000,0.13643,-0.31700,-2.00151,A,144930.90
0.15157,0.00000000,0.00000000,57.68799,11.98128,14:49:31.005764,0.00747,0.00000,-0.00608,0.07721,-0.02077,-0.00559,0.01053,-0.00329,0.00616,0.99717,0.14746,0.00000,0.00000,0.00000,0.00000,0.00000,0.13643,-0.31700,-2.00151,A,144930.90
0.15762,0.00000000,0.00000000,57.68799,11.98128,14:49:31.011791,0.00313,0.00000,-0.00637,0.07676,-0.02322,-0.00360,0.01037,-0.01751,0.00488,1.01162,0.15373,0.00000,0.00000,0.00000,0.00000,0.00000,0.13643,-0.31700,-2.00151,A,144930.90
0.16804,0.00000000,0.00000000,57.68799,11.98128,14:49:31.022192,0.00315,0.00000,-0.00683,0.07619,-0.02093,0.00174,0.00701,-0.00714,-0.00116,1.01803,0.16436,0.00000,0.00000,0.00000,0.00000,0.00000,0.13643,-0.31700,-2.00151,A,144930.90
0.17839,0.00000000,0.00000000,57.68799,11.98128,14:49:31.032557,0.00311,0.00000,-0.00740,0.07565,-0.02444,0.00632,0.00320,0.01677,-0.00762,1.00985,0.17470,0.00000,0.00000,0.00000,0.00000,0.00000,0.13643,-0.31700,-2.00151,A,144930.90
0.18929,0.00000000,0.00000000,57.68799,11.98128,14:49:31.043802,0.00336,0.00000,-0.00804,0.07512,-0.02612,0.00281,0.00824,0.02477,-0.00988,0.99540,0.18557,0.00000,0.00000,0.00000,0.00000,0.00000,0.13643,-0.31700,-2.00151,A,144930.90
0.20061,0.00000000,0.00000000,57.68799,11.98128,14:49:31.054796,0.00406,0.00000,-0.00858,0.07463,-0.02994,0.00144,0.00549,-0.00396,-0.00281,0.99942,0.19603,0.00000,0.00000,0.00000,0.00000,0.00000,0.13643,-0.31700,-2.00151,A,144930.90
0.21023,0.00000000,0.00000000,57.68799,11.98128,14:49:31.064400,0.00329,0.00000,-0.00905,0.07432,-0.02612,0.00434,0.00533,-0.00683,-0.00079,1.00101,0.20653,0.00000,0.00000,0.00000,0.00000,0.00000,0.13643,-0.31700,-2.00151,A,144930.90
0.22045,0.00000000,0.00000000,57.68799,11.98128,14:49:31.074609,0.00311,0.00000,-0.00947,0.07410,-0.02215,0.00663,0.00152,0.01257,-0.00110,0.99137,0.21676,0.00000,0.00000,0.00000,0.00000,0.00000,0.13643,-0.31700,-2.00151,A,144930.90
0.23085,0.00000000,0.00000000,57.68799,11.98128,14:49:31.085011,0.00312,0.00000,-0.01006,0.07398,-0.02322,0.00250,0.00610,0.03337,-0.01153,0.97307,0.22717,0.00000,0.00000,0.00000,0.00000,0.00000,0.13643,-0.31700,-2.00151,A,144930.90
0.25271,0.00000000,0.00000000,57.68799,11.98128,14:49:31.106878,0.01475,0.00000,-0.01081,0.07390,-0.02307,-0.00422,0.00854,0.02922,-0.02306,0.96661,0.23721,0.00000,0.00000,0.00000,0.00000,0.00000,0.25159,-0.34672,-2.00151,A,144931.00
0.26450,0.00000000,0.00000000,57.68799,11.98128,14:49:31.118657,0.00491,0.00000,-0.01141,0.07364,-0.02307,-0.00681,0.00961,-0.02904,0.00616,1.01748,0.26079,0.00000,0.00000,0.00000,0.00000,0.00000,0.25159,-0.34672,-2.00151,A,144931.00
0.27298,0.00000000,0.00000000,57.68799,11.98128,14:49:31.127138,0.00295,0.00000,-0.01175,0.07342,-0.02566,-0.00177,0.00915,-0.02379,0.00152,1.02205,0.26930,0.00000,0.00000,0.00000,0.00000,0.00000,0.25159,-0.34672,-2.00151,A,144931.00
0.28354,0.00000000,0.00000000,57.68799,11.98128,14:49:31.137700,0.00311,0.00000,-0.01238,0.07305,-0.02444,0.00464,0.00595,0.01525,-0.01598,0.99534,0.27987,0.00000,0.00000,0.00000,0.00000,0.00000,0.25159,-0.34672,-2.00151,A,144931.00
0.29395,0.00000000,0.00000000,57.68799,11.98128,14:49:31.148109,0.00312,0.00000,-0.01302,0.07257,-0.02994,0.00953,0.00427,0.01507,-0.01403,0.99229,0.29004,0.00000,0.00000,0.00000,0.00000,0.00000,0.25159,-0.34672,-2.00151,A,144931.00
0.30449,0.00000000,0.00000000,57.68799,11.98128,14:49:31.158647,0.00327,0.00000,-0.01359,0.07206,-0.03040,0.00800,0.00411,-0.01659,-0.00848,0.99656,0.30080,0.00000,0.00000,0.00000,0.00000,0.00000,0.25159,-0.34672,-2.00151,A,144931.00
0.31466,0.00000000,0.00000000,57.68799,11.98128,14:49:31.168819,0.00315,0.00000,-0.01386,0.07158,-0.03101,0.01045,0.00427,-0.01909,0.01013,1.00888,0.31096,0.00000,0.00000,0.00000,0.00000,0.00000,0.25159,-0.34672,-2.00151,A,144931.00
0.32483,0.00000000,0.00000000,57.68799,11.98128,14:49:31.178988,0.00295,0.00000,-0.01428,0.07107,-0.02994,0.01258,0.00289,0.01677,-0.00085,1.02382,0.32115,0.00000,0.00000,0.00000,0.00000,0.00000,0.25159,-0.34672,-2.00151,A,144931.00
0.33538,0.00000000,0.00000000,57.68799,11.98128,14:49:31.189538,0.00311,0.00000,-0.01477,0.07056,-0.03238,0.00113,0.00457,0.05228,-0.00329,1.01736,0.33170,0.00000,0.00000,0.00000,0.00000,0.00000,0.25159,-0.34672,-2.00151,A,144931.00
0.34592,0.00000000,0.00000000,57.68799,11.98128,14:49:31.200097,0.00326,0.00000,-0.01532,0.07005,-0.02490,-0.01109,0.00671,0.03093,-0.01421,1.01126,0.34189,0.00000,0.00000,0.00000,0.00000,0.00000,0.25159,-0.34672,-2.00151,A,144931.00
0.36796,0.00000000,0.00000000,57.68799,11.98128,14:49:31.222126,0.01490,0.00000,-0.01597,0.06954,-0.02200,-0.00696,0.00656,-0.02080,-0.02233,1.00546,0.35248,0.00000,0.00000,0.00000,0.00000,0.00000,0.36684,-0.36653,-1.96444,A,144931.10
0.38190,0.00000000,0.00000000,57.68799,11.98128,14:49:31.236068,0.00501,0.00000,-0.01719,0.06852,-0.02704,0.01991,0.00518,-0.01543,-0.02946,0.95483,0.37797,0.00000,0.00000,0.00000,0.00000,0.00000,0.36684,-0.36653,-1.96444,A,144931.10
0.39040,0.00000000,0.00000000,57.68799,11.98128,14:49:31.244558,0.00311,0.00000,-0.01768,0.06812,-0.03391,0.01778,0.00992,0.01074,-0.00897,0.94989,0.38670,0.00000,0.00000,0.00000,0.00000,0.00000,0.36684,-0.36653,-1.96444,A,144931.10
0.40063,0.00000000,0.00000000,57.68799,11.98128,14:49:31.254793,0.00301,0.00000,-0.01774,0.06764,-0.02658,0.01671,0.00717,0.00659,0.01702,0.98460,0.39693,0.00000,0.00000,0.00000,0.00000,0.00000,0.36684,-0.36653,-1.96444,A,144931.10
0.41111,0.00000000,0.00000000,57.68799,11.98128,14:49:31.265271,0.00311,0.00000,-0.01767,0.06708,-0.02245,0.01579,0.00167,-0.02562,0.02391,1.03120,0.40743,0.00000,0.00000,0.00000,0.00000,0.00000,0.36684,-0.36653,-1.96444,A,144931.10
0.42128,0.00000000,0.00000000,57.68799,11.98128,14:49:31.275680,0.00289,0.00000,-0.01796,0.06648,-0.01955,0.01747,-0.00016,-0.00506,-0.00256,1.05255,0.41762,0.00000,0.00000,0.00000,0.00000,0.00000,0.36684,-0.36653,-1.96444,A,144931.10
0.43196,0.00000000,0.00000000,57.68799,11.98128,14:49:31.286118,0.00318,0.00000,-0.01863,0.06592,-0.01894,0.01304,-0.00200,0.01739,-0.03013,1.04743,0.42828,0.00000,0.00000,0.00000,0.00000,0.00000,0.36684,-0.36653,-1.96444,A,144931.10
0.44231,0.00000000,0.00000000,57.68799,11.98128,14:49:31.296468,0.00313,0.00000,-0.01957,0.06538,-0.02612,0.01625,-0.00368,0.04764,-0.04362,1.03047,0.43862,0.00000,0.00000,0.00000,0.00000,0.00000,0.36684,-0.36653,-1.96444,A,144931.10
0.45279,0.00000000,0.00000000,57.68799,11.98128,14:49:31.306947,0.00297,0.00000,-0.02013,0.06487,-0.02261,0.00495,-0.00245,0.02105,-0.02031,1.01010,0.44910,0.00000,0.00000,0.00000,0.00000,0.00000,0.36684,-0.36653,-1.96444,A,144931.10
0.46331,0.00000000,0.00000000,57.68799,11.98128,14:49:31.317468,0.00310,0.00000,-0.02064,0.06433,-0.02566,0.00266,-0.00276,0.00134,-0.01531,0.97197,0.45964,0.00000,0.00000,0.00000,0.00000,0.00000,0.36684,-0.36653,-1.96444,A,144931.10
0.48534,0.00000000,0.00000000,57.68799,11.98128,14:49:31.339727,0.01474,0.00000,-0.02129,0.06377,-0.01909,0.00434,-0.00169,-0.00982,-0.02806,0.93348,0.46983,0.00000,0.00000,0.00000,0.00000,0.00000,0.48422,-0.34672,-1.92738,A,144931.20
0.50131,0.00000000,0.00000000,57.68799,11.98128,14:49:31.355774,0.00514,0.00000,-0.02168,0.06210,-0.01207,0.00785,-0.00307,-0.00695,-0.00427,0.96654,0.49758,0.00000,0.00000,0.00000,0.00000,0.00000,0.48422,-0.34672,-1.92738,A,144931.20
0.50968,0.00000000,0.00000000,57.68799,11.98128,14:49:31.363851,0.00312,0.00000,-0.02178,0.06142,-0.00123,0.01167,0.00029,-0.00427,-0.00622,1.00528,0.50578,0.00000,0.00000,0.00000,0.00000,0.00000,0.48422,-0.34672,-1.92738,A,144931.20
0.52007,0.00000000,0.00000000,57.68799,11.98128,14:49:31.374225,0.00312,0.00000,-0.02219,0.06068,0.00259,0.01319,-0.00368,0.02178,-0.03190,1.05292,0.51639,0.00000,0.00000,0.00000,0.00000,0.00000,0.48422,-0.34672,-1.92738,A,144931.20
0.53045,0.00000000,0.00000000,57.68799,11.98128,14:49:31.384611,0.00311,0.00000,-0.02280,0.05997,-0.00245,0.01029,-0.00444,0.04252,-0.04264,1.06787,0.52677,0.00000,0.00000,0.00000,0.00000,0.00000,0.48422,-0.34672,-1.92738,A,144931.20
0.54077,0.00000000,0.00000000,57.68799,11.98128,14:49:31.394929,0.00296,0.00000,-0.02329,0.05921,0.00106,0.00495,-0.00597,0.04514,-0.03654,1.04536,0.53709,0.00000,0.00000,0.00000,0.00000,0.00000,0.48422,-0.34672,-1.92738,A,144931.20
0.55130,0.00000000,0.00000000,57.68799,11.98128,14:49:31.405464,0.00310,0.00000,-0.02381,0.05847,0.00259,-0.00360,-0.00322,0.03788,-0.03843,0.99277,0.54762,0.00000,0.00000,0.00000,0.00000,0.00000,0.48422,-0.34672,-1.92738,A,144931.20
0.56170,0.00000000,0.00000000,57.68799,11.98128,14:49:31.415865,0.00311,0.00000,-0.02400,0.05785,0.00641,-0.01063,-0.00719,0.02989,-0.01909,0.94855,0.55781,0.00000,0.00000,0.00000,0.00000,0.00000,0.48422,-0.34672,-1.92738,A,144931.20
0.57210,0.00000000,0.00000000,57.68799,11.98128,14:49:31.426262,0.00312,0.00000,-0.02395,0.05731,0.01481,-0.01933,-0.00490,0.00171,-0.00952,0.95428,0.56843,0.00000,0.00000,0.00000,0.00000,0.00000,0.48422,-0.34672,-1.92738,A,144931.20
0.58248,0.00000000,0.00000000,57.68799,11.98128,14:49:31.436637,0.00310,0.00000,-0.02397,0.05686,0.02642,-0.01292,0.00029,-0.02678,-0.02147,0.98558,0.57879,0.00000,0.00000,0.00000,0.00000,0.00000,0.48422,-0.34672,-1.92738,A,144931.20
0.61502,0.00000000,0.00000000,57.68799,11.98128,14:49:31.469187,0.02521,0.00000,-0.02423,0.05649,0.03451,-0.00223,0.00228,-0.02159,-0.04355,0.99723,0.58905,0.00000,0.00000,0.00000,0.00000,0.00000,0.61387,-0.35662,-1.87178,A,144931.40
0.63205,0.00000000,0.00000000,57.68799,11.98128,14:49:31.486213,0.00567,0.00000,-0.02267,0.05508,0.03634,0.02175,-0.00230,0.05533,0.00695,0.96990,0.62835,0.00000,0.00000,0.00000,0.00000,0.00000,0.61387,-0.35662,-1.87178,A,144931.40
0.63992,0.00000000,0.00000000,57.68799,11.98128,14:49:31.494074,0.00314,0.00000,-0.02223,0.05462,0.03802,0.00342,-0.00566,0.08601,0.00738,0.94074,0.63624,0.00000,0.00000,0.00000,0.00000,0.00000,0.61387,-0.35662,-1.87178,A,144931.40
0.65030,0.00000000,0.00000000,57.68799,11.98128,14:49:31.504459,0.00313,0.00000,-0.02183,0.05400,0.04001,-0.02132,-0.01299,0.07454,-0.00165,0.89438,0.64661,0.00000,0.00000,0.00000,0.00000,0.00000,0.61387,-0.35662,-1.87178,A,144931.40
0.66065,0.00000000,0.00000000,57.68799,11.98128,14:49:31.514808,0.00295,0.00000,-0.02176,0.05341,0.04321,-0.03995,-0.01589,-0.01781,-0.02342,0.92476,0.65696,0.00000,0.00000,0.00000,0.00000,0.00000,0.61387,-0.35662,-1.87178,A,144931.40
0.67121,0.00000000,0.00000000,57.68799,11.98128,14:49:31.525370,0.00311,0.00000,-0.02217,0.05295,0.04092,-0.03476,-0.01757,-0.06850,-0.05581,0.98954,0.66754,0.00000,0.00000,0.00000,0.00000,0.00000,0.61387,-0.35662,-1.87178,A,144931.40
0.68161,0.00000000,0.00000000,57.68799,11.98128,14:49:31.535784,0.00312,0.00000,-0.02253,0.05270,0.03711,-0.01872,-0.01009,-0.10181,-0.05386,1.07031,0.67772,0.00000,0.00000,0.00000,0.00000,0.00000,0.61387,-0.35662,-1.87178,A,144931.40
0.69201,0.00000000,0.00000000,57.68799,11.98128,14:49:31.546174,0.00312,0.00000,-0.02260,0.05264,0.02764,0.00586,-0.00505,-0.01842,-0.02830,1.11789,0.68834,0.00000,0.00000,0.00000,0.00000,0.00000,0.61387,-0.35662,-1.87178,A,144931.40
0.70239,0.00000000,0.00000000,57.68799,11.98128,14:49:31.556548,0.00310,0.00000,-0.02240,0.05264,0.02596,0.01136,-0.00200,0.02708,-0.00641,1.08122,0.69870,0.00000,0.00000,0.00000,0.00000,0.00000,0.61387,-0.35662,-1.87178,A,144931.40
0.71274,0.00000000,0.00000000,57.68799,11.98128,14:49:31.566896,0.00293,0.00000,-0.02166,0.05261,0.02596,0.00205,-0.00001,0.03385,0.02916,0.95288,0.70905,0.00000,0.00000,0.00000,0.00000,0.00000,0.61387,-0.35662,-1.87178,A,144931.40
0.73578,0.00000000,0.00000000,57.68799,11.98128,14:49:31.589950,0.01559,0.00000,-0.02070,0.05256,0.02397,-0.01185,-0.00276,0.04130,0.03861,0.82673,0.71963,0.00000,0.00000,0.00000,0.00000,0.00000,0.73467,-0.35662,-1.79765,A,144931.50
0.74720,0.00000000,0.00000000,57.68799,11.98128,14:49:31.601365,0.00479,0.00000,-0.01935,0.05253,0.04734,-0.00498,-0.01437,-0.14274,0.01708,1.04792,0.74350,0.00000,0.00000,0.00000,0.00000,0.00000,0.73467,-0.35662,-1.79765,A,144931.50
0.75595,0.00000000,0.00000000,57.68799,11.98128,14:49:31.610098,0.00314,0.00000,-0.01977,0.05253,0.04535,0.01381,-0.01818,0.02330,-0.05612,1.06323,0.75226,0.00000,0.00000,0.00000,0.00000,0.00000,0.73467,-0.35662,-1.79765,A,144931.50
0.76632,0.00000000,0.00000000,57.68799,11.98128,14:49:31.620475,0.00312,0.00000,-0.02091,0.05253,0.03466,0.01243,-0.01269,0.10163,-0.10254,1.03737,0.76262,0.00000,0.00000,0.00000,0.00000,0.00000,0.73467,-0.35662,-1.79765,A,144931.50
0.77665,0.00000000,0.00000000,57.68799,11.98128,14:49:31.630806,0.00293,0.00000,-0.02132,0.05253,0.02214,-0.00987,-0.00200,0.00213,-0.04386,1.04853,0.77297,0.00000,0.00000,0.00000,0.00000,0.00000,0.73467,-0.35662,-1.79765,A,144931.50
0.78724,0.00000000,0.00000000,57.68799,11.98128,14:49:31.641393,0.00311,0.00000,-0.02021,0.05253,0.01603,-0.00758,0.00793,-0.13572,0.06917,1.10941,0.78355,0.00000,0.00000,0.00000,0.00000,0.00000,0.73467,-0.35662,-1.79765,A,144931.50
0.79762,0.00000000,0.00000000,57.68799,11.98128,14:49:31.652148,0.00327,0.00000,-0.01923,0.05253,0.02764,0.01258,0.00946,-0.17178,0.05185,1.08354,0.79372,0.00000,0.00000,0.00000,0.00000,0.00000,0.73467,-0.35662,-1.79765,A,144931.50
0.80803,0.00000000,0.00000000,57.68799,11.98128,14:49:31.662194,0.00329,0.00000,-0.01838,0.05253,0.03420,0.03488,0.01312,0.04459,0.03257,0.93849,0.80435,0.00000,0.00000,0.00000,0.00000,0.00000,0.73467,-0.35662,-1.79765,A,144931.50
0.81828,0.00000000,0.00000000,57.68799,11.98128,14:49:31.672440,0.00314,0.00000,-0.01810,0.05253,0.03191,0.01472,0.01190,0.19184,-0.00012,0.81459,0.81459,0.00000,0.00000,0.00000,0.00000,0.00000,0.73467,-0.35662,-1.79765,A,144931.50
0.82861,0.00000000,0.00000000,57.68799,11.98128,14:49:31.682768,0.00292,0.00000,-0.01822,0.05253,0.01939,-0.02880,0.01053,0.06795,-0.01519,0.82911,0.82493,0.00000,0.00000,0.00000,0.00000,0.00000,0.73467,-0.35662,-1.79765,A,144931.50
0.85187,0.00000000,0.00000000,57.68799,11.98128,14:49:31.706040,0.01573,0.00000,-0.01753,0.05253,0.01695,-0.03170,0.00213,-0.17635,0.03630,0.97478,0.83560,0.00000,0.00000,0.00000,0.00000,0.00000,0.85076,-0.39625,-1.74205,A,144931.60
0.86799,0.00000000,0.00000000,57.68799,11.98128,14:49:31.722153,0.00413,0.00000,-0.01809,0.05253,0.00091,-0.00177,0.00472,0.12468,-0.03715,1.04530,0.86429,0.00000,0.00000,0.00000,0.00000,0.00000,0.85076,-0.39625,-1.74205,A,144931.60
0.87704,0.00000000,0.00000000,57.68799,11.98128,14:49:31.731198,0.00295,0.00000,-0.01819,0.05253,-0.00764,-0.01521,0.00869,0.03135,0.00092,1.09831,0.87334,0.00000,0.00000,0.00000,0.00000,0.00000,0.85076,-0.39625,-1.74205,A,144931.60
0.88761,0.00000000,0.00000000,57.68799,11.98128,14:49:31.741765,0.00313,0.00000,-0.01756,0.05253,-0.00978,-0.00880,0.01373,-0.10895,0.05862,1.13930,0.88393,0.00000,0.00000,0.00000,0.00000,0.00000,0.85076,-0.39625,-1.74205,A,144931.60
0.89870,0.00000000,0.00000000,57.68799,11.98128,14:49:31.752873,0.00371,0.00000,-0.01713,0.05253,-0.00566,0.01426,0.01511,-0.17727,0.03886,1.07189,0.89474,0.00000,0.00000,0.00000,0.00000,0.00000,0.85076,-0.39625,-1.74205,A,144931.60
0.90851,0.00000000,0.00000000,57.68799,11.98128,14:49:31.762662,0.00294,0.00000,-0.01746,0.05253,-0.01070,0.02633,0.01404,-0.02983,-0.01068,0.97252,0.90483,0.00000,0.00000,0.00000,0.00000,0.00000,0.85076,-0.39625,-1.74205,A,144931.60
0.91909,0.00000000,0.00000000,57.68799,11.98128,14:49:31.773247,0.00312,0.00000,-0.01810,0.05256,-0.01543,0.02312,0.01251,0.05838,-0.02550,0.90670,0.91541,0.00000,0.00000,0.00000,0.00000,0.00000,0.85076,-0.39625,-1.74205,A,144931.60
0.92914,0.00000000,0.00000000,57.68799,11.98128,14:49:31.783503,0.00295,0.00000,-0.01782,0.05261,-0.02658,0.00434,0.00992,0.03916,0.03526,0.90670,0.92546,0.00000,0.00000,0.00000,0.00000,0.00000,0.85076,-0.39625,-1.74205,A,144931.60
0.93971,0.00000000,0.00000000,57.68799,11.98128,14:49:31.793872,0.00312,0.00000,-0.01771,0.05264,-0.02551,0.00342,0.00671,-0.03239,0.02678,0.93751,0.93603,0.00000,0.00000,0.00000,0.00000,0.00000,0.85076,-0.39625,-1.74205,A,144931.60
0.95042,0.00000000,0.00000000,57.68799,11.98128,14:49:31.804585,0.00337,0.00000,-0.01803,0.05264,-0.02337,0.00999,0.00732,-0.08028,-0.00220,0.97606,0.94671,0.00000,0.00000,0.00000,0.00000,0.00000,0.85076,-0.39625,-1.74205,A,144931.60
0.97398,0.00000000,0.00000000,57.68799,11.98128,14:49:31.828155,0.01637,0.00000,-0.01879,0.05264,-0.03238,0.01381,0.00381,-0.04764,-0.02593,1.00321,0.95686,0.00000,0.00000,0.00000,0.00000,0.00000,0.97271,-0.47550,-1.61233,A,144931.70
0.98264,0.00000000,0.00000000,57.68799,11.98128,14:49:31.836807,0.00315,0.00000,-0.01931,0.05264,-0.03757,-0.01338,0.00335,0.05655,0.02269,1.02376,0.97895,0.00000,0.00000,0.00000,0.00000,0.00000,0.97271,-0.47550,-1.61233,A,144931.70
0.99277,0.00000000,0.00000000,57.68799,11.98128,14:49:31.846925,0.00295,0.00000,-0.01953,0.05264,-0.03757,-0.02193,0.00213,-0.01928,0.01244,1.02535,0.98908,0.00000,0.00000,0.00000,0.00000,0.00000,0.97271,-0.47550,-1.61233,A,144931.70
1.00333,0.00000000,0.00000000,57.68799,11.98128,14:49:31.857490,0.00311,0.00000,-0.01986,0.05264,-0.03650,-0.01582,0.00396,-0.14103,0.00494,1.07232,0.99965,0.00000,0.00000,0.00000,0.00000,0.00000,0.97271,-0.47550,-1.61233,A,144931.70
1.01376,0.00000000,0.00000000,57.68799,11.98128,14:49:31.867924,0.00315,0.00000,-0.02075,0.05264,-0.03635,0.01121,0.00564,-0.11071,-0.03471,1.02510,1.00986,0.00000,0.00000,0.00000,0.00000,0.00000,0.97271,-0.47550,-1.61233,A,144931.70
1.02412,0.00000000,0.00000000,57.68799,11.98128,14:49:31.878281,0.00312,0.00000,-0.02193,0.05264,-0.04093,0.01778,0.00518,0.04276,-0.04575,0.91677,1.02044,0.00000,0.00000,0.00000,0.00000,0.00000,0.97271,-0.47550,-1.61233,A,144931.70
1.03471,0.00000000,0.00000000,57.68799,11.98128,14:49:31.888875,0.00331,0.00000,-0.02276,0.05264,-0.04567,0.00205,0.00763,0.08113,-0.02166,0.88517,1.03101,0.00000,0.00000,0.00000,0.00000,0.00000,0.97271,-0.47550,-1.61233,A,144931.70
1.04475,0.00000000,0.00000000,57.68799,11.98128,14:49:31.898906,0.00293,0.00000,-0.02269,0.05264,-0.04414,-0.01261,0.01312,-0.08540,0.03105,0.96953,1.04107,0.00000,0.00000,0.00000,0.00000,0.00000,0.97271,-0.47550,-1.61233,A,144931.70
1.05533,0.00000000,0.00000000,57.68799,11.98128,14:49:31.909483,0.00312,0.00000,-0.02220,0.05264,-0.03803,0.00266,0.01083,-0.14219,0.06112,1.05640,1.05165,0.00000,0.00000,0.00000,0.00000,0.00000,0.97271,-0.47550,-1.61233,A,144931.70
1.06573,0.00000000,0.00000000,57.68799,11.98128,14:49:31.919898,0.00312,0.00000,-0.02265,0.05264,-0.03269,0.03228,0.00488,-0.05222,-0.00994,1.06091,1.06183,0.00000,0.00000,0.00000,0.00000,0.00000,0.97271,-0.47550,-1.61233,A,144931.70
1.08986,0.00000000,0.00000000,57.68799,11.98128,14:49:31.944042,0.01685,0.00000,-0.02397,0.05264,-0.03910,0.02923,0.00121,0.05630,-0.06161,0.98265,1.07245,0.00000,0.00000,0.00000,0.00000,0.00000,1.08844,-0.55474,-1.59379,A,144931.80
1.10307,0.00000000,0.00000000,57.68799,11.98128,14:49:31.957238,0.00448,0.78404,-0.02460,0.05264,-0.05437,0.01167,-0.00230,-0.11986,0.05588,1.04206,1.09938,0.00000,0.00000,0.00000,0.00000,0.00000,1.08844,-0.55474,-1.59379,A,144931.80
1.11213,0.00000000,0.00000000,57.68799,11.98128,14:49:31.966287,0.00313,0.78404,-0.02495,0.05264,-0.04781,0.02679,-0.00612,-0.05655,0.00464,0.99436,1.10845,0.00000,0.00000,0.00000,0.00000,0.00000,1.08844,-0.55474,-1.59379,A,144931.80
1.12249,0.00000000,0.00000000,57.68799,11.98128,14:49:31.976651,0.00311,0.78404,-0.02601,0.05264,-0.04689,0.02007,-0.00307,0.02367,-0.03782,0.95404,1.11880,0.00000,0.00000,0.00000,0.00000,0.00000,1.08844,-0.55474,-1.59379,A,144931.80
1.13271,0.00000000,0.00000000,57.68799,11.98128,14:49:31.986870,0.00291,0.78404,-0.02701,0.05264,-0.05437,-0.00040,-0.00337,0.06118,-0.03099,0.95990,1.12904,0.00000,0.00000,0.00000,0.00000,0.00000,1.08844,-0.55474,-1.59379,A,144931.80
1.14330,0.00000000,0.00000000,57.68799,11.98128,14:49:31.997457,0.00310,0.78404,-0.02751,0.05264,-0.05147,-0.01429,-0.00581,-0.00177,-0.00098,1.02053,1.13963,0.00000,0.00000,0.00000,0.00000,0.00000,1.08844,-0.55474,-1.59379,A,144931.80
1.15371,0.00000000,0.00000000,57.68799,11.98128,14:49:32.007885,0.00311,0.78404,-0.02790,0.05264,-0.04429,-0.01964,-0.00245,-0.06112,0.00024,0.98039,1.14982,0.00000,0.00000,0.00000,0.00000,0.00000,1.08844,-0.55474,-1.59379,A,144931.80
1.16411,0.00000000,0.00000000,57.68799,11.98128,14:49:32.018264,0.00312,0.78404,-0.02867,0.05264,-0.03528,-0.01872,0.00518,-0.08412,-0.02910,0.95599,1.16042,0.00000,0.00000,0.00000,0.00000,0.00000,1.08844,-0.55474,-1.59379,A,144931.80
1.17531,0.00000000,0.00000000,57.68799,11.98128,14:49:32.029473,0.00331,0.78404,-0.03004,0.05264,-0.04002,-0.01078,0.00747,-0.06661,-0.06429,0.96496,1.17162,0.00000,0.00000,0.00000,0.00000,0.00000,1.08844,-0.55474,-1.59379,A,144931.80
1.18746,0.00000000,0.00000000,57.68799,11.98128,14:49:32.041640,0.00507,0.78404,-0.03103,0.05264,-0.04231,-0.01032,0.00915,-0.02001,-0.03843,0.96276,1.18337,0.00000,0.00000,0.00000,0.00000,0.00000,1.08844,-0.55474,-1.59379,A,144931.80
1.22245,0.00000000,0.00000000,57.68799,11.98127,14:49:32.076614,0.02966,0.78404,-0.03133,0.05264,-0.03574,-0.01200,0.00915,-0.01976,-0.00628,0.98997,1.19224,0.00000,0.00000,0.00000,0.00000,0.00000,1.22106,-0.63399,-1.42700,A,144932.00
1.23902,0.00000000,0.00000000,57.68799,11.98127,14:49:32.093185,0.00391,0.78404,-0.03329,0.05264,-0.03360,0.01579,-0.00368,-0.01885,-0.04459,1.03444,1.23531,0.00000,0.00000,0.00000,0.00000,0.00000,1.22106,-0.63399,-1.42700,A,144932.00
1.24858,0.00000000,0.00000000,57.68799,11.98127,14:49:32.102729,0.00291,0.78404,-0.03392,0.05264,-0.03696,0.00296,-0.00780,0.01867,-0.02757,0.98478,1.24490,0.00000,0.00000,0.00000,0.00000,0.00000,1.22106,-0.63399,-1.42700,A,144932.00
1.25917,0.00000000,0.00000000,57.68799,11.98127,14:49:32.113328,0.00311,0.78404,-0.03424,0.05264,-0.04017,-0.00956,-0.01528,-0.02647,-0.00317,0.98545,1.25549,0.00000,0.00000,0.00000,0.00000,0.00000,1.22106,-0.63399,-1.42700,A,144932.00
1.26958,0.00000000,0.00000000,57.68799,11.98127,14:49:32.123750,0.00312,0.78404,-0.03440,0.05264,-0.02581,-0.00681,-0.01711,-0.05826,-0.00360,0.96600,1.26569,0.00000,0.00000,0.00000,0.00000,0.00000,1.22106,-0.63399,-1.42700,A,144932.00
1.27997,0.00000000,0.00000000,57.68799,11.98127,14:49:32.134122,0.00312,0.78404,-0.03544,0.05264,-0.01604,-0.00819,-0.01085,-0.04648,-0.06679,0.96880,1.27629,0.00000,0.00000,0.00000,0.00000,0.00000,1.22106,-0.63399,-1.42700,A,144932.00
1.29036,0.00000000,0.00000000,57.68799,11.98127,14:49:32.144519,0.00311,0.78404,-0.03622,0.05264,-0.01405,-0.00605,-0.00337,-0.01739,-0.05209,0.96593,1.28666,0.00000,0.00000,0.00000,0.00000,0.00000,1.22106,-0.63399,-1.42700,A,144932.00
1.30097,0.00000000,0.00000000,57.68799,11.98127,14:49:32.155124,0.00318,0.78404,-0.03695,0.05264,-0.01955,-0.01628,0.00228,0.02312,-0.04557,0.95861,1.29728,0.00000,0.00000,0.00000,0.00000,0.00000,1.22106,-0.63399,-1.42700,A,144932.00
1.31128,0.00000000,0.00000000,57.68799,11.98127,14:49:32.165439,0.00309,0.78404,-0.03709,0.05264,-0.01176,-0.02804,0.01037,-0.03410,-0.01372,0.98497,1.30760,0.00000,0.00000,0.00000,0.00000,0.00000,1.22106,-0.63399,-1.42700,A,144932.00
1.33435,0.00000000,0.00000000,57.68799,11.98127,14:49:32.188517,0.01578,0.78404,-0.03668,0.05264,-0.00535,-0.01720,0.01450,-0.09516,0.01781,1.01980,1.31780,0.00000,0.00000,0.00000,0.00000,0.00000,1.33299,-0.74296,-1.40847,A,144932.10
1.34793,0.00000000,0.00000000,57.68799,11.98127,14:49:32.202105,0.00500,0.78404,-0.03773,0.05264,-0.01146,-0.02071,-0.00047,0.03849,-0.06362,1.00613,1.34417,0.00000,0.00000,0.00000,0.00000,0.00000,1.33299,-0.74296,-1.40847,A,144932.10
1.35643,0.00000000,0.00000000,57.68799,11.98127,14:49:32.210593,0.00310,0.78404,-0.03774,0.05264,-0.02230,-0.03674,-0.00245,0.01470,-0.00152,0.98430,1.35276,0.00000,0.00000,0.00000,0.00000,0.00000,1.33299,-0.74296,-1.40847,A,144932.10
1.36687,0.00000000,0.00000000,57.68799,11.98127,14:49:32.221027,0.00314,0.78404,-0.03758,0.05264,-0.02230,-0.04362,-0.00673,-0.04483,0.01141,0.98247,1.36319,0.00000,0.00000,0.00000,0.00000,0.00000,1.33299,-0.74296,-1.40847,A,144932.10
1.37691,0.00000000,0.00000000,57.68799,11.98127,14:49:32.231073,0.00295,0.78404,-0.03761,0.05264,-0.01543,-0.04163,-0.00810,-0.10773,-0.00512,0.99473,1.37323,0.00000,0.00000,0.00000,0.00000,0.00000,1.33299,-0.74296,-1.40847,A,144932.10
1.38748,0.00000000,0.00000000,57.68799,11.98127,14:49:32.241633,0.00312,0.78404,-0.03834,0.05264,-0.01390,-0.02911,-0.00765,-0.07991,-0.05039,0.95136,1.38380,0.00000,0.00000,0.00000,0.00000,0.00000,1.33299,-0.74296,-1.40847,A,144932.10
1.39802,0.00000000,0.00000000,57.68799,11.98127,14:49:32.252186,0.00326,0.78404,-0.03941,0.05264,-0.02291,-0.02315,-0.00856,-0.07412,-0.06759,0.95977,1.39412,0.00000,0.00000,0.00000,0.00000,0.00000,1.33299,-0.74296,-1.40847,A,144932.10
1.40839,0.00000000,0.00000000,57.68799,11.98127,14:49:32.262544,0.00323,0.78404,-0.03994,0.05264,-0.02826,-0.01017,-0.01192,-0.01775,-0.03068,0.99210,1.40470,0.00000,0.00000,0.00000,0.00000,0.00000,1.33299,-0.74296,-1.40847,A,144932.10
1.41860,0.00000000,0.00000000,57.68799,11.98127,14:49:32.272755,0.00305,0.78404,-0.04022,0.05259,-0.03177,-0.00895,-0.00490,-0.03672,-0.01385,1.01541,1.41492,0.00000,0.00000,0.00000,0.00000,0.00000,1.33299,-0.74296,-1.40847,A,144932.10
1.42874,0.00000000,0.00000000,57.68799,11.98127,14:49:32.282901,0.00292,0.78404,-0.04030,0.05242,-0.03391,-0.00849,-0.00215,-0.02434,0.00116,1.00278,1.42507,0.00000,0.00000,0.00000,0.00000,0.00000,1.33299,-0.74296,-1.40847,A,144932.10
1.45215,0.00000000,0.00000000,57.68800,11.98127,14:49:32.306327,0.01593,0.78404,-0.04021,0.05211,-0.02902,-0.01674,-0.00352,-0.02739,0.01037,1.03102,1.43581,0.00000,0.00000,0.00000,0.00000,0.00000,1.45103,-0.72315,-1.26021,A,144932.20
1.46773,0.00000000,0.00000000,57.68800,11.98127,14:49:32.321922,0.00486,0.78404,-0.04084,0.05083,-0.02123,-0.04530,-0.00780,-0.00323,-0.02056,1.05872,1.46398,0.00000,0.00000,0.00000,0.00000,0.00000,1.45103,-0.72315,-1.26021,A,144932.20
1.47648,0.00000000,0.00000000,57.68800,11.98127,14:49:32.330656,0.00322,0.78404,-0.04153,0.05038,-0.01971,-0.05156,-0.00810,-0.01159,-0.05215,1.00375,1.47280,0.00000,0.00000,0.00000,0.00000,0.00000,1.45103,-0.72315,-1.26021,A,144932.20
1.48680,0.00000000,0.00000000,57.68800,11.98127,14:49:32.340971,0.00313,0.78404,-0.04241,0.05001,-0.03055,-0.05278,-0.00352,-0.04319,-0.05441,0.97527,1.48311,0.00000,0.00000,0.00000,0.00000,0.00000,1.45103,-0.72315,-1.26021,A,144932.20
1.49704,0.00000000,0.00000000,57.68800,11.98127,14:49:32.351211,0.00312,0.78404,-0.04342,0.04970,-0.03482,-0.04438,-0.00413,-0.12487,-0.06137,0.97881,1.49335,0.00000,0.00000,0.00000,0.00000,0.00000,1.45103,-0.72315,-1.26021,A,144932.20
1.50740,0.00000000,0.00000000,57.68800,11.98127,14:49:32.361568,0.00313,0.78404,-0.04390,0.04944,-0.03773,-0.02285,-0.00826,-0.08442,-0.02544,0.98753,1.50372,0.00000,0.00000,0.00000,0.00000,0.00000,1.45103,-0.72315,-1.26021,A,144932.20
1.51778,0.00000000,0.00000000,57.68800,11.98127,14:49:32.371963,0.00312,0.78404,-0.04384,0.04925,-0.03956,-0.01735,-0.00230,-0.04825,0.01000,0.95831,1.51390,0.00000,0.00000,0.00000,0.00000,0.00000,1.45103,-0.72315,-1.26021,A,144932.20
1.52819,0.00000000,0.00000000,57.68800,11.98127,14:49:32.382360,0.00312,0.78404,-0.04355,0.04905,-0.02841,-0.00880,-0.00872,0.02324,0.01726,0.91049,1.52451,0.00000,0.00000,0.00000,0.00000,0.00000,1.45103,-0.72315,-1.26021,A,144932.20
1.53857,0.00000000,0.00000000,57.68800,11.98127,14:49:32.392739,0.00311,0.78404,-0.04376,0.04888,-0.02108,-0.01674,-0.01085,0.00726,-0.01781,0.92391,1.53488,0.00000,0.00000,0.00000,0.00000,0.00000,1.45103,-0.72315,-1.26021,A,144932.20
1.54889,0.00000000,0.00000000,57.68800,11.98127,14:49:32.403073,0.00296,0.78404,-0.04380,0.04868,-0.02200,-0.01674,-0.01269,-0.16232,-0.00793,1.02047,1.54522,0.00000,0.00000,0.00000,0.00000,0.00000,1.45103,-0.72315,-1.26021,A,144932.20
1.57212,0.00000000,0.00000000,57.68800,11.98127,14:49:32.426282,0.01578,0.78404,-0.04415,0.04848,-0.02887,0.00663,-0.01559,-0.09449,-0.02672,1.10922,1.55577,0.00000,0.00000,0.00000,0.00000,0.00000,1.57098,-0.82221,-1.22314,A,144932.30
1.58520,0.00000000,0.00000000,57.68800,11.98127,14:49:32.439571,0.00483,0.78404,-0.04483,0.04797,-0.02963,-0.03308,-0.01177,0.11499,-0.01476,0.96600,1.58151,0.00000,0.00000,0.00000,0.00000,0.00000,1.57098,-0.82221,-1.22314,A,144932.30
1.59389,0.00000000,0.00000000,57.68800,11.98127,14:49:32.448052,0.00311,0.78404,-0.04493,0.04786,-0.02413,-0.05324,-0.00978,-0.01934,-0.01446,0.98033,1.58998,0.00000,0.00000,0.00000,0.00000,0.00000,1.57098,-0.82221,-1.22314,A,144932.30
1.60444,0.00000000,0.00000000,57.68800,11.98127,14:49:32.458600,0.00345,0.78404,-0.04500,0.04783,-0.01772,-0.04774,-0.00795,-0.17928,-0.01360,1.00034,1.60076,0.00000,0.00000,0.00000,0.00000,0.00000,1.57098,-0.82221,-1.22314,A,144932.30
1.61448,0.00000000,0.00000000,57.68800,11.98127,14:49:32.468646,0.00310,0.78404,-0.04579,0.04783,-0.00963,-0.01903,-0.00719,-0.12633,-0.06435,0.95300,1.61079,0.00000,0.00000,0.00000,0.00000,0.00000,1.57098,-0.82221,-1.22314,A,144932.30
1.62621,0.00000000,0.00000000,57.68800,11.98127,14:49:32.480373,0.00369,0.78404,-0.04710,0.04783,-0.00993,-0.00651,-0.00627,0.02928,-0.08949,0.87889,1.62250,0.00000,0.00000,0.00000,0.00000,0.00000,1.57098,-0.82221,-1.22314,A,144932.30
1.63605,0.00000000,0.00000000,57.68800,11.98127,14:49:32.490210,0.00313,0.78404,-0.04767,0.04783,-0.02032,-0.01002,-0.00413,0.03727,-0.04453,0.92391,1.63237,0.00000,0.00000,0.00000,0.00000,0.00000,1.57098,-0.82221,-1.22314,A,144932.30
1.64643,0.00000000,0.00000000,57.68800,11.98127,14:49:32.500584,0.00311,0.78404,-0.04738,0.04780,-0.02154,-0.01277,-0.00093,-0.04746,0.00982,0.99204,1.64275,0.00000,0.00000,0.00000,0.00000,0.00000,1.57098,-0.82221,-1.22314,A,144932.30
1.65673,0.00000000,0.00000000,57.68800,11.98127,14:49:32.510880,0.00292,0.78404,-0.04703,0.04777,-0.01650,-0.00345,-0.00047,-0.11328,0.01110,1.05902,1.65305,0.00000,0.00000,0.00000,0.00000,0.00000,1.57098,-0.82221,-1.22314,A,144932.30
1.66731,0.00000000,0.00000000,57.68800,11.98127,14:49:32.521466,0.00311,0.78404,-0.04678,0.04763,-0.01436,0.00647,-0.00474,-0.07229,0.00348,1.09965,1.66364,0.00000,0.00000,0.00000,0.00000,0.00000,1.57098,-0.82221,-1.22314,A,144932.30
1.69026,0.00000000,0.00000000,57.68800,11.98127,14:49:32.544424,0.01566,0.78404,-0.04688,0.04744,-0.01909,0.00327,-0.00963,0.03916,-0.01867,1.06872,1.67380,0.00000,0.00000,0.00000,0.00000,0.00000,1.68901,-0.87174,-1.09342,A,144932.40
1.70516,0.00000000,0.00000000,57.68800,11.98127,14:49:32.559540,0.00555,0.78404,-0.04786,0.04687,-0.01573,-0.00727,-0.02643,-0.05014,-0.05911,0.98442,1.70146,0.00000,0.00000,0.00000,0.00000,0.00000,1.68901,-0.87174,-1.09342,A,144932.40
1.71278,0.00000000,0.00000000,57.68800,11.98127,14:49:32.566927,0.00295,0.78404,-0.04878,0.04678,-0.02154,-0.00666,-0.02445,-0.06716,-0.06881,0.92415,1.70910,0.00000,0.00000,0.00000,0.00000,0.00000,1.68901,-0.87174,-1.09342,A,144932.40
1.72334,0.00000000,0.00000000,57.68800,11.98127,14:49:32.577491,0.00310,0.78404,-0.04927,0.04678,-0.02520,-0.00299,-0.01971,-0.05667,-0.03526,0.87944,1.71966,0.00000,0.00000,0.00000,0.00000,0.00000,1.68901,-0.87174,-1.09342,A,144932.40
1.73375,0.00000000,0.00000000,57.68800,11.98127,14:49:32.587915,0.00312,1.13911,-0.04923,0.04678,-0.02169,-0.00269,-0.01238,-0.06381,-0.00512,0.91524,1.72985,0.00000,0.00000,0.00000,0.00000,0.00000,1.68901,-0.87174,-1.09342,A,144932.40
1.74414,0.00000000,0.00000000,57.68800,11.98127,14:49:32.598296,0.00312,1.13911,-0.04868,0.04678,-0.01619,0.00052,-0.00948,-0.00683,0.02379,0.94343,1.74047,0.00000,0.00000,0.00000,0.00000,0.00000,1.68901,-0.87174,-1.09342,A,144932.40
1.75450,0.00000000,0.00000000,57.68800,11.98127,14:49:32.608667,0.00309,1.13911,-0.04918,0.04678,-0.00672,0.00037,-0.00490,-0.01976,-0.05264,1.02846,1.75082,0.00000,0.00000,0.00000,0.00000,0.00000,1.68901,-0.87174,-1.09342,A,144932.40
1.76473,0.00000000,0.00000000,57.68800,11.98127,14:49:32.618888,0.00293,1.13911,-0.04909,0.04678,-0.00291,-0.00299,-0.00383,-0.05868,-0.01684,1.10050,1.76105,0.00000,0.00000,0.00000,0.00000,0.00000,1.68901,-0.87174,-1.09342,A,144932.40
1.77533,0.00000000,0.00000000,57.68800,11.98127,14:49:32.629492,0.00313,1.13911,-0.04924,0.04678,-0.00306,-0.00651,-0.00780,-0.00610,-0.03294,1.07482,1.77166,0.00000,0.00000,0.00000,0.00000,0.00000,1.68901,-0.87174,-1.09342,A,144932.40
1.78570,0.00000000,0.00000000,57.68800,11.98127,14:49:32.639868,0.00310,1.13911,-0.04921,0.04678,-0.00352,-0.01964,-0.00872,0.05191,-0.01842,0.97325,1.78181,0.00000,0.00000,0.00000,0.00000,0.00000,1.68901,-0.87174,-1.09342,A,144932.40
1.82042,0.00000000,0.00000000,57.68800,11.98127,14:49:32.674595,0.02743,1.13911,-0.04937,0.04678,0.00549,-0.04362,-0.01162,-0.05496,-0.03691,0.99101,1.79244,0.00000,0.00000,0.00000,0.00000,0.00000,1.81927,-0.93118,-0.94516,A,144932.60
1.82931,0.00000000,0.00000000,57.68800,11.98127,14:49:32.683700,0.00301,1.13911,-0.04999,0.04678,0.00595,-0.04270,0.00060,-0.01507,-0.07015,0.91140,1.82562,0.00000,0.00000,0.00000,0.00000,0.00000,1.81927,-0.93118,-0.94516,A,144932.60
1.83981,0.00000000,0.00000000,57.68800,11.98127,14:49:32.693967,0.00312,1.13911,-0.04993,0.04678,0.00259,-0.05018,0.01022,-0.10876,-0.02074,0.98887,1.83613,0.00000,0.00000,0.00000,0.00000,0.00000,1.81927,-0.93118,-0.94516,A,144932.60
1.85023,0.00000000,0.00000000,57.68800,11.98127,14:49:32.704391,0.00313,1.13911,-0.04904,0.04678,0.01389,-0.02422,0.01816,-0.11749,0.02763,1.06085,1.84654,0.00000,0.00000,0.00000,0.00000,0.00000,1.81927,-0.93118,-0.94516,A,144932.60
1.86079,0.00000000,0.00000000,57.68800,11.98127,14:49:32.714942,0.00296,1.13911,-0.04827,0.04678,0.02183,-0.00925,0.02061,-0.06460,0.01372,1.09879,1.85711,0.00000,0.00000,0.00000,0.00000,0.00000,1.81927,-0.93118,-0.94516,A,144932.60
1.87132,0.00000000,0.00000000,57.68800,11.98127,14:49:32.725481,0.00309,1.13911,-0.04804,0.04678,0.01542,-0.00605,0.02030,0.00012,-0.01909,1.09678,1.86765,0.00000,0.00000,0.00000,0.00000,0.00000,1.81927,-0.93118,-0.94516,A,144932.60
1.88173,0.00000000,0.00000000,57.68800,11.98127,14:49:32.735902,0.00311,1.13911,-0.04833,0.04678,0.01389,-0.01292,0.01541,-0.00537,-0.05380,1.05945,1.87784,0.00000,0.00000,0.00000,0.00000,0.00000,1.81927,-0.93118,-0.94516,A,144932.60
1.89213,0.00000000,0.00000000,57.68800,11.98127,14:49:32.746285,0.00311,1.13911,-0.04826,0.04678,0.01206,-0.01872,0.01098,-0.02611,-0.02495,0.97838,1.88845,0.00000,0.00000,0.00000,0.00000,0.00000,1.81927,-0.93118,-0.94516,A,144932.60
1.90275,0.00000000,0.00000000,57.68800,11.98127,14:49:32.756905,0.00333,1.13911,-0.04777,0.04678,0.00733,-0.02361,0.00167,-0.07271,0.00555,0.92507,1.89905,0.00000,0.00000,0.00000,0.00000,0.00000,1.81927,-0.93118,-0.94516,A,144932.60
1.91274,0.00000000,0.00000000,57.68800,11.98127,14:49:32.766904,0.00293,1.13911,-0.04796,0.04681,0.01053,-0.01659,-0.00307,-0.07314,-0.03550,0.87675,1.90907,0.00000,0.00000,0.00000,0.00000,0.00000,1.81927,-0.93118,-0.94516,A,144932.60
1.93595,0.00000000,0.00000000,57.68800,11.98127,14:49:32.790123,0.01574,1.13911,-0.04854,0.04693,0.00671,-0.00941,0.00060,-0.04117,-0.05807,0.90573,1.91963,0.00000,0.00000,0.00000,0.00000,0.00000,1.93483,-1.00052,-0.88956,A,144932.70
1.94814,0.00000000,0.00000000,57.68800,11.98127,14:49:32.802356,0.00408,1.13911,-0.04859,0.04761,-0.00107,-0.01979,0.00701,-0.02483,-0.02501,1.04597,1.94313,0.00000,0.00000,0.00000,0.00000,0.00000,1.93483,-1.00052,-0.88956,A,144932.70
1.95678,0.00000000,0.00000000,57.68800,11.98127,14:49:32.810936,0.00295,1.13911,-0.04839,0.04789,-0.00260,-0.01185,0.00915,-0.08302,-0.00866,1.10880,1.95309,0.00000,0.00000,0.00000,0.00000,0.00000,1.93483,-1.00052,-0.88956,A,144932.70
1.96735,0.00000000,0.00000000,57.68800,11.98127,14:49:32.821507,0.00313,1.13911,-0.04828,0.04800,0.00076,-0.00162,0.00457,-0.05527,-0.01684,1.10026,1.96367,0.00000,0.00000,0.00000,0.00000,0.00000,1.93483,-1.00052,-0.88956,A,144932.70
1.97776,0.00000000,0.00000000,57.68800,11.98127,14:49:32.831929,0.00314,1.13911,-0.04874,0.04800,0.00122,0.00647,0.01022,-0.02397,-0.05618,1.04743,1.97387,0.00000,0.00000,0.00000,0.00000,0.00000,1.93483,-1.00052,-0.88956,A,144932.70
1.98829,0.00000000,0.00000000,57.68800,11.98127,14:49:32.842443,0.00327,1.13911,-0.04887,0.04800,-0.00367,0.00144,0.00488,0.01379,-0.02745,0.97441,1.98460,0.00000,0.00000,0.00000,0.00000,0.00000,1.93483,-1.00052,-0.88956,A,144932.70
1.99934,0.00000000,0.00000000,57.68800,11.98127,14:49:32.853505,0.00409,1.13911,-0.04889,0.04800,-0.00291,-0.00880,0.00335,0.02031,-0.01915,0.90670,1.99563,0.00000,0.00000,0.00000,0.00000,0.00000,1.93483,-1.00052,-0.88956,A,144932.70
2.00875,0.00000000,0.00000000,57.68800,11.98127,14:49:32.862911,0.00296,1.13911,-0.04901,0.04800,-0.00367,-0.01857,-0.00001,-0.03575,-0.02342,0.85723,2.00507,0.00000,0.00000,0.00000,0.00000,0.00000,1.93483,-1.00052,-0.88956,A,144932.70
2.02655,57.68798753,11.98127782,57.68800,11.98127,14:49:32.880773,0.01037,1.13911,-0.04903,0.04800,-0.00504,-0.01536,0.00091,-0.05411,-0.01745,0.89054,2.01563,1.13911,-2.42909,-2.41483,-1.00052,-0.88956,1.93483,-1.00052,-0.88956,A,144932.70
2.05774,57.68798753,11.98127782,57.68800,11.98127,14:49:32.911952,0.01894,1.13911,-0.04939,-0.00838,-0.01161,-0.00620,-0.00062,-0.01440,-0.03556,1.05060,2.04064,1.13911,-2.42909,-2.41483,-1.00052,-0.88956,2.05604,-1.06986,-0.75983,A,144932.80
2.07701,57.68798013,11.98126187,57.68800,11.98127,14:49:32.931198,0.00660,1.13911,-0.04935,-0.00838,-0.01222,-0.03201,0.00289,0.00744,-0.00268,1.11118,2.07093,1.13911,-2.38169,-2.38418,-1.04786,-0.91251,2.05604,-1.06986,-0.75983,A,144932.80
2.08435,57.68798013,11.98126187,57.68800,11.98127,14:49:32.938537,0.00353,1.13911,-0.04926,-0.00838,-0.01344,-0.04407,0.00014,-0.06789,-0.01580,1.07622,2.08029,1.13911,-2.38169,-2.38418,-1.04786,-0.91251,2.05604,-1.06986,-0.75983,A,144932.80
2.09486,57.68798013,11.98126187,57.68800,11.98127,14:49:32.949047,0.00364,1.13911,-0.04926,-0.00838,-0.00398,-0.02987,-0.00200,-0.07893,-0.02763,1.05225,2.09078,1.13911,-2.38169,-2.38418,-1.04786,-0.91251,2.05604,-1.06986,-0.75983,A,144932.80
2.10576,57.68798013,11.98126187,57.68800,11.98127,14:49:32.959972,0.00400,1.13911,-0.04961,-0.00838,-0.00627,-0.02025,-0.00444,-0.00738,-0.04581,0.94678,2.10136,1.13911,-2.38169,-2.38418,-1.04786,-0.91251,2.05604,-1.06986,-0.75983,A,144932.80
2.11577,57.68798013,11.98126187,57.68800,11.98127,14:49:32.969952,0.00361,1.13911,-0.05055,-0.00838,-0.00688,-0.01674,-0.00505,-0.03569,-0.07942,0.89993,2.11170,1.13911,-2.38169,-2.38418,-1.04786,-0.91251,2.05604,-1.06986,-0.75983,A,144932.80
2.12608,57.68798013,11.98126187,57.68800,11.98127,14:49:32.980262,0.00352,1.13911,-0.05096,-0.00838,-0.01665,-0.01292,0.00533,-0.08113,-0.04349,0.92952,2.12178,1.13911,-2.38169,-2.38418,-1.04786,-0.91251,2.05604,-1.06986,-0.75983,A,144932.80
2.13647,57.68798013,11.98126187,57.68800,11.98127,14:49:32.990653,0.00352,1.13911,-0.05117,-0.00838,-0.01528,0.00739,0.00045,-0.15116,-0.03251,0.94593,2.13241,1.13911,-2.38169,-2.38418,-1.04786,-0.91251,2.05604,-1.06986,-0.75983,A,144932.80
2.14686,57.68798013,11.98126187,57.68800,11.98127,14:49:33.001045,0.00350,1.13911,-0.05090,-0.00838,-0.01451,0.02343,0.00289,-0.02330,-0.00281,0.88371,2.14279,1.13911,-2.38169,-2.38418,-1.04786,-0.91251,2.05604,-1.06986,-0.75983,A,144932.80
2.16992,57.68798013,11.98126187,57.68800,11.98127,14:49:33.024111,0.01610,1.13911,-0.05072,-0.00838,-0.00917,0.01090,0.00488,0.00134,-0.01183,0.95184,2.15308,1.13911,-2.38169,-2.38418,-1.04786,-0.91251,2.16831,-1.09958,-0.64864,A,144932.90
2.18171,57.68797971,11.98126050,57.68800,11.98127,14:49:33.035915,0.00596,1.13911,-0.05072,-0.00838,-0.00092,-0.01124,0.00472,0.01861,-0.03160,1.08257,2.17531,1.13911,-2.34042,-2.34291,-1.12942,-0.95835,2.16831,-1.09958,-0.64864,A,144932.90
2.18934,57.68797971,11.98126050,57.68800,11.98127,14:49:33.043746,0.00335,1.13911,-0.05090,-0.00838,-0.00917,-0.01704,-0.00429,-0.04197,-0.04203,1.14241,2.18527,1.13911,-2.34042,-2.34291,-1.12942,-0.95835,2.16831,-1.09958,-0.64864,A,144932.90
2.20005,57.68797971,11.98126050,57.68800,11.98127,14:49:33.054232,0.00366,1.13911,-0.05128,-0.00838,-0.00978,-0.01704,-0.00276,-0.08754,-0.05765,1.17059,2.19584,1.13911,-2.34042,-2.34291,-1.12942,-0.95835,2.16831,-1.09958,-0.64864,A,144932.90
2.21047,57.68797971,11.98126050,57.68800,11.98127,14:49:33.064650,0.00368,1.13911,-0.05163,-0.00838,-0.01604,-0.00452,-0.00413,-0.00579,-0.04532,1.04572,2.20639,1.13911,-2.34042,-2.34291,-1.12942,-0.95835,2.16831,-1.09958,-0.64864,A,144932.90
2.22069,57.68797971,11.98126050,57.68800,11.98127,14:49:33.074870,0.00350,1.13911,-0.05260,-0.00838,-0.02474,-0.01720,-0.00077,0.08546,-0.07027,0.88084,2.21663,1.13911,-2.34042,-2.34291,-1.12942,-0.95835,2.16831,-1.09958,-0.64864,A,144932.90
2.23156,57.68797971,11.98126050,57.68800,11.98127,14:49:33.085744,0.00369,1.13911,-0.05227,-0.00838,-0.03040,-0.04652,0.00411,-0.00409,0.00891,0.82057,2.22748,1.13911,-2.34042,-2.34291,-1.12942,-0.95835,2.16831,-1.09958,-0.64864,A,144932.90
2.24172,57.68797971,11.98126050,57.68800,11.98127,14:49:33.095922,0.00362,1.13911,-0.05118,-0.00838,-0.01589,-0.04194,0.00564,-0.10858,0.04288,0.84729,2.23737,1.13911,-2.34042,-2.34291,-1.12942,-0.95835,2.16831,-1.09958,-0.64864,A,144932.90
2.25401,57.68797971,11.98126050,57.68800,11.98127,14:49:33.108196,0.00417,1.13911,-0.05071,-0.00838,0.00213,-0.01139,0.01205,-0.18587,-0.00128,1.01675,2.24972,1.13911,-2.34042,-2.34291,-1.12942,-0.95835,2.16831,-1.09958,-0.64864,A,144932.90
2.26516,57.68797971,11.98126050,57.68800,11.98127,14:49:33.119582,0.00412,1.13911,-0.05107,-0.00838,0.00946,0.01701,0.01175,-0.01068,-0.06521,1.05115,2.26108,1.13911,-2.34042,-2.34291,-1.12942,-0.95835,2.16831,-1.09958,-0.64864,A,144932.90
2.29050,57.68797971,11.98126050,57.68800,11.98127,14:49:33.144710,0.01906,1.13911,-0.05162,-0.00838,0.00183,0.01839,0.01068,0.02507,-0.07930,1.15851,2.27088,1.13911,-2.34042,-2.34291,-1.12942,-0.95835,2.28693,-1.14911,-0.51891,A,144933.00
2.31030,57.68797928,11.98125895,57.68800,11.98127,14:49:33.164497,0.00896,1.32055,-0.05164,-0.00824,0.00061,-0.00238,0.01328,0.04233,-0.03270,0.95026,2.30347,1.15726,-2.29874,-2.30119,-1.22167,-1.00712,2.28693,-1.14911,-0.51891,A,144933.00
2.31501,57.68797928,11.98125895,57.68800,11.98127,14:49:33.169187,0.00345,1.32055,-0.05108,-0.00807,-0.00168,-0.01918,0.01450,-0.05746,0.00567,0.91415,2.31096,1.15726,-2.29874,-2.30119,-1.22167,-1.00712,2.28693,-1.14911,-0.51891,A,144933.00
2.32512,57.68797928,11.98125895,57.68800,11.98127,14:49:33.179529,0.00330,1.32055,-0.05016,-0.00773,0.01069,-0.02056,0.01068,0.02806,0.01952,0.85552,2.32107,1.15726,-2.29874,-2.30119,-1.22167,-1.00712,2.28693,-1.14911,-0.51891,A,144933.00
2.33570,57.68797928,11.98125895,57.68800,11.98127,14:49:33.189881,0.00348,1.32055,-0.05012,-0.00728,0.02321,-0.02987,0.01114,0.01995,-0.03971,0.89981,2.33166,1.15726,-2.29874,-2.30119,-1.22167,-1.00712,2.28693,-1.14911,-0.51891,A,144933.00
2.34612,57.68797928,11.98125895,57.68800,11.98127,14:49:33.200305,0.00350,1.32055,-0.05007,-0.00683,0.02611,-0.02621,0.01496,-0.21258,-0.04575,1.03529,2.34184,1.15726,-2.29874,-2.30119,-1.22167,-1.00712,2.28693,-1.14911,-0.51891,A,144933.00
2.35766,57.68797928,11.98125895,57.68800,11.98127,14:49:33.211864,0.00464,1.32055,-0.05050,-0.00643,0.01710,0.02404,0.01465,-0.19209,-0.07771,1.08318,2.35335,1.15726,-2.29874,-2.30119,-1.22167,-1.00712,2.28693,-1.14911,-0.51891,A,144933.00
2.36690,57.68797928,11.98125895,57.68800,11.98127,14:49:33.221090,0.00348,1.32055,-0.05132,-0.00626,0.00794,0.05504,0.01251,-0.07747,-0.09644,1.07055,2.36284,1.15726,-2.29874,-2.30119,-1.22167,-1.00712,2.28693,-1.14911,-0.51891,A,144933.00
2.37712,57.68797928,11.98125895,57.68800,11.98127,14:49:33.231525,0.00331,1.32055,-0.05111,-0.00623,0.00335,0.05901,0.01496,0.08095,-0.01946,0.99650,2.37307,1.15726,-2.29874,-2.30119,-1.22167,-1.00712,2.28693,-1.14911,-0.51891,A,144933.00
2.41174,57.68797928,11.98125895,57.68800,11.98126,14:49:33.265937,0.02753,1.32055,-0.04994,-0.00623,-0.00168,0.01533,0.01465,0.08211,0.04642,0.96978,2.38364,1.15726,-2.29874,-2.30119,-1.22167,-1.00712,2.41024,-1.33733,-0.33358,A,144933.20
2.42464,57.68797910,11.98125744,57.68800,11.98126,14:49:33.278863,0.00697,1.32055,-0.05043,-0.00623,0.03084,-0.02117,-0.00642,0.02202,-0.12450,0.94013,2.41791,1.17359,-2.25307,-2.25491,-1.31111,-1.02672,2.41024,-1.33733,-0.33358,A,144933.20
2.43163,57.68797910,11.98125744,57.68800,11.98126,14:49:33.285819,0.00368,1.32055,-0.05139,-0.00623,0.01863,-0.02819,-0.00230,-0.00152,-0.10077,0.94446,2.42755,1.17359,-2.25307,-2.25491,-1.31111,-1.02672,2.41024,-1.33733,-0.33358,A,144933.20
2.44172,57.68797910,11.98125744,57.68800,11.98126,14:49:33.295911,0.00353,1.32055,-0.05179,-0.00623,0.01069,-0.02361,-0.00077,-0.13249,-0.06618,1.02151,2.43745,1.17359,-2.25307,-2.25491,-1.31111,-1.02672,2.41024,-1.33733,-0.33358,A,144933.20
2.45207,57.68797910,11.98125744,57.68800,11.98126,14:49:33.306243,0.00349,1.32055,-0.05182,-0.00623,0.01206,0.00479,0.00381,-0.09437,-0.04288,1.02114,2.44803,1.17359,-2.25307,-2.25491,-1.31111,-1.02672,2.41024,-1.33733,-0.33358,A,144933.20
2.46262,57.68797910,11.98125744,57.68800,11.98126,14:49:33.316799,0.00363,1.32055,-0.05172,-0.00623,0.01237,0.02511,0.00686,-0.08113,-0.03410,1.01339,2.45853,1.17359,-2.25307,-2.25491,-1.31111,-1.02672,2.41024,-1.33733,-0.33358,A,144933.20
2.47286,57.68797910,11.98125744,57.68800,11.98126,14:49:33.327046,0.00330,1.32055,-0.05037,-0.00623,0.00839,0.01243,0.00900,0.12011,0.04868,0.92897,2.46882,1.17359,-2.25307,-2.25491,-1.31111,-1.02672,2.41024,-1.33733,-0.33358,A,144933.20
2.48348,57.68797910,11.98125744,57.68800,11.98126,14:49:33.337660,0.00351,1.32055,-0.04888,-0.00623,0.01527,-0.02987,0.01175,0.11596,0.05606,0.95398,2.47942,1.17359,-2.25307,-2.25491,-1.31111,-1.02672,2.41024,-1.33733,-0.33358,A,144933.20
2.49373,57.68797910,11.98125744,57.68800,11.98126,14:49:33.347927,0.00354,1.32055,-0.04717,-0.00623,0.02748,-0.05599,0.01450,-0.02111,0.06484,0.96313,2.48946,1.17359,-2.25307,-2.25491,-1.31111,-1.02672,2.41024,-1.33733,-0.33358,A,144933.20
2.50448,57.68797910,11.98125744,57.68800,11.98126,14:49:33.358677,0.00388,1.32055,-0.04613,-0.00623,0.03497,-0.05492,0.00763,-0.10864,0.01665,0.96911,2.50026,1.17359,-2.25307,-2.25491,-1.31111,-1.02672,2.41024,-1.33733,-0.33358,A,144933.20
2.52749,57.68797910,11.98125744,57.68800,11.98126,14:49:33.381704,0.01649,1.32055,-0.04709,-0.00623,0.04535,-0.03109,0.00411,-0.05899,-0.12249,1.01156,2.51042,1.17359,-2.25307,-2.25491,-1.31111,-1.02672,2.52561,-1.35714,-0.25945,A,144933.30
2.53894,57.68797896,11.98125610,57.68800,11.98126,14:49:33.393183,0.00596,1.32055,-0.04733,-0.00623,0.01649,-0.03293,0.00075,0.06350,-0.06850,1.02449,2.53255,1.18828,-2.21295,-2.21480,-1.39084,-1.04211,2.52561,-1.35714,-0.25945,A,144933.30
2.54689,57.68797896,11.98125610,57.68800,11.98126,14:49:33.401074,0.00350,1.32055,-0.04609,-0.00623,0.01114,-0.04102,-0.00001,-0.06515,0.04843,1.00497,2.54282,1.18828,-2.21295,-2.21480,-1.39084,-1.04211,2.52561,-1.35714,-0.25945,A,144933.30
2.55712,57.68797896,11.98125610,57.68800,11.98126,14:49:33.411537,0.00331,1.32055,-0.04526,-0.00623,0.03695,-0.03369,-0.00352,-0.01251,0.00445,0.97252,2.55307,1.18828,-2.21295,-2.21480,-1.39084,-1.04211,2.52561,-1.35714,-0.25945,A,144933.30
2.56807,57.68797896,11.98125610,57.68800,11.98126,14:49:33.422253,0.00357,1.32055,-0.04440,-0.00623,0.04734,-0.03812,-0.00948,0.04477,-0.00213,0.94556,2.56400,1.18828,-2.21295,-2.21480,-1.39084,-1.04211,2.52561,-1.35714,-0.25945,A,144933.30
2.57838,57.68797896,11.98125610,57.68800,11.98126,14:49:33.432567,0.00349,1.32055,-0.04445,-0.00623,0.05772,-0.05110,-0.00688,-0.04276,-0.06582,1.00131,2.57412,1.18828,-2.21295,-2.21480,-1.39084,-1.04211,2.52561,-1.35714,-0.25945,A,144933.30
2.58879,57.68797896,11.98125610,57.68800,11.98126,14:49:33.442966,0.00350,1.32055,-0.04384,-0.00623,0.05558,-0.03064,-0.00780,-0.08272,-0.02550,1.15119,2.58473,1.18828,-2.21295,-2.21480,-1.39084,-1.04211,2.52561,-1.35714,-0.25945,A,144933.30
2.59973,57.68797896,11.98125610,57.68800,11.98126,14:49:33.453913,0.00403,1.32055,-0.04388,-0.00623,0.06185,-0.01353,-0.00826,-0.02275,-0.08095,1.14052,2.59566,1.18828,-2.21295,-2.21480,-1.39084,-1.04211,2.52561,-1.35714,-0.25945,A,144933.30
2.60926,57.68797896,11.98125610,57.68800,11.98126,14:49:33.463677,0.00333,1.32055,-0.04407,-0.00623,0.06536,-0.00590,-0.00581,0.02318,-0.08119,1.04792,2.60519,1.18828,-2.21295,-2.21480,-1.39084,-1.04211,2.52561,-1.35714,-0.25945,A,144933.30
2.61982,57.68797896,11.98125610,57.68800,11.98126,14:49:33.474009,0.00349,1.32055,-0.04425,-0.00623,0.05925,-0.02666,-0.00139,0.03349,-0.07235,0.93092,2.61576,1.18828,-2.21295,-2.21480,-1.39084,-1.04211,2.52561,-1.35714,-0.25945,A,144933.30
2.64359,57.68797896,11.98125610,57.68801,11.98126,14:49:33.497770,0.01685,1.32055,-0.04271,-0.00623,0.06185,-0.04224,0.00091,-0.04557,0.02946,0.84888,2.62658,1.18828,-2.21295,-2.21480,-1.39084,-1.04211,2.64209,-1.41658,-0.09266,A,144933.40
2.65428,57.68797894,11.98125483,57.68801,11.98126,14:49:33.508470,0.00584,1.32055,-0.04128,-0.00623,0.06597,-0.04866,-0.01238,-0.05746,-0.01769,0.87956,2.64796,1.20151,-2.17243,-2.17428,-1.46613,-1.04402,2.64209,-1.41658,-0.09266,A,144933.40
2.66267,57.68797894,11.98125483,57.68801,11.98126,14:49:33.516863,0.00384,1.32055,-0.04072,-0.00629,0.06734,-0.03812,-0.02277,-0.05777,-0.02727,0.95380,2.65806,1.20151,-2.17243,-2.17428,-1.46613,-1.04402,2.64209,-1.41658,-0.09266,A,144933.40
2.67273,57.68797894,11.98125483,57.68801,11.98126,14:49:33.526916,0.00349,1.32055,-0.04030,-0.00643,0.06551,-0.02056,-0.01803,-0.13023,-0.04307,1.12136,2.66868,1.20151,-2.17243,-2.17428,-1.46613,-1.04402,2.64209,-1.41658,-0.09266,A,144933.40
2.68313,57.68797894,11.98125483,57.68801,11.98126,14:49:33.537316,0.00349,1.32055,-0.04047,-0.00666,0.06032,0.02068,-0.02154,-0.14542,-0.08662,1.19908,2.67906,1.20151,-2.17243,-2.17428,-1.46613,-1.04402,2.64209,-1.41658,-0.09266,A,144933.40
2.69357,57.68797894,11.98125483,57.68801,11.98126,14:49:33.547775,0.00369,1.32055,-0.04065,-0.00705,0.05329,0.03335,-0.01437,-0.00354,-0.07625,1.11929,2.68915,1.20151,-2.17243,-2.17428,-1.46613,-1.04402,2.64209,-1.41658,-0.09266,A,144933.40
2.70462,57.68797894,11.98125483,57.68801,11.98126,14:49:33.559135,0.00434,1.32055,-0.03990,-0.00773,0.03420,0.00877,-0.00826,0.10047,0.00396,1.00735,2.70053,1.20151,-2.17243,-2.17428,-1.46613,-1.04402,2.64209,-1.41658,-0.09266,A,144933.40
2.71418,57.68797894,11.98125483,57.68801,11.98126,14:49:33.568362,0.00350,1.32055,-0.03873,-0.00855,0.03833,-0.03690,-0.00872,0.11218,0.03184,0.92958,2.70991,1.20151,-2.17243,-2.17428,-1.46613,-1.04402,2.64209,-1.41658,-0.09266,A,144933.40
2.72458,57.68797894,11.98125483,57.68801,11.98126,14:49:33.578772,0.00351,1.32055,-0.03679,-0.00954,0.04993,-0.07340,-0.00933,-0.00604,0.06875,0.91360,2.72053,1.20151,-2.17243,-2.17428,-1.46613,-1.04402,2.64209,-1.41658,-0.09266,A,144933.40
2.73611,57.68797894,11.98125483,57.68801,11.98126,14:49:33.590292,0.00463,1.32055,-0.03584,-0.01053,0.06475,-0.07996,-0.01238,-0.04917,-0.00262,0.90683,2.73204,1.20151,-2.17243,-2.17428,-1.46613,-1.04402,2.64209,-1.41658,-0.09266,A,144933.40
2.75856,57.68797894,11.98125483,57.68801,11.98126,14:49:33.612747,0.01675,1.32055,-0.03629,-0.01130,0.06826,-0.06408,-0.02093,-0.19697,-0.08674,0.99204,2.74106,1.20151,-2.17243,-2.17428,-1.46613,-1.04402,2.75681,-1.49583,0.00000,A,144933.50
2.77234,57.68797895,11.98125358,57.68801,11.98126,14:49:33.626530,0.00788,1.32055,-0.03592,-0.01229,0.03375,-0.00116,-0.01391,-0.01287,-0.04575,0.95575,2.76600,1.21341,-2.12870,-2.13235,-1.54053,-1.04325,2.75681,-1.49583,0.00000,A,144933.50
2.77837,57.68797895,11.98125358,57.68801,11.98126,14:49:33.632556,0.00351,1.32055,-0.03539,-0.01234,0.03054,-0.00315,-0.00780,-0.01220,0.00238,0.99918,2.77410,1.21341,-2.12870,-2.13235,-1.54053,-1.04325,2.75681,-1.49583,0.00000,A,144933.50
2.78856,57.68797895,11.98125358,57.68801,11.98126,14:49:33.642745,0.00352,1.46345,-0.03353,-0.01234,0.03420,-0.01613,-0.00322,-0.07906,0.08973,1.06616,2.78449,1.21341,-2.12870,-2.13235,-1.54053,-1.04325,2.75681,-1.49583,0.00000,A,144933.50
2.79882,57.68797895,11.98125358,57.68801,11.98126,14:49:33.653001,0.00353,1.46345,-0.03162,-0.01234,0.05436,-0.01888,-0.01085,0.00354,0.07826,1.02010,2.79474,1.21341,-2.12870,-2.13235,-1.54053,-1.04325,2.75681,-1.49583,0.00000,A,144933.50
2.80912,57.68797895,11.98125358,57.68801,11.98126,14:49:33.663523,0.00330,1.46345,-0.03027,-0.01234,0.06414,-0.04789,-0.01192,0.11291,0.03355,1.01223,2.80508,1.21341,-2.12870,-2.13235,-1.54053,-1.04325,2.75681,-1.49583,0.00000,A,144933.50
2.81979,57.68797895,11.98125358,57.68801,11.98126,14:49:33.673971,0.00357,1.46345,-0.02973,-0.01234,0.06001,-0.06500,-0.01910,0.02300,-0.01769,1.04054,2.81573,1.21341,-2.12870,-2.13235,-1.54053,-1.04325,2.75681,-1.49583,0.00000,A,144933.50
2.83011,57.68797895,11.98125358,57.68801,11.98126,14:49:33.684303,0.00350,1.46345,-0.02958,-0.01234,0.05513,-0.07401,-0.01986,0.00403,-0.03825,1.00809,2.82584,1.21341,-2.12870,-2.13235,-1.54053,-1.04325,2.75681,-1.49583,0.00000,A,144933.50
2.84050,57.68797895,11.98125358,57.68801,11.98126,14:49:33.694685,0.00349,1.46345,-0.02979,-0.01234,0.04581,-0.05812,-0.02093,-0.20386,-0.05996,1.06323,2.83645,1.21341,-2.12870,-2.13235,-1.54053,-1.04325,2.75681,-1.49583,0.00000,A,144933.50
2.85092,57.68797895,11.98125358,57.68801,11.98126,14:49:33.705100,0.00350,1.46345,-0.03003,-0.01234,0.04077,-0.02422,-0.01284,-0.16250,-0.05496,1.00077,2.84684,1.21341,-2.12870,-2.13235,-1.54053,-1.04325,2.75681,-1.49583,0.00000,A,144933.50
2.87476,57.68797895,11.98125358,57.68801,11.98126,14:49:33.728963,0.01695,1.46345,-0.02989,-0.01234,0.03649,0.00281,-0.00627,-0.08583,-0.02641,0.99229,2.85708,1.21341,-2.12870,-2.13235,-1.54053,-1.04325,2.87304,-1.52555,0.09266,A,144933.60
2.88959,57.68797902,11.98125248,57.68801,11.98126,14:49:33.743796,0.00596,1.46345,-0.02784,-0.01234,0.03970,0.01472,-0.00108,0.04252,0.05679,0.98722,2.88325,1.23842,-2.09014,-2.09380,-1.60598,-1.03608,2.87304,-1.52555,0.09266,A,144933.60
2.89754,57.68797902,11.98125248,57.68801,11.98126,14:49:33.751749,0.00368,1.46345,-0.02643,-0.01234,0.03955,-0.00391,-0.00704,-0.00244,0.05874,0.99857,2.89330,1.23842,-2.09014,-2.09380,-1.60598,-1.03608,2.87304,-1.52555,0.09266,A,144933.60
2.90793,57.68797902,11.98125248,57.68801,11.98126,14:49:33.762118,0.00358,1.46345,-0.02558,-0.01234,0.03481,-0.01399,-0.01635,-0.04209,0.02513,1.01376,2.90386,1.23842,-2.09014,-2.09380,-1.60598,-1.03608,2.87304,-1.52555,0.09266,A,144933.60
2.91854,57.68797902,11.98125248,57.68801,11.98126,14:49:33.772723,0.00356,1.46345,-0.02551,-0.01234,0.03649,-0.01597,-0.02521,0.06814,-0.02489,0.88785,2.91445,1.23842,-2.09014,-2.09380,-1.60598,-1.03608,2.87304,-1.52555,0.09266,A,144933.60
2.92885,57.68797902,11.98125248,57.68801,11.98126,14:49:33.783044,0.00330,1.46345,-0.02640,-0.01234,0.01863,-0.04514,-0.02887,0.06039,-0.06948,0.88114,2.92481,1.23842,-2.09014,-2.09380,-1.60598,-1.03608,2.87304,-1.52555,0.09266,A,144933.60
2.93949,57.68797902,11.98125248,57.68801,11.98126,14:49:33.793675,0.00352,1.46345,-0.02617,-0.01234,0.00824,-0.05232,-0.02490,-0.05697,0.00152,0.94855,2.93543,1.23842,-2.09014,-2.09380,-1.60598,-1.03608,2.87304,-1.52555,0.09266,A,144933.60
2.94973,57.68797902,11.98125248,57.68801,11.98126,14:49:33.803922,0.00353,1.46345,-0.02665,-0.01234,0.01038,-0.04713,-0.02002,-0.12322,-0.04843,1.05066,2.94547,1.23842,-2.09014,-2.09380,-1.60598,-1.03608,2.87304,-1.52555,0.09266,A,144933.60
2.96010,57.68797902,11.98125248,57.68801,11.98126,14:49:33.814287,0.00350,1.46345,-0.02654,-0.01234,0.00763,-0.02728,-0.01146,-0.12011,-0.00628,1.10471,2.95605,1.23842,-2.09014,-2.09380,-1.60598,-1.03608,2.87304,-1.52555,0.09266,A,144933.60
2.97049,57.68797902,11.98125248,57.68801,11.98126,14:49:33.824679,0.00349,1.46345,-0.02665,-0.01234,0.00229,-0.02040,-0.01040,0.02873,-0.01787,1.07677,2.96642,1.23842,-2.09014,-2.09380,-1.60598,-1.03608,2.87304,-1.52555,0.09266,A,144933.60
2.99370,57.68797902,11.98125248,57.68801,11.98126,14:49:33.847899,0.01613,1.46345,-0.02626,-0.01234,-0.00138,-0.02682,-0.00780,0.00823,0.02086,1.08732,2.97683,1.23842,-2.09014,-2.09380,-1.60598,-1.03608,2.99202,-1.56517,0.22239,A,144933.70
3.01397,57.68797908,11.98125140,57.68801,11.98126,14:49:33.868173,0.00826,1.46345,-0.02589,-0.01257,-0.00413,-0.02697,-0.02063,-0.08863,0.02355,0.93428,3.00763,1.26092,-2.05224,-2.05597,-1.67011,-1.02853,2.99202,-1.56517,0.22239,A,144933.70
3.01951,57.68797908,11.98125140,57.68801,11.98126,14:49:33.873697,0.00350,1.46345,-0.02619,-0.01274,-0.00886,-0.02025,-0.02475,-0.07094,-0.02080,0.90396,3.01547,1.26092,-2.05224,-2.05597,-1.67011,-1.02853,2.99202,-1.56517,0.22239,A,144933.70
3.02977,57.68797908,11.98125140,57.68801,11.98126,14:49:33.883968,0.00353,1.46345,-0.02699,-0.01300,-0.01344,-0.01277,-0.03025,0.00482,-0.04843,0.92873,3.02551,1.26092,-2.05224,-2.05597,-1.67011,-1.02853,2.99202,-1.56517,0.22239,A,144933.70
3.04013,57.68797908,11.98125140,57.68801,11.98126,14:49:33.894319,0.00349,1.46345,-0.02778,-0.01333,-0.02994,-0.01796,-0.02536,0.00372,-0.04038,1.00333,3.03609,1.26092,-2.05224,-2.05597,-1.67011,-1.02853,2.99202,-1.56517,0.22239,A,144933.70
3.05054,57.68797908,11.98125140,57.68801,11.98126,14:49:33.904723,0.00350,1.46345,-0.02767,-0.01373,-0.03085,-0.02773,-0.02551,-0.04337,0.01928,1.02602,3.04647,1.26092,-2.05224,-2.05597,-1.67011,-1.02853,2.99202,-1.56517,0.22239,A,144933.70
3.06091,57.68797908,11.98125140,57.68801,11.98126,14:49:33.915088,0.00329,1.46345,-0.02804,-0.01421,-0.03085,-0.01521,-0.02506,-0.05380,-0.01287,1.00046,3.05686,1.26092,-2.05224,-2.05597,-1.67011,-1.02853,2.99202,-1.56517,0.22239,A,144933.70
3.07152,57.68797908,11.98125140,57.68801,11.98126,14:49:33.925703,0.00351,1.46345,-0.02825,-0.01472,-0.03513,-0.00925,-0.02994,-0.08528,0.00098,1.05786,3.06747,1.26092,-2.05224,-2.05597,-1.67011,-1.02853,2.99202,-1.56517,0.22239,A,144933.70
3.08189,57.68797908,11.98125140,57.68801,11.98126,14:49:33.936090,0.00349,1.46345,-0.02844,-0.01526,-0.03666,-0.00177,-0.02353,0.02342,0.00213,1.04273,3.07763,1.26092,-2.05224,-2.05597,-1.67011,-1.02853,2.99202,-1.56517,0.22239,A,144933.70
3.09244,57.68797908,11.98125140,57.68801,11.98126,14:49:33.946629,0.00364,1.46345,-0.02861,-0.01583,-0.03696,-0.02773,-0.02322,0.06210,0.00439,0.99741,3.08839,1.26092,-2.05224,-2.05597,-1.67011,-1.02853,2.99202,-1.56517,0.22239,A,144933.70
3.12637,57.68797908,11.98125140,57.68801,11.98126,14:49:33.980560,0.02715,1.46345,-0.02886,-0.01631,-0.03360,-0.03583,-0.02093,-0.03800,-0.00482,0.99924,3.09866,1.26092,-2.05224,-2.05597,-1.67011,-1.02853,3.12475,-1.70386,0.42625,A,144933.90
3.14042,57.68797927,11.98125023,57.68801,11.98126,14:49:33.994608,0.00753,1.46345,-0.03086,-0.01670,-0.05330,-0.01170,-0.01666,0.03318,-0.01842,0.89786,3.13402,1.28118,-2.01180,-2.01676,-1.73952,-1.00832,3.12475,-1.70386,0.42625,A,144933.90
3.14699,57.68797927,11.98125023,57.68801,11.98126,14:49:34.001173,0.00346,1.46345,-0.03059,-0.01670,-0.05636,-0.02208,-0.01788,-0.00805,0.03910,1.03358,3.14293,1.28118,-2.01180,-2.01676,-1.73952,-1.00832,3.12475,-1.70386,0.42625,A,144933.90
3.15712,57.68797927,11.98125023,57.68801,11.98126,14:49:34.011542,0.00330,1.46345,-0.02952,-0.01670,-0.04185,-0.02697,-0.02032,0.00842,0.09107,1.05079,3.15307,1.28118,-2.01180,-2.01676,-1.73952,-1.00832,3.12475,-1.70386,0.42625,A,144933.90
3.16775,57.68797927,11.98125023,57.68801,11.98126,14:49:34.021935,0.00347,1.46345,-0.02997,-0.01670,-0.03711,-0.04239,-0.01849,-0.05929,-0.01629,1.08019,3.16370,1.28118,-2.01180,-2.01676,-1.73952,-1.00832,3.12475,-1.70386,0.42625,A,144933.90
3.17819,57.68797927,11.98125023,57.68801,11.98126,14:49:34.033127,0.00350,1.46345,-0.03060,-0.01670,-0.03544,-0.02560,-0.02307,-0.06124,-0.03276,1.09483,3.17391,1.28118,-2.01180,-2.01676,-1.73952,-1.00832,3.12475,-1.70386,0.42625,A,144933.90
3.18857,57.68797927,11.98125023,57.68801,11.98126,14:49:34.042745,0.00349,1.46345,-0.03203,-0.01670,-0.04689,-0.01353,-0.01910,-0.05527,-0.07973,1.05158,3.18452,1.28118,-2.01180,-2.01676,-1.73952,-1.00832,3.12475,-1.70386,0.42625,A,144933.90
3.19897,57.68797927,11.98125023,57.68801,11.98126,14:49:34.053149,0.00349,1.46345,-0.03211,-0.01670,-0.05651,-0.00009,-0.01498,-0.01043,0.01940,1.00156,3.19491,1.28118,-2.01180,-2.01676,-1.73952,-1.00832,3.12475,-1.70386,0.42625,A,144933.90
3.20920,57.68797927,11.98125023,57.68801,11.98126,14:49:34.063603,0.00337,1.46345,-0.03241,-0.01670,-0.05575,-0.01811,-0.00719,-0.01128,0.00299,0.93794,3.20514,1.28118,-2.01180,-2.01676,-1.73952,-1.00832,3.12475,-1.70386,0.42625,A,144933.90
3.21971,57.68797927,11.98125023,57.68801,11.98126,14:49:34.073894,0.00348,1.46345,-0.03189,-0.01670,-0.04307,-0.02483,-0.00230,-0.03532,0.04557,0.91787,3.21565,1.28118,-2.01180,-2.01676,-1.73952,-1.00832,3.12475,-1.70386,0.42625,A,144933.90
3.24268,57.68797927,11.98125023,57.68801,11.98125,14:49:34.096881,0.01605,1.46345,-0.03263,-0.01670,-0.03192,-0.01582,-0.00872,-0.04849,-0.03971,0.93525,3.22585,1.28118,-2.01180,-2.01676,-1.73952,-1.00832,3.24108,-1.77320,0.55597,A,144934.00
3.25905,57.68797958,11.98124920,57.68801,11.98125,14:49:34.113256,0.00747,1.46345,-0.03447,-0.01670,-0.03513,0.00479,-0.03010,0.03617,-0.07790,1.03419,3.25266,1.29940,-1.97329,-1.97825,-1.80082,-0.97306,3.24108,-1.77320,0.55597,A,144934.00
3.26622,57.68797958,11.98124920,57.68801,11.98125,14:49:34.120434,0.00438,1.46345,-0.03577,-0.01670,-0.04017,-0.01261,-0.02643,0.02172,-0.07991,1.00345,3.26183,1.29940,-1.97329,-1.97825,-1.80082,-0.97306,3.24108,-1.77320,0.55597,A,144934.00
3.27575,57.68797958,11.98124920,57.68801,11.98125,14:49:34.129956,0.00351,1.53080,-0.03598,-0.01670,-0.04338,-0.01964,-0.02414,-0.02141,-0.00384,1.06317,3.27169,1.29940,-1.97329,-1.97825,-1.80082,-0.97306,3.24108,-1.77320,0.55597,A,144934.00
3.28613,57.68797958,11.98124920,57.68801,11.98125,14:49:34.140344,0.00349,1.53080,-0.03643,-0.01670,-0.02963,-0.01185,-0.02185,-0.15470,-0.03068,1.07354,3.28187,1.29940,-1.97329,-1.97825,-1.80082,-0.97306,3.24108,-1.77320,0.55597,A,144934.00
3.29653,57.68797958,11.98124920,57.68801,11.98125,14:49:34.150738,0.00350,1.53080,-0.03668,-0.01670,-0.03055,0.01396,-0.01635,-0.08003,-0.01293,0.89164,3.29248,1.29940,-1.97329,-1.97825,-1.80082,-0.97306,3.24108,-1.77320,0.55597,A,144934.00
3.30807,57.68797958,11.98124920,57.68801,11.98125,14:49:34.162273,0.00463,1.53080,-0.03760,-0.01670,-0.03070,0.00999,-0.01330,0.01055,-0.04862,0.83552,3.30400,1.29940,-1.97329,-1.97825,-1.80082,-0.97306,3.24108,-1.77320,0.55597,A,144934.00
3.31712,57.68797958,11.98124920,57.68801,11.98125,14:49:34.171572,0.00331,1.53080,-0.03759,-0.01670,-0.03941,0.00205,-0.00826,-0.00518,0.00342,0.84143,3.31306,1.29940,-1.97329,-1.97825,-1.80082,-0.97306,3.24108,-1.77320,0.55597,A,144934.00
3.32769,57.68797958,11.98124920,57.68801,11.98125,14:49:34.181896,0.00349,1.53080,-0.03739,-0.01670,-0.04002,-0.00590,-0.00719,-0.04459,0.01952,0.94208,3.32364,1.29940,-1.97329,-1.97825,-1.80082,-0.97306,3.24108,-1.77320,0.55597,A,144934.00
3.34011,57.68797958,11.98124920,57.68801,11.98125,14:49:34.194342,0.00550,1.53080,-0.03772,-0.01670,-0.04002,-0.00742,-0.00780,-0.16806,-0.01165,1.13186,3.33556,1.29940,-1.97329,-1.97825,-1.80082,-0.97306,3.24108,-1.77320,0.55597,A,144934.00
3.36313,57.68797958,11.98124920,57.68801,11.98125,14:49:34.217325,0.01813,1.53080,-0.03738,-0.01670,-0.03299,0.02862,-0.01330,-0.13402,0.02794,1.22805,3.34445,1.29940,-1.97329,-1.97825,-1.80082,-0.97306,3.36162,-1.81283,0.63010,A,144934.10
3.38366,57.68797987,11.98124825,57.68801,11.98125,14:49:34.237858,0.00859,1.53080,-0.03840,-0.01670,-0.05040,-0.02376,-0.02842,0.00140,0.01165,0.97027,3.37465,1.32254,-1.93527,-1.94023,-1.85757,-0.94144,3.36162,-1.81283,0.63010,A,144934.10
3.38880,57.68797987,11.98124825,57.68801,11.98125,14:49:34.242979,0.00352,1.53080,-0.03901,-0.01670,-0.04322,-0.03323,-0.02338,-0.06734,-0.02782,0.82313,3.38475,1.32254,-1.93527,-1.94023,-1.85757,-0.94144,3.36162,-1.81283,0.63010,A,144934.10
3.39937,57.68797987,11.98124825,57.68801,11.98125,14:49:34.253552,0.00369,1.53080,-0.03961,-0.01670,-0.04002,-0.03598,-0.02506,-0.12682,-0.02830,0.82179,3.39532,1.32254,-1.93527,-1.94023,-1.85757,-0.94144,3.36162,-1.81283,0.63010,A,144934.10
3.41145,57.68797987,11.98124825,57.68801,11.98125,14:49:34.265642,0.00535,1.53080,-0.04068,-0.01670,-0.04139,-0.01536,-0.02490,-0.08162,-0.05215,0.85278,3.40729,1.32254,-1.93527,-1.94023,-1.85757,-0.94144,3.36162,-1.81283,0.63010,A,144934.10
3.42001,57.68797987,11.98124825,57.68801,11.98125,14:49:34.274194,0.00351,1.53080,-0.04166,-0.01670,-0.03452,0.00113,-0.01910,0.01263,-0.05972,0.86156,3.41596,1.32254,-1.93527,-1.94023,-1.85757,-0.94144,3.36162,-1.81283,0.63010,A,144934.10
3.43038,57.68797987,11.98124825,57.68801,11.98125,14:49:34.284566,0.00349,1.53080,-0.04229,-0.01670,-0.04063,-0.00147,-0.01650,-0.03880,-0.03916,1.00199,3.42612,1.32254,-1.93527,-1.94023,-1.85757,-0.94144,3.36162,-1.81283,0.63010,A,144934.10
3.44076,57.68797987,11.98124825,57.68801,11.98125,14:49:34.294941,0.00347,1.53080,-0.04280,-0.01670,-0.04399,0.01671,-0.00765,-0.09406,-0.03111,1.11770,3.43671,1.32254,-1.93527,-1.94023,-1.85757,-0.94144,3.36162,-1.81283,0.63010,A,144934.10
3.45121,57.68797987,11.98124825,57.68801,11.98125,14:49:34.305396,0.00351,1.53080,-0.04290,-0.01670,-0.04307,0.01946,-0.00810,-0.07357,-0.00238,1.18230,3.44714,1.32254,-1.93527,-1.94023,-1.85757,-0.94144,3.36162,-1.81283,0.63010,A,144934.10
3.46125,57.68797987,11.98124825,57.68801,11.98125,14:49:34.315667,0.00332,1.53080,-0.04279,-0.01670,-0.04109,0.01884,-0.01544,-0.02178,0.01171,1.16541,3.45720,1.32254,-1.93527,-1.94023,-1.85757,-0.94144,3.36162,-1.81283,0.63010,A,144934.10
3.48441,57.68797987,11.98124825,57.68801,11.98125,14:49:34.338597,0.01608,1.53080,-0.04260,-0.01670,-0.04719,0.00082,-0.02322,0.07808,0.02269,1.10721,3.46776,1.32254,-1.93527,-1.94023,-1.85757,-0.94144,3.48293,-1.88217,0.77836,A,144934.20
3.50040,57.68798027,11.98124738,57.68801,11.98125,14:49:34.354588,0.00757,1.53080,-0.04352,-0.01670,-0.02093,-0.03430,-0.03223,-0.01580,-0.04483,0.87700,3.49409,1.34337,-1.89810,-1.90306,-1.90940,-0.89697,3.48293,-1.88217,0.77836,A,144934.20
3.50734,57.68798027,11.98124738,57.68801,11.98125,14:49:34.361524,0.00385,1.53080,-0.04535,-0.01670,-0.02077,-0.02865,-0.02872,-0.13444,-0.11041,0.80825,3.50325,1.34337,-1.89810,-1.90306,-1.90940,-0.89697,3.48293,-1.88217,0.77836,A,144934.20
3.51716,57.68798027,11.98124738,57.68801,11.98125,14:49:34.371554,0.00333,1.53080,-0.04669,-0.01670,-0.02795,-0.01582,-0.02353,-0.08235,-0.08333,0.82936,3.51309,1.34337,-1.89810,-1.90306,-1.90940,-0.89697,3.48293,-1.88217,0.77836,A,144934.20
3.52773,57.68798027,11.98124738,57.68801,11.98125,14:49:34.381913,0.00351,1.53080,-0.04724,-0.01670,-0.02261,-0.00376,-0.01467,-0.07259,-0.04612,0.92232,3.52368,1.34337,-1.89810,-1.90306,-1.90940,-0.89697,3.48293,-1.88217,0.77836,A,144934.20
3.53811,57.68798027,11.98124738,57.68801,11.98125,14:49:34.392294,0.00349,1.53080,-0.04671,-0.01670,-0.01329,0.00479,-0.00276,0.01720,0.01525,1.04029,3.53385,1.34337,-1.89810,-1.90306,-1.90940,-0.89697,3.48293,-1.88217,0.77836,A,144934.20
3.54852,57.68798027,11.98124738,57.68801,11.98125,14:49:34.402704,0.00350,1.53080,-0.04594,-0.01670,0.00656,0.00266,0.00320,-0.02525,0.02208,1.18974,3.54447,1.34337,-1.89810,-1.90306,-1.90940,-0.89697,3.48293,-1.88217,0.77836,A,144934.20
3.55891,57.68798027,11.98124738,57.68801,11.98125,14:49:34.413095,0.00349,1.53080,-0.04551,-0.01670,0.02015,-0.00223,0.00335,-0.03495,-0.01568,1.20176,3.55485,1.34337,-1.89810,-1.90306,-1.90940,-0.89697,3.48293,-1.88217,0.77836,A,144934.20
3.56912,57.68798027,11.98124738,57.68801,11.98125,14:49:34.423580,0.00330,1.53080,-0.04568,-0.01670,0.03405,-0.01414,0.00640,0.06015,-0.06966,1.13064,3.56507,1.34337,-1.89810,-1.90306,-1.90940,-0.89697,3.48293,-1.88217,0.77836,A,144934.20
3.57972,57.68798027,11.98124738,57.68801,11.98125,14:49:34.433909,0.00350,1.53080,-0.04595,-0.01667,0.02871,-0.03232,0.00625,-0.01141,-0.06826,1.03047,3.57565,1.34337,-1.89810,-1.90306,-1.90940,-0.89697,3.48293,-1.88217,0.77836,A,144934.20
3.61392,57.68798027,11.98124738,57.68801,11.98125,14:49:34.468123,0.02731,1.53080,-0.04566,-0.01631,0.03665,-0.03705,0.00747,-0.03215,-0.03166,0.93690,3.58584,1.34337,-1.89810,-1.90306,-1.90940,-0.89697,3.61221,-1.96142,0.87103,A,144934.40
3.62801,57.68798057,11.98124646,57.68801,11.98125,14:49:34.482212,0.00748,1.53080,-0.04357,-0.01019,0.06123,-0.01765,0.02824,-0.10937,-0.02934,0.94581,3.62165,1.36211,-1.85886,-1.86189,-1.96409,-0.86358,3.61221,-1.96142,0.87103,A,144934.40
3.63452,57.68798057,11.98124646,57.68801,11.98125,14:49:34.488708,0.00352,1.53080,-0.04230,-0.00793,0.05268,-0.00574,0.02809,-0.04075,0.02983,0.99680,3.63044,1.36211,-1.85886,-1.86189,-1.96409,-0.86358,3.61221,-1.96142,0.87103,A,144934.40
3.64488,57.68798057,11.98124646,57.68801,11.98125,14:49:34.499062,0.00331,1.53080,-0.04129,-0.00533,0.05894,-0.01139,0.02671,-0.00787,0.00506,1.02620,3.64083,1.36211,-1.85886,-1.86189,-1.96409,-0.86358,3.61221,-1.96142,0.87103,A,144934.40
3.65547,57.68798057,11.98124646,57.68801,11.98125,14:49:34.509655,0.00350,1.53080,-0.04010,-0.00309,0.05497,-0.02239,0.02213,0.04008,0.02123,1.04267,3.65143,1.36211,-1.85886,-1.86189,-1.96409,-0.86358,3.61221,-1.96142,0.87103,A,144934.40
3.66573,57.68798057,11.98124646,57.68801,11.98125,14:49:34.519928,0.00352,1.53080,-0.03889,-0.00125,0.05482,-0.03277,0.01740,-0.09327,0.02812,1.11288,3.66148,1.36211,-1.85886,-1.86189,-1.96409,-0.86358,3.61221,-1.96142,0.87103,A,144934.40
3.67687,57.68798057,11.98124646,57.68801,11.98125,14:49:34.531060,0.00426,1.53080,-0.03813,0.00031,0.05329,-0.02224,0.00869,-0.05173,-0.00464,1.10752,3.67203,1.36211,-1.85886,-1.86189,-1.96409,-0.86358,3.61221,-1.96142,0.87103,A,144934.40
3.68651,57.68798057,11.98124646,57.68801,11.98125,14:49:34.540691,0.00350,1.53080,-0.03823,0.00144,0.04795,-0.02728,0.00411,-0.09656,-0.06118,1.08220,3.68244,1.36211,-1.85886,-1.86189,-1.96409,-0.86358,3.61221,-1.96142,0.87103,A,144934.40
3.69697,57.68798057,11.98124646,57.68801,11.98125,14:49:34.551157,0.00339,1.53080,-0.03750,0.00232,0.03848,-0.00880,0.00304,-0.05893,0.00573,0.98192,3.69292,1.36211,-1.85886,-1.86189,-1.96409,-0.86358,3.61221,-1.96142,0.87103,A,144934.40
3.70784,57.68798057,11.98124646,57.68801,11.98125,14:49:34.562030,0.00374,1.53080,-0.03713,0.00285,0.04566,-0.00101,0.00564,-0.02452,-0.02257,0.94459,3.70377,1.36211,-1.85886,-1.86189,-1.96409,-0.86358,3.61221,-1.96142,0.87103,A,144934.40
3.73047,57.68798057,11.98124646,57.68801,11.98125,14:49:34.584668,0.01597,1.53080,-0.03645,0.00308,0.04474,-0.00880,0.01098,-0.05209,0.00085,0.92269,3.71373,1.36211,-1.85886,-1.86189,-1.96409,-0.86358,3.72888,-2.00104,0.94516,A,144934.50
3.74873,57.68798095,11.98124570,57.68801,11.98125,14:49:34.603680,0.00797,1.55294,-0.03577,0.00308,0.04321,0.00739,0.01740,-0.03861,-0.04435,0.92879,3.74132,1.38119,-1.82112,-1.82020,-2.00914,-0.82075,3.72888,-2.00104,0.94516,A,144934.50
3.75449,57.68798095,11.98124570,57.68801,11.98125,14:49:34.608670,0.00353,1.55294,-0.03535,0.00308,0.03665,0.00312,0.01282,0.01519,-0.00769,0.96508,3.75039,1.38119,-1.82112,-1.82020,-2.00914,-0.82075,3.72888,-2.00104,0.94516,A,144934.50
3.76486,57.68798095,11.98124570,57.68801,11.98125,14:49:34.619036,0.00332,1.55294,-0.03449,0.00308,0.04016,0.00052,0.01602,-0.06661,0.01690,1.03133,3.76080,1.38119,-1.82112,-1.82020,-2.00914,-0.82075,3.72888,-2.00104,0.94516,A,144934.50
3.77550,57.68798095,11.98124570,57.68801,11.98125,14:49:34.629685,0.00357,1.55294,-0.03400,0.00308,0.03115,0.00877,0.01007,-0.11017,-0.00250,1.09056,3.77145,1.38119,-1.82112,-1.82020,-2.00914,-0.82075,3.72888,-2.00104,0.94516,A,144934.50
3.78571,57.68798095,11.98124570,57.68801,11.98125,14:49:34.639910,0.00355,1.55294,-0.03401,0.00308,0.02168,0.01487,0.00961,-0.06533,-0.02879,1.05560,3.78146,1.38119,-1.82112,-1.82020,-2.00914,-0.82075,3.72888,-2.00104,0.94516,A,144934.50
3.79606,57.68798095,11.98124570,57.68801,11.98125,14:49:34.650245,0.00349,1.55294,-0.03404,0.00308,0.00946,0.01381,0.00671,0.00805,-0.01976,0.94550,3.79202,1.38119,-1.82112,-1.82020,-2.00914,-0.82075,3.72888,-2.00104,0.94516,A,144934.50
3.80686,57.68798095,11.98124570,57.68801,11.98125,14:49:34.661072,0.00365,1.55294,-0.03317,0.00308,0.00381,-0.00498,0.00518,0.00586,0.04008,0.92116,3.80254,1.38119,-1.82112,-1.82020,-2.00914,-0.82075,3.72888,-2.00104,0.94516,A,144934.50
3.81687,57.68798095,11.98124570,57.68801,11.98125,14:49:34.671053,0.00330,1.55294,-0.03215,0.00308,0.00534,-0.00559,0.00182,-0.10821,0.05136,0.97344,3.81282,1.38119,-1.82112,-1.82020,-2.00914,-0.82075,3.72888,-2.00104,0.94516,A,144934.50
3.82748,57.68798095,11.98124570,57.68801,11.98125,14:49:34.681663,0.00352,1.55294,-0.03197,0.00302,0.01359,0.00800,-0.00627,-0.08924,-0.00823,0.99082,3.82344,1.38119,-1.82112,-1.82020,-2.00914,-0.82075,3.72888,-2.00104,0.94516,A,144934.50
3.85072,57.68798095,11.98124570,57.68801,11.98125,14:49:34.704916,0.01653,1.55294,-0.03233,0.00288,0.00259,0.02343,-0.00612,-0.02562,-0.03489,0.96880,3.83347,1.38119,-1.82112,-1.82020,-2.00914,-0.82075,3.84864,-2.01095,0.94516,A,144934.60
3.86366,57.68798133,11.98124512,57.68801,11.98125,14:49:34.718415,0.00749,1.55294,-0.03255,0.00251,-0.01329,0.02419,-0.00734,-0.01019,-0.00592,1.03493,3.85575,1.39837,-1.77106,-1.77032,-2.04359,-0.77868,3.84864,-2.01095,0.94516,A,144934.60
3.87006,57.68798133,11.98124512,57.68801,11.98125,14:49:34.724242,0.00349,1.55294,-0.03248,0.00243,-0.01115,0.01411,-0.00642,0.00543,0.00116,1.01663,3.86580,1.39837,-1.77106,-1.77032,-2.04359,-0.77868,3.84864,-2.01095,0.94516,A,144934.60
3.88047,57.68798133,11.98124512,57.68801,11.98125,14:49:34.734649,0.00350,1.55294,-0.03184,0.00243,-0.00474,0.00067,-0.00108,0.02220,0.03526,1.00223,3.87641,1.39837,-1.77106,-1.77032,-2.04359,-0.77868,3.84864,-2.01095,0.94516,A,144934.60
3.89084,57.68798133,11.98124512,57.68801,11.98125,14:49:34.745034,0.00347,1.55294,-0.03116,0.00243,-0.00275,-0.00299,0.00442,-0.12798,0.04117,1.12222,3.88679,1.39837,-1.77106,-1.77032,-2.04359,-0.77868,3.84864,-2.01095,0.94516,A,144934.60
3.90126,57.68798133,11.98124512,57.68801,11.98125,14:49:34.755682,0.00333,1.55294,-0.03158,0.00243,0.00274,0.01274,0.01053,-0.10486,-0.04270,1.07628,3.89720,1.39837,-1.77106,-1.77032,-2.04359,-0.77868,3.84864,-2.01095,0.94516,A,144934.60
3.91187,57.68798133,11.98124512,57.68801,11.98125,14:49:34.766047,0.00353,1.55294,-0.03264,0.00243,0.00702,0.02098,0.00457,0.12401,-0.07845,0.91390,3.90781,1.39837,-1.77106,-1.77032,-2.04359,-0.77868,3.84864,-2.01095,0.94516,A,144934.60
3.92223,57.68798133,11.98124512,57.68801,11.98125,14:49:34.776424,0.00350,1.55294,-0.03308,0.00243,-0.00428,-0.00254,0.01343,0.01586,-0.03166,0.85345,3.91796,1.39837,-1.77106,-1.77032,-2.04359,-0.77868,3.84864,-2.01095,0.94516,A,144934.60
3.93261,57.68798133,11.98124512,57.68801,11.98125,14:49:34.786788,0.00347,1.55294,-0.03300,0.00243,-0.00993,0.00449,0.00961,-0.19404,0.00030,0.98143,3.92855,1.39837,-1.77106,-1.77032,-2.04359,-0.77868,3.84864,-2.01095,0.94516,A,144934.60
3.94297,57.68798133,11.98124512,57.68801,11.98125,14:49:34.797164,0.00344,1.55294,-0.03227,0.00243,0.00152,0.04221,0.00732,-0.13786,0.03532,0.96459,3.93891,1.39837,-1.77106,-1.77032,-2.04359,-0.77868,3.84864,-2.01095,0.94516,A,144934.60
3.96625,57.68798133,11.98124512,57.68802,11.98125,14:49:34.820448,0.01642,1.55294,-0.03264,0.00243,-0.00566,0.04710,0.00610,0.05246,-0.03001,0.94160,3.94908,1.39837,-1.77106,-1.77032,-2.04359,-0.77868,3.96461,-2.03076,1.13048,A,144934.70
3.97767,57.68798180,11.98124467,57.68802,11.98125,14:49:34.831871,0.00590,1.55294,-0.03169,0.00243,-0.01711,-0.02376,0.00197,-0.00464,0.08662,1.12100,3.97133,1.41383,-1.73623,-1.73551,-2.07031,-0.72628,3.96461,-2.03076,1.13048,A,144934.70
3.98531,57.68798180,11.98124467,57.68802,11.98125,14:49:34.839711,0.00331,1.55294,-0.03115,0.00243,0.00167,-0.01445,0.00106,-0.15067,0.02867,1.13979,3.98127,1.41383,-1.73623,-1.73551,-2.07031,-0.72628,3.96461,-2.03076,1.13048,A,144934.70
3.99588,57.68798180,11.98124467,57.68802,11.98125,14:49:34.850065,0.00348,1.55294,-0.03173,0.00243,0.00442,0.01991,-0.00047,-0.11200,-0.05331,1.03383,3.99184,1.41383,-1.73623,-1.73551,-2.07031,-0.72628,3.96461,-2.03076,1.13048,A,144934.70
4.00643,57.68798180,11.98124467,57.68802,11.98125,14:49:34.860611,0.00363,1.55294,-0.03268,0.00243,-0.00107,0.03121,0.00289,-0.00762,-0.07161,0.98143,4.00234,1.41383,-1.73623,-1.73551,-2.07031,-0.72628,3.96461,-2.03076,1.13048,A,144934.70
4.01667,57.68798180,11.98124467,57.68802,11.98125,14:49:34.870854,0.00347,1.55294,-0.03286,0.00243,-0.01512,0.02052,0.01266,0.02532,-0.01189,0.92915,4.01263,1.41383,-1.73623,-1.73551,-2.07031,-0.72628,3.96461,-2.03076,1.13048,A,144934.70
4.02698,57.68798180,11.98124467,57.68802,11.98125,14:49:34.881163,0.00338,1.55294,-0.03190,0.00243,-0.00657,0.00479,0.01877,0.05703,0.04764,0.83100,4.02292,1.41383,-1.73623,-1.73551,-2.07031,-0.72628,3.96461,-2.03076,1.13048,A,144934.70
4.03723,57.68798180,11.98124467,57.68802,11.98125,14:49:34.891636,0.00334,1.55294,-0.03116,0.00243,-0.00703,-0.01429,0.02458,-0.00189,0.03501,0.79989,4.03316,1.41383,-1.73623,-1.73551,-2.07031,-0.72628,3.96461,-2.03076,1.13048,A,144934.70
4.04798,57.68798180,11.98124467,57.68802,11.98125,14:49:34.902185,0.00369,1.55294,-0.03095,0.00243,0.00320,-0.02147,0.02137,-0.13097,0.00171,0.93287,4.04382,1.41383,-1.73623,-1.73551,-2.07031,-0.72628,3.96461,-2.03076,1.13048,A,144934.70
4.05817,57.68798180,11.98124467,57.68802,11.98125,14:49:34.912364,0.00349,1.55294,-0.03136,0.00243,-0.00810,0.00266,0.01282,-0.15177,-0.03324,1.06970,4.05391,1.41383,-1.73623,-1.73551,-2.07031,-0.72628,3.96461,-2.03076,1.13048,A,144934.70
4.08333,57.68798180,11.98124467,57.68802,11.98125,14:49:34.937523,0.01825,1.55294,-0.03331,0.00243,-0.01909,0.01289,0.01129,0.09882,-0.12853,1.03175,4.06668,1.41383,-1.73623,-1.73551,-2.07031,-0.72628,4.08183,-2.09020,1.18608,A,144934.80
4.09765,57.68798220,11.98124422,57.68802,11.98125,14:49:34.951859,0.00791,1.55294,-0.03304,0.00243,-0.04047,-0.04026,0.01847,-0.19105,0.08089,1.15199,4.09064,1.42774,-1.69461,-1.69389,-2.09680,-0.68246,4.08183,-2.09020,1.18608,A,144934.80
4.10366,57.68798220,11.98124422,57.68802,11.98125,14:49:34.957849,0.00351,1.55294,-0.03261,0.00243,-0.02872,0.00021,0.01847,-0.29719,0.04008,1.19639,4.09960,1.42774,-1.69461,-1.69389,-2.09680,-0.68246,4.08183,-2.09020,1.18608,A,144934.80
4.11405,57.68798220,11.98124422,57.68802,11.98125,14:49:34.968242,0.00350,1.55294,-0.03250,0.00243,-0.02673,0.03671,0.01679,-0.06759,0.01470,1.04157,4.10977,1.42774,-1.69461,-1.69389,-2.09680,-0.68246,4.08183,-2.09020,1.18608,A,144934.80
4.12444,57.68798220,11.98124422,57.68802,11.98125,14:49:34.978619,0.00349,1.55294,-0.03320,0.00243,-0.03192,0.01869,0.01832,0.16299,-0.02971,0.85437,4.12039,1.42774,-1.69461,-1.69389,-2.09680,-0.68246,4.08183,-2.09020,1.18608,A,144934.80
4.13497,57.68798220,11.98124422,57.68802,11.98125,14:49:34.989157,0.00340,1.55294,-0.03407,0.00243,-0.03742,-0.02514,0.02152,0.07735,-0.03666,0.83820,4.13091,1.42774,-1.69461,-1.69389,-2.09680,-0.68246,4.08183,-2.09020,1.18608,A,144934.80
4.14679,57.68798220,11.98124422,57.68802,11.98125,14:49:35.001007,0.00499,1.55294,-0.03329,0.00243,-0.03269,-0.03888,0.01877,-0.11925,0.05441,0.88688,4.14116,1.42774,-1.69461,-1.69389,-2.09680,-0.68246,4.08183,-2.09020,1.18608,A,144934.80
4.15577,57.68798220,11.98124422,57.68802,11.98125,14:49:35.009960,0.00356,1.55294,-0.03416,0.00243,-0.02337,-0.01872,0.01816,-0.21899,-0.04953,0.92366,4.15163,1.42774,-1.69461,-1.69389,-2.09680,-0.68246,4.08183,-2.09020,1.18608,A,144934.80
4.16611,57.68798220,11.98124422,57.68802,11.98125,14:49:35.020299,0.00351,1.55294,-0.03542,0.00243,-0.02719,0.00403,0.01312,-0.14329,-0.07869,1.00375,4.16183,1.42774,-1.69461,-1.69389,-2.09680,-0.68246,4.08183,-2.09020,1.18608,A,144934.80
4.17647,57.68798220,11.98124422,57.68802,11.98125,14:49:35.030648,0.00347,1.55294,-0.03668,0.00243,-0.03009,0.02037,0.01557,0.07302,-0.07906,1.01949,4.17242,1.42774,-1.69461,-1.69389,-2.09680,-0.68246,4.08183,-2.09020,1.18608,A,144934.80
4.19982,57.68798220,11.98124422,57.68802,11.98125,14:49:35.054007,0.01641,1.55294,-0.03700,0.00243,-0.03376,0.00403,0.02168,0.09101,-0.01464,1.09275,4.18281,1.42774,-1.69461,-1.69389,-2.09680,-0.68246,4.19833,-2.13973,1.22314,A,144934.90
4.21889,57.68798254,11.98124383,57.68802,11.98125,14:49:35.073079,0.00679,1.53878,-0.03750,0.00243,-0.01314,0.00021,0.03099,-0.07954,-0.02464,1.06524,4.21246,1.43884,-1.65230,-1.65158,-2.11994,-0.64421,4.19833,-2.13973,1.22314,A,144934.90
4.22597,57.68798254,11.98124383,57.68802,11.98125,14:49:35.080156,0.00348,1.53878,-0.03794,0.00243,-0.01207,0.00403,0.02641,0.02763,-0.03489,0.92372,4.22171,1.43884,-1.65230,-1.65158,-2.11994,-0.64421,4.19833,-2.13973,1.22314,A,144934.90
4.23636,57.68798254,11.98124383,57.68802,11.98125,14:49:35.090546,0.00347,1.53878,-0.03939,0.00243,-0.02444,-0.01628,0.02335,0.04599,-0.07875,0.81771,4.23232,1.43884,-1.65230,-1.65158,-2.11994,-0.64421,4.19833,-2.13973,1.22314,A,144934.90
4.24678,57.68798254,11.98124383,57.68802,11.98125,14:49:35.100967,0.00349,1.53878,-0.03942,0.00243,-0.01971,-0.01781,0.01480,-0.02611,-0.00525,0.78458,4.24272,1.43884,-1.65230,-1.65158,-2.11994,-0.64421,4.19833,-2.13973,1.22314,A,144934.90
4.25711,57.68798254,11.98124383,57.68802,11.98125,14:49:35.111530,0.00330,1.53878,-0.04030,0.00243,-0.02398,-0.00758,0.01434,-0.20728,-0.05374,0.89987,4.25306,1.43884,-1.65230,-1.65158,-2.11994,-0.64421,4.19833,-2.13973,1.22314,A,144934.90
4.26853,57.68798254,11.98124383,57.68802,11.98125,14:49:35.122721,0.00432,1.53878,-0.04099,0.00243,-0.02887,0.03732,0.00717,-0.20545,-0.04508,1.04261,4.26447,1.43884,-1.65230,-1.65158,-2.11994,-0.64421,4.19833,-2.13973,1.22314,A,144934.90
4.27813,57.68798254,11.98124383,57.68802,11.98125,14:49:35.132317,0.00352,1.53878,-0.04169,0.00243,-0.03437,0.05641,0.01037,-0.09534,-0.04978,1.10666,4.27384,1.43884,-1.65230,-1.65158,-2.11994,-0.64421,4.19833,-2.13973,1.22314,A,144934.90
4.28851,57.68798254,11.98124383,57.68802,11.98125,14:49:35.142699,0.00350,1.53878,-0.04155,0.00243,-0.04261,0.07382,0.01373,0.02281,0.02135,1.17047,4.28447,1.43884,-1.65230,-1.65158,-2.11994,-0.64421,4.19833,-2.13973,1.22314,A,144934.90
4.32276,57.68798254,11.98124383,57.68802,11.98125,14:49:35.176958,0.02734,1.53878,-0.04070,0.00243,-0.03467,0.04893,0.02274,0.12560,0.06960,1.14467,4.29505,1.43884,-1.65230,-1.65158,-2.11994,-0.64421,4.32118,-2.22889,1.46407,A,144935.10
4.33952,57.68798306,11.98124344,57.68802,11.98125,14:49:35.193712,0.00717,1.53878,-0.04331,0.00243,-0.03284,0.00113,0.01205,0.01970,-0.08723,0.78617,4.33313,1.44883,-1.61615,-1.61543,-2.14321,-0.58630,4.32118,-2.22889,1.46407,A,144935.10
4.34627,57.68798306,11.98124344,57.68802,11.98125,14:49:35.200455,0.00353,1.53878,-0.04457,0.00243,-0.04093,-0.01093,0.00793,-0.02428,-0.06875,0.83491,4.34198,1.44883,-1.61615,-1.61543,-2.14321,-0.58630,4.32118,-2.22889,1.46407,A,144935.10
4.35663,57.68798306,11.98124344,57.68802,11.98125,14:49:35.210813,0.00349,1.53878,-0.04488,0.00243,-0.04536,-0.00605,0.00533,-0.16543,-0.01269,1.04505,4.35259,1.44883,-1.61615,-1.61543,-2.14321,-0.58630,4.32118,-2.22889,1.46407,A,144935.10
4.36699,57.68798306,11.98124344,57.68802,11.98125,14:49:35.221181,0.00345,1.53878,-0.04506,0.00243,-0.03498,0.04129,0.00778,-0.17385,-0.01269,1.12551,4.36293,1.44883,-1.61615,-1.61543,-2.14321,-0.58630,4.32118,-2.22889,1.46407,A,144935.10
4.37715,57.68798306,11.98124344,57.68802,11.98125,14:49:35.231562,0.00332,1.53878,-0.04568,0.00243,-0.04551,0.07092,0.00793,-0.04660,-0.03892,1.11807,4.37308,1.44883,-1.61615,-1.61543,-2.14321,-0.58630,4.32118,-2.22889,1.46407,A,144935.10
4.38771,57.68798306,11.98124344,57.68802,11.98125,14:49:35.241892,0.00349,1.53878,-0.04634,0.00243,-0.05743,0.05794,0.01664,0.08680,-0.02959,1.04938,4.38366,1.44883,-1.61615,-1.61543,-2.14321,-0.58630,4.32118,-2.22889,1.46407,A,144935.10
4.39855,57.68798306,11.98124344,57.68802,11.98125,14:49:35.252744,0.00393,1.53878,-0.04605,0.00243,-0.06338,0.01319,0.01633,0.11883,0.03672,0.99845,4.39385,1.44883,-1.61615,-1.61543,-2.14321,-0.58630,4.32118,-2.22889,1.46407,A,144935.10
4.40902,57.68798306,11.98124344,57.68802,11.98125,14:49:35.263215,0.00394,1.53878,-0.04438,0.00243,-0.04964,-0.03155,0.02091,0.06649,0.11029,0.89725,4.40469,1.44883,-1.61615,-1.61543,-2.14321,-0.58630,4.32118,-2.22889,1.46407,A,144935.10
4.41911,57.68798306,11.98124344,57.68802,11.98125,14:49:35.273301,0.00363,1.53878,-0.04365,0.00243,-0.02749,-0.05812,0.01740,-0.01891,0.03721,0.83954,4.41505,1.44883,-1.61615,-1.61543,-2.14321,-0.58630,4.32118,-2.22889,1.46407,A,144935.10
4.44445,57.68798306,11.98124344,57.68802,11.98125,14:49:35.298643,0.01862,1.53878,-0.04455,0.00243,-0.02536,-0.05370,0.00869,-0.17788,-0.06045,0.92195,4.42508,1.44883,-1.61615,-1.61543,-2.14321,-0.58630,4.44242,-2.29823,1.53820,A,144935.20
4.46345,57.68798355,11.98124306,57.68802,11.98125,14:49:35.317646,0.00795,1.53878,-0.04669,0.00243,-0.06476,0.06497,0.00976,-0.04148,-0.03227,1.08299,4.45701,1.45783,-1.57638,-1.57566,-2.16580,-0.53243,4.44242,-2.29823,1.53820,A,144935.20
4.46908,57.68798355,11.98124306,57.68802,11.98125,14:49:35.323699,0.00331,1.53878,-0.04608,0.00243,-0.05758,0.05702,0.02290,0.01665,0.04801,1.04127,4.46503,1.45783,-1.57638,-1.57566,-2.16580,-0.53243,4.44242,-2.29823,1.53820,A,144935.20
4.48182,57.68798355,11.98124306,57.68802,11.98125,14:49:35.336025,0.00566,1.53878,-0.04538,0.00243,-0.04750,0.02144,0.03786,0.08540,0.05923,0.96471,4.47755,1.45783,-1.57638,-1.57566,-2.16580,-0.53243,4.44242,-2.29823,1.53820,A,144935.20
4.49005,57.68798355,11.98124306,57.68802,11.98125,14:49:35.344240,0.00349,1.53878,-0.04474,0.00243,-0.03544,-0.01995,0.03603,0.08046,0.03617,0.95495,4.48579,1.45783,-1.57638,-1.57566,-2.16580,-0.53243,4.44242,-2.29823,1.53820,A,144935.20
4.50047,57.68798355,11.98124306,57.68802,11.98125,14:49:35.354657,0.00365,1.53878,-0.04433,0.00243,-0.03284,-0.05095,0.03053,0.02898,0.02525,0.95014,4.49639,1.45783,-1.57638,-1.57566,-2.16580,-0.53243,4.44242,-2.29823,1.53820,A,144935.20
4.51131,57.68798355,11.98124306,57.68802,11.98125,14:49:35.365503,0.00410,1.53878,-0.04514,0.00243,-0.01467,-0.06041,0.01679,-0.03733,-0.06222,0.94367,4.50720,1.45783,-1.57638,-1.57566,-2.16580,-0.53243,4.44242,-2.29823,1.53820,A,144935.20
4.52110,57.68798355,11.98124306,57.68802,11.98125,14:49:35.375561,0.00335,1.53878,-0.04661,0.00243,-0.01375,-0.04026,-0.00001,-0.07924,-0.11297,0.99534,4.51704,1.45783,-1.57638,-1.57566,-2.16580,-0.53243,4.44242,-2.29823,1.53820,A,144935.20
4.53183,57.68798355,11.98124306,57.68802,11.98125,14:49:35.386013,0.00367,1.53878,-0.04835,0.00243,-0.01757,-0.00116,-0.00093,-0.21978,-0.13554,1.04615,4.52775,1.45783,-1.57638,-1.57566,-2.16580,-0.53243,4.44242,-2.29823,1.53820,A,144935.20
4.54212,57.68798355,11.98124306,57.68802,11.98125,14:49:35.396314,0.00356,1.53878,-0.05019,0.00243,-0.02490,0.03809,0.00289,-0.07594,-0.13347,1.00125,4.53783,1.45783,-1.57638,-1.57566,-2.16580,-0.53243,4.44242,-2.29823,1.53820,A,144935.20
4.56515,57.68798355,11.98124306,57.68802,11.98125,14:49:35.419562,0.01620,1.53878,-0.05073,0.00249,-0.02795,0.04710,0.01786,0.07704,-0.04325,0.95569,4.54842,1.45783,-1.57638,-1.57566,-2.16580,-0.53243,4.56367,-2.32795,1.68646,A,144935.30
4.58053,57.68798419,11.98124278,57.68802,11.98125,14:49:35.435751,0.00663,1.53878,-0.04850,0.00334,0.01053,-0.03415,0.05161,0.07655,0.10468,1.02230,4.57328,1.46592,-1.54257,-1.54158,-2.18274,-0.46021,4.56367,-2.32795,1.68646,A,144935.30
4.58782,57.68798419,11.98124278,57.68802,11.98125,14:49:35.442002,0.00352,1.53878,-0.04832,0.00376,0.03390,-0.05644,0.05268,-0.04734,-0.04130,1.08183,4.58377,1.46592,-1.54257,-1.54158,-2.18274,-0.46021,4.56367,-2.32795,1.68646,A,144935.30
4.59836,57.68798419,11.98124278,57.68802,11.98125,14:49:35.452543,0.00367,1.53878,-0.04915,0.00401,0.04001,-0.04850,0.03954,-0.00024,-0.12066,1.10880,4.59408,1.46592,-1.54257,-1.54158,-2.18274,-0.46021,4.56367,-2.32795,1.68646,A,144935.30
4.60873,57.68798419,11.98124278,57.68802,11.98125,14:49:35.463173,0.00364,1.53878,-0.05079,0.00413,0.02290,-0.03033,0.03023,-0.08491,-0.17086,1.10886,4.60467,1.46592,-1.54257,-1.54158,-2.18274,-0.46021,4.56367,-2.32795,1.68646,A,144935.30
4.61913,57.68798419,11.98124278,57.68802,11.98125,14:49:35.473317,0.00363,1.53878,-0.05181,0.00416,-0.00077,-0.01659,0.02000,-0.10565,-0.09748,1.00949,4.61506,1.46592,-1.54257,-1.54158,-2.18274,-0.46021,4.56367,-2.32795,1.68646,A,144935.30
4.62915,57.68798419,11.98124278,57.68802,11.98125,14:49:35.483554,0.00333,1.53878,-0.05134,0.00416,-0.00840,0.00373,0.02290,-0.06966,0.00604,0.90762,4.62509,1.46592,-1.54257,-1.54158,-2.18274,-0.46021,4.56367,-2.32795,1.68646,A,144935.30
4.63972,57.68798419,11.98124278,57.68802,11.98125,14:49:35.493902,0.00350,1.53878,-0.05051,0.00416,-0.00489,0.00571,0.02473,-0.08449,0.02464,0.83314,4.63566,1.46592,-1.54257,-1.54158,-2.18274,-0.46021,4.56367,-2.32795,1.68646,A,144935.30
4.65019,57.68798419,11.98124278,57.68802,11.98125,14:49:35.504384,0.00357,1.53878,-0.04993,0.00416,0.00549,0.01274,0.02412,-0.02995,0.00555,0.84332,4.64586,1.46592,-1.54257,-1.54158,-2.18274,-0.46021,4.56367,-2.32795,1.68646,A,144935.30
4.66068,57.68798419,11.98124278,57.68802,11.98125,14:49:35.514869,0.00366,1.53878,-0.04930,0.00416,-0.00306,-0.00299,0.02656,-0.01354,0.01488,0.90945,4.65662,1.46592,-1.54257,-1.54158,-2.18274,-0.46021,4.56367,-2.32795,1.68646,A,144935.30
4.68362,57.68798419,11.98124278,57.68802,11.98124,14:49:35.537807,0.01620,1.53878,-0.04913,0.00416,0.00183,-0.00605,0.01404,-0.02214,-0.01745,0.99729,4.66686,1.46592,-1.54257,-1.54158,-2.18274,-0.46021,4.68212,-2.38738,1.81618,A,144935.40
4.70039,57.68798483,11.98124251,57.68802,11.98124,14:49:35.554580,0.00739,1.52617,-0.05030,0.00416,-0.02139,-0.00024,0.00457,-0.10279,-0.08162,1.22110,4.69407,1.47195,-1.50662,-1.50538,-2.19863,-0.38927,4.68212,-2.38738,1.81618,A,144935.40
4.70731,57.68798483,11.98124251,57.68802,11.98124,14:49:35.561496,0.00368,1.52617,-0.05068,0.00416,-0.02978,0.00693,-0.00261,-0.04880,-0.04160,1.13972,4.70325,1.47195,-1.50662,-1.50538,-2.19863,-0.38927,4.68212,-2.38738,1.81618,A,144935.40
4.71724,57.68798483,11.98124251,57.68802,11.98124,14:49:35.571652,0.00335,1.52617,-0.05139,0.00416,-0.04399,0.00602,-0.00215,0.05191,-0.04447,0.94812,4.71318,1.47195,-1.50662,-1.50538,-2.19863,-0.38927,4.68212,-2.38738,1.81618,A,144935.40
4.72780,57.68798483,11.98124251,57.68802,11.98124,14:49:35.581986,0.00352,1.52617,-0.05097,0.00416,-0.03879,-0.02178,-0.00352,-0.01159,0.02123,0.82984,4.72375,1.47195,-1.50662,-1.50538,-2.19863,-0.38927,4.68212,-2.38738,1.81618,A,144935.40
4.73829,57.68798483,11.98124251,57.68802,11.98124,14:49:35.592487,0.00360,1.52617,-0.05058,0.00416,-0.02826,-0.02193,-0.00093,-0.09370,0.01244,0.78428,4.73392,1.47195,-1.50662,-1.50538,-2.19863,-0.38927,4.68212,-2.38738,1.81618,A,144935.40
4.74957,57.68798483,11.98124251,57.68802,11.98124,14:49:35.603785,0.00448,1.52617,-0.05106,0.00416,-0.02322,-0.00345,-0.00032,-0.22649,-0.03709,0.86016,4.74524,1.47195,-1.50662,-1.50538,-2.19863,-0.38927,4.68212,-2.38738,1.81618,A,144935.40
4.75900,57.68798483,11.98124251,57.68802,11.98124,14:49:35.613179,0.00351,1.52617,-0.05223,0.00413,-0.01894,0.03519,-0.00810,-0.18294,-0.08979,0.94019,4.75493,1.47195,-1.50662,-1.50538,-2.19863,-0.38927,4.68212,-2.38738,1.81618,A,144935.40
4.76915,57.68798483,11.98124251,57.68802,11.98124,14:49:35.623553,0.00332,1.52617,-0.05341,0.00399,-0.02505,0.06344,-0.01085,-0.01287,-0.09559,1.02937,4.76509,1.47195,-1.50662,-1.50538,-2.19863,-0.38927,4.68212,-2.38738,1.81618,A,144935.40
4.77973,57.68798483,11.98124251,57.68802,11.98124,14:49:35.633912,0.00350,1.52617,-0.05394,0.00359,-0.04277,0.05641,-0.00826,0.05081,-0.04124,1.10441,4.77567,1.47195,-1.50662,-1.50538,-2.19863,-0.38927,4.68212,-2.38738,1.81618,A,144935.40
4.81423,57.68798483,11.98124251,57.68802,11.98124,14:49:35.668424,0.02761,1.52617,-0.05372,0.00297,-0.04124,0.02770,-0.00307,0.05209,0.01104,1.12161,4.78586,1.47195,-1.50662,-1.50538,-2.19863,-0.38927,4.81251,-2.47654,2.05711,A,144935.60
4.83146,57.68798550,11.98124223,57.68802,11.98124,14:49:35.685654,0.00766,1.52617,-0.05451,0.00051,-0.00779,-0.01521,-0.00429,-0.13225,-0.06521,0.99863,4.82502,1.47737,-1.47159,-1.47144,-2.21526,-0.31501,4.81251,-2.47654,2.05711,A,144935.60
4.83768,57.68798550,11.98124223,57.68802,11.98124,14:49:35.691888,0.00363,1.52617,-0.05560,0.00025,-0.00046,0.01243,-0.00520,-0.10687,-0.10510,0.98918,4.83335,1.47737,-1.47159,-1.47144,-2.21526,-0.31501,4.81251,-2.47654,2.05711,A,144935.60
4.84796,57.68798550,11.98124223,57.68802,11.98124,14:49:35.702148,0.00352,1.52617,-0.05724,0.00022,-0.00688,0.03961,0.00197,-0.08668,-0.13664,0.97661,4.84391,1.47737,-1.47159,-1.47144,-2.21526,-0.31501,4.81251,-2.47654,2.05711,A,144935.60
4.85836,57.68798550,11.98124223,57.68802,11.98124,14:49:35.712545,0.00352,1.52617,-0.05831,0.00022,-0.03009,0.05107,0.01221,-0.12956,-0.08418,0.96063,4.85409,1.47737,-1.47159,-1.47144,-2.21526,-0.31501,4.81251,-2.47654,2.05711,A,144935.60
4.86876,57.68798550,11.98124223,57.68802,11.98124,14:49:35.722948,0.00351,1.52617,-0.05761,0.00022,-0.03085,0.05702,0.01266,-0.02904,0.03074,0.99796,4.86471,1.47737,-1.47159,-1.47144,-2.21526,-0.31501,4.81251,-2.47654,2.05711,A,144935.60
4.87917,57.68798550,11.98124223,57.68802,11.98124,14:49:35.733356,0.00352,1.52617,-0.05617,0.00022,-0.02780,0.03137,0.01618,0.06643,0.07924,1.00900,4.87510,1.47737,-1.47159,-1.47144,-2.21526,-0.31501,4.81251,-2.47654,2.05711,A,144935.60
4.88924,57.68798550,11.98124223,57.68802,11.98124,14:49:35.743662,0.00335,1.52617,-0.05444,0.00022,-0.00657,-0.01475,0.00946,0.07161,0.08754,1.02736,4.88519,1.47737,-1.47159,-1.47144,-2.21526,-0.31501,4.81251,-2.47654,2.05711,A,144935.60
4.89974,57.68798550,11.98124223,57.68802,11.98124,14:49:35.753926,0.00352,1.52617,-0.05344,0.00022,0.00152,-0.03552,0.00228,-0.01751,0.03331,1.03444,4.89568,1.47737,-1.47159,-1.47144,-2.21526,-0.31501,4.81251,-2.47654,2.05711,A,144935.60
4.91035,57.68798550,11.98124223,57.68802,11.98124,14:49:35.764549,0.00374,1.52617,-0.05445,0.00022,0.01252,-0.02254,-0.00398,-0.05575,-0.10925,1.00412,4.90586,1.47737,-1.47159,-1.47144,-2.21526,-0.31501,4.81251,-2.47654,2.05711,A,144935.60
4.93388,57.68798550,11.98124223,57.68803,11.98124,14:49:35.788074,0.01687,1.52617,-0.05621,0.00022,-0.00336,-0.00819,-0.00810,-0.18898,-0.15482,1.03590,4.91648,1.47737,-1.47159,-1.47144,-2.21526,-0.31501,4.93225,-2.55579,2.14977,A,144935.70
4.94519,57.68798639,11.98124190,57.68803,11.98124,14:49:35.799597,0.00579,1.52617,-0.05618,0.00022,-0.03360,0.06206,-0.00200,-0.03367,0.01537,0.93885,4.93896,1.48225,-1.43402,-1.43395,-2.23457,-0.21638,4.93225,-2.55579,2.14977,A,144935.70
4.95314,57.68798639,11.98124190,57.68803,11.98124,14:49:35.807547,0.00333,1.52617,-0.05481,0.00022,-0.03620,0.04679,0.00656,0.13206,0.07320,0.90707,4.94908,1.48225,-1.43402,-1.43395,-2.23457,-0.21638,4.93225,-2.55579,2.14977,A,144935.70
4.96373,57.68798639,11.98124190,57.68803,11.98124,14:49:35.817909,0.00352,1.52617,-0.05289,0.00022,-0.02978,0.00586,0.01251,0.07149,0.10986,0.94995,4.95967,1.48225,-1.43402,-1.43395,-2.23457,-0.21638,4.93225,-2.55579,2.14977,A,144935.70
4.97413,57.68798639,11.98124190,57.68803,11.98124,14:49:35.828319,0.00352,1.52617,-0.05161,0.00022,-0.01512,-0.02376,0.01190,-0.08326,0.06301,0.98741,4.96984,1.48225,-1.43402,-1.43395,-2.23457,-0.21638,4.93225,-2.55579,2.14977,A,144935.70
4.98477,57.68798639,11.98124190,57.68803,11.98124,14:49:35.838959,0.00377,1.52617,-0.05166,0.00022,-0.01680,-0.02254,0.01175,0.00756,-0.02147,0.98015,4.98070,1.48225,-1.43402,-1.43395,-2.23457,-0.21638,4.93225,-2.55579,2.14977,A,144935.70
4.99591,57.68798639,11.98124190,57.68803,11.98124,14:49:35.850104,0.00451,1.52617,-0.05288,0.00022,-0.02887,-0.04026,0.00060,-0.03508,-0.09485,1.02852,4.99120,1.48225,-1.43402,-1.43395,-2.23457,-0.21638,4.93225,-2.55579,2.14977,A,144935.70
5.00528,57.68798639,11.98124190,57.68803,11.98124,14:49:35.859685,0.00347,1.52617,-0.05435,0.00022,-0.03986,-0.02804,-0.00413,-0.09040,-0.10693,1.02297,5.00109,1.48225,-1.43402,-1.43395,-2.23457,-0.21638,4.93225,-2.55579,2.14977,A,144935.70
5.01858,57.68798639,11.98124190,57.68803,11.98124,14:49:35.872805,0.00636,1.52617,0.00000,0.00022,-0.04613,-0.00192,-0.01024,-0.15091,-0.09095,1.03608,5.01167,1.48225,-1.43402,-1.43395,-2.23457,-0.21638,4.93225,-2.55579,2.14977,A,144935.70
5.02671,57.68798639,11.98124190,57.68803,11.98124,14:49:35.880908,0.00353,1.52617,-0.00168,0.00022,-0.05269,0.03534,-0.01223,-0.12127,-0.05490,1.03328,5.02263,1.48225,-1.43402,-1.43395,-2.23457,-0.21638,4.93225,-2.55579,2.14977,A,144935.70
5.04985,57.68798639,11.98124190,57.68803,11.98124,14:49:35.904048,0.01616,1.52617,-0.00278,0.00022,-0.06231,0.04618,-0.00536,-0.06905,-0.01159,1.02944,5.03297,1.48225,-1.43402,-1.43395,-2.23457,-0.21638,5.04829,-2.57560,2.24243,A,144935.80
5.06315,57.68798723,11.98124168,57.68803,11.98124,14:49:35.917363,0.00987,1.52617,-0.00321,0.00019,-0.04643,0.01625,0.00350,0.07479,0.05966,1.00260,5.05604,1.48664,-1.40183,-1.40177,-2.24770,-0.12278,5.04829,-2.57560,2.24243,A,144935.80
5.06760,57.68798723,11.98124168,57.68803,11.98124,14:49:35.921777,0.00345,1.52617,-0.00356,0.00017,-0.04475,-0.00925,0.00564,0.08211,0.01653,0.97576,5.06363,1.48664,-1.40183,-1.40177,-2.24770,-0.12278,5.04829,-2.57560,2.24243,A,144935.80
5.07810,57.68798723,11.98124168,57.68803,11.98124,14:49:35.932292,0.00356,1.52617,-0.00450,0.00008,-0.04032,-0.04102,0.00152,-0.10187,-0.02007,1.09190,5.07379,1.48664,-1.40183,-1.40177,-2.24770,-0.12278,5.04829,-2.57560,2.24243,A,144935.80
5.08845,57.68798723,11.98124168,57.68803,11.98124,14:49:35.942642,0.00352,1.52617,-0.00699,-0.00000,-0.04582,-0.03934,-0.01177,-0.10510,-0.12352,1.04627,5.08438,1.48664,-1.40183,-1.40177,-2.24770,-0.12278,5.04829,-2.57560,2.24243,A,144935.80
5.09909,57.68798723,11.98124168,57.68803,11.98124,14:49:35.953279,0.00377,1.52617,-0.01067,-0.00000,-0.07071,-0.04346,-0.01314,0.03983,-0.15378,0.83631,5.09501,1.48664,-1.40183,-1.40177,-2.24770,-0.12278,5.04829,-2.57560,2.24243,A,144935.80
5.10926,57.68798723,11.98124168,57.68803,11.98124,14:49:35.963686,0.00335,1.52617,-0.01404,-0.00000,-0.07682,-0.05858,-0.01345,-0.11444,-0.13487,0.81850,5.10519,1.48664,-1.40183,-1.40177,-2.24770,-0.12278,5.04829,-2.57560,2.24243,A,144935.80
5.11982,57.68798723,11.98124168,57.68803,11.98124,14:49:35.974013,0.00353,1.52617,-0.01422,-0.00000,-0.07300,-0.02056,-0.00551,-0.22692,0.04136,0.90249,5.11576,1.48664,-1.40183,-1.40177,-2.24770,-0.12278,5.04829,-2.57560,2.24243,A,144935.80
5.13024,57.68798723,11.98124168,57.68803,11.98124,14:49:35.984430,0.00356,1.52617,-0.01438,-0.00000,-0.05300,0.00938,0.00946,-0.15500,0.02879,0.90615,5.12594,1.48664,-1.40183,-1.40177,-2.24770,-0.12278,5.04829,-2.57560,2.24243,A,144935.80
5.14058,57.68798723,11.98124168,57.68803,11.98124,14:49:35.994772,0.00351,1.52617,-0.01585,-0.00000,-0.03421,0.02541,0.01893,-0.09919,-0.07100,1.04432,5.13651,1.48664,-1.40183,-1.40177,-2.24770,-0.12278,5.04829,-2.57560,2.24243,A,144935.80
5.16413,57.68798723,11.98124168,57.68803,11.98124,14:49:36.018326,0.01667,1.52617,-0.01716,-0.00000,-0.05514,0.03030,0.02503,-0.06472,-0.04856,1.10361,5.14692,1.48664,-1.40183,-1.40177,-2.24770,-0.12278,5.16268,-2.64494,2.39069,A,144935.90
5.17595,57.68798816,11.98124144,57.68803,11.98124,14:49:36.030150,0.00633,1.52617,-0.01946,-0.00000,-0.06185,0.01671,0.00763,0.01110,-0.06082,1.06921,5.16972,1.49060,-1.36770,-1.36770,-2.26226,-0.01888,5.16268,-2.64494,2.39069,A,144935.90
5.18349,57.68798816,11.98124144,57.68803,11.98124,14:49:36.037682,0.00347,1.52922,-0.02046,-0.00000,-0.07713,-0.00834,0.00121,-0.02300,-0.01616,0.99717,5.17949,1.49060,-1.36770,-1.36770,-2.26226,-0.01888,5.16268,-2.64494,2.39069,A,144935.90
5.19533,57.68798816,11.98124144,57.68803,11.98124,14:49:36.050317,0.00492,1.52922,-0.02197,-0.00000,-0.08186,-0.02468,-0.01620,-0.08638,-0.03691,0.96130,5.19090,1.49060,-1.36770,-1.36770,-2.26226,-0.01888,5.16268,-2.64494,2.39069,A,144935.90
5.20443,57.68798816,11.98124144,57.68803,11.98124,14:49:36.058615,0.00363,1.52922,-0.02318,-0.00000,-0.08324,-0.02422,-0.01437,-0.10211,-0.02800,0.93629,5.20041,1.49060,-1.36770,-1.36770,-2.26226,-0.01888,5.16268,-2.64494,2.39069,A,144935.90
5.21478,57.68798816,11.98124144,57.68803,11.98124,14:49:36.068982,0.00375,1.52922,-0.02442,-0.00000,-0.08324,-0.02422,-0.01482,-0.07625,-0.02757,0.96844,5.21069,1.49060,-1.36770,-1.36770,-2.26226,-0.01888,5.16268,-2.64494,2.39069,A,144935.90
5.22492,57.68798816,11.98124144,57.68803,11.98124,14:49:36.079106,0.00334,1.52922,-0.02562,-0.00003,-0.08033,-0.01521,-0.00948,-0.07296,-0.02940,0.98857,5.22085,1.49060,-1.36770,-1.36770,-2.26226,-0.01888,5.16268,-2.64494,2.39069,A,144935.90
5.23558,57.68798816,11.98124144,57.68803,11.98124,14:49:36.089770,0.00361,1.52922,-0.02766,-0.00012,-0.08018,0.01151,-0.00200,-0.25230,-0.09058,1.06738,5.23150,1.49060,-1.36770,-1.36770,-2.26226,-0.01888,5.16268,-2.64494,2.39069,A,144935.90
5.24569,57.68798816,11.98124144,57.68803,11.98124,14:49:36.099893,0.00350,1.52922,-0.02962,-0.00020,-0.06766,0.05595,-0.00245,-0.11541,-0.09174,0.98234,5.24149,1.49060,-1.36770,-1.36770,-2.26226,-0.01888,5.16268,-2.64494,2.39069,A,144935.90
5.25611,57.68798816,11.98124144,57.68803,11.98124,14:49:36.110302,0.00353,1.52922,-0.03222,-0.00034,-0.07087,0.05718,0.00106,-0.02397,-0.12645,0.94398,5.25205,1.49060,-1.36770,-1.36770,-2.26226,-0.01888,5.16268,-2.64494,2.39069,A,144935.90
5.27895,57.68798816,11.98124144,57.68803,11.98124,14:49:36.133152,0.01597,1.52922,-0.03347,-0.00049,-0.08553,0.02618,0.00488,0.04124,-0.03532,0.97472,5.26242,1.49060,-1.36770,-1.36770,-2.26226,-0.01888,5.27753,-2.68457,2.48335,A,144936.00
5.29608,57.68798903,11.98124126,57.68803,11.98124,14:49:36.150286,0.00802,1.52922,-0.03542,-0.00060,-0.05346,-0.03048,0.00411,-0.02409,-0.05270,1.04847,5.28875,1.49446,-1.33427,-1.33445,-2.27286,0.07773,5.27753,-2.68457,2.48335,A,144936.00
5.30193,57.68798903,11.98124126,57.68803,11.98124,14:49:36.156133,0.00348,1.52922,-0.03669,-0.00060,-0.04536,-0.03048,0.00014,-0.08259,-0.07765,1.07043,5.29770,1.49446,-1.33427,-1.33445,-2.27286,0.07773,5.27753,-2.68457,2.48335,A,144936.00
5.31251,57.68798903,11.98124126,57.68803,11.98124,14:49:36.166704,0.00366,1.52922,-0.03914,-0.00060,-0.03834,-0.00024,0.00274,-0.16555,-0.16464,1.07281,5.30843,1.49446,-1.33427,-1.33445,-2.27286,0.07773,5.27753,-2.68457,2.48335,A,144936.00
5.32276,57.68798903,11.98124126,57.68803,11.98124,14:49:36.176952,0.00352,1.52922,-0.04111,-0.00060,-0.04399,0.02908,0.00595,-0.07967,-0.11736,0.97435,5.31868,1.49446,-1.33427,-1.33445,-2.27286,0.07773,5.27753,-2.68457,2.48335,A,144936.00
5.33324,57.68798903,11.98124126,57.68803,11.98124,14:49:36.187681,0.00336,1.52922,-0.04273,-0.00060,-0.04918,0.04328,0.00549,-0.02147,-0.07906,0.83869,5.32916,1.49446,-1.33427,-1.33445,-2.27286,0.07773,5.27753,-2.68457,2.48335,A,144936.00
5.34379,57.68798903,11.98124126,57.68803,11.98124,14:49:36.197981,0.00352,1.52922,-0.04327,-0.00060,-0.04857,0.02755,0.01053,-0.07613,-0.01952,0.80416,5.33972,1.49446,-1.33427,-1.33445,-2.27286,0.07773,5.27753,-2.68457,2.48335,A,144936.00
5.35418,57.68798903,11.98124126,57.68803,11.98124,14:49:36.208383,0.00353,1.52922,-0.04333,-0.00060,-0.04353,0.04511,0.00732,-0.14646,0.00238,0.90420,5.34991,1.49446,-1.33427,-1.33445,-2.27286,0.07773,5.27753,-2.68457,2.48335,A,144936.00
5.36456,57.68798903,11.98124126,57.68803,11.98124,14:49:36.218751,0.00351,1.52922,-0.04438,-0.00063,-0.03620,0.06115,0.00457,-0.15579,-0.06765,1.00272,5.36049,1.49446,-1.33427,-1.33445,-2.27286,0.07773,5.27753,-2.68457,2.48335,A,144936.00
5.37498,57.68798903,11.98124126,57.68803,11.98124,14:49:36.229173,0.00354,1.52922,-0.04560,-0.00074,-0.04399,0.06130,-0.00734,0.04679,-0.07723,1.03334,5.37089,1.49446,-1.33427,-1.33445,-2.27286,0.07773,5.27753,-2.68457,2.48335,A,144936.00
5.40931,57.68798903,11.98124126,57.68803,11.98124,14:49:36.263661,0.02751,1.52922,-0.04730,-0.00108,-0.05422,0.03106,-0.01941,0.15897,-0.11114,1.08684,5.38109,1.49446,-1.33427,-1.33445,-2.27286,0.07773,5.40788,-2.85297,2.77987,A,144936.20
5.42070,57.68799002,11.98124093,57.68803,11.98124,14:49:36.274903,0.00551,1.52922,-0.04972,-0.00337,-0.04399,-0.01918,-0.02429,-0.11108,-0.09107,0.99454,5.41472,1.49793,-1.30015,-1.30116,-2.29220,0.18738,5.40788,-2.85297,2.77987,A,144936.20
5.42899,57.68799002,11.98124093,57.68803,11.98124,14:49:36.283187,0.00327,1.52922,-0.05201,-0.00399,-0.03895,-0.00345,-0.01956,-0.04856,-0.13908,0.88413,5.42499,1.49793,-1.30015,-1.30116,-2.29220,0.18738,5.40788,-2.85297,2.77987,A,144936.20
5.43964,57.68799002,11.98124093,57.68803,11.98124,14:49:36.293832,0.00353,1.52922,-0.05336,-0.00448,-0.04215,-0.00559,-0.01253,0.00037,-0.07820,0.84156,5.43557,1.49793,-1.30015,-1.30116,-2.29220,0.18738,5.40788,-2.85297,2.77987,A,144936.20
5.45007,57.68799002,11.98124093,57.68803,11.98124,14:49:36.304268,0.00357,1.52922,-0.05349,-0.00479,-0.03345,0.00296,0.00029,-0.17275,-0.01867,0.94837,5.44576,1.49793,-1.30015,-1.30116,-2.29220,0.18738,5.40788,-2.85297,2.77987,A,144936.20
5.46043,57.68799002,11.98124093,57.68803,11.98124,14:49:36.314622,0.00354,1.52922,-0.05418,-0.00501,-0.02276,0.04588,0.00197,-0.21521,-0.06740,1.06457,5.45636,1.49793,-1.30015,-1.30116,-2.29220,0.18738,5.40788,-2.85297,2.77987,A,144936.20
5.47079,57.68799002,11.98124093,57.68803,11.98124,14:49:36.324987,0.00352,1.52922,-0.05510,-0.00524,-0.01528,0.07077,0.00259,-0.03739,-0.09144,1.06762,5.46672,1.49793,-1.30015,-1.30116,-2.29220,0.18738,5.40788,-2.85297,2.77987,A,144936.20
5.48112,57.68799002,11.98124093,57.68803,11.98124,14:49:36.335539,0.00333,1.52922,-0.05557,-0.00558,-0.02780,0.05718,-0.00077,0.09174,-0.05014,1.04584,5.47706,1.49793,-1.30015,-1.30116,-2.29220,0.18738,5.40788,-2.85297,2.77987,A,144936.20
5.49170,57.68799002,11.98124093,57.68803,11.98124,14:49:36.345897,0.00352,1.52922,-0.05587,-0.00612,-0.02169,0.01747,-0.00948,0.05557,-0.04331,1.06512,5.48762,1.49793,-1.30015,-1.30116,-2.29220,0.18738,5.40788,-2.85297,2.77987,A,144936.20
5.50405,57.68799002,11.98124093,57.68803,11.98124,14:49:36.358249,0.00548,1.52922,-0.05588,-0.00708,-0.01925,-0.01429,-0.01925,0.08766,-0.02037,0.97704,5.49994,1.49793,-1.30015,-1.30116,-2.29220,0.18738,5.40788,-2.85297,2.77987,A,144936.20
5.52728,57.68799002,11.98124093,57.68803,11.98124,14:49:36.381488,0.01832,1.52922,-0.05681,-0.00816,-0.01421,-0.04682,-0.03300,0.05209,-0.08015,0.88285,5.50899,1.49793,-1.30015,-1.30116,-2.29220,0.18738,5.52580,-2.94213,2.90960,A,144936.30
5.54506,57.68799105,11.98124057,57.68803,11.98124,14:49:36.399518,0.00682,1.52922,-0.05881,-0.01082,-0.00199,-0.02162,-0.03514,-0.20258,-0.16403,0.96807,5.53768,1.50106,-1.26597,-1.26918,-2.31371,0.30227,5.52580,-2.94213,2.90960,A,144936.30
5.55209,57.68799105,11.98124057,57.68803,11.98124,14:49:36.406287,0.00346,1.52922,-0.06092,-0.01124,0.00870,0.02556,-0.01849,-0.06673,-0.18538,0.98405,5.54810,1.50106,-1.26597,-1.26918,-2.31371,0.30227,5.52580,-2.94213,2.90960,A,144936.30
5.56396,57.68799105,11.98124057,57.68803,11.98124,14:49:36.418212,0.00494,1.52922,-0.06173,-0.01144,0.00885,0.01655,-0.00581,-0.02098,-0.11084,1.08293,5.55847,1.50106,-1.26597,-1.26918,-2.31371,0.30227,5.52580,-2.94213,2.90960,A,144936.30
5.57305,57.68799105,11.98124057,57.68803,11.98124,14:49:36.427232,0.00336,1.52922,-0.06128,-0.01147,0.01725,0.01900,0.00365,0.02635,-0.02727,1.10471,5.56897,1.50106,-1.26597,-1.26918,-2.31371,0.30227,5.52580,-2.94213,2.90960,A,144936.30
5.58357,57.68799105,11.98124057,57.68803,11.98124,14:49:36.437762,0.00349,1.52922,-0.06044,-0.01147,0.03268,0.00220,0.00488,0.03306,-0.00994,1.06610,5.57951,1.50106,-1.26597,-1.26918,-2.31371,0.30227,5.52580,-2.94213,2.90960,A,144936.30
5.59571,57.68799105,11.98124057,57.68803,11.98124,14:49:36.449924,0.00524,1.52922,-0.05966,-0.01150,0.04413,-0.02193,-0.00337,0.03154,-0.02495,1.05402,5.59122,1.50106,-1.26597,-1.26918,-2.31371,0.30227,5.52580,-2.94213,2.90960,A,144936.30
5.60432,57.68799105,11.98124057,57.68803,11.98124,14:49:36.458517,0.00346,1.52922,-0.05896,-0.01155,0.05070,-0.04026,-0.00719,-0.02190,-0.02641,1.08135,5.60032,1.50106,-1.26597,-1.26918,-2.31371,0.30227,5.52580,-2.94213,2.90960,A,144936.30
5.61498,57.68799105,11.98124057,57.68803,11.98124,14:49:36.469179,0.00374,1.52922,-0.05902,-0.01161,0.05635,-0.03903,-0.01727,-0.06063,-0.08741,1.04652,5.61092,1.50106,-1.26597,-1.26918,-2.31371,0.30227,5.52580,-2.94213,2.90960,A,144936.30
5.62509,57.68799105,11.98124057,57.68803,11.98124,14:49:36.479537,0.00332,1.52922,-0.05937,-0.01164,0.05054,-0.04194,-0.02063,0.00439,-0.09510,0.97789,5.62102,1.50106,-1.26597,-1.26918,-2.31371,0.30227,5.52580,-2.94213,2.90960,A,144936.30
5.64826,57.68799105,11.98124057,57.68803,11.98123,14:49:36.502466,0.01610,1.52922,-0.06041,-0.01164,0.05116,-0.03140,-0.01941,-0.12450,-0.14573,0.99284,5.63161,1.50106,-1.26597,-1.26918,-2.31371,0.30227,5.64685,-3.00157,3.07639,A,144936.40
5.66533,57.68799217,11.98124022,57.68803,11.98123,14:49:36.519795,0.00647,1.52922,-0.05926,-0.01164,0.03680,0.02969,-0.01208,-0.06600,-0.02806,0.86785,5.65936,1.50388,-1.23591,-1.23936,-2.33497,0.42691,5.64685,-3.00157,3.07639,A,144936.40
5.67364,57.68799217,11.98124022,57.68803,11.98123,14:49:36.527843,0.00438,1.52922,-0.05830,-0.01169,0.05039,0.01732,-0.00719,0.03105,-0.00933,0.86992,5.66941,1.50388,-1.23591,-1.23936,-2.33497,0.42691,5.64685,-3.00157,3.07639,A,144936.40
5.68313,57.68799217,11.98124022,57.68803,11.98123,14:49:36.537332,0.00349,1.46922,-0.05752,-0.01181,0.05696,-0.01155,-0.00810,0.05502,-0.02251,0.96557,5.67907,1.50388,-1.23591,-1.23936,-2.33497,0.42691,5.64685,-3.00157,3.07639,A,144936.40
5.69322,57.68799217,11.98124022,57.68803,11.98123,14:49:36.547771,0.00334,1.46922,-0.05735,-0.01212,0.05146,-0.02224,-0.00994,-0.03776,-0.06631,1.07512,5.68915,1.50388,-1.23591,-1.23936,-2.33497,0.42691,5.64685,-3.00157,3.07639,A,144936.40
5.70378,57.68799217,11.98124022,57.68803,11.98123,14:49:36.558144,0.00351,1.46922,-0.05676,-0.01263,0.04520,-0.01720,-0.01773,-0.15604,-0.03709,1.24019,5.69972,1.50388,-1.23591,-1.23936,-2.33497,0.42691,5.64685,-3.00157,3.07639,A,144936.40
5.71442,57.68799217,11.98124022,57.68803,11.98123,14:49:36.568620,0.00377,1.46922,-0.05727,-0.01325,0.04016,0.01197,-0.01803,-0.10096,-0.12359,1.23787,5.71033,1.50388,-1.23591,-1.23936,-2.33497,0.42691,5.64685,-3.00157,3.07639,A,144936.40
5.72453,57.68799217,11.98124022,57.68803,11.98123,14:49:36.578720,0.00349,1.46922,-0.05781,-0.01401,0.03130,0.01884,-0.02032,-0.04447,-0.10602,1.10709,5.72047,1.50388,-1.23591,-1.23936,-2.33497,0.42691,5.64685,-3.00157,3.07639,A,144936.40
5.73496,57.68799217,11.98124022,57.68803,11.98123,14:49:36.589154,0.00352,1.46922,-0.05827,-0.01472,0.02321,0.02022,-0.02414,0.02318,-0.08388,0.96862,5.73089,1.50388,-1.23591,-1.23936,-2.33497,0.42691,5.64685,-3.00157,3.07639,A,144936.40
5.74529,57.68799217,11.98124022,57.68803,11.98123,14:49:36.599730,0.00336,1.46922,-0.05828,-0.01534,0.02672,0.00250,-0.02154,-0.02696,-0.05185,0.87175,5.74121,1.50388,-1.23591,-1.23936,-2.33497,0.42691,5.64685,-3.00157,3.07639,A,144936.40
5.76837,57.68799217,11.98124022,57.68804,11.98123,14:49:36.622593,0.01605,1.46922,-0.05799,-0.01588,0.03039,-0.00727,-0.02093,-0.06557,-0.03434,0.79806,5.75177,1.50388,-1.23591,-1.23936,-2.33497,0.42691,5.76695,-3.04119,3.18759,A,144936.50
5.78390,57.68799333,11.98123988,57.68804,11.98123,14:49:36.638118,0.00764,1.46922,-0.05798,-0.01653,0.03543,-0.00651,-0.02246,-0.08168,-0.09266,0.95489,5.77656,1.50041,-1.20622,-1.21113,-2.35480,0.55537,5.76695,-3.04119,3.18759,A,144936.50
5.79009,57.68799333,11.98123988,57.68804,11.98123,14:49:36.644306,0.00344,1.46922,-0.05877,-0.01665,0.03848,0.00312,-0.02032,-0.04465,-0.12145,1.04072,5.78588,1.50041,-1.20622,-1.21113,-2.35480,0.55537,5.76695,-3.04119,3.18759,A,144936.50
5.80052,57.68799333,11.98123988,57.68804,11.98123,14:49:36.654722,0.00347,1.46922,-0.05939,-0.01673,0.02229,0.00189,-0.02445,-0.08424,-0.11523,1.17687,5.79645,1.50041,-1.20622,-1.21113,-2.35480,0.55537,5.76695,-3.04119,3.18759,A,144936.50
5.81096,57.68799333,11.98123988,57.68804,11.98123,14:49:36.665176,0.00352,1.46922,-0.05927,-0.01684,0.01603,0.02892,-0.02506,-0.08186,-0.05374,1.23348,5.80689,1.50041,-1.20622,-1.21113,-2.35480,0.55537,5.76695,-3.04119,3.18759,A,144936.50
5.82129,57.68799333,11.98123988,57.68804,11.98123,14:49:36.675850,0.00336,1.46922,-0.05893,-0.01701,0.01313,0.02862,-0.01925,-0.07119,-0.03123,1.13100,5.81722,1.50041,-1.20622,-1.21113,-2.35480,0.55537,5.76695,-3.04119,3.18759,A,144936.50
5.83183,57.68799333,11.98123988,57.68804,11.98123,14:49:36.686048,0.00351,1.46922,-0.05823,-0.01724,0.01069,0.02770,-0.02063,0.01287,-0.00159,1.00375,5.82776,1.50041,-1.20622,-1.21113,-2.35480,0.55537,5.76695,-3.04119,3.18759,A,144936.50
5.84222,57.68799333,11.98123988,57.68804,11.98123,14:49:36.696439,0.00351,1.46922,-0.05761,-0.01758,0.01527,0.00678,-0.02063,0.01311,-0.00903,0.92202,5.83794,1.50041,-1.20622,-1.21113,-2.35480,0.55537,5.76695,-3.04119,3.18759,A,144936.50
5.85259,57.68799333,11.98123988,57.68804,11.98123,14:49:36.706805,0.00349,1.46922,-0.05746,-0.01806,0.01298,-0.00758,-0.02124,-0.03050,-0.03398,0.85662,5.84852,1.50041,-1.20622,-1.21113,-2.35480,0.55537,5.76695,-3.04119,3.18759,A,144936.50
5.86297,57.68799333,11.98123988,57.68804,11.98123,14:49:36.717177,0.00347,1.46922,-0.05724,-0.01854,0.01725,-0.01292,-0.02704,-0.14134,-0.03367,0.90487,5.85890,1.50041,-1.20622,-1.21113,-2.35480,0.55537,5.76695,-3.04119,3.18759,A,144936.50
5.88627,57.68799333,11.98123988,57.68804,11.98123,14:49:36.740466,0.01645,1.46922,-0.05726,-0.01902,0.02565,0.02098,-0.03391,-0.20179,-0.05679,0.97716,5.86906,1.50041,-1.20622,-1.21113,-2.35480,0.55537,5.88468,-3.08081,3.29878,A,144936.60
5.89768,57.68799453,11.98123955,57.68804,11.98123,14:49:36.751887,0.00598,1.46922,-0.05718,-0.01959,0.01679,0.01228,-0.03987,0.00891,-0.05435,0.90622,5.89125,1.49729,-1.17751,-1.18332,-2.37441,0.68881,5.88468,-3.08081,3.29878,A,144936.60
5.90557,57.68799453,11.98123955,57.68804,11.98123,14:49:36.759798,0.00365,1.46922,-0.05748,-0.01959,0.00427,0.01182,-0.04598,-0.06435,-0.06246,1.00131,5.90122,1.49729,-1.17751,-1.18332,-2.37441,0.68881,5.88468,-3.08081,3.29878,A,144936.60
5.91819,57.68799453,11.98123955,57.68804,11.98123,14:49:36.772395,0.00588,1.46922,-0.05843,-0.01959,0.00412,0.01121,-0.04277,-0.09351,-0.11120,1.03511,5.91389,1.49729,-1.17751,-1.18332,-2.37441,0.68881,5.88468,-3.08081,3.29878,A,144936.60
5.92616,57.68799453,11.98123955,57.68804,11.98123,14:49:36.780354,0.00346,1.46922,-0.06020,-0.01959,-0.00917,0.01594,-0.04247,0.02251,-0.15665,1.00741,5.92194,1.49729,-1.17751,-1.18332,-2.37441,0.68881,5.88468,-3.08081,3.29878,A,144936.60
5.93657,57.68799453,11.98123955,57.68804,11.98123,14:49:36.790770,0.00348,1.46922,-0.06025,-0.01959,-0.01848,-0.01002,-0.02933,0.03904,-0.03343,1.01955,5.93250,1.49729,-1.17751,-1.18332,-2.37441,0.68881,5.88468,-3.08081,3.29878,A,144936.60
5.94698,57.68799453,11.98123955,57.68804,11.98123,14:49:36.801178,0.00350,1.46922,-0.05983,-0.01959,-0.01711,-0.02193,-0.02719,0.03495,-0.00354,1.03047,5.94291,1.49729,-1.17751,-1.18332,-2.37441,0.68881,5.88468,-3.08081,3.29878,A,144936.60
5.95723,57.68799453,11.98123955,57.68804,11.98123,14:49:36.811658,0.00335,1.46922,-0.05976,-0.01962,0.00610,-0.02773,-0.02368,-0.06405,-0.04404,1.05201,5.95315,1.49729,-1.17751,-1.18332,-2.37441,0.68881,5.88468,-3.08081,3.29878,A,144936.60
5.96776,57.68799453,11.98123955,57.68804,11.98123,14:49:36.821957,0.00350,1.46922,-0.06036,-0.01965,-0.00566,-0.00803,-0.01834,-0.12054,-0.08339,1.06366,5.96369,1.49729,-1.17751,-1.18332,-2.37441,0.68881,5.88468,-3.08081,3.29878,A,144936.60
5.97817,57.68799453,11.98123955,57.68804,11.98123,14:49:36.832375,0.00352,1.46922,-0.06185,-0.01965,0.00152,0.00663,-0.02399,-0.12938,-0.15189,1.05597,5.97388,1.49729,-1.17751,-1.18332,-2.37441,0.68881,5.88468,-3.08081,3.29878,A,144936.60
6.01203,57.68799453,11.98123955,57.68804,11.98123,14:49:36.866237,0.02700,1.46922,-0.06226,-0.01965,-0.01207,0.02190,-0.02261,-0.08375,-0.06387,0.99967,5.98449,1.49729,-1.17751,-1.18332,-2.37441,0.68881,6.01061,-3.17988,3.57677,A,144936.80
6.03079,57.68799565,11.98123932,57.68804,11.98123,14:49:36.884992,0.00771,1.46922,-0.06194,-0.01965,-0.01207,-0.01597,-0.00612,-0.12035,0.00799,0.95428,6.02450,1.49448,-1.15006,-1.15589,-2.38818,0.81397,6.01061,-3.17988,3.57677,A,144936.80
6.03689,57.68799565,11.98123932,57.68804,11.98123,14:49:36.891078,0.00325,1.46922,-0.06182,-0.01965,-0.00168,-0.00391,-0.00963,-0.18111,-0.03812,1.07714,6.03290,1.49448,-1.15006,-1.15589,-2.38818,0.81397,6.01061,-3.17988,3.57677,A,144936.80
6.04767,57.68799565,11.98123932,57.68804,11.98123,14:49:36.901866,0.00365,1.46922,-0.06203,-0.01965,-0.00062,0.02511,-0.01238,-0.01189,-0.06216,1.06585,6.04360,1.49448,-1.15006,-1.15589,-2.38818,0.81397,6.01061,-3.17988,3.57677,A,144936.80
6.05792,57.68799565,11.98123932,57.68804,11.98123,14:49:36.912117,0.00352,1.46922,-0.06263,-0.01965,-0.00886,0.01289,-0.01009,0.01800,-0.09376,1.19584,6.05364,1.49448,-1.15006,-1.15589,-2.38818,0.81397,6.01061,-3.17988,3.57677,A,144936.80
6.06832,57.68799565,11.98123932,57.68804,11.98123,14:49:36.922506,0.00351,1.46922,-0.06203,-0.01965,-0.01329,0.02648,-0.00948,-0.07155,0.00543,1.16461,6.06424,1.49448,-1.15006,-1.15589,-2.38818,0.81397,6.01061,-3.17988,3.57677,A,144936.80
6.07872,57.68799565,11.98123932,57.68804,11.98123,14:49:36.932912,0.00352,1.46922,-0.06200,-0.01965,-0.01070,0.03228,-0.00307,-0.06051,-0.03770,1.06335,6.07464,1.49448,-1.15006,-1.15589,-2.38818,0.81397,6.01061,-3.17988,3.57677,A,144936.80
6.08905,57.68799565,11.98123932,57.68804,11.98123,14:49:36.943478,0.00333,1.46922,-0.06181,-0.01962,-0.00795,0.03442,-0.00093,-0.04612,-0.02434,0.92159,6.08499,1.49448,-1.15006,-1.15589,-2.38818,0.81397,6.01061,-3.17988,3.57677,A,144936.80
6.09951,57.68799565,11.98123932,57.68804,11.98123,14:49:36.953711,0.00356,1.46922,-0.06222,-0.01953,-0.01100,0.01762,0.00228,0.02989,-0.05100,0.77683,6.09544,1.49448,-1.15006,-1.15589,-2.38818,0.81397,6.01061,-3.17988,3.57677,A,144936.80
