Time,lat_estimated,lon_estimated,latitude,longitude,RealTime,CalculationTime,MeasuredVelocity,Roll,SteeringAngle,RollRate,gy,gz,ax,ay,az,imu_read_timing,v_estimated,yaw_estimated,heading_estimated,x_estimated,y_estimated,GPS_timestamp,x_GPS,y_GPS,theta_GPS,status,NMEA timestamp
0.04317,57.68784433,11.98134417,57.68784433,11.98134417,15:00:27.435527,0.04312,0.00000,-0.00121,-0.07356,-0.05788,-0.00229,-0.01241,0.00939,-0.02153,1.00723,0.00001,0.00000,0.02187,0.00000,0.00000,0.00000,0.01556,0.00000,0.00000,-2.41707,A,150027.30
0.05382,57.68784433,11.98134417,57.68784433,11.98134417,15:00:27.446125,0.00572,0.00000,-0.00459,-0.07274,-0.05788,-0.00015,-0.00646,0.01970,-0.02483,0.97545,0.04739,0.00000,-0.34073,-0.36235,0.00000,0.00000,0.01556,0.00000,0.00000,-2.41707,A,150027.30
0.06168,57.68784433,11.98134417,57.68784433,11.98134417,15:00:27.453979,0.00318,0.00000,-0.00586,-0.07274,-0.06139,-0.00259,-0.00844,0.00250,-0.02593,1.00070,0.05790,0.00000,-0.34073,-0.36235,0.00000,0.00000,0.01556,0.00000,0.00000,-2.41707,A,150027.30
0.07215,57.68784433,11.98134417,57.68784433,11.98134417,15:00:27.464455,0.00325,0.00000,-0.00713,-0.07274,-0.06215,-0.00473,-0.00982,-0.01501,-0.02782,1.01925,0.06837,0.00000,-0.34073,-0.36235,0.00000,0.00000,0.01556,0.00000,0.00000,-2.41707,A,150027.30
0.08242,57.68784433,11.98134417,57.68784433,11.98134417,15:00:27.474725,0.00301,0.00000,-0.00834,-0.07274,-0.05864,0.00123,-0.01226,-0.00116,-0.02763,1.03047,0.07864,0.00000,-0.34073,-0.36235,0.00000,0.00000,0.01556,0.00000,0.00000,-2.41707,A,150027.30
0.09462,57.68784433,11.98134417,57.68784433,11.98134417,15:00:27.487672,0.00481,0.00000,-0.01001,-0.07268,-0.06124,0.00291,-0.01241,0.01372,-0.05191,1.01516,0.09047,0.00000,-0.34073,-0.36235,0.00000,0.00000,0.01556,0.00000,0.00000,-2.41707,A,150027.30
0.10357,57.68784433,11.98134417,57.68784433,11.98134417,15:00:27.495870,0.00337,0.00000,-0.01131,-0.07257,-0.05956,0.00367,-0.01257,0.01519,-0.04014,0.99723,0.09957,0.00000,-0.34073,-0.36235,0.00000,0.00000,0.01556,0.00000,0.00000,-2.41707,A,150027.30
0.11373,57.68784433,11.98134417,57.68784433,11.98134417,15:00:27.506026,0.00313,0.00000,-0.01270,-0.07240,-0.06429,0.00062,-0.00722,0.01074,-0.03819,0.97307,0.10996,0.00000,-0.34073,-0.36235,0.00000,0.00000,0.01556,0.00000,0.00000,-2.41707,A,150027.30
0.13710,57.68784433,11.98134417,57.68784450,11.98134367,15:00:27.529411,0.01610,0.00000,-0.01397,-0.07223,-0.06230,-0.00137,-0.00600,0.00049,-0.03300,0.97179,0.12036,0.00000,-0.34073,-0.36235,0.00000,0.00000,0.13584,-0.02972,0.01853,-2.44413,A,150027.40
0.14998,57.68784434,11.98134414,57.68784450,11.98134367,15:00:27.542285,0.00688,0.00000,-0.01597,-0.07197,-0.05742,0.00917,-0.00982,0.00378,-0.03660,1.01778,0.14419,0.00000,-0.65303,-0.67442,-0.00149,0.00093,0.13584,-0.02972,0.01853,-2.44413,A,150027.40
0.15674,57.68784434,11.98134414,57.68784450,11.98134367,15:00:27.549040,0.00324,0.00000,-0.01715,-0.07195,-0.05696,0.01131,-0.00798,0.03605,-0.04166,1.02029,0.15296,0.00000,-0.65303,-0.67442,-0.00149,0.00093,0.13584,-0.02972,0.01853,-2.44413,A,150027.40
0.16673,57.68784434,11.98134414,57.68784450,11.98134367,15:00:27.559227,0.00301,0.00000,-0.01845,-0.07195,-0.05772,-0.00076,-0.00982,0.02928,-0.04618,1.02864,0.16295,0.00000,-0.65303,-0.67442,-0.00149,0.00093,0.13584,-0.02972,0.01853,-2.44413,A,150027.40
0.17727,57.68784434,11.98134414,57.68784450,11.98134367,15:00:27.569568,0.00315,0.00000,-0.01962,-0.07195,-0.05925,-0.00442,-0.00722,-0.02245,-0.03489,1.01571,0.17350,0.00000,-0.65303,-0.67442,-0.00149,0.00093,0.13584,-0.02972,0.01853,-2.44413,A,150027.40
0.18767,57.68784434,11.98134414,57.68784450,11.98134367,15:00:27.579970,0.00316,0.00000,-0.02065,-0.07195,-0.05574,0.00397,-0.00905,-0.04288,-0.02940,0.99692,0.18388,0.00000,-0.65303,-0.67442,-0.00149,0.00093,0.13584,-0.02972,0.01853,-2.44413,A,150027.40
0.19809,57.68784434,11.98134414,57.68784450,11.98134367,15:00:27.590378,0.00298,0.00000,-0.02178,-0.07195,-0.05956,0.01222,-0.01165,-0.04191,-0.03331,0.97405,0.19431,0.00000,-0.65303,-0.67442,-0.00149,0.00093,0.13584,-0.02972,0.01853,-2.44413,A,150027.40
0.20866,57.68784434,11.98134414,57.68784450,11.98134367,15:00:27.600961,0.00315,0.00000,-0.02320,-0.07195,-0.05635,0.02429,-0.01180,0.00311,-0.05435,0.96130,0.20489,0.00000,-0.65303,-0.67442,-0.00149,0.00093,0.13584,-0.02972,0.01853,-2.44413,A,150027.40
0.21872,57.68784434,11.98134414,57.68784450,11.98134367,15:00:27.611217,0.00298,0.00000,-0.02443,-0.07195,-0.05818,0.01833,-0.01516,0.01104,-0.04465,0.97216,0.21495,0.00000,-0.65303,-0.67442,-0.00149,0.00093,0.13584,-0.02972,0.01853,-2.44413,A,150027.40
0.22929,57.68784434,11.98134414,57.68784450,11.98134367,15:00:27.621591,0.00316,0.00000,-0.02557,-0.07195,-0.06368,0.01619,-0.01119,0.02489,-0.03447,0.98771,0.22552,0.00000,-0.65303,-0.67442,-0.00149,0.00093,0.13584,-0.02972,0.01853,-2.44413,A,150027.40
0.25286,57.68784434,11.98134414,57.68784483,11.98134300,15:00:27.645164,0.01633,0.00000,-0.02644,-0.07195,-0.05864,0.00963,-0.01073,0.00854,-0.02318,1.01595,0.23590,0.00000,-0.65303,-0.67442,-0.00149,0.00093,0.25158,-0.06934,0.05560,-2.46076,A,150027.50
0.26398,57.68784437,11.98134408,57.68784483,11.98134300,15:00:27.656288,0.00554,0.00000,-0.02805,-0.07195,-0.05589,0.00703,-0.00753,0.00140,-0.03398,1.06902,0.25793,0.00000,-0.92098,-0.94237,-0.00488,0.00366,0.25158,-0.06934,0.05560,-2.46076,A,150027.50
0.27211,57.68784437,11.98134408,57.68784483,11.98134300,15:00:27.664407,0.00327,0.00000,-0.02923,-0.07192,-0.05207,0.01115,-0.00844,0.06051,-0.05081,1.01175,0.26831,0.00000,-0.92098,-0.94237,-0.00488,0.00366,0.25158,-0.06934,0.05560,-2.46076,A,150027.50
0.28242,57.68784437,11.98134408,57.68784483,11.98134300,15:00:27.674725,0.00309,0.00000,-0.03068,-0.07183,-0.04551,0.00000,-0.00371,0.04185,-0.07094,0.95752,0.27865,0.00000,-0.92098,-0.94237,-0.00488,0.00366,0.25158,-0.06934,0.05560,-2.46076,A,150027.50
0.29303,57.68784437,11.98134408,57.68784483,11.98134300,15:00:27.685326,0.00330,0.00000,-0.03192,-0.07163,-0.05360,-0.00488,-0.00081,-0.02056,-0.05106,0.92372,0.28925,0.00000,-0.92098,-0.94237,-0.00488,0.00366,0.25158,-0.06934,0.05560,-2.46076,A,150027.50
0.30457,57.68784437,11.98134408,57.68784483,11.98134300,15:00:27.696874,0.00408,0.00000,-0.03345,-0.07129,-0.05116,-0.00168,-0.00462,-0.02312,-0.06814,0.92104,0.30076,0.00000,-0.92098,-0.94237,-0.00488,0.00366,0.25158,-0.06934,0.05560,-2.46076,A,150027.50
0.31402,57.68784437,11.98134408,57.68784483,11.98134300,15:00:27.706318,0.00296,0.00000,-0.03436,-0.07090,-0.05421,0.00123,-0.00493,-0.04453,-0.03806,0.95453,0.31025,0.00000,-0.92098,-0.94237,-0.00488,0.00366,0.25158,-0.06934,0.05560,-2.46076,A,150027.50
0.32463,57.68784437,11.98134408,57.68784483,11.98134300,15:00:27.716925,0.00318,0.00000,-0.03536,-0.07050,-0.04932,0.01207,-0.01043,-0.00677,-0.04526,1.00314,0.32086,0.00000,-0.92098,-0.94237,-0.00488,0.00366,0.25158,-0.06934,0.05560,-2.46076,A,150027.50
0.33469,57.68784437,11.98134408,57.68784483,11.98134300,15:00:27.727332,0.00300,0.00000,-0.03586,-0.07008,-0.04627,0.01115,-0.01027,0.03209,-0.01842,1.04426,0.33090,0.00000,-0.92098,-0.94237,-0.00488,0.00366,0.25158,-0.06934,0.05560,-2.46076,A,150027.50
0.34523,57.68784437,11.98134408,57.68784483,11.98134300,15:00:27.737522,0.00314,0.00000,-0.03687,-0.06971,-0.04596,0.00978,-0.01302,0.03477,-0.05466,1.09044,0.34146,0.00000,-0.92098,-0.94237,-0.00488,0.00366,0.25158,-0.06934,0.05560,-2.46076,A,150027.50
0.38073,57.68784437,11.98134408,57.68784583,11.98134200,15:00:27.773036,0.02825,0.00000,-0.03804,-0.06937,-0.04291,0.01069,-0.01455,0.01574,-0.06960,1.07451,0.35184,0.00000,-0.92098,-0.94237,-0.00488,0.00366,0.37943,-0.12878,0.16679,-2.51883,A,150027.70
0.39667,57.68784444,11.98134398,57.68784583,11.98134200,15:00:27.788988,0.00708,0.00000,-0.03964,-0.06883,-0.03283,0.01039,-0.00875,0.00567,-0.03758,0.94263,0.39061,0.00000,-1.15759,-1.17805,-0.01107,0.01182,0.37943,-0.12878,0.16679,-2.51883,A,150027.70
0.40335,57.68784444,11.98134398,57.68784583,11.98134200,15:00:27.795664,0.00335,0.00000,-0.04045,-0.06883,-0.02168,0.01146,-0.00722,0.01232,-0.05667,0.93720,0.39917,0.00000,-1.15759,-1.17805,-0.01107,0.01182,0.37943,-0.12878,0.16679,-2.51883,A,150027.70
0.41357,57.68784444,11.98134398,57.68784583,11.98134200,15:00:27.805869,0.00318,0.00000,-0.04126,-0.06883,-0.02245,0.01192,-0.00478,-0.00360,-0.05600,0.96069,0.40979,0.00000,-1.15759,-1.17805,-0.01107,0.01182,0.37943,-0.12878,0.16679,-2.51883,A,150027.70
0.42396,57.68784444,11.98134398,57.68784583,11.98134200,15:00:27.816271,0.00317,0.00000,-0.04227,-0.06883,-0.01909,0.01787,-0.00829,-0.01623,-0.07436,0.99875,0.42016,0.00000,-1.15759,-1.17805,-0.01107,0.01182,0.37943,-0.12878,0.16679,-2.51883,A,150027.70
0.43437,57.68784444,11.98134398,57.68784583,11.98134200,15:00:27.826673,0.00299,0.00000,-0.04329,-0.06883,-0.02367,0.01741,-0.00890,0.02696,-0.07418,1.01321,0.43060,0.00000,-1.15759,-1.17805,-0.01107,0.01182,0.37943,-0.12878,0.16679,-2.51883,A,150027.70
0.44494,57.68784444,11.98134398,57.68784583,11.98134200,15:00:27.837239,0.00316,0.00000,-0.04405,-0.06883,-0.02153,0.00672,-0.01241,0.07668,-0.05819,1.00430,0.44117,0.00000,-1.15759,-1.17805,-0.01107,0.01182,0.37943,-0.12878,0.16679,-2.51883,A,150027.70
0.45533,57.68784444,11.98134398,57.68784583,11.98134200,15:00:27.847634,0.00315,0.00000,-0.04422,-0.06883,-0.02122,-0.00504,-0.01379,0.06442,-0.02037,1.00449,0.45133,0.00000,-1.15759,-1.17805,-0.01107,0.01182,0.37943,-0.12878,0.16679,-2.51883,A,150027.70
0.46572,57.68784444,11.98134398,57.68784583,11.98134200,15:00:27.858012,0.00315,0.00000,-0.04458,-0.06883,-0.00870,-0.01145,-0.01409,-0.00506,-0.04246,1.04042,0.46195,0.00000,-1.15759,-1.17805,-0.01107,0.01182,0.37943,-0.12878,0.16679,-2.51883,A,150027.70
0.47611,57.68784444,11.98134398,57.68784583,11.98134200,15:00:27.868409,0.00314,0.00000,-0.04521,-0.06883,-0.00045,0.00016,-0.01318,-0.02666,-0.06686,1.02212,0.47233,0.00000,-1.15759,-1.17805,-0.01107,0.01182,0.37943,-0.12878,0.16679,-2.51883,A,150027.70
0.49921,57.68784444,11.98134398,57.68784617,11.98134133,15:00:27.891524,0.01587,0.00000,-0.04621,-0.06880,-0.00610,0.00565,-0.01348,0.02440,-0.08589,0.98362,0.48254,0.00000,-1.15759,-1.17805,-0.01107,0.01182,0.49783,-0.16841,0.20386,-2.46076,A,150027.80
0.51674,57.68784453,11.98134385,57.68784617,11.98134133,15:00:27.909046,0.00775,0.00000,-0.04622,-0.06852,-0.00381,-0.00595,-0.01027,-0.02495,-0.01909,1.01510,0.51069,0.00000,-1.35001,-1.37038,-0.01894,0.02142,0.49783,-0.16841,0.20386,-2.46076,A,150027.80
0.52232,57.68784453,11.98134385,57.68784617,11.98134133,15:00:27.914623,0.00299,0.00000,-0.04633,-0.06835,0.00336,-0.00076,-0.00462,-0.05350,-0.03575,1.04005,0.51854,0.00000,-1.35001,-1.37038,-0.01894,0.02142,0.49783,-0.16841,0.20386,-2.46076,A,150027.80
0.53431,57.68784453,11.98134385,57.68784617,11.98134133,15:00:27.926680,0.00459,0.00000,-0.04670,-0.06812,0.01008,0.01604,-0.00753,-0.00220,-0.05789,1.01736,0.52911,0.00000,-1.35001,-1.37038,-0.01894,0.02142,0.49783,-0.16841,0.20386,-2.46076,A,150027.80
0.54502,57.68784453,11.98134385,57.68784617,11.98134133,15:00:27.937330,0.00370,0.00000,-0.04722,-0.06778,0.01161,0.01558,-0.00753,0.05441,-0.06917,0.99180,0.54124,0.00000,-1.35001,-1.37038,-0.01894,0.02142,0.49783,-0.16841,0.20386,-2.46076,A,150027.80
0.55664,57.68784453,11.98134385,57.68784617,11.98134133,15:00:27.948948,0.00509,0.00000,-0.04774,-0.06747,0.00657,0.00291,-0.00707,0.04453,-0.06515,0.98796,0.55279,0.00000,-1.35001,-1.37038,-0.01894,0.02142,0.49783,-0.16841,0.20386,-2.46076,A,150027.80
0.56512,57.68784453,11.98134385,57.68784617,11.98134133,15:00:27.957421,0.00318,0.00000,-0.04777,-0.06711,0.00871,-0.00610,-0.00249,-0.00238,-0.03331,0.99216,0.56135,0.00000,-1.35001,-1.37038,-0.01894,0.02142,0.49783,-0.16841,0.20386,-2.46076,A,150027.80
0.57716,57.68784453,11.98134385,57.68784617,11.98134133,15:00:27.969467,0.00497,0.00000,-0.04763,-0.06665,0.01665,0.00245,-0.00783,-0.01257,-0.03013,0.98430,0.57337,0.00000,-1.35001,-1.37038,-0.01894,0.02142,0.49783,-0.16841,0.20386,-2.46076,A,150027.80
0.58575,57.68784453,11.98134385,57.68784617,11.98134133,15:00:27.978053,0.00317,0.00000,-0.04784,-0.06631,0.02154,0.00749,-0.00340,-0.00512,-0.05215,0.99729,0.58198,0.00000,-1.35001,-1.37038,-0.01894,0.02142,0.49783,-0.16841,0.20386,-2.46076,A,150027.80
0.59615,57.68784453,11.98134385,57.68784617,11.98134133,15:00:27.988454,0.00317,0.00000,-0.04823,-0.06589,0.02459,0.00840,-0.00279,0.03587,-0.07015,1.00443,0.59236,0.00000,-1.35001,-1.37038,-0.01894,0.02142,0.49783,-0.16841,0.20386,-2.46076,A,150027.80
0.61964,57.68784453,11.98134385,57.68784683,11.98134050,15:00:28.011954,0.01630,0.00000,-0.04887,-0.06541,0.03146,0.00825,-0.00020,0.05142,-0.09016,0.98521,0.60274,0.00000,-1.35001,-1.37038,-0.01894,0.02142,0.61824,-0.21794,0.27799,-2.48945,A,150027.90
0.63333,57.68784464,11.98134368,57.68784683,11.98134050,15:00:28.025629,0.00618,0.00000,-0.04822,-0.06402,0.03879,-0.00626,0.00042,-0.02653,-0.04764,1.00327,0.62734,0.00000,-1.51807,-1.53710,-0.02889,0.03425,0.61824,-0.21794,0.27799,-2.48945,A,150027.90
0.64074,57.68784464,11.98134368,57.68784683,11.98134050,15:00:28.033034,0.00319,0.00000,-0.04809,-0.06337,0.04032,-0.00168,-0.00020,-0.06545,-0.04551,1.03743,0.63696,0.00000,-1.51807,-1.53710,-0.02889,0.03425,0.61824,-0.21794,0.27799,-2.48945,A,150027.90
0.65297,57.68784464,11.98134368,57.68784683,11.98134050,15:00:28.045317,0.00468,0.00000,-0.04817,-0.06261,0.05101,0.01268,0.00164,0.02477,-0.07235,1.01028,0.64877,0.00000,-1.51807,-1.53710,-0.02889,0.03425,0.61824,-0.21794,0.27799,-2.48945,A,150027.90
0.66150,57.68784464,11.98134368,57.68784683,11.98134050,15:00:28.053803,0.00316,0.00000,-0.04832,-0.06178,0.04857,0.00535,-0.00004,0.07046,-0.06478,0.97759,0.65773,0.00000,-1.51807,-1.53710,-0.02889,0.03425,0.61824,-0.21794,0.27799,-2.48945,A,150027.90
0.67189,57.68784464,11.98134368,57.68784683,11.98134050,15:00:28.064179,0.00314,0.00000,-0.04802,-0.06096,0.05116,-0.01221,0.00225,0.04368,-0.04093,0.98143,0.66810,0.00000,-1.51807,-1.53710,-0.02889,0.03425,0.61824,-0.21794,0.27799,-2.48945,A,150027.90
0.68215,57.68784464,11.98134368,57.68784683,11.98134050,15:00:28.074444,0.00301,0.00000,-0.04759,-0.06009,0.05422,-0.01725,0.00622,-0.04142,-0.03630,1.03096,0.67837,0.00000,-1.51807,-1.53710,-0.02889,0.03425,0.61824,-0.21794,0.27799,-2.48945,A,150027.90
0.69278,57.68784464,11.98134368,57.68784683,11.98134050,15:00:28.085074,0.00325,0.00000,-0.04699,-0.05927,0.06353,-0.00061,0.00225,-0.08503,-0.03215,1.03371,0.68900,0.00000,-1.51807,-1.53710,-0.02889,0.03425,0.61824,-0.21794,0.27799,-2.48945,A,150027.90
0.70286,57.68784464,11.98134368,57.68784683,11.98134050,15:00:28.095396,0.00294,0.00000,-0.04696,-0.05853,0.06873,0.01268,0.00362,-0.00842,-0.06899,0.99906,0.69910,0.00000,-1.51807,-1.53710,-0.02889,0.03425,0.61824,-0.21794,0.27799,-2.48945,A,150027.90
0.71350,57.68784464,11.98134368,57.68784683,11.98134050,15:00:28.105792,0.00317,0.00000,-0.04695,-0.05779,0.05941,0.01115,0.00255,0.03379,-0.06637,0.98698,0.70972,0.00000,-1.51807,-1.53710,-0.02889,0.03425,0.61824,-0.21794,0.27799,-2.48945,A,150027.90
0.73655,57.68784464,11.98134368,57.68784733,11.98133983,15:00:28.128848,0.01583,0.00000,-0.04667,-0.05711,0.06689,0.00993,-0.00081,0.05362,-0.05167,0.97698,0.72009,0.00000,-1.51807,-1.53710,-0.02889,0.03425,0.73529,-0.25756,0.33358,-2.47252,A,150028.00
0.74892,57.68784478,11.98134349,57.68784733,11.98133983,15:00:28.141235,0.00649,0.00000,-0.04494,-0.05570,0.08476,-0.00320,0.00240,-0.01446,-0.03087,0.98417,0.74194,0.00000,-1.65876,-1.67530,-0.04032,0.04921,0.73529,-0.25756,0.33358,-2.47252,A,150028.00
0.75704,57.68784478,11.98134349,57.68784733,11.98133983,15:00:28.149354,0.00389,0.00000,-0.04449,-0.05505,0.08568,-0.00213,0.00026,-0.00866,-0.05862,1.01815,0.75321,0.00000,-1.65876,-1.67530,-0.04032,0.04921,0.73529,-0.25756,0.33358,-2.47252,A,150028.00
0.76637,57.68784478,11.98134349,57.68784733,11.98133983,15:00:28.158674,0.00299,0.00000,-0.04398,-0.05443,0.08995,-0.00519,0.00133,0.04343,-0.04514,1.00302,0.76260,0.00000,-1.65876,-1.67530,-0.04032,0.04921,0.73529,-0.25756,0.33358,-2.47252,A,150028.00
0.77694,57.68784478,11.98134349,57.68784733,11.98133983,15:00:28.169229,0.00315,0.00000,-0.04359,-0.05383,0.09560,-0.01435,0.00362,0.06997,-0.06313,0.99497,0.77316,0.00000,-1.65876,-1.67530,-0.04032,0.04921,0.73529,-0.25756,0.33358,-2.47252,A,150028.00
0.78733,57.68784478,11.98134349,57.68784733,11.98133983,15:00:28.179634,0.00315,0.00000,-0.04277,-0.05332,0.09392,-0.02382,0.00744,0.01586,-0.03099,1.01559,0.78334,0.00000,-1.65876,-1.67530,-0.04032,0.04921,0.73529,-0.25756,0.33358,-2.47252,A,150028.00
0.79773,57.68784478,11.98134349,57.68784733,11.98133983,15:00:28.190033,0.00316,0.00000,-0.04212,-0.05290,0.10125,-0.01725,0.00652,-0.05581,-0.05020,1.02254,0.79396,0.00000,-1.65876,-1.67530,-0.04032,0.04921,0.73529,-0.25756,0.33358,-2.47252,A,150028.00
0.80808,57.68784478,11.98134349,57.68784733,11.98133983,15:00:28.200381,0.00328,0.00000,-0.04144,-0.05259,0.10400,-0.00274,0.01004,-0.10315,-0.04612,1.00382,0.80427,0.00000,-1.65876,-1.67530,-0.04032,0.04921,0.73529,-0.25756,0.33358,-2.47252,A,150028.00
0.81831,57.68784478,11.98134349,57.68784733,11.98133983,15:00:28.210605,0.00297,0.00000,-0.04105,-0.05247,0.10324,0.01864,0.00698,-0.00567,-0.06045,0.94135,0.81454,0.00000,-1.65876,-1.67530,-0.04032,0.04921,0.73529,-0.25756,0.33358,-2.47252,A,150028.00
0.82888,57.68784478,11.98134349,57.68784733,11.98133983,15:00:28.221168,0.00315,0.00000,-0.04016,-0.05247,0.09469,0.01207,0.00347,0.01854,-0.02525,0.96404,0.82510,0.00000,-1.65876,-1.67530,-0.04032,0.04921,0.73529,-0.25756,0.33358,-2.47252,A,150028.00
0.85195,57.68784478,11.98134349,57.68784817,11.98133917,15:00:28.244264,0.01583,0.00000,-0.03946,-0.05247,0.09698,0.00581,0.00484,0.06265,-0.03556,0.96215,0.83529,0.00000,-1.65876,-1.67530,-0.04032,0.04921,0.85059,-0.29719,0.42625,-2.49670,A,150028.10
0.86588,57.68784495,11.98134327,57.68784817,11.98133917,15:00:28.258185,0.00704,0.00000,-0.03716,-0.05247,0.09683,-0.01450,0.00271,0.00872,-0.02007,1.00668,0.85976,0.00000,-1.78211,-1.79770,-0.05317,0.06807,0.85059,-0.29719,0.42625,-2.49670,A,150028.10
0.87242,57.68784495,11.98134327,57.68784817,11.98133917,15:00:28.264904,0.00319,0.00000,-0.03633,-0.05247,0.09484,-0.02611,-0.00294,-0.00329,-0.01616,0.99973,0.86864,0.00000,-1.78211,-1.79770,-0.05317,0.06807,0.85059,-0.29719,0.42625,-2.49670,A,150028.10
0.88263,57.68784495,11.98134327,57.68784817,11.98133917,15:00:28.275147,0.00317,0.00000,-0.03559,-0.05247,0.09408,-0.01466,-0.00478,-0.01964,-0.02867,0.99216,0.87884,0.00000,-1.78211,-1.79770,-0.05317,0.06807,0.85059,-0.29719,0.42625,-2.49670,A,150028.10
0.89301,57.68784495,11.98134327,57.68784817,11.98133917,15:00:28.285312,0.00315,0.00000,-0.03504,-0.05247,0.09011,-0.01664,-0.00478,-0.00738,-0.03922,1.00485,0.88923,0.00000,-1.78211,-1.79770,-0.05317,0.06807,0.85059,-0.29719,0.42625,-2.49670,A,150028.10
0.90342,57.68784495,11.98134327,57.68784817,11.98133917,15:00:28.295721,0.00317,0.00000,-0.03448,-0.05247,0.08644,-0.01863,-0.00356,0.00000,-0.03453,0.99338,0.89942,0.00000,-1.78211,-1.79770,-0.05317,0.06807,0.85059,-0.29719,0.42625,-2.49670,A,150028.10
0.91381,57.68784495,11.98134327,57.68784817,11.98133917,15:00:28.306113,0.00316,0.00000,-0.03384,-0.05247,0.07774,-0.02504,-0.00172,-0.03764,-0.02416,0.97881,0.91004,0.00000,-1.78211,-1.79770,-0.05317,0.06807,0.85059,-0.29719,0.42625,-2.49670,A,150028.10
0.92415,57.68784495,11.98134327,57.68784817,11.98133917,15:00:28.316449,0.00307,0.00000,-0.03293,-0.05247,0.07911,-0.01481,-0.00126,-0.04904,-0.00586,0.99454,0.92037,0.00000,-1.78211,-1.79770,-0.05317,0.06807,0.85059,-0.29719,0.42625,-2.49670,A,150028.10
0.93433,57.68784495,11.98134327,57.68784817,11.98133917,15:00:28.326633,0.00298,0.00000,-0.03196,-0.05247,0.08553,0.00031,0.00072,-0.04880,-0.00451,0.98405,0.93056,0.00000,-1.78211,-1.79770,-0.05317,0.06807,0.85059,-0.29719,0.42625,-2.49670,A,150028.10
0.94489,57.68784495,11.98134327,57.68784817,11.98133917,15:00:28.337190,0.00314,0.00000,-0.03097,-0.05247,0.08064,0.00184,-0.00432,0.00098,-0.00055,0.99607,0.94111,0.00000,-1.78211,-1.79770,-0.05317,0.06807,0.85059,-0.29719,0.42625,-2.49670,A,150028.10
0.96798,57.68784495,11.98134327,57.68784867,11.98133850,15:00:28.360288,0.01584,0.00000,-0.03038,-0.05247,0.08201,-0.00229,-0.00065,0.05203,-0.02507,0.98265,0.95132,0.00000,-1.78211,-1.79770,-0.05317,0.06807,0.96659,-0.33681,0.48184,-2.47252,A,150028.20
0.98369,57.68784513,11.98134303,57.68784867,11.98133850,15:00:28.375999,0.00703,0.00000,-0.02866,-0.05247,0.05743,-0.01343,-0.00875,-0.01653,0.00628,0.99814,0.97763,0.00000,-1.88333,-1.89892,-0.06735,0.08875,0.96659,-0.33681,0.48184,-2.47252,A,150028.20
0.99020,57.68784513,11.98134303,57.68784867,11.98133850,15:00:28.382495,0.00300,0.00000,-0.02756,-0.05247,0.06216,-0.01145,-0.01287,-0.02336,0.03135,1.05005,0.98641,0.00000,-1.88333,-1.89892,-0.06735,0.08875,0.96659,-0.33681,0.48184,-2.47252,A,150028.20
1.00075,57.68784513,11.98134303,57.68784867,11.98133850,15:00:28.393050,0.00315,0.00000,-0.02697,-0.05247,0.05926,-0.00610,-0.01027,-0.06527,-0.00903,1.09202,0.99698,0.00000,-1.88333,-1.89892,-0.06735,0.08875,0.96659,-0.33681,0.48184,-2.47252,A,150028.20
1.01115,57.68784513,11.98134303,57.68784867,11.98133850,15:00:28.403465,0.00315,0.00000,-0.02638,-0.05247,0.05712,0.00993,-0.01302,-0.03819,-0.00549,1.06512,1.00718,0.00000,-1.88333,-1.89892,-0.06735,0.08875,0.96659,-0.33681,0.48184,-2.47252,A,150028.20
1.02157,57.68784513,11.98134303,57.68784867,11.98133850,15:00:28.413857,0.00317,0.00000,-0.02622,-0.05247,0.05727,0.01894,-0.00859,0.02507,-0.03343,0.97173,1.01780,0.00000,-1.88333,-1.89892,-0.06735,0.08875,0.96659,-0.33681,0.48184,-2.47252,A,150028.20
1.03195,57.68784513,11.98134303,57.68784867,11.98133850,15:00:28.424253,0.00316,0.00000,-0.02628,-0.05247,0.03895,0.00611,-0.01027,0.03648,-0.03288,0.92525,1.02817,0.00000,-1.88333,-1.89892,-0.06735,0.08875,0.96659,-0.33681,0.48184,-2.47252,A,150028.20
1.04232,57.68784513,11.98134303,57.68784867,11.98133850,15:00:28.434612,0.00299,0.00000,-0.02581,-0.05247,0.03727,-0.00336,-0.00462,-0.00952,0.00030,0.91884,1.03854,0.00000,-1.88333,-1.89892,-0.06735,0.08875,0.96659,-0.33681,0.48184,-2.47252,A,150028.20
1.05303,57.68784513,11.98134303,57.68784867,11.98133850,15:00:28.445321,0.00330,0.00000,-0.02479,-0.05247,0.03834,-0.00397,-0.00356,-0.05051,0.03538,0.96587,1.04925,0.00000,-1.88333,-1.89892,-0.06735,0.08875,0.96659,-0.33681,0.48184,-2.47252,A,150028.20
1.06328,57.68784513,11.98134303,57.68784867,11.98133850,15:00:28.455589,0.00316,0.00000,-0.02407,-0.05247,0.04108,-0.00320,-0.00508,0.03093,0.01616,0.94666,1.05930,0.00000,-1.88333,-1.89892,-0.06735,0.08875,0.96659,-0.33681,0.48184,-2.47252,A,150028.20
1.09782,57.68784513,11.98134303,57.68785050,11.98133717,15:00:28.490129,0.02730,0.00000,-0.02392,-0.05247,0.03895,-0.00962,-0.00554,0.06216,-0.01885,0.92775,1.06992,0.00000,-1.88333,-1.89892,-0.06735,0.08875,1.09653,-0.41606,0.68570,-2.59294,A,150028.40
1.10917,57.68784540,11.98134274,57.68785050,11.98133717,15:00:28.501473,0.00559,0.00000,-0.02326,-0.05247,0.02200,0.01818,-0.00951,-0.06265,-0.00775,1.09306,1.10315,0.00000,-1.98744,-2.00302,-0.08478,0.11860,1.09653,-0.41606,0.68570,-2.59294,A,150028.40
1.11869,57.68784540,11.98134274,57.68785050,11.98133717,15:00:28.511773,0.00471,0.00000,-0.02316,-0.05247,0.01405,0.01864,-0.01241,0.04612,-0.00579,1.03371,1.11456,0.00000,-1.98744,-2.00302,-0.08478,0.11860,1.09653,-0.41606,0.68570,-2.59294,A,150028.40
1.12754,57.68784540,11.98134274,57.68785050,11.98133717,15:00:28.519841,0.00317,0.00000,-0.02306,-0.05247,0.00840,0.00443,-0.00936,0.10169,-0.00049,0.98204,1.12355,0.00000,-1.98744,-2.00302,-0.08478,0.11860,1.09653,-0.41606,0.68570,-2.59294,A,150028.40
1.13842,57.68784540,11.98134274,57.68785050,11.98133717,15:00:28.530732,0.00381,0.00000,-0.02259,-0.05247,0.00703,-0.01343,-0.00814,0.05228,0.02355,0.98838,1.13459,0.00000,-1.98744,-2.00302,-0.08478,0.11860,1.09653,-0.41606,0.68570,-2.59294,A,150028.40
1.14816,57.68784540,11.98134274,57.68785050,11.98133717,15:00:28.540461,0.00315,0.00000,-0.02195,-0.05247,0.01207,-0.01603,-0.00859,-0.05081,0.03263,0.96984,1.14438,0.00000,-1.98744,-2.00302,-0.08478,0.11860,1.09653,-0.41606,0.68570,-2.59294,A,150028.40
1.15832,57.68784540,11.98134274,57.68785050,11.98133717,15:00:28.550615,0.00297,0.00000,-0.02185,-0.05247,0.01314,-0.00885,-0.00875,-0.06899,-0.00281,0.97576,1.15455,0.00000,-1.98744,-2.00302,-0.08478,0.11860,1.09653,-0.41606,0.68570,-2.59294,A,150028.40
1.16888,57.68784540,11.98134274,57.68785050,11.98133717,15:00:28.561176,0.00314,1.00776,-0.02206,-0.05247,0.01100,0.00336,-0.00539,-0.03282,-0.02702,0.97716,1.16511,0.00000,-1.98744,-2.00302,-0.08478,0.11860,1.09653,-0.41606,0.68570,-2.59294,A,150028.40
1.17952,57.68784540,11.98134274,57.68785050,11.98133717,15:00:28.571832,0.00338,1.00776,-0.02242,-0.05247,-0.00183,0.00504,-0.01043,0.02196,-0.02733,0.96709,1.17533,0.00000,-1.98744,-2.00302,-0.08478,0.11860,1.09653,-0.41606,0.68570,-2.59294,A,150028.40
1.18970,57.68784540,11.98134274,57.68785050,11.98133717,15:00:28.581991,0.00315,1.00776,-0.02288,-0.05247,-0.00091,0.00550,-0.00890,0.02239,-0.03593,0.99088,1.18593,0.00000,-1.98744,-2.00302,-0.08478,0.11860,1.09653,-0.41606,0.68570,-2.59294,A,150028.40
1.21314,57.68784540,11.98134274,57.68785133,11.98133617,15:00:28.605444,0.01620,1.00776,-0.02280,-0.05247,-0.01069,0.00611,-0.01409,0.02074,0.00616,1.01339,1.19631,0.00000,-1.98744,-2.00302,-0.08478,0.11860,1.21186,-0.47550,0.77836,-2.50648,A,150028.50
1.22741,57.68784570,11.98134241,57.68785133,11.98133617,15:00:28.619727,0.00670,1.00776,-0.02300,-0.05247,-0.01084,-0.00168,-0.01531,0.00567,-0.00232,1.02858,1.22096,0.20155,-2.06295,-2.07854,-0.10432,0.15159,1.21186,-0.47550,0.77836,-2.50648,A,150028.50
1.23422,57.68784570,11.98134241,57.68785133,11.98133617,15:00:28.626512,0.00297,1.00776,-0.02335,-0.05247,-0.00946,-0.00504,-0.01654,0.02800,-0.02373,0.99363,1.23045,0.20155,-2.06295,-2.07854,-0.10432,0.15159,1.21186,-0.47550,0.77836,-2.50648,A,150028.50
1.24487,57.68784570,11.98134241,57.68785133,11.98133617,15:00:28.637165,0.00322,1.00776,-0.02377,-0.05247,-0.01924,-0.00442,-0.01577,0.02397,-0.02111,0.97002,1.24110,0.20155,-2.06295,-2.07854,-0.10432,0.15159,1.21186,-0.47550,0.77836,-2.50648,A,150028.50
1.25522,57.68784570,11.98134241,57.68785133,11.98133617,15:00:28.647520,0.00317,1.00776,-0.02401,-0.05247,-0.02519,-0.00351,-0.01363,-0.05679,-0.00616,0.98009,1.25121,0.20155,-2.06295,-2.07854,-0.10432,0.15159,1.21186,-0.47550,0.77836,-2.50648,A,150028.50
1.26564,57.68784570,11.98134241,57.68785133,11.98133617,15:00:28.657943,0.00320,1.00776,-0.02432,-0.05247,-0.02978,0.00810,-0.00737,-0.03989,-0.00756,0.97112,1.26186,0.20155,-2.06295,-2.07854,-0.10432,0.15159,1.21186,-0.47550,0.77836,-2.50648,A,150028.50
1.27602,57.68784570,11.98134241,57.68785133,11.98133617,15:00:28.668312,0.00318,1.00776,-0.02477,-0.05247,-0.03420,0.01161,-0.01073,-0.02379,-0.01446,0.98588,1.27223,0.20155,-2.06295,-2.07854,-0.10432,0.15159,1.21186,-0.47550,0.77836,-2.50648,A,150028.50
1.28632,57.68784570,11.98134241,57.68785133,11.98133617,15:00:28.678611,0.00299,1.00776,-0.02509,-0.05259,-0.03405,0.01864,-0.01363,-0.00098,-0.00665,1.01004,1.28254,0.20155,-2.06295,-2.07854,-0.10432,0.15159,1.21186,-0.47550,0.77836,-2.50648,A,150028.50
1.29688,57.68784570,11.98134241,57.68785133,11.98133617,15:00:28.689171,0.00315,1.00776,-0.02524,-0.05281,-0.04474,0.01253,-0.01333,0.04020,0.01238,1.01894,1.29311,0.20155,-2.06295,-2.07854,-0.10432,0.15159,1.21186,-0.47550,0.77836,-2.50648,A,150028.50
1.30778,57.68784570,11.98134241,57.68785133,11.98133617,15:00:28.700087,0.00365,1.00776,-0.02542,-0.05318,-0.03665,-0.00061,-0.01562,0.05801,0.00415,1.04365,1.30355,0.20155,-2.06295,-2.07854,-0.10432,0.15159,1.21186,-0.47550,0.77836,-2.50648,A,150028.50
1.33053,57.68784570,11.98134241,57.68785217,11.98133517,15:00:28.722830,0.01600,1.00776,-0.02581,-0.05361,-0.03924,-0.01206,-0.02096,0.02056,-0.00817,1.04914,1.31392,0.20155,-2.06295,-2.07854,-0.10432,0.15159,1.32927,-0.53493,0.87103,-2.50648,A,150028.60
1.34438,57.68784585,11.98134187,57.68785217,11.98133517,15:00:28.736687,0.00684,1.00776,-0.02723,-0.05437,-0.03955,0.00596,-0.02219,-0.03404,-0.04264,1.01150,1.33788,0.36279,-2.12800,-2.14415,-0.13653,0.16838,1.32927,-0.53493,0.87103,-2.50648,A,150028.60
1.35190,57.68784585,11.98134187,57.68785217,11.98133517,15:00:28.744211,0.00396,1.00776,-0.02846,-0.05443,-0.02657,0.01360,-0.01791,0.05167,-0.07094,0.93574,1.34809,0.36279,-2.12800,-2.14415,-0.13653,0.16838,1.32927,-0.53493,0.87103,-2.50648,A,150028.60
1.36151,57.68784585,11.98134187,57.68785217,11.98133517,15:00:28.753812,0.00318,1.00776,-0.02960,-0.05443,-0.02367,0.00245,-0.01638,0.10541,-0.06515,0.88114,1.35774,0.36279,-2.12800,-2.14415,-0.13653,0.16838,1.32927,-0.53493,0.87103,-2.50648,A,150028.60
1.37205,57.68784585,11.98134187,57.68785217,11.98133517,15:00:28.764355,0.00317,1.00776,-0.03042,-0.05443,-0.02245,-0.01817,-0.01150,0.04166,-0.04746,0.89572,1.36826,0.36279,-2.12800,-2.14415,-0.13653,0.16838,1.32927,-0.53493,0.87103,-2.50648,A,150028.60
1.38231,57.68784585,11.98134187,57.68785217,11.98133517,15:00:28.774607,0.00297,1.00776,-0.03056,-0.05443,-0.01756,-0.01603,-0.00356,-0.05380,-0.01171,0.98131,1.37853,0.36279,-2.12800,-2.14415,-0.13653,0.16838,1.32927,-0.53493,0.87103,-2.50648,A,150028.60
1.39288,57.68784585,11.98134187,57.68785217,11.98133517,15:00:28.785180,0.00315,1.00776,-0.03061,-0.05443,-0.01252,-0.00748,-0.00172,-0.04313,-0.00897,1.00388,1.38912,0.36279,-2.12800,-2.14415,-0.13653,0.16838,1.32927,-0.53493,0.87103,-2.50648,A,150028.60
1.40328,57.68784585,11.98134187,57.68785217,11.98133517,15:00:28.795587,0.00315,1.00776,-0.03073,-0.05443,-0.00687,0.00245,-0.00356,0.04801,-0.01818,1.04139,1.39929,0.36279,-2.12800,-2.14415,-0.13653,0.16838,1.32927,-0.53493,0.87103,-2.50648,A,150028.60
1.41370,57.68784585,11.98134187,57.68785217,11.98133517,15:00:28.805994,0.00317,1.00776,-0.03117,-0.05443,-0.00412,-0.01114,-0.00325,0.04923,-0.04386,1.06347,1.40993,0.36279,-2.12800,-2.14415,-0.13653,0.16838,1.32927,-0.53493,0.87103,-2.50648,A,150028.60
1.42410,57.68784585,11.98134187,57.68785217,11.98133517,15:00:28.816395,0.00318,1.00776,-0.03112,-0.05443,-0.01405,-0.01160,-0.01180,-0.00079,-0.00146,1.09080,1.42031,0.36279,-2.12800,-2.14415,-0.13653,0.16838,1.32927,-0.53493,0.87103,-2.50648,A,150028.60
1.44754,57.68784585,11.98134187,57.68785317,11.98133433,15:00:28.839845,0.01603,1.00776,-0.03138,-0.05443,-0.00580,-0.00198,-0.01195,-0.02629,-0.02940,1.05878,1.43074,0.36279,-2.12800,-2.14415,-0.13653,0.16838,1.44614,-0.58447,0.98222,-2.51402,A,150028.70
1.46824,57.68784590,11.98134111,57.68785317,11.98133433,15:00:28.860550,0.00874,1.00776,-0.03165,-0.05443,-0.00519,0.00489,-0.01898,0.07131,-0.02105,0.89877,1.46147,0.49179,-2.18533,-2.20150,-0.18156,0.17402,1.44614,-0.58447,0.98222,-2.51402,A,150028.70
1.47302,57.68784590,11.98134111,57.68785317,11.98133433,15:00:28.865308,0.00320,1.00776,-0.03182,-0.05443,-0.00778,-0.01634,-0.01425,0.07064,-0.02086,0.89737,1.46923,0.49179,-2.18533,-2.20150,-0.18156,0.17402,1.44614,-0.58447,0.98222,-2.51402,A,150028.70
1.48337,57.68784590,11.98134111,57.68785317,11.98133433,15:00:28.875674,0.00315,1.00776,-0.03187,-0.05443,-0.00030,-0.02245,-0.01654,-0.00256,-0.01800,0.93519,1.47938,0.49179,-2.18533,-2.20150,-0.18156,0.17402,1.44614,-0.58447,0.98222,-2.51402,A,150028.70
1.49378,57.68784590,11.98134111,57.68785317,11.98133433,15:00:28.886075,0.00316,1.00776,-0.03235,-0.05443,-0.00748,-0.02489,-0.01486,-0.10376,-0.04288,1.00064,1.49000,0.49179,-2.18533,-2.20150,-0.18156,0.17402,1.44614,-0.58447,0.98222,-2.51402,A,150028.70
1.50415,57.68784590,11.98134111,57.68785317,11.98133433,15:00:28.896450,0.00313,1.00776,-0.03260,-0.05443,-0.00366,-0.00183,-0.01638,-0.06490,-0.03062,1.01827,1.50037,0.49179,-2.18533,-2.20150,-0.18156,0.17402,1.44614,-0.58447,0.98222,-2.51402,A,150028.70
1.51439,57.68784590,11.98134111,57.68785317,11.98133433,15:00:28.906685,0.00300,1.00776,-0.03302,-0.05443,-0.00565,0.00779,-0.01287,-0.04599,-0.04386,1.08617,1.51061,0.49179,-2.18533,-2.20150,-0.18156,0.17402,1.44614,-0.58447,0.98222,-2.51402,A,150028.70
1.52495,57.68784590,11.98134111,57.68785317,11.98133433,15:00:28.917249,0.00316,1.00776,-0.03275,-0.05443,0.00474,0.01497,-0.01104,0.08869,-0.00201,1.03621,1.52117,0.49179,-2.18533,-2.20150,-0.18156,0.17402,1.44614,-0.58447,0.98222,-2.51402,A,150028.70
1.53533,57.68784590,11.98134111,57.68785317,11.98133433,15:00:28.927634,0.00315,1.00776,-0.03245,-0.05443,-0.00366,-0.00840,-0.00737,0.05630,0.00647,1.05072,1.53135,0.49179,-2.18533,-2.20150,-0.18156,0.17402,1.44614,-0.58447,0.98222,-2.51402,A,150028.70
1.54573,57.68784590,11.98134111,57.68785317,11.98133433,15:00:28.938030,0.00316,1.00776,-0.03190,-0.05443,0.00871,-0.01145,-0.00264,0.02757,0.01513,1.02236,1.54196,0.49179,-2.18533,-2.20150,-0.18156,0.17402,1.44614,-0.58447,0.98222,-2.51402,A,150028.70
1.56978,57.68784590,11.98134111,57.68785383,11.98133350,15:00:28.962087,0.01680,1.00776,-0.03163,-0.05443,0.00963,-0.00748,-0.00539,-0.09583,-0.00421,1.06329,1.55236,0.49179,-2.18533,-2.20150,-0.18156,0.17402,1.56830,-0.63400,1.05635,-2.48945,A,150028.80
1.58100,57.68784592,11.98134022,57.68785383,11.98133350,15:00:28.973293,0.00546,1.00776,-0.03151,-0.05443,0.01879,0.00840,-0.00585,0.12572,-0.03123,0.85674,1.57496,0.59498,-2.23083,-2.24700,-0.23468,0.17637,1.56830,-0.63400,1.05635,-2.48945,A,150028.80
1.58910,57.68784592,11.98134022,57.68785383,11.98133350,15:00:28.981400,0.00317,1.00776,-0.03170,-0.05443,0.01741,-0.01023,-0.00004,-0.00122,-0.03751,0.93586,1.58533,0.59498,-2.23083,-2.24700,-0.23468,0.17637,1.56830,-0.63400,1.05635,-2.48945,A,150028.80
1.60092,57.68784592,11.98134022,57.68785383,11.98133350,15:00:28.993918,0.00459,1.00776,-0.03138,-0.05443,0.01955,-0.00977,0.00744,-0.05789,-0.00726,0.98704,1.59550,0.59498,-2.23083,-2.24700,-0.23468,0.17637,1.56830,-0.63400,1.05635,-2.48945,A,150028.80
1.61221,57.68784592,11.98134022,57.68785383,11.98133350,15:00:29.004524,0.00515,1.00776,-0.03132,-0.05443,0.02535,0.01161,0.00148,-0.04453,-0.03312,1.02266,1.60836,0.59498,-2.23083,-2.24700,-0.23468,0.17637,1.56830,-0.63400,1.05635,-2.48945,A,150028.80
1.62190,57.68784592,11.98134022,57.68785383,11.98133350,15:00:29.014210,0.00372,1.00776,-0.03107,-0.05443,0.03177,0.01405,0.00194,-0.00104,-0.01940,1.04200,1.61811,0.59498,-2.23083,-2.24700,-0.23468,0.17637,1.56830,-0.63400,1.05635,-2.48945,A,150028.80
1.63174,57.68784592,11.98134022,57.68785383,11.98133350,15:00:29.024038,0.00317,1.00776,-0.03090,-0.05443,0.03253,0.00413,0.00500,0.11474,-0.02458,1.02181,1.62796,0.59498,-2.23083,-2.24700,-0.23468,0.17637,1.56830,-0.63400,1.05635,-2.48945,A,150028.80
1.64221,57.68784592,11.98134022,57.68785383,11.98133350,15:00:29.034512,0.00307,1.00776,-0.03042,-0.05443,0.03406,-0.02000,0.00698,0.07643,-0.00610,1.03163,1.63843,0.59498,-2.23083,-2.24700,-0.23468,0.17637,1.56830,-0.63400,1.05635,-2.48945,A,150028.80
1.65268,57.68784592,11.98134022,57.68785383,11.98133350,15:00:29.044968,0.00313,1.00776,-0.02981,-0.05443,0.03452,-0.03558,0.00973,-0.02904,0.00262,1.04816,1.64891,0.59498,-2.23083,-2.24700,-0.23468,0.17637,1.56830,-0.63400,1.05635,-2.48945,A,150028.80
1.66307,57.68784592,11.98134022,57.68785383,11.98133350,15:00:29.055389,0.00294,1.00776,-0.02945,-0.05423,0.03910,-0.02703,0.00713,-0.09363,-0.01586,1.03566,1.65910,0.59498,-2.23083,-2.24700,-0.23468,0.17637,1.56830,-0.63400,1.05635,-2.48945,A,150028.80
1.69756,57.68784592,11.98134022,57.68785567,11.98133183,15:00:29.089860,0.02723,1.00776,-0.02863,-0.05378,0.04582,-0.00870,0.01279,-0.00750,0.00836,0.97502,1.66989,0.59498,-2.23083,-2.24700,-0.23468,0.17637,1.69626,-0.73306,1.26021,-2.60163,A,150029.00
1.71356,57.68784589,11.98133902,57.68785567,11.98133183,15:00:29.105860,0.00632,1.00776,-0.02680,-0.05044,0.03818,-0.01878,0.01630,-0.10010,0.01507,1.00211,1.70776,0.67754,-2.28749,-2.30247,-0.30583,0.17293,1.69626,-0.73306,1.26021,-2.60163,A,150029.00
1.72081,57.68784589,11.98133902,57.68785567,11.98133183,15:00:29.113100,0.00317,1.00776,-0.02565,-0.04956,0.04444,0.00642,0.01431,-0.14701,0.04258,1.06353,1.71704,0.67754,-2.28749,-2.30247,-0.30583,0.17293,1.69626,-0.73306,1.26021,-2.60163,A,150029.00
1.73119,57.68784589,11.98133902,57.68785567,11.98133183,15:00:29.123500,0.00315,1.30979,-0.02527,-0.04874,0.04750,0.02810,0.01309,0.01482,-0.01879,1.02132,1.72721,0.67754,-2.28749,-2.30247,-0.30583,0.17293,1.69626,-0.73306,1.26021,-2.60163,A,150029.00
1.74161,57.68784589,11.98133902,57.68785567,11.98133183,15:00:29.133906,0.00318,1.30979,-0.02422,-0.04809,0.03849,0.01528,0.02073,0.12627,0.03068,0.97600,1.73784,0.67754,-2.28749,-2.30247,-0.30583,0.17293,1.69626,-0.73306,1.26021,-2.60163,A,150029.00
1.75196,57.68784589,11.98133902,57.68785567,11.98133183,15:00:29.144260,0.00314,1.30979,-0.02399,-0.04769,0.03910,-0.01878,0.01447,0.11773,-0.02050,0.96288,1.74818,0.67754,-2.28749,-2.30247,-0.30583,0.17293,1.69626,-0.73306,1.26021,-2.60163,A,150029.00
1.76231,57.68784589,11.98133902,57.68785567,11.98133183,15:00:29.154608,0.00297,1.30979,-0.02282,-0.04755,0.03605,-0.03314,0.01889,-0.09223,0.04569,1.05506,1.75854,0.67754,-2.28749,-2.30247,-0.30583,0.17293,1.69626,-0.73306,1.26021,-2.60163,A,150029.00
1.77287,57.68784589,11.98133902,57.68785567,11.98133183,15:00:29.165164,0.00313,1.30979,-0.02205,-0.04752,0.04597,-0.01191,0.01355,-0.06692,0.01074,0.99887,1.76911,0.67754,-2.28749,-2.30247,-0.30583,0.17293,1.69626,-0.73306,1.26021,-2.60163,A,150029.00
1.78346,57.68784589,11.98133902,57.68785567,11.98133183,15:00:29.175761,0.00332,1.30979,-0.02174,-0.04752,0.03711,-0.00229,0.01340,-0.02574,-0.01275,0.97655,1.77945,0.67754,-2.28749,-2.30247,-0.30583,0.17293,1.69626,-0.73306,1.26021,-2.60163,A,150029.00
1.79369,57.68784589,11.98133902,57.68785567,11.98133183,15:00:29.185989,0.00316,1.30979,-0.02174,-0.04752,0.03467,-0.00076,0.01340,0.03526,-0.03099,0.98869,1.78992,0.67754,-2.28749,-2.30247,-0.30583,0.17293,1.69626,-0.73306,1.26021,-2.60163,A,150029.00
1.81798,57.68784589,11.98133902,57.68785700,11.98133083,15:00:29.210281,0.01705,1.30979,-0.02143,-0.04752,0.02474,0.00474,0.01523,0.02031,-0.00500,0.99857,1.80062,0.67754,-2.28749,-2.30247,-0.30583,0.17293,1.81668,-0.79250,1.40847,-2.54422,A,150029.10
1.82919,57.68784596,11.98133779,57.68785700,11.98133083,15:00:29.221480,0.00529,1.30979,-0.02086,-0.04752,0.01405,-0.00213,0.01706,-0.02721,0.01043,1.01644,1.82317,0.80399,-2.32690,-2.34101,-0.37900,0.18033,1.81668,-0.79250,1.40847,-2.54422,A,150029.10
1.83872,57.68784596,11.98133779,57.68785700,11.98133083,15:00:29.231803,0.00417,1.30979,-0.02011,-0.04752,0.01680,-0.00152,0.01355,-0.02391,0.03074,1.02004,1.83491,0.80399,-2.32690,-2.34101,-0.37900,0.18033,1.81668,-0.79250,1.40847,-2.54422,A,150029.10
1.84807,57.68784596,11.98133779,57.68785700,11.98133083,15:00:29.240372,0.00313,1.30979,-0.01975,-0.04752,0.01436,-0.00504,0.00637,0.02428,0.00866,1.00345,1.84430,0.80399,-2.32690,-2.34101,-0.37900,0.18033,1.81668,-0.79250,1.40847,-2.54422,A,150029.10
1.85830,57.68784596,11.98133779,57.68785700,11.98133083,15:00:29.250596,0.00297,1.30979,-0.01932,-0.04752,0.01726,-0.01557,0.00362,0.03447,0.01196,1.01797,1.85454,0.80399,-2.32690,-2.34101,-0.37900,0.18033,1.81668,-0.79250,1.40847,-2.54422,A,150029.10
1.86888,57.68784596,11.98133779,57.68785700,11.98133083,15:00:29.261176,0.00314,1.30979,-0.01912,-0.04752,0.01665,-0.01191,0.00408,-0.04880,-0.00354,1.05902,1.86510,0.80399,-2.32690,-2.34101,-0.37900,0.18033,1.81668,-0.79250,1.40847,-2.54422,A,150029.10
1.87940,57.68784596,11.98133779,57.68785700,11.98133083,15:00:29.271707,0.00327,1.30979,-0.01907,-0.04752,0.02077,-0.00137,-0.00142,-0.01049,-0.01604,0.98814,1.87531,0.80399,-2.32690,-2.34101,-0.37900,0.18033,1.81668,-0.79250,1.40847,-2.54422,A,150029.10
1.88971,57.68784596,11.98133779,57.68785700,11.98133083,15:00:29.282007,0.00319,1.30979,-0.01978,-0.04752,0.01344,0.00489,0.00500,-0.00573,-0.05758,0.92793,1.88593,0.80399,-2.32690,-2.34101,-0.37900,0.18033,1.81668,-0.79250,1.40847,-2.54422,A,150029.10
1.90008,57.68784596,11.98133779,57.68785700,11.98133083,15:00:29.292372,0.00315,1.30979,-0.01966,-0.04752,0.00611,-0.00290,0.00454,0.00695,-0.00256,0.90164,1.89629,0.80399,-2.32690,-2.34101,-0.37900,0.18033,1.81668,-0.79250,1.40847,-2.54422,A,150029.10
1.91052,57.68784596,11.98133779,57.68785700,11.98133083,15:00:29.302817,0.00301,1.30979,-0.01900,-0.04752,0.00352,-0.01130,0.01447,0.01013,0.03135,0.90231,1.90674,0.80399,-2.32690,-2.34101,-0.37900,0.18033,1.81668,-0.79250,1.40847,-2.54422,A,150029.10
1.93391,57.68784596,11.98133779,57.68785817,11.98133000,15:00:29.326220,0.01600,1.30979,-0.01804,-0.04752,0.00382,-0.02504,0.01691,0.02550,0.05533,0.98314,1.91729,0.80399,-2.32690,-2.34101,-0.37900,0.18033,1.93265,-0.84203,1.53820,-2.52664,A,150029.20
1.94562,57.68784600,11.98133638,57.68785817,11.98133000,15:00:29.337913,0.00526,1.30979,-0.01804,-0.04752,0.01298,-0.00641,0.01263,-0.04203,-0.02525,1.13753,1.93985,0.90515,-2.35814,-2.37226,-0.46311,0.18539,1.93265,-0.84203,1.53820,-2.52664,A,150029.20
1.95392,57.68784600,11.98133638,57.68785817,11.98133000,15:00:29.346224,0.00316,1.30979,-0.01870,-0.04752,0.01069,0.00275,0.00255,0.00323,-0.06045,1.10685,1.95014,0.90515,-2.35814,-2.37226,-0.46311,0.18539,1.93265,-0.84203,1.53820,-2.52664,A,150029.20
1.96465,57.68784600,11.98133638,57.68785817,11.98133000,15:00:29.356943,0.00318,1.30979,-0.01900,-0.04752,-0.00702,-0.01145,0.00179,0.05246,-0.02037,1.00699,1.96087,0.90515,-2.35814,-2.37226,-0.46311,0.18539,1.93265,-0.84203,1.53820,-2.52664,A,150029.20
1.97480,57.68784600,11.98133638,57.68785817,11.98133000,15:00:29.367450,0.00294,1.30979,-0.01884,-0.04752,-0.00366,-0.02794,-0.00585,-0.01397,0.00787,0.95953,1.97103,0.90515,-2.35814,-2.37226,-0.46311,0.18539,1.93265,-0.84203,1.53820,-2.52664,A,150029.20
1.98551,57.68784600,11.98133638,57.68785817,11.98133000,15:00:29.377813,0.00325,1.30979,-0.01831,-0.04752,-0.01130,-0.02993,-0.00890,-0.02123,0.03331,0.89164,1.98174,0.90515,-2.35814,-2.37226,-0.46311,0.18539,1.93265,-0.84203,1.53820,-2.52664,A,150029.20
1.99583,57.68784600,11.98133638,57.68785817,11.98133000,15:00:29.388129,0.00318,1.30979,-0.01750,-0.04752,-0.00122,-0.02458,-0.01058,-0.07698,0.04447,0.89658,1.99204,0.90515,-2.35814,-2.37226,-0.46311,0.18539,1.93265,-0.84203,1.53820,-2.52664,A,150029.20
2.00625,57.68784600,11.98133638,57.68785817,11.98133000,15:00:29.398551,0.00300,1.30979,-0.01761,-0.04752,0.00153,-0.00488,-0.01180,-0.00952,-0.01177,0.92921,2.00248,0.90515,-2.35814,-2.37226,-0.46311,0.18539,1.93265,-0.84203,1.53820,-2.52664,A,150029.20
2.01962,57.68784600,11.98133638,57.68785817,11.98133000,15:00:29.411981,0.00596,1.30979,-0.01817,-0.04752,-0.00290,0.00565,-0.01119,-0.04081,-0.03904,1.00839,2.01304,1.30979,2.08576,2.07165,-0.84203,1.53820,1.93265,-0.84203,1.53820,2.07165,A,150029.20
2.02729,57.68784600,11.98133638,57.68785817,11.98133000,15:00:29.419606,0.00324,1.30979,-0.01911,0.01035,-0.00931,0.01772,-0.00356,-0.05838,-0.05252,1.00839,2.02323,1.30979,2.08576,2.07165,-0.84203,1.53820,1.93265,-0.84203,1.53820,2.07165,A,150029.20
2.05378,57.68784600,11.98133638,57.68785917,11.98132883,15:00:29.446088,0.01933,1.30979,-0.01933,0.01035,-0.00778,0.02688,-0.00264,-0.00781,-0.00622,1.03200,2.03385,1.30979,2.08576,2.07165,-0.84203,1.53820,2.05170,-0.91137,1.64939,3.75960,A,150029.30
2.06968,57.68785942,11.98132871,57.68785917,11.98132883,15:00:29.461987,0.00737,1.30979,-0.01991,0.01035,-0.00137,-0.01328,0.00240,0.09028,-0.03263,0.99448,2.06391,1.30979,2.33047,2.33354,-0.91854,1.67719,2.05170,-0.91137,1.64939,3.75960,A,150029.30
2.07586,57.68785942,11.98132871,57.68785917,11.98132883,15:00:29.468163,0.00320,1.30979,-0.01994,0.01035,-0.00397,-0.03130,-0.00035,0.05758,0.00305,0.94623,2.07207,1.30979,2.33047,2.33354,-0.91854,1.67719,2.05170,-0.91137,1.64939,3.75960,A,150029.30
2.08618,57.68785942,11.98132871,57.68785917,11.98132883,15:00:29.478477,0.00297,1.30979,-0.02019,0.01035,-0.00198,-0.03817,0.00133,-0.03489,-0.01293,0.98686,2.08240,1.30979,2.33047,2.33354,-0.91854,1.67719,2.05170,-0.91137,1.64939,3.75960,A,150029.30
2.09675,57.68785942,11.98132871,57.68785917,11.98132883,15:00:29.489053,0.00315,1.30979,-0.02036,0.01035,-0.00610,-0.02489,-0.00753,-0.13542,-0.00445,1.04530,2.09298,1.30979,2.33047,2.33354,-0.91854,1.67719,2.05170,-0.91137,1.64939,3.75960,A,150029.30
2.10718,57.68785942,11.98132871,57.68785917,11.98132883,15:00:29.499490,0.00318,1.30979,-0.02059,0.01035,-0.00152,0.00718,-0.00493,-0.09272,-0.01287,1.05792,2.10319,1.30979,2.33047,2.33354,-0.91854,1.67719,2.05170,-0.91137,1.64939,3.75960,A,150029.30
2.11758,57.68785942,11.98132871,57.68785917,11.98132883,15:00:29.509876,0.00318,1.30979,-0.02094,0.01035,-0.00840,0.02673,-0.00294,-0.02873,-0.01659,1.06823,2.11381,1.30979,2.33047,2.33354,-0.91854,1.67719,2.05170,-0.91137,1.64939,3.75960,A,150029.30
2.12884,57.68785942,11.98132871,57.68785917,11.98132883,15:00:29.521140,0.00405,1.30979,-0.02169,0.01035,-0.00107,0.02138,-0.00096,0.07887,-0.04813,1.00211,2.12506,1.30979,2.33047,2.33354,-0.91854,1.67719,2.05170,-0.91137,1.64939,3.75960,A,150029.30
2.13832,57.68785942,11.98132871,57.68785917,11.98132883,15:00:29.530618,0.00299,1.30979,-0.02167,0.01035,-0.01176,-0.00061,0.00591,0.05972,0.00945,0.98045,2.13454,1.30979,2.33047,2.33354,-0.91854,1.67719,2.05170,-0.91137,1.64939,3.75960,A,150029.30
2.14889,57.68785942,11.98132871,57.68785917,11.98132883,15:00:29.541178,0.00317,1.30979,-0.02143,0.01035,-0.00397,-0.01160,0.00652,-0.01830,0.01934,0.98198,2.14511,1.30979,2.33047,2.33354,-0.91854,1.67719,2.05170,-0.91137,1.64939,3.75960,A,150029.30
2.18450,57.68785942,11.98132871,57.68786167,11.98132700,15:00:29.576809,0.02839,1.30979,-0.02134,0.01035,-0.00641,-0.01496,0.00637,-0.04929,0.01135,0.98411,2.15529,1.30979,2.33047,2.33354,-0.91854,1.67719,2.18238,-1.02034,1.92738,3.62242,A,150029.50
2.19881,57.68786056,11.98132679,57.68786167,11.98132700,15:00:29.591377,0.00741,1.30979,-0.02238,0.01035,-0.02535,0.01558,-0.00524,0.03160,-0.00458,0.94269,2.19303,1.30979,2.52514,2.52821,-1.03307,1.80422,2.18238,-1.02034,1.92738,3.62242,A,150029.50
2.20499,57.68786056,11.98132679,57.68786167,11.98132700,15:00:29.597288,0.00319,1.55562,-0.02267,0.01035,-0.03772,0.00764,-0.00707,-0.01519,0.00122,1.00095,2.20121,1.30979,2.52514,2.52821,-1.03307,1.80422,2.18238,-1.02034,1.92738,3.62242,A,150029.50
2.21539,57.68786056,11.98132679,57.68786167,11.98132700,15:00:29.607685,0.00319,1.55562,-0.02283,0.01035,-0.04123,0.01344,-0.00814,-0.09833,0.01897,1.05987,2.21138,1.30979,2.52514,2.52821,-1.03307,1.80422,2.18238,-1.02034,1.92738,3.62242,A,150029.50
2.22578,57.68786056,11.98132679,57.68786167,11.98132700,15:00:29.618071,0.00318,1.55562,-0.02374,0.01035,-0.04123,0.01940,-0.01211,-0.01379,-0.03361,1.05213,2.22200,1.30979,2.52514,2.52821,-1.03307,1.80422,2.18238,-1.02034,1.92738,3.62242,A,150029.50
2.23615,57.68786056,11.98132679,57.68786167,11.98132700,15:00:29.628446,0.00316,1.55562,-0.02428,0.01035,-0.04551,0.01879,-0.01027,0.01409,-0.00653,1.08153,2.23236,1.30979,2.52514,2.52821,-1.03307,1.80422,2.18238,-1.02034,1.92738,3.62242,A,150029.50
2.24748,57.68786056,11.98132679,57.68786167,11.98132700,15:00:29.639789,0.00413,1.55562,-0.02526,0.01035,-0.04642,0.00963,-0.00707,0.07107,-0.03367,1.03865,2.24347,1.30979,2.52514,2.52821,-1.03307,1.80422,2.18238,-1.02034,1.92738,3.62242,A,150029.50
2.25700,57.68786056,11.98132679,57.68786167,11.98132700,15:00:29.649299,0.00325,1.55562,-0.02591,0.01035,-0.05574,-0.00473,-0.00814,0.01165,-0.00909,0.97704,2.25322,1.30979,2.52514,2.52821,-1.03307,1.80422,2.18238,-1.02034,1.92738,3.62242,A,150029.50
2.26729,57.68786056,11.98132679,57.68786167,11.98132700,15:00:29.659607,0.00316,1.55562,-0.02676,0.01032,-0.05268,-0.00809,-0.00585,-0.05771,-0.02294,0.92592,2.26331,1.30979,2.52514,2.52821,-1.03307,1.80422,2.18238,-1.02034,1.92738,3.62242,A,150029.50
2.27770,57.68786056,11.98132679,57.68786167,11.98132700,15:00:29.669992,0.00317,1.55562,-0.02741,0.01027,-0.05894,0.00352,-0.00707,-0.05765,-0.00470,0.92263,2.27393,1.30979,2.52514,2.52821,-1.03307,1.80422,2.18238,-1.02034,1.92738,3.62242,A,150029.50
2.30740,57.68786056,11.98132679,57.68786267,11.98132550,15:00:29.699714,0.02247,1.55562,-0.02805,0.01015,-0.05467,0.01741,-0.00600,-0.06082,-0.00897,0.93855,2.28430,1.30979,2.52514,2.52821,-1.03307,1.80422,2.30512,-1.10949,2.03857,3.75028,A,150029.60
2.32177,57.68786144,11.98132465,57.68786267,11.98132550,15:00:29.714072,0.00728,1.55562,-0.02959,0.01001,-0.05497,0.01405,-0.00676,0.01092,0.00482,1.02144,2.31543,1.35896,2.70974,2.71271,-1.16011,1.90268,2.30512,-1.10949,2.03857,3.75028,A,150029.60
2.32804,57.68786144,11.98132465,57.68786267,11.98132550,15:00:29.720347,0.00315,1.55562,-0.02982,0.00998,-0.06215,0.00627,-0.00600,-0.03434,0.01446,1.06854,2.32426,1.35896,2.70974,2.71271,-1.16011,1.90268,2.30512,-1.10949,2.03857,3.75028,A,150029.60
2.33833,57.68786144,11.98132465,57.68786267,11.98132550,15:00:29.730624,0.00300,1.55562,-0.03017,0.00998,-0.05956,0.00672,-0.00508,-0.05197,0.01153,1.08629,2.33455,1.35896,2.70974,2.71271,-1.16011,1.90268,2.30512,-1.10949,2.03857,3.75028,A,150029.60
2.34891,57.68786144,11.98132465,57.68786267,11.98132550,15:00:29.741204,0.00318,1.55562,-0.03090,0.00998,-0.05421,0.00749,-0.01302,-0.02342,-0.02062,1.10245,2.34513,1.35896,2.70974,2.71271,-1.16011,1.90268,2.30512,-1.10949,2.03857,3.75028,A,150029.60
2.35927,57.68786144,11.98132465,57.68786267,11.98132550,15:00:29.751582,0.00315,1.55562,-0.03147,0.00998,-0.05177,0.00306,-0.01272,0.05228,-0.01128,1.04011,2.35529,1.35896,2.70974,2.71271,-1.16011,1.90268,2.30512,-1.10949,2.03857,3.75028,A,150029.60
2.36970,57.68786144,11.98132465,57.68786267,11.98132550,15:00:29.761996,0.00317,1.55562,-0.03249,0.00998,-0.03970,-0.00916,-0.01226,0.09089,-0.04740,0.97490,2.36592,1.35896,2.70974,2.71271,-1.16011,1.90268,2.30512,-1.10949,2.03857,3.75028,A,150029.60
2.38023,57.68786144,11.98132465,57.68786267,11.98132550,15:00:29.772530,0.00329,1.55562,-0.03379,0.00998,-0.02901,-0.01756,-0.01134,0.01940,-0.07088,0.92708,2.37642,1.35896,2.70974,2.71271,-1.16011,1.90268,2.30512,-1.10949,2.03857,3.75028,A,150029.60
2.39036,57.68786144,11.98132465,57.68786267,11.98132550,15:00:29.782662,0.00298,1.55562,-0.03497,0.00998,-0.02550,-0.00931,-0.01027,-0.08821,-0.06710,0.92781,2.38659,1.35896,2.70974,2.71271,-1.16011,1.90268,2.30512,-1.10949,2.03857,3.75028,A,150029.60
2.40093,57.68786144,11.98132465,57.68786267,11.98132550,15:00:29.793228,0.00315,1.55562,-0.03510,0.00998,-0.02183,0.00138,-0.00371,-0.09736,-0.00494,0.93940,2.39715,1.35896,2.70974,2.71271,-1.16011,1.90268,2.30512,-1.10949,2.03857,3.75028,A,150029.60
2.42530,57.68786144,11.98132465,57.68786383,11.98132467,15:00:29.817608,0.01712,1.55562,-0.03492,0.00998,-0.01237,0.00917,0.00255,-0.03794,0.00872,0.94111,2.40779,1.35896,2.70974,2.71271,-1.16011,1.90268,2.42328,-1.15903,2.16830,3.75655,A,150029.70
2.43957,57.68786212,11.98132237,57.68786383,11.98132467,15:00:29.831880,0.00738,1.55562,-0.03551,0.00998,0.01253,0.00336,0.01676,0.02599,-0.07082,0.98222,2.43312,1.39829,2.86753,2.87050,-1.29543,1.97786,2.42328,-1.15903,2.16830,3.75655,A,150029.70
2.44577,57.68786212,11.98132237,57.68786383,11.98132467,15:00:29.838063,0.00317,1.55562,-0.03627,0.00998,0.01482,-0.00351,0.01447,-0.00140,-0.07405,1.02687,2.44198,1.39829,2.86753,2.87050,-1.29543,1.97786,2.42328,-1.15903,2.16830,3.75655,A,150029.70
2.45615,57.68786212,11.98132237,57.68786383,11.98132467,15:00:29.848447,0.00316,1.55562,-0.03669,0.00998,0.01436,-0.01175,0.01385,-0.02989,-0.05185,1.02803,2.45236,1.39829,2.86753,2.87050,-1.29543,1.97786,2.42328,-1.15903,2.16830,3.75655,A,150029.70
2.46632,57.68786212,11.98132237,57.68786383,11.98132467,15:00:29.858612,0.00298,1.55562,-0.03604,0.00998,0.01360,-0.01420,0.00958,0.04740,0.02056,1.02187,2.46255,1.39829,2.86753,2.87050,-1.29543,1.97786,2.42328,-1.15903,2.16830,3.75655,A,150029.70
2.47705,57.68786212,11.98132237,57.68786383,11.98132467,15:00:29.869352,0.00331,1.55562,-0.03535,0.00998,0.01436,-0.01817,0.00347,-0.01366,0.02324,0.99680,2.47313,1.39829,2.86753,2.87050,-1.29543,1.97786,2.42328,-1.15903,2.16830,3.75655,A,150029.70
2.48738,57.68786212,11.98132237,57.68786383,11.98132467,15:00:29.879693,0.00324,1.55562,-0.03463,0.00998,0.01558,-0.00687,-0.00035,-0.03910,0.02562,1.02071,2.48332,1.39829,2.86753,2.87050,-1.29543,1.97786,2.42328,-1.15903,2.16830,3.75655,A,150029.70
2.49771,57.68786212,11.98132237,57.68786383,11.98132467,15:00:29.890011,0.00318,1.55562,-0.03507,0.00998,0.02642,0.01329,-0.00722,-0.01519,-0.05880,0.99168,2.49394,1.39829,2.86753,2.87050,-1.29543,1.97786,2.42328,-1.15903,2.16830,3.75655,A,150029.70
2.50809,57.68786212,11.98132237,57.68786383,11.98132467,15:00:29.900383,0.00315,1.55562,-0.03570,0.00998,0.02184,0.02352,-0.00508,-0.03404,-0.06631,0.97088,2.50431,1.39829,2.86753,2.87050,-1.29543,1.97786,2.42328,-1.15903,2.16830,3.75655,A,150029.70
2.51849,57.68786212,11.98132237,57.68786383,11.98132467,15:00:29.910779,0.00303,1.55562,-0.03672,0.00998,0.01360,0.02749,-0.00218,-0.07082,-0.08772,0.97478,2.51469,1.39829,2.86753,2.87050,-1.29543,1.97786,2.42328,-1.15903,2.16830,3.75655,A,150029.70
2.54254,57.68786212,11.98132237,57.68786467,11.98132300,15:00:29.934846,0.01669,1.55562,-0.03678,0.00998,0.00367,0.02536,-0.00982,0.03886,-0.02056,1.00992,2.52522,1.39829,2.86753,2.87050,-1.29543,1.97786,2.54055,-1.25809,2.26096,3.75791,A,150029.80
2.55726,57.68786262,11.98131991,57.68786467,11.98132300,15:00:29.949568,0.00758,1.55562,-0.03619,0.00998,0.02673,-0.02626,-0.00798,0.00500,-0.02098,1.06414,2.55112,1.42975,3.00190,3.00486,-1.44174,2.03320,2.54055,-1.25809,2.26096,3.75791,A,150029.80
2.56326,57.68786262,11.98131991,57.68786467,11.98132300,15:00:29.955571,0.00318,1.55562,-0.03678,0.00996,0.03375,-0.01970,-0.01409,-0.06259,-0.07357,1.04377,2.55925,1.42975,3.00190,3.00486,-1.44174,2.03320,2.54055,-1.25809,2.26096,3.75791,A,150029.80
2.57366,57.68786262,11.98131991,57.68786467,11.98132300,15:00:29.965957,0.00318,1.55562,-0.03827,0.00967,0.02215,-0.00794,-0.02326,-0.02147,-0.12840,0.99375,2.56988,1.42975,3.00190,3.00486,-1.44174,2.03320,2.54055,-1.25809,2.26096,3.75791,A,150029.80
2.58405,57.68786262,11.98131991,57.68786467,11.98132300,15:00:29.976352,0.00317,1.55562,-0.03844,0.00914,0.01253,0.00352,-0.02539,-0.04423,-0.03459,0.97264,2.58026,1.42975,3.00190,3.00486,-1.44174,2.03320,2.54055,-1.25809,2.26096,3.75791,A,150029.80
2.59433,57.68786262,11.98131991,57.68786467,11.98132300,15:00:29.986622,0.00299,1.55562,-0.03805,0.00840,0.00107,0.01360,-0.02356,0.01763,0.00939,0.91732,2.59054,1.42975,3.00190,3.00486,-1.44174,2.03320,2.54055,-1.25809,2.26096,3.75791,A,150029.80
2.60570,57.68786262,11.98131991,57.68786467,11.98132300,15:00:29.998001,0.00397,1.55562,-0.03714,0.00772,0.00810,0.01024,-0.01959,-0.05734,0.03623,0.92080,2.60191,1.42975,3.00190,3.00486,-1.44174,2.03320,2.54055,-1.25809,2.26096,3.75791,A,150029.80
2.61529,57.68786262,11.98131991,57.68786467,11.98132300,15:00:30.007598,0.00316,1.55562,-0.03670,0.00724,0.02108,0.01299,-0.01623,-0.05868,0.00152,1.00522,2.61131,1.42975,3.00190,3.00486,-1.44174,2.03320,2.54055,-1.25809,2.26096,3.75791,A,150029.80
2.62615,57.68786262,11.98131991,57.68786467,11.98132300,15:00:30.018455,0.00363,1.55562,-0.03684,0.00693,0.03864,0.00459,-0.01333,-0.05758,-0.05862,1.13448,2.62238,1.42975,3.00190,3.00486,-1.44174,2.03320,2.54055,-1.25809,2.26096,3.75791,A,150029.80
2.63609,57.68786262,11.98131991,57.68786467,11.98132300,15:00:30.028392,0.00317,1.71405,-0.03752,0.00687,0.03772,0.01604,-0.00844,-0.03819,-0.09418,1.11606,2.63230,1.42975,3.00190,3.00486,-1.44174,2.03320,2.54055,-1.25809,2.26096,3.75791,A,150029.80
2.65998,57.68786262,11.98131991,57.68786600,11.98132183,15:00:30.052279,0.01664,1.71405,-0.03793,0.00687,0.02963,0.03818,-0.01119,-0.00201,-0.06533,1.05707,2.64253,1.42975,3.00190,3.00486,-1.44174,2.03320,2.65786,-1.32743,2.40922,3.73430,A,150029.90
2.67910,57.68786298,11.98131737,57.68786600,11.98132183,15:00:30.071440,0.00900,1.71405,-0.03693,0.00687,0.01711,0.06583,-0.01073,0.01964,0.01464,0.68466,2.66970,1.48661,3.11274,3.11478,-1.59263,2.07355,2.65786,-1.32743,2.40922,3.73430,A,150029.90
2.68373,57.68786298,11.98131737,57.68786600,11.98132183,15:00:30.076031,0.00321,1.71405,-0.03593,0.00687,0.01757,0.05452,-0.00478,0.06509,0.02952,0.71297,2.67993,1.48661,3.11274,3.11478,-1.59263,2.07355,2.65786,-1.32743,2.40922,3.73430,A,150029.90
2.69408,57.68786298,11.98131737,57.68786600,11.98132183,15:00:30.086376,0.00297,1.71405,-0.03496,0.00687,0.02413,0.03039,-0.00539,0.01543,0.03251,0.92324,2.69031,1.48661,3.11274,3.11478,-1.59263,2.07355,2.65786,-1.32743,2.40922,3.73430,A,150029.90
2.70524,57.68786298,11.98131737,57.68786600,11.98132183,15:00:30.097542,0.00388,1.71405,-0.03496,0.00687,0.01848,-0.00290,-0.00905,-0.00744,-0.03251,1.27209,2.70143,1.48661,3.11274,3.11478,-1.59263,2.07355,2.65786,-1.32743,2.40922,3.73430,A,150029.90
2.71460,57.68786298,11.98131737,57.68786600,11.98132183,15:00:30.106890,0.00301,1.71405,-0.03443,0.00687,0.00611,-0.02290,-0.00966,-0.01342,0.02678,1.45552,2.71082,1.48661,3.11274,3.11478,-1.59263,2.07355,2.65786,-1.32743,2.40922,3.73430,A,150029.90
2.72515,57.68786298,11.98131737,57.68786600,11.98132183,15:00:30.117443,0.00316,1.71405,-0.03404,0.00687,0.01451,-0.02474,-0.02188,0.18611,0.00573,1.38677,2.72137,1.48661,3.11274,3.11478,-1.59263,2.07355,2.65786,-1.32743,2.40922,3.73430,A,150029.90
2.73556,57.68786298,11.98131737,57.68786600,11.98132183,15:00:30.127856,0.00317,1.71405,-0.03420,0.00687,0.00733,-0.05818,-0.02173,0.21692,-0.03367,1.23452,2.73156,1.48661,3.11274,3.11478,-1.59263,2.07355,2.65786,-1.32743,2.40922,3.73430,A,150029.90
2.74595,57.68786298,11.98131737,57.68786600,11.98132183,15:00:30.138257,0.00316,1.71405,-0.03529,0.00687,0.01466,-0.07895,-0.01929,-0.05435,-0.09400,0.99143,2.74218,1.48661,3.11274,3.11478,-1.59263,2.07355,2.65786,-1.32743,2.40922,3.73430,A,150029.90
2.75659,57.68786298,11.98131737,57.68786600,11.98132183,15:00:30.148885,0.00318,1.71405,-0.03766,0.00687,0.00657,-0.05864,-0.02096,-0.15945,-0.13316,0.75518,2.75281,1.48661,3.11274,3.11478,-1.59263,2.07355,2.65786,-1.32743,2.40922,3.73430,A,150029.90
2.79143,57.68786298,11.98131737,57.68786883,11.98131967,15:00:30.183739,0.02779,1.71405,-0.03737,0.00687,-0.00030,-0.03527,-0.01669,-0.12694,0.00396,0.71004,2.76287,1.48661,3.11274,3.11478,-1.59263,2.07355,2.78930,-1.45621,2.72428,3.58628,A,150030.10
2.80989,57.68786332,11.98131438,57.68786883,11.98131967,15:00:30.202884,0.00717,1.71405,-0.03584,0.00687,0.01680,-0.00534,0.01416,-0.01690,0.04843,1.16059,2.80408,1.53210,3.18450,3.18654,-1.77016,2.11103,2.78930,-1.45621,2.72428,3.58628,A,150030.10
2.81613,57.68786332,11.98131438,57.68786883,11.98131967,15:00:30.208422,0.00320,1.71405,-0.03577,0.00687,0.01146,-0.02764,0.01217,-0.03812,-0.01940,1.30918,2.81234,1.53210,3.18450,3.18654,-1.77016,2.11103,2.78930,-1.45621,2.72428,3.58628,A,150030.10
2.82633,57.68786332,11.98131438,57.68786883,11.98131967,15:00:30.218634,0.00300,1.71405,-0.03540,0.00687,0.00336,-0.04688,0.00668,-0.03324,0.01177,1.35164,2.82256,1.53210,3.18450,3.18654,-1.77016,2.11103,2.78930,-1.45621,2.72428,3.58628,A,150030.10
2.83688,57.68786332,11.98131438,57.68786883,11.98131967,15:00:30.229181,0.00315,1.71405,-0.03480,0.00687,-0.01023,-0.06093,-0.01226,0.03288,0.04227,1.22305,2.83311,1.53210,3.18450,3.18654,-1.77016,2.11103,2.78930,-1.45621,2.72428,3.58628,A,150030.10
2.84742,57.68786332,11.98131438,57.68786883,11.98131967,15:00:30.239733,0.00329,1.71405,-0.03447,0.00687,-0.01176,-0.09590,-0.02127,0.10321,0.01842,1.06006,2.84331,1.53210,3.18450,3.18654,-1.77016,2.11103,2.78930,-1.45621,2.72428,3.58628,A,150030.10
2.85770,57.68786332,11.98131438,57.68786883,11.98131967,15:00:30.249999,0.00317,1.71405,-0.03347,0.00687,-0.00870,-0.13881,-0.02677,0.05405,0.05844,0.94770,2.85392,1.53210,3.18450,3.18654,-1.77016,2.11103,2.78930,-1.45621,2.72428,3.58628,A,150030.10
2.86815,57.68786332,11.98131438,57.68786883,11.98131967,15:00:30.260451,0.00323,1.71405,-0.03429,0.00687,-0.00977,-0.15057,-0.02524,-0.03672,-0.04599,0.78330,2.86436,1.53210,3.18450,3.18654,-1.77016,2.11103,2.78930,-1.45621,2.72428,3.58628,A,150030.10
2.87847,57.68786332,11.98131438,57.68786883,11.98131967,15:00:30.270774,0.00314,1.71405,-0.03533,0.00687,-0.00702,-0.14263,-0.02494,-0.19727,-0.06021,0.79727,2.87467,1.53210,3.18450,3.18654,-1.77016,2.11103,2.78930,-1.45621,2.72428,3.58628,A,150030.10
2.88891,57.68786332,11.98131438,57.68786883,11.98131967,15:00:30.281208,0.00318,1.71405,-0.03620,0.00687,-0.00870,-0.09865,-0.02203,-0.26004,-0.05691,0.88755,2.88511,1.53210,3.18450,3.18654,-1.77016,2.11103,2.78930,-1.45621,2.72428,3.58628,A,150030.10
2.91345,57.68786332,11.98131438,57.68787050,11.98131833,15:00:30.305759,0.01733,1.71405,-0.03669,0.00687,-0.00229,-0.04749,-0.01593,-0.23644,-0.04557,1.01675,2.89531,1.53210,3.18450,3.18654,-1.77016,2.11103,2.91082,-1.53546,2.90960,3.70362,A,150030.20
2.92451,57.68786361,11.98131183,57.68787050,11.98131833,15:00:30.316812,0.00537,1.71405,-0.03703,0.00639,0.01360,-0.01924,-0.00722,0.08955,-0.05606,0.98100,2.91843,1.56849,3.26301,3.26490,-1.92198,2.14360,2.91082,-1.53546,2.90960,3.70362,A,150030.20
2.93274,57.68786361,11.98131183,57.68787050,11.98131833,15:00:30.325038,0.00320,1.71405,-0.03738,0.00548,-0.00198,-0.05207,-0.00951,0.02855,-0.03910,1.06091,2.92896,1.56849,3.26301,3.26490,-1.92198,2.14360,2.91082,-1.53546,2.90960,3.70362,A,150030.20
2.94310,57.68786361,11.98131183,57.68787050,11.98131833,15:00:30.335416,0.00317,1.71405,-0.03732,0.00404,-0.00778,-0.08307,-0.01608,-0.02934,-0.00653,1.04450,2.93911,1.56849,3.26301,3.26490,-1.92198,2.14360,2.91082,-1.53546,2.90960,3.70362,A,150030.20
2.95366,57.68786361,11.98131183,57.68787050,11.98131833,15:00:30.345950,0.00332,1.71405,-0.03676,0.00206,-0.00656,-0.10033,-0.03150,-0.18428,0.02794,1.07470,2.94989,1.56849,3.26301,3.26490,-1.92198,2.14360,2.91082,-1.53546,2.90960,3.70362,A,150030.20
2.96576,57.68786361,11.98131183,57.68787050,11.98131833,15:00:30.358065,0.00423,1.71405,-0.03745,-0.00009,-0.01466,-0.07803,-0.03975,-0.13993,-0.05222,1.05054,2.96194,1.56849,3.26301,3.26490,-1.92198,2.14360,2.91082,-1.53546,2.90960,3.70362,A,150030.20
2.97522,57.68786361,11.98131183,57.68787050,11.98131833,15:00:30.367526,0.00330,1.71405,-0.03724,-0.00190,-0.01450,-0.06185,-0.04555,-0.06844,0.00610,1.03114,2.97121,1.56849,3.26301,3.26490,-1.92198,2.14360,2.91082,-1.53546,2.90960,3.70362,A,150030.20
2.98551,57.68786361,11.98131183,57.68787050,11.98131833,15:00:30.377801,0.00319,1.71405,-0.03758,-0.00352,-0.01450,-0.02443,-0.04341,0.02775,-0.02690,0.89938,2.98173,1.56849,3.26301,3.26490,-1.92198,2.14360,2.91082,-1.53546,2.90960,3.70362,A,150030.20
2.99589,57.68786361,11.98131183,57.68787050,11.98131833,15:00:30.388187,0.00318,1.71405,-0.03777,-0.00476,-0.01023,-0.00763,-0.03120,-0.11468,-0.01946,0.82326,2.99209,1.56849,3.26301,3.26490,-1.92198,2.14360,2.91082,-1.53546,2.90960,3.70362,A,150030.20
3.00622,57.68786361,11.98131183,57.68787050,11.98131833,15:00:30.398517,0.00297,1.71405,-0.03916,-0.00570,-0.01511,0.01711,-0.02860,-0.18751,-0.08869,0.87395,3.00244,1.56849,3.26301,3.26490,-1.92198,2.14360,2.91082,-1.53546,2.90960,3.70362,A,150030.20
3.03110,57.68786361,11.98131183,57.68787200,11.98131733,15:00:30.423420,0.01744,1.71405,-0.03924,-0.00637,-0.02642,0.02261,-0.02478,-0.25815,-0.00732,1.08244,3.01306,1.56849,3.26301,3.26490,-1.92198,2.14360,3.02889,-1.59490,3.07639,3.72594,A,150030.30
3.04683,57.68786383,11.98130911,57.68787200,11.98131733,15:00:30.439464,0.00707,1.85417,-0.04044,-0.00748,-0.04383,-0.02397,-0.04540,0.20106,-0.02031,1.05695,3.04105,1.62563,3.33372,3.33150,-2.08381,2.16815,3.02889,-1.59490,3.07639,3.72594,A,150030.30
3.05334,57.68786383,11.98130911,57.68787200,11.98131733,15:00:30.445628,0.00318,1.85417,-0.04020,-0.00782,-0.04581,-0.05482,-0.05029,0.12523,0.02056,1.03798,3.04957,1.62563,3.33372,3.33150,-2.08381,2.16815,3.02889,-1.59490,3.07639,3.72594,A,150030.30
3.06395,57.68786383,11.98130911,57.68787200,11.98131733,15:00:30.456260,0.00339,1.85417,-0.04018,-0.00804,-0.04184,-0.08109,-0.05578,-0.13133,0.00848,0.98753,3.06014,1.62563,3.33372,3.33150,-2.08381,2.16815,3.02889,-1.59490,3.07639,3.72594,A,150030.30
3.07427,57.68786383,11.98130911,57.68787200,11.98131733,15:00:30.466564,0.00313,1.85417,-0.04067,-0.00810,-0.02855,-0.03344,-0.05166,-0.22155,-0.03331,0.94757,3.07034,1.62563,3.33372,3.33150,-2.08381,2.16815,3.02889,-1.59490,3.07639,3.72594,A,150030.30
3.08469,57.68786383,11.98130911,57.68787200,11.98131733,15:00:30.476992,0.00316,1.85417,-0.04163,-0.00810,-0.03420,0.02245,-0.04173,-0.29579,-0.05459,0.86998,3.08092,1.62563,3.33372,3.33150,-2.08381,2.16815,3.02889,-1.59490,3.07639,3.72594,A,150030.30
3.09508,57.68786383,11.98130911,57.68787200,11.98131733,15:00:30.487394,0.00294,1.85417,-0.04320,-0.00810,-0.03100,0.07652,-0.03181,-0.10632,-0.09229,0.85559,3.09111,1.62563,3.33372,3.33150,-2.08381,2.16815,3.02889,-1.59490,3.07639,3.72594,A,150030.30
3.10552,57.68786383,11.98130911,57.68787200,11.98131733,15:00:30.497816,0.00319,1.85417,-0.04618,-0.00810,-0.04474,0.09011,-0.02051,0.05417,-0.15372,0.78903,3.10174,1.62563,3.33372,3.33150,-2.08381,2.16815,3.02889,-1.59490,3.07639,3.72594,A,150030.30
3.11590,57.68786383,11.98130911,57.68787200,11.98131733,15:00:30.508195,0.00316,1.85417,-0.04531,-0.00810,-0.04795,0.06063,-0.01715,0.09485,0.05716,0.90823,3.11210,1.62563,3.33372,3.33150,-2.08381,2.16815,3.02889,-1.59490,3.07639,3.72594,A,150030.30
3.12624,57.68786383,11.98130911,57.68787200,11.98131733,15:00:30.518532,0.00296,1.85417,-0.04430,-0.00810,-0.03604,0.03116,-0.01134,0.07113,0.06942,1.06634,3.12247,1.62563,3.33372,3.33150,-2.08381,2.16815,3.02889,-1.59490,3.07639,3.72594,A,150030.30
3.15047,57.68786383,11.98130911,57.68787350,11.98131617,15:00:30.542772,0.01679,1.85417,-0.04355,-0.00810,-0.03985,-0.00152,-0.01913,-0.12877,0.06936,1.31296,3.13306,1.62563,3.33372,3.33150,-2.08381,2.16815,3.14848,-1.66424,3.24319,3.72132,A,150030.40
3.16856,57.68786401,11.98130646,57.68787350,11.98131617,15:00:30.560867,0.00761,1.85417,-0.04401,-0.00810,-0.04413,-0.04077,-0.05410,0.10797,0.02934,1.22945,3.16040,1.67134,3.39111,3.38870,-2.24106,2.18765,3.14848,-1.66424,3.24319,3.72132,A,150030.40
3.17432,57.68786401,11.98130646,57.68787350,11.98131617,15:00:30.566610,0.00298,1.85417,-0.04436,-0.00810,-0.02901,-0.06383,-0.04601,0.10663,-0.02891,0.97576,3.17054,1.67134,3.39111,3.38870,-2.24106,2.18765,3.14848,-1.66424,3.24319,3.72132,A,150030.40
3.18488,57.68786401,11.98130646,57.68787350,11.98131617,15:00:30.577172,0.00314,1.85417,-0.04500,-0.00810,-0.02351,-0.08139,-0.03700,-0.08546,-0.04227,0.79934,3.18110,1.67134,3.39111,3.38870,-2.24106,2.18765,3.14848,-1.66424,3.24319,3.72132,A,150030.40
3.19528,57.68786401,11.98130646,57.68787350,11.98131617,15:00:30.587590,0.00315,1.85417,-0.04459,-0.00810,-0.01557,-0.05788,-0.01318,-0.17611,0.00726,0.69607,3.19130,1.67134,3.39111,3.38870,-2.24106,2.18765,3.14848,-1.66424,3.24319,3.72132,A,150030.40
3.20585,57.68786401,11.98130646,57.68787350,11.98131617,15:00:30.598152,0.00332,1.85417,-0.04518,-0.00790,0.00489,-0.04215,0.00805,-0.28755,-0.05063,0.73115,3.20207,1.67134,3.39111,3.38870,-2.24106,2.18765,3.14848,-1.66424,3.24319,3.72132,A,150030.40
3.21610,57.68786401,11.98130646,57.68787350,11.98131617,15:00:30.608400,0.00316,1.85417,-0.04506,-0.00734,0.00596,-0.00397,0.02210,-0.20222,-0.01824,0.78806,3.21231,1.67134,3.39111,3.38870,-2.24106,2.18765,3.14848,-1.66424,3.24319,3.72132,A,150030.40
3.22633,57.68786401,11.98130646,57.68787350,11.98131617,15:00:30.618629,0.00299,1.85417,-0.04622,-0.00629,0.00840,0.02490,0.03142,-0.13396,-0.10419,0.95032,3.22254,1.67134,3.39111,3.38870,-2.24106,2.18765,3.14848,-1.66424,3.24319,3.72132,A,150030.40
3.23692,57.68786401,11.98130646,57.68787350,11.98131617,15:00:30.629210,0.00319,1.85417,-0.04572,-0.00496,0.01130,0.02581,0.02852,0.11938,-0.00116,1.06164,3.23314,1.67134,3.39111,3.38870,-2.24106,2.18765,3.14848,-1.66424,3.24319,3.72132,A,150030.40
3.24729,57.68786401,11.98130646,57.68787350,11.98131617,15:00:30.639603,0.00315,1.85417,-0.04545,-0.00369,0.01146,0.01329,0.01324,0.07655,-0.01696,1.09696,3.24330,1.67134,3.39111,3.38870,-2.24106,2.18765,3.14848,-1.66424,3.24319,3.72132,A,150030.40
3.27173,57.68786401,11.98130646,57.68787483,11.98131500,15:00:30.664041,0.01720,1.85417,-0.04523,-0.00253,0.00031,-0.00473,-0.00065,-0.09010,-0.01177,1.11026,3.25408,1.67134,3.39111,3.38870,-2.24106,2.18765,3.26938,-1.73358,3.39145,3.73430,A,150030.50
3.28921,57.68786414,11.98130384,57.68787483,11.98131500,15:00:30.681519,0.00607,1.85417,-0.04696,-0.00103,-0.04077,-0.11301,-0.02356,0.16421,-0.04880,0.76768,3.28247,1.70790,3.44139,3.44109,-2.39719,2.20205,3.26938,-1.73358,3.39145,3.73430,A,150030.50
3.29675,57.68786414,11.98130384,57.68787483,11.98131500,15:00:30.689047,0.00321,1.85417,-0.04681,-0.00097,-0.04047,-0.17180,-0.01654,-0.04282,0.01086,0.94019,3.29298,1.70790,3.44139,3.44109,-2.39719,2.20205,3.26938,-1.73358,3.39145,3.73430,A,150030.50
3.30710,57.68786414,11.98130384,57.68787483,11.98131500,15:00:30.699420,0.00315,1.85417,-0.04646,-0.00097,-0.03298,-0.15195,-0.02066,-0.26480,0.02294,1.20920,3.30312,1.70790,3.44139,3.44109,-2.39719,2.20205,3.26938,-1.73358,3.39145,3.73430,A,150030.50
3.31753,57.68786414,11.98130384,57.68787483,11.98131500,15:00:30.709831,0.00318,1.85417,-0.04655,-0.00097,-0.01847,-0.07101,-0.01593,-0.40833,-0.02641,1.40385,3.31376,1.70790,3.44139,3.44109,-2.39719,2.20205,3.26938,-1.73358,3.39145,3.73430,A,150030.50
3.32793,57.68786414,11.98130384,57.68787483,11.98131500,15:00:30.720224,0.00317,1.85417,-0.04754,-0.00097,-0.01084,0.03238,-0.01547,-0.18391,-0.10705,1.26727,3.32413,1.70790,3.44139,3.44109,-2.39719,2.20205,3.26938,-1.73358,3.39145,3.73430,A,150030.50
3.33844,57.68786414,11.98130384,57.68787483,11.98131500,15:00:30.730741,0.00302,1.85417,-0.04877,-0.00097,-0.02672,0.04689,-0.01012,0.09406,-0.09406,1.03743,3.33466,1.70790,3.44139,3.44109,-2.39719,2.20205,3.26938,-1.73358,3.39145,3.73430,A,150030.50
3.34907,57.68786414,11.98130384,57.68787483,11.98131500,15:00:30.741360,0.00324,1.85417,-0.04887,-0.00097,-0.04153,0.01146,-0.00172,0.08284,-0.00512,0.90481,3.34528,1.70790,3.44139,3.44109,-2.39719,2.20205,3.26938,-1.73358,3.39145,3.73430,A,150030.50
3.35941,57.68786414,11.98130384,57.68787483,11.98131500,15:00:30.751715,0.00319,1.85417,-0.04822,-0.00097,-0.03680,-0.03237,0.00469,-0.03514,0.03221,0.80331,3.35540,1.70790,3.44139,3.44109,-2.39719,2.20205,3.26938,-1.73358,3.39145,3.73430,A,150030.50
3.39441,57.68786414,11.98130384,57.68787800,11.98131333,15:00:30.786717,0.02779,1.85417,-0.04496,-0.00097,-0.03482,-0.04535,0.00561,-0.14036,0.19441,0.89267,3.36618,1.70790,3.44139,3.44109,-2.39719,2.20205,3.39242,-1.83265,3.74356,3.56783,A,150030.70
3.41022,57.68786432,11.98130120,57.68787800,11.98131333,15:00:30.802513,0.00633,1.85417,-0.04763,-0.00097,-0.02382,0.06109,-0.03242,0.00458,-0.13017,0.90591,3.40442,1.73716,3.46024,3.45995,-2.55370,2.22208,3.39242,-1.83265,3.74356,3.56783,A,150030.70
3.41760,57.68786432,11.98130120,57.68787800,11.98131333,15:00:30.809903,0.00331,1.85417,-0.04829,-0.00097,-0.02810,0.07132,-0.02646,-0.13817,-0.05331,0.99186,3.41382,1.73716,3.46024,3.45995,-2.55370,2.22208,3.39242,-1.83265,3.74356,3.56783,A,150030.70
3.42787,57.68786432,11.98130120,57.68787800,11.98131333,15:00:30.820169,0.00318,1.83347,-0.04826,-0.00097,-0.03268,0.08094,-0.01898,-0.19233,-0.00348,1.06817,3.42408,1.73716,3.46024,3.45995,-2.55370,2.22208,3.39242,-1.83265,3.74356,3.56783,A,150030.70
3.43821,57.68786432,11.98130120,57.68787800,11.98131333,15:00:30.830508,0.00298,1.83347,-0.04742,-0.00097,-0.01954,0.09622,-0.01455,-0.12670,0.05234,1.24416,3.43443,1.73716,3.46024,3.45995,-2.55370,2.22208,3.39242,-1.83265,3.74356,3.56783,A,150030.70
3.44879,57.68786432,11.98130120,57.68787800,11.98131333,15:00:30.841082,0.00316,1.83347,-0.04639,-0.00097,-0.00809,0.09026,-0.00737,0.05313,0.06149,1.29076,3.44501,1.73716,3.46024,3.45995,-2.55370,2.22208,3.39242,-1.83265,3.74356,3.56783,A,150030.70
3.45917,57.68786432,11.98130120,57.68787800,11.98131333,15:00:30.851482,0.00316,1.83347,-0.04604,-0.00097,-0.00855,0.06124,0.00072,0.20886,0.00470,1.30357,3.45519,1.73716,3.46024,3.45995,-2.55370,2.22208,3.39242,-1.83265,3.74356,3.56783,A,150030.70
3.46977,57.68786432,11.98130120,57.68787800,11.98131333,15:00:30.862066,0.00336,1.83347,-0.04656,-0.00097,-0.00045,0.01237,0.00546,0.05441,-0.07332,1.21884,3.46599,1.73716,3.46024,3.45995,-2.55370,2.22208,3.39242,-1.83265,3.74356,3.56783,A,150030.70
3.48011,57.68786432,11.98130120,57.68787800,11.98131333,15:00:30.872409,0.00319,1.83347,-0.04733,-0.00097,-0.01374,0.00550,-0.00768,-0.13505,-0.07131,1.05518,3.47632,1.73716,3.46024,3.45995,-2.55370,2.22208,3.39242,-1.83265,3.74356,3.56783,A,150030.70
3.49046,57.68786432,11.98130120,57.68787800,11.98131333,15:00:30.882759,0.00300,1.83347,-0.04802,-0.00097,-0.01618,0.02917,-0.01455,-0.19184,-0.05069,0.81630,3.48669,1.73716,3.46024,3.45995,-2.55370,2.22208,3.39242,-1.83265,3.74356,3.56783,A,150030.70
3.51477,57.68786432,11.98130120,57.68787917,11.98131167,15:00:30.907312,0.01692,1.83347,-0.04949,-0.00097,-0.01130,0.04765,-0.01883,-0.23198,-0.09235,0.78287,3.49725,1.73716,3.46024,3.45995,-2.55370,2.22208,3.51276,-1.93171,3.87329,3.73330,A,150030.80
3.52900,57.68786452,11.98129866,57.68787917,11.98131167,15:00:30.921296,0.00736,1.83347,-0.04999,-0.00097,-0.00672,0.10187,-0.02035,0.03129,-0.04191,0.82265,3.52252,1.75642,3.50109,3.50080,-2.70482,2.24459,3.51276,-1.93171,3.87329,3.73330,A,150030.80
3.53521,57.68786452,11.98129866,57.68787917,11.98131167,15:00:30.927526,0.00318,1.83347,-0.04933,-0.00097,-0.00946,0.08522,-0.02051,0.06295,0.01861,0.91122,3.53122,1.75642,3.50109,3.50080,-2.70482,2.24459,3.51276,-1.93171,3.87329,3.73330,A,150030.80
3.54563,57.68786452,11.98129866,57.68787917,11.98131167,15:00:30.937923,0.00319,1.83347,-0.04962,-0.00097,-0.00351,0.04276,-0.01440,0.03709,-0.04819,1.05621,3.54185,1.75642,3.50109,3.50080,-2.70482,2.24459,3.51276,-1.93171,3.87329,3.73330,A,150030.80
3.55598,57.68786452,11.98129866,57.68787917,11.98131167,15:00:30.948286,0.00315,1.83347,-0.05046,-0.00097,-0.01267,0.00840,-0.00890,-0.07857,-0.08693,1.14137,3.55219,1.75642,3.50109,3.50080,-2.70482,2.24459,3.51276,-1.93171,3.87329,3.73330,A,150030.80
3.56659,57.68786452,11.98129866,57.68787917,11.98131167,15:00:30.958891,0.00326,1.83347,-0.05124,-0.00097,-0.03008,0.00642,-0.01822,-0.09235,-0.07308,1.20237,3.56281,1.75642,3.50109,3.50080,-2.70482,2.24459,3.51276,-1.93171,3.87329,3.73330,A,150030.80
3.57788,57.68786452,11.98129866,57.68787917,11.98131167,15:00:30.970180,0.00415,1.83347,-0.05044,-0.00097,-0.04108,0.02688,-0.02494,-0.04581,0.06015,1.13436,3.57407,1.75642,3.50109,3.50080,-2.70482,2.24459,3.51276,-1.93171,3.87329,3.73330,A,150030.80
3.58729,57.68786452,11.98129866,57.68787917,11.98131167,15:00:30.979597,0.00316,1.83347,-0.04888,-0.00097,-0.02183,0.04399,-0.02432,0.04612,0.08778,1.00107,3.58330,1.75642,3.50109,3.50080,-2.70482,2.24459,3.51276,-1.93171,3.87329,3.73330,A,150030.80
3.59767,57.68786452,11.98129866,57.68787917,11.98131167,15:00:30.989964,0.00315,1.83347,-0.04776,-0.00097,0.00947,0.04979,-0.01730,0.00762,0.03349,0.83363,3.59390,1.75642,3.50109,3.50080,-2.70482,2.24459,3.51276,-1.93171,3.87329,3.73330,A,150030.80
3.60808,57.68786452,11.98129866,57.68787917,11.98131167,15:00:31.000379,0.00316,1.83347,-0.04929,-0.00097,0.01237,0.04933,-0.01455,-0.00030,-0.09516,0.68503,3.60430,1.75642,3.50109,3.50080,-2.70482,2.24459,3.51276,-1.93171,3.87329,3.73330,A,150030.80
3.63325,57.68786452,11.98129866,57.68788067,11.98131017,15:00:31.025555,0.01790,1.83347,-0.05089,-0.00097,0.01757,0.02184,-0.00951,0.06527,-0.10547,0.71352,3.61456,1.75642,3.50109,3.50080,-2.70482,2.24459,3.63121,-2.02086,4.04008,3.71228,A,150030.90
3.64590,57.68786472,11.98129621,57.68788067,11.98131017,15:00:31.038199,0.00711,1.83347,-0.04956,-0.00054,0.02581,-0.06414,0.00881,-0.02519,0.01659,1.09788,3.64009,1.77183,3.53264,3.53248,-2.85036,2.26687,3.63121,-2.02086,4.04008,3.71228,A,150030.90
3.65236,57.68786472,11.98129621,57.68788067,11.98131017,15:00:31.044664,0.00318,1.83347,-0.04991,0.00025,0.04780,-0.04688,0.00836,0.07351,-0.09302,1.18987,3.64859,1.77183,3.53264,3.53248,-2.85036,2.26687,3.63121,-2.02086,4.04008,3.71228,A,150030.90
3.66243,57.68786472,11.98129621,57.68788067,11.98131017,15:00:31.054728,0.00302,1.83347,-0.05043,0.00166,0.04276,-0.04566,0.01553,0.00189,-0.10931,1.19103,3.65865,1.77183,3.53264,3.53248,-2.85036,2.26687,3.63121,-2.02086,4.04008,3.71228,A,150030.90
3.67298,57.68786472,11.98129621,57.68788067,11.98131017,15:00:31.065269,0.00317,1.83347,-0.05097,0.00364,0.04780,-0.01481,0.01844,0.05087,-0.10779,1.10007,3.66921,1.77183,3.53264,3.53248,-2.85036,2.26687,3.63121,-2.02086,4.04008,3.71228,A,150030.90
3.68404,57.68786472,11.98129621,57.68788067,11.98131017,15:00:31.076351,0.00384,1.83347,-0.05144,0.00580,0.04276,0.00917,0.02897,-0.13469,-0.08717,0.95990,3.68022,1.77183,3.53264,3.53248,-2.85036,2.26687,3.63121,-2.02086,4.04008,3.71228,A,150030.90
3.69440,57.68786472,11.98129621,57.68788067,11.98131017,15:00:31.086714,0.00381,1.83347,-0.05035,0.00800,0.03681,0.03177,0.02745,-0.10590,0.01623,0.80276,3.69061,1.77183,3.53264,3.53248,-2.85036,2.26687,3.63121,-2.02086,4.04008,3.71228,A,150030.90
3.70417,57.68786472,11.98129621,57.68788067,11.98131017,15:00:31.096465,0.00317,1.83347,-0.04856,0.00990,0.04964,0.03177,0.02653,0.01196,0.04746,0.76616,3.70038,1.77183,3.53264,3.53248,-2.85036,2.26687,3.63121,-2.02086,4.04008,3.71228,A,150030.90
3.71458,57.68786472,11.98129621,57.68788067,11.98131017,15:00:31.106884,0.00324,1.83347,-0.04666,0.01146,0.05529,0.00046,0.02118,0.08845,0.05020,0.76366,3.71081,1.77183,3.53264,3.53248,-2.85036,2.26687,3.63121,-2.02086,4.04008,3.71228,A,150030.90
3.72490,57.68786472,11.98129621,57.68788067,11.98131017,15:00:31.117191,0.00316,1.83347,-0.04567,0.01267,0.06216,-0.02855,0.02943,0.07308,0.00244,0.84735,3.72113,1.77183,3.53264,3.53248,-2.85036,2.26687,3.63121,-2.02086,4.04008,3.71228,A,150030.90
3.75313,57.68786472,11.98129621,57.68788200,11.98130950,15:00:31.145448,0.02116,1.83347,-0.04521,0.01352,0.05911,-0.06047,0.03462,0.17867,-0.02940,0.93476,3.73192,1.77183,3.53264,3.53248,-2.85036,2.26687,3.75107,-2.06049,4.18834,3.74849,A,150031.00
3.76579,57.68786491,11.98129383,57.68788200,11.98130950,15:00:31.158102,0.00711,1.83347,-0.04400,0.01429,0.04567,-0.08628,0.02653,-0.25095,-0.02501,1.29113,3.75818,1.78416,3.56430,3.56854,-2.99176,2.28840,3.75107,-2.06049,4.18834,3.74849,A,150031.00
3.77243,57.68786491,11.98129383,57.68788200,11.98130950,15:00:31.164728,0.00336,1.83347,-0.04320,0.01429,0.04185,-0.00687,0.01950,-0.35667,0.00665,1.43582,3.76865,1.78416,3.56430,3.56854,-2.99176,2.28840,3.75107,-2.06049,4.18834,3.74849,A,150031.00
3.78325,57.68786491,11.98129383,57.68788200,11.98130950,15:00:31.175568,0.00381,1.83347,-0.04281,0.01429,0.03757,0.06430,0.01492,-0.04325,-0.02330,1.24196,3.77924,1.78416,3.56430,3.56854,-2.99176,2.28840,3.75107,-2.06049,4.18834,3.74849,A,150031.00
3.79299,57.68786491,11.98129383,57.68788200,11.98130950,15:00:31.185282,0.00315,1.83347,-0.04292,0.01429,0.02887,0.06873,0.02225,0.20935,-0.04703,1.06445,3.78922,1.78416,3.56430,3.56854,-2.99176,2.28840,3.75107,-2.06049,4.18834,3.74849,A,150031.00
3.80400,57.68786491,11.98129383,57.68788200,11.98130950,15:00:31.196308,0.00377,1.83347,-0.04223,0.01429,0.01436,0.00993,0.02210,0.17916,0.01690,0.87230,3.79985,1.78416,3.56430,3.56854,-2.99176,2.28840,3.75107,-2.06049,4.18834,3.74849,A,150031.00
3.81412,57.68786491,11.98129383,57.68788200,11.98130950,15:00:31.206430,0.00343,1.83347,-0.04088,0.01429,0.00275,-0.02993,0.03157,-0.14622,0.06301,0.87724,3.81031,1.78416,3.56430,3.56854,-2.99176,2.28840,3.75107,-2.06049,4.18834,3.74849,A,150031.00
3.82415,57.68786491,11.98129383,57.68788200,11.98130950,15:00:31.216447,0.00306,1.83347,-0.03998,0.01429,0.01802,-0.03084,0.02775,-0.22198,0.02885,0.87419,3.82036,1.78416,3.56430,3.56854,-2.99176,2.28840,3.75107,-2.06049,4.18834,3.74849,A,150031.00
3.83434,57.68786491,11.98129383,57.68788200,11.98130950,15:00:31.226639,0.00299,1.83347,-0.03851,0.01429,0.00978,0.00153,0.01462,-0.26462,0.07735,1.01229,3.83056,1.78416,3.56430,3.56854,-2.99176,2.28840,3.75107,-2.06049,4.18834,3.74849,A,150031.00
3.84490,57.68786491,11.98129383,57.68788200,11.98130950,15:00:31.237203,0.00315,1.75272,-0.03838,0.01429,0.01207,0.03879,0.01202,0.04038,-0.01336,1.00870,3.84112,1.78416,3.56430,3.56854,-2.99176,2.28840,3.75107,-2.06049,4.18834,3.74849,A,150031.00
3.86873,57.68786491,11.98129383,57.68788350,11.98130817,15:00:31.261039,0.01658,1.75272,-0.03809,0.01429,-0.00672,0.02978,0.00179,0.10291,0.01006,0.99863,3.85131,1.78416,3.56430,3.56854,-2.99176,2.28840,3.86662,-2.13974,4.35513,3.71677,A,150031.10
3.88515,57.68786511,11.98129156,57.68788350,11.98130817,15:00:31.277455,0.00773,1.75272,-0.03943,0.01429,-0.03604,-0.05467,0.01462,-0.04477,-0.03410,0.83716,3.87711,1.77787,3.58881,3.59305,-3.12707,2.31080,3.86662,-2.13974,4.35513,3.71677,A,150031.10
3.89066,57.68786511,11.98129156,57.68788350,11.98130817,15:00:31.283165,0.00300,1.75272,-0.03962,0.01429,-0.03466,-0.07070,0.01615,-0.17660,-0.00323,0.83113,3.88687,1.77787,3.58881,3.59305,-3.12707,2.31080,3.86662,-2.13974,4.35513,3.71677,A,150031.10
3.90121,57.68786511,11.98129156,57.68788350,11.98130817,15:00:31.293507,0.00316,1.75272,-0.03913,0.01429,-0.03527,-0.05910,0.02149,-0.33959,0.04075,0.96813,3.89744,1.77787,3.58881,3.59305,-3.12707,2.31080,3.86662,-2.13974,4.35513,3.71677,A,150031.10
3.91161,57.68786511,11.98129156,57.68788350,11.98130817,15:00:31.303912,0.00316,1.75272,-0.03906,0.01429,-0.01573,0.01161,0.01798,-0.12596,0.00146,1.11941,3.90781,1.77787,3.58881,3.59305,-3.12707,2.31080,3.86662,-2.13974,4.35513,3.71677,A,150031.10
3.92218,57.68786511,11.98129156,57.68788350,11.98130817,15:00:31.314479,0.00333,1.75272,-0.03993,0.01429,-0.01130,0.04490,0.01889,0.03934,-0.07540,1.15144,3.91840,1.77787,3.58881,3.59305,-3.12707,2.31080,3.86662,-2.13974,4.35513,3.71677,A,150031.10
3.93321,57.68786511,11.98129156,57.68788350,11.98130817,15:00:31.325516,0.00395,1.75272,-0.04082,0.01429,-0.02672,0.05086,0.02516,0.00384,-0.06179,1.11496,3.92942,1.77787,3.58881,3.59305,-3.12707,2.31080,3.86662,-2.13974,4.35513,3.71677,A,150031.10
3.94248,57.68786511,11.98129156,57.68788350,11.98130817,15:00:31.334769,0.00299,1.75272,-0.04178,0.01429,-0.04871,0.07056,0.02806,-0.20850,-0.05819,1.15296,3.93870,1.77787,3.58881,3.59305,-3.12707,2.31080,3.86662,-2.13974,4.35513,3.71677,A,150031.10
3.95346,57.68786511,11.98129156,57.68788350,11.98130817,15:00:31.345760,0.00373,1.75272,-0.04263,0.01429,-0.05803,0.10568,0.02867,-0.26291,-0.03703,1.14869,3.94966,1.77787,3.58881,3.59305,-3.12707,2.31080,3.86662,-2.13974,4.35513,3.71677,A,150031.10
3.96330,57.68786511,11.98129156,57.68788350,11.98130817,15:00:31.355600,0.00317,1.75272,-0.04281,0.01429,-0.06521,0.09683,0.02393,-0.00476,0.01116,1.01236,3.95932,1.77787,3.58881,3.59305,-3.12707,2.31080,3.86662,-2.13974,4.35513,3.71677,A,150031.10
3.99828,57.68786511,11.98129156,57.68788617,11.98130567,15:00:31.390585,0.02775,1.75272,-0.04222,0.01429,-0.08124,0.02948,0.02561,0.32171,0.07082,0.90195,3.96991,1.77787,3.58881,3.59305,-3.12707,2.31080,3.99627,-2.28833,4.65165,3.59319,A,150031.30
4.01171,57.68786534,11.98128908,57.68788617,11.98130567,15:00:31.404022,0.00730,1.75272,-0.04457,0.01429,-0.03955,-0.03726,-0.00966,-0.32903,-0.07997,0.98393,4.00564,1.77284,3.59129,3.59553,-3.27429,2.33613,3.99627,-2.28833,4.65165,3.59319,A,150031.30
4.01786,57.68786534,11.98128908,57.68788617,11.98130567,15:00:31.410161,0.00322,1.75272,-0.04669,0.01429,-0.05940,0.01146,-0.02280,-0.17385,-0.12700,0.98832,4.01409,1.77284,3.59129,3.59553,-3.27429,2.33613,3.99627,-2.28833,4.65165,3.59319,A,150031.30
4.02815,57.68786534,11.98128908,57.68788617,11.98130567,15:00:31.420453,0.00311,1.75272,-0.04874,0.01429,-0.06979,0.04338,-0.02158,0.00354,-0.09974,0.89359,4.02437,1.77284,3.59129,3.59553,-3.27429,2.33613,3.99627,-2.28833,4.65165,3.59319,A,150031.30
4.03837,57.68786534,11.98128908,57.68788617,11.98130567,15:00:31.430665,0.00298,1.75272,-0.05046,0.01429,-0.09300,0.02887,-0.00982,0.11492,-0.06417,0.84448,4.03460,1.77284,3.59129,3.59553,-3.27429,2.33613,3.99627,-2.28833,4.65165,3.59319,A,150031.30
4.04895,57.68786534,11.98128908,57.68788617,11.98130567,15:00:31.441239,0.00315,1.75272,-0.05032,0.01429,-0.07299,0.00779,0.00255,0.04551,0.03190,0.91036,4.04518,1.77284,3.59129,3.59553,-3.27429,2.33613,3.99627,-2.28833,4.65165,3.59319,A,150031.30
4.05937,57.68786534,11.98128908,57.68788617,11.98130567,15:00:31.451663,0.00318,1.75272,-0.05005,0.01429,-0.07498,-0.03054,0.01508,0.05270,0.03886,0.90371,4.05536,1.77284,3.59129,3.59553,-3.27429,2.33613,3.99627,-2.28833,4.65165,3.59319,A,150031.30
4.06993,57.68786534,11.98128908,57.68788617,11.98130567,15:00:31.462230,0.00333,1.75272,-0.04904,0.01429,-0.05589,-0.06704,0.02470,-0.04410,0.08339,1.02895,4.06597,1.77284,3.59129,3.59553,-3.27429,2.33613,3.99627,-2.28833,4.65165,3.59319,A,150031.30
4.08030,57.68786534,11.98128908,57.68788617,11.98130567,15:00:31.472600,0.00331,1.75272,-0.05001,0.01429,-0.04551,-0.07299,0.03233,-0.00579,-0.06539,1.13564,4.07652,1.77284,3.59129,3.59553,-3.27429,2.33613,3.99627,-2.28833,4.65165,3.59319,A,150031.30
4.09034,57.68786534,11.98128908,57.68788617,11.98130567,15:00:31.482639,0.00298,1.75272,-0.05071,0.01429,-0.05406,-0.07223,0.03432,-0.04654,-0.04502,1.21561,4.08656,1.77284,3.59129,3.59553,-3.27429,2.33613,3.99627,-2.28833,4.65165,3.59319,A,150031.30
4.11631,57.68786534,11.98128908,57.68788767,11.98130433,15:00:31.508620,0.01767,1.75272,-0.05233,0.01429,-0.04352,-0.03680,0.02271,-0.06338,-0.12621,1.25751,4.09857,1.77284,3.59129,3.59553,-3.27429,2.33613,4.11388,-2.36758,4.81845,3.71677,A,150031.40
4.13277,57.68786567,11.98128681,57.68788767,11.98130433,15:00:31.525068,0.00748,1.75272,-0.05256,0.01553,-0.02596,0.00291,0.02332,-0.00335,0.00549,0.94038,4.12672,1.76881,3.61176,3.61637,-3.40905,2.37237,4.11388,-2.36758,4.81845,3.71677,A,150031.40
4.13852,57.68786567,11.98128681,57.68788767,11.98130433,15:00:31.530820,0.00301,1.75272,-0.05389,0.01644,-0.03039,-0.01741,0.02684,-0.03410,-0.07936,0.80014,4.13475,1.76881,3.61176,3.61637,-3.40905,2.37237,4.11388,-2.36758,4.81845,3.71677,A,150031.40
4.14909,57.68786567,11.98128681,57.68788767,11.98130433,15:00:31.541390,0.00317,1.75272,-0.05431,0.01794,-0.02687,-0.03466,0.02057,0.00006,-0.02599,0.73145,4.14532,1.76881,3.61176,3.61637,-3.40905,2.37237,4.11388,-2.36758,4.81845,3.71677,A,150031.40
4.15947,57.68786567,11.98128681,57.68788767,11.98130433,15:00:31.551769,0.00316,1.75272,-0.05517,0.01961,-0.03741,-0.05009,0.02042,0.07692,-0.03782,0.65532,4.15548,1.76881,3.61176,3.61637,-3.40905,2.37237,4.11388,-2.36758,4.81845,3.71677,A,150031.40
4.16987,57.68786567,11.98128681,57.68788767,11.98130433,15:00:31.562165,0.00315,1.75272,-0.05479,0.02136,-0.02581,-0.07040,0.02684,-0.11511,0.01318,0.81331,4.16610,1.76881,3.61176,3.61637,-3.40905,2.37237,4.11388,-2.36758,4.81845,3.71677,A,150031.40
4.18031,57.68786567,11.98128681,57.68788767,11.98130433,15:00:31.572612,0.00319,1.75272,-0.05498,0.02295,-0.00504,-0.03161,0.02485,-0.28017,-0.03849,1.04035,4.17636,1.76881,3.61176,3.61637,-3.40905,2.37237,4.11388,-2.36758,4.81845,3.71677,A,150031.40
4.19035,57.68786567,11.98128681,57.68788767,11.98130433,15:00:31.582643,0.00298,1.75272,-0.05463,0.02442,-0.00626,0.04643,0.02974,-0.37411,-0.00250,1.31339,4.18658,1.76881,3.61176,3.61637,-3.40905,2.37237,4.11388,-2.36758,4.81845,3.71677,A,150031.40
4.20092,57.68786567,11.98128681,57.68788767,11.98130433,15:00:31.593206,0.00315,1.75272,-0.05434,0.02578,0.00016,0.11424,0.04180,0.09022,-0.00994,1.19798,4.19715,1.76881,3.61176,3.61637,-3.40905,2.37237,4.11388,-2.36758,4.81845,3.71677,A,150031.40
4.21133,57.68786567,11.98128681,57.68788767,11.98130433,15:00:31.603637,0.00317,1.75272,-0.05503,0.02688,-0.00565,0.05116,0.04944,0.37405,-0.07302,1.06427,4.20733,1.76881,3.61176,3.61637,-3.40905,2.37237,4.11388,-2.36758,4.81845,3.71677,A,150031.40
4.23594,57.68786567,11.98128681,57.68788900,11.98130300,15:00:31.628245,0.01737,1.75272,-0.05504,0.02779,-0.01725,-0.05222,0.06120,0.16848,-0.01592,1.03114,4.21795,1.76881,3.61176,3.61637,-3.40905,2.37237,4.23379,-2.44683,4.96671,3.72970,A,150031.50
4.24681,57.68786606,11.98128480,57.68788900,11.98130300,15:00:31.639371,0.00530,1.75272,-0.05247,0.02881,0.01100,-0.04627,0.04333,-0.48745,0.14945,1.16998,4.24104,1.76559,3.63056,3.63911,-3.52865,2.41589,4.23379,-2.44683,4.96671,3.72970,A,150031.50
4.25485,57.68786606,11.98128480,57.68788900,11.98130300,15:00:31.647386,0.00295,1.77489,-0.05245,0.02900,0.03772,0.02597,0.04058,-0.17147,-0.05240,1.09495,4.25108,1.76559,3.63056,3.63911,-3.52865,2.41589,4.23379,-2.44683,4.96671,3.72970,A,150031.50
4.26548,57.68786606,11.98128480,57.68788900,11.98130300,15:00:31.657771,0.00318,1.77489,-0.05475,0.02923,0.03650,0.06598,0.03768,0.07454,-0.19178,0.93635,4.26170,1.76559,3.63056,3.63911,-3.52865,2.41589,4.23379,-2.44683,4.96671,3.72970,A,150031.50
4.27586,57.68786606,11.98128480,57.68788900,11.98130300,15:00:31.668172,0.00317,1.77489,-0.05867,0.02951,0.00550,0.04826,0.04195,0.06557,-0.22967,0.77360,4.27208,1.76559,3.63056,3.63911,-3.52865,2.41589,4.23379,-2.44683,4.96671,3.72970,A,150031.50
4.28622,57.68786606,11.98128480,57.68788900,11.98130300,15:00:31.678518,0.00299,1.77489,-0.06050,0.02985,-0.02229,0.03162,0.04470,-0.15104,-0.09534,0.70992,4.28245,1.76559,3.63056,3.63911,-3.52865,2.41589,4.23379,-2.44683,4.96671,3.72970,A,150031.50
4.29723,57.68786606,11.98128480,57.68788900,11.98130300,15:00:31.689530,0.00330,1.77489,-0.05940,0.03016,-0.01939,0.00168,0.04791,-0.09595,0.04075,0.67619,4.29344,1.76559,3.63056,3.63911,-3.52865,2.41589,4.23379,-2.44683,4.96671,3.72970,A,150031.50
4.30814,57.68786606,11.98128480,57.68788900,11.98130300,15:00:31.700442,0.00381,1.77489,-0.05775,0.03028,-0.01099,-0.02290,0.03966,-0.13310,0.07668,0.85906,4.30434,1.76559,3.63056,3.63911,-3.52865,2.41589,4.23379,-2.44683,4.96671,3.72970,A,150031.50
4.31810,57.68786606,11.98128480,57.68788900,11.98130300,15:00:31.710401,0.00337,1.77489,-0.05600,0.03028,0.01314,-0.03970,0.04134,-0.13280,0.08241,1.03188,4.31432,1.76559,3.63056,3.63911,-3.52865,2.41589,4.23379,-2.44683,4.96671,3.72970,A,150031.50
4.32887,57.68786606,11.98128480,57.68788900,11.98130300,15:00:31.721172,0.00373,1.77489,-0.05508,0.03028,0.02062,-0.03100,0.03371,0.04301,0.02379,1.34475,4.32506,1.76559,3.63056,3.63911,-3.52865,2.41589,4.23379,-2.44683,4.96671,3.72970,A,150031.50
4.35198,57.68786606,11.98128480,57.68789067,11.98130183,15:00:31.744291,0.01662,1.77489,-0.05420,0.03028,0.02841,-0.00870,0.03371,0.06905,0.01745,1.26319,4.33458,1.76559,3.63056,3.63911,-3.52865,2.41589,4.34987,-2.51617,5.15203,3.70811,A,150031.60
4.36766,57.68786644,11.98128271,57.68789067,11.98130183,15:00:31.759965,0.00707,1.77489,-0.05684,0.03028,-0.01527,0.02749,0.03187,-0.28579,-0.15787,0.90109,4.36161,1.76745,3.64553,3.65452,-3.65306,2.45764,4.34987,-2.51617,5.15203,3.70811,A,150031.60
4.37401,57.68786644,11.98128271,57.68789067,11.98130183,15:00:31.766306,0.00318,1.77489,-0.05525,0.03028,-0.03985,0.02597,0.02485,-0.09321,0.07820,0.74999,4.37022,1.76745,3.64553,3.65452,-3.65306,2.45764,4.34987,-2.51617,5.15203,3.70811,A,150031.60
4.38441,57.68786644,11.98128271,57.68789067,11.98130183,15:00:31.776709,0.00318,1.77489,-0.05301,0.03028,-0.02153,0.00963,0.03203,0.01299,0.10181,0.71602,4.38063,1.76745,3.64553,3.65452,-3.65306,2.45764,4.34987,-2.51617,5.15203,3.70811,A,150031.60
4.39447,57.68786644,11.98128271,57.68789067,11.98130183,15:00:31.786767,0.00301,1.77489,-0.05091,0.03028,0.00764,-0.03482,0.03707,0.06228,0.09144,0.80221,4.39069,1.76745,3.64553,3.65452,-3.65306,2.45764,4.34987,-2.51617,5.15203,3.70811,A,150031.60
4.40502,57.68786644,11.98128271,57.68789067,11.98130183,15:00:31.797314,0.00316,1.77489,-0.05164,0.03028,0.01650,-0.03588,0.03615,-0.09101,-0.08845,1.06610,4.40124,1.76745,3.64553,3.65452,-3.65306,2.45764,4.34987,-2.51617,5.15203,3.70811,A,150031.60
4.41562,57.68786644,11.98128271,57.68789067,11.98130183,15:00:31.807933,0.00337,1.77489,-0.05307,0.03028,0.00428,-0.00717,0.02897,-0.16818,-0.14347,1.17364,4.41141,1.76745,3.64553,3.65452,-3.65306,2.45764,4.34987,-2.51617,5.15203,3.70811,A,150031.60
4.42581,57.68786644,11.98128271,57.68789067,11.98130183,15:00:31.818103,0.00316,1.77489,-0.05508,0.03028,-0.01863,0.02871,0.02134,-0.20484,-0.18477,1.25154,4.42203,1.76745,3.64553,3.65452,-3.65306,2.45764,4.34987,-2.51617,5.15203,3.70811,A,150031.60
4.43615,57.68786644,11.98128271,57.68789067,11.98130183,15:00:31.828444,0.00310,1.77489,-0.05522,0.03028,-0.02474,0.06170,0.01049,0.00207,-0.02159,1.15052,4.43236,1.76745,3.64553,3.65452,-3.65306,2.45764,4.34987,-2.51617,5.15203,3.70811,A,150031.60
4.44644,57.68786644,11.98128271,57.68789067,11.98130183,15:00:31.838744,0.00300,1.77489,-0.05420,0.03028,-0.01710,0.03727,0.00988,0.12822,0.05350,0.99357,4.44267,1.76745,3.64553,3.65452,-3.65306,2.45764,4.34987,-2.51617,5.15203,3.70811,A,150031.60
4.47044,57.68786644,11.98128271,57.68789183,11.98130083,15:00:31.863138,0.01660,1.77489,-0.05276,0.03028,0.00718,-0.01939,0.01599,0.23424,0.05209,0.76043,4.45321,1.76745,3.64553,3.65452,-3.65306,2.45764,4.46846,-2.57561,5.28176,3.75177,A,150031.70
4.48483,57.68786685,11.98128078,57.68789183,11.98130083,15:00:31.877133,0.00721,1.77489,-0.05278,0.03028,0.04032,-0.03802,0.02118,-0.23137,-0.08943,0.96478,4.47878,1.76894,3.66490,3.67389,-3.76755,2.50402,4.46846,-2.57561,5.28176,3.75177,A,150031.70
4.49117,57.68786685,11.98128078,57.68789183,11.98130083,15:00:31.883482,0.00315,1.77489,-0.05358,0.03028,0.01787,0.00092,0.02164,-0.24491,-0.09980,1.13680,4.48719,1.76894,3.66490,3.67389,-3.76755,2.50402,4.46846,-2.57561,5.28176,3.75177,A,150031.70
4.50159,57.68786685,11.98128078,57.68789183,11.98130083,15:00:31.893888,0.00318,1.77489,-0.05387,0.03028,0.01115,0.06017,0.02271,-0.04599,-0.05929,1.13576,4.49782,1.76894,3.66490,3.67389,-3.76755,2.50402,4.46846,-2.57561,5.28176,3.75177,A,150031.70
4.51198,57.68786685,11.98128078,57.68789183,11.98130083,15:00:31.904278,0.00317,1.77489,-0.05325,0.03028,-0.00336,0.06155,0.02225,0.17153,0.01934,1.03035,4.50819,1.76894,3.66490,3.67389,-3.76755,2.50402,4.46846,-2.57561,5.28176,3.75177,A,150031.70
4.52232,57.68786685,11.98128078,57.68789183,11.98130083,15:00:31.914613,0.00298,1.77489,-0.05302,0.03022,-0.00152,0.02704,0.02103,0.06515,-0.00695,0.99601,4.51854,1.76894,3.66490,3.67389,-3.76755,2.50402,4.46846,-2.57561,5.28176,3.75177,A,150031.70
4.53288,57.68786685,11.98128078,57.68789183,11.98130083,15:00:31.925183,0.00314,1.77489,-0.05239,0.02997,0.00474,0.00917,0.01248,-0.02525,0.01464,0.96044,4.52911,1.76894,3.66490,3.67389,-3.76755,2.50402,4.46846,-2.57561,5.28176,3.75177,A,150031.70
4.54330,57.68786685,11.98128078,57.68789183,11.98130083,15:00:31.935609,0.00317,1.77489,-0.05264,0.02934,0.00199,-0.01450,0.00866,-0.12718,-0.04136,0.99979,4.53932,1.76894,3.66490,3.67389,-3.76755,2.50402,4.46846,-2.57561,5.28176,3.75177,A,150031.70
4.55371,57.68786685,11.98128078,57.68789183,11.98130083,15:00:31.946004,0.00317,1.77489,-0.05349,0.02827,-0.00488,-0.01038,-0.00905,-0.11511,-0.06759,0.88767,4.54993,1.76894,3.66490,3.67389,-3.76755,2.50402,4.46846,-2.57561,5.28176,3.75177,A,150031.70
4.56408,57.68786685,11.98128078,57.68789183,11.98130083,15:00:31.956381,0.00315,1.77489,-0.05394,0.02688,-0.00824,0.00581,-0.00707,-0.04069,-0.04618,0.93849,4.56030,1.76894,3.66490,3.67389,-3.76755,2.50402,4.46846,-2.57561,5.28176,3.75177,A,150031.70
4.59883,57.68786685,11.98128078,57.68789500,11.98129867,15:00:31.991364,0.02740,1.77489,-0.05500,0.02530,-0.00504,0.02215,-0.00829,0.08046,-0.08778,0.94568,4.57067,1.76894,3.66490,3.67389,-3.76755,2.50402,4.59684,-2.70439,5.63388,3.55713,A,150031.90
4.61295,57.68786729,11.98127860,57.68789500,11.98129867,15:00:32.005253,0.00715,1.77489,-0.05502,0.02164,-0.00351,-0.01679,0.00378,-0.02983,-0.02117,0.99589,4.60691,1.77013,3.65301,3.65944,-3.89688,2.55302,4.59684,-2.70439,5.63388,3.55713,A,150031.90
4.61926,57.68786729,11.98127860,57.68789500,11.98129867,15:00:32.011565,0.00324,1.77489,-0.05561,0.02128,0.01573,-0.02168,0.00912,-0.05398,-0.07479,0.98137,4.61527,1.77013,3.65301,3.65944,-3.89688,2.55302,4.59684,-2.70439,5.63388,3.55713,A,150031.90
4.62959,57.68786729,11.98127860,57.68789500,11.98129867,15:00:32.021890,0.00318,1.77489,-0.05545,0.02114,0.01237,-0.03375,0.00897,0.03800,-0.02952,1.09770,4.62581,1.77013,3.65301,3.65944,-3.89688,2.55302,4.59684,-2.70439,5.63388,3.55713,A,150031.90
4.63997,57.68786729,11.98127860,57.68789500,11.98129867,15:00:32.032268,0.00316,1.77489,-0.05590,0.02114,0.01726,-0.02290,0.01355,-0.11663,-0.08473,1.17925,4.63617,1.77013,3.65301,3.65944,-3.89688,2.55302,4.59684,-2.70439,5.63388,3.55713,A,150031.90
4.65033,57.68786729,11.98127860,57.68789500,11.98129867,15:00:32.042624,0.00300,1.77489,-0.05590,0.02114,0.02749,0.01390,0.01615,0.02312,-0.05185,1.08653,4.64654,1.77013,3.65301,3.65944,-3.89688,2.55302,4.59684,-2.70439,5.63388,3.55713,A,150031.90
4.66089,57.68786729,11.98127860,57.68789500,11.98129867,15:00:32.053181,0.00316,1.77489,-0.05544,0.02114,0.03482,0.02016,0.02454,-0.08528,-0.02336,1.01724,4.65711,1.77013,3.65301,3.65944,-3.89688,2.55302,4.59684,-2.70439,5.63388,3.55713,A,150031.90
4.67128,57.68786729,11.98127860,57.68789500,11.98129867,15:00:32.063590,0.00316,1.77489,-0.05469,0.02114,0.02367,0.04521,0.03249,-0.02050,0.00543,0.90371,4.66730,1.77013,3.65301,3.65944,-3.89688,2.55302,4.59684,-2.70439,5.63388,3.55713,A,150031.90
4.68184,57.68786729,11.98127860,57.68789500,11.98129867,15:00:32.074146,0.00332,1.77489,-0.05327,0.02114,0.03116,0.03314,0.03905,-0.07899,0.04325,0.94367,4.67806,1.77013,3.65301,3.65944,-3.89688,2.55302,4.59684,-2.70439,5.63388,3.55713,A,150031.90
4.69208,57.68786729,11.98127860,57.68789500,11.98129867,15:00:32.084377,0.00316,1.68572,-0.05168,0.02116,0.02978,0.03910,0.03661,0.08320,0.05520,0.93598,4.68830,1.77013,3.65301,3.65944,-3.89688,2.55302,4.59684,-2.70439,5.63388,3.55713,A,150031.90
4.71683,57.68786729,11.98127860,57.68789633,11.98129733,15:00:32.109140,0.01750,1.68572,-0.05010,0.02133,0.03635,-0.01053,0.04531,0.10114,0.05472,0.98552,4.69853,1.77013,3.65301,3.65944,-3.89688,2.55302,4.71435,-2.78364,5.78214,3.72970,A,150032.00
4.72808,57.68786790,11.98127676,57.68789633,11.98129733,15:00:32.120381,0.00558,1.68572,-0.05018,0.02295,0.04857,-0.02367,0.04226,0.00659,-0.11547,1.11130,4.72201,1.75325,3.66686,3.67367,-4.00634,2.62041,4.71435,-2.78364,5.78214,3.72970,A,150032.00
4.73604,57.68786790,11.98127676,57.68789633,11.98129733,15:00:32.128339,0.00314,1.68572,-0.04958,0.02405,0.03772,-0.00504,0.04150,-0.04307,-0.01128,1.14399,4.73225,1.75325,3.66686,3.67367,-4.00634,2.62041,4.71435,-2.78364,5.78214,3.72970,A,150032.00
4.74632,57.68786790,11.98127676,57.68789633,11.98129733,15:00:32.138617,0.00299,1.68572,-0.05051,0.02530,0.03345,0.00581,0.03844,-0.00647,-0.10980,1.02138,4.74255,1.75325,3.66686,3.67367,-4.00634,2.62041,4.71435,-2.78364,5.78214,3.72970,A,150032.00
4.75705,57.68786790,11.98127676,57.68789633,11.98129733,15:00:32.149353,0.00332,1.68572,-0.04842,0.02654,0.01482,0.00947,0.04257,0.04423,0.09376,0.87163,4.75326,1.75325,3.66686,3.67367,-4.00634,2.62041,4.71435,-2.78364,5.78214,3.72970,A,150032.00
4.76728,57.68786790,11.98127676,57.68789633,11.98129733,15:00:32.159590,0.00315,1.68572,-0.04766,0.02765,0.04078,0.00367,0.04073,-0.07680,0.00378,0.87724,4.76329,1.75325,3.66686,3.67367,-4.00634,2.62041,4.71435,-2.78364,5.78214,3.72970,A,150032.00
4.77767,57.68786790,11.98127676,57.68789633,11.98129733,15:00:32.169960,0.00315,1.68572,-0.04711,0.02872,0.03818,0.01909,0.03814,-0.18062,-0.00854,0.96465,4.77390,1.75325,3.66686,3.67367,-4.00634,2.62041,4.71435,-2.78364,5.78214,3.72970,A,150032.00
4.78806,57.68786790,11.98127676,57.68789633,11.98129733,15:00:32.180359,0.00315,1.68572,-0.04637,0.02971,0.05223,0.06537,0.03585,-0.08180,-0.00488,0.99686,4.78427,1.75325,3.66686,3.67367,-4.00634,2.62041,4.71435,-2.78364,5.78214,3.72970,A,150032.00
4.79832,57.68786790,11.98127676,57.68789633,11.98129733,15:00:32.190607,0.00298,1.68572,-0.04661,0.03079,0.06094,0.06185,0.03982,0.05209,-0.07509,1.00150,4.79454,1.75325,3.66686,3.67367,-4.00634,2.62041,4.71435,-2.78364,5.78214,3.72970,A,150032.00
4.81015,57.68786790,11.98127676,57.68789633,11.98129733,15:00:32.202450,0.00457,1.68572,-0.04600,0.03198,0.05987,0.03849,0.04913,0.18483,-0.02159,0.94141,4.80635,1.75325,3.66686,3.67367,-4.00634,2.62041,4.71435,-2.78364,5.78214,3.72970,A,150032.00
4.83579,57.68786790,11.98127676,57.68789767,11.98129600,15:00:32.228096,0.01982,1.68572,-0.04458,0.03314,0.05605,-0.01527,0.06379,0.09815,0.03483,0.99509,4.81797,1.75325,3.66686,3.67367,-4.00634,2.62041,4.83350,-2.86289,5.93040,3.72970,A,150032.10
4.85261,57.68786846,11.98127477,57.68789767,11.98129600,15:00:32.244914,0.00790,1.68572,-0.04324,0.03548,0.05513,-0.00748,0.05310,-0.05337,-0.03123,1.14284,4.84590,1.73974,3.67852,3.68906,-4.12476,2.68254,4.83350,-2.86289,5.93040,3.72970,A,150032.10
4.85825,57.68786846,11.98127477,57.68789767,11.98129600,15:00:32.250546,0.00301,1.68572,-0.04310,0.03611,0.06079,0.01680,0.05158,0.08162,-0.03892,1.02059,4.85447,1.73974,3.67852,3.68906,-4.12476,2.68254,4.83350,-2.86289,5.93040,3.72970,A,150032.10
4.86898,57.68786846,11.98127477,57.68789767,11.98129600,15:00:32.261283,0.00335,1.68572,-0.04254,0.03665,0.04368,-0.00076,0.04959,0.13304,-0.00555,0.91567,4.86520,1.73974,3.67852,3.68906,-4.12476,2.68254,4.83350,-2.86289,5.93040,3.72970,A,150032.10
4.88073,57.68786846,11.98127477,57.68789767,11.98129600,15:00:32.273026,0.00339,1.68572,-0.04164,0.03704,0.04842,-0.01099,0.05600,-0.06381,0.01025,0.83832,4.87694,1.73974,3.67852,3.68906,-4.12476,2.68254,4.83350,-2.86289,5.93040,3.72970,A,150032.10
4.89055,57.68786846,11.98127477,57.68789767,11.98129600,15:00:32.282842,0.00299,1.68572,-0.03997,0.03727,0.05284,-0.00656,0.05768,-0.09937,0.06039,0.90103,4.88677,1.73974,3.67852,3.68906,-4.12476,2.68254,4.83350,-2.86289,5.93040,3.72970,A,150032.10
4.90111,57.68786846,11.98127477,57.68789767,11.98129600,15:00:32.293396,0.00315,1.68572,-0.03873,0.03732,0.06781,0.00810,0.05264,-0.14841,0.02532,0.97094,4.89734,1.73974,3.67852,3.68906,-4.12476,2.68254,4.83350,-2.86289,5.93040,3.72970,A,150032.10
4.91151,57.68786846,11.98127477,57.68789767,11.98129600,15:00:32.303814,0.00316,1.68572,-0.03911,0.03732,0.06445,0.01360,0.04822,-0.03739,-0.07735,1.00485,4.90752,1.73974,3.67852,3.68906,-4.12476,2.68254,4.83350,-2.86289,5.93040,3.72970,A,150032.10
4.92207,57.68786846,11.98127477,57.68789767,11.98129600,15:00:32.314358,0.00331,1.68572,-0.03903,0.03732,0.06460,0.00657,0.04302,0.22747,-0.05130,1.04511,4.91829,1.73974,3.67852,3.68906,-4.12476,2.68254,4.83350,-2.86289,5.93040,3.72970,A,150032.10
4.93233,57.68786846,11.98127477,57.68789767,11.98129600,15:00:32.324626,0.00317,1.68572,-0.03956,0.03732,0.04551,-0.03940,0.04409,0.15561,-0.08064,1.06512,4.92854,1.73974,3.67852,3.68906,-4.12476,2.68254,4.83350,-2.86289,5.93040,3.72970,A,150032.10
4.95613,57.68786846,11.98127477,57.68789883,11.98129467,15:00:32.348438,0.01673,1.68572,-0.03935,0.03732,0.04063,-0.05986,0.04180,-0.08729,-0.02684,1.15693,4.93863,1.73974,3.67852,3.68906,-4.12476,2.68254,4.95401,-2.94214,6.06012,3.74241,A,150032.20
4.96836,57.68786910,11.98127307,57.68789883,11.98129467,15:00:32.360674,0.00642,1.68572,-0.03804,0.03732,0.03284,-0.01435,0.03432,-0.04599,0.02861,0.97893,4.96146,1.72894,3.69189,3.70297,-4.22594,2.75368,4.95401,-2.94214,6.06012,3.74241,A,150032.20
4.97562,57.68786910,11.98127307,57.68789883,11.98129467,15:00:32.367916,0.00328,1.68572,-0.03748,0.03732,0.03696,-0.01511,0.04257,0.00116,0.00482,0.91793,4.97182,1.72894,3.69189,3.70297,-4.22594,2.75368,4.95401,-2.94214,6.06012,3.74241,A,150032.20
4.98588,57.68786910,11.98127307,57.68789883,11.98129467,15:00:32.378181,0.00315,1.68572,-0.03591,0.03732,0.03788,-0.02428,0.04272,0.02367,0.06808,0.93672,4.98210,1.72894,3.69189,3.70297,-4.22594,2.75368,4.95401,-2.94214,6.06012,3.74241,A,150032.20
4.99702,57.68786910,11.98127307,57.68789883,11.98129467,15:00:32.389320,0.00328,1.68572,-0.03511,0.03732,0.05315,-0.01695,0.04822,0.02098,0.00878,0.91500,4.99324,1.72894,3.69189,3.70297,-4.22594,2.75368,4.95401,-2.94214,6.06012,3.74241,A,150032.20
5.00728,57.68786910,11.98127307,57.68789883,11.98129467,15:00:32.399592,0.00316,1.68572,-0.03546,0.03732,0.03314,-0.01267,0.04363,-0.11474,-0.04563,0.93019,5.00329,1.72894,3.69189,3.70297,-4.22594,2.75368,4.95401,-2.94214,6.06012,3.74241,A,150032.20
5.01984,57.68786910,11.98127307,57.68789883,11.98129467,15:00:32.412195,0.00532,1.68572,0.00000,0.03732,0.01665,0.02444,0.03126,-0.17440,-0.02794,0.97033,5.01412,1.72894,3.69189,3.70297,-4.22594,2.75368,4.95401,-2.94214,6.06012,3.74241,A,150032.20
5.03150,57.68786910,11.98127307,57.68789883,11.98129467,15:00:32.423808,0.00658,1.68572,-0.00061,0.03732,0.00153,0.03864,0.02225,-0.05911,-0.01000,0.94062,5.02427,1.72894,3.69189,3.70297,0.02420,0.00000,4.95401,-2.94214,6.06012,3.74241,A,150032.20
5.03940,57.68786910,11.98127307,57.68789883,11.98129467,15:00:32.431713,0.00409,1.68572,0.00021,0.03727,-0.00595,0.04292,0.01538,-0.01049,0.09309,1.06341,5.03451,1.72894,3.69189,3.70297,0.02420,0.00000,4.95401,-2.94214,6.06012,3.74241,A,150032.20
5.04982,57.68786910,11.98127307,57.68789883,11.98129467,15:00:32.442121,0.00412,1.68572,-0.00075,0.03690,0.00000,0.01604,0.01294,0.06917,-0.03489,1.04206,5.04509,1.72894,3.69189,3.70297,0.02420,0.00000,4.95401,-2.94214,6.06012,3.74241,A,150032.20
5.07365,57.68786910,11.98127307,57.68790033,11.98129367,15:00:32.465953,0.01755,1.68572,-0.00173,0.03611,-0.00259,-0.01466,0.00378,0.04398,-0.03916,1.09849,5.05526,1.72894,3.69189,3.70297,0.02420,0.00000,5.07055,-3.00158,6.22692,3.72594,A,150032.30
5.08800,57.68786975,11.98127139,57.68790033,11.98129367,15:00:32.480307,0.01072,1.68572,-0.00322,0.03316,-0.01160,-0.03741,0.01080,-0.12139,-0.05014,0.96179,5.08026,1.72029,3.70133,3.71117,-4.32581,2.82604,5.07055,-3.00158,6.22692,3.72594,A,150032.30
5.10056,57.68786975,11.98127139,57.68790033,11.98129367,15:00:32.492871,0.00611,1.68572,-0.00376,0.03152,-0.00717,-0.01939,0.01966,-0.00323,-0.00226,0.94135,5.09579,1.72029,3.70133,3.71117,-4.32581,2.82604,5.07055,-3.00158,6.22692,3.72594,A,150032.30
5.10889,57.68786975,11.98127139,57.68790033,11.98129367,15:00:32.501192,0.00404,1.68572,-0.00318,0.03093,-0.00824,-0.01282,0.02439,-0.01543,0.06734,0.98954,5.10422,1.72029,3.70133,3.71117,-4.32581,2.82604,5.07055,-3.00158,6.22692,3.72594,A,150032.30
5.12012,57.68786975,11.98127139,57.68790033,11.98129367,15:00:32.512428,0.00439,1.70135,-0.00414,0.03045,0.01008,0.00397,0.02974,-0.01208,-0.03721,0.84253,5.11513,1.72029,3.70133,3.71117,-4.32581,2.82604,5.07055,-3.00158,6.22692,3.72594,A,150032.30
5.13027,57.68786975,11.98127139,57.68790033,11.98129367,15:00:32.522567,0.00415,1.70135,-0.00506,0.03025,0.00932,0.00779,0.02348,-0.09626,-0.03654,0.86443,5.12552,1.72029,3.70133,3.71117,-4.32581,2.82604,5.07055,-3.00158,6.22692,3.72594,A,150032.30
5.14168,57.68786975,11.98127139,57.68790033,11.98129367,15:00:32.534004,0.00516,1.70135,-0.00627,0.03025,0.01466,0.01543,0.03157,-0.10486,-0.05984,0.90768,5.13589,1.72029,3.70133,3.71117,-4.32581,2.82604,5.07055,-3.00158,6.22692,3.72594,A,150032.30
5.15132,57.68786975,11.98127139,57.68790033,11.98129367,15:00:32.543625,0.00420,1.70135,-0.00709,0.03025,0.01390,0.03391,0.02775,-0.12115,-0.04111,0.98667,5.14635,1.72029,3.70133,3.71117,-4.32581,2.82604,5.07055,-3.00158,6.22692,3.72594,A,150032.30
5.16387,57.68786975,11.98127139,57.68790033,11.98129367,15:00:32.556182,0.00636,1.70135,-0.00657,0.03025,0.00932,0.04200,0.02622,0.07119,0.05191,1.07439,5.15839,1.72029,3.70133,3.71117,-4.32581,2.82604,5.07055,-3.00158,6.22692,3.72594,A,150032.30
5.19671,57.68786975,11.98127139,57.68790300,11.98129117,15:00:32.589020,0.02881,1.70135,-0.00686,0.03025,0.00657,0.02505,0.02180,0.12877,-0.00207,1.13960,5.16724,1.72029,3.70133,3.71117,-4.32581,2.82604,5.19350,-3.15017,6.52344,3.59319,A,150032.50
5.21298,57.68787044,11.98126954,57.68790300,11.98129117,15:00:32.605285,0.00790,1.70135,-0.00700,0.03025,-0.01374,-0.06963,0.01202,-0.07003,0.04764,1.01620,5.20542,1.71650,3.68918,3.69816,-4.43551,2.90302,5.19350,-3.15017,6.52344,3.59319,A,150032.50
5.21976,57.68787044,11.98126954,57.68790300,11.98129117,15:00:32.612063,0.00442,1.70135,-0.00617,0.03022,-0.00962,-0.05711,0.01340,-0.08607,0.07838,0.93842,5.21479,1.71650,3.68918,3.69816,-4.43551,2.90302,5.19350,-3.15017,6.52344,3.59319,A,150032.50
5.23061,57.68787044,11.98126954,57.68790300,11.98129117,15:00:32.623150,0.00427,1.70135,-0.00845,0.02999,-0.00183,-0.03451,0.00668,-0.11950,-0.10785,0.84387,5.22586,1.71650,3.68918,3.69816,-4.43551,2.90302,5.19350,-3.15017,6.52344,3.59319,A,150032.50
5.24106,57.68787044,11.98126954,57.68790300,11.98129117,15:00:32.633359,0.00433,1.70135,-0.01013,0.02957,-0.00717,-0.00717,0.00897,-0.15890,-0.08003,0.92220,5.23611,1.71650,3.68918,3.69816,-4.43551,2.90302,5.19350,-3.15017,6.52344,3.59319,A,150032.50
5.25144,57.68787044,11.98126954,57.68790300,11.98129117,15:00:32.643747,0.00419,1.70135,-0.01203,0.02872,-0.01710,0.01131,0.00912,-0.11468,-0.09717,0.99772,5.24645,1.71650,3.68918,3.69816,-4.43551,2.90302,5.19350,-3.15017,6.52344,3.59319,A,150032.50
5.26190,57.68787044,11.98126954,57.68790300,11.98129117,15:00:32.654201,0.00426,1.70135,-0.01257,0.02733,-0.02504,0.00810,0.00851,-0.07680,-0.00256,1.04054,5.25717,1.71650,3.68918,3.69816,-4.43551,2.90302,5.19350,-3.15017,6.52344,3.59319,A,150032.50
5.27233,57.68787044,11.98126954,57.68790300,11.98129117,15:00:32.664642,0.00430,1.70135,-0.01309,0.02552,-0.02428,0.00978,0.00347,-0.03416,-0.00482,1.10947,5.26736,1.71650,3.68918,3.69816,-4.43551,2.90302,5.19350,-3.15017,6.52344,3.59319,A,150032.50
5.28267,57.68787044,11.98126954,57.68790300,11.98129117,15:00:32.675201,0.00425,1.70135,-0.01330,0.02329,-0.02397,0.00581,-0.00035,-0.02495,0.01812,1.14082,5.27794,1.71650,3.68918,3.69816,-4.43551,2.90302,5.19350,-3.15017,6.52344,3.59319,A,150032.50
5.29292,57.68787044,11.98126954,57.68790300,11.98129117,15:00:32.685219,0.00410,1.70135,-0.01359,0.02108,-0.02855,-0.00244,-0.00325,-0.02617,0.01342,1.05567,5.28819,1.71650,3.68918,3.69816,-4.43551,2.90302,5.19350,-3.15017,6.52344,3.59319,A,150032.50
5.31686,57.68787044,11.98126954,57.68790467,11.98129017,15:00:32.709167,0.01754,1.70135,-0.01504,0.01881,-0.02657,-0.00168,-0.00783,-0.02879,-0.06777,1.01675,5.29853,1.71650,3.68918,3.69816,-4.43551,2.90302,5.31394,-3.20961,6.70876,3.71267,A,150032.60
5.33176,57.68787125,11.98126786,57.68790467,11.98129017,15:00:32.724073,0.00781,1.70135,-0.01649,0.01417,-0.04459,-0.03940,-0.01440,-0.06332,-0.00750,0.84034,5.32492,1.71347,3.69678,3.70098,-4.53572,2.99282,5.31394,-3.20961,6.70876,3.71267,A,150032.60
5.33850,57.68787125,11.98126786,57.68790467,11.98129017,15:00:32.730805,0.00415,1.70135,-0.01637,0.01262,-0.04612,-0.04199,-0.01562,-0.07381,0.03697,0.85864,5.33385,1.71347,3.69678,3.70098,-4.53572,2.99282,5.31394,-3.20961,6.70876,3.71267,A,150032.60
5.34908,57.68787125,11.98126786,57.68790467,11.98129017,15:00:32.741386,0.00434,1.70135,-0.01700,0.01120,-0.04459,-0.03512,-0.01104,-0.18007,-0.00415,0.97435,5.34413,1.71347,3.69678,3.70098,-4.53572,2.99282,5.31394,-3.20961,6.70876,3.71267,A,150032.60
5.35944,57.68787125,11.98126786,57.68790467,11.98129017,15:00:32.751747,0.00418,1.70135,-0.01831,0.00976,-0.03695,-0.00931,-0.01929,-0.15463,-0.06191,1.10556,5.35446,1.71347,3.69678,3.70098,-4.53572,2.99282,5.31394,-3.20961,6.70876,3.71267,A,150032.60
5.36978,57.68787125,11.98126786,57.68790467,11.98129017,15:00:32.762082,0.00413,1.70135,-0.01968,0.00834,-0.04459,0.01894,-0.02219,-0.03508,-0.06948,1.23909,5.36505,1.71347,3.69678,3.70098,-4.53572,2.99282,5.31394,-3.20961,6.70876,3.71267,A,150032.60
5.38033,57.68787125,11.98126786,57.68790467,11.98129017,15:00:32.772636,0.00444,1.70135,-0.02069,0.00687,-0.05711,0.03146,-0.02677,0.03642,-0.02983,1.14704,5.37523,1.71347,3.69678,3.70098,-4.53572,2.99282,5.31394,-3.20961,6.70876,3.71267,A,150032.60
5.39042,57.68787125,11.98126786,57.68790467,11.98129017,15:00:32.782707,0.00414,1.70135,-0.02144,0.00540,-0.06093,0.01024,-0.03104,0.04288,-0.00738,1.06042,5.38567,1.71347,3.69678,3.70098,-4.53572,2.99282,5.31394,-3.20961,6.70876,3.71267,A,150032.60
5.40081,57.68787125,11.98126786,57.68790467,11.98129017,15:00:32.793112,0.00414,1.70135,-0.02105,0.00410,-0.05421,-0.01389,-0.03303,0.04026,0.06149,0.96240,5.39605,1.71347,3.69678,3.70098,-4.53572,2.99282,5.31394,-3.20961,6.70876,3.71267,A,150032.60
5.41152,57.68787125,11.98126786,57.68790467,11.98129017,15:00:32.803823,0.00434,1.70135,-0.01999,0.00308,-0.03695,-0.03268,-0.02814,-0.01043,0.08924,0.92080,5.40639,1.71347,3.69678,3.70098,-4.53572,2.99282,5.31394,-3.20961,6.70876,3.71267,A,150032.60
5.43560,57.68787125,11.98126786,57.68790583,11.98128850,15:00:32.827908,0.01802,1.70135,-0.02036,0.00240,-0.01053,-0.03161,-0.01852,-0.14616,-0.01501,0.96600,5.41722,1.71347,3.69678,3.70098,-4.53572,2.99282,5.43266,-3.30867,6.83849,3.73330,A,150032.70
5.45412,57.68787204,11.98126609,57.68790583,11.98128850,15:00:32.846420,0.00788,1.70135,-0.02252,0.00203,-0.00091,0.02597,-0.00829,0.08577,-0.12084,0.85272,5.44717,1.71105,3.70444,3.70504,-4.64049,3.08110,5.43266,-3.30867,6.83849,3.73330,A,150032.70
5.46069,57.68787204,11.98126609,57.68790583,11.98128850,15:00:32.852993,0.00406,1.70135,-0.02359,0.00203,-0.00717,0.00413,0.00148,0.04685,-0.05746,0.84320,5.45603,1.71105,3.70444,3.70504,-4.64049,3.08110,5.43266,-3.30867,6.83849,3.73330,A,150032.70
5.47154,57.68787204,11.98126609,57.68790583,11.98128850,15:00:32.863844,0.00438,1.70135,-0.02336,0.00203,0.00489,-0.03314,-0.00264,0.07509,0.00842,0.87730,5.46655,1.71105,3.70444,3.70504,-4.64049,3.08110,5.43266,-3.30867,6.83849,3.73330,A,150032.70
5.48160,57.68787204,11.98126609,57.68790583,11.98128850,15:00:32.873905,0.00415,1.70135,-0.02225,0.00203,0.00993,-0.08246,-0.00065,-0.02434,0.06704,1.02090,5.47687,1.71105,3.70444,3.70504,-4.64049,3.08110,5.43266,-3.30867,6.83849,3.73330,A,150032.70
5.49191,57.68787204,11.98126609,57.68790583,11.98128850,15:00:32.884212,0.00423,1.70135,-0.02206,0.00203,0.02749,-0.08949,-0.01073,-0.21698,-0.00750,1.17468,5.48689,1.71105,3.70444,3.70504,-4.64049,3.08110,5.43266,-3.30867,6.83849,3.73330,A,150032.70
5.50338,57.68787204,11.98126609,57.68790583,11.98128850,15:00:32.895686,0.00531,1.70135,-0.02201,0.00203,0.03116,-0.03756,-0.01409,-0.00342,-0.02532,1.23354,5.49835,1.71105,3.70444,3.70504,-4.64049,3.08110,5.43266,-3.30867,6.83849,3.73330,A,150032.70
5.51249,57.68787204,11.98126609,57.68790583,11.98128850,15:00:32.904787,0.00403,1.70135,-0.02279,0.00203,0.01589,-0.00763,-0.01699,0.00409,-0.07210,1.15497,5.50782,1.71105,3.70444,3.70504,-4.64049,3.08110,5.43266,-3.30867,6.83849,3.73330,A,150032.70
5.52319,57.68787204,11.98126609,57.68790583,11.98128850,15:00:32.915499,0.00433,1.70135,-0.02410,0.00203,0.00947,0.01940,-0.01379,0.04270,-0.09370,0.98515,5.51823,1.71105,3.70444,3.70504,-4.64049,3.08110,5.43266,-3.30867,6.83849,3.73330,A,150032.70
5.53341,57.68787204,11.98126609,57.68790583,11.98128850,15:00:32.925703,0.00415,1.70135,-0.02331,0.00203,-0.00580,0.03055,-0.00921,-0.16446,0.04898,0.90432,5.52866,1.71105,3.70444,3.70504,-4.64049,3.08110,5.43266,-3.30867,6.83849,3.73330,A,150032.70
5.55763,57.68787204,11.98126609,57.68790717,11.98128750,15:00:32.949931,0.01816,1.70135,-0.02190,0.00203,0.00520,0.04368,-0.00539,-0.20319,0.07558,0.85168,5.53869,1.71105,3.70444,3.70504,-4.64049,3.08110,5.55455,-3.36811,6.98675,3.73897,A,150032.80
5.57408,57.68787288,11.98126445,57.68790717,11.98128750,15:00:32.966386,0.00801,1.71227,-0.02332,0.00203,0.00978,0.00367,-0.01257,0.04929,-0.11547,1.02029,5.56646,1.71129,3.70984,3.71044,-4.73795,3.17461,5.55455,-3.36811,6.98675,3.73897,A,150032.80
5.58069,57.68787288,11.98126445,57.68790717,11.98128750,15:00:32.972987,0.00423,1.71227,-0.02495,0.00203,0.00764,-0.02153,-0.02585,0.13725,-0.12334,1.06848,5.57601,1.71129,3.70984,3.71044,-4.73795,3.17461,5.55455,-3.36811,6.98675,3.73897,A,150032.80
5.59128,57.68787288,11.98126445,57.68790717,11.98128750,15:00:32.983604,0.00443,1.71227,-0.02587,0.00203,-0.00855,-0.03588,-0.03257,-0.01488,-0.06612,1.11374,5.58623,1.71129,3.70984,3.71044,-4.73795,3.17461,5.55455,-3.36811,6.98675,3.73897,A,150032.80
5.60138,57.68787288,11.98126445,57.68790717,11.98128750,15:00:32.993673,0.00413,1.71227,-0.02602,0.00203,0.00352,-0.01710,-0.03318,-0.08973,-0.01921,1.16120,5.59664,1.71129,3.70984,3.71044,-4.73795,3.17461,5.55455,-3.36811,6.98675,3.73897,A,150032.80
5.61171,57.68787288,11.98126445,57.68790717,11.98128750,15:00:33.004017,0.00425,1.71227,-0.02621,0.00203,0.00382,0.00886,-0.02371,-0.10712,-0.02098,1.06536,5.60670,1.71129,3.70984,3.71044,-4.73795,3.17461,5.55455,-3.36811,6.98675,3.73897,A,150032.80
5.62228,57.68787288,11.98126445,57.68790717,11.98128750,15:00:33.014577,0.00436,1.71227,-0.02526,0.00203,0.01711,0.02001,-0.01516,-0.10760,0.04368,0.94581,5.61754,1.71129,3.70984,3.71044,-4.73795,3.17461,5.55455,-3.36811,6.98675,3.73897,A,150032.80
5.63310,57.68787288,11.98126445,57.68790717,11.98128750,15:00:33.025408,0.00408,1.71227,-0.02587,0.00203,0.02429,0.03543,-0.01302,0.04038,-0.05142,0.84046,5.62837,1.71129,3.70984,3.71044,-4.73795,3.17461,5.55455,-3.36811,6.98675,3.73897,A,150032.80
5.64355,57.68787288,11.98126445,57.68790717,11.98128750,15:00:33.035859,0.00422,1.71227,-0.02708,0.00203,0.02642,0.03116,-0.01669,0.02739,-0.09126,0.88572,5.63855,1.71129,3.70984,3.71044,-4.73795,3.17461,5.55455,-3.36811,6.98675,3.73897,A,150032.80
5.65383,57.68787288,11.98126445,57.68790717,11.98128750,15:00:33.046134,0.00410,1.71227,-0.02911,0.00203,0.02673,0.02047,-0.01867,-0.02830,-0.15360,0.95325,5.64910,1.71129,3.70984,3.71044,-4.73795,3.17461,5.55455,-3.36811,6.98675,3.73897,A,150032.80
5.67773,57.68787288,11.98126445,57.68790850,11.98128633,15:00:33.070033,0.01760,1.71227,-0.02988,0.00203,0.00565,0.01833,-0.03349,-0.02501,-0.06027,0.96734,5.65931,1.71129,3.70984,3.71044,-4.73795,3.17461,5.67465,-3.43745,7.13501,3.73430,A,150032.90
5.69430,57.68787373,11.98126282,57.68790850,11.98128633,15:00:33.086606,0.00790,1.71227,-0.02977,0.00203,0.01726,-0.02993,-0.03395,0.12871,-0.03318,0.99936,5.68777,1.71149,3.71374,3.71434,-4.83511,3.26894,5.67465,-3.43745,7.13501,3.73430,A,150032.90
5.70084,57.68787373,11.98126282,57.68790850,11.98128633,15:00:33.093136,0.00405,1.71227,-0.03084,0.00203,0.02138,-0.05375,-0.02539,0.08668,-0.08985,0.97582,5.69616,1.71149,3.71374,3.71434,-4.83511,3.26894,5.67465,-3.43745,7.13501,3.73430,A,150032.90
5.71149,57.68787373,11.98126282,57.68790850,11.98128633,15:00:33.103793,0.00418,1.71227,-0.03210,0.00200,0.02062,-0.06139,-0.02417,-0.07283,-0.10907,1.01839,5.70651,1.71149,3.71374,3.71434,-4.83511,3.26894,5.67465,-3.43745,7.13501,3.73430,A,150032.90
5.72215,57.68787373,11.98126282,57.68790850,11.98128633,15:00:33.114454,0.00445,1.71227,-0.03144,0.00189,0.01665,-0.03115,-0.01852,-0.16873,0.02147,1.02254,5.71741,1.71149,3.71374,3.71434,-4.83511,3.26894,5.67465,-3.43745,7.13501,3.73430,A,150032.90
5.73299,57.68787373,11.98126282,57.68790850,11.98128633,15:00:33.125300,0.00489,1.71227,-0.03042,0.00166,0.01970,0.02016,-0.02341,-0.14725,0.04898,1.07043,5.72729,1.71149,3.71374,3.71434,-4.83511,3.26894,5.67465,-3.43745,7.13501,3.73430,A,150032.90
5.74252,57.68787373,11.98126282,57.68790850,11.98128633,15:00:33.134813,0.00402,1.71227,-0.03023,0.00127,0.01741,0.05437,-0.01806,0.00415,-0.00915,1.02529,5.73787,1.71149,3.71374,3.71434,-4.83511,3.26894,5.67465,-3.43745,7.13501,3.73430,A,150032.90
5.75301,57.68787373,11.98126282,57.68790850,11.98128633,15:00:33.145320,0.00412,1.71227,-0.02956,0.00070,0.00810,0.05376,-0.01791,0.13103,0.02794,0.91360,5.74826,1.71149,3.71374,3.71434,-4.83511,3.26894,5.67465,-3.43745,7.13501,3.73430,A,150032.90
