Time,lat_estimated,lon_estimated,latitude,longitude,RealTime,CalculationTime,MeasuredVelocity,Roll,SteeringAngle,RollRate,gy,gz,ax,ay,az,imu_read_timing,v_estimated,yaw_estimated,heading_estimated,x_estimated,y_estimated,GPS_timestamp,x_GPS,y_GPS,theta_GPS,theta_GPS_noUnwrap,status,NMEA timestamp
0.05523,57.68785850,11.98133933,57.68785850,11.98133933,10:07:33.501677,0.05519,0.00000,-0.00053,0.00866,0.01804,0.00971,-0.02097,-0.04203,-0.02532,0.97161,0.00001,0.00000,-0.00257,0.00000,0.00000,0.00000,0.02586,0.00000,0.00000,0.00000,0.00000,A,100733.40
0.06713,57.68785850,11.98133933,57.68785850,11.98133933,10:07:33.513569,0.00600,0.00000,-0.00063,0.01367,0.01574,0.00605,-0.01883,-0.03843,-0.04892,0.98759,0.06090,0.00000,-0.00279,0.00126,0.00000,0.00000,0.02586,0.00000,0.00000,0.00000,0.00000,A,100733.40
0.07438,57.68785850,11.98133933,57.68785850,11.98133933,10:07:33.520797,0.00301,0.00000,-0.00181,0.01426,0.01254,0.00391,-0.01471,-0.00854,-0.06368,0.95843,0.07079,0.00000,-0.00279,0.00126,0.00000,0.00000,0.02586,0.00000,0.00000,0.00000,0.00000,A,100733.40
0.08491,57.68785850,11.98133933,57.68785850,11.98133933,10:07:33.531319,0.00314,0.00000,-0.00257,0.01486,0.01406,0.00101,-0.01349,-0.01482,-0.03941,0.96246,0.08133,0.00000,-0.00279,0.00126,0.00000,0.00000,0.02586,0.00000,0.00000,0.00000,0.00000,A,100733.40
0.09533,57.68785850,11.98133933,57.68785850,11.98133933,10:07:33.541752,0.00317,0.00000,-0.00309,0.01537,0.01376,-0.00021,-0.00952,-0.03941,-0.02489,0.97484,0.09151,0.00000,-0.00279,0.00126,0.00000,0.00000,0.02586,0.00000,0.00000,0.00000,0.00000,A,100733.40
0.10570,57.68785850,11.98133933,57.68785850,11.98133933,10:07:33.552124,0.00314,0.00000,-0.00351,0.01593,0.02399,0.00742,-0.00677,-0.06021,-0.02666,0.99576,0.10211,0.00000,-0.00279,0.00126,0.00000,0.00000,0.02586,0.00000,0.00000,0.00000,0.00000,A,100733.40
0.11603,57.68785850,11.98133933,57.68785850,11.98133933,10:07:33.562443,0.00308,0.00000,-0.00424,0.01656,0.01666,0.01185,-0.00646,-0.04715,-0.04307,1.01815,0.11243,0.00000,-0.00279,0.00126,0.00000,0.00000,0.02586,0.00000,0.00000,0.00000,0.00000,A,100733.40
0.14071,57.68785850,11.98133933,57.68785900,11.98133933,10:07:33.587154,0.01747,0.00000,-0.00505,0.01724,0.02063,0.00910,-0.00952,-0.00976,-0.05173,1.01687,0.12263,0.00000,-0.00279,0.00126,0.00000,0.00000,0.13772,0.00000,0.05560,1.57080,1.57080,A,100733.50
0.15508,57.68785852,11.98133933,57.68785900,11.98133933,10:07:33.601550,0.00806,0.00000,-0.00587,0.01922,0.00780,-0.01136,-0.02021,-0.03398,-0.05380,1.02736,0.14853,0.00000,0.23239,0.23809,0.00000,0.00278,0.13772,0.00000,0.05560,1.57080,1.57080,A,100733.50
0.16059,57.68785852,11.98133933,57.68785900,11.98133933,10:07:33.607025,0.00317,0.00000,-0.00668,0.02001,0.00582,-0.00800,-0.02051,-0.07967,-0.04319,1.02895,0.15700,0.00000,0.23239,0.23809,0.00000,0.00278,0.13772,0.00000,0.05560,1.57080,1.57080,A,100733.50
0.17120,57.68785852,11.98133933,57.68785900,11.98133933,10:07:33.617651,0.00339,0.00000,-0.00734,0.02094,0.01758,0.00254,-0.01960,-0.06655,-0.04124,0.99948,0.16740,0.00000,0.23239,0.23809,0.00000,0.00278,0.13772,0.00000,0.05560,1.57080,1.57080,A,100733.50
0.18138,57.68785852,11.98133933,57.68785900,11.98133933,10:07:33.627816,0.00318,0.00000,-0.00785,0.02193,0.01666,0.01231,-0.01517,-0.03593,-0.03074,0.95087,0.17780,0.00000,0.23239,0.23809,0.00000,0.00278,0.13772,0.00000,0.05560,1.57080,1.57080,A,100733.50
0.19183,57.68785852,11.98133933,57.68785900,11.98133933,10:07:33.638281,0.00323,0.00000,-0.00854,0.02290,0.02048,0.01430,-0.01211,-0.02001,-0.04282,0.92470,0.18822,0.00000,0.23239,0.23809,0.00000,0.00278,0.13772,0.00000,0.05560,1.57080,1.57080,A,100733.50
0.20211,57.68785852,11.98133933,57.68785900,11.98133933,10:07:33.648547,0.00297,0.00000,-0.00922,0.02386,0.02170,0.01170,-0.00356,-0.05026,-0.04569,0.95672,0.19853,0.00000,0.23239,0.23809,0.00000,0.00278,0.13772,0.00000,0.05560,1.57080,1.57080,A,100733.50
0.21292,57.68785852,11.98133933,57.68785900,11.98133933,10:07:33.659354,0.00332,0.00000,-0.01009,0.02488,0.02414,0.01139,-0.00310,-0.06307,-0.06405,1.01144,0.20933,0.00000,0.23239,0.23809,0.00000,0.00278,0.13772,0.00000,0.05560,1.57080,1.57080,A,100733.50
0.22329,57.68785852,11.98133933,57.68785900,11.98133933,10:07:33.669737,0.00319,0.00000,-0.01058,0.02581,0.02537,0.01323,-0.00295,-0.04081,-0.04093,1.06579,0.21947,0.00000,0.23239,0.23809,0.00000,0.00278,0.13772,0.00000,0.05560,1.57080,1.57080,A,100733.50
0.23365,57.68785852,11.98133933,57.68785900,11.98133933,10:07:33.680090,0.00315,0.00000,-0.01133,0.02675,0.02124,0.01262,-0.00402,0.00415,-0.05893,1.07677,0.23007,0.00000,0.23239,0.23809,0.00000,0.00278,0.13772,0.00000,0.05560,1.57080,1.57080,A,100733.50
0.25939,57.68785852,11.98133933,57.68785950,11.98133883,10:07:33.706622,0.01850,0.00000,-0.01204,0.02757,0.01651,0.00376,-0.01059,0.04813,-0.05057,1.03761,0.24043,0.00000,0.23239,0.23809,0.00000,0.00278,0.25539,-0.02972,0.11119,2.06169,2.06169,A,100733.60
0.28044,57.68785857,11.98133931,57.68785950,11.98133883,10:07:33.726864,0.00805,0.00000,-0.01198,0.02986,0.02170,0.00864,-0.00906,-0.07777,-0.03166,0.92574,0.27345,0.00000,0.50545,0.51432,-0.00149,0.00820,0.25539,-0.02972,0.11119,2.06169,2.06169,A,100733.60
0.28595,57.68785857,11.98133931,57.68785950,11.98133883,10:07:33.732374,0.00298,0.00000,-0.01304,0.03057,0.02430,0.01139,-0.00830,-0.04825,-0.07021,0.92488,0.28236,0.00000,0.50545,0.51432,-0.00149,0.00820,0.25539,-0.02972,0.11119,2.06169,2.06169,A,100733.60
0.29652,57.68785857,11.98133931,57.68785950,11.98133883,10:07:33.742938,0.00315,0.00000,-0.01424,0.03119,0.02506,0.01460,-0.01059,-0.00067,-0.08497,0.95081,0.29293,0.00000,0.50545,0.51432,-0.00149,0.00820,0.25539,-0.02972,0.11119,2.06169,2.06169,A,100733.60
0.30659,57.68785857,11.98133931,57.68785950,11.98133883,10:07:33.753219,0.00300,0.00000,-0.01536,0.03161,0.01895,0.00651,-0.00723,0.01330,-0.07857,0.97667,0.30300,0.00000,0.50545,0.51432,-0.00149,0.00820,0.25539,-0.02972,0.11119,2.06169,2.06169,A,100733.60
0.31715,57.68785857,11.98133931,57.68785950,11.98133883,10:07:33.763571,0.00316,0.00000,-0.01612,0.03181,0.01254,-0.00205,-0.00814,0.00756,-0.05533,1.02626,0.31356,0.00000,0.50545,0.51432,-0.00149,0.00820,0.25539,-0.02972,0.11119,2.06169,2.06169,A,100733.60
0.32754,57.68785857,11.98133931,57.68785950,11.98133883,10:07:33.773961,0.00316,0.00000,-0.01647,0.03184,0.01437,-0.00663,-0.01517,-0.01763,-0.03062,1.09196,0.32394,0.00000,0.50545,0.51432,-0.00149,0.00820,0.25539,-0.02972,0.11119,2.06169,2.06169,A,100733.60
0.33794,57.68785857,11.98133931,57.68785950,11.98133883,10:07:33.784355,0.00298,0.00000,-0.01710,0.03184,0.01544,-0.00709,-0.01196,-0.04355,-0.05197,1.06829,0.33435,0.00000,0.50545,0.51432,-0.00149,0.00820,0.25539,-0.02972,0.11119,2.06169,2.06169,A,100733.60
0.34853,57.68785857,11.98133931,57.68785950,11.98133883,10:07:33.794950,0.00318,0.00000,-0.01716,0.03184,0.01559,-0.00754,-0.01578,-0.00256,-0.01086,1.00851,0.34494,0.00000,0.50545,0.51432,-0.00149,0.00820,0.25539,-0.02972,0.11119,2.06169,2.06169,A,100733.60
0.37415,57.68785857,11.98133931,57.68786017,11.98133867,10:07:33.820581,0.01857,0.00000,-0.01784,0.03184,0.01177,-0.00632,-0.01837,0.01873,-0.04599,0.94227,0.35498,0.00000,0.50545,0.51432,-0.00149,0.00820,0.37020,-0.03962,0.18532,1.70364,1.70364,A,100733.70
0.39275,57.68785865,11.98133928,57.68786017,11.98133867,10:07:33.839171,0.00667,0.00000,-0.01785,0.03184,0.01422,-0.00143,-0.00677,-0.08070,-0.02660,0.97466,0.38689,0.00000,0.68376,0.69322,-0.00339,0.01706,0.37020,-0.03962,0.18532,1.70364,1.70364,A,100733.70
0.39975,57.68785865,11.98133928,57.68786017,11.98133867,10:07:33.846178,0.00328,0.00000,-0.01809,0.03184,0.01956,0.01246,-0.00738,-0.08552,-0.02562,1.03828,0.39614,0.00000,0.68376,0.69322,-0.00339,0.01706,0.37020,-0.03962,0.18532,1.70364,1.70364,A,100733.70
0.40996,57.68785865,11.98133928,57.68786017,11.98133867,10:07:33.856391,0.00324,0.00000,-0.01880,0.03184,0.02414,0.01888,-0.00707,0.02037,-0.06466,1.05658,0.40637,0.00000,0.68376,0.69322,-0.00339,0.01706,0.37020,-0.03962,0.18532,1.70364,1.70364,A,100733.70
0.42043,57.68785865,11.98133928,57.68786017,11.98133867,10:07:33.866855,0.00331,0.00000,-0.01967,0.03184,0.01804,0.01048,-0.00448,0.08381,-0.07082,1.04109,0.41683,0.00000,0.68376,0.69322,-0.00339,0.01706,0.37020,-0.03962,0.18532,1.70364,1.70364,A,100733.70
0.43035,57.68785865,11.98133928,57.68786017,11.98133867,10:07:33.876769,0.00300,0.00000,-0.02062,0.03184,0.01574,-0.00968,-0.00967,0.04398,-0.07674,1.05987,0.42676,0.00000,0.68376,0.69322,-0.00339,0.01706,0.37020,-0.03962,0.18532,1.70364,1.70364,A,100733.70
0.44104,57.68785865,11.98133928,57.68786017,11.98133867,10:07:33.887458,0.00330,0.00000,-0.02118,0.03184,0.00933,-0.01365,-0.01333,-0.03849,-0.04490,1.03529,0.43745,0.00000,0.68376,0.69322,-0.00339,0.01706,0.37020,-0.03962,0.18532,1.70364,1.70364,A,100733.70
0.45130,57.68785865,11.98133928,57.68786017,11.98133867,10:07:33.897725,0.00317,0.00000,-0.02129,0.03184,0.01406,-0.00983,-0.01364,-0.04746,-0.01635,0.97832,0.44750,0.00000,0.68376,0.69322,-0.00339,0.01706,0.37020,-0.03962,0.18532,1.70364,1.70364,A,100733.70
0.46168,57.68785865,11.98133928,57.68786017,11.98133867,10:07:33.908097,0.00315,0.00000,-0.02179,0.03184,0.01223,-0.00647,-0.02112,-0.03263,-0.03892,0.91848,0.45810,0.00000,0.68376,0.69322,-0.00339,0.01706,0.37020,-0.03962,0.18532,1.70364,1.70364,A,100733.70
0.48827,57.68785865,11.98133928,57.68786067,11.98133800,10:07:33.934703,0.01934,0.00000,-0.02211,0.03184,0.00704,0.00544,-0.02708,-0.01397,-0.02470,0.92543,0.46874,0.00000,0.68376,0.69322,-0.00339,0.01706,0.48369,-0.07925,0.24092,2.19000,2.19000,A,100733.80
0.50358,57.68785875,11.98133921,57.68786067,11.98133800,10:07:33.950018,0.00743,0.00000,-0.02260,0.03184,0.00108,0.00223,-0.01990,0.00092,-0.03654,1.01339,0.49712,0.00000,0.90828,0.91774,-0.00719,0.02825,0.48369,-0.07925,0.24092,2.19000,2.19000,A,100733.80
0.50972,57.68785875,11.98133921,57.68786067,11.98133800,10:07:33.956145,0.00317,0.00000,-0.02303,0.03184,-0.00258,0.00467,-0.01349,-0.03324,-0.03062,1.06622,0.50614,0.00000,0.90828,0.91774,-0.00719,0.02825,0.48369,-0.07925,0.24092,2.19000,2.19000,A,100733.80
0.52015,57.68785875,11.98133921,57.68786067,11.98133800,10:07:33.966565,0.00320,0.00000,-0.02310,0.03184,0.00628,0.00666,-0.00891,-0.03611,-0.01165,1.10276,0.51655,0.00000,0.90828,0.91774,-0.00719,0.02825,0.48369,-0.07925,0.24092,2.19000,2.19000,A,100733.80
0.53019,57.68785875,11.98133921,57.68786067,11.98133800,10:07:33.976613,0.00296,0.00000,-0.02366,0.03184,0.00169,0.01246,-0.00356,0.01623,-0.04307,1.05682,0.52661,0.00000,0.90828,0.91774,-0.00719,0.02825,0.48369,-0.07925,0.24092,2.19000,2.19000,A,100733.80
0.54077,57.68785875,11.98133921,57.68786067,11.98133800,10:07:33.987188,0.00315,0.00000,-0.02451,0.03184,-0.00182,0.00361,-0.00234,0.02836,-0.05777,1.00022,0.53718,0.00000,0.90828,0.91774,-0.00719,0.02825,0.48369,-0.07925,0.24092,2.19000,2.19000,A,100733.80
0.55118,57.68785875,11.98133921,57.68786067,11.98133800,10:07:33.997612,0.00316,0.00000,-0.02529,0.03184,-0.00762,0.00040,-0.00173,-0.03904,-0.05039,0.98863,0.54737,0.00000,0.90828,0.91774,-0.00719,0.02825,0.48369,-0.07925,0.24092,2.19000,2.19000,A,100733.80
0.56158,57.68785875,11.98133921,57.68786067,11.98133800,10:07:34.007998,0.00317,0.00000,-0.02568,0.03184,-0.01022,0.00361,-0.00417,-0.06039,-0.02202,0.96880,0.55800,0.00000,0.90828,0.91774,-0.00719,0.02825,0.48369,-0.07925,0.24092,2.19000,2.19000,A,100733.80
0.57221,57.68785875,11.98133921,57.68786067,11.98133800,10:07:34.018635,0.00340,0.00000,-0.02579,0.03184,-0.00014,0.01872,-0.00509,-0.03861,-0.01122,0.93013,0.56860,0.00000,0.90828,0.91774,-0.00719,0.02825,0.48369,-0.07925,0.24092,2.19000,2.19000,A,100733.80
0.58219,57.68785875,11.98133921,57.68786067,11.98133800,10:07:34.028610,0.00297,0.00000,-0.02670,0.03184,-0.00166,0.01170,-0.00967,0.02989,-0.05923,0.92458,0.57860,0.00000,0.90828,0.91774,-0.00719,0.02825,0.48369,-0.07925,0.24092,2.19000,2.19000,A,100733.80
0.60982,57.68785875,11.98133921,57.68786100,11.98133767,10:07:34.056262,0.02020,0.00000,-0.02747,0.03184,-0.00533,0.00406,-0.00845,0.02068,-0.05045,0.94269,0.58916,0.00000,0.90828,0.91774,-0.00719,0.02825,0.60419,-0.09906,0.27799,2.06169,2.06169,A,100733.90
0.62797,57.68785887,11.98133914,57.68786100,11.98133767,10:07:34.074395,0.00668,0.00000,-0.02851,0.03266,-0.01480,0.01506,-0.01517,-0.01006,-0.04727,1.06909,0.62206,0.00000,1.07984,1.08953,-0.01178,0.04074,0.60419,-0.09906,0.27799,2.06169,2.06169,A,100733.90
0.63449,57.68785887,11.98133914,57.68786100,11.98133767,10:07:34.081115,0.00298,0.00000,-0.02906,0.03311,-0.01755,0.01307,-0.01517,0.05392,-0.03465,1.02895,0.63090,0.00000,1.07984,1.08953,-0.01178,0.04074,0.60419,-0.09906,0.27799,2.06169,2.06169,A,100733.90
0.64507,57.68785887,11.98133914,57.68786100,11.98133767,10:07:34.091487,0.00316,0.00000,-0.02971,0.03368,-0.01266,-0.00388,-0.01410,0.08162,-0.04203,0.98222,0.64148,0.00000,1.07984,1.08953,-0.01178,0.04074,0.60419,-0.09906,0.27799,2.06169,2.06169,A,100733.90
0.65547,57.68785887,11.98133914,57.68786100,11.98133767,10:07:34.101894,0.00317,0.00000,-0.03010,0.03419,-0.01190,-0.02358,-0.01517,-0.02556,-0.02605,0.99717,0.65185,0.00000,1.07984,1.08953,-0.01178,0.04074,0.60419,-0.09906,0.27799,2.06169,2.06169,A,100733.90
0.66590,57.68785887,11.98133914,57.68786100,11.98133767,10:07:34.112328,0.00315,0.00000,-0.03022,0.03473,-0.00564,-0.01319,-0.01089,-0.07308,-0.01379,0.99948,0.66232,0.00000,1.07984,1.08953,-0.01178,0.04074,0.60419,-0.09906,0.27799,2.06169,2.06169,A,100733.90
0.67640,57.68785887,11.98133914,57.68786100,11.98133767,10:07:34.122825,0.00325,0.00000,-0.03074,0.03527,-0.00121,0.00269,-0.00646,-0.08253,-0.04191,0.98576,0.67282,0.00000,1.07984,1.08953,-0.01178,0.04074,0.60419,-0.09906,0.27799,2.06169,2.06169,A,100733.90
0.68638,57.68785887,11.98133914,57.68786100,11.98133767,10:07:34.132794,0.00299,0.00000,-0.03165,0.03589,-0.00166,0.02071,-0.00356,-0.01189,-0.06503,0.93001,0.68279,0.00000,1.07984,1.08953,-0.01178,0.04074,0.60419,-0.09906,0.27799,2.06169,2.06169,A,100733.90
0.69694,57.68785887,11.98133914,57.68786100,11.98133767,10:07:34.143352,0.00315,0.00000,-0.03289,0.03657,0.00032,0.01536,-0.00310,0.06612,-0.08449,0.90689,0.69334,0.00000,1.07984,1.08953,-0.01178,0.04074,0.60419,-0.09906,0.27799,2.06169,2.06169,A,100733.90
0.73457,57.68785887,11.98133914,57.68786250,11.98133683,10:07:34.181223,0.03039,0.00000,-0.03335,0.03736,-0.00655,0.00895,0.00194,-0.00598,-0.03672,0.95880,0.70354,0.00000,1.07984,1.08953,-0.01178,0.04074,0.72962,-0.14859,0.44478,1.85946,1.85946,A,100734.10
0.75242,57.68785905,11.98133902,57.68786250,11.98133683,10:07:34.198900,0.00776,0.00000,-0.03396,0.04172,-0.00396,0.01124,-0.00341,0.07320,-0.04355,1.03285,0.74583,0.00000,1.19492,1.20731,-0.01862,0.06094,0.72962,-0.14859,0.44478,1.85946,1.85946,A,100734.10
0.75850,57.68785905,11.98133902,57.68786250,11.98133683,10:07:34.205198,0.00331,0.00000,-0.03461,0.04299,-0.00548,-0.00235,-0.00005,0.01836,-0.05514,1.03877,0.75460,0.00000,1.19492,1.20731,-0.01862,0.06094,0.72962,-0.14859,0.44478,1.85946,1.85946,A,100734.10
0.76873,57.68785905,11.98133902,57.68786250,11.98133683,10:07:34.215154,0.00315,0.00000,-0.03497,0.04452,-0.00579,-0.00281,-0.00494,-0.05679,-0.03434,1.02791,0.76515,0.00000,1.19492,1.20731,-0.01862,0.06094,0.72962,-0.14859,0.44478,1.85946,1.85946,A,100734.10
0.77913,57.68785905,11.98133902,57.68786250,11.98133683,10:07:34.225564,0.00315,0.00000,-0.03493,0.04608,-0.00212,0.00696,-0.00326,-0.08430,-0.01031,0.99515,0.77534,0.00000,1.19492,1.20731,-0.01862,0.06094,0.72962,-0.14859,0.44478,1.85946,1.85946,A,100734.10
0.78969,57.68785905,11.98133902,57.68786250,11.98133683,10:07:34.236110,0.00332,0.00000,-0.03502,0.04777,0.00215,0.01170,0.00041,0.00525,-0.01995,0.95099,0.78610,0.00000,1.19492,1.20731,-0.01862,0.06094,0.72962,-0.14859,0.44478,1.85946,1.85946,A,100734.10
0.79992,57.68785905,11.98133902,57.68786250,11.98133683,10:07:34.246340,0.00314,0.00000,-0.03569,0.04939,0.00597,0.00483,0.00423,0.04520,-0.05789,0.92494,0.79633,0.00000,1.19492,1.20731,-0.01862,0.06094,0.72962,-0.14859,0.44478,1.85946,1.85946,A,100734.10
0.81035,57.68785905,11.98133902,57.68786250,11.98133683,10:07:34.256766,0.00313,0.00000,-0.03617,0.05106,0.00582,-0.00647,0.01278,0.02544,-0.04776,0.93751,0.80676,0.00000,1.19492,1.20731,-0.01862,0.06094,0.72962,-0.14859,0.44478,1.85946,1.85946,A,100734.10
0.82078,57.68785905,11.98133902,57.68786250,11.98133683,10:07:34.267197,0.00316,0.00000,-0.03656,0.05256,0.00460,-0.00815,0.01797,-0.03434,-0.04508,1.01449,0.81719,0.00000,1.19492,1.20731,-0.01862,0.06094,0.72962,-0.14859,0.44478,1.85946,1.85946,A,100734.10
0.84636,57.68785905,11.98133902,57.68786283,11.98133633,10:07:34.292792,0.01835,0.00000,-0.03687,0.05394,0.00444,0.00101,0.01751,-0.07979,-0.04099,1.04536,0.82736,0.00000,1.19492,1.20731,-0.01862,0.06094,0.84236,-0.17831,0.48184,2.24663,2.24663,A,100734.20
0.86065,57.68785924,11.98133889,57.68786283,11.98133633,10:07:34.307106,0.00740,0.00000,-0.03704,0.05714,-0.00548,-0.00159,0.01263,0.09309,-0.01726,0.99845,0.85370,0.00000,1.35013,1.36711,-0.02660,0.08198,0.84236,-0.17831,0.48184,2.24663,2.24663,A,100734.20
0.86797,57.68785924,11.98133889,57.68786283,11.98133633,10:07:34.314397,0.00385,0.00000,-0.03706,0.05847,-0.00380,-0.01487,0.01263,-0.02568,-0.01519,1.00022,0.86436,0.00000,1.35013,1.36711,-0.02660,0.08198,0.84236,-0.17831,0.48184,2.24663,2.24663,A,100734.20
0.87769,57.68785924,11.98133889,57.68786283,11.98133633,10:07:34.324107,0.00316,0.74031,-0.03705,0.05986,-0.00701,-0.01732,0.01339,-0.07723,-0.00750,0.99009,0.87411,0.00000,1.35013,1.36711,-0.02660,0.08198,0.84236,-0.17831,0.48184,2.24663,2.24663,A,100734.20
0.88802,57.68785924,11.98133889,57.68786283,11.98133633,10:07:34.334441,0.00310,0.74031,-0.03744,0.06139,-0.00289,-0.00052,0.01247,-0.07613,-0.03611,0.97368,0.88443,0.00000,1.35013,1.36711,-0.02660,0.08198,0.84236,-0.17831,0.48184,2.24663,2.24663,A,100734.20
0.89819,57.68785924,11.98133889,57.68786283,11.98133633,10:07:34.344613,0.00296,0.74031,-0.03856,0.06297,-0.00854,0.01216,0.01339,-0.00390,-0.07753,0.94282,0.89461,0.00000,1.35013,1.36711,-0.02660,0.08198,0.84236,-0.17831,0.48184,2.24663,2.24663,A,100734.20
0.90875,57.68785924,11.98133889,57.68786283,11.98133633,10:07:34.355170,0.00313,0.74031,-0.03947,0.06456,-0.01236,0.00635,0.01171,0.05697,-0.05978,0.90134,0.90517,0.00000,1.35013,1.36711,-0.02660,0.08198,0.84236,-0.17831,0.48184,2.24663,2.24663,A,100734.20
0.91934,57.68785924,11.98133889,57.68786283,11.98133633,10:07:34.365779,0.00332,0.74031,-0.03993,0.06600,-0.01174,-0.00342,0.01507,0.02025,-0.03721,0.97039,0.91538,0.00000,1.35013,1.36711,-0.02660,0.08198,0.84236,-0.17831,0.48184,2.24663,2.24663,A,100734.20
0.92961,57.68785924,11.98133889,57.68786283,11.98133633,10:07:34.376029,0.00319,0.74031,-0.04037,0.06728,-0.01159,-0.00663,0.01919,-0.03233,-0.03941,1.06109,0.92602,0.00000,1.35013,1.36711,-0.02660,0.08198,0.84236,-0.17831,0.48184,2.24663,2.24663,A,100734.20
0.93995,57.68785924,11.98133889,57.68786283,11.98133633,10:07:34.386377,0.00314,0.74031,-0.04090,0.06829,-0.01510,-0.00235,0.01721,-0.02928,-0.04612,1.11313,0.93636,0.00000,1.35013,1.36711,-0.02660,0.08198,0.84236,-0.17831,0.48184,2.24663,2.24663,A,100734.20
0.96552,57.68785924,11.98133889,57.68786367,11.98133567,10:07:34.411951,0.01830,0.74031,-0.04184,0.06909,-0.01770,0.00269,0.01782,0.04136,-0.07283,1.07958,0.94660,0.00000,1.35013,1.36711,-0.02660,0.08198,0.96152,-0.21794,0.57451,1.97489,1.97489,A,100734.30
0.97859,57.68785946,11.98133872,57.68786367,11.98133567,10:07:34.425263,0.00749,0.74031,-0.04258,0.07005,-0.02030,0.01399,0.01736,-0.08766,-0.03337,0.99894,0.97188,0.14806,1.44072,1.46155,-0.03617,0.10661,0.96152,-0.21794,0.57451,1.97489,1.97489,A,100734.30
0.98467,57.68785946,11.98133872,57.68786367,11.98133567,10:07:34.431096,0.00317,0.74031,-0.04277,0.07013,-0.01816,0.03476,0.01828,-0.02507,-0.01824,0.93434,0.98108,0.14806,1.44072,1.46155,-0.03617,0.10661,0.96152,-0.21794,0.57451,1.97489,1.97489,A,100734.30
0.99506,57.68785946,11.98133872,57.68786367,11.98133567,10:07:34.441488,0.00317,0.74031,-0.04319,0.07013,-0.01251,0.02392,0.02210,0.04477,-0.03190,0.85955,0.99125,0.14806,1.44072,1.46155,-0.03617,0.10661,0.96152,-0.21794,0.57451,1.97489,1.97489,A,100734.30
1.00549,57.68785946,11.98133872,57.68786367,11.98133567,10:07:34.451913,0.00320,0.74031,-0.04391,0.07013,-0.01785,-0.00693,0.02194,0.02105,-0.04837,0.88840,1.00189,0.14806,1.44072,1.46155,-0.03617,0.10661,0.96152,-0.21794,0.57451,1.97489,1.97489,A,100734.30
1.01583,57.68785946,11.98133872,57.68786367,11.98133567,10:07:34.462251,0.00315,0.74031,-0.04425,0.07013,-0.01312,-0.01044,0.02286,-0.04142,-0.03306,1.00845,1.01222,0.14806,1.44072,1.46155,-0.03617,0.10661,0.96152,-0.21794,0.57451,1.97489,1.97489,A,100734.30
1.02618,57.68785946,11.98133872,57.68786367,11.98133567,10:07:34.472598,0.00296,0.74031,-0.04493,0.07013,-0.01281,-0.00143,0.02301,-0.05783,-0.06191,1.08208,1.02260,0.14806,1.44072,1.46155,-0.03617,0.10661,0.96152,-0.21794,0.57451,1.97489,1.97489,A,100734.30
1.03676,57.68785946,11.98133872,57.68786367,11.98133567,10:07:34.483176,0.00315,0.74031,-0.04578,0.07013,-0.01144,0.01353,0.02210,0.03398,-0.07527,1.08610,1.03316,0.14806,1.44072,1.46155,-0.03617,0.10661,0.96152,-0.21794,0.57451,1.97489,1.97489,A,100734.30
1.04717,57.68785946,11.98133872,57.68786367,11.98133567,10:07:34.493603,0.00316,0.74031,-0.04689,0.07013,-0.01694,0.01414,0.01568,0.11425,-0.08180,0.97063,1.04337,0.14806,1.44072,1.46155,-0.03617,0.10661,0.96152,-0.21794,0.57451,1.97489,1.97489,A,100734.30
1.05756,57.68785946,11.98133872,57.68786367,11.98133567,10:07:34.503980,0.00316,0.74031,-0.04699,0.07013,-0.02961,-0.01182,0.01186,0.04795,-0.00793,0.93330,1.05397,0.14806,1.44072,1.46155,-0.03617,0.10661,0.96152,-0.21794,0.57451,1.97489,1.97489,A,100734.30
1.08378,57.68785946,11.98133872,57.68786433,11.98133500,10:07:34.530209,0.01898,0.74031,-0.04705,0.07013,-0.01510,-0.02679,0.01293,-0.03630,-0.01458,0.91531,1.06434,0.14806,1.44072,1.46155,-0.03617,0.10661,1.07966,-0.25756,0.64864,2.06169,2.06169,A,100734.40
1.10506,57.68785986,11.98133857,57.68786433,11.98133500,10:07:34.551489,0.00852,0.74031,-0.04833,0.07013,-0.01251,-0.00663,0.01706,0.07881,-0.08241,1.03242,1.09918,0.26651,1.53175,1.55260,-0.04532,0.15120,1.07966,-0.25756,0.64864,2.06169,2.06169,A,100734.40
1.11007,57.68785986,11.98133857,57.68786433,11.98133500,10:07:34.556656,0.00299,0.74031,-0.04945,0.07013,-0.01419,-0.01610,0.02011,0.06387,-0.09797,1.06286,1.10647,0.26651,1.53175,1.55260,-0.04532,0.15120,1.07966,-0.25756,0.64864,2.06169,2.06169,A,100734.40
1.12083,57.68785986,11.98133857,57.68786433,11.98133500,10:07:34.567251,0.00335,0.74031,-0.05001,0.07013,-0.02457,-0.01671,0.02332,0.00134,-0.04825,1.06488,1.11723,0.26651,1.53175,1.55260,-0.04532,0.15120,1.07966,-0.25756,0.64864,2.06169,2.06169,A,100734.40
1.13104,57.68785986,11.98133857,57.68786433,11.98133500,10:07:34.577481,0.00317,0.74031,-0.04976,0.07013,-0.02121,-0.00770,0.02378,-0.11694,0.00500,1.06366,1.12724,0.26651,1.53175,1.55260,-0.04532,0.15120,1.07966,-0.25756,0.64864,2.06169,2.06169,A,100734.40
1.14146,57.68785986,11.98133857,57.68786433,11.98133500,10:07:34.587875,0.00319,0.74031,-0.04975,0.07013,-0.00884,0.00926,0.02408,-0.07375,-0.01800,0.98460,1.13787,0.26651,1.53175,1.55260,-0.04532,0.15120,1.07966,-0.25756,0.64864,2.06169,2.06169,A,100734.40
1.15183,57.68785986,11.98133857,57.68786433,11.98133500,10:07:34.598248,0.00317,0.74031,-0.04989,0.07013,-0.00609,0.00941,0.02271,0.03544,-0.02818,0.94068,1.14822,0.26651,1.53175,1.55260,-0.04532,0.15120,1.07966,-0.25756,0.64864,2.06169,2.06169,A,100734.40
1.16219,57.68785986,11.98133857,57.68786433,11.98133500,10:07:34.608606,0.00298,0.74031,-0.05088,0.07013,-0.00441,-0.00800,0.02042,0.06881,-0.07875,0.89005,1.15859,0.26651,1.53175,1.55260,-0.04532,0.15120,1.07966,-0.25756,0.64864,2.06169,2.06169,A,100734.40
1.17314,57.68785986,11.98133857,57.68786433,11.98133500,10:07:34.619560,0.00353,0.74031,-0.05183,0.07013,-0.00777,-0.03213,0.01690,0.06326,-0.07741,0.91683,1.16953,0.26651,1.53175,1.55260,-0.04532,0.15120,1.07966,-0.25756,0.64864,2.06169,2.06169,A,100734.40
1.19944,57.68785986,11.98133857,57.68786500,11.98133450,10:07:34.645889,0.01945,0.74031,-0.05199,0.07013,-0.00793,-0.03549,0.01904,-0.04825,-0.03276,0.99802,1.17935,0.26651,1.53175,1.55260,-0.04532,0.15120,1.19434,-0.28728,0.72277,1.95208,1.95208,A,100734.50
1.21261,57.68786035,11.98133838,57.68786500,11.98133450,10:07:34.659038,0.00686,0.74031,-0.05275,0.07013,0.00185,0.01460,0.01706,0.00500,-0.08625,1.05676,1.20545,0.36127,1.59318,1.61403,-0.05694,0.20615,1.19434,-0.28728,0.72277,1.95208,1.95208,A,100734.50
1.21939,57.68786035,11.98133838,57.68786500,11.98133450,10:07:34.665822,0.00342,0.74031,-0.05339,0.07013,-0.00548,0.00773,0.01202,0.06826,-0.06911,1.02242,1.21557,0.36127,1.59318,1.61403,-0.05694,0.20615,1.19434,-0.28728,0.72277,1.95208,1.95208,A,100734.50
1.22952,57.68786035,11.98133838,57.68786500,11.98133450,10:07:34.675941,0.00316,0.74031,-0.05361,0.07013,-0.00808,-0.00907,0.00545,0.03904,-0.03715,0.97606,1.22594,0.36127,1.59318,1.61403,-0.05694,0.20615,1.19434,-0.28728,0.72277,1.95208,1.95208,A,100734.50
1.23999,57.68786035,11.98133838,57.68786500,11.98133450,10:07:34.686420,0.00323,0.74031,-0.05361,0.07013,-0.00243,-0.01854,0.00362,-0.01061,-0.02696,0.97606,1.23638,0.36127,1.59318,1.61403,-0.05694,0.20615,1.19434,-0.28728,0.72277,1.95208,1.95208,A,100734.50
1.25020,57.68786035,11.98133838,57.68786500,11.98133450,10:07:34.696613,0.00298,0.74031,-0.05400,0.07013,-0.00228,-0.02022,0.00484,-0.05203,-0.05185,0.97039,1.24660,0.36127,1.59318,1.61403,-0.05694,0.20615,1.19434,-0.28728,0.72277,1.95208,1.95208,A,100734.50
1.26076,57.68786035,11.98133838,57.68786500,11.98133450,10:07:34.707178,0.00314,0.74031,-0.05447,0.07013,-0.00182,-0.01503,0.00545,-0.03190,-0.05728,0.96246,1.25718,0.36127,1.59318,1.61403,-0.05694,0.20615,1.19434,-0.28728,0.72277,1.95208,1.95208,A,100734.50
1.27116,57.68786035,11.98133838,57.68786500,11.98133450,10:07:34.717595,0.00315,0.74031,-0.05485,0.07013,-0.00044,-0.00861,0.00698,0.02068,-0.05325,0.96795,1.26737,0.36127,1.59318,1.61403,-0.05694,0.20615,1.19434,-0.28728,0.72277,1.95208,1.95208,A,100734.50
1.28167,57.68786035,11.98133838,57.68786500,11.98133450,10:07:34.728090,0.00325,0.74031,-0.05520,0.07013,-0.00502,-0.01319,0.01797,0.04795,-0.04923,0.97545,1.27808,0.36127,1.59318,1.61403,-0.05694,0.20615,1.19434,-0.28728,0.72277,1.95208,1.95208,A,100734.50
1.29235,57.68786035,11.98133838,57.68786500,11.98133450,10:07:34.738785,0.00353,0.74031,-0.05547,0.07013,0.00505,-0.01518,0.02332,-0.01318,-0.05459,1.03950,1.28875,0.36127,1.59318,1.61403,-0.05694,0.20615,1.19434,-0.28728,0.72277,1.95208,1.95208,A,100734.50
1.32946,57.68786035,11.98133838,57.68786667,11.98133300,10:07:34.775912,0.03025,0.74031,-0.05574,0.07013,0.00215,-0.00235,0.02378,-0.05600,-0.05380,1.05682,1.29861,0.36127,1.59318,1.61403,-0.05694,0.20615,1.32452,-0.37644,0.90809,2.01919,2.01919,A,100734.70
1.34467,57.68786107,11.98133807,57.68786667,11.98133300,10:07:34.791090,0.00788,0.74031,-0.05597,0.07013,-0.01129,-0.02022,0.00255,0.01434,-0.01659,0.99930,1.33878,0.43708,1.65652,1.67737,-0.07484,0.28580,1.32452,-0.37644,0.90809,2.01919,2.01919,A,100734.70
1.35019,57.68786107,11.98133807,57.68786667,11.98133300,10:07:34.796611,0.00298,0.74031,-0.05578,0.07013,-0.00854,-0.02175,-0.00005,-0.02513,-0.01452,1.00473,1.34660,0.43708,1.65652,1.67737,-0.07484,0.28580,1.32452,-0.37644,0.90809,2.01919,2.01919,A,100734.70
1.36076,57.68786107,11.98133807,57.68786667,11.98133300,10:07:34.807173,0.00315,0.74031,-0.05622,0.07013,-0.01969,-0.01732,0.00423,-0.07619,-0.04856,1.02632,1.35716,0.43708,1.65652,1.67737,-0.07484,0.28580,1.32452,-0.37644,0.90809,2.01919,2.01919,A,100734.70
1.37124,57.68786107,11.98133807,57.68786667,11.98133300,10:07:34.817680,0.00324,0.74031,-0.05683,0.07013,-0.02137,-0.00510,0.00530,-0.07283,-0.05948,1.01473,1.36738,0.43708,1.65652,1.67737,-0.07484,0.28580,1.32452,-0.37644,0.90809,2.01919,2.01919,A,100734.70
1.38158,57.68786107,11.98133807,57.68786667,11.98133300,10:07:34.827988,0.00317,0.74031,-0.05745,0.07013,-0.02854,0.00574,0.01049,-0.03306,-0.05264,0.97972,1.37799,0.43708,1.65652,1.67737,-0.07484,0.28580,1.32452,-0.37644,0.90809,2.01919,2.01919,A,100734.70
1.39195,57.68786107,11.98133807,57.68786667,11.98133300,10:07:34.838372,0.00315,0.74031,-0.05798,0.07013,-0.03328,0.00315,0.01736,0.01757,-0.04307,0.94501,1.38834,0.43708,1.65652,1.67737,-0.07484,0.28580,1.32452,-0.37644,0.90809,2.01919,2.01919,A,100734.70
1.40219,57.68786107,11.98133807,57.68786667,11.98133300,10:07:34.848613,0.00298,0.74031,-0.05850,0.07013,-0.03984,-0.00846,0.01690,0.00641,-0.03843,0.94202,1.39861,0.43708,1.65652,1.67737,-0.07484,0.28580,1.32452,-0.37644,0.90809,2.01919,2.01919,A,100734.70
1.41291,57.68786107,11.98133807,57.68786667,11.98133300,10:07:34.859329,0.00318,0.74031,-0.05871,0.07013,-0.03633,-0.01228,0.01980,-0.02751,-0.02202,0.97197,1.40932,0.43708,1.65652,1.67737,-0.07484,0.28580,1.32452,-0.37644,0.90809,2.01919,2.01919,A,100734.70
1.42337,57.68786107,11.98133807,57.68786667,11.98133300,10:07:34.869795,0.00324,0.74031,-0.05960,0.07013,-0.04275,-0.01151,0.01721,-0.06801,-0.06655,1.01839,1.41948,0.43708,1.65652,1.67737,-0.07484,0.28580,1.32452,-0.37644,0.90809,2.01919,2.01919,A,100734.70
1.45007,57.68786107,11.98133807,57.68786767,11.98133217,10:07:34.896508,0.01955,0.74031,-0.06044,0.07013,-0.04580,-0.00159,0.01278,-0.04996,-0.06204,1.04298,1.43009,0.43708,1.65652,1.67737,-0.07484,0.28580,1.44503,-0.42597,1.01929,1.98985,1.98985,A,100734.80
1.46785,57.68786185,11.98133769,57.68786767,11.98133217,10:07:34.914287,0.00717,0.74031,-0.06264,0.07011,-0.05328,-0.00571,-0.00356,-0.03251,-0.07442,0.99948,1.46115,0.49772,1.70626,1.72710,-0.09771,0.37213,1.44503,-0.42597,1.01929,1.98985,1.98985,A,100734.80
1.47443,57.68786185,11.98133769,57.68786767,11.98133217,10:07:34.920852,0.00322,0.74031,-0.06357,0.07002,-0.05328,-0.00082,-0.00692,-0.06021,-0.06423,0.97545,1.47084,0.49772,1.70626,1.72710,-0.09771,0.37213,1.44503,-0.42597,1.01929,1.98985,1.98985,A,100734.80
1.48476,57.68786185,11.98133769,57.68786767,11.98133217,10:07:34.931171,0.00314,0.74031,-0.06455,0.06979,-0.05557,0.00376,-0.00600,-0.05783,-0.06484,0.96270,1.48117,0.49772,1.70626,1.72710,-0.09771,0.37213,1.44503,-0.42597,1.01929,1.98985,1.98985,A,100734.80
1.49519,57.68786185,11.98133769,57.68786767,11.98133217,10:07:34.941612,0.00318,0.74031,-0.06508,0.06940,-0.04809,0.00544,-0.00509,0.00037,-0.04014,0.93891,1.49138,0.49772,1.70626,1.72710,-0.09771,0.37213,1.44503,-0.42597,1.01929,1.98985,1.98985,A,100734.80
1.50571,57.68786185,11.98133769,57.68786767,11.98133217,10:07:34.952126,0.00330,0.74031,-0.06473,0.06880,-0.04351,0.01002,0.00117,0.04136,0.01275,0.96990,1.50213,0.49772,1.70626,1.72710,-0.09771,0.37213,1.44503,-0.42597,1.01929,1.98985,1.98985,A,100734.80
1.51594,57.68786185,11.98133769,57.68786767,11.98133217,10:07:34.962365,0.00314,0.74031,-0.06550,0.06812,-0.03984,0.00528,0.00545,0.01177,-0.06582,1.01315,1.51235,0.49772,1.70626,1.72710,-0.09771,0.37213,1.44503,-0.42597,1.01929,1.98985,1.98985,A,100734.80
1.52620,57.68786185,11.98133769,57.68786767,11.98133217,10:07:34.972617,0.00298,0.74031,-0.06624,0.06739,-0.04351,-0.00266,0.00911,-0.02098,-0.06612,1.07830,1.52261,0.49772,1.70626,1.72710,-0.09771,0.37213,1.44503,-0.42597,1.01929,1.98985,1.98985,A,100734.80
1.53677,57.68786185,11.98133769,57.68786767,11.98133217,10:07:34.983189,0.00316,0.74031,-0.06748,0.06677,-0.04076,-0.00479,0.01049,0.00152,-0.09925,1.01937,1.53318,0.49772,1.70626,1.72710,-0.09771,0.37213,1.44503,-0.42597,1.01929,1.98985,1.98985,A,100734.80
1.56398,57.68786185,11.98133769,57.68786867,11.98133150,10:07:35.010411,0.01997,1.08321,-0.06797,0.06628,-0.04656,-0.01136,0.00805,0.00708,-0.04038,0.99326,1.54337,0.49772,1.70626,1.72710,-0.09771,0.37213,1.55832,-0.46559,1.13048,1.91312,1.91312,A,100734.90
1.57853,57.68786264,11.98133725,57.68786867,11.98133150,10:07:35.025944,0.00793,1.08321,-0.06880,0.06595,-0.02259,-0.00357,0.00102,-0.04020,-0.05344,1.01199,1.57246,0.61482,1.73729,1.75689,-0.12408,0.46068,1.55832,-0.46559,1.13048,1.91312,1.91312,A,100734.90
1.58552,57.68786264,11.98133725,57.68786867,11.98133150,10:07:35.031934,0.00371,1.08321,-0.07069,0.06595,-0.02427,0.00177,-0.00768,0.01348,-0.14457,0.94587,1.58189,0.61482,1.73729,1.75689,-0.12408,0.46068,1.55832,-0.46559,1.13048,1.91312,1.91312,A,100734.90
1.59538,57.68786264,11.98133725,57.68786867,11.98133150,10:07:35.041799,0.00317,1.08321,-0.07198,0.06595,-0.03496,-0.00739,-0.00784,0.02263,-0.09913,0.92781,1.59156,0.61482,1.73729,1.75689,-0.12408,0.46068,1.55832,-0.46559,1.13048,1.91312,1.91312,A,100734.90
1.60588,57.68786264,11.98133725,57.68786867,11.98133150,10:07:35.052301,0.00330,1.08321,-0.07239,0.06595,-0.03190,-0.01197,-0.00799,-0.02434,-0.04587,0.94440,1.60227,0.61482,1.73729,1.75689,-0.12408,0.46068,1.55832,-0.46559,1.13048,1.91312,1.91312,A,100734.90
1.61603,57.68786264,11.98133725,57.68786867,11.98133150,10:07:35.062451,0.00304,1.08321,-0.07242,0.06595,-0.02732,0.00391,-0.00264,-0.06515,-0.02708,0.96722,1.61243,0.61482,1.73729,1.75689,-0.12408,0.46068,1.55832,-0.46559,1.13048,1.91312,1.91312,A,100734.90
1.62631,57.68786264,11.98133725,57.68786867,11.98133150,10:07:35.072727,0.00305,1.08321,-0.07287,0.06595,-0.01373,0.01460,-0.00326,-0.03569,-0.06515,0.99796,1.62270,0.61482,1.73729,1.75689,-0.12408,0.46068,1.55832,-0.46559,1.13048,1.91312,1.91312,A,100734.90
1.63697,57.68786264,11.98133725,57.68786867,11.98133150,10:07:35.083386,0.00331,1.08321,-0.07382,0.06595,-0.01419,0.01399,0.00087,-0.00787,-0.10309,1.03785,1.63336,0.61482,1.73729,1.75689,-0.12408,0.46068,1.55832,-0.46559,1.13048,1.91312,1.91312,A,100734.90
1.64723,57.68786264,11.98133725,57.68786867,11.98133150,10:07:35.093652,0.00318,1.08321,-0.07438,0.06595,-0.01923,0.00559,0.00178,0.07283,-0.07326,1.03297,1.64341,0.61482,1.73729,1.75689,-0.12408,0.46068,1.55832,-0.46559,1.13048,1.91312,1.91312,A,100734.90
1.65761,57.68786264,11.98133725,57.68786867,11.98133150,10:07:35.104030,0.00317,1.08321,-0.07511,0.06595,-0.02457,-0.00815,0.00102,0.01257,-0.08247,1.04792,1.65402,0.61482,1.73729,1.75689,-0.12408,0.46068,1.55832,-0.46559,1.13048,1.91312,1.91312,A,100734.90
1.68441,57.68786264,11.98133725,57.68786933,11.98133033,10:07:35.130843,0.01957,1.08321,-0.07494,0.06595,-0.01938,-0.01640,-0.00280,-0.04319,-0.02416,1.05225,1.66441,0.61482,1.73729,1.75689,-0.12408,0.46068,1.67975,-0.53493,1.20461,2.32284,2.32284,A,100735.00
1.69869,57.68786359,11.98133668,57.68786933,11.98133033,10:07:35.145371,0.00678,1.08321,-0.07528,0.06595,-0.00029,-0.00220,0.00331,-0.12712,-0.07039,1.01156,1.69309,0.70850,1.82593,1.84552,-0.15746,0.56607,1.67975,-0.53493,1.20461,2.32284,2.32284,A,100735.00
1.70549,57.68786359,11.98133668,57.68786933,11.98133033,10:07:35.151907,0.00319,1.08321,-0.07583,0.06595,0.00643,0.01430,0.01110,-0.06576,-0.08991,1.02193,1.70190,0.70850,1.82593,1.84552,-0.15746,0.56607,1.67975,-0.53493,1.20461,2.32284,2.32284,A,100735.00
1.71586,57.68786359,11.98133668,57.68786933,11.98133033,10:07:35.162273,0.00316,1.08321,-0.07664,0.06595,0.00979,0.02896,0.01110,-0.04532,-0.10779,0.98802,1.71224,0.70850,1.82593,1.84552,-0.15746,0.56607,1.67975,-0.53493,1.20461,2.32284,2.32284,A,100735.00
1.72620,57.68786359,11.98133668,57.68786933,11.98133033,10:07:35.172616,0.00297,1.08321,-0.07671,0.06595,0.01040,0.01995,0.01446,0.12163,-0.05228,0.87572,1.72261,0.70850,1.82593,1.84552,-0.15746,0.56607,1.67975,-0.53493,1.20461,2.32284,2.32284,A,100735.00
1.73675,57.68786359,11.98133668,57.68786933,11.98133033,10:07:35.183168,0.00313,1.08321,-0.07690,0.06595,0.01238,-0.01976,0.01812,0.12462,-0.05758,0.83527,1.73317,0.70850,1.82593,1.84552,-0.15746,0.56607,1.67975,-0.53493,1.20461,2.32284,2.32284,A,100735.00
1.74717,57.68786359,11.98133668,57.68786933,11.98133033,10:07:35.193605,0.00315,1.08321,-0.07635,0.06595,0.02308,-0.04022,0.01522,-0.04575,-0.02721,0.97478,1.74337,0.70850,1.82593,1.84552,-0.15746,0.56607,1.67975,-0.53493,1.20461,2.32284,2.32284,A,100735.00
1.75757,57.68786359,11.98133668,57.68786933,11.98133033,10:07:35.203985,0.00316,1.08321,-0.07629,0.06595,0.03545,-0.03824,0.01476,-0.12871,-0.07485,1.07024,1.75398,0.70850,1.82593,1.84552,-0.15746,0.56607,1.67975,-0.53493,1.20461,2.32284,2.32284,A,100735.00
1.76796,57.68786359,11.98133668,57.68786933,11.98133033,10:07:35.214380,0.00314,1.08321,-0.07609,0.06595,0.03147,-0.01090,0.01049,-0.04782,-0.06179,1.08196,1.76435,0.70850,1.82593,1.84552,-0.15746,0.56607,1.67975,-0.53493,1.20461,2.32284,2.32284,A,100735.00
1.77821,57.68786359,11.98133668,57.68786933,11.98133033,10:07:35.224627,0.00298,1.08321,-0.07698,0.06595,0.03163,-0.00098,0.00377,0.09522,-0.13158,1.01370,1.77460,0.70850,1.82593,1.84552,-0.15746,0.56607,1.67975,-0.53493,1.20461,2.32284,2.32284,A,100735.00
1.80476,57.68786359,11.98133668,57.68787033,11.98132967,10:07:35.251191,0.01914,1.08321,-0.07682,0.06595,0.02582,-0.01380,0.00148,0.01025,-0.05856,1.04066,1.78517,0.70850,1.82593,1.84552,-0.15746,0.56607,1.80015,-0.57456,1.31581,1.91312,1.91312,A,100735.10
1.81830,57.68786461,11.98133597,57.68787033,11.98132967,10:07:35.264734,0.00654,1.08321,-0.07514,0.06595,0.04537,0.01216,0.00896,-0.10108,-0.01812,1.02456,1.81219,0.78344,1.84032,1.85992,-0.19973,0.67953,1.80015,-0.57456,1.31581,1.91312,1.91312,A,100735.10
1.82537,57.68786461,11.98133597,57.68787033,11.98132967,10:07:35.271784,0.00319,1.08321,-0.07487,0.06595,0.06232,0.00864,0.00973,0.05313,-0.06216,0.91372,1.82178,0.78344,1.84032,1.85992,-0.19973,0.67953,1.80015,-0.57456,1.31581,1.91312,1.91312,A,100735.10
1.83577,57.68786461,11.98133597,57.68787033,11.98132967,10:07:35.282185,0.00320,1.08321,-0.07416,0.06600,0.05652,-0.01701,0.02469,0.04398,-0.03398,0.90152,1.83215,0.78344,1.84032,1.85992,-0.19973,0.67953,1.80015,-0.57456,1.31581,1.91312,1.91312,A,100735.10
1.84610,57.68786461,11.98133597,57.68787033,11.98132967,10:07:35.292518,0.00300,1.08321,-0.07355,0.06631,0.06080,-0.03167,0.03676,-0.04398,-0.04660,0.99991,1.84251,0.78344,1.84032,1.85992,-0.19973,0.67953,1.80015,-0.57456,1.31581,1.91312,1.91312,A,100735.10
1.85682,57.68786461,11.98133597,57.68787033,11.98132967,10:07:35.303233,0.00331,1.08321,-0.07323,0.06694,0.06461,-0.02022,0.04225,-0.08802,-0.07058,1.00821,1.85322,0.78344,1.84032,1.85992,-0.19973,0.67953,1.80015,-0.57456,1.31581,1.91312,1.91312,A,100735.10
1.86705,57.68786461,11.98133597,57.68787033,11.98132967,10:07:35.313486,0.00316,1.08321,-0.07260,0.06778,0.05789,-0.00831,0.04241,-0.05106,-0.04063,0.98051,1.86326,0.78344,1.84032,1.85992,-0.19973,0.67953,1.80015,-0.57456,1.31581,1.91312,1.91312,A,100735.10
1.87740,57.68786461,11.98133597,57.68787033,11.98132967,10:07:35.323824,0.00322,1.08321,-0.07236,0.06889,0.05683,-0.00815,0.03370,-0.06881,-0.06442,0.95111,1.87381,0.78344,1.84032,1.85992,-0.19973,0.67953,1.80015,-0.57456,1.31581,1.91312,1.91312,A,100735.10
1.88774,57.68786461,11.98133597,57.68787033,11.98132967,10:07:35.334155,0.00317,1.08321,-0.07092,0.06996,0.05805,-0.00235,0.02805,-0.06356,0.01281,1.03608,1.88414,0.78344,1.84032,1.85992,-0.19973,0.67953,1.80015,-0.57456,1.31581,1.91312,1.91312,A,100735.10
1.89811,57.68786461,11.98133597,57.68787033,11.98132967,10:07:35.344532,0.00300,1.08321,-0.07040,0.07107,0.06324,-0.00342,0.01553,-0.04380,-0.05283,1.03053,1.89452,0.78344,1.84032,1.85992,-0.19973,0.67953,1.80015,-0.57456,1.31581,1.91312,1.91312,A,100735.10
1.93764,57.68786461,11.98133597,57.68787250,11.98132767,10:07:35.384354,0.03213,1.08321,-0.06953,0.07209,0.06339,-0.00693,0.01110,-0.07222,-0.03087,1.09001,1.90509,0.78344,1.84032,1.85992,-0.19973,0.67953,1.93107,-0.69343,1.55673,2.02916,2.02916,A,100735.30
1.95390,57.68786586,11.98133508,57.68787250,11.98132767,10:07:35.400328,0.00751,1.08321,-0.06658,0.07463,0.05744,-0.01869,0.03187,-0.07058,-0.00287,0.93891,1.94734,0.84340,1.87067,1.89286,-0.25270,0.81848,1.93107,-0.69343,1.55673,2.02916,2.02916,A,100735.30
1.95996,57.68786586,11.98133508,57.68787250,11.98132767,10:07:35.406379,0.00317,1.08321,-0.06485,0.07475,0.06690,-0.01869,0.03859,-0.10681,0.03660,0.96673,1.95636,0.84340,1.87067,1.89286,-0.25270,0.81848,1.93107,-0.69343,1.55673,2.02916,2.02916,A,100735.30
1.97019,57.68786586,11.98133508,57.68787250,11.98132767,10:07:35.416601,0.00297,1.08321,-0.06428,0.07475,0.08050,-0.01136,0.03966,-0.03154,-0.04807,0.93293,1.96660,0.84340,1.87067,1.89286,-0.25270,0.81848,1.93107,-0.69343,1.55673,2.02916,2.02916,A,100735.30
1.98077,57.68786586,11.98133508,57.68787250,11.98132767,10:07:35.427182,0.00314,1.08321,-0.06381,0.07475,0.07194,-0.01839,0.03950,-0.02660,-0.05246,0.96880,1.97717,0.84340,1.87067,1.89286,-0.25270,0.81848,1.93107,-0.69343,1.55673,2.02916,2.02916,A,100735.30
1.99119,57.68786586,11.98133508,57.68787250,11.98132767,10:07:35.437615,0.00317,1.08321,-0.06345,0.07475,0.07515,-0.02205,0.03523,0.03062,-0.06320,1.02151,1.98738,0.84340,1.87067,1.89286,-0.25270,0.81848,1.93107,-0.69343,1.55673,2.02916,2.02916,A,100735.30
2.00156,57.68786586,11.98133508,57.68787250,11.98132767,10:07:35.447986,0.00315,1.08321,-0.06271,0.07475,0.05637,-0.02663,0.02790,-0.11328,-0.02800,1.10550,1.99797,0.84340,1.87067,1.89286,-0.25270,0.81848,1.93107,-0.69343,1.55673,2.02916,2.02916,A,100735.30
2.01928,57.68786586,11.98133508,57.68787250,11.98132767,10:07:35.465916,0.01047,1.08321,-0.06202,0.07475,0.06141,-0.00968,0.01828,-0.07564,-0.03257,1.06829,2.00850,1.08321,1.96763,1.98985,-0.69343,1.55673,1.93107,-0.69343,1.55673,2.02916,2.02916,A,100735.30
2.05161,57.68786586,11.98133508,57.68787367,11.98132683,10:07:35.498083,0.02113,1.08321,-0.06021,0.02148,0.05896,-0.00510,0.01293,0.00366,-0.00567,0.97271,2.03122,1.08321,1.96763,1.98985,-0.69343,1.55673,2.04725,-0.74296,1.68646,1.93552,1.93552,A,100735.40
2.07680,57.68787357,11.98132678,57.68787367,11.98132683,10:07:35.523226,0.01031,1.08321,-0.05844,0.02148,0.05927,0.00025,0.03447,-0.09614,-0.06820,0.96465,2.07005,1.08321,1.96941,1.97578,-0.74613,1.67595,2.04725,-0.74296,1.68646,1.93552,1.93552,A,100735.40
2.09044,57.68787357,11.98132678,57.68787367,11.98132683,10:07:35.536888,0.00513,1.08321,-0.05805,0.02148,0.04446,0.00849,0.02469,-0.03379,-0.05911,1.04298,2.08648,1.08321,1.96941,1.97578,-0.74613,1.67595,2.04725,-0.74296,1.68646,1.93552,1.93552,A,100735.40
2.09854,57.68787357,11.98132678,57.68787367,11.98132683,10:07:35.545168,0.00300,1.08321,-0.05790,0.02148,0.04293,0.00574,0.02393,-0.05240,-0.05094,1.03535,2.09495,1.08321,1.96941,1.97578,-0.74613,1.67595,2.04725,-0.74296,1.68646,1.93552,1.93552,A,100735.40
2.10913,57.68787357,11.98132678,57.68787367,11.98132683,10:07:35.555545,0.00319,1.31033,-0.05692,0.02148,0.03590,0.00788,0.01339,-0.01110,0.00677,1.05329,2.10554,1.08321,1.96941,1.97578,-0.74613,1.67595,2.04725,-0.74296,1.68646,1.93552,1.93552,A,100735.40
2.11961,57.68787357,11.98132678,57.68787367,11.98132683,10:07:35.566028,0.00328,1.31033,-0.05598,0.02148,0.03713,-0.00373,0.00835,-0.03587,0.00476,1.04865,2.11598,1.08321,1.96941,1.97578,-0.74613,1.67595,2.04725,-0.74296,1.68646,1.93552,1.93552,A,100735.40
2.13003,57.68787357,11.98132678,57.68787367,11.98132683,10:07:35.576454,0.00331,1.31033,-0.05597,0.02148,0.03575,-0.00510,0.00209,0.01745,-0.05624,1.01126,2.12645,1.08321,1.96941,1.97578,-0.74613,1.67595,2.04725,-0.74296,1.68646,1.93552,1.93552,A,100735.40
2.14030,57.68787357,11.98132678,57.68787367,11.98132683,10:07:35.586725,0.00318,1.31033,-0.05580,0.02148,0.02949,-0.01808,-0.00158,-0.03562,-0.04002,0.98942,2.13671,1.08321,1.96941,1.97578,-0.74613,1.67595,2.04725,-0.74296,1.68646,1.93552,1.93552,A,100735.40
2.16669,57.68787357,11.98132678,57.68787467,11.98132567,10:07:35.613657,0.01934,1.31033,-0.05565,0.02148,0.02537,-0.02465,-0.00341,-0.00043,-0.03532,0.92836,2.14677,1.08321,1.96941,1.97578,-0.74613,1.67595,2.16178,-0.81231,1.79765,2.12840,2.12840,A,100735.50
2.18319,57.68787450,11.98132602,57.68787467,11.98132567,10:07:35.629636,0.00799,1.31033,-0.05503,0.02111,0.02353,-0.00892,0.00743,-0.09321,-0.03398,0.97374,2.17619,1.12864,1.99418,2.00045,-0.79127,1.77962,2.16178,-0.81231,1.79765,2.12840,2.12840,A,100735.50
2.18879,57.68787450,11.98132602,57.68787467,11.98132567,10:07:35.635203,0.00318,1.31033,-0.05504,0.02043,0.02430,-0.00067,0.00698,-0.05155,-0.04569,0.99338,2.18519,1.12864,1.99418,2.00045,-0.79127,1.77962,2.16178,-0.81231,1.79765,2.12840,2.12840,A,100735.50
2.19924,57.68787450,11.98132602,57.68787467,11.98132567,10:07:35.645672,0.00318,1.31033,-0.05534,0.01913,0.01742,0.00666,0.00346,-0.03916,-0.06417,1.01583,2.19543,1.12864,1.99418,2.00045,-0.79127,1.77962,2.16178,-0.81231,1.79765,2.12840,2.12840,A,100735.50
2.20962,57.68787450,11.98132602,57.68787467,11.98132567,10:07:35.656034,0.00317,1.31033,-0.05445,0.01749,0.01681,0.01155,0.00163,-0.07052,0.01641,1.03871,2.20603,1.12864,1.99418,2.00045,-0.79127,1.77962,2.16178,-0.81231,1.79765,2.12840,2.12840,A,100735.50
2.22001,57.68787450,11.98132602,57.68787467,11.98132567,10:07:35.666429,0.00317,1.31033,-0.05359,0.01579,0.01773,0.02651,-0.00081,-0.03270,0.01409,1.01943,2.21642,1.12864,1.99418,2.00045,-0.79127,1.77962,2.16178,-0.81231,1.79765,2.12840,2.12840,A,100735.50
2.23021,57.68787450,11.98132602,57.68787467,11.98132567,10:07:35.676626,0.00299,1.31033,-0.05319,0.01418,0.02078,0.01414,-0.00219,0.00811,-0.01739,1.00180,2.22661,1.12864,1.99418,2.00045,-0.79127,1.77962,2.16178,-0.81231,1.79765,2.12840,2.12840,A,100735.50
2.24078,57.68787450,11.98132602,57.68787467,11.98132567,10:07:35.687188,0.00316,1.31033,-0.05318,0.01279,0.01910,0.01430,-0.00234,-0.01458,-0.04319,1.01107,2.23719,1.12864,1.99418,2.00045,-0.79127,1.77962,2.16178,-0.81231,1.79765,2.12840,2.12840,A,100735.50
2.25116,57.68787450,11.98132602,57.68787467,11.98132567,10:07:35.697594,0.00315,1.31033,-0.05350,0.01169,0.01254,0.00299,-0.00081,-0.02403,-0.06002,0.99582,2.24736,1.12864,1.99418,2.00045,-0.79127,1.77962,2.16178,-0.81231,1.79765,2.12840,2.12840,A,100735.50
2.26166,57.68787450,11.98132602,57.68787467,11.98132567,10:07:35.708080,0.00326,1.31033,-0.05329,0.01075,0.00307,0.00513,-0.00723,-0.03587,-0.01873,0.97033,2.25806,1.12864,1.99418,2.00045,-0.79127,1.77962,2.16178,-0.81231,1.79765,2.12840,2.12840,A,100735.50
2.28764,57.68787450,11.98132602,57.68787567,11.98132483,10:07:35.734072,0.01884,1.31033,-0.05356,0.00999,0.00307,0.00788,-0.00799,-0.04941,-0.04910,0.97057,2.26834,1.12864,1.99418,2.00045,-0.79127,1.77962,2.28356,-0.86184,1.90885,1.98985,1.98985,A,100735.60
2.30124,57.68787558,11.98132509,57.68787567,11.98132483,10:07:35.747673,0.00621,1.31033,-0.05392,0.00815,0.00001,0.01200,-0.01883,-0.01934,-0.05356,0.96557,2.29541,1.16498,1.99532,1.99774,-0.84671,1.89938,2.28356,-0.86184,1.90885,1.98985,1.98985,A,100735.60
2.30940,57.68787558,11.98132509,57.68787567,11.98132483,10:07:35.755829,0.00396,1.31033,-0.05320,0.00741,-0.00518,0.00727,-0.01715,-0.05618,0.02013,0.99528,2.30575,1.16498,1.99532,1.99774,-0.84671,1.89938,2.28356,-0.86184,1.90885,1.98985,1.98985,A,100735.60
2.31899,57.68787558,11.98132509,57.68787567,11.98132483,10:07:35.765566,0.00316,1.31033,-0.05329,0.00673,0.00185,-0.00205,-0.01746,-0.00244,-0.03886,1.01297,2.31519,1.16498,1.99532,1.99774,-0.84671,1.89938,2.28356,-0.86184,1.90885,1.98985,1.98985,A,100735.60
2.32941,57.68787558,11.98132509,57.68787567,11.98132483,10:07:35.775823,0.00318,1.31033,-0.05326,0.00605,0.00414,-0.01029,-0.01043,-0.01921,-0.03434,1.06238,2.32582,1.16498,1.99532,1.99774,-0.84671,1.89938,2.28356,-0.86184,1.90885,1.98985,1.98985,A,100735.60
2.33979,57.68787558,11.98132509,57.68787567,11.98132483,10:07:35.786213,0.00317,1.31033,-0.05334,0.00546,0.00307,-0.01014,-0.00662,0.00335,-0.04093,1.05164,2.33618,1.16498,1.99532,1.99774,-0.84671,1.89938,2.28356,-0.86184,1.90885,1.98985,1.98985,A,100735.60
2.35015,57.68787558,11.98132509,57.68787567,11.98132483,10:07:35.796566,0.00299,1.31033,-0.05370,0.00489,0.00444,-0.00709,-0.00096,-0.07338,-0.06112,1.03383,2.34656,1.16498,1.99532,1.99774,-0.84671,1.89938,2.28356,-0.86184,1.90885,1.98985,1.98985,A,100735.60
2.36079,57.68787558,11.98132509,57.68787567,11.98132483,10:07:35.807205,0.00324,1.31033,-0.05371,0.00436,0.00811,0.00452,-0.00173,-0.05533,-0.03605,0.95398,2.35720,1.16498,1.99532,1.99774,-0.84671,1.89938,2.28356,-0.86184,1.90885,1.98985,1.98985,A,100735.60
2.37114,57.68787558,11.98132509,57.68787567,11.98132483,10:07:35.817561,0.00319,1.31033,-0.05335,0.00387,0.00658,0.01094,-0.00341,0.00116,-0.01031,0.83436,2.36733,1.16498,1.99532,1.99774,-0.84671,1.89938,2.28356,-0.86184,1.90885,1.98985,1.98985,A,100735.60
2.38153,57.68787558,11.98132509,57.68787567,11.98132483,10:07:35.827946,0.00318,1.31033,-0.05275,0.00348,0.00903,-0.00541,-0.00310,-0.08461,0.00152,0.89273,2.37794,1.16498,1.99532,1.99774,-0.84671,1.89938,2.28356,-0.86184,1.90885,1.98985,1.98985,A,100735.60
2.40803,57.68787558,11.98132509,57.68787683,11.98132400,10:07:35.854459,0.01928,1.31033,-0.05264,0.00325,0.01666,-0.00296,-0.01242,-0.12786,-0.03465,0.98448,2.38831,1.16498,1.99532,1.99774,-0.84671,1.89938,2.40342,-0.91137,2.03857,1.93552,1.93552,A,100735.70
2.42777,57.68787677,11.98132408,57.68787683,11.98132400,10:07:35.874241,0.00772,1.31033,-0.05326,0.00322,0.00169,0.00025,-0.01303,0.01177,-0.08186,1.07409,2.42130,1.19405,1.98712,1.98808,-0.90670,2.03109,2.40342,-0.91137,2.03857,1.93552,1.93552,A,100735.70
2.43362,57.68787677,11.98132408,57.68787683,11.98132400,10:07:35.880042,0.00318,1.31033,-0.05307,0.00322,0.00903,0.00147,-0.01563,-0.01336,-0.02574,1.04615,2.43004,1.19405,1.98712,1.98808,-0.90670,2.03109,2.40342,-0.91137,2.03857,1.93552,1.93552,A,100735.70
2.44404,57.68787677,11.98132408,57.68787683,11.98132400,10:07:35.890452,0.00319,1.31033,-0.05202,0.00322,0.01865,-0.00235,-0.01074,-0.04410,0.02562,0.98234,2.44043,1.19405,1.98712,1.98808,-0.90670,2.03109,2.40342,-0.91137,2.03857,1.93552,1.93552,A,100735.70
2.45428,57.68787677,11.98132408,57.68787683,11.98132400,10:07:35.900700,0.00301,1.31033,-0.05171,0.00322,0.03270,-0.01426,-0.00967,-0.05094,-0.02879,0.89957,2.45069,1.19405,1.98712,1.98808,-0.90670,2.03109,2.40342,-0.91137,2.03857,1.93552,1.93552,A,100735.70
2.46504,57.68787677,11.98132408,57.68787683,11.98132400,10:07:35.911451,0.00336,1.31033,-0.05133,0.00322,0.03224,-0.01548,-0.00264,-0.01244,-0.02470,0.90274,2.46145,1.19405,1.98712,1.98808,-0.90670,2.03109,2.40342,-0.91137,2.03857,1.93552,1.93552,A,100735.70
2.47523,57.68787677,11.98132408,57.68787683,11.98132400,10:07:35.921658,0.00317,1.31033,-0.05146,0.00322,0.03529,-0.02709,-0.00753,-0.08900,-0.05984,0.96636,2.47143,1.19405,1.98712,1.98808,-0.90670,2.03109,2.40342,-0.91137,2.03857,1.93552,1.93552,A,100735.70
2.48564,57.68787677,11.98132408,57.68787683,11.98132400,10:07:35.932058,0.00318,1.31033,-0.05185,0.00322,0.03697,-0.01640,-0.00539,-0.02641,-0.08150,0.99589,2.48204,1.19405,1.98712,1.98808,-0.90670,2.03109,2.40342,-0.91137,2.03857,1.93552,1.93552,A,100735.70
2.49604,57.68787677,11.98132408,57.68787683,11.98132400,10:07:35.942457,0.00318,1.31033,-0.05208,0.00322,0.03743,-0.01212,-0.00066,-0.09882,-0.07643,1.07433,2.49244,1.19405,1.98712,1.98808,-0.90670,2.03109,2.40342,-0.91137,2.03857,1.93552,1.93552,A,100735.70
2.53367,57.68787677,11.98132408,57.68787900,11.98132183,10:07:35.980133,0.03045,1.31033,-0.05167,0.00322,0.03285,0.01445,-0.00555,-0.09022,-0.02763,1.08568,2.50262,1.19405,1.98712,1.98808,-0.90670,2.03109,2.52844,-1.04015,2.27950,2.06169,2.06169,A,100735.90
2.55140,57.68787802,11.98132302,57.68787900,11.98132183,10:07:35.997831,0.00773,1.31033,-0.04868,0.00322,0.06461,-0.01900,-0.00280,-0.03575,-0.01311,1.00473,2.54556,1.21730,1.99853,1.99948,-0.96964,2.17045,2.52844,-1.04015,2.27950,2.06169,2.06169,A,100735.90
2.55727,57.68787802,11.98132302,57.68787900,11.98132183,10:07:36.003688,0.00320,1.31033,-0.04899,0.00322,0.06263,-0.02129,0.00469,-0.04965,-0.08040,0.99582,2.55367,1.21730,1.99853,1.99948,-0.96964,2.17045,2.52844,-1.04015,2.27950,2.06169,2.06169,A,100735.90
2.56774,57.68787802,11.98132302,57.68787900,11.98132183,10:07:36.014166,0.00328,1.31033,-0.04866,0.00322,0.06828,-0.01915,0.01125,-0.09284,-0.05325,1.00979,2.56413,1.21730,1.99853,1.99948,-0.96964,2.17045,2.52844,-1.04015,2.27950,2.06169,2.06169,A,100735.90
2.57827,57.68787802,11.98132302,57.68787900,11.98132183,10:07:36.024687,0.00323,1.31033,-0.04835,0.00322,0.06370,-0.00586,0.00682,-0.04002,-0.04831,0.95990,2.57467,1.21730,1.99853,1.99948,-0.96964,2.17045,2.52844,-1.04015,2.27950,2.06169,2.06169,A,100735.90
2.58860,57.68787802,11.98132302,57.68787900,11.98132183,10:07:36.035023,0.00317,1.31033,-0.04785,0.00322,0.06904,-0.00220,0.00591,-0.03526,-0.04002,0.97911,2.58502,1.21730,1.99853,1.99948,-0.96964,2.17045,2.52844,-1.04015,2.27950,2.06169,2.06169,A,100735.90
2.59900,57.68787802,11.98132302,57.68787900,11.98132183,10:07:36.045434,0.00317,1.31033,-0.04630,0.00322,0.06843,-0.00098,-0.00249,-0.03324,0.03062,0.97722,2.59520,1.21730,1.99853,1.99948,-0.96964,2.17045,2.52844,-1.04015,2.27950,2.06169,2.06169,A,100735.90
2.60941,57.68787802,11.98132302,57.68787900,11.98132183,10:07:36.055825,0.00319,1.31033,-0.04538,0.00322,0.07576,-0.00754,-0.00310,-0.03605,-0.01549,0.97063,2.60581,1.21730,1.99853,1.99948,-0.96964,2.17045,2.52844,-1.04015,2.27950,2.06169,2.06169,A,100735.90
2.61980,57.68787802,11.98132302,57.68787900,11.98132183,10:07:36.066221,0.00318,1.31033,-0.04466,0.00322,0.07958,0.00147,-0.00723,-0.04929,-0.02879,0.96154,2.61619,1.21730,1.99853,1.99948,-0.96964,2.17045,2.52844,-1.04015,2.27950,2.06169,2.06169,A,100735.90
2.64595,57.68787802,11.98132302,57.68788033,11.98132083,10:07:36.092383,0.01899,1.39613,-0.04391,0.00322,0.07469,-0.00235,-0.00845,-0.04483,-0.02239,0.98362,2.62634,1.21730,1.99853,1.99948,-0.96964,2.17045,2.64132,-1.09959,2.42776,1.95208,1.95208,A,100736.00
2.66115,57.68787914,11.98132205,57.68788033,11.98132083,10:07:36.107583,0.00753,1.39613,-0.04113,0.00322,0.08508,0.00269,-0.00219,-0.06917,0.00756,1.02327,2.65415,1.25307,1.99174,1.99270,-1.02746,2.29561,2.64132,-1.09959,2.42776,1.95208,1.95208,A,100736.00
2.66719,57.68787914,11.98132205,57.68788033,11.98132083,10:07:36.113616,0.00318,1.39613,-0.03997,0.00322,0.08141,0.01643,0.00117,-0.06863,0.00921,1.08293,2.66339,1.25307,1.99174,1.99270,-1.02746,2.29561,2.64132,-1.09959,2.42776,1.95208,1.95208,A,100736.00
2.67782,57.68787914,11.98132205,57.68788033,11.98132083,10:07:36.124247,0.00342,1.39613,-0.03951,0.00322,0.08111,0.01995,0.00239,-0.01982,-0.04788,1.05554,2.67421,1.25307,1.99174,1.99270,-1.02746,2.29561,2.64132,-1.09959,2.42776,1.95208,1.95208,A,100736.00
2.68797,57.68787914,11.98132205,57.68788033,11.98132083,10:07:36.134383,0.00317,1.39613,-0.03845,0.00322,0.07485,0.01048,0.00270,-0.01372,0.00293,1.06079,2.68436,1.25307,1.99174,1.99270,-1.02746,2.29561,2.64132,-1.09959,2.42776,1.95208,1.95208,A,100736.00
2.69835,57.68787914,11.98132205,57.68788033,11.98132083,10:07:36.144763,0.00302,1.39613,-0.03716,0.00322,0.07347,0.00498,0.00224,0.04319,0.01940,1.00900,2.69474,1.25307,1.99174,1.99270,-1.02746,2.29561,2.64132,-1.09959,2.42776,1.95208,1.95208,A,100736.00
2.70888,57.68787914,11.98132205,57.68788033,11.98132083,10:07:36.155297,0.00316,1.39613,-0.03618,0.00322,0.07485,-0.02144,0.00346,-0.00647,-0.00177,0.99820,2.70528,1.25307,1.99174,1.99270,-1.02746,2.29561,2.64132,-1.09959,2.42776,1.95208,1.95208,A,100736.00
2.71939,57.68787914,11.98132205,57.68788033,11.98132083,10:07:36.165814,0.00328,1.39613,-0.03556,0.00322,0.08187,-0.03488,0.00239,-0.03202,-0.02721,0.96673,2.71546,1.25307,1.99174,1.99270,-1.02746,2.29561,2.64132,-1.09959,2.42776,1.95208,1.95208,A,100736.00
2.72968,57.68787914,11.98132205,57.68788033,11.98132083,10:07:36.176101,0.00318,1.39613,-0.03516,0.00322,0.07546,-0.04236,-0.00173,-0.07076,-0.03855,0.95977,2.72608,1.25307,1.99174,1.99270,-1.02746,2.29561,2.64132,-1.09959,2.42776,1.95208,1.95208,A,100736.00
2.74004,57.68787914,11.98132205,57.68788033,11.98132083,10:07:36.186458,0.00313,1.39613,-0.03462,0.00322,0.07469,-0.02449,0.00087,-0.12767,-0.02727,0.96606,2.73642,1.25307,1.99174,1.99270,-1.02746,2.29561,2.64132,-1.09959,2.42776,1.95208,1.95208,A,100736.00
2.76613,57.68787914,11.98132205,57.68788133,11.98132017,10:07:36.212570,0.01891,1.39613,-0.03397,0.00322,0.07057,0.00193,-0.00494,-0.05447,-0.01641,0.96398,2.74663,1.25307,1.99174,1.99270,-1.02746,2.29561,2.76214,-1.13921,2.53895,1.91312,1.91312,A,100736.10
2.78455,57.68788044,11.98132096,57.68788133,11.98132017,10:07:36.230973,0.00786,1.39613,-0.03160,0.00322,0.07393,0.02499,-0.00555,-0.04740,-0.00982,1.03474,2.77867,1.28168,1.98018,1.98114,-1.09218,2.43952,2.76214,-1.13921,2.53895,1.91312,1.91312,A,100736.10
2.79020,57.68788044,11.98132096,57.68788133,11.98132017,10:07:36.236622,0.00299,1.39613,-0.03122,0.00322,0.06981,0.01811,-0.00494,0.02452,-0.02251,1.05249,2.78661,1.28168,1.98018,1.98114,-1.09218,2.43952,2.76214,-1.13921,2.53895,1.91312,1.91312,A,100736.10
2.80088,57.68788044,11.98132096,57.68788133,11.98132017,10:07:36.247292,0.00327,1.39613,-0.03056,0.00322,0.07149,-0.01457,-0.00570,0.00579,-0.01714,1.09550,2.79728,1.28168,1.98018,1.98114,-1.09218,2.43952,2.76214,-1.13921,2.53895,1.91312,1.91312,A,100736.10
2.81116,57.68788044,11.98132096,57.68788133,11.98132017,10:07:36.257592,0.00316,1.39613,-0.03002,0.00322,0.06797,-0.02679,-0.00585,-0.04063,-0.01842,1.04444,2.80736,1.28168,1.98018,1.98114,-1.09218,2.43952,2.76214,-1.13921,2.53895,1.91312,1.91312,A,100736.10
2.82175,57.68788044,11.98132096,57.68788133,11.98132017,10:07:36.268168,0.00317,1.39613,-0.02888,0.00322,0.06446,-0.02343,-0.00356,-0.04075,0.02086,0.97545,2.81815,1.28168,1.98018,1.98114,-1.09218,2.43952,2.76214,-1.13921,2.53895,1.91312,1.91312,A,100736.10
2.83204,57.68788044,11.98132096,57.68788133,11.98132017,10:07:36.278460,0.00306,1.39613,-0.02832,0.00322,0.07393,-0.00953,0.00285,-0.06210,-0.01726,0.89615,2.82843,1.28168,1.98018,1.98114,-1.09218,2.43952,2.76214,-1.13921,2.53895,1.91312,1.91312,A,100736.10
2.84223,57.68788044,11.98132096,57.68788133,11.98132017,10:07:36.288649,0.00300,1.39613,-0.02834,0.00322,0.07042,0.00177,-0.00219,-0.06985,-0.04203,0.76433,2.83863,1.28168,1.98018,1.98114,-1.09218,2.43952,2.76214,-1.13921,2.53895,1.91312,1.91312,A,100736.10
2.85277,57.68788044,11.98132096,57.68788133,11.98132017,10:07:36.299195,0.00315,1.39613,-0.02717,0.00322,0.06858,0.01918,-0.00234,-0.18080,0.01854,0.78781,2.84918,1.28168,1.98018,1.98114,-1.09218,2.43952,2.76214,-1.13921,2.53895,1.91312,1.91312,A,100736.10
2.87975,57.68788044,11.98132096,57.68788217,11.98131917,10:07:36.326193,0.01974,1.39613,-0.02560,0.00322,0.06538,0.05736,-0.00616,-0.14311,0.04416,0.79440,2.85939,1.28168,1.98018,1.98114,-1.09218,2.43952,2.87438,-1.19865,2.63161,2.14113,2.14113,A,100736.20
2.90105,57.68788167,11.98131994,57.68788217,11.98131917,10:07:36.347477,0.00965,1.39613,-0.02351,0.00322,0.06171,0.02056,-0.01211,0.07631,-0.00988,1.30339,2.89454,1.30457,2.00455,2.00550,-1.15276,2.57614,2.87438,-1.19865,2.63161,2.14113,2.14113,A,100736.20
2.90519,57.68788167,11.98131994,57.68788217,11.98131917,10:07:36.351599,0.00318,1.39613,-0.02259,0.00322,0.06202,-0.00434,-0.00539,0.14122,0.04002,1.29875,2.90160,1.30457,2.00455,2.00550,-1.15276,2.57614,2.87438,-1.19865,2.63161,2.14113,2.14113,A,100736.20
2.91569,57.68788167,11.98131994,57.68788217,11.98131917,10:07:36.362116,0.00344,1.39613,-0.02213,0.00322,0.06156,-0.05229,-0.00478,0.07290,-0.01366,1.24599,2.91164,1.30457,2.00455,2.00550,-1.15276,2.57614,2.87438,-1.19865,2.63161,2.14113,2.14113,A,100736.20
2.92592,57.68788167,11.98131994,57.68788217,11.98131917,10:07:36.372342,0.00328,1.39613,-0.02127,0.00322,0.06645,-0.07275,0.00178,-0.04313,0.01128,1.14906,2.92233,1.30457,2.00455,2.00550,-1.15276,2.57614,2.87438,-1.19865,2.63161,2.14113,2.14113,A,100736.20
2.93621,57.68788167,11.98131994,57.68788217,11.98131917,10:07:36.382627,0.00317,1.39613,-0.02090,0.00322,0.06507,-0.06191,0.00499,-0.11895,-0.01848,0.99735,2.93261,1.30457,2.00455,2.00550,-1.15276,2.57614,2.87438,-1.19865,2.63161,2.14113,2.14113,A,100736.20
2.94631,57.68788167,11.98131994,57.68788217,11.98131917,10:07:36.392723,0.00302,1.39613,-0.02008,0.00322,0.07225,-0.03732,0.00896,-0.19197,0.00653,0.85821,2.94271,1.30457,2.00455,2.00550,-1.15276,2.57614,2.87438,-1.19865,2.63161,2.14113,2.14113,A,100736.20
2.95685,57.68788167,11.98131994,57.68788217,11.98131917,10:07:36.403256,0.00317,1.39613,-0.01969,0.00322,0.07408,-0.00327,0.00423,-0.12188,-0.01824,0.77683,2.95326,1.30457,2.00455,2.00550,-1.15276,2.57614,2.87438,-1.19865,2.63161,2.14113,2.14113,A,100736.20
2.96724,57.68788167,11.98131994,57.68788217,11.98131917,10:07:36.413662,0.00316,1.39613,-0.01929,0.00322,0.06507,0.01094,0.00133,-0.18300,-0.01220,0.81752,2.96344,1.30457,2.00455,2.00550,-1.15276,2.57614,2.87438,-1.19865,2.63161,2.14113,2.14113,A,100736.20
2.99428,57.68788167,11.98131994,57.68788350,11.98131833,10:07:36.440735,0.01981,1.39613,-0.01910,0.00322,0.06843,0.03232,-0.00860,-0.03123,-0.02782,0.84808,2.97405,1.30457,2.00455,2.00550,-1.15276,2.57614,2.98925,-1.24818,2.77987,1.89322,1.89322,A,100736.30
3.01238,57.68788284,11.98131892,57.68788350,11.98131833,10:07:36.458813,0.00766,1.39613,-0.01753,0.00322,0.05453,-0.05015,-0.02128,0.00183,-0.00152,1.17937,3.00442,1.32288,1.98805,1.98901,-1.21346,2.70678,2.98925,-1.24818,2.77987,1.89322,1.89322,A,100736.30
3.01936,57.68788284,11.98131892,57.68788350,11.98131833,10:07:36.465785,0.00414,1.39613,-0.01694,0.00322,0.05484,-0.05519,-0.01975,-0.05624,0.00409,1.17157,3.01541,1.32288,1.98805,1.98901,-1.21346,2.70678,2.98925,-1.24818,2.77987,1.89322,1.89322,A,100736.30
3.02879,57.68788284,11.98131892,57.68788350,11.98131833,10:07:36.475202,0.00318,1.39613,-0.01672,0.00322,0.05621,-0.04969,-0.01837,-0.01775,-0.01824,1.08232,3.02520,1.32288,1.98805,1.98901,-1.21346,2.70678,2.98925,-1.24818,2.77987,1.89322,1.89322,A,100736.30
3.03916,57.68788284,11.98131892,57.68788350,11.98131833,10:07:36.485594,0.00315,1.39613,-0.01664,0.00322,0.05072,-0.04358,-0.01166,-0.03800,-0.02281,0.97942,3.03536,1.32288,1.98805,1.98901,-1.21346,2.70678,2.98925,-1.24818,2.77987,1.89322,1.89322,A,100736.30
3.04957,57.68788284,11.98131892,57.68788350,11.98131833,10:07:36.495992,0.00317,1.39613,-0.01672,0.00314,0.04308,-0.02984,-0.01104,-0.10169,-0.02751,0.89231,3.04598,1.32288,1.98805,1.98901,-1.21346,2.70678,2.98925,-1.24818,2.77987,1.89322,1.89322,A,100736.30
3.05995,57.68788284,11.98131892,57.68788350,11.98131833,10:07:36.506373,0.00315,1.39613,-0.01544,0.00274,0.03682,-0.01991,-0.01654,-0.06387,0.05496,0.84034,3.05635,1.32288,1.98805,1.98901,-1.21346,2.70678,2.98925,-1.24818,2.77987,1.89322,1.89322,A,100736.30
3.07021,57.68788284,11.98131892,57.68788350,11.98131833,10:07:36.516622,0.00299,1.39613,-0.01410,0.00201,0.04094,-0.00953,-0.01639,-0.03721,0.05728,0.84296,3.06661,1.32288,1.98805,1.98901,-1.21346,2.70678,2.98925,-1.24818,2.77987,1.89322,1.89322,A,100736.30
3.08101,57.68788284,11.98131892,57.68788350,11.98131833,10:07:36.527434,0.00339,1.39613,-0.01281,0.00076,0.04339,-0.00373,-0.01715,-0.04831,0.05905,0.95191,3.07741,1.32288,1.98805,1.98901,-1.21346,2.70678,2.98925,-1.24818,2.77987,1.89322,1.89322,A,100736.30
3.10636,57.68788284,11.98131892,57.68788500,11.98131733,10:07:36.552794,0.01835,1.39613,-0.01248,-0.00065,0.04614,-0.01090,-0.01883,0.01336,0.00061,1.06097,3.08738,1.32288,1.98805,1.98901,-1.21346,2.70678,3.10234,-1.30762,2.94667,1.91312,1.91312,A,100736.40
3.12248,57.68788407,11.98131791,57.68788500,11.98131733,10:07:36.569140,0.00829,1.39613,-0.01219,-0.00541,0.02078,-0.01594,-0.02937,-0.01531,-0.01549,1.12856,3.11686,1.33753,1.97741,1.97581,-1.27344,2.84313,3.10234,-1.30762,2.94667,1.91312,1.91312,A,100736.40
3.12777,57.68788407,11.98131791,57.68788500,11.98131733,10:07:36.574195,0.00319,1.39613,-0.01174,-0.00685,0.01132,-0.02449,-0.03578,-0.01122,0.03703,1.13588,3.12416,1.33753,1.97741,1.97581,-1.27344,2.84313,3.10234,-1.30762,2.94667,1.91312,1.91312,A,100736.40
3.13862,57.68788407,11.98131791,57.68788500,11.98131733,10:07:36.585233,0.00349,1.39613,-0.01134,-0.00883,0.00597,-0.02419,-0.03853,-0.02879,0.02971,0.97515,3.13502,1.33753,1.97741,1.97581,-1.27344,2.84313,3.10234,-1.30762,2.94667,1.91312,1.91312,A,100736.40
3.14868,57.68788407,11.98131791,57.68788500,11.98131733,10:07:36.595098,0.00315,1.43795,-0.01061,-0.01067,0.00093,-0.03228,-0.04067,-0.03050,0.04795,0.86559,3.14509,1.33753,1.97741,1.97581,-1.27344,2.84313,3.10234,-1.30762,2.94667,1.91312,1.91312,A,100736.40
3.15910,57.68788407,11.98131791,57.68788500,11.98131733,10:07:36.605529,0.00318,1.43795,-0.00961,-0.01263,0.00383,-0.03152,-0.03975,-0.06350,0.06332,0.87834,3.15528,1.33753,1.97741,1.97581,-1.27344,2.84313,3.10234,-1.30762,2.94667,1.91312,1.91312,A,100736.40
3.16949,57.68788407,11.98131791,57.68788500,11.98131733,10:07:36.615910,0.00317,1.43795,-0.00957,-0.01480,-0.00075,-0.01747,-0.04052,-0.09095,0.01049,0.91701,3.16591,1.33753,1.97741,1.97581,-1.27344,2.84313,3.10234,-1.30762,2.94667,1.91312,1.91312,A,100736.40
3.18005,57.68788407,11.98131791,57.68788500,11.98131733,10:07:36.626460,0.00333,1.43795,-0.01003,-0.01707,-0.00655,-0.00143,-0.04541,-0.06789,-0.01702,0.96154,3.17643,1.33753,1.97741,1.97581,-1.27344,2.84313,3.10234,-1.30762,2.94667,1.91312,1.91312,A,100736.40
3.19021,57.68788407,11.98131791,57.68788500,11.98131733,10:07:36.636625,0.00298,1.43795,-0.01076,-0.01953,-0.02503,0.00376,-0.04525,0.06655,-0.02391,0.98192,3.18662,1.33753,1.97741,1.97581,-1.27344,2.84313,3.10234,-1.30762,2.94667,1.91312,1.91312,A,100736.40
3.20076,57.68788407,11.98131791,57.68788500,11.98131733,10:07:36.647184,0.00315,1.43795,-0.01121,-0.02199,-0.03358,-0.00999,-0.05335,0.02013,-0.00061,1.01126,3.19717,1.33753,1.97741,1.97581,-1.27344,2.84313,3.10234,-1.30762,2.94667,1.91312,1.91312,A,100736.40
3.23822,57.68788407,11.98131791,57.68788683,11.98131533,10:07:36.684648,0.03020,1.43795,-0.01123,-0.02434,-0.04259,-0.02190,-0.06114,-0.00604,0.03447,1.04615,3.20739,1.33753,1.97741,1.97581,-1.27344,2.84313,3.23318,-1.42649,3.15052,2.09872,2.09872,A,100736.60
3.25255,57.68788555,11.98131670,57.68788683,11.98131533,10:07:36.698970,0.00656,1.43795,-0.01364,-0.03184,-0.05420,-0.03427,-0.06755,-0.05624,-0.01659,0.98521,3.24665,1.35762,1.99631,1.98685,-1.34516,3.00793,3.23318,-1.42649,3.15052,2.09872,2.09872,A,100736.60
3.25957,57.68788555,11.98131670,57.68788683,11.98131533,10:07:36.705989,0.00319,1.43795,-0.01473,-0.03326,-0.06153,-0.02037,-0.06572,-0.05313,-0.03294,0.95715,3.25595,1.35762,1.99631,1.98685,-1.34516,3.00793,3.23318,-1.42649,3.15052,2.09872,2.09872,A,100736.60
3.26994,57.68788555,11.98131670,57.68788683,11.98131533,10:07:36.716356,0.00299,1.43795,-0.01538,-0.03470,-0.06932,-0.00815,-0.06709,-0.09107,0.00299,0.91073,3.26634,1.35762,1.99631,1.98685,-1.34516,3.00793,3.23318,-1.42649,3.15052,2.09872,2.09872,A,100736.60
3.28074,57.68788555,11.98131670,57.68788683,11.98131533,10:07:36.727161,0.00339,1.43795,-0.01532,-0.03592,-0.06855,0.00009,-0.06495,-0.09010,0.04624,0.90030,3.27714,1.35762,1.99631,1.98685,-1.34516,3.00793,3.23318,-1.42649,3.15052,2.09872,2.09872,A,100736.60
3.29058,57.68788555,11.98131670,57.68788683,11.98131533,10:07:36.737204,0.00300,1.43795,-0.01579,-0.03677,-0.05954,-0.00327,-0.06159,-0.04081,0.00537,0.94818,3.28699,1.35762,1.99631,1.98685,-1.34516,3.00793,3.23318,-1.42649,3.15052,2.09872,2.09872,A,100736.60
3.30123,57.68788555,11.98131670,57.68788683,11.98131533,10:07:36.747646,0.00325,1.43795,-0.01633,-0.03745,-0.05588,-0.00892,-0.06083,-0.02434,0.00213,1.01675,3.29763,1.35762,1.99631,1.98685,-1.34516,3.00793,3.23318,-1.42649,3.15052,2.09872,2.09872,A,100736.60
3.31169,57.68788555,11.98131670,57.68788683,11.98131533,10:07:36.758115,0.00332,1.43795,-0.01725,-0.03787,-0.06260,-0.01411,-0.05762,0.04246,-0.02184,1.06671,3.30807,1.35762,1.99631,1.98685,-1.34516,3.00793,3.23318,-1.42649,3.15052,2.09872,2.09872,A,100736.60
3.32207,57.68788555,11.98131670,57.68788683,11.98131533,10:07:36.768489,0.00312,1.43795,-0.01808,-0.03807,-0.06016,-0.01869,-0.05976,-0.04050,-0.01885,1.13118,3.31847,1.35762,1.99631,1.98685,-1.34516,3.00793,3.23318,-1.42649,3.15052,2.09872,2.09872,A,100736.60
3.33252,57.68788555,11.98131670,57.68788683,11.98131533,10:07:36.778929,0.00318,1.43795,-0.01891,-0.03813,-0.06565,-0.01533,-0.06144,-0.03575,-0.01476,1.08336,3.32892,1.35762,1.99631,1.98685,-1.34516,3.00793,3.23318,-1.42649,3.15052,2.09872,2.09872,A,100736.60
3.35907,57.68788555,11.98131670,57.68788800,11.98131433,10:07:36.805514,0.01949,1.43795,-0.01895,-0.03813,-0.05786,-0.01106,-0.05930,-0.02965,0.03196,1.03066,3.33898,1.35762,1.99631,1.98685,-1.34516,3.00793,3.35396,-1.48593,3.28025,2.00042,2.00042,A,100736.70
3.37761,57.68788696,11.98131552,57.68788800,11.98131433,10:07:36.824043,0.00762,1.43795,-0.02036,-0.03813,-0.04656,-0.03595,-0.05961,-0.06954,-0.00476,0.91512,3.36976,1.37368,1.99456,1.98324,-1.41526,3.16428,3.35396,-1.48593,3.28025,2.00042,2.00042,A,100736.70
3.38356,57.68788696,11.98131552,57.68788800,11.98131433,10:07:36.829979,0.00317,1.43795,-0.02145,-0.03813,-0.03969,-0.03030,-0.05182,-0.08198,-0.05185,0.98436,3.37996,1.37368,1.99456,1.98324,-1.41526,3.16428,3.35396,-1.48593,3.28025,2.00042,2.00042,A,100736.70
3.39394,57.68788696,11.98131552,57.68788800,11.98131433,10:07:36.840361,0.00298,1.43795,-0.02207,-0.03813,-0.04366,-0.02205,-0.06068,-0.06326,-0.01903,1.03834,3.39035,1.37368,1.99456,1.98324,-1.41526,3.16428,3.35396,-1.48593,3.28025,2.00042,2.00042,A,100736.70
3.40453,57.68788696,11.98131552,57.68788800,11.98131433,10:07:36.850948,0.00317,1.43795,-0.02272,-0.03813,-0.03404,-0.01472,-0.05762,0.01135,-0.02910,1.04578,3.40095,1.37368,1.99456,1.98324,-1.41526,3.16428,3.35396,-1.48593,3.28025,2.00042,2.00042,A,100736.70
3.41458,57.68788696,11.98131552,57.68788800,11.98131433,10:07:36.861218,0.00300,1.43795,-0.02269,-0.03813,-0.03710,-0.02251,-0.05426,0.03971,0.01830,1.01663,3.41100,1.37368,1.99456,1.98324,-1.41526,3.16428,3.35396,-1.48593,3.28025,2.00042,2.00042,A,100736.70
3.42539,57.68788696,11.98131552,57.68788800,11.98131433,10:07:36.871808,0.00340,1.43795,-0.02293,-0.03813,-0.02992,-0.03503,-0.05029,0.02983,-0.00323,0.98613,3.42179,1.37368,1.99456,1.98324,-1.41526,3.16428,3.35396,-1.48593,3.28025,2.00042,2.00042,A,100736.70
3.43554,57.68788696,11.98131552,57.68788800,11.98131433,10:07:36.881963,0.00316,1.43795,-0.02317,-0.03813,-0.02808,-0.04969,-0.05106,0.01519,-0.00604,0.90329,3.43194,1.37368,1.99456,1.98324,-1.41526,3.16428,3.35396,-1.48593,3.28025,2.00042,2.00042,A,100736.70
3.44593,57.68788696,11.98131552,57.68788800,11.98131433,10:07:36.892346,0.00297,1.43795,-0.02306,-0.03813,-0.02305,-0.06680,-0.04327,-0.08595,0.01299,0.94800,3.44234,1.37368,1.99456,1.98324,-1.41526,3.16428,3.35396,-1.48593,3.28025,2.00042,2.00042,A,100736.70
3.47255,57.68788696,11.98131552,57.68788900,11.98131300,10:07:36.918989,0.01919,1.43795,-0.02320,-0.03807,-0.01312,-0.04985,-0.03181,-0.16580,-0.00927,1.04548,3.45294,1.37368,1.99456,1.98324,-1.41526,3.16428,3.46790,-1.56518,3.39145,2.19000,2.19000,A,100736.80
3.48984,57.68788825,11.98131442,57.68788900,11.98131300,10:07:36.936272,0.00684,1.43795,-0.02362,-0.03598,-0.00762,0.02850,-0.02570,0.00659,-0.02220,1.08476,3.48421,1.38654,2.02099,2.01031,-1.48051,3.30762,3.46790,-1.56518,3.39145,2.19000,2.19000,A,100736.80
3.49736,57.68788825,11.98131442,57.68788900,11.98131300,10:07:36.943784,0.00396,1.43795,-0.02312,-0.03422,-0.00472,0.02163,-0.02448,0.04191,0.02769,1.00119,3.49376,1.38654,2.02099,2.01031,-1.48051,3.30762,3.46790,-1.56518,3.39145,2.19000,2.19000,A,100736.80
3.50714,57.68788825,11.98131442,57.68788900,11.98131300,10:07:36.953573,0.00334,1.43795,-0.02311,-0.03241,-0.00121,-0.00388,-0.02586,0.02446,-0.00641,0.94434,3.50317,1.38654,2.02099,2.01031,-1.48051,3.30762,3.46790,-1.56518,3.39145,2.19000,2.19000,A,100736.80
3.51751,57.68788825,11.98131442,57.68788900,11.98131300,10:07:36.963935,0.00333,1.43795,-0.02299,-0.03026,-0.00090,-0.02541,-0.02540,-0.02385,0.00049,0.93507,3.51392,1.38654,2.02099,2.01031,-1.48051,3.30762,3.46790,-1.56518,3.39145,2.19000,2.19000,A,100736.80
3.52791,57.68788825,11.98131442,57.68788900,11.98131300,10:07:36.974332,0.00332,1.43795,-0.02269,-0.02816,0.00735,-0.03885,-0.02570,-0.00201,0.00622,0.86400,3.52429,1.38654,2.02099,2.01031,-1.48051,3.30762,3.46790,-1.56518,3.39145,2.19000,2.19000,A,100736.80
3.53811,57.68788825,11.98131442,57.68788900,11.98131300,10:07:36.984529,0.00299,1.43795,-0.02297,-0.02601,0.00673,-0.04832,-0.02128,-0.06490,-0.02751,0.91207,3.53452,1.38654,2.02099,2.01031,-1.48051,3.30762,3.46790,-1.56518,3.39145,2.19000,2.19000,A,100736.80
3.54870,57.68788825,11.98131442,57.68788900,11.98131300,10:07:36.995116,0.00318,1.43795,-0.02248,-0.02397,0.00750,-0.03503,-0.01349,-0.05331,0.02123,0.99284,3.54511,1.38654,2.02099,2.01031,-1.48051,3.30762,3.46790,-1.56518,3.39145,2.19000,2.19000,A,100736.80
3.55906,57.68788825,11.98131442,57.68788900,11.98131300,10:07:37.005493,0.00315,1.43795,-0.02273,-0.02219,0.00582,-0.01380,-0.01196,-0.07790,-0.02836,1.08629,3.55527,1.38654,2.02099,2.01031,-1.48051,3.30762,3.46790,-1.56518,3.39145,2.19000,2.19000,A,100736.80
3.58514,57.68788825,11.98131442,57.68789000,11.98131167,10:07:37.031571,0.01882,1.43795,-0.02171,-0.02055,0.00032,0.01765,-0.01257,-0.14134,0.07241,1.14540,3.56589,1.38654,2.02099,2.01031,-1.48051,3.30762,3.58113,-1.64443,3.50264,2.19000,2.19000,A,100736.90
3.60881,57.68788958,11.98131319,57.68789000,11.98131167,10:07:37.055234,0.00947,1.43795,-0.02038,-0.01591,0.01987,-0.04145,-0.01196,0.17519,0.03160,0.84662,3.60221,1.39682,2.04255,2.03783,-1.55379,3.45581,3.58113,-1.64443,3.50264,2.19000,2.19000,A,100736.90
3.61317,57.68788958,11.98131319,57.68789000,11.98131167,10:07:37.059586,0.00338,1.43795,-0.02028,-0.01489,0.01773,-0.07733,-0.00738,0.11535,-0.00354,0.76555,3.60957,1.39682,2.04255,2.03783,-1.55379,3.45581,3.58113,-1.64443,3.50264,2.19000,2.19000,A,100736.90
3.62390,57.68788958,11.98131319,57.68789000,11.98131167,10:07:37.070320,0.00372,1.43795,-0.02032,-0.01364,0.02201,-0.11124,-0.00463,0.04685,-0.01586,0.80551,3.61955,1.39682,2.04255,2.03783,-1.55379,3.45581,3.58113,-1.64443,3.50264,2.19000,2.19000,A,100736.90
3.63377,57.68788958,11.98131319,57.68789000,11.98131167,10:07:37.080185,0.00318,1.50425,-0.02059,-0.01251,0.01651,-0.12513,0.00178,-0.11584,-0.02739,0.86894,3.63017,1.39682,2.04255,2.03783,-1.55379,3.45581,3.58113,-1.64443,3.50264,2.19000,2.19000,A,100736.90
3.64418,57.68788958,11.98131319,57.68789000,11.98131167,10:07:37.090607,0.00320,1.50425,-0.02076,-0.01172,0.01559,-0.08741,-0.00494,-0.11389,-0.02367,0.98478,3.64058,1.39682,2.04255,2.03783,-1.55379,3.45581,3.58113,-1.64443,3.50264,2.19000,2.19000,A,100736.90
3.65426,57.68788958,11.98131319,57.68789000,11.98131167,10:07:37.100671,0.00301,1.50425,-0.02028,-0.01124,0.00780,-0.03381,-0.01150,-0.24449,0.03093,1.21847,3.65066,1.39682,2.04255,2.03783,-1.55379,3.45581,3.58113,-1.64443,3.50264,2.19000,2.19000,A,100736.90
3.66480,57.68788958,11.98131319,57.68789000,11.98131167,10:07:37.111211,0.00315,1.50425,-0.01979,-0.01104,0.01315,0.02880,-0.01532,-0.04221,0.02641,1.19090,3.66121,1.39682,2.04255,2.03783,-1.55379,3.45581,3.58113,-1.64443,3.50264,2.19000,2.19000,A,100736.90
3.67521,57.68788958,11.98131319,57.68789000,11.98131167,10:07:37.121634,0.00317,1.50425,-0.01926,-0.01101,0.01376,0.04239,-0.02173,0.04520,0.02812,1.09184,3.67141,1.39682,2.04255,2.03783,-1.55379,3.45581,3.58113,-1.64443,3.50264,2.19000,2.19000,A,100736.90
3.70105,57.68788958,11.98131319,57.68789083,11.98131050,10:07:37.147487,0.01860,1.50425,-0.01984,-0.01101,0.01849,0.01979,-0.02128,0.08546,-0.05734,1.10312,3.68209,1.39682,2.04255,2.03783,-1.55379,3.45581,3.69705,-1.71377,3.59530,2.21324,2.21324,A,100737.00
3.71649,57.68789077,11.98131200,57.68789083,11.98131050,10:07:37.162916,0.00574,1.50425,-0.01860,-0.01101,0.00689,-0.05000,-0.01318,-0.06637,0.07027,1.01791,3.71062,1.41830,2.06682,2.06355,-1.62489,3.58791,3.69705,-1.71377,3.59530,2.21324,2.21324,A,100737.00
3.72486,57.68789077,11.98131200,57.68789083,11.98131050,10:07:37.171288,0.00328,1.50425,-0.01854,-0.01101,0.01651,-0.04252,-0.00356,-0.05185,-0.00762,1.02388,3.72125,1.41830,2.06682,2.06355,-1.62489,3.58791,3.69705,-1.71377,3.59530,2.21324,2.21324,A,100737.00
3.73561,57.68789077,11.98131200,57.68789083,11.98131050,10:07:37.182034,0.00326,1.50425,-0.01947,-0.01101,0.00780,-0.01106,-0.00127,-0.06978,-0.06545,0.97155,3.73199,1.41830,2.06682,2.06355,-1.62489,3.58791,3.69705,-1.71377,3.59530,2.21324,2.21324,A,100737.00
3.74591,57.68789077,11.98131200,57.68789083,11.98131050,10:07:37.192322,0.00316,1.50425,-0.01961,-0.01101,-0.00655,0.00712,-0.00341,-0.04929,-0.00531,0.95136,3.74232,1.41830,2.06682,2.06355,-1.62489,3.58791,3.69705,-1.71377,3.59530,2.21324,2.21324,A,100737.00
3.75632,57.68789077,11.98131200,57.68789083,11.98131050,10:07:37.202733,0.00318,1.50425,-0.01903,-0.01101,-0.00273,0.02590,-0.00662,-0.10620,0.03684,0.92165,3.75273,1.41830,2.06682,2.06355,-1.62489,3.58791,3.69705,-1.71377,3.59530,2.21324,2.21324,A,100737.00
3.76638,57.68789077,11.98131200,57.68789083,11.98131050,10:07:37.212793,0.00300,1.50425,-0.01827,-0.01101,-0.01037,0.03384,-0.01685,-0.05203,0.05100,0.89048,3.76279,1.41830,2.06682,2.06355,-1.62489,3.58791,3.69705,-1.71377,3.59530,2.21324,2.21324,A,100737.00
3.77695,57.68789077,11.98131200,57.68789083,11.98131050,10:07:37.223365,0.00317,1.50425,-0.01766,-0.01098,-0.00121,0.02987,-0.02341,-0.04282,0.03971,0.94971,3.77335,1.41830,2.06682,2.06355,-1.62489,3.58791,3.69705,-1.71377,3.59530,2.21324,2.21324,A,100737.00
3.78735,57.68789077,11.98131200,57.68789083,11.98131050,10:07:37.233768,0.00317,1.50425,-0.01759,-0.01084,-0.00151,0.00422,-0.01318,0.04233,0.00653,0.99521,3.78353,1.41830,2.06682,2.06355,-1.62489,3.58791,3.69705,-1.71377,3.59530,2.21324,2.21324,A,100737.00
3.81391,57.68789077,11.98131200,57.68789217,11.98130967,10:07:37.260347,0.01934,1.50425,-0.01754,-0.01045,-0.00686,-0.01701,-0.00875,0.05685,0.01128,1.10068,3.79413,1.41830,2.06682,2.06355,-1.62489,3.58791,3.80909,-1.76330,3.74356,1.89322,1.89322,A,100737.10
3.82831,57.68789200,11.98131071,57.68789217,11.98130967,10:07:37.274733,0.00766,1.50425,-0.01734,-0.00855,-0.01892,-0.02816,0.00499,-0.05246,0.05270,1.06683,3.82168,1.43549,2.03984,2.03730,-1.70127,3.72506,3.80909,-1.76330,3.74356,1.89322,1.89322,A,100737.10
3.83581,57.68789200,11.98131071,57.68789217,11.98130967,10:07:37.282238,0.00462,1.50425,-0.01547,-0.00793,-0.01938,-0.00999,0.00469,-0.04673,0.13853,0.98271,3.83215,1.43549,2.03984,2.03730,-1.70127,3.72506,3.80909,-1.76330,3.74356,1.89322,1.89322,A,100737.10
3.84477,57.68789200,11.98131071,57.68789217,11.98130967,10:07:37.291195,0.00319,1.50425,-0.01434,-0.00750,-0.00136,0.01048,0.00453,-0.09333,0.07466,0.92976,3.84119,1.43549,2.03984,2.03730,-1.70127,3.72506,3.80909,-1.76330,3.74356,1.89322,1.89322,A,100737.10
3.85515,57.68789200,11.98131071,57.68789217,11.98130967,10:07:37.301577,0.00317,1.50425,-0.01344,-0.00725,0.00735,0.02331,0.00270,0.06478,0.05130,0.85071,3.85136,1.43549,2.03984,2.03730,-1.70127,3.72506,3.80909,-1.76330,3.74356,1.89322,1.89322,A,100737.10
3.86555,57.68789200,11.98131071,57.68789217,11.98130967,10:07:37.311965,0.00316,1.50425,-0.01364,-0.00708,0.00108,0.00803,-0.00142,-0.07405,-0.00744,0.89426,3.86196,1.43549,2.03984,2.03730,-1.70127,3.72506,3.80909,-1.76330,3.74356,1.89322,1.89322,A,100737.10
3.87593,57.68789200,11.98131071,57.68789217,11.98130967,10:07:37.322345,0.00315,1.50425,-0.01452,-0.00685,-0.00487,0.00758,-0.00081,-0.06631,-0.04776,0.96813,3.87233,1.43549,2.03984,2.03730,-1.70127,3.72506,3.80909,-1.76330,3.74356,1.89322,1.89322,A,100737.10
3.88620,57.68789200,11.98131071,57.68789217,11.98130967,10:07:37.332614,0.00298,1.50425,-0.01457,-0.00643,-0.00747,0.00422,-0.00310,-0.00037,0.00720,1.00626,3.88261,1.43549,2.03984,2.03730,-1.70127,3.72506,3.80909,-1.76330,3.74356,1.89322,1.89322,A,100737.10
3.89684,57.68789200,11.98131071,57.68789217,11.98130967,10:07:37.343263,0.00322,1.50425,-0.01478,-0.00563,-0.01297,-0.00968,-0.00677,-0.07655,0.00061,1.08531,3.89324,1.43549,2.03984,2.03730,-1.70127,3.72506,3.80909,-1.76330,3.74356,1.89322,1.89322,A,100737.10
3.90717,57.68789200,11.98131071,57.68789217,11.98130967,10:07:37.353604,0.00316,1.50425,-0.01452,-0.00456,-0.01006,-0.01136,-0.00234,-0.00500,0.03276,1.12527,3.90337,1.43549,2.03984,2.03730,-1.70127,3.72506,3.80909,-1.76330,3.74356,1.89322,1.89322,A,100737.10
3.94536,57.68789200,11.98131071,57.68789483,11.98130750,10:07:37.391803,0.03094,1.50425,-0.01472,-0.00320,-0.01907,-0.00754,-0.00677,-0.06063,0.00677,1.12508,3.91399,1.43549,2.03984,2.03730,-1.70127,3.72506,3.93984,-1.89208,4.04008,1.98052,1.98052,A,100737.30
3.96603,57.68789363,11.98130915,57.68789483,11.98130750,10:07:37.412459,0.00903,1.50425,-0.01416,0.00127,-0.02152,-0.01503,0.00606,-0.05490,0.09662,0.87748,3.96044,1.44925,2.02959,2.02997,-1.79417,3.90636,3.93984,-1.89208,4.04008,1.98052,1.98052,A,100737.30
3.97019,57.68789363,11.98130915,57.68789483,11.98130750,10:07:37.416590,0.00291,1.50425,-0.01385,0.00164,-0.01587,-0.01258,0.00499,-0.10132,0.03184,0.93129,3.96660,1.44925,2.02959,2.02997,-1.79417,3.90636,3.93984,-1.89208,4.04008,1.98052,1.98052,A,100737.30
3.98107,57.68789363,11.98130915,57.68789483,11.98130750,10:07:37.427489,0.00339,1.50425,-0.01390,0.00198,-0.01190,0.00635,0.01110,-0.07979,0.01342,1.05957,3.97746,1.44925,2.02959,2.02997,-1.79417,3.90636,3.93984,-1.89208,4.04008,1.98052,1.98052,A,100737.30
3.99124,57.68789363,11.98130915,57.68789483,11.98130750,10:07:37.437663,0.00316,1.50425,-0.01475,0.00209,-0.01724,0.02208,0.01064,-0.06039,-0.04117,1.09660,3.98744,1.44925,2.02959,2.02997,-1.79417,3.90636,3.93984,-1.89208,4.04008,1.98052,1.98052,A,100737.30
4.00167,57.68789363,11.98130915,57.68789483,11.98130750,10:07:37.448084,0.00318,1.50425,-0.01500,0.00209,-0.01724,0.03720,0.01553,0.03782,0.00177,1.09349,3.99808,1.44925,2.02959,2.02997,-1.79417,3.90636,3.93984,-1.89208,4.04008,1.98052,1.98052,A,100737.30
4.01203,57.68789363,11.98130915,57.68789483,11.98130750,10:07:37.458620,0.00315,1.50425,-0.01609,0.00209,-0.02976,0.02514,0.01461,0.02532,-0.04874,1.05939,4.00843,1.44925,2.02959,2.02997,-1.79417,3.90636,3.93984,-1.89208,4.04008,1.98052,1.98052,A,100737.30
4.02237,57.68789363,11.98130915,57.68789483,11.98130750,10:07:37.468781,0.00314,1.50425,-0.01586,0.00212,-0.02747,0.00696,0.00805,-0.00677,0.04142,1.04218,4.01878,1.44925,2.02959,2.02997,-1.79417,3.90636,3.93984,-1.89208,4.04008,1.98052,1.98052,A,100737.30
4.03278,57.68789363,11.98130915,57.68789483,11.98130750,10:07:37.479199,0.00316,1.50425,-0.01571,0.00218,-0.01617,-0.01487,0.00820,-0.06832,0.02617,1.00241,4.02919,1.44925,2.02959,2.02997,-1.79417,3.90636,3.93984,-1.89208,4.04008,1.98052,1.98052,A,100737.30
4.05846,57.68789363,11.98130915,57.68789583,11.98130650,10:07:37.504895,0.01844,1.50425,-0.01615,0.00229,-0.01831,-0.01610,0.00438,-0.02806,-0.00988,0.97929,4.03995,1.44925,2.02959,2.02997,-1.79417,3.90636,4.05485,-1.95152,4.15128,2.06169,2.06169,A,100737.40
4.06975,57.68789487,11.98130797,57.68789583,11.98130650,10:07:37.516176,0.00542,1.50425,-0.01713,0.00252,-0.03862,-0.01579,0.00682,-0.01318,0.00092,0.90353,4.06415,1.46025,2.03444,2.03519,-1.86422,4.04435,4.05485,-1.95152,4.15128,2.06169,2.06169,A,100737.40
4.07790,57.68789487,11.98130797,57.68789583,11.98130650,10:07:37.524313,0.00317,1.50425,-0.01779,0.00260,-0.03419,-0.00632,0.01003,-0.10522,-0.01525,0.91964,4.07431,1.46025,2.03444,2.03519,-1.86422,4.04435,4.05485,-1.95152,4.15128,2.06169,2.06169,A,100737.40
4.08830,57.68789487,11.98130797,57.68789583,11.98130650,10:07:37.534718,0.00317,1.50425,-0.01757,0.00263,-0.03679,0.01552,0.00881,-0.10760,0.04142,0.95233,4.08471,1.46025,2.03444,2.03519,-1.86422,4.04435,4.05485,-1.95152,4.15128,2.06169,2.06169,A,100737.40
4.09836,57.68789487,11.98130797,57.68789583,11.98130650,10:07:37.544785,0.00301,1.57044,-0.01725,0.00263,-0.02702,0.02544,0.00453,-0.11370,0.04294,0.99027,4.09478,1.46025,2.03444,2.03519,-1.86422,4.04435,4.05485,-1.95152,4.15128,2.06169,2.06169,A,100737.40
4.10894,57.68789487,11.98130797,57.68789583,11.98130650,10:07:37.555357,0.00319,1.57044,-0.01720,0.00269,-0.02915,0.02957,0.00606,-0.06191,0.02983,1.06622,4.10535,1.46025,2.03444,2.03519,-1.86422,4.04435,4.05485,-1.95152,4.15128,2.06169,2.06169,A,100737.40
4.11936,57.68789487,11.98130797,57.68789583,11.98130650,10:07:37.565776,0.00321,1.57044,-0.01766,0.00283,-0.02946,0.02499,0.00423,0.06222,-0.00720,1.08806,4.11555,1.46025,2.03444,2.03519,-1.86422,4.04435,4.05485,-1.95152,4.15128,2.06169,2.06169,A,100737.40
4.12972,57.68789487,11.98130797,57.68789583,11.98130650,10:07:37.576139,0.00318,1.57044,-0.01775,0.00305,-0.03343,0.01170,0.00377,0.02544,0.02385,1.11221,4.12613,1.46025,2.03444,2.03519,-1.86422,4.04435,4.05485,-1.95152,4.15128,2.06169,2.06169,A,100737.40
4.14004,57.68789487,11.98130797,57.68789583,11.98130650,10:07:37.586455,0.00310,1.57044,-0.01837,0.00342,-0.03877,-0.00052,0.00866,0.01013,-0.01196,1.07384,4.13643,1.46025,2.03444,2.03519,-1.86422,4.04435,4.05485,-1.95152,4.15128,2.06169,2.06169,A,100737.40
4.15021,57.68789487,11.98130797,57.68789583,11.98130650,10:07:37.596632,0.00298,1.57044,-0.01908,0.00393,-0.03939,-0.00678,0.01217,-0.08296,-0.01781,1.01760,4.14662,1.46025,2.03444,2.03519,-1.86422,4.04435,4.05485,-1.95152,4.15128,2.06169,2.06169,A,100737.40
4.17528,57.68789487,11.98130797,57.68789700,11.98130533,10:07:37.621713,0.01765,1.57044,-0.01922,0.00447,-0.03847,0.00101,0.01706,-0.13158,0.01915,0.94562,4.15722,1.46025,2.03444,2.03519,-1.86422,4.04435,4.17216,-2.02086,4.28100,2.06169,2.06169,A,100737.50
4.18619,57.68789626,11.98130664,57.68789700,11.98130533,10:07:37.632611,0.00546,1.57044,-0.02001,0.00546,-0.03068,0.00773,0.01538,0.00970,-0.00201,0.91329,4.18063,1.48229,2.03861,2.04023,-1.94327,4.19837,4.17216,-2.02086,4.28100,2.06169,2.06169,A,100737.50
4.19421,57.68789626,11.98130664,57.68789700,11.98130533,10:07:37.640622,0.00299,1.57044,-0.02039,0.00571,-0.03465,0.00437,0.01492,-0.05563,-0.00067,0.99345,4.19061,1.48229,2.03861,2.04023,-1.94327,4.19837,4.17216,-2.02086,4.28100,2.06169,2.06169,A,100737.50
4.20478,57.68789626,11.98130664,57.68789700,11.98130533,10:07:37.651194,0.00317,1.57044,-0.02117,0.00586,-0.03374,0.00223,0.01217,-0.13518,-0.02782,1.05011,4.20119,1.48229,2.03861,2.04023,-1.94327,4.19837,4.17216,-2.02086,4.28100,2.06169,2.06169,A,100737.50
4.21517,57.68789626,11.98130664,57.68789700,11.98130533,10:07:37.661601,0.00319,1.57044,-0.02207,0.00591,-0.03328,0.01827,0.01186,-0.02391,-0.03977,1.07537,4.21137,1.48229,2.03861,2.04023,-1.94327,4.19837,4.17216,-2.02086,4.28100,2.06169,2.06169,A,100737.50
4.22556,57.68789626,11.98130664,57.68789700,11.98130533,10:07:37.671980,0.00318,1.57044,-0.02294,0.00591,-0.04229,0.01017,0.00682,-0.06728,-0.03129,1.10209,4.22197,1.48229,2.03861,2.04023,-1.94327,4.19837,4.17216,-2.02086,4.28100,2.06169,2.06169,A,100737.50
4.23703,57.68789626,11.98130664,57.68789700,11.98130533,10:07:37.683456,0.00426,1.57044,-0.02352,0.00591,-0.04702,0.00773,0.00927,-0.00732,-0.00464,1.08129,4.23339,1.48229,2.03861,2.04023,-1.94327,4.19837,4.17216,-2.02086,4.28100,2.06169,2.06169,A,100737.50
4.24616,57.68789626,11.98130664,57.68789700,11.98130533,10:07:37.692586,0.00311,1.57044,-0.02346,0.00591,-0.04763,0.00498,0.00820,-0.00738,0.03288,1.03066,4.24256,1.48229,2.03861,2.04023,-1.94327,4.19837,4.17216,-2.02086,4.28100,2.06169,2.06169,A,100737.50
4.25661,57.68789626,11.98130664,57.68789700,11.98130533,10:07:37.703030,0.00317,1.57044,-0.02360,0.00591,-0.04229,0.00819,0.01125,-0.01165,0.01763,0.96728,4.25303,1.48229,2.03861,2.04023,-1.94327,4.19837,4.17216,-2.02086,4.28100,2.06169,2.06169,A,100737.50
4.26701,57.68789626,11.98130664,57.68789700,11.98130533,10:07:37.713444,0.00318,1.57044,-0.02452,0.00591,-0.03175,-0.00220,0.01431,-0.04508,-0.03892,0.94635,4.26322,1.48229,2.03861,2.04023,-1.94327,4.19837,4.17216,-2.02086,4.28100,2.06169,2.06169,A,100737.50
4.29332,57.68789626,11.98130664,57.68789833,11.98130450,10:07:37.739751,0.01909,1.57044,-0.02528,0.00591,-0.03419,0.00559,0.01965,-0.06930,-0.02483,0.87407,4.27398,1.48229,2.03861,2.04023,-1.94327,4.19837,4.28925,-2.07040,4.42926,1.89322,1.89322,A,100737.60
4.30992,57.68789774,11.98130523,57.68789833,11.98130450,10:07:37.756335,0.00659,1.57044,-0.02677,0.00591,-0.02518,-0.00373,0.01125,-0.06088,-0.05350,1.01400,4.30432,1.49992,2.01731,2.01906,-2.02728,4.36299,4.28925,-2.07040,4.42926,1.89322,1.89322,A,100737.60
4.31693,57.68789774,11.98130523,57.68789833,11.98130450,10:07:37.763348,0.00321,1.57044,-0.02716,0.00591,-0.02457,-0.00876,0.00667,-0.07155,-0.01696,1.06884,4.31334,1.49992,2.01731,2.01906,-2.02728,4.36299,4.28925,-2.07040,4.42926,1.89322,1.89322,A,100737.60
4.32730,57.68789774,11.98130523,57.68789833,11.98130450,10:07:37.773715,0.00317,1.57044,-0.02801,0.00591,-0.01587,0.00483,-0.00020,-0.04166,-0.05624,1.10154,4.32349,1.49992,2.01731,2.01906,-2.02728,4.36299,4.28925,-2.07040,4.42926,1.89322,1.89322,A,100737.60
4.33768,57.68789774,11.98130523,57.68789833,11.98130450,10:07:37.784096,0.00316,1.57044,-0.02921,0.00591,-0.02518,-0.00113,-0.00310,0.01714,-0.07527,1.09959,4.33409,1.49992,2.01731,2.01906,-2.02728,4.36299,4.28925,-2.07040,4.42926,1.89322,1.89322,A,100737.60
4.34817,57.68789774,11.98130523,57.68789833,11.98130450,10:07:37.794587,0.00325,1.57044,-0.02921,0.00591,-0.02915,-0.01335,-0.00035,0.03739,0.01324,0.99802,4.34457,1.49992,2.01731,2.01906,-2.02728,4.36299,4.28925,-2.07040,4.42926,1.89322,1.89322,A,100737.60
4.35822,57.68789774,11.98130523,57.68789833,11.98130450,10:07:37.804640,0.00300,1.57044,-0.03009,0.00591,-0.02900,-0.03137,-0.00830,-0.02843,-0.04459,0.95709,4.35463,1.49992,2.01731,2.01906,-2.02728,4.36299,4.28925,-2.07040,4.42926,1.89322,1.89322,A,100737.60
4.36877,57.68789774,11.98130523,57.68789833,11.98130450,10:07:37.815191,0.00316,1.57044,-0.03004,0.00591,-0.02396,-0.03198,-0.00035,-0.08290,0.01122,0.90658,4.36519,1.49992,2.01731,2.01906,-2.02728,4.36299,4.28925,-2.07040,4.42926,1.89322,1.89322,A,100737.60
4.37918,57.68789774,11.98130523,57.68789833,11.98130450,10:07:37.825615,0.00317,1.57044,-0.02981,0.00591,-0.01678,-0.01961,-0.00096,-0.06295,0.01726,0.90896,4.37539,1.49992,2.01731,2.01906,-2.02728,4.36299,4.28925,-2.07040,4.42926,1.89322,1.89322,A,100737.60
4.40517,57.68789774,11.98130523,57.68789967,11.98130333,10:07:37.851606,0.01876,1.57044,-0.03122,0.00591,-0.01037,-0.00876,0.00453,-0.10169,-0.08375,0.88846,4.38602,1.49992,2.01731,2.01906,-2.02728,4.36299,4.40101,-2.13974,4.57752,2.00828,2.00828,A,100737.70
4.42188,57.68789909,11.98130400,57.68789967,11.98130333,10:07:37.868343,0.00651,1.57044,-0.03277,0.00591,-0.02870,0.01521,-0.00326,-0.09193,-0.06216,1.07226,4.41500,1.51402,2.01644,2.01819,-2.10013,4.51350,4.40101,-2.13974,4.57752,2.00828,2.00828,A,100737.70
4.42897,57.68789909,11.98130400,57.68789967,11.98130333,10:07:37.875384,0.00320,1.57044,-0.03316,0.00591,-0.02595,0.01475,-0.00723,-0.11114,-0.02135,1.12881,4.42538,1.51402,2.01644,2.01819,-2.10013,4.51350,4.40101,-2.13974,4.57752,2.00828,2.00828,A,100737.70
4.43934,57.68789909,11.98130400,57.68789967,11.98130333,10:07:37.885756,0.00318,1.57044,-0.03283,0.00591,-0.03099,0.01964,-0.01807,0.04965,0.03575,1.11246,4.43553,1.51402,2.01644,2.01819,-2.10013,4.51350,4.40101,-2.13974,4.57752,2.00828,2.00828,A,100737.70
4.44971,57.68789909,11.98130400,57.68789967,11.98130333,10:07:37.896127,0.00316,1.57044,-0.03370,0.00591,-0.02732,0.00009,-0.01654,0.06106,-0.05350,1.07537,4.44612,1.51402,2.01644,2.01819,-2.10013,4.51350,4.40101,-2.13974,4.57752,2.00828,2.00828,A,100737.70
4.46018,57.68789909,11.98130400,57.68789967,11.98130333,10:07:37.906602,0.00323,1.57044,-0.03350,0.00591,-0.03068,-0.03305,-0.01181,0.08558,0.02275,0.98747,4.45657,1.51402,2.01644,2.01819,-2.10013,4.51350,4.40101,-2.13974,4.57752,2.00828,2.00828,A,100737.70
4.47023,57.68789909,11.98130400,57.68789967,11.98130333,10:07:37.916642,0.00300,1.57044,-0.03399,0.00591,-0.03236,-0.05076,-0.00814,-0.01824,-0.02196,0.97240,4.46664,1.51402,2.01644,2.01819,-2.10013,4.51350,4.40101,-2.13974,4.57752,2.00828,2.00828,A,100737.70
4.48078,57.68789909,11.98130400,57.68789967,11.98130333,10:07:37.927198,0.00316,1.57044,-0.03437,0.00591,-0.02976,-0.04740,-0.00707,-0.15799,-0.01543,0.96081,4.47719,1.51402,2.01644,2.01819,-2.10013,4.51350,4.40101,-2.13974,4.57752,2.00828,2.00828,A,100737.70
4.49118,57.68789909,11.98130400,57.68789967,11.98130333,10:07:37.937607,0.00316,1.57044,-0.03540,0.00591,-0.02549,-0.01365,-0.00081,-0.16372,-0.06106,0.95581,4.48738,1.51402,2.01644,2.01819,-2.10013,4.51350,4.40101,-2.13974,4.57752,2.00828,2.00828,A,100737.70
4.52894,57.68789909,11.98130400,57.68790183,11.98130117,10:07:37.975374,0.03052,1.57044,-0.03622,0.00591,-0.03144,0.01124,-0.00539,-0.11791,-0.04270,0.93324,4.49800,1.51402,2.01644,2.01819,-2.10013,4.51350,4.52383,-2.26852,4.81845,2.06169,2.06169,A,100737.90
4.54405,57.68790062,11.98130261,57.68790183,11.98130117,10:07:37.990487,0.00786,1.57044,-0.03713,0.00586,-0.02534,0.00880,-0.00646,-0.12218,-0.01116,1.06573,4.53668,1.52530,2.02379,2.02553,-2.18283,4.68357,4.52383,-2.26852,4.81845,2.06169,2.06169,A,100737.90
4.54977,57.68790062,11.98130261,57.68790183,11.98130117,10:07:37.996189,0.00318,1.57044,-0.03713,0.00586,-0.01403,0.01139,-0.00219,-0.00378,-0.00647,1.06567,4.54619,1.52530,2.02379,2.02553,-2.18283,4.68357,4.52383,-2.26852,4.81845,2.06169,2.06169,A,100737.90
4.56004,57.68790062,11.98130261,57.68790183,11.98130117,10:07:38.006460,0.00305,1.57044,-0.03747,0.00586,-0.01602,-0.00342,-0.00326,-0.00823,-0.03074,1.15064,4.55644,1.52530,2.02379,2.02553,-2.18283,4.68357,4.52383,-2.26852,4.81845,2.06169,2.06169,A,100737.90
4.57014,57.68790062,11.98130261,57.68790183,11.98130117,10:07:38.016559,0.00299,1.53919,-0.03730,0.00586,-0.01678,-0.02495,0.00377,0.06265,0.00750,1.07525,4.56653,1.52530,2.02379,2.02553,-2.18283,4.68357,4.52383,-2.26852,4.81845,2.06169,2.06169,A,100737.90
4.58081,57.68790062,11.98130261,57.68790183,11.98130117,10:07:38.027231,0.00326,1.53919,-0.03749,0.00586,-0.02030,-0.04450,0.00820,-0.05618,-0.01458,1.08275,4.57721,1.52530,2.02379,2.02553,-2.18283,4.68357,4.52383,-2.26852,4.81845,2.06169,2.06169,A,100737.90
4.59113,57.68790062,11.98130261,57.68790183,11.98130117,10:07:38.037550,0.00318,1.53919,-0.03757,0.00586,-0.01434,-0.03457,0.01125,-0.05771,-0.01153,1.02687,4.58732,1.52530,2.02379,2.02553,-2.18283,4.68357,4.52383,-2.26852,4.81845,2.06169,2.06169,A,100737.90
4.60152,57.68790062,11.98130261,57.68790183,11.98130117,10:07:38.047935,0.00317,1.53919,-0.03800,0.00586,-0.01236,-0.02556,0.01034,-0.08235,-0.03379,0.94684,4.59793,1.52530,2.02379,2.02553,-2.18283,4.68357,4.52383,-2.26852,4.81845,2.06169,2.06169,A,100737.90
4.61190,57.68790062,11.98130261,57.68790183,11.98130117,10:07:38.058323,0.00316,1.53919,-0.03738,0.00586,-0.00273,-0.02236,0.00866,-0.08760,0.02532,0.89737,4.60830,1.52530,2.02379,2.02553,-2.18283,4.68357,4.52383,-2.26852,4.81845,2.06169,2.06169,A,100737.90
4.62222,57.68790062,11.98130261,57.68790183,11.98130117,10:07:38.068634,0.00299,1.53919,-0.03712,0.00586,-0.00426,-0.02404,0.00453,-0.00665,0.00427,0.88944,4.61863,1.52530,2.02379,2.02553,-2.18283,4.68357,4.52383,-2.26852,4.81845,2.06169,2.06169,A,100737.90
4.64816,57.68790062,11.98130261,57.68790300,11.98130000,10:07:38.094602,0.01854,1.53919,-0.03757,0.00586,0.00948,-0.03045,0.01003,-0.02489,-0.04941,0.96630,4.62919,1.52530,2.02379,2.02553,-2.18283,4.68357,4.64415,-2.33786,4.94817,2.06169,2.06169,A,100738.00
4.66187,57.68790210,11.98130124,57.68790300,11.98130000,10:07:38.108294,0.00714,1.53919,-0.03676,0.00586,0.00414,0.00009,0.01003,-0.13030,0.03245,1.04139,4.65627,1.52808,2.03002,2.03176,-2.26442,4.84781,4.64415,-2.33786,4.94817,2.06169,2.06169,A,100738.00
4.66831,57.68790210,11.98130124,57.68790300,11.98130000,10:07:38.114729,0.00318,1.53919,-0.03706,0.00586,0.00964,0.01567,0.00805,-0.02708,-0.03910,0.98436,4.66472,1.52808,2.03002,2.03176,-2.26442,4.84781,4.64415,-2.33786,4.94817,2.06169,2.06169,A,100738.00
4.67836,57.68790210,11.98130124,57.68790300,11.98130000,10:07:38.124782,0.00300,1.53919,-0.03727,0.00588,0.00994,0.02315,0.00957,0.03160,-0.03257,0.91396,4.67477,1.52808,2.03002,2.03176,-2.26442,4.84781,4.64415,-2.33786,4.94817,2.06169,2.06169,A,100738.00
4.68895,57.68790210,11.98130124,57.68790300,11.98130000,10:07:38.135359,0.00318,1.53919,-0.03693,0.00611,0.01376,0.01827,0.01782,0.03166,-0.00146,0.90658,4.68535,1.52808,2.03002,2.03176,-2.26442,4.84781,4.64415,-2.33786,4.94817,2.06169,2.06169,A,100738.00
4.69948,57.68790210,11.98130124,57.68790300,11.98130000,10:07:38.145903,0.00333,1.53919,-0.03653,0.00656,0.01009,0.01032,0.02026,-0.12322,0.00537,0.94739,4.69553,1.52808,2.03002,2.03176,-2.26442,4.84781,4.64415,-2.33786,4.94817,2.06169,2.06169,A,100738.00
4.70981,57.68790210,11.98130124,57.68790300,11.98130000,10:07:38.156228,0.00326,1.53919,-0.03577,0.00716,0.02231,0.01475,0.02698,-0.04136,0.02135,1.01778,4.70622,1.52808,2.03002,2.03176,-2.26442,4.84781,4.64415,-2.33786,4.94817,2.06169,2.06169,A,100738.00
4.72034,57.68790210,11.98130124,57.68790300,11.98130000,10:07:38.166758,0.00318,1.53919,-0.03608,0.00770,0.01620,0.01552,0.01874,0.03300,-0.04862,1.06738,4.71675,1.52808,2.03002,2.03176,-2.26442,4.84781,4.64415,-2.33786,4.94817,2.06169,2.06169,A,100738.00
4.73040,57.68790210,11.98130124,57.68790300,11.98130000,10:07:38.176815,0.00300,1.53919,-0.03647,0.00806,0.01223,-0.00174,0.01919,0.07533,-0.05026,1.05658,4.72681,1.52808,2.03002,2.03176,-2.26442,4.84781,4.64415,-2.33786,4.94817,2.06169,2.06169,A,100738.00
4.74097,57.68790210,11.98130124,57.68790300,11.98130000,10:07:38.187380,0.00318,1.53919,-0.03634,0.00818,0.00399,-0.02434,0.00973,0.03508,-0.00860,1.08623,4.73737,1.52808,2.03002,2.03176,-2.26442,4.84781,4.64415,-2.33786,4.94817,2.06169,2.06169,A,100738.00
4.76812,57.68790210,11.98130124,57.68790417,11.98129883,10:07:38.214560,0.01993,1.53919,-0.03595,0.00818,-0.00090,-0.02755,0.01110,-0.10541,0.01452,1.09580,4.74755,1.52808,2.03002,2.03176,-2.26442,4.84781,4.76296,-2.40721,5.07790,2.06169,2.06169,A,100738.10
4.78562,57.68790361,11.98129980,57.68790417,11.98129883,10:07:38.232052,0.00801,1.53919,-0.03569,0.00818,0.01223,0.00406,0.00591,-0.04788,-0.01915,0.91628,4.77892,1.53030,2.03525,2.03767,-2.34958,5.01641,4.76296,-2.40721,5.07790,2.06169,2.06169,A,100738.10
4.79119,57.68790361,11.98129980,57.68790417,11.98129883,10:07:38.237610,0.00319,1.53919,-0.03582,0.00818,0.02094,0.00681,0.01217,-0.00134,-0.03001,0.89707,4.78739,1.53030,2.03525,2.03767,-2.34958,5.01641,4.76296,-2.40721,5.07790,2.06169,2.06169,A,100738.10
4.80158,57.68790361,11.98129980,57.68790417,11.98129883,10:07:38.247998,0.00319,1.53919,-0.03594,0.00818,0.01254,-0.00021,0.01522,-0.04959,-0.02696,0.91415,4.79799,1.53030,2.03525,2.03767,-2.34958,5.01641,4.76296,-2.40721,5.07790,2.06169,2.06169,A,100738.10
4.81220,57.68790361,11.98129980,57.68790417,11.98129883,10:07:38.258616,0.00318,1.53919,-0.03595,0.00818,0.01727,0.00177,0.01599,-0.00665,-0.02452,0.95093,4.80859,1.53030,2.03525,2.03767,-2.34958,5.01641,4.76296,-2.40721,5.07790,2.06169,2.06169,A,100738.10
4.82252,57.68790361,11.98129980,57.68790417,11.98129883,10:07:38.269140,0.00317,1.53919,-0.03589,0.00818,0.01590,0.00254,0.01339,-0.03196,-0.02050,1.02742,4.81890,1.53030,2.03525,2.03767,-2.34958,5.01641,4.76296,-2.40721,5.07790,2.06169,2.06169,A,100738.10
4.83291,57.68790361,11.98129980,57.68790417,11.98129883,10:07:38.279318,0.00316,1.53919,-0.03550,0.00818,0.01361,0.01032,0.01247,0.01000,0.00342,1.05243,4.82932,1.53030,2.03525,2.03767,-2.34958,5.01641,4.76296,-2.40721,5.07790,2.06169,2.06169,A,100738.10
4.84332,57.68790361,11.98129980,57.68790417,11.98129883,10:07:38.289748,0.00318,1.53919,-0.03509,0.00818,0.01544,0.00193,0.00575,0.00360,0.00451,1.05621,4.83951,1.53030,2.03525,2.03767,-2.34958,5.01641,4.76296,-2.40721,5.07790,2.06169,2.06169,A,100738.10
4.85369,57.68790361,11.98129980,57.68790417,11.98129883,10:07:38.300107,0.00315,1.53919,-0.03537,0.00818,0.01590,-0.00846,0.00285,0.03392,-0.04276,1.00918,4.85010,1.53030,2.03525,2.03767,-2.34958,5.01641,4.76296,-2.40721,5.07790,2.06169,2.06169,A,100738.10
4.87942,57.68790361,11.98129980,57.68790533,11.98129783,10:07:38.325853,0.01848,1.53919,-0.03515,0.00818,0.01406,-0.02266,-0.00005,-0.00793,-0.00708,1.01626,4.86042,1.53030,2.03525,2.03767,-2.34958,5.01641,4.87537,-2.46664,5.20763,2.00042,2.00042,A,100738.20
4.90612,57.68790509,11.98129840,57.68790533,11.98129783,10:07:38.352546,0.01149,1.53919,-0.03391,0.00818,0.02262,-0.00647,0.01996,0.01226,0.01031,0.96947,4.90050,1.53208,2.03081,2.03324,-2.43308,5.18002,4.87537,-2.46664,5.20763,2.00042,2.00042,A,100738.20
4.92456,57.68790509,11.98129840,57.68790533,11.98129783,10:07:38.370987,0.00498,1.53919,-0.03328,0.00818,0.03132,0.00819,0.02576,-0.02489,-0.01135,0.99948,4.92093,1.53208,2.03081,2.03324,-2.43308,5.18002,4.87537,-2.46664,5.20763,2.00042,2.00042,A,100738.20
4.93344,57.68790509,11.98129840,57.68790533,11.98129783,10:07:38.379865,0.00345,1.53919,-0.03273,0.00818,0.03453,0.00880,0.02439,-0.09479,0.00598,1.04237,4.92984,1.53208,2.03081,2.03324,-2.43308,5.18002,4.87537,-2.46664,5.20763,2.00042,2.00042,A,100738.20
4.94355,57.68790509,11.98129840,57.68790533,11.98129783,10:07:38.389971,0.00316,1.53919,-0.03268,0.00818,0.03361,0.01613,0.02179,0.01202,-0.02891,0.99808,4.93993,1.53208,2.03081,2.03324,-2.43308,5.18002,4.87537,-2.46664,5.20763,2.00042,2.00042,A,100738.20
4.95396,57.68790509,11.98129840,57.68790533,11.98129783,10:07:38.400378,0.00300,1.53919,-0.03232,0.00818,0.03850,0.01170,0.01263,-0.01781,-0.01171,0.98417,4.95036,1.53208,2.03081,2.03324,-2.43308,5.18002,4.87537,-2.46664,5.20763,2.00042,2.00042,A,100738.20
4.96462,57.68790509,11.98129840,57.68790533,11.98129783,10:07:38.411041,0.00326,1.53919,-0.03225,0.00826,0.03865,-0.00571,0.01370,0.02416,-0.03209,0.99216,4.96102,1.53208,2.03081,2.03324,-2.43308,5.18002,4.87537,-2.46664,5.20763,2.00042,2.00042,A,100738.20
4.97461,57.68790509,11.98129840,57.68790533,11.98129783,10:07:38.421226,0.00302,1.53919,-0.03193,0.00849,0.03514,-0.01991,0.01629,-0.11761,-0.01074,0.99942,4.97101,1.53208,2.03081,2.03324,-2.43308,5.18002,4.87537,-2.46664,5.20763,2.00042,2.00042,A,100738.20
5.00077,57.68790509,11.98129840,57.68790650,11.98129700,10:07:38.447201,0.01878,1.53919,-0.03149,0.00891,0.04537,-0.00479,0.01507,-0.12444,-0.01269,1.06085,4.98180,1.53208,2.03081,2.03324,-2.43308,5.18002,4.99675,-2.51617,5.33736,1.93552,1.93552,A,100738.30
5.02467,57.68790648,11.98129710,57.68790650,11.98129700,10:07:38.471175,0.01224,1.53919,0.00000,0.01061,0.03590,-0.00021,0.02179,-0.01110,-0.02812,0.96069,5.01506,1.53350,2.01714,2.02029,-2.51043,5.33472,4.99675,-2.51617,5.33736,1.93552,1.93552,A,100738.30
5.05058,57.68790648,11.98129710,57.68790650,11.98129700,10:07:38.497222,0.01415,1.53919,0.00108,0.01106,0.04094,-0.00678,0.02179,-0.08296,0.03160,0.97484,5.03846,1.53350,2.01714,2.02029,0.05483,0.00000,4.99675,-2.51617,5.33736,1.93552,1.93552,A,100738.30
5.06646,57.68790648,11.98129710,57.68790650,11.98129700,10:07:38.512891,0.00569,1.52236,0.00111,0.01118,0.04629,0.00361,0.02194,0.02708,-0.04246,1.00345,5.06116,1.53350,2.01714,2.02029,0.05483,0.00000,4.99675,-2.51617,5.33736,1.93552,1.93552,A,100738.30
5.07604,57.68790648,11.98129710,57.68790650,11.98129700,10:07:38.522465,0.00426,1.52236,0.00089,0.01135,0.04232,0.00070,0.02042,-0.01690,-0.01958,1.04560,5.07129,1.53350,2.01714,2.02029,0.05483,0.00000,4.99675,-2.51617,5.33736,1.93552,1.93552,A,100738.30
5.08658,57.68790648,11.98129710,57.68790650,11.98129700,10:07:38.533240,0.00442,1.52236,0.00087,0.01169,0.03361,0.00376,0.01980,-0.06130,-0.00055,1.03163,5.08198,1.53350,2.01714,2.02029,0.05483,0.00000,4.99675,-2.51617,5.33736,1.93552,1.93552,A,100738.30
5.09675,57.68790648,11.98129710,57.68790650,11.98129700,10:07:38.543178,0.00419,1.52236,0.00121,0.01217,0.03621,0.00987,0.02286,-0.06460,0.02281,0.99326,5.09215,1.53350,2.01714,2.02029,0.05483,0.00000,4.99675,-2.51617,5.33736,1.93552,1.93552,A,100738.30
5.13338,57.68790648,11.98129710,57.68790867,11.98129500,10:07:38.579812,0.03030,1.52236,0.00185,0.01285,0.04216,0.01598,0.02072,0.00451,0.03758,0.96221,5.10249,1.53350,2.01714,2.02029,0.05483,0.00000,5.12857,-2.63505,5.57828,2.02916,2.02916,A,100738.50
5.14509,57.68790802,11.98129570,57.68790867,11.98129500,10:07:38.591519,0.00612,1.52236,0.00232,0.01551,0.03499,-0.01151,0.02347,-0.04630,-0.02672,1.04999,5.13845,1.53127,2.01979,2.02439,-2.59344,5.50604,5.12857,-2.63505,5.57828,2.02916,2.02916,A,100738.50
5.15368,57.68790802,11.98129570,57.68790867,11.98129500,10:07:38.600108,0.00447,1.52236,0.00144,0.01613,0.03163,-0.00510,0.02622,-0.04935,-0.05630,1.04225,5.14897,1.53127,2.01979,2.02439,-2.59344,5.50604,5.12857,-2.63505,5.57828,2.02916,2.02916,A,100738.50
5.16370,57.68790802,11.98129570,57.68790867,11.98129500,10:07:38.610127,0.00426,1.52236,0.00098,0.01658,0.02323,0.00376,0.02484,-0.08613,-0.02062,1.01675,5.15885,1.53127,2.01979,2.02439,-2.59344,5.50604,5.12857,-2.63505,5.57828,2.02916,2.02916,A,100738.50
5.17631,57.68790802,11.98129570,57.68790867,11.98129500,10:07:38.622754,0.00664,1.52236,0.00181,0.01687,0.02537,0.01949,0.02561,-0.02653,0.06027,0.98283,5.17078,1.53127,2.01979,2.02439,-2.59344,5.50604,5.12857,-2.63505,5.57828,2.02916,2.02916,A,100738.50
5.18444,57.68790802,11.98129570,57.68790867,11.98129500,10:07:38.630870,0.00438,1.52236,0.00207,0.01695,0.02735,0.02712,0.02683,-0.00543,0.02696,0.95032,5.17944,1.53127,2.01979,2.02439,-2.59344,5.50604,5.12857,-2.63505,5.57828,2.02916,2.02916,A,100738.50
5.19462,57.68790802,11.98129570,57.68790867,11.98129500,10:07:38.641312,0.00417,1.52236,0.00214,0.01695,0.04110,0.01918,0.02652,-0.03068,0.00268,0.95142,5.19002,1.53127,2.01979,2.02439,-2.59344,5.50604,5.12857,-2.63505,5.57828,2.02916,2.02916,A,100738.50
5.20503,57.68790802,11.98129570,57.68790867,11.98129500,10:07:38.651451,0.00419,1.52236,0.00169,0.01695,0.03896,0.01567,0.02393,-0.01348,-0.02843,0.94520,5.20042,1.53127,2.01979,2.02439,-2.59344,5.50604,5.12857,-2.63505,5.57828,2.02916,2.02916,A,100738.50
5.21578,57.68790802,11.98129570,57.68790867,11.98129500,10:07:38.662209,0.00444,1.52236,0.00056,0.01695,0.02628,0.01139,0.02897,0.01952,-0.06631,0.98765,5.21076,1.53127,2.01979,2.02439,-2.59344,5.50604,5.12857,-2.63505,5.57828,2.02916,2.02916,A,100738.50
5.22603,57.68790802,11.98129570,57.68790867,11.98129500,10:07:38.672442,0.00429,1.52236,0.00026,0.01695,0.01804,-0.00159,0.02759,-0.02184,-0.00769,1.00314,5.22143,1.53127,2.01979,2.02439,-2.59344,5.50604,5.12857,-2.63505,5.57828,2.02916,2.02916,A,100738.50
5.25151,57.68790802,11.98129570,57.68791017,11.98129417,10:07:38.699092,0.01939,1.52236,-0.00030,0.01695,0.02185,-0.00709,0.02210,-0.02269,-0.03050,1.11063,5.23150,1.53127,2.01979,2.02439,-2.59344,5.50604,5.24651,-2.68458,5.74507,1.85946,1.85946,A,100738.60
5.26969,57.68790954,11.98129433,57.68791017,11.98129417,10:07:38.716119,0.00832,1.52236,-0.00075,0.01695,0.02613,0.02132,0.01293,0.02739,-0.05405,0.96789,5.26102,1.52949,1.99720,2.00224,-2.67478,5.67552,5.24651,-2.68458,5.74507,1.85946,1.85946,A,100738.60
5.27586,57.68790954,11.98129433,57.68791017,11.98129417,10:07:38.722287,0.00421,1.52236,-0.00145,0.01695,0.01620,0.01262,0.00698,0.01086,-0.02959,0.87535,5.27111,1.52949,1.99720,2.00224,-2.67478,5.67552,5.24651,-2.68458,5.74507,1.85946,1.85946,A,100738.60
5.28644,57.68790954,11.98129433,57.68791017,11.98129417,10:07:38.732860,0.00440,1.52236,-0.00127,0.01695,0.00918,-0.01228,0.01156,0.00140,0.02513,0.84515,5.28186,1.52949,1.99720,2.00224,-2.67478,5.67552,5.24651,-2.68458,5.74507,1.85946,1.85946,A,100738.60
5.29662,57.68790954,11.98129433,57.68791017,11.98129417,10:07:38.743047,0.00419,1.52236,-0.00111,0.01695,0.00887,-0.01365,0.01156,-0.10089,0.02513,0.89859,5.29202,1.52949,1.99720,2.00224,-2.67478,5.67552,5.24651,-2.68458,5.74507,1.85946,1.85946,A,100738.60
5.30735,57.68790954,11.98129433,57.68791017,11.98129417,10:07:38.753791,0.00437,1.52236,-0.00144,0.01695,0.02185,0.00025,0.00850,-0.09126,-0.01324,1.00815,5.30238,1.52949,1.99720,2.00224,-2.67478,5.67552,5.24651,-2.68458,5.74507,1.85946,1.85946,A,100738.60
5.31772,57.68790954,11.98129433,57.68791017,11.98129417,10:07:38.764147,0.00434,1.52236,-0.00247,0.01695,0.01544,0.01964,0.00499,-0.01598,-0.06100,1.07238,5.31295,1.52949,1.99720,2.00224,-2.67478,5.67552,5.24651,-2.68458,5.74507,1.85946,1.85946,A,100738.60
5.32788,57.68790954,11.98129433,57.68791017,11.98129417,10:07:38.774306,0.00428,1.52236,-0.00357,0.01695,0.01147,0.03537,-0.00081,-0.10407,-0.06924,1.16516,5.32301,1.52949,1.99720,2.00224,-2.67478,5.67552,5.24651,-2.68458,5.74507,1.85946,1.85946,A,100738.60
5.33818,57.68790954,11.98129433,57.68791017,11.98129417,10:07:38.784606,0.00419,1.52236,-0.00469,0.01695,-0.00716,0.04637,-0.01517,-0.00348,-0.05563,1.12478,5.33359,1.52949,1.99720,2.00224,-2.67478,5.67552,5.24651,-2.68458,5.74507,1.85946,1.85946,A,100738.60
5.36477,57.68790954,11.98129433,57.68791100,11.98129300,10:07:38.811223,0.02039,1.52236,-0.00477,0.01689,-0.00777,0.04285,-0.01883,0.02385,0.02105,1.07360,5.34405,1.52949,1.99720,2.00224,-2.67478,5.67552,5.35900,-2.75392,5.83773,2.21324,2.21324,A,100738.70
5.38514,57.68791094,11.98129312,57.68791100,11.98129300,10:07:38.831569,0.00914,1.52236,-0.00452,0.01455,-0.00472,0.00101,-0.01318,-0.00537,0.04288,0.91799,5.37677,1.52806,2.03121,2.03553,-2.74672,5.83128,5.35900,-2.75392,5.83773,2.21324,2.21324,A,100738.70
5.39024,57.68791094,11.98129312,57.68791100,11.98129300,10:07:38.836665,0.00411,1.52236,-0.00494,0.01321,0.00337,-0.00861,-0.00967,0.03019,-0.00872,0.83607,5.38579,1.52806,2.03121,2.03553,-2.74672,5.83128,5.35900,-2.75392,5.83773,2.21324,2.21324,A,100738.70
5.40070,57.68791094,11.98129312,57.68791100,11.98129300,10:07:38.847126,0.00417,1.52236,-0.00546,0.01166,0.00994,-0.02602,0.00316,0.04075,-0.01769,0.78946,5.39612,1.52806,2.03121,2.03553,-2.74672,5.83128,5.35900,-2.75392,5.83773,2.21324,2.21324,A,100738.70
5.41128,57.68791094,11.98129312,57.68791100,11.98129300,10:07:38.857701,0.00422,1.52236,-0.00708,0.00996,0.01193,-0.03106,0.00759,-0.03812,-0.07857,0.79965,5.40645,1.52806,2.03121,2.03553,-2.74672,5.83128,5.35900,-2.75392,5.83773,2.21324,2.21324,A,100738.70
5.42183,57.68791094,11.98129312,57.68791100,11.98129300,10:07:38.868251,0.00438,1.52236,-0.00788,0.00823,0.01009,-0.04297,0.00805,-0.09473,-0.03989,0.88840,5.41703,1.52806,2.03121,2.03553,-2.74672,5.83128,5.35900,-2.75392,5.83773,2.21324,2.21324,A,100738.70
5.43203,57.68791094,11.98129312,57.68791100,11.98129300,10:07:38.878461,0.00419,1.52236,-0.00838,0.00662,0.00918,-0.03259,-0.00280,-0.15097,-0.02544,1.03938,5.42721,1.52806,2.03121,2.03553,-2.74672,5.83128,5.35900,-2.75392,5.83773,2.21324,2.21324,A,100738.70
5.44240,57.68791094,11.98129312,57.68791100,11.98129300,10:07:38.888824,0.00417,1.52236,-0.00857,0.00506,0.00276,-0.01243,-0.00936,-0.14536,-0.00159,1.20432,5.43782,1.52806,2.03121,2.03553,-2.74672,5.83128,5.35900,-2.75392,5.83773,2.21324,2.21324,A,100738.70
5.45278,57.68791094,11.98129312,57.68791100,11.98129300,10:07:38.899204,0.00415,1.52236,-0.00835,0.00373,0.00475,0.01155,-0.02403,-0.06289,0.03074,1.24446,5.44820,1.52806,2.03121,2.03553,-2.74672,5.83128,5.35900,-2.75392,5.83773,2.21324,2.21324,A,100738.70
5.47950,57.68791094,11.98129312,57.68791283,11.98129217,10:07:38.925937,0.02035,1.52236,-0.00807,0.00260,0.00032,0.02926,-0.03197,0.08619,0.03630,1.15321,5.45855,1.52806,2.03121,2.03553,-2.74672,5.83128,5.47351,-2.80345,6.04159,1.80915,1.80915,A,100738.80
5.49935,57.68791234,11.98129185,57.68791283,11.98129217,10:07:38.945780,0.00821,1.52236,-0.00694,0.00102,0.00948,-0.03228,-0.01608,-0.11169,0.05752,0.84424,5.49141,1.52692,1.99978,2.00008,-2.82202,5.98635,5.47351,-2.80345,6.04159,1.80915,1.80915,A,100738.80
5.50623,57.68791234,11.98129185,57.68791283,11.98129217,10:07:38.952650,0.00487,1.52236,-0.00538,0.00102,0.02048,-0.01365,-0.00692,-0.19935,0.09266,0.88419,5.50171,1.52692,1.99978,2.00008,-2.82202,5.98635,5.47351,-2.80345,6.04159,1.80915,1.80915,A,100738.80
5.51600,57.68791234,11.98129185,57.68791283,11.98129217,10:07:38.962946,0.00442,1.52236,-0.00544,0.00102,0.03071,-0.00388,0.00438,-0.02544,-0.00634,0.92921,5.51117,1.52692,1.99978,2.00008,-2.82202,5.98635,5.47351,-2.80345,6.04159,1.80915,1.80915,A,100738.80
5.52600,57.68791234,11.98129185,57.68791283,11.98129217,10:07:38.972422,0.00420,1.56428,-0.00556,0.00102,0.02078,0.00193,0.01018,-0.02611,-0.00659,0.99912,5.52141,1.52692,1.99978,2.00008,-2.82202,5.98635,5.47351,-2.80345,6.04159,1.80915,1.80915,A,100738.80
5.53636,57.68791234,11.98129185,57.68791283,11.98129217,10:07:38.982790,0.00416,1.56428,-0.00569,0.00102,0.01712,0.00116,0.00148,0.03812,-0.00445,1.07738,5.53156,1.52692,1.99978,2.00008,-2.82202,5.98635,5.47351,-2.80345,6.04159,1.80915,1.80915,A,100738.80
5.54673,57.68791234,11.98129185,57.68791283,11.98129217,10:07:38.993907,0.00414,1.56428,-0.00507,0.00102,0.00994,-0.00159,-0.00280,-0.01934,0.05307,1.06774,5.54215,1.52692,1.99978,2.00008,-2.82202,5.98635,5.47351,-2.80345,6.04159,1.80915,1.80915,A,100738.80
5.55703,57.68791234,11.98129185,57.68791283,11.98129217,10:07:39.003448,0.00405,1.56428,-0.00411,0.00102,0.02246,0.00773,-0.01776,-0.06015,0.07296,1.11331,5.55244,1.52692,1.99978,2.00008,-2.82202,5.98635,5.47351,-2.80345,6.04159,1.80915,1.80915,A,100738.80
5.56764,57.68791234,11.98129185,57.68791283,11.98129217,10:07:39.014065,0.00430,1.56428,-0.00392,0.00102,0.03270,-0.00968,-0.02418,-0.02220,0.00756,1.00473,5.56277,1.52692,1.99978,2.00008,-2.82202,5.98635,5.47351,-2.80345,6.04159,1.80915,1.80915,A,100738.80
5.59344,57.68791234,11.98129185,57.68791400,11.98129100,10:07:39.039865,0.01970,1.56428,-0.00378,0.00102,0.02735,-0.01426,-0.02464,-0.08211,0.00726,0.96539,5.57331,1.52692,1.99978,2.00008,-2.82202,5.98635,5.58856,-2.87280,6.17132,2.06169,2.06169,A,100738.90
5.60732,57.68791368,11.98129073,57.68791400,11.98129100,10:07:39.053753,0.00835,1.56428,-0.00275,0.00102,0.04155,-0.01228,0.00881,-0.07113,0.01202,0.97874,5.60047,1.53439,2.00915,2.00945,-2.88868,6.13566,5.58856,-2.87280,6.17132,2.06169,2.06169,A,100738.90
5.61344,57.68791368,11.98129073,57.68791400,11.98129100,10:07:39.059850,0.00408,1.56428,-0.00373,0.00102,0.04827,-0.00082,0.01263,-0.09199,-0.07113,0.96417,5.60895,1.53439,2.00915,2.00945,-2.88868,6.13566,5.58856,-2.87280,6.17132,2.06169,2.06169,A,100738.90
5.62387,57.68791368,11.98129073,57.68791400,11.98129100,10:07:39.070299,0.00429,1.56428,-0.00323,0.00102,0.04293,0.01903,0.01690,-0.11010,0.02202,0.98857,5.61902,1.53439,2.00915,2.00945,-2.88868,6.13566,5.58856,-2.87280,6.17132,2.06169,2.06169,A,100738.90
5.63418,57.68791368,11.98129073,57.68791400,11.98129100,10:07:39.080603,0.00420,1.56428,-0.00308,0.00102,0.05621,0.03033,0.01751,0.00628,-0.01031,0.96746,5.62959,1.53439,2.00915,2.00945,-2.88868,6.13566,5.58856,-2.87280,6.17132,2.06169,2.06169,A,100738.90
5.64456,57.68791368,11.98129073,57.68791400,11.98129100,10:07:39.090988,0.00419,1.56428,-0.00165,0.00102,0.04797,0.02514,0.01186,0.04392,0.08082,1.00162,5.63995,1.53439,2.00915,2.00945,-2.88868,6.13566,5.58856,-2.87280,6.17132,2.06169,2.06169,A,100738.90
5.65513,57.68791368,11.98129073,57.68791400,11.98129100,10:07:39.101557,0.00419,1.56428,-0.00089,0.00102,0.06156,-0.00342,0.00377,0.06137,0.02965,1.04938,5.65033,1.53439,2.00915,2.00945,-2.88868,6.13566,5.58856,-2.87280,6.17132,2.06169,2.06169,A,100738.90
5.66552,57.68791368,11.98129073,57.68791400,11.98129100,10:07:39.111944,0.00419,1.56428,-0.00017,0.00102,0.04980,-0.03152,0.00056,0.06551,0.03794,1.12368,5.66093,1.53439,2.00915,2.00945,-2.88868,6.13566,5.58856,-2.87280,6.17132,2.06169,2.06169,A,100738.90
5.67584,57.68791368,11.98129073,57.68791400,11.98129100,10:07:39.122266,0.00429,1.56428,-0.00030,0.00102,0.05774,-0.04755,-0.00219,-0.13786,-0.02910,1.13863,5.67097,1.53439,2.00915,2.00945,-2.88868,6.13566,5.58856,-2.87280,6.17132,2.06169,2.06169,A,100738.90
5.68640,57.68791368,11.98129073,57.68791400,11.98129100,10:07:39.132822,0.00445,1.56428,0.00037,0.00113,0.05148,-0.03228,-0.00249,-0.07527,0.03196,1.07037,5.68153,1.53439,2.00915,2.00945,-2.88868,6.13566,5.58856,-2.87280,6.17132,2.06169,2.06169,A,100738.90
5.71289,57.68791368,11.98129073,57.68791550,11.98129033,10:07:39.159321,0.02055,1.56428,-0.00024,0.00144,0.06354,-0.01640,-0.00341,-0.05618,-0.05716,0.92159,5.69192,1.53439,2.00915,2.00945,-2.88868,6.13566,5.70674,-2.91242,6.33811,1.80404,1.80404,A,100739.00
5.72946,57.68791518,11.98128947,57.68791550,11.98129033,10:07:39.175901,0.00823,1.56428,0.00119,0.00254,0.05957,-0.01915,0.01064,-0.06863,0.00110,0.76585,5.72134,1.54037,1.97841,1.97917,-2.96355,6.30285,5.70674,-2.91242,6.33811,1.80404,1.80404,A,100739.00
5.73563,57.68791518,11.98128947,57.68791550,11.98129033,10:07:39.182054,0.00421,1.56428,0.00123,0.00263,0.05927,-0.00235,0.00820,-0.16244,-0.00994,0.89060,5.73085,1.54037,1.97841,1.97917,-2.96355,6.30285,5.70674,-2.91242,6.33811,1.80404,1.80404,A,100739.00
5.74599,57.68791518,11.98128947,57.68791550,11.98129033,10:07:39.192412,0.00418,1.56428,0.00210,0.00263,0.06263,0.02346,0.00087,-0.06027,0.03825,1.02596,5.74139,1.54037,1.97841,1.97917,-2.96355,6.30285,5.70674,-2.91242,6.33811,1.80404,1.80404,A,100739.00
5.75639,57.68791518,11.98128947,57.68791550,11.98129033,10:07:39.202811,0.00419,1.56428,0.00261,0.00263,0.06522,0.03033,-0.00417,0.01147,0.01592,1.10599,5.75158,1.54037,1.97841,1.97917,-2.96355,6.30285,5.70674,-2.91242,6.33811,1.80404,1.80404,A,100739.00
5.76721,57.68791518,11.98128947,57.68791550,11.98129033,10:07:39.213649,0.00461,1.56428,0.00346,0.00263,0.06324,0.01689,-0.01074,0.11090,0.04081,1.13021,5.76231,1.54037,1.97841,1.97917,-2.96355,6.30285,5.70674,-2.91242,6.33811,1.80404,1.80404,A,100739.00
5.77701,57.68791518,11.98128947,57.68791550,11.98129033,10:07:39.223432,0.00402,1.56428,0.00328,0.00263,0.06003,-0.00647,-0.01196,0.12206,-0.02983,1.12240,5.77243,1.54037,1.97841,1.97917,-2.96355,6.30285,5.70674,-2.91242,6.33811,1.80404,1.80404,A,100739.00
5.78784,57.68791518,11.98128947,57.68791550,11.98129033,10:07:39.234271,0.00459,1.56428,0.00396,0.00263,0.05041,-0.04679,-0.01181,0.03257,0.03886,1.10410,5.78288,1.54037,1.97841,1.97917,-2.96355,6.30285,5.70674,-2.91242,6.33811,1.80404,1.80404,A,100739.00
5.79786,57.68791518,11.98128947,57.68791550,11.98129033,10:07:39.244279,0.00421,1.56428,0.00376,0.00263,0.04568,-0.06054,-0.01013,-0.01116,-0.01769,0.95422,5.79328,1.54037,1.97841,1.97917,-2.96355,6.30285,5.70674,-2.91242,6.33811,1.80404,1.80404,A,100739.00
5.80821,57.68791518,11.98128947,57.68791550,11.98129033,10:07:39.254634,0.00417,1.56428,0.00506,0.00263,0.04232,-0.06374,-0.00081,-0.04203,0.07820,0.93165,5.80341,1.54037,1.97841,1.97917,-2.96355,6.30285,5.70674,-2.91242,6.33811,1.80404,1.80404,A,100739.00
5.84634,57.68791518,11.98128947,57.68791767,11.98128833,10:07:39.292777,0.03191,1.56428,0.00602,0.00263,0.05072,-0.04190,0.00133,-0.11779,0.04624,0.84168,5.81419,1.54037,1.97841,1.97917,-2.96355,6.30285,5.84002,-3.03130,6.57903,2.02916,2.02916,A,100739.20
5.86530,57.68791694,11.98128809,57.68791767,11.98128833,10:07:39.311727,0.00894,1.56428,0.00833,0.00254,0.04690,-0.00586,-0.02555,-0.09327,0.04734,1.05774,5.85863,1.54515,1.98632,1.98708,-3.04568,6.49864,5.84002,-3.03130,6.57903,2.02916,2.02916,A,100739.20
5.87098,57.68791694,11.98128809,57.68791767,11.98128833,10:07:39.317426,0.00422,1.56428,0.00832,0.00237,0.04415,-0.00098,-0.02952,-0.09760,0.00823,1.12417,5.86626,1.54515,1.98632,1.98708,-3.04568,6.49864,5.84002,-3.03130,6.57903,2.02916,2.02916,A,100739.20
5.88102,57.68791694,11.98128809,57.68791767,11.98128833,10:07:39.327437,0.00409,1.56428,0.01011,0.00215,0.03651,-0.00418,-0.03502,0.01104,0.15024,1.20390,5.87643,1.54515,1.98632,1.98708,-3.04568,6.49864,5.84002,-3.03130,6.57903,2.02916,2.02916,A,100739.20
5.89156,57.68791694,11.98128809,57.68791767,11.98128833,10:07:39.337987,0.00433,1.56428,0.00989,0.00198,0.06034,-0.01426,-0.02632,0.07436,-0.02599,1.10843,5.88663,1.54515,1.98632,1.98708,-3.04568,6.49864,5.84002,-3.03130,6.57903,2.02916,2.02916,A,100739.20
5.90176,57.68791694,11.98128809,57.68791767,11.98128833,10:07:39.348178,0.00414,1.56428,0.01039,0.00192,0.04843,-0.03335,-0.01639,0.05649,0.03135,0.99143,5.89718,1.54515,1.98632,1.98708,-3.04568,6.49864,5.84002,-3.03130,6.57903,2.02916,2.02916,A,100739.20
