Time,lat_estimated,lon_estimated,latitude,longitude,RealTime,CalculationTime,MeasuredVelocity,FilteredVelocity,Roll,SteeringAngle,RollRate,gy,gz,ax,ay,az,imu_read_timing,v_estimated,yaw_estimated,heading_estimated,x_estimated,y_estimated,GPS_timestamp,x_GPS,y_GPS,theta_GPS,theta_GPS_noUnwrap,status,NMEA timestamp
0.05002,57.68785583,11.98140300,57.68785583,11.98140300,17:20:20.870532,0.04998,0.00000,0.00000,-0.00186,0.00255,-0.06680,0.00085,-0.00454,0.01019,-0.05990,1.01364,0.00001,0.00000,-0.00076,0.00000,0.00000,0.00000,0.01575,0.00000,0.00000,0.00000,0.00000,A,133811.70
0.06105,57.68785583,11.98140300,57.68785583,11.98140300,17:20:20.881540,0.00619,0.00000,0.00000,-0.00594,0.00255,-0.05306,-0.00037,-0.00118,0.01037,-0.06228,0.98875,0.05454,0.00000,-0.00076,0.00000,0.00000,0.00000,0.01575,0.00000,0.00000,0.00000,0.00000,A,133811.70
0.06949,57.68785583,11.98140300,57.68785583,11.98140300,17:20:20.889994,0.00423,0.00000,0.00000,-0.00790,0.00255,-0.05153,0.00146,-0.00774,0.00689,-0.07802,0.99784,0.06569,0.00000,-0.00076,0.00000,0.00000,0.00000,0.01575,0.00000,0.00000,0.00000,0.00000,A,133811.70
0.07901,57.68785583,11.98140300,57.68785583,11.98140300,17:20:20.899728,0.00309,0.00000,0.00000,-0.00992,0.00255,-0.05519,0.00451,-0.00988,0.00958,-0.08754,1.00778,0.07527,0.00000,-0.00076,0.00000,0.00000,0.00000,0.01575,0.00000,0.00000,0.00000,0.00000,A,133811.70
0.08947,57.68785583,11.98140300,57.68785583,11.98140300,17:20:20.909956,0.00316,0.00000,0.00000,-0.01170,0.00255,-0.05504,0.00146,-0.00912,0.01202,-0.07033,1.00748,0.08575,0.00000,-0.00076,0.00000,0.00000,0.00000,0.01575,0.00000,0.00000,0.00000,0.00000,A,133811.70
0.09988,57.68785583,11.98140300,57.68785583,11.98140300,17:20:20.920374,0.00318,0.00000,0.00000,-0.01315,0.00255,-0.05199,-0.00068,-0.00408,0.01635,-0.05325,1.00552,0.09593,0.00000,-0.00076,0.00000,0.00000,0.00000,0.01575,0.00000,0.00000,0.00000,0.00000,A,133811.70
0.11024,57.68785583,11.98140300,57.68785583,11.98140300,17:20:20.930728,0.00314,0.00000,0.00000,-0.01462,0.00255,-0.05077,0.00161,-0.00622,0.01659,-0.05435,0.99869,0.10651,0.00000,-0.00076,0.00000,0.00000,0.00000,0.01575,0.00000,0.00000,0.00000,0.00000,A,133811.70
0.13624,57.68785583,11.98140300,57.68785633,11.98140300,17:20:20.956743,0.01874,0.00000,0.00000,-0.01603,0.00255,-0.04145,0.00222,-0.00148,0.00134,-0.06015,1.00461,0.11680,0.00000,-0.00076,0.00000,0.00000,0.00000,0.13241,0.00000,0.05560,1.57080,1.57080,A,133811.80
0.14652,57.68785586,11.98140300,57.68785633,11.98140300,17:20:20.967011,0.00530,0.00000,0.00000,-0.01807,0.00255,-0.03274,0.00176,0.00509,0.01171,-0.07906,0.99534,0.14083,0.00000,0.23486,0.23562,0.00000,0.00278,0.13241,0.00000,0.05560,1.57080,1.57080,A,133811.80
0.15470,57.68785586,11.98140300,57.68785633,11.98140300,17:20:20.975174,0.00298,0.00000,0.00000,-0.01979,0.00255,-0.03076,0.00070,0.00921,0.01403,-0.08967,0.98295,0.15096,0.00000,0.23486,0.23562,0.00000,0.00278,0.13241,0.00000,0.05560,1.57080,1.57080,A,133811.80
0.16525,57.68785586,11.98140300,57.68785633,11.98140300,17:20:20.985732,0.00314,0.00000,0.00000,-0.02124,0.00255,-0.03076,-0.00572,0.00890,0.00891,-0.07344,0.98588,0.16153,0.00000,0.23486,0.23562,0.00000,0.00278,0.13241,0.00000,0.05560,1.57080,1.57080,A,133811.80
0.17566,57.68785586,11.98140300,57.68785633,11.98140300,17:20:20.996163,0.00316,0.00000,0.00000,-0.02269,0.00255,-0.02480,0.00024,0.00692,-0.01482,-0.08046,0.99643,0.17172,0.00000,0.23486,0.23562,0.00000,0.00278,0.13241,0.00000,0.05560,1.57080,1.57080,A,133811.80
0.18606,57.68785586,11.98140300,57.68785633,11.98140300,17:20:21.006542,0.00316,0.00000,0.00000,-0.02397,0.00263,-0.02144,0.00207,0.01135,-0.02782,-0.07314,1.01943,0.18233,0.00000,0.23486,0.23562,0.00000,0.00278,0.13241,0.00000,0.05560,1.57080,1.57080,A,133811.80
0.19644,57.68785586,11.98140300,57.68785633,11.98140300,17:20:21.016925,0.00314,0.00000,0.00000,-0.02511,0.00297,-0.02419,0.01001,0.00829,-0.01122,-0.06399,1.02059,0.19270,0.00000,0.23486,0.23562,0.00000,0.00278,0.13241,0.00000,0.05560,1.57080,1.57080,A,133811.80
0.20683,57.68785586,11.98140300,57.68785633,11.98140300,17:20:21.027311,0.00299,0.00000,0.00000,-0.02637,0.00371,-0.01808,0.00986,0.00799,0.03794,-0.07588,0.99662,0.20310,0.00000,0.23486,0.23562,0.00000,0.00278,0.13241,0.00000,0.05560,1.57080,1.57080,A,133811.80
0.21746,57.68785586,11.98140300,57.68785633,11.98140300,17:20:21.037950,0.00323,0.00000,0.00000,-0.02783,0.00481,-0.01732,0.00360,0.00875,0.05765,-0.08833,0.97813,0.21373,0.00000,0.23486,0.23562,0.00000,0.00278,0.13241,0.00000,0.05560,1.57080,1.57080,A,133811.80
0.22778,57.68785586,11.98140300,57.68785633,11.98140300,17:20:21.048266,0.00316,0.00000,0.00000,-0.02899,0.00611,-0.01091,-0.00373,0.00967,-0.01055,-0.07637,0.98369,0.22383,0.00000,0.23486,0.23562,0.00000,0.00278,0.13241,0.00000,0.05560,1.57080,1.57080,A,133811.80
0.26456,57.68785586,11.98140300,57.68785700,11.98140200,17:20:21.085051,0.02954,0.00000,0.00000,-0.03025,0.00756,-0.00999,-0.00205,0.00264,-0.05734,-0.08546,1.01046,0.23460,0.00000,0.23486,0.23562,0.00000,0.00278,0.26083,-0.05944,0.12973,2.24663,2.24663,A,133812.00
0.27707,57.68785592,11.98140295,57.68785700,11.98140200,17:20:21.097561,0.00534,0.00000,0.00000,-0.03121,0.01143,-0.00067,-0.00236,0.00096,0.02318,-0.07174,0.99820,0.27107,0.00000,0.53612,0.53951,-0.00297,0.00913,0.26083,-0.05944,0.12973,2.24663,2.24663,A,133812.00
0.28530,57.68785592,11.98140295,57.68785700,11.98140200,17:20:21.105780,0.00318,0.00000,0.00000,-0.03210,0.01206,0.00559,-0.00053,0.00509,-0.05502,-0.07466,1.01595,0.28157,0.00000,0.53612,0.53951,-0.00297,0.00913,0.26083,-0.05944,0.12973,2.24663,2.24663,A,133812.00
0.29569,57.68785592,11.98140295,57.68785700,11.98140200,17:20:21.116178,0.00318,0.00000,0.00000,-0.03287,0.01240,0.01047,0.00910,0.00371,-0.05819,-0.06997,1.00607,0.29174,0.00000,0.53612,0.53951,-0.00297,0.00913,0.26083,-0.05944,0.12973,2.24663,2.24663,A,133812.00
0.30617,57.68785592,11.98140295,57.68785700,11.98140200,17:20:21.126651,0.00323,0.00000,0.00000,-0.03391,0.01257,0.01032,0.01368,0.01043,-0.00128,-0.08735,0.98491,0.30242,0.00000,0.53612,0.53951,-0.00297,0.00913,0.26083,-0.05944,0.12973,2.24663,2.24663,A,133812.00
0.31648,57.68785592,11.98140295,57.68785700,11.98140200,17:20:21.136966,0.00315,0.00000,0.00000,-0.03470,0.01257,0.01521,0.00879,0.01211,0.06082,-0.07412,0.97283,0.31275,0.00000,0.53612,0.53951,-0.00297,0.00913,0.26083,-0.05944,0.12973,2.24663,2.24663,A,133812.00
0.32670,57.68785592,11.98140295,57.68785700,11.98140200,17:20:21.147178,0.00298,0.00000,0.00000,-0.03557,0.01257,0.01979,-0.00068,0.01379,0.02611,-0.08357,0.98582,0.32296,0.00000,0.53612,0.53951,-0.00297,0.00913,0.26083,-0.05944,0.12973,2.24663,2.24663,A,133812.00
0.33723,57.68785592,11.98140295,57.68785700,11.98140200,17:20:21.157711,0.00316,0.00000,0.00000,-0.03614,0.01257,0.02071,-0.00602,0.01119,-0.04026,-0.06801,1.01919,0.33349,0.00000,0.53612,0.53951,-0.00297,0.00913,0.26083,-0.05944,0.12973,2.24663,2.24663,A,133812.00
0.34769,57.68785592,11.98140295,57.68785700,11.98140200,17:20:21.168193,0.00323,0.00000,0.00000,-0.03654,0.01257,0.02941,0.00650,0.01242,-0.08265,-0.06435,1.03688,0.34368,0.00000,0.53612,0.53951,-0.00297,0.00913,0.26083,-0.05944,0.12973,2.24663,2.24663,A,133812.00
0.35819,57.68785592,11.98140295,57.68785700,11.98140200,17:20:21.178671,0.00332,0.00000,0.00000,-0.03731,0.01257,0.02743,0.01398,0.00722,-0.01434,-0.08778,1.01528,0.35444,0.00000,0.53612,0.53951,-0.00297,0.00913,0.26083,-0.05944,0.12973,2.24663,2.24663,A,133812.00
0.38430,57.68785592,11.98140295,57.68785783,11.98140167,17:20:21.204805,0.01905,0.00000,0.00000,-0.03808,0.01259,0.02987,0.01093,0.00631,0.04496,-0.08772,0.99918,0.36485,0.00000,0.53612,0.53951,-0.00297,0.00913,0.38053,-0.07925,0.22239,1.78144,1.78144,A,133812.10
0.39442,57.68785601,11.98140289,57.68785783,11.98140167,17:20:21.214905,0.00516,0.00000,0.00000,-0.03807,0.01259,0.02849,-0.00694,0.00142,-0.01928,-0.05941,0.96709,0.38872,0.00000,0.72236,0.72609,-0.00679,0.01979,0.38053,-0.07925,0.22239,1.78144,1.78144,A,133812.10
0.40269,57.68785601,11.98140289,57.68785783,11.98140167,17:20:21.223171,0.00298,0.00000,0.00000,-0.03838,0.01259,0.04285,-0.00266,0.00218,-0.04959,-0.06405,0.96673,0.39896,0.00000,0.72236,0.72609,-0.00679,0.01979,0.38053,-0.07925,0.22239,1.78144,1.78144,A,133812.10
0.41327,57.68785601,11.98140289,57.68785783,11.98140167,17:20:21.233755,0.00316,0.00000,0.00000,-0.03888,0.01259,0.03750,0.00283,0.00173,-0.02367,-0.07521,0.97752,0.40954,0.00000,0.72236,0.72609,-0.00679,0.01979,0.38053,-0.07925,0.22239,1.78144,1.78144,A,133812.10
0.42366,57.68785601,11.98140289,57.68785783,11.98140167,17:20:21.244154,0.00316,0.00000,0.00000,-0.03950,0.01259,0.03750,0.00696,0.00157,0.02196,-0.08375,0.99210,0.41972,0.00000,0.72236,0.72609,-0.00679,0.01979,0.38053,-0.07925,0.22239,1.78144,1.78144,A,133812.10
0.43581,57.68785601,11.98140289,57.68785783,11.98140167,17:20:21.256327,0.00502,0.00000,0.00000,-0.03998,0.01259,0.04071,-0.00434,0.00157,0.01684,-0.08241,1.02486,0.43075,0.00000,0.72236,0.72609,-0.00679,0.01979,0.38053,-0.07925,0.22239,1.78144,1.78144,A,133812.10
0.44453,57.68785601,11.98140289,57.68785783,11.98140167,17:20:21.265007,0.00334,0.00000,0.00000,-0.04038,0.01259,0.03689,-0.00053,0.00447,0.00451,-0.07259,1.04151,0.44079,0.00000,0.72236,0.72609,-0.00679,0.01979,0.38053,-0.07925,0.22239,1.78144,1.78144,A,133812.10
0.45476,57.68785601,11.98140289,57.68785783,11.98140167,17:20:21.275240,0.00299,0.00000,0.00000,-0.04067,0.01259,0.04346,-0.00465,-0.00026,-0.01049,-0.06875,1.01083,0.45103,0.00000,0.72236,0.72609,-0.00679,0.01979,0.38053,-0.07925,0.22239,1.78144,1.78144,A,133812.10
0.46533,57.68785601,11.98140289,57.68785783,11.98140167,17:20:21.285810,0.00316,0.00000,0.00000,-0.04086,0.01259,0.04575,-0.00373,0.00188,-0.01238,-0.06393,0.99851,0.46160,0.00000,0.72236,0.72609,-0.00679,0.01979,0.38053,-0.07925,0.22239,1.78144,1.78144,A,133812.10
0.47572,57.68785601,11.98140289,57.68785783,11.98140167,17:20:21.296209,0.00316,0.00000,0.00000,-0.04126,0.01259,0.04789,0.00360,0.00234,0.00006,-0.07723,0.97893,0.47177,0.00000,0.72236,0.72609,-0.00679,0.01979,0.38053,-0.07925,0.22239,1.78144,1.78144,A,133812.10
0.50135,57.68785601,11.98140289,57.68785817,11.98140133,17:20:21.321855,0.01840,0.00000,0.00000,-0.04147,0.01259,0.04743,-0.00297,-0.00148,0.02166,-0.06490,0.96813,0.48240,0.00000,0.72236,0.72609,-0.00679,0.01979,0.49761,-0.09906,0.25945,2.06169,2.06169,A,133812.20
0.51173,57.68785612,11.98140281,57.68785817,11.98140133,17:20:21.332237,0.00546,0.00000,0.00000,-0.04105,0.01259,0.04713,-0.00327,-0.00622,-0.02111,-0.06478,0.99991,0.50578,0.00000,0.92270,0.92643,-0.01140,0.03177,0.49761,-0.09906,0.25945,2.06169,2.06169,A,133812.20
0.51984,57.68785612,11.98140281,57.68785817,11.98140133,17:20:21.340326,0.00317,0.00000,0.00000,-0.04121,0.01259,0.04865,-0.00434,-0.00454,-0.02409,-0.06466,1.02138,0.51589,0.00000,0.92270,0.92643,-0.01140,0.03177,0.49761,-0.09906,0.25945,2.06169,2.06169,A,133812.20
0.53036,57.68785612,11.98140281,57.68785817,11.98140133,17:20:21.350852,0.00329,0.00000,0.00000,-0.04130,0.01259,0.05125,-0.00404,-0.00713,0.02470,-0.06265,1.00638,0.52662,0.00000,0.92270,0.92643,-0.01140,0.03177,0.49761,-0.09906,0.25945,2.06169,2.06169,A,133812.20
0.54054,57.68785612,11.98140281,57.68785817,11.98140133,17:20:21.361024,0.00307,0.00000,0.00000,-0.04141,0.01259,0.04728,-0.01259,-0.00683,0.01775,-0.06082,1.02462,0.53680,0.00000,0.92270,0.92643,-0.01140,0.03177,0.49761,-0.09906,0.25945,2.06169,2.06169,A,133812.20
0.55076,57.68785612,11.98140281,57.68785817,11.98140133,17:20:21.371238,0.00298,0.00000,0.00000,-0.04205,0.01254,0.05583,-0.01427,-0.00851,-0.01385,-0.10260,1.01888,0.54702,0.00000,0.92270,0.92643,-0.01140,0.03177,0.49761,-0.09906,0.25945,2.06169,2.06169,A,133812.20
0.56133,57.68785612,11.98140281,57.68785817,11.98140133,17:20:21.381800,0.00314,0.00000,0.00000,-0.04201,0.01228,0.05430,-0.01076,-0.00942,-0.03294,-0.05710,1.01614,0.55761,0.00000,0.92270,0.92643,-0.01140,0.03177,0.49761,-0.09906,0.25945,2.06169,2.06169,A,133812.20
0.57174,57.68785612,11.98140281,57.68785817,11.98140133,17:20:21.392232,0.00316,0.00000,0.00000,-0.04194,0.01177,0.05888,-0.00282,-0.00912,-0.05051,-0.05710,1.02077,0.56778,0.00000,0.92270,0.92643,-0.01140,0.03177,0.49761,-0.09906,0.25945,2.06169,2.06169,A,133812.20
0.58290,57.68785612,11.98140281,57.68785817,11.98140133,17:20:21.403390,0.00392,0.00000,0.00000,-0.04251,0.01095,0.05476,0.00115,-0.00713,-0.00226,-0.09742,1.00223,0.57839,0.00000,0.92270,0.92643,-0.01140,0.03177,0.49761,-0.09906,0.25945,2.06169,2.06169,A,133812.20
0.59252,57.68785612,11.98140281,57.68785817,11.98140133,17:20:21.413006,0.00315,0.00000,0.00000,-0.04280,0.00999,0.05797,-0.00327,-0.00331,0.02660,-0.07857,0.97472,0.58878,0.00000,0.92270,0.92643,-0.01140,0.03177,0.49761,-0.09906,0.25945,2.06169,2.06169,A,133812.20
0.61796,57.68785612,11.98140281,57.68785867,11.98140100,17:20:21.438463,0.01818,0.00000,0.00000,-0.04242,0.00894,0.05140,-0.01519,-0.00118,0.00098,-0.03019,0.97295,0.59903,0.00000,0.92270,0.92643,-0.01140,0.03177,0.61423,-0.11887,0.31505,1.91312,1.91312,A,133812.30
0.62842,57.68785625,11.98140272,57.68785867,11.98140100,17:20:21.448916,0.00551,0.00000,0.00000,-0.04123,0.00682,0.06774,0.00390,-0.00087,-0.06606,-0.04666,1.01303,0.62241,0.00000,1.07096,1.07298,-0.01677,0.04594,0.61423,-0.11887,0.31505,1.91312,1.91312,A,133812.30
0.63761,57.68785625,11.98140272,57.68785867,11.98140100,17:20:21.458462,0.00424,0.00000,0.00000,-0.04119,0.00620,0.06438,0.01383,0.00081,-0.01397,-0.06631,1.01046,0.63381,0.00000,1.07096,1.07298,-0.01677,0.04594,0.61423,-0.11887,0.31505,1.91312,1.91312,A,133812.30
0.64669,57.68785625,11.98140272,57.68785867,11.98140100,17:20:21.467171,0.00297,0.00000,0.00000,-0.04150,0.00580,0.06576,0.01520,0.00188,0.01793,-0.07680,0.95581,0.64295,0.00000,1.07096,1.07298,-0.01677,0.04594,0.61423,-0.11887,0.31505,1.91312,1.91312,A,133812.30
0.65743,57.68785625,11.98140272,57.68785867,11.98140100,17:20:21.477911,0.00331,0.00000,0.00000,-0.04102,0.00569,0.05812,0.01001,0.00203,0.01677,-0.02916,0.99119,0.65368,0.00000,1.07096,1.07298,-0.01677,0.04594,0.61423,-0.11887,0.31505,1.91312,1.91312,A,133812.30
0.66767,57.68785625,11.98140272,57.68785867,11.98140100,17:20:21.488167,0.00316,0.00000,0.00000,-0.04077,0.00569,0.05629,0.00451,-0.00148,-0.01775,-0.04020,0.99345,0.66373,0.00000,1.07096,1.07298,-0.01677,0.04594,0.61423,-0.11887,0.31505,1.91312,1.91312,A,133812.30
0.67805,57.68785625,11.98140272,57.68785867,11.98140100,17:20:21.498540,0.00315,0.00000,0.00000,-0.04036,0.00569,0.06102,0.00131,-0.00255,-0.02782,-0.03471,0.99314,0.67433,0.00000,1.07096,1.07298,-0.01677,0.04594,0.61423,-0.11887,0.31505,1.91312,1.91312,A,133812.30
0.68844,57.68785625,11.98140272,57.68785867,11.98140100,17:20:21.508925,0.00314,0.00000,0.00000,-0.04001,0.00569,0.06545,-0.00327,-0.00560,-0.00708,-0.03959,0.98344,0.68470,0.00000,1.07096,1.07298,-0.01677,0.04594,0.61423,-0.11887,0.31505,1.91312,1.91312,A,133812.30
0.69922,57.68785625,11.98140272,57.68785867,11.98140100,17:20:21.519970,0.00351,0.00000,0.00000,-0.04024,0.00569,0.06163,-0.00541,-0.00744,0.03385,-0.07558,0.96288,0.69549,0.00000,1.07096,1.07298,-0.01677,0.04594,0.61423,-0.11887,0.31505,1.91312,1.91312,A,133812.30
0.71221,57.68785625,11.98140272,57.68785867,11.98140100,17:20:21.532692,0.00609,6.43597,0.00000,-0.04038,0.00569,0.06362,-0.00938,-0.00683,-0.01251,-0.07930,0.96014,0.70845,0.00000,1.07096,1.07298,-0.01677,0.04594,0.61423,-0.11887,0.31505,1.91312,1.91312,A,133812.30
0.75297,57.68785625,11.98140272,57.68785967,11.98140033,17:20:21.573468,0.03662,6.43597,0.00000,-0.04070,0.00569,0.05354,-0.00954,-0.00438,-0.02678,-0.07009,0.95215,0.71774,0.00000,1.07096,1.07298,-0.01677,0.04594,0.74964,-0.15850,0.42625,1.91312,1.91312,A,133812.50
0.76627,57.68785642,11.98140260,57.68785967,11.98140033,17:20:21.586755,0.00812,6.43597,0.00000,-0.03898,0.00558,0.05125,-0.01244,-0.01019,0.01037,-0.04972,1.01724,0.76055,0.00000,1.19703,1.19869,-0.02386,0.06495,0.74964,-0.15850,0.42625,1.91312,1.91312,A,133812.50
0.77390,57.68785642,11.98140260,57.68785967,11.98140033,17:20:21.594391,0.00512,6.43597,0.00000,-0.03887,0.00538,0.04881,-0.01656,-0.00820,-0.01293,-0.04307,1.02736,0.77016,0.00000,1.19703,1.19869,-0.02386,0.06495,0.74964,-0.15850,0.42625,1.91312,1.91312,A,133812.50
0.78848,57.68785642,11.98140260,57.68785967,11.98140033,17:20:21.609014,0.00798,6.43597,0.00000,-0.03877,0.00492,0.04453,-0.00389,-0.01400,-0.08003,-0.05197,1.03047,0.78359,0.00000,1.19703,1.19869,-0.02386,0.06495,0.74964,-0.15850,0.42625,1.91312,1.91312,A,133812.50
0.79634,57.68785642,11.98140260,57.68785967,11.98140033,17:20:21.616825,0.00544,6.43597,0.00000,-0.03892,0.00456,0.03644,-0.00221,-0.01538,-0.04782,-0.04990,1.01339,0.79258,0.00000,1.19703,1.19869,-0.02386,0.06495,0.74964,-0.15850,0.42625,1.91312,1.91312,A,133812.50
0.80635,57.68785642,11.98140260,57.68785967,11.98140033,17:20:21.626838,0.00506,6.43597,0.00000,-0.03890,0.00416,0.04010,0.00680,-0.01614,-0.03465,-0.04325,1.01382,0.80260,0.00000,1.19703,1.19869,-0.02386,0.06495,0.74964,-0.15850,0.42625,1.91312,1.91312,A,133812.50
0.81744,57.68785642,11.98140260,57.68785967,11.98140033,17:20:21.637935,0.00572,6.43597,0.00000,-0.03887,0.00376,0.03353,0.01016,-0.01797,-0.04240,-0.04240,1.05066,0.81365,0.00000,1.19703,1.19869,-0.02386,0.06495,0.74964,-0.15850,0.42625,1.91312,1.91312,A,133812.50
0.82806,57.68785642,11.98140260,57.68785967,11.98140033,17:20:21.648568,0.00595,6.43597,0.00000,-0.03900,0.00334,0.03705,0.01841,-0.01339,-0.02928,-0.05362,1.02449,0.82427,0.00000,1.19703,1.19869,-0.02386,0.06495,0.74964,-0.15850,0.42625,1.91312,1.91312,A,133812.50
0.83773,57.68785642,11.98140260,57.68785967,11.98140033,17:20:21.658219,0.00522,6.43597,0.00000,-0.03909,0.00294,0.02819,0.01841,-0.01003,-0.00189,-0.04154,0.99345,0.83399,0.00000,1.19703,1.19869,-0.02386,0.06495,0.74964,-0.15850,0.42625,1.91312,1.91312,A,133812.50
0.86758,57.68785642,11.98140260,57.68786017,11.98139967,17:20:21.688102,0.02444,6.43597,0.00000,-0.03894,0.00243,0.03048,0.01291,-0.00759,-0.02611,-0.03508,0.98369,0.84763,0.00000,1.19703,1.19869,-0.02386,0.06495,0.86312,-0.19812,0.48184,2.19000,2.19000,A,133812.60
0.87920,57.68785660,11.98140245,57.68786017,11.98139967,17:20:21.700054,0.00665,6.43597,0.00000,-0.03864,0.00142,0.03002,0.01658,-0.00698,-0.00275,-0.04795,0.97893,0.87351,0.00000,1.34591,1.34633,-0.03257,0.08580,0.86312,-0.19812,0.48184,2.19000,2.19000,A,133812.60
0.88969,57.68785660,11.98140245,57.68786017,11.98139967,17:20:21.710174,0.00569,6.43597,0.00000,-0.03884,0.00093,0.02804,0.00497,-0.00744,-0.00415,-0.05350,0.99741,0.88594,0.00000,1.34591,1.34633,-0.03257,0.08580,0.86312,-0.19812,0.48184,2.19000,2.19000,A,133812.60
0.90043,57.68785660,11.98140245,57.68786017,11.98139967,17:20:21.720926,0.00604,6.43597,0.00000,-0.03909,0.00059,0.02681,0.00971,-0.00866,-0.02318,-0.05313,1.00144,0.89667,0.00000,1.34591,1.34633,-0.03257,0.08580,0.86312,-0.19812,0.48184,2.19000,2.19000,A,133812.60
0.90986,57.68785660,11.98140245,57.68786017,11.98139967,17:20:21.730348,0.00508,6.43597,0.00000,-0.03915,0.00031,0.02010,0.00696,-0.01080,-0.02434,-0.03483,1.00674,0.90613,0.00000,1.34591,1.34633,-0.03257,0.08580,0.86312,-0.19812,0.48184,2.19000,2.19000,A,133812.60
0.92042,57.68785660,11.98140245,57.68786017,11.98139967,17:20:21.740909,0.00524,6.43597,0.00000,-0.03904,0.00006,0.02345,0.01261,-0.01232,-0.05270,-0.02684,0.99540,0.91666,0.00000,1.34591,1.34633,-0.03257,0.08580,0.86312,-0.19812,0.48184,2.19000,2.19000,A,133812.60
0.93081,57.68785660,11.98140245,57.68786017,11.98139967,17:20:21.751311,0.00523,6.43597,0.00000,-0.03904,-0.00014,0.02086,0.01398,-0.01370,0.00299,-0.03190,0.98204,0.92687,0.00000,1.34591,1.34633,-0.03257,0.08580,0.86312,-0.19812,0.48184,2.19000,2.19000,A,133812.60
0.94105,57.68785660,11.98140245,57.68786017,11.98139967,17:20:21.761531,0.00524,6.43597,0.00000,-0.03906,-0.00031,0.01918,0.00085,-0.01645,0.00372,-0.03154,0.97789,0.93729,0.00000,1.34591,1.34633,-0.03257,0.08580,0.86312,-0.19812,0.48184,2.19000,2.19000,A,133812.60
0.95294,57.68785660,11.98140245,57.68786017,11.98139967,17:20:21.773432,0.00675,6.43597,0.00000,-0.03909,-0.00048,0.01506,-0.00587,-0.01568,-0.01769,-0.03172,1.00796,0.94919,0.00000,1.34591,1.34633,-0.03257,0.08580,0.86312,-0.19812,0.48184,2.19000,2.19000,A,133812.60
0.96230,57.68785660,11.98140245,57.68786017,11.98139967,17:20:21.782791,0.00571,6.43597,0.00000,-0.03918,-0.00062,0.01750,-0.00022,-0.01584,-0.05094,-0.03630,1.03804,0.95856,0.00000,1.34591,1.34633,-0.03257,0.08580,0.86312,-0.19812,0.48184,2.19000,2.19000,A,133812.60
0.98666,57.68785660,11.98140245,57.68786083,11.98139933,17:20:21.807166,0.01967,6.43597,0.00000,-0.03940,-0.00074,0.01475,0.00360,-0.01874,-0.05630,-0.04459,1.04725,0.96850,0.00000,1.34591,1.34633,-0.03257,0.08580,0.98361,-0.21794,0.55597,1.83196,1.83196,A,133812.70
0.99994,57.68785682,11.98140230,57.68786083,11.98139933,17:20:21.820438,0.00699,6.43597,0.00000,-0.03964,-0.00116,0.00620,0.01062,-0.01324,0.00415,-0.04246,0.95319,0.99397,0.00000,1.41887,1.41853,-0.04184,0.10931,0.98361,-0.21794,0.55597,1.83196,1.83196,A,133812.70
1.00859,57.68785682,11.98140230,57.68786083,11.98139933,17:20:21.829079,0.00508,6.43597,0.00000,-0.03961,-0.00139,0.00834,-0.00297,-0.01339,-0.01372,-0.02178,0.96758,1.00483,0.00000,1.41887,1.41853,-0.04184,0.10931,0.98361,-0.21794,0.55597,1.83196,1.83196,A,133812.70
1.01900,57.68785682,11.98140230,57.68786083,11.98139933,17:20:21.839767,0.00509,6.43597,0.00000,-0.03973,-0.00164,0.00971,-0.00572,-0.01263,-0.04160,-0.03282,0.98979,1.01526,0.00000,1.41887,1.41853,-0.04184,0.10931,0.98361,-0.21794,0.55597,1.83196,1.83196,A,133812.70
1.02950,57.68785682,11.98140230,57.68786083,11.98139933,17:20:21.849981,0.00520,6.43597,0.00000,-0.03997,-0.00187,0.01032,-0.00694,-0.01019,-0.01019,-0.04307,1.01510,1.02576,0.00000,1.41887,1.41853,-0.04184,0.10931,0.98361,-0.21794,0.55597,1.83196,1.83196,A,133812.70
1.04011,57.68785682,11.98140230,57.68786083,11.98139933,17:20:21.860763,0.00541,6.43597,0.00000,-0.04042,-0.00207,0.01170,-0.00389,-0.00988,-0.01275,-0.05844,1.02327,1.03634,0.00000,1.41887,1.41853,-0.04184,0.10931,0.98361,-0.21794,0.55597,1.83196,1.83196,A,133812.70
1.05468,57.68785682,11.98140230,57.68786083,11.98139933,17:20:21.875194,0.00959,6.43597,0.00000,-0.04082,-0.00224,0.00986,-0.00557,-0.01049,-0.01580,-0.05484,1.00144,1.05053,0.00000,1.41887,1.41853,-0.04184,0.10931,0.98361,-0.21794,0.55597,1.83196,1.83196,A,133812.70
1.06205,57.68785682,11.98140230,57.68786083,11.98139933,17:20:21.882527,0.00610,6.43597,0.00000,-0.04136,-0.00229,0.00314,-0.00114,-0.01064,-0.03166,-0.05661,0.98234,1.05831,0.00000,1.41887,1.41853,-0.04184,0.10931,0.98361,-0.21794,0.55597,1.83196,1.83196,A,133812.70
1.07167,57.68785682,11.98140230,57.68786083,11.98139933,17:20:21.892163,0.00532,6.43597,0.00000,-0.04149,-0.00229,0.00482,0.00558,-0.00820,-0.06393,-0.03141,0.98039,1.06772,0.00000,1.41887,1.41853,-0.04184,0.10931,0.98361,-0.21794,0.55597,1.83196,1.83196,A,133812.70
1.08202,57.68785682,11.98140230,57.68786083,11.98139933,17:20:21.902499,0.00527,6.43597,0.00000,-0.04148,-0.00229,0.00635,0.00955,-0.01660,-0.02904,-0.02336,0.97124,1.07828,0.00000,1.41887,1.41853,-0.04184,0.10931,0.98361,-0.21794,0.55597,1.83196,1.83196,A,133812.70
1.10870,57.68785682,11.98140230,57.68786167,11.98139883,17:20:21.929196,0.02156,6.43597,0.00000,-0.04157,-0.00229,0.00589,0.00299,-0.01629,0.00293,-0.03038,0.98405,1.08938,0.00000,1.41887,1.41853,-0.04184,0.10931,1.10596,-0.24766,0.64864,1.88115,1.88115,A,133812.80
1.12127,57.68785706,11.98140212,57.68786167,11.98139883,17:20:21.941756,0.00699,6.43597,0.00000,-0.04169,-0.00229,0.00788,-0.01183,-0.01660,-0.00988,-0.04294,1.03120,1.11529,0.00000,1.48832,1.48764,-0.05213,0.13627,1.10596,-0.24766,0.64864,1.88115,1.88115,A,133812.80
1.13001,57.68785706,11.98140212,57.68786167,11.98139883,17:20:21.950505,0.00528,6.43597,0.00000,-0.04219,-0.00229,0.00391,-0.00633,-0.01782,-0.04002,-0.05783,1.00967,1.12626,0.00000,1.48832,1.48764,-0.05213,0.13627,1.10596,-0.24766,0.64864,1.88115,1.88115,A,133812.80
1.14057,57.68785706,11.98140212,57.68786167,11.98139883,17:20:21.961052,0.00543,6.43597,0.00000,-0.04262,-0.00229,-0.00495,-0.00129,-0.01431,-0.05344,-0.04569,0.99015,1.13682,0.00000,1.48832,1.48764,-0.05213,0.13627,1.10596,-0.24766,0.64864,1.88115,1.88115,A,133812.80
1.15414,57.68785706,11.98140212,57.68786167,11.98139883,17:20:21.974635,0.00861,6.43597,0.00000,-0.04275,-0.00229,0.00039,0.01016,-0.01080,-0.03148,-0.03062,0.98436,1.15040,0.00000,1.48832,1.48764,-0.05213,0.13627,1.10596,-0.24766,0.64864,1.88115,1.88115,A,133812.80
1.16375,57.68785706,11.98140212,57.68786167,11.98139883,17:20:21.984248,0.00817,6.43597,0.00000,-0.04269,-0.00229,-0.00144,0.01398,-0.01080,0.01391,-0.01592,0.96215,1.15978,0.00000,1.48832,1.48764,-0.05213,0.13627,1.10596,-0.24766,0.64864,1.88115,1.88115,A,133812.80
1.17106,57.68785706,11.98140212,57.68786167,11.98139883,17:20:21.991774,0.00508,6.43597,0.00000,-0.04276,-0.00229,-0.00602,0.00619,-0.00820,0.03300,-0.02233,0.95294,1.16732,0.00000,1.48832,1.48764,-0.05213,0.13627,1.10596,-0.24766,0.64864,1.88115,1.88115,A,133812.80
1.18144,57.68785706,11.98140212,57.68786167,11.98139883,17:20:22.001919,0.00507,6.43597,0.00000,-0.04296,-0.00229,-0.00465,0.00299,-0.00774,0.00055,-0.03105,0.97990,1.17769,0.00000,1.48832,1.48764,-0.05213,0.13627,1.10596,-0.24766,0.64864,1.88115,1.88115,A,133812.80
1.19312,57.68785706,11.98140212,57.68786167,11.98139883,17:20:22.013611,0.00635,6.43597,0.00000,-0.04335,-0.00229,-0.00694,-0.00373,-0.00713,-0.05539,-0.04483,1.04340,1.18936,0.00000,1.48832,1.48764,-0.05213,0.13627,1.10596,-0.24766,0.64864,1.88115,1.88115,A,133812.80
1.20221,57.68785706,11.98140212,57.68786167,11.98139883,17:20:22.022698,0.00505,6.43597,0.00000,-0.04369,-0.00229,-0.00739,0.00085,-0.00713,-0.04307,-0.04282,1.06311,1.19847,0.00000,1.48832,1.48764,-0.05213,0.13627,1.10596,-0.24766,0.64864,1.88115,1.88115,A,133812.80
1.22782,57.68785706,11.98140212,57.68786217,11.98139833,17:20:22.048317,0.02014,6.43597,0.00000,-0.04411,-0.00229,-0.01304,0.00635,-0.01339,-0.00836,-0.04276,1.04633,1.20982,0.00000,1.48832,1.48764,-0.05213,0.13627,1.22508,-0.27737,0.70423,2.06169,2.06169,A,133812.90
1.24069,57.68785731,11.98140193,57.68786217,11.98139833,17:20:22.061173,0.00726,6.43597,0.00000,-0.04485,-0.00229,-0.01640,0.00314,-0.01355,-0.00701,-0.04301,0.93415,1.23446,0.00000,1.57442,1.57374,-0.06339,0.16467,1.22508,-0.27737,0.70423,2.06169,2.06169,A,133812.90
1.25013,57.68785731,11.98140193,57.68786217,11.98139833,17:20:22.070672,0.00641,6.43597,0.00000,-0.04522,-0.00229,-0.01549,0.00207,-0.01294,-0.05325,-0.03514,0.94318,1.24525,0.00000,1.57442,1.57374,-0.06339,0.16467,1.22508,-0.27737,0.70423,2.06169,2.06169,A,133812.90
1.26365,57.68785731,11.98140193,57.68786217,11.98139833,17:20:22.084149,0.00954,6.43597,0.00000,-0.04552,-0.00229,-0.01961,0.00039,-0.00759,-0.00195,-0.02489,0.96337,1.25968,0.00000,1.57442,1.57374,-0.06339,0.16467,1.22508,-0.27737,0.70423,2.06169,2.06169,A,133812.90
1.27090,57.68785731,11.98140193,57.68786217,11.98139833,17:20:22.091392,0.00625,6.43597,0.00000,-0.04557,-0.00229,-0.01686,-0.00465,-0.00667,0.04270,-0.01934,0.97923,1.26713,0.00000,1.57442,1.57374,-0.06339,0.16467,1.22508,-0.27737,0.70423,2.06169,2.06169,A,133812.90
1.28031,57.68785731,11.98140193,57.68786217,11.98139833,17:20:22.100796,0.00527,6.43597,0.00000,-0.04604,-0.00229,-0.01976,-0.01626,-0.00255,0.07881,-0.04313,0.99223,1.27655,0.00000,1.57442,1.57374,-0.06339,0.16467,1.22508,-0.27737,0.70423,2.06169,2.06169,A,133812.90
1.29047,57.68785731,11.98140193,57.68786217,11.98139833,17:20:22.110956,0.00504,6.43597,0.00000,-0.04648,-0.00229,-0.02068,-0.03199,-0.00087,0.00641,-0.04075,1.00607,1.28673,0.00000,1.57442,1.57374,-0.06339,0.16467,1.22508,-0.27737,0.70423,2.06169,2.06169,A,133812.90
1.30122,57.68785731,11.98140193,57.68786217,11.98139833,17:20:22.121701,0.00524,6.43597,0.00000,-0.04699,-0.00229,-0.01931,-0.02389,-0.00713,-0.08345,-0.04782,1.03688,1.29747,0.00000,1.57442,1.57374,-0.06339,0.16467,1.22508,-0.27737,0.70423,2.06169,2.06169,A,133812.90
1.31239,57.68785731,11.98140193,57.68786217,11.98139833,17:20:22.132885,0.00601,6.43597,0.00000,-0.04765,-0.00229,-0.06482,-0.00221,-0.00652,-0.12523,-0.02416,1.06756,1.30863,0.00000,1.57442,1.57374,-0.06339,0.16467,1.22508,-0.27737,0.70423,2.06169,2.06169,A,133812.90
1.32187,57.68785731,11.98140193,57.68786217,11.98139833,17:20:22.142351,0.00510,6.43597,0.00000,-0.04815,-0.00229,-0.02984,0.01612,-0.01141,-0.03947,-0.04301,1.04713,1.31812,0.00000,1.57442,1.57374,-0.06339,0.16467,1.22508,-0.27737,0.70423,2.06169,2.06169,A,133812.90
1.36268,57.68785731,11.98140193,57.68786350,11.98139717,17:20:22.183184,0.03552,6.43597,0.00000,-0.04858,-0.00229,-0.02984,0.01581,-0.00576,0.08089,-0.03489,0.99137,1.32878,0.00000,1.57442,1.57374,-0.06339,0.16467,1.35774,-0.34672,0.85249,2.00828,2.00828,A,133813.10
1.37621,57.68785762,11.98140170,57.68786350,11.98139717,17:20:22.196697,0.00756,6.43597,0.00000,-0.05056,-0.00229,-0.03427,0.02269,-0.02072,-0.09644,-0.06826,1.03102,1.37021,0.00000,1.63961,1.63892,-0.07756,0.19906,1.35774,-0.34672,0.85249,2.00828,2.00828,A,133813.10
1.38428,57.68785762,11.98140170,57.68786350,11.98139717,17:20:22.204771,0.00524,6.43597,0.00000,-0.05145,-0.00229,-0.03030,0.03475,-0.01859,0.04941,-0.06905,1.00967,1.38051,0.00000,1.63961,1.63892,-0.07756,0.19906,1.35774,-0.34672,0.85249,2.00828,2.00828,A,133813.10
1.39514,57.68785762,11.98140170,57.68786350,11.98139717,17:20:22.216114,0.00570,6.43597,0.00000,-0.05216,-0.00229,-0.03458,0.01643,-0.01309,0.09717,-0.05319,0.99918,1.39139,0.00000,1.63961,1.63892,-0.07756,0.19906,1.35774,-0.34672,0.85249,2.00828,2.00828,A,133813.10
1.40484,57.68785762,11.98140170,57.68786350,11.98139717,17:20:22.225324,0.00512,6.43597,0.00000,-0.05225,-0.00229,-0.03381,0.00360,-0.00988,0.02111,-0.01555,1.00125,1.40108,0.00000,1.63961,1.63892,-0.07756,0.19906,1.35774,-0.34672,0.85249,2.00828,2.00828,A,133813.10
1.41522,57.68785762,11.98140170,57.68786350,11.98139717,17:20:22.235931,0.00511,6.43597,0.00000,-0.05233,-0.00229,-0.02557,0.00192,-0.00484,-0.05703,-0.01940,1.01888,1.41147,0.00000,1.63961,1.63892,-0.07756,0.19906,1.35774,-0.34672,0.85249,2.00828,2.00828,A,133813.10
1.44920,57.68785762,11.98140170,57.68786350,11.98139717,17:20:22.269717,0.01915,6.43597,0.00000,-0.05392,-0.00229,-0.02221,-0.00495,-0.00362,0.07033,-0.08503,0.96417,1.44535,0.00000,1.63961,1.63892,-0.07756,0.19906,1.35774,-0.34672,0.85249,2.00828,2.00828,A,133813.10
1.51350,57.68785762,11.98140170,57.68786400,11.98139650,17:20:22.333997,0.04256,6.43597,0.00000,-0.05517,-0.00229,-0.01534,-0.00511,-0.00927,0.01653,-0.06924,0.98686,1.49099,0.00000,1.63961,1.63892,-0.07756,0.19906,1.50854,-0.38634,0.90809,2.19000,2.19000,A,133813.20
1.53498,57.68785794,11.98140144,57.68786400,11.98139650,17:20:22.355764,0.01053,0.92662,0.92662,-0.05536,-0.00229,-0.00510,-0.00541,-0.00331,-0.08680,-0.03538,1.02382,1.52898,0.18532,1.72227,1.72159,-0.09300,0.23451,1.50854,-0.38634,0.90809,2.19000,2.19000,A,133813.20
1.55104,57.68785794,11.98140144,57.68786400,11.98139650,17:20:22.371753,0.00542,0.92662,0.92662,-0.05588,-0.00229,-0.00724,0.00497,0.00081,-0.00037,-0.06002,0.98899,1.54729,0.18532,1.72227,1.72159,-0.09300,0.23451,1.50854,-0.38634,0.90809,2.19000,2.19000,A,133813.20
1.55884,57.68785794,11.98140144,57.68786400,11.98139650,17:20:22.379325,0.00300,0.92662,0.92662,-0.05627,-0.00229,0.00009,0.00742,-0.00270,0.06204,-0.06027,0.98588,1.55511,0.18532,1.72227,1.72159,-0.09300,0.23451,1.50854,-0.38634,0.90809,2.19000,2.19000,A,133813.20
1.56940,57.68785794,11.98140144,57.68786400,11.98139650,17:20:22.389878,0.00316,0.92662,0.92662,-0.05661,-0.00229,-0.00297,-0.00709,0.00157,-0.00567,-0.05575,1.00180,1.56567,0.18532,1.72227,1.72159,-0.09300,0.23451,1.50854,-0.38634,0.90809,2.19000,2.19000,A,133813.20
1.57981,57.68785794,11.98140144,57.68786400,11.98139650,17:20:22.400290,0.00317,0.92662,0.92662,-0.05684,-0.00229,-0.00800,-0.00679,0.00035,-0.01183,-0.04624,1.00589,1.57586,0.18532,1.72227,1.72159,-0.09300,0.23451,1.50854,-0.38634,0.90809,2.19000,2.19000,A,133813.20
1.59186,57.68785794,11.98140144,57.68786400,11.98139650,17:20:22.412374,0.00483,0.92662,0.92662,-0.05717,-0.00229,-0.00342,-0.00312,-0.00515,-0.02928,-0.05685,1.02565,1.58645,0.18532,1.72227,1.72159,-0.09300,0.23451,1.50854,-0.38634,0.90809,2.19000,2.19000,A,133813.20
1.60141,57.68785794,11.98140144,57.68786400,11.98139650,17:20:22.421890,0.00397,0.92662,0.92662,-0.05757,-0.00229,-0.00556,-0.00404,-0.00820,0.02025,-0.05893,1.00016,1.59766,0.18532,1.72227,1.72159,-0.09300,0.23451,1.50854,-0.38634,0.90809,2.19000,2.19000,A,133813.20
1.62640,57.68785794,11.98140144,57.68786483,11.98139600,17:20:22.447278,0.01867,0.92662,0.92662,-0.05788,-0.00229,-0.00663,-0.00404,-0.00774,0.03532,-0.05307,0.98643,1.60696,0.18532,1.72227,1.72159,-0.09300,0.23451,1.62219,-0.41606,1.00075,1.88115,1.88115,A,133813.30
1.64126,57.68785845,11.98140112,57.68786483,11.98139600,17:20:22.461952,0.00754,0.92662,0.92662,-0.05825,-0.00229,-0.00129,-0.01076,-0.00484,-0.09534,-0.05905,1.00345,1.63523,0.33358,1.74617,1.74549,-0.11191,0.29096,1.62219,-0.41606,1.00075,1.88115,1.88115,A,133813.30
1.64694,57.68785845,11.98140112,57.68786483,11.98139600,17:20:22.467418,0.00299,0.92662,0.92662,-0.05830,-0.00229,0.00146,0.00283,-0.00484,-0.07033,-0.04142,0.99326,1.64321,0.33358,1.74617,1.74549,-0.11191,0.29096,1.62219,-0.41606,1.00075,1.88115,1.88115,A,133813.30
1.65748,57.68785845,11.98140112,57.68786483,11.98139600,17:20:22.477959,0.00313,0.92662,0.92662,-0.05863,-0.00229,-0.00083,0.00940,-0.00469,0.00744,-0.05826,0.98399,1.65375,0.33358,1.74617,1.74549,-0.11191,0.29096,1.62219,-0.41606,1.00075,1.88115,1.88115,A,133813.30
1.66791,57.68785845,11.98140112,57.68786483,11.98139600,17:20:22.488387,0.00316,0.92662,0.92662,-0.05899,-0.00229,-0.00251,0.00222,-0.00331,0.03758,-0.05935,0.98521,1.66397,0.33358,1.74617,1.74549,-0.11191,0.29096,1.62219,-0.41606,1.00075,1.88115,1.88115,A,133813.30
1.67827,57.68785845,11.98140112,57.68786483,11.98139600,17:20:22.498754,0.00314,0.92662,0.92662,-0.05931,-0.00229,-0.00251,-0.00480,-0.00163,0.00079,-0.05752,0.99900,1.67455,0.33358,1.74617,1.74549,-0.11191,0.29096,1.62219,-0.41606,1.00075,1.88115,1.88115,A,133813.30
1.68870,57.68785845,11.98140112,57.68786483,11.98139600,17:20:22.509175,0.00316,0.92662,0.92662,-0.05923,-0.00229,0.00101,0.00283,-0.00622,-0.01989,-0.03404,1.00443,1.68496,0.33358,1.74617,1.74549,-0.11191,0.29096,1.62219,-0.41606,1.00075,1.88115,1.88115,A,133813.30
1.69875,57.68785845,11.98140112,57.68786483,11.98139600,17:20:22.519234,0.00299,0.92662,0.92662,-0.05989,-0.00229,0.00589,0.00803,-0.00973,-0.03617,-0.08906,1.02901,1.69501,0.33358,1.74617,1.74549,-0.11191,0.29096,1.62219,-0.41606,1.00075,1.88115,1.88115,A,133813.30
1.70928,57.68785845,11.98140112,57.68786483,11.98139600,17:20:22.529767,0.00312,0.92662,0.92662,-0.06008,-0.00229,0.00207,0.01047,-0.01217,0.00165,-0.05374,1.01333,1.70556,0.33358,1.74617,1.74549,-0.11191,0.29096,1.62219,-0.41606,1.00075,1.88115,1.88115,A,133813.30
1.71957,57.68785845,11.98140112,57.68786483,11.98139600,17:20:22.540059,0.00319,0.92662,0.92662,-0.06037,-0.00229,0.00360,0.00864,-0.01370,0.03221,-0.06076,0.99485,1.71565,0.33358,1.74617,1.74549,-0.11191,0.29096,1.62219,-0.41606,1.00075,1.88115,1.88115,A,133813.30
1.75701,57.68785845,11.98140112,57.68786600,11.98139433,17:20:22.577513,0.03023,0.92662,0.92662,-0.06036,-0.00229,0.00345,0.00299,-0.00759,0.04392,-0.04056,0.97923,1.72621,0.33358,1.74617,1.74549,-0.11191,0.29096,1.75365,-0.51512,1.13048,2.22296,2.22296,A,133813.50
1.76758,57.68785918,11.98140066,57.68786600,11.98139433,17:20:22.588087,0.00547,0.92662,0.92662,-0.05992,-0.00229,0.01322,0.00894,-0.00499,0.01940,-0.03989,0.98210,1.76164,0.45219,1.81771,1.81703,-0.13891,0.37172,1.75365,-0.51512,1.13048,2.22296,2.22296,A,133813.50
1.77567,57.68785918,11.98140066,57.68786600,11.98139433,17:20:22.596166,0.00316,0.92662,0.92662,-0.05966,-0.00229,0.00940,0.00482,-0.00560,0.04380,-0.02696,0.96264,1.77172,0.45219,1.81771,1.81703,-0.13891,0.37172,1.75365,-0.51512,1.13048,2.22296,2.22296,A,133813.50
1.78605,57.68785918,11.98140066,57.68786600,11.98139433,17:20:22.606530,0.00314,0.92662,0.92662,-0.05934,-0.00229,0.01292,-0.00602,-0.00377,-0.00500,-0.02629,0.99723,1.78233,0.45219,1.81771,1.81703,-0.13891,0.37172,1.75365,-0.51512,1.13048,2.22296,2.22296,A,133813.50
1.79644,57.68785918,11.98140066,57.68786600,11.98139433,17:20:22.616922,0.00314,0.92662,0.92662,-0.05914,-0.00229,0.01475,0.00039,-0.00484,-0.06521,-0.03617,1.02370,1.79269,0.45219,1.81771,1.81703,-0.13891,0.37172,1.75365,-0.51512,1.13048,2.22296,2.22296,A,133813.50
1.80668,57.68785918,11.98140066,57.68786600,11.98139433,17:20:22.627156,0.00296,0.92662,0.92662,-0.05919,-0.00229,0.00925,0.01291,-0.00331,-0.05563,-0.04959,1.03120,1.80295,0.45219,1.81771,1.81703,-0.13891,0.37172,1.75365,-0.51512,1.13048,2.22296,2.22296,A,133813.50
1.81726,57.68785918,11.98140066,57.68786600,11.98139433,17:20:22.637746,0.00315,0.92662,0.92662,-0.05909,-0.00229,0.00879,0.01902,-0.00392,0.01244,-0.03806,1.01321,1.81353,0.45219,1.81771,1.81703,-0.13891,0.37172,1.75365,-0.51512,1.13048,2.22296,2.22296,A,133813.50
1.82766,57.68785918,11.98140066,57.68786600,11.98139433,17:20:22.648156,0.00315,0.92662,0.92662,-0.05899,-0.00229,0.00834,0.00665,-0.00499,0.04050,-0.03642,0.97557,1.82372,0.45219,1.81771,1.81703,-0.13891,0.37172,1.75365,-0.51512,1.13048,2.22296,2.22296,A,133813.50
1.83806,57.68785918,11.98140066,57.68786600,11.98139433,17:20:22.658536,0.00315,0.92662,0.92662,-0.05881,-0.00229,0.01063,-0.01015,-0.00286,0.05606,-0.03245,0.96990,1.83433,0.45219,1.81771,1.81703,-0.13891,0.37172,1.75365,-0.51512,1.13048,2.22296,2.22296,A,133813.50
1.84864,57.68785918,11.98140066,57.68786600,11.98139433,17:20:22.669131,0.00333,0.92662,0.92662,-0.05887,-0.00229,0.01261,-0.02206,-0.00179,-0.00232,-0.04868,0.96795,1.84488,0.45219,1.81771,1.81703,-0.13891,0.37172,1.75365,-0.51512,1.13048,2.22296,2.22296,A,133813.50
1.87518,57.68785918,11.98140066,57.68786683,11.98139400,17:20:22.695892,0.01947,0.92662,0.92662,-0.05913,-0.00229,0.00879,-0.02496,-0.00591,-0.04246,-0.06015,0.97460,1.85494,0.45219,1.81771,1.81703,-0.13891,0.37172,1.87040,-0.53493,1.22314,1.78144,1.78144,A,133813.60
1.89265,57.68786002,11.98140011,57.68786683,11.98139400,17:20:22.713137,0.00710,0.92662,0.92662,-0.05924,-0.00229,0.01093,-0.01396,-0.00576,-0.00531,-0.06875,1.01175,1.88663,0.54708,1.81227,1.81159,-0.17161,0.46562,1.87040,-0.53493,1.22314,1.78144,1.78144,A,133813.60
1.89879,57.68786002,11.98140011,57.68786683,11.98139400,17:20:22.719271,0.00301,0.92662,0.92662,-0.05908,-0.00229,0.01185,-0.00282,-0.00576,-0.05337,-0.03575,1.02998,1.89506,0.54708,1.81227,1.81159,-0.17161,0.46562,1.87040,-0.53493,1.22314,1.78144,1.78144,A,133813.60
1.90931,57.68786002,11.98140011,57.68786683,11.98139400,17:20:22.729795,0.00314,0.92662,0.92662,-0.05887,-0.00229,0.01307,0.00864,0.00249,-0.05783,-0.03385,1.03444,1.90558,0.54708,1.81227,1.81159,-0.17161,0.46562,1.87040,-0.53493,1.22314,1.78144,1.78144,A,133813.60
1.91973,57.68786002,11.98140011,57.68786683,11.98139400,17:20:22.740211,0.00316,0.92662,0.92662,-0.05888,-0.00229,0.01612,0.01276,0.00035,-0.02348,-0.04917,0.99235,1.91579,0.54708,1.81227,1.81159,-0.17161,0.46562,1.87040,-0.53493,1.22314,1.78144,1.78144,A,133813.60
1.93010,57.68786002,11.98140011,57.68786683,11.98139400,17:20:22.750578,0.00314,0.92662,0.92662,-0.05919,-0.00229,0.02300,0.01062,0.00524,0.00000,-0.07393,0.98893,1.92637,0.54708,1.81227,1.81159,-0.17161,0.46562,1.87040,-0.53493,1.22314,1.78144,1.78144,A,133813.60
1.94073,57.68786002,11.98140011,57.68786683,11.98139400,17:20:22.761226,0.00337,0.92662,0.92662,-0.05936,-0.00229,0.01872,0.00436,0.00234,0.01982,-0.06137,0.98076,1.93677,0.54708,1.81227,1.81159,-0.17161,0.46562,1.87040,-0.53493,1.22314,1.78144,1.78144,A,133813.60
1.95068,57.68786002,11.98140011,57.68786683,11.98139400,17:20:22.771157,0.00295,0.92662,0.92662,-0.05959,-0.00224,0.02025,-0.00572,0.00432,0.01952,-0.06637,0.97765,1.94695,0.54708,1.81227,1.81159,-0.17161,0.46562,1.87040,-0.53493,1.22314,1.78144,1.78144,A,133813.60
1.96145,57.68786002,11.98140011,57.68786683,11.98139400,17:20:22.781930,0.00333,0.92662,0.92662,-0.05980,-0.00215,0.02300,-0.01137,0.00264,0.00311,-0.06826,0.98802,1.95771,0.54708,1.81227,1.81159,-0.17161,0.46562,1.87040,-0.53493,1.22314,1.78144,1.78144,A,133813.60
1.98770,57.68786002,11.98140011,57.68786767,11.98139300,17:20:22.808208,0.01920,0.92662,0.92662,-0.06011,-0.00207,0.02498,-0.01076,-0.00224,-0.02702,-0.07601,0.99881,1.96772,0.54708,1.81227,1.81159,-0.17161,0.46562,1.98316,-0.59437,1.31581,2.14113,2.14113,A,133813.70
2.00219,57.68786089,11.98139953,57.68786767,11.98139300,17:20:22.822676,0.00710,0.92662,0.92662,-0.05911,-0.00181,0.02437,0.00161,-0.00347,-0.00024,-0.01879,1.03773,1.99648,0.62299,1.86158,1.86104,-0.20610,0.56250,1.98316,-0.59437,1.31581,2.14113,2.14113,A,133813.70
2.01111,57.68786089,11.98139953,57.68786767,11.98139300,17:20:22.831852,0.00562,0.92662,0.92662,-0.05884,-0.00181,0.02529,0.00329,-0.00316,0.00396,-0.03532,1.02864,2.00479,0.92662,1.99561,1.99508,-0.59437,1.31581,1.98316,-0.59437,1.31581,2.14113,2.14113,A,133813.70
2.01899,57.68786089,11.98139953,57.68786767,11.98139300,17:20:22.839999,0.00310,0.92662,0.92662,-0.05887,-0.00414,0.02376,0.00299,-0.00179,-0.01928,-0.05728,1.01614,2.01524,0.92662,1.99561,1.99508,-0.59437,1.31581,1.98316,-0.59437,1.31581,2.14113,2.14113,A,133813.70
2.02970,57.68786089,11.98139953,57.68786767,11.98139300,17:20:22.850187,0.00341,0.92662,0.92662,-0.05816,-0.00414,0.02101,0.00360,0.00035,-0.02599,-0.00531,0.99967,2.02595,0.92662,1.99561,1.99508,-0.59437,1.31581,1.98316,-0.59437,1.31581,2.14113,2.14113,A,133813.70
2.04002,57.68786089,11.98139953,57.68786767,11.98139300,17:20:22.860514,0.00333,0.92662,0.92662,-0.05783,-0.00414,0.02422,0.00864,-0.00270,-0.01275,-0.03184,0.99698,2.03627,0.92662,1.99561,1.99508,-0.59437,1.31581,1.98316,-0.59437,1.31581,2.14113,2.14113,A,133813.70
2.05024,57.68786089,11.98139953,57.68786767,11.98139300,17:20:22.870716,0.00315,0.92662,0.92662,-0.05747,-0.00414,0.02681,0.01184,-0.00133,-0.01409,-0.03026,0.96148,2.04650,0.92662,1.99561,1.99508,-0.59437,1.31581,1.98316,-0.59437,1.31581,2.14113,2.14113,A,133813.70
2.06069,57.68786089,11.98139953,57.68786767,11.98139300,17:20:22.881178,0.00321,0.92662,0.92662,-0.05743,-0.00414,0.02193,0.00467,-0.00545,0.00775,-0.04685,0.95685,2.05678,0.92662,1.99561,1.99508,-0.59437,1.31581,1.98316,-0.59437,1.31581,2.14113,2.14113,A,133813.70
2.07072,57.68786089,11.98139953,57.68786767,11.98139300,17:20:22.891193,0.00299,0.92662,0.92662,-0.05718,-0.00414,0.01643,-0.00663,-0.00835,-0.02995,-0.03050,0.97942,2.06698,0.92662,1.99561,1.99508,-0.59437,1.31581,1.98316,-0.59437,1.31581,2.14113,2.14113,A,133813.70
2.08128,57.68786089,11.98139953,57.68786767,11.98139300,17:20:22.901764,0.00316,0.92662,0.92662,-0.05712,-0.00414,0.01628,-0.01030,-0.01202,-0.03044,-0.04465,1.01925,2.07755,0.92662,1.99561,1.99508,-0.59437,1.31581,1.98316,-0.59437,1.31581,2.14113,2.14113,A,133813.70
2.11007,57.68786089,11.98139953,57.68786867,11.98139267,17:20:22.930564,0.02155,0.92662,0.92662,-0.05714,-0.00414,0.01674,-0.00053,-0.01034,-0.00964,-0.05087,1.04560,2.08774,0.92662,1.99561,1.99508,-0.59437,1.31581,2.10596,-0.61418,1.42700,1.74712,1.74712,A,133813.80
2.12482,57.68786859,11.98139225,57.68786867,11.98139267,17:20:22.945312,0.00728,1.19187,1.19187,-0.05689,-0.00414,0.01597,0.00894,-0.00377,-0.02977,-0.05283,1.00022,2.11884,0.97967,1.95837,1.95714,-0.63905,1.41808,2.10596,-0.61418,1.42700,1.74712,1.74712,A,133813.80
2.13154,57.68786859,11.98139225,57.68786867,11.98139267,17:20:22.952038,0.00342,1.19187,1.19187,-0.05652,-0.00414,0.01261,0.01612,-0.00484,-0.05459,-0.01842,0.98863,2.12745,0.97967,1.95837,1.95714,-0.63905,1.41808,2.10596,-0.61418,1.42700,1.74712,1.74712,A,133813.80
2.14183,57.68786859,11.98139225,57.68786867,11.98139267,17:20:22.962311,0.00331,1.19187,1.19187,-0.05634,-0.00414,0.01780,0.01933,-0.00209,-0.02470,-0.03544,0.97630,2.13810,0.97967,1.95837,1.95714,-0.63905,1.41808,2.10596,-0.61418,1.42700,1.74712,1.74712,A,133813.80
2.15211,57.68786859,11.98139225,57.68786867,11.98139267,17:20:22.972595,0.00318,1.19187,1.19187,-0.05617,-0.00414,0.01674,0.00467,-0.00118,0.06551,-0.03416,0.94825,2.14836,0.97967,1.95837,1.95714,-0.63905,1.41808,2.10596,-0.61418,1.42700,1.74712,1.74712,A,133813.80
2.16263,57.68786859,11.98139225,57.68786867,11.98139267,17:20:22.983116,0.00313,1.19187,1.19187,-0.05619,-0.00414,0.01582,-0.01259,-0.00102,0.04319,-0.04557,0.94745,2.15890,0.97967,1.95837,1.95714,-0.63905,1.41808,2.10596,-0.61418,1.42700,1.74712,1.74712,A,133813.80
2.17458,57.68786859,11.98139225,57.68786867,11.98139267,17:20:22.995077,0.00469,1.19187,1.19187,-0.05655,-0.00414,0.01719,-0.02206,-0.00591,0.00445,-0.06905,0.94446,2.17080,0.97967,1.95837,1.95714,-0.63905,1.41808,2.10596,-0.61418,1.42700,1.74712,1.74712,A,133813.80
2.18313,57.68786859,11.98139225,57.68786867,11.98139267,17:20:23.003816,0.00300,1.19187,1.19187,-0.05680,-0.00414,0.01811,-0.02649,-0.00591,-0.03520,-0.06295,0.99552,2.17939,0.97967,1.95837,1.95714,-0.63905,1.41808,2.10596,-0.61418,1.42700,1.74712,1.74712,A,133813.80
2.19368,57.68786859,11.98139225,57.68786867,11.98139267,17:20:23.014164,0.00317,1.19187,1.19187,-0.05703,-0.00414,0.01292,-0.02191,-0.00881,-0.10187,-0.06301,1.03987,2.18996,0.97967,1.95837,1.95714,-0.63905,1.41808,2.10596,-0.61418,1.42700,1.74712,1.74712,A,133813.80
2.20410,57.68786859,11.98139225,57.68786867,11.98139267,17:20:23.024578,0.00319,1.19187,1.19187,-0.05722,-0.00414,0.00360,-0.00450,-0.01095,-0.07302,-0.05356,1.04914,2.20034,0.97967,1.95837,1.95714,-0.63905,1.41808,2.10596,-0.61418,1.42700,1.74712,1.74712,A,133813.80
2.23246,57.68786859,11.98139225,57.68786967,11.98139217,17:20:23.052972,0.02086,1.19187,1.19187,-0.05697,-0.00414,0.00986,0.00207,-0.00835,-0.02355,-0.02824,1.03798,2.21087,0.97967,1.95837,1.95714,-0.63905,1.41808,2.22604,-0.64390,1.53820,1.83196,1.83196,A,133813.90
2.24654,57.68786957,11.98139154,57.68786967,11.98139217,17:20:23.067024,0.00652,1.19187,1.19187,-0.05657,-0.00414,0.02086,-0.00327,0.00600,-0.09266,-0.05063,0.99802,2.24056,1.02211,1.93921,1.93799,-0.68125,1.52724,2.22604,-0.64390,1.53820,1.83196,1.83196,A,133813.90
2.25362,57.68786957,11.98139154,57.68786967,11.98139217,17:20:23.074099,0.00321,1.19187,1.19187,-0.05623,-0.00414,0.01444,-0.00068,0.00936,-0.02409,-0.02220,1.00760,2.24989,1.02211,1.93921,1.93799,-0.68125,1.52724,2.22604,-0.64390,1.53820,1.83196,1.83196,A,133813.90
2.26414,57.68786957,11.98139154,57.68786967,11.98139217,17:20:23.084623,0.00333,1.19187,1.19187,-0.05663,-0.00414,0.01948,0.00253,0.01410,-0.02684,-0.07558,1.00016,2.26038,1.02211,1.93921,1.93799,-0.68125,1.52724,2.22604,-0.64390,1.53820,1.83196,1.83196,A,133813.90
2.27434,57.68786957,11.98139154,57.68786967,11.98139217,17:20:23.094820,0.00314,1.19187,1.19187,-0.05622,-0.00411,0.01338,-0.01503,0.01242,0.05173,-0.01793,1.00351,2.27061,1.02211,1.93921,1.93799,-0.68125,1.52724,2.22604,-0.64390,1.53820,1.83196,1.83196,A,133813.90
2.28482,57.68786957,11.98139154,57.68786967,11.98139217,17:20:23.105301,0.00320,1.19187,1.19187,-0.05598,-0.00389,0.01674,-0.02068,0.01196,-0.02788,-0.03123,1.00863,2.28108,1.02211,1.93921,1.93799,-0.68125,1.52724,2.22604,-0.64390,1.53820,1.83196,1.83196,A,133813.90
2.29577,57.68786957,11.98139154,57.68786967,11.98139217,17:20:23.116259,0.00332,1.19187,1.19187,-0.05545,-0.00326,0.02025,-0.01717,0.01165,-0.08333,-0.01470,1.02535,2.29181,1.02211,1.93921,1.93799,-0.68125,1.52724,2.22604,-0.64390,1.53820,1.83196,1.83196,A,133813.90
2.30601,57.68786957,11.98139154,57.68786967,11.98139217,17:20:23.126501,0.00317,1.19187,1.19187,-0.05539,-0.00222,0.02284,-0.00068,0.00799,-0.08693,-0.04636,0.99942,2.30228,1.02211,1.93921,1.93799,-0.68125,1.52724,2.22604,-0.64390,1.53820,1.83196,1.83196,A,133813.90
2.31640,57.68786957,11.98139154,57.68786967,11.98139217,17:20:23.136878,0.00316,1.19187,1.19187,-0.05578,-0.00091,0.01948,0.01078,0.00799,-0.02891,-0.07094,0.95983,2.31265,1.02211,1.93921,1.93799,-0.68125,1.52724,2.22604,-0.64390,1.53820,1.83196,1.83196,A,133813.90
2.35512,57.68786957,11.98139154,57.68787200,11.98139083,17:20:23.175842,0.03140,1.19187,1.19187,-0.05589,0.00056,0.01338,0.00238,0.00707,0.03678,-0.04862,0.94324,2.32296,1.02211,1.93921,1.93799,-0.68125,1.52724,2.34961,-0.72315,1.79765,1.86724,1.86724,A,133814.10
2.37310,57.68787070,11.98139077,57.68787200,11.98139083,17:20:23.193584,0.00765,1.19187,1.19187,-0.05471,0.00483,0.02727,0.00100,0.00967,-0.07235,-0.03562,1.03334,2.36708,1.05606,1.92779,1.92923,-0.72673,1.65355,2.34961,-0.72315,1.79765,1.86724,1.86724,A,133814.10
2.37868,57.68787070,11.98139077,57.68787200,11.98139083,17:20:23.199167,0.00296,1.19187,1.19187,-0.05461,0.00511,0.02071,0.00222,0.01119,-0.03050,-0.03910,1.06262,2.37495,1.05606,1.92779,1.92923,-0.72673,1.65355,2.34961,-0.72315,1.79765,1.86724,1.86724,A,133814.10
2.38927,57.68787070,11.98139077,57.68787200,11.98139083,17:20:23.209743,0.00316,1.19187,1.19187,-0.05427,0.00520,0.01078,0.01154,0.01196,-0.04587,-0.01885,1.04420,2.38554,1.05606,1.92779,1.92923,-0.72673,1.65355,2.34961,-0.72315,1.79765,1.86724,1.86724,A,133814.10
2.39967,57.68787070,11.98139077,57.68787200,11.98139083,17:20:23.220160,0.00316,1.19187,1.19187,-0.05390,0.00520,0.01414,0.01505,0.01119,0.01281,-0.01726,1.01364,2.39573,1.05606,1.92779,1.92923,-0.72673,1.65355,2.34961,-0.72315,1.79765,1.86724,1.86724,A,133814.10
2.41007,57.68787070,11.98139077,57.68787200,11.98139083,17:20:23.230549,0.00316,1.19187,1.19187,-0.05369,0.00520,0.01826,0.01566,0.00356,-0.01354,-0.02879,0.93245,2.40633,1.05606,1.92779,1.92923,-0.72673,1.65355,2.34961,-0.72315,1.79765,1.86724,1.86724,A,133814.10
2.42046,57.68787070,11.98139077,57.68787200,11.98139083,17:20:23.240951,0.00316,1.19187,1.19187,-0.05384,0.00520,0.01490,0.00726,-0.00148,-0.00482,-0.04776,0.91610,2.41671,1.05606,1.92779,1.92923,-0.72673,1.65355,2.34961,-0.72315,1.79765,1.86724,1.86724,A,133814.10
2.43068,57.68787070,11.98139077,57.68787200,11.98139083,17:20:23.251159,0.00297,1.19187,1.19187,-0.05373,0.00520,0.01628,-0.00251,-0.00637,0.00311,-0.03233,0.90426,2.42695,1.05606,1.92779,1.92923,-0.72673,1.65355,2.34961,-0.72315,1.79765,1.86724,1.86724,A,133814.10
2.44151,57.68787070,11.98139077,57.68787200,11.98139083,17:20:23.261994,0.00324,1.19187,1.19187,-0.05353,0.00520,0.01597,-0.00862,-0.00469,-0.03074,-0.02879,0.94678,2.43778,1.05606,1.92779,1.92923,-0.72673,1.65355,2.34961,-0.72315,1.79765,1.86724,1.86724,A,133814.10
2.46901,57.68787070,11.98139077,57.68787317,11.98139017,17:20:23.289509,0.02034,1.19187,1.19187,-0.05356,0.00520,0.01475,-0.00312,-0.00179,-0.03831,-0.04313,0.99027,2.44788,1.05606,1.92779,1.92923,-0.72673,1.65355,2.46339,-0.76278,1.92738,1.86724,1.86724,A,133814.20
2.48851,57.68787178,11.98139007,57.68787317,11.98139017,17:20:23.308999,0.00833,1.19187,1.19187,-0.05298,0.00520,0.02330,0.03506,0.00768,0.01171,-0.04898,1.06280,2.48245,1.08323,1.91893,1.92047,-0.76840,1.77367,2.46339,-0.76278,1.92738,1.86724,1.86724,A,133814.20
2.49376,57.68787178,11.98139007,57.68787317,11.98139017,17:20:23.314239,0.00318,1.19187,1.19187,-0.05261,0.00520,0.02177,0.02284,0.01180,0.00769,-0.01830,1.05011,2.49003,1.08323,1.91893,1.92047,-0.76840,1.77367,2.46339,-0.76278,1.92738,1.86724,1.86724,A,133814.20
2.50416,57.68787178,11.98139007,57.68787317,11.98139017,17:20:23.324643,0.00318,1.19187,1.19187,-0.05160,0.00520,0.02529,0.01276,0.00768,0.06942,0.01854,0.98606,2.50041,1.08323,1.91893,1.92047,-0.76840,1.77367,2.46339,-0.76278,1.92738,1.86724,1.86724,A,133814.20
2.51452,57.68787178,11.98139007,57.68787317,11.98139017,17:20:23.334999,0.00297,1.19187,1.19187,-0.05110,0.00520,0.02743,-0.00893,0.00951,0.00140,-0.01488,0.99125,2.51079,1.08323,1.91893,1.92047,-0.76840,1.77367,2.46339,-0.76278,1.92738,1.86724,1.86724,A,133814.20
2.52509,57.68787178,11.98139007,57.68787317,11.98139017,17:20:23.345574,0.00315,1.19187,1.19187,-0.05083,0.00520,0.03750,-0.01687,-0.00301,0.04081,-0.03416,0.91927,2.52136,1.08323,1.91893,1.92047,-0.76840,1.77367,2.46339,-0.76278,1.92738,1.86724,1.86724,A,133814.20
2.53582,57.68787178,11.98139007,57.68787317,11.98139017,17:20:23.356312,0.00349,1.19187,1.19187,-0.05094,0.00520,0.03903,-0.03122,-0.00515,-0.05130,-0.05838,0.92092,2.53174,1.08323,1.91893,1.92047,-0.76840,1.77367,2.46339,-0.76278,1.92738,1.86724,1.86724,A,133814.20
2.54590,57.68787178,11.98139007,57.68787317,11.98139017,17:20:23.366375,0.00317,1.19187,1.19187,-0.05123,0.00520,0.04117,-0.02053,-0.00591,-0.05362,-0.07363,0.95758,2.54216,1.08323,1.91893,1.92047,-0.76840,1.77367,2.46339,-0.76278,1.92738,1.86724,1.86724,A,133814.20
2.55628,57.68787178,11.98139007,57.68787317,11.98139017,17:20:23.376767,0.00316,1.19187,1.19187,-0.05179,0.00520,0.03491,-0.00740,-0.00774,-0.12163,-0.09168,1.00845,2.55254,1.08323,1.91893,1.92047,-0.76840,1.77367,2.46339,-0.76278,1.92738,1.86724,1.86724,A,133814.20
2.58396,57.68787178,11.98139007,57.68787400,11.98138933,17:20:23.404456,0.02030,1.19187,1.19187,-0.05133,0.00520,0.03567,0.00375,0.00447,-0.04490,-0.02452,1.03389,2.56290,1.08323,1.91893,1.92047,-0.76840,1.77367,2.57835,-0.81231,2.02004,2.06169,2.06169,A,133814.30
2.60570,57.68787290,11.98138935,57.68787400,11.98138933,17:20:23.426195,0.00665,1.48554,1.48554,-0.04939,0.00520,0.05003,-0.00144,0.00936,0.04825,-0.01952,0.94208,2.59977,1.16369,1.94061,1.94216,-0.81120,1.89734,2.57835,-0.81231,2.02004,2.06169,2.06169,A,133814.30
2.61260,57.68787290,11.98138935,57.68787400,11.98138933,17:20:23.433086,0.00315,1.48554,1.48554,-0.04935,0.00520,0.04972,-0.01183,0.00386,-0.01531,-0.05167,0.95270,2.60886,1.16369,1.94061,1.94216,-0.81120,1.89734,2.57835,-0.81231,2.02004,2.06169,2.06169,A,133814.30
2.62271,57.68787290,11.98138935,57.68787400,11.98138933,17:20:23.443191,0.00299,1.48554,1.48554,-0.04919,0.00520,0.05018,-0.01274,0.00096,-0.01653,-0.04624,0.92525,2.61898,1.16369,1.94061,1.94216,-0.81120,1.89734,2.57835,-0.81231,2.02004,2.06169,2.06169,A,133814.30
2.63351,57.68787290,11.98138935,57.68787400,11.98138933,17:20:23.453994,0.00339,1.48554,1.48554,-0.04840,0.00520,0.04728,-0.00404,-0.00438,-0.01732,-0.00756,0.91775,2.62976,1.16369,1.94061,1.94216,-0.81120,1.89734,2.57835,-0.81231,2.02004,2.06169,2.06169,A,133814.30
2.64388,57.68787290,11.98138935,57.68787400,11.98138933,17:20:23.464371,0.00335,1.48554,1.48554,-0.04847,0.00520,0.04713,-0.00725,-0.01248,-0.03867,-0.06069,0.96959,2.63991,1.16369,1.94061,1.94216,-0.81120,1.89734,2.57835,-0.81231,2.02004,2.06169,2.06169,A,133814.30
2.65409,57.68787290,11.98138935,57.68787400,11.98138933,17:20:23.474936,0.00316,1.48554,1.48554,-0.04845,0.00520,0.03689,0.00283,-0.01110,0.01311,-0.04904,0.98509,2.65036,1.16369,1.94061,1.94216,-0.81120,1.89734,2.57835,-0.81231,2.02004,2.06169,2.06169,A,133814.30
2.66453,57.68787290,11.98138935,57.68787400,11.98138933,17:20:23.485013,0.00321,1.48554,1.48554,-0.04813,0.00520,0.04239,-0.00251,-0.00988,-0.01360,-0.03593,1.03840,2.66078,1.16369,1.94061,1.94216,-0.81120,1.89734,2.57835,-0.81231,2.02004,2.06169,2.06169,A,133814.30
2.67469,57.68787290,11.98138935,57.68787400,11.98138933,17:20:23.495166,0.00297,1.48554,1.48554,-0.04723,0.00520,0.04484,0.00146,-0.01141,-0.04136,0.00390,1.02645,2.67096,1.16369,1.94061,1.94216,-0.81120,1.89734,2.57835,-0.81231,2.02004,2.06169,2.06169,A,133814.30
2.70296,57.68787290,11.98138935,57.68787483,11.98138833,17:20:23.523689,0.02084,1.48554,1.48554,-0.04682,0.00520,0.04972,0.00910,-0.01156,-0.05527,-0.03398,1.06000,2.68160,1.16369,1.94061,1.94216,-0.81120,1.89734,2.69680,-0.87175,2.11270,2.14113,2.14113,A,133814.40
2.71618,57.68787400,11.98138857,57.68787483,11.98138833,17:20:23.536672,0.00730,1.48554,1.48554,-0.04548,0.00492,0.05018,0.01673,-0.00744,-0.02995,-0.02959,1.00101,2.71009,1.22806,1.97098,1.97244,-0.85767,2.01965,2.69680,-0.87175,2.11270,2.14113,2.14113,A,133814.40
2.72242,57.68787400,11.98138857,57.68787483,11.98138833,17:20:23.542898,0.00298,1.48554,1.48554,-0.04553,0.00472,0.04606,0.02299,-0.01003,-0.01921,-0.05173,0.98057,2.71869,1.22806,1.97098,1.97244,-0.85767,2.01965,2.69680,-0.87175,2.11270,2.14113,2.14113,A,133814.40
2.73315,57.68787400,11.98138857,57.68787483,11.98138833,17:20:23.553637,0.00331,1.48554,1.48554,-0.04517,0.00449,0.04911,0.01612,-0.00667,-0.00427,-0.03318,0.95630,2.72941,1.22806,1.97098,1.97244,-0.85767,2.01965,2.69680,-0.87175,2.11270,2.14113,2.14113,A,133814.40
2.74320,57.68787400,11.98138857,57.68787483,11.98138833,17:20:23.563894,0.00313,1.48554,1.48554,-0.04464,0.00432,0.05110,0.02238,-0.01171,0.00671,-0.01982,0.92970,2.73947,1.22806,1.97098,1.97244,-0.85767,2.01965,2.69680,-0.87175,2.11270,2.14113,2.14113,A,133814.40
2.75379,57.68787400,11.98138857,57.68787483,11.98138833,17:20:23.574279,0.00332,1.48554,1.48554,-0.04375,0.00426,0.05385,0.01123,-0.00790,-0.00079,-0.00079,0.94696,2.75006,1.22806,1.97098,1.97244,-0.85767,2.01965,2.69680,-0.87175,2.11270,2.14113,2.14113,A,133814.40
2.76423,57.68787400,11.98138857,57.68787483,11.98138833,17:20:23.584717,0.00336,1.48554,1.48554,-0.04302,0.00424,0.05797,-0.00312,-0.00560,0.03050,-0.01208,0.96142,2.76047,1.22806,1.97098,1.97244,-0.85767,2.01965,2.69680,-0.87175,2.11270,2.14113,2.14113,A,133814.40
2.77441,57.68787400,11.98138857,57.68787483,11.98138833,17:20:23.594887,0.00297,1.48554,1.48554,-0.04232,0.00424,0.05843,-0.01320,-0.00499,0.01928,-0.01372,0.99094,2.77068,1.22806,1.97098,1.97244,-0.85767,2.01965,2.69680,-0.87175,2.11270,2.14113,2.14113,A,133814.40
2.78501,57.68787400,11.98138857,57.68787483,11.98138833,17:20:23.605498,0.00318,1.48554,1.48554,-0.04202,0.00424,0.06179,-0.01442,-0.00560,-0.01726,-0.04392,1.01071,2.78129,1.22806,1.97098,1.97244,-0.85767,2.01965,2.69680,-0.87175,2.11270,2.14113,2.14113,A,133814.40
2.79508,57.68787400,11.98138857,57.68787483,11.98138833,17:20:23.615777,0.00302,1.48554,1.48554,-0.04177,0.00424,0.06423,-0.00450,-0.00774,-0.08833,-0.04849,1.05054,2.79134,1.22806,1.97098,1.97244,-0.85767,2.01965,2.69680,-0.87175,2.11270,2.14113,2.14113,A,133814.40
2.82193,57.68787400,11.98138857,57.68787617,11.98138750,17:20:23.642423,0.01948,1.48554,1.48554,-0.04161,0.00424,0.05461,0.00910,-0.00790,-0.05661,-0.04996,1.06311,2.80187,1.22806,1.97098,1.97244,-0.85767,2.01965,2.81770,-0.92128,2.26096,1.89322,1.89322,A,133814.50
2.83359,57.68787521,11.98138764,57.68787617,11.98138750,17:20:23.654086,0.00675,1.48554,1.48554,-0.04022,0.00424,0.04758,-0.00205,-0.00041,0.01238,-0.00305,0.96197,2.82636,1.27956,1.95966,1.96092,-0.91290,2.15427,2.81770,-0.92128,2.26096,1.89322,1.89322,A,133814.50
2.84040,57.68787521,11.98138764,57.68787617,11.98138750,17:20:23.661043,0.00316,1.48554,1.48554,-0.03903,0.00424,0.04636,-0.00602,0.00111,-0.06600,0.02873,0.98436,2.83665,1.27956,1.95966,1.96092,-0.91290,2.15427,2.81770,-0.92128,2.26096,1.89322,1.89322,A,133814.50
2.85069,57.68787521,11.98138764,57.68787617,11.98138750,17:20:23.671170,0.00298,1.48554,1.48554,-0.03858,0.00424,0.04804,-0.00037,-0.00102,-0.09437,-0.01885,0.98362,2.84696,1.27956,1.95966,1.96092,-0.91290,2.15427,2.81770,-0.92128,2.26096,1.89322,1.89322,A,133814.50
2.86126,57.68787521,11.98138764,57.68787617,11.98138750,17:20:23.681742,0.00315,1.48554,1.48554,-0.03844,0.00424,0.04484,0.00757,-0.00133,-0.02702,-0.03770,0.96526,2.85753,1.27956,1.95966,1.96092,-0.91290,2.15427,2.81770,-0.92128,2.26096,1.89322,1.89322,A,133814.50
2.87166,57.68787521,11.98138764,57.68787617,11.98138750,17:20:23.692153,0.00316,1.48554,1.48554,-0.03861,0.00424,0.03659,0.00436,-0.00484,0.02965,-0.05026,0.96783,2.86771,1.27956,1.95966,1.96092,-0.91290,2.15427,2.81770,-0.92128,2.26096,1.89322,1.89322,A,133814.50
2.88206,57.68787521,11.98138764,57.68787617,11.98138750,17:20:23.702538,0.00316,1.48554,1.48554,-0.03860,0.00412,0.03063,-0.01122,-0.01187,0.01787,-0.03758,0.99308,2.87833,1.27956,1.95966,1.96092,-0.91290,2.15427,2.81770,-0.92128,2.26096,1.89322,1.89322,A,133814.50
2.89245,57.68787521,11.98138764,57.68787617,11.98138750,17:20:23.712935,0.00315,1.48554,1.48554,-0.03859,0.00390,0.03094,-0.01977,-0.02149,-0.01861,-0.03691,0.99698,2.88871,1.27956,1.95966,1.96092,-0.91290,2.15427,2.81770,-0.92128,2.26096,1.89322,1.89322,A,133814.50
2.90274,57.68787521,11.98138764,57.68787617,11.98138750,17:20:23.723221,0.00298,1.48554,1.48554,-0.03874,0.00361,0.03155,-0.02634,-0.02515,-0.06289,-0.04978,1.02773,2.89901,1.27956,1.95966,1.96092,-0.91290,2.15427,2.81770,-0.92128,2.26096,1.89322,1.89322,A,133814.50
2.91329,57.68787521,11.98138764,57.68787617,11.98138750,17:20:23.733770,0.00313,1.48554,1.48554,-0.03884,0.00327,0.03002,-0.01870,-0.02821,-0.05362,-0.04587,1.03529,2.90957,1.27956,1.95966,1.96092,-0.91290,2.15427,2.81770,-0.92128,2.26096,1.89322,1.89322,A,133814.50
2.95112,57.68787521,11.98138764,57.68787833,11.98138567,17:20:23.771848,0.03056,1.48554,1.48554,-0.03961,0.00296,0.02895,-0.01839,-0.02729,-0.00732,-0.09016,1.01998,2.91977,1.27956,1.95966,1.96092,-0.91290,2.15427,2.94704,-1.03024,2.50189,1.99556,1.99556,A,133814.70
2.96153,57.68787664,11.98138656,57.68787833,11.98138567,17:20:23.782015,0.00522,1.48554,1.48554,-0.03810,0.00214,0.02544,-0.01595,-0.00331,-0.10736,0.02403,1.07067,2.95559,1.32075,1.96548,1.96612,-0.97698,2.31322,2.94704,-1.03024,2.50189,1.99556,1.99556,A,133814.70
2.96988,57.68787664,11.98138656,57.68787833,11.98138567,17:20:23.790361,0.00317,1.48554,1.48554,-0.03758,0.00194,0.03353,-0.00801,0.00447,-0.03215,-0.00525,1.02468,2.96615,1.32075,1.96548,1.96612,-0.97698,2.31322,2.94704,-1.03024,2.50189,1.99556,1.99556,A,133814.70
2.98027,57.68787664,11.98138656,57.68787833,11.98138567,17:20:23.800751,0.00316,1.48554,1.48554,-0.03660,0.00169,0.02529,-0.01381,0.00234,0.00897,0.03331,1.03419,2.97653,1.32075,1.96548,1.96612,-0.97698,2.31322,2.94704,-1.03024,2.50189,1.99556,1.99556,A,133814.70
2.99063,57.68787664,11.98138656,57.68787833,11.98138567,17:20:23.811110,0.00299,1.48554,1.48554,-0.03589,0.00138,0.02345,-0.02068,0.00203,0.01781,0.01537,0.97246,2.98690,1.32075,1.96548,1.96612,-0.97698,2.31322,2.94704,-1.03024,2.50189,1.99556,1.99556,A,133814.70
3.00118,57.68787664,11.98138656,57.68787833,11.98138567,17:20:23.821662,0.00314,1.48554,1.48554,-0.03497,0.00098,0.02025,-0.03137,-0.00606,0.00073,0.03001,0.91543,2.99745,1.32075,1.96548,1.96612,-0.97698,2.31322,2.94704,-1.03024,2.50189,1.99556,1.99556,A,133814.70
3.01160,57.68787664,11.98138656,57.68787833,11.98138567,17:20:23.832092,0.00317,1.48554,1.48554,-0.03427,0.00064,0.02101,-0.03871,-0.00622,-0.06240,0.01677,0.89926,3.00764,1.32075,1.96548,1.96612,-0.97698,2.31322,2.94704,-1.03024,2.50189,1.99556,1.99556,A,133814.70
3.02198,57.68787664,11.98138656,57.68787833,11.98138567,17:20:23.842457,0.00315,1.48554,1.48554,-0.03307,0.00036,0.01872,-0.02725,-0.01232,-0.15024,0.05222,0.96435,3.01825,1.32075,1.96548,1.96612,-0.97698,2.31322,2.94704,-1.03024,2.50189,1.99556,1.99556,A,133814.70
3.03251,57.68787664,11.98138656,57.68787833,11.98138567,17:20:23.852995,0.00329,1.48554,1.48554,-0.03257,0.00019,0.02376,-0.00053,-0.01599,-0.10211,0.00451,0.97887,3.02877,1.32075,1.96548,1.96612,-0.97698,2.31322,2.94704,-1.03024,2.50189,1.99556,1.99556,A,133814.70
3.04394,57.68787664,11.98138656,57.68787833,11.98138567,17:20:23.864430,0.00383,1.48554,1.48554,-0.03202,0.00016,0.01933,0.01811,-0.01981,-0.05813,0.01141,1.05323,3.03999,1.32075,1.96548,1.96612,-0.97698,2.31322,2.94704,-1.03024,2.50189,1.99556,1.99556,A,133814.70
3.07154,57.68787664,11.98138656,57.68787917,11.98138433,17:20:23.892067,0.02104,1.48554,1.48554,-0.03202,0.00016,0.01933,0.02864,-0.01721,-0.02208,-0.02470,1.04389,3.05009,1.32075,1.96548,1.96612,-0.97698,2.31322,3.06551,-1.10949,2.59455,2.27833,2.27833,A,133814.80
3.08797,57.68787806,11.98138544,57.68787917,11.98138433,17:20:23.908453,0.00695,1.48554,1.48554,-0.03170,0.00016,0.00482,0.03933,-0.01263,-0.00860,0.00043,0.91012,3.08200,1.35371,2.01268,2.01272,-1.04370,2.47130,3.06551,-1.10949,2.59455,2.27833,2.27833,A,133814.80
3.09452,57.68787806,11.98138544,57.68787917,11.98138433,17:20:23.914998,0.00297,1.48554,1.48554,-0.03149,0.00016,0.00482,0.02299,-0.01110,0.04526,0.00073,0.95331,3.09079,1.35371,2.01268,2.01272,-1.04370,2.47130,3.06551,-1.10949,2.59455,2.27833,2.27833,A,133814.80
3.10516,57.68787806,11.98138544,57.68787917,11.98138433,17:20:23.925640,0.00321,1.48554,1.48554,-0.03135,0.00016,0.01139,0.00512,-0.00713,0.07204,-0.00860,0.95739,3.10142,1.35371,2.01268,2.01272,-1.04370,2.47130,3.06551,-1.10949,2.59455,2.27833,2.27833,A,133814.80
3.11555,57.68787806,11.98138544,57.68787917,11.98138433,17:20:23.936049,0.00321,1.48554,1.48554,-0.03054,0.00016,0.01139,-0.01794,-0.00576,0.00195,0.03745,1.04298,3.11155,1.35371,2.01268,2.01272,-1.04370,2.47130,3.06551,-1.10949,2.59455,2.27833,2.27833,A,133814.80
3.12630,57.68787806,11.98138544,57.68787917,11.98138433,17:20:23.946784,0.00357,1.48554,1.48554,-0.02996,0.00016,0.01292,-0.01732,-0.00759,-0.02428,0.02178,1.10392,3.12257,1.35371,2.01268,2.01272,-1.04370,2.47130,3.06551,-1.10949,2.59455,2.27833,2.27833,A,133814.80
3.13629,57.68787806,11.98138544,57.68787917,11.98138433,17:20:23.956769,0.00316,1.38743,1.38743,-0.02997,0.00016,0.02177,-0.01183,-0.00484,-0.03886,-0.02684,1.12594,3.13254,1.35371,2.01268,2.01272,-1.04370,2.47130,3.06551,-1.10949,2.59455,2.27833,2.27833,A,133814.80
3.14667,57.68787806,11.98138544,57.68787917,11.98138433,17:20:23.967152,0.00298,1.38743,1.38743,-0.02965,0.00016,0.02315,-0.00633,-0.00835,0.01903,-0.00329,1.07933,3.14293,1.35371,2.01268,2.01272,-1.04370,2.47130,3.06551,-1.10949,2.59455,2.27833,2.27833,A,133814.80
3.15722,57.68787806,11.98138544,57.68787917,11.98138433,17:20:23.977695,0.00314,1.38743,1.38743,-0.02958,0.00016,0.01689,-0.01534,-0.00392,-0.00622,-0.01653,1.05682,3.15349,1.35371,2.01268,2.01272,-1.04370,2.47130,3.06551,-1.10949,2.59455,2.27833,2.27833,A,133814.80
3.18443,57.68787806,11.98138544,57.68788033,11.98138350,17:20:24.005327,0.01995,1.38743,1.38743,-0.02952,0.00016,0.01719,-0.01122,-0.00331,-0.02922,-0.01610,0.98210,3.16368,1.35371,2.01268,2.01272,-1.04370,2.47130,3.17888,-1.15903,2.72428,1.93552,1.93552,A,133814.90
3.20541,57.68787938,11.98138427,57.68788033,11.98138350,17:20:24.025905,0.00789,1.38743,1.38743,-0.02908,0.00016,0.02819,-0.01015,0.00371,0.00994,-0.04142,0.91293,3.19943,1.36046,2.00111,2.00116,-1.11307,2.61838,3.17888,-1.15903,2.72428,1.93552,1.93552,A,133814.90
3.21077,57.68787938,11.98138427,57.68788033,11.98138350,17:20:24.031251,0.00300,1.38743,1.38743,-0.02925,0.00016,0.02575,-0.01671,0.00615,-0.05307,-0.03080,0.97295,3.20704,1.36046,2.00111,2.00116,-1.11307,2.61838,3.17888,-1.15903,2.72428,1.93552,1.93552,A,133814.90
3.22130,57.68787938,11.98138427,57.68788033,11.98138350,17:20:24.041780,0.00312,1.38743,1.38743,-0.02904,0.00016,0.02865,-0.02145,0.00570,0.01897,-0.01434,1.02742,3.21758,1.36046,2.00111,2.00116,-1.11307,2.61838,3.17888,-1.15903,2.72428,1.93552,1.93552,A,133814.90
3.23354,57.68787938,11.98138427,57.68788033,11.98138350,17:20:24.054064,0.00497,1.38743,1.38743,-0.02878,0.00016,0.02911,-0.02191,0.00142,-0.05014,-0.01470,1.11063,3.22937,1.36046,2.00111,2.00116,-1.11307,2.61838,3.17888,-1.15903,2.72428,1.93552,1.93552,A,133814.90
3.24226,57.68787938,11.98138427,57.68788033,11.98138350,17:20:24.062738,0.00315,1.38743,1.38743,-0.02881,0.00016,0.02666,-0.01870,-0.00041,-0.05539,-0.02879,1.11191,3.23853,1.36046,2.00111,2.00116,-1.11307,2.61838,3.17888,-1.15903,2.72428,1.93552,1.93552,A,133814.90
3.25253,57.68787938,11.98138427,57.68788033,11.98138350,17:20:24.073014,0.00303,1.38743,1.38743,-0.02904,0.00016,0.03491,-0.01290,-0.00484,-0.03477,-0.04959,1.06140,3.24880,1.36046,2.00111,2.00116,-1.11307,2.61838,3.17888,-1.15903,2.72428,1.93552,1.93552,A,133814.90
3.26273,57.68787938,11.98138427,57.68788033,11.98138350,17:20:24.083209,0.00297,1.38743,1.38743,-0.02960,0.00016,0.02513,-0.01442,-0.00530,-0.05246,-0.06381,1.02151,3.25900,1.36046,2.00111,2.00116,-1.11307,2.61838,3.17888,-1.15903,2.72428,1.93552,1.93552,A,133814.90
3.27329,57.68787938,11.98138427,57.68788033,11.98138350,17:20:24.093767,0.00315,1.38743,1.38743,-0.03005,0.00016,0.02177,-0.01427,-0.00896,-0.05002,-0.05331,1.00382,3.26955,1.36046,2.00111,2.00116,-1.11307,2.61838,3.17888,-1.15903,2.72428,1.93552,1.93552,A,133814.90
3.30120,57.68787938,11.98138427,57.68788133,11.98138217,17:20:24.121709,0.02067,1.38743,1.38743,-0.03019,0.00016,0.01704,-0.01870,-0.01049,0.00518,-0.02898,0.97673,3.27974,1.36046,2.00111,2.00116,-1.11307,2.61838,3.29497,-1.23828,2.83547,2.19000,2.19000,A,133815.00
3.31799,57.68788065,11.98138316,57.68788133,11.98138217,17:20:24.138483,0.00622,1.38743,1.38743,-0.02875,0.00016,0.02834,-0.02924,0.00142,-0.05667,0.02501,0.95392,3.31227,1.36585,2.02946,2.02951,-1.17906,2.75934,3.29497,-1.23828,2.83547,2.19000,2.19000,A,133815.00
3.32533,57.68788065,11.98138316,57.68788133,11.98138217,17:20:24.145813,0.00317,1.38743,1.38743,-0.02836,0.00016,0.02865,-0.02618,0.00249,-0.10486,0.00085,0.97106,3.32160,1.36585,2.02946,2.02951,-1.17906,2.75934,3.29497,-1.23828,2.83547,2.19000,2.19000,A,133815.00
3.33561,57.68788065,11.98138316,57.68788133,11.98138217,17:20:24.156103,0.00321,1.38743,1.38743,-0.02825,0.00016,0.02697,-0.02023,0.00173,-0.05972,-0.01793,0.98997,3.33165,1.36585,2.02946,2.02951,-1.17906,2.75934,3.29497,-1.23828,2.83547,2.19000,2.19000,A,133815.00
3.34597,57.68788065,11.98138316,57.68788133,11.98138217,17:20:24.166450,0.00317,1.38743,1.38743,-0.02849,0.00016,0.02911,-0.01244,0.00096,-0.00030,-0.04337,1.00028,3.34224,1.36585,2.02946,2.02951,-1.17906,2.75934,3.29497,-1.23828,2.83547,2.19000,2.19000,A,133815.00
3.35637,57.68788065,11.98138316,57.68788133,11.98138217,17:20:24.176846,0.00317,1.38743,1.38743,-0.02843,0.00016,0.02300,-0.02496,-0.00194,-0.02220,-0.01970,1.01949,3.35261,1.36585,2.02946,2.02951,-1.17906,2.75934,3.29497,-1.23828,2.83547,2.19000,2.19000,A,133815.00
3.36685,57.68788065,11.98138316,57.68788133,11.98138217,17:20:24.187322,0.00313,1.38743,1.38743,-0.02805,0.00016,0.02758,-0.02404,-0.00240,-0.05270,-0.00049,1.01132,3.36310,1.36585,2.02946,2.02951,-1.17906,2.75934,3.29497,-1.23828,2.83547,2.19000,2.19000,A,133815.00
3.37727,57.68788065,11.98138316,57.68788133,11.98138217,17:20:24.197753,0.00316,1.38743,1.38743,-0.02731,0.00016,0.01811,-0.02908,-0.00347,-0.04654,0.03062,1.02895,3.37355,1.36585,2.02946,2.02951,-1.17906,2.75934,3.29497,-1.23828,2.83547,2.19000,2.19000,A,133815.00
3.38767,57.68788065,11.98138316,57.68788133,11.98138217,17:20:24.208156,0.00316,1.38743,1.38743,-0.02632,0.00016,0.02025,-0.03504,-0.00392,-0.03172,0.04673,1.01425,3.38372,1.36585,2.02946,2.02951,-1.17906,2.75934,3.29497,-1.23828,2.83547,2.19000,2.19000,A,133815.00
3.41593,57.68788065,11.98138316,57.68788250,11.98138100,17:20:24.236438,0.02102,1.38743,1.38743,-0.02539,0.00016,0.02727,-0.04634,-0.00240,-0.08168,0.03880,1.01687,3.39434,1.36585,2.02946,2.02951,-1.17906,2.75934,3.40963,-1.30762,2.96520,2.06169,2.06169,A,133815.10
3.43163,57.68788190,11.98138199,57.68788250,11.98138100,17:20:24.252129,0.00773,1.38743,1.38743,-0.02507,0.00016,0.03537,-0.02389,-0.01660,-0.01562,-0.05161,0.96508,3.42466,1.37017,2.03431,2.03435,-1.24902,2.89828,3.40963,-1.30762,2.96520,2.06169,2.06169,A,133815.10
3.43747,57.68788190,11.98138199,57.68788250,11.98138100,17:20:24.257954,0.00318,1.38743,1.38743,-0.02581,0.00016,0.03201,-0.02786,-0.01568,-0.03532,-0.06893,0.94776,3.43373,1.37017,2.03431,2.03435,-1.24902,2.89828,3.40963,-1.30762,2.96520,2.06169,2.06169,A,133815.10
3.44784,57.68788190,11.98138199,57.68788250,11.98138100,17:20:24.268326,0.00315,1.38743,1.38743,-0.02544,0.00016,0.03216,-0.02282,-0.01477,0.01366,-0.00159,0.95965,3.44390,1.37017,2.03431,2.03435,-1.24902,2.89828,3.40963,-1.30762,2.96520,2.06169,2.06169,A,133815.10
3.45822,57.68788190,11.98138199,57.68788250,11.98138100,17:20:24.278712,0.00314,1.38743,1.38743,-0.02490,0.00016,0.03766,-0.02618,-0.01278,-0.01257,0.00549,0.98021,3.45449,1.37017,2.03431,2.03435,-1.24902,2.89828,3.40963,-1.30762,2.96520,2.06169,2.06169,A,133815.10
3.46853,57.68788190,11.98138199,57.68788250,11.98138100,17:20:24.289022,0.00305,1.38743,1.38743,-0.02428,0.00016,0.04193,-0.02817,-0.00728,-0.02470,0.00915,1.00321,3.46479,1.37017,2.03431,2.03435,-1.24902,2.89828,3.40963,-1.30762,2.96520,2.06169,2.06169,A,133815.10
3.47873,57.68788190,11.98138199,57.68788250,11.98138100,17:20:24.299218,0.00297,1.38743,1.38743,-0.02311,0.00016,0.04239,-0.02786,-0.00255,-0.01897,0.04776,1.02462,3.47501,1.37017,2.03431,2.03435,-1.24902,2.89828,3.40963,-1.30762,2.96520,2.06169,2.06169,A,133815.10
3.48930,57.68788190,11.98138199,57.68788250,11.98138100,17:20:24.309783,0.00315,1.38743,1.38743,-0.02197,0.00016,0.04590,-0.03321,0.00066,-0.06533,0.04441,1.05304,3.48556,1.37017,2.03431,2.03435,-1.24902,2.89828,3.40963,-1.30762,2.96520,2.06169,2.06169,A,133815.10
3.49991,57.68788190,11.98138199,57.68788250,11.98138100,17:20:24.320410,0.00337,1.38743,1.38743,-0.02102,0.00016,0.05385,-0.02481,-0.00209,-0.05039,0.02782,1.07220,3.49576,1.37017,2.03431,2.03435,-1.24902,2.89828,3.40963,-1.30762,2.96520,2.06169,2.06169,A,133815.10
3.52692,57.68788190,11.98138199,57.68788383,11.98138017,17:20:24.347421,0.01999,1.38743,1.38743,-0.02048,0.00016,0.05675,-0.00999,-0.01049,-0.04099,-0.00427,1.11020,3.50651,1.37017,2.03431,2.03435,-1.24902,2.89828,3.52179,-1.35715,3.11346,1.89322,1.89322,A,133815.20
3.54357,57.68788315,11.98138082,57.68788383,11.98138017,17:20:24.364073,0.00731,1.38743,1.38743,-0.01960,-0.00021,0.04117,-0.02389,-0.02424,0.00897,-0.02184,0.87663,3.53763,1.37362,2.01317,2.01311,-1.31855,3.03732,3.52179,-1.35715,3.11346,1.89322,1.89322,A,133815.20
3.54984,57.68788315,11.98138082,57.68788383,11.98138017,17:20:24.370320,0.00318,1.38743,1.38743,-0.01936,-0.00069,0.04407,-0.03428,-0.02943,0.00439,-0.00622,0.86217,3.54610,1.37362,2.01317,2.01311,-1.31855,3.03732,3.52179,-1.35715,3.11346,1.89322,1.89322,A,133815.20
3.56023,57.68788315,11.98138082,57.68788383,11.98138017,17:20:24.380713,0.00317,1.38743,1.38743,-0.01876,-0.00151,0.04224,-0.04420,-0.03080,0.01946,0.01043,0.84192,3.55648,1.37362,2.01317,2.01311,-1.31855,3.03732,3.52179,-1.35715,3.11346,1.89322,1.89322,A,133815.20
3.57057,57.68788315,11.98138082,57.68788383,11.98138017,17:20:24.391062,0.00297,1.38743,1.38743,-0.01828,-0.00267,0.04529,-0.05306,-0.03187,-0.10211,0.00335,0.95026,3.56685,1.37362,2.01317,2.01311,-1.31855,3.03732,3.52179,-1.35715,3.11346,1.89322,1.89322,A,133815.20
3.58115,57.68788315,11.98138082,57.68788383,11.98138017,17:20:24.401627,0.00315,1.38743,1.38743,-0.01729,-0.00403,0.04881,-0.03809,-0.02531,-0.06612,0.03508,1.03755,3.57742,1.37362,2.01317,2.01311,-1.31855,3.03732,3.52179,-1.35715,3.11346,1.89322,1.89322,A,133815.20
3.59291,57.68788315,11.98138082,57.68788383,11.98138017,17:20:24.413392,0.00451,1.38743,1.38743,-0.01706,-0.00547,0.05064,-0.02145,-0.02057,-0.00128,-0.02330,1.14046,3.58910,1.37362,2.01317,2.01311,-1.31855,3.03732,3.52179,-1.35715,3.11346,1.89322,1.89322,A,133815.20
3.60195,57.68788315,11.98138082,57.68788383,11.98138017,17:20:24.422436,0.00316,1.56768,1.56768,-0.01738,-0.00714,0.04942,-0.01061,-0.01889,-0.02672,-0.05636,1.16406,3.59822,1.37362,2.01317,2.01311,-1.31855,3.03732,3.52179,-1.35715,3.11346,1.89322,1.89322,A,133815.20
3.61235,57.68788315,11.98138082,57.68788383,11.98138017,17:20:24.432832,0.00317,1.56768,1.56768,-0.01698,-0.00890,0.04789,-0.00480,-0.01797,-0.04837,-0.00396,1.13143,3.60860,1.37362,2.01317,2.01311,-1.31855,3.03732,3.52179,-1.35715,3.11346,1.89322,1.89322,A,133815.20
3.65078,57.68788315,11.98138082,57.68788583,11.98137817,17:20:24.471799,0.03106,1.56768,1.56768,-0.01614,-0.01085,0.04254,-0.00725,-0.01981,-0.02233,0.03038,1.05018,3.61895,1.37362,2.01317,2.01311,-1.31855,3.03732,3.64550,-1.47602,3.33585,2.06169,2.06169,A,133815.40
3.66891,57.68788459,11.98137952,57.68788583,11.98137817,17:20:24.489410,0.00774,1.56768,1.56768,-0.01517,-0.01835,0.03155,-0.04497,-0.04775,-0.07320,-0.02440,0.94068,3.66288,1.41243,2.02124,2.01579,-1.39538,3.19784,3.64550,-1.47602,3.33585,2.06169,2.06169,A,133815.40
3.67474,57.68788459,11.98137952,57.68788583,11.98137817,17:20:24.495228,0.00300,1.56768,1.56768,-0.01569,-0.01957,0.03033,-0.03260,-0.05218,-0.08546,-0.04856,0.99009,3.67102,1.41243,2.02124,2.01579,-1.39538,3.19784,3.64550,-1.47602,3.33585,2.06169,2.06169,A,133815.40
3.68528,57.68788459,11.98137952,57.68788583,11.98137817,17:20:24.505761,0.00314,1.56768,1.56768,-0.01584,-0.02075,0.02590,-0.00526,-0.05615,-0.11572,-0.02873,1.08482,3.68156,1.41243,2.02124,2.01579,-1.39538,3.19784,3.64550,-1.47602,3.33585,2.06169,2.06169,A,133815.40
3.69570,57.68788459,11.98137952,57.68788583,11.98137817,17:20:24.516187,0.00316,1.56768,1.56768,-0.01556,-0.02172,0.02071,0.01887,-0.05707,-0.03569,0.00573,1.08074,3.69175,1.41243,2.02124,2.01579,-1.39538,3.19784,3.64550,-1.47602,3.33585,2.06169,2.06169,A,133815.40
3.70609,57.68788459,11.98137952,57.68788583,11.98137817,17:20:24.526574,0.00316,1.56768,1.56768,-0.01506,-0.02259,0.02040,0.02528,-0.05310,-0.00543,0.02220,1.09239,3.70236,1.41243,2.02124,2.01579,-1.39538,3.19784,3.64550,-1.47602,3.33585,2.06169,2.06169,A,133815.40
3.71653,57.68788459,11.98137952,57.68788583,11.98137817,17:20:24.537016,0.00320,1.56768,1.56768,-0.01404,-0.02350,0.02315,0.00604,-0.05295,0.09601,0.05539,1.03840,3.71279,1.41243,2.02124,2.01579,-1.39538,3.19784,3.64550,-1.47602,3.33585,2.06169,2.06169,A,133815.40
3.72669,57.68788459,11.98137952,57.68788583,11.98137817,17:20:24.547175,0.00297,1.56768,1.56768,-0.01329,-0.02463,0.02132,-0.01992,-0.04653,0.06130,0.03739,1.00028,3.72296,1.41243,2.02124,2.01579,-1.39538,3.19784,3.64550,-1.47602,3.33585,2.06169,2.06169,A,133815.40
3.73724,57.68788459,11.98137952,57.68788583,11.98137817,17:20:24.557721,0.00312,1.56768,1.56768,-0.01279,-0.02593,0.03262,-0.04206,-0.04394,0.01269,0.01147,0.92037,3.73352,1.41243,2.02124,2.01579,-1.39538,3.19784,3.64550,-1.47602,3.33585,2.06169,2.06169,A,133815.40
3.76535,57.68788459,11.98137952,57.68788717,11.98137717,17:20:24.585888,0.02084,1.56768,1.56768,-0.01244,-0.02729,0.02788,-0.05947,-0.04333,-0.03068,0.00573,0.91799,3.74372,1.41243,2.02124,2.01579,-1.39538,3.19784,3.75894,-1.53546,3.48411,1.95208,1.95208,A,133815.50
3.77916,57.68788590,11.98137835,57.68788717,11.98137717,17:20:24.599897,0.00691,1.56768,1.56768,-0.01246,-0.03024,0.01979,-0.03779,-0.04791,-0.05618,-0.03593,0.95447,3.77343,1.44348,2.01003,2.00105,-1.46502,3.34348,3.75894,-1.53546,3.48411,1.95208,1.95208,A,133815.50
3.78580,57.68788590,11.98137835,57.68788717,11.98137717,17:20:24.606285,0.00315,1.56768,1.56768,-0.01241,-0.03075,0.01765,-0.02572,-0.04760,-0.02617,-0.00525,0.93702,3.78208,1.44348,2.01003,2.00105,-1.46502,3.34348,3.75894,-1.53546,3.48411,1.95208,1.95208,A,133815.50
3.79621,57.68788590,11.98137835,57.68788717,11.98137717,17:20:24.616699,0.00317,1.56768,1.56768,-0.01210,-0.03097,0.00574,-0.03107,-0.04684,-0.00159,0.01616,0.89005,3.79247,1.44348,2.01003,2.00105,-1.46502,3.34348,3.75894,-1.53546,3.48411,1.95208,1.95208,A,133815.50
3.80655,57.68788590,11.98137835,57.68788717,11.98137717,17:20:24.627031,0.00297,1.56768,1.56768,-0.01163,-0.03100,0.01307,-0.04481,-0.04592,0.03257,0.02098,0.89042,3.80282,1.44348,2.01003,2.00105,-1.46502,3.34348,3.75894,-1.53546,3.48411,1.95208,1.95208,A,133815.50
3.81713,57.68788590,11.98137835,57.68788717,11.98137717,17:20:24.637615,0.00316,1.56768,1.56768,-0.01102,-0.03100,0.01338,-0.06161,-0.04913,0.00415,0.03215,0.93720,3.81341,1.44348,2.01003,2.00105,-1.46502,3.34348,3.75894,-1.53546,3.48411,1.95208,1.95208,A,133815.50
3.82834,57.68788590,11.98137835,57.68788717,11.98137717,17:20:24.649010,0.00397,1.56768,1.56768,-0.01034,-0.03100,0.01200,-0.06268,-0.05356,-0.04807,0.04465,1.10422,3.82459,1.44348,2.01003,2.00105,-1.46502,3.34348,3.75894,-1.53546,3.48411,1.95208,1.95208,A,133815.50
3.83808,57.68788590,11.98137835,57.68788717,11.98137717,17:20:24.658563,0.00331,1.56768,1.56768,-0.01000,-0.03100,0.00421,-0.03641,-0.05600,-0.06747,0.02946,1.19603,3.83434,1.44348,2.01003,2.00105,-1.46502,3.34348,3.75894,-1.53546,3.48411,1.95208,1.95208,A,133815.50
3.84838,57.68788590,11.98137835,57.68788717,11.98137717,17:20:24.668871,0.00316,1.56768,1.56768,-0.01035,-0.03100,-0.00327,-0.01717,-0.06425,-0.05197,-0.01806,1.18700,3.84464,1.44348,2.01003,2.00105,-1.46502,3.34348,3.75894,-1.53546,3.48411,1.95208,1.95208,A,133815.50
3.85868,57.68788590,11.98137835,57.68788717,11.98137717,17:20:24.679164,0.00297,1.56768,1.56768,-0.01092,-0.03100,-0.00755,0.00512,-0.06226,0.00342,-0.03233,1.13600,3.85495,1.44348,2.01003,2.00105,-1.46502,3.34348,3.75894,-1.53546,3.48411,1.95208,1.95208,A,133815.50
3.88593,57.68788590,11.98137835,57.68788817,11.98137617,17:20:24.706479,0.02000,1.56768,1.56768,-0.01086,-0.03100,-0.02022,0.00100,-0.06012,-0.03672,0.02135,0.99155,3.86541,1.44348,2.01003,2.00105,-1.46502,3.34348,3.88071,-1.59490,3.59530,2.06169,2.06169,A,133815.60
3.89875,57.68788733,11.98137711,57.68788817,11.98137617,17:20:24.719248,0.00650,1.56768,1.56768,-0.01027,-0.03100,-0.01167,-0.02130,-0.05417,-0.06539,0.05405,0.87608,3.89159,1.46832,2.01518,2.00598,-1.53858,3.50222,3.88071,-1.59490,3.59530,2.06169,2.06169,A,133815.60
3.90581,57.68788733,11.98137711,57.68788817,11.98137617,17:20:24.726289,0.00317,1.56768,1.56768,-0.01104,-0.03103,-0.00465,-0.01641,-0.05524,0.02397,-0.04154,0.94306,3.90208,1.46832,2.01518,2.00598,-1.53858,3.50222,3.88071,-1.59490,3.59530,2.06169,2.06169,A,133815.60
3.91623,57.68788733,11.98137711,57.68788817,11.98137617,17:20:24.736719,0.00319,1.56768,1.56768,-0.01184,-0.03109,-0.01503,-0.01488,-0.06028,-0.00634,-0.04130,1.04347,3.91247,1.46832,2.01518,2.00598,-1.53858,3.50222,3.88071,-1.59490,3.59530,2.06169,2.06169,A,133815.60
3.92655,57.68788733,11.98137711,57.68788817,11.98137617,17:20:24.747029,0.00297,1.56768,1.56768,-0.01242,-0.03109,-0.02404,0.00146,-0.05921,-0.03062,-0.02092,1.08080,3.92283,1.46832,2.01518,2.00598,-1.53858,3.50222,3.88071,-1.59490,3.59530,2.06169,2.06169,A,133815.60
3.93714,57.68788733,11.98137711,57.68788817,11.98137617,17:20:24.757623,0.00316,1.56768,1.56768,-0.01214,-0.03109,-0.02740,0.00910,-0.05906,-0.10211,0.04483,1.10819,3.93341,1.46832,2.01518,2.00598,-1.53858,3.50222,3.88071,-1.59490,3.59530,2.06169,2.06169,A,133815.60
3.94723,57.68788733,11.98137711,57.68788817,11.98137617,17:20:24.767929,0.00302,1.56768,1.56768,-0.01177,-0.03109,-0.02236,0.01963,-0.05295,-0.06362,0.04362,1.04176,3.94350,1.46832,2.01518,2.00598,-1.53858,3.50222,3.88071,-1.59490,3.59530,2.06169,2.06169,A,133815.60
3.95780,57.68788733,11.98137711,57.68788817,11.98137617,17:20:24.778275,0.00319,1.56768,1.56768,-0.01196,-0.03109,-0.02633,0.02330,-0.05203,-0.03068,0.00860,1.01040,3.95407,1.46832,2.01518,2.00598,-1.53858,3.50222,3.88071,-1.59490,3.59530,2.06169,2.06169,A,133815.60
3.96836,57.68788733,11.98137711,57.68788817,11.98137617,17:20:24.788848,0.00335,1.56768,1.56768,-0.01237,-0.03109,-0.02114,0.01078,-0.05005,-0.01684,-0.01068,0.96667,3.96460,1.46832,2.01518,2.00598,-1.53858,3.50222,3.88071,-1.59490,3.59530,2.06169,2.06169,A,133815.60
3.97861,57.68788733,11.98137711,57.68788817,11.98137617,17:20:24.799093,0.00300,1.56768,1.56768,-0.01245,-0.03109,-0.02541,-0.00053,-0.04745,-0.01708,0.01311,0.95398,3.97486,1.46832,2.01518,2.00598,-1.53858,3.50222,3.88071,-1.59490,3.59530,2.06169,2.06169,A,133815.60
4.00665,57.68788733,11.98137711,57.68788917,11.98137517,17:20:24.827152,0.02065,1.56768,1.56768,-0.01345,-0.03109,-0.02603,-0.00938,-0.04760,-0.06100,-0.04697,1.00699,3.98544,1.46832,2.01518,2.00598,-1.53858,3.50222,4.00070,-1.65434,3.70650,2.06169,2.06169,A,133815.70
4.02312,57.68788882,11.98137580,57.68788917,11.98137517,17:20:24.843854,0.00638,1.78583,1.78583,-0.01524,-0.03109,-0.04389,0.03460,-0.04638,0.00641,-0.02727,0.94812,4.01740,1.53182,2.01921,2.00998,-1.61645,3.66748,4.00070,-1.65434,3.70650,2.06169,2.06169,A,133815.70
4.03030,57.68788882,11.98137580,57.68788917,11.98137517,17:20:24.850781,0.00316,1.78583,1.78583,-0.01550,-0.03109,-0.04038,0.02635,-0.04607,0.04563,0.00323,0.93214,4.02656,1.53182,2.01921,2.00998,-1.61645,3.66748,4.00070,-1.65434,3.70650,2.06169,2.06169,A,133815.70
4.04238,57.68788882,11.98137580,57.68788917,11.98137517,17:20:24.862878,0.00421,1.78583,1.78583,-0.01487,-0.03109,-0.04160,0.00589,-0.03661,-0.02098,0.06637,0.92976,4.03861,1.53182,2.01921,2.00998,-1.61645,3.66748,4.00070,-1.65434,3.70650,2.06169,2.06169,A,133815.70
4.05250,57.68788882,11.98137580,57.68788917,11.98137517,17:20:24.872997,0.00393,1.78583,1.78583,-0.01451,-0.03109,-0.05015,0.00268,-0.04103,-0.03215,0.04990,0.92311,4.04870,1.53182,2.01921,2.00998,-1.61645,3.66748,4.00070,-1.65434,3.70650,2.06169,2.06169,A,133815.70
4.06219,57.68788882,11.98137580,57.68788917,11.98137517,17:20:24.882669,0.00316,1.78583,1.78583,-0.01470,-0.03109,-0.04420,0.00299,-0.03920,-0.05862,0.01342,1.00199,4.05845,1.53182,2.01921,2.00998,-1.61645,3.66748,4.00070,-1.65434,3.70650,2.06169,2.06169,A,133815.70
4.07328,57.68788882,11.98137580,57.68788917,11.98137517,17:20:24.893789,0.00385,1.78583,1.78583,-0.01534,-0.03109,-0.04909,0.02070,-0.04042,-0.07668,-0.00958,1.01595,4.06949,1.53182,2.01921,2.00998,-1.61645,3.66748,4.00070,-1.65434,3.70650,2.06169,2.06169,A,133815.70
4.08271,57.68788882,11.98137580,57.68788917,11.98137517,17:20:24.903190,0.00299,1.78583,1.78583,-0.01528,-0.03109,-0.05290,0.03460,-0.05005,0.00897,0.03569,1.04652,4.07897,1.53182,2.01921,2.00998,-1.61645,3.66748,4.00070,-1.65434,3.70650,2.06169,2.06169,A,133815.70
4.09341,57.68788882,11.98137580,57.68788917,11.98137517,17:20:24.913891,0.00320,1.78583,1.78583,-0.01586,-0.03109,-0.05672,0.03109,-0.04348,-0.03983,-0.00146,1.02218,4.08967,1.53182,2.01921,2.00998,-1.61645,3.66748,4.00070,-1.65434,3.70650,2.06169,2.06169,A,133815.70
4.12149,57.68788882,11.98137580,57.68789050,11.98137417,17:20:24.941988,0.02088,1.78583,1.78583,-0.01647,-0.03109,-0.05290,0.03154,-0.04760,-0.04075,-0.00885,1.06823,4.09982,1.53182,2.01921,2.00998,-1.61645,3.66748,4.11536,-1.71377,3.85476,1.95208,1.95208,A,133815.80
4.13519,57.68789021,11.98137457,57.68789050,11.98137417,17:20:24.955938,0.00628,1.78583,1.78583,-0.01839,-0.03109,-0.04206,0.01520,-0.04042,0.07533,-0.04929,0.97149,4.12948,1.58262,2.00645,1.99722,-1.68954,3.82207,4.11536,-1.71377,3.85476,1.95208,1.95208,A,133815.80
4.14274,57.68789021,11.98137457,57.68789050,11.98137417,17:20:24.963224,0.00314,1.78583,1.78583,-0.01944,-0.03097,-0.04420,0.00604,-0.03813,0.02409,-0.04514,0.92360,4.13900,1.58262,2.00645,1.99722,-1.68954,3.82207,4.11536,-1.71377,3.85476,1.95208,1.95208,A,133815.80
4.15313,57.68789021,11.98137457,57.68789050,11.98137417,17:20:24.973609,0.00314,1.78583,1.78583,-0.02047,-0.03072,-0.03885,-0.01122,-0.02698,-0.02239,-0.04666,0.93391,4.14939,1.58262,2.00645,1.99722,-1.68954,3.82207,4.11536,-1.71377,3.85476,1.95208,1.95208,A,133815.80
4.16367,57.68789021,11.98137457,57.68789050,11.98137417,17:20:24.984176,0.00329,1.78583,1.78583,-0.02194,-0.03024,-0.04405,0.00299,-0.02118,-0.13804,-0.07222,0.94276,4.15959,1.58262,2.00645,1.99722,-1.68954,3.82207,4.11536,-1.71377,3.85476,1.95208,1.95208,A,133815.80
4.17395,57.68789021,11.98137457,57.68789050,11.98137417,17:20:24.994441,0.00317,1.78583,1.78583,-0.02260,-0.02947,-0.03794,0.02223,-0.02118,-0.06740,-0.02702,0.99784,4.17022,1.58262,2.00645,1.99722,-1.68954,3.82207,4.11536,-1.71377,3.85476,1.95208,1.95208,A,133815.80
4.18434,57.68789021,11.98137457,57.68789050,11.98137417,17:20:25.004828,0.00317,1.78583,1.78583,-0.02380,-0.02857,-0.04298,0.02620,-0.01981,0.01013,-0.06149,1.02565,4.18059,1.58262,2.00645,1.99722,-1.68954,3.82207,4.11536,-1.71377,3.85476,1.95208,1.95208,A,133815.80
4.19469,57.68789021,11.98137457,57.68789050,11.98137417,17:20:25.015178,0.00298,1.78583,1.78583,-0.02404,-0.02760,-0.04924,0.02299,-0.01965,0.04002,0.00720,1.02944,4.19096,1.58262,2.00645,1.99722,-1.68954,3.82207,4.11536,-1.71377,3.85476,1.95208,1.95208,A,133815.80
4.20525,57.68789021,11.98137457,57.68789050,11.98137417,17:20:25.025737,0.00315,1.78583,1.78583,-0.02382,-0.02667,-0.04863,0.00054,-0.02546,0.07320,0.04032,1.04212,4.20152,1.58262,2.00645,1.99722,-1.68954,3.82207,4.11536,-1.71377,3.85476,1.95208,1.95208,A,133815.80
4.21565,57.68789021,11.98137457,57.68789050,11.98137417,17:20:25.036155,0.00315,1.78583,1.78583,-0.02374,-0.02582,-0.05443,-0.02175,-0.02760,0.00823,0.03318,1.03316,4.21172,1.58262,2.00645,1.99722,-1.68954,3.82207,4.11536,-1.71377,3.85476,1.95208,1.95208,A,133815.80
4.25561,57.68789021,11.98137457,57.68789367,11.98137167,17:20:25.076119,0.03272,1.78583,1.78583,-0.02361,-0.02492,-0.05122,-0.02557,-0.03141,-0.10712,0.03678,1.05884,4.22235,1.58262,2.00645,1.99722,-1.68954,3.82207,4.25040,-1.86237,4.20687,1.97012,1.97012,A,133816.00
4.27506,57.68789207,11.98137299,57.68789367,11.98137167,17:20:25.095795,0.00905,1.78583,1.78583,-0.02497,-0.01999,-0.04664,0.00344,-0.01064,-0.10285,0.04002,0.92909,4.26885,1.62327,1.99664,1.99070,-1.78372,4.02960,4.25040,-1.86237,4.20687,1.97012,1.97012,A,133816.00
4.27920,57.68789207,11.98137299,57.68789367,11.98137167,17:20:25.099906,0.00289,1.78583,1.78583,-0.02541,-0.01889,-0.04267,0.00711,-0.01263,-0.09473,-0.01903,0.96435,4.27547,1.62327,1.99664,1.99070,-1.78372,4.02960,4.25040,-1.86237,4.20687,1.97012,1.97012,A,133816.00
4.29183,57.68789207,11.98137299,57.68789367,11.98137167,17:20:25.112336,0.00512,1.78583,1.78583,-0.02521,-0.01750,-0.04725,0.02131,-0.00774,-0.08693,0.04240,1.00028,4.28788,1.62327,1.99664,1.99070,-1.78372,4.02960,4.25040,-1.86237,4.20687,1.97012,1.97012,A,133816.00
4.30027,57.68789207,11.98137299,57.68789367,11.98137167,17:20:25.120754,0.00317,1.78583,1.78583,-0.02472,-0.01665,-0.04420,0.01826,-0.00728,-0.04386,0.05222,1.05499,4.29653,1.62327,1.99664,1.99070,-1.78372,4.02960,4.25040,-1.86237,4.20687,1.97012,1.97012,A,133816.00
4.31213,57.68789207,11.98137299,57.68789367,11.98137167,17:20:25.132624,0.00323,1.78583,1.78583,-0.02460,-0.01566,-0.04771,0.01307,-0.01110,-0.02440,0.04209,1.12356,4.30838,1.62327,1.99664,1.99070,-1.78372,4.02960,4.25040,-1.86237,4.20687,1.97012,1.97012,A,133816.00
4.32244,57.68789207,11.98137299,57.68789367,11.98137167,17:20:25.142923,0.00297,1.78583,1.78583,-0.02476,-0.01481,-0.04221,0.01123,-0.00896,-0.02873,0.01177,1.10154,4.31871,1.62327,1.99664,1.99070,-1.78372,4.02960,4.25040,-1.86237,4.20687,1.97012,1.97012,A,133816.00
4.33324,57.68789207,11.98137299,57.68789367,11.98137167,17:20:25.153722,0.00337,1.78583,1.78583,-0.02482,-0.01388,-0.04634,0.01597,-0.01202,-0.09656,0.02214,1.07445,4.32933,1.62327,1.99664,1.99070,-1.78372,4.02960,4.25040,-1.86237,4.20687,1.97012,1.97012,A,133816.00
4.34360,57.68789207,11.98137299,57.68789367,11.98137167,17:20:25.164094,0.00350,1.78583,1.78583,-0.02596,-0.01266,-0.03458,0.02162,-0.00698,-0.09217,-0.05978,1.00418,4.33966,1.62327,1.99664,1.99070,-1.78372,4.02960,4.25040,-1.86237,4.20687,1.97012,1.97012,A,133816.00
4.37224,57.68789207,11.98137299,57.68789467,11.98137050,17:20:25.192760,0.02175,1.78583,1.78583,-0.02686,-0.01125,-0.04160,0.01368,-0.00408,-0.00061,-0.03758,0.92915,4.34995,1.62327,1.99664,1.99070,-1.78372,4.02960,4.36550,-1.93171,4.31807,2.12840,2.12840,A,133816.10
4.38791,57.68789361,11.98137169,57.68789467,11.98137050,17:20:25.208412,0.00709,1.78583,1.78583,-0.02757,-0.00649,-0.02908,-0.00007,0.00631,-0.10480,0.00561,0.95715,4.38193,1.65578,2.01390,2.01197,-1.86081,4.20010,4.36550,-1.93171,4.31807,2.12840,2.12840,A,133816.10
4.39436,57.68789361,11.98137169,57.68789467,11.98137050,17:20:25.214844,0.00314,1.78583,1.78583,-0.02841,-0.00522,-0.02099,0.01123,0.01150,-0.11370,-0.05264,1.02041,4.39064,1.65578,2.01390,2.01197,-1.86081,4.20010,4.36550,-1.93171,4.31807,2.12840,2.12840,A,133816.10
4.40479,57.68789361,11.98137169,57.68789467,11.98137050,17:20:25.225273,0.00317,1.78583,1.78583,-0.02897,-0.00411,-0.02129,0.03582,0.00951,-0.04325,-0.03428,1.09269,4.40106,1.65578,2.01390,2.01197,-1.86081,4.20010,4.36550,-1.93171,4.31807,2.12840,2.12840,A,133816.10
4.41484,57.68789361,11.98137169,57.68789467,11.98137050,17:20:25.235321,0.00299,1.78583,1.78583,-0.02949,-0.00315,-0.02496,0.03674,0.01180,-0.02678,-0.03032,1.12094,4.41111,1.65578,2.01390,2.01197,-1.86081,4.20010,4.36550,-1.93171,4.31807,2.12840,2.12840,A,133816.10
4.42539,57.68789361,11.98137169,57.68789467,11.98137050,17:20:25.245876,0.00314,1.78583,1.78583,-0.02916,-0.00222,-0.03030,0.04010,0.00692,0.03105,0.03806,1.12545,4.42166,1.65578,2.01390,2.01197,-1.86081,4.20010,4.36550,-1.93171,4.31807,2.12840,2.12840,A,133816.10
4.43576,57.68789361,11.98137169,57.68789467,11.98137050,17:20:25.256250,0.00319,1.78583,1.78583,-0.02827,-0.00134,-0.02328,0.02055,0.01150,0.00092,0.07186,1.08171,4.43180,1.65578,2.01390,2.01197,-1.86081,4.20010,4.36550,-1.93171,4.31807,2.12840,2.12840,A,133816.10
4.44695,57.68789361,11.98137169,57.68789467,11.98137050,17:20:25.267436,0.00398,1.78583,1.78583,-0.02761,-0.00032,-0.01885,-0.00129,0.01593,-0.04917,0.05228,1.01754,4.44319,1.65578,2.01390,2.01197,-1.86081,4.20010,4.36550,-1.93171,4.31807,2.12840,2.12840,A,133816.10
4.45652,57.68789361,11.98137169,57.68789467,11.98137050,17:20:25.277005,0.00316,1.78583,1.78583,-0.02685,0.00050,-0.01136,-0.01167,0.01257,-0.02477,0.04972,0.97325,4.45278,1.65578,2.01390,2.01197,-1.86081,4.20010,4.36550,-1.93171,4.31807,2.12840,2.12840,A,133816.10
4.48521,57.68789361,11.98137169,57.68789633,11.98136967,17:20:25.305859,0.02144,1.78583,1.78583,-0.02672,0.00135,-0.00632,-0.01778,0.01287,-0.05691,0.00720,0.91628,4.46302,1.65578,2.01390,2.01197,-1.86081,4.20010,4.47841,-1.98124,4.50339,1.83196,1.83196,A,133816.20
4.50116,57.68789517,11.98137033,57.68789633,11.98136967,17:20:25.321652,0.00765,1.51857,1.51857,-0.02721,0.00336,-0.00632,0.01230,0.01287,-0.07576,-0.02324,0.94703,4.49461,1.62834,1.98553,1.98652,-1.94164,4.37369,4.47841,-1.98124,4.50339,1.83196,1.83196,A,133816.20
4.50673,57.68789517,11.98137033,57.68789633,11.98136967,17:20:25.327212,0.00298,1.51857,1.51857,-0.02687,0.00376,-0.00938,0.02269,0.01944,-0.06405,0.02178,0.98137,4.50299,1.62834,1.98553,1.98652,-1.94164,4.37369,4.47841,-1.98124,4.50339,1.83196,1.83196,A,133816.20
4.51728,57.68789517,11.98137033,57.68789633,11.98136967,17:20:25.337767,0.00314,1.51857,1.51857,-0.02650,0.00407,-0.01091,0.02788,0.02311,-0.06930,0.02794,1.02004,4.51355,1.62834,1.98553,1.98652,-1.94164,4.37369,4.47841,-1.98124,4.50339,1.83196,1.83196,A,133816.20
4.52769,57.68789517,11.98137033,57.68789633,11.98136967,17:20:25.348187,0.00315,1.51857,1.51857,-0.02647,0.00412,-0.00006,0.02864,0.02005,0.00531,-0.00287,1.02266,4.52375,1.62834,1.98553,1.98652,-1.94164,4.37369,4.47841,-1.98124,4.50339,1.83196,1.83196,A,133816.20
4.53808,57.68789517,11.98137033,57.68789633,11.98136967,17:20:25.358568,0.00314,1.51857,1.51857,-0.02636,0.00412,-0.00006,0.01612,0.02097,0.02879,0.00287,1.05255,4.53435,1.62834,1.98553,1.98652,-1.94164,4.37369,4.47841,-1.98124,4.50339,1.83196,1.83196,A,133816.20
4.54849,57.68789517,11.98137033,57.68789633,11.98136967,17:20:25.368985,0.00316,1.51857,1.51857,-0.02673,0.00412,0.00528,-0.00236,0.01501,0.01989,-0.03379,1.04182,4.54476,1.62834,1.98553,1.98652,-1.94164,4.37369,4.47841,-1.98124,4.50339,1.83196,1.83196,A,133816.20
4.55877,57.68789517,11.98137033,57.68789633,11.98136967,17:20:25.379261,0.00299,1.51857,1.51857,-0.02764,0.00412,0.00482,-0.01626,0.01318,-0.02769,-0.07052,1.02346,4.55503,1.62834,1.98553,1.98652,-1.94164,4.37369,4.47841,-1.98124,4.50339,1.83196,1.83196,A,133816.20
4.56949,57.68789517,11.98137033,57.68789633,11.98136967,17:20:25.389985,0.00332,1.51857,1.51857,-0.02849,0.00412,0.00513,-0.00984,0.00295,-0.03190,-0.06600,0.99070,4.56576,1.62834,1.98553,1.98652,-1.94164,4.37369,4.47841,-1.98124,4.50339,1.83196,1.83196,A,133816.20
4.59730,57.68789517,11.98137033,57.68789783,11.98136917,17:20:25.417823,0.02074,1.51857,1.51857,-0.02963,0.00412,0.00284,-0.00663,0.00264,-0.00811,-0.08113,0.95837,4.57578,1.62834,1.98553,1.98652,-1.94164,4.37369,4.59101,-2.01096,4.67019,1.74712,1.74712,A,133816.30
4.61085,57.68789667,11.98136914,57.68789783,11.98136917,17:20:25.431340,0.00621,1.51857,1.51857,-0.02977,0.00412,0.01063,0.00176,0.01150,-0.05783,-0.03587,0.95392,4.60516,1.60638,1.95004,1.95127,-2.01252,4.54123,4.59101,-2.01096,4.67019,1.74712,1.74712,A,133816.30
4.61819,57.68789667,11.98136914,57.68789783,11.98136917,17:20:25.438678,0.00315,1.51857,1.51857,-0.02953,0.00412,0.00879,0.00680,0.01242,-0.02409,0.00281,0.96740,4.61446,1.60638,1.95004,1.95127,-2.01252,4.54123,4.59101,-2.01096,4.67019,1.74712,1.74712,A,133816.30
4.62853,57.68789667,11.98136914,57.68789783,11.98136917,17:20:25.449023,0.00310,1.51857,1.51857,-0.02948,0.00412,0.01215,0.01948,0.01532,-0.03611,-0.01342,1.04597,4.62479,1.60638,1.95004,1.95127,-2.01252,4.54123,4.59101,-2.01096,4.67019,1.74712,1.74712,A,133816.30
4.63868,57.68789667,11.98136914,57.68789783,11.98136917,17:20:25.459170,0.00296,1.51857,1.51857,-0.03001,0.00412,0.01826,0.01245,0.01058,0.05941,-0.05771,1.04950,4.63496,1.60638,1.95004,1.95127,-2.01252,4.54123,4.59101,-2.01096,4.67019,1.74712,1.74712,A,133816.30
4.64925,57.68789667,11.98136914,57.68789783,11.98136917,17:20:25.469737,0.00313,1.51857,1.51857,-0.02969,0.00412,0.01582,-0.00297,0.01303,0.10596,0.00256,1.03249,4.64552,1.60638,1.95004,1.95127,-2.01252,4.54123,4.59101,-2.01096,4.67019,1.74712,1.74712,A,133816.30
4.66048,57.68789667,11.98136914,57.68789783,11.98136917,17:20:25.480974,0.00397,1.51857,1.51857,-0.02942,0.00412,0.00330,-0.02725,0.00264,0.00287,0.00830,1.07360,4.65673,1.60638,1.95004,1.95127,-2.01252,4.54123,4.59101,-2.01096,4.67019,1.74712,1.74712,A,133816.30
4.67025,57.68789667,11.98136914,57.68789783,11.98136917,17:20:25.490739,0.00334,1.51857,1.51857,-0.02941,0.00412,0.00727,-0.02801,-0.00896,-0.02739,-0.01214,1.03395,4.66651,1.60638,1.95004,1.95127,-2.01252,4.54123,4.59101,-2.01096,4.67019,1.74712,1.74712,A,133816.30
4.68047,57.68789667,11.98136914,57.68789783,11.98136917,17:20:25.500960,0.00317,1.51857,1.51857,-0.02993,0.00412,0.00971,-0.03382,-0.01523,0.00415,-0.04782,0.97850,4.67674,1.60638,1.95004,1.95127,-2.01252,4.54123,4.59101,-2.01096,4.67019,1.74712,1.74712,A,133816.30
4.69070,57.68789667,11.98136914,57.68789783,11.98136917,17:20:25.511179,0.00298,1.51857,1.51857,-0.02972,0.00412,0.00192,-0.03168,-0.01584,0.00433,0.00433,0.92128,4.68697,1.60638,1.95004,1.95127,-2.01252,4.54123,4.59101,-2.01096,4.67019,1.74712,1.74712,A,133816.30
4.71895,57.68789667,11.98136914,57.68789900,11.98136817,17:20:25.539684,0.02084,1.51857,1.51857,-0.02982,0.00412,-0.00037,-0.03626,-0.01553,-0.04795,-0.01275,0.91402,4.69752,1.60638,1.95004,1.95127,-2.01252,4.54123,4.71276,-2.07040,4.79991,2.00042,2.00042,A,133816.40
4.73717,57.68789837,11.98136791,57.68789900,11.98136817,17:20:25.557843,0.00717,1.51857,1.51857,-0.02966,0.00412,0.01292,-0.00037,0.00951,-0.01745,-0.02647,1.00638,4.73115,1.58882,1.95805,1.95928,-2.08579,4.73012,4.71276,-2.07040,4.79991,2.00042,2.00042,A,133816.40
4.74372,57.68789837,11.98136791,57.68789900,11.98136817,17:20:25.564218,0.00333,1.51857,1.51857,-0.03017,0.00412,0.01796,0.00543,0.00585,0.02532,-0.05057,0.97948,4.73978,1.58882,1.95805,1.95928,-2.08579,4.73012,4.71276,-2.07040,4.79991,2.00042,2.00042,A,133816.40
4.75395,57.68789837,11.98136791,57.68789900,11.98136817,17:20:25.574427,0.00316,1.51857,1.51857,-0.03016,0.00412,0.01994,-0.00312,0.01089,0.06985,-0.02098,0.98521,4.75022,1.58882,1.95805,1.95928,-2.08579,4.73012,4.71276,-2.07040,4.79991,2.00042,2.00042,A,133816.40
4.76433,57.68789837,11.98136791,57.68789900,11.98136817,17:20:25.584823,0.00315,1.51857,1.51857,-0.03031,0.00412,0.01307,-0.02206,0.01058,0.02489,-0.02696,0.99582,4.76060,1.58882,1.95805,1.95928,-2.08579,4.73012,4.71276,-2.07040,4.79991,2.00042,2.00042,A,133816.40
4.77468,57.68789837,11.98136791,57.68789900,11.98136817,17:20:25.595163,0.00296,1.51857,1.51857,-0.03000,0.00412,0.00986,-0.02786,0.00341,0.03123,0.00573,1.02852,4.77096,1.58882,1.95805,1.95928,-2.08579,4.73012,4.71276,-2.07040,4.79991,2.00042,2.00042,A,133816.40
4.78527,57.68789837,11.98136791,57.68789900,11.98136817,17:20:25.605751,0.00315,1.51857,1.51857,-0.02999,0.00412,0.01215,-0.03550,0.00279,-0.07009,-0.01739,1.06006,4.78153,1.58882,1.95805,1.95928,-2.08579,4.73012,4.71276,-2.07040,4.79991,2.00042,2.00042,A,133816.40
4.79566,57.68789837,11.98136791,57.68789900,11.98136817,17:20:25.616163,0.00331,1.51857,1.51857,-0.02929,0.00412,-0.00067,-0.01962,-0.00392,-0.07662,0.04203,1.07220,4.79170,1.58882,1.95805,1.95928,-2.08579,4.73012,4.71276,-2.07040,4.79991,2.00042,2.00042,A,133816.40
4.80594,57.68789837,11.98136791,57.68789900,11.98136817,17:20:25.626429,0.00319,1.51857,1.51857,-0.02886,0.00412,0.00055,-0.00144,-0.00454,-0.07637,0.02196,1.05396,4.80221,1.58882,1.95805,1.95928,-2.08579,4.73012,4.71276,-2.07040,4.79991,2.00042,2.00042,A,133816.40
4.83351,57.68789837,11.98136791,57.68790033,11.98136767,17:20:25.654021,0.02037,1.51857,1.51857,-0.02852,0.00412,-0.00022,0.01307,0.00050,-0.05191,0.01604,0.99839,4.81255,1.58882,1.95805,1.95928,-2.08579,4.73012,4.82784,-2.10011,4.94817,1.76862,1.76862,A,133816.50
4.84949,57.68789986,11.98136684,57.68790033,11.98136767,17:20:25.669977,0.00783,1.51857,1.51857,-0.02796,0.00412,0.00223,-0.00358,0.00982,-0.04270,0.02367,0.89969,4.84352,1.57477,1.93002,1.93124,-2.14954,4.89504,4.82784,-2.10011,4.94817,1.76862,1.76862,A,133816.50
4.85487,57.68789986,11.98136684,57.68790033,11.98136767,17:20:25.675361,0.00298,1.51857,1.51857,-0.02748,0.00412,0.00024,-0.00969,0.00753,-0.07479,0.02470,0.96246,4.85115,1.57477,1.93002,1.93124,-2.14954,4.89504,4.82784,-2.10011,4.94817,1.76862,1.76862,A,133816.50
4.86543,57.68789986,11.98136684,57.68790033,11.98136767,17:20:25.685905,0.00314,1.51857,1.51857,-0.02708,0.00412,-0.00067,-0.00236,0.00234,-0.03337,0.02129,1.00626,4.86170,1.57477,1.93002,1.93124,-2.14954,4.89504,4.82784,-2.10011,4.94817,1.76862,1.76862,A,133816.50
4.87585,57.68789986,11.98136684,57.68790033,11.98136767,17:20:25.696341,0.00317,1.51857,1.51857,-0.02782,0.00412,-0.00037,-0.00327,-0.00560,-0.06015,-0.06051,1.11606,4.87190,1.57477,1.93002,1.93124,-2.14954,4.89504,4.82784,-2.10011,4.94817,1.76862,1.76862,A,133816.50
4.88623,57.68789986,11.98136684,57.68790033,11.98136767,17:20:25.706721,0.00316,1.51857,1.51857,-0.02910,0.00412,-0.00694,-0.00037,-0.01217,0.01921,-0.09248,1.06902,4.88250,1.57477,1.93002,1.93124,-2.14954,4.89504,4.82784,-2.10011,4.94817,1.76862,1.76862,A,133816.50
4.89653,57.68789986,11.98136684,57.68790033,11.98136767,17:20:25.717019,0.00306,1.51857,1.51857,-0.02960,0.00412,-0.01060,-0.00389,-0.01461,0.00000,-0.03483,1.02822,4.89280,1.57477,1.93002,1.93124,-2.14954,4.89504,4.82784,-2.10011,4.94817,1.76862,1.76862,A,133816.50
4.90670,57.68789986,11.98136684,57.68790033,11.98136767,17:20:25.727183,0.00297,1.51857,1.51857,-0.02989,0.00412,-0.00709,-0.00541,-0.01660,-0.04978,-0.02257,1.00839,4.90297,1.57477,1.93002,1.93124,-2.14954,4.89504,4.82784,-2.10011,4.94817,1.76862,1.76862,A,133816.50
4.91726,57.68789986,11.98136684,57.68790033,11.98136767,17:20:25.737742,0.00314,1.51857,1.51857,-0.02971,0.00412,-0.00938,-0.01152,-0.01064,-0.00909,0.01031,0.93348,4.91353,1.57477,1.93002,1.93124,-2.14954,4.89504,4.82784,-2.10011,4.94817,1.76862,1.76862,A,133816.50
4.92767,57.68789986,11.98136684,57.68790033,11.98136767,17:20:25.748170,0.00316,1.51857,1.51857,-0.02991,0.00412,-0.00388,-0.01626,-0.00652,0.01336,-0.01732,0.92433,4.92372,1.57477,1.93002,1.93124,-2.14954,4.89504,4.82784,-2.10011,4.94817,1.76862,1.76862,A,133816.50
4.96532,57.68789986,11.98136684,57.68790283,11.98136517,17:20:25.785819,0.03041,1.63526,1.63526,-0.02969,0.00412,-0.00174,-0.01519,-0.00102,0.00195,0.00769,0.94013,4.93435,1.57477,1.93002,1.93124,-2.14954,4.89504,4.96124,-2.24871,5.22616,2.06169,2.06169,A,133816.70
4.97601,57.68790157,11.98136565,57.68790283,11.98136517,17:20:25.796502,0.00554,1.63526,1.63526,-0.03060,0.00409,-0.00327,0.01398,0.00005,-0.11810,-0.06448,1.06103,4.97003,1.58687,1.95021,1.95143,-2.22015,5.08578,4.96124,-2.24871,5.22616,2.06169,2.06169,A,133816.70
4.98436,57.68790157,11.98136565,57.68790283,11.98136517,17:20:25.804860,0.00349,1.63526,1.63526,-0.03134,0.00395,-0.00877,0.01505,-0.00469,0.06429,-0.05447,1.03572,4.98029,1.58687,1.95021,1.95143,-2.22015,5.08578,4.96124,-2.24871,5.22616,2.06169,2.06169,A,133816.70
4.99441,57.68790157,11.98136565,57.68790283,11.98136517,17:20:25.814891,0.00296,1.63526,1.63526,-0.03150,0.00364,-0.00938,0.00955,-0.00942,0.11242,-0.01360,1.02236,4.99067,1.58687,1.95021,1.95143,-2.22015,5.08578,4.96124,-2.24871,5.22616,2.06169,2.06169,A,133816.70
5.00500,57.68790157,11.98136565,57.68790283,11.98136517,17:20:25.825487,0.00317,1.63526,1.63526,-0.03084,0.00319,-0.01259,-0.01564,-0.01782,0.03471,0.04325,1.00979,5.00128,1.58687,1.95021,1.95143,-2.22015,5.08578,4.96124,-2.24871,5.22616,2.06169,2.06169,A,133816.70
5.01823,57.68790157,11.98136565,57.68790283,11.98136517,17:20:25.838781,0.00616,1.63526,1.63526,0.00000,0.00262,-0.00785,-0.02939,-0.02317,0.01861,0.04721,1.01168,5.01132,1.58687,1.95021,1.95143,-2.22015,5.08578,4.96124,-2.24871,5.22616,2.06169,2.06169,A,133816.70
5.03421,57.68790157,11.98136565,57.68790283,11.98136517,17:20:25.854730,0.01138,1.63526,1.63526,0.00029,0.00200,-0.00984,-0.03855,-0.02317,-0.07076,0.04972,1.03371,5.02240,1.58687,1.95021,1.95143,0.02334,0.00000,4.96124,-2.24871,5.22616,2.06169,2.06169,A,133816.70
5.05068,57.68790157,11.98136565,57.68790283,11.98136517,17:20:25.871175,0.00597,1.63526,1.63526,-0.00151,0.00092,-0.00174,-0.01167,-0.02164,-0.03453,-0.09296,0.96661,5.04592,1.58687,1.95021,1.95143,0.02334,0.00000,4.96124,-2.24871,5.22616,2.06169,2.06169,A,133816.70
5.05911,57.68790157,11.98136565,57.68790283,11.98136517,17:20:25.879835,0.00400,1.63526,1.63526,-0.00333,0.00059,-0.00067,-0.00373,-0.01324,0.00244,-0.09376,0.92488,5.05451,1.58687,1.95021,1.95143,0.02334,0.00000,4.96124,-2.24871,5.22616,2.06169,2.06169,A,133816.70
5.08843,57.68790157,11.98136565,57.68790400,11.98136450,17:20:25.908925,0.02293,1.63526,1.63526,-0.00404,0.00033,-0.00678,0.00131,-0.00652,0.01110,-0.02525,1.01205,5.06591,1.58687,1.95021,1.95143,0.02334,0.00000,5.08218,-2.28833,5.35589,1.86724,1.86724,A,133816.80
5.10790,57.68790332,11.98136437,57.68790400,11.98136450,17:20:25.928402,0.01132,1.63526,1.63526,-0.00460,-0.00066,0.01078,-0.00114,-0.00637,-0.00500,-0.04880,1.07811,5.10108,1.59655,1.93845,1.93825,-2.29581,5.27985,5.08218,-2.28833,5.35589,1.86724,1.86724,A,133816.80
5.12264,57.68790332,11.98136437,57.68790400,11.98136450,17:20:25.943136,0.00578,1.63526,1.63526,-0.00530,-0.00145,0.00330,-0.01748,-0.01385,0.01702,-0.03495,1.02376,5.11792,1.59655,1.93845,1.93825,-2.29581,5.27985,5.08218,-2.28833,5.35589,1.86724,1.86724,A,133816.80
5.13169,57.68790332,11.98136437,57.68790400,11.98136450,17:20:25.952181,0.00443,1.63526,1.63526,-0.00594,-0.00188,-0.00480,-0.01427,-0.01675,-0.04959,-0.02446,0.98240,5.12666,1.59655,1.93845,1.93825,-2.29581,5.27985,5.08218,-2.28833,5.35589,1.86724,1.86724,A,133816.80
5.14215,57.68790332,11.98136437,57.68790400,11.98136450,17:20:25.962642,0.00450,1.63526,1.63526,-0.00608,-0.00227,-0.00342,-0.00266,-0.02210,-0.07027,0.00750,0.96569,5.13722,1.59655,1.93845,1.93825,-2.29581,5.27985,5.08218,-2.28833,5.35589,1.86724,1.86724,A,133816.80
5.15204,57.68790332,11.98136437,57.68790400,11.98136450,17:20:25.972523,0.00416,1.63526,1.63526,-0.00714,-0.00256,0.00039,-0.00282,-0.03126,-0.04654,-0.05240,0.92464,5.14716,1.59655,1.93845,1.93825,-2.29581,5.27985,5.08218,-2.28833,5.35589,1.86724,1.86724,A,133816.80
5.16241,57.68790332,11.98136437,57.68790400,11.98136450,17:20:25.982895,0.00413,1.63526,1.63526,-0.00819,-0.00273,0.00146,-0.00022,-0.02546,-0.03318,-0.05392,0.93934,5.15769,1.59655,1.93845,1.93825,-2.29581,5.27985,5.08218,-2.28833,5.35589,1.86724,1.86724,A,133816.80
5.17301,57.68790332,11.98136437,57.68790400,11.98136450,17:20:25.993503,0.00428,1.63526,1.63526,-0.00919,-0.00284,-0.00388,-0.00618,-0.02821,0.01952,-0.04727,0.90451,5.16829,1.59655,1.93845,1.93825,-2.29581,5.27985,5.08218,-2.28833,5.35589,1.86724,1.86724,A,133816.80
5.18324,57.68790332,11.98136437,57.68790400,11.98136450,17:20:26.003944,0.00412,1.63526,1.63526,-0.01026,-0.00292,-0.00235,-0.02023,-0.02576,-0.06942,-0.05581,0.95221,5.17853,1.59655,1.93845,1.93825,-2.29581,5.27985,5.08218,-2.28833,5.35589,1.86724,1.86724,A,133816.80
5.21962,57.68790332,11.98136437,57.68790550,11.98136350,17:20:26.040115,0.03010,1.63526,1.63526,-0.01103,-0.00304,-0.00251,-0.00816,-0.02622,-0.04368,-0.04026,1.00955,5.18893,1.59655,1.93845,1.93825,-2.29581,5.27985,5.20428,-2.34777,5.52268,1.91312,1.91312,A,133816.90
5.23153,57.68790498,11.98136321,57.68790550,11.98136350,17:20:26.052037,0.00621,1.63526,1.63526,-0.01208,-0.00369,-0.01839,0.01139,-0.02698,0.00421,-0.01891,1.10916,5.22484,1.60429,1.93471,1.93362,-2.36480,5.46447,5.20428,-2.34777,5.52268,1.91312,1.91312,A,133816.90
5.24003,57.68790498,11.98136321,57.68790550,11.98136350,17:20:26.060524,0.00432,1.63526,1.63526,-0.01201,-0.00380,-0.01320,0.00131,-0.01843,-0.07631,0.02342,1.07909,5.23495,1.60429,1.93471,1.93362,-2.36480,5.46447,5.20428,-2.34777,5.52268,1.91312,1.91312,A,133816.90
5.25057,57.68790498,11.98136321,57.68790550,11.98136350,17:20:26.071066,0.00447,1.63526,1.63526,-0.01123,-0.00383,-0.00953,0.00406,-0.01034,-0.02172,0.06496,0.97496,5.24565,1.60429,1.93471,1.93362,-2.36480,5.46447,5.20428,-2.34777,5.52268,1.91312,1.91312,A,133816.90
5.26066,57.68790498,11.98136321,57.68790550,11.98136350,17:20:26.081142,0.00416,1.63526,1.63526,-0.01127,-0.00383,-0.01213,-0.00022,-0.00973,-0.07338,0.01348,0.95996,5.25571,1.60429,1.93471,1.93362,-2.36480,5.46447,5.20428,-2.34777,5.52268,1.91312,1.91312,A,133816.90
5.27123,57.68790498,11.98136321,57.68790550,11.98136350,17:20:26.091942,0.00435,1.63526,1.63526,-0.01122,-0.00383,-0.01472,-0.00358,-0.00667,-0.00921,0.02025,0.88413,5.26651,1.60429,1.93471,1.93362,-2.36480,5.46447,5.20428,-2.34777,5.52268,1.91312,1.91312,A,133816.90
5.28141,57.68790498,11.98136321,57.68790550,11.98136350,17:20:26.101897,0.00413,1.63526,1.63526,-0.01152,-0.00383,-0.01824,-0.00312,-0.01095,-0.06252,0.00092,0.88194,5.27669,1.60429,1.93471,1.93362,-2.36480,5.46447,5.20428,-2.34777,5.52268,1.91312,1.91312,A,133816.90
5.29206,57.68790498,11.98136321,57.68790550,11.98136350,17:20:26.112554,0.00452,1.63526,1.63526,-0.01190,-0.00383,-0.02022,0.00665,-0.01614,-0.16708,-0.00287,0.93922,5.28709,1.60429,1.93471,1.93362,-2.36480,5.46447,5.20428,-2.34777,5.52268,1.91312,1.91312,A,133816.90
5.30209,57.68790498,11.98136321,57.68790550,11.98136350,17:20:26.122576,0.00415,1.63526,1.63526,-0.01281,-0.00383,-0.01549,0.02834,-0.02011,-0.08107,-0.04020,0.94721,5.29737,1.60429,1.93471,1.93362,-2.36480,5.46447,5.20428,-2.34777,5.52268,1.91312,1.91312,A,133816.90
5.32986,57.68790498,11.98136321,57.68790683,11.98136267,17:20:26.150353,0.02153,1.63526,1.63526,-0.01364,-0.00383,-0.01808,0.03093,-0.02469,-0.12554,-0.03678,1.06500,5.30860,1.60429,1.93471,1.93362,-2.36480,5.46447,5.32497,-2.39730,5.67094,1.89322,1.89322,A,133817.00
5.34213,57.68790646,11.98136220,57.68790683,11.98136267,17:20:26.162623,0.00627,1.82842,1.82842,-0.01362,-0.00383,-0.01640,0.02101,-0.01095,0.05868,0.03776,1.02797,5.33516,1.64912,1.92816,1.92702,-2.42512,5.62941,5.32497,-2.39730,5.67094,1.89322,1.89322,A,133817.00
5.35054,57.68790646,11.98136220,57.68790683,11.98136267,17:20:26.171023,0.00428,1.82842,1.82842,-0.01389,-0.00383,0.00101,0.01291,-0.01064,-0.04032,-0.01299,1.05072,5.34570,1.64912,1.92816,1.92702,-2.42512,5.62941,5.32497,-2.39730,5.67094,1.89322,1.89322,A,133817.00
5.36092,57.68790646,11.98136220,57.68790683,11.98136267,17:20:26.181416,0.00427,1.82842,1.82842,-0.01510,-0.00383,0.00101,0.01184,-0.00530,-0.05045,-0.07357,0.97466,5.35587,1.64912,1.92816,1.92702,-2.42512,5.62941,5.32497,-2.39730,5.67094,1.89322,1.89322,A,133817.00
5.37186,57.68790646,11.98136220,57.68790683,11.98136267,17:20:26.192354,0.00481,1.82842,1.82842,-0.01634,-0.00383,0.00207,0.01032,-0.00545,0.01861,-0.07533,0.94471,5.36686,1.64912,1.92816,1.92702,-2.42512,5.62941,5.32497,-2.39730,5.67094,1.89322,1.89322,A,133817.00
5.38142,57.68790646,11.98136220,57.68790683,11.98136267,17:20:26.201914,0.00399,1.82842,1.82842,-0.01786,-0.00383,-0.00938,-0.00327,-0.01141,-0.02885,-0.08625,0.93696,5.37679,1.64912,1.92816,1.92702,-2.42512,5.62941,5.32497,-2.39730,5.67094,1.89322,1.89322,A,133817.00
5.39282,57.68790646,11.98136220,57.68790683,11.98136267,17:20:26.213315,0.00499,1.82842,1.82842,-0.01845,-0.00383,-0.01442,-0.00221,-0.01645,-0.02550,-0.02477,0.92714,5.38786,1.64912,1.92816,1.92702,-2.42512,5.62941,5.32497,-2.39730,5.67094,1.89322,1.89322,A,133817.00
5.40225,57.68790646,11.98136220,57.68790683,11.98136267,17:20:26.222736,0.00403,1.82842,1.82842,-0.01902,-0.00383,-0.00846,0.00665,-0.01767,-0.03934,-0.02989,0.95843,5.39764,1.64912,1.92816,1.92702,-2.42512,5.62941,5.32497,-2.39730,5.67094,1.89322,1.89322,A,133817.00
5.41277,57.68790646,11.98136220,57.68790683,11.98136267,17:20:26.233255,0.00416,1.82842,1.82842,-0.01932,-0.00383,-0.00862,0.01215,-0.02286,-0.04081,-0.01330,0.99363,5.40782,1.64912,1.92816,1.92702,-2.42512,5.62941,5.32497,-2.39730,5.67094,1.89322,1.89322,A,133817.00
5.42535,57.68790646,11.98136220,57.68790683,11.98136267,17:20:26.245838,0.00636,1.82842,1.82842,-0.01934,-0.00383,-0.00495,0.00528,-0.01584,-0.08589,0.00299,0.98436,5.42061,1.64912,1.92816,1.92702,-2.42512,5.62941,5.32497,-2.39730,5.67094,1.89322,1.89322,A,133817.00
5.46090,57.68790646,11.98136220,57.68790950,11.98136100,17:20:26.281398,0.03152,1.82842,1.82842,-0.01926,-0.00383,-0.00297,0.00711,-0.02072,-0.04252,0.00781,1.00046,5.42932,1.64912,1.92816,1.92702,-2.42512,5.62941,5.45576,-2.49636,5.96746,1.89322,1.89322,A,133817.20
5.47230,57.68790830,11.98136096,57.68790950,11.98136100,17:20:26.292793,0.00651,1.82842,1.82842,-0.01971,-0.00397,0.00192,0.01612,-0.02363,-0.01836,-0.03526,1.04133,5.46532,1.68498,1.92247,1.92129,-2.49866,5.83436,5.45576,-2.49636,5.96746,1.89322,1.89322,A,133817.20
5.48018,57.68790830,11.98136096,57.68790950,11.98136100,17:20:26.300675,0.00417,1.82842,1.82842,-0.02013,-0.00437,0.00009,0.01154,-0.02515,0.03447,-0.02800,1.00687,5.47530,1.68498,1.92247,1.92129,-2.49866,5.83436,5.45576,-2.49636,5.96746,1.89322,1.89322,A,133817.20
5.49055,57.68790830,11.98136096,57.68790950,11.98136100,17:20:26.311036,0.00415,1.82842,1.82842,-0.01932,-0.00508,-0.00770,-0.00557,-0.03019,-0.00958,0.05844,0.99375,5.48583,1.68498,1.92247,1.92129,-2.49866,5.83436,5.45576,-2.49636,5.96746,1.89322,1.89322,A,133817.20
5.50095,57.68790830,11.98136096,57.68790950,11.98136100,17:20:26.321428,0.00415,1.82842,1.82842,-0.01839,-0.00607,-0.00129,-0.01534,-0.02790,0.01330,0.05923,0.94855,5.49621,1.68498,1.92247,1.92129,-2.49866,5.83436,5.45576,-2.49636,5.96746,1.89322,1.89322,A,133817.20
5.51151,57.68790830,11.98136096,57.68790950,11.98136100,17:20:26.332022,0.00433,1.82842,1.82842,-0.01702,-0.00731,0.01399,-0.02481,-0.03096,-0.05642,0.07607,0.91805,5.50659,1.68498,1.92247,1.92129,-2.49866,5.83436,5.45576,-2.49636,5.96746,1.89322,1.89322,A,133817.20
5.52175,57.68790830,11.98136096,57.68790950,11.98136100,17:20:26.342233,0.00417,1.82842,1.82842,-0.01667,-0.00853,0.02071,-0.02420,-0.02760,-0.11761,0.01025,0.98521,5.51703,1.68498,1.92247,1.92129,-2.49866,5.83436,5.45576,-2.49636,5.96746,1.89322,1.89322,A,133817.20
5.53239,57.68790830,11.98136096,57.68790950,11.98136100,17:20:26.352884,0.00453,1.82842,1.82842,-0.01757,-0.00969,0.02208,-0.01137,-0.02989,-0.05746,-0.07308,0.99436,5.52721,1.68498,1.92247,1.92129,-2.49866,5.83436,5.45576,-2.49636,5.96746,1.89322,1.89322,A,133817.20
5.54251,57.68790830,11.98136096,57.68790950,11.98136100,17:20:26.362995,0.00426,1.82842,1.82842,-0.01925,-0.01074,0.02636,0.00299,-0.02515,-0.09363,-0.12816,0.97990,5.53779,1.68498,1.92247,1.92129,-2.49866,5.83436,5.45576,-2.49636,5.96746,1.89322,1.89322,A,133817.20
5.55280,57.68790830,11.98136096,57.68790950,11.98136100,17:20:26.373287,0.00416,1.82842,1.82842,-0.02090,-0.01164,0.00773,0.01948,-0.02897,-0.04599,-0.11169,0.95495,5.54787,1.68498,1.92247,1.92129,-2.49866,5.83436,5.45576,-2.49636,5.96746,1.89322,1.89322,A,133817.20
5.58094,57.68790830,11.98136096,57.68791083,11.98135983,17:20:26.401441,0.02191,1.82842,1.82842,-0.02082,-0.01243,0.00589,0.02803,-0.03126,-0.05459,-0.00238,1.01717,5.55862,1.68498,1.92247,1.92129,-2.49866,5.83436,5.57408,-2.56571,6.11572,2.00828,2.00828,A,133817.30
5.59506,57.68791003,11.98135981,57.68791083,11.98135983,17:20:26.416048,0.00853,1.82842,1.82842,-0.02054,-0.01416,0.02559,0.00085,-0.03981,0.07070,-0.03178,1.01778,5.58599,1.71366,1.93535,1.93115,-2.56721,6.02676,5.57408,-2.56571,6.11572,2.00828,2.00828,A,133817.30
5.60094,57.68791003,11.98135981,57.68791083,11.98135983,17:20:26.421422,0.00435,1.82842,1.82842,-0.02172,-0.01464,0.02101,-0.02786,-0.04546,0.08162,-0.09925,1.02108,5.59631,1.71366,1.93535,1.93115,-2.56721,6.02676,5.57408,-2.56571,6.11572,2.00828,2.00828,A,133817.30
5.61110,57.68791003,11.98135981,57.68791083,11.98135983,17:20:26.431813,0.00412,1.82842,1.82842,-0.02279,-0.01509,0.02361,-0.04512,-0.05508,0.07351,-0.09406,1.02059,5.60638,1.71366,1.93535,1.93115,-2.56721,6.02676,5.57408,-2.56571,6.11572,2.00828,2.00828,A,133817.30
5.62150,57.68791003,11.98135981,57.68791083,11.98135983,17:20:26.441995,0.00413,1.82842,1.82842,-0.02351,-0.01543,0.02162,-0.04588,-0.05096,-0.01208,-0.06905,0.99650,5.61679,1.71366,1.93535,1.93115,-2.56721,6.02676,5.57408,-2.56571,6.11572,2.00828,2.00828,A,133817.30
5.63281,57.68791003,11.98135981,57.68791083,11.98135983,17:20:26.453596,0.00508,1.82842,1.82842,-0.02411,-0.01563,0.01903,-0.03657,-0.05020,-0.09729,-0.05746,0.96112,5.62716,1.71366,1.93535,1.93115,-2.56721,6.02676,5.57408,-2.56571,6.11572,2.00828,2.00828,A,133817.30
5.64221,57.68791003,11.98135981,57.68791083,11.98135983,17:20:26.462704,0.00425,1.82842,1.82842,-0.02417,-0.01569,0.02254,-0.00725,-0.04439,-0.06100,-0.02568,0.93568,5.63750,1.71366,1.93535,1.93115,-2.56721,6.02676,5.57408,-2.56571,6.11572,2.00828,2.00828,A,133817.30
5.65255,57.68791003,11.98135981,57.68791083,11.98135983,17:20:26.473038,0.00419,1.82842,1.82842,-0.02401,-0.01569,0.02040,0.01276,-0.03706,-0.03861,-0.01019,0.97210,5.64759,1.71366,1.93535,1.93115,-2.56721,6.02676,5.57408,-2.56571,6.11572,2.00828,2.00828,A,133817.30
5.66385,57.68791003,11.98135981,57.68791083,11.98135983,17:20:26.484347,0.00510,1.82842,1.82842,-0.02237,-0.01569,0.02269,0.01184,-0.02561,-0.01519,0.08479,0.99942,5.65887,1.71366,1.93535,1.93115,-2.56721,6.02676,5.57408,-2.56571,6.11572,2.00828,2.00828,A,133817.30
5.67478,57.68791003,11.98135981,57.68791083,11.98135983,17:20:26.495306,0.00564,1.82842,1.82842,-0.02171,-0.01572,0.03857,0.00146,-0.02164,-0.06124,0.01153,0.99338,5.66945,1.71366,1.93535,1.93115,-2.56721,6.02676,5.57408,-2.56571,6.11572,2.00828,2.00828,A,133817.30
5.70056,57.68791003,11.98135981,57.68791233,11.98135967,17:20:26.521058,0.02088,1.82842,1.82842,-0.02055,-0.01572,0.04346,0.00451,-0.02240,-0.01836,0.04740,1.04694,5.67895,1.71366,1.93535,1.93115,-2.56721,6.02676,5.69416,-2.57561,6.28251,1.63012,1.63012,A,133817.40
5.71241,57.68791176,11.98135866,57.68791233,11.98135967,17:20:26.532898,0.00670,1.82842,1.82842,-0.01953,-0.01572,0.04316,-0.02313,-0.03432,-0.02489,-0.01183,1.03145,5.70564,1.73662,1.88805,1.88338,-2.63527,6.21906,5.69416,-2.57561,6.28251,1.63012,1.63012,A,133817.40
5.72026,57.68791176,11.98135866,57.68791233,11.98135967,17:20:26.540763,0.00424,1.82842,1.82842,-0.01883,-0.01572,0.03674,-0.01488,-0.04287,-0.07149,0.01946,0.98936,5.71535,1.73662,1.88805,1.88338,-2.63527,6.21906,5.69416,-2.57561,6.28251,1.63012,1.63012,A,133817.40
5.73275,57.68791176,11.98135866,57.68791233,11.98135967,17:20:26.553246,0.00633,1.82842,1.82842,-0.01812,-0.01572,0.05186,0.00589,-0.04027,-0.08455,0.00268,0.91256,5.72762,1.73662,1.88805,1.88338,-2.63527,6.21906,5.69416,-2.57561,6.28251,1.63012,1.63012,A,133817.40
5.74106,57.68791176,11.98135866,57.68791233,11.98135967,17:20:26.561560,0.00425,1.82842,1.82842,-0.01882,-0.01572,0.06026,0.02406,-0.03264,-0.09126,-0.07161,0.86162,5.73624,1.73662,1.88805,1.88338,-2.63527,6.21906,5.69416,-2.57561,6.28251,1.63012,1.63012,A,133817.40
