Time,lat_estimated,lon_estimated,latitude,longitude,RealTime,CalculationTime,MeasuredVelocity,Roll,SteeringAngle,RollRate,gy,gz,ax,ay,az,imu_read_timing,v_estimated,yaw_estimated,heading_estimated,x_estimated,y_estimated,GPS_timestamp,x_GPS,y_GPS,theta_GPS,status,NMEA timestamp
0.04394,57.68782667,11.98137533,57.68782667,11.98137533,14:32:58.547644,0.04389,0.00000,-0.00061,0.06436,-0.00441,-0.00070,0.00145,-0.02062,-0.01635,0.99351,0.00001,0.00000,-0.01913,0.00000,0.00000,0.00000,0.01586,0.00000,0.00000,-1.57362,A,143258.40
0.06185,57.68782667,11.98137533,57.68782667,11.98137533,14:32:58.565526,0.00789,0.00000,-0.00145,0.06263,-0.00441,-0.00300,-0.00007,-0.02501,-0.01995,0.99863,0.05569,0.00000,-0.25509,-0.23648,0.00000,0.00000,0.01586,0.00000,0.00000,-1.57362,A,143258.40
0.06722,57.68782667,11.98137533,57.68782667,11.98137533,14:32:58.571087,0.00303,0.00000,-0.00207,0.06229,-0.00747,-0.00238,0.00237,-0.02538,-0.01769,0.99735,0.06383,0.00000,-0.25509,-0.23648,0.00000,0.00000,0.01586,0.00000,0.00000,-1.57362,A,143258.40
0.07776,57.68782667,11.98137533,57.68782667,11.98137533,14:32:58.581433,0.00317,0.00000,-0.00273,0.06187,-0.01403,-0.00055,0.00099,-0.02001,-0.01476,1.00089,0.07438,0.00000,-0.25509,-0.23648,0.00000,0.00000,0.01586,0.00000,0.00000,-1.57362,A,143258.40
0.08818,57.68782667,11.98137533,57.68782667,11.98137533,14:32:58.591859,0.00319,0.00000,-0.00331,0.06145,-0.00915,0.00036,-0.00023,-0.01128,-0.01458,1.00546,0.08457,0.00000,-0.25509,-0.23648,0.00000,0.00000,0.01586,0.00000,0.00000,-1.57362,A,143258.40
0.09856,57.68782667,11.98137533,57.68782667,11.98137533,14:32:58.602227,0.00317,0.00000,-0.00395,0.06096,-0.00655,0.00495,0.00038,-0.00390,-0.02080,1.00180,0.09517,0.00000,-0.25509,-0.23648,0.00000,0.00000,0.01586,0.00000,0.00000,-1.57362,A,143258.40
0.10896,57.68782667,11.98137533,57.68782667,11.98137533,14:32:58.612635,0.00318,0.00000,-0.00473,0.06048,-0.00808,0.00357,-0.00343,-0.00116,-0.02904,0.99729,0.10557,0.00000,-0.25509,-0.23648,0.00000,0.00000,0.01586,0.00000,0.00000,-1.57362,A,143258.40
0.13085,57.68782667,11.98137533,57.68782667,11.98137517,14:32:58.634530,0.01484,0.00000,-0.00547,0.06006,-0.01235,0.00342,0.00008,-0.01043,-0.02452,0.99595,0.11563,0.00000,-0.25509,-0.23648,0.00000,0.00000,0.12956,-0.00991,0.00000,-1.57645,A,143258.50
0.14445,57.68782667,11.98137533,57.68782667,11.98137517,14:32:58.648149,0.00636,0.00000,-0.00618,0.05915,-0.01006,-0.00284,0.00038,-0.01732,-0.01641,0.99930,0.13878,0.00000,-0.45593,-0.43836,-0.00050,0.00000,0.12956,-0.00991,0.00000,-1.57645,A,143258.50
0.15135,57.68782667,11.98137533,57.68782667,11.98137517,14:32:58.655246,0.00302,0.00000,-0.00678,0.05878,-0.00793,0.00006,-0.00206,-0.01763,-0.02080,1.00308,0.14796,0.00000,-0.45593,-0.43836,-0.00050,0.00000,0.12956,-0.00991,0.00000,-1.57645,A,143258.50
0.16205,57.68782667,11.98137533,57.68782667,11.98137517,14:32:58.665744,0.00332,0.00000,-0.00741,0.05836,-0.00334,0.00098,0.00084,-0.01592,-0.02562,1.01431,0.15865,0.00000,-0.45593,-0.43836,-0.00050,0.00000,0.12956,-0.00991,0.00000,-1.57645,A,143258.50
0.17232,57.68782667,11.98137533,57.68782667,11.98137517,14:32:58.676018,0.00319,0.00000,-0.00806,0.05788,-0.00197,0.00678,-0.00038,-0.01434,-0.02922,1.01669,0.16890,0.00000,-0.45593,-0.43836,-0.00050,0.00000,0.12956,-0.00991,0.00000,-1.57645,A,143258.50
0.18270,57.68782667,11.98137533,57.68782667,11.98137517,14:32:58.686396,0.00300,0.00000,-0.00869,0.05737,-0.00533,0.00479,0.00283,-0.01299,-0.02550,1.00833,0.17932,0.00000,-0.45593,-0.43836,-0.00050,0.00000,0.12956,-0.00991,0.00000,-1.57645,A,143258.50
0.19330,57.68782667,11.98137533,57.68782667,11.98137517,14:32:58.696982,0.00319,0.00000,-0.00921,0.05692,-0.00487,0.00403,0.00191,-0.00555,-0.01848,0.99595,0.18991,0.00000,-0.45593,-0.43836,-0.00050,0.00000,0.12956,-0.00991,0.00000,-1.57645,A,143258.50
0.20336,57.68782667,11.98137533,57.68782667,11.98137517,14:32:58.707258,0.00303,0.00000,-0.00959,0.05652,0.00078,0.00495,0.00099,-0.00909,-0.01385,0.98064,0.19997,0.00000,-0.45593,-0.43836,-0.00050,0.00000,0.12956,-0.00991,0.00000,-1.57645,A,143258.50
0.21396,57.68782667,11.98137533,57.68782667,11.98137517,14:32:58.717647,0.00322,0.00000,-0.01002,0.05618,-0.00136,0.00235,0.00313,-0.01946,-0.01586,0.97874,0.21057,0.00000,-0.45593,-0.43836,-0.00050,0.00000,0.12956,-0.00991,0.00000,-1.57645,A,143258.50
0.22449,57.68782667,11.98137533,57.68782667,11.98137517,14:32:58.728187,0.00335,0.00000,-0.01046,0.05590,-0.00411,-0.00132,0.00099,-0.02342,-0.01519,0.98442,0.22107,0.00000,-0.45593,-0.43836,-0.00050,0.00000,0.12956,-0.00991,0.00000,-1.57645,A,143258.50
0.24705,57.68782667,11.98137533,57.68782667,11.98137483,14:32:58.750755,0.01534,0.00000,-0.01092,0.05564,0.00276,-0.00025,-0.00038,-0.01507,-0.02220,0.99040,0.23134,0.00000,-0.45593,-0.43836,-0.00050,0.00000,0.24578,-0.02972,0.00000,-1.57928,A,143258.60
0.26183,57.68782667,11.98137530,57.68782667,11.98137483,14:32:58.765515,0.00771,0.00000,-0.01150,0.05522,-0.00518,0.00357,0.00008,-0.02422,-0.02025,1.01345,0.25599,0.00000,-0.62690,-0.61049,-0.00196,0.00000,0.24578,-0.02972,0.00000,-1.57928,A,143258.60
0.26736,57.68782667,11.98137530,57.68782667,11.98137483,14:32:58.771237,0.00301,0.00000,-0.01190,0.05511,-0.00457,0.00403,0.00008,-0.03074,-0.01507,1.01986,0.26397,0.00000,-0.62690,-0.61049,-0.00196,0.00000,0.24578,-0.02972,0.00000,-1.57928,A,143258.60
0.27808,57.68782667,11.98137530,57.68782667,11.98137483,14:32:58.781760,0.00334,0.00000,-0.01218,0.05499,0.00047,0.00922,0.00267,-0.02336,-0.01006,1.01650,0.27468,0.00000,-0.62690,-0.61049,-0.00196,0.00000,0.24578,-0.02972,0.00000,-1.57928,A,143258.60
0.28841,57.68782667,11.98137530,57.68782667,11.98137483,14:32:58.792085,0.00321,0.00000,-0.01261,0.05491,0.00154,0.00418,0.00634,-0.00488,-0.02092,1.00089,0.28500,0.00000,-0.62690,-0.61049,-0.00196,0.00000,0.24578,-0.02972,0.00000,-1.57928,A,143258.60
0.29879,57.68782667,11.98137530,57.68782667,11.98137483,14:32:58.802464,0.00302,0.00000,-0.01308,0.05482,0.00078,0.00266,0.00313,0.00506,-0.02312,0.98716,0.29540,0.00000,-0.62690,-0.61049,-0.00196,0.00000,0.24578,-0.02972,0.00000,-1.57928,A,143258.60
0.30935,57.68782667,11.98137530,57.68782667,11.98137483,14:32:58.813029,0.00318,0.00000,-0.01356,0.05479,-0.00014,0.00098,0.00664,-0.01202,-0.02330,0.98491,0.30596,0.00000,-0.62690,-0.61049,-0.00196,0.00000,0.24578,-0.02972,0.00000,-1.57928,A,143258.60
0.31973,57.68782667,11.98137530,57.68782667,11.98137483,14:32:58.823419,0.00316,0.00000,-0.01395,0.05479,-0.00014,-0.00467,0.00542,-0.03697,-0.01861,0.99338,0.31614,0.00000,-0.62690,-0.61049,-0.00196,0.00000,0.24578,-0.02972,0.00000,-1.57928,A,143258.60
0.33015,57.68782667,11.98137530,57.68782667,11.98137483,14:32:58.833829,0.00318,0.00000,-0.01434,0.05479,0.00918,0.00159,0.00115,-0.04807,-0.02507,0.99765,0.32677,0.00000,-0.62690,-0.61049,-0.00196,0.00000,0.24578,-0.02972,0.00000,-1.57928,A,143258.60
0.34057,57.68782667,11.98137530,57.68782667,11.98137483,14:32:58.844242,0.00319,0.00000,-0.01486,0.05479,0.00261,0.01014,0.00374,-0.02477,-0.02928,0.98997,0.33716,0.00000,-0.62690,-0.61049,-0.00196,0.00000,0.24578,-0.02972,0.00000,-1.57928,A,143258.60
0.37516,57.68782667,11.98137530,57.68782667,11.98137383,14:32:58.878841,0.02712,0.00000,-0.01532,0.05479,0.00292,0.00708,0.00206,0.00500,-0.02660,0.98728,0.34768,0.00000,-0.62690,-0.61049,-0.00196,0.00000,0.37385,-0.08916,0.00000,-1.59059,A,143258.80
0.39438,57.68782667,11.98137523,57.68782667,11.98137383,14:32:58.898058,0.00650,0.00000,-0.01561,0.05479,0.00200,0.00052,0.00069,-0.02263,-0.01867,1.00156,0.38902,0.00000,-0.77389,-0.75761,-0.00632,0.00000,0.37385,-0.08916,0.00000,-1.59059,A,143258.80
0.40145,57.68782667,11.98137523,57.68782667,11.98137383,14:32:58.905125,0.00317,0.00000,-0.01608,0.05479,0.00231,0.00098,0.00054,0.00000,-0.02739,0.99107,0.39807,0.00000,-0.77389,-0.75761,-0.00632,0.00000,0.37385,-0.08916,0.00000,-1.59059,A,143258.80
0.41182,57.68782667,11.98137523,57.68782667,11.98137383,14:32:58.915506,0.00314,0.00000,-0.01655,0.05479,0.00414,-0.00055,-0.00389,0.01189,-0.02806,0.97917,0.40823,0.00000,-0.77389,-0.75761,-0.00632,0.00000,0.37385,-0.08916,0.00000,-1.59059,A,143258.80
0.42225,57.68782667,11.98137523,57.68782667,11.98137383,14:32:58.925924,0.00317,0.00000,-0.01709,0.05477,-0.00762,-0.00391,-0.00053,-0.01976,-0.02574,0.97874,0.41887,0.00000,-0.77389,-0.75761,-0.00632,0.00000,0.37385,-0.08916,0.00000,-1.59059,A,143258.80
0.43263,57.68782667,11.98137523,57.68782667,11.98137383,14:32:58.936295,0.00315,0.00000,-0.01752,0.05474,-0.00563,0.00098,-0.00023,-0.04917,-0.02080,0.98381,0.42923,0.00000,-0.77389,-0.75761,-0.00632,0.00000,0.37385,-0.08916,0.00000,-1.59059,A,143258.80
0.44295,57.68782667,11.98137523,57.68782667,11.98137383,14:32:58.946617,0.00299,0.00000,-0.01791,0.05474,-0.00289,0.00999,-0.00069,-0.03532,-0.02031,0.98613,0.43956,0.00000,-0.77389,-0.75761,-0.00632,0.00000,0.37385,-0.08916,0.00000,-1.59059,A,143258.80
0.45352,57.68782667,11.98137523,57.68782667,11.98137383,14:32:58.957188,0.00316,0.00000,-0.01829,0.05468,-0.00518,0.00632,0.00619,0.00537,-0.01824,0.98338,0.45014,0.00000,-0.77389,-0.75761,-0.00632,0.00000,0.37385,-0.08916,0.00000,-1.59059,A,143258.80
0.46403,57.68782667,11.98137523,57.68782667,11.98137383,14:32:58.967712,0.00327,0.00000,-0.01854,0.05460,-0.00472,0.00342,0.00466,0.02257,-0.01068,0.99967,0.46031,0.00000,-0.77389,-0.75761,-0.00632,0.00000,0.37385,-0.08916,0.00000,-1.59059,A,143258.80
0.48707,57.68782667,11.98137523,57.68782667,11.98137350,14:32:58.990735,0.01590,0.00000,-0.01876,0.05451,-0.00563,-0.00086,0.00649,0.00012,-0.00817,1.02541,0.47107,0.00000,-0.77389,-0.75761,-0.00632,0.00000,0.48579,-0.10897,0.00000,-1.57928,A,143258.90
0.50568,57.68782667,11.98137514,57.68782667,11.98137350,14:32:59.009350,0.00701,0.00000,-0.01952,0.05403,-0.00793,0.00464,0.00405,0.00098,-0.03398,1.01083,0.50004,0.00000,-0.89711,-0.88106,-0.01145,0.00000,0.48579,-0.10897,0.00000,-1.57928,A,143258.90
0.51222,57.68782667,11.98137514,57.68782667,11.98137350,14:32:59.015900,0.00315,0.00000,-0.02005,0.05386,-0.01037,0.00128,0.00176,0.00396,-0.02763,0.99216,0.50883,0.00000,-0.89711,-0.88106,-0.01145,0.00000,0.48579,-0.10897,0.00000,-1.57928,A,143258.90
0.52263,57.68782667,11.98137514,57.68782667,11.98137350,14:32:59.026293,0.00316,0.00000,-0.02039,0.05366,-0.00899,-0.00467,0.00344,-0.00695,-0.01531,0.97368,0.51924,0.00000,-0.89711,-0.88106,-0.01145,0.00000,0.48579,-0.10897,0.00000,-1.57928,A,143258.90
0.53308,57.68782667,11.98137514,57.68782667,11.98137350,14:32:59.036748,0.00320,0.00000,-0.02065,0.05352,-0.00823,-0.00238,0.00267,-0.02098,-0.01061,0.97033,0.52968,0.00000,-0.89711,-0.88106,-0.01145,0.00000,0.48579,-0.10897,0.00000,-1.57928,A,143258.90
0.54312,57.68782667,11.98137514,57.68782667,11.98137350,14:32:59.046794,0.00302,0.00000,-0.02093,0.05344,-0.00808,-0.00025,0.00130,-0.02214,-0.01232,0.98021,0.53973,0.00000,-0.89711,-0.88106,-0.01145,0.00000,0.48579,-0.10897,0.00000,-1.57928,A,143258.90
0.55367,57.68782667,11.98137514,57.68782667,11.98137350,14:32:59.057336,0.00316,0.00000,-0.02134,0.05344,-0.01037,0.00311,0.00481,-0.02275,-0.02019,0.99631,0.55028,0.00000,-0.89711,-0.88106,-0.01145,0.00000,0.48579,-0.10897,0.00000,-1.57928,A,143258.90
0.56413,57.68782667,11.98137514,57.68782667,11.98137350,14:32:59.067812,0.00322,0.00000,-0.02180,0.05344,-0.00548,0.00403,0.00298,-0.01080,-0.02745,1.00040,0.56047,0.00000,-0.89711,-0.88106,-0.01145,0.00000,0.48579,-0.10897,0.00000,-1.57928,A,143258.90
0.57448,57.68782667,11.98137514,57.68782667,11.98137350,14:32:59.078149,0.00317,0.00000,-0.02227,0.05344,-0.01129,0.00663,0.00252,-0.00067,-0.02452,1.00760,0.57110,0.00000,-0.89711,-0.88106,-0.01145,0.00000,0.48579,-0.10897,0.00000,-1.57928,A,143258.90
0.58477,57.68782667,11.98137514,57.68782667,11.98137350,14:32:59.088439,0.00306,0.00000,-0.02264,0.05344,-0.00579,0.00403,0.00390,0.00146,-0.02172,1.00937,0.58138,0.00000,-0.89711,-0.88106,-0.01145,0.00000,0.48579,-0.10897,0.00000,-1.57928,A,143258.90
0.60831,57.68782667,11.98137514,57.68782667,11.98137283,14:32:59.111996,0.01634,0.00000,-0.02288,0.05344,-0.00869,0.00479,0.00542,-0.00622,-0.01226,1.01144,0.59157,0.00000,-0.89711,-0.88106,-0.01145,0.00000,0.60686,-0.14859,0.00000,-1.58494,A,143259.00
0.61912,57.68782667,11.98137503,57.68782667,11.98137283,14:32:59.122795,0.00524,0.00000,-0.02334,0.05344,-0.00166,0.00174,0.00420,-0.00049,-0.02977,0.99027,0.61377,0.00000,-1.00266,-0.98679,-0.01831,0.00000,0.60686,-0.14859,0.00000,-1.58494,A,143259.00
0.62712,57.68782667,11.98137503,57.68782667,11.98137283,14:32:59.130797,0.00302,0.00000,-0.02384,0.05344,-0.00166,0.00021,0.00756,0.00805,-0.03385,0.97765,0.62374,0.00000,-1.00266,-0.98679,-0.01831,0.00000,0.60686,-0.14859,0.00000,-1.58494,A,143259.00
0.63935,57.68782667,11.98137503,57.68782667,11.98137283,14:32:59.143249,0.00416,0.00000,-0.02408,0.05344,0.00307,0.00174,0.00390,-0.00317,-0.02037,0.97673,0.63595,0.00000,-1.00266,-0.98679,-0.01831,0.00000,0.60686,-0.14859,0.00000,-1.58494,A,143259.00
0.64876,57.68782667,11.98137503,57.68782667,11.98137283,14:32:59.152435,0.00317,0.00000,-0.02436,0.05344,0.00124,0.00159,0.00588,-0.01153,-0.02257,0.98625,0.64537,0.00000,-1.00266,-0.98679,-0.01831,0.00000,0.60686,-0.14859,0.00000,-1.58494,A,143259.00
0.65936,57.68782667,11.98137503,57.68782667,11.98137283,14:32:59.163230,0.00339,0.00000,-0.02464,0.05344,0.00307,0.00372,0.00558,-0.00079,-0.02373,1.00418,0.65573,0.00000,-1.00266,-0.98679,-0.01831,0.00000,0.60686,-0.14859,0.00000,-1.58494,A,143259.00
0.66958,57.68782667,11.98137503,57.68782667,11.98137283,14:32:59.173258,0.00322,0.00000,-0.02492,0.05344,0.00429,-0.00193,0.00710,0.00945,-0.02580,1.00857,0.66620,0.00000,-1.00266,-0.98679,-0.01831,0.00000,0.60686,-0.14859,0.00000,-1.58494,A,143259.00
0.67991,57.68782667,11.98137503,57.68782667,11.98137283,14:32:59.183597,0.00315,0.00000,-0.02517,0.05344,0.00429,-0.00300,0.00313,0.00366,-0.02361,1.00406,0.67633,0.00000,-1.00266,-0.98679,-0.01831,0.00000,0.60686,-0.14859,0.00000,-1.58494,A,143259.00
0.69033,57.68782667,11.98137503,57.68782667,11.98137283,14:32:59.194000,0.00317,0.00000,-0.02534,0.05344,0.00826,-0.00132,0.00481,0.00323,-0.02117,1.00192,0.68695,0.00000,-1.00266,-0.98679,-0.01831,0.00000,0.60686,-0.14859,0.00000,-1.58494,A,143259.00
0.70072,57.68782667,11.98137503,57.68782667,11.98137283,14:32:59.204401,0.00316,0.00000,-0.02566,0.05344,0.01300,-0.00345,0.00466,-0.00476,-0.03422,0.99643,0.69733,0.00000,-1.00266,-0.98679,-0.01831,0.00000,0.60686,-0.14859,0.00000,-1.58494,A,143259.00
0.72369,57.68782667,11.98137503,57.68782650,11.98137250,14:32:59.227383,0.01571,0.00000,-0.02609,0.05344,0.01223,-0.00086,0.00603,0.00830,-0.04111,0.98484,0.70756,0.00000,-1.00266,-0.98679,-0.01831,0.00000,0.72224,-0.16841,-0.01853,-1.57924,A,143259.10
0.74076,57.68782666,11.98137490,57.68782650,11.98137250,14:32:59.244448,0.00773,0.00000,-0.02559,0.05344,0.02323,-0.00513,0.00558,-0.00018,-0.01220,1.00016,0.73402,0.00000,-1.09153,-1.07566,-0.02581,-0.00093,0.72224,-0.16841,-0.01853,-1.57924,A,143259.10
0.74658,57.68782666,11.98137490,57.68782650,11.98137250,14:32:59.250254,0.00316,0.00000,-0.02552,0.05344,0.02521,-0.00177,0.00955,0.00061,-0.01494,0.99985,0.74321,0.00000,-1.09153,-1.07566,-0.02581,-0.00093,0.72224,-0.16841,-0.01853,-1.57924,A,143259.10
0.75717,57.68782666,11.98137490,57.68782650,11.98137250,14:32:59.260838,0.00319,0.00000,-0.02563,0.05344,0.02689,-0.00208,0.01123,-0.00024,-0.03056,0.99759,0.75379,0.00000,-1.09153,-1.07566,-0.02581,-0.00093,0.72224,-0.16841,-0.01853,-1.57924,A,143259.10
0.76721,57.68782666,11.98137490,57.68782650,11.98137250,14:32:59.270886,0.00300,0.00000,-0.02585,0.05344,0.02842,-0.00162,0.00985,-0.02245,-0.03831,1.00626,0.76383,0.00000,-1.09153,-1.07566,-0.02581,-0.00093,0.72224,-0.16841,-0.01853,-1.57924,A,143259.10
0.77799,57.68782666,11.98137490,57.68782650,11.98137250,14:32:59.281652,0.00337,0.00000,-0.02582,0.05344,0.03148,0.00495,0.01000,-0.03373,-0.02470,1.00339,0.77460,0.00000,-1.09153,-1.07566,-0.02581,-0.00093,0.72224,-0.16841,-0.01853,-1.57924,A,143259.10
0.78816,57.68782666,11.98137490,57.68782650,11.98137250,14:32:59.291840,0.00315,0.00000,-0.02575,0.05344,0.03407,0.00266,0.00771,-0.01251,-0.02257,0.99723,0.78457,0.00000,-1.09153,-1.07566,-0.02581,-0.00093,0.72224,-0.16841,-0.01853,-1.57924,A,143259.10
0.79856,57.68782666,11.98137490,57.68782650,11.98137250,14:32:59.302232,0.00315,0.00000,-0.02557,0.05344,0.03728,0.00632,0.01077,0.01013,-0.01867,1.01144,0.79518,0.00000,-1.09153,-1.07566,-0.02581,-0.00093,0.72224,-0.16841,-0.01853,-1.57924,A,143259.10
0.80895,57.68782666,11.98137490,57.68782650,11.98137250,14:32:59.312627,0.00314,0.00000,-0.02532,0.05344,0.03728,-0.00025,0.00970,0.01580,-0.01366,1.00784,0.80557,0.00000,-1.09153,-1.07566,-0.02581,-0.00093,0.72224,-0.16841,-0.01853,-1.57924,A,143259.10
0.81903,57.68782666,11.98137490,57.68782650,11.98137250,14:32:59.322704,0.00299,0.00000,-0.02508,0.05344,0.03926,-0.00300,0.00909,-0.00885,-0.01421,1.01534,0.81565,0.00000,-1.09153,-1.07566,-0.02581,-0.00093,0.72224,-0.16841,-0.01853,-1.57924,A,143259.10
0.84268,57.68782666,11.98137490,57.68782667,11.98137200,14:32:59.346364,0.01624,0.00000,-0.02501,0.05344,0.04125,-0.00865,0.00573,-0.03166,-0.02867,1.01486,0.82623,0.00000,-1.09153,-1.07566,-0.02581,-0.00093,0.84139,-0.19812,0.00000,-1.58217,A,143259.20
0.85434,57.68782666,11.98137475,57.68782667,11.98137200,14:32:59.358013,0.00552,0.00000,-0.02451,0.05344,0.04079,0.00296,0.00481,-0.00872,-0.02940,0.98155,0.84850,0.00000,-1.16751,-1.15163,-0.03443,-0.00088,0.84139,-0.19812,0.00000,-1.58217,A,143259.20
0.86272,57.68782666,11.98137475,57.68782667,11.98137200,14:32:59.366388,0.00350,0.00000,-0.02428,0.05344,0.03316,-0.00055,0.00939,-0.02330,-0.01189,0.98539,0.85933,0.00000,-1.16751,-1.15163,-0.03443,-0.00088,0.84139,-0.19812,0.00000,-1.58217,A,143259.20
0.87278,57.68782666,11.98137475,57.68782667,11.98137200,14:32:59.376452,0.00317,0.00000,-0.02383,0.05344,0.04110,0.00159,0.00680,-0.03904,-0.00043,0.99674,0.86939,0.00000,-1.16751,-1.15163,-0.03443,-0.00088,0.84139,-0.19812,0.00000,-1.58217,A,143259.20
0.88309,57.68782666,11.98137475,57.68782667,11.98137200,14:32:59.386766,0.00300,0.00000,-0.02358,0.05344,0.04033,0.00143,0.00344,-0.02605,-0.01311,0.99723,0.87971,0.00000,-1.16751,-1.15163,-0.03443,-0.00088,0.84139,-0.19812,0.00000,-1.58217,A,143259.20
0.89364,57.68782666,11.98137475,57.68782667,11.98137200,14:32:59.397304,0.00315,0.00000,-0.02321,0.05344,0.04659,0.00861,0.00481,-0.00860,-0.01006,0.99991,0.89025,0.00000,-1.16751,-1.15163,-0.03443,-0.00088,0.84139,-0.19812,0.00000,-1.58217,A,143259.20
0.90405,57.68782666,11.98137475,57.68782667,11.98137200,14:32:59.407721,0.00316,0.00000,-0.02308,0.05344,0.04491,0.00525,0.00771,-0.00598,-0.02379,0.99796,0.90045,0.00000,-1.16751,-1.15163,-0.03443,-0.00088,0.84139,-0.19812,0.00000,-1.58217,A,143259.20
0.91444,57.68782666,11.98137475,57.68782667,11.98137200,14:32:59.418116,0.00316,0.00000,-0.02278,0.05344,0.04217,0.00220,0.00069,-0.00275,-0.01122,1.00156,0.91106,0.00000,-1.16751,-1.15163,-0.03443,-0.00088,0.84139,-0.19812,0.00000,-1.58217,A,143259.20
0.92680,57.68782666,11.98137475,57.68782667,11.98137200,14:32:59.430483,0.00446,0.00000,-0.02257,0.05344,0.04415,-0.00727,0.00634,0.00897,-0.02361,0.99680,0.92338,0.00000,-1.16751,-1.15163,-0.03443,-0.00088,0.84139,-0.19812,0.00000,-1.58217,A,143259.20
0.93629,57.68782666,11.98137475,57.68782667,11.98137200,14:32:59.439965,0.00329,0.00000,-0.02238,0.05344,0.04140,-0.01552,0.00283,0.01037,-0.01403,0.97759,0.93285,0.00000,-1.16751,-1.15163,-0.03443,-0.00088,0.84139,-0.19812,0.00000,-1.58217,A,143259.20
0.97248,57.68782666,11.98137475,57.68782733,11.98137133,14:32:59.476168,0.02909,0.00000,-0.02202,0.05344,0.04812,-0.02025,0.00359,-0.02690,-0.01000,0.98198,0.94318,0.00000,-1.16751,-1.15163,-0.03443,-0.00088,0.97103,-0.23775,0.07413,-1.58524,A,143259.40
0.98843,57.68782669,11.98137458,57.68782733,11.98137133,14:32:59.492123,0.00727,0.00000,-0.02076,0.05341,0.04614,0.00586,0.00741,0.01165,-0.03471,0.97612,0.98236,0.00000,-1.23255,-1.21668,-0.04459,0.00287,0.97103,-0.23775,0.07413,-1.58524,A,143259.40
0.99470,57.68782669,11.98137458,57.68782733,11.98137133,14:32:59.498375,0.00297,0.00000,-0.02054,0.05338,0.04415,-0.00223,0.00939,0.01299,-0.01061,0.97978,0.99132,0.00000,-1.23255,-1.21668,-0.04459,0.00287,0.97103,-0.23775,0.07413,-1.58524,A,143259.40
1.00536,57.68782669,11.98137458,57.68782733,11.98137133,14:32:59.509034,0.00323,0.00000,-0.01982,0.05332,0.04507,-0.00880,0.00787,-0.00439,0.01696,1.01449,1.00198,0.00000,-1.23255,-1.21668,-0.04459,0.00287,0.97103,-0.23775,0.07413,-1.58524,A,143259.40
1.01536,57.68782669,11.98137458,57.68782733,11.98137133,14:32:59.519232,0.00300,0.00000,-0.01886,0.05327,0.04354,-0.01628,0.00817,-0.06106,0.03782,1.03316,1.01198,0.00000,-1.23255,-1.21668,-0.04459,0.00287,0.97103,-0.23775,0.07413,-1.58524,A,143259.40
1.02593,57.68782669,11.98137458,57.68782733,11.98137133,14:32:59.529599,0.00317,0.00000,-0.01824,0.05321,0.05576,-0.00605,0.00176,-0.04673,0.00537,1.06201,1.02255,0.00000,-1.23255,-1.21668,-0.04459,0.00287,0.97103,-0.23775,0.07413,-1.58524,A,143259.40
1.03660,57.68782669,11.98137458,57.68782733,11.98137133,14:32:59.540273,0.00318,0.00000,-0.01826,0.05318,0.05224,0.00006,0.00344,-0.01068,-0.03666,1.05347,1.03319,0.00000,-1.23255,-1.21668,-0.04459,0.00287,0.97103,-0.23775,0.07413,-1.58524,A,143259.40
1.04694,57.68782669,11.98137458,57.68782733,11.98137133,14:32:59.550611,0.00298,0.00000,-0.01834,0.05318,0.04873,0.00082,0.00130,0.02355,-0.03611,1.00247,1.04355,0.00000,-1.23255,-1.21668,-0.04459,0.00287,0.97103,-0.23775,0.07413,-1.58524,A,143259.40
1.05755,57.68782669,11.98137458,57.68782733,11.98137133,14:32:59.561218,0.00317,0.00000,-0.01834,0.05318,0.04323,-0.00895,0.00832,0.02227,-0.02556,0.94520,1.05416,0.00000,-1.23255,-1.21668,-0.04459,0.00287,0.97103,-0.23775,0.07413,-1.58524,A,143259.40
1.06794,57.68782669,11.98137458,57.68782733,11.98137133,14:32:59.571628,0.00316,0.00000,-0.01783,0.05318,0.03438,-0.01628,0.01031,-0.01592,0.01196,0.91164,1.06435,0.00000,-1.23255,-1.21668,-0.04459,0.00287,0.97103,-0.23775,0.07413,-1.58524,A,143259.40
1.09093,57.68782669,11.98137458,57.68782750,11.98137100,14:32:59.594613,0.01575,0.00000,-0.01738,0.05315,0.04049,-0.02163,0.00955,-0.06942,0.00531,0.95819,1.07497,0.00000,-1.23255,-1.21668,-0.04459,0.00287,1.08967,-0.25756,0.09266,-1.57933,A,143259.50
1.10521,57.68782673,11.98137440,57.68782750,11.98137100,14:32:59.608888,0.00739,0.00000,-0.01640,0.05307,0.05301,0.01105,0.00527,-0.03251,-0.01385,1.05817,1.09858,0.00000,-1.28693,-1.27116,-0.05524,0.00736,1.08967,-0.25756,0.09266,-1.57933,A,143259.50
1.11105,57.68782673,11.98137440,57.68782750,11.98137100,14:32:59.614717,0.00301,0.00000,-0.01617,0.05307,0.04598,0.01854,0.00558,0.03074,-0.00854,1.06317,1.10766,0.00000,-1.28693,-1.27116,-0.05524,0.00736,1.08967,-0.25756,0.09266,-1.57933,A,143259.50
1.12161,57.68782673,11.98137440,57.68782750,11.98137100,14:32:59.625280,0.00317,0.00000,-0.01640,0.05307,0.03819,0.00922,0.00726,0.03489,-0.03739,1.02254,1.11823,0.00000,-1.28693,-1.27116,-0.05524,0.00736,1.08967,-0.25756,0.09266,-1.57933,A,143259.50
1.13203,57.68782673,11.98137440,57.68782750,11.98137100,14:32:59.635705,0.00319,0.00000,-0.01604,0.05307,0.03148,-0.00070,0.00512,-0.00549,0.00708,0.97600,1.12841,0.00000,-1.28693,-1.27116,-0.05524,0.00736,1.08967,-0.25756,0.09266,-1.57933,A,143259.50
1.14241,57.68782673,11.98137440,57.68782750,11.98137100,14:32:59.646082,0.00317,0.00000,-0.01532,0.05307,0.03193,-0.01414,0.00756,-0.01098,0.02855,0.93043,1.13902,0.00000,-1.28693,-1.27116,-0.05524,0.00736,1.08967,-0.25756,0.09266,-1.57933,A,143259.50
1.15354,57.68782673,11.98137440,57.68782750,11.98137100,14:32:59.657227,0.00391,0.00000,-0.01440,0.05307,0.03102,-0.02667,0.00939,-0.04032,0.04264,0.95575,1.15012,0.00000,-1.28693,-1.27116,-0.05524,0.00736,1.08967,-0.25756,0.09266,-1.57933,A,143259.50
1.16317,57.68782673,11.98137440,57.68782750,11.98137100,14:32:59.666833,0.00320,0.00000,-0.01390,0.05307,0.03835,-0.02071,0.00558,-0.08180,0.01641,1.01364,1.15978,0.00000,-1.28693,-1.27116,-0.05524,0.00736,1.08967,-0.25756,0.09266,-1.57933,A,143259.50
1.17350,57.68782673,11.98137440,57.68782750,11.98137100,14:32:59.677173,0.00314,0.00000,-0.01371,0.05307,0.04247,0.00372,0.00573,-0.05868,-0.01000,1.04902,1.17013,0.00000,-1.28693,-1.27116,-0.05524,0.00736,1.08967,-0.25756,0.09266,-1.57933,A,143259.50
1.18392,57.68782673,11.98137440,57.68782750,11.98137100,14:32:59.687600,0.00316,0.00000,-0.01399,0.05307,0.03804,0.01915,0.01031,0.01031,-0.03715,1.02254,1.18034,0.00000,-1.28693,-1.27116,-0.05524,0.00736,1.08967,-0.25756,0.09266,-1.57933,A,143259.50
1.20695,57.68782673,11.98137440,57.68782750,11.98137050,14:32:59.710626,0.01579,0.00000,-0.01463,0.05307,0.02613,0.01197,0.00832,0.00311,-0.05417,0.99332,1.19096,0.00000,-1.28693,-1.27116,-0.05524,0.00736,1.20568,-0.28728,0.09266,-1.58211,A,143259.60
1.22277,57.68782677,11.98137421,57.68782750,11.98137050,14:32:59.726445,0.00667,0.00000,-0.01308,0.05307,0.01315,-0.00467,0.00558,-0.05716,0.08583,0.98125,1.21743,0.00000,-1.33357,-1.31781,-0.06684,0.01162,1.20568,-0.28728,0.09266,-1.58211,A,143259.60
1.22969,57.68782677,11.98137421,57.68782750,11.98137050,14:32:59.733357,0.00319,0.00000,-0.01207,0.05301,0.01666,-0.00544,0.00359,-0.03812,0.06673,1.01229,1.22630,0.00000,-1.33357,-1.31781,-0.06684,0.01162,1.20568,-0.28728,0.09266,-1.58211,A,143259.60
1.24008,57.68782677,11.98137421,57.68782750,11.98137050,14:32:59.743751,0.00317,0.00000,-0.01169,0.05290,0.02735,0.00036,0.00130,-0.01800,0.01610,1.03322,1.23647,0.00000,-1.33357,-1.31781,-0.06684,0.01162,1.20568,-0.28728,0.09266,-1.58211,A,143259.60
1.25053,57.68782677,11.98137421,57.68782750,11.98137050,14:32:59.754200,0.00323,0.00000,-0.01230,0.05270,0.02140,-0.00009,0.00176,-0.01311,-0.04849,1.04530,1.24715,0.00000,-1.33357,-1.31781,-0.06684,0.01162,1.20568,-0.28728,0.09266,-1.58211,A,143259.60
1.26175,57.68782677,11.98137421,57.68782750,11.98137050,14:32:59.765453,0.00405,0.00000,-0.01330,0.05239,0.00933,0.00510,0.00283,-0.04160,-0.06509,1.01742,1.25739,0.00000,-1.33357,-1.31781,-0.06684,0.01162,1.20568,-0.28728,0.09266,-1.58211,A,143259.60
1.27096,57.68782677,11.98137421,57.68782750,11.98137050,14:32:59.774630,0.00299,0.00000,-0.01363,0.05199,-0.00762,0.00754,-0.00130,-0.07503,-0.00909,0.99271,1.26758,0.00000,-1.33357,-1.31781,-0.06684,0.01162,1.20568,-0.28728,0.09266,-1.58211,A,143259.60
1.28152,57.68782677,11.98137421,57.68782750,11.98137050,14:32:59.785189,0.00315,0.00000,-0.01304,0.05151,-0.01052,0.01304,0.00359,-0.05136,0.05209,0.96136,1.27814,0.00000,-1.33357,-1.31781,-0.06684,0.01162,1.20568,-0.28728,0.09266,-1.58211,A,143259.60
1.29193,57.68782677,11.98137421,57.68782750,11.98137050,14:32:59.795615,0.00316,0.00000,-0.01240,0.05100,-0.00426,0.00724,-0.00130,-0.00281,0.05112,0.95331,1.28833,0.00000,-1.33357,-1.31781,-0.06684,0.01162,1.20568,-0.28728,0.09266,-1.58211,A,143259.60
1.30233,57.68782677,11.98137421,57.68782750,11.98137050,14:32:59.805993,0.00317,0.00000,-0.01196,0.05041,0.00154,0.00892,-0.00114,-0.00525,0.03532,0.96856,1.29895,0.00000,-1.33357,-1.31781,-0.06684,0.01162,1.20568,-0.28728,0.09266,-1.58211,A,143259.60
1.32522,57.68782677,11.98137421,57.68782817,11.98137033,14:32:59.828896,0.01566,0.00000,-0.01214,0.04978,0.00200,0.00342,0.00008,-0.00555,-0.00378,0.99863,1.30931,0.00000,-1.33357,-1.31781,-0.06684,0.01162,1.32395,-0.29719,0.16679,-1.57657,A,143259.70
1.34120,57.68782684,11.98137401,57.68782817,11.98137033,14:32:59.844874,0.00708,0.00000,-0.01292,0.04814,-0.01434,0.01136,0.00298,-0.01598,-0.01854,1.00418,1.33557,0.00000,-1.37217,-1.35787,-0.07836,0.01938,1.32395,-0.29719,0.16679,-1.57657,A,143259.70
1.34736,57.68782684,11.98137401,57.68782817,11.98137033,14:32:59.851231,0.00301,0.00000,-0.01319,0.04761,-0.01205,0.01411,0.00542,-0.00939,-0.00323,0.99936,1.34397,0.00000,-1.37217,-1.35787,-0.07836,0.01938,1.32395,-0.29719,0.16679,-1.57657,A,143259.70
1.35807,57.68782684,11.98137401,57.68782817,11.98137033,14:32:59.861740,0.00332,0.00000,-0.01328,0.04693,-0.01907,0.00266,0.00573,0.00811,0.01501,0.98826,1.35467,0.00000,-1.37217,-1.35787,-0.07836,0.01938,1.32395,-0.29719,0.16679,-1.57657,A,143259.70
1.36834,57.68782684,11.98137401,57.68782817,11.98137033,14:32:59.872003,0.00318,0.00000,-0.01321,0.04619,-0.01785,-0.00315,0.00023,-0.00207,0.02385,0.99186,1.36493,0.00000,-1.37217,-1.35787,-0.07836,0.01938,1.32395,-0.29719,0.16679,-1.57657,A,143259.70
1.37879,57.68782684,11.98137401,57.68782817,11.98137033,14:32:59.882467,0.00300,0.00000,-0.01326,0.04540,-0.00793,-0.00452,-0.00038,-0.02647,0.01000,0.98088,1.37541,0.00000,-1.37217,-1.35787,-0.07836,0.01938,1.32395,-0.29719,0.16679,-1.57657,A,143259.70
1.38936,57.68782684,11.98137401,57.68782817,11.98137033,14:32:59.893026,0.00316,0.00000,-0.01378,0.04460,-0.00915,0.00098,-0.00252,-0.05813,-0.02050,0.98552,1.38598,0.00000,-1.37217,-1.35787,-0.07836,0.01938,1.32395,-0.29719,0.16679,-1.57657,A,143259.70
1.39976,57.68782684,11.98137401,57.68782817,11.98137033,14:32:59.903443,0.00316,0.00000,-0.01437,0.04387,-0.00991,0.00953,-0.00435,-0.02708,-0.02464,0.98515,1.39617,0.00000,-1.37217,-1.35787,-0.07836,0.01938,1.32395,-0.29719,0.16679,-1.57657,A,143259.70
1.41018,57.68782684,11.98137401,57.68782817,11.98137033,14:32:59.913844,0.00319,0.00000,-0.01506,0.04319,-0.01984,0.00647,-0.00542,-0.01263,-0.02580,0.99387,1.40679,0.00000,-1.37217,-1.35787,-0.07836,0.01938,1.32395,-0.29719,0.16679,-1.57657,A,143259.70
1.42119,57.68782684,11.98137401,57.68782817,11.98137033,14:32:59.925399,0.00380,0.00000,-0.01520,0.04265,-0.02442,0.00388,-0.00267,-0.01159,0.01488,0.99729,1.41781,0.00000,-1.37217,-1.35787,-0.07836,0.01938,1.32395,-0.29719,0.16679,-1.57657,A,143259.70
1.44369,57.68782684,11.98137401,57.68782867,11.98137017,14:32:59.947380,0.01576,0.00000,-0.01502,0.04231,-0.01846,-0.00040,-0.00007,-0.02678,0.02952,1.01559,1.42753,0.00000,-1.37217,-1.35787,-0.07836,0.01938,1.44224,-0.30709,0.22239,-1.57654,A,143259.80
1.45757,57.68782693,11.98137382,57.68782867,11.98137017,14:32:59.961247,0.00738,0.00000,-0.01534,0.04192,-0.00777,0.00495,0.00267,-0.00030,-0.00299,1.00327,1.45191,0.00000,-1.40469,-1.39224,-0.08980,0.02953,1.44224,-0.30709,0.22239,-1.57654,A,143259.80
1.46413,57.68782693,11.98137382,57.68782867,11.98137017,14:32:59.967807,0.00342,0.00000,-0.01581,0.04189,-0.00808,-0.00009,-0.00099,0.01147,-0.02086,0.99650,1.46051,0.00000,-1.40469,-1.39224,-0.08980,0.02953,1.44224,-0.30709,0.22239,-1.57654,A,143259.80
1.47428,57.68782693,11.98137382,57.68782867,11.98137017,14:32:59.977948,0.00317,0.00000,-0.01627,0.04189,-0.01067,-0.00330,0.00481,-0.01324,-0.01732,0.98039,1.47089,0.00000,-1.40469,-1.39224,-0.08980,0.02953,1.44224,-0.30709,0.22239,-1.57654,A,143259.80
1.48467,57.68782693,11.98137382,57.68782867,11.98137017,14:32:59.988343,0.00316,0.00000,-0.01653,0.04189,-0.01724,-0.00254,0.00451,-0.04557,-0.00110,0.98527,1.48127,0.00000,-1.40469,-1.39224,-0.08980,0.02953,1.44224,-0.30709,0.22239,-1.57654,A,143259.80
1.49495,57.68782693,11.98137382,57.68782867,11.98137017,14:32:59.998618,0.00299,0.00000,-0.01666,0.04189,-0.00182,-0.00162,-0.00069,-0.04947,-0.00281,0.99595,1.49156,0.00000,-1.40469,-1.39224,-0.08980,0.02953,1.44224,-0.30709,0.22239,-1.57654,A,143259.80
1.50568,57.68782693,11.98137382,57.68782867,11.98137017,14:33:00.009351,0.00332,0.00000,-0.01672,0.04189,0.00154,0.00739,0.00161,-0.04801,-0.00110,1.01608,1.50229,0.00000,-1.40469,-1.39224,-0.08980,0.02953,1.44224,-0.30709,0.22239,-1.57654,A,143259.80
1.51592,57.68782693,11.98137382,57.68782867,11.98137017,14:33:00.019610,0.00316,0.00000,-0.01694,0.04189,0.00139,0.00831,0.00099,-0.00275,-0.01116,1.00693,1.51233,0.00000,-1.40469,-1.39224,-0.08980,0.02953,1.44224,-0.30709,0.22239,-1.57654,A,143259.80
1.52634,57.68782693,11.98137382,57.68782867,11.98137017,14:33:00.030005,0.00318,0.00000,-0.01725,0.04189,0.00383,0.00525,0.00191,0.01647,-0.01891,0.99967,1.52295,0.00000,-1.40469,-1.39224,-0.08980,0.02953,1.44224,-0.30709,0.22239,-1.57654,A,143259.80
1.53673,57.68782693,11.98137382,57.68782867,11.98137017,14:33:00.040410,0.00318,0.00000,-0.01739,0.04189,-0.00014,-0.00330,0.00390,-0.00970,-0.00543,1.00375,1.53334,0.00000,-1.40469,-1.39224,-0.08980,0.02953,1.44224,-0.30709,0.22239,-1.57654,A,143259.80
1.56025,57.68782693,11.98137382,57.68782933,11.98136950,14:33:00.063923,0.01628,0.00000,-0.01731,0.04189,0.00857,-0.00620,0.00130,-0.03282,0.00305,0.99723,1.54355,0.00000,-1.40469,-1.39224,-0.08980,0.02953,1.55880,-0.34672,0.29652,-1.58524,A,143259.90
1.57192,57.68782705,11.98137361,57.68782933,11.98136950,14:33:00.075610,0.00578,0.00000,-0.01738,0.04189,0.01605,-0.00300,0.00634,-0.00994,-0.02440,0.97637,1.56607,0.00000,-1.43364,-1.42120,-0.10264,0.04288,1.55880,-0.34672,0.29652,-1.58524,A,143259.90
1.57947,57.68782705,11.98137361,57.68782933,11.98136950,14:33:00.083381,0.00294,0.00000,-0.01750,0.04189,0.01972,-0.00070,0.00390,0.00189,-0.01677,0.98137,1.57611,0.00000,-1.43364,-1.42120,-0.10264,0.04288,1.55880,-0.34672,0.29652,-1.58524,A,143259.90
1.59029,57.68782705,11.98137361,57.68782933,11.98136950,14:33:00.093956,0.00335,0.00000,-0.01766,0.04189,0.02460,-0.00529,0.00390,0.01226,-0.02434,0.99680,1.58689,0.00000,-1.43364,-1.42120,-0.10264,0.04288,1.55880,-0.34672,0.29652,-1.58524,A,143259.90
1.60050,57.68782705,11.98137361,57.68782933,11.98136950,14:33:00.104174,0.00317,0.00000,-0.01763,0.04189,0.02094,-0.00880,0.00634,-0.04599,-0.00897,1.01211,1.59710,0.00000,-1.43364,-1.42120,-0.10264,0.04288,1.55880,-0.34672,0.29652,-1.58524,A,143259.90
1.61084,57.68782705,11.98137361,57.68782933,11.98136950,14:33:00.114515,0.00296,0.00000,-0.01740,0.04189,0.02521,-0.00269,0.00741,-0.04526,0.00183,1.00223,1.60747,0.00000,-1.43364,-1.42120,-0.10264,0.04288,1.55880,-0.34672,0.29652,-1.58524,A,143259.90
1.62144,57.68782705,11.98137361,57.68782933,11.98136950,14:33:00.125112,0.00317,0.00000,-0.01711,0.04189,0.02598,-0.00422,0.00558,-0.03331,0.00439,0.98222,1.61806,0.00000,-1.43364,-1.42120,-0.10264,0.04288,1.55880,-0.34672,0.29652,-1.58524,A,143259.90
1.63192,57.68782705,11.98137361,57.68782933,11.98136950,14:33:00.135608,0.00324,0.00000,-0.01675,0.04189,0.02857,0.00311,0.00420,-0.01214,0.00878,0.96587,1.62825,0.00000,-1.43364,-1.42120,-0.10264,0.04288,1.55880,-0.34672,0.29652,-1.58524,A,143259.90
1.64225,57.68782705,11.98137361,57.68782933,11.98136950,14:33:00.145923,0.00318,0.00000,-0.01664,0.04189,0.02521,0.00342,0.00267,0.00689,-0.00555,0.95837,1.63886,0.00000,-1.43364,-1.42120,-0.10264,0.04288,1.55880,-0.34672,0.29652,-1.58524,A,143259.90
1.65262,57.68782705,11.98137361,57.68782933,11.98136950,14:33:00.156294,0.00316,0.00000,-0.01642,0.04189,0.02216,-0.00284,-0.00084,-0.03184,0.00396,0.99387,1.64922,0.00000,-1.43364,-1.42120,-0.10264,0.04288,1.55880,-0.34672,0.29652,-1.58524,A,143259.90
1.68770,57.68782705,11.98137361,57.68783033,11.98136883,14:33:00.191392,0.02773,0.00000,-0.01638,0.04189,0.01804,-0.00208,-0.00175,-0.04849,-0.00714,1.02144,1.66115,0.00000,-1.43364,-1.42120,-0.10264,0.04288,1.68631,-0.38634,0.40771,-1.58540,A,143300.10
1.70725,57.68782722,11.98137337,57.68783033,11.98136883,14:33:00.211196,0.00760,0.00000,-0.01578,0.04189,0.01605,-0.01704,-0.00130,-0.03306,0.00165,1.01040,1.70183,0.00000,-1.45827,-1.44583,-0.11683,0.06112,1.68631,-0.38634,0.40771,-1.58540,A,143300.10
1.71324,57.68782722,11.98137337,57.68783033,11.98136883,14:33:00.216908,0.00319,0.00000,-0.01579,0.04189,0.01147,-0.00941,0.00069,-0.06832,-0.00098,1.00180,1.70985,0.00000,-1.45827,-1.44583,-0.11683,0.06112,1.68631,-0.38634,0.40771,-1.58540,A,143300.10
1.72326,57.68782722,11.98137337,57.68783033,11.98136883,14:33:00.227142,0.00298,0.00000,-0.01574,0.04189,0.01437,0.00143,0.00619,-0.09583,-0.00128,1.03255,1.71989,0.00000,-1.45827,-1.44583,-0.11683,0.06112,1.68631,-0.38634,0.40771,-1.58540,A,143300.10
1.73384,57.68782722,11.98137337,57.68783033,11.98136883,14:33:00.237507,0.00315,0.00000,-0.01598,0.04189,0.00215,0.00968,0.00237,-0.05429,-0.01238,1.04176,1.73046,0.00000,-1.45827,-1.44583,-0.11683,0.06112,1.68631,-0.38634,0.40771,-1.58540,A,143300.10
1.74422,57.68782722,11.98137337,57.68783033,11.98136883,14:33:00.247892,0.00314,0.00000,-0.01591,0.04186,-0.00136,0.00937,0.00344,-0.00885,0.01068,1.01510,1.74082,0.00000,-1.45827,-1.44583,-0.11683,0.06112,1.68631,-0.38634,0.40771,-1.58540,A,143300.10
1.75464,57.68782722,11.98137337,57.68783033,11.98136883,14:33:00.258300,0.00316,0.00000,-0.01547,0.04175,-0.00060,0.00204,-0.00191,0.01708,0.03373,0.96703,1.75126,0.00000,-1.45827,-1.44583,-0.11683,0.06112,1.68631,-0.38634,0.40771,-1.58540,A,143300.10
1.76537,57.68782722,11.98137337,57.68783033,11.98136883,14:33:00.269041,0.00334,0.00000,-0.01529,0.04158,-0.00319,-0.00483,-0.00282,0.00262,0.01848,0.92988,1.76199,0.00000,-1.45827,-1.44583,-0.11683,0.06112,1.68631,-0.38634,0.40771,-1.58540,A,143300.10
1.77526,57.68782722,11.98137337,57.68783033,11.98136883,14:33:00.279146,0.00299,0.00000,-0.01505,0.04132,0.00307,-0.00773,-0.00557,-0.02623,0.01775,0.89841,1.77188,0.00000,-1.45827,-1.44583,-0.11683,0.06112,1.68631,-0.38634,0.40771,-1.58540,A,143300.10
1.78583,57.68782722,11.98137337,57.68783033,11.98136883,14:33:00.289496,0.00317,0.00000,-0.01556,0.04104,-0.00334,-0.01307,-0.01138,-0.04551,-0.02440,0.93422,1.78245,0.00000,-1.45827,-1.44583,-0.11683,0.06112,1.68631,-0.38634,0.40771,-1.58540,A,143300.10
1.80886,57.68782722,11.98137337,57.68783067,11.98136833,14:33:00.312537,0.01579,0.00000,-0.01585,0.04084,-0.00899,-0.00391,-0.00588,-0.06832,-0.00744,0.99418,1.79294,0.00000,-1.45827,-1.44583,-0.11683,0.06112,1.80756,-0.41606,0.44478,-1.58223,A,143300.20
1.82702,57.68782739,11.98137312,57.68783067,11.98136833,14:33:00.330694,0.00676,0.00000,-0.01600,0.04070,-0.00029,0.00861,0.00084,0.04990,-0.00458,1.08190,1.82163,0.00000,-1.47868,-1.46659,-0.13179,0.08031,1.80756,-0.41606,0.44478,-1.58223,A,143300.20
1.83385,57.68782739,11.98137312,57.68783067,11.98136833,14:33:00.337525,0.00319,0.00000,-0.01614,0.04070,-0.00472,-0.00544,0.00664,0.03471,-0.00122,1.03468,1.83047,0.00000,-1.47868,-1.46659,-0.13179,0.08031,1.80756,-0.41606,0.44478,-1.58223,A,143300.20
1.84420,57.68782739,11.98137312,57.68783067,11.98136833,14:33:00.347882,0.00315,0.00000,-0.01605,0.04070,-0.00350,-0.01323,0.00756,-0.00018,0.01269,0.97826,1.84081,0.00000,-1.47868,-1.46659,-0.13179,0.08031,1.80756,-0.41606,0.44478,-1.58223,A,143300.20
1.85461,57.68782739,11.98137312,57.68783067,11.98136833,14:33:00.358276,0.00316,0.00000,-0.01593,0.04070,-0.00609,-0.01811,0.01046,-0.08461,0.01623,0.94501,1.85123,0.00000,-1.47868,-1.46659,-0.13179,0.08031,1.80756,-0.41606,0.44478,-1.58223,A,143300.20
1.86543,57.68782739,11.98137312,57.68783067,11.98136833,14:33:00.369102,0.00356,0.00000,-0.01576,0.04070,0.00200,0.00250,0.00527,-0.07857,0.01458,0.96581,1.86204,0.00000,-1.47868,-1.46659,-0.13179,0.08031,1.80756,-0.41606,0.44478,-1.58223,A,143300.20
1.87510,57.68782739,11.98137312,57.68783067,11.98136833,14:33:00.378775,0.00301,0.00000,-0.01595,0.04070,-0.00166,0.00876,0.00130,-0.02965,-0.00647,0.96532,1.87172,0.00000,-1.47868,-1.46659,-0.13179,0.08031,1.80756,-0.41606,0.44478,-1.58223,A,143300.20
1.88564,57.68782739,11.98137312,57.68783067,11.98136833,14:33:00.389315,0.00315,0.00000,-0.01615,0.04070,-0.00212,0.00434,0.00466,0.02763,-0.00653,0.96514,1.88226,0.00000,-1.47868,-1.46659,-0.13179,0.08031,1.80756,-0.41606,0.44478,-1.58223,A,143300.20
1.89605,57.68782739,11.98137312,57.68783067,11.98136833,14:33:00.399726,0.00316,0.00000,-0.01649,0.04070,-0.00563,-0.00452,0.00069,0.03355,-0.01379,1.00272,1.89245,0.00000,-1.47868,-1.46659,-0.13179,0.08031,1.80756,-0.41606,0.44478,-1.58223,A,143300.20
1.90643,57.68782739,11.98137312,57.68783067,11.98136833,14:33:00.410104,0.00314,0.00000,-0.01667,0.04070,-0.01403,-0.01353,0.00283,-0.04197,0.00268,1.04548,1.90306,0.00000,-1.47868,-1.46659,-0.13179,0.08031,1.80756,-0.41606,0.44478,-1.58223,A,143300.20
1.93003,57.68782739,11.98137312,57.68783133,11.98136783,14:33:00.433701,0.01634,0.00000,-0.01657,0.04070,-0.01251,-0.00513,0.00084,-0.02830,0.01982,1.03169,1.91339,0.00000,-1.47868,-1.46659,-0.13179,0.08031,1.92873,-0.44578,0.51891,-1.58235,A,143300.30
1.94135,57.68782759,11.98137285,57.68783133,11.98136783,14:33:00.445030,0.00751,0.00000,-0.01671,0.04070,-0.00487,-0.01185,-0.00007,0.02330,0.00232,0.98478,1.93569,0.00000,-1.49604,-1.48395,-0.14749,0.10224,1.92873,-0.44578,0.51891,-1.58235,A,143300.30
1.94707,57.68782759,11.98137285,57.68783133,11.98136783,14:33:00.450744,0.00299,0.00000,-0.01680,0.04070,-0.00380,-0.01078,-0.00007,-0.01000,0.00049,0.98552,1.94369,0.00000,-1.49604,-1.48395,-0.14749,0.10224,1.92873,-0.44578,0.51891,-1.58235,A,143300.30
1.95766,57.68782759,11.98137285,57.68783133,11.98136783,14:33:00.461323,0.00318,0.00000,-0.01715,0.04070,-0.00777,-0.01094,0.00329,-0.05954,-0.01385,1.00796,1.95426,0.00000,-1.49604,-1.48395,-0.14749,0.10224,1.92873,-0.44578,0.51891,-1.58235,A,143300.30
1.96803,57.68782759,11.98137285,57.68783133,11.98136783,14:33:00.471710,0.00316,0.00000,-0.01759,0.04070,-0.00915,-0.00376,0.00664,-0.05661,-0.01958,1.00497,1.96444,0.00000,-1.49604,-1.48395,-0.14749,0.10224,1.92873,-0.44578,0.51891,-1.58235,A,143300.30
1.97843,57.68782759,11.98137285,57.68783133,11.98136783,14:33:00.482105,0.00316,0.00000,-0.01755,0.04070,-0.01785,0.00785,0.00435,-0.00085,0.01824,0.98515,1.97505,0.00000,-1.49604,-1.48395,-0.14749,0.10224,1.92873,-0.44578,0.51891,-1.58235,A,143300.30
1.98876,57.68782759,11.98137285,57.68783133,11.98136783,14:33:00.492437,0.00309,0.00000,-0.01781,0.04070,-0.02121,-0.00086,0.00176,0.03019,0.00043,0.97508,1.98538,0.00000,-1.49604,-1.48395,-0.14749,0.10224,1.92873,-0.44578,0.51891,-1.58235,A,143300.30
2.00151,57.68782759,11.98137285,57.68783133,11.98136783,14:33:00.505205,0.00433,0.00000,-0.01781,0.04070,-0.01968,-0.01170,0.00619,0.00445,0.01848,0.99210,1.99744,0.00000,-1.49604,-1.48395,-0.14749,0.10224,1.92873,-0.44578,0.51891,-1.58235,A,143300.30
2.01412,57.68782759,11.98137285,57.68783133,11.98136783,14:33:00.517851,0.00638,0.00000,-0.01789,0.04070,-0.01480,-0.01170,-0.00114,-0.03660,0.00769,1.00375,2.00736,0.00000,2.26845,2.28053,-0.44578,0.51891,1.92873,-0.44578,0.51891,-1.58235,A,143300.30
2.02485,57.68782759,11.98137285,57.68783133,11.98136783,14:33:00.528524,0.00670,0.00000,-0.01818,-0.00946,-0.02366,-0.00162,-0.00282,-0.03910,0.00604,1.01138,2.02142,0.00000,2.26845,2.28053,-0.44578,0.51891,1.92873,-0.44578,0.51891,-1.58235,A,143300.30
2.04517,57.68782759,11.98137285,57.68783183,11.98136683,14:33:00.548843,0.01662,0.00000,-0.01885,-0.00946,-0.02259,-0.00315,-0.00252,-0.04599,-0.03263,1.01400,2.02812,0.00000,2.26845,2.28053,-0.44578,0.51891,2.04302,-0.50522,0.57451,-1.59091,A,143300.40
2.05756,57.68783136,11.98136778,57.68783183,11.98136683,14:33:00.561241,0.00547,0.00000,-0.01971,-0.00954,-0.04045,-0.00559,-0.00420,-0.00683,0.00817,0.97569,2.05194,0.00000,1.68997,1.68714,-0.44875,0.52169,2.04302,-0.50522,0.57451,-1.59091,A,143300.40
2.06913,57.68783136,11.98136778,57.68783183,11.98136683,14:33:00.572804,0.00651,0.00000,-0.01993,-0.00974,-0.03404,0.00036,-0.00084,-0.04673,0.01757,1.00565,2.06571,0.00000,1.68997,1.68714,-0.44875,0.52169,2.04302,-0.50522,0.57451,-1.59091,A,143300.40
2.07622,57.68783136,11.98136778,57.68783183,11.98136683,14:33:00.579902,0.00321,0.00000,-0.01999,-0.00994,-0.02915,0.00189,-0.00405,-0.06490,0.01098,1.01242,2.07281,0.00000,1.68997,1.68714,-0.44875,0.52169,2.04302,-0.50522,0.57451,-1.59091,A,143300.40
2.08677,57.68783136,11.98136778,57.68783183,11.98136683,14:33:00.590442,0.00309,0.00000,-0.02034,-0.01045,-0.03526,0.00632,-0.00313,-0.02568,0.00189,1.03072,2.08337,0.00000,1.68997,1.68714,-0.44875,0.52169,2.04302,-0.50522,0.57451,-1.59091,A,143300.40
2.09881,57.68783136,11.98136778,57.68783183,11.98136683,14:33:00.602488,0.00334,0.00000,-0.02118,-0.01124,-0.03389,0.01411,-0.00496,0.00390,-0.02867,0.99863,2.09541,0.00000,1.68997,1.68714,-0.44875,0.52169,2.04302,-0.50522,0.57451,-1.59091,A,143300.40
2.10940,57.68783136,11.98136778,57.68783183,11.98136683,14:33:00.613094,0.00352,0.00000,-0.02167,-0.01195,-0.04137,0.00831,-0.00252,-0.00714,-0.00458,0.99448,2.10568,0.00000,1.68997,1.68714,-0.44875,0.52169,2.04302,-0.50522,0.57451,-1.59091,A,143300.40
2.11913,57.68783136,11.98136778,57.68783183,11.98136683,14:33:00.622804,0.00303,0.00000,-0.02214,-0.01260,-0.03328,0.00800,-0.00374,-0.03428,-0.01031,0.99814,2.11574,0.00000,1.68997,1.68714,-0.44875,0.52169,2.04302,-0.50522,0.57451,-1.59091,A,143300.40
2.12969,57.68783136,11.98136778,57.68783183,11.98136683,14:33:00.633355,0.00319,0.00000,-0.02235,-0.01308,-0.03480,0.00876,0.00008,-0.05356,0.00958,1.00034,2.12631,0.00000,1.68997,1.68714,-0.44875,0.52169,2.04302,-0.50522,0.57451,-1.59091,A,143300.40
2.14010,57.68783136,11.98136778,57.68783183,11.98136683,14:33:00.643779,0.00320,0.00000,-0.02249,-0.01330,-0.03297,0.00892,0.00191,-0.02416,0.01092,0.98228,2.13650,0.00000,1.68997,1.68714,-0.44875,0.52169,2.04302,-0.50522,0.57451,-1.59091,A,143300.40
2.17735,57.68783136,11.98136778,57.68783300,11.98136600,14:33:00.681036,0.03005,0.00000,-0.02297,-0.01336,-0.02595,0.00968,0.00145,0.01397,-0.01494,0.97417,2.14710,0.00000,1.68997,1.68714,-0.44875,0.52169,2.17517,-0.55475,0.70423,-1.58842,A,143300.60
2.19067,57.68783144,11.98136769,57.68783300,11.98136600,14:33:00.694345,0.00763,0.00000,-0.02389,-0.01336,-0.01571,0.00876,-0.00114,0.00092,-0.02458,0.98820,2.18417,0.00000,1.19880,1.19484,-0.45405,0.53082,2.17517,-0.55475,0.70423,-1.58842,A,143300.60
2.19665,57.68783144,11.98136769,57.68783300,11.98136600,14:33:00.700326,0.00321,0.00000,-0.02432,-0.01336,-0.00838,0.00266,0.00069,-0.01128,-0.02623,0.97100,2.19324,0.00000,1.19880,1.19484,-0.45405,0.53082,2.17517,-0.55475,0.70423,-1.58842,A,143300.60
2.20696,57.68783144,11.98136769,57.68783300,11.98136600,14:33:00.710629,0.00300,0.00000,-0.02428,-0.01336,-0.01739,-0.00025,-0.00588,-0.02001,0.01128,0.99180,2.20357,0.00000,1.19880,1.19484,-0.45405,0.53082,2.17517,-0.55475,0.70423,-1.58842,A,143300.60
2.21754,57.68783144,11.98136769,57.68783300,11.98136600,14:33:00.721213,0.00319,0.00000,-0.02449,-0.01336,-0.00533,-0.00391,-0.00679,-0.01946,-0.01348,0.99936,2.21415,0.00000,1.19880,1.19484,-0.45405,0.53082,2.17517,-0.55475,0.70423,-1.58842,A,143300.60
2.22796,57.68783144,11.98136769,57.68783300,11.98136600,14:33:00.731633,0.00320,0.00000,-0.02448,-0.01336,0.00078,-0.00193,-0.00221,-0.00073,-0.00311,1.00497,2.22435,0.00000,1.19880,1.19484,-0.45405,0.53082,2.17517,-0.55475,0.70423,-1.58842,A,143300.60
2.23835,57.68783144,11.98136769,57.68783300,11.98136600,14:33:00.742018,0.00320,0.00000,-0.02488,-0.01336,0.00475,-0.00147,-0.00160,-0.00945,-0.03404,1.01931,2.23495,0.00000,1.19880,1.19484,-0.45405,0.53082,2.17517,-0.55475,0.70423,-1.58842,A,143300.60
2.24876,57.68783144,11.98136769,57.68783300,11.98136600,14:33:00.752431,0.00320,0.00000,-0.02511,-0.01336,0.00658,-0.00376,-0.00069,-0.01952,-0.02397,1.00717,2.24536,0.00000,1.19880,1.19484,-0.45405,0.53082,2.17517,-0.55475,0.70423,-1.58842,A,143300.60
2.25913,57.68783144,11.98136769,57.68783300,11.98136600,14:33:00.762803,0.00317,0.00000,-0.02513,-0.01336,0.00780,-0.00712,0.00206,-0.07387,-0.01086,0.99650,2.25572,0.00000,1.19880,1.19484,-0.45405,0.53082,2.17517,-0.55475,0.70423,-1.58842,A,143300.60
2.26954,57.68783144,11.98136769,57.68783300,11.98136600,14:33:00.773214,0.00317,0.00000,-0.02494,-0.01336,0.01727,0.00876,0.00023,-0.02965,-0.00311,0.97704,2.26616,0.00000,1.19880,1.19484,-0.45405,0.53082,2.17517,-0.55475,0.70423,-1.58842,A,143300.60
2.29653,57.68783144,11.98136769,57.68783383,11.98136533,14:33:00.800211,0.01977,0.00000,-0.02473,-0.01336,0.01605,0.01014,0.00252,-0.04904,-0.00043,0.99290,2.27635,0.00000,1.19880,1.19484,-0.45405,0.53082,2.29434,-0.59437,0.79690,-1.58532,A,143300.70
2.31218,57.68783156,11.98136758,57.68783383,11.98136533,14:33:00.815865,0.00650,0.00000,-0.02401,-0.01336,0.01788,-0.00544,0.00573,-0.01909,0.00860,1.01498,2.30655,0.00000,0.78178,0.77781,-0.46107,0.54412,2.29434,-0.59437,0.79690,-1.58532,A,143300.70
2.31895,57.68783156,11.98136758,57.68783383,11.98136533,14:33:00.822622,0.00299,0.00000,-0.02373,-0.01336,0.02292,0.00235,0.00115,-0.06222,0.00232,1.03059,2.31557,0.00000,0.78178,0.77781,-0.46107,0.54412,2.29434,-0.59437,0.79690,-1.58532,A,143300.70
2.32952,57.68783156,11.98136758,57.68783383,11.98136533,14:33:00.833191,0.00315,0.00000,-0.02351,-0.01336,0.02628,0.00968,-0.00160,-0.00396,-0.00653,1.00125,2.32614,0.00000,0.78178,0.77781,-0.46107,0.54412,2.29434,-0.59437,0.79690,-1.58532,A,143300.70
2.34008,57.68783156,11.98136758,57.68783383,11.98136533,14:33:00.843765,0.00332,0.00000,-0.02367,-0.01336,0.02414,0.00525,-0.00832,0.02489,-0.02788,0.96313,2.33634,0.00000,0.78178,0.77781,-0.46107,0.54412,2.29434,-0.59437,0.79690,-1.58532,A,143300.70
2.35032,57.68783156,11.98136758,57.68783383,11.98136533,14:33:00.853985,0.00316,0.00000,-0.02394,-0.01336,0.01422,-0.00712,-0.00542,-0.01592,-0.02940,0.96148,2.34693,0.00000,0.78178,0.77781,-0.46107,0.54412,2.29434,-0.59437,0.79690,-1.58532,A,143300.70
2.36073,57.68783156,11.98136758,57.68783383,11.98136533,14:33:00.864398,0.00317,0.00000,-0.02373,-0.01336,0.00964,-0.00941,-0.00405,0.00079,0.00403,0.94446,2.35735,0.00000,0.78178,0.77781,-0.46107,0.54412,2.29434,-0.59437,0.79690,-1.58532,A,143300.70
2.37097,57.68783156,11.98136758,57.68783383,11.98136533,14:33:00.874636,0.00300,0.00000,-0.02340,-0.01336,0.02002,-0.01292,-0.00481,-0.04819,0.00622,0.97210,2.36759,0.00000,0.78178,0.77781,-0.46107,0.54412,2.29434,-0.59437,0.79690,-1.58532,A,143300.70
2.38154,57.68783156,11.98136758,57.68783383,11.98136533,14:33:00.885213,0.00317,0.00000,-0.02307,-0.01336,0.01895,-0.01338,-0.00679,-0.03934,0.00598,1.00662,2.37814,0.00000,0.78178,0.77781,-0.46107,0.54412,2.29434,-0.59437,0.79690,-1.58532,A,143300.70
2.39192,57.68783156,11.98136758,57.68783383,11.98136533,14:33:00.895600,0.00316,0.00000,-0.02299,-0.01336,0.02491,-0.01033,-0.00527,-0.00250,-0.01360,1.02992,2.38832,0.00000,0.78178,0.77781,-0.46107,0.54412,2.29434,-0.59437,0.79690,-1.58532,A,143300.70
2.41612,57.68783156,11.98136758,57.68783450,11.98136483,14:33:00.919801,0.01696,0.00000,-0.02310,-0.01339,0.01651,-0.00376,-0.00908,-0.02660,-0.02172,1.04365,2.39920,0.00000,0.78178,0.77781,-0.46107,0.54412,2.41399,-0.62409,0.87103,-1.58235,A,143300.80
2.43177,57.68783171,11.98136744,57.68783450,11.98136483,14:33:00.935455,0.00670,0.00000,-0.02244,-0.01396,0.01483,0.01044,-0.00863,-0.03666,0.01586,1.02565,2.42618,0.00000,0.42778,0.42364,-0.46922,0.56047,2.41399,-0.62409,0.87103,-1.58235,A,143300.80
2.43860,57.68783171,11.98136744,57.68783450,11.98136483,14:33:00.942275,0.00314,0.00000,-0.02231,-0.01438,0.01437,0.00434,-0.00970,0.03233,-0.00140,0.97057,2.43523,0.00000,0.42778,0.42364,-0.46922,0.56047,2.41399,-0.62409,0.87103,-1.58235,A,143300.80
2.44906,57.68783171,11.98136744,57.68783450,11.98136483,14:33:00.952735,0.00319,0.00000,-0.02170,-0.01503,0.01468,-0.01002,-0.01061,0.03068,0.02757,0.92397,2.44568,0.00000,0.42778,0.42364,-0.46922,0.56047,2.41399,-0.62409,0.87103,-1.58235,A,143300.80
2.45910,57.68783171,11.98136744,57.68783450,11.98136483,14:33:00.962767,0.00300,0.00000,-0.02190,-0.01574,0.02185,-0.02208,-0.00664,0.01403,-0.02653,0.91927,2.45570,0.00000,0.42778,0.42364,-0.46922,0.56047,2.41399,-0.62409,0.87103,-1.58235,A,143300.80
2.46969,57.68783171,11.98136744,57.68783450,11.98136483,14:33:00.973357,0.00318,0.00000,-0.02167,-0.01653,0.01758,-0.02483,-0.00878,-0.08449,0.00268,0.97362,2.46631,0.00000,0.42778,0.42364,-0.46922,0.56047,2.41399,-0.62409,0.87103,-1.58235,A,143300.80
2.48006,57.68783171,11.98136744,57.68783450,11.98136483,14:33:00.983734,0.00316,0.00000,-0.02197,-0.01721,0.02262,-0.01078,-0.01031,-0.07308,-0.03672,1.02413,2.47647,0.00000,0.42778,0.42364,-0.46922,0.56047,2.41399,-0.62409,0.87103,-1.58235,A,143300.80
2.49045,57.68783171,11.98136744,57.68783450,11.98136483,14:33:00.994119,0.00315,0.00000,-0.02243,-0.01783,0.01788,-0.00284,-0.00710,-0.00146,-0.04465,1.00827,2.48707,0.00000,0.42778,0.42364,-0.46922,0.56047,2.41399,-0.62409,0.87103,-1.58235,A,143300.80
2.50077,57.68783171,11.98136744,57.68783450,11.98136483,14:33:01.004448,0.00307,0.00000,-0.02260,-0.01831,0.01575,-0.00544,-0.00511,0.07125,-0.02275,0.98832,2.49738,0.00000,0.42778,0.42364,-0.46922,0.56047,2.41399,-0.62409,0.87103,-1.58235,A,143300.80
2.51111,57.68783171,11.98136744,57.68783450,11.98136483,14:33:01.014783,0.00302,0.00000,-0.02247,-0.01868,0.00964,-0.01704,-0.00267,-0.01366,0.00006,1.00924,2.50772,0.00000,0.42778,0.42364,-0.46922,0.56047,2.41399,-0.62409,0.87103,-1.58235,A,143300.80
2.53629,57.68783171,11.98136744,57.68783500,11.98136400,14:33:01.039978,0.01780,0.00000,-0.02152,-0.01899,0.01300,-0.01139,-0.01031,-0.09113,0.05435,1.02492,2.51827,0.00000,0.42778,0.42364,-0.46922,0.56047,2.53316,-0.67362,0.92662,-1.58804,A,143300.90
2.55493,57.68783187,11.98136727,57.68783500,11.98136400,14:33:01.058608,0.00704,0.00000,-0.02161,-0.01998,0.00796,-0.00635,-0.01397,0.04782,-0.02135,0.95434,2.54952,0.00000,0.12630,0.12037,-0.47944,0.57877,2.53316,-0.67362,0.92662,-1.58804,A,143300.90
2.56164,57.68783187,11.98136727,57.68783500,11.98136400,14:33:01.065321,0.00335,0.00000,-0.02167,-0.02047,0.00063,-0.01720,-0.01122,-0.01555,-0.00494,1.01791,2.55809,0.00000,0.12630,0.12037,-0.47944,0.57877,2.53316,-0.67362,0.92662,-1.58804,A,143300.90
2.57204,57.68783187,11.98136727,57.68783500,11.98136400,14:33:01.075710,0.00333,0.00000,-0.02132,-0.02109,-0.00166,-0.00987,-0.01275,-0.08747,0.02477,1.05451,2.56843,0.00000,0.12630,0.12037,-0.47944,0.57877,2.53316,-0.67362,0.92662,-1.58804,A,143300.90
2.58226,57.68783187,11.98136727,57.68783500,11.98136400,14:33:01.085933,0.00316,0.00000,-0.02119,-0.02177,0.00490,0.00372,-0.01260,-0.07375,0.00500,1.04993,2.57888,0.00000,0.12630,0.12037,-0.47944,0.57877,2.53316,-0.67362,0.92662,-1.58804,A,143300.90
2.59279,57.68783187,11.98136727,57.68783500,11.98136400,14:33:01.096458,0.00317,0.00000,-0.02121,-0.02253,0.00383,0.01060,-0.01367,-0.03324,-0.00415,0.99399,2.58939,0.00000,0.12630,0.12037,-0.47944,0.57877,2.53316,-0.67362,0.92662,-1.58804,A,143300.90
2.60294,57.68783187,11.98136727,57.68783500,11.98136400,14:33:01.106614,0.00297,0.00000,-0.02144,-0.02332,-0.00151,0.00739,-0.01535,0.03764,-0.01360,0.96966,2.59956,0.00000,0.12630,0.12037,-0.47944,0.57877,2.53316,-0.67362,0.92662,-1.58804,A,143300.90
2.61351,57.68783187,11.98136727,57.68783500,11.98136400,14:33:01.117187,0.00314,0.00000,-0.02160,-0.02417,-0.00793,-0.00376,-0.01642,-0.03367,-0.00549,0.97637,2.61014,0.00000,0.12630,0.12037,-0.47944,0.57877,2.53316,-0.67362,0.92662,-1.58804,A,143300.90
2.62392,57.68783187,11.98136727,57.68783500,11.98136400,14:33:01.127602,0.00316,0.00000,-0.02162,-0.02499,-0.01083,-0.00849,-0.01687,-0.05100,0.00488,0.97332,2.62033,0.00000,0.12630,0.12037,-0.47944,0.57877,2.53316,-0.67362,0.92662,-1.58804,A,143300.90
2.64782,57.68783187,11.98136727,57.68783600,11.98136367,14:33:01.151506,0.01666,0.00000,-0.02133,-0.02576,-0.00777,0.00128,-0.02161,-0.05972,0.02397,0.98234,2.63094,0.00000,0.12630,0.12037,-0.47944,0.57877,2.64568,-0.69343,1.03782,-1.57956,A,143301.00
2.66337,57.68783208,11.98136709,57.68783600,11.98136367,14:33:01.167292,0.00654,0.00000,-0.02164,-0.02726,-0.00854,-0.00055,-0.01535,0.00348,-0.00598,0.99210,2.65801,0.00000,-0.12837,-0.13646,-0.49014,0.60173,2.64568,-0.69343,1.03782,-1.57956,A,143301.00
2.67040,57.68783208,11.98136709,57.68783600,11.98136367,14:33:01.174075,0.00316,0.00000,-0.02181,-0.02763,-0.01663,-0.00345,-0.01229,-0.02605,-0.00171,1.01687,2.66702,0.00000,-0.12837,-0.13646,-0.49014,0.60173,2.64568,-0.69343,1.03782,-1.57956,A,143301.00
2.68078,57.68783208,11.98136709,57.68783600,11.98136367,14:33:01.184458,0.00315,0.00000,-0.02182,-0.02794,-0.01617,-0.00605,-0.01428,-0.06155,0.00982,1.04926,2.67739,0.00000,-0.12837,-0.13646,-0.49014,0.60173,2.64568,-0.69343,1.03782,-1.57956,A,143301.00
2.69094,57.68783208,11.98136709,57.68783600,11.98136367,14:33:01.194611,0.00298,0.00000,-0.02189,-0.02828,-0.01862,0.00159,-0.01351,-0.05783,0.00738,1.00809,2.68757,0.00000,-0.12837,-0.13646,-0.49014,0.60173,2.64568,-0.69343,1.03782,-1.57956,A,143301.00
2.70150,57.68783208,11.98136709,57.68783600,11.98136367,14:33:01.205175,0.00314,0.00000,-0.02228,-0.02867,-0.02518,0.00174,-0.01855,0.01501,-0.00958,0.98216,2.69813,0.00000,-0.12837,-0.13646,-0.49014,0.60173,2.64568,-0.69343,1.03782,-1.57956,A,143301.00
2.71272,57.68783208,11.98136709,57.68783600,11.98136367,14:33:01.216403,0.00397,0.00000,-0.02271,-0.02915,-0.02503,-0.00880,-0.02252,0.04459,-0.01043,0.93470,2.70931,0.00000,-0.12837,-0.13646,-0.49014,0.60173,2.64568,-0.69343,1.03782,-1.57956,A,143301.00
2.72232,57.68783208,11.98136709,57.68783600,11.98136367,14:33:01.225989,0.00317,0.00000,-0.02291,-0.02964,-0.03282,-0.01643,-0.02298,-0.03916,0.00537,0.95544,2.71895,0.00000,-0.12837,-0.13646,-0.49014,0.60173,2.64568,-0.69343,1.03782,-1.57956,A,143301.00
2.73272,57.68783208,11.98136709,57.68783600,11.98136367,14:33:01.236399,0.00317,0.00000,-0.02307,-0.03020,-0.03007,-0.00513,-0.02222,-0.09363,0.00811,0.99778,2.72934,0.00000,-0.12837,-0.13646,-0.49014,0.60173,2.64568,-0.69343,1.03782,-1.57956,A,143301.00
2.74296,57.68783208,11.98136709,57.68783600,11.98136367,14:33:01.246628,0.00300,0.00000,-0.02340,-0.03080,-0.02915,0.00708,-0.02451,-0.06991,-0.00445,1.00180,2.73957,0.00000,-0.12837,-0.13646,-0.49014,0.60173,2.64568,-0.69343,1.03782,-1.57956,A,143301.00
2.77801,57.68783208,11.98136709,57.68783700,11.98136200,14:33:01.281692,0.02765,0.00000,-0.02374,-0.03136,-0.03358,0.01151,-0.02512,0.00689,-0.00232,1.00705,2.75012,0.00000,-0.12837,-0.13646,-0.49014,0.60173,2.77600,-0.79250,1.14901,-1.60292,A,143301.20
2.79635,57.68783232,11.98136683,57.68783700,11.98136200,14:33:01.300025,0.00767,0.00000,-0.02489,-0.03283,-0.03511,0.01594,-0.01779,-0.07631,0.01324,1.03346,2.79010,0.00000,-0.34809,-0.35783,-0.50526,0.62909,2.77600,-0.79250,1.14901,-1.60292,A,143301.20
2.80395,57.68783232,11.98136683,57.68783700,11.98136200,14:33:01.307637,0.00488,0.97958,-0.02528,-0.03297,-0.03526,0.01365,-0.02130,0.00738,-0.00872,0.99826,2.80033,0.00000,-0.34809,-0.35783,-0.50526,0.62909,2.77600,-0.79250,1.14901,-1.60292,A,143301.20
2.81263,57.68783232,11.98136683,57.68783700,11.98136200,14:33:01.316293,0.00315,0.97958,-0.02590,-0.03300,-0.03587,0.00846,-0.02176,0.03867,-0.02617,0.95282,2.80923,0.00000,-0.34809,-0.35783,-0.50526,0.62909,2.77600,-0.79250,1.14901,-1.60292,A,143301.20
2.82295,57.68783232,11.98136683,57.68783700,11.98136200,14:33:01.326623,0.00299,0.97958,-0.02626,-0.03300,-0.04442,-0.00559,-0.02405,0.00250,-0.00152,0.97435,2.81956,0.00000,-0.34809,-0.35783,-0.50526,0.62909,2.77600,-0.79250,1.14901,-1.60292,A,143301.20
2.83352,57.68783232,11.98136683,57.68783700,11.98136200,14:33:01.337189,0.00316,0.97958,-0.02703,-0.03300,-0.03496,-0.00361,-0.02604,-0.08967,-0.03587,1.01803,2.83014,0.00000,-0.34809,-0.35783,-0.50526,0.62909,2.77600,-0.79250,1.14901,-1.60292,A,143301.20
2.84393,57.68783232,11.98136683,57.68783700,11.98136200,14:33:01.347612,0.00317,0.97958,-0.02736,-0.03300,-0.04534,0.01090,-0.02481,-0.06240,-0.00043,1.00321,2.84034,0.00000,-0.34809,-0.35783,-0.50526,0.62909,2.77600,-0.79250,1.14901,-1.60292,A,143301.20
2.85448,57.68783232,11.98136683,57.68783700,11.98136200,14:33:01.358153,0.00332,0.97958,-0.02796,-0.03300,-0.03847,0.01411,-0.02695,0.03697,-0.02025,0.92525,2.85108,0.00000,-0.34809,-0.35783,-0.50526,0.62909,2.77600,-0.79250,1.14901,-1.60292,A,143301.20
2.86500,57.68783232,11.98136683,57.68783700,11.98136200,14:33:01.368677,0.00345,0.97958,-0.02873,-0.03300,-0.04824,-0.00880,-0.02207,0.04825,-0.02611,0.92141,2.86160,0.00000,-0.34809,-0.35783,-0.50526,0.62909,2.77600,-0.79250,1.14901,-1.60292,A,143301.20
2.87493,57.68783232,11.98136683,57.68783700,11.98136200,14:33:01.378612,0.00298,0.97958,-0.02890,-0.03300,-0.05664,-0.02239,-0.02252,-0.01757,0.01434,0.95258,2.87156,0.00000,-0.34809,-0.35783,-0.50526,0.62909,2.77600,-0.79250,1.14901,-1.60292,A,143301.20
2.89886,57.68783232,11.98136683,57.68783783,11.98136133,14:33:01.402538,0.01650,0.97958,-0.02914,-0.03300,-0.04595,-0.02468,-0.02252,-0.10486,0.00555,1.03413,2.88213,0.00000,-0.34809,-0.35783,-0.50526,0.62909,2.89687,-0.83212,1.24168,-1.58532,A,143301.30
2.91719,57.68783260,11.98136656,57.68783783,11.98136133,14:33:01.420871,0.00747,0.97958,-0.03077,-0.03300,-0.04015,0.00327,-0.02069,0.03538,-0.04227,1.00131,2.91149,0.19592,-0.53220,-0.54200,-0.52160,0.65972,2.89687,-0.83212,1.24168,-1.58532,A,143301.30
2.92295,57.68783260,11.98136656,57.68783783,11.98136133,14:33:01.426621,0.00301,0.97958,-0.03119,-0.03300,-0.05145,-0.00605,-0.01810,-0.08265,-0.01385,1.06195,2.91957,0.19592,-0.53220,-0.54200,-0.52160,0.65972,2.89687,-0.83212,1.24168,-1.58532,A,143301.30
2.93350,57.68783260,11.98136656,57.68783783,11.98136133,14:33:01.437163,0.00315,0.97958,-0.03153,-0.03300,-0.04885,0.01014,-0.01916,-0.14213,-0.00122,1.08318,2.93012,0.19592,-0.53220,-0.54200,-0.52160,0.65972,2.89687,-0.83212,1.24168,-1.58532,A,143301.30
2.94391,57.68783260,11.98136656,57.68783783,11.98136133,14:33:01.447592,0.00317,0.97958,-0.03157,-0.03300,-0.03877,0.02709,-0.01932,-0.05661,0.00994,1.00430,2.94032,0.19592,-0.53220,-0.54200,-0.52160,0.65972,2.89687,-0.83212,1.24168,-1.58532,A,143301.30
2.95449,57.68783260,11.98136656,57.68783783,11.98136133,14:33:01.458156,0.00334,0.97958,-0.03224,-0.03300,-0.03618,0.01655,-0.02069,0.08363,-0.02904,0.88413,2.95110,0.19592,-0.53220,-0.54200,-0.52160,0.65972,2.89687,-0.83212,1.24168,-1.58532,A,143301.30
2.96463,57.68783260,11.98136656,57.68783783,11.98136133,14:33:01.468298,0.00318,0.97958,-0.03281,-0.03300,-0.04427,-0.01246,-0.01947,0.06844,-0.02068,0.89829,2.96123,0.19592,-0.53220,-0.54200,-0.52160,0.65972,2.89687,-0.83212,1.24168,-1.58532,A,143301.30
2.97495,57.68783260,11.98136656,57.68783783,11.98136133,14:33:01.478617,0.00298,0.97958,-0.03281,-0.03300,-0.03740,-0.03659,-0.01596,-0.07064,0.01025,0.96380,2.97156,0.19592,-0.53220,-0.54200,-0.52160,0.65972,2.89687,-0.83212,1.24168,-1.58532,A,143301.30
2.98551,57.68783260,11.98136656,57.68783783,11.98136133,14:33:01.489176,0.00314,0.97958,-0.03284,-0.03300,-0.02732,-0.02850,-0.02100,-0.13664,0.00287,1.05786,2.98213,0.19592,-0.53220,-0.54200,-0.52160,0.65972,2.89687,-0.83212,1.24168,-1.58532,A,143301.30
2.99590,57.68783260,11.98136656,57.68783783,11.98136133,14:33:01.499583,0.00314,0.97958,-0.03347,-0.03300,-0.02060,-0.00086,-0.01642,-0.07741,-0.04624,1.08196,2.99233,0.19592,-0.53220,-0.54200,-0.52160,0.65972,2.89687,-0.83212,1.24168,-1.58532,A,143301.30
3.01974,57.68783260,11.98136656,57.68783867,11.98136033,14:33:01.523429,0.01659,0.97958,-0.03460,-0.03300,-0.02121,0.00464,-0.01855,0.03270,-0.07723,1.01992,3.00293,0.19592,-0.53220,-0.54200,-0.52160,0.65972,3.01762,-0.89156,1.33434,-1.59113,A,143301.40
3.03512,57.68783280,11.98136655,57.68783867,11.98136033,14:33:01.538806,0.00804,0.97958,-0.03473,-0.03300,-0.02335,-0.01704,-0.00389,-0.12054,0.01525,1.07555,3.02811,0.35265,-0.69015,-0.69994,-0.52184,0.68246,3.01762,-0.89156,1.33434,-1.59113,A,143301.40
3.04068,57.68783280,11.98136655,57.68783867,11.98136033,14:33:01.544357,0.00320,0.97958,-0.03417,-0.03300,-0.01129,-0.00880,-0.00313,-0.11407,0.02867,1.04731,3.03729,0.35265,-0.69015,-0.69994,-0.52184,0.68246,3.01762,-0.89156,1.33434,-1.59113,A,143301.40
3.05122,57.68783280,11.98136655,57.68783867,11.98136033,14:33:01.554886,0.00325,0.97958,-0.03408,-0.03300,-0.00105,0.00143,0.00237,-0.04831,-0.00878,0.96154,3.04781,0.35265,-0.69015,-0.69994,-0.52184,0.68246,3.01762,-0.89156,1.33434,-1.59113,A,143301.40
3.06789,57.68783280,11.98136655,57.68783867,11.98136033,14:33:01.571613,0.00807,0.97958,-0.03382,-0.03300,0.00475,-0.00895,0.00176,0.07247,-0.00372,0.85803,3.06411,0.35265,-0.69015,-0.69994,-0.52184,0.68246,3.01762,-0.89156,1.33434,-1.59113,A,143301.40
3.07605,57.68783280,11.98136655,57.68783867,11.98136033,14:33:01.579749,0.00426,0.97958,-0.03416,-0.03300,-0.00243,-0.02270,0.00573,-0.05697,-0.03257,0.88066,3.07229,0.35265,-0.69015,-0.69994,-0.52184,0.68246,3.01762,-0.89156,1.33434,-1.59113,A,143301.40
3.08537,57.68783280,11.98136655,57.68783867,11.98136033,14:33:01.589038,0.00318,0.97958,-0.03355,-0.03289,-0.00121,-0.01689,-0.00267,-0.14292,0.02403,0.94715,3.08199,0.35265,-0.69015,-0.69994,-0.52184,0.68246,3.01762,-0.89156,1.33434,-1.59113,A,143301.40
3.09579,57.68783280,11.98136655,57.68783867,11.98136033,14:33:01.599475,0.00321,0.97958,-0.03372,-0.03247,0.00215,0.00831,-0.00221,-0.15695,-0.02861,1.02358,3.09217,0.35265,-0.69015,-0.69994,-0.52184,0.68246,3.01762,-0.89156,1.33434,-1.59113,A,143301.40
3.10618,57.68783280,11.98136655,57.68783867,11.98136033,14:33:01.609850,0.00320,0.97958,-0.03386,-0.03167,0.00261,0.02953,-0.00527,-0.03697,-0.02745,1.05024,3.10280,0.35265,-0.69015,-0.69994,-0.52184,0.68246,3.01762,-0.89156,1.33434,-1.59113,A,143301.40
3.11656,57.68783280,11.98136655,57.68783867,11.98136033,14:33:01.620233,0.00317,0.97958,-0.03400,-0.03057,0.00185,0.02709,-0.00191,0.09174,-0.02751,1.04304,3.11316,0.35265,-0.69015,-0.69994,-0.52184,0.68246,3.01762,-0.89156,1.33434,-1.59113,A,143301.40
3.14105,57.68783280,11.98136655,57.68783933,11.98135917,14:33:01.644733,0.01712,0.97958,-0.03368,-0.02930,-0.00212,-0.00147,-0.00252,0.06435,0.00848,1.05786,3.12355,0.35265,-0.69015,-0.69994,-0.52184,0.68246,3.13887,-0.96090,1.40847,-1.59391,A,143301.50
3.15237,57.68783291,11.98136668,57.68783933,11.98135917,14:33:01.656051,0.00575,0.97958,-0.03299,-0.02683,0.01437,-0.00712,-0.00542,-0.08375,0.00897,0.99967,3.14673,0.47803,-0.82556,-0.83352,-0.51427,0.69390,3.13887,-0.96090,1.40847,-1.59391,A,143301.50
3.16036,57.68783291,11.98136668,57.68783933,11.98135917,14:33:01.664034,0.00334,0.97958,-0.03341,-0.02607,0.00857,-0.00116,-0.00771,-0.03916,-0.04526,0.93916,3.15694,0.47803,-0.82556,-0.83352,-0.51427,0.69390,3.13887,-0.96090,1.40847,-1.59391,A,143301.50
3.17069,57.68783291,11.98136668,57.68783933,11.98135917,14:33:01.674364,0.00334,0.97958,-0.03386,-0.02556,0.00536,-0.00315,-0.00420,0.03404,-0.04374,0.90335,3.16729,0.47803,-0.82556,-0.83352,-0.51427,0.69390,3.13887,-0.96090,1.40847,-1.59391,A,143301.50
3.18078,57.68783291,11.98136668,57.68783933,11.98135917,14:33:01.684449,0.00303,0.97958,-0.03403,-0.02533,0.00185,-0.01659,-0.00145,0.00787,-0.02501,0.91250,3.17739,0.47803,-0.82556,-0.83352,-0.51427,0.69390,3.13887,-0.96090,1.40847,-1.59391,A,143301.50
3.19100,57.68783291,11.98136668,57.68783933,11.98135917,14:33:01.694680,0.00300,0.97958,-0.03368,-0.02530,0.00338,-0.01231,0.00099,-0.04917,0.00543,0.95733,3.18762,0.47803,-0.82556,-0.83352,-0.51427,0.69390,3.13887,-0.96090,1.40847,-1.59391,A,143301.50
3.20202,57.68783291,11.98136668,57.68783933,11.98135917,14:33:01.705701,0.00335,0.97958,-0.03342,-0.02530,0.01437,-0.00055,-0.00023,-0.10608,-0.00817,1.03346,3.19862,0.47803,-0.82556,-0.83352,-0.51427,0.69390,3.13887,-0.96090,1.40847,-1.59391,A,143301.50
3.21225,57.68783291,11.98136668,57.68783933,11.98135917,14:33:01.715921,0.00317,0.97958,-0.03369,-0.02530,0.00429,0.01319,-0.00084,-0.04727,-0.03733,1.07275,3.20885,0.47803,-0.82556,-0.83352,-0.51427,0.69390,3.13887,-0.96090,1.40847,-1.59391,A,143301.50
3.22264,57.68783291,11.98136668,57.68783933,11.98135917,14:33:01.726308,0.00317,0.97958,-0.03372,-0.02530,0.00460,0.00708,-0.00130,0.00043,-0.02172,1.07763,3.21926,0.47803,-0.82556,-0.83352,-0.51427,0.69390,3.13887,-0.96090,1.40847,-1.59391,A,143301.50
3.23328,57.68783291,11.98136668,57.68783933,11.98135917,14:33:01.736956,0.00341,0.97958,-0.03371,-0.02530,-0.00243,-0.00849,-0.00130,0.07454,-0.01263,1.05262,3.22989,0.47803,-0.82556,-0.83352,-0.51427,0.69390,3.13887,-0.96090,1.40847,-1.59391,A,143301.50
3.26771,57.68783291,11.98136668,57.68784083,11.98135750,14:33:01.771412,0.02760,0.97958,-0.03340,-0.02530,-0.00014,-0.02651,-0.00634,-0.01068,0.00610,1.03615,3.23974,0.47803,-0.82556,-0.83352,-0.51427,0.69390,3.26530,-1.05996,1.57526,-1.60345,A,143301.70
3.28263,57.68783292,11.98136688,57.68784083,11.98135750,14:33:01.786307,0.00738,0.97958,-0.03443,-0.02530,-0.00228,0.01533,-0.01519,0.01122,-0.06856,0.87547,3.27723,0.57834,-0.94239,-0.94990,-0.50235,0.69479,3.26530,-1.05996,1.57526,-1.60345,A,143301.70
3.28877,57.68783292,11.98136688,57.68784083,11.98135750,14:33:01.792447,0.00305,0.97958,-0.03425,-0.02530,-0.00594,0.00235,-0.01321,0.03373,-0.00055,0.88175,3.28538,0.57834,-0.94239,-0.94990,-0.50235,0.69479,3.26530,-1.05996,1.57526,-1.60345,A,143301.70
3.29902,57.68783292,11.98136688,57.68784083,11.98135750,14:33:01.802685,0.00299,0.97958,-0.03413,-0.02530,-0.00976,-0.00223,-0.01000,-0.08436,-0.00018,0.99711,3.29564,0.57834,-0.94239,-0.94990,-0.50235,0.69479,3.26530,-1.05996,1.57526,-1.60345,A,143301.70
3.30960,57.68783292,11.98136688,57.68784083,11.98135750,14:33:01.813266,0.00316,0.97958,-0.03394,-0.02530,-0.00273,0.00571,-0.00725,-0.09150,-0.00073,1.06396,3.30622,0.57834,-0.94239,-0.94990,-0.50235,0.69479,3.26530,-1.05996,1.57526,-1.60345,A,143301.70
3.31999,57.68783292,11.98136688,57.68784083,11.98135750,14:33:01.823656,0.00316,0.97958,-0.03390,-0.02530,0.00200,0.02327,-0.01122,-0.05203,-0.01421,1.05963,3.31639,0.57834,-0.94239,-0.94990,-0.50235,0.69479,3.26530,-1.05996,1.57526,-1.60345,A,143301.70
3.33109,57.68783292,11.98136688,57.68784083,11.98135750,14:33:01.834756,0.00377,0.97958,-0.03449,-0.02530,-0.00380,0.02037,-0.01321,0.07588,-0.05234,1.00863,3.32768,0.57834,-0.94239,-0.94990,-0.50235,0.69479,3.26530,-1.05996,1.57526,-1.60345,A,143301.70
3.34079,57.68783292,11.98136688,57.68784083,11.98135750,14:33:01.844456,0.00307,0.97958,-0.03452,-0.02530,-0.01159,-0.00055,-0.01443,0.01696,-0.01043,1.02645,3.33739,0.57834,-0.94239,-0.94990,-0.50235,0.69479,3.26530,-1.05996,1.57526,-1.60345,A,143301.70
3.35107,57.68783292,11.98136688,57.68784083,11.98135750,14:33:01.854741,0.00309,0.97958,-0.03411,-0.02530,-0.00350,-0.01048,-0.01550,-0.02062,0.01452,1.02919,3.34768,0.57834,-0.94239,-0.94990,-0.50235,0.69479,3.26530,-1.05996,1.57526,-1.60345,A,143301.70
3.36175,57.68783292,11.98136688,57.68784083,11.98135750,14:33:01.865422,0.00346,0.97958,-0.03389,-0.02530,-0.00426,-0.00758,-0.01703,-0.07570,0.00250,1.01077,3.35834,0.57834,-0.94239,-0.94990,-0.50235,0.69479,3.26530,-1.05996,1.57526,-1.60345,A,143301.70
3.38863,57.68783292,11.98136688,57.68784200,11.98135633,14:33:01.892317,0.01933,0.97958,-0.03416,-0.02530,0.00506,0.00357,-0.01993,-0.03849,-0.03508,0.95142,3.36970,0.57834,-0.94239,-0.94990,-0.50235,0.69479,3.38640,-1.12931,1.70499,-1.59429,A,143301.80
3.40425,57.68783289,11.98136700,57.68784200,11.98135633,14:33:01.907924,0.00638,0.97958,-0.03422,-0.02530,0.00215,-0.00147,-0.00786,-0.06618,-0.02367,1.01571,3.39860,0.65859,-1.04041,-1.04792,-0.49549,0.69188,3.38640,-1.12931,1.70499,-1.59429,A,143301.80
3.41113,57.68783289,11.98136700,57.68784200,11.98135633,14:33:01.914801,0.00302,0.97958,-0.03387,-0.02530,0.00414,-0.00025,-0.00496,-0.04081,0.00592,1.03840,3.40774,0.65859,-1.04041,-1.04792,-0.49549,0.69188,3.38640,-1.12931,1.70499,-1.59429,A,143301.80
3.42170,57.68783289,11.98136700,57.68784200,11.98135633,14:33:01.925366,0.00319,0.97958,-0.03362,-0.02530,0.01498,0.00143,0.00084,-0.04569,-0.00885,1.03712,3.41831,0.65859,-1.04041,-1.04792,-0.49549,0.69188,3.38640,-1.12931,1.70499,-1.59429,A,143301.80
3.43224,57.68783289,11.98136700,57.68784200,11.98135633,14:33:01.935928,0.00334,0.97958,-0.03333,-0.02530,0.01315,0.00052,-0.00114,0.01476,-0.00421,1.00595,3.42849,0.65859,-1.04041,-1.04792,-0.49549,0.69188,3.38640,-1.12931,1.70499,-1.59429,A,143301.80
3.44299,57.68783289,11.98136700,57.68784200,11.98135633,14:33:01.946663,0.00368,0.97958,-0.03321,-0.02530,0.01773,-0.00788,-0.00313,0.01537,-0.01891,1.02041,3.43910,0.65859,-1.04041,-1.04792,-0.49549,0.69188,3.38640,-1.12931,1.70499,-1.59429,A,143301.80
3.45385,57.68783289,11.98136700,57.68784200,11.98135633,14:33:01.957536,0.00414,1.12882,-0.03306,-0.02530,0.01575,-0.01689,-0.00725,-0.05020,-0.01659,0.98930,3.45045,0.65859,-1.04041,-1.04792,-0.49549,0.69188,3.38640,-1.12931,1.70499,-1.59429,A,143301.80
3.46315,57.68783289,11.98136700,57.68784200,11.98135633,14:33:01.966827,0.00318,1.12882,-0.03231,-0.02530,0.01636,-0.01033,-0.00725,-0.06167,0.02495,0.99747,3.45976,0.65859,-1.04041,-1.04792,-0.49549,0.69188,3.38640,-1.12931,1.70499,-1.59429,A,143301.80
3.47357,57.68783289,11.98136700,57.68784200,11.98135633,14:33:01.977238,0.00319,1.12882,-0.03248,-0.02530,0.01559,-0.00681,-0.00603,-0.09351,-0.03483,0.96325,3.47019,0.65859,-1.04041,-1.04792,-0.49549,0.69188,3.38640,-1.12931,1.70499,-1.59429,A,143301.80
3.48397,57.68783289,11.98136700,57.68784200,11.98135633,14:33:01.987651,0.00320,1.12882,-0.03206,-0.02530,0.01300,0.00113,-0.00970,-0.03562,0.00506,0.96886,3.48036,0.65859,-1.04041,-1.04792,-0.49549,0.69188,3.38640,-1.12931,1.70499,-1.59429,A,143301.80
3.50782,57.68783289,11.98136700,57.68784267,11.98135567,14:33:02.011508,0.01664,1.12882,-0.03228,-0.02530,0.00826,0.00021,-0.00771,-0.02959,-0.03367,0.97002,3.49098,0.65859,-1.04041,-1.04792,-0.49549,0.69188,3.50569,-1.16893,1.77912,-1.58524,A,143301.90
3.52398,57.68783280,11.98136705,57.68784267,11.98135567,14:33:02.027673,0.00711,1.12882,-0.03195,-0.02530,0.00444,0.00617,-0.00863,-0.03849,0.00037,1.01955,3.51839,0.75264,-1.12253,-1.13004,-0.49238,0.68242,3.50569,-1.16893,1.77912,-1.58524,A,143301.90
3.53047,57.68783280,11.98136705,57.68784267,11.98135567,14:33:02.034139,0.00320,1.12882,-0.03216,-0.02530,0.00796,0.00922,-0.00985,-0.01934,-0.03349,1.02950,3.52709,0.75264,-1.12253,-1.13004,-0.49238,0.68242,3.50569,-1.16893,1.77912,-1.58524,A,143301.90
3.54080,57.68783280,11.98136705,57.68784267,11.98135567,14:33:02.044470,0.00312,1.12882,-0.03229,-0.02530,-0.00609,0.00647,-0.00557,-0.02940,-0.01861,1.00815,3.53740,0.75264,-1.12253,-1.13004,-0.49238,0.68242,3.50569,-1.16893,1.77912,-1.58524,A,143301.90
3.55098,57.68783280,11.98136705,57.68784267,11.98135567,14:33:02.054652,0.00302,1.12882,-0.03236,-0.02530,-0.00670,-0.00803,-0.01183,0.02190,-0.01403,0.99113,3.54759,0.75264,-1.12253,-1.13004,-0.49238,0.68242,3.50569,-1.16893,1.77912,-1.58524,A,143301.90
3.56256,57.68783280,11.98136705,57.68784267,11.98135567,14:33:02.066251,0.00419,1.12882,-0.03226,-0.02530,-0.01129,-0.00971,-0.01367,-0.00976,0.00085,0.99314,3.55909,0.75264,-1.12253,-1.13004,-0.49238,0.68242,3.50569,-1.16893,1.77912,-1.58524,A,143301.90
3.57236,57.68783280,11.98136705,57.68784267,11.98135567,14:33:02.076042,0.00359,1.12882,-0.03257,-0.02530,-0.00197,-0.01338,-0.01626,-0.07845,-0.03288,0.97655,3.56895,0.75264,-1.12253,-1.13004,-0.49238,0.68242,3.50569,-1.16893,1.77912,-1.58524,A,143301.90
3.58237,57.68783280,11.98136705,57.68784267,11.98135567,14:33:02.086041,0.00320,1.12882,-0.03269,-0.02530,-0.00777,-0.00666,-0.01580,-0.05020,-0.01714,0.98564,3.57898,0.75264,-1.12253,-1.13004,-0.49238,0.68242,3.50569,-1.16893,1.77912,-1.58524,A,143301.90
3.59299,57.68783280,11.98136705,57.68784267,11.98135567,14:33:02.096662,0.00341,1.12882,-0.03361,-0.02530,-0.00747,-0.00330,-0.01764,-0.05612,-0.07033,0.99552,3.58958,0.75264,-1.12253,-1.13004,-0.49238,0.68242,3.50569,-1.16893,1.77912,-1.58524,A,143301.90
3.60297,57.68783280,11.98136705,57.68784267,11.98135567,14:33:02.106637,0.00301,1.12882,-0.03355,-0.02530,-0.01526,0.00342,-0.02008,-0.03886,-0.00116,1.00534,3.59958,0.75264,-1.12253,-1.13004,-0.49238,0.68242,3.50569,-1.16893,1.77912,-1.58524,A,143301.90
3.62689,57.68783280,11.98136705,57.68784367,11.98135483,14:33:02.130568,0.01653,1.12882,-0.03364,-0.02530,-0.00793,0.00892,-0.01932,-0.01165,-0.01568,1.00644,3.61015,0.75264,-1.12253,-1.13004,-0.49238,0.68242,3.62489,-1.21846,1.89031,-1.58832,A,143302.00
3.64265,57.68783267,11.98136704,57.68784367,11.98135483,14:33:02.146323,0.00690,1.12882,-0.03415,-0.02550,-0.01098,0.00617,-0.01244,0.00433,-0.02995,0.98808,3.63727,0.82787,-1.19299,-1.20057,-0.49297,0.66710,3.62489,-1.21846,1.89031,-1.58832,A,143302.00
3.64935,57.68783267,11.98136704,57.68784367,11.98135483,14:33:02.153021,0.00321,1.12882,-0.03445,-0.02564,-0.00838,-0.00406,-0.01580,-0.02690,-0.03068,0.98454,3.64596,0.82787,-1.19299,-1.20057,-0.49297,0.66710,3.62489,-1.21846,1.89031,-1.58832,A,143302.00
3.66016,57.68783267,11.98136704,57.68784367,11.98135483,14:33:02.163834,0.00344,1.12882,-0.03486,-0.02584,-0.01678,-0.01307,-0.01672,-0.02873,-0.03117,0.97765,3.65655,0.82787,-1.19299,-1.20057,-0.49297,0.66710,3.62489,-1.21846,1.89031,-1.58832,A,143302.00
3.67043,57.68783267,11.98136704,57.68784367,11.98135483,14:33:02.174111,0.00347,1.12882,-0.03474,-0.02607,-0.01480,-0.00758,-0.01550,-0.08162,0.00116,0.99284,3.66703,0.82787,-1.19299,-1.20057,-0.49297,0.66710,3.62489,-1.21846,1.89031,-1.58832,A,143302.00
3.68062,57.68783267,11.98136704,57.68784367,11.98135483,14:33:02.184289,0.00326,1.12882,-0.03514,-0.02630,-0.01434,-0.00177,-0.01962,-0.02281,-0.03178,0.94312,3.67721,0.82787,-1.19299,-1.20057,-0.49297,0.66710,3.62489,-1.21846,1.89031,-1.58832,A,143302.00
3.69090,57.68783267,11.98136704,57.68784367,11.98135483,14:33:02.194563,0.00299,1.12882,-0.03534,-0.02649,-0.01923,-0.01017,-0.01535,-0.05100,-0.01671,0.96081,3.68751,0.82787,-1.19299,-1.20057,-0.49297,0.66710,3.62489,-1.21846,1.89031,-1.58832,A,143302.00
3.70146,57.68783267,11.98136704,57.68784367,11.98135483,14:33:02.205135,0.00316,1.12882,-0.03558,-0.02669,-0.02320,-0.00330,-0.01687,-0.02977,-0.01684,0.97173,3.69808,0.82787,-1.19299,-1.20057,-0.49297,0.66710,3.62489,-1.21846,1.89031,-1.58832,A,143302.00
3.71189,57.68783267,11.98136704,57.68784367,11.98135483,14:33:02.215583,0.00319,1.12882,-0.03536,-0.02686,-0.02396,0.00770,-0.01244,-0.09168,0.01348,1.01144,3.70829,0.82787,-1.19299,-1.20057,-0.49297,0.66710,3.62489,-1.21846,1.89031,-1.58832,A,143302.00
3.72244,57.68783267,11.98136704,57.68784367,11.98135483,14:33:02.226105,0.00333,1.12882,-0.03527,-0.02703,-0.02075,0.01212,-0.01733,-0.04441,0.00317,1.01443,3.71905,0.82787,-1.19299,-1.20057,-0.49297,0.66710,3.62489,-1.21846,1.89031,-1.58832,A,143302.00
3.74588,57.68783267,11.98136704,57.68784417,11.98135350,14:33:02.249560,0.01637,1.12882,-0.03555,-0.02717,-0.02427,0.00861,-0.01687,0.02245,-0.01958,1.00272,3.72925,0.82787,-1.19299,-1.20057,-0.49297,0.66710,3.74387,-1.29771,1.94591,-1.59665,A,143302.10
3.76238,57.68783246,11.98136693,57.68784417,11.98135350,14:33:02.266073,0.00649,1.12882,-0.03637,-0.02734,-0.03541,-0.01170,-0.02054,-0.03691,-0.00830,0.99759,3.75682,0.88806,-1.25426,-1.26237,-0.49970,0.64471,3.74387,-1.29771,1.94591,-1.59665,A,143302.10
3.76947,57.68783246,11.98136693,57.68784417,11.98135350,14:33:02.273143,0.00318,1.12882,-0.03656,-0.02734,-0.02121,-0.00422,-0.02191,-0.04654,-0.01787,0.99747,3.76609,0.88806,-1.25426,-1.26237,-0.49970,0.64471,3.74387,-1.29771,1.94591,-1.59665,A,143302.10
3.77985,57.68783246,11.98136693,57.68784417,11.98135350,14:33:02.283537,0.00316,1.12882,-0.03722,-0.02734,-0.02793,0.00266,-0.02130,-0.02483,-0.04233,0.96313,3.77626,0.88806,-1.25426,-1.26237,-0.49970,0.64471,3.74387,-1.29771,1.94591,-1.59665,A,143302.10
3.79027,57.68783246,11.98136693,57.68784417,11.98135350,14:33:02.293944,0.00318,1.12882,-0.03773,-0.02734,-0.03175,-0.00284,-0.01703,-0.03538,-0.03087,0.98936,3.78689,0.88806,-1.25426,-1.26237,-0.49970,0.64471,3.74387,-1.29771,1.94591,-1.59665,A,143302.10
3.80065,57.68783246,11.98136693,57.68784417,11.98135350,14:33:02.304323,0.00316,1.12882,-0.03849,-0.02734,-0.02839,0.01289,-0.01229,-0.06911,-0.05087,0.99711,3.79726,0.88806,-1.25426,-1.26237,-0.49970,0.64471,3.74387,-1.29771,1.94591,-1.59665,A,143302.10
3.81197,57.68783246,11.98136693,57.68784417,11.98135350,14:33:02.315652,0.00394,1.12882,-0.03860,-0.02734,-0.03496,0.02633,-0.01321,-0.07729,-0.00244,1.04865,3.80837,0.88806,-1.25426,-1.26237,-0.49970,0.64471,3.74387,-1.29771,1.94591,-1.59665,A,143302.10
3.82160,57.68783246,11.98136693,57.68784417,11.98135350,14:33:02.325271,0.00318,1.12882,-0.03888,-0.02734,-0.03251,0.03564,-0.01351,0.00933,-0.01952,1.05323,3.81822,0.88806,-1.25426,-1.26237,-0.49970,0.64471,3.74387,-1.29771,1.94591,-1.59665,A,143302.10
3.83201,57.68783246,11.98136693,57.68784417,11.98135350,14:33:02.335690,0.00318,1.12882,-0.03893,-0.02734,-0.04641,0.02083,-0.01168,0.02836,0.00775,1.04450,3.82840,0.88806,-1.25426,-1.26237,-0.49970,0.64471,3.74387,-1.29771,1.94591,-1.59665,A,143302.10
3.84240,57.68783246,11.98136693,57.68784417,11.98135350,14:33:02.346068,0.00318,1.12882,-0.03860,-0.02734,-0.03832,0.00098,-0.01351,0.06301,0.02782,1.00125,3.83901,0.88806,-1.25426,-1.26237,-0.49970,0.64471,3.74387,-1.29771,1.94591,-1.59665,A,143302.10
3.87736,57.68783246,11.98136693,57.68784617,11.98135167,14:33:02.381044,0.02773,1.12882,-0.03857,-0.02734,-0.03939,-0.01903,-0.01626,0.03190,0.00793,0.98430,3.84940,0.88806,-1.25426,-1.26237,-0.49970,0.64471,3.87524,-1.40668,2.16830,-1.60702,A,143302.30
3.89257,57.68783222,11.98136672,57.68784617,11.98135167,14:33:02.396251,0.00684,1.12882,-0.04040,-0.02734,-0.03816,-0.01613,-0.01367,-0.07613,-0.04740,0.96179,3.88686,0.93621,-1.30837,-1.31649,-0.51221,0.61782,3.87524,-1.40668,2.16830,-1.60702,A,143302.30
3.89897,57.68783222,11.98136672,57.68784617,11.98135167,14:33:02.402641,0.00299,1.12882,-0.04085,-0.02734,-0.04137,-0.00345,-0.01046,-0.07369,-0.02794,0.97185,3.89560,0.93621,-1.30837,-1.31649,-0.51221,0.61782,3.87524,-1.40668,2.16830,-1.60702,A,143302.30
3.90961,57.68783222,11.98136672,57.68784617,11.98135167,14:33:02.413285,0.00322,1.12882,-0.04126,-0.02734,-0.02854,0.01854,-0.00053,-0.06978,-0.03038,1.00796,3.90623,0.93621,-1.30837,-1.31649,-0.51221,0.61782,3.87524,-1.40668,2.16830,-1.60702,A,143302.30
3.92008,57.68783222,11.98136672,57.68784617,11.98135167,14:33:02.423752,0.00329,1.12882,-0.04120,-0.02734,-0.03007,0.03137,0.00435,-0.06777,0.00098,1.02492,3.91647,0.93621,-1.30837,-1.31649,-0.51221,0.61782,3.87524,-1.40668,2.16830,-1.60702,A,143302.30
3.93037,57.68783222,11.98136672,57.68784617,11.98135167,14:33:02.434038,0.00318,1.12882,-0.04146,-0.02734,-0.02656,0.03167,-0.00007,-0.01049,-0.02269,1.05292,3.92699,0.93621,-1.30837,-1.31649,-0.51221,0.61782,3.87524,-1.40668,2.16830,-1.60702,A,143302.30
3.94075,57.68783222,11.98136672,57.68784617,11.98135167,14:33:02.444413,0.00316,1.12882,-0.04106,-0.02734,-0.02503,0.02022,0.00115,0.01873,0.02074,1.04401,3.93735,0.93621,-1.30837,-1.31649,-0.51221,0.61782,3.87524,-1.40668,2.16830,-1.60702,A,143302.30
3.95096,57.68783222,11.98136672,57.68784617,11.98135167,14:33:02.454628,0.00297,1.12882,-0.04130,-0.02734,-0.02915,-0.00437,-0.00023,0.01763,-0.02043,1.06341,3.94757,0.93621,-1.30837,-1.31649,-0.51221,0.61782,3.87524,-1.40668,2.16830,-1.60702,A,143302.30
3.96155,57.68783222,11.98136672,57.68784617,11.98135167,14:33:02.465215,0.00316,1.12882,-0.04082,-0.02734,-0.02213,-0.01307,-0.00710,-0.03306,0.02593,1.05701,3.95816,0.93621,-1.30837,-1.31649,-0.51221,0.61782,3.87524,-1.40668,2.16830,-1.60702,A,143302.30
3.97220,57.68783222,11.98136672,57.68784617,11.98135167,14:33:02.475875,0.00341,1.12882,-0.04175,-0.02734,-0.02564,-0.01384,-0.01336,-0.04972,-0.06856,1.01138,3.96878,0.93621,-1.30837,-1.31649,-0.51221,0.61782,3.87524,-1.40668,2.16830,-1.60702,A,143302.30
3.99638,57.68783222,11.98136672,57.68784717,11.98135067,14:33:02.500051,0.01719,1.12882,-0.04237,-0.02734,-0.02656,-0.00452,-0.01336,-0.03135,-0.04490,0.94947,3.97896,0.93621,-1.30837,-1.31649,-0.51221,0.61782,3.99421,-1.46612,2.27950,-1.59124,A,143302.40
4.00729,57.68783210,11.98136634,57.68784717,11.98135067,14:33:02.511226,0.00528,1.12882,-0.04278,-0.02734,-0.02686,0.02190,-0.00802,-0.10565,-0.01025,0.87572,4.00194,0.97473,-1.35183,-1.35995,-0.53463,0.60369,3.99421,-1.46612,2.27950,-1.59124,A,143302.40
4.01662,57.68783210,11.98136634,57.68784717,11.98135067,14:33:02.520295,0.00437,1.12882,-0.04321,-0.02734,-0.02564,0.04481,0.00390,-0.07113,-0.02989,0.84784,4.01320,0.97473,-1.35183,-1.35995,-0.53463,0.60369,3.99421,-1.46612,2.27950,-1.59124,A,143302.40
4.02582,57.68783210,11.98136634,57.68784717,11.98135067,14:33:02.529495,0.00332,1.12882,-0.04309,-0.02726,-0.01587,0.05855,0.01153,-0.05484,-0.00695,0.84644,4.02242,0.97473,-1.35183,-1.35995,-0.53463,0.60369,3.99421,-1.46612,2.27950,-1.59124,A,143302.40
4.03651,57.68783210,11.98136634,57.68784717,11.98135067,14:33:02.540188,0.00362,1.12882,-0.04345,-0.02709,-0.01251,0.06252,0.01642,0.04471,-0.03617,0.88938,4.03311,0.97473,-1.35183,-1.35995,-0.53463,0.60369,3.99421,-1.46612,2.27950,-1.59124,A,143302.40
4.04646,57.68783210,11.98136634,57.68784717,11.98135067,14:33:02.550131,0.00316,1.24119,-0.04354,-0.02695,-0.02488,0.04313,0.02024,0.01196,-0.01555,1.00272,4.04308,0.97473,-1.35183,-1.35995,-0.53463,0.60369,3.99421,-1.46612,2.27950,-1.59124,A,143302.40
4.05694,57.68783210,11.98136634,57.68784717,11.98135067,14:33:02.560609,0.00323,1.24119,-0.04357,-0.02689,-0.03114,0.01839,0.01062,-0.03007,-0.00695,1.14772,4.05353,0.97473,-1.35183,-1.35995,-0.53463,0.60369,3.99421,-1.46612,2.27950,-1.59124,A,143302.40
4.06710,57.68783210,11.98136634,57.68784717,11.98135067,14:33:02.570772,0.00303,1.24119,-0.04325,-0.02689,-0.03037,0.01854,0.00130,0.00177,0.01976,1.21658,4.06371,0.97473,-1.35183,-1.35995,-0.53463,0.60369,3.99421,-1.46612,2.27950,-1.59124,A,143302.40
4.07771,57.68783210,11.98136634,57.68784717,11.98135067,14:33:02.581391,0.00324,1.24119,-0.04308,-0.02689,-0.02640,0.01044,-0.00771,0.05392,0.00500,1.21768,4.07432,0.97473,-1.35183,-1.35995,-0.53463,0.60369,3.99421,-1.46612,2.27950,-1.59124,A,143302.40
4.08804,57.68783210,11.98136634,57.68784717,11.98135067,14:33:02.591719,0.00317,1.24119,-0.04328,-0.02689,-0.03205,-0.00651,-0.01138,0.08211,-0.01940,1.13192,4.08443,0.97473,-1.35183,-1.35995,-0.53463,0.60369,3.99421,-1.46612,2.27950,-1.59124,A,143302.40
4.11187,57.68783210,11.98136634,57.68784800,11.98135017,14:33:02.615557,0.01660,1.24119,-0.04406,-0.02689,-0.02824,-0.02941,-0.01886,-0.04063,-0.06057,1.04200,4.09504,0.97473,-1.35183,-1.35995,-0.53463,0.60369,4.10977,-1.49584,2.37216,-1.58242,A,143302.50
4.12591,57.68783195,11.98136591,57.68784800,11.98135017,14:33:02.629584,0.00721,1.24119,-0.04487,-0.02613,-0.01083,-0.01750,-0.00863,-0.04740,-0.05215,0.80880,4.11921,1.02802,-1.38764,-1.39540,-0.56032,0.58756,4.10977,-1.49584,2.37216,-1.58242,A,143302.50
4.13227,57.68783195,11.98136591,57.68784800,11.98135017,14:33:02.635938,0.00318,1.24119,-0.04568,-0.02550,-0.00197,-0.01827,0.00161,-0.06924,-0.06698,0.83277,4.12887,1.02802,-1.38764,-1.39540,-0.56032,0.58756,4.10977,-1.49584,2.37216,-1.58242,A,143302.50
4.14265,57.68783195,11.98136591,57.68784800,11.98135017,14:33:02.646311,0.00315,1.24119,-0.04619,-0.02474,0.00429,-0.00651,0.01550,-0.06320,-0.06051,0.92507,4.13927,1.02802,-1.38764,-1.39540,-0.56032,0.58756,4.10977,-1.49584,2.37216,-1.58242,A,143302.50
4.15324,57.68783195,11.98136591,57.68784800,11.98135017,14:33:02.656914,0.00335,1.24119,-0.04618,-0.02403,0.01804,0.00296,0.02222,-0.06326,-0.04215,1.05194,4.14968,1.02802,-1.38764,-1.39540,-0.56032,0.58756,4.10977,-1.49584,2.37216,-1.58242,A,143302.50
4.16333,57.68783195,11.98136591,57.68784800,11.98135017,14:33:02.667217,0.00317,1.24119,-0.04581,-0.02349,0.01666,0.00968,0.02283,-0.06435,-0.01671,1.14406,4.15995,1.02802,-1.38764,-1.39540,-0.56032,0.58756,4.10977,-1.49584,2.37216,-1.58242,A,143302.50
4.17396,57.68783195,11.98136591,57.68784800,11.98135017,14:33:02.677640,0.00340,1.24119,-0.04546,-0.02315,0.01758,0.02190,0.02253,0.00281,-0.01867,1.17163,4.17058,1.02802,-1.38764,-1.39540,-0.56032,0.58756,4.10977,-1.49584,2.37216,-1.58242,A,143302.50
4.18413,57.68783195,11.98136591,57.68784800,11.98135017,14:33:02.687801,0.00317,1.24119,-0.04530,-0.02310,0.01788,0.01044,0.01016,0.03483,-0.03239,1.13716,4.18053,1.02802,-1.38764,-1.39540,-0.56032,0.58756,4.10977,-1.49584,2.37216,-1.58242,A,143302.50
4.19460,57.68783195,11.98136591,57.68784800,11.98135017,14:33:02.698273,0.00325,1.24119,-0.04423,-0.02310,0.02033,-0.01307,0.00115,0.03501,0.03184,1.06555,4.19122,1.02802,-1.38764,-1.39540,-0.56032,0.58756,4.10977,-1.49584,2.37216,-1.58242,A,143302.50
4.20493,57.68783195,11.98136591,57.68784800,11.98135017,14:33:02.708597,0.00317,1.24119,-0.04338,-0.02310,0.01788,-0.03094,-0.00710,-0.00683,0.01745,0.96783,4.20154,1.02802,-1.38764,-1.39540,-0.56032,0.58756,4.10977,-1.49584,2.37216,-1.58242,A,143302.50
4.22847,57.68783195,11.98136591,57.68784900,11.98134900,14:33:02.732155,0.01648,1.24119,-0.04238,-0.02310,0.02476,-0.03812,-0.00970,-0.08894,0.02208,0.90152,4.21160,1.02802,-1.38764,-1.39540,-0.56032,0.58756,4.22634,-1.56518,2.48335,-1.59416,A,143302.60
4.24421,57.68783180,11.98136539,57.68784900,11.98134900,14:33:02.747891,0.00660,1.24119,-0.04269,-0.02310,0.02766,-0.01949,0.00710,0.00586,-0.08522,0.90493,4.23858,1.07066,-1.42002,-1.42687,-0.59075,0.57057,4.22634,-1.56518,2.48335,-1.59416,A,143302.60
4.25094,57.68783180,11.98136539,57.68784900,11.98134900,14:33:02.754612,0.00298,1.24119,-0.04338,-0.02310,0.01544,-0.03888,0.01275,0.02031,-0.07967,0.98948,4.24755,1.07066,-1.42002,-1.42687,-0.59075,0.57057,4.22634,-1.56518,2.48335,-1.59416,A,143302.60
4.26151,57.68783180,11.98136539,57.68784900,11.98134900,14:33:02.765173,0.00315,1.24119,-0.04280,-0.02310,0.01407,-0.05492,0.01428,-0.00433,0.00421,1.08116,4.25813,1.07066,-1.42002,-1.42687,-0.59075,0.57057,4.22634,-1.56518,2.48335,-1.59416,A,143302.60
4.27227,57.68783180,11.98136539,57.68784900,11.98134900,14:33:02.775954,0.00351,1.24119,-0.04181,-0.02310,0.02048,-0.05599,0.01000,-0.06533,0.03135,1.12984,4.26853,1.07066,-1.42002,-1.42687,-0.59075,0.57057,4.22634,-1.56518,2.48335,-1.59416,A,143302.60
4.28234,57.68783180,11.98136539,57.68784900,11.98134900,14:33:02.786013,0.00319,1.24119,-0.04120,-0.02310,0.03239,-0.05431,0.00329,-0.04111,-0.00586,1.12411,4.27896,1.07066,-1.42002,-1.42687,-0.59075,0.57057,4.22634,-1.56518,2.48335,-1.59416,A,143302.60
4.29271,57.68783180,11.98136539,57.68784900,11.98134900,14:33:02.796385,0.00330,1.24119,-0.04032,-0.02310,0.04033,-0.05507,-0.00557,-0.02550,0.00909,1.07488,4.28930,1.07066,-1.42002,-1.42687,-0.59075,0.57057,4.22634,-1.56518,2.48335,-1.59416,A,143302.60
4.30291,57.68783180,11.98136539,57.68784900,11.98134900,14:33:02.806583,0.00296,1.24119,-0.04057,-0.02310,0.04033,-0.06164,-0.00954,-0.06686,-0.06625,0.99271,4.29954,1.07066,-1.42002,-1.42687,-0.59075,0.57057,4.22634,-1.56518,2.48335,-1.59416,A,143302.60
4.31350,57.68783180,11.98136539,57.68784900,11.98134900,14:33:02.817171,0.00316,1.24119,-0.04052,-0.02310,0.03346,-0.05095,-0.01199,-0.07283,-0.04026,0.93971,4.31012,1.07066,-1.42002,-1.42687,-0.59075,0.57057,4.22634,-1.56518,2.48335,-1.59416,A,143302.60
4.32406,57.68783180,11.98136539,57.68784900,11.98134900,14:33:02.827753,0.00331,1.24119,-0.04091,-0.02310,0.03178,-0.04667,-0.01428,-0.10602,-0.06448,0.91720,4.32032,1.07066,-1.42002,-1.42687,-0.59075,0.57057,4.22634,-1.56518,2.48335,-1.59416,A,143302.60
4.34775,57.68783180,11.98136539,57.68784983,11.98134817,14:33:02.851435,0.01659,1.24119,-0.04067,-0.02310,0.02506,-0.04163,-0.00908,-0.07216,-0.02239,0.91927,4.33093,1.07066,-1.42002,-1.42687,-0.59075,0.57057,4.34564,-1.61471,2.57602,-1.58822,A,143302.70
4.36316,57.68783164,11.98136482,57.68784983,11.98134817,14:33:02.866841,0.00788,1.24119,-0.03918,-0.02310,0.03728,-0.06897,-0.00618,-0.03440,0.01171,1.03639,4.35753,1.10476,-1.44646,-1.45332,-0.62489,0.55313,4.34564,-1.61471,2.57602,-1.58822,A,143302.70
4.36899,57.68783164,11.98136482,57.68784983,11.98134817,14:33:02.872661,0.00331,1.24119,-0.03855,-0.02310,0.03743,-0.07477,-0.00481,-0.04270,0.00134,1.06152,4.36559,1.10476,-1.44646,-1.45332,-0.62489,0.55313,4.34564,-1.61471,2.57602,-1.58822,A,143302.70
4.37896,57.68783164,11.98136482,57.68784983,11.98134817,14:33:02.882634,0.00299,1.24119,-0.03820,-0.02310,0.04522,-0.07584,-0.00007,-0.05423,-0.02836,1.05664,4.37559,1.10476,-1.44646,-1.45332,-0.62489,0.55313,4.34564,-1.61471,2.57602,-1.58822,A,143302.70
4.38953,57.68783164,11.98136482,57.68784983,11.98134817,14:33:02.893201,0.00316,1.24119,-0.03827,-0.02310,0.04507,-0.06637,-0.00435,-0.04764,-0.05703,1.02254,4.38614,1.10476,-1.44646,-1.45332,-0.62489,0.55313,4.34564,-1.61471,2.57602,-1.58822,A,143302.70
4.39994,57.68783164,11.98136482,57.68784983,11.98134817,14:33:02.903625,0.00318,1.24119,-0.03848,-0.02310,0.04919,-0.05904,-0.00771,-0.06716,-0.06673,0.98198,4.39634,1.10476,-1.44646,-1.45332,-0.62489,0.55313,4.34564,-1.61471,2.57602,-1.58822,A,143302.70
4.41034,57.68783164,11.98136482,57.68784983,11.98134817,14:33:02.914010,0.00318,1.24119,-0.03790,-0.02310,0.03377,-0.05141,-0.00725,-0.04520,-0.00512,0.93385,4.40696,1.10476,-1.44646,-1.45332,-0.62489,0.55313,4.34564,-1.61471,2.57602,-1.58822,A,143302.70
4.42072,57.68783164,11.98136482,57.68784983,11.98134817,14:33:02.924393,0.00315,1.24119,-0.03780,-0.02330,0.03483,-0.05186,-0.00924,-0.04892,-0.03398,0.91402,4.41733,1.10476,-1.44646,-1.45332,-0.62489,0.55313,4.34564,-1.61471,2.57602,-1.58822,A,143302.70
4.43137,57.68783164,11.98136482,57.68784983,11.98134817,14:33:02.935255,0.00341,1.24119,-0.03741,-0.02380,0.03438,-0.05080,-0.01687,-0.06411,-0.01629,0.92610,4.42758,1.10476,-1.44646,-1.45332,-0.62489,0.55313,4.34564,-1.61471,2.57602,-1.58822,A,143302.70
4.44151,57.68783164,11.98136482,57.68784983,11.98134817,14:33:02.945188,0.00315,1.24119,-0.03693,-0.02468,0.02644,-0.04789,-0.02909,-0.06722,-0.00586,0.96905,4.43813,1.10476,-1.44646,-1.45332,-0.62489,0.55313,4.34564,-1.61471,2.57602,-1.58822,A,143302.70
4.48040,57.68783164,11.98136482,57.68785200,11.98134683,14:33:02.984083,0.03164,1.24119,-0.03644,-0.02576,0.02613,-0.03705,-0.03047,-0.08668,-0.00458,1.01571,4.44857,1.10476,-1.44646,-1.45332,-0.62489,0.55313,4.47820,-1.69396,2.81694,-1.59812,A,143302.90
4.49586,57.68783143,11.98136419,57.68785200,11.98134683,14:33:02.999551,0.00694,1.24119,-0.03505,-0.02992,0.03560,-0.00635,-0.00267,-0.05868,-0.02348,0.95630,4.49025,1.13205,-1.47047,-1.47935,-0.66227,0.53014,4.47820,-1.69396,2.81694,-1.59812,A,143302.90
4.50250,57.68783143,11.98136419,57.68785200,11.98134683,14:33:03.006168,0.00318,1.24119,-0.03474,-0.03065,0.03178,0.00403,0.00084,-0.07241,-0.01488,0.95630,4.49911,1.13205,-1.47047,-1.47935,-0.66227,0.53014,4.47820,-1.69396,2.81694,-1.59812,A,143302.90
4.51277,57.68783143,11.98136419,57.68785200,11.98134683,14:33:03.016439,0.00306,1.24119,-0.03475,-0.03131,0.02750,0.00143,-0.00573,-0.05710,-0.03630,0.97094,4.50939,1.13205,-1.47047,-1.47935,-0.66227,0.53014,4.47820,-1.69396,2.81694,-1.59812,A,143302.90
4.52295,57.68783143,11.98136419,57.68785200,11.98134683,14:33:03.026612,0.00297,1.24119,-0.03438,-0.03184,0.01758,0.00861,-0.01580,0.01665,-0.00549,0.97246,4.51957,1.13205,-1.47047,-1.47935,-0.66227,0.53014,4.47820,-1.69396,2.81694,-1.59812,A,143302.90
4.53352,57.68783143,11.98136419,57.68785200,11.98134683,14:33:03.037187,0.00314,1.24119,-0.03416,-0.03230,0.01911,-0.00376,-0.02588,-0.00433,-0.01580,1.00345,4.53014,1.13205,-1.47047,-1.47935,-0.66227,0.53014,4.47820,-1.69396,2.81694,-1.59812,A,143302.90
4.54583,57.68783143,11.98136419,57.68785200,11.98134683,14:33:03.049507,0.00505,1.24119,-0.03395,-0.03255,0.01376,-0.01017,-0.03382,-0.03440,-0.01513,1.04401,4.54243,1.13205,-1.47047,-1.47935,-0.66227,0.53014,4.47820,-1.69396,2.81694,-1.59812,A,143302.90
4.55433,57.68783143,11.98136419,57.68785200,11.98134683,14:33:03.057989,0.00314,1.24119,-0.03380,-0.03258,0.01468,-0.01460,-0.03642,-0.01909,-0.01623,1.04920,4.55094,1.13205,-1.47047,-1.47935,-0.66227,0.53014,4.47820,-1.69396,2.81694,-1.59812,A,143302.90
4.56475,57.68783143,11.98136419,57.68785200,11.98134683,14:33:03.068425,0.00317,1.24119,-0.03366,-0.03258,0.01223,-0.01827,-0.03505,-0.03691,-0.01641,1.02962,4.56136,1.13205,-1.47047,-1.47935,-0.66227,0.53014,4.47820,-1.69396,2.81694,-1.59812,A,143302.90
4.57515,57.68783143,11.98136419,57.68785200,11.98134683,14:33:03.078819,0.00319,1.24119,-0.03367,-0.03258,0.02094,-0.01063,-0.02772,-0.04301,-0.03093,0.96282,4.57177,1.13205,-1.47047,-1.47935,-0.66227,0.53014,4.47820,-1.69396,2.81694,-1.59812,A,143302.90
4.59944,57.68783143,11.98136419,57.68785267,11.98134600,14:33:03.103350,0.01708,1.24119,-0.03354,-0.03258,0.02170,-0.00773,-0.02054,-0.05301,-0.02245,0.93592,4.58254,1.13205,-1.47047,-1.47935,-0.66227,0.53014,4.59744,-1.74349,2.89107,-1.58813,A,143303.00
4.61893,57.68783133,11.98136348,57.68785267,11.98134600,14:33:03.122613,0.00860,1.33158,-0.03252,-0.03258,0.02903,0.03824,0.00176,-0.03995,-0.00714,0.92860,4.61257,1.17195,-1.48984,-1.49951,-0.70448,0.51893,4.59744,-1.74349,2.89107,-1.58813,A,143303.00
4.62347,57.68783133,11.98136348,57.68785267,11.98134600,14:33:03.127369,0.00296,1.33158,-0.03261,-0.03258,0.02750,0.04649,-0.00496,-0.04660,-0.03392,0.94465,4.62009,1.17195,-1.48984,-1.49951,-0.70448,0.51893,4.59744,-1.74349,2.89107,-1.58813,A,143303.00
4.63408,57.68783133,11.98136348,57.68785267,11.98134600,14:33:03.137752,0.00317,1.33158,-0.03233,-0.03258,0.02017,0.05244,-0.00954,-0.01336,-0.01177,0.96270,4.63070,1.17195,-1.48984,-1.49951,-0.70448,0.51893,4.59744,-1.74349,2.89107,-1.58813,A,143303.00
4.64449,57.68783133,11.98136348,57.68785267,11.98134600,14:33:03.148169,0.00318,1.33158,-0.03176,-0.03258,0.02078,0.04481,-0.01810,0.04941,0.00726,0.99040,4.64110,1.17195,-1.48984,-1.49951,-0.70448,0.51893,4.59744,-1.74349,2.89107,-1.58813,A,143303.00
4.65498,57.68783133,11.98136348,57.68785267,11.98134600,14:33:03.158648,0.00302,1.33158,-0.03133,-0.03258,0.00841,0.01716,-0.03199,0.09077,0.00817,1.06719,4.65159,1.17195,-1.48984,-1.49951,-0.70448,0.51893,4.59744,-1.74349,2.89107,-1.58813,A,143303.00
4.66567,57.68783133,11.98136348,57.68785267,11.98134600,14:33:03.169346,0.00331,1.33158,-0.03109,-0.03258,0.00903,-0.02086,-0.03718,0.07631,-0.00604,1.11246,4.66228,1.17195,-1.48984,-1.49951,-0.70448,0.51893,4.59744,-1.74349,2.89107,-1.58813,A,143303.00
4.67593,57.68783133,11.98136348,57.68785267,11.98134600,14:33:03.179610,0.00320,1.33158,-0.03088,-0.03258,0.01025,-0.04713,-0.04467,-0.01226,-0.00830,1.11795,4.67233,1.17195,-1.48984,-1.49951,-0.70448,0.51893,4.59744,-1.74349,2.89107,-1.58813,A,143303.00
4.68631,57.68783133,11.98136348,57.68785267,11.98134600,14:33:03.189980,0.00319,1.33158,-0.03058,-0.03258,0.02491,-0.04423,-0.04161,-0.05868,-0.01318,1.12771,4.68294,1.17195,-1.48984,-1.49951,-0.70448,0.51893,4.59744,-1.74349,2.89107,-1.58813,A,143303.00
4.69669,57.68783133,11.98136348,57.68785267,11.98134600,14:33:03.200353,0.00316,1.33158,-0.03090,-0.03258,0.02750,-0.02987,-0.03352,-0.04666,-0.05960,1.09770,4.69329,1.17195,-1.48984,-1.49951,-0.70448,0.51893,4.59744,-1.74349,2.89107,-1.58813,A,143303.00
4.72114,57.68783133,11.98136348,57.68785350,11.98134483,14:33:03.224819,0.01708,1.33158,-0.03158,-0.03258,0.03499,-0.02239,-0.02100,-0.05002,-0.08808,1.05188,4.70369,1.17195,-1.48984,-1.49951,-0.70448,0.51893,4.71896,-1.81283,2.98373,-1.59403,A,143303.10
4.73468,57.68783132,11.98136270,57.68785350,11.98134483,14:33:03.238364,0.00776,1.33158,-0.03040,-0.03258,0.02812,-0.00590,0.00527,-0.03691,0.01885,0.95075,4.72689,1.20388,-1.50733,-1.51701,-0.75103,0.51796,4.71896,-1.81283,2.98373,-1.59403,A,143303.10
4.74059,57.68783132,11.98136270,57.68785350,11.98134483,14:33:03.244266,0.00326,1.33158,-0.02943,-0.03258,0.03483,-0.00376,0.00817,-0.04209,0.02507,0.94922,4.73719,1.20388,-1.50733,-1.51701,-0.75103,0.51796,4.71896,-1.81283,2.98373,-1.59403,A,143303.10
4.75085,57.68783132,11.98136270,57.68785350,11.98134483,14:33:03.254515,0.00298,1.33158,-0.02813,-0.03258,0.04064,-0.02224,0.00664,0.04404,0.04197,0.92348,4.74746,1.20388,-1.50733,-1.51701,-0.75103,0.51796,4.71896,-1.81283,2.98373,-1.59403,A,143303.10
4.76150,57.68783132,11.98136270,57.68785350,11.98134483,14:33:03.265169,0.00324,1.33158,-0.02752,-0.03258,0.04323,-0.05049,-0.00725,0.05594,-0.00159,0.92885,4.75812,1.20388,-1.50733,-1.51701,-0.75103,0.51796,4.71896,-1.81283,2.98373,-1.59403,A,143303.10
4.77172,57.68783132,11.98136270,57.68785350,11.98134483,14:33:03.275404,0.00322,1.33158,-0.02724,-0.03258,0.03606,-0.06668,-0.01748,-0.07960,-0.01708,1.00382,4.76814,1.20388,-1.50733,-1.51701,-0.75103,0.51796,4.71896,-1.81283,2.98373,-1.59403,A,143303.10
4.78207,57.68783132,11.98136270,57.68785350,11.98134483,14:33:03.285734,0.00316,1.33158,-0.02712,-0.03258,0.03422,-0.04698,-0.03612,-0.12328,-0.02757,1.03438,4.77869,1.20388,-1.50733,-1.51701,-0.75103,0.51796,4.71896,-1.81283,2.98373,-1.59403,A,143303.10
4.79249,57.68783132,11.98136270,57.68785350,11.98134483,14:33:03.296159,0.00319,1.33158,-0.02766,-0.03258,0.03239,-0.01934,-0.04421,-0.07869,-0.07125,1.03206,4.78909,1.20388,-1.50733,-1.51701,-0.75103,0.51796,4.71896,-1.81283,2.98373,-1.59403,A,143303.10
4.80282,57.68783132,11.98136270,57.68785350,11.98134483,14:33:03.306495,0.00298,1.33158,-0.02789,-0.03258,0.01834,0.01289,-0.04986,-0.11675,-0.04166,1.05554,4.79944,1.20388,-1.50733,-1.51701,-0.75103,0.51796,4.71896,-1.81283,2.98373,-1.59403,A,143303.10
4.81356,57.68783132,11.98136270,57.68785350,11.98134483,14:33:03.317228,0.00332,1.33158,-0.02775,-0.03261,0.01055,0.02984,-0.04284,0.05215,-0.00982,0.98789,4.81017,1.20388,-1.50733,-1.51701,-0.75103,0.51796,4.71896,-1.81283,2.98373,-1.59403,A,143303.10
4.83763,57.68783132,11.98136270,57.68785433,11.98134433,14:33:03.341305,0.01699,1.33158,-0.02737,-0.03269,0.01513,0.00907,-0.03642,-0.00104,0.00311,0.94611,4.82020,1.20388,-1.50733,-1.51701,-0.75103,0.51796,4.83559,-1.84255,3.07639,-1.58242,A,143303.20
4.84877,57.68783132,11.98136190,57.68785433,11.98134433,14:33:03.352443,0.00563,1.33158,-0.02573,-0.03351,0.03254,-0.01506,-0.02451,-0.00988,0.04709,0.96038,4.84310,1.22942,-1.52052,-1.53047,-0.79872,0.51797,4.83559,-1.84255,3.07639,-1.58242,A,143303.20
4.85679,57.68783132,11.98136190,57.68785433,11.98134433,14:33:03.360465,0.00325,1.33158,-0.02546,-0.03425,0.03422,-0.02697,-0.02069,0.01135,-0.01440,0.90451,4.85339,1.22942,-1.52052,-1.53047,-0.79872,0.51797,4.83559,-1.84255,3.07639,-1.58242,A,143303.20
4.86694,57.68783132,11.98136190,57.68785433,11.98134433,14:33:03.370606,0.00298,1.33158,-0.02567,-0.03510,0.02659,-0.04866,-0.02054,0.12377,-0.03648,0.85430,4.86356,1.22942,-1.52052,-1.53047,-0.79872,0.51797,4.83559,-1.84255,3.07639,-1.58242,A,143303.20
4.87768,57.68783132,11.98136190,57.68785433,11.98134433,14:33:03.381358,0.00331,1.33158,-0.02672,-0.03600,0.02338,-0.08821,-0.02039,0.17830,-0.08424,0.86169,4.87429,1.22942,-1.52052,-1.53047,-0.79872,0.51797,4.83559,-1.84255,3.07639,-1.58242,A,143303.20
4.88794,57.68783132,11.98136190,57.68785433,11.98134433,14:33:03.391612,0.00317,1.33158,-0.02665,-0.03680,0.00704,-0.12746,-0.02375,-0.02342,-0.01110,1.00205,4.88434,1.22942,-1.52052,-1.53047,-0.79872,0.51797,4.83559,-1.84255,3.07639,-1.58242,A,143303.20
4.89834,57.68783132,11.98136190,57.68785433,11.98134433,14:33:03.402011,0.00317,1.33158,-0.02633,-0.03745,0.01177,-0.10073,-0.03550,-0.22186,0.00287,1.15436,4.89496,1.22942,-1.52052,-1.53047,-0.79872,0.51797,4.83559,-1.84255,3.07639,-1.58242,A,143303.20
4.90875,57.68783132,11.98136190,57.68785433,11.98134433,14:33:03.412420,0.00316,1.33158,-0.02633,-0.03781,0.01025,-0.04713,-0.04009,-0.22442,-0.02098,1.20560,4.90536,1.22942,-1.52052,-1.53047,-0.79872,0.51797,4.83559,-1.84255,3.07639,-1.58242,A,143303.20
4.91893,57.68783132,11.98136190,57.68785433,11.98134433,14:33:03.422734,0.00296,1.33158,-0.02625,-0.03793,0.00796,0.00098,-0.04589,-0.05801,-0.01238,1.21835,4.91555,1.22942,-1.52052,-1.53047,-0.79872,0.51797,4.83559,-1.84255,3.07639,-1.58242,A,143303.20
4.92954,57.68783132,11.98136190,57.68785433,11.98134433,14:33:03.433205,0.00317,1.33158,-0.02620,-0.03793,-0.00304,0.00663,-0.04207,0.10730,-0.00573,1.10483,4.92615,1.22942,-1.52052,-1.53047,-0.79872,0.51797,4.83559,-1.84255,3.07639,-1.58242,A,143303.20
4.96519,57.68783132,11.98136190,57.68785650,11.98134283,14:33:03.468872,0.02858,1.33158,-0.02566,-0.03793,-0.00716,-0.02193,-0.03764,0.11230,0.02989,0.99155,4.93743,1.22942,-1.52052,-1.53047,-0.79872,0.51797,4.96295,-1.93171,3.31732,-1.60116,A,143303.40
4.98035,57.68783123,11.98136104,57.68785650,11.98134283,14:33:03.484740,0.00625,1.33158,-0.02648,-0.03858,-0.00166,-0.01277,-0.02680,-0.12206,-0.05856,0.95337,4.97406,1.24985,-1.53502,-1.54647,-0.84930,0.50757,4.96295,-1.93171,3.31732,-1.60116,A,143303.40
4.98733,57.68783123,11.98136104,57.68785650,11.98134283,14:33:03.491207,0.00301,1.33158,-0.02826,-0.03926,-0.01587,0.00204,-0.03474,-0.01122,-0.11041,0.91024,4.98395,1.24985,-1.53502,-1.54647,-0.84930,0.50757,4.96295,-1.93171,3.31732,-1.60116,A,143303.40
4.99788,57.68783123,11.98136104,57.68785650,11.98134283,14:33:03.501545,0.00315,1.33158,-0.02939,-0.04016,-0.03725,0.01075,-0.04070,0.01128,-0.05588,0.88133,4.99449,1.24985,-1.53502,-1.54647,-0.84930,0.50757,4.96295,-1.93171,3.31732,-1.60116,A,143303.40
5.00827,57.68783123,11.98136104,57.68785650,11.98134283,14:33:03.511941,0.00315,1.33158,-0.02913,-0.04110,-0.04412,0.01289,-0.04635,-0.03855,0.02898,0.91726,5.00488,1.24985,-1.53502,-1.54647,-0.84930,0.50757,4.96295,-1.93171,3.31732,-1.60116,A,143303.40
5.02103,57.68783123,11.98136104,57.68785650,11.98134283,14:33:03.525403,0.00522,1.33158,0.00000,-0.04206,-0.03786,0.03167,-0.04451,-0.08491,0.06838,0.96630,5.01543,1.24985,-1.53502,-1.54647,-0.84930,0.50757,4.96295,-1.93171,3.31732,-1.60116,A,143303.40
5.03445,57.68783123,11.98136104,57.68785650,11.98134283,14:33:03.538145,0.00816,1.33158,-0.00113,-0.04294,-0.03877,0.04710,-0.04574,-0.05429,-0.03306,0.98234,5.02617,1.24985,-1.53502,-1.54647,0.02521,0.00000,4.96295,-1.93171,3.31732,-1.60116,A,143303.40
5.04172,57.68783123,11.98136104,57.68785650,11.98134283,14:33:03.545392,0.00471,1.33158,-0.00296,-0.04367,-0.05053,0.06221,-0.05139,-0.07161,-0.07381,1.03200,5.03744,1.24985,-1.53502,-1.54647,0.02521,0.00000,4.96295,-1.93171,3.31732,-1.60116,A,143303.40
5.05180,57.68783123,11.98136104,57.68785650,11.98134283,14:33:03.555492,0.00439,1.33158,-0.00308,-0.04438,-0.05557,0.06328,-0.05322,0.03416,0.04032,1.03761,5.04721,1.24985,-1.53502,-1.54647,0.02521,0.00000,4.96295,-1.93171,3.31732,-1.60116,A,143303.40
5.06218,57.68783123,11.98136104,57.68785650,11.98134283,14:33:03.565859,0.00438,1.33158,-0.00310,-0.04498,-0.06122,0.05076,-0.05887,0.09644,0.05508,1.04902,5.05762,1.24985,-1.53502,-1.54647,0.02521,0.00000,4.96295,-1.93171,3.31732,-1.60116,A,143303.40
5.08581,57.68783123,11.98136104,57.68785767,11.98134183,14:33:03.589484,0.01777,1.33158,-0.00359,-0.04551,-0.05313,0.01976,-0.05811,0.01800,0.01501,1.09501,5.06765,1.24985,-1.53502,-1.54647,0.02521,0.00000,5.08284,-1.99115,3.44704,-1.59135,A,143303.50
5.10108,57.68783129,11.98136014,57.68785767,11.98134183,14:33:03.604767,0.00770,1.33158,-0.00667,-0.04625,-0.05909,0.02159,-0.05032,0.02318,-0.09870,1.09458,5.09457,1.26619,-1.54585,-1.55959,-0.90296,0.51360,5.08284,-1.99115,3.44704,-1.59135,A,143303.50
5.10806,57.68783129,11.98136014,57.68785767,11.98134183,14:33:03.611733,0.00414,1.33158,-0.00875,-0.04633,-0.07405,0.00372,-0.03993,0.02379,-0.09199,1.04767,5.10353,1.26619,-1.54585,-1.55959,-0.90296,0.51360,5.08284,-1.99115,3.44704,-1.59135,A,143303.50
5.11845,57.68783129,11.98136014,57.68785767,11.98134183,14:33:03.622127,0.00414,1.33158,-0.00926,-0.04636,-0.06749,0.00082,-0.03184,-0.03556,0.01610,0.94581,5.11409,1.26619,-1.54585,-1.55959,-0.90296,0.51360,5.08284,-1.99115,3.44704,-1.59135,A,143303.50
5.12889,57.68783129,11.98136014,57.68785767,11.98134183,14:33:03.632568,0.00418,1.36709,-0.00872,-0.04636,-0.05145,0.01060,-0.02970,-0.06826,0.06759,0.90920,5.12429,1.26619,-1.54585,-1.55959,-0.90296,0.51360,5.08284,-1.99115,3.44704,-1.59135,A,143303.50
5.13945,57.68783129,11.98136014,57.68785767,11.98134183,14:33:03.643377,0.00435,1.36709,-0.00955,-0.04636,-0.02640,0.02068,-0.02817,-0.06704,-0.02800,0.83088,5.13488,1.26619,-1.54585,-1.55959,-0.90296,0.51360,5.08284,-1.99115,3.44704,-1.59135,A,143303.50
5.14962,57.68783129,11.98136014,57.68785767,11.98134183,14:33:03.653301,0.00413,1.36709,-0.01139,-0.04636,-0.02747,0.03091,-0.03260,-0.07082,-0.08784,0.86443,5.14526,1.26619,-1.54585,-1.55959,-0.90296,0.51360,5.08284,-1.99115,3.44704,-1.59135,A,143303.50
5.16016,57.68783129,11.98136014,57.68785767,11.98134183,14:33:03.663840,0.00422,1.36709,-0.01302,-0.04636,-0.03541,0.03610,-0.03612,-0.07430,-0.07625,0.91390,5.15554,1.26619,-1.54585,-1.55959,-0.90296,0.51360,5.08284,-1.99115,3.44704,-1.59135,A,143303.50
5.17047,57.68783129,11.98136014,57.68785767,11.98134183,14:33:03.674137,0.00414,1.36709,-0.01380,-0.04636,-0.04840,0.04083,-0.03841,-0.12102,-0.01970,1.12637,5.16612,1.26619,-1.54585,-1.55959,-0.90296,0.51360,5.08284,-1.99115,3.44704,-1.59135,A,143303.50
5.18096,57.68783129,11.98136014,57.68785767,11.98134183,14:33:03.684642,0.00423,1.36709,-0.01383,-0.04636,-0.03526,0.05824,-0.04146,-0.09370,0.02818,1.22945,5.17631,1.26619,-1.54585,-1.55959,-0.90296,0.51360,5.08284,-1.99115,3.44704,-1.59135,A,143303.50
5.20520,57.68783129,11.98136014,57.68785867,11.98134100,14:33:03.708877,0.01808,1.36709,-0.01342,-0.04636,-0.02259,0.06038,-0.04100,-0.00293,0.05606,1.27124,5.18693,1.26619,-1.54585,-1.55959,-0.90296,0.51360,5.20222,-2.04068,3.55824,-1.58832,A,143303.60
5.21695,57.68783142,11.98135921,57.68785867,11.98134100,14:33:03.720629,0.00623,1.36709,-0.01355,-0.04636,-0.00212,0.00907,-0.03108,-0.00067,-0.00525,1.01833,5.21056,1.28637,-1.55534,-1.56911,-0.95831,0.52888,5.20222,-2.04068,3.55824,-1.58832,A,143303.60
5.22517,57.68783142,11.98135921,57.68785867,11.98134100,14:33:03.728853,0.00407,1.36709,-0.01393,-0.04636,0.00765,0.00418,-0.02726,-0.07674,-0.02855,0.90609,5.22088,1.28637,-1.55534,-1.56911,-0.95831,0.52888,5.20222,-2.04068,3.55824,-1.58832,A,143303.60
5.23583,57.68783142,11.98135921,57.68785867,11.98134100,14:33:03.739523,0.00417,1.36709,-0.01331,-0.04636,0.02124,0.00479,-0.02711,-0.08930,0.02001,0.80929,5.23126,1.28637,-1.55534,-1.56911,-0.95831,0.52888,5.20222,-2.04068,3.55824,-1.58832,A,143303.60
5.24846,57.68783142,11.98135921,57.68785867,11.98134100,14:33:03.752185,0.00638,1.36709,-0.01337,-0.04636,0.03758,0.02220,-0.02543,-0.11822,-0.02702,0.77446,5.24307,1.28637,-1.55534,-1.56911,-0.95831,0.52888,5.20222,-2.04068,3.55824,-1.58832,A,143303.60
5.25664,57.68783142,11.98135921,57.68785867,11.98134100,14:33:03.760318,0.00433,1.36709,-0.01532,-0.04633,0.04140,0.03961,-0.02069,-0.04050,-0.12133,0.76860,5.25211,1.28637,-1.55534,-1.56911,-0.95831,0.52888,5.20222,-2.04068,3.55824,-1.58832,A,143303.60
5.26684,57.68783142,11.98135921,57.68785867,11.98134100,14:33:03.770521,0.00414,1.36709,-0.01704,-0.04619,0.03056,0.05000,-0.02481,-0.07594,-0.12102,0.86547,5.26250,1.28637,-1.55534,-1.56911,-0.95831,0.52888,5.20222,-2.04068,3.55824,-1.58832,A,143303.60
5.27748,57.68783142,11.98135921,57.68785867,11.98134100,14:33:03.781155,0.00438,1.36709,-0.01754,-0.04591,0.01666,0.05580,-0.02130,-0.02214,-0.04727,0.98515,5.27312,1.28637,-1.55534,-1.56911,-0.95831,0.52888,5.20222,-2.04068,3.55824,-1.58832,A,143303.60
5.28801,57.68783142,11.98135921,57.68785867,11.98134100,14:33:03.791693,0.00451,1.36709,-0.01663,-0.04551,0.00841,0.05336,-0.01901,-0.06509,0.05667,1.09403,5.28341,1.28637,-1.55534,-1.56911,-0.95831,0.52888,5.20222,-2.04068,3.55824,-1.58832,A,143303.60
5.29822,57.68783142,11.98135921,57.68785867,11.98134100,14:33:03.801900,0.00427,1.36709,-0.01610,-0.04520,0.02140,0.06099,-0.02207,-0.01623,0.02013,1.11124,5.29386,1.28637,-1.55534,-1.56911,-0.95831,0.52888,5.20222,-2.04068,3.55824,-1.58832,A,143303.60
5.32157,57.68783142,11.98135921,57.68785967,11.98134000,14:33:03.825248,0.01739,1.36709,-0.01606,-0.04506,0.02399,0.05091,-0.02985,0.05771,-0.01604,1.09123,5.30380,1.28637,-1.55534,-1.56911,-0.95831,0.52888,5.31866,-2.10011,3.66943,-1.59124,A,143303.70
5.33897,57.68783152,11.98135825,57.68785967,11.98134000,14:33:03.842656,0.00816,1.36709,-0.01573,-0.04506,0.01116,-0.06149,-0.05246,0.03227,-0.00159,0.92598,5.33210,1.30252,-1.56426,-1.57764,-1.01515,0.53956,5.31866,-2.10011,3.66943,-1.59124,A,143303.70
5.34528,57.68783152,11.98135825,57.68785967,11.98134000,14:33:03.848955,0.00407,1.36709,-0.01608,-0.04506,0.01758,-0.06668,-0.05368,-0.05215,-0.03324,0.90780,5.34099,1.30252,-1.56426,-1.57764,-1.01515,0.53956,5.31866,-2.10011,3.66943,-1.59124,A,143303.70
5.35635,57.68783152,11.98135825,57.68785967,11.98134000,14:33:03.860024,0.00460,1.36709,-0.01712,-0.04506,0.02430,-0.05645,-0.05444,-0.12529,-0.08101,0.90292,5.35154,1.30252,-1.56426,-1.57764,-1.01515,0.53956,5.31866,-2.10011,3.66943,-1.59124,A,143303.70
5.36622,57.68783152,11.98135825,57.68785967,11.98134000,14:33:03.869889,0.00407,1.36709,-0.01833,-0.04506,0.02460,-0.03018,-0.04818,-0.11749,-0.09315,0.91836,5.36193,1.30252,-1.56426,-1.57764,-1.01515,0.53956,5.31866,-2.10011,3.66943,-1.59124,A,143303.70
5.37678,57.68783152,11.98135825,57.68785967,11.98134000,14:33:03.880465,0.00441,1.36709,-0.01948,-0.04506,0.02323,-0.00009,-0.03535,-0.10041,-0.09278,0.94703,5.37220,1.30252,-1.56426,-1.57764,-1.01515,0.53956,5.31866,-2.10011,3.66943,-1.59124,A,143303.70
5.38701,57.68783152,11.98135825,57.68785967,11.98134000,14:33:03.890683,0.00424,1.36709,-0.02005,-0.04506,0.01712,0.02801,-0.02268,-0.04331,-0.05447,0.98240,5.38264,1.30252,-1.56426,-1.57764,-1.01515,0.53956,5.31866,-2.10011,3.66943,-1.59124,A,143303.70
5.39734,57.68783152,11.98135825,57.68785967,11.98134000,14:33:03.901010,0.00418,1.36709,-0.01961,-0.04506,0.01498,0.02953,-0.00908,-0.01342,0.01318,1.01608,5.39296,1.30252,-1.56426,-1.57764,-1.01515,0.53956,5.31866,-2.10011,3.66943,-1.59124,A,143303.70
5.40788,57.68783152,11.98135825,57.68785967,11.98134000,14:33:03.911571,0.00417,1.36709,-0.01927,-0.04506,0.01025,0.02297,-0.00771,0.04288,0.01013,1.03663,5.40331,1.30252,-1.56426,-1.57764,-1.01515,0.53956,5.31866,-2.10011,3.66943,-1.59124,A,143303.70
5.41822,57.68783152,11.98135825,57.68785967,11.98134000,14:33:03.921896,0.00412,1.36709,-0.01860,-0.04506,0.00964,-0.00208,-0.00908,0.06588,0.03215,0.99546,5.41388,1.30252,-1.56426,-1.57764,-1.01515,0.53956,5.31866,-2.10011,3.66943,-1.59124,A,143303.70
5.44202,57.68783152,11.98135825,57.68786083,11.98133933,14:33:03.945701,0.01770,1.36709,-0.01762,-0.04506,0.01422,-0.03659,-0.01122,0.09327,0.04734,0.93043,5.42395,1.30252,-1.56426,-1.57764,-1.01515,0.53956,5.43907,-2.13974,3.79916,-1.58548,A,143303.80
5.45399,57.68783173,11.98135729,57.68786083,11.98133933,14:33:03.957674,0.00633,1.36709,-0.01779,-0.04506,0.01605,-0.06714,-0.03688,-0.01677,-0.03538,0.85382,5.44737,1.31543,-1.57057,-1.58396,-1.07234,0.56309,5.43907,-2.13974,3.79916,-1.58548,A,143303.80
5.46263,57.68783173,11.98135729,57.68786083,11.98133933,14:33:03.966313,0.00456,1.36709,-0.01927,-0.04506,0.00597,-0.05614,-0.05032,-0.05106,-0.09845,0.91164,5.45794,1.31543,-1.57057,-1.58396,-1.07234,0.56309,5.43907,-2.13974,3.79916,-1.58548,A,143303.80
5.47253,57.68783173,11.98135729,57.68786083,11.98133933,14:33:03.976200,0.00424,1.36709,-0.02072,-0.04506,-0.00838,-0.04148,-0.05093,-0.02269,-0.09284,0.95349,5.46791,1.31543,-1.57057,-1.58396,-1.07234,0.56309,5.43907,-2.13974,3.79916,-1.58548,A,143303.80
5.48299,57.68783173,11.98135729,57.68786083,11.98133933,14:33:03.986665,0.00431,1.36709,-0.02146,-0.04506,-0.01678,-0.02835,-0.05093,-0.05972,-0.04648,1.04896,5.47864,1.31543,-1.57057,-1.58396,-1.07234,0.56309,5.43907,-2.13974,3.79916,-1.58548,A,143303.80
5.49319,57.68783173,11.98135729,57.68786083,11.98133933,14:33:03.996867,0.00411,1.36709,-0.02124,-0.04506,-0.02091,-0.01598,-0.03367,-0.08741,0.02714,1.21555,5.48883,1.31543,-1.57057,-1.58396,-1.07234,0.56309,5.43907,-2.13974,3.79916,-1.58548,A,143303.80
5.50703,57.68783173,11.98135729,57.68786083,11.98133933,14:33:04.010715,0.00571,1.36709,-0.02089,-0.04506,-0.01006,-0.01231,-0.02359,-0.03202,0.03550,1.34279,5.50198,1.31543,-1.57057,-1.58396,-1.07234,0.56309,5.43907,-2.13974,3.79916,-1.58548,A,143303.80
5.51778,57.68783173,11.98135729,57.68786083,11.98133933,14:33:04.021457,0.00469,1.36709,-0.02070,-0.04506,0.00032,-0.01720,-0.01367,0.01074,0.00817,1.26630,5.51342,1.31543,-1.57057,-1.58396,-1.07234,0.56309,5.43907,-2.13974,3.79916,-1.58548,A,143303.80
5.52779,57.68783173,11.98135729,57.68786083,11.98133933,14:33:04.031475,0.00429,1.36709,-0.02063,-0.04506,0.00643,-0.01262,-0.01489,0.00427,-0.00647,1.14436,5.52329,1.31543,-1.57057,-1.58396,-1.07234,0.56309,5.43907,-2.13974,3.79916,-1.58548,A,143303.80
5.54025,57.68783173,11.98135729,57.68786083,11.98133933,14:33:04.043978,0.00637,1.36709,-0.02095,-0.04506,0.01697,-0.01384,-0.02588,0.00842,-0.03703,0.91775,5.53368,1.31543,-1.57057,-1.58396,-1.07234,0.56309,5.43907,-2.13974,3.79916,-1.58548,A,143303.80
5.56419,57.68783173,11.98135729,57.68786200,11.98133850,14:33:04.067871,0.02008,1.36709,-0.02154,-0.04506,0.00735,-0.01216,-0.03291,-0.08363,-0.04551,0.86370,5.54375,1.31543,-1.57057,-1.58396,-1.07234,0.56309,5.56077,-2.18927,3.92889,-1.58842,A,143303.90
5.58082,57.68783185,11.98135632,57.68786200,11.98133850,14:33:04.084513,0.00780,1.36709,-0.02181,-0.04506,0.00918,0.02373,-0.03627,0.02233,-0.03654,0.81075,5.57307,1.32577,-1.57696,-1.59034,-1.13023,0.57625,5.56077,-2.18927,3.92889,-1.58842,A,143303.90
5.58747,57.68783185,11.98135632,57.68786200,11.98133850,14:33:04.091372,0.00404,1.36709,-0.02170,-0.04506,0.00735,0.00342,-0.03856,0.05045,-0.00586,0.91543,5.58320,1.32577,-1.57696,-1.59034,-1.13023,0.57625,5.56077,-2.18927,3.92889,-1.58842,A,143303.90
5.59798,57.68783185,11.98135632,57.68786200,11.98133850,14:33:04.101661,0.00416,1.36709,-0.02121,-0.04506,0.00994,0.00067,-0.03459,-0.03087,0.01928,1.06036,5.59363,1.32577,-1.57696,-1.59034,-1.13023,0.57625,5.56077,-2.18927,3.92889,-1.58842,A,143303.90
5.60831,57.68783185,11.98135632,57.68786200,11.98133850,14:33:04.111986,0.00426,1.36709,-0.02131,-0.04506,0.01101,-0.00284,-0.03184,-0.06716,-0.02287,1.09702,5.60369,1.32577,-1.57696,-1.59034,-1.13023,0.57625,5.56077,-2.18927,3.92889,-1.58842,A,143303.90
5.61860,57.68783185,11.98135632,57.68786200,11.98133850,14:33:04.122275,0.00415,1.36709,-0.02102,-0.04506,0.01116,0.00449,-0.02313,-0.06442,0.00488,1.11947,5.61425,1.32577,-1.57696,-1.59034,-1.13023,0.57625,5.56077,-2.18927,3.92889,-1.58842,A,143303.90
5.62900,57.68783185,11.98135632,57.68786200,11.98133850,14:33:04.132670,0.00415,1.36709,-0.02113,-0.04506,0.01300,0.00128,-0.02008,0.08869,-0.02397,1.07494,5.62442,1.32577,-1.57696,-1.59034,-1.13023,0.57625,5.56077,-2.18927,3.92889,-1.58842,A,143303.90
5.63935,57.68783185,11.98135632,57.68786200,11.98133850,14:33:04.143243,0.00411,1.36709,-0.02129,-0.04506,0.00964,-0.02376,-0.01580,0.07143,-0.02544,1.00778,5.63501,1.32577,-1.57696,-1.59034,-1.13023,0.57625,5.56077,-2.18927,3.92889,-1.58842,A,143303.90
5.65027,57.68783185,11.98135632,57.68786200,11.98133850,14:33:04.153950,0.00464,1.36709,-0.02109,-0.04506,0.01132,-0.04560,-0.02084,-0.10675,-0.00165,1.04810,5.64590,1.32577,-1.57696,-1.59034,-1.13023,0.57625,5.56077,-2.18927,3.92889,-1.58842,A,143303.90
5.66011,57.68783185,11.98135632,57.68786200,11.98133850,14:33:04.163794,0.00415,1.39571,-0.02053,-0.04506,0.01895,-0.02346,-0.02023,-0.18812,0.01793,1.02474,5.65558,1.32577,-1.57696,-1.59034,-1.13023,0.57625,5.56077,-2.18927,3.92889,-1.58842,A,143303.90
5.69542,57.68783185,11.98135632,57.68786417,11.98133683,14:33:04.199247,0.02906,1.39571,-0.02045,-0.04506,0.02918,0.00632,-0.02558,-0.08180,-0.02159,0.96929,5.66614,1.32577,-1.57696,-1.59034,-1.13023,0.57625,5.69238,-2.28833,4.16981,-1.60419,A,143304.10
5.70728,57.68783204,11.98135529,57.68786417,11.98133683,14:33:04.211219,0.00599,1.39571,-0.01892,-0.04500,0.02674,0.04526,-0.01779,-0.11261,0.03038,0.92988,5.70118,1.33975,-1.58487,-1.59824,-1.19123,0.59766,5.69238,-2.28833,4.16981,-1.60419,A,143304.10
5.71607,57.68783204,11.98135529,57.68786417,11.98133683,14:33:04.219751,0.00419,1.39571,-0.01806,-0.04492,0.02552,0.05794,-0.02207,-0.07076,0.03440,0.98728,5.71148,1.33975,-1.58487,-1.59824,-1.19123,0.59766,5.69238,-2.28833,4.16981,-1.60419,A,143304.10
5.72641,57.68783204,11.98135529,57.68786417,11.98133683,14:33:04.230087,0.00414,1.39571,-0.01769,-0.04481,0.03422,0.05992,-0.01367,-0.02617,-0.00384,1.06902,5.72206,1.33975,-1.58487,-1.59824,-1.19123,0.59766,5.69238,-2.28833,4.16981,-1.60419,A,143304.10
5.73901,57.68783204,11.98135529,57.68786417,11.98133683,14:33:04.242689,0.00555,1.39571,-0.01800,-0.04466,0.03422,0.03244,-0.01596,0.06808,-0.05777,1.10325,5.73461,1.33975,-1.58487,-1.59824,-1.19123,0.59766,5.69238,-2.28833,4.16981,-1.60419,A,143304.10
