Time,lat_estimated,lon_estimated,latitude,longitude,RealTime,CalculationTime,MeasuredVelocity,FilteredVelocity,Roll,SteeringAngle,RollRate,gy,gz,ax,ay,az,imu_read_timing,v_estimated,yaw_estimated,heading_estimated,x_estimated,y_estimated,GPS_timestamp,x_GPS,y_GPS,theta_GPS,theta_GPS_noUnwrap,status,NMEA timestamp
0.06746,57.68825600,11.98042483,57.68825600,11.98042483,15:28:24.008296,0.06742,0.00000,1.50000,-0.00223,0.02000,-0.00065,-0.00071,0.00057,-0.05313,-0.11651,0.99216,0.00001,0.00000,0.00000,0.00000,0.00000,0.00000,0.01865,0.00000,0.00000,0.00000,0.00000,A,152823.90
0.08899,57.68825600,11.98042483,57.68825600,11.98042483,15:28:24.029198,0.00750,0.00000,0.00000,-0.00419,0.00000,0.00210,0.00189,-0.00034,-0.05179,-0.11315,0.99216,0.08302,0.00000,0.00000,0.00000,0.00000,0.00000,0.01865,0.00000,0.00000,0.00000,0.00000,A,152823.90
0.09948,57.68825600,11.98042483,57.68825600,11.98042483,15:28:24.039684,0.00759,0.00000,0.00000,-0.00631,0.00000,0.00134,0.00051,-0.00263,-0.05051,-0.11444,0.98924,0.09216,0.00000,0.00000,0.00000,0.00000,0.00000,0.01865,0.00000,0.00000,0.00000,0.00000,A,152823.90
0.10814,57.68825600,11.98042483,57.68825600,11.98042483,15:28:24.048348,0.00597,0.00000,0.00000,-0.00844,0.00000,-0.00095,-0.00147,0.00195,-0.05362,-0.11560,0.98979,0.10175,0.00000,0.00000,0.00000,0.00000,0.00000,0.01865,0.00000,0.00000,0.00000,0.00000,A,152823.90
0.14468,57.68825600,11.98042483,57.68825650,11.98042383,15:28:24.084904,0.03211,0.00000,1.50000,-0.01053,0.02000,-0.00065,0.00097,0.00454,-0.05307,-0.11614,0.99192,0.11264,0.00000,0.00000,0.00000,0.00000,0.00000,0.13019,-0.05944,0.05560,2.38956,2.38956,A,152824.00
0.16387,57.68825603,11.98042478,57.68825650,11.98042383,15:28:24.104083,0.00692,0.00000,0.00000,-0.01250,0.00000,0.00103,0.00280,-0.00156,-0.05295,-0.11340,0.99271,0.15782,0.00000,0.35843,0.35843,-0.00297,0.00278,0.13019,-0.05944,0.05560,2.38956,2.38956,A,152824.00
0.17243,57.68825605,11.98042474,57.68825650,11.98042383,15:28:24.112623,0.00508,0.00000,0.00000,-0.01450,0.00000,-0.00019,0.00021,-0.00065,-0.05100,-0.11401,0.99015,0.16668,0.00000,0.66310,0.66310,-0.00580,0.00542,0.13019,-0.05944,0.05560,2.38956,2.38956,A,152824.00
0.18459,57.68825607,11.98042469,57.68825650,11.98042383,15:28:24.124802,0.00685,0.00000,0.00000,-0.01646,0.00000,0.00286,0.00082,-0.00156,-0.05215,-0.11535,0.99168,0.17714,0.00000,0.92207,0.92207,-0.00848,0.00793,0.13019,-0.05944,0.05560,2.38956,2.38956,A,152824.00
0.19325,57.68825609,11.98042465,57.68825650,11.98042383,15:28:24.133447,0.00511,0.00000,0.00000,-0.01837,0.00000,0.00271,0.00174,0.00180,-0.05459,-0.11364,0.99009,0.18751,0.00000,1.14219,1.14219,-0.01103,0.01031,0.13019,-0.05944,0.05560,2.38956,2.38956,A,152824.00
0.20576,57.68825611,11.98042461,57.68825650,11.98042383,15:28:24.146287,0.00712,0.00000,0.00000,-0.02029,0.00000,-0.00141,-0.00040,0.00286,-0.05215,-0.11389,0.99021,0.19825,0.00000,1.32930,1.32930,-0.01345,0.01258,0.13019,-0.05944,0.05560,2.38956,2.38956,A,152824.00
0.21506,57.68825613,11.98042457,57.68825650,11.98042383,15:28:24.155263,0.00602,0.00000,0.00000,-0.02223,0.00000,-0.00202,-0.00040,-0.00233,-0.05118,-0.11608,0.99015,0.20899,0.00000,1.48834,1.48834,-0.01575,0.01473,0.13019,-0.05944,0.05560,2.38956,2.38956,A,152824.00
0.22453,57.68825615,11.98042453,57.68825650,11.98042383,15:28:24.164733,0.00509,0.00000,0.00000,-0.02414,0.00000,-0.00340,0.00021,0.00271,-0.05173,-0.11566,0.98936,0.21879,0.00000,1.62352,1.62352,-0.01793,0.01677,0.13019,-0.05944,0.05560,2.38956,2.38956,A,152824.00
0.26648,57.68825617,11.98042450,57.68825600,11.98042483,15:28:24.207760,0.03646,0.00000,1.50000,-0.02605,0.02000,-0.00538,-0.00300,0.00347,-0.05368,-0.11639,0.99186,0.22918,0.00000,1.73842,1.73842,-0.02001,0.01871,0.24549,0.00000,0.00000,-0.75204,-0.75204,A,152824.10
0.28803,57.68825616,11.98042451,57.68825600,11.98042483,15:28:24.228238,0.00863,0.00000,0.00000,-0.02786,0.00000,-0.00004,0.00021,-0.00156,-0.05155,-0.11505,0.99094,0.28199,0.00000,1.36485,1.36485,-0.01900,0.01778,0.24549,0.00000,0.00000,-0.75204,-0.75204,A,152824.10
0.29519,57.68825615,11.98042453,57.68825600,11.98042483,15:28:24.235388,0.00521,0.00000,0.00000,-0.02965,0.00000,-0.00050,-0.00132,-0.00004,-0.05051,-0.11511,0.99180,0.28914,0.00000,1.04732,1.04732,-0.01805,0.01689,0.24549,0.00000,0.00000,-0.75204,-0.75204,A,152824.10
0.30725,57.68825614,11.98042454,57.68825600,11.98042483,15:28:24.247619,0.00686,0.00000,0.00000,-0.03144,0.00000,-0.00294,0.00036,-0.00202,-0.05228,-0.11523,0.99253,0.30023,0.00000,0.77742,0.77742,-0.01715,0.01604,0.24549,0.00000,0.00000,-0.75204,-0.75204,A,152824.10
0.31737,57.68825614,11.98042456,57.68825600,11.98042483,15:28:24.257566,0.00675,0.00000,0.00000,-0.03317,0.00000,-0.00477,0.00097,-0.00187,-0.05173,-0.11206,0.99381,0.31155,0.00000,0.54800,0.54800,-0.01629,0.01524,0.24549,0.00000,0.00000,-0.75204,-0.75204,A,152824.10
0.32639,57.68825613,11.98042457,57.68825600,11.98042483,15:28:24.266603,0.00537,0.00000,0.00000,-0.03490,0.00000,-0.00309,0.00036,-0.00050,-0.05002,-0.11517,0.99436,0.32039,0.00000,0.35299,0.35299,-0.01548,0.01448,0.24549,0.00000,0.00000,-0.75204,-0.75204,A,152824.10
0.33657,57.68825612,11.98042459,57.68825600,11.98042483,15:28:24.276768,0.00515,0.00000,0.00000,-0.03656,0.00000,-0.00050,0.00189,-0.00401,-0.05398,-0.11407,0.99247,0.33082,0.00000,0.18724,0.18724,-0.01471,0.01376,0.24549,0.00000,0.00000,-0.75204,-0.75204,A,152824.10
0.38003,57.68825612,11.98042460,57.68825483,11.98042633,15:28:24.320813,0.03733,0.00000,1.50000,-0.03824,0.02000,-0.00263,0.00128,0.00241,-0.04941,-0.11517,0.99308,0.34234,0.00000,0.04635,0.04635,-0.01397,0.01307,0.35983,0.08915,-0.12973,-0.96868,-0.96868,A,152824.20
0.39934,57.68825605,11.98042469,57.68825483,11.98042633,15:28:24.339543,0.00685,0.00000,0.00000,-0.03976,0.00000,0.00225,0.00311,0.00027,-0.05215,-0.11517,0.99155,0.39324,0.00000,-0.10591,-0.10591,-0.00881,0.00593,0.35983,0.08915,-0.12973,-0.96868,-0.96868,A,152824.20
0.40933,57.68825599,11.98042477,57.68825483,11.98042633,15:28:24.349533,0.00644,0.00000,0.00000,-0.04134,0.00000,0.00271,0.00357,-0.00248,-0.05453,-0.11535,0.99149,0.40205,0.00000,-0.23532,-0.23532,-0.00392,-0.00085,0.35983,0.08915,-0.12973,-0.96868,-0.96868,A,152824.20
0.41867,57.68825593,11.98042485,57.68825483,11.98042633,15:28:24.358868,0.00537,0.00000,0.00000,-0.04292,0.00000,-0.00019,-0.00162,0.00088,-0.05203,-0.11492,0.99204,0.41265,0.00000,-0.34533,-0.34533,0.00074,-0.00730,0.35983,0.08915,-0.12973,-0.96868,-0.96868,A,152824.20
0.42936,57.68825588,11.98042492,57.68825483,11.98042633,15:28:24.369564,0.00579,0.00000,0.00000,-0.04447,0.00000,-0.00279,0.00204,0.00042,-0.05130,-0.11261,0.99076,0.42293,0.00000,-0.43883,-0.43883,0.00516,-0.01342,0.35983,0.08915,-0.12973,-0.96868,-0.96868,A,152824.20
0.44004,57.68825583,11.98042499,57.68825483,11.98042633,15:28:24.380238,0.00592,0.00000,0.00000,-0.04601,0.00000,-0.00324,0.00006,-0.00202,-0.05301,-0.11334,0.99180,0.43403,0.00000,-0.51831,-0.51831,0.00936,-0.01924,0.35983,0.08915,-0.12973,-0.96868,-0.96868,A,152824.20
0.44961,57.68825578,11.98042506,57.68825483,11.98042633,15:28:24.389809,0.00510,0.00000,0.00000,-0.04751,0.00000,0.00103,-0.00010,0.00103,-0.05179,-0.11511,0.99247,0.44388,0.00000,-0.58586,-0.58586,0.01335,-0.02476,0.35983,0.08915,-0.12973,-0.96868,-0.96868,A,152824.20
0.46007,57.68825573,11.98042512,57.68825483,11.98042633,15:28:24.400275,0.00515,0.00000,0.00000,-0.04895,0.00000,0.00210,-0.00269,-0.00004,-0.05130,-0.11315,0.99204,0.45407,0.00000,-0.64329,-0.64329,0.01714,-0.03001,0.35983,0.08915,-0.12973,-0.96868,-0.96868,A,152824.20
0.50418,57.68825569,11.98042518,57.68825233,11.98043150,15:28:24.444653,0.03885,0.00000,1.50000,-0.05040,0.02000,-0.00065,0.00097,-0.00050,-0.05325,-0.11352,0.99046,0.46469,0.00000,-0.69210,-0.69210,0.02074,-0.03499,0.48234,0.39624,-0.40771,-0.73570,-0.73570,A,152824.30
0.52200,57.68825552,11.98042550,57.68825233,11.98043150,15:28:24.462224,0.00760,0.00000,0.00000,-0.05190,0.00000,-0.00141,0.00128,-0.00050,-0.05008,-0.11444,0.99155,0.51367,0.00000,-0.69864,-0.69864,0.03951,-0.05363,0.48234,0.39624,-0.40771,-0.73570,-0.73570,A,152824.30
0.52969,57.68825536,11.98042580,57.68825233,11.98043150,15:28:24.470155,0.00511,0.00000,0.00000,-0.05334,0.00000,-0.00233,0.00112,0.00118,-0.05295,-0.11462,0.99033,0.52396,0.00000,-0.70420,-0.70420,0.05735,-0.07133,0.48234,0.39624,-0.40771,-0.73570,-0.73570,A,152824.30
0.54008,57.68825521,11.98042608,57.68825233,11.98043150,15:28:24.480279,0.00510,0.00000,0.00000,-0.05477,0.00000,-0.00263,-0.00132,0.00027,-0.05228,-0.11468,0.99015,0.53411,0.00000,-0.70892,-0.70892,0.07430,-0.08815,0.48234,0.39624,-0.40771,-0.73570,-0.73570,A,152824.30
0.55114,57.68825506,11.98042635,57.68825233,11.98043150,15:28:24.491362,0.00576,0.00000,0.00000,-0.05609,0.00000,0.00363,-0.00025,0.00164,-0.05148,-0.11383,0.99223,0.54476,0.00000,-0.71294,-0.71294,0.09039,-0.10413,0.48234,0.39624,-0.40771,-0.73570,-0.73570,A,152824.30
0.56400,57.68825493,11.98042661,57.68825233,11.98043150,15:28:24.504207,0.00801,0.00000,0.00000,-0.05744,0.00000,-0.00034,-0.00147,-0.00034,-0.05155,-0.11438,0.99223,0.55657,0.00000,-0.71635,-0.71635,0.10569,-0.11931,0.48234,0.39624,-0.40771,-0.73570,-0.73570,A,152824.30
0.57198,57.68825480,11.98042686,57.68825233,11.98043150,15:28:24.512183,0.00572,0.00000,0.00000,-0.05879,0.00000,-0.00172,0.00143,-0.00126,-0.05283,-0.11486,0.99180,0.56575,0.00000,-0.71925,-0.71925,0.12021,-0.13373,0.48234,0.39624,-0.40771,-0.73570,-0.73570,A,152824.30
0.58176,57.68825467,11.98042709,57.68825233,11.98043150,15:28:24.522197,0.00511,0.00000,0.00000,-0.06012,0.00000,-0.00462,0.00143,0.00027,-0.05228,-0.11291,0.99088,0.57603,0.00000,-0.72172,-0.72172,0.13402,-0.14743,0.48234,0.39624,-0.40771,-0.73570,-0.73570,A,152824.30
0.63187,57.68825456,11.98042731,57.68824900,11.98043783,15:28:24.572110,0.04447,0.00000,1.50000,-0.06141,0.02000,-0.00187,-0.00101,-0.00019,-0.04807,-0.11358,0.99528,0.58690,0.00000,-0.72382,-0.72382,0.14713,-0.16044,0.61437,0.77267,-0.77836,-0.77766,-0.77766,A,152824.50
0.65182,57.68825428,11.98042783,57.68824900,11.98043783,15:28:24.592028,0.00620,0.00000,0.00000,-0.06281,0.00000,-0.00202,0.00174,0.00027,-0.05081,-0.11444,0.98863,0.64576,0.00000,-0.73189,-0.73189,0.17840,-0.19134,0.61437,0.77267,-0.77836,-0.77766,-0.77766,A,152824.50
0.66101,57.68825402,11.98042833,57.68824900,11.98043783,15:28:24.601211,0.00499,0.00000,0.00000,-0.06407,0.00000,-0.00019,-0.00315,-0.00080,-0.05215,-0.11547,0.99235,0.65526,0.00000,-0.73876,-0.73876,0.20812,-0.22069,0.61437,0.77267,-0.77836,-0.77766,-0.77766,A,152824.50
0.67149,57.68825376,11.98042881,57.68824900,11.98043783,15:28:24.611692,0.00521,0.00000,0.00000,-0.06529,0.00000,0.00134,0.00067,0.00180,-0.05362,-0.11456,0.99198,0.66547,0.00000,-0.74459,-0.74459,0.23635,-0.24858,0.61437,0.77267,-0.77836,-0.77766,-0.77766,A,152824.50
0.68216,57.68825353,11.98042926,57.68824900,11.98043783,15:28:24.622383,0.00547,0.00000,0.00000,-0.06649,0.00000,0.00164,-0.00086,-0.00172,-0.05130,-0.11505,0.99155,0.67605,0.00000,-0.74955,-0.74955,0.26316,-0.27506,0.61437,0.77267,-0.77836,-0.77766,-0.77766,A,152824.50
0.69219,57.68825330,11.98042969,57.68824900,11.98043783,15:28:24.632387,0.00510,0.00000,0.00000,-0.06771,0.00000,-0.00141,0.00433,-0.00233,-0.05520,-0.11517,0.99192,0.68623,0.00000,-0.75377,-0.75377,0.28864,-0.30023,0.61437,0.77267,-0.77836,-0.77766,-0.77766,A,152824.50
0.70386,57.68825308,11.98043010,57.68824900,11.98043783,15:28:24.644063,0.00611,0.00000,0.00000,-0.06891,0.00000,-0.00111,-0.00101,0.00195,-0.05173,-0.11492,0.98942,0.69782,0.00000,-0.75735,-0.75735,0.31284,-0.32414,0.61437,0.77267,-0.77836,-0.77766,-0.77766,A,152824.50
0.71326,57.68825288,11.98043048,57.68824900,11.98043783,15:28:24.653460,0.00512,0.00000,0.00000,-0.07006,0.00000,0.00027,-0.00056,0.00302,-0.05197,-0.11425,0.99162,0.70752,0.00000,-0.76040,-0.76040,0.33583,-0.34685,0.61437,0.77267,-0.77836,-0.77766,-0.77766,A,152824.50
0.75461,57.68825269,11.98043085,57.68824783,11.98043967,15:28:24.694832,0.03622,0.00000,1.50000,-0.07119,0.02000,0.00164,0.00235,0.00027,-0.05020,-0.11431,0.98948,0.71792,0.00000,-0.76299,-0.76299,0.35767,-0.36842,0.73467,0.88164,-0.90809,-0.87215,-0.87215,A,152824.60
0.77336,57.68825244,11.98043129,57.68824783,11.98043967,15:28:24.713558,0.00676,0.00000,0.00000,-0.07218,0.00000,0.00271,0.00082,-0.00050,-0.05234,-0.11450,0.99247,0.76756,0.00000,-0.77936,-0.77936,0.38387,-0.39541,0.73467,0.88164,-0.90809,-0.87215,-0.87215,A,152824.60
0.78313,57.68825221,11.98043171,57.68824783,11.98043967,15:28:24.723343,0.00595,0.00000,0.00000,-0.07332,0.00000,-0.00141,0.00326,-0.00111,-0.05258,-0.11621,0.99149,0.77683,0.00000,-0.79328,-0.79328,0.40876,-0.42104,0.73467,0.88164,-0.90809,-0.87215,-0.87215,A,152824.60
0.79482,57.68825199,11.98043211,57.68824783,11.98043967,15:28:24.735023,0.00723,0.00000,0.00000,-0.07441,0.00000,0.00103,0.00036,-0.00156,-0.05368,-0.11456,0.99046,0.78812,0.00000,-0.80511,-0.80511,0.43240,-0.44539,0.73467,0.88164,-0.90809,-0.87215,-0.87215,A,152824.60
0.80351,57.68825179,11.98043249,57.68824783,11.98043967,15:28:24.743718,0.00538,0.00000,0.00000,-0.07544,0.00000,0.00073,0.00189,-0.00080,-0.05301,-0.11224,0.99265,0.79748,0.00000,-0.81517,-0.81517,0.45487,-0.46853,0.73467,0.88164,-0.90809,-0.87215,-0.87215,A,152824.60
0.81489,57.68825159,11.98043285,57.68824783,11.98043967,15:28:24.755084,0.00636,0.00000,0.00000,-0.07652,0.00000,0.00164,0.00250,0.00073,-0.05222,-0.11682,0.99088,0.80881,0.00000,-0.82372,-0.82372,0.47620,-0.49051,0.73467,0.88164,-0.90809,-0.87215,-0.87215,A,152824.60
0.82519,57.68825140,11.98043319,57.68824783,11.98043967,15:28:24.765398,0.00584,0.00000,0.00000,-0.07759,0.00000,-0.00355,-0.00056,-0.00004,-0.05380,-0.11370,0.98918,0.81904,0.00000,-0.83098,-0.83098,0.49648,-0.51139,0.73467,0.88164,-0.90809,-0.87215,-0.87215,A,152824.60
0.86402,57.68825122,11.98043351,57.68824617,11.98044200,15:28:24.804246,0.03427,0.00000,1.50000,-0.07865,0.02000,-0.00340,-0.00254,-0.00187,-0.05124,-0.11431,0.98905,0.82910,0.00000,-0.83716,-0.83716,0.51574,-0.53122,0.84547,1.02033,-1.09342,-0.92836,-0.92836,A,152824.70
0.88390,57.68825097,11.98043393,57.68824617,11.98044200,15:28:24.824103,0.00649,0.00000,0.00000,-0.07954,0.00000,0.00271,0.00097,-0.00340,-0.05411,-0.11517,0.99229,0.87753,0.00000,-0.85084,-0.85084,0.54096,-0.55933,0.84547,1.02033,-1.09342,-0.92836,-0.92836,A,152824.70
0.89288,57.68825073,11.98043434,57.68824617,11.98044200,15:28:24.833080,0.00507,0.00000,0.00000,-0.08053,0.00000,0.00042,-0.00056,-0.00279,-0.05167,-0.11462,0.99467,0.88714,0.00000,-0.86247,-0.86247,0.56493,-0.58604,0.84547,1.02033,-1.09342,-0.92836,-0.92836,A,152824.70
0.90362,57.68825050,11.98043472,57.68824617,11.98044200,15:28:24.843826,0.00537,0.00000,0.00000,-0.08153,0.00000,-0.00233,-0.00239,-0.00050,-0.05203,-0.11340,0.98863,0.89759,0.00000,-0.87235,-0.87235,0.58770,-0.61140,0.84547,1.02033,-1.09342,-0.92836,-0.92836,A,152824.70
0.91374,57.68825028,11.98043509,57.68824617,11.98044200,15:28:24.854323,0.00509,0.00000,0.00000,-0.08251,0.00000,-0.00141,-0.00040,-0.00080,-0.05124,-0.11425,0.99003,0.90800,0.00000,-0.88075,-0.88075,0.60933,-0.63551,0.84547,1.02033,-1.09342,-0.92836,-0.92836,A,152824.70
0.92477,57.68825008,11.98043543,57.68824617,11.98044200,15:28:24.864973,0.00588,0.00000,0.00000,-0.08352,0.00000,-0.00416,-0.00086,-0.00034,-0.05398,-0.11499,0.99101,0.91898,0.00000,-0.88789,-0.88789,0.62988,-0.65840,0.84547,1.02033,-1.09342,-0.92836,-0.92836,A,152824.70
0.93538,57.68824988,11.98043576,57.68824617,11.98044200,15:28:24.875579,0.00534,0.00000,0.00000,-0.08455,0.00000,-0.00538,-0.00269,-0.00065,-0.05222,-0.11675,0.99113,0.92930,0.00000,-0.89396,-0.89396,0.64941,-0.68015,0.84547,1.02033,-1.09342,-0.92836,-0.92836,A,152824.70
0.94553,57.68824970,11.98043607,57.68824617,11.98044200,15:28:24.885730,0.00509,0.00000,0.00000,-0.08547,0.00000,0.00103,-0.00208,-0.00080,-0.05459,-0.11517,0.99015,0.93980,0.00000,-0.89912,-0.89912,0.66795,-0.70081,0.84547,1.02033,-1.09342,-0.92836,-0.92836,A,152824.70
0.98898,57.68824952,11.98043637,57.68824433,11.98044450,15:28:24.929211,0.03814,0.00000,1.50000,-0.08640,0.02000,-0.00172,0.00097,-0.00202,-0.05173,-0.11438,0.99137,0.94998,0.00000,-0.90351,-0.90351,0.68557,-0.72044,0.96638,1.16892,-1.29727,-0.94094,-0.94094,A,152824.80
1.00779,57.68824926,11.98043677,57.68824433,11.98044450,15:28:24.947990,0.00693,0.00000,0.00000,-0.08731,0.00000,-0.00065,0.00174,0.00164,-0.05215,-0.11346,0.99101,1.00158,0.00000,-0.90912,-0.90912,0.70974,-0.74929,0.96638,1.16892,-1.29727,-0.94094,-0.94094,A,152824.80
1.01636,57.68824902,11.98043716,57.68824433,11.98044450,15:28:24.956556,0.00509,0.00000,0.00000,-0.08822,0.00000,-0.00294,0.00158,-0.00386,-0.05130,-0.11468,0.99253,1.01040,0.00000,-0.91390,-0.91390,0.73270,-0.77669,0.96638,1.16892,-1.29727,-0.94094,-0.94094,A,152824.80
1.02892,57.68824878,11.98043753,57.68824433,11.98044450,15:28:24.969123,0.00654,0.00000,0.00000,-0.08912,0.00000,-0.00202,-0.00178,-0.00324,-0.05215,-0.11511,0.99192,1.02275,0.00000,-0.91795,-0.91795,0.75451,-0.80272,0.96638,1.16892,-1.29727,-0.94094,-0.94094,A,152824.80
1.03811,57.68824856,11.98043788,57.68824433,11.98044450,15:28:24.978316,0.00533,0.00000,0.00000,-0.09000,0.00000,-0.00202,-0.00101,0.00073,-0.05185,-0.11431,0.98942,1.03214,0.00000,-0.92140,-0.92140,0.77523,-0.82744,0.96638,1.16892,-1.29727,-0.94094,-0.94094,A,152824.80
1.04829,57.68824835,11.98043821,57.68824433,11.98044450,15:28:24.988495,0.00512,0.00000,0.00000,-0.09085,0.00000,-0.00324,0.00265,-0.00187,-0.05301,-0.11303,0.99155,1.04232,0.00000,-0.92433,-0.92433,0.79491,-0.85093,0.96638,1.16892,-1.29727,-0.94094,-0.94094,A,152824.80
1.05985,57.68824815,11.98043852,57.68824433,11.98044450,15:28:25.000053,0.00641,0.00000,0.00000,-0.09171,0.00000,-0.00294,-0.00025,0.00057,-0.05161,-0.11462,0.99033,1.05293,0.00000,-0.92682,-0.92682,0.81361,-0.87325,0.96638,1.16892,-1.29727,-0.94094,-0.94094,A,152824.80
1.10250,57.68824796,11.98043882,57.68824217,11.98044733,15:28:25.042744,0.03880,0.00000,1.50000,-0.09215,0.02000,0.03707,-0.00178,-0.00248,-0.05148,-0.11535,0.99088,1.06376,0.00000,-0.92894,-0.92894,0.83138,-0.89445,1.08035,1.33732,-1.53820,-0.96075,-0.96075,A,152824.90
1.12299,57.68824767,11.98043925,57.68824217,11.98044733,15:28:25.063212,0.00779,0.00000,0.00000,-0.09301,0.00000,-0.00156,-0.00025,0.00118,-0.05148,-0.11261,0.99308,1.11660,0.00000,-0.93371,-0.93371,0.85668,-0.92664,1.08035,1.33732,-1.53820,-0.96075,-0.96075,A,152824.90
1.13193,57.68824739,11.98043965,57.68824217,11.98044733,15:28:25.072140,0.00589,0.00000,0.00000,-0.09382,0.00000,-0.00065,0.00021,0.00042,-0.05258,-0.11474,0.98905,1.12545,0.00000,-0.93777,-0.93777,0.88071,-0.95722,1.08035,1.33732,-1.53820,-0.96075,-0.96075,A,152824.90
1.14172,57.68824713,11.98044004,57.68824217,11.98044733,15:28:25.082181,0.00537,0.00000,0.00000,-0.09460,0.00000,-0.00156,-0.00040,0.00149,-0.05374,-0.11334,0.99277,1.13598,0.00000,-0.94121,-0.94121,0.90354,-0.98627,1.08035,1.33732,-1.53820,-0.96075,-0.96075,A,152824.90
1.15250,57.68824688,11.98044040,57.68824217,11.98044733,15:28:25.092707,0.00591,0.00000,0.00000,-0.09537,0.00000,0.00103,0.00174,-0.00386,-0.05026,-0.11511,0.99040,1.14576,0.00000,-0.94414,-0.94414,0.92523,-1.01386,1.08035,1.33732,-1.53820,-0.96075,-0.96075,A,152824.90
1.16319,57.68824665,11.98044075,57.68824217,11.98044733,15:28:25.103390,0.00620,0.00000,0.00000,-0.09615,0.00000,-0.00126,-0.00025,0.00149,-0.05203,-0.11468,0.99143,1.15636,0.00000,-0.94663,-0.94663,0.94583,-1.04008,1.08035,1.33732,-1.53820,-0.96075,-0.96075,A,152824.90
1.17247,57.68824642,11.98044108,57.68824217,11.98044733,15:28:25.112668,0.00508,0.00000,0.00000,-0.09694,0.00000,-0.00126,0.00235,-0.00263,-0.05094,-0.11657,0.99186,1.16672,0.00000,-0.94875,-0.94875,0.96541,-1.06499,1.08035,1.33732,-1.53820,-0.96075,-0.96075,A,152824.90
1.21495,57.68824621,11.98044139,57.68824017,11.98045033,15:28:25.155182,0.03698,0.00000,1.50000,-0.09764,0.02000,0.00057,0.00006,0.00042,-0.05228,-0.11236,0.99308,1.17715,0.00000,-0.95055,-0.95055,0.98400,-1.08865,1.19376,1.51563,-1.76059,-0.89497,-0.89497,A,152825.00
1.23642,57.68824591,11.98044184,57.68824017,11.98045033,15:28:25.176629,0.00877,0.00000,0.00000,-0.09850,0.00000,-0.00279,-0.00010,0.00149,-0.05307,-0.11383,0.99223,1.22933,0.00000,-0.94221,-0.94221,1.01058,-1.12224,1.19376,1.51563,-1.76059,-0.89497,-0.89497,A,152825.00
1.24318,57.68824562,11.98044226,57.68824017,11.98045033,15:28:25.183376,0.00518,0.00000,0.00000,-0.09920,0.00000,-0.00004,0.00204,-0.00218,-0.05276,-0.11322,0.99137,1.23714,0.00000,-0.93512,-0.93512,1.03584,-1.15416,1.19376,1.51563,-1.76059,-0.89497,-0.89497,A,152825.00
1.25351,57.68824535,11.98044266,57.68824017,11.98045033,15:28:25.193707,0.00511,0.00000,0.00000,-0.09990,0.00000,-0.00050,0.00051,-0.00141,-0.05289,-0.11407,0.98930,1.24777,0.00000,-0.92910,-0.92910,1.05983,-1.18448,1.19376,1.51563,-1.76059,-0.89497,-0.89497,A,152825.00
1.26384,57.68824509,11.98044305,57.68824017,11.98045033,15:28:25.204042,0.00521,0.00000,0.00000,-0.10058,0.00000,0.00118,-0.00208,-0.00263,-0.05350,-0.11438,0.99162,1.25783,0.00000,-0.92398,-0.92398,1.08262,-1.21329,1.19376,1.51563,-1.76059,-0.89497,-0.89497,A,152825.00
1.27598,57.68824484,11.98044341,57.68824017,11.98045033,15:28:25.216182,0.00695,0.00000,0.00000,-0.10133,0.00000,-0.00294,-0.00086,0.00149,-0.05075,-0.11621,0.99003,1.26970,0.00000,-0.91963,-0.91963,1.10427,-1.24065,1.19376,1.51563,-1.76059,-0.89497,-0.89497,A,152825.00
1.28574,57.68824461,11.98044376,57.68824017,11.98045033,15:28:25.226178,0.00630,0.00000,0.00000,-0.10200,0.00000,0.00241,-0.00178,-0.00034,-0.04978,-0.11602,0.99198,1.27878,0.00000,-0.91593,-0.91593,1.12484,-1.26665,1.19376,1.51563,-1.76059,-0.89497,-0.89497,A,152825.00
1.33567,57.68824439,11.98044409,57.68823833,11.98045650,15:28:25.275901,0.04561,0.00000,1.50000,-0.10262,0.02000,0.00302,-0.00040,0.00042,-0.05258,-0.11444,0.99430,1.28957,0.00000,-0.91278,-0.91278,1.14438,-1.29135,1.31760,1.88216,-1.96444,-0.50758,-0.50758,A,152825.20
1.35556,57.68824408,11.98044471,57.68823833,11.98045650,15:28:25.295756,0.00709,0.00000,0.00000,-0.10338,0.00000,-0.00126,0.00143,0.00195,-0.05130,-0.11645,0.99223,1.34949,0.00000,-0.85200,-0.85200,1.18126,-1.32500,1.31760,1.88216,-1.96444,-0.50758,-0.50758,A,152825.20
1.36402,57.68824380,11.98044530,57.68823833,11.98045650,15:28:25.304217,0.00514,0.00000,0.00000,-0.10401,0.00000,0.00363,0.00219,-0.00263,-0.05398,-0.11560,0.99070,1.35802,0.00000,-0.80034,-0.80034,1.21631,-1.35697,1.31760,1.88216,-1.96444,-0.50758,-0.50758,A,152825.20
1.37481,57.68824352,11.98044586,57.68823833,11.98045650,15:28:25.315013,0.00567,0.00000,0.00000,-0.10465,0.00000,-0.00034,-0.00040,0.00195,-0.05130,-0.11486,0.99107,1.36873,0.00000,-0.75643,-0.75643,1.24960,-1.38735,1.31760,1.88216,-1.96444,-0.50758,-0.50758,A,152825.20
1.38556,57.68824326,11.98044639,57.68823833,11.98045650,15:28:25.325760,0.00602,0.00000,0.00000,-0.10527,0.00000,0.00027,-0.00407,-0.00095,-0.05167,-0.11499,0.99241,1.37944,0.00000,-0.71910,-0.71910,1.28123,-1.41620,1.31760,1.88216,-1.96444,-0.50758,-0.50758,A,152825.20
1.39600,57.68824302,11.98044690,57.68823833,11.98045650,15:28:25.336202,0.00591,0.00000,0.00000,-0.10591,0.00000,-0.00172,0.00174,0.00424,-0.05094,-0.11468,0.99180,1.38994,0.00000,-0.68737,-0.68737,1.31128,-1.44361,1.31760,1.88216,-1.96444,-0.50758,-0.50758,A,152825.20
1.40574,57.68824278,11.98044738,57.68823833,11.98045650,15:28:25.346181,0.00511,0.00000,0.00000,-0.10652,0.00000,-0.00218,0.00097,-0.00309,-0.05246,-0.11376,0.98954,1.40000,0.00000,-0.66040,-0.66040,1.33982,-1.46965,1.31760,1.88216,-1.96444,-0.50758,-0.50758,A,152825.20
1.41614,57.68824256,11.98044783,57.68823833,11.98045650,15:28:25.356339,0.00511,0.00000,0.00000,-0.10711,0.00000,0.00088,-0.00269,-0.00447,-0.05228,-0.11505,0.99235,1.41016,0.00000,-0.63748,-0.63748,1.36694,-1.49439,1.31760,1.88216,-1.96444,-0.50758,-0.50758,A,152825.20
1.45506,57.68824235,11.98044827,57.68823800,11.98045817,15:28:25.397193,0.03363,0.00000,1.50000,-0.10769,0.02000,0.00134,0.00021,-0.00034,-0.04923,-0.11492,0.99119,1.42089,0.00000,-0.61800,-0.61800,1.39270,-1.51790,1.43898,1.98122,-2.00151,-0.35804,-0.35804,A,152825.30
1.47596,57.68824213,11.98044876,57.68823800,11.98045817,15:28:25.416161,0.00705,0.00000,0.00000,-0.10812,0.00000,0.00256,-0.00025,-0.00034,-0.05197,-0.11291,0.99186,1.46891,0.00000,-0.57900,-0.57900,1.42212,-1.54208,1.43898,1.98122,-2.00151,-0.35804,-0.35804,A,152825.30
1.48463,57.68824193,11.98044923,57.68823800,11.98045817,15:28:25.424835,0.00532,0.00000,0.00000,-0.10873,0.00000,-0.00370,-0.00040,-0.00187,-0.05087,-0.11529,0.99625,1.47887,0.00000,-0.54586,-0.54586,1.45008,-1.56505,1.43898,1.98122,-2.00151,-0.35804,-0.35804,A,152825.30
1.49513,57.68824173,11.98044968,57.68823800,11.98045817,15:28:25.435330,0.00541,0.00000,0.00000,-0.10929,0.00000,-0.00019,-0.00056,-0.00004,-0.05258,-0.11395,0.99253,1.48906,0.00000,-0.51768,-0.51768,1.47664,-1.58687,1.43898,1.98122,-2.00151,-0.35804,-0.35804,A,152825.30
1.50738,57.68824154,11.98045010,57.68823800,11.98045817,15:28:25.447590,0.00741,0.00000,0.00000,-0.10987,0.00000,-0.00294,-0.00376,-0.00095,-0.05429,-0.11480,0.99253,1.50005,0.00000,-0.49374,-0.49374,1.50186,-1.60760,1.43898,1.98122,-2.00151,-0.35804,-0.35804,A,152825.30
1.51543,57.68824137,11.98045050,57.68823800,11.98045817,15:28:25.455635,0.00518,0.00000,0.00000,-0.11042,0.00000,0.00042,-0.00086,-0.00080,-0.05075,-0.11474,0.99070,1.50942,0.00000,-0.47338,-0.47338,1.52583,-1.62730,1.43898,1.98122,-2.00151,-0.35804,-0.35804,A,152825.30
1.52663,57.68824120,11.98045089,57.68823800,11.98045817,15:28:25.466834,0.00597,0.00000,0.00000,-0.11092,0.00000,0.00195,0.00418,0.00118,-0.05155,-0.11358,0.99131,1.52062,0.00000,-0.45608,-0.45608,1.54860,-1.64601,1.43898,1.98122,-2.00151,-0.35804,-0.35804,A,152825.30
1.53893,57.68824104,11.98045125,57.68823800,11.98045817,15:28:25.479126,0.00662,0.00000,0.00000,-0.11149,0.00000,-0.00279,0.00051,0.00347,-0.05142,-0.11511,0.99223,1.53283,0.00000,-0.44137,-0.44137,1.57023,-1.66378,1.43898,1.98122,-2.00151,-0.35804,-0.35804,A,152825.30
1.57350,57.68824089,11.98045160,57.68823700,11.98046067,15:28:25.513727,0.03067,0.00000,1.50000,-0.11203,0.02000,-0.00370,-0.00575,-0.00141,-0.05240,-0.11340,0.98985,1.54202,0.00000,-0.42887,-0.42887,1.59078,-1.68067,1.55842,2.12981,-2.11270,-0.64243,-0.64243,A,152825.40
1.59537,57.68824069,11.98045205,57.68823700,11.98046067,15:28:25.535566,0.00841,0.00000,0.00000,-0.11237,0.00000,0.00332,0.00189,0.00164,-0.05362,-0.11315,0.99046,1.58892,0.00000,-0.46091,-0.46091,1.61773,-1.70227,1.55842,2.12981,-2.11270,-0.64243,-0.64243,A,152825.40
1.60280,57.68824051,11.98045248,57.68823700,11.98046067,15:28:25.543004,0.00545,0.00000,0.00000,-0.11288,0.00000,0.00027,-0.00422,0.00027,-0.05203,-0.11486,0.99113,1.59673,0.00000,-0.48814,-0.48814,1.64334,-1.72279,1.55842,2.12981,-2.11270,-0.64243,-0.64243,A,152825.40
1.61284,57.68824033,11.98045289,57.68823700,11.98046067,15:28:25.553037,0.00509,0.00000,0.00000,-0.11334,0.00000,0.00363,0.00158,-0.00218,-0.05386,-0.11431,0.99009,1.60709,0.00000,-0.51128,-0.51128,1.66766,-1.74229,1.55842,2.12981,-2.11270,-0.64243,-0.64243,A,152825.40
1.62344,57.68824016,11.98045328,57.68823700,11.98046067,15:28:25.563640,0.00519,0.00000,0.00000,-0.11384,0.00000,0.00088,0.00021,-0.00141,-0.05185,-0.11602,0.99168,1.61742,0.00000,-0.53095,-0.53095,1.69077,-1.76081,1.55842,2.12981,-2.11270,-0.64243,-0.64243,A,152825.40
1.63374,57.68824001,11.98045365,57.68823700,11.98046067,15:28:25.574182,0.00509,0.00000,0.00000,-0.11433,0.00000,-0.00050,0.00296,-0.00004,-0.05112,-0.11456,0.99265,1.62802,0.00000,-0.54767,-0.54767,1.71272,-1.77840,1.55842,2.12981,-2.11270,-0.64243,-0.64243,A,152825.40
1.64513,57.68823986,11.98045400,57.68823700,11.98046067,15:28:25.585337,0.00608,0.00000,0.00000,-0.11479,0.00000,0.00134,-0.00025,-0.00233,-0.04965,-0.11407,0.99284,1.63872,0.00000,-0.56189,-0.56189,1.73357,-1.79512,1.55842,2.12981,-2.11270,-0.64243,-0.64243,A,152825.40
1.65515,57.68823971,11.98045433,57.68823700,11.98046067,15:28:25.595358,0.00546,0.00000,0.00000,-0.11527,0.00000,0.00302,0.00112,-0.00019,-0.05258,-0.11712,0.99101,1.64907,0.00000,-0.57397,-0.57397,1.75339,-1.81100,1.55842,2.12981,-2.11270,-0.64243,-0.64243,A,152825.40
1.69598,57.68823958,11.98045465,57.68823633,11.98046167,15:28:25.636215,0.03588,0.00000,1.50000,-0.11581,0.02000,-0.00508,-0.00315,-0.00050,-0.05057,-0.11584,0.98857,1.65972,0.00000,-0.58424,-0.58424,1.77221,-1.82608,1.67622,2.18925,-2.18683,-0.89497,-0.89497,A,152825.50
1.71469,57.68823942,11.98045500,57.68823633,11.98046167,15:28:25.654897,0.00798,0.00000,0.00000,-0.11626,0.00000,0.00042,-0.00056,-0.00233,-0.05161,-0.11572,0.98850,1.70833,0.00000,-0.63085,-0.63085,1.79306,-1.84412,1.67622,2.18925,-2.18683,-0.89497,-0.89497,A,152825.50
1.72301,57.68823926,11.98045533,57.68823633,11.98046167,15:28:25.663208,0.00566,0.00000,0.00000,-0.11671,0.00000,0.00012,-0.00101,0.00012,-0.05155,-0.11419,0.99064,1.71696,0.00000,-0.67046,-0.67046,1.81287,-1.86126,1.67622,2.18925,-2.18683,-0.89497,-0.89497,A,152825.50
1.73280,57.68823911,11.98045565,57.68823633,11.98046167,15:28:25.672999,0.00506,0.00000,0.00000,-0.11715,0.00000,-0.00172,-0.00056,-0.00294,-0.04965,-0.11309,0.99180,1.72709,0.00000,-0.70414,-0.70414,1.83169,-1.87754,1.67622,2.18925,-2.18683,-0.89497,-0.89497,A,152825.50
1.74436,57.68823898,11.98045595,57.68823633,11.98046167,15:28:25.684561,0.00611,0.00000,0.00000,-0.11756,0.00000,0.00210,-0.00086,-0.00202,-0.05350,-0.11486,0.98997,1.73832,0.00000,-0.73276,-0.73276,1.84956,-1.89300,1.67622,2.18925,-2.18683,-0.89497,-0.89497,A,152825.50
1.75504,57.68823884,11.98045624,57.68823633,11.98046167,15:28:25.695245,0.00634,0.00000,0.00000,-0.11799,0.00000,0.00012,0.00143,-0.00065,-0.05081,-0.11407,0.99107,1.74896,0.00000,-0.75709,-0.75709,1.86655,-1.90769,1.67622,2.18925,-2.18683,-0.89497,-0.89497,A,152825.50
1.76493,57.68823872,11.98045651,57.68823633,11.98046167,15:28:25.705138,0.00584,0.00000,0.00000,-0.11844,0.00000,-0.00141,-0.00040,-0.00019,-0.05197,-0.11523,0.98826,1.75916,0.00000,-0.77777,-0.77777,1.88268,-1.92165,1.67622,2.18925,-2.18683,-0.89497,-0.89497,A,152825.50
1.77651,57.68823860,11.98045677,57.68823633,11.98046167,15:28:25.716708,0.00676,0.00000,0.00000,-0.11890,0.00000,-0.00141,0.00158,0.00195,-0.05014,-0.11627,0.98893,1.76909,0.00000,-0.79535,-0.79535,1.89801,-1.93491,1.67622,2.18925,-2.18683,-0.89497,-0.89497,A,152825.50
1.82076,57.68823849,11.98045701,57.68823633,11.98046183,15:28:25.761001,0.04061,0.00000,1.50000,-0.11936,0.02000,-0.00492,0.00128,0.00057,-0.05167,-0.11438,0.99046,1.78004,0.00000,-0.81030,-0.81030,1.91257,-1.94750,1.79759,2.19915,-2.18683,0.00000,0.00000,A,152825.60
1.83847,57.68823838,11.98045725,57.68823633,11.98046183,15:28:25.778675,0.00685,0.00000,0.00000,-0.11997,0.00000,-0.00447,0.00128,0.00027,-0.05307,-0.11297,0.99033,1.83243,0.00000,-0.68875,-0.68875,1.92690,-1.95947,1.79759,2.19915,-2.18683,0.00000,0.00000,A,152825.60
1.84794,57.68823828,11.98045748,57.68823633,11.98046183,15:28:25.788138,0.00576,0.00000,0.00000,-0.12040,0.00000,-0.00370,0.00143,0.00027,-0.05112,-0.11438,0.99143,1.84196,0.00000,-0.58544,-0.58544,1.94051,-1.97084,1.79759,2.19915,-2.18683,0.00000,0.00000,A,152825.60
1.85765,57.68823818,11.98045770,57.68823633,11.98046183,15:28:25.798108,0.00508,0.00000,0.00000,-0.12079,0.00000,-0.00141,-0.00071,-0.00141,-0.05014,-0.11425,0.99198,1.85193,0.00000,-0.49762,-0.49762,1.95345,-1.98164,1.79759,2.19915,-2.18683,0.00000,0.00000,A,152825.60
1.86808,57.68823809,11.98045791,57.68823633,11.98046183,15:28:25.808279,0.00511,0.00000,0.00000,-0.12118,0.00000,-0.00019,-0.00147,0.00103,-0.05112,-0.11541,0.99576,1.86210,0.00000,-0.42298,-0.42298,1.96573,-1.99190,1.79759,2.19915,-2.18683,0.00000,0.00000,A,152825.60
1.87883,57.68823800,11.98045810,57.68823633,11.98046183,15:28:25.819035,0.00540,0.00000,0.00000,-0.12162,0.00000,-0.00447,0.00235,0.00256,-0.05069,-0.11529,0.98979,1.87280,0.00000,-0.35953,-0.35953,1.97740,-2.00165,1.79759,2.19915,-2.18683,0.00000,0.00000,A,152825.60
1.89019,57.68823792,11.98045829,57.68823633,11.98046183,15:28:25.830395,0.00635,0.00000,0.00000,-0.12196,0.00000,0.00378,-0.00025,0.00103,-0.05008,-0.11541,0.99088,1.88416,0.00000,-0.30560,-0.30560,1.98849,-2.01091,1.79759,2.19915,-2.18683,0.00000,0.00000,A,152825.60
1.93892,57.68823784,11.98045847,57.68823783,11.98045717,15:28:25.879911,0.04469,0.00000,1.50000,-0.12234,0.02000,-0.00065,0.00357,0.00057,-0.05234,-0.11560,0.98954,1.89344,0.00000,-0.25976,-0.25976,1.99902,-2.01970,1.91985,1.92178,-2.02004,2.60019,2.60019,A,152825.80
1.95815,57.68823784,11.98045840,57.68823783,11.98045717,15:28:25.898356,0.00747,0.00000,0.00000,-0.12271,0.00000,-0.00004,0.00036,-0.00294,-0.05185,-0.11505,0.99290,1.95212,0.00000,0.16923,0.16923,1.99516,-2.01972,1.91985,1.92178,-2.02004,2.60019,2.60019,A,152825.80
1.96695,57.68823784,11.98045834,57.68823783,11.98045717,15:28:25.907148,0.00586,0.00000,0.00000,-0.12308,0.00000,-0.00172,-0.00040,0.00118,-0.05368,-0.11480,0.99259,1.96066,0.00000,0.53388,0.53388,1.99149,-2.01973,1.91985,1.92178,-2.02004,2.60019,2.60019,A,152825.80
1.97661,57.68823784,11.98045828,57.68823783,11.98045717,15:28:25.916807,0.00513,0.00000,0.00000,-0.12336,0.00000,0.00363,0.00067,-0.00279,-0.05295,-0.11297,0.99168,1.97085,0.00000,0.84382,0.84382,1.98801,-2.01975,1.91985,1.92178,-2.02004,2.60019,2.60019,A,152825.80
1.98752,57.68823784,11.98045823,57.68823783,11.98045717,15:28:25.927725,0.00546,0.00000,0.00000,-0.12365,0.00000,0.00347,-0.00056,-0.00340,-0.05362,-0.11352,0.99180,1.98122,0.00000,1.10728,1.10728,1.98470,-2.01976,1.91985,1.92178,-2.02004,2.60019,2.60019,A,152825.80
1.99929,57.68823784,11.98045817,57.68823783,11.98045717,15:28:25.939485,0.00697,0.00000,0.00000,-0.12393,0.00000,0.00332,0.00112,0.00012,-0.05325,-0.11309,0.99198,1.99243,0.00000,1.33122,1.33122,1.98155,-2.01978,1.91985,1.92178,-2.02004,2.60019,2.60019,A,152825.80
2.00785,57.68823784,11.98045812,57.68823783,11.98045717,15:28:25.948058,0.00531,0.00000,0.00000,-0.12431,0.00000,-0.00279,0.00097,0.00271,-0.05215,-0.11608,0.99137,2.00186,0.00000,1.52156,1.52156,1.97856,-2.01979,1.91985,1.92178,-2.02004,2.60019,2.60019,A,152825.80
2.02089,57.68823784,11.98045807,57.68823783,11.98045717,15:28:25.962048,0.00795,0.00000,0.00000,-0.12464,0.00000,-0.00019,0.00296,0.00134,-0.05045,-0.11456,0.99204,2.01233,0.00000,1.68336,1.68336,1.97572,-2.01980,1.91985,1.92178,-2.02004,2.60019,2.60019,A,152825.80
2.05900,57.68823784,11.98045803,57.68823933,11.98045350,15:28:25.999488,0.03586,0.00000,1.50000,-0.12497,0.02000,-0.00050,-0.00269,0.00286,-0.05173,-0.11425,0.99192,2.02328,0.00000,1.82088,1.82088,1.97303,-2.01982,2.03945,1.70385,-1.85325,2.48835,2.48835,A,152825.90
2.07890,57.68823791,11.98045780,57.68823933,11.98045350,15:28:26.019099,0.00703,0.00000,0.00000,-0.12520,0.00000,0.00180,-0.00101,-0.00095,-0.05581,-0.11444,0.99149,2.07278,0.00000,1.92100,1.92100,1.95957,-2.01149,2.03945,1.70385,-1.85325,2.48835,2.48835,A,152825.90
2.08771,57.68823798,11.98045759,57.68823933,11.98045350,15:28:26.027915,0.00547,0.00000,0.00000,-0.12551,0.00000,0.00027,-0.00040,0.00012,-0.05228,-0.11425,0.99040,2.08140,0.00000,2.00610,2.00610,1.94678,-2.00358,2.03945,1.70385,-1.85325,2.48835,2.48835,A,152825.90
2.09777,57.68823805,11.98045738,57.68823933,11.98045350,15:28:26.038213,0.00512,0.00000,0.00000,-0.12579,0.00000,0.00057,0.00235,0.00347,-0.05252,-0.11340,0.99253,2.09202,0.00000,2.07844,2.07844,1.93463,-1.99606,2.03945,1.70385,-1.85325,2.48835,2.48835,A,152825.90
2.10835,57.68823811,11.98045719,57.68823933,11.98045350,15:28:26.048554,0.00531,0.00000,0.00000,-0.12611,0.00000,0.00180,0.00021,-0.00324,-0.05075,-0.11688,0.99155,2.10237,0.00000,2.13993,2.13993,1.92309,-1.98892,2.03945,1.70385,-1.85325,2.48835,2.48835,A,152825.90
2.11930,57.68823817,11.98045700,57.68823933,11.98045350,15:28:26.059504,0.00580,0.00000,0.00000,-0.12642,0.00000,0.00118,0.00372,-0.00263,-0.05508,-0.11572,0.99210,2.11284,0.00000,2.19219,2.19219,1.91213,-1.98214,2.03945,1.70385,-1.85325,2.48835,2.48835,A,152825.90
2.12911,57.68823823,11.98045683,57.68823933,11.98045350,15:28:26.069310,0.00535,0.00000,0.00000,-0.12675,0.00000,-0.00340,0.00174,-0.00279,-0.05270,-0.11450,0.99198,2.12334,0.00000,2.23661,2.23661,1.90172,-1.97569,2.03945,1.70385,-1.85325,2.48835,2.48835,A,152825.90
2.13945,57.68823829,11.98045666,57.68823933,11.98045350,15:28:26.080002,0.00520,0.00000,0.00000,-0.12701,0.00000,0.00286,0.00006,0.00134,-0.05191,-0.11444,0.99223,2.13342,0.00000,2.27437,2.27437,1.89182,-1.96957,2.03945,1.70385,-1.85325,2.48835,2.48835,A,152825.90
2.18405,57.68823834,11.98045650,57.68823850,11.98045033,15:28:26.124269,0.03913,0.00000,1.50000,-0.12727,0.02000,0.00149,-0.00040,0.00012,-0.05118,-0.11395,0.98924,2.14519,0.00000,2.30647,2.30647,1.88243,-1.96375,2.16300,1.51563,-1.94591,3.59908,-2.68411,A,152826.00
2.20007,57.68823835,11.98045620,57.68823850,11.98045033,15:28:26.140272,0.00788,0.00000,0.00000,-0.12762,0.00000,-0.00187,-0.00132,-0.00095,-0.05197,-0.11297,0.99223,2.19405,0.00000,2.50036,2.50036,1.86409,-1.96286,2.16300,1.51563,-1.94591,3.59908,-2.68411,A,152826.00
2.20776,57.68823836,11.98045590,57.68823850,11.98045033,15:28:26.147959,0.00539,0.00000,0.00000,-0.12791,0.00000,-0.00065,-0.00224,0.00012,-0.05142,-0.11450,0.98881,2.20152,0.00000,2.66517,2.66517,1.84666,-1.96201,2.16300,1.51563,-1.94591,3.59908,-2.68411,A,152826.00
2.21815,57.68823836,11.98045562,57.68823850,11.98045033,15:28:26.158362,0.00537,0.00000,0.00000,-0.12815,0.00000,0.00241,-0.00010,0.00317,-0.05173,-0.11444,0.99223,2.21216,0.00000,2.80526,2.80526,1.83011,-1.96121,2.16300,1.51563,-1.94591,3.59908,-2.68411,A,152826.00
2.22827,57.68823837,11.98045536,57.68823850,11.98045033,15:28:26.168467,0.00509,0.00000,0.00000,-0.12840,0.00000,0.00302,-0.00025,-0.00111,-0.05203,-0.11517,0.99223,2.22231,0.00000,2.92433,2.92433,1.81439,-1.96044,2.16300,1.51563,-1.94591,3.59908,-2.68411,A,152826.00
2.24084,57.68823838,11.98045511,57.68823850,11.98045033,15:28:26.181039,0.00726,0.00000,0.00000,-0.12865,0.00000,0.00134,0.00174,-0.00126,-0.05301,-0.11438,0.99186,2.23292,0.00000,3.02554,3.02554,1.79945,-1.95972,2.16300,1.51563,-1.94591,3.59908,-2.68411,A,152826.00
2.25121,57.68823838,11.98045487,57.68823850,11.98045033,15:28:26.191416,0.00723,0.00000,0.00000,-0.12894,0.00000,-0.00126,0.00067,0.00088,-0.05222,-0.11523,0.99216,2.24355,0.00000,3.11157,3.11157,1.78526,-1.95903,2.16300,1.51563,-1.94591,3.59908,-2.68411,A,152826.00
2.25953,57.68823839,11.98045464,57.68823850,11.98045033,15:28:26.199729,0.00521,0.00000,0.00000,-0.12922,0.00000,-0.00080,-0.00117,0.00012,-0.05130,-0.11596,0.99119,2.25349,0.00000,3.18470,3.18470,1.77178,-1.95837,2.16300,1.51563,-1.94591,3.59908,-2.68411,A,152826.00
2.30011,57.68823839,11.98045443,57.68823767,11.98044933,15:28:26.240349,0.03552,0.00000,1.50000,-0.12944,0.02000,0.00546,0.00051,-0.00156,-0.05246,-0.11633,0.99149,2.26510,0.00000,3.24685,3.24685,1.75897,-1.95775,2.28148,1.45619,-2.03857,4.14206,-2.14112,A,152826.10
2.31888,57.68823836,11.98045417,57.68823767,11.98044933,15:28:26.259079,0.00784,0.00000,0.00000,-0.12971,0.00000,-0.00050,-0.00208,-0.00294,-0.04953,-0.11395,0.98991,2.31248,0.00000,3.38114,3.38114,1.74383,-1.96179,2.28148,1.45619,-2.03857,4.14206,-2.14112,A,152826.10
2.32682,57.68823832,11.98045393,57.68823767,11.98044933,15:28:26.267018,0.00538,0.00000,0.00000,-0.12995,0.00000,-0.00034,0.00158,-0.00080,-0.05112,-0.11389,0.98979,2.32077,0.00000,3.49527,3.49527,1.72945,-1.96563,2.28148,1.45619,-2.03857,4.14206,-2.14112,A,152826.10
2.33757,57.68823829,11.98045370,57.68823767,11.98044933,15:28:26.277764,0.00573,0.00000,0.00000,-0.13017,0.00000,0.00180,0.00296,0.00088,-0.05240,-0.11419,0.99119,2.33178,0.00000,3.59229,3.59229,1.71579,-1.96928,2.28148,1.45619,-2.03857,4.14206,-2.14112,A,152826.10
2.34749,57.68823826,11.98045348,57.68823767,11.98044933,15:28:26.287686,0.00523,0.00000,0.00000,-0.13037,0.00000,0.00241,0.00128,0.00042,-0.05094,-0.11297,0.99216,2.34143,0.00000,3.67476,3.67476,1.70281,-1.97274,2.28148,1.45619,-2.03857,4.14206,-2.14112,A,152826.10
2.35911,57.68823823,11.98045328,57.68823767,11.98044933,15:28:26.299311,0.00644,0.00000,0.00000,-0.13065,0.00000,-0.00218,0.00158,0.00225,-0.05087,-0.11590,0.99015,2.35299,0.00000,3.74485,3.74485,1.69048,-1.97603,2.28148,1.45619,-2.03857,4.14206,-2.14112,A,152826.10
2.36819,57.68823820,11.98045308,57.68823767,11.98044933,15:28:26.308386,0.00513,0.00000,0.00000,-0.13089,0.00000,0.00057,0.00250,0.00088,-0.05337,-0.11523,0.99082,2.36220,0.00000,3.80443,3.80443,1.67876,-1.97916,2.28148,1.45619,-2.03857,4.14206,-2.14112,A,152826.10
2.37888,57.68823817,11.98045289,57.68823767,11.98044933,15:28:26.319076,0.00541,0.00000,0.00000,-0.13113,0.00000,-0.00111,0.00112,-0.00050,-0.05258,-0.11505,0.99357,2.37282,0.00000,3.85508,3.85508,1.66763,-1.98213,2.28148,1.45619,-2.03857,4.14206,-2.14112,A,152826.10
2.42362,57.68823815,11.98045271,57.68823650,11.98045017,15:28:26.364131,0.03975,0.00000,1.50000,-0.13133,0.02000,0.00027,-0.00117,0.00256,-0.04965,-0.11297,0.99216,2.38320,0.00000,3.89813,3.89813,1.65706,-1.98495,2.40050,1.50573,-2.16830,5.07711,-1.20607,A,152826.20
2.44296,57.68823807,11.98045259,57.68823650,11.98045017,15:28:26.383157,0.00783,0.00000,0.00000,-0.13140,0.00000,0.00347,-0.00178,-0.00004,-0.05246,-0.11688,0.99168,2.43686,0.00000,4.07497,4.07497,1.64950,-1.99412,2.40050,1.50573,-2.16830,5.07711,-1.20607,A,152826.20
2.45358,57.68823799,11.98045246,57.68823650,11.98045017,15:28:26.393777,0.00702,0.00000,0.00000,-0.13159,0.00000,0.00256,-0.00025,0.00042,-0.05246,-0.11322,0.99027,2.44602,0.00000,4.22529,4.22529,1.64231,-2.00283,2.40050,1.50573,-2.16830,5.07711,-1.20607,A,152826.20
2.46562,57.68823791,11.98045235,57.68823650,11.98045017,15:28:26.406036,0.00881,0.00000,0.00000,-0.13181,0.00000,-0.00233,-0.00010,-0.00080,-0.05246,-0.11279,0.99003,2.45785,0.00000,4.35307,4.35307,1.63548,-2.01110,2.40050,1.50573,-2.16830,5.07711,-1.20607,A,152826.20
2.47643,57.68823784,11.98045224,57.68823650,11.98045017,15:28:26.416638,0.00937,0.00000,0.00000,-0.13206,0.00000,-0.00492,0.00097,0.00210,-0.05228,-0.11456,0.99223,2.46619,0.00000,4.46167,4.46167,1.62899,-2.01896,2.40050,1.50573,-2.16830,5.07711,-1.20607,A,152826.20
2.48358,57.68823778,11.98045214,57.68823650,11.98045017,15:28:26.423772,0.00518,0.00000,0.00000,-0.13230,0.00000,-0.00447,-0.00025,0.00225,-0.05325,-0.11261,0.99107,2.47753,0.00000,4.55399,4.55399,1.62283,-2.02643,2.40050,1.50573,-2.16830,5.07711,-1.20607,A,152826.20
2.49616,57.68823771,11.98045204,57.68823650,11.98045017,15:28:26.436356,0.00735,0.00000,0.00000,-0.13255,0.00000,-0.00218,0.00326,-0.00004,-0.05087,-0.11547,0.98924,2.48974,0.00000,4.63246,4.63246,1.61697,-2.03352,2.40050,1.50573,-2.16830,5.07711,-1.20607,A,152826.20
2.54650,57.68823765,11.98045194,57.68823417,11.98045567,15:28:26.488264,0.04749,0.00000,1.50000,-0.13276,0.02000,0.00134,0.00204,0.00088,-0.05185,-0.11566,0.98918,2.50007,0.00000,4.69916,4.69916,1.61141,-2.04026,2.52688,1.83263,-2.42776,5.61231,-0.67088,A,152826.40
2.56720,57.68823748,11.98045213,57.68823417,11.98045567,15:28:26.507395,0.00680,0.00000,0.00000,-0.13297,0.00000,-0.00050,0.00219,-0.00187,-0.05508,-0.11273,0.98930,2.56043,0.00000,4.83613,4.83613,1.62247,-2.05964,2.52688,1.83263,-2.42776,5.61231,-0.67088,A,152826.40
2.57583,57.68823731,11.98045231,57.68823417,11.98045567,15:28:26.516030,0.00520,0.00000,0.00000,-0.13317,0.00000,-0.00126,-0.00086,-0.00233,-0.05161,-0.11444,0.99418,2.56980,0.00000,4.95256,4.95256,1.63298,-2.07804,2.52688,1.83263,-2.42776,5.61231,-0.67088,A,152826.40
2.58641,57.68823715,11.98045248,57.68823417,11.98045567,15:28:26.526614,0.00538,0.00000,0.00000,-0.13335,0.00000,0.00118,0.00204,0.00012,-0.04972,-0.11450,0.99119,2.58041,0.00000,5.05152,5.05152,1.64296,-2.09553,2.52688,1.83263,-2.42776,5.61231,-0.67088,A,152826.40
2.59698,57.68823701,11.98045264,57.68823417,11.98045567,15:28:26.537184,0.00555,0.00000,0.00000,-0.13354,0.00000,-0.00019,0.00006,0.00057,-0.05191,-0.11395,0.99223,2.59078,0.00000,5.13564,5.13564,1.65244,-2.11214,2.52688,1.83263,-2.42776,5.61231,-0.67088,A,152826.40
2.60739,57.68823686,11.98045279,57.68823417,11.98045567,15:28:26.547597,0.00537,0.00000,0.00000,-0.13373,0.00000,0.00042,-0.00056,-0.00340,-0.05362,-0.11505,0.98863,2.60117,0.00000,5.20714,5.20714,1.66145,-2.12792,2.52688,1.83263,-2.42776,5.61231,-0.67088,A,152826.40
2.61753,57.68823673,11.98045293,57.68823417,11.98045567,15:28:26.557724,0.00510,0.00000,0.00000,-0.13393,0.00000,0.00103,-0.00300,-0.00141,-0.05100,-0.11584,0.99296,2.61178,0.00000,5.26791,5.26791,1.67001,-2.14291,2.52688,1.83263,-2.42776,5.61231,-0.67088,A,152826.40
2.65906,57.68823660,11.98045307,57.68823367,11.98045650,15:28:26.599539,0.03640,0.00000,1.50000,-0.13414,0.02000,-0.00218,-0.00178,-0.00294,-0.05020,-0.11499,0.99143,2.62186,0.00000,5.31957,5.31957,1.67814,-2.15715,2.63837,1.88216,-2.48335,5.44014,-0.84305,A,152826.50
2.67372,57.68823645,11.98045324,57.68823367,11.98045650,15:28:26.614135,0.00816,0.00000,0.00000,-0.13427,0.00000,0.00134,-0.00010,-0.00324,-0.05435,-0.11505,0.99162,2.66672,0.00000,5.33766,5.33766,1.68834,-2.17346,2.63837,1.88216,-2.48335,5.44014,-0.84305,A,152826.50
2.68090,57.68823631,11.98045340,57.68823367,11.98045650,15:28:26.621090,0.00513,0.00000,0.00000,-0.13441,0.00000,0.00500,0.00051,0.00118,-0.05051,-0.11480,0.99223,2.67512,0.00000,5.35303,5.35303,1.69803,-2.18896,2.63837,1.88216,-2.48335,5.44014,-0.84305,A,152826.50
2.69220,57.68823618,11.98045356,57.68823367,11.98045650,15:28:26.632397,0.00595,0.00000,0.00000,-0.13464,0.00000,-0.00355,0.00158,0.00286,-0.05155,-0.11578,0.99320,2.68595,0.00000,5.36610,5.36610,1.70724,-2.20368,2.63837,1.88216,-2.48335,5.44014,-0.84305,A,152826.50
2.70226,57.68823606,11.98045370,57.68823367,11.98045650,15:28:26.642462,0.00560,0.00000,0.00000,-0.13484,0.00000,-0.00172,-0.00117,-0.00126,-0.05112,-0.11541,0.99198,2.69602,0.00000,5.37720,5.37720,1.71599,-2.21766,2.63837,1.88216,-2.48335,5.44014,-0.84305,A,152826.50
2.71409,57.68823594,11.98045384,57.68823367,11.98045650,15:28:26.654302,0.00704,0.00000,0.00000,-0.13504,0.00000,-0.00294,-0.00025,-0.00095,-0.05490,-0.11444,0.98899,2.70633,0.00000,5.38664,5.38664,1.72429,-2.23095,2.63837,1.88216,-2.48335,5.44014,-0.84305,A,152826.50
2.72362,57.68823582,11.98045398,57.68823367,11.98045650,15:28:26.663816,0.00611,0.00000,0.00000,-0.13517,0.00000,0.00149,0.00067,0.00088,-0.05130,-0.11340,0.99125,2.71750,0.00000,5.39467,5.39467,1.73219,-2.24357,2.63837,1.88216,-2.48335,5.44014,-0.84305,A,152826.50
2.73299,57.68823572,11.98045410,57.68823367,11.98045650,15:28:26.673192,0.00508,0.00000,0.00000,-0.13537,0.00000,-0.00279,0.00128,-0.00340,-0.05331,-0.11517,0.99192,2.72725,0.00000,5.40149,5.40149,1.73969,-2.25556,2.63837,1.88216,-2.48335,5.44014,-0.84305,A,152826.50
2.77880,57.68823561,11.98045422,57.68823183,11.98045567,15:28:26.719029,0.04020,0.00000,1.50000,-0.13549,0.02000,0.00164,0.00097,0.00118,-0.05368,-0.11273,0.99210,2.73823,0.00000,5.40729,5.40729,1.74681,-2.26695,2.75753,1.83263,-2.68721,4.47404,-1.80914,A,152826.60
2.79951,57.68823542,11.98045430,57.68823183,11.98045567,15:28:26.739713,0.00856,0.00000,0.00000,-0.13582,0.00000,-0.00279,0.00189,-0.00202,-0.05264,-0.11633,0.99338,2.79320,0.00000,5.26730,5.26730,1.75110,-2.28796,2.75753,1.83263,-2.68721,4.47404,-1.80914,A,152826.60
2.80693,57.68823524,11.98045436,57.68823183,11.98045567,15:28:26.747125,0.00557,0.00000,0.00000,-0.13598,0.00000,-0.00065,-0.00056,0.00118,-0.05173,-0.11364,0.98887,2.80071,0.00000,5.14831,5.14831,1.75518,-2.30792,2.75753,1.83263,-2.68721,4.47404,-1.80914,A,152826.60
2.81682,57.68823507,11.98045443,57.68823183,11.98045567,15:28:26.757015,0.00506,0.00000,0.00000,-0.13612,0.00000,-0.00126,-0.00147,0.00088,-0.05051,-0.11285,0.99168,2.81109,0.00000,5.04717,5.04717,1.75905,-2.32689,2.75753,1.83263,-2.68721,4.47404,-1.80914,A,152826.60
2.82757,57.68823491,11.98045449,57.68823183,11.98045567,15:28:26.767769,0.00548,0.00000,0.00000,-0.13630,0.00000,-0.00309,0.00112,0.00134,-0.05319,-0.11456,0.99284,2.82155,0.00000,4.96120,4.96120,1.76273,-2.34490,2.75753,1.83263,-2.68721,4.47404,-1.80914,A,152826.60
2.83761,57.68823476,11.98045455,57.68823183,11.98045567,15:28:26.777799,0.00512,0.00000,0.00000,-0.13644,0.00000,0.00332,-0.00193,-0.00309,-0.05331,-0.11614,0.99070,2.83185,0.00000,4.88813,4.88813,1.76622,-2.36202,2.75753,1.83263,-2.68721,4.47404,-1.80914,A,152826.60
2.84796,57.68823461,11.98045461,57.68823183,11.98045567,15:28:26.788159,0.00524,0.00000,0.00000,-0.13656,0.00000,0.00134,-0.00147,0.00042,-0.05087,-0.11407,0.99345,2.84196,0.00000,4.82601,4.82601,1.76954,-2.37828,2.75753,1.83263,-2.68721,4.47404,-1.80914,A,152826.60
2.88755,57.68823447,11.98045466,57.68823067,11.98045833,15:28:26.827780,0.03443,0.00000,1.50000,-0.13669,0.02000,0.00027,-0.00224,0.00134,-0.05344,-0.11431,0.99223,2.85250,0.00000,4.77322,4.77322,1.77270,-2.39372,2.86996,1.99112,-2.81694,5.59728,-0.68591,A,152826.70
2.90119,57.68823428,11.98045484,57.68823067,11.98045833,15:28:26.841389,0.00772,0.00000,0.00000,-0.13688,0.00000,-0.00111,0.00235,-0.00263,-0.05246,-0.11474,0.99265,2.89479,0.00000,4.89683,4.89683,1.78362,-2.41488,2.86996,1.99112,-2.81694,5.59728,-0.68591,A,152826.70
2.90972,57.68823410,11.98045502,57.68823067,11.98045833,15:28:26.850163,0.00585,0.00000,0.00000,-0.13697,0.00000,0.00454,-0.00025,0.00164,-0.05344,-0.11376,0.99369,2.90393,0.00000,5.00189,5.00189,1.79399,-2.43499,2.86996,1.99112,-2.81694,5.59728,-0.68591,A,152826.70
2.92002,57.68823393,11.98045518,57.68823067,11.98045833,15:28:26.860221,0.00578,0.00000,0.00000,-0.13708,0.00000,0.00286,0.00204,0.00103,-0.05075,-0.11450,0.99101,2.91401,0.00000,5.09120,5.09120,1.80385,-2.45409,2.86996,1.99112,-2.81694,5.59728,-0.68591,A,152826.70
2.92978,57.68823377,11.98045534,57.68823067,11.98045833,15:28:26.870230,0.00513,0.00000,0.00000,-0.13716,0.00000,0.00424,0.00235,-0.00019,-0.05148,-0.11340,0.99015,2.92402,0.00000,5.16711,5.16711,1.81321,-2.47223,2.86996,1.99112,-2.81694,5.59728,-0.68591,A,152826.70
2.94017,57.68823361,11.98045549,57.68823067,11.98045833,15:28:26.880370,0.00513,0.00000,0.00000,-0.13737,0.00000,-0.00783,0.00097,-0.00126,-0.05087,-0.11486,0.99210,2.93419,0.00000,5.23164,5.23164,1.82211,-2.48946,2.86996,1.99112,-2.81694,5.59728,-0.68591,A,152826.70
2.95199,57.68823346,11.98045563,57.68823067,11.98045833,15:28:26.892210,0.00655,0.00000,0.00000,-0.13748,0.00000,-0.00034,-0.00025,-0.00156,-0.05215,-0.11279,0.99253,2.94479,0.00000,5.28648,5.28648,1.83056,-2.50584,2.86996,1.99112,-2.81694,5.59728,-0.68591,A,152826.70
2.96092,57.68823332,11.98045577,57.68823067,11.98045833,15:28:26.901116,0.00507,0.00000,0.00000,-0.13767,0.00000,-0.00538,-0.00025,0.00134,-0.05039,-0.11505,0.99296,2.95518,0.00000,5.33310,5.33310,1.83859,-2.52139,2.86996,1.99112,-2.81694,5.59728,-0.68591,A,152826.70
3.00695,57.68823319,11.98045590,57.68822950,11.98046133,15:28:26.947176,0.04045,0.00000,1.50000,-0.13784,0.02000,-0.00294,0.00051,-0.00172,-0.05026,-0.11486,0.98960,2.96710,0.00000,5.37273,5.37273,1.84621,-2.53617,2.98497,2.16943,-2.94667,5.65421,-0.62897,A,152826.80
3.02636,57.68823301,11.98045617,57.68822950,11.98046133,15:28:26.966569,0.00975,0.00000,0.00000,-0.13776,0.00000,0.00378,-0.00407,-0.00141,-0.05331,-0.11425,0.99210,3.01994,0.00000,5.41495,5.41495,1.86238,-2.55669,2.98497,2.16943,-2.94667,5.65421,-0.62897,A,152826.80
3.03308,57.68823283,11.98045643,57.68822950,11.98046133,15:28:26.973277,0.00584,0.00000,0.00000,-0.13788,0.00000,-0.00080,0.00006,0.00057,-0.05081,-0.11364,0.99015,3.02630,0.00000,5.45084,5.45084,1.87773,-2.57619,2.98497,2.16943,-2.94667,5.65421,-0.62897,A,152826.80
3.04305,57.68823267,11.98045667,57.68822950,11.98046133,15:28:26.983245,0.00541,0.00000,0.00000,-0.13800,0.00000,0.00073,-0.00330,-0.00004,-0.05362,-0.11438,0.99210,3.03700,0.00000,5.48135,5.48135,1.89231,-2.59472,2.98497,2.16943,-2.94667,5.65421,-0.62897,A,152826.80
3.05370,57.68823251,11.98045690,57.68822950,11.98046133,15:28:26.994139,0.00566,0.00000,0.00000,-0.13805,0.00000,0.00500,0.00006,0.00027,-0.04978,-0.11346,0.99168,3.04725,0.00000,5.50728,5.50728,1.90617,-2.61231,2.98497,2.16943,-2.94667,5.65421,-0.62897,A,152826.80
3.06351,57.68823236,11.98045713,57.68822950,11.98046133,15:28:27.003703,0.00522,0.00000,0.00000,-0.13820,0.00000,0.00149,0.00112,0.00149,-0.04990,-0.11694,0.98875,3.05746,0.00000,5.52932,5.52932,1.91933,-2.62903,2.98497,2.16943,-2.94667,5.65421,-0.62897,A,152826.80
3.07508,57.68823221,11.98045734,57.68822950,11.98046133,15:28:27.015284,0.00639,0.00000,0.00000,-0.13833,0.00000,-0.00019,0.00158,-0.00034,-0.05398,-0.11529,0.99241,3.06859,0.00000,5.54805,5.54805,1.93184,-2.64491,2.98497,2.16943,-2.94667,5.65421,-0.62897,A,152826.80
3.08416,57.68823208,11.98045754,57.68822950,11.98046133,15:28:27.024355,0.00522,0.00000,0.00000,-0.13847,0.00000,-0.00218,0.00006,0.00439,-0.05173,-0.11431,0.99180,3.07815,0.00000,5.56398,5.56398,1.94372,-2.66000,2.98497,2.16943,-2.94667,5.65421,-0.62897,A,152826.80
3.13887,57.68823195,11.98045773,57.68822617,11.98046983,15:28:27.079112,0.04953,0.00000,1.50000,-0.13856,0.02000,0.00286,0.00158,-0.00065,-0.05350,-0.11505,0.99168,3.08891,0.00000,5.57751,5.57751,1.95500,-2.67433,3.11593,2.67464,-3.31732,5.65023,-0.63296,A,152827.00
3.15814,57.68823166,11.98045833,57.68822617,11.98046983,15:28:27.098343,0.00742,0.00000,0.00000,-0.13882,0.00000,-0.00202,-0.00040,0.00180,-0.05429,-0.11596,0.99168,3.15210,0.00000,5.58842,5.58842,1.99099,-2.70648,3.11593,2.67464,-3.31732,5.65023,-0.63296,A,152827.00
3.16650,57.68823139,11.98045891,57.68822617,11.98046983,15:28:27.106701,0.00538,0.00000,0.00000,-0.13890,0.00000,0.00057,-0.00040,0.00210,-0.05234,-0.11297,0.99296,3.16048,0.00000,5.59769,5.59769,2.02517,-2.73702,3.11593,2.67464,-3.31732,5.65023,-0.63296,A,152827.00
3.17705,57.68823112,11.98045945,57.68822617,11.98046983,15:28:27.117256,0.00568,0.00000,0.00000,-0.13899,0.00000,0.00012,0.00250,-0.00187,-0.05557,-0.11401,0.99375,3.17129,0.00000,5.60557,5.60557,2.05764,-2.76604,3.11593,2.67464,-3.31732,5.65023,-0.63296,A,152827.00
3.18718,57.68823088,11.98045997,57.68822617,11.98046983,15:28:27.127375,0.00540,0.00000,0.00000,-0.13912,0.00000,-0.00050,-0.00040,-0.00294,-0.05167,-0.11590,0.99351,3.18111,0.00000,5.61227,5.61227,2.08849,-2.79360,3.11593,2.67464,-3.31732,5.65023,-0.63296,A,152827.00
3.19885,57.68823064,11.98046046,57.68822617,11.98046983,15:28:27.139055,0.00684,0.00000,0.00000,-0.13923,0.00000,-0.00248,0.00235,-0.00126,-0.05008,-0.11346,0.99540,3.19275,0.00000,5.61796,5.61796,2.11780,-2.81979,3.11593,2.67464,-3.31732,5.65023,-0.63296,A,152827.00
3.20766,57.68823042,11.98046093,57.68822617,11.98046983,15:28:27.147869,0.00538,0.00000,0.00000,-0.13934,0.00000,-0.00050,0.00128,-0.00141,-0.05307,-0.11444,0.99259,3.20146,0.00000,5.62280,5.62280,2.14564,-2.84466,3.11593,2.67464,-3.31732,5.65023,-0.63296,A,152827.00
3.25187,57.68823020,11.98046138,57.68822650,11.98047367,15:28:27.192102,0.03919,0.00000,1.50000,-0.13944,0.02000,0.00118,0.00097,0.00195,-0.05276,-0.11535,0.98948,3.21204,0.00000,5.62692,5.62692,2.17209,-2.86830,3.22996,2.90248,-3.28025,6.44445,0.16127,A,152827.10
3.27068,57.68823002,11.98046199,57.68822650,11.98047367,15:28:27.210876,0.00808,0.00000,0.00000,-0.13951,0.00000,0.00088,-0.00315,-0.00019,-0.05356,-0.11529,0.99015,3.26454,0.00000,5.74955,5.74955,2.20861,-2.88890,3.22996,2.90248,-3.28025,6.44445,0.16127,A,152827.10
3.27984,57.68822984,11.98046258,57.68822650,11.98047367,15:28:27.220047,0.00656,0.00000,0.00000,-0.13960,0.00000,0.00118,-0.00056,0.00164,-0.05185,-0.11419,0.99259,3.27348,0.00000,5.85378,5.85378,2.24331,-2.90846,3.22996,2.90248,-3.28025,6.44445,0.16127,A,152827.10
3.28881,57.68822968,11.98046313,57.68822650,11.98047367,15:28:27.229009,0.00515,0.00000,0.00000,-0.13971,0.00000,-0.00004,0.00250,0.00149,-0.05215,-0.11553,0.99271,3.28306,0.00000,5.94238,5.94238,2.27626,-2.92705,3.22996,2.90248,-3.28025,6.44445,0.16127,A,152827.10
3.29940,57.68822952,11.98046366,57.68822650,11.98047367,15:28:27.239593,0.00518,0.00000,0.00000,-0.13982,0.00000,-0.00172,-0.00315,-0.00111,-0.05130,-0.11474,0.99247,3.29336,0.00000,6.01769,6.01769,2.30758,-2.94471,3.22996,2.90248,-3.28025,6.44445,0.16127,A,152827.10
3.31015,57.68822937,11.98046416,57.68822650,11.98047367,15:28:27.250354,0.00553,0.00000,0.00000,-0.13989,0.00000,0.00180,0.00158,-0.00263,-0.05051,-0.11383,0.99064,3.30399,0.00000,6.08171,6.08171,2.33732,-2.96149,3.22996,2.90248,-3.28025,6.44445,0.16127,A,152827.10
3.32099,57.68822922,11.98046463,57.68822650,11.98047367,15:28:27.261193,0.00608,0.00000,0.00000,-0.13998,0.00000,0.00180,0.00036,-0.00340,-0.05191,-0.11578,0.99198,3.31429,0.00000,6.13612,6.13612,2.36558,-2.97743,3.22996,2.90248,-3.28025,6.44445,0.16127,A,152827.10
3.36293,57.68822909,11.98046509,57.68822633,11.98047933,15:28:27.303163,0.03762,0.00000,1.50000,-0.14009,0.02000,-0.00095,0.00036,-0.00080,-0.05337,-0.11480,0.99210,3.32469,0.00000,6.18237,6.18237,2.39242,-2.99257,3.34173,3.23929,-3.29878,6.22822,-0.05497,A,152827.20
3.38485,57.68822895,11.98046580,57.68822633,11.98047933,15:28:27.325062,0.00689,0.00000,0.00000,-0.14013,0.00000,0.00118,0.00067,0.00286,-0.05161,-0.11535,0.99143,3.37870,0.00000,6.18925,6.18925,2.43477,-3.00788,3.34173,3.23929,-3.29878,6.22822,-0.05497,A,152827.20
3.39513,57.68822882,11.98046647,57.68822633,11.98047933,15:28:27.335330,0.00677,0.00000,0.00000,-0.14024,0.00000,-0.00279,-0.00132,0.00149,-0.05118,-0.11444,0.99210,3.38864,0.00000,6.19509,6.19509,2.47499,-3.02242,3.34173,3.23929,-3.29878,6.22822,-0.05497,A,152827.20
3.40398,57.68822869,11.98046712,57.68822633,11.98047933,15:28:27.344185,0.00539,0.00000,0.00000,-0.14033,0.00000,0.00149,-0.00040,0.00057,-0.05161,-0.11511,0.99125,3.39796,0.00000,6.20006,6.20006,2.51321,-3.03624,3.34173,3.23929,-3.29878,6.22822,-0.05497,A,152827.20
3.41433,57.68822858,11.98046773,57.68822633,11.98047933,15:28:27.354537,0.00534,0.00000,0.00000,-0.14045,0.00000,-0.00401,-0.00178,0.00180,-0.05447,-0.11389,0.99107,3.40834,0.00000,6.20428,6.20428,2.54951,-3.04937,3.34173,3.23929,-3.29878,6.22822,-0.05497,A,152827.20
3.42469,57.68822846,11.98046831,57.68822633,11.98047933,15:28:27.364887,0.00530,0.00000,0.00000,-0.14053,0.00000,0.00103,0.00250,-0.00004,-0.05100,-0.11523,0.99143,3.41874,0.00000,6.20787,6.20787,2.58400,-3.06184,3.34173,3.23929,-3.29878,6.22822,-0.05497,A,152827.20
3.43554,57.68822836,11.98046886,57.68822633,11.98047933,15:28:27.375734,0.00531,0.00000,0.00000,-0.14060,0.00000,0.00027,0.00051,-0.00095,-0.05081,-0.11376,0.99198,3.42946,0.00000,6.21093,6.21093,2.61677,-3.07369,3.34173,3.23929,-3.29878,6.22822,-0.05497,A,152827.20
3.47946,57.68822826,11.98046938,57.68822600,11.98048467,15:28:27.420770,0.03883,0.00000,1.50000,-0.14071,0.02000,-0.00370,-0.00300,0.00286,-0.05173,-0.11364,0.99198,3.44001,0.00000,6.21352,6.21352,2.64789,-3.08494,3.45776,3.55629,-3.33585,6.16679,-0.11640,A,152827.30
3.50044,57.68822814,11.98047015,57.68822600,11.98048467,15:28:27.440657,0.00823,0.00000,0.00000,-0.14079,0.00000,0.00012,0.00265,-0.00172,-0.05362,-0.11468,0.99021,3.49395,0.00000,6.20651,6.20651,2.69331,-3.09749,3.45776,3.55629,-3.33585,6.16679,-0.11640,A,152827.30
3.50773,57.68822804,11.98047087,57.68822600,11.98048467,15:28:27.447933,0.00535,0.00000,0.00000,-0.14090,0.00000,-0.00248,0.00219,0.00027,-0.05057,-0.11553,0.99192,3.50153,0.00000,6.20055,6.20055,2.73646,-3.10941,3.45776,3.55629,-3.33585,6.16679,-0.11640,A,152827.30
3.51815,57.68822793,11.98047156,57.68822600,11.98048467,15:28:27.458352,0.00536,0.00000,0.00000,-0.14096,0.00000,0.00256,0.00021,-0.00126,-0.05130,-0.11486,0.99155,3.51215,0.00000,6.19549,6.19549,2.77745,-3.12073,3.45776,3.55629,-3.33585,6.16679,-0.11640,A,152827.30
3.52832,57.68822784,11.98047222,57.68822600,11.98048467,15:28:27.468514,0.00513,0.00000,0.00000,-0.14102,0.00000,0.00027,0.00082,0.00195,-0.05106,-0.11340,0.98832,3.52235,0.00000,6.19118,6.19118,2.81639,-3.13148,3.45776,3.55629,-3.33585,6.16679,-0.11640,A,152827.30
3.54057,57.68822775,11.98047284,57.68822600,11.98048467,15:28:27.480766,0.00697,0.00000,0.00000,-0.14106,0.00000,0.00439,-0.00040,0.00134,-0.04996,-0.11511,0.99088,3.53377,0.00000,6.18752,6.18752,2.85339,-3.14170,3.45776,3.55629,-3.33585,6.16679,-0.11640,A,152827.30
3.54899,57.68822766,11.98047343,57.68822600,11.98048467,15:28:27.489191,0.00500,0.00000,0.00000,-0.14120,0.00000,-0.00477,0.00021,0.00012,-0.05307,-0.11541,0.99003,3.54324,0.00000,6.18441,6.18441,2.88853,-3.15141,3.45776,3.55629,-3.33585,6.16679,-0.11640,A,152827.30
3.58827,57.68822758,11.98047399,57.68822683,11.98048783,15:28:27.528490,0.03401,0.00000,1.50000,-0.14128,0.02000,-0.00187,-0.00269,-0.00202,-0.05222,-0.11413,0.99284,3.55375,0.00000,6.18177,6.18177,2.92192,-3.16063,3.57038,3.74450,-3.24319,6.74067,0.45749,A,152827.40
3.60818,57.68822754,11.98047469,57.68822683,11.98048783,15:28:27.548376,0.00660,0.00000,0.00000,-0.14135,0.00000,-0.00019,-0.00178,0.00134,-0.05386,-0.11334,0.99149,3.60192,0.00000,6.26560,6.26560,2.96305,-3.16476,3.57038,3.74450,-3.24319,6.74067,0.45749,A,152827.40
3.61699,57.68822750,11.98047534,57.68822683,11.98048783,15:28:27.557190,0.00501,0.00000,0.00000,-0.14135,0.00000,0.00577,-0.00040,0.00210,-0.05313,-0.11346,0.99198,3.61125,0.00000,6.33686,6.33686,3.00212,-3.16868,3.57038,3.74450,-3.24319,6.74067,0.45749,A,152827.40
3.62803,57.68822747,11.98047597,57.68822683,11.98048783,15:28:27.568229,0.00577,0.00000,0.00000,-0.14142,0.00000,0.00409,0.00051,-0.00126,-0.05179,-0.11706,0.98942,3.62202,0.00000,6.39743,6.39743,3.03924,-3.17241,3.57038,3.74450,-3.24319,6.74067,0.45749,A,152827.40
3.63871,57.68822744,11.98047656,57.68822683,11.98048783,15:28:27.578911,0.00604,0.00000,0.00000,-0.14148,0.00000,-0.00019,-0.00040,-0.00386,-0.05270,-0.11352,0.99265,3.63234,0.00000,6.44892,6.44892,3.07450,-3.17594,3.57038,3.74450,-3.24319,6.74067,0.45749,A,152827.40
3.64818,57.68822741,11.98047712,57.68822683,11.98048783,15:28:27.588378,0.00511,0.00000,0.00000,-0.14156,0.00000,-0.00263,-0.00056,0.00088,-0.05148,-0.11370,0.99064,3.64221,0.00000,6.49268,6.49268,3.10800,-3.17931,3.57038,3.74450,-3.24319,6.74067,0.45749,A,152827.40
3.65985,57.68822738,11.98047766,57.68822683,11.98048783,15:28:27.600054,0.00638,0.00000,0.00000,-0.14162,0.00000,0.00164,0.00006,0.00027,-0.05051,-0.11511,0.99137,3.65282,0.00000,6.52988,6.52988,3.13983,-3.18250,3.57038,3.74450,-3.24319,6.74067,0.45749,A,152827.40
3.66898,57.68822735,11.98047817,57.68822683,11.98048783,15:28:27.609182,0.00512,0.00000,0.00000,-0.14168,0.00000,0.00195,0.00128,-0.00233,-0.05222,-0.11566,0.99235,3.66322,0.00000,6.56150,6.56150,3.17006,-3.18553,3.57038,3.74450,-3.24319,6.74067,0.45749,A,152827.40
3.71363,57.68822733,11.98047865,57.68822700,11.98049050,15:28:27.654558,0.03937,0.00000,1.50000,-0.14170,0.02000,0.00470,0.00158,-0.00050,-0.05118,-0.11383,0.99076,3.67343,0.00000,6.58838,6.58838,3.19878,-3.18842,3.69350,3.90300,-3.22465,6.39958,0.11640,A,152827.50
3.73141,57.68822731,11.98047924,57.68822700,11.98049050,15:28:27.671610,0.00715,0.00000,0.00000,-0.14178,0.00000,-0.00004,0.00036,0.00088,-0.05197,-0.11621,0.99375,3.72532,0.00000,6.56006,6.56006,3.23399,-3.19023,3.69350,3.90300,-3.22465,6.39958,0.11640,A,152827.50
3.73972,57.68822729,11.98047981,57.68822700,11.98049050,15:28:27.679916,0.00522,0.00000,0.00000,-0.14184,0.00000,0.00103,0.00250,-0.00218,-0.05283,-0.11413,0.99149,3.73368,0.00000,6.53599,6.53599,3.26745,-3.19195,3.69350,3.90300,-3.22465,6.39958,0.11640,A,152827.50
3.75025,57.68822728,11.98048034,57.68822700,11.98049050,15:28:27.690467,0.00535,0.00000,0.00000,-0.14195,0.00000,-0.00538,0.00051,0.00164,-0.04929,-0.11413,0.99229,3.74427,0.00000,6.51552,6.51552,3.29922,-3.19359,3.69350,3.90300,-3.22465,6.39958,0.11640,A,152827.50
3.76109,57.68822727,11.98048085,57.68822700,11.98049050,15:28:27.701440,0.00579,0.00000,0.00000,-0.14201,0.00000,0.00012,-0.00056,-0.00111,-0.05142,-0.11444,0.99210,3.75443,0.00000,6.49813,6.49813,3.32941,-3.19514,3.69350,3.90300,-3.22465,6.39958,0.11640,A,152827.50
3.77110,57.68822725,11.98048133,57.68822700,11.98049050,15:28:27.711297,0.00540,0.00000,0.00000,-0.14207,0.00000,0.00164,0.00082,-0.00218,-0.05234,-0.11523,0.98954,3.76504,0.00000,6.48335,6.48335,3.35809,-3.19661,3.69350,3.90300,-3.22465,6.39958,0.11640,A,152827.50
3.78286,57.68822724,11.98048179,57.68822700,11.98049050,15:28:27.723055,0.00676,0.00000,0.00000,-0.14215,0.00000,-0.00156,-0.00239,0.00195,-0.05185,-0.11517,0.99210,3.77598,0.00000,6.47079,6.47079,3.38534,-3.19802,3.69350,3.90300,-3.22465,6.39958,0.11640,A,152827.50
3.79284,57.68822723,11.98048223,57.68822700,11.98049050,15:28:27.733036,0.00617,0.00000,0.00000,-0.14216,0.00000,0.00622,0.00357,0.00042,-0.05276,-0.11566,0.99332,3.78667,0.00000,6.46011,6.46011,3.41122,-3.19935,3.69350,3.90300,-3.22465,6.39958,0.11640,A,152827.50
3.84527,57.68822722,11.98048264,57.68822633,11.98049283,15:28:27.785808,0.04819,0.00000,1.50000,-0.14225,0.02000,-0.00202,0.00174,0.00088,-0.05026,-0.11517,0.99259,3.79663,0.00000,6.45103,6.45103,3.43581,-3.20061,3.82272,4.04168,-3.29878,5.79230,-0.49088,A,152827.70
3.86368,57.68822717,11.98048315,57.68822633,11.98049283,15:28:27.803877,0.00838,0.00000,0.00000,-0.14234,0.00000,-0.00034,0.00418,-0.00248,-0.05197,-0.11499,0.98942,3.85759,0.00000,6.35222,6.35222,3.46610,-3.20552,3.82272,4.04168,-3.29878,5.79230,-0.49088,A,152827.70
3.87106,57.68822713,11.98048363,57.68822633,11.98049283,15:28:27.811262,0.00537,0.00000,0.00000,-0.14238,0.00000,0.00180,-0.00086,0.00256,-0.05386,-0.11474,0.99387,3.86502,0.00000,6.26823,6.26823,3.49488,-3.21018,3.82272,4.04168,-3.29878,5.79230,-0.49088,A,152827.70
3.88120,57.68822709,11.98048409,57.68822633,11.98049283,15:28:27.821396,0.00511,0.00000,0.00000,-0.14245,0.00000,-0.00172,0.00051,0.00180,-0.05203,-0.11352,0.98918,3.87545,0.00000,6.19684,6.19684,3.52222,-3.21461,3.82272,4.04168,-3.29878,5.79230,-0.49088,A,152827.70
3.89289,57.68822705,11.98048453,57.68822633,11.98049283,15:28:27.833087,0.00657,0.00000,0.00000,-0.14246,0.00000,0.00347,-0.00208,0.00073,-0.05246,-0.11413,0.99015,3.88626,0.00000,6.13616,6.13616,3.54819,-3.21882,3.82272,4.04168,-3.29878,5.79230,-0.49088,A,152827.70
3.90291,57.68822702,11.98048495,57.68822633,11.98049283,15:28:27.843109,0.00593,0.00000,0.00000,-0.14254,0.00000,-0.00065,0.00219,0.00317,-0.05179,-0.11560,0.99113,3.89674,0.00000,6.08458,6.08458,3.57287,-3.22282,3.82272,4.04168,-3.29878,5.79230,-0.49088,A,152827.70
3.91282,57.68822698,11.98048534,57.68822633,11.98049283,15:28:27.853012,0.00514,0.00000,0.00000,-0.14259,0.00000,-0.00050,0.00494,0.00073,-0.05551,-0.11419,0.99412,3.90706,0.00000,6.04074,6.04074,3.59631,-3.22662,3.82272,4.04168,-3.29878,5.79230,-0.49088,A,152827.70
3.96064,57.68822695,11.98048571,57.68822617,11.98049333,15:28:27.900868,0.04237,0.00000,1.50000,-0.14266,0.02000,0.00103,0.00250,-0.00034,-0.05069,-0.11584,0.98814,3.91775,0.00000,6.00348,6.00348,3.61858,-3.23023,3.93598,4.07140,-3.31732,5.72559,-0.55760,A,152827.80
3.97808,57.68822691,11.98048610,57.68822617,11.98049333,15:28:27.918296,0.00832,0.00000,0.00000,-0.14290,0.00000,-0.00355,-0.00040,-0.00111,-0.05173,-0.11425,0.98911,3.97126,0.00000,5.96179,5.96179,3.64122,-3.23458,3.93598,4.07140,-3.31732,5.72559,-0.55760,A,152827.80
3.98529,57.68822687,11.98048646,57.68822617,11.98049333,15:28:27.925488,0.00512,0.00000,0.00000,-0.14296,0.00000,0.00103,0.00067,-0.00080,-0.04990,-0.11584,0.98985,3.97954,0.00000,5.92636,5.92636,3.66273,-3.23872,3.93598,4.07140,-3.31732,5.72559,-0.55760,A,152827.80
3.99585,57.68822684,11.98048680,57.68822617,11.98049333,15:28:27.936048,0.00545,0.00000,0.00000,-0.14302,0.00000,0.00012,-0.00254,-0.00080,-0.05222,-0.11541,0.99296,3.98984,0.00000,5.89625,5.89625,3.68316,-3.24265,3.93598,4.07140,-3.31732,5.72559,-0.55760,A,152827.80
4.00637,57.68822680,11.98048713,57.68822617,11.98049333,15:28:27.946571,0.00556,0.00000,0.00000,-0.14304,0.00000,0.00225,0.00250,-0.00019,-0.05307,-0.11431,0.99076,4.00018,0.00000,5.87065,5.87065,3.70257,-3.24638,3.93598,4.07140,-3.31732,5.72559,-0.55760,A,152827.80
4.01631,57.68822677,11.98048744,57.68822617,11.98049333,15:28:27.956511,0.00511,0.00000,0.00000,-0.14306,0.00000,0.00531,-0.00056,-0.00187,-0.05325,-0.11657,0.99168,4.01034,0.00000,5.84889,5.84889,3.72102,-3.24993,3.93598,4.07140,-3.31732,5.72559,-0.55760,A,152827.80
4.02701,57.68822674,11.98048773,57.68822617,11.98049333,15:28:27.967212,0.00540,0.00000,0.00000,-0.14311,0.00000,-0.00187,0.00296,0.00286,-0.05100,-0.11340,0.99223,4.02097,0.00000,5.83039,5.83039,3.73853,-3.25330,3.93598,4.07140,-3.31732,5.72559,-0.55760,A,152827.80
4.06967,57.68822671,11.98048801,57.68822633,11.98049317,15:28:28.010476,0.03766,0.00000,1.50000,-0.14319,0.02000,0.00027,-0.00178,-0.00080,-0.05167,-0.11694,0.99198,4.03139,0.00000,5.81467,5.81467,3.75518,-3.25650,4.04780,4.06150,-3.29878,8.34487,2.06168,A,152827.90
4.08769,57.68822669,11.98048827,57.68822633,11.98049317,15:28:28.027890,0.00627,0.00000,0.00000,-0.14301,0.00000,0.00470,-0.00193,-0.00095,-0.05203,-0.11474,0.98948,4.08161,0.00000,6.19420,6.19420,3.77049,-3.25861,4.04780,4.06150,-3.29878,8.34487,2.06168,A,152827.90
4.09838,57.68822668,11.98048852,57.68822633,11.98049317,15:28:28.038591,0.00656,0.00000,0.00000,-0.14298,0.00000,0.00546,0.00128,-0.00034,-0.05057,-0.11358,0.99253,4.09235,0.00000,6.51680,6.51680,3.78504,-3.26062,4.04780,4.06150,-3.29878,8.34487,2.06168,A,152827.90
4.10776,57.68822666,11.98048875,57.68822633,11.98049317,15:28:28.047963,0.00567,0.00000,0.00000,-0.14307,0.00000,-0.00324,0.00036,0.00042,-0.05380,-0.11535,0.99277,4.10172,0.00000,6.79101,6.79101,3.79887,-3.26253,4.04780,4.06150,-3.29878,8.34487,2.06168,A,152827.90
4.11825,57.68822664,11.98048897,57.68822633,11.98049317,15:28:28.058463,0.00576,0.00000,0.00000,-0.14308,0.00000,0.00225,0.00250,-0.00294,-0.05173,-0.11407,0.99223,4.11184,0.00000,7.02409,7.02409,3.81200,-3.26434,4.04780,4.06150,-3.29878,8.34487,2.06168,A,152827.90
4.12803,57.68822663,11.98048918,57.68822633,11.98049317,15:28:28.068226,0.00513,0.00000,0.00000,-0.14317,0.00000,-0.00080,0.00143,0.00118,-0.05051,-0.11669,0.99119,4.12203,0.00000,7.22221,7.22221,3.82447,-3.26606,4.04780,4.06150,-3.29878,8.34487,2.06168,A,152827.90
4.14092,57.68822661,11.98048938,57.68822633,11.98049317,15:28:28.081126,0.00749,0.00000,0.00000,-0.14320,0.00000,0.00164,0.00051,-0.00095,-0.05374,-0.11456,0.99168,4.13432,0.00000,7.39061,7.39061,3.83632,-3.26770,4.04780,4.06150,-3.29878,8.34487,2.06168,A,152827.90
4.18246,57.68822660,11.98048957,57.68822650,11.98048783,15:28:28.122693,0.03815,0.00000,1.50000,-0.14323,0.02000,-0.00080,-0.00376,-0.00218,-0.05155,-0.11383,0.99369,4.14392,0.00000,7.53374,7.53374,3.84758,-3.26925,4.16088,3.74450,-3.28025,9.36638,3.08320,A,152828.00
4.20342,57.68822659,11.98048948,57.68822650,11.98048783,15:28:28.143620,0.00771,0.00000,0.00000,-0.14328,0.00000,-0.00019,0.00143,-0.00248,-0.05301,-0.11395,0.99088,4.19714,0.00000,7.80864,7.80864,3.84243,-3.26980,4.16088,3.74450,-3.28025,9.36638,3.08320,A,152828.00
4.21401,57.68822659,11.98048940,57.68822650,11.98048783,15:28:28.154238,0.00794,0.00000,0.00000,-0.14334,0.00000,0.00027,0.00051,0.00012,-0.05118,-0.11553,0.99040,4.20713,0.00000,8.04230,8.04230,3.83753,-3.27033,4.16088,3.74450,-3.28025,9.36638,3.08320,A,152828.00
4.22217,57.68822658,11.98048932,57.68822650,11.98048783,15:28:28.162377,0.00551,0.00000,0.00000,-0.14339,0.00000,0.00073,-0.00147,0.00134,-0.05136,-0.11566,0.99101,4.21613,0.00000,8.24091,8.24091,3.83288,-3.27082,4.16088,3.74450,-3.28025,9.36638,3.08320,A,152828.00
4.23267,57.68822658,11.98048925,57.68822650,11.98048783,15:28:28.172865,0.00522,0.00000,0.00000,-0.14341,0.00000,0.00164,0.00021,0.00241,-0.05161,-0.11419,0.98972,4.22688,0.00000,8.40973,8.40973,3.82846,-3.27129,4.16088,3.74450,-3.28025,9.36638,3.08320,A,152828.00
4.24406,57.68822658,11.98048918,57.68822650,11.98048783,15:28:28.184267,0.00604,0.00000,0.00000,-0.14344,0.00000,0.00409,-0.00117,-0.00218,-0.05429,-0.11663,0.99174,4.23718,0.00000,8.55323,8.55323,3.82426,-3.27174,4.16088,3.74450,-3.28025,9.36638,3.08320,A,152828.00
4.25488,57.68822657,11.98048911,57.68822650,11.98048783,15:28:28.195078,0.00628,0.00000,0.00000,-0.14350,0.00000,-0.00126,0.00174,-0.00080,-0.05264,-0.11462,0.99015,4.24855,0.00000,8.67520,8.67520,3.82028,-3.27217,4.16088,3.74450,-3.28025,9.36638,3.08320,A,152828.00
4.29917,57.68822657,11.98048904,57.68822650,11.98048333,15:28:28.239406,0.04017,0.00000,1.50000,-0.14352,0.02000,0.00027,0.00158,0.00057,-0.05167,-0.11364,0.99247,4.25814,0.00000,8.77888,8.77888,3.81649,-3.27257,4.27619,3.47704,-3.28025,9.42478,3.14159,A,152828.10
4.31317,57.68822657,11.98048876,57.68822650,11.98048333,15:28:28.253377,0.00761,0.00000,0.00000,-0.14340,0.00000,0.00347,-0.00132,-0.00141,-0.05179,-0.11499,0.99113,4.30677,0.00000,8.87576,8.87576,3.79951,-3.27296,4.27619,3.47704,-3.28025,9.42478,3.14159,A,152828.10
4.32100,57.68822656,11.98048849,57.68822650,11.98048333,15:28:28.261192,0.00503,0.00000,0.00000,-0.14339,0.00000,0.00286,-0.00300,-0.00050,-0.05313,-0.11254,0.99338,4.31524,0.00000,8.95812,8.95812,3.78339,-3.27332,4.27619,3.47704,-3.28025,9.42478,3.14159,A,152828.10
4.33184,57.68822656,11.98048823,57.68822650,11.98048333,15:28:28.272038,0.00564,0.00000,0.00000,-0.14346,0.00000,-0.00172,0.00097,-0.00141,-0.05124,-0.11486,0.99015,4.32578,0.00000,9.02812,9.02812,3.76807,-3.27367,4.27619,3.47704,-3.28025,9.42478,3.14159,A,152828.10
4.34260,57.68822656,11.98048799,57.68822650,11.98048333,15:28:28.282801,0.00600,0.00000,0.00000,-0.14354,0.00000,-0.00263,-0.00239,-0.00202,-0.05344,-0.11535,0.98936,4.33656,0.00000,9.08762,9.08762,3.75352,-3.27400,4.27619,3.47704,-3.28025,9.42478,3.14159,A,152828.10
4.35296,57.68822655,11.98048775,57.68822650,11.98048333,15:28:28.293163,0.00595,0.00000,0.00000,-0.14359,0.00000,-0.00141,-0.00346,0.00241,-0.05209,-0.11450,0.99192,4.34615,0.00000,9.13819,9.13819,3.73970,-3.27431,4.27619,3.47704,-3.28025,9.42478,3.14159,A,152828.10
4.36283,57.68822655,11.98048753,57.68822650,11.98048333,15:28:28.303030,0.00543,0.00000,0.00000,-0.14365,0.00000,-0.00248,-0.00056,-0.00187,-0.05179,-0.11425,0.99137,4.35678,0.00000,9.18118,9.18118,3.72656,-3.27461,4.27619,3.47704,-3.28025,9.42478,3.14159,A,152828.10
4.37290,57.68822655,11.98048732,57.68822650,11.98048333,15:28:28.313105,0.00510,0.00000,0.00000,-0.14373,0.00000,-0.00294,0.00387,-0.00172,-0.05197,-0.11529,0.99326,4.36716,0.00000,9.21772,9.21772,3.71409,-3.27489,4.27619,3.47704,-3.28025,9.42478,3.14159,A,152828.10
4.41533,57.68822655,11.98048712,57.68822500,11.98048200,15:28:28.356195,0.03708,0.00000,1.50000,-0.14371,0.02000,0.00241,-0.00132,0.00012,-0.05045,-0.11230,0.99119,4.37742,0.00000,9.24878,9.24878,3.70223,-3.27516,4.39599,3.39779,-3.44704,10.55202,-2.01435,A,152828.20
4.43642,57.68822647,11.98048687,57.68822500,11.98048200,15:28:28.376618,0.00803,0.00000,0.00000,-0.14370,0.00000,0.00088,-0.00193,-0.00187,-0.05191,-0.11486,0.99033,4.43043,0.00000,9.44426,9.44426,3.68701,-3.28375,4.39599,3.39779,-3.44704,10.55202,-2.01435,A,152828.20
4.44901,57.68822640,11.98048662,57.68822500,11.98048200,15:28:28.389209,0.01038,0.00000,0.00000,-0.14378,0.00000,-0.00111,0.00158,0.00073,-0.05325,-0.11590,0.99162,4.44315,0.00000,9.61043,9.61043,3.67255,-3.29191,4.39599,3.39779,-3.44704,10.55202,-2.01435,A,152828.20
4.46767,57.68822633,11.98048639,57.68822500,11.98048200,15:28:28.407871,0.00645,0.00000,0.00000,-0.14384,0.00000,-0.00126,0.00296,-0.00019,-0.05124,-0.11468,0.99101,4.46159,0.00000,9.75166,9.75166,3.65881,-3.29967,4.39599,3.39779,-3.44704,10.55202,-2.01435,A,152828.20
4.47762,57.68822626,11.98048617,57.68822500,11.98048200,15:28:28.418041,0.00600,0.00000,0.00000,-0.14386,0.00000,0.00210,0.00204,-0.00218,-0.05142,-0.11541,0.99216,4.47097,0.00000,9.87172,9.87172,3.64576,-3.30704,4.39599,3.39779,-3.44704,10.55202,-2.01435,A,152828.20
4.48738,57.68822620,11.98048596,57.68822500,11.98048200,15:28:28.427580,0.00521,0.00000,0.00000,-0.14392,0.00000,-0.00218,0.00143,-0.00233,-0.05222,-0.11456,0.99204,4.48133,0.00000,9.97376,9.97376,3.63336,-3.31404,4.39599,3.39779,-3.44704,10.55202,-2.01435,A,152828.20
4.54212,57.68822614,11.98048577,57.68822183,11.98047700,15:28:28.482348,0.04955,0.00000,1.50000,-0.14397,0.02000,0.00103,0.00036,-0.00263,-0.05057,-0.11627,0.99113,4.49275,0.00000,10.06050,10.06050,3.62158,-3.32069,4.52084,3.10061,-3.79916,10.29458,-2.27179,A,152828.40
4.55846,57.68822592,11.98048533,57.68822183,11.98047700,15:28:28.498665,0.00691,0.00000,0.00000,-0.14420,0.00000,-0.00309,-0.00056,-0.00065,-0.05142,-0.11566,0.99247,4.55237,0.00000,10.09561,10.09561,3.59554,-3.34461,4.52084,3.10061,-3.79916,10.29458,-2.27179,A,152828.40
4.56785,57.68822572,11.98048491,57.68822183,11.98047700,15:28:28.508976,0.00576,0.00000,0.00000,-0.14423,0.00000,-0.00126,0.00158,0.00149,-0.05331,-0.11407,0.99253,4.56179,0.00000,10.12546,10.12546,3.57079,-3.36734,4.52084,3.10061,-3.79916,10.29458,-2.27179,A,152828.40
4.57763,57.68822552,11.98048452,57.68822183,11.98047700,15:28:28.518058,0.00513,0.00000,0.00000,-0.14423,0.00000,0.00256,-0.00071,-0.00004,-0.05039,-0.11413,0.99149,4.57188,0.00000,10.15083,10.15083,3.54728,-3.38893,4.52084,3.10061,-3.79916,10.29458,-2.27179,A,152828.40
4.58807,57.68822534,11.98048414,57.68822183,11.98047700,15:28:28.528272,0.00518,0.00000,0.00000,-0.14432,0.00000,-0.00156,-0.00056,0.00225,-0.05392,-0.11730,0.99040,4.58204,0.00000,10.17239,10.17239,3.52495,-3.40944,4.52084,3.10061,-3.79916,10.29458,-2.27179,A,152828.40
4.59894,57.68822516,11.98048378,57.68822183,11.98047700,15:28:28.539980,0.00565,0.00000,0.00000,-0.14434,0.00000,0.00134,0.00082,0.00103,-0.05209,-0.11505,0.99204,4.59285,0.00000,10.19072,10.19072,3.50373,-3.42893,4.52084,3.10061,-3.79916,10.29458,-2.27179,A,152828.40
4.61012,57.68822500,11.98048344,57.68822183,11.98047700,15:28:28.550327,0.00642,0.00000,0.00000,-0.14433,0.00000,0.00271,0.00097,-0.00080,-0.05130,-0.11468,0.99235,4.60385,0.00000,10.20630,10.20630,3.48357,-3.44744,4.52084,3.10061,-3.79916,10.29458,-2.27179,A,152828.40
4.61991,57.68822484,11.98048312,57.68822183,11.98047700,15:28:28.560470,0.00584,0.00000,0.00000,-0.14438,0.00000,-0.00218,0.00158,-0.00156,-0.05142,-0.11462,0.99412,4.61346,0.00000,10.21954,10.21954,3.46442,-3.46503,4.52084,3.10061,-3.79916,10.29458,-2.27179,A,152828.40
4.66484,57.68822469,11.98048282,57.68822150,11.98047050,15:28:28.605808,0.04037,0.00000,1.50000,-0.14437,0.02000,0.00439,0.00067,-0.00004,-0.05276,-0.11511,0.99040,4.62384,0.00000,10.23080,10.23080,3.44623,-3.48173,4.64075,2.71427,-3.83622,9.52042,-3.04595,A,152828.50
4.68616,57.68822453,11.98048220,57.68822150,11.98047050,15:28:28.626372,0.00816,0.00000,0.00000,-0.14453,0.00000,-0.00309,0.00143,-0.00065,-0.05118,-0.11193,0.99174,4.67957,0.00000,10.12424,10.12424,3.40964,-3.49946,4.64075,2.71427,-3.83622,9.52042,-3.04595,A,152828.50
4.69352,57.68822438,11.98048161,57.68822150,11.98047050,15:28:28.633719,0.00512,0.00000,0.00000,-0.14457,0.00000,-0.00187,0.00097,-0.00019,-0.05203,-0.11431,0.99046,4.68777,0.00000,10.03367,10.03367,3.37487,-3.51630,4.64075,2.71427,-3.83622,9.52042,-3.04595,A,152828.50
4.70385,57.68822423,11.98048106,57.68822150,11.98047050,15:28:28.644047,0.00521,0.00000,0.00000,-0.14457,0.00000,0.00088,0.00143,-0.00370,-0.05161,-0.11389,0.99155,4.69784,0.00000,9.95668,9.95668,3.34184,-3.53229,4.64075,2.71427,-3.83622,9.52042,-3.04595,A,152828.50
4.71497,57.68822410,11.98048053,57.68822150,11.98047050,15:28:28.655169,0.00609,0.00000,0.00000,-0.14460,0.00000,0.00088,0.00112,-0.00080,-0.05295,-0.11590,0.99320,4.70890,0.00000,9.89124,9.89124,3.31046,-3.54749,4.64075,2.71427,-3.83622,9.52042,-3.04595,A,152828.50
4.72441,57.68822397,11.98048003,57.68822150,11.98047050,15:28:28.664610,0.00512,0.00000,0.00000,-0.14464,0.00000,0.00149,0.00143,-0.00141,-0.05405,-0.11633,0.99247,4.71844,0.00000,9.83562,9.83562,3.28065,-3.56193,4.64075,2.71427,-3.83622,9.52042,-3.04595,A,152828.50
4.73557,57.68822384,11.98047955,57.68822150,11.98047050,15:28:28.675766,0.00547,0.00000,0.00000,-0.14465,0.00000,0.00012,0.00403,-0.00065,-0.05075,-0.11370,0.99155,4.72951,0.00000,9.78834,9.78834,3.25233,-3.57564,4.64075,2.71427,-3.83622,9.52042,-3.04595,A,152828.50
4.77938,57.68822373,11.98047910,57.68822150,11.98046500,15:28:28.719605,0.03888,0.00000,1.50000,-0.14468,0.02000,-0.00065,0.00112,-0.00126,-0.05209,-0.11499,0.99119,4.73987,0.00000,9.74815,9.74815,3.22543,-3.58867,4.75682,2.38737,-3.83622,9.42478,3.14159,A,152828.60
4.79933,57.68822361,11.98047840,57.68822150,11.98046500,15:28:28.739533,0.00719,0.00000,0.00000,-0.14470,0.00000,-0.00019,0.00219,-0.00156,-0.05325,-0.11352,0.99021,4.79321,0.00000,9.69965,9.69965,3.18352,-3.60105,4.75682,2.38737,-3.83622,9.42478,3.14159,A,152828.60
4.80784,57.68822351,11.98047773,57.68822150,11.98046500,15:28:28.748042,0.00546,0.00000,0.00000,-0.14475,0.00000,-0.00233,-0.00132,-0.00095,-0.05136,-0.11486,0.99137,4.80157,0.00000,9.65842,9.65842,3.14372,-3.61281,4.75682,2.38737,-3.83622,9.42478,3.14159,A,152828.60
4.81822,57.68822341,11.98047709,57.68822150,11.98046500,15:28:28.758433,0.00549,0.00000,0.00000,-0.14473,0.00000,0.00210,0.00143,0.00164,-0.05307,-0.11383,0.99338,4.81221,0.00000,9.62337,9.62337,3.10590,-3.62398,4.75682,2.38737,-3.83622,9.42478,3.14159,A,152828.60
4.82828,57.68822331,11.98047648,57.68822150,11.98046500,15:28:28.768481,0.00515,0.00000,0.00000,-0.14479,0.00000,-0.00324,-0.00040,-0.00019,-0.05161,-0.11419,0.98997,4.82228,0.00000,9.59358,9.59358,3.06997,-3.63459,4.75682,2.38737,-3.83622,9.42478,3.14159,A,152828.60
4.83891,57.68822322,11.98047591,57.68822150,11.98046500,15:28:28.779109,0.00537,0.00000,0.00000,-0.14476,0.00000,0.00393,-0.00025,0.00164,-0.05295,-0.11401,0.99082,4.83287,0.00000,9.56826,9.56826,3.03584,-3.64467,4.75682,2.38737,-3.83622,9.42478,3.14159,A,152828.60
4.84974,57.68822314,11.98047536,57.68822150,11.98046500,15:28:28.790194,0.00580,0.00000,0.00000,-0.14480,0.00000,-0.00095,0.00128,0.00195,-0.05368,-0.11541,0.99223,4.84324,0.00000,9.54674,9.54674,3.00342,-3.65425,4.75682,2.38737,-3.83622,9.42478,3.14159,A,152828.60
4.89170,57.68822305,11.98047485,57.68822050,11.98046317,15:28:28.831931,0.03744,0.00000,1.50000,-0.14483,0.02000,-0.00172,0.00158,0.00103,-0.05508,-0.11376,0.99168,4.85341,0.00000,9.52844,9.52844,2.97262,-3.66335,4.86975,2.27840,-3.94742,10.22030,-2.34608,A,152828.70
4.91283,57.68822293,11.98047426,57.68822050,11.98046317,15:28:28.853028,0.00681,0.00000,0.00000,-0.14491,0.00000,-0.00095,0.00204,-0.00019,-0.05063,-0.11511,0.99119,4.90702,0.00000,9.63222,9.63222,2.93790,-3.67755,4.86975,2.27840,-3.94742,10.22030,-2.34608,A,152828.70
4.92395,57.68822281,11.98047371,57.68822050,11.98046317,15:28:28.864160,0.00738,0.00000,0.00000,-0.14491,0.00000,0.00042,0.00235,-0.00172,-0.05295,-0.11413,0.99393,4.91599,0.00000,9.72043,9.72043,2.90493,-3.69105,4.86975,2.27840,-3.94742,10.22030,-2.34608,A,152828.70
4.93209,57.68822269,11.98047318,57.68822050,11.98046317,15:28:28.872289,0.00512,0.00000,0.00000,-0.14496,0.00000,-0.00065,-0.00162,-0.00218,-0.05264,-0.11590,0.99174,4.92611,0.00000,9.79541,9.79541,2.87360,-3.70386,4.86975,2.27840,-3.94742,10.22030,-2.34608,A,152828.70
4.94286,57.68822258,11.98047268,57.68822050,11.98046317,15:28:28.883060,0.00549,0.00000,0.00000,-0.14499,0.00000,0.00134,-0.00346,-0.00050,-0.05356,-0.11614,0.98881,4.93674,0.00000,9.85915,9.85915,2.84384,-3.71604,4.86975,2.27840,-3.94742,10.22030,-2.34608,A,152828.70
4.95284,57.68822248,11.98047220,57.68822050,11.98046317,15:28:28.893043,0.00508,0.00000,0.00000,-0.14506,0.00000,-0.00355,0.00128,-0.00294,-0.05295,-0.11517,0.98887,4.94709,0.00000,9.91332,9.91332,2.81557,-3.72761,4.86975,2.27840,-3.94742,10.22030,-2.34608,A,152828.70
4.96349,57.68822238,11.98047175,57.68822050,11.98046317,15:28:28.903700,0.00533,0.00000,0.00000,-0.14508,0.00000,-0.00233,-0.00056,0.00042,-0.05417,-0.11346,0.99052,4.95737,0.00000,9.95936,9.95936,2.78871,-3.73860,4.86975,2.27840,-3.94742,10.22030,-2.34608,A,152828.70
5.00598,57.68822228,11.98047132,57.68822000,11.98045967,15:28:28.948096,0.03742,0.00000,1.50000,-0.14514,0.02000,-0.00294,-0.00392,0.00225,-0.05161,-0.11566,0.99210,4.96793,0.00000,9.99850,9.99850,2.76320,-3.74904,4.98490,2.07037,-4.00302,9.68593,-2.88044,A,152828.80
5.03572,57.68822217,11.98047074,57.68822000,11.98045967,15:28:28.976575,0.01593,0.00000,0.00000,0.00000,0.00000,0.00103,0.00097,-0.00218,-0.05197,-0.11627,0.99265,5.01999,0.00000,-1.09348,-1.09348,2.07037,-4.00302,4.98490,2.07037,-4.00302,9.68593,-2.88044,A,152828.80
5.06664,57.68822000,11.98045967,57.68822000,11.98045967,15:28:29.006856,0.01694,0.00000,0.00000,-0.00220,-0.07286,0.00027,0.00204,0.00241,-0.05215,-0.11584,0.99351,5.05242,0.00000,0.52979,0.48738,2.07037,-4.00302,4.98490,2.07037,-4.00302,9.68593,-2.88044,A,152828.80
5.10558,57.68822000,11.98045967,57.68821983,11.98045533,15:28:29.045784,0.02745,0.00000,0.00000,-0.00433,-0.07286,0.00042,0.00082,-0.00233,-0.05453,-0.11322,0.98918,5.08113,0.00000,1.90958,1.86716,2.07037,-4.00302,5.09824,1.81281,-4.02155,9.49661,-3.06976,A,152828.90
5.13281,57.68821999,11.98045945,57.68821983,11.98045533,15:28:29.073021,0.01353,0.00000,0.00000,-0.00643,-0.07286,0.00103,0.00342,-0.00187,-0.05228,-0.11517,0.99155,5.12306,0.00000,3.05399,3.01158,2.05749,-4.00394,5.09824,1.81281,-4.02155,9.49661,-3.06976,A,152828.90
5.15756,57.68821998,11.98045924,57.68821983,11.98045533,15:28:29.097770,0.01323,0.00000,0.00000,-0.00841,-0.07286,0.00409,-0.00208,-0.00187,-0.05008,-0.11407,0.99113,5.14849,0.00000,4.02675,3.98433,2.04526,-4.00482,5.09824,1.81281,-4.02155,9.49661,-3.06976,A,152828.90
5.18305,57.68821998,11.98045905,57.68821983,11.98045533,15:28:29.123277,0.01274,0.00000,0.00000,-0.01044,-0.07286,0.00256,0.00082,-0.00126,-0.05106,-0.11547,0.99003,5.17227,0.00000,4.85359,4.81117,2.03364,-4.00566,5.09824,1.81281,-4.02155,9.49661,-3.06976,A,152828.90
5.23647,57.68821997,11.98045886,57.68821833,11.98044933,15:28:29.176689,0.04214,0.00000,0.00000,-0.01250,-0.07286,-0.00019,0.00433,-0.00218,-0.05380,-0.11584,0.99082,5.19897,0.00000,5.55641,5.51399,2.02260,-4.00646,5.22574,1.45619,-4.18834,9.86226,-2.70411,A,152829.10
5.26273,57.68821989,11.98045839,57.68821833,11.98044933,15:28:29.202942,0.01445,0.00000,0.00000,-0.01437,-0.07286,0.00225,-0.00330,0.00073,-0.05295,-0.11315,0.98972,5.25180,0.00000,6.20865,6.16623,1.99428,-4.01555,5.22574,1.45619,-4.18834,9.86226,-2.70411,A,152829.10
5.28562,57.68821981,11.98045793,57.68821833,11.98044933,15:28:29.226722,0.01096,0.00000,0.00000,-0.01630,-0.07286,0.00210,-0.00086,-0.00355,-0.05155,-0.11492,0.99070,5.27658,0.00000,6.76305,6.72063,1.96737,-4.02419,5.22574,1.45619,-4.18834,9.86226,-2.70411,A,152829.10
5.31259,57.68821974,11.98045750,57.68821833,11.98044933,15:28:29.252816,0.01326,0.00000,0.00000,-0.01823,-0.07286,0.00012,-0.00162,0.00012,-0.05289,-0.11395,0.99345,5.30269,0.00000,7.23429,7.19188,1.94181,-4.03240,5.22574,1.45619,-4.18834,9.86226,-2.70411,A,152829.10
5.35512,57.68821967,11.98045710,57.68821667,11.98044867,15:28:29.295352,0.03147,0.00000,0.00000,-0.02019,-0.07286,-0.00111,0.00006,-0.00065,-0.05179,-0.11523,0.99088,5.32780,0.00000,7.63485,7.59243,1.91753,-4.04019,5.34468,1.41657,-4.37367,10.78494,-1.78143,A,152829.20
5.37715,57.68821952,11.98045667,57.68821667,11.98044867,15:28:29.317380,0.01320,0.00000,0.00000,-0.02220,-0.07286,-0.00294,0.00418,0.00195,-0.05307,-0.11474,0.99143,5.36672,0.00000,8.11373,8.07131,1.89248,-4.05687,5.34468,1.41657,-4.37367,10.78494,-1.78143,A,152829.20
5.40489,57.68821937,11.98045627,57.68821667,11.98044867,15:28:29.345101,0.01378,0.00000,0.00000,-0.02405,-0.07286,-0.00034,0.00097,-0.00218,-0.05124,-0.11328,0.99186,5.39472,0.00000,8.52077,8.47835,1.86869,-4.07271,5.34468,1.41657,-4.37367,10.78494,-1.78143,A,152829.20
5.43153,57.68821924,11.98045589,57.68821667,11.98044867,15:28:29.371738,0.01364,0.00000,0.00000,-0.02582,-0.07286,0.00180,0.00082,-0.00019,-0.05155,-0.11383,0.99009,5.42123,0.00000,8.86676,8.82434,1.84608,-4.08776,5.34468,1.41657,-4.37367,10.78494,-1.78143,A,152829.20
5.47427,57.68821911,11.98045553,57.68821483,11.98044950,15:28:29.414800,0.02956,0.00000,0.00000,-0.02759,-0.07286,0.00134,-0.00056,-0.00340,-0.05106,-0.11407,0.99046,5.44695,0.00000,9.16085,9.11843,1.82461,-4.10205,5.46328,1.46610,-4.57752,11.23392,-1.33245,A,152829.30
5.49905,57.68821890,11.98045523,57.68821483,11.98044950,15:28:29.439259,0.01260,0.00000,0.00000,-0.02945,-0.07286,-0.00218,-0.00239,0.00210,-0.05185,-0.11431,0.99351,5.48820,0.00000,9.47817,9.43575,1.80668,-4.12582,5.46328,1.46610,-4.57752,11.23392,-1.33245,A,152829.30
5.52722,57.68821869,11.98045494,57.68821483,11.98044950,15:28:29.467640,0.01528,0.00000,0.00000,-0.03120,-0.07286,0.00073,0.00067,0.00042,-0.05130,-0.11547,0.98905,5.51592,0.00000,9.74790,9.70548,1.78965,-4.14841,5.46328,1.46610,-4.57752,11.23392,-1.33245,A,152829.30
