Time,lat_estimated,lon_estimated,latitude,longitude,RealTime,CalculationTime,MeasuredVelocity,Roll,SteeringAngle,RollRate,gy,gz,ax,ay,az,imu_read_timing,v_estimated,yaw_estimated,heading_estimated,x_estimated,y_estimated,GPS_timestamp,x_GPS,y_GPS,status,NMEA timestamp
0.04434,57.68802000,11.98134017,57.68802,11.98134,15:48:36.293183,0.04430,0.00000,0.00064,0.07831,0.09759,-0.00398,0.04567,-0.01006,-0.00018,1.00894,0.00001,0.00000,1.00548,1.02877,0.88165,1.46407,0.01523,0.88165,1.46407,A,154836.20
0.05612,57.68803317,11.98135500,57.68802,11.98134,15:48:36.304926,0.00579,0.00000,0.00636,0.06031,0.10599,-0.01940,0.06308,-0.02562,0.05575,0.98369,0.04979,0.00000,1.00548,1.02340,0.88165,1.46407,0.01523,0.88165,1.46407,A,154836.20
0.06449,57.68803317,11.98135500,57.68802,11.98134,15:48:36.313279,0.00377,0.00000,0.00692,0.05593,0.10553,-0.01237,0.05987,-0.06551,-0.01269,1.01748,0.06088,0.00000,1.00548,1.02340,0.88165,1.46407,0.01523,0.88165,1.46407,A,154836.20
0.07446,57.68803317,11.98135500,57.68802,11.98134,15:48:36.323252,0.00349,0.00000,0.00662,0.05202,0.10171,-0.01024,0.05666,-0.07692,-0.06130,1.04633,0.07084,0.00000,1.00548,1.02340,0.88165,1.46407,0.01523,0.88165,1.46407,A,154836.20
0.08452,57.68803317,11.98135500,57.68802,11.98134,15:48:36.333303,0.00315,0.00000,0.00669,0.04823,0.08659,0.00397,0.04597,-0.09498,-0.02635,1.07537,0.08092,0.00000,1.00548,1.02340,0.88165,1.46407,0.01523,0.88165,1.46407,A,154836.20
0.09523,57.68803317,11.98135500,57.68802,11.98134,15:48:36.344022,0.00323,0.00000,0.00783,0.04472,0.08751,0.00901,0.04353,0.02470,0.04319,1.02388,0.09163,0.00000,1.00548,1.02340,0.88165,1.46407,0.01523,0.88165,1.46407,A,154836.20
0.10521,57.68803317,11.98135500,57.68802,11.98134,15:48:36.353994,0.00298,0.00000,0.00929,0.04160,0.08674,-0.00856,0.04215,0.01677,0.07058,1.01809,0.10161,0.00000,1.00548,1.02340,0.88165,1.46407,0.01523,0.88165,1.46407,A,154836.20
0.12911,57.68803317,11.98135500,57.68802,11.98134,15:48:36.377912,0.01649,0.00000,0.01046,0.03866,0.09270,-0.02444,0.04246,0.03044,0.04240,0.95910,0.11217,0.00000,1.00548,1.02340,0.88165,1.46407,0.12716,0.85193,1.51966,A,154836.30
0.14023,57.68803337,11.98135480,57.68802,11.98134,15:48:36.389025,0.00527,0.00000,0.01225,0.03286,0.08919,-0.02917,0.03803,-0.11450,0.01903,0.93202,0.13442,0.00000,1.10931,1.11906,0.86976,1.48631,0.12716,0.85193,1.51966,A,154836.30
0.14851,57.68803337,11.98135480,57.68802,11.98134,15:48:36.397299,0.00317,0.00000,0.01286,0.02966,0.08292,-0.01650,0.03880,-0.12212,0.01574,0.94233,0.14491,0.00000,1.10931,1.11906,0.86976,1.48631,0.12716,0.85193,1.51966,A,154836.30
0.15883,57.68803337,11.98135480,57.68802,11.98134,15:48:36.407618,0.00309,0.00000,0.01396,0.02595,0.08583,0.01084,0.03314,-0.07070,0.04740,0.96288,0.15524,0.00000,1.10931,1.11906,0.86976,1.48631,0.12716,0.85193,1.51966,A,154836.30
0.16932,57.68803337,11.98135480,57.68802,11.98134,15:48:36.419000,0.00328,0.00000,0.01438,0.02165,0.08048,0.01282,0.02810,0.01476,0.00903,0.98003,0.16541,0.00000,1.10931,1.11906,0.86976,1.48631,0.12716,0.85193,1.51966,A,154836.30
0.18020,57.68803337,11.98135480,57.68802,11.98134,15:48:36.428988,0.00391,0.00000,0.01520,0.01664,0.08384,0.00855,0.02581,-0.01452,0.03068,1.06591,0.17659,0.00000,1.10931,1.11906,0.86976,1.48631,0.12716,0.85193,1.51966,A,154836.30
0.18994,57.68803337,11.98135480,57.68802,11.98134,15:48:36.438752,0.00326,0.00000,0.01568,0.01220,0.08354,0.00198,0.02459,0.01757,0.01757,1.06994,0.18601,0.00000,1.10931,1.11906,0.86976,1.48631,0.12716,0.85193,1.51966,A,154836.30
0.20038,57.68803337,11.98135480,57.68802,11.98134,15:48:36.449165,0.00331,0.00000,0.01615,0.00722,0.08628,-0.01222,0.02352,-0.02757,0.00787,1.10068,0.19678,0.00000,1.10931,1.11906,0.86976,1.48631,0.12716,0.85193,1.51966,A,154836.30
0.21060,57.68803337,11.98135480,57.68802,11.98134,15:48:36.459391,0.00314,0.00000,0.01664,0.00263,0.08690,-0.01787,0.02230,0.04087,0.01171,1.03413,0.20699,0.00000,1.10931,1.11906,0.86976,1.48631,0.12716,0.85193,1.51966,A,154836.30
0.22096,57.68803337,11.98135480,57.68802,11.98134,15:48:36.469741,0.00296,0.00000,0.01733,-0.00209,0.08079,-0.04658,0.02887,0.02348,0.02995,1.02260,0.21736,0.00000,1.10931,1.11906,0.86976,1.48631,0.12716,0.85193,1.51966,A,154836.30
0.24505,57.68803337,11.98135480,57.68802,11.98134,15:48:36.494308,0.01665,0.00000,0.01806,-0.00691,0.09148,-0.04338,0.03299,-0.02898,0.02287,0.99887,0.22797,0.00000,1.10931,1.11906,0.86976,1.48631,0.24307,0.81230,1.55673,A,154836.40
0.26015,57.68803362,11.98135441,57.68802,11.98134,15:48:36.509213,0.00805,0.00000,0.01990,-0.01845,0.07651,-0.00963,0.01314,-0.09894,0.03166,0.91531,0.25333,0.00000,1.23636,1.23088,0.84678,1.51447,0.24307,0.81230,1.55673,A,154836.40
0.26542,57.68803362,11.98135441,57.68802,11.98134,15:48:36.514431,0.00293,0.00000,0.02090,-0.02383,0.08369,-0.00168,0.01070,-0.07302,0.05484,0.90371,0.26184,0.00000,1.23636,1.23088,0.84678,1.51447,0.24307,0.81230,1.55673,A,154836.40
0.27669,57.68803362,11.98135441,57.68802,11.98134,15:48:36.525495,0.00348,0.00000,0.02202,-0.02955,0.08598,0.00717,0.00459,-0.04648,0.05246,0.94837,0.27277,0.00000,1.23636,1.23088,0.84678,1.51447,0.24307,0.81230,1.55673,A,154836.40
0.28674,57.68803362,11.98135441,57.68802,11.98134,15:48:36.535524,0.00313,0.00000,0.02224,-0.03473,0.08842,-0.00336,-0.00015,-0.00982,-0.00244,0.96856,0.28313,0.00000,1.23636,1.23088,0.84678,1.51447,0.24307,0.81230,1.55673,A,154836.40
0.29698,57.68803362,11.98135441,57.68802,11.98134,15:48:36.545763,0.00296,0.00000,0.02196,-0.03979,0.07605,-0.00535,-0.00656,-0.04398,-0.02696,1.00473,0.29339,0.00000,1.23636,1.23088,0.84678,1.51447,0.24307,0.81230,1.55673,A,154836.40
0.30770,57.68803362,11.98135441,57.68802,11.98134,15:48:36.556482,0.00314,0.00000,0.02303,-0.04463,0.06674,-0.00123,-0.00885,0.03013,0.06893,1.01614,0.30410,0.00000,1.23636,1.23088,0.84678,1.51447,0.24307,0.81230,1.55673,A,154836.40
0.31826,57.68803362,11.98135441,57.68802,11.98134,15:48:36.567046,0.00343,0.00000,0.02432,-0.04905,0.06368,-0.01757,-0.00656,0.01537,0.08997,1.02980,0.31435,0.00000,1.23636,1.23088,0.84678,1.51447,0.24307,0.81230,1.55673,A,154836.40
0.32867,57.68803362,11.98135441,57.68802,11.98134,15:48:36.577475,0.00346,0.00000,0.02495,-0.05355,0.06781,-0.02505,-0.00809,0.03227,0.04117,0.99698,0.32476,0.00000,1.23636,1.23088,0.84678,1.51447,0.24307,0.81230,1.55673,A,154836.40
0.33877,57.68803362,11.98135441,57.68802,11.98134,15:48:36.587554,0.00316,0.00000,0.02503,-0.05816,0.05162,-0.03666,-0.01847,-0.02641,0.01549,0.98009,0.33516,0.00000,1.23636,1.23088,0.84678,1.51447,0.24307,0.81230,1.55673,A,154836.40
0.36241,57.68803362,11.98135441,57.68802,11.98134,15:48:36.611207,0.01638,0.00000,0.02555,-0.06343,0.03222,-0.02429,-0.02977,-0.05581,0.05893,0.99674,0.34540,0.00000,1.23636,1.23088,0.84678,1.51447,0.36033,0.78259,1.59379,A,154836.50
0.37666,57.68803391,11.98135398,57.68802,11.98134,15:48:36.625450,0.00528,0.00000,0.02573,-0.07885,0.02856,-0.00703,-0.04153,0.02428,0.01043,0.97252,0.37106,0.00000,1.33793,1.31449,0.82110,1.54620,0.36033,0.78259,1.59379,A,154836.50
0.38634,57.68803391,11.98135398,57.68802,11.98134,15:48:36.635128,0.00440,0.00000,0.02503,-0.08672,0.00870,-0.01314,-0.04352,-0.00500,-0.00641,0.97820,0.38271,0.00000,1.33793,1.31449,0.82110,1.54620,0.36033,0.78259,1.59379,A,154836.50
0.39551,57.68803391,11.98135398,57.68802,11.98134,15:48:36.644289,0.00318,0.00000,0.02500,-0.09306,0.00443,-0.00932,-0.04291,-0.01714,0.04063,0.98594,0.39191,0.00000,1.33793,1.31449,0.82110,1.54620,0.36033,0.78259,1.59379,A,154836.50
0.40594,57.68803391,11.98135398,57.68802,11.98134,15:48:36.654745,0.00322,0.00000,0.02547,-0.09971,0.00519,-0.00504,-0.03878,-0.09162,0.07680,1.03383,0.40206,0.00000,1.33793,1.31449,0.82110,1.54620,0.36033,0.78259,1.59379,A,154836.50
0.41628,57.68803391,11.98135398,57.68802,11.98134,15:48:36.665062,0.00316,0.00000,0.02547,-0.10645,0.00855,0.01771,-0.03436,-0.05203,0.04325,1.06384,0.41269,0.00000,1.33793,1.31449,0.82110,1.54620,0.36033,0.78259,1.59379,A,154836.50
0.42687,57.68803391,11.98135398,57.68802,11.98134,15:48:36.675664,0.00336,0.00000,0.02498,-0.11276,-0.00321,0.01511,-0.03542,0.08613,0.01610,1.00766,0.42326,0.00000,1.33793,1.31449,0.82110,1.54620,0.36033,0.78259,1.59379,A,154836.50
0.44297,57.68803391,11.98135398,57.68802,11.98134,15:48:36.691790,0.00821,0.00000,0.02461,-0.11964,-0.01344,-0.01100,-0.04581,0.06435,0.03514,0.98832,0.43927,0.00000,1.33793,1.31449,0.82110,1.54620,0.36033,0.78259,1.59379,A,154836.50
0.45113,57.68803391,11.98135398,57.68802,11.98134,15:48:36.700199,0.00611,0.00000,0.02474,-0.12595,-0.02123,-0.03299,-0.05054,-0.00250,0.06509,0.98741,0.44744,0.00000,1.33793,1.31449,0.82110,1.54620,0.36033,0.78259,1.59379,A,154836.50
0.45869,57.68803391,11.98135398,57.68802,11.98134,15:48:36.707492,0.00338,0.00000,0.02469,-0.13198,-0.02810,-0.04368,-0.05589,-0.08467,0.05710,1.01797,0.45505,0.00000,1.33793,1.31449,0.82110,1.54620,0.36033,0.78259,1.59379,A,154836.50
0.51544,57.68803391,11.98135398,57.68802,11.98134,15:48:36.764243,0.04969,0.00000,0.02408,-0.13817,-0.03390,-0.02337,-0.06246,-0.07625,0.02818,0.99924,0.46527,0.00000,1.33793,1.31449,0.82110,1.54620,0.51313,0.74296,1.76059,A,154836.70
0.53201,57.68803468,11.98135346,57.68802,11.98134,15:48:36.780803,0.00695,0.00000,0.02103,-0.16883,-0.05773,-0.02688,-0.06856,-0.05045,0.07649,1.05402,0.52616,0.00000,1.38689,1.33634,0.78985,1.63196,0.51313,0.74296,1.76059,A,154836.70
0.53860,57.68803468,11.98135346,57.68802,11.98134,15:48:36.787392,0.00315,0.00000,0.02087,-0.17265,-0.05834,-0.01986,-0.07376,0.01861,0.06997,1.06909,0.53499,0.00000,1.38689,1.33634,0.78985,1.63196,0.51313,0.74296,1.76059,A,154836.70
0.54895,57.68803468,11.98135346,57.68802,11.98134,15:48:36.797728,0.00295,0.00000,0.01965,-0.17655,-0.05452,-0.02536,-0.07666,0.06551,-0.00250,1.03694,0.54536,0.00000,1.38689,1.33634,0.78985,1.63196,0.51313,0.74296,1.76059,A,154836.70
0.55983,57.68803468,11.98135346,57.68802,11.98134,15:48:36.808616,0.00319,0.00000,0.01795,-0.18026,-0.06460,-0.03192,-0.08216,0.00165,-0.02788,1.05493,0.55622,0.00000,1.38689,1.33634,0.78985,1.63196,0.51313,0.74296,1.76059,A,154836.70
0.57035,57.68803468,11.98135346,57.68802,11.98134,15:48:36.819154,0.00347,0.00000,0.01707,-0.18351,-0.08079,-0.02551,-0.08933,-0.05374,0.03599,1.00918,0.56672,0.00000,1.38689,1.33634,0.78985,1.63196,0.51313,0.74296,1.76059,A,154836.70
0.58067,57.68803468,11.98135346,57.68802,11.98134,15:48:36.829459,0.00339,0.00000,0.01736,-0.18651,-0.07162,-0.01940,-0.09285,-0.10449,0.10504,0.98686,0.57707,0.00000,1.38689,1.33634,0.78985,1.63196,0.51313,0.74296,1.76059,A,154836.70
0.59100,57.68803468,11.98135346,57.68802,11.98134,15:48:36.839789,0.00332,0.00000,0.01720,-0.18909,-0.05574,-0.00336,-0.08994,0.01000,0.06100,0.93123,0.58739,0.00000,1.38689,1.33634,0.78985,1.63196,0.51313,0.74296,1.76059,A,154836.70
0.60090,57.68803468,11.98135346,57.68802,11.98134,15:48:36.849682,0.00298,0.00000,0.01597,-0.19135,-0.05208,-0.01283,-0.07864,0.04038,-0.00945,0.94025,0.59730,0.00000,1.38689,1.33634,0.78985,1.63196,0.51313,0.74296,1.76059,A,154836.70
0.61145,57.68803468,11.98135346,57.68802,11.98134,15:48:36.860242,0.00314,0.00000,0.01420,-0.19339,-0.05941,-0.02459,-0.07651,0.03501,-0.03849,0.97393,0.60785,0.00000,1.38689,1.33634,0.78985,1.63196,0.51313,0.74296,1.76059,A,154836.70
0.63586,57.68803468,11.98135346,57.68802,11.98134,15:48:36.884664,0.01731,0.00000,0.01234,-0.19517,-0.06933,-0.03208,-0.07819,-0.02483,-0.04349,1.01541,0.61795,0.00000,1.38689,1.33634,0.78985,1.63196,0.63347,0.69343,1.79765,A,154836.80
0.64792,57.68803527,11.98135281,57.68802,11.98134,15:48:36.896714,0.00530,0.00000,0.01094,-0.19883,-0.06490,-0.00749,-0.08964,0.00207,0.04246,0.98802,0.64208,0.00000,1.50317,1.44344,0.75128,1.69823,0.63347,0.69343,1.79765,A,154836.80
0.65623,57.68803527,11.98135281,57.68802,11.98134,15:48:36.905009,0.00321,0.00000,0.01020,-0.20007,-0.06368,-0.00275,-0.09514,0.02538,0.02623,0.98039,0.65262,0.00000,1.50317,1.44344,0.75128,1.69823,0.63347,0.69343,1.79765,A,154836.80
0.66764,57.68803527,11.98135281,57.68802,11.98134,15:48:36.916443,0.00410,0.00000,0.00940,-0.20106,-0.06078,-0.00917,-0.10079,0.03141,0.02239,0.97417,0.66402,0.00000,1.50317,1.44344,0.75128,1.69823,0.63347,0.69343,1.79765,A,154836.80
0.67773,57.68803527,11.98135281,57.68802,11.98134,15:48:36.926555,0.00355,0.00000,0.00851,-0.20160,-0.05620,-0.01329,-0.10033,-0.00195,0.00689,0.98600,0.67372,0.00000,1.50317,1.44344,0.75128,1.69823,0.63347,0.69343,1.79765,A,154836.80
0.68823,57.68803527,11.98135281,57.68802,11.98134,15:48:36.937018,0.00381,0.00000,0.00732,-0.20188,-0.05421,-0.01573,-0.09728,0.02830,-0.01074,0.96282,0.68461,0.00000,1.50317,1.44344,0.75128,1.69823,0.63347,0.69343,1.79765,A,154836.80
0.69797,57.68803527,11.98135281,57.68802,11.98134,15:48:36.946770,0.00316,0.00000,0.00624,-0.20191,-0.05773,-0.01803,-0.09224,-0.00787,-0.00732,0.98039,0.69416,0.00000,1.50317,1.44344,0.75128,1.69823,0.63347,0.69343,1.79765,A,154836.80
0.70847,57.68803527,11.98135281,57.68802,11.98134,15:48:36.957254,0.00340,0.00000,0.00564,-0.20191,-0.05131,-0.01512,-0.08689,-0.00775,0.02342,0.98759,0.70485,0.00000,1.50317,1.44344,0.75128,1.69823,0.63347,0.69343,1.79765,A,154836.80
0.71860,57.68803527,11.98135281,57.68802,11.98134,15:48:36.967395,0.00315,0.00000,0.00527,-0.20191,-0.05208,-0.01451,-0.08216,-0.01360,0.03721,1.02163,0.71499,0.00000,1.50317,1.44344,0.75128,1.69823,0.63347,0.69343,1.79765,A,154836.80
0.72898,57.68803527,11.98135281,57.68802,11.98134,15:48:36.977769,0.00299,0.00000,0.00486,-0.20191,-0.03803,-0.00764,-0.07452,0.02385,0.02501,1.01040,0.72537,0.00000,1.50317,1.44344,0.75128,1.69823,0.63347,0.69343,1.79765,A,154836.80
0.75285,57.68803527,11.98135281,57.68802,11.98134,15:48:37.001641,0.01645,0.00000,0.00423,-0.20191,-0.03574,-0.02322,-0.07131,0.04807,0.00915,1.02657,0.73593,0.00000,1.50317,1.44344,0.75128,1.69823,0.75088,0.65381,1.90885,A,154836.90
0.77125,57.68803603,11.98135215,57.68802,11.98134,15:48:37.020044,0.00760,0.00000,0.00364,-0.20109,-0.03772,-0.04826,-0.06780,-0.03575,0.05832,1.01864,0.76462,0.00000,1.55014,1.48971,0.71229,1.78248,0.75088,0.65381,1.90885,A,154836.90
0.77700,57.68803603,11.98135215,57.68802,11.98134,15:48:37.025788,0.00298,0.00000,0.00331,-0.20007,-0.03314,-0.03788,-0.06673,-0.03983,0.02123,0.98472,0.77341,0.00000,1.55014,1.48971,0.71229,1.78248,0.75088,0.65381,1.90885,A,154836.90
0.78764,57.68803603,11.98135215,57.68802,11.98134,15:48:37.036422,0.00321,0.00000,0.00247,-0.19823,-0.03222,-0.02398,-0.06139,-0.03379,-0.00872,0.91592,0.78403,0.00000,1.55014,1.48971,0.71229,1.78248,0.75088,0.65381,1.90885,A,154836.90
0.79792,57.68803603,11.98135215,57.68802,11.98134,15:48:37.046720,0.00322,0.00000,0.00211,-0.19588,-0.02963,-0.01268,-0.07040,-0.05594,0.01793,0.93098,0.79405,0.00000,1.55014,1.48971,0.71229,1.78248,0.75088,0.65381,1.90885,A,154836.90
0.80825,57.68803603,11.98135215,57.68802,11.98134,15:48:37.057027,0.00315,0.00000,0.00204,-0.19288,-0.03176,0.00794,-0.07406,-0.04715,0.03770,0.93306,0.80465,0.00000,1.55014,1.48971,0.71229,1.78248,0.75088,0.65381,1.90885,A,154836.90
0.81863,57.68803603,11.98135215,57.68802,11.98134,15:48:37.067419,0.00314,0.00000,0.00257,-0.18971,-0.02611,0.01114,-0.07467,0.01086,0.07424,0.97039,0.81503,0.00000,1.55014,1.48971,0.71229,1.78248,0.75088,0.65381,1.90885,A,154836.90
0.82900,57.68803603,11.98135215,57.68802,11.98134,15:48:37.077791,0.00297,0.00000,0.00225,-0.18629,-0.01955,0.00137,-0.07483,0.08479,0.01531,0.98704,0.82540,0.00000,1.55014,1.48971,0.71229,1.78248,0.75088,0.65381,1.90885,A,154836.90
0.84009,57.68803603,11.98135215,57.68802,11.98134,15:48:37.088883,0.00366,0.00000,0.00125,-0.18295,-0.01955,-0.02276,-0.06918,0.05539,-0.03184,1.08891,0.83647,0.00000,1.55014,1.48971,0.71229,1.78248,0.75088,0.65381,1.90885,A,154836.90
0.84997,57.68803603,11.98135215,57.68802,11.98134,15:48:37.098767,0.00315,0.00000,0.00084,-0.18012,-0.02734,-0.02902,-0.06627,0.00311,0.01385,1.10550,0.84616,0.00000,1.55014,1.48971,0.71229,1.78248,0.75088,0.65381,1.90885,A,154836.90
0.87380,57.68803603,11.98135215,57.68802,11.98134,15:48:37.122609,0.01658,0.00000,0.00049,-0.17743,-0.03115,-0.02826,-0.06078,0.00207,0.02147,1.06274,0.85678,0.00000,1.55014,1.48971,0.71229,1.78248,0.87173,0.62409,2.00151,A,154837.00
0.88911,57.68803682,11.98135156,57.68802,11.98134,15:48:37.137907,0.00531,0.00000,-0.00024,-0.17231,-0.02474,0.00229,-0.05772,-0.08918,0.01555,0.96282,0.88354,0.00000,1.58928,1.53768,0.67701,1.87009,0.87173,0.62409,2.00151,A,154837.00
0.89737,57.68803682,11.98135156,57.68802,11.98134,15:48:37.146375,0.00304,0.00000,0.00028,-0.17083,-0.02062,0.01481,-0.05910,0.00616,0.06393,0.92043,0.89375,0.00000,1.58928,1.53768,0.67701,1.87009,0.87173,0.62409,2.00151,A,154837.00
0.90851,57.68803682,11.98135156,57.68802,11.98134,15:48:37.157318,0.00379,0.00000,-0.00027,-0.16962,-0.01604,0.00488,-0.05787,0.04038,-0.00348,0.93043,0.90465,0.00000,1.58928,1.53768,0.67701,1.87009,0.87173,0.62409,2.00151,A,154837.00
0.91827,57.68803682,11.98135156,57.68802,11.98134,15:48:37.167063,0.00314,0.00000,-0.00061,-0.16857,-0.01726,-0.01635,-0.05558,0.08455,0.00891,0.94483,0.91464,0.00000,1.58928,1.53768,0.67701,1.87009,0.87173,0.62409,2.00151,A,154837.00
0.92866,57.68803682,11.98135156,57.68802,11.98134,15:48:37.177442,0.00314,0.00000,-0.00104,-0.16738,-0.00962,-0.03818,-0.05131,0.01842,-0.00171,0.99985,0.92506,0.00000,1.58928,1.53768,0.67701,1.87009,0.87173,0.62409,2.00151,A,154837.00
0.93909,57.68803682,11.98135156,57.68802,11.98134,15:48:37.187884,0.00317,0.00000,-0.00117,-0.16602,-0.01878,-0.04215,-0.04581,-0.05606,0.02513,1.04835,0.93550,0.00000,1.58928,1.53768,0.67701,1.87009,0.87173,0.62409,2.00151,A,154837.00
0.94914,57.68803682,11.98135156,57.68802,11.98134,15:48:37.197921,0.00299,0.00000,-0.00183,-0.16449,-0.01512,-0.02963,-0.05085,-0.00220,-0.01452,1.05872,0.94554,0.00000,1.58928,1.53768,0.67701,1.87009,0.87173,0.62409,2.00151,A,154837.00
0.95970,57.68803682,11.98135156,57.68802,11.98134,15:48:37.208478,0.00315,0.00000,-0.00244,-0.16283,-0.01955,-0.01955,-0.05940,-0.12096,-0.00897,1.13003,0.95610,0.00000,1.58928,1.53768,0.67701,1.87009,0.87173,0.62409,2.00151,A,154837.00
0.97009,57.68803682,11.98135156,57.68802,11.98134,15:48:37.218873,0.00315,0.00000,-0.00212,-0.16116,-0.02138,-0.00535,-0.06536,0.00281,0.05765,1.07006,0.96627,0.00000,1.58928,1.53768,0.67701,1.87009,0.87173,0.62409,2.00151,A,154837.00
1.00628,57.68803682,11.98135156,57.68803,11.98133,15:48:37.255075,0.02895,0.00000,-0.00207,-0.15937,-0.02306,-0.01680,-0.06750,0.05740,0.03886,0.99351,0.97715,0.00000,1.58928,1.53768,0.67701,1.87009,1.00413,0.52503,2.13124,A,154837.20
1.01993,57.68803776,11.98135053,57.68803,11.98133,15:48:37.268723,0.00640,0.00000,-0.00242,-0.15320,-0.01924,-0.02566,-0.04764,-0.16641,0.04233,1.00327,1.01398,0.00000,1.65781,1.61201,0.61622,1.97455,1.00413,0.52503,2.13124,A,154837.20
1.02709,57.68803776,11.98135053,57.68803,11.98133,15:48:37.275870,0.00316,0.00000,-0.00238,-0.15167,-0.01772,0.00122,-0.04230,-0.06942,0.03434,1.06421,1.02349,0.00000,1.65781,1.61201,0.61622,1.97455,1.00413,0.52503,2.13124,A,154837.20
1.03714,57.68803776,11.98135053,57.68803,11.98133,15:48:37.285925,0.00299,0.00000,-0.00291,-0.15032,-0.02291,0.01618,-0.04199,0.09284,-0.00189,0.99277,1.03354,0.00000,1.65781,1.61201,0.61622,1.97455,1.00413,0.52503,2.13124,A,154837.20
1.04769,57.68803776,11.98135053,57.68803,11.98133,15:48:37.296471,0.00313,0.00000,-0.00357,-0.14904,-0.02016,-0.02062,-0.04260,0.17086,-0.01055,0.88694,1.04410,0.00000,1.65781,1.61201,0.61622,1.97455,1.00413,0.52503,2.13124,A,154837.20
1.05808,57.68803776,11.98135053,57.68803,11.98133,15:48:37.306867,0.00314,0.00000,-0.00336,-0.14791,-0.02474,-0.04826,-0.03542,-0.08369,0.04904,1.01101,1.05428,0.00000,1.65781,1.61201,0.61622,1.97455,1.00413,0.52503,2.13124,A,154837.20
1.06855,57.68803776,11.98135053,57.68803,11.98133,15:48:37.317341,0.00336,0.00000,-0.00231,-0.14683,-0.02734,-0.03131,-0.03985,-0.20453,0.11932,1.11276,1.06494,0.00000,1.65781,1.61201,0.61622,1.97455,1.00413,0.52503,2.13124,A,154837.20
1.07873,57.68803776,11.98135053,57.68803,11.98133,15:48:37.327519,0.00314,0.00000,-0.00239,-0.14587,-0.00489,-0.00046,-0.03512,-0.13121,0.01800,1.10739,1.07512,0.00000,1.65781,1.61201,0.61622,1.97455,1.00413,0.52503,2.13124,A,154837.20
1.08952,57.68803776,11.98135053,57.68803,11.98133,15:48:37.338540,0.00323,0.00000,-0.00401,-0.14485,-0.01894,0.00763,-0.04382,0.05856,-0.07552,0.99717,1.08590,0.00000,1.65781,1.61201,0.61622,1.97455,1.00413,0.52503,2.13124,A,154837.20
1.10012,57.68803776,11.98135053,57.68803,11.98133,15:48:37.348910,0.00340,0.00000,-0.00462,-0.14389,-0.03696,-0.01375,-0.04016,0.13438,0.00171,0.98033,1.09651,0.00000,1.65781,1.61201,0.61622,1.97455,1.00413,0.52503,2.13124,A,154837.20
1.12354,57.68803776,11.98135053,57.68803,11.98133,15:48:37.372339,0.01642,0.00000,-0.00514,-0.14304,-0.03971,-0.02612,-0.04688,-0.06259,0.00811,0.99906,1.10667,0.00000,1.65781,1.61201,0.61622,1.97455,1.12149,0.47550,2.26096,A,154837.30
1.13821,57.68803879,11.98134959,57.68803,11.98133,15:48:37.387326,0.00691,0.00000,-0.00671,-0.14151,-0.02902,0.00641,-0.04856,-0.06582,-0.03697,0.87517,1.13104,0.00000,1.69016,1.64790,0.55993,2.08911,1.12149,0.47550,2.26096,A,154837.30
1.14512,57.68803879,11.98134959,57.68803,11.98133,15:48:37.393911,0.00303,0.00000,-0.00703,-0.14112,-0.04246,-0.00107,-0.04902,-0.05758,0.02129,0.95373,1.14151,0.00000,1.69016,1.64790,0.55993,2.08911,1.12149,0.47550,2.26096,A,154837.30
1.15562,57.68803879,11.98134959,57.68803,11.98133,15:48:37.404404,0.00313,0.00000,-0.00826,-0.14098,-0.03864,0.00549,-0.04352,0.02483,-0.04124,0.99680,1.15203,0.00000,1.69016,1.64790,0.55993,2.08911,1.12149,0.47550,2.26096,A,154837.30
1.16602,57.68803879,11.98134959,57.68803,11.98133,15:48:37.414811,0.00314,0.00000,-0.00922,-0.14098,-0.05009,-0.00902,-0.04413,0.08802,-0.01757,0.99674,1.16221,0.00000,1.69016,1.64790,0.55993,2.08911,1.12149,0.47550,2.26096,A,154837.30
1.17643,57.68803879,11.98134959,57.68803,11.98133,15:48:37.425210,0.00316,0.00000,-0.00926,-0.14098,-0.04597,-0.02398,-0.04413,-0.01372,0.04380,1.07140,1.17284,0.00000,1.69016,1.64790,0.55993,2.08911,1.12149,0.47550,2.26096,A,154837.30
1.18735,57.68803879,11.98134959,57.68803,11.98133,15:48:37.436129,0.00368,0.00000,-0.00899,-0.14098,-0.05727,-0.01787,-0.04871,-0.12237,0.07893,1.11118,1.18375,0.00000,1.69016,1.64790,0.55993,2.08911,1.12149,0.47550,2.26096,A,154837.30
1.19702,57.68803879,11.98134959,57.68803,11.98133,15:48:37.445805,0.00298,0.94548,-0.00872,-0.14098,-0.04459,0.00259,-0.04749,-0.09766,0.05289,1.09416,1.19342,0.00000,1.69016,1.64790,0.55993,2.08911,1.12149,0.47550,2.26096,A,154837.30
1.20815,57.68803879,11.98134959,57.68803,11.98133,15:48:37.456941,0.00372,0.94548,-0.00986,-0.14098,-0.03879,0.00824,-0.04550,0.06527,-0.04551,0.96819,1.20453,0.00000,1.69016,1.64790,0.55993,2.08911,1.12149,0.47550,2.26096,A,154837.30
1.21799,57.68803879,11.98134959,57.68803,11.98133,15:48:37.466781,0.00316,0.94548,-0.01033,-0.14098,-0.04704,-0.01360,-0.04718,0.02233,-0.00213,0.94135,1.21417,0.00000,1.69016,1.64790,0.55993,2.08911,1.12149,0.47550,2.26096,A,154837.30
1.24181,57.68803879,11.98134959,57.68803,11.98133,15:48:37.490606,0.01659,0.94548,-0.01059,-0.14098,-0.05971,-0.02016,-0.04474,-0.02025,0.02147,0.92305,1.22479,0.00000,1.69016,1.64790,0.55993,2.08911,1.23975,0.42596,2.31656,A,154837.40
1.25912,57.68803961,11.98134869,57.68803,11.98133,15:48:37.507918,0.00775,0.94548,-0.01283,-0.14098,-0.03925,0.00778,-0.04230,-0.02245,-0.07210,0.92653,1.25321,0.09455,1.75523,1.71313,0.50634,2.18009,1.23975,0.42596,2.31656,A,154837.40
1.26489,57.68803961,11.98134869,57.68803,11.98133,15:48:37.513668,0.00298,0.94548,-0.01290,-0.14098,-0.04078,0.00519,-0.05283,-0.03141,0.01330,0.97368,1.26129,0.09455,1.75523,1.71313,0.50634,2.18009,1.23975,0.42596,2.31656,A,154837.40
1.27545,57.68803961,11.98134869,57.68803,11.98133,15:48:37.524232,0.00315,0.94548,-0.01395,-0.14098,-0.03619,0.00946,-0.05925,0.00220,-0.04862,1.02456,1.27185,0.09455,1.75523,1.71313,0.50634,2.18009,1.23975,0.42596,2.31656,A,154837.40
1.28586,57.68803961,11.98134869,57.68803,11.98133,15:48:37.534652,0.00315,0.94548,-0.01483,-0.14098,-0.04811,-0.00107,-0.05681,-0.02660,-0.03178,1.06640,1.28204,0.09455,1.75523,1.71313,0.50634,2.18009,1.23975,0.42596,2.31656,A,154837.40
1.29626,57.68803961,11.98134869,57.68803,11.98133,15:48:37.545041,0.00315,0.94548,-0.01530,-0.14098,-0.04597,-0.00795,-0.05940,-0.01598,-0.00378,1.08061,1.29266,0.09455,1.75523,1.71313,0.50634,2.18009,1.23975,0.42596,2.31656,A,154837.40
1.30664,57.68803961,11.98134869,57.68803,11.98133,15:48:37.555423,0.00314,0.94548,-0.01565,-0.14098,-0.03176,-0.02108,-0.05665,-0.04026,-0.00647,1.06652,1.30303,0.09455,1.75523,1.71313,0.50634,2.18009,1.23975,0.42596,2.31656,A,154837.40
1.31700,57.68803961,11.98134869,57.68803,11.98133,15:48:37.565785,0.00297,0.94548,-0.01604,-0.14098,-0.02657,-0.02734,-0.05299,-0.06618,-0.01372,1.04639,1.31340,0.09455,1.75523,1.71313,0.50634,2.18009,1.23975,0.42596,2.31656,A,154837.40
1.32755,57.68803961,11.98134869,57.68803,11.98133,15:48:37.576326,0.00312,0.94548,-0.01637,-0.14098,-0.01145,-0.02245,-0.03848,-0.02367,-0.02013,0.98545,1.32396,0.09455,1.75523,1.71313,0.50634,2.18009,1.23975,0.42596,2.31656,A,154837.40
1.33796,57.68803961,11.98134869,57.68803,11.98133,15:48:37.586750,0.00314,0.94548,-0.01738,-0.14098,-0.01237,-0.03314,-0.03817,-0.07558,-0.06527,0.99387,1.33415,0.09455,1.75523,1.71313,0.50634,2.18009,1.23975,0.42596,2.31656,A,154837.40
1.36245,57.68803961,11.98134869,57.68803,11.98133,15:48:37.611242,0.01724,0.94548,-0.01746,-0.14098,-0.00275,-0.02413,-0.03359,-0.07594,-0.01074,0.95831,1.34528,0.09455,1.75523,1.71313,0.50634,2.18009,1.36033,0.32690,2.37216,A,154837.50
1.37674,57.68804036,11.98134746,57.68803,11.98133,15:48:37.625530,0.00689,0.94548,-0.01702,-0.14098,0.00932,0.01450,-0.04046,0.01787,0.00500,0.92177,1.37107,0.17964,1.84551,1.80342,0.43364,2.26342,1.36033,0.32690,2.37216,A,154837.50
1.38403,57.68804036,11.98134746,57.68803,11.98133,15:48:37.632818,0.00355,0.94548,-0.01691,-0.14095,0.01619,-0.00245,-0.04978,0.00305,-0.01000,0.93720,1.38041,0.17964,1.84551,1.80342,0.43364,2.26342,1.36033,0.32690,2.37216,A,154837.50
1.39457,57.68804036,11.98134746,57.68803,11.98133,15:48:37.643375,0.00370,0.94548,-0.01628,-0.14075,0.01878,-0.00489,-0.04703,-0.08192,0.02373,1.04109,1.39072,0.17964,1.84551,1.80342,0.43364,2.26342,1.36033,0.32690,2.37216,A,154837.50
1.40449,57.68804036,11.98134746,57.68803,11.98133,15:48:37.653278,0.00322,0.94548,-0.01583,-0.14015,0.01848,0.00717,-0.04321,-0.15036,0.01324,1.08214,1.40090,0.17964,1.84551,1.80342,0.43364,2.26342,1.36033,0.32690,2.37216,A,154837.50
1.41487,57.68804036,11.98134746,57.68803,11.98133,15:48:37.663659,0.00327,0.94548,-0.01521,-0.13919,0.02779,0.02168,-0.04184,0.01220,0.01616,0.97698,1.41125,0.17964,1.84551,1.80342,0.43364,2.26342,1.36033,0.32690,2.37216,A,154837.50
1.42498,57.68804036,11.98134746,57.68803,11.98133,15:48:37.673767,0.00295,0.94548,-0.01531,-0.13795,0.01588,0.00061,-0.03772,0.11438,-0.02105,0.89341,1.42139,0.17964,1.84551,1.80342,0.43364,2.26342,1.36033,0.32690,2.37216,A,154837.50
1.43592,57.68804036,11.98134746,57.68803,11.98133,15:48:37.684703,0.00349,0.94548,-0.01503,-0.13656,0.01604,-0.03253,-0.03649,0.01623,0.00043,0.87944,1.43232,0.17964,1.84551,1.80342,0.43364,2.26342,1.36033,0.32690,2.37216,A,154837.50
1.44598,57.68804036,11.98134746,57.68803,11.98133,15:48:37.694772,0.00316,0.94548,-0.01384,-0.13540,0.01283,-0.04719,-0.03695,-0.10992,0.06521,0.98155,1.44216,0.17964,1.84551,1.80342,0.43364,2.26342,1.36033,0.32690,2.37216,A,154837.50
1.45639,57.68804036,11.98134746,57.68803,11.98133,15:48:37.705165,0.00317,0.94548,-0.01210,-0.13441,0.01833,-0.01803,-0.04230,-0.21661,0.11450,1.12838,1.45278,0.17964,1.84551,1.80342,0.43364,2.26342,1.36033,0.32690,2.37216,A,154837.50
1.48070,57.68804036,11.98134746,57.68803,11.98133,15:48:37.729777,0.01708,0.94548,-0.01246,-0.13370,0.02505,0.01572,-0.04535,-0.07857,-0.04471,1.07793,1.46315,0.17964,1.84551,1.80342,0.43364,2.26342,1.47873,0.25756,2.42776,A,154837.60
1.49513,57.68804106,11.98134623,57.68803,11.98133,15:48:37.743918,0.00765,0.94548,-0.01255,-0.13246,0.00367,-0.03253,-0.04214,-0.01610,-0.01421,1.01675,1.48922,0.25623,1.90904,1.86952,0.36032,2.34135,1.47873,0.25756,2.42776,A,154837.60
1.50084,57.68804106,11.98134623,57.68803,11.98133,15:48:37.749626,0.00300,0.94548,-0.01191,-0.13206,-0.00015,-0.03773,-0.03375,-0.10657,0.04111,1.00504,1.49724,0.25623,1.90904,1.86952,0.36032,2.34135,1.47873,0.25756,2.42776,A,154837.60
1.51139,57.68804106,11.98134623,57.68803,11.98133,15:48:37.760171,0.00315,0.94548,-0.01096,-0.13161,0.01909,-0.03101,-0.02428,-0.07302,0.04587,0.95215,1.50780,0.25623,1.90904,1.86952,0.36032,2.34135,1.47873,0.25756,2.42776,A,154837.60
1.52178,57.68804106,11.98134623,57.68803,11.98133,15:48:37.770581,0.00293,0.94548,-0.01146,-0.13118,0.01252,-0.03253,-0.02260,-0.08229,-0.04081,0.95715,1.51797,0.25623,1.90904,1.86952,0.36032,2.34135,1.47873,0.25756,2.42776,A,154837.60
1.53218,57.68804106,11.98134623,57.68803,11.98133,15:48:37.780950,0.00315,0.94548,-0.01107,-0.13087,0.00886,-0.02169,-0.02733,-0.04758,0.01842,0.97454,1.52858,0.25623,1.90904,1.86952,0.36032,2.34135,1.47873,0.25756,2.42776,A,154837.60
1.54257,57.68804106,11.98134623,57.68803,11.98133,15:48:37.791359,0.00314,0.94548,-0.01145,-0.13076,0.00336,-0.00611,-0.02947,-0.05356,-0.02855,1.03791,1.53896,0.25623,1.90904,1.86952,0.36032,2.34135,1.47873,0.25756,2.42776,A,154837.60
1.55294,57.68804106,11.98134623,57.68803,11.98133,15:48:37.801720,0.00297,0.94548,-0.01082,-0.13076,-0.00702,0.01053,-0.04398,-0.05234,0.04758,1.02413,1.54934,0.25623,1.90904,1.86952,0.36032,2.34135,1.47873,0.25756,2.42776,A,154837.60
1.56350,57.68804106,11.98134623,57.68803,11.98133,15:48:37.812277,0.00313,0.94548,-0.01059,-0.13070,0.00336,0.02474,-0.05146,-0.07576,0.01397,1.02266,1.55990,0.25623,1.90904,1.86952,0.36032,2.34135,1.47873,0.25756,2.42776,A,154837.60
1.57391,57.68804106,11.98134623,57.68803,11.98133,15:48:37.822706,0.00315,0.94548,-0.01046,-0.13053,-0.00229,0.03420,-0.05299,-0.13609,0.01165,1.07702,1.57009,0.25623,1.90904,1.86952,0.36032,2.34135,1.47873,0.25756,2.42776,A,154837.60
1.61004,57.68804106,11.98134623,57.68803,11.98133,15:48:37.858841,0.02888,0.94548,-0.01065,-0.13019,0.00535,0.03481,-0.04764,0.01354,-0.01586,0.99863,1.58090,0.25623,1.90904,1.86952,0.36032,2.34135,1.60791,0.11887,2.61308,A,154837.80
1.62435,57.68804220,11.98134451,57.68803,11.98133,15:48:37.873148,0.00745,0.94548,-0.01094,-0.12878,-0.01542,-0.05514,-0.02168,-0.27712,0.02153,1.17492,1.61662,0.32515,1.93949,1.90107,0.25804,2.46856,1.60791,0.11887,2.61308,A,154837.80
1.63054,57.68804220,11.98134451,57.68803,11.98133,15:48:37.879323,0.00339,0.94548,-0.01012,-0.12872,0.00199,0.01069,-0.02336,-0.14298,0.05911,1.08556,1.62690,0.32515,1.93949,1.90107,0.25804,2.46856,1.60791,0.11887,2.61308,A,154837.80
1.64069,57.68804220,11.98134451,57.68803,11.98133,15:48:37.889468,0.00314,0.94548,-0.01084,-0.12872,0.00061,0.03619,-0.03283,-0.03459,-0.04752,0.98320,1.63709,0.32515,1.93949,1.90107,0.25804,2.46856,1.60791,0.11887,2.61308,A,154837.80
1.65111,57.68804220,11.98134451,57.68803,11.98133,15:48:37.899896,0.00317,0.94548,-0.01085,-0.12872,-0.00840,0.04031,-0.03848,-0.00860,0.00500,0.97167,1.64751,0.32515,1.93949,1.90107,0.25804,2.46856,1.60791,0.11887,2.61308,A,154837.80
1.66115,57.68804220,11.98134451,57.68803,11.98133,15:48:37.909930,0.00298,0.94548,-0.01077,-0.12869,-0.00046,0.03848,-0.03940,0.05716,0.00525,0.95666,1.65755,0.32515,1.93949,1.90107,0.25804,2.46856,1.60791,0.11887,2.61308,A,154837.80
1.67171,57.68804220,11.98134451,57.68803,11.98133,15:48:37.920495,0.00315,0.94548,-0.00990,-0.12861,-0.01405,0.01389,-0.03970,0.00592,0.06618,0.97795,1.66812,0.32515,1.93949,1.90107,0.25804,2.46856,1.60791,0.11887,2.61308,A,154837.80
1.68289,57.68804220,11.98134451,57.68803,11.98133,15:48:37.931685,0.00393,0.94548,-0.00962,-0.12832,-0.00153,-0.00718,-0.03176,-0.04453,0.02105,1.01754,1.67925,0.32515,1.93949,1.90107,0.25804,2.46856,1.60791,0.11887,2.61308,A,154837.80
1.69267,57.68804220,11.98134451,57.68803,11.98133,15:48:37.941452,0.00332,0.94548,-0.01030,-0.12798,-0.00397,-0.00947,-0.03298,-0.03148,-0.04276,1.05506,1.68907,0.32515,1.93949,1.90107,0.25804,2.46856,1.60791,0.11887,2.61308,A,154837.80
1.70284,57.68804220,11.98134451,57.68803,11.98133,15:48:37.951627,0.00309,0.94548,-0.01072,-0.12762,-0.01359,-0.01512,-0.03298,0.04349,-0.01800,1.00089,1.69924,0.32515,1.93949,1.90107,0.25804,2.46856,1.60791,0.11887,2.61308,A,154837.80
1.72713,57.68804220,11.98134451,57.68803,11.98133,15:48:37.975924,0.01709,0.94548,-0.01159,-0.12728,-0.01191,-0.01803,-0.03604,-0.00098,-0.04929,0.98186,1.70942,0.32515,1.93949,1.90107,0.25804,2.46856,1.72501,0.09906,2.68721,A,154837.90
1.74075,57.68804318,11.98134332,57.68803,11.98133,15:48:37.989533,0.00529,0.94548,-0.01219,-0.12708,-0.00168,0.01237,-0.03558,-0.08930,-0.03666,0.95739,1.73514,0.38718,1.92817,1.89027,0.18720,2.57717,1.72501,0.09906,2.68721,A,154837.90
1.74931,57.68804318,11.98134332,57.68803,11.98133,15:48:37.998324,0.00309,0.94548,-0.01221,-0.12708,-0.00305,0.01328,-0.04001,-0.05941,-0.00061,0.96624,1.74569,0.38718,1.92817,1.89027,0.18720,2.57717,1.72501,0.09906,2.68721,A,154837.90
1.75976,57.68804318,11.98134332,57.68803,11.98133,15:48:38.008539,0.00314,0.94548,-0.01245,-0.12708,-0.00428,0.01053,-0.04367,0.00275,-0.01421,0.96959,1.75615,0.38718,1.92817,1.89027,0.18720,2.57717,1.72501,0.09906,2.68721,A,154837.90
1.77017,57.68804318,11.98134332,57.68803,11.98133,15:48:38.018953,0.00316,0.94548,-0.01276,-0.12708,-0.01176,-0.00566,-0.03695,0.03343,-0.01427,1.03261,1.76634,0.38718,1.92817,1.89027,0.18720,2.57717,1.72501,0.09906,2.68721,A,154837.90
1.78055,57.68804318,11.98134332,57.68803,11.98133,15:48:38.029333,0.00315,0.94548,-0.01274,-0.12708,-0.00305,-0.01268,-0.04321,-0.00207,0.00281,1.07561,1.77696,0.38718,1.92817,1.89027,0.18720,2.57717,1.72501,0.09906,2.68721,A,154837.90
1.79085,57.68804318,11.98134332,57.68803,11.98133,15:48:38.039639,0.00305,0.94548,-0.01249,-0.12708,0.00351,-0.01054,-0.04382,-0.07241,0.01446,1.09934,1.78724,0.38718,1.92817,1.89027,0.18720,2.57717,1.72501,0.09906,2.68721,A,154837.90
1.80103,57.68804318,11.98134332,57.68803,11.98133,15:48:38.049813,0.00297,0.94548,-0.01210,-0.12708,0.00611,0.00320,-0.04337,-0.09138,0.02233,1.06048,1.79742,0.38718,1.92817,1.89027,0.18720,2.57717,1.72501,0.09906,2.68721,A,154837.90
1.81207,57.68804318,11.98134332,57.68803,11.98133,15:48:38.060850,0.00361,0.94548,-0.01247,-0.12708,0.01344,0.00794,-0.04382,-0.01488,-0.03373,0.94422,1.80845,0.38718,1.92817,1.89027,0.18720,2.57717,1.72501,0.09906,2.68721,A,154837.90
1.82249,57.68804318,11.98134332,57.68803,11.98133,15:48:38.071277,0.00339,1.17045,-0.01237,-0.12708,0.01451,-0.00550,-0.03955,0.05258,-0.01074,0.85626,1.81886,0.38718,1.92817,1.89027,0.18720,2.57717,1.72501,0.09906,2.68721,A,154837.90
1.84613,57.68804318,11.98134332,57.68803,11.98133,15:48:38.094925,0.01663,1.17045,-0.01297,-0.12708,0.01100,-0.03162,-0.03588,0.02538,-0.04825,0.85186,1.82905,0.38718,1.92817,1.89027,0.18720,2.57717,1.84402,0.05944,2.77987,A,154838.00
1.86024,57.68804414,11.98134231,57.68803,11.98133,15:48:38.109041,0.00624,1.17045,-0.01219,-0.12708,0.01466,-0.04292,-0.03100,-0.13420,0.02434,1.11606,1.85442,0.46551,1.93132,1.89342,0.12751,2.68420,1.84402,0.05944,2.77987,A,154838.00
1.86806,57.68804414,11.98134231,57.68803,11.98133,15:48:38.116850,0.00340,1.17045,-0.01166,-0.12708,0.01909,-0.02536,-0.03512,-0.07021,0.01995,1.10288,1.86445,0.46551,1.93132,1.89342,0.12751,2.68420,1.84402,0.05944,2.77987,A,154838.00
1.87821,57.68804414,11.98134231,57.68803,11.98133,15:48:38.126994,0.00315,1.17045,-0.01099,-0.12702,0.01863,-0.01390,-0.03756,-0.01000,0.02861,1.05567,1.87439,0.46551,1.93132,1.89342,0.12751,2.68420,1.84402,0.05944,2.77987,A,154838.00
1.88864,57.68804414,11.98134231,57.68803,11.98133,15:48:38.137419,0.00318,1.17045,-0.01087,-0.12697,0.01634,-0.01405,-0.03878,0.04197,-0.00866,0.98332,1.88504,0.46551,1.93132,1.89342,0.12751,2.68420,1.84402,0.05944,2.77987,A,154838.00
1.89946,57.68804414,11.98134231,57.68803,11.98133,15:48:38.148250,0.00333,1.17045,-0.01081,-0.12682,0.01100,-0.03162,-0.03741,0.01464,-0.00927,0.92311,1.89570,0.46551,1.93132,1.89342,0.12751,2.68420,1.84402,0.05944,2.77987,A,154838.00
1.90993,57.68804414,11.98134231,57.68803,11.98133,15:48:38.158730,0.00322,1.17045,-0.01079,-0.12668,0.01038,-0.04338,-0.03542,-0.05124,-0.01122,0.93794,1.90610,0.46551,1.93132,1.89342,0.12751,2.68420,1.84402,0.05944,2.77987,A,154838.00
1.92086,57.68804414,11.98134231,57.68803,11.98133,15:48:38.169655,0.00374,1.17045,-0.01006,-0.12654,0.01115,-0.05315,-0.03359,-0.05691,0.03300,0.94892,1.91724,0.46551,1.93132,1.89342,0.12751,2.68420,1.84402,0.05944,2.77987,A,154838.00
1.93087,57.68804414,11.98134231,57.68803,11.98133,15:48:38.179662,0.00336,1.17045,-0.00977,-0.12654,0.01329,-0.04597,-0.03100,-0.08973,0.00616,0.97661,1.92724,0.46551,1.93132,1.89342,0.12751,2.68420,1.84402,0.05944,2.77987,A,154838.00
1.94099,57.68804414,11.98134231,57.68803,11.98133,15:48:38.189775,0.00297,1.17045,-0.00968,-0.12654,0.01420,-0.01405,-0.03634,-0.07991,-0.00775,0.99284,1.93740,0.46551,1.93132,1.89342,0.12751,2.68420,1.84402,0.05944,2.77987,A,154838.00
1.96486,57.68804414,11.98134231,57.68803,11.98133,15:48:38.213654,0.01644,1.17045,-0.00930,-0.12654,0.00947,0.01069,-0.04153,-0.01055,0.01531,1.00327,1.94797,0.46551,1.93132,1.89342,0.12751,2.68420,1.96291,-0.00991,2.85400,A,154838.10
1.97664,57.68804502,11.98134122,57.68803,11.98133,15:48:38.225429,0.00527,1.17045,-0.00830,-0.12654,0.00275,0.01481,-0.04825,-0.00927,0.06472,1.07939,1.97105,0.53601,1.96805,1.93031,0.06240,2.78247,1.96291,-0.00991,2.85400,A,154838.10
1.98513,57.68804502,11.98134122,57.68803,11.98133,15:48:38.233921,0.00336,1.17045,-0.00764,-0.12654,0.01084,-0.01054,-0.04505,0.05124,0.03648,1.05274,1.98153,0.53601,1.96805,1.93031,0.06240,2.78247,1.96291,-0.00991,2.85400,A,154838.10
1.99534,57.68804502,11.98134122,57.68803,11.98133,15:48:38.244115,0.00316,1.17045,-0.00747,-0.12651,0.00580,-0.03910,-0.03741,0.04008,0.00720,1.05493,1.99175,0.53601,1.96805,1.93031,0.06240,2.78247,1.96291,-0.00991,2.85400,A,154838.10
2.00537,57.68804502,11.98134122,57.68803,11.98133,15:48:38.254363,0.00297,1.17045,-0.00750,-0.12640,0.00305,-0.03925,-0.02947,-0.04044,-0.00512,1.06585,2.00177,0.53601,1.96805,1.93031,0.06240,2.78247,1.96291,-0.00991,2.85400,A,154838.10
2.02068,57.68804502,11.98134122,57.68803,11.98133,15:48:38.269487,0.00788,1.17045,-0.00771,-0.12620,-0.00015,-0.02490,-0.02550,-0.06783,-0.01555,1.01498,2.01236,1.17045,1.61191,1.57427,-0.00991,2.85400,1.96291,-0.00991,2.85400,A,154838.10
2.02673,57.68804502,11.98134122,57.68803,11.98133,15:48:38.275497,0.00352,1.17045,-0.00770,-0.00448,-0.00764,-0.00810,-0.02764,-0.09766,0.01720,0.93727,2.02275,1.17045,1.61191,1.57427,-0.00991,2.85400,1.96291,-0.00991,2.85400,A,154838.10
2.03736,57.68804502,11.98134122,57.68803,11.98133,15:48:38.286378,0.00352,1.17045,-0.00754,-0.00420,-0.00794,0.01007,-0.02626,-0.06344,0.02525,0.86565,2.03338,1.17045,1.61191,1.57427,-0.00991,2.85400,1.96291,-0.00991,2.85400,A,154838.10
2.04777,57.68804502,11.98134122,57.68803,11.98133,15:48:38.296554,0.00352,1.17045,-0.00678,-0.00391,-0.00794,0.01069,-0.03451,0.01092,0.05850,0.84503,2.04382,1.17045,1.61191,1.57427,-0.00991,2.85400,1.96291,-0.00991,2.85400,A,154838.10
2.05817,57.68804502,11.98134122,57.68803,11.98133,15:48:38.306944,0.00352,1.17045,-0.00654,-0.00360,-0.00168,-0.01482,-0.03145,0.03709,0.02568,0.83668,2.05400,1.17045,1.61191,1.57427,-0.00991,2.85400,1.96291,-0.00991,2.85400,A,154838.10
2.08211,57.68804502,11.98134122,57.68803,11.98132,15:48:38.330908,0.01706,1.17045,-0.00707,-0.00321,-0.01436,-0.03345,-0.03222,0.00561,-0.01061,0.98381,2.06461,1.17045,1.61191,1.57427,-0.00991,2.85400,2.07960,-0.05944,2.92813,A,154838.20
2.09821,57.68804668,11.98133966,57.68803,11.98132,15:48:38.346997,0.00829,1.17045,-0.00823,-0.00236,-0.03574,-0.02062,-0.04169,0.00805,-0.00104,1.13411,2.09152,1.17045,1.65438,1.65369,-0.03001,2.96697,2.07960,-0.05944,2.92813,A,154838.20
2.10412,57.68804668,11.98133966,57.68803,11.98132,15:48:38.352901,0.00408,1.17045,-0.00821,-0.00213,-0.03344,-0.01696,-0.03481,0.02952,0.03501,1.07134,2.09991,1.17045,1.65438,1.65369,-0.03001,2.96697,2.07960,-0.05944,2.92813,A,154838.20
2.11409,57.68804668,11.98133966,57.68803,11.98132,15:48:38.362876,0.00379,1.17045,-0.00820,-0.00190,-0.03329,-0.02994,-0.03909,0.04301,0.03440,0.99351,2.10991,1.17045,1.65438,1.65369,-0.03001,2.96697,2.07960,-0.05944,2.92813,A,154838.20
2.12421,57.68804668,11.98133966,57.68803,11.98132,15:48:38.372985,0.00351,1.17045,-0.00847,-0.00185,-0.03803,-0.04246,-0.03573,-0.08021,0.01982,0.95776,2.12025,1.17045,1.65438,1.65369,-0.03001,2.96697,2.07960,-0.05944,2.92813,A,154838.20
2.13462,57.68804668,11.98133966,57.68803,11.98132,15:48:38.383395,0.00352,1.17045,-0.00820,-0.00185,-0.02550,-0.03269,-0.02962,-0.06576,0.04288,0.90475,2.13063,1.17045,1.65438,1.65369,-0.03001,2.96697,2.07960,-0.05944,2.92813,A,154838.20
2.14501,57.68804668,11.98133966,57.68803,11.98132,15:48:38.393786,0.00351,1.17045,-0.00904,-0.00185,-0.03253,-0.01818,-0.02977,-0.03087,-0.01769,0.84796,2.14105,1.17045,1.65438,1.65369,-0.03001,2.96697,2.07960,-0.05944,2.92813,A,154838.20
2.15545,57.68804668,11.98133966,57.68803,11.98132,15:48:38.404222,0.00354,1.17045,-0.00974,-0.00185,-0.03665,-0.02734,-0.02382,0.01958,-0.00872,0.88297,2.15148,1.17045,1.65438,1.65369,-0.03001,2.96697,2.07960,-0.05944,2.92813,A,154838.20
2.16550,57.68804668,11.98133966,57.68803,11.98132,15:48:38.414511,0.00336,1.17045,-0.01074,-0.00185,-0.03314,-0.03101,-0.03313,-0.01519,-0.03501,1.02035,2.16154,1.17045,1.65438,1.65369,-0.03001,2.96697,2.07960,-0.05944,2.92813,A,154838.20
2.17636,57.68804668,11.98133966,57.68803,11.98132,15:48:38.425131,0.00357,1.17045,-0.01048,-0.00185,-0.04078,-0.01986,-0.03588,-0.09546,0.06283,1.10587,2.17239,1.17045,1.65438,1.65369,-0.03001,2.96697,2.07960,-0.05944,2.92813,A,154838.20
2.21093,57.68804668,11.98133966,57.68803,11.98132,15:48:38.459718,0.02771,1.17045,-0.01105,-0.00185,-0.03848,0.00198,-0.04337,-0.03770,-0.00165,1.05054,2.18279,1.17045,1.65438,1.65369,-0.03001,2.96697,2.20846,-0.20803,3.09493,A,154838.40
2.22666,57.68804794,11.98133834,57.68803,11.98132,15:48:38.475444,0.00598,1.17045,-0.01257,-0.00185,-0.04536,-0.04857,-0.03985,-0.00610,0.02105,1.02761,2.22042,1.17045,1.71855,1.71800,-0.10858,3.10675,2.20846,-0.20803,3.09493,A,154838.40
2.23460,57.68804794,11.98133834,57.68803,11.98132,15:48:38.483382,0.00353,1.17045,-0.01310,-0.00185,-0.04062,-0.05605,-0.03924,-0.05960,0.00000,1.04871,2.23042,1.17045,1.71855,1.71800,-0.10858,3.10675,2.20846,-0.20803,3.09493,A,154838.40
2.24500,57.68804794,11.98133834,57.68803,11.98132,15:48:38.493777,0.00368,1.17045,-0.01392,-0.00185,-0.03894,-0.04796,-0.02977,-0.08424,-0.02117,1.05567,2.24100,1.17045,1.71855,1.71800,-0.10858,3.10675,2.20846,-0.20803,3.09493,A,154838.40
2.25522,57.68804794,11.98133834,57.68803,11.98132,15:48:38.503992,0.00349,1.17045,-0.01576,-0.00185,-0.03528,-0.02978,-0.02672,-0.06045,-0.09199,0.99711,2.25124,1.17045,1.71855,1.71800,-0.10858,3.10675,2.20846,-0.20803,3.09493,A,154838.40
2.26541,57.68804794,11.98133834,57.68803,11.98132,15:48:38.514398,0.00336,1.17045,-0.01632,-0.00185,-0.04658,-0.01085,-0.02748,-0.07393,-0.00134,0.98320,2.26145,1.17045,1.71855,1.71800,-0.10858,3.10675,2.20846,-0.20803,3.09493,A,154838.40
2.27603,57.68804794,11.98133834,57.68803,11.98132,15:48:38.524813,0.00358,1.17045,-0.01638,-0.00185,-0.03818,0.00824,-0.02733,-0.01525,0.02464,0.89395,2.27207,1.17045,1.71855,1.71800,-0.10858,3.10675,2.20846,-0.20803,3.09493,A,154838.40
2.28661,57.68804794,11.98133834,57.68803,11.98132,15:48:38.535384,0.00375,1.17045,-0.01667,-0.00185,-0.03971,0.00977,-0.03145,0.00201,0.01055,0.87767,2.28242,1.17045,1.71855,1.71800,-0.10858,3.10675,2.20846,-0.20803,3.09493,A,154838.40
2.29729,57.68804794,11.98133834,57.68803,11.98132,15:48:38.546300,0.00404,1.17045,-0.01700,-0.00182,-0.03329,0.00366,-0.03268,-0.03849,0.00518,0.92720,2.29332,1.17045,1.71855,1.71800,-0.10858,3.10675,2.20846,-0.20803,3.09493,A,154838.40
2.30782,57.68804794,11.98133834,57.68803,11.98132,15:48:38.556608,0.00417,1.17045,-0.01764,-0.00162,-0.03635,-0.00230,-0.03558,-0.04191,-0.01440,0.98070,2.30351,1.17045,1.71855,1.71800,-0.10858,3.10675,2.20846,-0.20803,3.09493,A,154838.40
2.33198,57.68804794,11.98133834,57.68804,11.98132,15:48:38.580790,0.01795,1.17045,-0.01841,-0.00103,-0.03054,-0.01360,-0.02901,0.04166,-0.02586,0.95715,2.31397,1.17045,1.71855,1.71800,-0.10858,3.10675,2.32892,-0.18822,3.28025,A,154838.50
2.34863,57.68804932,11.98133760,57.68804,11.98132,15:48:38.597421,0.00620,1.17045,-0.01919,0.00206,-0.03864,-0.02352,-0.02336,-0.04276,0.02635,1.09318,2.34266,1.17045,1.69294,1.69356,-0.15284,3.25981,2.32892,-0.18822,3.28025,A,154838.50
2.35735,57.68804932,11.98133760,57.68804,11.98132,15:48:38.606368,0.00428,1.17045,-0.01936,0.00356,-0.03512,-0.01436,-0.02367,-0.05100,0.01616,1.03554,2.35336,1.17045,1.69294,1.69356,-0.15284,3.25981,2.32892,-0.18822,3.28025,A,154838.50
2.36699,57.68804932,11.98133760,57.68804,11.98132,15:48:38.615772,0.00351,1.17045,-0.01876,0.00489,-0.03176,-0.01451,-0.02351,-0.05716,0.06252,1.00034,2.36301,1.17045,1.69294,1.69356,-0.15284,3.25981,2.32892,-0.18822,3.28025,A,154838.50
2.37729,57.68804932,11.98133760,57.68804,11.98132,15:48:38.627458,0.00343,1.17045,-0.01905,0.00642,-0.02932,-0.00871,-0.02305,-0.06972,0.00311,0.99576,2.37331,1.17045,1.69294,1.69356,-0.15284,3.25981,2.32892,-0.18822,3.28025,A,154838.50
2.38808,57.68804932,11.98133760,57.68804,11.98132,15:48:38.636852,0.00399,1.28807,-0.01900,0.00806,-0.02978,-0.00031,-0.01908,-0.07802,0.02824,1.01565,2.38409,1.17045,1.69294,1.69356,-0.15284,3.25981,2.32892,-0.18822,3.28025,A,154838.50
2.39812,57.68804932,11.98133760,57.68804,11.98132,15:48:38.646910,0.00379,1.28807,-0.01942,0.00964,-0.02153,0.00244,-0.01664,-0.01080,-0.01110,0.99223,2.39373,1.17045,1.69294,1.69356,-0.15284,3.25981,2.32892,-0.18822,3.28025,A,154838.50
2.40823,57.68804932,11.98133760,57.68804,11.98132,15:48:38.657006,0.00350,1.28807,-0.01995,0.01146,-0.02947,-0.02016,-0.01389,0.01745,-0.01092,0.97338,2.40426,1.17045,1.69294,1.69356,-0.15284,3.25981,2.32892,-0.18822,3.28025,A,154838.50
2.41917,57.68804932,11.98133760,57.68804,11.98132,15:48:38.667953,0.00405,1.28807,-0.02037,0.01330,-0.02932,-0.03406,-0.00687,-0.01269,-0.00476,1.04273,2.41496,1.17045,1.69294,1.69356,-0.15284,3.25981,2.32892,-0.18822,3.28025,A,154838.50
2.42905,57.68804932,11.98133760,57.68804,11.98132,15:48:38.677822,0.00352,1.28807,-0.02069,0.01530,-0.02459,-0.03742,-0.00229,-0.09754,-0.00244,1.05707,2.42508,1.17045,1.69294,1.69356,-0.15284,3.25981,2.32892,-0.18822,3.28025,A,154838.50
2.45402,57.68804932,11.98133760,57.68804,11.98132,15:48:38.702812,0.01809,1.28807,-0.02090,0.01737,-0.02199,-0.02872,0.00245,0.01000,0.00348,0.95874,2.43554,1.17045,1.69294,1.69356,-0.15284,3.25981,2.45144,-0.22784,3.39145,A,154838.60
2.46802,57.68805052,11.98133692,57.68804,11.98132,15:48:38.716807,0.00770,1.28807,-0.02156,0.02269,-0.02474,-0.04185,0.00046,-0.04404,0.00226,0.98155,2.46177,1.18222,1.71516,1.72189,-0.19293,3.39421,2.45144,-0.22784,3.39145,A,154838.60
2.47425,57.68805052,11.98133692,57.68804,11.98132,15:48:38.723027,0.00352,1.28807,-0.02141,0.02428,-0.02199,-0.03314,0.00153,-0.06808,0.02422,0.96386,2.47006,1.18222,1.71516,1.72189,-0.19293,3.39421,2.45144,-0.22784,3.39145,A,154838.60
2.48489,57.68805052,11.98133692,57.68804,11.98132,15:48:38.733666,0.00377,1.28807,-0.02132,0.02620,-0.01191,-0.02429,0.00123,-0.05954,0.01732,0.95178,2.48090,1.18222,1.71516,1.72189,-0.19293,3.39421,2.45144,-0.22784,3.39145,A,154838.60
2.49504,57.68805052,11.98133692,57.68804,11.98132,15:48:38.743809,0.00351,1.28807,-0.02181,0.02804,-0.01313,-0.01589,0.00336,-0.07161,-0.02007,1.00760,2.49106,1.18222,1.71516,1.72189,-0.19293,3.39421,2.45144,-0.22784,3.39145,A,154838.60
2.50537,57.68805052,11.98133692,57.68804,11.98132,15:48:38.754366,0.00333,1.28807,-0.02192,0.02999,-0.00809,-0.00703,0.00596,-0.02952,0.00140,1.00485,2.50141,1.18222,1.71516,1.72189,-0.19293,3.39421,2.45144,-0.22784,3.39145,A,154838.60
2.51605,57.68805052,11.98133692,57.68804,11.98132,15:48:38.764835,0.00359,1.28807,-0.02169,0.03206,-0.01558,-0.00734,0.01176,-0.05307,0.03007,0.99918,2.51208,1.18222,1.71516,1.72189,-0.19293,3.39421,2.45144,-0.22784,3.39145,A,154838.60
2.52637,57.68805052,11.98133692,57.68804,11.98132,15:48:38.775151,0.00351,1.28807,-0.02167,0.03410,-0.01481,-0.00092,0.01741,0.00275,0.01555,1.01242,2.52221,1.18222,1.71516,1.72189,-0.19293,3.39421,2.45144,-0.22784,3.39145,A,154838.60
2.53736,57.68805052,11.98133692,57.68804,11.98132,15:48:38.786364,0.00409,1.28807,-0.02183,0.03628,-0.01527,-0.00184,0.01512,0.00372,0.00500,1.01565,2.53338,1.18222,1.71516,1.72189,-0.19293,3.39421,2.45144,-0.22784,3.39145,A,154838.60
2.54721,57.68805052,11.98133692,57.68804,11.98132,15:48:38.795986,0.00354,1.28807,-0.02208,0.03834,-0.01649,-0.01008,0.01497,-0.05405,-0.00098,1.02083,2.54322,1.18222,1.71516,1.72189,-0.19293,3.39421,2.45144,-0.22784,3.39145,A,154838.60
2.57149,57.68805052,11.98133692,57.68804,11.98132,15:48:38.820267,0.01745,1.28807,-0.02172,0.04052,-0.02230,-0.00840,0.01390,-0.03239,0.04398,1.00223,2.55341,1.18222,1.71516,1.72189,-0.19293,3.39421,2.56901,-0.25756,3.46558,A,154838.70
2.58731,57.68805152,11.98133628,57.68804,11.98132,15:48:38.836095,0.00798,1.28807,-0.02209,0.04596,-0.00076,-0.01604,0.02215,0.00512,-0.02025,1.10111,2.58038,1.19280,1.74103,1.75468,-0.23122,3.50446,2.56901,-0.25756,3.46558,A,154838.70
2.59396,57.68805152,11.98133628,57.68804,11.98132,15:48:38.842755,0.00368,1.28807,-0.02282,0.04814,-0.00580,-0.03956,0.02856,0.03038,-0.04172,1.05725,2.58976,1.19280,1.74103,1.75468,-0.23122,3.50446,2.56901,-0.25756,3.46558,A,154838.70
2.60419,57.68805152,11.98133628,57.68804,11.98132,15:48:38.852961,0.00351,1.28807,-0.02274,0.05032,-0.01390,-0.05834,0.03391,-0.01214,0.02056,1.01071,2.60024,1.19280,1.74103,1.75468,-0.23122,3.50446,2.56901,-0.25756,3.46558,A,154838.70
2.61460,57.68805152,11.98133628,57.68804,11.98132,15:48:38.863373,0.00351,1.28807,-0.02321,0.05227,-0.00183,-0.06720,0.03895,-0.06484,-0.02452,1.00266,2.61041,1.19280,1.74103,1.75468,-0.23122,3.50446,2.56901,-0.25756,3.46558,A,154838.70
2.62556,57.68805152,11.98133628,57.68804,11.98132,15:48:38.874560,0.00408,1.28807,-0.02298,0.05419,-0.00412,-0.04918,0.04017,-0.07027,0.02312,0.93263,2.62158,1.19280,1.74103,1.75468,-0.23122,3.50446,2.56901,-0.25756,3.46558,A,154838.70
2.63551,57.68805152,11.98133628,57.68804,11.98132,15:48:38.884280,0.00363,1.28807,-0.02301,0.05566,-0.00031,-0.03727,0.04185,-0.02635,0.00525,0.83113,2.63153,1.19280,1.74103,1.75468,-0.23122,3.50446,2.56901,-0.25756,3.46558,A,154838.70
2.64546,57.68805152,11.98133628,57.68804,11.98132,15:48:38.894750,0.00336,1.28807,-0.02296,0.05711,-0.00565,-0.02261,0.04017,-0.08028,0.01244,0.82844,2.64150,1.19280,1.74103,1.75468,-0.23122,3.50446,2.56901,-0.25756,3.46558,A,154838.70
2.65602,57.68805152,11.98133628,57.68804,11.98132,15:48:38.904793,0.00352,1.28807,-0.02274,0.05849,-0.00489,0.00106,0.03757,-0.11169,0.02263,0.89908,2.65207,1.19280,1.74103,1.75468,-0.23122,3.50446,2.56901,-0.25756,3.46558,A,154838.70
2.66645,57.68805152,11.98133628,57.68804,11.98132,15:48:38.915233,0.00355,1.28807,-0.02275,0.05977,0.00153,0.03375,0.03574,-0.14414,0.00573,0.93391,2.66226,1.19280,1.74103,1.75468,-0.23122,3.50446,2.56901,-0.25756,3.46558,A,154838.70
2.69078,57.68805152,11.98133628,57.68804,11.98132,15:48:38.939572,0.01748,1.28807,-0.02280,0.06118,-0.00015,0.05558,0.02673,0.01415,0.00445,0.93147,2.67288,1.19280,1.74103,1.75468,-0.23122,3.50446,2.68813,-0.30709,3.52117,A,154838.80
2.70630,57.68805231,11.98133551,57.68804,11.98132,15:48:38.955092,0.00742,1.28807,-0.02260,0.06489,-0.00764,0.01130,0.03773,0.07814,0.03739,1.12429,2.69948,1.20233,1.80125,1.82053,-0.27679,3.59299,2.68813,-0.30709,3.52117,A,154838.80
2.71379,57.68805231,11.98133551,57.68804,11.98132,15:48:38.962591,0.00451,1.28807,-0.02326,0.06616,-0.00840,-0.00489,0.03956,-0.12462,-0.04014,1.23464,2.70959,1.20233,1.80125,1.82053,-0.27679,3.59299,2.68813,-0.30709,3.52117,A,154838.80
2.72320,57.68805231,11.98133551,57.68804,11.98132,15:48:38.971979,0.00352,1.28807,-0.02321,0.06727,-0.01313,0.01450,0.03696,-0.09845,0.02196,1.25434,2.71923,1.20233,1.80125,1.82053,-0.27679,3.59299,2.68813,-0.30709,3.52117,A,154838.80
2.73339,57.68805231,11.98133551,57.68804,11.98132,15:48:38.982376,0.00335,1.28807,-0.02321,0.06809,-0.00092,0.02611,0.03880,0.01946,0.00769,1.15998,2.72942,1.20233,1.80125,1.82053,-0.27679,3.59299,2.68813,-0.30709,3.52117,A,154838.80
2.74413,57.68805231,11.98133551,57.68804,11.98132,15:48:38.992903,0.00374,1.28807,-0.02318,0.06866,-0.00153,0.01007,0.04170,0.11962,0.01086,0.98100,2.74015,1.20233,1.80125,1.82053,-0.27679,3.59299,2.68813,-0.30709,3.52117,A,154838.80
2.75433,57.68805231,11.98133551,57.68804,11.98132,15:48:39.003112,0.00354,1.28807,-0.02374,0.06888,0.00397,-0.03238,0.05498,0.06466,-0.02684,0.88590,2.75013,1.20233,1.80125,1.82053,-0.27679,3.59299,2.68813,-0.30709,3.52117,A,154838.80
2.76473,57.68805231,11.98133551,57.68804,11.98132,15:48:39.013503,0.00354,1.28807,-0.02274,0.06888,0.00260,-0.03803,0.05544,-0.06515,0.05874,0.78568,2.76077,1.20233,1.80125,1.82053,-0.27679,3.59299,2.68813,-0.30709,3.52117,A,154838.80
2.77512,57.68805231,11.98133551,57.68804,11.98132,15:48:39.023895,0.00352,1.28807,-0.02300,0.06888,0.01268,-0.03895,0.05407,-0.12255,-0.01086,0.74487,2.77114,1.20233,1.80125,1.82053,-0.27679,3.59299,2.68813,-0.30709,3.52117,A,154838.80
2.78600,57.68805231,11.98133551,57.68804,11.98132,15:48:39.034804,0.00407,1.28807,-0.02344,0.06888,0.01634,-0.01741,0.04704,-0.20008,-0.02641,0.86583,2.78172,1.20233,1.80125,1.82053,-0.27679,3.59299,2.68813,-0.30709,3.52117,A,154838.80
2.81997,57.68805231,11.98133551,57.68804,11.98132,15:48:39.068758,0.02764,1.28807,-0.02356,0.06888,0.01802,0.01740,0.03834,-0.10669,-0.01196,0.96471,2.79203,1.20233,1.80125,1.82053,-0.27679,3.59299,2.81763,-0.42596,3.72503,A,154839.00
2.83346,57.68805358,11.98133413,57.68804,11.98132,15:48:39.082508,0.00672,1.28807,-0.02350,0.06888,0.01604,-0.00046,0.02444,0.03532,-0.03190,1.19981,2.82671,1.21090,1.83802,1.85849,-0.35884,3.73355,2.81763,-0.42596,3.72503,A,154839.00
2.84190,57.68805358,11.98133413,57.68804,11.98132,15:48:39.090700,0.00475,1.28807,-0.02359,0.06894,0.01497,-0.01680,0.03330,-0.03392,-0.01043,1.06976,2.83769,1.21090,1.83802,1.85849,-0.35884,3.73355,2.81763,-0.42596,3.72503,A,154839.00
2.85140,57.68805358,11.98133413,57.68804,11.98132,15:48:39.100183,0.00385,1.28807,-0.02269,0.06905,0.01665,-0.02474,0.03788,-0.07344,0.05740,1.01461,2.84710,1.21090,1.83802,1.85849,-0.35884,3.73355,2.81763,-0.42596,3.72503,A,154839.00
2.86137,57.68805358,11.98133413,57.68804,11.98132,15:48:39.110359,0.00333,1.28807,-0.02275,0.06908,0.03482,-0.01482,0.04185,-0.05819,-0.01665,0.91738,2.85741,1.21090,1.83802,1.85849,-0.35884,3.73355,2.81763,-0.42596,3.72503,A,154839.00
2.87194,57.68805358,11.98133413,57.68804,11.98132,15:48:39.120723,0.00351,1.28807,-0.02283,0.06908,0.03589,-0.01848,0.04857,-0.01976,-0.01787,0.86821,2.86798,1.21090,1.83802,1.85849,-0.35884,3.73355,2.81763,-0.42596,3.72503,A,154839.00
2.88256,57.68805358,11.98133413,57.68804,11.98132,15:48:39.131337,0.00372,1.28807,-0.02291,0.06908,0.03436,-0.01054,0.05422,-0.07491,-0.01616,0.86553,2.87837,1.21090,1.83802,1.85849,-0.35884,3.73355,2.81763,-0.42596,3.72503,A,154839.00
2.89297,57.68805358,11.98133413,57.68804,11.98132,15:48:39.141743,0.00373,1.28807,-0.02338,0.06908,0.03818,0.00458,0.05422,-0.13463,-0.04288,0.88859,2.88899,1.21090,1.83802,1.85849,-0.35884,3.73355,2.81763,-0.42596,3.72503,A,154839.00
2.90304,57.68805358,11.98133413,57.68804,11.98132,15:48:39.151818,0.00356,1.28807,-0.02308,0.06908,0.02932,0.01878,0.04796,-0.13091,0.00805,0.97527,2.89906,1.21090,1.83802,1.85849,-0.35884,3.73355,2.81763,-0.42596,3.72503,A,154839.00
2.91329,57.68805358,11.98133413,57.68804,11.98132,15:48:39.162352,0.00342,1.28807,-0.02250,0.06908,0.03543,0.02565,0.04261,-0.04880,0.02324,1.03139,2.90930,1.21090,1.83802,1.85849,-0.35884,3.73355,2.81763,-0.42596,3.72503,A,154839.00
2.93836,57.68805358,11.98133413,57.68804,11.98132,15:48:39.187141,0.01787,1.36667,-0.02195,0.06908,0.03986,0.02367,0.03620,0.02470,0.01867,1.09403,2.92025,1.21090,1.83802,1.85849,-0.35884,3.73355,2.93589,-0.42596,3.87329,A,154839.10
2.95175,57.68805481,11.98133327,57.68804,11.98132,15:48:39.200537,0.00678,1.36667,-0.02088,0.06965,0.04536,-0.03192,0.03773,0.03007,0.00622,1.06774,2.94548,1.22648,1.81811,1.83881,-0.40964,3.87039,2.93589,-0.42596,3.87329,A,154839.10
2.95891,57.68805481,11.98133327,57.68804,11.98132,15:48:39.207687,0.00353,1.36667,-0.02045,0.07016,0.03482,-0.03666,0.04261,-0.16385,0.01909,1.07647,2.95493,1.22648,1.81811,1.83881,-0.40964,3.87039,2.93589,-0.42596,3.87329,A,154839.10
2.96928,57.68805481,11.98133327,57.68804,11.98132,15:48:39.218251,0.00336,1.36667,-0.02002,0.07078,0.04383,-0.01635,0.04765,-0.07631,0.01116,0.92433,2.96530,1.22648,1.81811,1.83881,-0.40964,3.87039,2.93589,-0.42596,3.87329,A,154839.10
2.98015,57.68805481,11.98133327,57.68804,11.98132,15:48:39.228921,0.00356,1.36667,-0.02000,0.07137,0.04459,-0.01207,0.04979,0.02403,-0.01196,0.80618,2.97617,1.22648,1.81811,1.83881,-0.40964,3.87039,2.93589,-0.42596,3.87329,A,154839.10
2.99123,57.68805481,11.98133327,57.68804,11.98132,15:48:39.240015,0.00425,1.36667,-0.01972,0.07174,0.03818,-0.02704,0.05559,-0.05283,0.00543,0.87809,2.98685,1.22648,1.81811,1.83881,-0.40964,3.87039,2.93589,-0.42596,3.87329,A,154839.10
3.00107,57.68805481,11.98133327,57.68804,11.98132,15:48:39.249846,0.00368,1.36667,-0.01907,0.07191,0.03818,-0.01864,0.04918,-0.14793,0.03026,0.98747,2.99710,1.22648,1.81811,1.83881,-0.40964,3.87039,2.93589,-0.42596,3.87329,A,154839.10
3.01121,57.68805481,11.98133327,57.68804,11.98132,15:48:39.259990,0.00342,1.36667,-0.01832,0.07191,0.03406,0.01252,0.04689,-0.06478,0.04270,1.03724,3.00725,1.22648,1.81811,1.83881,-0.40964,3.87039,2.93589,-0.42596,3.87329,A,154839.10
3.02139,57.68805481,11.98133327,57.68804,11.98132,15:48:39.270398,0.00334,1.36667,-0.01788,0.07194,0.03803,0.00702,0.04445,-0.00695,0.01830,1.03474,3.01743,1.22648,1.81811,1.83881,-0.40964,3.87039,2.93589,-0.42596,3.87329,A,154839.10
3.03252,57.68805481,11.98133327,57.68804,11.98132,15:48:39.281317,0.00407,1.36667,-0.01798,0.07208,0.03192,0.00015,0.04429,0.03373,-0.01531,1.06854,3.02800,1.22648,1.81811,1.83881,-0.40964,3.87039,2.93589,-0.42596,3.87329,A,154839.10
3.05603,57.68805481,11.98133327,57.68804,11.98132,15:48:39.304831,0.01718,1.36667,-0.01786,0.07248,0.03238,-0.02597,0.04781,0.03666,0.00006,1.07403,3.03819,1.22648,1.81811,1.83881,-0.40964,3.87039,3.05327,-0.45568,3.96595,A,154839.20
3.07063,57.68805590,11.98133258,57.68804,11.98132,15:48:39.319418,0.00693,1.36667,-0.01682,0.07429,0.02230,-0.02795,0.04735,-0.15665,0.04825,1.04517,3.06439,1.24050,1.83147,1.85355,-0.45082,3.99149,3.05327,-0.45568,3.96595,A,154839.20
3.07857,57.68805590,11.98133258,57.68804,11.98132,15:48:39.327352,0.00352,1.36667,-0.01625,0.07502,0.02306,0.00397,0.04658,-0.03983,0.03825,0.97222,3.07439,1.24050,1.83147,1.85355,-0.45082,3.99149,3.05327,-0.45568,3.96595,A,154839.20
3.08917,57.68805590,11.98133258,57.68804,11.98132,15:48:39.337945,0.00337,1.36667,-0.01696,0.07559,0.02199,0.00824,0.04429,-0.02178,-0.03983,0.89981,3.08519,1.24050,1.83147,1.85355,-0.45082,3.99149,3.05327,-0.45568,3.96595,A,154839.20
3.09985,57.68805590,11.98133258,57.68804,11.98132,15:48:39.348622,0.00366,1.36667,-0.01730,0.07590,0.01130,0.00809,0.04383,-0.02830,-0.01080,0.88602,3.09587,1.24050,1.83147,1.85355,-0.45082,3.99149,3.05327,-0.45568,3.96595,A,154839.20
3.10999,57.68805590,11.98133258,57.68804,11.98132,15:48:39.358781,0.00356,1.36667,-0.01742,0.07596,0.00794,-0.00443,0.04445,-0.00140,0.00390,0.89029,3.10582,1.24050,1.83147,1.85355,-0.45082,3.99149,3.05327,-0.45568,3.96595,A,154839.20
3.12035,57.68805590,11.98133258,57.68804,11.98132,15:48:39.369133,0.00353,1.36667,-0.01759,0.07596,0.00962,-0.01940,0.04215,-0.00500,-0.00079,0.92995,3.11638,1.24050,1.83147,1.85355,-0.45082,3.99149,3.05327,-0.45568,3.96595,A,154839.20
3.13076,57.68805590,11.98133258,57.68804,11.98132,15:48:39.379538,0.00353,1.36667,-0.01728,0.07596,0.00336,-0.03773,0.04872,-0.02043,0.03440,1.00918,3.12677,1.24050,1.83147,1.85355,-0.45082,3.99149,3.05327,-0.45568,3.96595,A,154839.20
3.14113,57.68805590,11.98133258,57.68804,11.98132,15:48:39.389904,0.00332,1.36667,-0.01771,0.07596,0.00748,-0.03941,0.04719,-0.06417,-0.02056,1.10276,3.13716,1.24050,1.83147,1.85355,-0.45082,3.99149,3.05327,-0.45568,3.96595,A,154839.20
3.15215,57.68805590,11.98133258,57.68804,11.98132,15:48:39.400929,0.00394,1.36667,-0.01794,0.07596,-0.00519,-0.03101,0.04765,-0.02348,0.00299,1.11136,3.14815,1.24050,1.83147,1.85355,-0.45082,3.99149,3.05327,-0.45568,3.96595,A,154839.20
3.17545,57.68805590,11.98133258,57.68804,11.98132,15:48:39.424229,0.01685,1.36667,-0.01863,0.07596,-0.01145,-0.02505,0.04429,-0.05642,-0.02617,1.07982,3.15796,1.24050,1.83147,1.85355,-0.45082,3.99149,3.17300,-0.60428,3.96595,A,154839.30
3.19275,57.68805657,11.98133113,57.68804,11.98132,15:48:39.441556,0.00847,1.36667,-0.01862,0.07596,-0.03039,-0.00123,0.03131,-0.09919,0.06326,0.87126,3.18566,1.25311,1.97034,1.99292,-0.53700,4.06664,3.17300,-0.60428,3.96595,A,154839.30
3.19853,57.68805657,11.98133113,57.68804,11.98132,15:48:39.447309,0.00400,1.36667,-0.01797,0.07596,-0.02718,0.00641,0.02994,-0.05533,0.06381,0.83753,3.19422,1.25311,1.97034,1.99292,-0.53700,4.06664,3.17300,-0.60428,3.96595,A,154839.30
3.20852,57.68805657,11.98133113,57.68804,11.98132,15:48:39.457288,0.00353,1.36667,-0.01807,0.07596,-0.02459,0.00045,0.03192,-0.05960,0.02495,0.95392,3.20455,1.25311,1.97034,1.99292,-0.53700,4.06664,3.17300,-0.60428,3.96595,A,154839.30
3.21890,57.68805657,11.98133113,57.68804,11.98132,15:48:39.467676,0.00352,1.36667,-0.01879,0.07596,-0.02673,0.00397,0.03055,0.00445,-0.01659,1.06902,3.21492,1.25311,1.97034,1.99292,-0.53700,4.06664,3.17300,-0.60428,3.96595,A,154839.30
3.22927,57.68805657,11.98133113,57.68804,11.98132,15:48:39.478237,0.00335,1.36667,-0.02013,0.07596,-0.03574,-0.01528,0.03146,-0.07564,-0.06094,1.16937,3.22530,1.25311,1.97034,1.99292,-0.53700,4.06664,3.17300,-0.60428,3.96595,A,154839.30
3.24024,57.68805657,11.98133113,57.68804,11.98132,15:48:39.489020,0.00374,1.36667,-0.02093,0.07596,-0.05192,0.00351,0.02902,-0.13206,-0.00573,1.22091,3.23625,1.25311,1.97034,1.99292,-0.53700,4.06664,3.17300,-0.60428,3.96595,A,154839.30
3.25043,57.68805657,11.98133113,57.68804,11.98132,15:48:39.499206,0.00353,1.36667,-0.02114,0.07590,-0.05192,0.02061,0.03101,0.03227,0.03373,1.07073,3.24624,1.25311,1.97034,1.99292,-0.53700,4.06664,3.17300,-0.60428,3.96595,A,154839.30
3.26127,57.68805657,11.98133113,57.68804,11.98132,15:48:39.510610,0.00397,1.36667,-0.02171,0.07565,-0.06154,0.00916,0.02810,0.06045,0.01836,0.86858,3.25730,1.25311,1.97034,1.99292,-0.53700,4.06664,3.17300,-0.60428,3.96595,A,154839.30
3.27115,57.68805657,11.98133113,57.68804,11.98132,15:48:39.519936,0.00361,1.36667,-0.02182,0.07508,-0.05773,-0.01253,0.02826,0.03337,0.03501,0.78489,3.26715,1.25311,1.97034,1.99292,-0.53700,4.06664,3.17300,-0.60428,3.96595,A,154839.30
3.31193,57.68805657,11.98133113,57.68804,11.98131,15:48:39.560728,0.03390,1.36667,-0.02197,0.07403,-0.05024,-0.01741,0.02856,-0.11999,0.03050,0.80032,3.27740,1.25311,1.97034,1.99292,-0.53700,4.06664,3.30795,-0.80240,3.94742,A,154839.50
3.32540,57.68805695,11.98132866,57.68804,11.98131,15:48:39.574438,0.00615,1.36667,-0.02484,0.06829,-0.05712,0.03237,0.02368,0.00683,-0.03111,1.22964,3.31943,1.26447,2.10598,2.12628,-0.68367,4.10916,3.30795,-0.80240,3.94742,A,154839.50
3.33484,57.68805695,11.98132866,57.68804,11.98131,15:48:39.583639,0.00498,1.36667,-0.02519,0.06721,-0.05421,0.03268,0.01787,0.01732,0.02464,1.31882,3.33005,1.26447,2.10598,2.12628,-0.68367,4.10916,3.30795,-0.80240,3.94742,A,154839.50
3.34388,57.68805695,11.98132866,57.68804,11.98131,15:48:39.592663,0.00371,1.36667,-0.02517,0.06636,-0.04795,0.02855,0.01741,0.00878,0.04605,1.24629,3.33989,1.26447,2.10598,2.12628,-0.68367,4.10916,3.30795,-0.80240,3.94742,A,154839.50
3.35396,57.68805695,11.98132866,57.68804,11.98131,15:48:39.602739,0.00356,1.36667,-0.02534,0.06577,-0.04062,0.01450,0.01451,0.00159,0.02300,1.08763,3.34979,1.26447,2.10598,2.12628,-0.68367,4.10916,3.30795,-0.80240,3.94742,A,154839.50
3.36433,57.68805695,11.98132866,57.68804,11.98131,15:48:39.613101,0.00352,1.36667,-0.02572,0.06540,-0.04123,-0.00153,0.01253,0.03276,0.00945,0.84345,3.36036,1.26447,2.10598,2.12628,-0.68367,4.10916,3.30795,-0.80240,3.94742,A,154839.50
3.37472,57.68805695,11.98132866,57.68804,11.98131,15:48:39.623498,0.00352,1.36667,-0.02699,0.06529,-0.03543,-0.02459,0.01757,-0.03941,-0.04075,0.78885,3.37073,1.26447,2.10598,2.12628,-0.68367,4.10916,3.30795,-0.80240,3.94742,A,154839.50
3.38515,57.68805695,11.98132866,57.68804,11.98131,15:48:39.633914,0.00337,1.36667,-0.02736,0.06529,-0.03818,-0.01497,0.02230,-0.10010,0.00744,0.78251,3.38117,1.26447,2.10598,2.12628,-0.68367,4.10916,3.30795,-0.80240,3.94742,A,154839.50
3.39571,57.68805695,11.98132866,57.68804,11.98131,15:48:39.644483,0.00352,1.36667,-0.02835,0.06529,-0.03360,-0.00749,0.02826,-0.09284,-0.03141,0.85229,3.39173,1.26447,2.10598,2.12628,-0.68367,4.10916,3.30795,-0.80240,3.94742,A,154839.50
3.40645,57.68805695,11.98132866,57.68804,11.98131,15:48:39.655232,0.00361,1.36667,-0.02948,0.06526,-0.02749,0.00229,0.03024,-0.16848,-0.04935,0.94818,3.40224,1.26447,2.10598,2.12628,-0.68367,4.10916,3.30795,-0.80240,3.94742,A,154839.50
3.43029,57.68805695,11.98132866,57.68804,11.98131,15:48:39.679069,0.01705,1.36667,-0.03002,0.06520,-0.02917,0.03588,0.02765,-0.12840,-0.01513,1.06262,3.41280,1.26447,2.10598,2.12628,-0.68367,4.10916,3.42785,-0.94108,3.98448,A,154839.60
3.44610,57.68805719,11.98132614,57.68804,11.98131,15:48:39.694897,0.00828,1.36667,-0.03080,0.06517,-0.03054,0.06108,0.01253,0.08223,0.00183,1.04645,3.43909,1.27469,2.19071,2.21008,-0.83379,4.13525,3.42785,-0.94108,3.98448,A,154839.60
3.45168,57.68805719,11.98132614,57.68804,11.98131,15:48:39.700786,0.00355,1.36667,-0.02990,0.06517,-0.03039,0.04291,0.00459,0.00409,0.08211,1.05469,3.44772,1.27469,2.19071,2.21008,-0.83379,4.13525,3.42785,-0.94108,3.98448,A,154839.60
3.46229,57.68805719,11.98132614,57.68804,11.98131,15:48:39.711072,0.00355,1.36110,-0.02895,0.06517,-0.00764,0.02626,0.00535,-0.02550,0.07155,1.02870,3.45810,1.27469,2.19071,2.21008,-0.83379,4.13525,3.42785,-0.94108,3.98448,A,154839.60
3.47335,57.68805719,11.98132614,57.68804,11.98131,15:48:39.722353,0.00420,1.36110,-0.02875,0.06517,0.00641,0.01435,0.02352,0.00366,0.01165,0.95788,3.46937,1.27469,2.19071,2.21008,-0.83379,4.13525,3.42785,-0.94108,3.98448,A,154839.60
3.48305,57.68805719,11.98132614,57.68804,11.98131,15:48:39.731824,0.00351,1.36110,-0.02986,0.06517,0.00535,-0.00520,0.03009,0.01214,-0.06814,0.91994,3.47907,1.27469,2.19071,2.21008,-0.83379,4.13525,3.42785,-0.94108,3.98448,A,154839.60
3.49326,57.68805719,11.98132614,57.68804,11.98131,15:48:39.742036,0.00339,1.36110,-0.03096,0.06517,-0.00153,-0.01131,0.03941,-0.03123,-0.06692,0.95343,3.48928,1.27469,2.19071,2.21008,-0.83379,4.13525,3.42785,-0.94108,3.98448,A,154839.60
3.50380,57.68805719,11.98132614,57.68804,11.98131,15:48:39.752574,0.00353,1.36110,-0.03107,0.06517,-0.00596,0.00366,0.04368,-0.14939,-0.00360,1.08263,3.49983,1.27469,2.19071,2.21008,-0.83379,4.13525,3.42785,-0.94108,3.98448,A,154839.60
3.51419,57.68805719,11.98132614,57.68804,11.98131,15:48:39.762972,0.00352,1.36110,-0.03056,0.06517,-0.00214,0.02122,0.04292,-0.03861,0.03654,1.02950,3.51001,1.27469,2.19071,2.21008,-0.83379,4.13525,3.42785,-0.94108,3.98448,A,154839.60
3.52520,57.68805719,11.98132614,57.68804,11.98131,15:48:39.773978,0.00413,1.36110,-0.03067,0.06517,-0.00229,0.00397,0.03681,0.00226,-0.00421,1.00278,3.52121,1.27469,2.19071,2.21008,-0.83379,4.13525,3.42785,-0.94108,3.98448,A,154839.60
3.54820,57.68805719,11.98132614,57.68804,11.98131,15:48:39.796983,0.01673,1.36110,-0.03036,0.06517,0.00458,-0.00520,0.03101,0.05081,0.01787,0.95489,3.53101,1.27469,2.19071,2.21008,-0.83379,4.13525,3.54588,-0.99062,4.07715,A,154839.70
3.56395,57.68805762,11.98132419,57.68804,11.98131,15:48:39.812735,0.00700,1.36110,-0.03071,0.06517,0.01008,0.00320,0.02368,-0.14433,-0.04154,1.04194,3.55772,1.28333,2.18468,2.20405,-0.94946,4.18323,3.54588,-0.99062,4.07715,A,154839.70
3.57180,57.68805762,11.98132419,57.68804,11.98131,15:48:39.820579,0.00446,1.36110,-0.03142,0.06517,0.01023,0.03329,0.01833,-0.13530,-0.05630,1.04700,3.56781,1.28333,2.18468,2.20405,-0.94946,4.18323,3.54588,-0.99062,4.07715,A,154839.70
3.58124,57.68805762,11.98132419,57.68804,11.98131,15:48:39.830015,0.00334,1.36110,-0.03128,0.06517,0.01084,0.05009,0.02627,0.01879,0.00275,1.03590,3.57728,1.28333,2.18468,2.20405,-0.94946,4.18323,3.54588,-0.99062,4.07715,A,154839.70
3.59207,57.68805762,11.98132419,57.68804,11.98131,15:48:39.840839,0.00376,1.36110,-0.03072,0.06517,0.01268,0.03313,0.03299,0.05087,0.02751,0.95123,3.58810,1.28333,2.18468,2.20405,-0.94946,4.18323,3.54588,-0.99062,4.07715,A,154839.70
3.60222,57.68805762,11.98132419,57.68804,11.98131,15:48:39.850997,0.00352,1.36110,-0.03029,0.06517,0.01634,0.01847,0.03635,0.06722,0.01836,0.95788,3.59804,1.28333,2.18468,2.20405,-0.94946,4.18323,3.54588,-0.99062,4.07715,A,154839.70
3.61264,57.68805762,11.98132419,57.68804,11.98131,15:48:39.861420,0.00354,1.36110,-0.02981,0.06517,0.02107,-0.00123,0.03727,-0.10718,0.01891,1.05158,3.60868,1.28333,2.18468,2.20405,-0.94946,4.18323,3.54588,-0.99062,4.07715,A,154839.70
3.62303,57.68805762,11.98132419,57.68804,11.98131,15:48:39.871803,0.00352,1.36110,-0.03058,0.06517,0.02535,-0.00321,0.03559,-0.01897,-0.06008,0.91225,3.61905,1.28333,2.18468,2.20405,-0.94946,4.18323,3.54588,-0.99062,4.07715,A,154839.70
3.63336,57.68805762,11.98132419,57.68804,11.98131,15:48:39.882350,0.00333,1.36110,-0.03061,0.06517,0.01222,-0.01665,0.02933,0.06557,-0.00653,0.88267,3.62940,1.28333,2.18468,2.20405,-0.94946,4.18323,3.54588,-0.99062,4.07715,A,154839.70
3.64387,57.68805762,11.98132419,57.68804,11.98131,15:48:39.892655,0.00358,1.36110,-0.03031,0.06517,0.01038,-0.03009,0.02581,-0.06649,0.01342,0.95087,3.63990,1.28333,2.18468,2.20405,-0.94946,4.18323,3.54588,-0.99062,4.07715,A,154839.70
3.66815,57.68805762,11.98132419,57.68804,11.98131,15:48:39.916934,0.01747,1.36110,-0.03054,0.06517,0.00626,-0.01604,0.02047,-0.01269,-0.01800,1.00290,3.65004,1.28333,2.18468,2.20405,-0.94946,4.18323,3.66579,-1.05996,4.16981,A,154839.80
3.68120,57.68805821,11.98132257,57.68804,11.98131,15:48:39.929985,0.00661,1.36110,-0.03094,0.06517,0.00397,0.01221,0.01665,-0.18751,-0.03782,1.14040,3.67405,1.29111,2.19434,2.21370,-1.04572,4.24877,3.66579,-1.05996,4.16981,A,154839.80
3.68955,57.68805821,11.98132257,57.68804,11.98131,15:48:39.938537,0.00471,1.36110,-0.03081,0.06517,0.00657,0.05070,0.01803,-0.03129,0.00384,1.09660,3.68538,1.29111,2.19434,2.21370,-1.04572,4.24877,3.66579,-1.05996,4.16981,A,154839.80
3.69888,57.68805821,11.98132257,57.68804,11.98131,15:48:39.947661,0.00377,1.36110,-0.03165,0.06517,0.00504,0.03726,0.01955,0.16775,-0.05514,0.95270,3.69486,1.29111,2.19434,2.21370,-1.04572,4.24877,3.66579,-1.05996,4.16981,A,154839.80
3.70951,57.68805821,11.98132257,57.68804,11.98131,15:48:39.958518,0.00399,1.36110,-0.03160,0.06517,-0.00504,-0.01772,0.02413,0.13640,0.00665,0.91720,3.70527,1.29111,2.19434,2.21370,-1.04572,4.24877,3.66579,-1.05996,4.16981,A,154839.80
3.71946,57.68805821,11.98132257,57.68804,11.98131,15:48:39.968243,0.00355,1.36110,-0.03103,0.06517,0.00580,-0.04185,0.03467,-0.06978,0.03367,0.98137,3.71549,1.29111,2.19434,2.21370,-1.04572,4.24877,3.66579,-1.05996,4.16981,A,154839.80
3.72951,57.68805821,11.98132257,57.68804,11.98131,15:48:39.978506,0.00336,1.36110,-0.02994,0.06517,0.00779,-0.04124,0.03712,-0.11328,0.06753,0.98997,3.72554,1.29111,2.19434,2.21370,-1.04572,4.24877,3.66579,-1.05996,4.16981,A,154839.80
3.74006,57.68805821,11.98132257,57.68804,11.98131,15:48:39.988837,0.00352,1.36110,-0.02956,0.06517,0.01894,-0.02337,0.03971,-0.06417,0.01379,0.90933,3.73609,1.29111,2.19434,2.21370,-1.04572,4.24877,3.66579,-1.05996,4.16981,A,154839.80
3.75104,57.68805821,11.98132257,57.68804,11.98131,15:48:39.999817,0.00409,1.36110,-0.03058,0.06517,0.01054,-0.02551,0.02887,0.07149,-0.06033,0.84314,3.74703,1.29111,2.19434,2.21370,-1.04572,4.24877,3.66579,-1.05996,4.16981,A,154839.80
3.76143,57.68805821,11.98132257,57.68804,11.98131,15:48:40.010727,0.00409,1.36110,-0.03075,0.06517,0.00321,-0.04475,0.02429,-0.05191,-0.01171,0.95081,3.75745,1.29111,2.19434,2.21370,-1.04572,4.24877,3.66579,-1.05996,4.16981,A,154839.80
3.78520,57.68805821,11.98132257,57.68805,11.98131,15:48:40.033982,0.01745,1.36110,-0.03104,0.06517,-0.00321,-0.02597,0.01650,-0.17964,-0.01928,1.12765,3.76723,1.29111,2.19434,2.21370,-1.04572,4.24877,3.78285,-0.93118,4.48486,A,154839.90
3.79944,57.68805970,11.98132244,57.68805,11.98131,15:48:40.048235,0.00731,1.36110,-0.03122,0.06517,0.00519,0.02932,0.00779,-0.00726,-0.02416,1.11374,3.79273,1.29811,2.10014,2.11951,-1.05364,4.41494,3.78285,-0.93118,4.48486,A,154839.90
3.80685,57.68805970,11.98132244,57.68805,11.98131,15:48:40.055633,0.00432,1.36110,-0.03023,0.06517,0.00229,0.02000,0.01054,0.05838,0.06801,1.05512,3.80284,1.29811,2.10014,2.11951,-1.05364,4.41494,3.78285,-0.93118,4.48486,A,154839.90
3.81650,57.68805970,11.98132244,57.68805,11.98131,15:48:40.065278,0.00357,1.36110,-0.03012,0.06517,0.01497,-0.00062,0.01726,0.09620,0.00079,0.88950,3.81253,1.29811,2.10014,2.11951,-1.05364,4.41494,3.78285,-0.93118,4.48486,A,154839.90
3.82686,57.68805970,11.98132244,57.68805,11.98131,15:48:40.075638,0.00353,1.36110,-0.03007,0.06517,0.02260,-0.03101,0.02352,0.03489,-0.00714,0.82704,3.82289,1.29811,2.10014,2.11951,-1.05364,4.41494,3.78285,-0.93118,4.48486,A,154839.90
3.83723,57.68805970,11.98132244,57.68805,11.98131,15:48:40.086011,0.00334,1.36110,-0.02993,0.06517,0.02459,-0.03085,0.03131,-0.08924,-0.00311,0.84668,3.83327,1.29811,2.10014,2.11951,-1.05364,4.41494,3.78285,-0.93118,4.48486,A,154839.90
3.84782,57.68805970,11.98132244,57.68805,11.98131,15:48:40.096591,0.00359,1.36110,-0.02991,0.06517,0.02062,-0.02307,0.02810,-0.18898,-0.01055,0.94953,3.84383,1.29811,2.10014,2.11951,-1.05364,4.41494,3.78285,-0.93118,4.48486,A,154839.90
3.85815,57.68805970,11.98132244,57.68805,11.98131,15:48:40.106928,0.00352,1.36110,-0.03015,0.06517,0.02963,0.01053,0.03284,-0.10358,-0.03410,1.00833,3.85396,1.29811,2.10014,2.11951,-1.05364,4.41494,3.78285,-0.93118,4.48486,A,154839.90
3.86856,57.68805970,11.98132244,57.68805,11.98131,15:48:40.117336,0.00353,1.36110,-0.03027,0.06517,0.02138,0.02794,0.02887,0.03733,-0.02397,1.06677,3.86459,1.29811,2.10014,2.11951,-1.05364,4.41494,3.78285,-0.93118,4.48486,A,154839.90
3.87896,57.68805970,11.98132244,57.68805,11.98131,15:48:40.127736,0.00353,1.36110,-0.03033,0.06517,0.02367,0.02076,0.01833,0.01610,-0.02287,1.15418,3.87498,1.29811,2.10014,2.11951,-1.05364,4.41494,3.78285,-0.93118,4.48486,A,154839.90
3.91517,57.68805970,11.98132244,57.68805,11.98131,15:48:40.163955,0.02919,1.36110,-0.03045,0.06517,0.02749,0.01802,0.01314,-0.01830,-0.03123,1.15199,3.88557,1.29811,2.10014,2.11951,-1.05364,4.41494,3.91238,-1.04015,4.70725,A,154840.10
3.93021,57.68806151,11.98132166,57.68805,11.98131,15:48:40.179005,0.00756,1.36110,-0.02910,0.06503,0.03726,-0.01864,0.01268,-0.02812,0.00250,0.88200,3.92213,1.30441,2.10065,2.11997,-1.09978,4.61616,3.91238,-1.04015,4.70725,A,154840.10
3.93688,57.68806151,11.98132166,57.68805,11.98131,15:48:40.185659,0.00369,1.36110,-0.02913,0.06472,0.03910,-0.01344,0.01772,-0.11944,-0.02434,0.92494,3.93288,1.30441,2.10065,2.11997,-1.09978,4.61616,3.91238,-1.04015,4.70725,A,154840.10
3.94731,57.68806151,11.98132166,57.68805,11.98131,15:48:40.196081,0.00372,1.36110,-0.02894,0.06416,0.03726,0.01298,0.02230,-0.08766,-0.00891,0.91726,3.94332,1.30441,2.10065,2.11997,-1.09978,4.61616,3.91238,-1.04015,4.70725,A,154840.10
3.95788,57.68806151,11.98132166,57.68805,11.98131,15:48:40.206676,0.00361,1.36110,-0.02892,0.06336,0.04215,0.02306,0.02490,-0.04862,-0.02111,0.90109,3.95370,1.30441,2.10065,2.11997,-1.09978,4.61616,3.91238,-1.04015,4.70725,A,154840.10
3.96881,57.68806151,11.98132166,57.68805,11.98131,15:48:40.217589,0.00419,1.36110,-0.02802,0.06243,0.03512,0.01970,0.02581,-0.07674,0.03715,1.02767,3.96484,1.30441,2.10065,2.11997,-1.09978,4.61616,3.91238,-1.04015,4.70725,A,154840.10
3.97910,57.68806151,11.98132166,57.68805,11.98131,15:48:40.227895,0.00408,1.36110,-0.02670,0.06166,0.04184,0.02779,0.02123,-0.03379,0.06631,1.04841,3.97484,1.30441,2.10065,2.11997,-1.09978,4.61616,3.91238,-1.04015,4.70725,A,154840.10
3.98919,57.68806151,11.98132166,57.68805,11.98131,15:48:40.237972,0.00377,1.36110,-0.02570,0.06107,0.04811,0.01221,0.01772,0.09986,0.04026,1.05780,3.98498,1.30441,2.10065,2.11997,-1.09978,4.61616,3.91238,-1.04015,4.70725,A,154840.10
3.99934,57.68806151,11.98132166,57.68805,11.98131,15:48:40.248573,0.00351,1.36110,-0.02533,0.06073,0.04658,-0.03253,0.01558,0.08894,-0.00201,1.05811,3.99523,1.30441,2.10065,2.11997,-1.09978,4.61616,3.91238,-1.04015,4.70725,A,154840.10
4.00950,57.68806151,11.98132166,57.68805,11.98131,15:48:40.258492,0.00344,1.34576,-0.02527,0.06067,0.04688,-0.05911,0.01329,-0.02397,-0.02428,1.07695,4.00544,1.30441,2.10065,2.11997,-1.09978,4.61616,3.91238,-1.04015,4.70725,A,154840.10
4.03327,57.68806151,11.98132166,57.68805,11.98131,15:48:40.282259,0.01680,1.34576,-0.02506,0.06067,0.03436,-0.05605,0.01283,-0.13310,-0.00476,0.99076,4.01602,1.30441,2.10065,2.11997,-1.09978,4.61616,4.03096,-1.12930,4.79991,A,154840.20
4.04935,57.68806288,11.98132066,57.68805,11.98131,15:48:40.298429,0.00820,1.34576,-0.02357,0.06065,0.04093,0.03069,0.00932,-0.05405,0.03105,0.90249,4.04271,1.30854,2.13141,2.14943,-1.15935,4.76771,4.03096,-1.12930,4.79991,A,154840.20
4.05586,57.68806288,11.98132066,57.68805,11.98131,15:48:40.304641,0.00451,1.34576,-0.02324,0.06065,0.04322,0.03237,0.00932,-0.00579,0.00610,0.87535,4.05094,1.30854,2.13141,2.14943,-1.15935,4.76771,4.03096,-1.12930,4.79991,A,154840.20
4.06523,57.68806288,11.98132066,57.68805,11.98131,15:48:40.314008,0.00333,1.34576,-0.02295,0.06062,0.04520,0.04459,0.01115,-0.10248,-0.00287,0.93025,4.06126,1.30854,2.13141,2.14943,-1.15935,4.76771,4.03096,-1.12930,4.79991,A,154840.20
4.07582,57.68806288,11.98132066,57.68805,11.98131,15:48:40.324592,0.00352,1.34576,-0.02273,0.06056,0.04032,0.06688,0.01390,-0.08394,-0.00506,0.96709,4.07186,1.30854,2.13141,2.14943,-1.15935,4.76771,4.03096,-1.12930,4.79991,A,154840.20
4.08622,57.68806288,11.98132066,57.68805,11.98131,15:48:40.335000,0.00353,1.34576,-0.02312,0.06056,0.04398,0.06001,0.01299,0.05777,-0.04581,0.97295,4.08205,1.30854,2.13141,2.14943,-1.15935,4.76771,4.03096,-1.12930,4.79991,A,154840.20
4.09665,57.68806288,11.98132066,57.68805,11.98131,15:48:40.345418,0.00355,1.34576,-0.02328,0.06056,0.03818,0.01130,0.01268,0.14610,-0.03019,1.01162,4.09268,1.30854,2.13141,2.14943,-1.15935,4.76771,4.03096,-1.12930,4.79991,A,154840.20
4.10717,57.68806288,11.98132066,57.68805,11.98131,15:48:40.355952,0.00360,1.34576,-0.02250,0.06056,0.02703,-0.04689,0.01772,0.08418,0.04319,1.09336,4.10318,1.30854,2.13141,2.14943,-1.15935,4.76771,4.03096,-1.12930,4.79991,A,154840.20
4.11809,57.68806288,11.98132066,57.68805,11.98131,15:48:40.366880,0.00406,1.34576,-0.02115,0.06053,0.03757,-0.06460,0.01818,-0.00134,0.07655,1.06610,4.11369,1.30854,2.13141,2.14943,-1.15935,4.76771,4.03096,-1.12930,4.79991,A,154840.20
4.12794,57.68806288,11.98132066,57.68805,11.98131,15:48:40.376717,0.00351,1.34576,-0.02078,0.06050,0.04169,-0.07056,0.01665,-0.02879,0.00579,1.01236,4.12398,1.30854,2.13141,2.14943,-1.15935,4.76771,4.03096,-1.12930,4.79991,A,154840.20
4.15159,57.68806288,11.98132066,57.68805,11.98131,15:48:40.400369,0.01676,1.34576,-0.02071,0.06039,0.03726,-0.04765,0.01207,-0.15714,-0.00982,0.99680,4.13416,1.30854,2.13141,2.14943,-1.15935,4.76771,4.14913,-1.10949,4.94817,A,154840.30
4.16425,57.68806419,11.98132018,57.68805,11.98131,15:48:40.413029,0.00599,1.34576,-0.01960,0.06005,0.03421,0.03207,0.00306,-0.04148,0.02763,0.86602,4.15798,1.31226,2.06844,2.08629,-1.18783,4.91403,4.14913,-1.10949,4.94817,A,154840.30
4.17334,57.68806419,11.98132018,57.68805,11.98131,15:48:40.422544,0.00443,1.34576,-0.01901,0.06005,0.04032,0.02458,0.01192,-0.01257,0.01928,0.87456,4.16903,1.31226,2.06844,2.08629,-1.18783,4.91403,4.14913,-1.10949,4.94817,A,154840.30
4.18285,57.68806419,11.98132018,57.68805,11.98131,15:48:40.431626,0.00354,1.34576,-0.01840,0.06005,0.04475,0.01802,0.01421,-0.04325,0.02318,0.99302,4.17887,1.31226,2.06844,2.08629,-1.18783,4.91403,4.14913,-1.10949,4.94817,A,154840.30
4.19311,57.68806419,11.98132018,57.68805,11.98131,15:48:40.441888,0.00359,1.34576,-0.01756,0.06005,0.05177,0.01114,0.01803,0.03886,0.03465,1.04029,4.18914,1.31226,2.06844,2.08629,-1.18783,4.91403,4.14913,-1.10949,4.94817,A,154840.30
4.20344,57.68806419,11.98132018,57.68805,11.98131,15:48:40.452222,0.00352,1.34576,-0.01761,0.06005,0.04597,-0.02627,0.02887,0.07899,-0.02556,1.11307,4.19948,1.31226,2.06844,2.08629,-1.18783,4.91403,4.14913,-1.10949,4.94817,A,154840.30
4.21352,57.68806419,11.98132018,57.68805,11.98131,15:48:40.462516,0.00337,1.34576,-0.01768,0.06005,0.03574,-0.03956,0.03009,0.00098,-0.01952,1.16260,4.20955,1.31226,2.06844,2.08629,-1.18783,4.91403,4.14913,-1.10949,4.94817,A,154840.30
4.22407,57.68806419,11.98132018,57.68805,11.98131,15:48:40.472846,0.00352,1.34576,-0.01729,0.06005,0.03528,-0.03818,0.02704,-0.00628,0.01586,1.13735,4.22011,1.31226,2.06844,2.08629,-1.18783,4.91403,4.14913,-1.10949,4.94817,A,154840.30
4.23455,57.68806419,11.98132018,57.68805,11.98131,15:48:40.483328,0.00354,1.34576,-0.01702,0.06002,0.02718,-0.03269,0.01558,-0.04538,0.01281,1.00979,4.23036,1.31226,2.06844,2.08629,-1.18783,4.91403,4.14913,-1.10949,4.94817,A,154840.30
4.24494,57.68806419,11.98132018,57.68805,11.98131,15:48:40.493718,0.00352,1.34576,-0.01606,0.05999,0.01985,-0.02322,0.01085,-0.07936,0.05929,0.92086,4.24098,1.31226,2.06844,2.08629,-1.18783,4.91403,4.14913,-1.10949,4.94817,A,154840.30
4.27091,57.68806419,11.98132018,57.68805,11.98131,15:48:40.520022,0.01908,1.34576,-0.01507,0.05994,0.03222,-0.01558,0.00260,-0.14457,0.05313,0.89023,4.25138,1.31226,2.06844,2.08629,-1.18783,4.91403,4.26761,-1.19865,5.00377,A,154840.40
4.28728,57.68806525,11.98131933,57.68805,11.98131,15:48:40.536069,0.00812,1.34576,-0.01459,0.05980,0.04047,0.00824,0.00123,0.02794,-0.02501,0.93287,4.27973,1.31561,2.12683,2.14460,-1.23859,5.03188,4.26761,-1.19865,5.00377,A,154840.40
4.29328,57.68806525,11.98131933,57.68805,11.98131,15:48:40.542268,0.00341,1.34576,-0.01502,0.05980,0.03711,-0.00123,0.00688,0.01403,-0.03800,1.03059,4.28930,1.31561,2.12683,2.14460,-1.23859,5.03188,4.26761,-1.19865,5.00377,A,154840.40
4.30379,57.68806525,11.98131933,57.68805,11.98131,15:48:40.552561,0.00352,1.34576,-0.01478,0.05980,0.03467,-0.00932,0.02047,-0.00622,0.00726,1.12069,4.29983,1.31561,2.12683,2.14460,-1.23859,5.03188,4.26761,-1.19865,5.00377,A,154840.40
4.31418,57.68806525,11.98131933,57.68805,11.98131,15:48:40.562967,0.00352,1.34576,-0.01459,0.05974,0.03772,-0.01909,0.01772,-0.02135,0.00281,1.12874,4.31001,1.31561,2.12683,2.14460,-1.23859,5.03188,4.26761,-1.19865,5.00377,A,154840.40
4.32468,57.68806525,11.98131933,57.68805,11.98131,15:48:40.573451,0.00362,1.34576,-0.01381,0.05957,0.04016,-0.02016,0.01619,-0.02086,0.04240,1.10178,4.32071,1.31561,2.12683,2.14460,-1.23859,5.03188,4.26761,-1.19865,5.00377,A,154840.40
4.33522,57.68806525,11.98131933,57.68805,11.98131,15:48:40.583997,0.00375,1.34576,-0.01358,0.05929,0.03680,-0.02184,0.01665,0.00348,0.00677,1.02700,4.33123,1.31561,2.12683,2.14460,-1.23859,5.03188,4.26761,-1.19865,5.00377,A,154840.40
4.34590,57.68806525,11.98131933,57.68805,11.98131,15:48:40.594697,0.00378,1.34576,-0.01283,0.05886,0.03726,-0.03574,0.01406,-0.05350,0.04093,0.99845,4.34172,1.31561,2.12683,2.14460,-1.23859,5.03188,4.26761,-1.19865,5.00377,A,154840.40
4.35663,57.68806525,11.98131933,57.68805,11.98131,15:48:40.605412,0.00409,1.34576,-0.01218,0.05844,0.04459,-0.01696,0.01207,-0.18184,0.03044,1.02352,4.35239,1.31561,2.12683,2.14460,-1.23859,5.03188,4.26761,-1.19865,5.00377,A,154840.40
4.36666,57.68806525,11.98131933,57.68805,11.98131,15:48:40.615440,0.00375,1.34576,-0.01188,0.05799,0.04627,0.02031,0.00825,-0.10998,0.00634,0.98478,4.36267,1.31561,2.12683,2.14460,-1.23859,5.03188,4.26761,-1.19865,5.00377,A,154840.40
4.39120,57.68806525,11.98131933,57.68805,11.98130,15:48:40.639984,0.01789,1.34576,-0.01183,0.05759,0.04780,0.04062,0.00795,0.03123,-0.00970,0.90975,4.37338,1.31561,2.12683,2.14460,-1.23859,5.03188,4.38837,-1.31752,5.07790,A,154840.50
4.40419,57.68806610,11.98131797,57.68805,11.98130,15:48:40.652971,0.00680,1.34576,-0.01028,0.05685,0.05085,-0.00459,0.01329,-0.02757,0.03947,0.92830,4.39714,1.31863,2.17897,2.19586,-1.31903,5.12589,4.38837,-1.31752,5.07790,A,154840.50
4.41291,57.68806610,11.98131797,57.68805,11.98130,15:48:40.661693,0.00457,1.34576,-0.00911,0.05643,0.06048,-0.01451,0.01146,-0.06313,0.05124,0.99052,4.40889,1.31863,2.17897,2.19586,-1.31903,5.12589,4.38837,-1.31752,5.07790,A,154840.50
4.42226,57.68806610,11.98131797,57.68805,11.98130,15:48:40.671037,0.00352,1.34576,-0.00876,0.05592,0.06826,-0.00504,0.00520,0.00830,0.00268,0.96789,4.41808,1.31863,2.17897,2.19586,-1.31903,5.12589,4.38837,-1.31752,5.07790,A,154840.50
4.43307,57.68806610,11.98131797,57.68805,11.98130,15:48:40.681866,0.00393,1.34576,-0.00879,0.05513,0.06597,-0.01741,0.00077,-0.00207,-0.02629,0.98448,4.42877,1.31863,2.17897,2.19586,-1.31903,5.12589,4.38837,-1.31752,5.07790,A,154840.50
4.44304,57.68806610,11.98131797,57.68805,11.98130,15:48:40.691815,0.00351,1.34576,-0.00801,0.05433,0.06261,-0.01131,-0.00519,-0.08882,0.03257,1.09281,4.43907,1.31863,2.17897,2.19586,-1.31903,5.12589,4.38837,-1.31752,5.07790,A,154840.50
4.45345,57.68806610,11.98131797,57.68805,11.98130,15:48:40.702452,0.00336,1.34576,-0.00743,0.05349,0.06597,0.02550,-0.00580,-0.10096,0.01555,1.12301,4.44948,1.31863,2.17897,2.19586,-1.31903,5.12589,4.38837,-1.31752,5.07790,A,154840.50
4.46401,57.68806610,11.98131797,57.68805,11.98130,15:48:40.712785,0.00351,1.34576,-0.00630,0.05275,0.06949,0.04260,-0.00320,-0.01202,0.04782,0.96532,4.46004,1.31863,2.17897,2.19586,-1.31903,5.12589,4.38837,-1.31752,5.07790,A,154840.50
4.47443,57.68806610,11.98131797,57.68805,11.98130,15:48:40.723198,0.00353,1.34576,-0.00494,0.05210,0.06979,0.05436,-0.00580,0.00512,0.05856,0.85083,4.47024,1.31863,2.17897,2.19586,-1.31903,5.12589,4.38837,-1.31752,5.07790,A,154840.50
4.48481,57.68806610,11.98131797,57.68805,11.98130,15:48:40.733586,0.00352,1.34576,-0.00414,0.05156,0.07682,0.04917,0.00352,-0.04831,0.02056,0.78977,4.48085,1.31863,2.17897,2.19586,-1.31903,5.12589,4.38837,-1.31752,5.07790,A,154840.50
4.51966,57.68806610,11.98131797,57.68805,11.98130,15:48:40.768456,0.02781,1.34576,-0.00376,0.05116,0.07880,0.06169,0.00367,-0.14158,-0.00262,0.83137,4.49148,1.31863,2.17897,2.19586,-1.31903,5.12589,4.51708,-1.45621,5.28176,A,154840.70
4.53540,57.68806740,11.98131606,57.68805,11.98130,15:48:40.784186,0.00828,1.34576,-0.00162,0.05003,0.06139,0.01588,-0.01954,0.13737,0.02763,1.36908,4.52764,1.32134,2.18495,2.19981,-1.43298,5.27012,4.51708,-1.45621,5.28176,A,154840.70
4.54149,57.68806740,11.98131606,57.68805,11.98130,15:48:40.790500,0.00406,1.34576,-0.00030,0.04975,0.06552,-0.02917,-0.01970,0.02147,0.09681,1.36707,4.53752,1.32134,2.18495,2.19981,-1.43298,5.27012,4.51708,-1.45621,5.28176,A,154840.70
4.55140,57.68806740,11.98131606,57.68805,11.98130,15:48:40.800184,0.00357,1.35823,0.00048,0.04949,0.07315,-0.04857,-0.01679,0.03983,0.03691,1.16120,4.54742,1.32134,2.18495,2.19981,-1.43298,5.27012,4.51708,-1.45621,5.28176,A,154840.70
4.56223,57.68806740,11.98131606,57.68805,11.98130,15:48:40.811014,0.00416,1.35823,0.00070,0.04918,0.07315,-0.05529,-0.00687,-0.02849,-0.00543,0.93788,4.55803,1.32134,2.18495,2.19981,-1.43298,5.27012,4.51708,-1.45621,5.28176,A,154840.70
4.57225,57.68806740,11.98131606,57.68805,11.98130,15:48:40.821025,0.00359,1.35823,-0.00028,0.04876,0.07254,-0.04948,0.00871,-0.05990,-0.06069,0.73761,4.56829,1.32134,2.18495,2.19981,-1.43298,5.27012,4.51708,-1.45621,5.28176,A,154840.70
4.58260,57.68806740,11.98131606,57.68805,11.98130,15:48:40.831378,0.00353,1.35823,0.00080,0.04805,0.06322,-0.04414,0.01360,-0.12920,0.04386,0.70681,4.57841,1.32134,2.18495,2.19981,-1.43298,5.27012,4.51708,-1.45621,5.28176,A,154840.70
4.59333,57.68806740,11.98131606,57.68805,11.98130,15:48:40.842338,0.00387,1.35823,0.00211,0.04689,0.07025,-0.01237,0.02261,-0.23668,0.05575,0.82600,4.58936,1.32134,2.18495,2.19981,-1.43298,5.27012,4.51708,-1.45621,5.28176,A,154840.70
4.60343,57.68806740,11.98131606,57.68805,11.98130,15:48:40.852201,0.00356,1.35823,0.00427,0.04553,0.08094,0.02809,0.01604,-0.23564,0.12420,1.01949,4.59945,1.32134,2.18495,2.19981,-1.43298,5.27012,4.51708,-1.45621,5.28176,A,154840.70
4.61346,57.68806740,11.98131606,57.68805,11.98130,15:48:40.862471,0.00336,1.35823,0.00562,0.04406,0.09255,0.05345,0.01161,-0.02092,0.06930,1.14894,4.60950,1.32134,2.18495,2.19981,-1.43298,5.27012,4.51708,-1.45621,5.28176,A,154840.70
4.63815,57.68806740,11.98131606,57.68806,11.98130,15:48:40.886938,0.01765,1.35823,0.00547,0.04265,0.09270,0.02596,0.00001,0.18288,-0.04923,1.17132,4.62006,1.32134,2.18495,2.19981,-1.43298,5.27012,4.63568,-1.51564,5.37442,A,154840.80
4.65321,57.68806844,11.98131459,57.68806,11.98130,15:48:40.901990,0.00705,1.35823,0.00655,0.04015,0.05284,-0.03941,-0.01603,-0.07418,0.01366,0.94196,4.64638,1.32503,2.18609,2.19801,-1.52013,5.38617,4.63568,-1.51564,5.37442,A,154840.80
4.66009,57.68806844,11.98131459,57.68806,11.98130,15:48:40.908874,0.00353,1.35823,0.00830,0.03970,0.04933,-0.03116,-0.02550,-0.12352,0.09974,0.82820,4.65612,1.32503,2.18609,2.19801,-1.52013,5.38617,4.63568,-1.51564,5.37442,A,154840.80
4.67140,57.68806844,11.98131459,57.68806,11.98130,15:48:40.920183,0.00418,1.35823,0.00930,0.03945,0.05376,-0.02230,-0.02305,-0.04368,0.04965,0.75182,4.66719,1.32503,2.18609,2.19801,-1.52013,5.38617,4.63568,-1.51564,5.37442,A,154840.80
4.68152,57.68806844,11.98131459,57.68806,11.98130,15:48:40.930729,0.00368,1.35823,0.00983,0.03931,0.05727,-0.02994,-0.01557,-0.08876,0.02891,0.81893,4.67723,1.32503,2.18609,2.19801,-1.52013,5.38617,4.63568,-1.51564,5.37442,A,154840.80
4.69218,57.68806844,11.98131459,57.68806,11.98130,15:48:40.940950,0.00394,1.35823,0.01066,0.03908,0.05941,-0.00596,-0.01603,-0.12572,0.04526,0.89499,4.68819,1.32503,2.18609,2.19801,-1.52013,5.38617,4.63568,-1.51564,5.37442,A,154840.80
4.70231,57.68806844,11.98131459,57.68806,11.98130,15:48:40.951088,0.00383,1.35823,0.01074,0.03848,0.05024,0.02962,-0.01695,-0.12420,0.01068,1.02712,4.69810,1.32503,2.18609,2.19801,-1.52013,5.38617,4.63568,-1.51564,5.37442,A,154840.80
4.71242,57.68806844,11.98131459,57.68806,11.98130,15:48:40.961198,0.00355,1.35823,0.01108,0.03747,0.03925,0.05360,-0.02703,-0.04063,0.03697,1.11661,4.70846,1.32503,2.18609,2.19801,-1.52013,5.38617,4.63568,-1.51564,5.37442,A,154840.80
4.72281,57.68806844,11.98131459,57.68806,11.98130,15:48:40.971596,0.00354,1.35823,0.01117,0.03602,0.02795,0.05177,-0.03451,-0.00159,0.02928,1.20383,4.71883,1.32503,2.18609,2.19801,-1.52013,5.38617,4.63568,-1.51564,5.37442,A,154840.80
4.73319,57.68806844,11.98131459,57.68806,11.98130,15:48:40.981971,0.00335,1.35823,0.01229,0.03438,0.02489,0.03237,-0.03069,0.10492,0.11169,1.17754,4.72922,1.32503,2.18609,2.19801,-1.52013,5.38617,4.63568,-1.51564,5.37442,A,154840.80
4.75806,57.68806844,11.98131459,57.68806,11.98130,15:48:41.006851,0.01782,1.35823,0.01224,0.03280,0.02505,-0.02337,-0.02458,0.12786,0.01928,1.10123,4.73979,1.32503,2.18609,2.19801,-1.52013,5.38617,4.75546,-1.49583,5.50415,A,154840.90
4.77391,57.68806955,11.98131382,57.68806,11.98130,15:48:41.022720,0.00755,1.35823,0.01247,0.02931,-0.00015,-0.05300,-0.00962,-0.14579,0.04691,0.86650,4.76769,1.32835,2.11398,2.12268,-1.56577,5.50974,4.75546,-1.49583,5.50415,A,154840.90
4.78031,57.68806955,11.98131382,57.68806,11.98130,15:48:41.029079,0.00355,1.35823,0.01313,0.02818,-0.00794,-0.02016,-0.01450,-0.19099,0.07686,0.87730,4.77635,1.32835,2.11398,2.12268,-1.56577,5.50974,4.75546,-1.49583,5.50415,A,154840.90
4.79093,57.68806955,11.98131382,57.68806,11.98130,15:48:41.039726,0.00377,1.35823,0.01304,0.02677,-0.01298,0.01802,-0.01985,-0.10803,0.03569,0.85046,4.78671,1.32835,2.11398,2.12268,-1.56577,5.50974,4.75546,-1.49583,5.50415,A,154840.90
4.80109,57.68806955,11.98131382,57.68806,11.98130,15:48:41.049866,0.00353,1.35823,0.01293,0.02513,-0.02779,0.03023,-0.03756,-0.01812,0.04301,0.85254,4.79713,1.32835,2.11398,2.12268,-1.56577,5.50974,4.75546,-1.49583,5.50415,A,154840.90
4.81150,57.68806955,11.98131382,57.68806,11.98130,15:48:41.060274,0.00353,1.35823,0.01280,0.02337,-0.03176,0.03054,-0.04932,-0.03691,0.04703,0.92165,4.80753,1.32835,2.11398,2.12268,-1.56577,5.50974,4.75546,-1.49583,5.50415,A,154840.90
4.82176,57.68806955,11.98131382,57.68806,11.98130,15:48:41.070556,0.00337,1.35823,0.01291,0.02162,-0.02856,0.03649,-0.05696,-0.05575,0.06887,1.08305,4.81760,1.32835,2.11398,2.12268,-1.56577,5.50974,4.75546,-1.49583,5.50415,A,154840.90
4.83212,57.68806955,11.98131382,57.68806,11.98130,15:48:41.080892,0.00352,1.35823,0.01320,0.01995,-0.03299,0.03084,-0.05513,-0.02391,0.09711,1.22933,4.82815,1.32835,2.11398,2.12268,-1.56577,5.50974,4.75546,-1.49583,5.50415,A,154840.90
4.84252,57.68806955,11.98131382,57.68806,11.98130,15:48:41.091302,0.00353,1.35823,0.01238,0.01850,-0.03864,0.01786,-0.04978,-0.02056,0.01019,1.29375,4.83834,1.32835,2.11398,2.12268,-1.56577,5.50974,4.75546,-1.49583,5.50415,A,154840.90
4.85291,57.68806955,11.98131382,57.68806,11.98130,15:48:41.101687,0.00352,1.35823,0.01125,0.01717,-0.05452,-0.00046,-0.05039,0.10370,-0.00195,1.16205,4.84896,1.32835,2.11398,2.12268,-1.56577,5.50974,4.75546,-1.49583,5.50415,A,154840.90
4.87794,57.68806955,11.98131382,57.68806,11.98130,15:48:41.126736,0.01815,1.35823,0.01029,0.01593,-0.07834,-0.03208,-0.04352,0.15640,0.02190,0.93202,4.85924,1.32835,2.11398,2.12268,-1.56577,5.50974,4.87488,-1.49583,5.65241,A,154841.00
4.89243,57.68807077,11.98131348,57.68806,11.98130,15:48:41.141629,0.00767,1.35823,0.01020,0.01214,-0.07605,-0.03055,-0.03894,-0.25162,0.12371,0.76524,4.88569,1.33134,2.06292,2.06652,-1.58634,5.64564,4.87488,-1.49583,5.65241,A,154841.00
4.89859,57.68807077,11.98131348,57.68806,11.98130,15:48:41.147359,0.00361,1.35823,0.01042,0.01010,-0.08216,0.00610,-0.04520,-0.17129,0.07399,0.77708,4.89437,1.33134,2.06292,2.06652,-1.58634,5.64564,4.87488,-1.49583,5.65241,A,154841.00
4.90891,57.68807077,11.98131348,57.68806,11.98130,15:48:41.157689,0.00354,1.35823,0.00988,0.00752,-0.07773,0.03375,-0.05192,-0.13701,0.04892,0.97447,4.90495,1.33134,2.06292,2.06652,-1.58634,5.64564,4.87488,-1.49583,5.65241,A,154841.00
4.91920,57.68807077,11.98131348,57.68806,11.98130,15:48:41.167984,0.00343,1.35823,0.00836,0.00500,-0.08063,0.05192,-0.05665,0.09193,-0.01555,1.03694,4.91524,1.33134,2.06292,2.06652,-1.58634,5.64564,4.87488,-1.49583,5.65241,A,154841.00
4.92941,57.68807077,11.98131348,57.68806,11.98130,15:48:41.178407,0.00337,1.35823,0.00662,0.00268,-0.09056,0.02565,-0.05955,0.02653,-0.03044,1.19999,4.92544,1.33134,2.06292,2.06652,-1.58634,5.64564,4.87488,-1.49583,5.65241,A,154841.00
4.94046,57.68807077,11.98131348,57.68806,11.98130,15:48:41.189237,0.00374,1.35823,0.00600,0.00053,-0.10308,0.01557,-0.06261,-0.03227,0.07570,1.24428,4.93648,1.33134,2.06292,2.06652,-1.58634,5.64564,4.87488,-1.49583,5.65241,A,154841.00
4.95062,57.68807077,11.98131348,57.68806,11.98130,15:48:41.199387,0.00350,1.35823,0.00489,-0.00111,-0.09652,0.01114,-0.06520,0.03691,0.01775,1.10502,4.94645,1.33134,2.06292,2.06652,-1.58634,5.64564,4.87488,-1.49583,5.65241,A,154841.00
4.96106,57.68807077,11.98131348,57.68806,11.98130,15:48:41.209830,0.00355,1.35823,0.00387,-0.00247,-0.09362,-0.01604,-0.05864,0.01714,0.02111,0.93129,4.95709,1.33134,2.06292,2.06652,-1.58634,5.64564,4.87488,-1.49583,5.65241,A,154841.00
4.97145,57.68807077,11.98131348,57.68806,11.98130,15:48:41.220224,0.00353,1.35823,0.00263,-0.00346,-0.09667,-0.02810,-0.05543,-0.02629,0.00677,0.87694,4.96748,1.33134,2.06292,2.06652,-1.58634,5.64564,4.87488,-1.49583,5.65241,A,154841.00
5.00689,57.68807077,11.98131348,57.68806,11.98130,15:48:41.255676,0.02875,1.35823,0.00106,-0.00420,-0.09514,-0.02383,-0.05039,-0.08235,-0.01470,0.81673,4.97771,1.33134,2.06292,2.06652,-1.58634,5.64564,5.00437,-1.60480,5.81920,A,154841.20
5.02686,57.68807219,11.98131255,57.68806,11.98130,15:48:41.275673,0.01215,1.35823,0.00000,-0.00629,-0.09041,0.05375,-0.07437,-0.01513,0.00037,1.05274,5.01422,1.33403,2.07308,2.07121,-1.64157,5.80356,5.00437,-1.60480,5.81920,A,154841.20
5.04747,57.68807219,11.98131255,57.68806,11.98130,15:48:41.296271,0.00782,1.35823,-0.00253,-0.00771,-0.08430,0.01832,-0.08109,0.08815,0.00043,1.03962,5.04333,1.33403,2.07308,2.07121,-1.64157,5.80356,5.00437,-1.60480,5.81920,A,154841.20
5.05332,57.68807219,11.98131255,57.68806,11.98130,15:48:41.302327,0.00330,1.35823,-0.00299,-0.00785,-0.08888,-0.00642,-0.07498,0.01958,0.01726,1.00565,5.04940,1.33403,2.07308,2.07121,-1.64157,5.80356,5.00437,-1.60480,5.81920,A,154841.20
5.06396,57.68807219,11.98131255,57.68806,11.98130,15:48:41.312747,0.00355,1.35823,-0.00386,-0.00785,-0.07895,-0.00627,-0.06001,-0.11712,0.00903,1.04621,5.05996,1.33403,2.07308,2.07121,-1.64157,5.80356,5.00437,-1.60480,5.81920,A,154841.20
5.07489,57.68807219,11.98131255,57.68806,11.98130,15:48:41.323683,0.00409,1.39105,-0.00528,-0.00785,-0.07361,0.01756,-0.05238,-0.11120,-0.03032,0.97472,5.07088,1.33403,2.07308,2.07121,-1.64157,5.80356,5.00437,-1.60480,5.81920,A,154841.20
5.08494,57.68807219,11.98131255,57.68806,11.98130,15:48:41.333726,0.00363,1.39105,-0.00616,-0.00785,-0.07285,0.03222,-0.04963,-0.00525,-0.00165,0.86010,5.08095,1.33403,2.07308,2.07121,-1.64157,5.80356,5.00437,-1.60480,5.81920,A,154841.20
5.09575,57.68807219,11.98131255,57.68806,11.98130,15:48:41.344540,0.00382,1.39105,-0.00690,-0.00785,-0.07361,0.02290,-0.05039,-0.00549,0.00927,0.88322,5.09175,1.33403,2.07308,2.07121,-1.64157,5.80356,5.00437,-1.60480,5.81920,A,154841.20
5.11892,57.68807219,11.98131255,57.68806,11.98130,15:48:41.367708,0.01675,1.39105,-0.00736,-0.00785,-0.07743,0.02153,-0.05131,-0.04813,0.02653,0.96404,5.10157,1.33403,2.07308,2.07121,-1.64157,5.80356,5.11653,-1.63452,5.94893,A,154841.30
5.14288,57.68807345,11.98131184,57.68806,11.98130,15:48:41.391685,0.00800,1.39105,-0.00950,-0.00785,-0.07040,-0.00672,-0.06475,-0.02525,0.02342,1.11581,5.13534,1.33973,2.04466,2.04233,-1.68365,5.94382,5.11653,-1.63452,5.94893,A,154841.30
5.14941,57.68807345,11.98131184,57.68806,11.98130,15:48:41.398423,0.00343,1.39105,-0.01051,-0.00785,-0.06460,0.01084,-0.06811,-0.02696,-0.01940,1.04511,5.14546,1.33973,2.04466,2.04233,-1.68365,5.94382,5.11653,-1.63452,5.94893,A,154841.30
5.15993,57.68807345,11.98131184,57.68806,11.98130,15:48:41.408723,0.00356,1.39105,-0.01104,-0.00785,-0.06307,0.01389,-0.06017,-0.06277,0.01244,1.00345,5.15594,1.33973,2.04466,2.04233,-1.68365,5.94382,5.11653,-1.63452,5.94893,A,154841.30
5.17037,57.68807345,11.98131184,57.68806,11.98130,15:48:41.419160,0.00360,1.39105,-0.01116,-0.00785,-0.05238,0.03084,-0.05070,-0.13127,0.03026,0.97496,5.16615,1.33973,2.04466,2.04233,-1.68365,5.94382,5.11653,-1.63452,5.94893,A,154841.30
5.18072,57.68807345,11.98131184,57.68806,11.98130,15:48:41.429500,0.00355,1.39105,-0.01164,-0.00785,-0.04215,0.04169,-0.03680,-0.03684,-0.00037,0.84296,5.17673,1.33973,2.04466,2.04233,-1.68365,5.94382,5.11653,-1.63452,5.94893,A,154841.30
5.19126,57.68807345,11.98131184,57.68806,11.98130,15:48:41.440044,0.00369,1.39105,-0.01156,-0.00782,-0.04581,0.03008,-0.03115,-0.00152,0.03355,0.84802,5.18726,1.33973,2.04466,2.04233,-1.68365,5.94382,5.11653,-1.63452,5.94893,A,154841.30
5.20152,57.68807345,11.98131184,57.68806,11.98130,15:48:41.450522,0.00350,1.39105,-0.01174,-0.00759,-0.03070,0.01710,-0.02290,-0.05350,0.01110,0.97106,5.19752,1.33973,2.04466,2.04233,-1.68365,5.94382,5.11653,-1.63452,5.94893,A,154841.30
5.21190,57.68807345,11.98131184,57.68806,11.98130,15:48:41.460693,0.00364,1.39105,-0.01208,-0.00691,-0.03436,0.01527,-0.01802,0.00701,0.00543,1.02864,5.20790,1.33973,2.04466,2.04233,-1.68365,5.94382,5.11653,-1.63452,5.94893,A,154841.30
5.23551,57.68807345,11.98131184,57.68806,11.98130,15:48:41.484298,0.01685,1.39105,-0.01252,-0.00575,-0.02428,0.00687,-0.01832,0.04215,-0.00945,1.06372,5.21801,1.33973,2.04466,2.04233,-1.68365,5.94382,5.23312,-1.68405,6.02306,A,154841.40
5.24902,57.68807442,11.98131119,57.68806,11.98130,15:48:41.497817,0.00553,1.39105,-0.01350,-0.00105,-0.03864,0.00855,-0.03695,0.02287,0.00677,1.03340,5.24318,1.34486,2.05540,2.05509,-1.72225,6.05089,5.23312,-1.68405,6.02306,A,154841.40
5.25799,57.68807442,11.98131119,57.68806,11.98130,15:48:41.507718,0.00398,1.39105,-0.01367,0.00155,-0.03986,-0.00535,-0.04153,0.02824,0.02202,0.86718,5.25384,1.34486,2.05540,2.05509,-1.72225,6.05089,5.23312,-1.68405,6.02306,A,154841.40
5.26824,57.68807442,11.98131119,57.68806,11.98130,15:48:41.517030,0.00361,1.39105,-0.01366,0.00410,-0.03329,-0.02642,-0.03940,-0.01555,0.02928,0.84223,5.26424,1.34486,2.05540,2.05509,-1.72225,6.05089,5.23312,-1.68405,6.02306,A,154841.40
5.27859,57.68807442,11.98131119,57.68806,11.98130,15:48:41.527380,0.00356,1.39105,-0.01443,0.00653,-0.02703,-0.02520,-0.03512,-0.03135,-0.01751,0.86492,5.27439,1.34486,2.05540,2.05509,-1.72225,6.05089,5.23312,-1.68405,6.02306,A,154841.40
5.28898,57.68807442,11.98131119,57.68806,11.98130,15:48:41.537774,0.00371,1.39105,-0.01534,0.00888,-0.02566,-0.02887,-0.02703,0.02355,-0.02281,0.81642,5.28498,1.34486,2.05540,2.05509,-1.72225,6.05089,5.23312,-1.68405,6.02306,A,154841.40
5.29938,57.68807442,11.98131119,57.68806,11.98130,15:48:41.548177,0.00384,1.39105,-0.01658,0.01089,-0.02092,-0.04872,-0.01756,0.11663,-0.04136,0.79770,5.29537,1.34486,2.05540,2.05509,-1.72225,6.05089,5.23312,-1.68405,6.02306,A,154841.40
5.30941,57.68807442,11.98131119,57.68806,11.98130,15:48:41.558415,0.00338,1.39105,-0.01755,0.01267,-0.02749,-0.08400,-0.00397,0.16324,-0.02342,0.79013,5.30541,1.34486,2.05540,2.05509,-1.72225,6.05089,5.23312,-1.68405,6.02306,A,154841.40
5.31996,57.68807442,11.98131119,57.68806,11.98130,15:48:41.568745,0.00354,1.39105,-0.01857,0.01412,-0.02016,-0.12997,0.00077,0.09632,-0.03282,0.87590,5.31597,1.34486,2.05540,2.05509,-1.72225,6.05089,5.23312,-1.68405,6.02306,A,154841.40
5.33092,57.68807442,11.98131119,57.68806,11.98130,15:48:41.579712,0.00410,1.39105,-0.01856,0.01525,-0.02474,-0.12966,0.00260,-0.32281,0.03892,1.30570,5.32691,1.34486,2.05540,2.05509,-1.72225,6.05089,5.23312,-1.68405,6.02306,A,154841.40
5.35488,57.68807442,11.98131119,57.68806,11.98130,15:48:41.603670,0.01766,1.39105,-0.01819,0.01601,0.00321,-0.05193,-0.00229,-0.32702,0.04874,1.44100,5.33677,1.34486,2.05540,2.05509,-1.72225,6.05089,5.35247,-1.74348,6.13425,A,154841.50
5.37144,57.68807549,11.98131029,57.68806,11.98130,15:48:41.620236,0.00763,1.39105,-0.01968,0.01703,-0.01405,0.03359,-0.03252,0.25260,-0.05826,1.01870,5.36525,1.34948,2.05590,2.06096,-1.77593,6.17013,5.35247,-1.74348,6.13425,A,154841.50
5.37816,57.68807549,11.98131029,57.68806,11.98130,15:48:41.626956,0.00365,1.39105,-0.01850,0.01751,-0.03329,-0.01070,-0.02611,0.07991,0.08839,0.74792,5.37400,1.34948,2.05590,2.06096,-1.77593,6.17013,5.35247,-1.74348,6.13425,A,154841.50
5.38889,57.68807549,11.98131029,57.68806,11.98130,15:48:41.637684,0.00399,1.39105,-0.01531,0.01836,-0.02718,-0.04506,-0.01832,-0.18410,0.20148,0.78397,5.38467,1.34948,2.05590,2.06096,-1.77593,6.17013,5.35247,-1.74348,6.13425,A,154841.50
5.39988,57.68807549,11.98131029,57.68806,11.98130,15:48:41.648667,0.00426,1.39105,-0.01345,0.01947,-0.00321,-0.00123,-0.00045,-0.58011,0.12529,0.82814,5.39586,1.34948,2.05590,2.06096,-1.77593,6.17013,5.35247,-1.74348,6.13425,A,154841.50
5.40946,57.68807549,11.98131029,57.68806,11.98130,15:48:41.658473,0.00343,1.39105,-0.01498,0.02051,0.00764,0.05390,-0.00442,-0.08540,-0.08046,0.97161,5.40541,1.34948,2.05590,2.06096,-1.77593,6.17013,5.35247,-1.74348,6.13425,A,154841.50
5.41997,57.68807549,11.98131029,57.68806,11.98130,15:48:41.668760,0.00354,1.39105,-0.01505,0.02136,-0.00428,0.09896,0.00291,0.07399,0.02043,0.92385,5.41598,1.34948,2.05590,2.06096,-1.77593,6.17013,5.35247,-1.74348,6.13425,A,154841.50
5.43040,57.68807549,11.98131029,57.68806,11.98130,15:48:41.679190,0.00358,1.39105,-0.01608,0.02184,-0.02291,0.07299,-0.00870,0.35905,-0.03148,1.03120,5.42618,1.34948,2.05590,2.06096,-1.77593,6.17013,5.35247,-1.74348,6.13425,A,154841.50
5.44067,57.68807549,11.98131029,57.68806,11.98130,15:48:41.689451,0.00356,1.39105,-0.01793,0.02207,-0.01710,0.01649,-0.00824,0.05283,-0.09705,1.07311,5.43666,1.34948,2.05590,2.06096,-1.77593,6.17013,5.35247,-1.74348,6.13425,A,154841.50
5.45105,57.68807549,11.98131029,57.68806,11.98130,15:48:41.699834,0.00353,1.39105,-0.01913,0.02210,-0.02306,0.01084,-0.01908,-0.08101,-0.04898,1.08305,5.44705,1.34948,2.05590,2.06096,-1.77593,6.17013,5.35247,-1.74348,6.13425,A,154841.50
5.47559,57.68807549,11.98131029,57.68806,11.98130,15:48:41.724387,0.01758,1.39105,-0.01864,0.02210,-0.01634,-0.00902,-0.01908,-0.07076,0.06429,1.02559,5.45738,1.34948,2.05590,2.06096,-1.77593,6.17013,5.47306,-1.78311,6.26398,A,154841.60
5.49169,57.68807658,11.98130949,57.68806,11.98130,15:48:41.740484,0.00746,1.39105,-0.01970,0.02210,-0.00993,-0.02612,-0.01374,0.01848,-0.02477,0.83332,5.48479,1.35364,2.03900,2.04556,-1.82355,6.29153,5.47306,-1.78311,6.26398,A,154841.60
5.49814,57.68807658,11.98130949,57.68806,11.98130,15:48:41.747095,0.00349,1.39105,-0.02286,0.02210,-0.01145,-0.03421,-0.01175,0.17409,-0.15976,0.86425,5.49399,1.35364,2.03900,2.04556,-1.82355,6.29153,5.47306,-1.78311,6.26398,A,154841.60
5.50907,57.68807658,11.98130949,57.68806,11.98130,15:48:41.757863,0.00403,1.39105,-0.02424,0.02210,-0.02611,-0.04002,-0.01252,-0.13993,-0.04965,0.89615,5.50507,1.35364,2.03900,2.04556,-1.82355,6.29153,5.47306,-1.78311,6.26398,A,154841.60
5.51891,57.68807658,11.98130949,57.68806,11.98130,15:48:41.767694,0.00347,1.39105,-0.02415,0.02210,-0.02184,-0.00077,-0.01084,-0.30726,0.03508,1.04444,5.51498,1.35364,2.03900,2.04556,-1.82355,6.29153,5.47306,-1.78311,6.26398,A,154841.60
5.52932,57.68807658,11.98130949,57.68806,11.98130,15:48:41.778312,0.00336,1.39105,-0.02422,0.02210,-0.00977,0.04795,-0.01527,-0.22558,0.01616,1.07378,5.52534,1.35364,2.03900,2.04556,-1.82355,6.29153,5.47306,-1.78311,6.26398,A,154841.60
5.53992,57.68807658,11.98130949,57.68806,11.98130,15:48:41.788705,0.00355,1.39105,-0.02381,0.02210,-0.00611,0.06276,-0.02473,0.05185,0.04721,1.05225,5.53593,1.35364,2.03900,2.04556,-1.82355,6.29153,5.47306,-1.78311,6.26398,A,154841.60
5.55063,57.68807658,11.98130949,57.68806,11.98130,15:48:41.799424,0.00362,1.39105,-0.02524,0.02210,-0.01069,0.02840,-0.03023,0.28152,-0.07241,0.98564,5.54641,1.35364,2.03900,2.04556,-1.82355,6.29153,5.47306,-1.78311,6.26398,A,154841.60
5.56092,57.68807658,11.98130949,57.68806,11.98130,15:48:41.809704,0.00352,1.39105,-0.02576,0.02210,-0.01863,-0.03437,-0.02489,0.10541,-0.00994,1.06073,5.55694,1.35364,2.03900,2.04556,-1.82355,6.29153,5.47306,-1.78311,6.26398,A,154841.60
5.57124,57.68807658,11.98130949,57.68806,11.98130,15:48:41.820028,0.00344,1.39105,-0.02649,0.02210,-0.01237,-0.04261,-0.02260,-0.17123,-0.03428,1.14564,5.56724,1.35364,2.03900,2.04556,-1.82355,6.29153,5.47306,-1.78311,6.26398,A,154841.60
5.60743,57.68807658,11.98130949,57.68807,11.98129,15:48:41.856222,0.02937,1.39105,-0.02679,0.02210,-0.02214,-0.01192,-0.02061,-0.25498,0.00604,1.08086,5.57744,1.35364,2.03900,2.04556,-1.82355,6.29153,5.60500,-1.90198,6.52344,A,154841.80
5.62040,57.68807824,11.98130817,57.68807,11.98129,15:48:41.869193,0.00683,1.40884,-0.02672,0.02210,0.00428,0.00763,-0.00076,0.00976,0.00775,0.85699,5.61400,1.35916,2.03794,2.04450,-1.90184,6.47559,5.60500,-1.90198,6.52344,A,154841.80
5.62809,57.68807824,11.98130817,57.68807,11.98129,15:48:41.876883,0.00404,1.40884,-0.02721,0.02210,0.01374,0.00290,0.00352,-0.06173,-0.02733,0.93861,5.62377,1.35916,2.03794,2.04450,-1.90184,6.47559,5.60500,-1.90198,6.52344,A,154841.80
5.63788,57.68807824,11.98130817,57.68807,11.98129,15:48:41.886677,0.00360,1.40884,-0.02695,0.02210,0.01405,0.00519,-0.00152,-0.12700,0.01982,1.01284,5.63368,1.35916,2.03794,2.04450,-1.90184,6.47559,5.60500,-1.90198,6.52344,A,154841.80
5.64821,57.68807824,11.98130817,57.68807,11.98129,15:48:41.896994,0.00354,1.40884,-0.02786,0.02210,0.02474,0.01970,-0.00259,-0.13420,-0.07277,1.07085,5.64423,1.35916,2.03794,2.04450,-1.90184,6.47559,5.60500,-1.90198,6.52344,A,154841.80
5.65860,57.68807824,11.98130817,57.68807,11.98129,15:48:41.907389,0.00353,1.40884,-0.02780,0.02210,0.02459,0.02687,-0.00351,0.00482,-0.00293,1.08092,5.65441,1.35916,2.03794,2.04450,-1.90184,6.47559,5.60500,-1.90198,6.52344,A,154841.80
5.66897,57.68807824,11.98130817,57.68807,11.98129,15:48:41.917754,0.00351,1.40884,-0.02807,0.02213,0.02978,0.00885,-0.00488,0.09754,-0.03044,1.04426,5.66498,1.35916,2.03794,2.04450,-1.90184,6.47559,5.60500,-1.90198,6.52344,A,154841.80
5.67942,57.68807824,11.98130817,57.68807,11.98129,15:48:41.928212,0.00357,1.40884,-0.02800,0.02238,0.02947,-0.00947,-0.00152,0.03587,-0.00537,1.03029,5.67542,1.35916,2.03794,2.04450,-1.90184,6.47559,5.60500,-1.90198,6.52344,A,154841.80
5.69007,57.68807824,11.98130817,57.68807,11.98129,15:48:41.938867,0.00399,1.40884,-0.02779,0.02312,0.03589,-0.02077,0.00153,-0.11621,0.00049,1.01449,5.68569,1.35916,2.03794,2.04450,-1.90184,6.47559,5.60500,-1.90198,6.52344,A,154841.80
5.70017,57.68807824,11.98130817,57.68807,11.98129,15:48:41.948962,0.00369,1.40884,-0.02701,0.02422,0.04505,-0.01008,0.00779,-0.12426,0.03331,0.96441,5.69618,1.35916,2.03794,2.04450,-1.90184,6.47559,5.60500,-1.90198,6.52344,A,154841.80
5.72410,57.68807824,11.98130817,57.68807,11.98129,15:48:41.972891,0.01723,1.40884,-0.02650,0.02549,0.04765,0.00305,0.00703,-0.07662,0.01696,0.87755,5.70622,1.35916,2.03794,2.04450,-1.90184,6.47559,5.72184,-1.92179,6.61610,A,154841.90
5.73910,57.68807950,11.98130731,57.68807,11.98129,15:48:41.987909,0.00779,1.40884,-0.02496,0.02889,0.04551,0.03008,0.00504,-0.00897,0.04081,0.97508,5.73243,1.36413,2.01481,2.02339,-1.95301,6.61604,5.72184,-1.92179,6.61610,A,154841.90
5.74616,57.68807950,11.98130731,57.68807,11.98129,15:48:41.994947,0.00429,1.40884,-0.02507,0.03045,0.05208,0.03207,0.00153,-0.03172,-0.01873,0.98186,5.74202,1.36413,2.01481,2.02339,-1.95301,6.61604,5.72184,-1.92179,6.61610,A,154841.90
5.75583,57.68807950,11.98130731,57.68807,11.98129,15:48:42.004614,0.00356,1.40884,-0.02448,0.03181,0.05360,0.02840,0.00138,-0.05222,0.02562,1.01498,5.75184,1.36413,2.01481,2.02339,-1.95301,6.61604,5.72184,-1.92179,6.61610,A,154841.90
5.76622,57.68807950,11.98130731,57.68807,11.98129,15:48:42.015017,0.00356,1.40884,-0.02357,0.03333,0.04795,0.02290,-0.00183,-0.09906,0.05374,1.08043,5.76200,1.36413,2.01481,2.02339,-1.95301,6.61604,5.72184,-1.92179,6.61610,A,154841.90
5.77659,57.68807950,11.98130731,57.68807,11.98129,15:48:42.025376,0.00354,1.40884,-0.02204,0.03506,0.05345,0.03039,0.00336,-0.05679,0.09437,1.08171,5.77260,1.36413,2.01481,2.02339,-1.95301,6.61604,5.72184,-1.92179,6.61610,A,154841.90
5.78700,57.68807950,11.98130731,57.68807,11.98129,15:48:42.035787,0.00355,1.40884,-0.02131,0.03679,0.06154,0.02107,0.00886,0.06008,0.03550,1.04505,5.78300,1.36413,2.01481,2.02339,-1.95301,6.61604,5.72184,-1.92179,6.61610,A,154841.90
5.79788,57.68807950,11.98130731,57.68807,11.98129,15:48:42.046688,0.00363,1.40884,-0.02095,0.03868,0.06506,0.00641,0.01115,0.07576,0.00891,0.97051,5.79368,1.36413,2.01481,2.02339,-1.95301,6.61604,5.72184,-1.92179,6.61610,A,154841.90
5.80818,57.68807950,11.98130731,57.68807,11.98129,15:48:42.056971,0.00354,1.40884,-0.02119,0.04061,0.05803,-0.01772,0.01360,-0.02623,-0.01793,0.89713,5.80419,1.36413,2.01481,2.02339,-1.95301,6.61604,5.72184,-1.92179,6.61610,A,154841.90
5.81858,57.68807950,11.98130731,57.68807,11.98129,15:48:42.067371,0.00355,1.40884,-0.02038,0.04239,0.05055,-0.01222,0.01176,-0.15409,0.05185,0.91884,5.81438,1.36413,2.01481,2.02339,-1.95301,6.61604,5.72184,-1.92179,6.61610,A,154841.90
5.84234,57.68807950,11.98130731,57.68807,11.98129,15:48:42.091135,0.01691,1.40884,-0.02038,0.04420,0.05467,0.01145,0.01512,-0.11956,0.00092,0.90957,5.82497,1.36413,2.01481,2.02339,-1.95301,6.61604,5.83994,-1.98123,6.72729,A,154842.00
5.85602,57.68808066,11.98130643,57.68807,11.98129,15:48:42.104821,0.00749,1.40884,-0.01962,0.04819,0.04627,-0.01635,0.02581,0.04117,0.01623,1.00131,5.84898,1.36860,2.02276,2.03708,-2.00523,6.74472,5.83994,-1.98123,6.72729,A,154842.00
5.86243,57.68808066,11.98130643,57.68807,11.98129,15:48:42.111219,0.00350,1.40884,-0.01890,0.04986,0.05391,-0.02490,0.03116,-0.07033,0.05832,1.15479,5.85829,1.36860,2.02276,2.03708,-2.00523,6.74472,5.83994,-1.98123,6.72729,A,154842.00
5.87356,57.68808066,11.98130643,57.68807,11.98129,15:48:42.122571,0.00423,1.40884,-0.01796,0.05148,0.06704,-0.01176,0.03131,-0.04618,0.06167,1.16559,5.86887,1.36860,2.02276,2.03708,-2.00523,6.74472,5.83994,-1.98123,6.72729,A,154842.00
5.88343,57.68808066,11.98130643,57.68807,11.98129,15:48:42.132220,0.00371,1.40884,-0.01837,0.05289,0.06781,-0.01146,0.03177,-0.11413,-0.04050,1.17035,5.87923,1.36860,2.02276,2.03708,-2.00523,6.74472,5.83994,-1.98123,6.72729,A,154842.00
5.89353,57.68808066,11.98130643,57.68807,11.98129,15:48:42.142550,0.00339,1.40884,-0.01839,0.05419,0.05330,-0.00123,0.02795,-0.01629,0.00531,1.07012,5.88954,1.36860,2.02276,2.03708,-2.00523,6.74472,5.83994,-1.98123,6.72729,A,154842.00
5.90407,57.68808066,11.98130643,57.68807,11.98129,15:48:42.152853,0.00353,1.40884,-0.01896,0.05544,0.05513,-0.00825,0.02948,0.05917,-0.02483,0.93562,5.90008,1.36860,2.02276,2.03708,-2.00523,6.74472,5.83994,-1.98123,6.72729,A,154842.00
5.91449,57.68808066,11.98130643,57.68807,11.98129,15:48:42.163285,0.00356,1.40884,-0.01821,0.05663,0.04184,-0.04002,0.03376,-0.03239,0.06509,0.87309,5.91028,1.36860,2.02276,2.03708,-2.00523,6.74472,5.83994,-1.98123,6.72729,A,154842.00
5.92485,57.68808066,11.98130643,57.68807,11.98129,15:48:42.173638,0.00353,1.40884,-0.01675,0.05779,0.05574,-0.03818,0.03467,-0.12261,0.10272,0.92818,5.92087,1.36860,2.02276,2.03708,-2.00523,6.74472,5.83994,-1.98123,6.72729,A,154842.00
5.93523,57.68808066,11.98130643,57.68807,11.98129,15:48:42.184020,0.00351,1.40884,-0.01613,0.05878,0.05727,-0.01497,0.04414,-0.19136,0.05331,0.99863,5.93124,1.36860,2.02276,2.03708,-2.00523,6.74472,5.83994,-1.98123,6.72729,A,154842.00
5.95881,57.68808066,11.98130643,57.68807,11.98129,15:48:42.207603,0.01678,1.40884,-0.01564,0.05960,0.06200,0.01618,0.03712,-0.09107,0.04288,1.01358,5.94142,1.36860,2.02276,2.03708,-2.00523,6.74472,5.95639,-2.01095,6.87555,A,154842.10
5.97425,57.68808189,11.98130567,57.68807,11.98129,15:48:42.223046,0.00681,1.40884,-0.01509,0.06067,0.03848,-0.00856,0.03742,0.00586,0.02306,0.97399,5.96809,1.37262,2.00292,2.02094,-2.05039,6.88223,5.95639,-2.01095,6.87555,A,154842.10
5.98129,57.68808189,11.98130567,57.68807,11.98129,15:48:42.230312,0.00332,1.40884,-0.01493,0.06084,0.03497,-0.02261,0.03299,-0.02928,0.04343,1.01864,5.97737,1.37262,2.00292,2.02094,-2.05039,6.88223,5.95639,-2.01095,6.87555,A,154842.10
5.99205,57.68808189,11.98130567,57.68807,11.98129,15:48:42.240836,0.00368,1.40884,-0.01343,0.06093,0.03268,-0.04979,0.03620,-0.02568,0.13664,1.06573,5.98806,1.37262,2.00292,2.02094,-2.05039,6.88223,5.95639,-2.01095,6.87555,A,154842.10
6.00236,57.68808189,11.98130567,57.68807,11.98129,15:48:42.251145,0.00358,1.40884,-0.01377,0.06099,0.05055,-0.06888,0.03055,-0.07613,-0.00232,1.04743,5.99812,1.37262,2.00292,2.02094,-2.05039,6.88223,5.95639,-2.01095,6.87555,A,154842.10
6.01271,57.68808189,11.98130567,57.68807,11.98129,15:48:42.261492,0.00353,1.40884,-0.01422,0.06099,0.03955,-0.05895,0.03253,-0.12426,-0.00360,1.02639,6.00872,1.37262,2.00292,2.02094,-2.05039,6.88223,5.95639,-2.01095,6.87555,A,154842.10
6.02312,57.68808189,11.98130567,57.68807,11.98129,15:48:42.271901,0.00353,1.40884,-0.01443,0.06099,0.03955,-0.02749,0.03269,-0.08345,0.01623,0.93440,6.01912,1.37262,2.00292,2.02094,-2.05039,6.88223,5.95639,-2.01095,6.87555,A,154842.10
6.03338,57.68808189,11.98130567,57.68807,11.98129,15:48:42.282437,0.00336,1.40884,-0.01548,0.06099,0.01802,-0.00092,0.02551,-0.07052,-0.02348,0.94032,6.02939,1.37262,2.00292,2.02094,-2.05039,6.88223,5.95639,-2.01095,6.87555,A,154842.10
6.04396,57.68808189,11.98130567,57.68807,11.98129,15:48:42.292740,0.00354,1.40884,-0.01561,0.06099,0.02734,0.00778,0.02429,-0.07107,0.02769,0.94282,6.03997,1.37262,2.00292,2.02094,-2.05039,6.88223,5.95639,-2.01095,6.87555,A,154842.10
6.05437,57.68808189,11.98130567,57.68807,11.98129,15:48:42.303160,0.00357,1.40884,-0.01532,0.06099,0.01313,0.00503,0.01986,-0.04740,0.06313,0.93611,6.05016,1.37262,2.00292,2.02094,-2.05039,6.88223,5.95639,-2.01095,6.87555,A,154842.10
6.07828,57.68808189,11.98130567,57.68807,11.98129,15:48:42.327073,0.01708,1.40884,-0.01481,0.06099,0.02642,0.00595,0.02261,-0.07912,0.06698,0.89798,6.06075,1.37262,2.00292,2.02094,-2.05039,6.88223,6.07571,-2.05057,7.00528,A,154842.20
6.09311,57.68808311,11.98130497,57.68807,11.98129,15:48:42.341908,0.00782,1.40884,-0.01464,0.06099,0.02734,0.01420,0.02383,-0.03471,0.01952,1.06408,6.08566,1.37624,1.99636,2.01448,-2.09194,7.01728,6.07571,-2.05057,7.00528,A,154842.20
6.09932,57.68808311,11.98130497,57.68807,11.98129,15:48:42.348107,0.00361,1.40884,-0.01562,0.06099,0.01939,0.01740,0.02948,-0.05948,-0.03257,1.12338,6.09524,1.37624,1.99636,2.01448,-2.09194,7.01728,6.07571,-2.05057,7.00528,A,154842.20
6.10940,57.68808311,11.98130497,57.68807,11.98129,15:48:42.358411,0.00336,1.41457,-0.01609,0.06099,0.01206,0.01618,0.03070,-0.06661,0.00891,1.16059,6.10542,1.37624,1.99636,2.01448,-2.09194,7.01728,6.07571,-2.05057,7.00528,A,154842.20
6.11997,57.68808311,11.98130497,57.68807,11.98129,15:48:42.368754,0.00354,1.41457,-0.01561,0.06099,0.00702,0.01359,0.02872,-0.02178,0.08406,1.12496,6.11598,1.37624,1.99636,2.01448,-2.09194,7.01728,6.07571,-2.05057,7.00528,A,154842.20
6.13040,57.68808311,11.98130497,57.68807,11.98129,15:48:42.379189,0.00357,1.41457,-0.01588,0.06099,0.01115,0.00549,0.02963,0.00403,0.02782,1.00821,6.12619,1.37624,1.99636,2.01448,-2.09194,7.01728,6.07571,-2.05057,7.00528,A,154842.20
6.14076,57.68808311,11.98130497,57.68807,11.98129,15:48:42.389543,0.00353,1.41457,-0.01587,0.06099,0.01772,-0.00703,0.02490,0.00793,0.04240,0.88169,6.13677,1.37624,1.99636,2.01448,-2.09194,7.01728,6.07571,-2.05057,7.00528,A,154842.20
6.15115,57.68808311,11.98130497,57.68807,11.98129,15:48:42.399941,0.00353,1.41457,-0.01625,0.06099,0.01161,-0.01421,0.02963,-0.12554,0.02355,0.87504,6.14716,1.37624,1.99636,2.01448,-2.09194,7.01728,6.07571,-2.05057,7.00528,A,154842.20
6.16138,57.68808311,11.98130497,57.68807,11.98129,15:48:42.410370,0.00337,1.41457,-0.01681,0.06099,0.00993,0.01405,0.02810,-0.18672,0.01501,0.84875,6.15739,1.37624,1.99636,2.01448,-2.09194,7.01728,6.07571,-2.05057,7.00528,A,154842.20
6.17196,57.68808311,11.98130497,57.68807,11.98129,15:48:42.420746,0.00355,1.41457,-0.01774,0.06099,0.00489,0.04780,0.02291,-0.10614,-0.00561,0.87407,6.16798,1.37624,1.99636,2.01448,-2.09194,7.01728,6.07571,-2.05057,7.00528,A,154842.20
6.20691,57.68808311,11.98130497,57.68807,11.98129,15:48:42.455703,0.02812,1.41457,-0.01786,0.06099,0.00092,0.06536,0.01512,0.00384,0.04343,0.89542,6.17815,1.37624,1.99636,2.01448,-2.09194,7.01728,6.20450,-2.17935,7.26474,A,154842.40
6.22084,57.68808483,11.98130364,57.68807,11.98129,15:48:42.469639,0.00678,1.41457,-0.01796,0.06099,0.01436,-0.01085,0.01558,-0.06612,0.00323,1.22567,6.21357,1.38008,2.00762,2.02574,-2.17106,7.20917,6.20450,-2.17935,7.26474,A,154842.40
