Time,lat_estimated,lon_estimated,latitude,longitude,RealTime,CalculationTime,MeasuredVelocity,FilteredVelocity,Roll,SteeringAngle,RollRate,gy,gz,ax,ay,az,imu_read_timing,v_estimated,yaw_estimated,heading_estimated,x_estimated,y_estimated,GPS_timestamp,x_GPS,y_GPS,theta_GPS,theta_GPS_noUnwrap,status,NMEA timestamp
0.07748,57.68782833,11.98134467,57.68782833,11.98134467,12:42:00.180516,0.07744,0.00000,1.50000,-0.00084,0.03994,-0.00543,-0.00605,-0.01633,-0.03422,-0.02129,1.00931,0.00001,0.00000,-0.02323,0.00000,0.00000,0.00000,0.01453,0.00000,0.00000,0.00000,0.00000,A,124200.00
0.09203,57.68782833,11.98134467,57.68782833,11.98134467,12:42:00.195063,0.00689,0.00000,0.00000,-0.00353,0.03671,-0.02086,0.00464,-0.01862,0.02263,-0.03196,0.97332,0.08499,0.00000,-0.02295,-0.00160,0.00000,0.00000,0.01453,0.00000,0.00000,0.00000,0.00000,A,124200.00
0.10092,57.68782833,11.98134467,57.68782833,11.98134467,12:42:00.203944,0.00523,0.00000,0.00000,-0.00519,0.03614,-0.03002,0.00342,-0.01602,0.01513,-0.06191,0.98704,0.09520,0.00000,-0.02266,-0.00164,0.00000,0.00000,0.01453,0.00000,0.00000,0.00000,0.00000,A,124200.00
0.11117,57.68782833,11.98134467,57.68782833,11.98134467,12:42:00.214191,0.00508,0.00000,0.00000,-0.00706,0.03555,-0.02544,-0.00055,-0.01388,-0.00628,-0.08381,1.02468,0.10576,0.00000,-0.02236,-0.00169,0.00000,0.00000,0.01453,0.00000,0.00000,0.00000,0.00000,A,124200.00
0.16243,57.68782833,11.98134467,57.68782883,11.98134400,12:42:00.265498,0.04594,0.00000,1.50000,-0.00810,0.03487,-0.03368,0.00082,-0.01862,-0.02544,-0.02336,1.03157,0.11594,0.00000,-0.02205,-0.00177,0.00000,0.00000,0.13258,-0.03962,0.05560,2.19000,2.19000,A,124200.10
0.17848,57.68782836,11.98134463,57.68782883,11.98134400,12:42:00.281501,0.00645,0.00000,0.00000,-0.01186,0.02941,-0.04132,-0.00208,-0.02641,-0.01848,-0.07369,0.98423,0.17229,0.00000,0.30719,0.32430,-0.00198,0.00278,0.13258,-0.03962,0.05560,2.19000,2.19000,A,124200.10
0.18779,57.68782838,11.98134460,57.68782883,11.98134400,12:42:00.290822,0.00536,0.00000,0.00000,-0.01303,0.02853,-0.04376,-0.00361,-0.02610,-0.02043,-0.03026,0.99338,0.18211,0.00000,0.58713,0.60372,-0.00386,0.00542,0.13258,-0.03962,0.05560,2.19000,2.19000,A,124200.10
0.19792,57.68782840,11.98134457,57.68782883,11.98134400,12:42:00.300940,0.00509,0.00000,0.00000,-0.01434,0.02782,-0.04773,0.00204,-0.02564,0.00384,-0.03678,0.98667,0.19228,0.00000,0.82513,0.84131,-0.00565,0.00793,0.13258,-0.03962,0.05560,2.19000,2.19000,A,124200.10
0.20862,57.68782843,11.98134454,57.68782883,11.98134400,12:42:00.311642,0.00539,0.00000,0.00000,-0.01603,0.02717,-0.04758,-0.00009,-0.02366,0.01336,-0.05984,0.95520,0.20290,0.00000,1.02749,1.04329,-0.00735,0.01031,0.13258,-0.03962,0.05560,2.19000,2.19000,A,124200.10
0.21858,57.68782845,11.98134452,57.68782883,11.98134400,12:42:00.321604,0.00495,0.00000,0.00000,-0.01721,0.02663,-0.04773,-0.00376,-0.02305,-0.02251,-0.03154,0.99119,0.21317,0.00000,1.19954,1.21503,-0.00896,0.01258,0.13258,-0.03962,0.05560,2.19000,2.19000,A,124200.10
0.22991,57.68782847,11.98134449,57.68782883,11.98134400,12:42:00.332938,0.00603,0.00000,0.00000,-0.01806,0.02604,-0.04911,-0.00162,-0.02534,-0.05417,-0.00671,1.00144,0.22420,0.00000,1.34584,1.36098,-0.01050,0.01473,0.13258,-0.03962,0.05560,2.19000,2.19000,A,124200.10
0.28719,57.68782848,11.98134447,57.68783067,11.98134317,12:42:00.390231,0.05290,0.00000,1.50000,-0.01963,0.02530,-0.04865,-0.00101,-0.02519,-0.03837,-0.06112,1.01260,0.23413,0.00000,1.47026,1.48497,-0.01195,0.01677,0.26070,-0.08916,0.25945,1.80915,1.80915,A,124200.30
0.30541,57.68782859,11.98134440,57.68783067,11.98134317,12:42:00.408438,0.00654,0.00000,0.00000,-0.02436,0.01964,-0.05140,0.01441,-0.02213,0.02422,-0.07954,0.96471,0.29968,0.00000,1.51938,1.53080,-0.01581,0.02891,0.26070,-0.08916,0.25945,1.80915,1.80915,A,124200.30
0.31437,57.68782870,11.98134434,57.68783067,11.98134317,12:42:00.417386,0.00508,0.00000,0.00000,-0.02604,0.01908,-0.04987,0.00953,-0.01954,0.04063,-0.07296,0.96697,0.30893,0.00000,1.56118,1.57227,-0.01948,0.04043,0.26070,-0.08916,0.25945,1.80915,1.80915,A,124200.30
0.32510,57.68782880,11.98134428,57.68783067,11.98134317,12:42:00.428120,0.00527,0.00000,0.00000,-0.02773,0.01862,-0.04575,0.00174,-0.02076,-0.00732,-0.07290,0.95550,0.31931,0.00000,1.59675,1.60758,-0.02296,0.05138,0.26070,-0.08916,0.25945,1.80915,1.80915,A,124200.30
0.33592,57.68782889,11.98134422,57.68783067,11.98134317,12:42:00.438956,0.00569,0.00000,0.00000,-0.02896,0.01843,-0.03827,-0.00177,-0.02351,-0.03599,-0.05167,0.99387,0.32991,0.00000,1.62700,1.63772,-0.02627,0.06179,0.26070,-0.08916,0.25945,1.80915,1.80915,A,124200.30
0.34775,57.68782898,11.98134417,57.68783067,11.98134317,12:42:00.450781,0.00710,0.00000,0.00000,-0.03042,0.01843,-0.03155,0.00449,-0.02488,-0.00958,-0.07046,1.00211,0.34205,0.00000,1.65272,1.66343,-0.02942,0.07167,0.26070,-0.08916,0.25945,1.80915,1.80915,A,124200.30
0.35644,57.68782906,11.98134412,57.68783067,11.98134317,12:42:00.459466,0.00539,0.00000,0.00000,-0.03187,0.01843,-0.03277,0.00708,-0.02732,0.02434,-0.07930,1.02858,0.35071,0.00000,1.67457,1.68529,-0.03240,0.08106,0.26070,-0.08916,0.25945,1.80915,1.80915,A,124200.30
0.40940,57.68782914,11.98134407,57.68783100,11.98134233,12:42:00.512461,0.04812,0.00000,1.50000,-0.03341,0.01843,-0.03032,0.00143,-0.02412,0.04264,-0.08662,1.03834,0.36098,0.00000,1.69315,1.70387,-0.03524,0.08998,0.37913,-0.13869,0.29652,2.49917,2.49917,A,124200.40
0.43056,57.68782924,11.98134399,57.68783100,11.98134233,12:42:00.533586,0.00718,0.00000,0.00000,-0.03494,0.01843,-0.00619,-0.00284,-0.01373,-0.01330,-0.07521,0.96465,0.42509,0.00000,1.81245,1.82316,-0.04041,0.10031,0.37913,-0.13869,0.29652,2.49917,2.49917,A,124200.40
0.44887,57.68782932,11.98134390,57.68783100,11.98134233,12:42:00.551935,0.01508,0.00000,0.00000,-0.03599,0.01843,-0.00513,-0.00040,-0.01129,-0.05191,-0.07113,0.99808,0.43367,0.00000,1.91385,1.92456,-0.04533,0.11012,0.37913,-0.13869,0.29652,2.49917,2.49917,A,124200.40
0.45984,57.68782941,11.98134383,57.68783100,11.98134233,12:42:00.562876,0.00551,0.00000,0.00000,-0.03711,0.01843,0.00007,0.00769,-0.01266,0.01616,-0.08290,1.03840,0.45413,0.00000,2.00004,2.01075,-0.05000,0.11944,0.37913,-0.13869,0.29652,2.49917,2.49917,A,124200.40
0.46995,57.68782949,11.98134375,57.68783100,11.98134233,12:42:00.572977,0.00521,0.00000,0.00000,-0.03818,0.01843,0.00480,0.00861,-0.01556,0.03257,-0.08339,1.03700,0.46420,0.00000,2.07330,2.08402,-0.05443,0.12829,0.37913,-0.13869,0.29652,2.49917,2.49917,A,124200.40
0.51363,57.68782956,11.98134368,57.68783217,11.98134033,12:42:00.616686,0.03849,0.00000,1.50000,-0.03896,0.01843,0.00388,0.00831,-0.01709,0.01251,-0.06295,1.01162,0.47484,0.00000,2.13557,2.14629,-0.05864,0.13670,0.49216,-0.25756,0.42625,2.31257,2.31257,A,124200.50
0.52768,57.68782969,11.98134351,57.68783217,11.98134033,12:42:00.630715,0.00550,0.00000,0.00000,-0.03939,0.01843,0.01763,-0.01323,-0.02015,0.04984,-0.08869,0.97484,0.52199,0.00000,2.16052,2.17123,-0.06859,0.15118,0.49216,-0.25756,0.42625,2.31257,2.31257,A,124200.50
0.53786,57.68782982,11.98134335,57.68783217,11.98134033,12:42:00.640885,0.00527,0.00000,0.00000,-0.04008,0.01843,0.02252,-0.01185,-0.01954,-0.00079,-0.06911,0.99784,0.53222,0.00000,2.18172,2.19243,-0.07804,0.16493,0.49216,-0.25756,0.42625,2.31257,2.31257,A,124200.50
0.54960,57.68782993,11.98134320,57.68783217,11.98134033,12:42:00.652619,0.00660,0.00000,0.00000,-0.04039,0.01843,0.02924,-0.00452,-0.01663,-0.02690,-0.05179,1.03157,0.54268,0.00000,2.19974,2.21045,-0.08701,0.17800,0.49216,-0.25756,0.42625,2.31257,2.31257,A,124200.50
0.55846,57.68783005,11.98134306,57.68783217,11.98134033,12:42:00.661484,0.00506,0.00000,0.00000,-0.04036,0.01843,0.03473,0.00540,-0.01648,0.00634,-0.03117,1.00717,0.55303,0.00000,2.21505,2.22577,-0.09554,0.19041,0.49216,-0.25756,0.42625,2.31257,2.31257,A,124200.50
0.56970,57.68783015,11.98134292,57.68783217,11.98134033,12:42:00.672723,0.00584,0.00000,0.00000,-0.04088,0.01843,0.04176,0.00907,-0.01526,0.03770,-0.07314,0.98954,0.56402,0.00000,2.22807,2.23879,-0.10364,0.20220,0.49216,-0.25756,0.42625,2.31257,2.31257,A,124200.50
0.57935,57.68783025,11.98134279,57.68783217,11.98134033,12:42:00.682619,0.00510,0.00000,0.00000,-0.04204,0.01843,0.04390,0.00876,-0.01465,0.02629,-0.11352,0.97637,0.57393,0.00000,2.23914,2.24985,-0.11134,0.21341,0.49216,-0.25756,0.42625,2.31257,2.31257,A,124200.50
0.58981,57.68783035,11.98134267,57.68783217,11.98134033,12:42:00.692832,0.00515,0.00000,0.00000,-0.04213,0.01843,0.04191,0.00586,-0.01480,0.01305,-0.04416,0.98247,0.58411,0.00000,2.24855,2.25926,-0.11865,0.22405,0.49216,-0.25756,0.42625,2.31257,2.31257,A,124200.50
0.63368,57.68783044,11.98134255,57.68783400,11.98133917,12:42:00.736735,0.03863,0.00000,1.50000,-0.04205,0.01843,0.04878,0.00128,-0.01159,0.00885,-0.03947,0.99741,0.59473,0.00000,2.25654,2.26726,-0.12560,0.23416,0.61253,-0.32690,0.63010,1.89867,1.89867,A,124200.60
0.64477,57.68783062,11.98134238,57.68783400,11.98133917,12:42:00.747797,0.00573,0.00000,0.00000,-0.04010,0.01843,0.05718,-0.00116,-0.01740,-0.00238,-0.04630,1.00388,0.63883,0.00000,2.20126,2.21197,-0.13566,0.25396,0.61253,-0.32690,0.63010,1.89867,1.89867,A,124200.60
0.65604,57.68783079,11.98134222,57.68783400,11.98133917,12:42:00.759071,0.00633,0.00000,0.00000,-0.03948,0.01843,0.05825,0.00113,-0.01327,0.00195,-0.01220,1.01168,0.65033,0.00000,2.15426,2.16498,-0.14522,0.27276,0.61253,-0.32690,0.63010,1.89867,1.89867,A,124200.60
0.66539,57.68783095,11.98134207,57.68783400,11.98133917,12:42:00.768408,0.00544,0.00000,0.00000,-0.03963,0.01848,0.06833,-0.00254,-0.01282,0.01879,-0.05966,0.99564,0.65969,0.00000,2.11431,2.12506,-0.15431,0.29063,0.61253,-0.32690,0.63010,1.89867,1.89867,A,124200.60
0.67565,57.68783110,11.98134193,57.68783400,11.98133917,12:42:00.778687,0.00530,0.00000,0.00000,-0.03961,0.01862,0.07261,-0.00727,-0.01358,0.02599,-0.05679,1.00674,0.67001,0.00000,2.08034,2.09117,-0.16294,0.30760,0.61253,-0.32690,0.63010,1.89867,1.89867,A,124200.60
0.68606,57.68783124,11.98134179,57.68783400,11.98133917,12:42:00.789083,0.00532,0.00000,0.00000,-0.03992,0.01882,0.06131,-0.01139,-0.01282,0.01519,-0.06985,0.99497,0.68020,0.00000,2.05145,2.06239,-0.17114,0.32373,0.61253,-0.32690,0.63010,1.89867,1.89867,A,124200.60
0.69649,57.68783138,11.98134166,57.68783400,11.98133917,12:42:00.799505,0.00534,0.00000,0.00000,-0.04040,0.01908,0.06665,-0.01598,-0.01236,-0.00647,-0.08601,0.98051,0.69079,0.00000,2.02687,2.03796,-0.17892,0.33905,0.61253,-0.32690,0.63010,1.89867,1.89867,A,124200.60
0.70660,57.68783151,11.98134153,57.68783400,11.98133917,12:42:00.809620,0.00505,0.00000,0.00000,-0.04031,0.01936,0.06146,-0.01017,-0.01373,-0.05392,-0.04416,0.98466,0.70116,0.00000,2.00595,2.01721,-0.18632,0.35360,0.61253,-0.32690,0.63010,1.89867,1.89867,A,124200.60
0.74722,57.68783164,11.98134141,57.68783400,11.98133883,12:42:00.850477,0.03545,0.00000,1.50000,-0.04038,0.01961,0.06314,-0.00208,-0.01434,-0.06533,-0.05520,0.98186,0.71139,0.00000,1.98815,1.99956,-0.19335,0.36743,0.72859,-0.34672,0.63010,3.14159,3.14159,A,124200.70
0.75932,57.68783176,11.98134128,57.68783400,11.98133883,12:42:00.862580,0.00528,0.00000,0.00000,-0.03827,0.02015,0.05963,-0.00009,-0.01343,-0.01177,-0.03593,1.03188,0.75387,0.00000,2.15941,2.17113,-0.20102,0.38056,0.72859,-0.34672,0.63010,3.14159,3.14159,A,124200.70
0.76960,57.68783187,11.98134116,57.68783400,11.98133883,12:42:00.872630,0.00516,0.00000,0.00000,-0.03836,0.02024,0.06237,-0.00406,-0.01618,-0.03770,-0.05563,1.01992,0.76391,0.00000,2.30497,2.31674,-0.20830,0.39304,0.72859,-0.34672,0.63010,3.14159,3.14159,A,124200.70
0.78032,57.68783197,11.98134105,57.68783400,11.98133883,12:42:00.883351,0.00548,0.00000,0.00000,-0.03822,0.02035,0.05611,0.00113,-0.02030,-0.06179,-0.03782,1.01760,0.77461,0.00000,2.42869,2.44052,-0.21523,0.40489,0.72859,-0.34672,0.63010,3.14159,3.14159,A,124200.70
0.79046,57.68783208,11.98134093,57.68783400,11.98133883,12:42:00.893481,0.00522,0.00000,0.00000,-0.03796,0.02041,0.05352,0.00724,-0.01633,-0.03148,-0.02550,0.97386,0.78503,0.00000,2.53384,2.54571,-0.22180,0.41615,0.72859,-0.34672,0.63010,3.14159,3.14159,A,124200.70
0.80101,57.68783217,11.98134083,57.68783400,11.98133883,12:42:00.904036,0.00523,0.00000,0.00000,-0.03818,0.02041,0.04329,0.00571,-0.01495,-0.04117,-0.04752,0.93446,0.79528,0.00000,2.62323,2.63509,-0.22805,0.42685,0.72859,-0.34672,0.63010,3.14159,3.14159,A,124200.70
0.81195,57.68783226,11.98134073,57.68783400,11.98133883,12:42:00.914986,0.00581,0.00000,0.00000,-0.03752,0.02041,0.03825,0.01182,-0.01954,-0.01220,0.00878,0.92342,0.80620,0.00000,2.69920,2.71107,-0.23398,0.43701,0.72859,-0.34672,0.63010,3.14159,3.14159,A,124200.70
0.82231,57.68783235,11.98134064,57.68783400,11.98133883,12:42:00.925335,0.00577,0.00000,0.00000,-0.03730,0.02041,0.04222,0.00937,-0.01801,-0.04130,-0.01806,0.96044,0.81600,0.00000,2.76378,2.77565,-0.23962,0.44667,0.72859,-0.34672,0.63010,3.14159,3.14159,A,124200.70
0.87761,57.68783243,11.98134055,57.68783617,11.98133983,12:42:00.980653,0.05068,0.00000,1.50000,-0.03762,0.02041,0.03565,0.00815,-0.01954,-0.02867,-0.05215,0.99253,0.82663,0.00000,2.81867,2.83054,-0.24497,0.45584,0.85825,-0.28728,0.87103,1.32892,1.32892,A,124200.90
0.88906,57.68783262,11.98134051,57.68783617,11.98133983,12:42:00.992082,0.00584,0.00000,0.00000,-0.03684,0.02041,0.02084,0.00510,-0.02228,-0.06570,-0.03032,0.96490,0.88297,0.00000,2.59343,2.60530,-0.24709,0.47660,0.85825,-0.28728,0.87103,1.32892,1.32892,A,124200.90
0.90062,57.68783280,11.98134048,57.68783617,11.98133983,12:42:01.003677,0.00641,0.00000,0.00000,-0.03698,0.02041,0.02114,0.00815,-0.01908,-0.06942,-0.02849,0.94922,0.89401,0.00000,2.40197,2.41384,-0.24910,0.49632,0.85825,-0.28728,0.87103,1.32892,1.32892,A,124200.90
0.90972,57.68783297,11.98134044,57.68783617,11.98133983,12:42:01.012741,0.00512,0.00000,0.00000,-0.03791,0.02041,0.02038,0.01365,-0.02152,-0.02098,-0.07649,0.93330,0.90406,0.00000,2.23923,2.25110,-0.25101,0.51505,0.85825,-0.28728,0.87103,1.32892,1.32892,A,124200.90
0.92251,57.68783313,11.98134041,57.68783617,11.98133983,12:42:01.025558,0.00751,0.00000,0.00000,-0.03885,0.02041,0.01625,0.01396,-0.02152,-0.03971,-0.07771,0.95642,0.91489,0.00000,2.10091,2.11277,-0.25282,0.53285,0.85825,-0.28728,0.87103,1.32892,1.32892,A,124200.90
0.93253,57.68783328,11.98134038,57.68783617,11.98133983,12:42:01.035578,0.00713,0.00000,0.00000,-0.03952,0.02041,0.01351,0.01197,-0.02290,-0.04666,-0.06252,1.02083,0.92505,0.00000,1.98333,1.99520,-0.25454,0.54976,0.85825,-0.28728,0.87103,1.32892,1.32892,A,124200.90
0.94163,57.68783342,11.98134036,57.68783617,11.98133983,12:42:01.044671,0.00578,0.00000,0.00000,-0.03966,0.02041,0.00908,0.01060,-0.02855,-0.02269,-0.02428,1.02913,0.93534,0.00000,1.88339,1.89525,-0.25618,0.56582,0.85825,-0.28728,0.87103,1.32892,1.32892,A,124200.90
0.95175,57.68783356,11.98134033,57.68783617,11.98133983,12:42:01.054785,0.00550,0.00000,0.00000,-0.03976,0.02041,0.01167,0.00540,-0.02931,-0.01238,-0.02416,1.03560,0.94607,0.00000,1.79844,1.81030,-0.25773,0.58108,0.85825,-0.28728,0.87103,1.32892,1.32892,A,124200.90
0.99320,57.68783369,11.98134031,57.68783900,11.98133650,12:42:01.096246,0.03628,0.00000,1.50000,-0.03976,0.02041,0.01519,0.00296,-0.03175,-0.01080,-0.02025,1.03560,0.95687,0.00000,1.72623,1.73810,-0.25921,0.59558,0.97403,-0.48540,1.18608,2.13217,2.13217,A,124201.00
1.03644,57.68783396,11.98134012,57.68783900,11.98133650,12:42:01.139466,0.01986,0.00000,0.00000,-0.03939,0.02041,0.01457,0.00006,-0.01831,-0.04026,-0.05270,1.02260,1.02708,0.00000,1.78534,1.79721,-0.27052,0.62511,0.97403,-0.48540,1.18608,2.13217,2.13217,A,124201.00
1.07359,57.68783421,11.98133993,57.68783900,11.98133650,12:42:01.176621,0.02038,0.00000,0.00000,-0.03900,0.02041,0.01289,0.01961,-0.02290,-0.03257,-0.01549,0.95965,1.06784,0.00000,1.83558,1.84745,-0.28127,0.65316,0.97403,-0.48540,1.18608,2.13217,2.13217,A,124201.00
1.12977,57.68783445,11.98133976,57.68784067,11.98133517,12:42:01.232806,0.04087,0.00000,1.50000,-0.03885,0.02041,0.01687,0.01671,-0.02152,0.02178,-0.02123,1.00247,1.08889,0.00000,1.87829,1.89016,-0.29147,0.67980,1.11126,-0.56465,1.37140,1.97489,1.97489,A,124201.10
1.14073,57.68783476,11.98133953,57.68784067,11.98133517,12:42:01.243751,0.00564,0.00000,0.00000,-0.03928,0.02041,0.01015,0.00953,-0.01954,-0.05899,-0.06808,1.00644,1.13487,0.00000,1.89100,1.90287,-0.30513,0.71438,1.11126,-0.56465,1.37140,1.97489,1.97489,A,124201.10
1.15058,57.68783505,11.98133931,57.68784067,11.98133517,12:42:01.253598,0.00509,0.00000,0.00000,-0.03968,0.02041,0.00495,0.01411,-0.01984,-0.02635,-0.03745,0.98277,1.14516,0.00000,1.90180,1.91367,-0.31811,0.74723,1.11126,-0.56465,1.37140,1.97489,1.97489,A,124201.10
1.16109,57.68783533,11.98133911,57.68784067,11.98133517,12:42:01.264110,0.00523,0.00000,0.00000,-0.04016,0.02041,0.00052,0.01136,-0.01724,-0.01189,-0.03904,0.95325,1.15536,0.00000,1.91099,1.92285,-0.33043,0.77844,1.11126,-0.56465,1.37140,1.97489,1.97489,A,124201.10
1.17241,57.68783560,11.98133891,57.68784067,11.98133517,12:42:01.275431,0.00612,0.00000,0.00000,-0.04033,0.02041,-0.00726,0.00724,-0.02580,-0.02227,-0.01421,0.97771,1.16663,0.00000,1.91879,1.93066,-0.34215,0.80809,1.11126,-0.56465,1.37140,1.97489,1.97489,A,124201.10
1.18246,57.68783585,11.98133872,57.68784067,11.98133517,12:42:01.285479,0.00523,0.00000,0.00000,-0.04014,0.02041,0.00083,0.00449,-0.02580,-0.04209,0.00256,0.97594,1.17701,0.00000,1.92543,1.93729,-0.35327,0.83626,1.11126,-0.56465,1.37140,1.97489,1.97489,A,124201.10
1.19298,57.68783609,11.98133855,57.68784067,11.98133517,12:42:01.296005,0.00522,0.00000,0.00000,-0.04085,0.02041,-0.00818,0.00937,-0.02870,-0.02336,-0.05057,1.00083,1.18727,0.00000,1.93107,1.94293,-0.36384,0.86301,1.11126,-0.56465,1.37140,1.97489,1.97489,A,124201.10
1.20327,57.68783632,11.98133838,57.68784067,11.98133517,12:42:01.306559,0.00510,0.00000,0.00000,-0.04155,0.02041,-0.01078,0.00235,-0.02641,-0.03184,-0.05051,1.02620,1.19786,0.00000,1.93586,1.94773,-0.37388,0.88843,1.11126,-0.56465,1.37140,1.97489,1.97489,A,124201.10
1.24817,57.68783654,11.98133822,57.68784133,11.98133450,12:42:01.351220,0.03948,0.00000,1.50000,-0.04239,0.02041,-0.02254,0.00876,-0.02412,-0.03684,-0.05252,1.02962,1.20827,0.00000,1.93993,1.95180,-0.38342,0.91258,1.22538,-0.60428,1.44553,2.06169,2.06169,A,124201.20
1.26290,57.68783678,11.98133803,57.68784133,11.98133450,12:42:01.365922,0.00701,0.00000,0.00000,-0.04445,0.02041,-0.03475,0.02541,-0.01938,-0.02934,-0.03794,1.00119,1.25666,0.00000,1.95642,1.96828,-0.39446,0.93923,1.22538,-0.60428,1.44553,2.06169,2.06169,A,124201.20
1.27138,57.68783701,11.98133785,57.68784133,11.98133450,12:42:01.374647,0.00508,0.00000,0.00000,-0.04561,0.02041,-0.03750,0.02220,-0.03252,0.01897,-0.06917,1.01839,1.26596,0.00000,1.97043,1.98229,-0.40495,0.96454,1.22538,-0.60428,1.44553,2.06169,2.06169,A,124201.20
1.28185,57.68783722,11.98133769,57.68784133,11.98133450,12:42:01.384875,0.00511,0.00000,0.00000,-0.04692,0.02041,-0.05048,0.01136,-0.03511,-0.00287,-0.07021,1.02736,1.27621,0.00000,1.98234,1.99420,-0.41492,0.98859,1.22538,-0.60428,1.44553,2.06169,2.06169,A,124201.20
1.29252,57.68783743,11.98133753,57.68784133,11.98133450,12:42:01.395544,0.00538,0.00000,0.00000,-0.04804,0.02041,-0.05552,0.00892,-0.04321,-0.00043,-0.05057,0.97948,1.28681,0.00000,1.99246,2.00432,-0.42439,1.01144,1.22538,-0.60428,1.44553,2.06169,2.06169,A,124201.20
1.30259,57.68783762,11.98133738,57.68784133,11.98133450,12:42:01.405608,0.00504,0.00000,0.00000,-0.04856,0.02041,-0.05797,0.00632,-0.04672,-0.09089,-0.01220,1.01797,1.29716,0.00000,2.00106,2.01293,-0.43338,1.03315,1.22538,-0.60428,1.44553,2.06169,2.06169,A,124201.20
1.31305,57.68783781,11.98133723,57.68784133,11.98133450,12:42:01.416068,0.00519,0.00000,0.00000,-0.04887,0.02041,-0.05186,0.01747,-0.03954,-0.09101,-0.00360,1.00723,1.30733,0.00000,2.00838,2.02024,-0.44193,1.05376,1.22538,-0.60428,1.44553,2.06169,2.06169,A,124201.20
1.32335,57.68783799,11.98133709,57.68784133,11.98133450,12:42:01.426683,0.00510,0.00000,0.00000,-0.04959,0.02035,-0.04300,0.03075,-0.03496,0.01202,-0.03538,0.98515,1.31793,0.00000,2.01460,2.02643,-0.45004,1.07335,1.22538,-0.60428,1.44553,2.06169,2.06169,A,124201.20
1.37719,57.68783815,11.98133697,57.68784300,11.98133383,12:42:01.480238,0.04854,0.00000,1.50000,-0.05196,0.02009,-0.04376,0.03075,-0.03465,0.02928,-0.14414,0.97393,1.32810,0.00000,2.01991,2.03159,-0.45776,1.09196,1.35620,-0.64390,1.63086,1.78144,1.78144,A,124201.40
1.38690,57.68783840,11.98133681,57.68784300,11.98133383,12:42:01.489915,0.00521,0.00000,0.00000,-0.05507,0.01537,-0.04193,0.02556,-0.04137,0.06844,-0.08424,1.03127,1.38144,0.00000,1.98280,1.99173,-0.46706,1.11891,1.35620,-0.64390,1.63086,1.78144,1.78144,A,124201.40
1.39717,57.68783863,11.98133666,57.68784300,11.98133383,12:42:01.500189,0.00522,0.00000,0.00000,-0.05598,0.01466,-0.05384,0.01411,-0.04076,0.07619,-0.05100,1.02846,1.39147,0.00000,1.95131,1.95984,-0.47591,1.14450,1.35620,-0.64390,1.63086,1.78144,1.78144,A,124201.40
1.40787,57.68783884,11.98133652,57.68784300,11.98133383,12:42:01.510895,0.00551,0.00000,0.00000,-0.05687,0.01412,-0.04712,0.01029,-0.04198,-0.02971,-0.05179,1.02242,1.40218,0.00000,1.92460,1.93281,-0.48431,1.16882,1.35620,-0.64390,1.63086,1.78144,1.78144,A,124201.40
1.41787,57.68783905,11.98133638,57.68784300,11.98133383,12:42:01.520890,0.00512,0.00000,0.00000,-0.05776,0.01373,-0.04743,0.01380,-0.03847,-0.04709,-0.05319,0.98186,1.41222,0.00000,1.90193,1.90991,-0.49228,1.19192,1.35620,-0.64390,1.63086,1.78144,1.78144,A,124201.40
1.43054,57.68783925,11.98133626,57.68784300,11.98133383,12:42:01.533564,0.00739,0.00000,0.00000,-0.05886,0.01322,-0.04346,0.02266,-0.03588,0.01397,-0.06216,0.98271,1.42507,0.00000,1.88270,1.89039,-0.49987,1.21387,1.35620,-0.64390,1.63086,1.78144,1.78144,A,124201.40
1.43877,57.68783944,11.98133614,57.68784300,11.98133383,12:42:01.541787,0.00513,0.00000,0.00000,-0.05994,0.01276,-0.04147,0.02022,-0.04030,0.05868,-0.07229,0.93910,1.43333,0.00000,1.86640,1.87382,-0.50707,1.23472,1.35620,-0.64390,1.63086,1.78144,1.78144,A,124201.40
1.44910,57.68783962,11.98133602,57.68784300,11.98133383,12:42:01.552120,0.00520,0.00000,0.00000,-0.06136,0.01214,-0.04254,0.01396,-0.03664,0.03922,-0.09168,0.95685,1.44338,0.00000,1.85260,1.85966,-0.51391,1.25453,1.35620,-0.64390,1.63086,1.78144,1.78144,A,124201.40
1.49003,57.68783978,11.98133591,57.68784283,11.98133467,12:42:01.593069,0.03574,0.00000,1.50000,-0.06266,0.01149,-0.04896,0.01090,-0.03710,-0.02946,-0.08272,0.99503,1.45397,0.00000,1.84092,1.84760,-0.52041,1.27334,1.47150,-0.59437,1.61233,-0.35803,-0.35803,A,124201.50
1.50081,57.68783994,11.98133585,57.68784283,11.98133467,12:42:01.603833,0.00552,0.00000,0.00000,-0.06508,0.01002,-0.04224,0.01930,-0.04672,0.08479,-0.07893,0.99894,1.49503,0.00000,1.51020,1.51603,-0.52411,1.29029,1.47150,-0.59437,1.61233,-0.35803,-0.35803,A,124201.50
1.51078,57.68784008,11.98133579,57.68784283,11.98133467,12:42:01.613800,0.00509,0.00000,0.00000,-0.06646,0.00991,-0.04315,0.00250,-0.04596,-0.01293,-0.10053,1.03059,1.50535,0.00000,1.22910,1.23486,-0.52762,1.30639,1.47150,-0.59437,1.61233,-0.35803,-0.35803,A,124201.50
1.52116,57.68784022,11.98133573,57.68784283,11.98133467,12:42:01.624190,0.00524,0.00000,0.00000,-0.06664,0.00971,-0.04590,0.00754,-0.05481,-0.05728,-0.01684,1.01663,1.51544,0.00000,0.99019,0.99583,-0.53096,1.32169,1.47150,-0.59437,1.61233,-0.35803,-0.35803,A,124201.50
1.53350,57.68784035,11.98133568,57.68784283,11.98133467,12:42:01.636525,0.00717,0.00000,0.00000,-0.06736,0.00931,-0.03979,0.01838,-0.05237,-0.07497,-0.05673,1.02443,1.52617,0.00000,0.78714,0.79256,-0.53413,1.33622,1.47150,-0.59437,1.61233,-0.35803,-0.35803,A,124201.50
1.54197,57.68784047,11.98133563,57.68784283,11.98133467,12:42:01.644989,0.00524,0.00000,0.00000,-0.06862,0.00872,-0.04498,0.02419,-0.05313,0.00952,-0.09004,0.99332,1.53632,0.00000,0.61460,0.61967,-0.53714,1.35003,1.47150,-0.59437,1.61233,-0.35803,-0.35803,A,124201.50
1.55266,57.68784059,11.98133558,57.68784283,11.98133467,12:42:01.655682,0.00553,0.00000,0.00000,-0.06941,0.00798,-0.03506,0.02220,-0.05008,0.02782,-0.06204,0.93476,1.54679,0.00000,0.46801,0.47265,-0.54000,1.36314,1.47150,-0.59437,1.61233,-0.35803,-0.35803,A,124201.50
1.56261,57.68784070,11.98133554,57.68784283,11.98133467,12:42:01.665634,0.00509,0.00000,0.00000,-0.07024,0.00713,-0.04239,0.01411,-0.04596,-0.02525,-0.06045,0.94001,1.55718,0.00000,0.34348,0.34763,-0.54272,1.37560,1.47150,-0.59437,1.61233,-0.35803,-0.35803,A,124201.50
1.60394,57.68784081,11.98133549,57.68784250,11.98133550,12:42:01.706983,0.03597,0.00000,1.50000,-0.07046,0.00620,-0.03338,0.02068,-0.04565,-0.03575,-0.03074,0.98009,1.56749,0.00000,0.23772,0.24132,-0.54530,1.38744,1.58525,-0.54484,1.57526,-0.64242,-0.64242,A,124201.60
1.61480,57.68784090,11.98133549,57.68784250,11.98133550,12:42:01.717822,0.00522,0.00000,0.00000,-0.07188,0.00235,-0.02483,0.01808,-0.04901,-0.01806,-0.06655,1.00937,1.60935,0.00000,0.10549,0.10686,-0.54528,1.39683,1.58525,-0.54484,1.57526,-0.64242,-0.64242,A,124201.60
1.62506,57.68784098,11.98133549,57.68784250,11.98133550,12:42:01.728077,0.00520,0.00000,0.00000,-0.07233,0.00167,-0.02223,0.01808,-0.04764,-0.02342,-0.05661,1.00998,1.61934,0.00000,-0.00684,-0.00587,-0.54526,1.40575,1.58525,-0.54484,1.57526,-0.64242,-0.64242,A,124201.60
1.63867,57.68784105,11.98133549,57.68784250,11.98133550,12:42:01.741693,0.00793,0.00000,0.00000,-0.07279,0.00108,-0.01459,0.01808,-0.04733,0.01251,-0.05655,0.95581,1.63315,0.00000,-0.10227,-0.10165,-0.54524,1.41423,1.58525,-0.54484,1.57526,-0.64242,-0.64242,A,124201.60
1.64637,57.68784112,11.98133549,57.68784250,11.98133550,12:42:01.749388,0.00522,0.00000,0.00000,-0.07348,0.00082,-0.01505,0.00983,-0.04534,-0.03739,-0.07784,0.97399,1.64093,0.00000,-0.18337,-0.18289,-0.54522,1.42228,1.58525,-0.54484,1.57526,-0.64242,-0.64242,A,124201.60
1.65688,57.68784119,11.98133549,57.68784250,11.98133550,12:42:01.759904,0.00519,0.00000,0.00000,-0.07412,0.00068,-0.00864,0.01228,-0.04977,0.02379,-0.07802,0.98777,1.65117,0.00000,-0.25229,-0.25189,-0.54520,1.42993,1.58525,-0.54484,1.57526,-0.64242,-0.64242,A,124201.60
1.66769,57.68784126,11.98133549,57.68784250,11.98133550,12:42:01.770724,0.00560,0.00000,0.00000,-0.07473,0.00062,-0.01276,0.00769,-0.05191,-0.01659,-0.07351,0.98179,1.66178,0.00000,-0.31086,-0.31050,-0.54518,1.43719,1.58525,-0.54484,1.57526,-0.64242,-0.64242,A,124201.60
1.67755,57.68784132,11.98133549,57.68784250,11.98133550,12:42:01.780566,0.00522,0.00000,0.00000,-0.07503,0.00059,-0.01032,0.00617,-0.04825,0.00537,-0.05697,1.00168,1.67185,0.00000,-0.36065,-0.36030,-0.54516,1.44410,1.58525,-0.54484,1.57526,-0.64242,-0.64242,A,124201.60
1.71806,57.68784138,11.98133549,57.68784300,11.98133467,12:42:01.821104,0.03534,0.00000,1.50000,-0.07532,0.00057,-0.00803,0.00296,-0.04886,-0.00476,-0.05783,1.00186,1.68239,0.00000,-0.40296,-0.40263,-0.54515,1.45066,1.69951,-0.59437,1.63086,2.29855,2.29855,A,124201.70
1.72898,57.68784146,11.98133545,57.68784300,11.98133467,12:42:01.832009,0.00536,0.00000,0.00000,-0.07578,0.00048,-0.01062,0.01671,-0.04764,-0.01238,-0.04691,1.00357,1.72321,0.00000,0.00222,0.00250,-0.54761,1.45967,1.69951,-0.59437,1.63086,2.29855,2.29855,A,124201.70
1.74000,57.68784154,11.98133541,57.68784300,11.98133467,12:42:01.843019,0.00547,0.00000,0.00000,-0.07637,0.00048,-0.01475,0.00876,-0.04015,0.00494,-0.07436,1.01351,1.73431,0.00000,0.34663,0.34691,-0.54995,1.46823,1.69951,-0.59437,1.63086,2.29855,2.29855,A,124201.70
1.74999,57.68784161,11.98133538,57.68784300,11.98133467,12:42:01.853017,0.00506,0.00000,0.00000,-0.07637,0.00048,-0.01322,0.00663,-0.04473,-0.03062,-0.03703,1.01791,1.74437,0.00000,0.63938,0.63966,-0.55217,1.47636,1.69951,-0.59437,1.63086,2.29855,2.29855,A,124201.70
1.76070,57.68784168,11.98133534,57.68784300,11.98133467,12:42:01.863722,0.00537,0.00000,0.00000,-0.07647,0.00048,-0.01627,0.01090,-0.04641,-0.02708,-0.04154,1.02035,1.75498,0.00000,0.88821,0.88849,-0.55428,1.48408,1.69951,-0.59437,1.63086,2.29855,2.29855,A,124201.70
1.77108,57.68784175,11.98133531,57.68784300,11.98133467,12:42:01.874104,0.00530,0.00000,0.00000,-0.07675,0.00048,-0.02101,0.01090,-0.03771,-0.01739,-0.04703,0.95746,1.76564,0.00000,1.09972,1.10000,-0.55628,1.49142,1.69951,-0.59437,1.63086,2.29855,2.29855,A,124201.70
1.78124,57.68784181,11.98133528,57.68784300,11.98133467,12:42:01.884264,0.00523,0.00000,0.00000,-0.07576,0.00048,-0.01673,0.01289,-0.04382,0.01494,0.03105,1.00314,1.77553,0.00000,1.27950,1.27978,-0.55819,1.49839,1.69951,-0.59437,1.63086,2.29855,2.29855,A,124201.70
1.79176,57.68784187,11.98133525,57.68784300,11.98133467,12:42:01.894786,0.00535,0.00000,0.00000,-0.07771,0.00048,-0.01887,0.01105,-0.04550,-0.04117,-0.15707,0.96569,1.78609,0.00000,1.43232,1.43260,-0.56000,1.50502,1.69951,-0.59437,1.63086,2.29855,2.29855,A,124201.70
1.83216,57.68784192,11.98133522,57.68784400,11.98133333,12:42:01.935208,0.03535,0.00000,1.50000,-0.07762,0.00048,-0.02360,0.01151,-0.04382,0.01372,-0.02373,0.96471,1.79626,0.00000,1.56221,1.56249,-0.56172,1.51131,1.81333,-0.67362,1.74205,2.19000,2.19000,A,124201.80
1.84771,57.68784203,11.98133512,57.68784400,11.98133333,12:42:01.950741,0.00817,0.00000,0.00000,-0.07843,0.00048,-0.02330,0.00021,-0.05130,0.00482,-0.03056,0.99747,1.84199,0.00000,1.65634,1.65662,-0.56731,1.52285,1.81333,-0.67362,1.74205,2.19000,2.19000,A,124201.80
1.85502,57.68784213,11.98133503,57.68784400,11.98133333,12:42:01.958044,0.00508,0.00000,0.00000,-0.07796,0.00048,-0.02040,-0.00315,-0.04993,0.00598,-0.00616,1.01455,1.84961,0.00000,1.73635,1.73663,-0.57263,1.53381,1.81333,-0.67362,1.74205,2.19000,2.19000,A,124201.80
1.86539,57.68784222,11.98133495,57.68784400,11.98133333,12:42:01.968405,0.00521,0.00000,0.00000,-0.07893,0.00048,-0.01093,0.00418,-0.04198,-0.06417,-0.10705,1.02492,1.85967,0.00000,1.80435,1.80463,-0.57768,1.54422,1.81333,-0.67362,1.74205,2.19000,2.19000,A,124201.80
1.87610,57.68784231,11.98133487,57.68784400,11.98133333,12:42:01.979134,0.00553,0.00000,0.00000,-0.07953,0.00048,-0.00329,0.01915,-0.03817,-0.03983,-0.08394,0.98228,1.87025,0.00000,1.86216,1.86244,-0.58247,1.55411,1.81333,-0.67362,1.74205,2.19000,2.19000,A,124201.80
1.88605,57.68784239,11.98133479,57.68784400,11.98133333,12:42:01.989072,0.00508,0.00000,0.00000,-0.08087,0.00048,-0.00085,0.02327,-0.03343,-0.02593,-0.13030,0.94093,1.88062,0.00000,1.91129,1.91157,-0.58703,1.56351,1.81333,-0.67362,1.74205,2.19000,2.19000,A,124201.80
1.89674,57.68784247,11.98133472,57.68784400,11.98133333,12:42:01.999761,0.00538,0.00000,0.00000,-0.07990,0.00048,0.00602,0.02098,-0.03084,0.03587,0.01049,0.97130,1.89103,0.00000,1.95306,1.95334,-0.59136,1.57243,1.81333,-0.67362,1.74205,2.19000,2.19000,A,124201.80
1.90688,57.68784255,11.98133465,57.68784400,11.98133333,12:42:02.009901,0.00512,0.00000,0.00000,-0.08063,0.00048,0.01961,0.00800,-0.03084,-0.01757,-0.11163,1.00607,1.90145,0.00000,1.98856,1.98884,-0.59547,1.58092,1.81333,-0.67362,1.74205,2.19000,2.19000,A,124201.80
1.95343,57.68784262,11.98133458,57.68784467,11.98133217,12:42:02.056485,0.04144,0.00000,1.50000,-0.08125,0.00048,0.01916,0.00449,-0.03038,-0.01263,-0.10705,1.02785,1.91148,0.00000,2.01873,2.01901,-0.59938,1.58897,1.92861,-0.74296,1.81618,2.32284,2.32284,A,124201.90
1.96313,57.68784273,11.98133446,57.68784467,11.98133217,12:42:02.066154,0.00519,0.00000,0.00000,-0.07998,0.00048,0.03046,0.02617,-0.04764,0.00354,-0.05716,0.99717,1.95769,0.00000,2.06431,2.06459,-0.60656,1.60033,1.92861,-0.74296,1.81618,2.32284,2.32284,A,124201.90
1.97337,57.68784282,11.98133435,57.68784467,11.98133217,12:42:02.076389,0.00518,0.00000,0.00000,-0.08044,0.00048,0.03214,0.02266,-0.04825,0.01519,-0.09589,0.95008,1.96767,0.00000,2.10304,2.10332,-0.61338,1.61113,1.92861,-0.74296,1.81618,2.32284,2.32284,A,124201.90
1.98547,57.68784291,11.98133424,57.68784467,11.98133217,12:42:02.088484,0.00688,0.00000,0.00000,-0.08029,0.00048,0.03672,0.00632,-0.04321,0.03538,-0.06655,0.96941,1.97974,0.00000,2.13597,2.13625,-0.61986,1.62138,1.92861,-0.74296,1.81618,2.32284,2.32284,A,124201.90
1.99510,57.68784300,11.98133413,57.68784467,11.98133217,12:42:02.098123,0.00612,0.00000,0.00000,-0.08027,0.00048,0.03993,-0.00880,-0.03527,0.03977,-0.07265,0.98094,1.98963,0.00000,2.16396,2.16424,-0.62601,1.63112,1.92861,-0.74296,1.81618,2.32284,2.32284,A,124201.90
2.00478,57.68784309,11.98133404,57.68784467,11.98133217,12:42:02.107796,0.00540,0.00000,0.00000,-0.07992,0.00048,0.03855,-0.00529,-0.03374,-0.04886,-0.04984,1.00058,1.99904,0.00000,2.18775,2.18803,-0.63186,1.64037,1.92861,-0.74296,1.81618,2.32284,2.32284,A,124201.90
2.01631,57.68784316,11.98133394,57.68784467,11.98133217,12:42:02.119367,0.00653,0.00000,0.00000,-0.08021,0.00048,0.04038,0.00052,-0.03465,0.00537,-0.09351,0.97923,2.00945,0.00000,2.20797,2.20825,-0.63742,1.64916,1.92861,-0.74296,1.81618,2.32284,2.32284,A,124201.90
2.02637,57.68784324,11.98133385,57.68784467,11.98133217,12:42:02.129383,0.00636,0.00000,0.00000,-0.08061,0.00048,0.03153,0.00357,-0.04015,0.05954,-0.09559,0.98521,2.01950,0.00000,2.22516,2.22544,-0.64269,1.65751,1.92861,-0.74296,1.81618,2.32284,2.32284,A,124201.90
2.12025,57.68784331,11.98133377,57.68784650,11.98132950,12:42:02.223291,0.08983,0.00000,1.50000,-0.08021,0.00048,0.02175,-0.00452,-0.03969,-0.05106,-0.03904,0.98783,2.03115,0.00000,2.23977,2.24005,-0.64771,1.66545,2.07918,-0.90146,2.02004,2.23167,2.23167,A,124202.10
2.14466,57.68784347,11.98133356,57.68784650,11.98132950,12:42:02.247708,0.01284,0.00000,0.00000,-0.07941,0.00048,0.00740,0.00281,-0.05298,0.04923,-0.04587,0.96795,2.13711,0.00000,2.23852,2.23879,-0.66040,1.68318,2.07918,-0.90146,2.02004,2.23167,2.23167,A,124202.10
2.16180,57.68784362,11.98133335,57.68784650,11.98132950,12:42:02.264829,0.00531,0.00000,0.00000,-0.07897,0.00048,0.00297,0.00159,-0.04855,-0.04069,-0.02184,0.97447,2.15610,0.00000,2.23745,2.23773,-0.67245,1.70002,2.07918,-0.90146,2.02004,2.23167,2.23167,A,124202.10
2.17249,57.68784377,11.98133316,57.68784650,11.98132950,12:42:02.275513,0.00545,0.00000,0.00000,-0.07809,0.00048,0.00862,-0.00147,-0.03740,-0.03922,0.00470,0.96715,2.16673,0.00000,2.23654,2.23682,-0.68390,1.71602,2.07918,-0.90146,2.02004,2.23167,2.23167,A,124202.10
2.21477,57.68784390,11.98133298,57.68784817,11.98132917,12:42:02.317808,0.03733,0.00000,1.50000,-0.07855,0.00048,0.01473,0.00250,-0.03985,-0.02306,-0.08644,0.98722,2.17710,0.00000,2.23576,2.23604,-0.69478,1.73122,2.19649,-0.92128,2.20537,1.67730,1.67730,A,124202.20
2.22499,57.68784412,11.98133279,57.68784817,11.98132917,12:42:02.328013,0.00570,0.00000,0.00000,-0.07792,0.00048,-0.00222,0.00999,-0.05252,-0.02214,0.00067,1.00455,2.21904,0.00000,2.15195,2.15223,-0.70610,1.75493,2.19649,-0.92128,2.20537,1.67730,1.67730,A,124202.20
2.23479,57.68784432,11.98133261,57.68784817,11.98132917,12:42:02.337818,0.00511,0.00000,0.00000,-0.07908,0.00048,-0.00238,0.00281,-0.05100,-0.02611,-0.12041,0.97649,2.22936,0.00000,2.08071,2.08099,-0.71686,1.77745,2.19649,-0.92128,2.20537,1.67730,1.67730,A,124202.20
2.24636,57.68784451,11.98133243,57.68784817,11.98132917,12:42:02.349772,0.00645,0.00000,0.00000,-0.07908,0.00048,-0.01123,-0.00208,-0.05222,0.03202,-0.03959,0.97332,2.23943,0.00000,2.02016,2.02044,-0.72708,1.79885,2.19649,-0.92128,2.20537,1.67730,1.67730,A,124202.20
2.25568,57.68784469,11.98133227,57.68784817,11.98132917,12:42:02.358710,0.00536,0.00000,0.00000,-0.08046,0.00048,-0.00955,-0.00376,-0.04473,-0.05844,-0.13359,0.99747,2.25002,0.00000,1.96869,1.96897,-0.73679,1.81917,2.19649,-0.92128,2.20537,1.67730,1.67730,A,124202.20
2.26593,57.68784487,11.98133212,57.68784817,11.98132917,12:42:02.368951,0.00515,0.00000,0.00000,-0.07965,0.00048,-0.01643,-0.00697,-0.04489,0.00043,0.01537,0.98442,2.26025,0.00000,1.92494,1.92522,-0.74602,1.83848,2.19649,-0.92128,2.20537,1.67730,1.67730,A,124202.20
2.27657,57.68784503,11.98133197,57.68784817,11.98132917,12:42:02.379592,0.00539,0.00000,0.00000,-0.07988,0.00048,-0.00589,-0.00681,-0.03939,-0.00006,-0.05740,0.96044,2.27085,0.00000,1.88775,1.88803,-0.75478,1.85683,2.19649,-0.92128,2.20537,1.67730,1.67730,A,124202.20
2.28677,57.68784519,11.98133183,57.68784817,11.98132917,12:42:02.389793,0.00519,1.04038,1.04038,-0.08004,0.00048,-0.01337,-0.00544,-0.03695,-0.04788,-0.04917,0.98015,2.28131,0.20808,1.85614,1.85642,-0.76310,1.87425,2.19649,-0.92128,2.20537,1.67730,1.67730,A,124202.20
2.32764,57.68784535,11.98133169,57.68784917,11.98132783,12:42:02.430685,0.03578,1.04038,1.50000,-0.08003,0.00048,-0.00742,0.00281,-0.03618,-0.08644,-0.04331,1.00565,2.29134,0.37454,1.82927,1.82955,-0.77147,1.89237,2.30850,-1.00053,2.31656,2.19000,2.19000,A,124202.30
2.33830,57.68784566,11.98133143,57.68784917,11.98132783,12:42:02.441318,0.00543,1.04038,1.04038,-0.08032,0.00113,-0.01612,-0.00636,-0.03465,-0.06747,-0.02525,1.03767,2.33281,0.50770,1.88329,1.88395,-0.78651,1.92713,2.30850,-1.00053,2.31656,2.19000,2.19000,A,124202.30
2.34965,57.68784588,11.98133123,57.68784917,11.98132783,12:42:02.452679,0.00640,1.04038,1.04038,-0.08104,0.00167,-0.01215,0.00540,-0.03924,-0.02769,-0.09010,1.01504,2.34379,0.61424,1.92915,1.93012,-0.79857,1.95081,2.30850,-1.00053,2.31656,2.19000,2.19000,A,124202.30
2.35936,57.68784608,11.98133104,57.68784917,11.98132783,12:42:02.462608,0.00571,1.04038,1.04038,-0.08138,0.00226,-0.01795,0.00052,-0.03863,-0.02769,-0.06130,1.00809,2.35332,0.69947,1.96809,1.96940,-0.81018,1.97310,2.30850,-1.00053,2.31656,2.19000,2.19000,A,124202.30
2.37209,57.68784629,11.98133083,57.68784917,11.98132783,12:42:02.475118,0.00821,9.26571,1.04038,-0.08186,0.00308,-0.01429,0.00082,-0.04428,-0.03873,-0.06875,0.98131,2.36638,0.76765,2.00112,2.00291,-0.82245,1.99682,2.30850,-1.00053,2.31656,2.19000,2.19000,A,124202.30
2.38152,57.68784648,11.98133064,57.68784917,11.98132783,12:42:02.484542,0.00723,9.26571,1.04038,-0.08181,0.00362,-0.01704,0.00082,-0.04244,-0.08424,-0.03697,1.00394,2.37577,0.82219,2.02915,2.03125,-0.83360,2.01768,2.30850,-1.00053,2.31656,2.19000,2.19000,A,124202.30
2.39255,57.68784667,11.98133045,57.68784917,11.98132783,12:42:02.495582,0.00787,9.26571,1.04038,-0.08156,0.00405,-0.01536,0.00189,-0.04260,0.01025,-0.02220,0.96734,2.38616,0.86583,2.05294,2.05529,-0.84483,2.03844,2.30850,-1.00053,2.31656,2.19000,2.19000,A,124202.30
2.40227,57.68784684,11.98133027,57.68784917,11.98132783,12:42:02.505288,0.00718,9.26571,1.04038,-0.08205,0.00430,-0.01673,-0.01017,-0.04290,0.03599,-0.06747,0.94770,2.39678,0.90074,2.07315,2.07565,-0.85565,2.05810,2.30850,-1.00053,2.31656,2.19000,2.19000,A,124202.30
2.44369,57.68784702,11.98133009,57.68784950,11.98132633,12:42:02.546744,0.03821,9.26571,1.50000,-0.08239,0.00439,-0.01276,-0.01491,-0.03817,-0.03611,-0.06143,0.96112,2.40760,0.92867,2.09032,2.09287,-0.86661,2.07776,2.42478,-1.08968,2.35363,2.74760,2.74760,A,124202.40
2.46173,57.68784746,11.98132956,57.68784950,11.98132633,12:42:02.564746,0.01146,9.26571,1.50000,-0.08267,0.00572,-0.00039,-0.00727,-0.03465,-0.02074,-0.06570,0.96691,2.45602,1.04293,2.18855,2.19187,-0.89814,2.12696,2.42478,-1.08968,2.35363,2.74760,2.74760,A,124202.40
2.47414,57.68784764,11.98132929,57.68784950,11.98132633,12:42:02.577164,0.00717,9.26571,1.50000,-0.08252,0.00713,0.00679,-0.00284,-0.03175,-0.06618,-0.04398,0.96392,2.46868,1.13435,2.27183,2.27598,-0.91384,2.14685,2.42478,-1.08968,2.35363,2.74760,2.74760,A,124202.40
2.48464,57.68784780,11.98132905,57.68784950,11.98132633,12:42:02.587660,0.00727,9.26571,1.50000,-0.08263,0.00880,0.01870,0.00510,-0.03359,-0.08162,-0.07082,1.01711,2.47888,1.20748,2.34248,2.34760,-0.92850,2.16409,2.42478,-1.08968,2.35363,2.74760,2.74760,A,124202.40
2.49681,57.68784795,11.98132877,57.68784950,11.98132633,12:42:02.599832,0.00897,9.26571,1.50000,-0.08275,0.01112,0.02160,0.00983,-0.03053,-0.00726,-0.07259,0.98436,2.49030,1.26598,2.40235,2.40882,-0.94459,2.18173,2.42478,-1.08968,2.35363,2.74760,2.74760,A,124202.40
2.50572,57.68784808,11.98132855,57.68784950,11.98132633,12:42:02.608740,0.00767,9.26571,1.50000,-0.08316,0.01356,0.02893,0.01228,-0.02900,0.00720,-0.09534,1.00485,2.49993,1.31279,2.45303,2.46091,-0.95793,2.19580,2.42478,-1.08968,2.35363,2.74760,2.74760,A,124202.40
2.51567,57.68784821,11.98132831,57.68784950,11.98132633,12:42:02.618699,0.00722,9.26571,1.50000,-0.08353,0.01619,0.02817,-0.00162,-0.02335,-0.03026,-0.09412,1.01382,2.50995,1.35023,2.49591,2.50532,-0.97216,2.20989,2.42478,-1.08968,2.35363,2.74760,2.74760,A,124202.40
2.57580,57.68784833,11.98132806,57.68785117,11.98132517,12:42:02.678838,0.05695,9.26571,1.50000,-0.08323,0.01893,0.02908,-0.00238,-0.01801,-0.03672,-0.04801,0.98735,2.52031,1.38018,2.53215,2.54316,-0.98707,2.22375,2.54937,-1.15903,2.53895,1.92884,1.92884,A,124202.60
2.58683,57.68784887,11.98132684,57.68785117,11.98132517,12:42:02.689849,0.00654,9.26571,1.50000,-0.07872,0.03396,0.06894,-0.01124,0.01101,-0.13646,-0.02190,1.02907,2.58137,1.40415,2.43983,2.45958,-1.05963,2.28312,2.54937,-1.15903,2.53895,1.92884,1.92884,A,124202.60
2.60063,57.68784907,11.98132655,57.68785117,11.98132517,12:42:02.703648,0.00994,9.26571,1.50000,-0.07768,0.03812,0.07429,-0.00437,0.01895,-0.06978,-0.03605,0.97942,2.59486,1.42332,2.36027,2.38244,-1.07671,2.30574,2.54937,-1.15903,2.53895,1.92884,1.92884,A,124202.60
2.60924,57.68784923,11.98132637,57.68785117,11.98132517,12:42:02.712261,0.00749,9.26571,1.50000,-0.07768,0.04070,0.07398,0.00021,0.01757,-0.01458,-0.08052,0.99180,2.60348,1.43865,2.29226,2.31594,-1.08721,2.32347,2.54937,-1.15903,2.53895,1.92884,1.92884,A,124202.60
2.61899,57.68784940,11.98132619,57.68785117,11.98132517,12:42:02.722012,0.00701,9.26571,1.50000,-0.07781,0.04333,0.06436,-0.00009,0.01253,-0.00256,-0.09516,1.06000,2.61352,1.45092,2.23431,2.25952,-1.09816,2.34222,2.54937,-1.15903,2.53895,1.92884,1.92884,A,124202.60
2.62962,57.68784957,11.98132601,57.68785117,11.98132517,12:42:02.732645,0.00724,9.26571,1.50000,-0.07727,0.04582,0.05902,-0.00437,0.00902,-0.03026,-0.04355,1.02736,2.62388,1.46074,2.18489,2.21155,-1.10870,2.36115,2.54937,-1.15903,2.53895,1.92884,1.92884,A,124202.60
2.64020,57.68784973,11.98132585,57.68785117,11.98132517,12:42:02.743221,0.00742,9.26571,1.50000,-0.07591,0.04789,0.05764,0.00464,0.00184,-0.07076,0.01330,1.03261,2.63445,1.46859,2.14273,2.17059,-1.11826,2.37949,2.54937,-1.15903,2.53895,1.92884,1.92884,A,124202.60
2.68905,57.68784989,11.98132570,57.68785167,11.98132450,12:42:02.792091,0.04582,9.26571,1.50000,-0.07480,0.04961,0.06283,0.00052,-0.00457,-0.02849,-0.00555,0.98680,2.64523,1.47487,2.10677,2.13563,-1.12715,2.39748,2.66990,-1.19865,2.59455,2.19000,2.19000,A,124202.70
2.70606,57.68785055,11.98132497,57.68785167,11.98132450,12:42:02.809077,0.01172,9.26571,1.50000,-0.07118,0.05590,0.05520,-0.01491,0.01391,-0.10797,0.00799,1.00638,2.70036,1.47990,2.11727,2.14979,-1.17087,2.47068,2.66990,-1.19865,2.59455,2.19000,2.19000,A,124202.70
2.71804,57.68785071,11.98132482,57.68785167,11.98132450,12:42:02.821055,0.00726,9.26571,1.50000,-0.07119,0.05692,0.06192,0.00082,0.01360,-0.03074,-0.07765,1.00583,2.71194,1.48392,2.12379,2.15691,-1.17960,2.48811,2.66990,-1.19865,2.59455,2.19000,2.19000,A,124202.70
2.72844,57.68785084,11.98132470,57.68785167,11.98132450,12:42:02.831462,0.00726,9.26571,1.50000,-0.07068,0.05717,0.03641,0.00006,0.01147,-0.00823,-0.02147,1.02785,2.72266,1.48713,2.12925,2.16252,-1.18701,2.50316,2.66990,-1.19865,2.59455,2.19000,2.19000,A,124202.70
2.73898,57.68785098,11.98132457,57.68785167,11.98132450,12:42:02.842005,0.00717,9.26571,1.50000,-0.07057,0.05717,0.03947,-0.00009,0.00979,-0.01928,-0.05033,1.01175,2.73352,1.48971,2.13392,2.16719,-1.19449,2.51799,2.66990,-1.19865,2.59455,2.19000,2.19000,A,124202.70
2.74951,57.68785110,11.98132445,57.68785167,11.98132450,12:42:02.852531,0.00731,9.26571,1.50000,-0.07001,0.05717,0.02847,0.00632,0.00902,-0.08949,-0.01098,1.01449,2.74379,1.49177,2.13788,2.17115,-1.20142,2.53172,2.66990,-1.19865,2.59455,2.19000,2.19000,A,124202.70
2.76169,57.68785123,11.98132432,57.68785167,11.98132450,12:42:02.864711,0.00908,9.26571,1.50000,-0.06981,0.05717,0.03504,0.01487,0.00078,-0.01257,-0.04026,0.96069,2.75571,1.49341,2.14133,2.17460,-1.20919,2.54641,2.66990,-1.19865,2.59455,2.19000,2.19000,A,124202.70
2.80585,57.68785135,11.98132421,57.68785300,11.98132383,12:42:02.908891,0.04299,9.26571,1.50000,-0.06938,0.05717,0.03107,0.00601,0.00398,0.00128,-0.02086,0.96758,2.76682,1.49473,2.14420,2.17746,-1.21575,2.55910,2.78407,-1.23827,2.74281,1.83196,1.83196,A,124202.80
2.81722,57.68785188,11.98132361,57.68785300,11.98132383,12:42:02.920248,0.00686,9.26571,1.50000,-0.06872,0.05717,0.02084,-0.01552,0.00902,-0.02538,-0.04703,1.04121,2.81148,1.49578,2.09506,2.12833,-1.25134,2.61794,2.78407,-1.23827,2.74281,1.83196,1.83196,A,124202.80
2.82845,57.68785203,11.98132351,57.68785300,11.98132383,12:42:02.931467,0.00768,9.26571,1.50000,-0.06884,0.05717,0.02236,-0.00223,0.00765,-0.09309,-0.05398,1.04310,2.82268,1.49663,2.05118,2.08445,-1.25754,2.63518,2.78407,-1.23827,2.74281,1.83196,1.83196,A,124202.80
2.83866,57.68785217,11.98132343,57.68785300,11.98132383,12:42:02.941679,0.00749,9.26571,1.50000,-0.06947,0.05717,0.00892,0.00922,0.00734,-0.04904,-0.07692,1.02151,2.83319,1.49730,2.01384,2.04711,-1.26245,2.65097,2.78407,-1.23827,2.74281,1.83196,1.83196,A,124202.80
2.84892,57.68785231,11.98132336,57.68785300,11.98132383,12:42:02.951949,0.00729,9.26571,1.50000,-0.06909,0.05717,0.00022,0.00800,0.00459,-0.01501,-0.00226,0.99753,2.84315,1.49784,1.98208,2.01535,-1.26656,2.66586,2.78407,-1.23827,2.74281,1.83196,1.83196,A,124202.80
2.86102,57.68785244,11.98132330,57.68785300,11.98132383,12:42:02.964057,0.00915,9.26571,1.50000,-0.06879,0.05717,0.00587,0.00540,0.00765,-0.06466,-0.01147,0.99168,2.85349,1.49827,1.95509,1.98836,-1.27017,2.68027,2.78407,-1.23827,2.74281,1.83196,1.83196,A,124202.80
2.87407,57.68785260,11.98132321,57.68785300,11.98132383,12:42:02.977092,0.01177,9.26571,1.50000,-0.06820,0.05717,0.00969,0.01090,0.00536,-0.01720,0.00305,1.00540,2.86836,1.49862,1.93235,1.96562,-1.27509,2.69807,2.78407,-1.23827,2.74281,1.83196,1.83196,A,124202.80
2.91824,57.68785274,11.98132315,57.68785317,11.98132317,12:42:03.021284,0.03890,9.26571,1.50000,-0.06864,0.05717,0.00282,0.00556,0.00429,0.01244,-0.05551,0.96728,2.88071,1.49889,1.91295,1.94622,-1.27889,2.71386,2.89763,-1.27790,2.76134,2.70412,2.70412,A,124202.90
2.92959,57.68785325,11.98132279,57.68785317,11.98132317,12:42:03.032608,0.00686,9.26571,1.50000,-0.06815,0.05717,0.00312,0.00174,-0.00167,-0.00213,-0.00256,0.95099,2.92386,1.49912,2.02926,2.06252,-1.30043,2.77100,2.89763,-1.27790,2.76134,2.70412,2.70412,A,124202.90
2.94070,57.68785335,11.98132271,57.68785317,11.98132317,12:42:03.043725,0.00757,9.26571,1.50000,-0.06839,0.05717,-0.00207,-0.00651,-0.00549,0.01269,-0.03977,0.98210,2.93460,1.49929,2.12605,2.15931,-1.30513,2.78140,2.89763,-1.27790,2.76134,2.70412,2.70412,A,124202.90
2.95067,57.68785343,11.98132262,57.68785317,11.98132317,12:42:03.053692,0.00698,9.26571,1.50000,-0.06950,0.05717,-0.00131,-0.00193,-0.01037,-0.07863,-0.09906,0.99168,2.94519,1.49943,2.20828,2.24155,-1.31023,2.79007,2.89763,-1.27790,2.76134,2.70412,2.70412,A,124202.90
2.96286,57.68785350,11.98132252,57.68785317,11.98132317,12:42:03.065908,0.00877,9.26571,1.50000,-0.07029,0.05717,-0.00589,0.00846,-0.00472,-0.04880,-0.07808,1.01754,2.95558,1.49955,2.27821,2.31148,-1.31620,2.79820,2.89763,-1.27790,2.76134,2.70412,2.70412,A,124202.90
2.97834,57.68785361,11.98132233,57.68785317,11.98132317,12:42:03.081363,0.01382,9.26571,1.50000,-0.07017,0.05717,0.00114,0.01212,-0.00213,0.01861,-0.02190,1.00851,2.96826,1.49964,2.33800,2.37127,-1.32778,2.81111,2.89763,-1.27790,2.76134,2.70412,2.70412,A,124202.90
2.98942,57.68785367,11.98132222,57.68785317,11.98132317,12:42:03.092445,0.00546,1.18676,1.18676,-0.06932,0.05717,0.01060,0.00418,0.00566,-0.04307,0.01421,1.02053,2.98353,1.43706,2.38849,2.42176,-1.33436,2.81743,2.89763,-1.27790,2.76134,2.70412,2.70412,A,124202.90
3.03297,57.68785371,11.98132212,57.68785417,11.98132167,12:42:03.136006,0.03860,1.18676,1.50000,-0.06954,0.05717,0.01855,-0.00009,0.00994,-0.01037,-0.05758,0.97881,2.99405,1.38700,2.43135,2.46461,-1.34004,2.82209,3.01430,-1.36706,2.87254,2.24663,2.24663,A,124203.00
3.04305,57.68785405,11.98132138,57.68785417,11.98132167,12:42:03.146071,0.00555,1.18676,1.18676,-0.06827,0.05717,0.04206,0.00250,0.01330,0.01086,-0.06564,0.97447,3.03758,1.34696,2.40110,2.43437,-1.38428,2.85907,3.01430,-1.36706,2.87254,2.24663,2.24663,A,124203.00
3.05313,57.68785411,11.98132126,57.68785417,11.98132167,12:42:03.156154,0.00526,1.18676,1.18676,-0.06855,0.05717,0.04008,0.00281,0.01406,-0.03953,-0.07509,0.99833,3.04740,1.31492,2.37339,2.40666,-1.39120,2.86640,3.01430,-1.36706,2.87254,2.24663,2.24663,A,124203.00
3.06452,57.68785418,11.98132115,57.68785417,11.98132167,12:42:03.167578,0.00625,1.18676,1.18676,-0.06854,0.05734,0.04008,0.00418,0.02185,-0.02617,-0.05850,1.01461,3.05797,1.28929,2.34985,2.38321,-1.39786,2.87381,3.01430,-1.36706,2.87254,2.24663,2.24663,A,124203.00
3.07757,57.68785426,11.98132101,57.68785417,11.98132167,12:42:03.180598,0.00889,1.18676,1.18676,-0.06774,0.05816,0.04878,0.01060,0.02582,0.03587,-0.01659,0.98369,3.07036,1.26878,2.32989,2.36373,-1.40610,2.88302,3.01430,-1.36706,2.87254,2.24663,2.24663,A,124203.00
3.08438,57.68785429,11.98132097,57.68785417,11.98132167,12:42:03.187397,0.00548,1.18676,1.18676,-0.06718,0.05975,0.05352,0.00357,0.03712,-0.02769,-0.02208,1.02376,3.07862,1.25238,2.31244,2.34721,-1.40822,2.88650,3.01430,-1.36706,2.87254,2.24663,2.24663,A,124203.00
3.09442,57.68785435,11.98132089,57.68785417,11.98132167,12:42:03.197438,0.00511,1.18676,1.18676,-0.06612,0.06221,0.05734,0.00632,0.04033,-0.08217,0.00317,1.06366,3.08897,1.23926,2.29760,2.33380,-1.41304,2.89281,3.01430,-1.36706,2.87254,2.24663,2.24663,A,124203.00
3.10505,57.68785441,11.98132081,57.68785417,11.98132167,12:42:03.208068,0.00521,1.18676,1.18676,-0.06512,0.06524,0.06772,0.01289,0.03773,-0.12145,-0.00860,1.12417,3.09934,1.22876,2.28475,2.32272,-1.41771,2.89908,3.01430,-1.36706,2.87254,2.24663,2.24663,A,124203.00
3.14612,57.68785446,11.98132074,57.68785550,11.98132033,12:42:03.249164,0.03587,1.18676,1.50000,-0.06451,0.06835,0.06085,0.02572,0.02521,0.05502,-0.02885,1.02700,3.10992,1.22036,2.27357,2.31335,-1.42197,2.90502,3.12690,-1.44630,3.02080,2.06169,2.06169,A,124203.10
3.15692,57.68785481,11.98132020,57.68785550,11.98132033,12:42:03.259949,0.00557,1.18676,1.18676,-0.06120,0.07962,0.07352,0.02159,0.03010,-0.13011,-0.00183,0.96465,3.15110,1.21364,2.23726,2.28362,-1.45407,2.94446,3.12690,-1.44630,3.02080,2.06169,2.06169,A,124203.10
3.17913,57.68785491,11.98132011,57.68785550,11.98132033,12:42:03.282157,0.01738,1.18676,1.18676,-0.06133,0.08256,0.07963,0.02908,0.04109,0.05423,-0.07729,0.93903,3.16144,1.20827,2.20430,2.25238,-1.45985,2.95541,3.12690,-1.44630,3.02080,2.06169,2.06169,A,124203.10
3.19010,57.68785502,11.98132001,57.68785550,11.98132033,12:42:03.293121,0.00524,1.18676,1.18676,-0.05938,0.08907,0.06131,-0.01735,0.06583,0.03227,0.01690,0.97234,3.18461,1.20396,2.17580,2.22768,-1.46581,2.96687,3.12690,-1.44630,3.02080,2.06169,2.06169,A,124203.10
3.20100,57.68785511,11.98131992,57.68785550,11.98132033,12:42:03.304022,0.00574,1.18676,1.18676,-0.05757,0.09150,0.07047,-0.01735,0.06797,-0.17885,0.05612,1.05835,3.19524,1.20052,2.15139,2.20469,-1.47099,2.97754,3.12690,-1.44630,3.02080,2.06169,2.06169,A,124203.10
3.21181,57.68785520,11.98131985,57.68785550,11.98132033,12:42:03.314848,0.00616,1.18676,1.18676,-0.05656,0.09348,0.07978,0.00754,0.06247,-0.07143,-0.00104,1.03578,3.20533,1.19777,2.13041,2.18488,-1.47516,2.98706,3.12690,-1.44630,3.02080,2.06169,2.06169,A,124203.10
3.22117,57.68785527,11.98131979,57.68785550,11.98132033,12:42:03.324187,0.00523,1.18676,1.18676,-0.05592,0.09515,0.08085,0.01884,0.05728,0.02666,-0.02409,0.97356,3.21544,1.19557,2.11241,2.16785,-1.47865,2.99573,3.12690,-1.44630,3.02080,2.06169,2.06169,A,124203.10
3.28498,57.68785536,11.98131973,57.68785800,11.98131767,12:42:03.388017,0.05864,1.18676,1.50000,-0.05534,0.09668,0.07215,0.00403,0.06186,0.04526,-0.02373,0.95794,3.22601,1.19381,2.09707,2.15340,-1.48246,3.00497,3.25424,-1.60480,3.29878,2.08899,2.08899,A,124203.30
3.29466,57.68785601,11.98131898,57.68785800,11.98131767,12:42:03.397678,0.00520,1.18676,1.18676,-0.05287,0.10727,0.03748,-0.01552,0.06156,-0.01726,-0.00220,1.00839,3.28918,1.19240,2.09172,2.15425,-1.52689,3.07781,3.25424,-1.60480,3.29878,2.08899,2.08899,A,124203.30
3.30506,57.68785618,11.98131882,57.68785800,11.98131767,12:42:03.408076,0.00520,1.18676,1.18676,-0.05272,0.10837,0.03168,-0.00849,0.05866,-0.10138,-0.01982,0.99412,3.29934,1.19127,2.08263,2.14580,-1.53598,3.09673,3.25424,-1.60480,3.29878,2.08899,2.08899,A,124203.30
3.31769,57.68785636,11.98131866,57.68785800,11.98131767,12:42:03.420715,0.00744,1.18676,1.18676,-0.05213,0.10925,0.03626,0.00632,0.05957,-0.06679,0.00146,0.94385,3.31193,1.19037,2.07503,2.13873,-1.54590,3.11684,3.25424,-1.60480,3.29878,2.08899,2.08899,A,124203.30
3.32579,57.68785650,11.98131855,57.68785800,11.98131767,12:42:03.428812,0.00514,1.18676,1.18676,-0.05102,0.10959,0.02954,0.01121,0.06385,0.00415,0.04685,0.91775,3.32012,1.18965,2.06813,2.13202,-1.55255,3.13173,3.25424,-1.60480,3.29878,2.08899,2.08899,A,124203.30
3.33667,57.68785665,11.98131841,57.68785800,11.98131767,12:42:03.439697,0.00563,1.18676,1.18676,-0.05157,0.10976,0.03000,0.00403,0.06828,-0.02904,-0.06057,0.94861,3.33073,1.18907,2.06249,2.12648,-1.56033,3.14831,3.25424,-1.60480,3.29878,2.08899,2.08899,A,124203.30
3.34663,57.68785678,11.98131830,57.68785800,11.98131767,12:42:03.449649,0.00517,1.18676,1.18676,-0.05214,0.10979,0.00969,0.00174,0.06660,-0.03715,-0.05337,1.01791,3.34117,1.18861,2.05765,2.12166,-1.56743,3.16368,3.25424,-1.60480,3.29878,2.08899,2.08899,A,124203.30
3.39828,57.68785692,11.98131818,57.68785933,11.98131583,12:42:03.501323,0.04643,1.18676,1.50000,-0.05106,0.10979,0.00114,0.00067,0.07408,-0.07948,0.06527,1.03987,3.35134,1.18824,2.05356,2.11757,-1.57424,3.17849,3.36843,-1.71377,3.44704,2.20462,2.20462,A,124203.40
3.40901,57.68785747,11.98131757,57.68785933,11.98131583,12:42:03.512031,0.00540,1.18676,1.18676,-0.05133,0.10979,-0.00787,0.00571,0.06140,-0.02385,0.00195,0.95191,3.40321,1.18795,2.07143,2.13544,-1.61046,3.23995,3.36843,-1.71377,3.44704,2.20462,2.20462,A,124203.40
3.42381,57.68785767,11.98131736,57.68785933,11.98131583,12:42:03.526842,0.00973,1.18676,1.18676,-0.05129,0.10979,-0.01139,-0.00345,0.06079,-0.01769,0.00744,0.92372,3.41806,1.18771,2.08304,2.14704,-1.62331,3.26243,3.36843,-1.71377,3.44704,2.20462,2.20462,A,124203.40
3.42979,57.68785779,11.98131724,57.68785933,11.98131583,12:42:03.532802,0.00507,1.18676,1.18676,-0.05129,0.10979,-0.01414,-0.00025,0.05988,-0.03447,-0.00092,0.93641,3.42407,1.18752,2.09208,2.15608,-1.63040,3.27562,3.36843,-1.71377,3.44704,2.20462,2.20462,A,124203.40
3.44043,57.68785794,11.98131708,57.68785933,11.98131583,12:42:03.543460,0.00543,1.18676,1.18676,-0.05172,0.10979,-0.01368,-0.00468,0.05804,-0.06692,-0.02403,0.94648,3.43470,1.18737,2.10018,2.16419,-1.63990,3.29224,3.36843,-1.71377,3.44704,2.20462,2.20462,A,124203.40
3.45048,57.68785808,11.98131693,57.68785933,11.98131583,12:42:03.553505,0.00507,1.18676,1.18676,-0.05246,0.10979,-0.01765,0.00357,0.05545,-0.08979,-0.04343,0.97216,3.44504,1.18725,2.10704,2.17105,-1.64881,3.30771,3.36843,-1.71377,3.44704,2.20462,2.20462,A,124203.40
3.46106,57.68785821,11.98131678,57.68785933,11.98131583,12:42:03.564079,0.00521,1.18676,1.18676,-0.05299,0.10979,-0.01673,0.00464,0.06171,-0.01793,-0.03245,1.00168,3.45534,1.18715,2.11290,2.17691,-1.65748,3.32260,3.36843,-1.71377,3.44704,2.20462,2.20462,A,124203.40
3.50535,57.68785834,11.98131664,57.68786067,11.98131417,12:42:03.608394,0.03910,1.18676,1.50000,-0.05297,0.10979,-0.02101,0.00082,0.06034,0.00964,0.00677,1.02004,3.46594,1.18707,2.11788,2.18189,-1.66578,3.33674,3.48561,-1.81283,3.59530,2.15984,2.15984,A,124203.50
3.51614,57.68785881,11.98131605,57.68786067,11.98131417,12:42:03.619164,0.00557,1.18676,1.18676,-0.05383,0.10979,-0.01154,0.00143,0.06492,-0.10541,-0.03367,1.02675,3.51039,1.18701,2.11869,2.18270,-1.70073,3.38906,3.48561,-1.81283,3.59530,2.15984,2.15984,A,124203.50
3.52610,57.68785897,11.98131587,57.68786067,11.98131417,12:42:03.629116,0.00513,1.18676,1.18676,-0.05502,0.10979,-0.02376,0.01121,0.06064,-0.03873,-0.07265,0.98716,3.52062,1.18696,2.11605,2.18006,-1.71164,3.40693,3.48561,-1.81283,3.59530,2.15984,2.15984,A,124203.50
3.53697,57.68785913,11.98131569,57.68786067,11.98131417,12:42:03.639994,0.00561,1.18676,1.18676,-0.05624,0.10979,-0.02834,0.00999,0.04751,-0.00049,-0.07107,0.98039,3.53104,1.18692,2.11385,2.17785,-1.72225,3.42430,3.48561,-1.81283,3.59530,2.15984,2.15984,A,124203.50
3.54704,57.68785927,11.98131552,57.68786067,11.98131417,12:42:03.650063,0.00527,1.18676,1.18676,-0.05566,0.10979,-0.02941,-0.00238,0.04018,-0.01488,0.04630,0.99040,3.54161,1.18689,2.11194,2.17595,-1.73212,3.44054,3.48561,-1.81283,3.59530,2.15984,2.15984,A,124203.50
3.55782,57.68785942,11.98131536,57.68786067,11.98131417,12:42:03.660842,0.00581,1.18676,1.18676,-0.05638,0.10979,-0.01765,-0.00926,0.03590,-0.11145,-0.04715,0.99808,3.55214,1.18687,2.11037,2.17438,-1.74176,3.45639,3.48561,-1.81283,3.59530,2.15984,2.15984,A,124203.50
3.56779,57.68785955,11.98131522,57.68786067,11.98131417,12:42:03.670822,0.00538,1.26666,1.26666,-0.05652,0.10970,-0.01719,-0.00727,0.03040,-0.11132,-0.00909,1.02535,3.56210,1.20282,2.10896,2.17292,-1.75040,3.47070,3.48561,-1.81283,3.59530,2.15984,2.15984,A,124203.50
3.58305,57.68785968,11.98131506,57.68786067,11.98131417,12:42:03.686073,0.01023,1.26666,1.26666,-0.05682,0.10936,-0.00925,-0.00238,0.02933,-0.00921,-0.02355,0.99271,3.57338,1.21559,2.10796,2.17172,-1.75968,3.48589,3.48561,-1.81283,3.59530,2.15984,2.15984,A,124203.50
3.62937,57.68785982,11.98131490,57.68786200,11.98131333,12:42:03.732412,0.03898,1.26666,1.50000,-0.05738,0.10786,-0.00772,0.01273,0.02994,-0.09443,-0.04252,1.04035,3.59020,1.22581,2.10738,2.17026,-1.76942,3.50170,3.60714,-1.86237,3.74356,1.89322,1.89322,A,124203.60
3.63929,57.68786030,11.98131436,57.68786200,11.98131333,12:42:03.742567,0.00540,1.26666,1.26666,-0.05720,0.10059,0.01305,-0.02575,0.03789,-0.05441,-0.03623,0.96868,3.63383,1.23398,2.07056,2.12918,-1.80155,3.55401,3.60714,-1.86237,3.74356,1.89322,1.89322,A,124203.60
3.67519,57.68786068,11.98131395,57.68786200,11.98131333,12:42:03.778217,0.03091,1.26666,1.26666,-0.05730,0.09671,0.00358,-0.02361,0.02170,-0.12725,-0.03196,1.07744,3.66963,1.24051,2.03863,2.09498,-1.82573,3.59732,3.60714,-1.86237,3.74356,1.89322,1.89322,A,124203.60
3.80056,57.68786113,11.98131351,57.68786433,11.98131017,12:42:03.904105,0.10040,1.26666,1.50000,-0.05688,0.09077,0.01809,0.02205,0.01513,0.05795,-0.03276,0.93251,3.71221,1.24574,2.01252,2.06539,-1.85167,3.64633,3.76459,-2.05058,4.00302,2.19839,2.19839,A,124203.80
3.81657,57.68786217,11.98131245,57.68786433,11.98131017,12:42:03.919601,0.00762,1.26666,1.26666,-0.05569,0.08157,0.01060,-0.00238,0.01910,-0.01610,-0.00262,0.96484,3.80876,1.24993,2.04118,2.08868,-1.91472,3.76264,3.76459,-2.05058,4.00302,2.19839,2.19839,A,124203.80
3.82473,57.68786234,11.98131228,57.68786433,11.98131017,12:42:03.927755,0.00539,1.26666,1.26666,-0.05575,0.08106,0.01060,-0.00880,0.01742,-0.07405,-0.02233,0.93031,3.81901,1.25327,2.05815,2.10535,-1.92511,3.78098,3.76459,-2.05058,4.00302,2.19839,2.19839,A,124203.80
3.83512,57.68786251,11.98131209,57.68786433,11.98131017,12:42:03.938144,0.00538,1.26666,1.26666,-0.05669,0.08058,0.00465,-0.00849,0.00627,-0.07399,-0.07393,0.93342,3.82942,1.25595,2.07277,2.11969,-1.93645,3.80063,3.76459,-2.05058,4.00302,2.19839,2.19839,A,124203.80
3.84534,57.68786268,11.98131191,57.68786433,11.98131017,12:42:03.948366,0.00537,1.26666,1.26666,-0.05651,0.08001,-0.00039,-0.00727,-0.00029,-0.00329,-0.00116,0.92592,3.83949,1.25809,2.08524,2.13183,-1.94724,3.81906,3.76459,-2.05058,4.00302,2.19839,2.19839,A,124203.80
3.85572,57.68786284,11.98131173,57.68786433,11.98131017,12:42:03.958749,0.00534,1.26666,1.26666,-0.05640,0.07936,-0.00375,-0.01017,0.00368,-0.09406,-0.00470,0.98442,3.85005,1.25980,2.09590,2.14211,-1.95772,3.83671,3.76459,-2.05058,4.00302,2.19839,2.19839,A,124203.80
3.90734,57.68786299,11.98131156,57.68786583,11.98131000,12:42:04.010591,0.04656,1.26666,1.50000,-0.05669,0.07865,-0.00116,-0.00987,0.00307,-0.02495,-0.03379,1.00906,3.86024,1.26118,2.10504,2.15084,-1.96794,3.85371,3.87762,-2.06049,4.16981,1.63012,1.63012,A,124203.90
3.92228,57.68786362,11.98131088,57.68786583,11.98131000,12:42:04.025308,0.00736,1.26666,1.26666,-0.05694,0.07500,0.00969,-0.00452,0.00322,-0.01006,-0.06838,1.00046,3.91678,1.26227,2.03126,2.07492,-2.00839,3.92418,3.87762,-2.06049,4.16981,1.63012,1.63012,A,124203.90
3.93042,57.68786379,11.98131077,57.68786583,11.98131000,12:42:04.033440,0.00510,1.26666,1.26666,-0.05753,0.07421,-0.00161,-0.01246,0.00551,-0.01049,-0.05435,1.00260,3.92497,1.26315,1.96505,2.00826,-2.01468,3.94314,3.87762,-2.06049,4.16981,1.63012,1.63012,A,124203.90
3.94121,57.68786398,11.98131066,57.68786583,11.98131000,12:42:04.044232,0.00537,1.26666,1.26666,-0.05764,0.07316,-0.00207,-0.01231,0.00811,-0.08900,-0.02257,0.99058,3.93535,1.26385,1.90902,1.95161,-2.02133,3.96380,3.87762,-2.06049,4.16981,1.63012,1.63012,A,124203.90
3.95191,57.68786416,11.98131056,57.68786583,11.98131000,12:42:04.054940,0.00566,1.26666,1.26666,-0.05745,0.07212,0.00572,-0.00971,0.00398,-0.10065,-0.00805,0.99430,3.94608,1.26441,1.86147,1.90345,-2.02709,3.98360,3.87762,-2.06049,4.16981,1.63012,1.63012,A,124203.90
3.96180,57.68786433,11.98131048,57.68786583,11.98131000,12:42:04.064820,0.00515,1.26666,1.26666,-0.05686,0.07124,0.00190,-0.00849,0.00307,-0.02800,0.02147,1.00571,3.95611,1.26486,1.82110,1.86257,-2.03199,4.00226,3.87762,-2.06049,4.16981,1.63012,1.63012,A,124203.90
3.97247,57.68786449,11.98131041,57.68786583,11.98131000,12:42:04.075733,0.00542,1.26666,1.26666,-0.05788,0.07053,0.00877,-0.01369,0.00261,0.00049,-0.09010,0.99643,3.96673,1.26522,1.78687,1.82792,-2.03638,4.02052,3.87762,-2.06049,4.16981,1.63012,1.63012,A,124203.90
4.02829,57.68786464,11.98131034,57.68786683,11.98130867,12:42:04.131349,0.05084,1.26666,1.50000,-0.05783,0.07008,-0.00054,-0.01888,-0.00106,-0.05435,-0.01421,1.01571,3.97711,1.26551,1.75778,1.79858,-2.04012,4.03763,3.99404,-2.13974,4.28100,2.19000,2.19000,A,124204.00
4.04503,57.68786538,11.98130999,57.68786683,11.98130867,12:42:04.148059,0.00818,1.26666,1.26666,-0.05801,0.06889,0.00450,0.01319,0.00261,0.02294,-0.04746,1.00583,4.03808,1.26574,1.82049,1.86058,-2.06118,4.11912,3.99404,-2.13974,4.28100,2.19000,2.19000,A,124204.00
4.05266,57.68786551,11.98130989,57.68786683,11.98130867,12:42:04.155684,0.00541,1.26666,1.26666,-0.05817,0.06812,0.00343,0.00556,-0.00075,0.01854,-0.03245,1.04164,4.04693,1.26592,1.87032,1.90998,-2.06702,4.13365,3.99404,-2.13974,4.28100,2.19000,2.19000,A,124204.00
4.06277,57.68786566,11.98130977,57.68786683,11.98130867,12:42:04.165792,0.00511,1.26666,1.26666,-0.05780,0.06719,0.00572,-0.00727,0.00459,0.00317,0.00232,1.03364,4.05733,1.26607,1.91294,1.95205,-2.07399,4.15045,3.99404,-2.13974,4.28100,2.19000,2.19000,A,124204.00
4.07338,57.68786580,11.98130966,57.68786683,11.98130867,12:42:04.176413,0.00548,1.26666,1.26666,-0.05805,0.06626,0.00511,-0.00971,-0.00090,-0.06838,-0.03837,1.01693,4.06739,1.26619,1.94924,1.98780,-2.08098,4.16622,3.99404,-2.13974,4.28100,2.19000,2.19000,A,124204.00
4.08366,57.68786594,11.98130954,57.68786683,11.98130867,12:42:04.186690,0.00535,1.40586,1.40586,-0.05804,0.06535,0.00572,-0.00208,-0.00243,-0.04508,-0.02019,1.02547,4.07798,1.29412,1.98017,2.01821,-2.08806,4.18132,3.99404,-2.13974,4.28100,2.19000,2.19000,A,124204.00
4.09383,57.68786607,11.98130942,57.68786683,11.98130867,12:42:04.196847,0.00513,1.40586,1.40586,-0.05888,0.06470,0.00419,-0.00208,-0.00564,0.00073,-0.07137,0.95904,4.08816,1.31647,2.00654,2.04419,-2.09522,4.19584,3.99404,-2.13974,4.28100,2.19000,2.19000,A,124204.00
4.14796,57.68786619,11.98130930,57.68786817,11.98130717,12:42:04.251015,0.04887,1.40586,1.50000,-0.05881,0.06430,-0.00009,-0.00040,-0.00029,-0.02806,-0.01220,0.96557,4.09877,1.33435,2.02898,2.06641,-2.10235,4.20966,4.11584,-2.22889,4.42926,2.11221,2.11221,A,124204.10
4.16685,57.68786688,11.98130859,57.68786817,11.98130717,12:42:04.269899,0.00941,10.89517,1.50000,-0.05882,0.06309,-0.00451,0.00586,-0.00946,-0.03148,0.00159,1.01083,4.15975,1.36748,2.03970,2.07641,-2.14418,4.28632,4.11584,-2.22889,4.42926,2.11221,2.11221,A,124204.10
4.17961,57.68786707,11.98130839,57.68786817,11.98130717,12:42:04.282651,0.01104,10.89517,1.50000,-0.05971,0.06263,0.00602,0.00220,-0.00869,0.04258,-0.07674,0.95441,4.17389,1.39398,2.04588,2.08233,-2.15601,4.30718,4.11584,-2.22889,4.42926,2.11221,2.11221,A,124204.10
4.20100,57.68786733,11.98130812,57.68786817,11.98130717,12:42:04.304026,0.01218,10.89517,1.50000,-0.05965,0.06232,0.00282,-0.01506,0.00169,-0.05557,-0.01543,0.95514,4.19521,1.41519,2.05164,2.08792,-2.17230,4.33581,4.11584,-2.22889,4.42926,2.11221,2.11221,A,124204.10
4.25852,57.68786754,11.98130789,57.68786933,11.98130633,12:42:04.361569,0.04773,10.89517,1.50000,-0.05921,0.06232,-0.00925,0.00204,-0.00213,-0.09101,0.02416,1.01705,4.21389,1.43215,2.05637,2.09264,-2.18613,4.35983,4.23080,-2.27843,4.55899,1.93552,1.93552,A,124204.20
4.27670,57.68786819,11.98130720,57.68786933,11.98130633,12:42:04.379723,0.01157,10.89517,1.50000,-0.05948,0.06232,-0.00238,0.00281,0.00078,0.03623,-0.02379,0.93977,4.26864,1.44572,2.03630,2.07257,-2.22666,4.43225,4.23080,-2.27843,4.55899,1.93552,1.93552,A,124204.20
4.29922,57.68786847,11.98130693,57.68786933,11.98130633,12:42:04.402468,0.01092,10.89517,1.50000,-0.05956,0.06232,-0.00177,-0.01307,0.01040,-0.09174,-0.01800,0.96941,4.29372,1.45658,2.01712,2.05339,-2.24293,4.46353,4.23080,-2.27843,4.55899,1.93552,1.93552,A,124204.20
4.32046,57.68786873,11.98130669,57.68786933,11.98130633,12:42:04.423482,0.01268,10.89517,1.50000,-0.05956,0.06232,-0.00054,0.02052,0.00658,-0.09418,-0.01598,1.00375,4.31463,1.46526,2.00072,2.03699,-2.25697,4.49170,4.23080,-2.27843,4.55899,1.93552,1.93552,A,124204.20
4.39761,57.68786895,11.98130649,57.68787050,11.98130467,12:42:04.500669,0.06888,10.89517,1.50000,-0.05956,0.06232,-0.00054,0.03534,0.00750,-0.05081,-0.01739,1.03981,4.33420,1.47221,1.98668,2.02295,-2.26895,4.51674,4.36294,-2.37749,4.68872,2.22296,2.22296,A,124204.40
4.41655,57.68786986,11.98130564,57.68787050,11.98130467,12:42:04.519577,0.01179,10.89517,1.50000,-0.06040,0.06382,-0.01612,0.01518,0.02490,-0.03221,0.00915,0.89347,4.41078,1.47777,2.02155,2.05869,-2.31940,4.61805,4.36294,-2.37749,4.68872,2.22296,2.22296,A,124204.40
4.43345,57.68787006,11.98130543,57.68787050,11.98130467,12:42:04.536467,0.00878,10.89517,1.50000,-0.06064,0.06459,-0.02101,0.02449,0.02002,-0.09760,-0.01006,0.99796,4.42767,1.48221,2.04715,2.08474,-2.33204,4.63992,4.36294,-2.37749,4.68872,2.22296,2.22296,A,124204.40
4.44523,57.68787018,11.98130529,57.68787050,11.98130467,12:42:04.548269,0.01039,10.89517,1.50000,-0.06023,0.06501,-0.02605,0.03198,0.01437,-0.06130,0.03068,1.09263,4.43884,1.48577,2.06849,2.10633,-2.34059,4.65347,4.36294,-2.37749,4.68872,2.22296,2.22296,A,124204.40
4.50677,57.68787043,11.98130500,57.68787133,11.98130317,12:42:04.609814,0.05147,10.89517,1.50000,-0.06037,0.06583,-0.03567,0.02510,0.01666,-0.02208,0.03123,1.09959,4.46250,1.48862,2.08744,2.12575,-2.35782,4.68117,4.48009,-2.46664,4.78138,2.33691,2.33691,A,124204.50
4.52657,57.68787109,11.98130420,57.68787133,11.98130317,12:42:04.629594,0.01096,10.89517,1.50000,-0.06250,0.06637,-0.02712,0.02556,0.01910,-0.08668,-0.05161,0.95544,4.52105,1.49089,2.12315,2.16178,-2.40526,4.75392,4.48009,-2.46664,4.78138,2.33691,2.33691,A,124204.50
4.54778,57.68787129,11.98130390,57.68787133,11.98130317,12:42:04.650817,0.00961,10.89517,1.50000,-0.06285,0.06637,-0.03048,0.02678,0.02246,-0.17733,-0.00305,1.11044,4.54143,1.49271,2.15078,2.18941,-2.42296,4.77711,4.48009,-2.46664,4.78138,2.33691,2.33691,A,124204.50
4.55925,57.68787140,11.98130373,57.68787133,11.98130317,12:42:04.662531,0.01056,10.89517,1.50000,-0.06262,0.06637,-0.02070,0.03656,0.02323,-0.09589,0.01281,1.09361,4.55378,1.49417,2.17363,2.21226,-2.43331,4.78879,4.48009,-2.46664,4.78138,2.33691,2.33691,A,124204.50
4.57898,57.68787158,11.98130344,57.68787133,11.98130317,12:42:04.681995,0.00905,10.89517,1.50000,-0.06277,0.06637,-0.01337,0.01625,0.02155,0.00049,-0.01360,1.06768,4.57350,1.49534,2.19364,2.23227,-2.45019,4.80878,4.48009,-2.46664,4.78138,2.33691,2.33691,A,124204.50
4.63725,57.68787167,11.98130328,57.68787250,11.98130183,12:42:04.740292,0.05713,10.89517,1.50000,-0.06280,0.06637,-0.01719,0.00769,0.01773,-0.07082,-0.00744,1.03364,4.58581,1.49627,2.21011,2.24874,-2.46017,4.81918,4.60281,-2.54589,4.91111,2.11919,2.11919,A,124204.60
4.65790,57.68787236,11.98130223,57.68787250,11.98130183,12:42:04.760917,0.01168,10.89517,1.50000,-0.06464,0.06637,-0.02513,0.02510,-0.02228,-0.02513,-0.03312,1.02157,4.65223,1.49702,2.19543,2.23406,-2.52221,4.89550,4.60281,-2.54589,4.91111,2.11919,2.11919,A,124204.60
4.67573,57.68787252,11.98130198,57.68787250,11.98130183,12:42:04.778759,0.00701,1.40563,1.40563,-0.06447,0.06614,-0.01307,0.02572,-0.02641,-0.02586,0.00317,1.08702,4.66977,1.47874,2.17936,2.21786,-2.53699,4.91368,4.60281,-2.54589,4.91111,2.11919,2.11919,A,124204.60
4.68452,57.68787259,11.98130187,57.68787250,11.98130183,12:42:04.787541,0.00540,1.40563,1.40563,-0.06500,0.06572,-0.00314,0.02373,-0.02396,-0.02373,-0.06027,1.06116,4.67878,1.46412,2.16512,2.20337,-2.54355,4.92164,4.60281,-2.54589,4.91111,2.11919,2.11919,A,124204.60
4.69461,57.68787267,11.98130176,57.68787250,11.98130183,12:42:04.797637,0.00510,1.40563,1.40563,-0.06554,0.06487,0.00037,0.02297,-0.02977,0.00268,-0.06259,1.04475,4.68917,1.45242,2.15316,2.19091,-2.55049,4.93043,4.60281,-2.54589,4.91111,2.11919,2.11919,A,124204.60
4.75052,57.68787275,11.98130165,57.68787350,11.98130267,12:42:04.853574,0.05066,1.40563,1.50000,-0.06500,0.06365,-0.00100,0.01518,-0.01816,-0.06917,0.01263,1.03127,4.69935,1.44306,2.14309,2.18014,-2.55698,4.93887,4.71761,-2.49636,5.02230,1.15174,1.15174,A,124204.70
4.76975,57.68787342,11.98130087,57.68787350,11.98130267,12:42:04.872769,0.00696,1.40563,1.40563,-0.06466,0.05734,0.00450,0.01671,-0.00854,-0.01501,-0.02239,1.04597,4.76372,1.43557,1.99362,2.02699,-2.60287,5.01314,4.71761,-2.49636,5.02230,1.15174,1.15174,A,124204.70
4.77906,57.68787350,11.98130089,57.68787350,11.98130267,12:42:04.882088,0.00552,1.40563,1.40563,-0.06413,0.05694,0.00236,0.01380,-0.01465,-0.04075,0.01019,1.09159,4.77360,1.42958,1.86282,1.89596,-2.60208,5.02283,4.71761,-2.49636,5.02230,1.15174,1.15174,A,124204.70
4.78951,57.68787360,11.98130092,57.68787350,11.98130267,12:42:04.892529,0.00565,1.40563,1.40563,-0.06372,0.05683,0.00358,0.02266,-0.01954,-0.05996,0.00073,1.09025,4.78335,1.42479,1.75168,1.78475,-2.60023,5.03302,4.71761,-2.49636,5.02230,1.15174,1.15174,A,124204.70
4.79938,57.68787369,11.98130097,57.68787350,11.98130267,12:42:04.902650,0.00512,1.40563,1.40563,-0.06354,0.05683,0.00541,0.02037,-0.02228,-0.13896,-0.01775,1.09532,4.79394,1.42096,1.65721,1.69028,-2.59737,5.04319,4.71761,-2.49636,5.02230,1.15174,1.15174,A,124204.70
4.81316,57.68787378,11.98130103,57.68787350,11.98130267,12:42:04.916185,0.00849,1.40563,1.40563,-0.06287,0.05683,0.00236,0.03809,-0.01786,-0.08046,0.02031,1.00863,4.80412,1.41789,1.57693,1.61000,-2.59367,5.05338,4.71761,-2.49636,5.02230,1.15174,1.15174,A,124204.70
4.88125,57.68787395,11.98130110,57.68787550,11.98129967,12:42:04.984292,0.06556,1.40563,1.50000,-0.06189,0.05683,0.00129,0.05305,-0.01282,-0.04099,0.04136,0.99406,4.82168,1.41544,1.50911,1.54218,-2.58961,5.07254,4.85410,-2.67467,5.24469,2.24663,2.24663,A,124204.90
4.89613,57.68787480,11.98130107,57.68787550,11.98129967,12:42:04.999157,0.00708,1.40563,1.40563,-0.06202,0.05683,-0.00039,-0.00406,0.00337,-0.07503,-0.02775,0.98003,4.89033,1.41348,1.61856,1.65163,-2.59142,5.16666,4.85410,-2.67467,5.24469,2.24663,2.24663,A,124204.90
4.90483,57.68787491,11.98130099,57.68787550,11.98129967,12:42:05.007852,0.00521,1.40563,1.40563,-0.06202,0.05683,0.00801,0.00113,-0.00228,-0.03947,-0.02775,1.04298,4.89911,1.41191,1.70821,1.74128,-2.59631,5.17952,4.85410,-2.67467,5.24469,2.24663,2.24663,A,124204.90
4.91515,57.68787504,11.98130089,57.68787550,11.98129967,12:42:05.018171,0.00513,1.40563,1.40563,-0.06214,0.05683,0.00098,0.01655,-0.00411,-0.08034,-0.03343,1.08708,4.90971,1.41065,1.78452,1.81759,-2.60216,5.19405,4.85410,-2.67467,5.24469,2.24663,2.24663,A,124204.90
4.92547,57.68787516,11.98130078,57.68787550,11.98129967,12:42:05.028495,0.00522,1.40563,1.40563,-0.06232,0.05683,0.01183,0.03091,-0.00365,-0.06673,-0.04788,1.12820,4.91978,1.40965,1.84937,1.88243,-2.60850,5.20733,4.85410,-2.67467,5.24469,2.24663,2.24663,A,124204.90
4.93606,57.68787528,11.98130067,57.68787550,11.98129967,12:42:05.039092,0.00541,1.40563,1.40563,-0.06193,0.05683,0.00984,0.04206,-0.00045,-0.00366,-0.00384,1.06475,4.93036,1.40884,1.90450,1.93757,-2.61531,5.22007,4.85410,-2.67467,5.24469,2.24663,2.24663,A,124204.90
4.94668,57.68787539,11.98130054,57.68787550,11.98129967,12:42:05.049699,0.00521,1.40563,1.40563,-0.06170,0.05694,0.01610,0.02984,0.00307,-0.07851,-0.01739,1.01290,4.94121,1.40820,1.95139,1.98452,-2.62263,5.23263,4.85410,-2.67467,5.24469,2.24663,2.24663,A,124204.90
4.99752,57.68787549,11.98130042,57.68787633,11.98129850,12:42:05.100578,0.04566,1.40563,1.50000,-0.06111,0.05726,0.01992,0.02434,0.01483,0.03989,0.00518,0.91347,4.95136,1.40768,1.99117,2.02449,-2.62972,5.24345,4.96855,-2.74402,5.33736,2.21324,2.21324,A,124205.00
5.01570,57.68787614,11.98129977,57.68787633,11.98129850,12:42:05.118738,0.00714,1.40563,1.40563,-0.05992,0.06227,0.02145,0.02862,0.01696,-0.09412,-0.02403,1.03993,5.00994,1.40727,2.02241,2.05865,-2.66855,5.31607,4.96855,-2.74402,5.33736,2.21324,2.21324,A,124205.00
5.02817,57.68787622,11.98129963,57.68787633,11.98129850,12:42:05.131221,0.00914,1.40563,1.40563,0.00000,0.06314,0.02633,0.03335,0.01437,-0.03123,-0.00146,1.05249,5.01871,1.40563,2.00892,2.04567,-2.74402,5.33736,4.96855,-2.74402,5.33736,2.21324,2.21324,A,124205.00
5.03524,57.68787643,11.98129840,57.68787633,11.98129850,12:42:05.138549,0.00549,1.40563,1.40563,0.00014,0.00975,0.02985,0.03778,0.02384,-0.08119,0.02086,1.05390,5.03009,1.40563,2.03933,2.04500,-2.74968,5.34838,4.96855,-2.74402,5.33736,2.21324,2.21324,A,124205.00
5.04514,57.68787651,11.98129833,57.68787633,11.98129850,12:42:05.148157,0.00516,1.40563,1.40563,-0.00020,0.01060,0.03611,0.03824,0.02368,-0.01287,-0.01196,1.00924,5.03951,1.40563,2.06457,2.07073,-2.75406,5.35691,4.96855,-2.74402,5.33736,2.21324,2.21324,A,124205.00
5.05590,57.68787659,11.98129825,57.68787633,11.98129850,12:42:05.158915,0.00552,1.40563,1.40563,-0.00069,0.01145,0.03443,0.02083,0.02689,0.01311,-0.02281,0.96349,5.05006,1.40563,2.08596,2.09262,-2.75899,5.36588,4.96855,-2.74402,5.33736,2.21324,2.21324,A,124205.00
5.06574,57.68787666,11.98129817,57.68787633,11.98129850,12:42:05.168752,0.00497,1.40563,1.40563,-0.00084,0.01213,0.03657,0.00143,0.02490,0.03172,-0.00213,0.95709,5.06024,1.40563,2.10409,2.11115,-2.76361,5.37379,4.96855,-2.74402,5.33736,2.21324,2.21324,A,124205.00
5.09315,57.68787673,11.98129809,57.68787717,11.98129867,12:42:05.196158,0.02198,1.40563,1.40563,-0.00097,0.01261,0.03458,-0.00895,0.02093,0.00756,0.00030,0.92988,5.07083,1.40563,2.11947,2.12680,-2.76845,5.38166,5.08817,-2.73411,5.43002,1.46429,1.46429,A,124205.10
5.10589,57.68787703,11.98129779,57.68787717,11.98129867,12:42:05.208900,0.00675,1.40563,1.40563,-0.00122,0.01276,0.02801,0.02572,0.01666,-0.03074,-0.03928,0.99375,5.10066,1.40563,2.02044,2.02786,-2.78613,5.41529,5.08817,-2.73411,5.43002,1.46429,1.46429,A,124205.10
5.11434,57.68787711,11.98129777,57.68787717,11.98129867,12:42:05.217350,0.00479,1.40563,1.40563,-0.00183,0.01276,0.02068,0.03259,0.01208,-0.01372,-0.02019,0.99314,5.10917,1.40563,1.93600,1.94341,-2.78745,5.42401,5.08817,-2.73411,5.43002,1.46429,1.46429,A,124205.10
5.12926,57.68787724,11.98129772,57.68787717,11.98129867,12:42:05.232277,0.00940,1.40563,1.40563,-0.00245,0.01276,0.02084,0.02953,0.01544,-0.02702,-0.02800,1.02986,5.12194,1.40563,1.86427,1.87169,-2.79012,5.43796,5.08817,-2.73411,5.43002,1.46429,1.46429,A,124205.10
5.13505,57.68787728,11.98129774,57.68787717,11.98129867,12:42:05.238055,0.00489,1.40563,1.40563,-0.00253,0.01276,0.01839,0.02251,0.02185,0.00811,0.01586,1.02846,5.12991,1.40563,1.80322,1.81063,-2.78893,5.44275,5.08817,-2.73411,5.43002,1.46429,1.46429,A,124205.10
5.14565,57.68787737,11.98129775,57.68787717,11.98129867,12:42:05.248666,0.00509,1.40563,1.40563,-0.00246,0.01276,0.01228,0.01289,0.01620,0.02800,0.02775,1.00979,5.14005,1.40563,1.75138,1.75879,-2.78884,5.45297,5.08817,-2.73411,5.43002,1.46429,1.46429,A,124205.10
5.15610,57.68787746,11.98129776,57.68787717,11.98129867,12:42:05.259108,0.00514,1.40563,1.40563,-0.00189,0.01276,0.02420,-0.00177,0.01253,-0.00842,0.05228,1.00168,5.15063,1.40563,1.70731,1.71473,-2.78819,5.46279,5.08817,-2.73411,5.43002,1.46429,1.46429,A,124205.10
5.16644,57.68787755,11.98129777,57.68787717,11.98129867,12:42:05.269453,0.00510,1.40563,1.40563,-0.00203,0.01276,0.03244,-0.01750,0.02155,-0.03501,-0.00067,1.01754,5.16126,1.40563,1.66986,1.67728,-2.78712,5.47244,5.08817,-2.73411,5.43002,1.46429,1.46429,A,124205.10
5.17706,57.68787763,11.98129780,57.68787717,11.98129867,12:42:05.280069,0.00523,1.40563,1.40563,-0.00372,0.01276,0.02633,-0.01979,0.01666,-0.04795,-0.10327,1.04078,5.17134,1.40563,1.63802,1.64544,-2.78565,5.48132,5.08817,-2.73411,5.43002,1.46429,1.46429,A,124205.10
5.18710,57.68787770,11.98129783,57.68787717,11.98129867,12:42:05.290105,0.00488,1.42078,1.42078,-0.00493,0.01276,0.01320,-0.01720,0.02109,-0.08388,-0.06008,0.99345,5.18192,1.40866,1.61096,1.61838,-2.78389,5.48974,5.08817,-2.73411,5.43002,1.46429,1.46429,A,124205.10
5.21418,57.68787778,11.98129786,57.68787783,11.98129783,12:42:05.317549,0.02156,1.42078,1.42078,-0.00537,0.01276,0.01335,-0.00971,0.01742,-0.02538,-0.00952,0.94940,5.19208,1.41108,1.58796,1.59538,-2.78194,5.49794,5.20929,-2.78364,5.50415,2.15984,2.15984,A,124205.20
5.22843,57.68787810,11.98129785,57.68787783,11.98129783,12:42:05.331463,0.00717,1.42078,1.42078,-0.00567,0.01276,-0.00024,0.01289,0.02567,-0.08272,0.00836,0.95008,5.22106,1.41302,1.67299,1.68040,-2.78291,5.53434,5.20929,-2.78364,5.50415,2.15984,2.15984,A,124205.20
5.23691,57.68787817,11.98129783,57.68787783,11.98129783,12:42:05.339921,0.00511,1.42078,1.42078,-0.00618,0.01276,-0.00345,0.01090,0.01605,-0.03770,-0.00396,0.95056,5.23132,1.41457,1.74499,1.75241,-2.78392,5.54169,5.20929,-2.78364,5.50415,2.15984,2.15984,A,124205.20
5.24718,57.68787826,11.98129779,57.68787783,11.98129783,12:42:05.350187,0.00498,1.42078,1.42078,-0.00651,0.01276,-0.00329,-0.00651,0.01101,-0.03050,0.00756,1.01522,5.24203,1.41581,1.80622,1.81363,-2.78597,5.55104,5.20929,-2.78364,5.50415,2.15984,2.15984,A,124205.20
5.25748,57.68787833,11.98129775,57.68787783,11.98129783,12:42:05.360487,0.00489,1.42078,1.42078,-0.00759,0.01276,-0.00268,-0.01384,-0.00121,-0.08564,-0.04496,1.02706,5.25207,1.41680,1.85826,1.86567,-2.78853,5.55949,5.20929,-2.78364,5.50415,2.15984,2.15984,A,124205.20
5.26824,57.68787841,11.98129770,57.68787783,11.98129783,12:42:05.371251,0.00526,1.42078,1.42078,-0.00780,0.01276,-0.00406,-0.00666,-0.00121,-0.13005,0.01598,1.08031,5.26279,1.41760,1.90250,1.90991,-2.79168,5.56792,5.20929,-2.78364,5.50415,2.15984,2.15984,A,124205.20
5.27847,57.68787847,11.98129764,57.68787783,11.98129783,12:42:05.381482,0.00510,1.42078,1.42078,-0.00889,0.01276,-0.00543,0.00601,-0.00625,-0.11743,-0.04563,1.05060,5.27303,1.41823,1.94010,1.94751,-2.79494,5.57511,5.20929,-2.78364,5.50415,2.15984,2.15984,A,124205.20
5.28877,57.68787853,11.98129758,57.68787783,11.98129783,12:42:05.391779,0.00494,1.42078,1.42078,-0.00976,0.01276,-0.00711,0.01365,-0.00579,-0.01519,-0.03050,1.04584,5.28332,1.41874,1.97205,1.97947,-2.79845,5.58186,5.20929,-2.78364,5.50415,2.15984,2.15984,A,124205.20
5.29909,57.68787859,11.98129752,57.68787783,11.98129783,12:42:05.402105,0.00487,1.42078,1.42078,-0.01033,0.01276,-0.01383,0.00449,0.00612,-0.02952,-0.00445,0.96746,5.29393,1.41915,1.99922,2.00664,-2.80229,5.58854,5.20929,-2.78364,5.50415,2.15984,2.15984,A,124205.20
5.32654,57.68787865,11.98129746,57.68787850,11.98129583,12:42:05.429567,0.02193,1.42078,1.42078,-0.01060,0.01276,-0.00238,0.00143,0.01437,-0.03318,0.00634,0.92726,5.30410,1.41947,2.02231,2.02973,-2.80612,5.59456,5.32119,-2.90252,5.57828,2.58400,2.58400,A,124205.30
5.34152,57.68787896,11.98129707,57.68787850,11.98129583,12:42:05.444526,0.00621,1.42078,1.42078,-0.01122,0.01276,0.00052,-0.01063,0.02903,-0.04526,-0.02025,0.99857,5.33608,1.41974,2.10586,2.11327,-2.82884,5.62997,5.32119,-2.90252,5.57828,2.58400,2.58400,A,124205.30
5.35056,57.68787902,11.98129693,57.68787850,11.98129583,12:42:05.453577,0.00486,1.42078,1.42078,-0.01188,0.01276,-0.00299,-0.01170,0.03132,-0.14939,-0.02092,1.05914,5.34540,1.41994,2.17656,2.18398,-2.83758,5.63577,5.32119,-2.90252,5.57828,2.58400,2.58400,A,124205.30
5.36093,57.68787907,11.98129676,57.68787850,11.98129583,12:42:05.463938,0.00500,1.42078,1.42078,-0.01203,0.01276,-0.00268,-0.01521,0.03056,-0.07668,0.01385,1.07195,5.35547,1.42011,2.23668,2.24409,-2.84726,5.64204,5.32119,-2.90252,5.57828,2.58400,2.58400,A,124205.30
5.37117,57.68787912,11.98129660,57.68787850,11.98129583,12:42:05.474174,0.00484,1.42078,1.42078,-0.01305,0.01276,0.00220,-0.00315,0.02323,-0.08150,-0.05246,1.08220,5.36600,1.42024,2.28778,2.29519,-2.85713,5.64776,5.32119,-2.90252,5.57828,2.58400,2.58400,A,124205.30
5.38176,57.68787917,11.98129643,57.68787850,11.98129583,12:42:05.484773,0.00487,1.42078,1.42078,-0.01225,0.01276,-0.00772,-0.00132,0.03010,-0.17946,0.08564,1.08946,5.37658,1.42035,2.33121,2.33863,-2.86727,5.65318,5.32119,-2.90252,5.57828,2.58400,2.58400,A,124205.30
5.39241,57.68787921,11.98129626,57.68787850,11.98129583,12:42:05.495424,0.00512,1.42078,1.42078,-0.01178,0.01276,-0.00039,0.01793,0.02506,-0.11779,0.05374,1.01162,5.38695,1.42044,2.36813,2.37555,-2.87706,5.65775,5.32119,-2.90252,5.57828,2.58400,2.58400,A,124205.30
5.40254,57.68787925,11.98129610,57.68787850,11.98129583,12:42:05.505547,0.00486,1.42078,1.42078,-0.01246,0.01278,0.00831,0.01472,0.02017,-0.06863,-0.02861,0.97216,5.39738,1.42050,2.39951,2.40695,-2.88646,5.66159,5.32119,-2.90252,5.57828,2.58400,2.58400,A,124205.30
5.41289,57.68787928,11.98129595,57.68787850,11.98129583,12:42:05.515908,0.00497,1.42078,1.42078,-0.01326,0.01315,0.00220,0.01609,0.02643,-0.00775,-0.03087,0.91543,5.40745,1.42056,2.42615,2.43380,-2.89556,5.66493,5.32119,-2.90252,5.57828,2.58400,2.58400,A,124205.30
5.45212,57.68787931,11.98129579,57.68788067,11.98129483,12:42:05.555132,0.03381,1.42078,1.42078,-0.01346,0.01420,-0.00299,-0.00468,0.03376,-0.10986,0.00830,0.93806,5.41819,1.42060,2.44871,2.45696,-2.90480,5.66821,5.44796,-2.96195,5.81920,1.81267,1.81267,A,124205.50
5.46948,57.68787971,11.98129497,57.68788067,11.98129483,12:42:05.572494,0.00785,1.42078,1.42078,-0.01404,0.02215,-0.01444,-0.01338,0.03453,-0.04386,0.02721,1.04414,5.46403,1.42064,2.35203,2.36491,-2.95373,5.71336,5.44796,-2.96195,5.81920,1.81267,1.81267,A,124205.50
5.47710,57.68787981,11.98129488,57.68788067,11.98129483,12:42:05.580127,0.00523,1.42078,1.42078,-0.01449,0.02326,-0.01612,-0.01231,0.03346,-0.05435,-0.00159,1.07891,5.47138,1.42066,2.26922,2.28274,-2.95923,5.72365,5.44796,-2.96195,5.81920,1.81267,1.81267,A,124205.50
5.48711,57.68787993,11.98129475,57.68788067,11.98129483,12:42:05.590117,0.00484,1.42078,1.42078,-0.01436,0.02433,-0.01154,-0.00330,0.03651,-0.03837,0.03831,1.02175,5.48196,1.42069,2.19882,2.21297,-2.96685,5.73710,5.44796,-2.96195,5.81920,1.81267,1.81267,A,124205.50
5.49750,57.68788005,11.98129464,57.68788067,11.98129483,12:42:05.600509,0.00484,1.42078,1.42078,-0.01426,0.02510,-0.01276,-0.00971,0.04094,-0.14219,0.03623,1.01266,5.49212,1.42070,2.13892,2.15352,-2.97338,5.75027,5.44796,-2.96195,5.81920,1.81267,1.81267,A,124205.50
5.50813,57.68788016,11.98129454,57.68788067,11.98129483,12:42:05.611144,0.00507,1.42078,1.42078,-0.01469,0.02560,-0.00039,-0.00055,0.04415,-0.03660,-0.00579,0.90878,5.50271,1.42072,2.08798,2.10287,-2.97918,5.76339,5.44796,-2.96195,5.81920,1.81267,1.81267,A,124205.50
5.51911,57.68788029,11.98129445,57.68788067,11.98129483,12:42:05.622126,0.00566,1.42078,1.42078,-0.01609,0.02586,-0.00009,-0.00681,0.05010,-0.09101,-0.06814,0.93849,5.51393,1.42073,2.04467,2.05971,-2.98461,5.77687,5.44796,-2.96195,5.81920,1.81267,1.81267,A,124205.50
5.52878,57.68788039,11.98129439,57.68788067,11.98129483,12:42:05.631789,0.00493,1.42078,1.42078,-0.01623,0.02586,-0.00681,-0.01353,0.05423,-0.10760,0.01440,1.01333,5.52335,1.42074,2.00783,2.02286,-2.98830,5.78804,5.44796,-2.96195,5.81920,1.81267,1.81267,A,124205.50
5.53923,57.68788050,11.98129433,57.68788067,11.98129483,12:42:05.642454,0.00499,1.42078,1.42078,-0.01778,0.02586,-0.00833,-0.00987,0.04995,-0.10852,-0.08241,1.05359,5.53408,1.42075,1.97653,1.99157,-2.99210,5.80014,5.44796,-2.96195,5.81920,1.81267,1.81267,A,124205.50
5.56617,57.68788060,11.98129428,57.68788233,11.98129350,12:42:05.669182,0.02154,1.42078,1.42078,-0.01841,0.02586,-0.01215,-0.01857,0.03743,-0.07521,-0.01769,1.06396,5.54411,1.42075,1.94992,1.96496,-2.99514,5.81125,5.56186,-3.04120,6.00453,1.97489,1.97489,A,124205.60
5.58128,57.68788101,11.98129398,57.68788233,11.98129350,12:42:05.684289,0.00719,1.42078,1.42078,-0.01932,0.02586,-0.00711,-0.02132,0.01712,-0.05167,-0.02617,0.91390,5.57576,1.42076,1.95221,1.96725,-3.01269,5.85756,5.56186,-3.04120,6.00453,1.97489,1.97489,A,124205.60
5.58927,57.68788114,11.98129390,57.68788233,11.98129350,12:42:05.692279,0.00496,1.42078,1.42078,-0.01981,0.02586,-0.01612,-0.02315,0.01681,-0.03019,-0.00628,0.88365,5.58385,1.42076,1.95352,1.96856,-3.01722,5.87234,5.56186,-3.04120,6.00453,1.97489,1.97489,A,124205.60
5.59980,57.68788130,11.98129381,57.68788233,11.98129350,12:42:05.702812,0.00509,1.42078,1.42078,-0.02165,0.02586,-0.01368,-0.02117,0.02567,-0.06972,-0.07893,0.81325,5.59439,1.42076,1.95470,1.96974,-3.02287,5.88953,5.56186,-3.04120,6.00453,1.97489,1.97489,A,124205.60
5.61001,57.68788145,11.98129372,57.68788233,11.98129350,12:42:05.713024,0.00490,1.42078,1.42078,-0.02327,0.02586,-0.02803,-0.03812,0.03010,-0.19984,-0.06887,0.92244,5.60485,1.42077,1.95570,1.97074,-3.02822,5.90581,5.56186,-3.04120,6.00453,1.97489,1.97489,A,124205.60
5.62065,57.68788159,11.98129363,57.68788233,11.98129350,12:42:05.723665,0.00497,1.42078,1.42078,-0.02342,0.02586,-0.03979,-0.00040,0.02368,-0.16281,0.02684,0.89402,5.61518,1.42077,1.95656,1.97159,-3.03336,5.92137,5.56186,-3.04120,6.00453,1.97489,1.97489,A,124205.60
5.63105,57.68788172,11.98129355,57.68788233,11.98129350,12:42:05.734064,0.00498,1.42078,1.42078,-0.02379,0.02586,-0.04926,0.02541,0.02002,-0.21173,0.02263,1.05262,5.62590,1.42077,1.95728,1.97232,-3.03829,5.93624,5.56186,-3.04120,6.00453,1.97489,1.97489,A,124205.60
5.64189,57.68788184,11.98129347,57.68788233,11.98129350,12:42:05.744903,0.00542,1.42078,1.42078,-0.02413,0.02569,-0.05216,0.04343,0.00566,-0.10724,0.02635,1.13771,5.63593,1.42077,1.95791,1.97285,-3.04279,5.94990,5.56186,-3.04120,6.00453,1.97489,1.97489,A,124205.60
5.65199,57.68788196,11.98129340,57.68788233,11.98129350,12:42:05.755000,0.00512,1.59482,1.59482,-0.02503,0.02498,-0.05751,0.03870,-0.00594,-0.14567,-0.01049,1.18468,5.64655,1.45558,1.95849,1.97302,-3.04695,5.96261,5.56186,-3.04120,6.00453,1.97489,1.97489,A,124205.60
5.67903,57.68788207,11.98129333,57.68788400,11.98129167,12:42:05.782041,0.02176,1.59482,1.59482,-0.02548,0.02354,-0.06041,0.04496,-0.01786,0.06643,0.02483,1.14454,5.65693,1.48343,1.95912,1.97281,-3.05118,5.97531,5.67381,-3.15017,6.18985,2.10233,2.10233,A,124205.70
5.69628,57.68788254,11.98129295,57.68788400,11.98129167,12:42:05.799295,0.00631,1.59482,1.59482,-0.02878,0.01598,-0.06117,-0.03797,0.00154,-0.12542,-0.06259,0.84278,5.69080,1.50571,1.98004,1.98933,-3.07382,6.02764,5.67381,-3.15017,6.18985,2.10233,2.10233,A,124205.70
5.70550,57.68788270,11.98129282,57.68788400,11.98129167,12:42:05.808505,0.00530,1.59482,1.59482,-0.02983,0.01380,-0.06194,-0.01338,0.00307,-0.11456,-0.01812,0.70229,5.70012,1.52353,1.99731,2.00533,-3.08183,6.04520,5.67381,-3.15017,6.18985,2.10233,2.10233,A,124205.70
5.72105,57.68788292,11.98129262,57.68788400,11.98129167,12:42:05.824060,0.01046,12.08359,1.59482,-0.03298,0.01063,-0.06667,0.00800,0.00215,-0.16677,-0.11248,0.79587,5.71509,1.53779,2.01234,2.01852,-3.09342,6.07004,5.67381,-3.15017,6.18985,2.10233,2.10233,A,124205.70
5.74151,57.68788319,11.98129238,57.68788400,11.98129167,12:42:05.844522,0.01074,12.08359,1.59482,-0.03457,0.00559,-0.09737,0.04908,-0.01602,-0.06252,0.02794,0.99650,5.73610,1.54919,2.02558,2.02883,-3.10792,6.10031,5.67381,-3.15017,6.18985,2.10233,2.10233,A,124205.70
5.76230,57.68788346,11.98129213,57.68788400,11.98129167,12:42:05.865312,0.00980,12.08359,1.59482,-0.03600,0.00163,-0.08729,0.04312,-0.01679,-0.03141,0.02355,1.24952,5.75656,1.55832,2.03707,2.03802,-3.12238,6.12984,5.67381,-3.15017,6.18985,2.10233,2.10233,A,124205.70
5.77363,57.68788360,11.98129200,57.68788400,11.98129167,12:42:05.876644,0.01042,12.08359,1.59482,-0.03728,-0.00004,-0.08057,0.01548,-0.02748,0.01171,-0.03605,1.26496,5.76824,1.56562,2.04688,2.04686,-3.13011,6.14540,5.67381,-3.15017,6.18985,2.10233,2.10233,A,124205.70
5.81770,57.68788385,11.98129176,57.68788567,11.98129017,12:42:05.920713,0.03254,12.08359,1.59482,-0.03900,-0.00199,-0.08545,-0.01827,-0.02580,-0.08461,-0.00122,1.03175,5.78964,1.57146,2.05537,2.05421,-3.14433,6.17325,5.81104,-3.23933,6.37518,2.01919,2.01919,A,124205.80
5.83975,57.68788442,11.98129121,57.68788567,11.98129017,12:42:05.942771,0.01057,12.08359,1.59482,-0.04428,-0.00242,-0.08622,0.00174,0.00001,-0.22729,-0.09254,0.85742,5.83430,1.57613,2.05006,2.04866,-3.17725,6.23702,5.81104,-3.23933,6.37518,2.01919,2.01919,A,124205.80
5.86016,57.68788471,11.98129094,57.68788567,11.98129017,12:42:05.963172,0.00942,12.08359,1.59482,-0.04651,-0.00242,-0.09278,0.02037,-0.00778,-0.16226,-0.04349,1.13545,5.85467,1.57987,2.04559,2.04418,-3.19313,6.26859,5.81104,-3.23933,6.37518,2.01919,2.01919,A,124205.80
5.87264,57.68788488,11.98129079,57.68788567,11.98129017,12:42:05.975655,0.01160,12.08359,1.59482,-0.04815,-0.00242,-0.09294,0.02022,-0.01740,0.09016,-0.05844,1.17669,5.86713,1.58286,2.04181,2.04041,-3.20253,6.28776,5.81104,-3.23933,6.37518,2.01919,2.01919,A,124205.80
5.89409,57.68788516,11.98129053,57.68788567,11.98129017,12:42:05.997100,0.01072,12.08359,1.59482,-0.04966,-0.00242,-0.10149,-0.02514,-0.01663,-0.01982,0.02983,1.10983,5.88888,1.58525,2.03857,2.03717,-3.21772,6.31845,5.81104,-3.23933,6.37518,2.01919,2.01919,A,124205.80
5.90966,57.68788535,11.98129036,57.68788567,11.98129017,12:42:06.012668,0.00769,12.08359,1.59482,-0.05150,-0.00242,-0.08576,-0.02529,-0.01465,-0.12383,-0.05301,0.95361,5.90418,1.58717,2.03584,2.03443,-3.22810,6.33974,5.81104,-3.23933,6.37518,2.01919,2.01919,A,124205.80
5.93831,57.68788548,11.98129024,57.68788717,11.98128867,12:42:06.041328,0.02612,12.08359,1.59482,-0.05297,-0.00242,-0.08103,-0.01048,-0.01663,-0.02129,-0.04917,0.82960,5.91545,1.58870,2.03353,2.03212,-3.23485,6.35390,5.93269,-3.32848,6.54197,2.06169,2.06169,A,124205.90
5.95630,57.68788595,11.98128980,57.68788717,11.98128867,12:42:06.059318,0.00985,12.08359,1.59482,-0.05563,-0.00264,-0.09324,0.00647,-0.02534,-0.09577,0.01098,0.95703,5.94994,1.58992,2.03789,2.03635,-3.26129,6.40706,5.93269,-3.32848,6.54197,2.06169,2.06169,A,124205.90
5.96682,57.68788610,11.98128966,57.68788717,11.98128867,12:42:06.069832,0.00963,12.08359,1.59482,-0.05692,-0.00315,-0.08469,0.00937,-0.03359,-0.05539,-0.05844,1.02047,5.95959,1.59090,2.04171,2.03988,-3.26917,6.42282,5.93269,-3.32848,6.54197,2.06169,2.06169,A,124205.90
5.97752,57.68788625,11.98128951,57.68788717,11.98128867,12:42:06.080532,0.00954,12.08359,1.59482,-0.05737,-0.00411,-0.08790,-0.00009,-0.03756,-0.09980,0.01671,1.07714,5.97210,1.59168,2.04503,2.04264,-3.27807,6.44049,5.93269,-3.32848,6.54197,2.06169,2.06169,A,124205.90
5.98912,57.68788641,11.98128936,57.68788717,11.98128867,12:42:06.092132,0.01070,12.08359,1.59482,-0.05882,-0.00533,-0.06667,0.00174,-0.03481,-0.03227,-0.08363,1.13899,5.98364,1.59231,2.04795,2.04485,-3.28713,6.45836,5.93269,-3.32848,6.54197,2.06169,2.06169,A,124205.90
6.01221,57.68788667,11.98128911,57.68788717,11.98128867,12:42:06.115230,0.01233,12.08359,1.59482,-0.06062,-0.00660,-0.05720,-0.01735,-0.02366,-0.08229,-0.07918,1.09190,6.00408,1.59281,2.05047,2.04663,-3.30187,6.48725,5.93269,-3.32848,6.54197,2.06169,2.06169,A,124205.90
6.02834,57.68788686,11.98128894,57.68788717,11.98128867,12:42:06.131352,0.01000,12.08359,1.59482,-0.06354,-0.00692,-0.04086,-0.01338,-0.02091,-0.11120,-0.16561,0.92433,6.02211,1.59321,2.05265,2.04863,-3.31243,6.50790,5.93269,-3.32848,6.54197,2.06169,2.06169,A,124205.90
6.07616,57.68788709,11.98128871,57.68789000,11.98128600,12:42:06.179170,0.03924,12.08359,1.59482,-0.06572,-0.00692,-0.04208,0.00434,-0.01831,-0.02733,-0.10693,0.87846,6.04307,1.59354,2.05446,2.05044,-3.32586,6.53398,6.07149,-3.48698,6.85702,2.03691,2.03691,A,124206.10
6.09358,57.68788776,11.98128807,57.68789000,11.98128600,12:42:06.196587,0.00909,12.08359,1.59482,-0.06609,-0.00692,-0.01673,-0.00636,-0.01480,-0.08973,-0.01220,1.08110,6.08818,1.59379,2.05208,2.04806,-3.36405,6.60806,6.07149,-3.48698,6.85702,2.03691,2.03691,A,124206.10
6.10528,57.68788799,11.98128785,57.68789000,11.98128600,12:42:06.208287,0.01058,12.08359,1.59482,-0.06649,-0.00692,-0.00360,0.01044,-0.01373,-0.08040,-0.06753,1.12277,6.09982,1.59400,2.05033,2.04631,-3.37689,6.63345,6.07149,-3.48698,6.85702,2.03691,2.03691,A,124206.10
6.12148,57.68788825,11.98128760,57.68789000,11.98128600,12:42:06.224498,0.00980,12.08359,1.59482,-0.06717,-0.00692,0.00816,0.01930,-0.00594,-0.04508,-0.09803,1.08074,6.11516,1.59416,2.04881,2.04479,-3.39183,6.66297,6.07149,-3.48698,6.85702,2.03691,2.03691,A,124206.10
6.13224,57.68788845,11.98128742,57.68789000,11.98128600,12:42:06.235253,0.00987,12.08359,1.59482,-0.06693,-0.00692,0.01152,0.01747,0.00062,0.01391,-0.02995,1.00241,6.12674,1.59429,2.04756,2.04354,-3.40257,6.68432,6.07149,-3.48698,6.85702,2.03691,2.03691,A,124206.10
6.14376,57.68788864,11.98128724,57.68789000,11.98128600,12:42:06.246916,0.01063,12.08359,1.59482,-0.06711,-0.00692,0.01778,0.01029,0.00123,-0.01854,-0.05795,0.91512,6.13832,1.59440,2.04649,2.04247,-3.41332,6.70572,6.07149,-3.48698,6.85702,2.03691,2.03691,A,124206.10
6.16550,57.68788895,11.98128695,57.68789000,11.98128600,12:42:06.268508,0.01129,12.08359,1.59482,-0.06674,-0.00692,0.01763,-0.02117,0.01009,-0.05148,-0.03422,0.89621,6.16009,1.59448,2.04549,2.04147,-3.43074,6.74022,6.07149,-3.48698,6.85702,2.03691,2.03691,A,124206.10
6.20335,57.68788922,11.98128669,57.68789117,11.98128550,12:42:06.306488,0.02916,12.08359,1.59482,-0.06737,-0.00692,0.02526,-0.01643,0.00414,-0.07479,-0.11096,0.98564,6.18018,1.59455,2.04466,2.04064,-3.44609,6.77071,6.19788,-3.51670,6.98675,1.79600,1.79600,A,124206.20
6.21471,57.68788964,11.98128632,57.68789117,11.98128550,12:42:06.317727,0.00595,1.48337,1.48337,-0.06667,-0.00692,0.02450,0.00372,0.00078,-0.14457,-0.03965,1.10343,6.20835,1.57232,2.00775,2.00373,-3.46768,6.81706,6.19788,-3.51670,6.98675,1.79600,1.79600,A,124206.20
6.22425,57.68788981,11.98128620,57.68789117,11.98128550,12:42:06.327261,0.00509,1.48337,1.48337,-0.06630,-0.00683,0.02328,0.02174,-0.00182,-0.07588,-0.03019,1.06890,6.21882,1.55453,1.97652,1.97255,-3.47483,6.83572,6.19788,-3.51670,6.98675,1.79600,1.79600,A,124206.20
6.23434,57.68788998,11.98128609,57.68789117,11.98128550,12:42:06.337341,0.00479,1.48337,1.48337,-0.06644,-0.00675,0.02557,0.02297,-0.00854,0.04178,-0.06521,1.03230,6.22916,1.54030,1.94997,1.94604,-3.48171,6.85454,6.19788,-3.51670,6.98675,1.79600,1.79600,A,124206.20
6.24503,57.68789014,11.98128598,57.68789117,11.98128550,12:42:06.348042,0.00513,1.48337,1.48337,-0.06705,-0.00672,0.02374,0.00815,-0.00350,0.03965,-0.09174,0.98271,6.23943,1.52891,1.92739,1.92348,-3.48800,6.87267,6.19788,-3.51670,6.98675,1.79600,1.79600,A,124206.20
6.25532,57.68789030,11.98128589,57.68789117,11.98128550,12:42:06.358588,0.00502,1.48337,1.48337,-0.06693,-0.00672,0.02267,-0.00406,-0.00442,0.02336,-0.04337,0.95599,6.25015,1.51980,1.90820,1.90430,-3.49369,6.88995,6.19788,-3.51670,6.98675,1.79600,1.79600,A,124206.20
6.26565,57.68789044,11.98128580,57.68789117,11.98128550,12:42:06.368662,0.00496,1.48337,1.48337,-0.06754,-0.00672,0.01732,-0.01796,-0.00655,-0.06057,-0.08406,0.94465,6.26016,1.51252,1.89190,1.88799,-3.49873,6.90601,6.19788,-3.51670,6.98675,1.79600,1.79600,A,124206.20
6.27620,57.68789058,11.98128572,57.68789117,11.98128550,12:42:06.379207,0.00511,1.48337,1.48337,-0.06688,-0.00672,0.01137,-0.01934,-0.00839,-0.02111,-0.00146,0.92940,6.27075,1.50669,1.87803,1.87413,-3.50342,6.92160,6.19788,-3.51670,6.98675,1.79600,1.79600,A,124206.20
6.28641,57.68789071,11.98128565,57.68789117,11.98128550,12:42:06.389422,0.00493,1.48337,1.48337,-0.06753,-0.00672,0.00602,-0.01705,-0.01404,-0.01116,-0.08101,0.94983,6.28124,1.50202,1.86625,1.86234,-3.50769,6.93636,6.19788,-3.51670,6.98675,1.79600,1.79600,A,124206.20
6.29694,57.68789084,11.98128559,57.68789117,11.98128550,12:42:06.399952,0.00508,1.48337,1.48337,-0.06755,-0.00672,0.00404,-0.01384,-0.00900,-0.11785,-0.04050,0.97881,6.29134,1.49829,1.85624,1.85233,-3.51154,6.95023,6.19788,-3.51670,6.98675,1.79600,1.79600,A,124206.20
6.32301,57.68789096,11.98128553,57.68789217,11.98128483,12:42:06.426016,0.02076,1.48337,1.48337,-0.06726,-0.00672,0.00373,0.00113,-0.00823,-0.06478,-0.02147,1.03151,6.30192,1.49531,1.84772,1.84382,-3.51510,6.96348,6.31892,-3.55632,7.09794,1.91312,1.91312,A,124206.30
6.33593,57.68789134,11.98128532,57.68789217,11.98128483,12:42:06.438948,0.00721,1.48337,1.48337,-0.06653,-0.00672,-0.00619,0.03641,-0.01037,-0.14244,0.02599,1.12972,6.33020,1.49292,1.85792,1.85402,-3.52732,7.00648,6.31892,-3.55632,7.09794,1.91312,1.91312,A,124206.30
6.34441,57.68789146,11.98128526,57.68789217,11.98128483,12:42:06.447427,0.00529,1.48337,1.48337,-0.06639,-0.00672,-0.00436,0.03946,-0.01022,-0.04593,-0.02794,1.13735,6.33879,1.49101,1.86674,1.86284,-3.53125,7.01958,6.31892,-3.55632,7.09794,1.91312,1.91312,A,124206.30
6.35432,57.68789160,11.98128518,57.68789217,11.98128483,12:42:06.457324,0.00481,1.48337,1.48337,-0.06638,-0.00672,-0.00238,0.03992,-0.01129,-0.02824,-0.03465,1.00632,6.34915,1.48948,1.87422,1.87032,-3.53582,7.03451,6.31892,-3.55632,7.09794,1.91312,1.91312,A,124206.30
6.36495,57.68789173,11.98128510,57.68789217,11.98128483,12:42:06.467963,0.00510,1.48337,1.48337,-0.06632,-0.00672,-0.00772,0.03320,-0.00900,0.05209,-0.02611,0.95935,6.35935,1.48826,1.88058,1.87668,-3.54035,7.04904,6.31892,-3.55632,7.09794,1.91312,1.91312,A,124206.30
6.37506,57.68789185,11.98128503,57.68789217,11.98128483,12:42:06.478075,0.00482,1.48337,1.48337,-0.06675,-0.00672,-0.01032,0.00831,-0.01022,-0.01976,-0.05063,0.87260,6.36991,1.48728,1.88599,1.88208,-3.54470,7.06271,6.31892,-3.55632,7.09794,1.91312,1.91312,A,124206.30
6.38559,57.68789197,11.98128496,57.68789217,11.98128483,12:42:06.488603,0.00502,1.48337,1.48337,-0.06741,-0.00672,-0.01398,-0.00590,-0.00686,-0.06484,-0.06094,0.84918,6.38020,1.48650,1.89058,1.88667,-3.54905,7.07619,6.31892,-3.55632,7.09794,1.91312,1.91312,A,124206.30
6.39611,57.68789208,11.98128489,57.68789217,11.98128483,12:42:06.499125,0.00514,1.48337,1.48337,-0.06806,-0.00672,-0.01719,-0.00590,-0.00243,-0.04215,-0.05661,0.81075,6.39066,1.48588,1.89448,1.89058,-3.55312,7.08861,6.31892,-3.55632,7.09794,1.91312,1.91312,A,124206.30
6.40625,57.68789219,11.98128482,57.68789217,11.98128483,12:42:06.509254,0.00488,1.48337,1.48337,-0.06846,-0.00672,-0.02330,-0.01078,0.00123,-0.05600,-0.04136,0.84955,6.40109,1.48537,1.89780,1.89390,-3.55698,7.10028,6.31892,-3.55632,7.09794,1.91312,1.91312,A,124206.30
6.41691,57.68789229,11.98128476,57.68789217,11.98128483,12:42:06.519919,0.00507,1.48337,1.48337,-0.06976,-0.00672,-0.02483,-0.01857,0.00123,-0.03489,-0.09638,0.88389,6.41132,1.48497,1.90062,1.89672,-3.56074,7.11147,6.31892,-3.55632,7.09794,1.91312,1.91312,A,124206.30
6.45504,57.68789238,11.98128470,57.68789400,11.98128283,12:42:06.558050,0.03281,1.48337,1.48337,-0.06988,-0.00672,-0.03491,-0.01277,0.00490,-0.09540,-0.02519,1.06933,6.42191,1.48465,1.90302,1.89912,-3.56430,7.12199,6.45008,-3.67520,7.30180,2.09872,2.09872,A,124206.50
6.47300,57.68789299,11.98128427,57.68789400,11.98128283,12:42:06.576006,0.00716,1.48337,1.48337,-0.07146,-0.00672,-0.04162,0.02617,-0.00319,-0.04075,-0.02184,1.04218,6.46751,1.48440,1.93264,1.92873,-3.58977,7.18948,6.45008,-3.67520,7.30180,2.09872,2.09872,A,124206.50
6.48134,57.68789311,11.98128415,57.68789400,11.98128283,12:42:06.584354,0.00528,1.48337,1.48337,-0.07163,-0.00672,-0.04483,0.01472,-0.00839,0.10492,-0.02629,0.90670,6.47562,1.48419,1.95809,1.95419,-3.59701,7.20303,6.45008,-3.67520,7.30180,2.09872,2.09872,A,124206.50
6.49161,57.68789325,11.98128401,57.68789400,11.98128283,12:42:06.594637,0.00493,1.48337,1.48337,-0.07272,-0.00672,-0.04162,-0.01399,-0.01068,0.03087,-0.06771,0.78733,6.48622,1.48403,1.97971,1.97581,-3.60528,7.21877,6.45008,-3.67520,7.30180,2.09872,2.09872,A,124206.50
6.50170,57.68789339,11.98128387,57.68789400,11.98128283,12:42:06.604709,0.00486,1.48337,1.48337,-0.07348,-0.00672,-0.04712,-0.04056,0.00047,-0.01080,-0.04910,0.78086,6.49630,1.48390,1.99809,1.99418,-3.61350,7.23394,6.45008,-3.67520,7.30180,2.09872,2.09872,A,124206.50
6.51233,57.68789352,11.98128374,57.68789400,11.98128283,12:42:06.615340,0.00509,1.48337,1.48337,-0.07400,-0.00672,-0.05064,-0.03995,0.00704,-0.11877,-0.03648,0.85077,6.50690,1.48379,2.01370,2.00980,-3.62155,7.24835,6.45008,-3.67520,7.30180,2.09872,2.09872,A,124206.50
6.52248,57.68789364,11.98128361,57.68789400,11.98128283,12:42:06.625493,0.00484,1.48337,1.48337,-0.07559,-0.00672,-0.05140,-0.03186,0.00383,-0.17397,-0.11023,0.95477,6.51732,1.48371,2.02698,2.02307,-3.62925,7.26171,6.45008,-3.67520,7.30180,2.09872,2.09872,A,124206.50
6.53284,57.68789375,11.98128348,57.68789400,11.98128283,12:42:06.635847,0.00496,1.48337,1.48337,-0.07605,-0.00672,-0.05766,-0.00269,0.00032,-0.18855,-0.04124,1.07073,6.52739,1.48364,2.03826,2.03436,-3.63665,7.27421,6.45008,-3.67520,7.30180,2.09872,2.09872,A,124206.50
6.54358,57.68789386,11.98128336,57.68789400,11.98128283,12:42:06.646605,0.00511,1.48337,1.48337,-0.07723,-0.00672,-0.05797,0.02740,-0.00213,-0.06289,-0.09821,1.15870,6.53798,1.48359,2.04785,2.04395,-3.64395,7.28634,6.45008,-3.67520,7.30180,2.09872,2.09872,A,124206.50
6.57125,57.68789396,11.98128325,57.68789500,11.98128167,12:42:06.674417,0.02259,1.48337,1.48337,-0.07741,-0.00672,-0.06743,0.03992,-0.00885,0.02440,-0.01653,1.20085,6.54813,1.48354,2.05601,2.05210,-3.65073,7.29730,6.56545,-3.74454,7.41300,2.12840,2.12840,A,124206.60
6.58559,57.68789435,11.98128283,57.68789500,11.98128167,12:42:06.688600,0.00729,1.48337,1.48337,-0.07800,-0.00632,-0.05522,0.00021,-0.01037,-0.11175,0.02788,0.96270,6.58017,1.48351,2.06720,2.06352,-3.67514,7.34084,6.56545,-3.74454,7.41300,2.12840,2.12840,A,124206.60
6.59356,57.68789445,11.98128271,57.68789500,11.98128167,12:42:06.696573,0.00486,1.48337,1.48337,-0.07824,-0.00590,-0.04453,-0.01567,-0.00701,-0.04587,-0.03788,0.94568,6.58817,1.48348,2.07685,2.07342,-3.68271,7.35210,6.56545,-3.74454,7.41300,2.12840,2.12840,A,124206.60
6.60421,57.68789457,11.98128256,57.68789500,11.98128167,12:42:06.707219,0.00512,1.48337,1.48337,-0.07858,-0.00519,-0.03384,-0.02453,-0.00060,-0.02269,-0.04276,0.90134,6.59877,1.48346,2.08498,2.08196,-3.69163,7.36574,6.56545,-3.74454,7.41300,2.12840,2.12840,A,124206.60
6.61433,57.68789469,11.98128242,57.68789500,11.98128167,12:42:06.717345,0.00484,1.48337,1.48337,-0.08106,-0.00448,-0.03307,-0.02606,0.00658,-0.06917,-0.17318,0.89359,6.60916,1.48344,2.09184,2.08923,-3.70002,7.37835,6.56545,-3.74454,7.41300,2.12840,2.12840,A,124206.60
6.62480,57.68789480,11.98128228,57.68789500,11.98128167,12:42:06.727815,0.00495,1.48337,1.48337,-0.08263,-0.00386,-0.04560,-0.00834,0.00673,-0.16153,-0.12676,1.01028,6.61936,1.48343,2.09762,2.09537,-3.70812,7.39037,6.56545,-3.74454,7.41300,2.12840,2.12840,A,124206.60
6.63534,57.68789490,11.98128215,57.68789500,11.98128167,12:42:06.738548,0.00509,1.48337,1.48337,-0.08376,-0.00343,-0.04651,0.02373,0.00719,-0.15128,-0.09418,0.98728,6.62991,1.48342,2.10250,2.10050,-3.71594,7.40187,6.56545,-3.74454,7.41300,2.12840,2.12840,A,124206.60
6.64568,57.68789500,11.98128202,57.68789500,11.98128167,12:42:06.748694,0.00504,1.48337,1.48337,-0.08389,-0.00318,-0.04911,0.03992,0.00475,-0.07662,-0.02824,0.99808,6.64023,1.48341,2.10663,2.10478,-3.72345,7.41281,6.56545,-3.74454,7.41300,2.12840,2.12840,A,124206.60
6.65638,57.68789509,11.98128190,57.68789500,11.98128167,12:42:06.759390,0.00522,1.48337,1.48337,-0.08431,-0.00304,-0.03353,0.03579,0.00643,-0.05386,-0.05984,1.02748,6.65090,1.48340,2.11013,2.10836,-3.73067,7.42326,6.56545,-3.74454,7.41300,2.12840,2.12840,A,124206.60
6.68358,57.68789518,11.98128179,57.68789633,11.98128067,12:42:06.786600,0.02202,1.48337,1.48337,-0.08335,-0.00298,-0.03552,0.01961,0.01391,0.05850,0.03520,1.02596,6.66117,1.48340,2.11310,2.11137,-3.73726,7.43263,6.67819,-3.80398,7.56126,1.95208,1.95208,A,124206.70
6.69980,57.68789558,11.98128135,57.68789633,11.98128067,12:42:06.802815,0.00672,1.48440,1.48440,-0.08411,-0.00295,-0.02635,-0.02361,0.00597,-0.02166,-0.04471,0.96722,6.69434,1.48360,2.08910,2.08739,-3.76336,7.47699,6.67819,-3.80398,7.56126,1.95208,1.95208,A,124206.70
6.70878,57.68789569,11.98128123,57.68789633,11.98128067,12:42:06.811791,0.00501,1.48440,1.48440,-0.08468,-0.00295,-0.02147,-0.01216,-0.00304,-0.12688,-0.07442,0.94581,6.70331,1.48376,2.06879,2.06707,-3.77038,7.48998,6.67819,-3.80398,7.56126,1.95208,1.95208,A,124206.70
6.71900,57.68789582,11.98128111,57.68789633,11.98128067,12:42:06.822010,0.00483,1.48440,1.48440,-0.08494,-0.00295,-0.01933,0.00449,-0.00640,-0.09851,-0.05417,0.92927,6.71385,1.48389,2.05151,2.04979,-3.77773,7.50402,6.67819,-3.80398,7.56126,1.95208,1.95208,A,124206.70
6.72960,57.68789594,11.98128099,57.68789633,11.98128067,12:42:06.832607,0.00503,1.48440,1.48440,-0.08531,-0.00295,-0.01887,0.01884,-0.01251,-0.09980,-0.05887,0.88627,6.72404,1.48399,2.03682,2.03511,-3.78451,7.51741,6.67819,-3.80398,7.56126,1.95208,1.95208,A,124206.70
6.74017,57.68789606,11.98128089,57.68789633,11.98128067,12:42:06.843184,0.00512,1.48440,1.48440,-0.08705,-0.00295,-0.01444,0.02129,-0.01205,-0.02294,-0.14256,0.87925,6.73472,1.48407,2.02434,2.02263,-3.79086,7.53033,6.67819,-3.80398,7.56126,1.95208,1.95208,A,124206.70
6.75029,57.68789616,11.98128079,57.68789633,11.98128067,12:42:06.853302,0.00499,1.48440,1.48440,-0.08842,-0.00295,-0.01337,0.00418,-0.01282,0.00970,-0.13261,0.94800,6.74509,1.48414,2.01373,2.01202,-3.79662,7.54240,6.67819,-3.80398,7.56126,1.95208,1.95208,A,124206.70
6.76075,57.68789627,11.98128070,57.68789633,11.98128067,12:42:06.863759,0.00492,1.48440,1.48440,-0.08841,-0.00295,-0.01566,-0.01796,-0.00686,0.00409,-0.04563,0.99082,6.75532,1.48419,2.00472,2.00300,-3.80206,7.55407,6.67819,-3.80398,7.56126,1.95208,1.95208,A,124206.70
6.77120,57.68789637,11.98128061,57.68789633,11.98128067,12:42:06.874212,0.00498,1.48440,1.48440,-0.08890,-0.00295,-0.00054,-0.02285,0.00429,-0.05752,-0.09699,1.07153,6.76604,1.48423,1.99705,1.99533,-3.80728,7.56554,6.67819,-3.80398,7.56126,1.95208,1.95208,A,124206.70
6.79901,57.68789647,11.98128053,57.68789750,11.98127917,12:42:06.902733,0.02239,1.48440,1.48440,-0.08843,-0.00295,0.00098,-0.02407,0.00414,-0.07838,-0.03026,1.10672,6.77610,1.48427,1.99053,1.98882,-3.81192,7.57596,6.79367,-3.89314,7.69098,2.17292,2.17292,A,124206.80
6.81614,57.68789689,11.98128016,57.68789750,11.98127917,12:42:06.919151,0.00638,1.48440,1.48440,-0.08799,-0.00295,0.01641,0.01411,0.00627,-0.11877,-0.06539,0.99430,6.81064,1.48429,2.01804,2.01633,-3.83435,7.62306,6.79367,-3.89314,7.69098,2.17292,2.17292,A,124206.80
6.82497,57.68789700,11.98128004,57.68789750,11.98127917,12:42:06.927980,0.00498,1.48440,1.48440,-0.08809,-0.00295,0.01763,0.02266,-0.00457,-0.02379,-0.06801,0.90542,6.81951,1.48431,2.04151,2.03979,-3.84139,7.63504,6.79367,-3.89314,7.69098,2.17292,2.17292,A,124206.80
6.83569,57.68789712,11.98127990,57.68789750,11.98127917,12:42:06.938720,0.00531,1.48440,1.48440,-0.08767,-0.00295,0.01610,0.00052,-0.00549,-0.08607,-0.03575,0.88517,6.83006,1.48433,2.06145,2.05973,-3.84948,7.64870,6.79367,-3.89314,7.69098,2.17292,2.17292,A,124206.80
6.84593,57.68789724,11.98127977,57.68789750,11.98127917,12:42:06.948949,0.00510,1.48440,1.48440,-0.08701,-0.00295,0.01809,-0.00758,-0.00701,-0.00842,-0.02275,0.88249,6.84074,1.48435,2.07840,2.07668,-3.85744,7.66168,6.79367,-3.89314,7.69098,2.17292,2.17292,A,124206.80
6.85707,57.68789734,11.98127964,57.68789750,11.98127917,12:42:06.960085,0.00599,1.48440,1.48440,-0.08674,-0.00295,0.01748,-0.02789,-0.01053,-0.07174,-0.04630,0.92293,6.85089,1.48436,2.09281,2.09109,-3.86492,7.67342,6.79367,-3.89314,7.69098,2.17292,2.17292,A,124206.80
6.86791,57.68789743,11.98127953,57.68789750,11.98127917,12:42:06.970966,0.00644,1.48440,1.48440,-0.08675,-0.00295,0.02588,-0.03445,-0.00625,-0.12481,-0.07186,0.96429,6.86115,1.48437,2.10506,2.10334,-3.87156,7.68343,6.79367,-3.89314,7.69098,2.17292,2.17292,A,124206.80
6.87701,57.68789753,11.98127941,57.68789750,11.98127917,12:42:06.980019,0.00497,1.48440,1.48440,-0.08567,-0.00295,0.02633,-0.03262,-0.00549,-0.13731,-0.00183,1.03822,6.87157,1.48437,2.11547,2.11375,-3.87883,7.69431,6.79367,-3.89314,7.69098,2.17292,2.17292,A,124206.80
6.88941,57.68789763,11.98127928,57.68789750,11.98127917,12:42:06.992426,0.00715,1.48440,1.48440,-0.08597,-0.00295,0.03290,-0.01231,-0.00136,-0.20996,-0.11181,1.10550,6.88342,1.48438,2.12431,2.12259,-3.88670,7.70599,6.79367,-3.89314,7.69098,2.17292,2.17292,A,124206.80
6.91402,57.68789769,11.98127919,57.68789850,11.98127767,12:42:07.017028,0.02136,1.48440,1.48440,-0.08562,-0.00295,0.03382,0.00357,0.00398,-0.15628,-0.05618,1.09910,6.89212,1.48438,2.13184,2.13012,-3.89152,7.71256,6.90933,-3.98229,7.80218,2.24663,2.24663,A,124206.90
6.92961,57.68789805,11.98127875,57.68789850,11.98127767,12:42:07.032620,0.00714,1.48440,1.48440,-0.08489,-0.00295,0.04695,-0.00574,0.00429,-0.08058,-0.10388,1.00156,6.92349,1.48439,2.14922,2.14750,-3.91802,7.75212,6.90933,-3.98229,7.80218,2.24663,2.24663,A,124206.90
6.93773,57.68789814,11.98127861,57.68789850,11.98127767,12:42:07.040737,0.00485,1.48440,1.48440,-0.08426,-0.00295,0.04695,-0.01903,0.00215,-0.05081,-0.03788,0.94898,6.93235,1.48439,2.16407,2.16235,-3.92610,7.76210,6.90933,-3.98229,7.80218,2.24663,2.24663,A,124206.90
6.94854,57.68789825,11.98127845,57.68789850,11.98127767,12:42:07.051554,0.00527,1.48440,1.48440,-0.08452,-0.00295,0.04466,-0.02789,0.00032,-0.04142,-0.09723,0.95453,6.94293,1.48439,2.17668,2.17497,-3.93566,7.77415,6.90933,-3.98229,7.80218,2.24663,2.24663,A,124206.90
6.95849,57.68789835,11.98127830,57.68789850,11.98127767,12:42:07.061500,0.00483,1.48440,1.48440,-0.08404,-0.00295,0.05245,-0.03781,-0.00396,-0.10108,-0.05362,0.92793,6.95334,1.48439,2.18741,2.18569,-3.94454,7.78505,6.90933,-3.98229,7.80218,2.24663,2.24663,A,124206.90
6.96900,57.68789844,11.98127815,57.68789850,11.98127767,12:42:07.072017,0.00498,1.48440,1.48440,-0.08311,-0.00295,0.04909,-0.02453,-0.00885,-0.07668,-0.02312,0.93940,6.96356,1.48439,2.19652,2.19480,-3.95331,7.79564,6.90933,-3.98229,7.80218,2.24663,2.24663,A,124206.90
6.98033,57.68789854,11.98127800,57.68789850,11.98127767,12:42:07.083340,0.00591,1.48440,1.48440,-0.08272,-0.00295,0.04756,-0.00605,-0.00915,-0.14335,-0.06399,1.03419,6.97483,1.48440,2.20427,2.20255,-3.96234,7.80650,6.90933,-3.98229,7.80218,2.24663,2.24663,A,124206.90
6.98968,57.68789861,11.98127788,57.68789850,11.98127767,12:42:07.092684,0.00485,1.48440,1.48440,-0.08249,-0.00295,0.04970,0.00449,-0.00991,-0.06765,-0.06789,1.00345,6.98429,1.48440,2.21085,2.20914,-3.96964,7.81489,6.90933,-3.98229,7.80218,2.24663,2.24663,A,124206.90
7.00032,57.68789870,11.98127775,57.68789850,11.98127767,12:42:07.103341,0.00511,1.48440,1.48440,-0.08194,-0.00295,0.04817,0.00159,-0.00197,-0.09028,-0.05081,1.04121,6.99488,1.48440,2.21645,2.21473,-3.97748,7.82398,6.90933,-3.98229,7.80218,2.24663,2.24663,A,124206.90
7.02822,57.68789877,11.98127763,57.68789883,11.98127733,12:42:07.131235,0.02260,1.48440,1.48440,-0.08189,-0.00295,0.05795,-0.00101,0.00322,0.03825,-0.08808,1.01272,7.00516,1.48440,2.22121,2.21949,-3.98467,7.83215,7.02233,-4.00210,7.83924,2.06169,2.06169,A,124207.00
7.04110,57.68789906,11.98127720,57.68789883,11.98127733,12:42:07.144107,0.00690,1.48440,1.48440,-0.08020,-0.00295,0.06008,-0.03079,0.00811,-0.13798,-0.05923,1.01248,7.03549,1.48440,2.19744,2.19573,-4.01000,7.86476,7.02233,-4.00210,7.83924,2.06169,2.06169,A,124207.00
7.04956,57.68789912,11.98127711,57.68789883,11.98127733,12:42:07.152568,0.00497,1.48440,1.48440,-0.07903,-0.00295,0.05016,-0.03079,0.00780,-0.08156,-0.00043,1.00943,7.04419,1.48440,2.17732,2.17560,-4.01511,7.87111,7.02233,-4.00210,7.83924,2.06169,2.06169,A,124207.00
7.06023,57.68789920,11.98127701,57.68789883,11.98127733,12:42:07.163249,0.00515,1.48440,1.48440,-0.07858,-0.00295,0.05199,-0.01307,0.00719,-0.03630,-0.05490,1.00211,7.05481,1.48440,2.16020,2.15848,-4.02137,7.87952,7.02233,-4.00210,7.83924,2.06169,2.06169,A,124207.00
7.07031,57.68789927,11.98127692,57.68789883,11.98127733,12:42:07.173323,0.00483,1.48440,1.48440,-0.07768,-0.00295,0.05382,-0.01674,-0.00289,-0.04898,-0.02477,1.01614,7.06515,1.48440,2.14565,2.14394,-4.02690,7.88725,7.02233,-4.00210,7.83924,2.06169,2.06169,A,124207.00
7.08087,57.68789933,11.98127683,57.68789883,11.98127733,12:42:07.183882,0.00502,1.48440,1.48440,-0.07763,-0.00295,0.05566,-0.00315,-0.00213,-0.04642,-0.07802,0.96179,7.07535,1.48440,2.13329,2.13157,-4.03209,7.89482,7.02233,-4.00210,7.83924,2.06169,2.06169,A,124207.00
7.09110,57.68789940,11.98127675,57.68789883,11.98127733,12:42:07.194104,0.00484,1.48440,1.48440,-0.07665,-0.00295,0.05168,0.00311,-0.00090,-0.11535,-0.01684,0.95093,7.08593,1.48440,2.12278,2.12106,-4.03692,7.90211,7.02233,-4.00210,7.83924,2.06169,2.06169,A,124207.00
7.10150,57.68789946,11.98127667,57.68789883,11.98127733,12:42:07.204511,0.00485,1.48440,1.48440,-0.07594,-0.00295,0.05718,0.00724,-0.00655,-0.06002,-0.03483,0.95252,7.09612,1.48440,2.11385,2.11213,-4.04137,7.90906,7.02233,-4.00210,7.83924,2.06169,2.06169,A,124207.00
7.11214,57.68789952,11.98127660,57.68789883,11.98127733,12:42:07.215150,0.00509,1.48440,1.48440,-0.07576,-0.00295,0.05306,-0.00162,-0.00121,-0.02946,-0.06728,0.95514,7.10670,1.48440,2.10625,2.10453,-4.04565,7.91595,7.02233,-4.00210,7.83924,2.06169,2.06169,A,124207.00
7.12242,57.68789958,11.98127653,57.68789883,11.98127733,12:42:07.225434,0.00498,1.48440,1.48440,-0.07540,-0.00295,0.04832,-0.01567,0.00093,-0.05258,-0.05459,1.00174,7.11725,1.48440,2.09980,2.09808,-4.04956,7.92242,7.02233,-4.00210,7.83924,2.06169,2.06169,A,124207.00
7.16150,57.68789963,11.98127648,57.68790067,11.98127600,12:42:07.264509,0.03364,1.48440,1.48440,-0.07501,-0.00295,0.04573,-0.01399,0.00001,-0.01208,-0.04947,1.00619,7.12735,1.48440,2.09431,2.09259,-4.05307,7.92837,7.15624,-4.08135,8.04310,1.94157,1.94157,A,124207.20
7.19071,57.68790030,11.98127579,57.68790067,11.98127600,12:42:07.293720,0.00671,1.61258,1.61258,-0.07281,-0.00295,0.03107,-0.00605,0.00566,-0.08638,-0.01665,0.99881,7.18549,1.51004,2.07148,2.06976,-4.09392,8.00269,7.15624,-4.08135,8.04310,1.94157,1.94157,A,124207.20
7.19937,57.68790040,11.98127572,57.68790067,11.98127600,12:42:07.302621,0.00518,1.61258,1.61258,-0.07302,-0.00295,0.03809,-0.01307,0.00123,-0.05337,-0.07680,0.97740,7.19422,1.53054,2.05222,2.05051,-4.09801,8.01337,7.15624,-4.08135,8.04310,1.94157,1.94157,A,124207.20
7.21376,57.68790056,11.98127559,57.68790067,11.98127600,12:42:07.316773,0.00917,12.21688,1.61258,-0.07193,-0.00295,0.03214,-0.02926,-0.00411,-0.07338,0.00067,1.01998,7.20838,1.54695,2.03584,2.03412,-4.10561,8.03106,7.15624,-4.08135,8.04310,1.94157,1.94157,A,124207.20
7.22512,57.68790067,11.98127551,57.68790067,11.98127600,12:42:07.328127,0.01047,12.21688,1.61258,-0.07186,-0.00295,0.03137,-0.03003,-0.00549,-0.12298,-0.05954,0.99064,7.21965,1.56008,2.02193,2.02021,-4.11049,8.04386,7.15624,-4.08135,8.04310,1.94157,1.94157,A,124207.20
7.24091,57.68790082,11.98127540,57.68790067,11.98127600,12:42:07.343921,0.01044,12.21688,1.61258,-0.07164,-0.00295,0.02710,-0.02132,-0.00839,-0.06301,-0.05106,0.96154,7.23436,1.57058,2.01009,2.00837,-4.11716,8.06068,7.15624,-4.08135,8.04310,1.94157,1.94157,A,124207.20
7.27960,57.68790106,11.98127522,57.68790167,11.98127400,12:42:07.383169,0.02800,12.21688,1.61258,-0.07071,-0.00295,0.02252,-0.00574,-0.00762,-0.06948,-0.01342,1.03676,7.25747,1.57898,2.00000,1.99828,-4.12799,8.08677,7.27444,-4.20023,8.15429,2.38956,2.38956,A,124207.30
7.29992,57.68790152,11.98127479,57.68790167,11.98127400,12:42:07.402943,0.00948,12.21688,1.61258,-0.07020,-0.00295,0.00709,-0.01842,-0.01175,-0.03788,-0.02422,1.04517,7.29431,1.58570,2.05857,2.05685,-4.15339,8.13797,7.27444,-4.20023,8.15429,2.38956,2.38956,A,124207.30
7.31167,57.68790165,11.98127463,57.68790167,11.98127400,12:42:07.414690,0.01085,12.21688,1.61258,-0.06950,-0.00295,0.00938,-0.01170,-0.01480,-0.11511,-0.00049,1.03450,7.30621,1.59107,2.10844,2.10672,-4.16281,8.15218,7.27444,-4.20023,8.15429,2.38956,2.38956,A,124207.30
7.33171,57.68790186,11.98127436,57.68790167,11.98127400,12:42:07.434736,0.01103,12.21688,1.61258,-0.07020,-0.00295,0.00022,-0.01201,-0.01877,-0.00464,-0.08101,0.93574,7.32627,1.59538,2.15080,2.14909,-4.17876,8.17599,7.27444,-4.20023,8.15429,2.38956,2.38956,A,124207.30
7.35460,57.68790210,11.98127405,57.68790167,11.98127400,12:42:07.457612,0.01086,12.21688,1.61258,-0.07085,-0.00295,-0.00329,-0.02132,-0.02580,-0.12133,-0.07674,0.98204,7.34940,1.59882,2.18680,2.18508,-4.19749,8.20197,7.27444,-4.20023,8.15429,2.38956,2.38956,A,124207.30
7.39481,57.68790232,11.98127371,57.68790283,11.98127367,12:42:07.497816,0.02838,12.21688,1.61258,-0.07206,-0.00295,-0.00467,0.00617,-0.02580,-0.06338,-0.11688,1.02876,7.37366,1.60157,2.21739,2.21568,-4.21728,8.22745,7.39102,-4.22004,8.28402,1.72235,1.72235,A,124207.40
7.41425,57.68790272,11.98127319,57.68790283,11.98127367,12:42:07.517260,0.00820,12.21688,1.61258,-0.07132,-0.00295,-0.00726,-0.01491,-0.00533,-0.09699,0.02336,0.96319,7.40904,1.60377,2.14328,2.14156,-4.24812,8.27109,7.39102,-4.22004,8.28402,1.72235,1.72235,A,124207.40
7.42554,57.68790283,11.98127309,57.68790283,11.98127367,12:42:07.528545,0.00908,12.21688,1.61258,-0.07114,-0.00295,-0.00253,-0.02300,-0.00319,-0.04002,-0.02653,0.97588,7.42003,1.60553,2.08036,2.07865,-4.25426,8.28348,7.39102,-4.22004,8.28402,1.72235,1.72235,A,124207.40
7.43746,57.68790295,11.98127300,57.68790283,11.98127367,12:42:07.540472,0.01079,12.21688,1.61258,-0.07101,-0.00295,0.00098,-0.02178,-0.01053,-0.00390,-0.03257,1.00772,7.43205,1.60694,2.02688,2.02517,-4.25989,8.29670,7.39102,-4.22004,8.28402,1.72235,1.72235,A,124207.40
7.45257,57.68790310,11.98127288,57.68790283,11.98127367,12:42:07.555584,0.00835,12.21688,1.61258,-0.07178,-0.00295,-0.01154,-0.01796,-0.01022,-0.05960,-0.07777,0.96368,7.44708,1.60807,1.98142,1.97970,-4.26660,8.31389,7.39102,-4.22004,8.28402,1.72235,1.72235,A,124207.40
7.46409,57.68790321,11.98127283,57.68790283,11.98127367,12:42:07.567098,0.00947,12.21688,1.61258,-0.07223,-0.00295,-0.01597,-0.01643,-0.01419,-0.17672,-0.05899,0.99595,7.45860,1.60897,1.94278,1.94106,-4.26999,8.32559,7.39102,-4.22004,8.28402,1.72235,1.72235,A,124207.40
7.47604,57.68790331,11.98127278,57.68790283,11.98127367,12:42:07.579065,0.01107,12.21688,1.61258,-0.07258,-0.00295,-0.02070,-0.00070,-0.01786,-0.11438,-0.04862,0.98515,7.47037,1.60969,1.90994,1.90822,-4.27284,8.33729,7.39102,-4.22004,8.28402,1.72235,1.72235,A,124207.40
7.51227,57.68790352,11.98127267,57.68790350,11.98127267,12:42:07.615601,0.02733,12.21688,1.61258,-0.07342,-0.00295,-0.01734,-0.01063,-0.01999,-0.05014,-0.07863,1.05255,7.49057,1.61027,1.88199,1.88028,-4.27929,8.36054,7.50771,-4.27948,8.35815,2.24663,2.24663,A,124207.50
7.53324,57.68790398,11.98127239,57.68790350,11.98127267,12:42:07.636250,0.01214,12.21688,1.61258,-0.07346,-0.00295,0.00144,-0.01323,-0.00900,-0.05447,-0.05033,1.02425,7.52776,1.61073,1.93682,1.93511,-4.29566,8.41156,7.50771,-4.27948,8.35815,2.24663,2.24663,A,124207.50
