Time,lat_estimated,lon_estimated,latitude,longitude,RealTime,CalculationTime,MeasuredVelocity,FilteredVelocity,Roll,SteeringAngle,RollRate,gy,gz,ax,ay,az,imu_read_timing,v_estimated,yaw_estimated,heading_estimated,x_estimated,y_estimated,GPS_timestamp,x_GPS,y_GPS,theta_GPS,theta_GPS_noUnwrap,status,NMEA timestamp
0.05299,57.68785033,11.98137217,57.68785033,11.98137217,13:04:34.877196,0.05295,8.11512,0.00000,-0.00107,-0.04540,0.01493,0.00510,-0.00497,-0.01665,-0.05850,0.97539,0.00001,0.00000,0.01348,0.00000,0.00000,0.00000,0.01977,0.00000,0.00000,0.00000,0.00000,A,130434.70
0.07407,57.68785033,11.98137217,57.68785033,11.98137217,13:04:34.897607,0.00918,8.11512,0.00000,-0.00065,-0.04061,0.02424,0.00403,0.00679,0.01519,-0.05600,1.00113,0.06495,0.00000,0.01327,0.00121,0.00000,0.00000,0.01977,0.00000,0.00000,0.00000,0.00000,A,130434.70
0.08352,57.68785033,11.98137217,57.68785033,11.98137217,13:04:34.907002,0.00812,8.11512,0.00000,-0.00099,-0.04061,0.02638,0.00769,0.00160,0.04972,-0.02440,0.98405,0.07827,0.00000,0.01327,0.00121,0.00000,0.00000,0.01977,0.00000,0.00000,0.00000,0.00000,A,130434.70
0.09424,57.68785033,11.98137217,57.68785033,11.98137217,13:04:34.917716,0.00863,8.11512,0.00000,-0.00217,-0.04061,0.02608,0.00113,0.00251,0.01519,-0.07393,0.95617,0.08901,0.00000,0.01327,0.00121,0.00000,0.00000,0.01977,0.00000,0.00000,0.00000,0.00000,A,130434.70
0.10205,57.68785033,11.98137217,57.68785033,11.98137217,13:04:34.925514,0.00625,8.11512,0.00000,-0.00274,-0.04061,0.02608,-0.00193,0.00114,-0.00970,-0.03148,0.96075,0.09686,0.00000,0.01327,0.00121,0.00000,0.00000,0.01977,0.00000,0.00000,0.00000,0.00000,A,130434.70
0.11400,57.68785033,11.98137217,57.68785033,11.98137217,13:04:34.937486,0.00796,8.11512,0.00000,-0.00391,-0.04061,0.02974,-0.00284,-0.00420,-0.01543,-0.07820,0.94373,0.10874,0.00000,0.01327,0.00121,0.00000,0.00000,0.01977,0.00000,0.00000,0.00000,0.00000,A,130434.70
0.15170,57.68785033,11.98137217,57.68785233,11.98137133,13:04:34.975179,0.03525,8.11512,0.00000,-0.00477,-0.04061,0.02409,-0.00697,-0.00726,0.03453,-0.05325,0.93574,0.11931,0.00000,0.01327,0.00121,0.00000,0.00000,0.14784,-0.04953,0.22239,1.78994,1.78994,A,130434.90
0.17134,57.68785043,11.98137212,57.68785233,11.98137133,13:04:34.994844,0.01097,8.11512,0.00000,-0.00421,-0.04061,0.02898,0.00495,-0.01031,-0.03117,-0.03312,1.08922,0.16350,0.00000,0.28158,0.26952,-0.00248,0.01112,0.14784,-0.04953,0.22239,1.78994,1.78994,A,130434.90
0.19161,57.68785043,11.98137212,57.68785233,11.98137133,13:04:35.015715,0.00715,8.11512,0.00000,-0.00487,-0.04061,0.03234,-0.00437,-0.00405,0.02763,-0.06844,0.94398,0.18480,0.00000,0.28158,0.26952,-0.00248,0.01112,0.14784,-0.04953,0.22239,1.78994,1.78994,A,130434.90
0.20268,57.68785043,11.98137212,57.68785233,11.98137133,13:04:35.026399,0.00767,8.11512,0.00000,-0.00542,-0.04061,0.02989,-0.02010,-0.00650,0.01043,-0.04166,0.91567,0.19748,0.00000,0.28158,0.26952,-0.00248,0.01112,0.14784,-0.04953,0.22239,1.78994,1.78994,A,130434.90
0.21430,57.68785043,11.98137212,57.68785233,11.98137133,13:04:35.037800,0.00889,8.11512,0.00000,-0.00555,-0.04061,0.03173,-0.02224,-0.01001,-0.00220,-0.01586,0.90439,0.20907,0.00000,0.28158,0.26952,-0.00248,0.01112,0.14784,-0.04953,0.22239,1.78994,1.78994,A,130434.90
0.22335,57.68785043,11.98137212,57.68785233,11.98137133,13:04:35.046843,0.00778,8.11512,0.00000,-0.00624,-0.04061,0.03264,-0.02377,-0.00955,-0.02196,-0.04630,0.93312,0.21792,0.00000,0.28158,0.26952,-0.00248,0.01112,0.14784,-0.04953,0.22239,1.78994,1.78994,A,130434.90
0.23172,57.68785043,11.98137212,57.68785233,11.98137133,13:04:35.055220,0.00575,8.11512,0.00000,-0.00732,-0.04061,0.03738,-0.02300,-0.01016,-0.01275,-0.07552,0.96295,0.22651,0.00000,0.28158,0.26952,-0.00248,0.01112,0.14784,-0.04953,0.22239,1.78994,1.78994,A,130434.90
0.24202,57.68785043,11.98137212,57.68785233,11.98137133,13:04:35.065513,0.00565,8.11512,0.00000,-0.00794,-0.04061,0.03081,-0.01750,-0.01535,-0.07405,-0.05039,1.04694,0.23682,0.00000,0.28158,0.26952,-0.00248,0.01112,0.14784,-0.04953,0.22239,1.78994,1.78994,A,130434.90
0.26770,57.68785043,11.98137212,57.68785317,11.98137050,13:04:35.091199,0.02077,8.11512,0.00000,-0.00818,-0.04061,0.03448,-0.00009,-0.01444,-0.03434,-0.03026,1.07506,0.24786,0.00000,0.28158,0.26952,-0.00248,0.01112,0.26454,-0.09906,0.31505,2.06169,2.06169,A,130435.00
0.28084,57.68785057,11.98137204,57.68785317,11.98137050,13:04:35.104310,0.00731,8.11512,0.00000,-0.00811,-0.04061,0.03600,0.00999,-0.00100,0.02910,-0.04337,1.01955,0.27341,0.00000,0.55040,0.53834,-0.00731,0.02632,0.26454,-0.09906,0.31505,2.06169,2.06169,A,130435.00
0.28957,57.68785057,11.98137204,57.68785317,11.98137050,13:04:35.113041,0.00563,8.11512,0.00000,-0.00804,-0.04061,0.03921,-0.00193,-0.00069,-0.01440,-0.01043,0.97667,0.28436,0.00000,0.55040,0.53834,-0.00731,0.02632,0.26454,-0.09906,0.31505,2.06169,2.06169,A,130435.00
0.30003,57.68785057,11.98137204,57.68785317,11.98137050,13:04:35.123497,0.00568,8.11512,0.00000,-0.00864,-0.04061,0.03539,-0.01094,0.00190,0.02684,-0.04782,0.93592,0.29482,0.00000,0.55040,0.53834,-0.00731,0.02632,0.26454,-0.09906,0.31505,2.06169,2.06169,A,130435.00
0.31014,57.68785057,11.98137204,57.68785317,11.98137050,13:04:35.133601,0.00539,8.11512,0.00000,-0.00882,-0.04061,0.03555,-0.02010,0.00129,-0.00628,-0.02141,0.91561,0.30493,0.00000,0.55040,0.53834,-0.00731,0.02632,0.26454,-0.09906,0.31505,2.06169,2.06169,A,130435.00
0.32060,57.68785057,11.98137204,57.68785317,11.98137050,13:04:35.144070,0.00545,8.11512,0.00000,-0.00963,-0.04061,0.04181,-0.02560,0.00649,-0.02342,-0.06564,0.93135,0.31539,0.00000,0.55040,0.53834,-0.00731,0.02632,0.26454,-0.09906,0.31505,2.06169,2.06169,A,130435.00
0.33123,57.68785057,11.98137204,57.68785317,11.98137050,13:04:35.154711,0.00569,8.11512,0.00000,-0.01038,-0.04061,0.04058,-0.02147,0.00190,-0.02470,-0.06399,0.96331,0.32581,0.00000,0.55040,0.53834,-0.00731,0.02632,0.26454,-0.09906,0.31505,2.06169,2.06169,A,130435.00
0.34150,57.68785057,11.98137204,57.68785317,11.98137050,13:04:35.164961,0.00555,8.11512,0.00000,-0.01107,-0.04061,0.03249,-0.01475,0.00022,-0.02275,-0.05716,0.99046,0.33629,0.00000,0.55040,0.53834,-0.00731,0.02632,0.26454,-0.09906,0.31505,2.06169,2.06169,A,130435.00
0.35193,57.68785057,11.98137204,57.68785317,11.98137050,13:04:35.175404,0.00558,8.11512,0.00000,-0.01152,-0.04061,0.02516,-0.01414,-0.00115,0.00732,-0.03812,1.00949,0.34671,0.00000,0.55040,0.53834,-0.00731,0.02632,0.26454,-0.09906,0.31505,2.06169,2.06169,A,130435.00
0.36212,57.68785057,11.98137204,57.68785317,11.98137050,13:04:35.185588,0.00538,8.11512,0.00000,-0.01147,-0.04061,0.02776,-0.01323,0.00007,-0.02202,-0.00567,1.06018,0.35693,0.00000,0.55040,0.53834,-0.00731,0.02632,0.26454,-0.09906,0.31505,2.06169,2.06169,A,130435.00
0.38706,57.68785057,11.98137204,57.68785417,11.98137017,13:04:35.210562,0.01992,8.11512,0.00000,-0.01140,-0.04061,0.02989,-0.00727,0.00297,-0.10291,-0.00708,1.09605,0.36741,0.00000,0.55040,0.53834,-0.00731,0.02632,0.38402,-0.11887,0.42625,1.74712,1.74712,A,130435.10
0.40037,57.68785075,11.98137195,57.68785417,11.98137017,13:04:35.223829,0.00758,8.11512,0.00000,-0.01149,-0.04061,0.02821,0.01228,0.00603,0.01434,-0.04258,0.96959,0.39289,0.00000,0.73172,0.71966,-0.01288,0.04631,0.38402,-0.11887,0.42625,1.74712,1.74712,A,130435.10
0.40867,57.68785075,11.98137195,57.68785417,11.98137017,13:04:35.232144,0.00551,8.11512,0.00000,-0.01187,-0.04061,0.03234,0.00769,0.00557,-0.04142,-0.03703,0.96990,0.40346,0.00000,0.73172,0.71966,-0.01288,0.04631,0.38402,-0.11887,0.42625,1.74712,1.74712,A,130435.10
0.42246,57.68785075,11.98137195,57.68785417,11.98137017,13:04:35.246161,0.00891,8.11512,0.00000,-0.01190,-0.04056,0.03081,0.01701,0.01305,-0.01586,-0.02068,0.99869,0.41726,0.00000,0.73172,0.71966,-0.01288,0.04631,0.38402,-0.11887,0.42625,1.74712,1.74712,A,130435.10
0.43200,57.68785075,11.98137195,57.68785417,11.98137017,13:04:35.255471,0.00830,8.11512,0.00000,-0.01219,-0.04042,0.02776,0.01243,0.01137,0.02092,-0.02678,0.97466,0.42677,0.00000,0.73172,0.71966,-0.01288,0.04631,0.38402,-0.11887,0.42625,1.74712,1.74712,A,130435.10
0.44266,57.68785075,11.98137195,57.68785417,11.98137017,13:04:35.266362,0.00872,8.11512,0.00000,-0.01273,-0.04013,0.02684,0.00204,0.01198,0.06814,-0.04392,0.95203,0.43744,0.00000,0.73172,0.71966,-0.01288,0.04631,0.38402,-0.11887,0.42625,1.74712,1.74712,A,130435.10
0.45458,57.68785075,11.98137195,57.68785417,11.98137017,13:04:35.278275,0.01044,8.11512,0.00000,-0.01330,-0.03971,0.01478,-0.01323,0.00954,0.01159,-0.04093,0.99698,0.44935,0.00000,0.73172,0.71966,-0.01288,0.04631,0.38402,-0.11887,0.42625,1.74712,1.74712,A,130435.10
0.46877,57.68785075,11.98137195,57.68785417,11.98137017,13:04:35.292240,0.00764,8.11512,0.00000,-0.01331,-0.03889,0.01936,-0.00681,0.00557,-0.06734,-0.01110,1.03907,0.46355,0.00000,0.73172,0.71966,-0.01288,0.04631,0.38402,-0.11887,0.42625,1.74712,1.74712,A,130435.10
0.47844,57.68785075,11.98137195,57.68785417,11.98137017,13:04:35.302151,0.00712,8.11512,0.00000,-0.01389,-0.03821,0.01814,0.00372,-0.00176,-0.02733,-0.04319,1.01455,0.47324,0.00000,0.73172,0.71966,-0.01288,0.04631,0.38402,-0.11887,0.42625,1.74712,1.74712,A,130435.10
0.50772,57.68785075,11.98137195,57.68785533,11.98136933,13:04:35.331223,0.02601,8.11512,0.00000,-0.01433,-0.03727,0.01890,0.00815,0.00404,0.05423,-0.03636,0.99674,0.48457,0.00000,0.73172,0.71966,-0.01288,0.04631,0.50291,-0.16841,0.55597,1.93552,1.93552,A,130435.20
0.52064,57.68785098,11.98137182,57.68785533,11.98136933,13:04:35.344772,0.00659,1.17859,1.17859,-0.01420,-0.03507,0.01264,-0.01048,0.00893,-0.03556,-0.01171,0.98777,0.51222,0.23572,0.91385,0.90344,-0.02066,0.07180,0.50291,-0.16841,0.55597,1.93552,1.93552,A,130435.20
0.52846,57.68785098,11.98137182,57.68785533,11.98136933,13:04:35.351927,0.00401,1.17859,1.17859,-0.01423,-0.03447,0.00836,-0.00025,0.01427,-0.03044,-0.00561,0.97746,0.52325,0.23572,0.91385,0.90344,-0.02066,0.07180,0.50291,-0.16841,0.55597,1.93552,1.93552,A,130435.20
0.53795,57.68785098,11.98137182,57.68785533,11.98136933,13:04:35.361423,0.00302,1.17859,1.17859,-0.01444,-0.03408,0.01279,0.00571,0.01565,0.00933,-0.01836,0.95794,0.53277,0.23572,0.91385,0.90344,-0.02066,0.07180,0.50291,-0.16841,0.55597,1.93552,1.93552,A,130435.20
0.54853,57.68785098,11.98137182,57.68785533,11.98136933,13:04:35.371998,0.00319,1.17859,1.17859,-0.01501,-0.03374,0.01019,-0.00437,0.01275,-0.01391,-0.04258,1.00412,0.54334,0.23572,0.91385,0.90344,-0.02066,0.07180,0.50291,-0.16841,0.55597,1.93552,1.93552,A,130435.20
0.55860,57.68785098,11.98137182,57.68785533,11.98136933,13:04:35.382478,0.00303,1.17859,1.17859,-0.01512,-0.03345,0.00347,0.00052,0.01626,-0.00116,-0.00817,1.01187,0.55341,0.23572,0.91385,0.90344,-0.02066,0.07180,0.50291,-0.16841,0.55597,1.93552,1.93552,A,130435.20
0.56916,57.68785098,11.98137182,57.68785533,11.98136933,13:04:35.392627,0.00319,1.17859,1.17859,-0.01589,-0.03309,0.00088,-0.00040,0.01351,-0.02013,-0.05130,1.03425,0.56398,0.23572,0.91385,0.90344,-0.02066,0.07180,0.50291,-0.16841,0.55597,1.93552,1.93552,A,130435.20
0.57958,57.68785098,11.98137182,57.68785533,11.98136933,13:04:35.403040,0.00321,1.17859,1.17859,-0.01609,-0.03263,-0.00508,0.00968,0.01183,-0.02178,-0.00878,1.03615,0.57437,0.23572,0.91385,0.90344,-0.02066,0.07180,0.50291,-0.16841,0.55597,1.93552,1.93552,A,130435.20
0.59002,57.68785098,11.98137182,57.68785533,11.98136933,13:04:35.413485,0.00301,1.17859,1.17859,-0.01654,-0.03210,-0.00599,0.01121,0.01244,-0.02696,-0.02550,1.01803,0.58483,0.23572,0.91385,0.90344,-0.02066,0.07180,0.50291,-0.16841,0.55597,1.93552,1.93552,A,130435.20
0.60058,57.68785098,11.98137182,57.68785533,11.98136933,13:04:35.424047,0.00318,1.17859,1.17859,-0.01664,-0.03153,-0.00554,0.01487,0.00755,0.01549,-0.00238,1.00034,0.59541,0.23572,0.91385,0.90344,-0.02066,0.07180,0.50291,-0.16841,0.55597,1.93552,1.93552,A,130435.20
0.62737,57.68785098,11.98137182,57.68785633,11.98136867,13:04:35.450871,0.01956,1.17859,1.17859,-0.01717,-0.03099,-0.01180,0.00143,0.00817,0.01867,-0.02568,0.95874,0.60558,0.23572,0.91385,0.90344,-0.02066,0.07180,0.62218,-0.20803,0.66717,1.91312,1.91312,A,130435.30
0.64546,57.68785144,11.98137194,57.68785633,11.98136867,13:04:35.468946,0.00784,1.17859,1.17859,-0.01792,-0.02994,-0.00706,-0.00284,0.00923,-0.02019,-0.03489,0.97661,0.63578,0.42429,1.06430,1.05541,-0.01332,0.12276,0.62218,-0.20803,0.66717,1.91312,1.91312,A,130435.30
0.65231,57.68785144,11.98137194,57.68785633,11.98136867,13:04:35.475784,0.00405,1.17859,1.17859,-0.01886,-0.02977,-0.00309,-0.00636,0.01275,-0.00415,-0.05941,0.97283,0.64711,0.42429,1.06430,1.05541,-0.01332,0.12276,0.62218,-0.20803,0.66717,1.91312,1.91312,A,130435.30
0.66185,57.68785144,11.98137194,57.68785633,11.98136867,13:04:35.485310,0.00319,1.17859,1.17859,-0.01931,-0.02972,-0.00905,0.00281,0.01779,-0.03227,-0.02660,1.02754,0.65666,0.42429,1.06430,1.05541,-0.01332,0.12276,0.62218,-0.20803,0.66717,1.91312,1.91312,A,130435.30
0.67236,57.68785144,11.98137194,57.68785633,11.98136867,13:04:35.495822,0.00329,1.17859,1.17859,-0.01955,-0.02972,-0.00462,0.01854,0.01992,-0.07655,-0.01519,1.07781,0.66716,0.42429,1.06430,1.05541,-0.01332,0.12276,0.62218,-0.20803,0.66717,1.91312,1.91312,A,130435.30
0.68230,57.68785144,11.98137194,57.68785633,11.98136867,13:04:35.505766,0.00301,1.17859,1.17859,-0.02025,-0.02972,-0.00859,0.02907,0.01931,0.02287,-0.04416,1.02730,0.67711,0.42429,1.06430,1.05541,-0.01332,0.12276,0.62218,-0.20803,0.66717,1.91312,1.91312,A,130435.30
0.69287,57.68785144,11.98137194,57.68785633,11.98136867,13:04:35.516336,0.00318,1.17859,1.17859,-0.02083,-0.02972,-0.00828,0.01686,0.01794,0.05496,-0.03642,1.01504,0.68768,0.42429,1.06430,1.05541,-0.01332,0.12276,0.62218,-0.20803,0.66717,1.91312,1.91312,A,130435.30
0.70330,57.68785144,11.98137194,57.68785633,11.98136867,13:04:35.526768,0.00321,1.17859,1.17859,-0.02100,-0.02972,-0.00935,0.00693,0.01656,0.02001,-0.00866,0.99381,0.69790,0.42429,1.06430,1.05541,-0.01332,0.12276,0.62218,-0.20803,0.66717,1.91312,1.91312,A,130435.30
0.71367,57.68785144,11.98137194,57.68785633,11.98136867,13:04:35.537132,0.00317,1.17859,1.17859,-0.02083,-0.02972,-0.01103,-0.00773,0.01534,0.00726,0.01519,0.96417,0.70849,0.42429,1.06430,1.05541,-0.01332,0.12276,0.62218,-0.20803,0.66717,1.91312,1.91312,A,130435.30
0.75117,57.68785144,11.98137194,57.68785833,11.98136667,13:04:35.574653,0.03027,1.17859,1.17859,-0.02147,-0.02972,-0.00370,-0.01674,0.00740,-0.03056,-0.04197,0.95093,0.71880,0.42429,1.06430,1.05541,-0.01332,0.12276,0.74645,-0.32690,0.88956,2.06169,2.06169,A,130435.50
0.76695,57.68785216,11.98137208,57.68785833,11.98136667,13:04:35.590449,0.00675,1.17859,1.17859,-0.02231,-0.02972,-0.00538,0.00265,0.00801,-0.04197,-0.04758,1.03694,0.75835,0.57515,1.21406,1.20523,-0.00528,0.20299,0.74645,-0.32690,0.88956,2.06169,2.06169,A,130435.50
0.77386,57.68785216,11.98137208,57.68785833,11.98136667,13:04:35.597331,0.00326,1.17859,1.17859,-0.02299,-0.02972,-0.00905,0.01625,0.01137,-0.00610,-0.04532,1.02700,0.76868,0.57515,1.21406,1.20523,-0.00528,0.20299,0.74645,-0.32690,0.88956,2.06169,2.06169,A,130435.50
0.78421,57.68785216,11.98137208,57.68785833,11.98136667,13:04:35.607678,0.00321,1.17859,1.17859,-0.02287,-0.02972,0.00256,0.00601,0.01641,0.00104,0.00092,1.06524,0.77902,0.57515,1.21406,1.20523,-0.00528,0.20299,0.74645,-0.32690,0.88956,2.06169,2.06169,A,130435.50
0.79428,57.68785216,11.98137208,57.68785833,11.98136667,13:04:35.617748,0.00305,1.17859,1.17859,-0.02263,-0.02972,0.01126,-0.00483,0.01992,0.04264,0.00342,1.02309,0.78909,0.57515,1.21406,1.20523,-0.00528,0.20299,0.74645,-0.32690,0.88956,2.06169,2.06169,A,130435.50
0.80482,57.68785216,11.98137208,57.68785833,11.98136667,13:04:35.628283,0.00318,1.17859,1.17859,-0.02253,-0.02972,0.01707,-0.02163,0.01366,0.02178,-0.01031,0.99491,0.79964,0.57515,1.21406,1.20523,-0.00528,0.20299,0.74645,-0.32690,0.88956,2.06169,2.06169,A,130435.50
0.81523,57.68785216,11.98137208,57.68785833,11.98136667,13:04:35.638701,0.00319,1.17859,1.17859,-0.02299,-0.02972,0.01783,-0.02697,0.01427,0.02721,-0.04691,0.97496,0.80982,0.57515,1.21406,1.20523,-0.00528,0.20299,0.74645,-0.32690,0.88956,2.06169,2.06169,A,130435.50
0.82577,57.68785216,11.98137208,57.68785833,11.98136667,13:04:35.649237,0.00334,1.17859,1.17859,-0.02375,-0.02972,0.01783,-0.02972,0.01107,-0.00537,-0.06716,0.97386,0.82058,0.57515,1.21406,1.20523,-0.00528,0.20299,0.74645,-0.32690,0.88956,2.06169,2.06169,A,130435.50
0.83619,57.68785216,11.98137208,57.68785833,11.98136667,13:04:35.659661,0.00336,1.17859,1.17859,-0.02370,-0.02972,0.01905,-0.02560,0.00771,-0.04734,-0.01543,0.96606,0.83100,0.57515,1.21406,1.20523,-0.00528,0.20299,0.74645,-0.32690,0.88956,2.06169,2.06169,A,130435.50
0.84627,57.68785216,11.98137208,57.68785833,11.98136667,13:04:35.669741,0.00301,1.17859,1.17859,-0.02449,-0.02972,0.01982,-0.01552,0.00939,-0.01189,-0.06991,0.97045,0.84109,0.57515,1.21406,1.20523,-0.00528,0.20299,0.74645,-0.32690,0.88956,2.06169,2.06169,A,130435.50
0.87328,57.68785216,11.98137208,57.68785967,11.98136600,13:04:35.696790,0.01962,1.17859,1.17859,-0.02428,-0.02972,0.02088,-0.00712,0.01641,0.00390,-0.00775,0.97484,0.85166,0.57515,1.21406,1.20523,-0.00528,0.20299,0.86830,-0.36653,1.03782,1.83196,1.83196,A,130435.60
0.88893,57.68785308,11.98137217,57.68785967,11.98136600,13:04:35.713148,0.00765,1.17859,1.17859,-0.02343,-0.02972,0.03310,-0.00773,0.02481,-0.02538,-0.01244,1.02730,0.88035,0.69584,1.30648,1.29765,0.00005,0.30583,0.86830,-0.36653,1.03782,1.83196,1.83196,A,130435.60
0.89465,57.68785308,11.98137217,57.68785967,11.98136600,13:04:35.718349,0.00298,1.17859,1.17859,-0.02331,-0.02972,0.03768,-0.00590,0.01840,0.00439,-0.02129,1.03529,0.88947,0.69584,1.30648,1.29765,0.00005,0.30583,0.86830,-0.36653,1.03782,1.83196,1.83196,A,130435.60
0.90526,57.68785308,11.98137217,57.68785967,11.98136600,13:04:35.728720,0.00319,1.17859,1.17859,-0.02334,-0.02972,0.04165,-0.01094,0.01565,0.02562,-0.03770,1.01974,0.90007,0.69584,1.30648,1.29765,0.00005,0.30583,0.86830,-0.36653,1.03782,1.83196,1.83196,A,130435.60
0.91567,57.68785308,11.98137217,57.68785967,11.98136600,13:04:35.739139,0.00320,1.17859,1.17859,-0.02342,-0.02972,0.03982,-0.01537,0.01015,0.03312,-0.03843,1.00540,0.91046,0.69584,1.30648,1.29765,0.00005,0.30583,0.86830,-0.36653,1.03782,1.83196,1.83196,A,130435.60
0.92618,57.68785308,11.98137217,57.68785967,11.98136600,13:04:35.749653,0.00305,1.17859,1.17859,-0.02325,-0.02972,0.04058,-0.02041,0.01046,-0.03684,-0.02330,1.02230,0.92099,0.69584,1.30648,1.29765,0.00005,0.30583,0.86830,-0.36653,1.03782,1.83196,1.83196,A,130435.60
0.93695,57.68785308,11.98137217,57.68785967,11.98136600,13:04:35.760420,0.00335,1.17859,1.17859,-0.02353,-0.02972,0.04547,-0.00972,0.00862,-0.06289,-0.05783,1.02913,0.93161,0.69584,1.30648,1.29765,0.00005,0.30583,0.86830,-0.36653,1.03782,1.83196,1.83196,A,130435.60
0.94718,57.68785308,11.98137217,57.68785967,11.98136600,13:04:35.770651,0.00318,1.17859,1.17859,-0.02391,-0.02972,0.04333,0.00739,0.00954,-0.04868,-0.06167,1.02456,0.94177,0.69584,1.30648,1.29765,0.00005,0.30583,0.86830,-0.36653,1.03782,1.83196,1.83196,A,130435.60
0.95757,57.68785308,11.98137217,57.68785967,11.98136600,13:04:35.781035,0.00318,1.17859,1.17859,-0.02412,-0.02972,0.04181,0.01518,0.01458,0.06021,-0.04740,0.94940,0.95239,0.69584,1.30648,1.29765,0.00005,0.30583,0.86830,-0.36653,1.03782,1.83196,1.83196,A,130435.60
0.96798,57.68785308,11.98137217,57.68785967,11.98136600,13:04:35.791450,0.00319,1.17859,1.17859,-0.02416,-0.02972,0.03875,-0.00177,0.01611,0.10004,-0.03227,0.89005,0.96279,0.69584,1.30648,1.29765,0.00005,0.30583,0.86830,-0.36653,1.03782,1.83196,1.83196,A,130435.60
0.99456,57.68785308,11.98137217,57.68786067,11.98136500,13:04:35.818257,0.01939,1.17859,1.17859,-0.02387,-0.02972,0.04792,-0.02774,0.01733,0.00250,-0.01830,0.93495,0.97297,0.69584,1.30648,1.29765,0.00005,0.30583,0.98952,-0.42597,1.14901,2.06169,2.06169,A,130435.70
1.01160,57.68785414,11.98137217,57.68786067,11.98136500,13:04:35.835087,0.00760,1.17859,1.17859,-0.02352,-0.02972,0.04990,-0.01857,0.00923,0.01702,-0.08278,1.06305,1.00194,0.79239,1.41917,1.41035,-0.00007,0.42360,0.98952,-0.42597,1.14901,2.06169,2.06169,A,130435.70
1.01761,57.68785414,11.98137217,57.68786067,11.98136500,13:04:35.841068,0.00320,1.17859,1.17859,-0.02382,-0.02972,0.04944,-0.01353,0.00145,0.04136,-0.06600,1.09983,1.01243,0.79239,1.41917,1.41035,-0.00007,0.42360,0.98952,-0.42597,1.14901,2.06169,2.06169,A,130435.70
1.02800,57.68785414,11.98137217,57.68786067,11.98136500,13:04:35.851470,0.00320,1.17859,1.17859,-0.02419,-0.02972,0.04440,-0.01430,0.00419,0.05417,-0.06564,1.07525,1.02281,0.79239,1.41917,1.41035,-0.00007,0.42360,0.98952,-0.42597,1.14901,2.06169,2.06169,A,130435.70
1.03816,57.68785414,11.98137217,57.68786067,11.98136500,13:04:35.861619,0.00299,1.37870,1.37870,-0.02386,-0.02972,0.04730,-0.01506,0.00328,0.00317,-0.01842,1.03499,1.03297,0.79239,1.41917,1.41035,-0.00007,0.42360,0.98952,-0.42597,1.14901,2.06169,2.06169,A,130435.70
1.04891,57.68785414,11.98137217,57.68786067,11.98136500,13:04:35.872371,0.00335,1.37870,1.37870,-0.02345,-0.02972,0.04837,-0.01399,0.00236,-0.05472,-0.01397,0.97258,1.04371,0.79239,1.41917,1.41035,-0.00007,0.42360,0.98952,-0.42597,1.14901,2.06169,2.06169,A,130435.70
1.05912,57.68785414,11.98137217,57.68786067,11.98136500,13:04:35.882592,0.00316,1.37870,1.37870,-0.02335,-0.02972,0.05387,-0.00254,0.00801,-0.00464,-0.03324,0.91049,1.05374,0.79239,1.41917,1.41035,-0.00007,0.42360,0.98952,-0.42597,1.14901,2.06169,2.06169,A,130435.70
1.06957,57.68785414,11.98137217,57.68786067,11.98136500,13:04:35.893037,0.00321,1.37870,1.37870,-0.02293,-0.02972,0.05784,-0.01170,0.00771,-0.00738,-0.01781,0.86205,1.06438,0.79239,1.41917,1.41035,-0.00007,0.42360,0.98952,-0.42597,1.14901,2.06169,2.06169,A,130435.70
1.07993,57.68785414,11.98137217,57.68786067,11.98136500,13:04:35.903388,0.00318,1.37870,1.37870,-0.02311,-0.02972,0.06334,-0.00910,0.01091,0.03977,-0.05606,0.89591,1.07474,0.79239,1.41917,1.41035,-0.00007,0.42360,0.98952,-0.42597,1.14901,2.06169,2.06169,A,130435.70
1.10597,57.68785414,11.98137217,57.68786183,11.98136400,13:04:35.929458,0.01882,1.37870,1.37870,-0.02260,-0.02972,0.06135,-0.01705,0.01351,-0.04843,-0.01354,0.97271,1.08498,0.79239,1.41917,1.41035,-0.00007,0.42360,1.10201,-0.48540,1.27874,2.00042,2.00042,A,130435.80
1.12107,57.68785524,11.98137197,57.68786183,11.98136400,13:04:35.944560,0.00689,1.37870,1.37870,-0.02072,-0.02972,0.05830,-0.00269,0.01595,0.02190,0.01354,1.09196,1.11282,0.90965,1.50574,1.49691,-0.01152,0.54558,1.10201,-0.48540,1.27874,2.00042,2.00042,A,130435.80
1.12777,57.68785524,11.98137197,57.68786183,11.98136400,13:04:35.951239,0.00319,1.37870,1.37870,-0.02026,-0.02972,0.05479,-0.00819,0.01107,0.02379,-0.00933,1.05829,1.12258,0.90965,1.50574,1.49691,-0.01152,0.54558,1.10201,-0.48540,1.27874,2.00042,2.00042,A,130435.80
1.13814,57.68785524,11.98137197,57.68786183,11.98136400,13:04:35.961607,0.00302,1.37870,1.37870,-0.01917,-0.02972,0.05631,-0.02224,0.01000,0.01525,0.03209,1.04743,1.13295,0.90965,1.50574,1.49691,-0.01152,0.54558,1.10201,-0.48540,1.27874,2.00042,2.00042,A,130435.80
1.14872,57.68785524,11.98137197,57.68786183,11.98136400,13:04:35.972177,0.00319,1.37870,1.37870,-0.01845,-0.02972,0.05769,-0.02193,0.00710,0.01147,0.00476,0.99814,1.14353,0.90965,1.50574,1.49691,-0.01152,0.54558,1.10201,-0.48540,1.27874,2.00042,2.00042,A,130435.80
1.15910,57.68785524,11.98137197,57.68786183,11.98136400,13:04:35.982575,0.00319,1.37870,1.37870,-0.01804,-0.02972,0.06365,-0.02315,0.00419,-0.04020,-0.01751,0.98558,1.15371,0.90965,1.50574,1.49691,-0.01152,0.54558,1.10201,-0.48540,1.27874,2.00042,2.00042,A,130435.80
1.16959,57.68785524,11.98137197,57.68786183,11.98136400,13:04:35.993058,0.00327,1.37870,1.37870,-0.01784,-0.02972,0.06395,-0.01201,0.00694,-0.02593,-0.03123,0.92848,1.16441,0.90965,1.50574,1.49691,-0.01152,0.54558,1.10201,-0.48540,1.27874,2.00042,2.00042,A,130435.80
1.18029,57.68785524,11.98137197,57.68786183,11.98136400,13:04:36.003757,0.00357,1.37870,1.37870,-0.01789,-0.02972,0.05525,-0.00468,0.00847,-0.00439,-0.03928,0.87681,1.17509,0.90965,1.50574,1.49691,-0.01152,0.54558,1.10201,-0.48540,1.27874,2.00042,2.00042,A,130435.80
1.19015,57.68785524,11.98137197,57.68786183,11.98136400,13:04:36.013616,0.00299,1.37870,1.37870,-0.01760,-0.02972,0.05433,-0.00666,0.00939,-0.01989,-0.01671,0.92110,1.18496,0.90965,1.50574,1.49691,-0.01152,0.54558,1.10201,-0.48540,1.27874,2.00042,2.00042,A,130435.80
1.20076,57.68785524,11.98137197,57.68786183,11.98136400,13:04:36.024213,0.00319,1.37870,1.37870,-0.01732,-0.02972,0.05677,-0.00330,0.01427,-0.02105,-0.02159,0.95270,1.19558,0.90965,1.50574,1.49691,-0.01152,0.54558,1.10201,-0.48540,1.27874,2.00042,2.00042,A,130435.80
1.22636,57.68785524,11.98137197,57.68786317,11.98136300,13:04:36.049849,0.01840,1.37870,1.37870,-0.01656,-0.02972,0.05708,-0.00636,0.01488,-0.02446,0.01141,0.99625,1.20575,0.90965,1.50574,1.49691,-0.01152,0.54558,1.22241,-0.54484,1.42700,1.95208,1.95208,A,130435.90
1.23929,57.68785652,11.98137165,57.68786317,11.98136300,13:04:36.062780,0.00710,1.37870,1.37870,-0.01514,-0.02972,0.05769,-0.01475,0.00526,0.02190,0.00159,1.05274,1.23027,1.00346,1.57160,1.56278,-0.03088,0.68839,1.22241,-0.54484,1.42700,1.95208,1.95208,A,130435.90
1.24578,57.68785652,11.98137165,57.68786317,11.98136300,13:04:36.069413,0.00319,1.37870,1.37870,-0.01491,-0.02972,0.05479,-0.01811,-0.00405,0.01177,-0.02159,1.05390,1.24060,1.00346,1.57160,1.56278,-0.03088,0.68839,1.22241,-0.54484,1.42700,1.95208,1.95208,A,130435.90
1.25619,57.68785652,11.98137165,57.68786317,11.98136300,13:04:36.079656,0.00320,1.37870,1.37870,-0.01416,-0.02972,0.05815,-0.01857,-0.00176,-0.01653,0.01232,1.04652,1.25100,1.00346,1.57160,1.56278,-0.03088,0.68839,1.22241,-0.54484,1.42700,1.95208,1.95208,A,130435.90
1.26625,57.68785652,11.98137165,57.68786317,11.98136300,13:04:36.089720,0.00303,1.37870,1.37870,-0.01425,-0.02972,0.05738,-0.01857,-0.00161,-0.06826,-0.04301,1.03096,1.26107,1.00346,1.57160,1.56278,-0.03088,0.68839,1.22241,-0.54484,1.42700,1.95208,1.95208,A,130435.90
1.27698,57.68785652,11.98137165,57.68786317,11.98136300,13:04:36.100451,0.00336,1.37870,1.37870,-0.01351,-0.02972,0.05448,-0.00636,-0.00161,0.00293,0.01232,0.97136,1.27179,1.00346,1.57160,1.56278,-0.03088,0.68839,1.22241,-0.54484,1.42700,1.95208,1.95208,A,130435.90
1.28722,57.68785652,11.98137165,57.68786317,11.98136300,13:04:36.110692,0.00320,1.37870,1.37870,-0.01280,-0.02972,0.05402,-0.01628,0.00679,-0.02653,0.01293,0.94886,1.28182,1.00346,1.57160,1.56278,-0.03088,0.68839,1.22241,-0.54484,1.42700,1.95208,1.95208,A,130435.90
1.29785,57.68785652,11.98137165,57.68786317,11.98136300,13:04:36.121318,0.00342,1.37870,1.37870,-0.01158,-0.02972,0.04883,-0.00697,0.00282,-0.00018,0.04770,0.95373,1.29264,1.00346,1.57160,1.56278,-0.03088,0.68839,1.22241,-0.54484,1.42700,1.95208,1.95208,A,130435.90
1.30800,57.68785652,11.98137165,57.68786317,11.98136300,13:04:36.131475,0.00318,1.37870,1.37870,-0.01140,-0.02972,0.05570,-0.00300,0.00847,-0.03257,-0.01982,0.96185,1.30280,1.00346,1.57160,1.56278,-0.03088,0.68839,1.22241,-0.54484,1.42700,1.95208,1.95208,A,130435.90
1.31817,57.68785652,11.98137165,57.68786317,11.98136300,13:04:36.141625,0.00300,1.37870,1.37870,-0.01061,-0.02972,0.04898,-0.00101,0.00450,-0.03288,0.02361,0.97203,1.31298,1.00346,1.57160,1.56278,-0.03088,0.68839,1.22241,-0.54484,1.42700,1.95208,1.95208,A,130435.90
1.35523,57.68785652,11.98137165,57.68786567,11.98136100,13:04:36.178711,0.02966,1.37870,1.37870,-0.01087,-0.02972,0.04410,0.00861,0.00022,0.00037,-0.04014,0.93653,1.32355,1.00346,1.57160,1.56278,-0.03088,0.68839,1.35119,-0.66372,1.70499,1.97489,1.97489,A,130436.10
1.36885,57.68785806,11.98137113,57.68786567,11.98136100,13:04:36.192602,0.00710,1.37870,1.37870,-0.00938,-0.03051,0.01233,0.00143,-0.01948,-0.00817,0.07723,1.02773,1.35990,1.07851,1.63053,1.62147,-0.06155,0.85960,1.35119,-0.66372,1.70499,1.97489,1.97489,A,130436.10
1.37606,57.68785806,11.98137113,57.68786567,11.98136100,13:04:36.199530,0.00391,1.37870,1.37870,-0.00957,-0.03119,0.01966,0.00418,-0.02482,0.03080,-0.02031,1.04182,1.37084,1.07851,1.63053,1.62147,-0.06155,0.85960,1.35119,-0.66372,1.70499,1.97489,1.97489,A,130436.10
1.38573,57.68785806,11.98137113,57.68786567,11.98136100,13:04:36.209193,0.00318,1.37870,1.37870,-0.00962,-0.03215,0.01142,-0.01155,-0.02177,-0.04319,-0.00470,1.05353,1.38055,1.07851,1.63053,1.62147,-0.06155,0.85960,1.35119,-0.66372,1.70499,1.97489,1.97489,A,130436.10
1.39613,57.68785806,11.98137113,57.68786567,11.98136100,13:04:36.219601,0.00319,1.37870,1.37870,-0.01018,-0.03317,0.01417,-0.01277,-0.01627,0.06985,-0.04087,0.98295,1.39094,1.07851,1.63053,1.62147,-0.06155,0.85960,1.35119,-0.66372,1.70499,1.97489,1.97489,A,130436.10
1.40620,57.68785806,11.98137113,57.68786567,11.98136100,13:04:36.229666,0.00301,1.37870,1.37870,-0.01092,-0.03416,0.00638,-0.02529,-0.01703,-0.00860,-0.04593,0.95136,1.40101,1.07851,1.63053,1.62147,-0.06155,0.85960,1.35119,-0.66372,1.70499,1.97489,1.97489,A,130436.10
1.41677,57.68785806,11.98137113,57.68786567,11.98136100,13:04:36.240232,0.00318,1.37870,1.37870,-0.01138,-0.03512,0.01126,-0.02483,-0.01199,0.01543,-0.03178,0.91000,1.41159,1.07851,1.63053,1.62147,-0.06155,0.85960,1.35119,-0.66372,1.70499,1.97489,1.97489,A,130436.10
1.42725,57.68785806,11.98137113,57.68786567,11.98136100,13:04:36.250723,0.00326,1.37870,1.37870,-0.01211,-0.03597,0.00577,-0.00895,-0.01383,-0.09168,-0.04685,0.96032,1.42178,1.07851,1.63053,1.62147,-0.06155,0.85960,1.35119,-0.66372,1.70499,1.97489,1.97489,A,130436.10
1.43759,57.68785806,11.98137113,57.68786567,11.98136100,13:04:36.261055,0.00321,1.37870,1.37870,-0.01206,-0.03674,0.01157,0.01090,-0.01001,-0.05051,-0.00250,0.96514,1.43239,1.07851,1.63053,1.62147,-0.06155,0.85960,1.35119,-0.66372,1.70499,1.97489,1.97489,A,130436.10
1.44847,57.68785806,11.98137113,57.68786567,11.98136100,13:04:36.271932,0.00368,1.37870,1.37870,-0.01297,-0.03739,-0.00492,0.01762,-0.00879,-0.00171,-0.05252,0.96051,1.44326,1.07851,1.63053,1.62147,-0.06155,0.85960,1.35119,-0.66372,1.70499,1.97489,1.97489,A,130436.10
1.47431,57.68785806,11.98137113,57.68786667,11.98135967,13:04:36.297793,0.01915,1.75357,1.75357,-0.01270,-0.03793,-0.00935,0.01533,-0.01352,0.03983,0.02129,0.98265,1.45300,1.07851,1.63053,1.62147,-0.06155,0.85960,1.46958,-0.74297,1.81618,2.19000,2.19000,A,130436.20
1.48832,57.68785958,11.98137046,57.68786667,11.98135967,13:04:36.311792,0.00541,1.75357,1.75357,-0.01247,-0.03889,-0.01195,-0.01323,-0.02635,-0.02611,0.04362,1.18913,1.48086,1.21352,1.71318,1.70163,-0.10174,1.02795,1.46958,-0.74297,1.81618,2.19000,2.19000,A,130436.20
1.49860,57.68785958,11.98137046,57.68786667,11.98135967,13:04:36.322282,0.00468,1.75357,1.75357,-0.01224,-0.03900,-0.01455,-0.00132,-0.03078,-0.04270,0.02946,1.10392,1.49337,1.21352,1.71318,1.70163,-0.10174,1.02795,1.46958,-0.74297,1.81618,2.19000,2.19000,A,130436.20
1.50750,57.68785958,11.98137046,57.68786667,11.98135967,13:04:36.330970,0.00318,1.75357,1.75357,-0.01263,-0.03900,-0.01455,0.00403,-0.02528,0.01732,-0.01970,1.04804,1.50230,1.21352,1.71318,1.70163,-0.10174,1.02795,1.46958,-0.74297,1.81618,2.19000,2.19000,A,130436.20
1.51792,57.68785958,11.98137046,57.68786667,11.98135967,13:04:36.341380,0.00302,1.75357,1.75357,-0.01288,-0.03900,-0.01852,0.00250,-0.02131,-0.01086,-0.00641,0.93751,1.51273,1.21352,1.71318,1.70163,-0.10174,1.02795,1.46958,-0.74297,1.81618,2.19000,2.19000,A,130436.20
1.52850,57.68785958,11.98137046,57.68786667,11.98135967,13:04:36.351970,0.00320,1.75357,1.75357,-0.01257,-0.03900,-0.00813,-0.00544,-0.01108,-0.06289,0.02007,0.89097,1.52333,1.21352,1.71318,1.70163,-0.10174,1.02795,1.46958,-0.74297,1.81618,2.19000,2.19000,A,130436.20
1.53857,57.68785958,11.98137046,57.68786667,11.98135967,13:04:36.362232,0.00304,1.75357,1.75357,-0.01360,-0.03900,0.00103,-0.00086,-0.00252,-0.06783,-0.06301,0.86266,1.53339,1.21352,1.71318,1.70163,-0.10174,1.02795,1.46958,-0.74297,1.81618,2.19000,2.19000,A,130436.20
1.54913,57.68785958,11.98137046,57.68786667,11.98135967,13:04:36.372602,0.00320,1.75357,1.75357,-0.01404,-0.03900,0.00439,-0.00391,0.00114,-0.07826,-0.03385,0.95026,1.54395,1.21352,1.71318,1.70163,-0.10174,1.02795,1.46958,-0.74297,1.81618,2.19000,2.19000,A,130436.20
1.55955,57.68785958,11.98137046,57.68786667,11.98135967,13:04:36.383010,0.00321,1.75357,1.75357,-0.01431,-0.03900,0.00638,0.00479,0.00206,-0.04270,-0.02708,1.06067,1.55434,1.21352,1.71318,1.70163,-0.10174,1.02795,1.46958,-0.74297,1.81618,2.19000,2.19000,A,130436.20
1.58541,57.68785958,11.98137046,57.68786800,11.98135850,13:04:36.408879,0.01849,1.75357,1.75357,-0.01448,-0.03900,-0.00187,0.00999,-0.00756,0.01476,-0.01427,1.09849,1.56474,1.21352,1.71318,1.70163,-0.10174,1.02795,1.58136,-0.81231,1.96444,2.00828,2.00828,A,130436.30
1.60208,57.68786115,11.98136957,57.68786800,11.98135850,13:04:36.425551,0.00788,1.75357,1.75357,-0.01451,-0.03900,-0.00263,0.01197,-0.01871,-0.01928,-0.00085,0.98411,1.59432,1.32153,1.75508,1.74350,-0.15409,1.20267,1.58136,-0.81231,1.96444,2.00828,2.00828,A,130436.30
1.60788,57.68786115,11.98136957,57.68786800,11.98135850,13:04:36.431349,0.00328,1.75357,1.75357,-0.01401,-0.03900,-0.00248,0.00861,-0.02085,0.00415,0.02696,0.90249,1.60267,1.32153,1.75508,1.74350,-0.15409,1.20267,1.58136,-0.81231,1.96444,2.00828,2.00828,A,130436.30
1.61818,57.68786115,11.98136957,57.68786800,11.98135850,13:04:36.441639,0.00303,1.75357,1.75357,-0.01309,-0.03900,-0.00874,0.00082,-0.02009,-0.09656,0.05222,0.84753,1.61297,1.32153,1.75508,1.74350,-0.15409,1.20267,1.58136,-0.81231,1.96444,2.00828,2.00828,A,130436.30
1.62875,57.68786115,11.98136957,57.68786800,11.98135850,13:04:36.452206,0.00319,1.75357,1.75357,-0.01254,-0.03900,0.00042,-0.00040,-0.01535,-0.06564,0.02501,0.79440,1.62356,1.32153,1.75508,1.74350,-0.15409,1.20267,1.58136,-0.81231,1.96444,2.00828,2.00828,A,130436.30
1.63915,57.68786115,11.98136957,57.68786800,11.98135850,13:04:36.462625,0.00320,1.75357,1.75357,-0.01288,-0.03900,0.00332,0.00846,-0.01978,-0.00665,-0.02532,0.88505,1.63375,1.32153,1.75508,1.74350,-0.15409,1.20267,1.58136,-0.81231,1.96444,2.00828,2.00828,A,130436.30
1.64955,57.68786115,11.98136957,57.68786800,11.98135850,13:04:36.473015,0.00320,1.75357,1.75357,-0.01345,-0.03900,0.01187,0.01334,-0.01459,-0.06472,-0.04886,1.00565,1.64436,1.32153,1.75508,1.74350,-0.15409,1.20267,1.58136,-0.81231,1.96444,2.00828,2.00828,A,130436.30
1.65992,57.68786115,11.98136957,57.68786800,11.98135850,13:04:36.483384,0.00318,1.75357,1.75357,-0.01424,-0.03900,0.00424,0.01625,-0.01077,-0.01684,-0.06259,1.08397,1.65472,1.32153,1.75508,1.74350,-0.15409,1.20267,1.58136,-0.81231,1.96444,2.00828,2.00828,A,130436.30
1.67016,57.68786115,11.98136957,57.68786800,11.98135850,13:04:36.493631,0.00301,1.75357,1.75357,-0.01424,-0.03900,0.00515,0.02449,-0.00420,-0.03770,-0.00628,1.18444,1.66498,1.32153,1.75508,1.74350,-0.15409,1.20267,1.58136,-0.81231,1.96444,2.00828,2.00828,A,130436.30
1.68074,57.68786115,11.98136957,57.68786800,11.98135850,13:04:36.504197,0.00319,1.75357,1.75357,-0.01438,-0.03900,0.00607,0.02770,-0.00252,0.01812,-0.01793,1.14033,1.67555,1.32153,1.75508,1.74350,-0.15409,1.20267,1.58136,-0.81231,1.96444,2.00828,2.00828,A,130436.30
1.70667,57.68786115,11.98136957,57.68786900,11.98135700,13:04:36.530454,0.01871,1.75357,1.75357,-0.01365,-0.03900,-0.01027,0.00754,-0.00314,0.04124,0.05789,1.10294,1.68574,1.32153,1.75508,1.74350,-0.15409,1.20267,1.70265,-0.90146,2.07564,2.24663,2.24663,A,130436.40
1.72224,57.68786286,11.98136852,57.68786900,11.98135700,13:04:36.545709,0.00706,1.75357,1.75357,-0.01338,-0.03900,-0.01012,-0.03965,-0.02604,-0.07088,0.02977,0.89896,1.71506,1.40794,1.82581,1.81423,-0.21700,1.39270,1.70265,-0.90146,2.07564,2.24663,2.24663,A,130436.40
1.72878,57.68786286,11.98136852,57.68786900,11.98135700,13:04:36.552248,0.00321,1.75357,1.75357,-0.01403,-0.03900,-0.00599,-0.04683,-0.02986,-0.09223,-0.04020,0.91701,1.72360,1.40794,1.82581,1.81423,-0.21700,1.39270,1.70265,-0.90146,2.07564,2.24663,2.24663,A,130436.40
1.73917,57.68786286,11.98136852,57.68786900,11.98135700,13:04:36.562643,0.00320,1.75357,1.75357,-0.01378,-0.03900,-0.00508,-0.03858,-0.03124,-0.12157,0.01604,0.97704,1.73377,1.40794,1.82581,1.81423,-0.21700,1.39270,1.70265,-0.90146,2.07564,2.24663,2.24663,A,130436.40
1.74958,57.68786286,11.98136852,57.68786900,11.98135700,13:04:36.573043,0.00320,1.75357,1.75357,-0.01504,-0.03900,-0.00508,-0.02056,-0.03185,-0.04441,-0.07918,0.93519,1.74439,1.40794,1.82581,1.81423,-0.21700,1.39270,1.70265,-0.90146,2.07564,2.24663,2.24663,A,130436.40
1.76169,57.68786286,11.98136852,57.68786900,11.98135700,13:04:36.585191,0.00491,1.75357,1.75357,-0.01588,-0.03900,-0.00630,-0.00070,-0.02131,-0.03642,-0.05289,0.94605,1.75606,1.40794,1.82581,1.81423,-0.21700,1.39270,1.70265,-0.90146,2.07564,2.24663,2.24663,A,130436.40
1.77190,57.68786286,11.98136852,57.68786900,11.98135700,13:04:36.595384,0.00474,1.75357,1.75357,-0.01630,-0.03900,-0.00981,0.01334,-0.01673,-0.03007,-0.02574,0.93117,1.76664,1.40794,1.82581,1.81423,-0.21700,1.39270,1.70265,-0.90146,2.07564,2.24663,2.24663,A,130436.40
1.78321,57.68786286,11.98136852,57.68786900,11.98135700,13:04:36.607069,0.00539,1.75357,1.75357,-0.01512,-0.03900,-0.01424,0.01518,-0.00879,-0.02550,0.07649,0.93592,1.77637,1.40794,1.82581,1.81423,-0.21700,1.39270,1.70265,-0.90146,2.07564,2.24663,2.24663,A,130436.40
1.79141,57.68786286,11.98136852,57.68786900,11.98135700,13:04:36.614885,0.00320,1.75357,1.75357,-0.01417,-0.03900,-0.00706,0.01334,-0.00420,-0.12969,0.06112,0.96752,1.78621,1.40794,1.82581,1.81423,-0.21700,1.39270,1.70265,-0.90146,2.07564,2.24663,2.24663,A,130436.40
1.80168,57.68786286,11.98136852,57.68786900,11.98135700,13:04:36.625151,0.00325,1.75357,1.75357,-0.01359,-0.03911,-0.00599,0.02037,-0.00894,-0.10401,0.03831,0.98362,1.79649,1.40794,1.82581,1.81423,-0.21700,1.39270,1.70265,-0.90146,2.07564,2.24663,2.24663,A,130436.40
1.82846,57.68786286,11.98136852,57.68787050,11.98135600,13:04:36.652307,0.01962,1.75357,1.75357,-0.01304,-0.03940,0.00577,0.03442,-0.01138,-0.07710,0.03050,1.02517,1.80689,1.40794,1.82581,1.81423,-0.21700,1.39270,1.82366,-0.96090,2.24243,1.91312,1.91312,A,130436.50
1.84227,57.68786462,11.98136725,57.68787050,11.98135600,13:04:36.665744,0.00698,1.75357,1.75357,-0.01447,-0.04090,-0.00615,0.05488,-0.03460,-0.01629,-0.08540,0.97435,1.83508,1.47707,1.83569,1.82354,-0.29230,1.58863,1.82366,-0.96090,2.24243,1.91312,1.91312,A,130436.50
1.84939,57.68786462,11.98136725,57.68787050,11.98135600,13:04:36.672869,0.00369,1.75357,1.75357,-0.01551,-0.04135,-0.01653,0.03793,-0.03551,-0.10602,-0.06283,0.98503,1.84418,1.47707,1.83569,1.82354,-0.29230,1.58863,1.82366,-0.96090,2.24243,1.91312,1.91312,A,130436.50
1.85929,57.68786462,11.98136725,57.68787050,11.98135600,13:04:36.682762,0.00319,1.75357,1.75357,-0.01562,-0.04163,-0.00630,0.01762,-0.03429,-0.05258,-0.00939,1.01699,1.85389,1.47707,1.83569,1.82354,-0.29230,1.58863,1.82366,-0.96090,2.24243,1.91312,1.91312,A,130436.50
1.86967,57.68786462,11.98136725,57.68787050,11.98135600,13:04:36.693145,0.00317,1.75357,1.75357,-0.01612,-0.04172,-0.00462,-0.00681,-0.02864,0.08705,-0.03837,1.09568,1.86449,1.47707,1.83569,1.82354,-0.29230,1.58863,1.82366,-0.96090,2.24243,1.91312,1.91312,A,130436.50
1.88001,57.68786462,11.98136725,57.68787050,11.98135600,13:04:36.703466,0.00310,1.75357,1.75357,-0.01644,-0.04172,0.00302,-0.03598,-0.02390,0.12731,-0.03160,1.11606,1.87480,1.47707,1.83569,1.82354,-0.29230,1.58863,1.82366,-0.96090,2.24243,1.91312,1.91312,A,130436.50
1.89034,57.68786462,11.98136725,57.68787050,11.98135600,13:04:36.713818,0.00305,1.75357,1.75357,-0.01708,-0.04172,0.01035,-0.04805,-0.01581,0.02269,-0.05948,1.07171,1.88515,1.47707,1.83569,1.82354,-0.29230,1.58863,1.82366,-0.96090,2.24243,1.91312,1.91312,A,130436.50
1.90110,57.68786462,11.98136725,57.68787050,11.98135600,13:04:36.724572,0.00342,1.75357,1.75357,-0.01694,-0.04172,0.01371,-0.04240,-0.01535,-0.10004,-0.00732,1.00723,1.89593,1.47707,1.83569,1.82354,-0.29230,1.58863,1.82366,-0.96090,2.24243,1.91312,1.91312,A,130436.50
1.91128,57.68786462,11.98136725,57.68787050,11.98135600,13:04:36.734749,0.00320,1.60478,1.60478,-0.01769,-0.04172,0.00958,-0.01475,-0.01398,-0.19056,-0.05911,0.94349,1.90587,1.47707,1.83569,1.82354,-0.29230,1.58863,1.82366,-0.96090,2.24243,1.91312,1.91312,A,130436.50
1.92175,57.68786462,11.98136725,57.68787050,11.98135600,13:04:36.745217,0.00327,1.60478,1.60478,-0.01822,-0.04172,0.01340,0.00922,-0.01459,-0.18300,-0.04703,0.91518,1.91656,1.47707,1.83569,1.82354,-0.29230,1.58863,1.82366,-0.96090,2.24243,1.91312,1.91312,A,130436.50
1.95824,57.68786462,11.98136725,57.68787317,11.98135350,13:04:36.781718,0.02935,1.60478,1.60478,-0.01859,-0.04172,0.01661,0.02770,-0.01367,-0.01787,-0.03782,0.85827,1.92680,1.47707,1.83569,1.82354,-0.29230,1.58863,1.95429,-1.10949,2.53895,2.03534,2.03534,A,130436.70
1.97587,57.68786663,11.98136580,57.68787317,11.98135350,13:04:36.799367,0.00749,1.60478,1.60478,-0.01748,-0.04180,0.01615,0.00708,-0.03368,-0.13914,0.02867,1.11362,1.96652,1.50261,1.86142,1.84900,-0.37865,1.81227,1.95429,-1.10949,2.53895,2.03534,2.03534,A,130436.70
1.98298,57.68786663,11.98136580,57.68787317,11.98135350,13:04:36.806465,0.00402,1.60478,1.60478,-0.01784,-0.04189,0.01722,0.01411,-0.04345,0.01208,-0.04538,1.08836,1.97758,1.50261,1.86142,1.84900,-0.37865,1.81227,1.95429,-1.10949,2.53895,2.03534,2.03534,A,130436.70
1.99257,57.68786663,11.98136580,57.68787317,11.98135350,13:04:36.816037,0.00321,1.60478,1.60478,-0.01826,-0.04194,0.01462,-0.01475,-0.04345,0.09187,-0.04496,1.04530,1.98738,1.50261,1.86142,1.84900,-0.37865,1.81227,1.95429,-1.10949,2.53895,2.03534,2.03534,A,130436.70
2.00295,57.68786663,11.98136580,57.68787317,11.98135350,13:04:36.826421,0.00319,1.60478,1.60478,-0.01800,-0.04194,0.02012,-0.03965,-0.03597,0.03995,-0.00262,1.03425,1.99756,1.50261,1.86142,1.84900,-0.37865,1.81227,1.95429,-1.10949,2.53895,2.03534,2.03534,A,130436.70
2.01899,57.68786663,11.98136580,57.68787317,11.98135350,13:04:36.843174,0.00883,1.60478,1.60478,-0.01714,-0.04194,0.03020,-0.04698,-0.02650,-0.01086,0.03141,1.03432,2.00819,1.60478,1.99523,1.98278,-1.10949,2.53895,1.95429,-1.10949,2.53895,2.03534,2.03534,A,130436.70
2.02561,57.68786663,11.98136580,57.68787317,11.98135350,13:04:36.849083,0.00484,1.60478,1.60478,-0.01724,-0.00652,0.05173,-0.02728,-0.01474,-0.17800,-0.04721,1.02919,2.02037,1.60478,1.99523,1.98278,-1.10949,2.53895,1.95429,-1.10949,2.53895,2.03534,2.03534,A,130436.70
2.03442,57.68786663,11.98136580,57.68787317,11.98135350,13:04:36.858082,0.00321,1.60478,1.60478,-0.01778,-0.00652,0.04394,0.00052,-0.00894,-0.16812,-0.05752,0.96886,2.02923,1.60478,1.99523,1.98278,-1.10949,2.53895,1.95429,-1.10949,2.53895,2.03534,2.03534,A,130436.70
2.04494,57.68786663,11.98136580,57.68787317,11.98135350,13:04:36.868404,0.00322,1.60478,1.60478,-0.01794,-0.00652,0.03677,0.02480,-0.01367,0.03709,-0.03355,0.97295,2.03975,1.60478,1.99523,1.98278,-1.10949,2.53895,1.95429,-1.10949,2.53895,2.03534,2.03534,A,130436.70
2.07239,57.68786663,11.98136580,57.68787467,11.98135250,13:04:36.895865,0.02026,1.60478,1.60478,-0.01823,-0.00652,0.03325,0.00876,-0.01306,0.08436,-0.03715,0.93135,2.04990,1.60478,1.99523,1.98278,-1.10949,2.53895,2.06678,-1.16893,2.70574,1.91312,1.91312,A,130436.80
2.08641,57.68787459,11.98135235,57.68787467,11.98135250,13:04:36.910100,0.00729,1.60478,1.60478,-0.01707,-0.00652,0.05341,-0.06332,-0.01841,-0.01196,-0.01610,0.97990,2.07706,1.60478,1.97759,1.97566,-1.17803,2.69733,2.06678,-1.16893,2.70574,1.91312,1.91312,A,130436.80
2.09274,57.68787459,11.98135235,57.68787467,11.98135250,13:04:36.916213,0.00338,1.60478,1.60478,-0.01640,-0.00652,0.05372,-0.06240,-0.02360,-0.07064,0.01019,1.01717,2.08753,1.60478,1.97759,1.97566,-1.17803,2.69733,2.06678,-1.16893,2.70574,1.91312,1.91312,A,130436.80
2.10264,57.68787459,11.98135235,57.68787467,11.98135250,13:04:36.926310,0.00306,1.60478,1.60478,-0.01647,-0.00652,0.04501,-0.04713,-0.02956,-0.06039,-0.03263,1.08220,2.09745,1.60478,1.97759,1.97566,-1.17803,2.69733,2.06678,-1.16893,2.70574,1.91312,1.91312,A,130436.80
2.11319,57.68787459,11.98135235,57.68787467,11.98135250,13:04:36.936653,0.00320,1.60478,1.60478,-0.01637,-0.00652,0.04624,-0.04087,-0.02726,-0.04142,-0.02464,1.10666,2.10801,1.60478,1.97759,1.97566,-1.17803,2.69733,2.06678,-1.16893,2.70574,1.91312,1.91312,A,130436.80
2.12378,57.68787459,11.98135235,57.68787467,11.98135250,13:04:36.947248,0.00339,1.60478,1.60478,-0.01662,-0.00652,0.03906,-0.02315,-0.03414,-0.04154,-0.04276,1.05133,2.11855,1.60478,1.97759,1.97566,-1.17803,2.69733,2.06678,-1.16893,2.70574,1.91312,1.91312,A,130436.80
2.13414,57.68787459,11.98135235,57.68787467,11.98135250,13:04:36.957595,0.00318,1.60478,1.60478,-0.01655,-0.00652,0.03478,-0.01643,-0.03475,-0.06527,-0.01525,0.96691,2.12895,1.60478,1.97759,1.97566,-1.17803,2.69733,2.06678,-1.16893,2.70574,1.91312,1.91312,A,130436.80
2.14446,57.68787459,11.98135235,57.68787467,11.98135250,13:04:36.967927,0.00326,1.60478,1.60478,-0.01650,-0.00652,0.04242,-0.02163,-0.03001,-0.04849,-0.02007,0.87907,2.13926,1.60478,1.97759,1.97566,-1.17803,2.69733,2.06678,-1.16893,2.70574,1.91312,1.91312,A,130436.80
2.15448,57.68787459,11.98135235,57.68787467,11.98135250,13:04:36.978207,0.00305,1.60478,1.60478,-0.01515,-0.00663,0.04242,-0.02697,-0.02818,-0.05161,0.05319,0.82057,2.14929,1.60478,1.97759,1.97566,-1.17803,2.69733,2.06678,-1.16893,2.70574,1.91312,1.91312,A,130436.80
2.16502,57.68787459,11.98135235,57.68787467,11.98135250,13:04:36.988492,0.00320,1.60478,1.60478,-0.01489,-0.00692,0.05586,-0.03216,-0.02024,-0.05636,-0.01525,0.87950,2.15984,1.60478,1.97759,1.97566,-1.17803,2.69733,2.06678,-1.16893,2.70574,1.91312,1.91312,A,130436.80
2.19331,57.68787459,11.98135235,57.68787617,11.98135133,13:04:37.016797,0.02108,1.60478,1.60478,-0.01455,-0.00743,0.05250,-0.03400,-0.02146,-0.08747,-0.00878,1.00693,2.17023,1.60478,1.97759,1.97566,-1.17803,2.69733,2.18740,-1.23828,2.87254,1.96480,1.96480,A,130436.90
2.20923,57.68787620,11.98135107,57.68787617,11.98135133,13:04:37.032710,0.00750,1.60478,1.60478,-0.01262,-0.00997,0.04929,0.00128,-0.03001,0.03019,0.03575,1.14515,2.20181,1.60478,1.97513,1.97217,-1.25388,2.87605,2.18740,-1.23828,2.87254,1.96480,1.96480,A,130436.90
2.21534,57.68787620,11.98135107,57.68787617,11.98135133,13:04:37.038803,0.00321,1.60478,1.60478,-0.01256,-0.01085,0.04960,-0.00849,-0.03032,0.05057,-0.01751,1.07128,2.20993,1.60478,1.97513,1.97217,-1.25388,2.87605,2.18740,-1.23828,2.87254,1.96480,1.96480,A,130436.90
2.22573,57.68787620,11.98135107,57.68787617,11.98135133,13:04:37.049191,0.00320,1.60478,1.60478,-0.01168,-0.01176,0.04440,-0.03827,-0.03505,0.00506,0.03477,1.02431,2.22054,1.60478,1.97513,1.97217,-1.25388,2.87605,2.18740,-1.23828,2.87254,1.96480,1.96480,A,130436.90
2.23636,57.68787620,11.98135107,57.68787617,11.98135133,13:04:37.059822,0.00322,1.60478,1.60478,-0.01223,-0.01260,0.05647,-0.05141,-0.03780,0.01494,-0.06210,0.88718,2.23115,1.60478,1.97513,1.97217,-1.25388,2.87605,2.18740,-1.23828,2.87254,1.96480,1.96480,A,130436.90
2.24641,57.68787620,11.98135107,57.68787617,11.98135133,13:04:37.069874,0.00305,1.60478,1.60478,-0.01256,-0.01337,0.04089,-0.07111,-0.03841,-0.04496,-0.03727,0.85577,2.24121,1.60478,1.97513,1.97217,-1.25388,2.87605,2.18740,-1.23828,2.87254,1.96480,1.96480,A,130436.90
2.25696,57.68787620,11.98135107,57.68787617,11.98135133,13:04:37.080424,0.00319,1.60478,1.60478,-0.01254,-0.01405,0.04792,-0.06332,-0.03933,-0.07546,-0.02208,0.79758,2.25177,1.60478,1.97513,1.97217,-1.25388,2.87605,2.18740,-1.23828,2.87254,1.96480,1.96480,A,130436.90
2.26745,57.68787620,11.98135107,57.68787617,11.98135133,13:04:37.090920,0.00328,1.60478,1.60478,-0.01173,-0.01470,0.03875,-0.05339,-0.03582,-0.13804,0.02751,0.84601,2.26197,1.60478,1.97513,1.97217,-1.25388,2.87605,2.18740,-1.23828,2.87254,1.96480,1.96480,A,130436.90
2.27777,57.68787620,11.98135107,57.68787617,11.98135133,13:04:37.101232,0.00320,1.60478,1.60478,-0.01052,-0.01535,0.04517,-0.03140,-0.03307,-0.16324,0.05368,0.97643,2.27258,1.60478,1.97513,1.97217,-1.25388,2.87605,2.18740,-1.23828,2.87254,1.96480,1.96480,A,130436.90
2.30455,57.68787620,11.98135107,57.68787750,11.98135017,13:04:37.128035,0.01957,1.60478,1.60478,-0.01041,-0.01597,0.05448,-0.00895,-0.03475,-0.06161,-0.02440,1.09946,2.28299,1.60478,1.97513,1.97217,-1.25388,2.87605,2.29982,-1.30762,3.02080,2.00828,2.00828,A,130437.00
2.32152,57.68787766,11.98134992,57.68787750,11.98135017,13:04:37.144986,0.00634,1.80814,1.80814,-0.00904,-0.01824,0.04486,-0.04576,-0.04422,0.01415,0.00506,1.11404,2.31433,1.64545,1.97955,1.97413,-1.32236,3.03832,2.29982,-1.30762,3.02080,2.00828,2.00828,A,130437.00
2.32953,57.68787766,11.98134992,57.68787750,11.98135017,13:04:37.153003,0.00395,1.80814,1.80814,-0.00881,-0.01911,0.05112,-0.05874,-0.04727,-0.03324,-0.01165,1.07378,2.32432,1.64545,1.97955,1.97413,-1.32236,3.03832,2.29982,-1.30762,3.02080,2.00828,2.00828,A,130437.00
2.33936,57.68787766,11.98134992,57.68787750,11.98135017,13:04:37.162835,0.00339,1.80814,1.80814,-0.00871,-0.01988,0.04456,-0.05538,-0.05506,-0.07716,-0.01537,1.03663,2.33394,1.64545,1.97955,1.97413,-1.32236,3.03832,2.29982,-1.30762,3.02080,2.00828,2.00828,A,130437.00
2.34958,57.68787766,11.98134992,57.68787750,11.98135017,13:04:37.173036,0.00320,1.80814,1.80814,-0.00867,-0.02064,0.04654,-0.04179,-0.05460,-0.09662,-0.02306,1.00638,2.34438,1.64545,1.97955,1.97413,-1.32236,3.03832,2.29982,-1.30762,3.02080,2.00828,2.00828,A,130437.00
2.35997,57.68787766,11.98134992,57.68787750,11.98135017,13:04:37.183444,0.00319,1.80814,1.80814,-0.00877,-0.02127,0.04746,-0.02331,-0.05246,-0.11285,-0.03087,0.92500,2.35478,1.64545,1.97955,1.97413,-1.32236,3.03832,2.29982,-1.30762,3.02080,2.00828,2.00828,A,130437.00
2.37018,57.68787766,11.98134992,57.68787750,11.98135017,13:04:37.193645,0.00302,1.80814,1.80814,-0.00819,-0.02183,0.04807,0.00021,-0.05155,-0.12230,0.01122,0.93696,2.36500,1.64545,1.97955,1.97413,-1.32236,3.03832,2.29982,-1.30762,3.02080,2.00828,2.00828,A,130437.00
2.38076,57.68787766,11.98134992,57.68787750,11.98135017,13:04:37.204220,0.00319,1.80814,1.80814,-0.00788,-0.02240,0.04685,0.01930,-0.04712,0.00018,-0.00531,0.89499,2.37557,1.64545,1.97955,1.97413,-1.32236,3.03832,2.29982,-1.30762,3.02080,2.00828,2.00828,A,130437.00
2.39123,57.68787766,11.98134992,57.68787750,11.98135017,13:04:37.214693,0.00326,1.80814,1.80814,-0.00835,-0.02296,0.04181,-0.00849,-0.04544,0.05801,-0.04502,0.83357,2.38575,1.64545,1.97955,1.97413,-1.32236,3.03832,2.29982,-1.30762,3.02080,2.00828,2.00828,A,130437.00
2.41916,57.68787766,11.98134992,57.68787917,11.98134883,13:04:37.242660,0.02079,1.80814,1.80814,-0.00802,-0.02376,0.03631,-0.04469,-0.04116,0.10644,0.00061,0.83344,2.39662,1.64545,1.97955,1.97413,-1.32236,3.03832,2.41320,-1.38687,3.20612,1.97489,1.97489,A,130437.10
2.43225,57.68787914,11.98134874,57.68787917,11.98134883,13:04:37.255726,0.00687,1.80814,1.80814,-0.00719,-0.02650,0.04165,-0.05858,-0.05704,-0.09870,-0.01720,1.12716,2.42472,1.67799,1.97750,1.96963,-1.39220,3.20280,2.41320,-1.38687,3.20612,1.97489,1.97489,A,130437.10
2.43906,57.68787914,11.98134874,57.68787917,11.98134883,13:04:37.262536,0.00321,1.80814,1.80814,-0.00709,-0.02732,0.02959,-0.03827,-0.05766,0.04423,-0.00445,1.01894,2.43365,1.67799,1.97750,1.96963,-1.39220,3.20280,2.41320,-1.38687,3.20612,1.97489,1.97489,A,130437.10
2.44946,57.68787914,11.98134874,57.68787917,11.98134883,13:04:37.272930,0.00322,1.80814,1.80814,-0.00762,-0.02809,0.02898,-0.05186,-0.06422,0.15939,-0.04429,0.86419,2.44427,1.67799,1.97750,1.96963,-1.39220,3.20280,2.41320,-1.38687,3.20612,1.97489,1.97489,A,130437.10
2.45983,57.68787914,11.98134874,57.68787917,11.98134883,13:04:37.283288,0.00319,1.80814,1.80814,-0.00748,-0.02854,0.01875,-0.09844,-0.05613,0.01976,0.00079,0.90158,2.45463,1.67799,1.97750,1.96963,-1.39220,3.20280,2.41320,-1.38687,3.20612,1.97489,1.97489,A,130437.10
2.47032,57.68787914,11.98134874,57.68787917,11.98134883,13:04:37.293781,0.00304,1.80814,1.80814,-0.00606,-0.02879,0.01447,-0.09631,-0.05353,-0.21063,0.09675,1.06439,2.46513,1.67799,1.97750,1.96963,-1.39220,3.20280,2.41320,-1.38687,3.20612,1.97489,1.97489,A,130437.10
2.48087,57.68787914,11.98134874,57.68787917,11.98134883,13:04:37.304327,0.00319,1.80814,1.80814,-0.00496,-0.02885,0.02669,-0.04423,-0.05292,-0.27401,0.07527,1.19109,2.47568,1.67799,1.97750,1.96963,-1.39220,3.20280,2.41320,-1.38687,3.20612,1.97489,1.97489,A,130437.10
2.49127,57.68787914,11.98134874,57.68787917,11.98134883,13:04:37.314743,0.00319,1.80814,1.80814,-0.00447,-0.02885,0.02409,0.01151,-0.05185,-0.22045,0.03068,1.20390,2.48587,1.67799,1.97750,1.96963,-1.39220,3.20280,2.41320,-1.38687,3.20612,1.97489,1.97489,A,130437.10
2.50192,57.68787914,11.98134874,57.68787917,11.98134883,13:04:37.325378,0.00344,1.80814,1.80814,-0.00469,-0.02888,0.01966,0.03885,-0.05689,0.22228,-0.02141,1.09440,2.49672,1.67799,1.97750,1.96963,-1.39220,3.20280,2.41320,-1.38687,3.20612,1.97489,1.97489,A,130437.10
2.51322,57.68787914,11.98134874,57.68787917,11.98134883,13:04:37.336699,0.00434,1.80814,1.80814,-0.00453,-0.02902,0.00592,-0.00804,-0.05460,0.18099,0.01421,0.98899,2.50797,1.67799,1.97750,1.96963,-1.39220,3.20280,2.41320,-1.38687,3.20612,1.97489,1.97489,A,130437.10
2.53966,57.68787914,11.98134874,57.68788067,11.98134783,13:04:37.363144,0.02044,1.80814,1.80814,-0.00348,-0.02925,-0.00141,-0.03491,-0.05796,-0.04483,0.07826,0.99058,2.51706,1.67799,1.97750,1.96963,-1.39220,3.20280,2.53373,-1.44631,3.37291,1.91312,1.91312,A,130437.20
2.55761,57.68788085,11.98134741,57.68788067,11.98134783,13:04:37.381077,0.00730,1.80814,1.80814,-0.00539,-0.02987,-0.00569,0.00006,-0.05735,0.11358,-0.09650,0.90066,2.55043,1.70402,1.96491,1.95604,-1.47139,3.39280,2.53373,-1.44631,3.37291,1.91312,1.91312,A,130437.20
2.56389,57.68788085,11.98134741,57.68788067,11.98134783,13:04:37.387359,0.00318,1.80814,1.80814,-0.00598,-0.02990,-0.01623,-0.00819,-0.05934,0.20295,-0.02098,0.84253,2.55870,1.70402,1.96491,1.95604,-1.47139,3.39280,2.53373,-1.44631,3.37291,1.91312,1.91312,A,130437.20
2.57417,57.68788085,11.98134741,57.68788067,11.98134783,13:04:37.397633,0.00300,1.80814,1.80814,-0.00629,-0.02990,-0.02539,-0.04774,-0.05750,-0.00201,0.00226,0.92909,2.56898,1.70402,1.96491,1.95604,-1.47139,3.39280,2.53373,-1.44631,3.37291,1.91312,1.91312,A,130437.20
2.58476,57.68788085,11.98134741,57.68788067,11.98134783,13:04:37.408224,0.00320,1.80814,1.80814,-0.00559,-0.02990,-0.02004,-0.03446,-0.05582,-0.27712,0.07168,1.06646,2.57957,1.70402,1.96491,1.95604,-1.47139,3.39280,2.53373,-1.44631,3.37291,1.91312,1.91312,A,130437.20
2.59517,57.68788085,11.98134741,57.68788067,11.98134783,13:04:37.418640,0.00320,1.80814,1.80814,-0.00542,-0.02990,-0.01225,0.01243,-0.05582,-0.26694,0.03160,1.14320,2.58976,1.70402,1.96491,1.95604,-1.47139,3.39280,2.53373,-1.44631,3.37291,1.91312,1.91312,A,130437.20
2.60555,57.68788085,11.98134741,57.68788067,11.98134783,13:04:37.429014,0.00318,1.80814,1.80814,-0.00614,-0.02990,-0.02172,0.05076,-0.05491,-0.13231,-0.02855,1.17956,2.60037,1.70402,1.96491,1.95604,-1.47139,3.39280,2.53373,-1.44631,3.37291,1.91312,1.91312,A,130437.20
2.61594,57.68788085,11.98134741,57.68788067,11.98134783,13:04:37.439406,0.00318,1.80814,1.80814,-0.00711,-0.02990,-0.03425,0.03763,-0.05766,0.14341,-0.03898,1.13393,2.61074,1.70402,1.96491,1.95604,-1.47139,3.39280,2.53373,-1.44631,3.37291,1.91312,1.91312,A,130437.20
2.62618,57.68788085,11.98134741,57.68788067,11.98134783,13:04:37.449646,0.00303,1.80814,1.80814,-0.00702,-0.02990,-0.04326,0.00281,-0.05078,0.15158,0.04483,1.07750,2.62099,1.70402,1.96491,1.95604,-1.47139,3.39280,2.53373,-1.44631,3.37291,1.91312,1.91312,A,130437.20
2.66479,57.68788085,11.98134741,57.68788367,11.98134550,13:04:37.488279,0.03123,1.80814,1.80814,-0.00623,-0.02990,-0.03898,-0.03507,-0.05628,0.05935,0.08278,0.96984,2.63171,1.70402,1.96491,1.95604,-1.47139,3.39280,2.65911,-1.58499,3.70650,1.96480,1.96480,A,130437.40
2.67768,57.68788257,11.98134612,57.68788367,11.98134550,13:04:37.501293,0.00681,1.80814,1.80814,-0.00900,-0.02990,-0.04784,0.00754,-0.06025,-0.08955,-0.05435,0.88767,2.66940,1.72485,1.96159,1.95272,-1.54834,3.58424,2.65911,-1.58499,3.70650,1.96480,1.96480,A,130437.40
2.68503,57.68788257,11.98134612,57.68788367,11.98134550,13:04:37.508496,0.00416,1.99142,1.99142,-0.00966,-0.02990,-0.05150,0.01502,-0.05781,-0.01781,-0.00701,0.98918,2.67982,1.72485,1.96159,1.95272,-1.54834,3.58424,2.65911,-1.58499,3.70650,1.96480,1.96480,A,130437.40
2.69418,57.68788257,11.98134612,57.68788367,11.98134550,13:04:37.517648,0.00303,1.99142,1.99142,-0.00867,-0.02990,-0.05456,0.02709,-0.05445,0.01769,0.11041,1.09135,2.68899,1.72485,1.96159,1.95272,-1.54834,3.58424,2.65911,-1.58499,3.70650,1.96480,1.96480,A,130437.40
2.70475,57.68788257,11.98134612,57.68788367,11.98134550,13:04:37.528223,0.00319,1.99142,1.99142,-0.00785,-0.02990,-0.02508,0.03167,-0.04269,0.00616,0.09315,1.22085,2.69957,1.72485,1.96159,1.95272,-1.54834,3.58424,2.65911,-1.58499,3.70650,1.96480,1.96480,A,130437.40
2.71529,57.68788257,11.98134612,57.68788367,11.98134550,13:04:37.538765,0.00333,1.99142,1.99142,-0.00787,-0.02990,-0.01088,0.02205,-0.03490,0.05514,0.01232,1.22305,2.70976,1.72485,1.96159,1.95272,-1.54834,3.58424,2.65911,-1.58499,3.70650,1.96480,1.96480,A,130437.40
2.72598,57.68788257,11.98134612,57.68788367,11.98134550,13:04:37.549440,0.00362,1.99142,1.99142,-0.00877,-0.02990,-0.01577,-0.01155,-0.02925,0.08162,-0.04654,1.03694,2.72076,1.72485,1.96159,1.95272,-1.54834,3.58424,2.65911,-1.58499,3.70650,1.96480,1.96480,A,130437.40
2.73595,57.68788257,11.98134612,57.68788367,11.98134550,13:04:37.559423,0.00319,1.99142,1.99142,-0.00936,-0.02990,-0.02218,-0.03507,-0.02879,-0.01623,-0.02263,0.95971,2.73075,1.72485,1.96159,1.95272,-1.54834,3.58424,2.65911,-1.58499,3.70650,1.96480,1.96480,A,130437.40
2.74638,57.68788257,11.98134612,57.68788367,11.98134550,13:04:37.569838,0.00322,1.99142,1.99142,-0.00905,-0.02990,-0.01928,-0.03201,-0.02940,-0.07607,0.03294,0.95282,2.74118,1.72485,1.96159,1.95272,-1.54834,3.58424,2.65911,-1.58499,3.70650,1.96480,1.96480,A,130437.40
2.75674,57.68788257,11.98134612,57.68788367,11.98134550,13:04:37.580211,0.00319,1.99142,1.99142,-0.00809,-0.02990,-0.00920,-0.01674,-0.03261,-0.06777,0.06820,0.95075,2.75155,1.72485,1.96159,1.95272,-1.54834,3.58424,2.65911,-1.58499,3.70650,1.96480,1.96480,A,130437.40
2.78449,57.68788257,11.98134612,57.68788500,11.98134417,13:04:37.607977,0.02048,1.99142,1.99142,-0.00844,-0.02981,0.00729,-0.00422,-0.03124,-0.09479,-0.02513,0.96014,2.76181,1.72485,1.96159,1.95272,-1.54834,3.58424,2.77855,-1.66424,3.85476,2.06169,2.06169,A,130437.50
2.79967,57.68788433,11.98134479,57.68788500,11.98134417,13:04:37.623161,0.00786,1.99142,1.99142,-0.00821,-0.02803,0.01508,0.02113,-0.02314,-0.06149,-0.01122,1.01242,2.79140,1.77816,1.97305,1.96473,-1.62736,3.78009,2.77855,-1.66424,3.85476,2.06169,2.06169,A,130437.50
2.80552,57.68788433,11.98134479,57.68788500,11.98134417,13:04:37.628991,0.00330,1.99142,1.99142,-0.00714,-0.02704,0.01661,0.02602,-0.02100,0.00549,0.06423,0.98558,2.80033,1.77816,1.97305,1.96473,-1.62736,3.78009,2.77855,-1.66424,3.85476,2.06169,2.06169,A,130437.50
2.81580,57.68788433,11.98134479,57.68788500,11.98134417,13:04:37.639268,0.00318,1.99142,1.99142,-0.00676,-0.02596,0.02394,0.00708,-0.01734,-0.03947,0.01464,1.01547,2.81060,1.77816,1.97305,1.96473,-1.62736,3.78009,2.77855,-1.66424,3.85476,2.06169,2.06169,A,130437.50
2.82617,57.68788433,11.98134479,57.68788500,11.98134417,13:04:37.649636,0.00301,1.99142,1.99142,-0.00684,-0.02494,0.02638,-0.00269,-0.02161,0.08186,-0.01812,1.01742,2.82097,1.77816,1.97305,1.96473,-1.62736,3.78009,2.77855,-1.66424,3.85476,2.06169,2.06169,A,130437.50
2.83692,57.68788433,11.98134479,57.68788500,11.98134417,13:04:37.660383,0.00336,1.99142,1.99142,-0.00633,-0.02412,0.02684,-0.01323,-0.02375,-0.04636,0.02306,1.07665,2.83173,1.77816,1.97305,1.96473,-1.62736,3.78009,2.77855,-1.66424,3.85476,2.06169,2.06169,A,130437.50
2.84715,57.68788433,11.98134479,57.68788500,11.98134417,13:04:37.670627,0.00320,1.99142,1.99142,-0.00551,-0.02359,0.03157,-0.00773,-0.02620,-0.05527,0.04124,1.01687,2.84174,1.77816,1.97305,1.96473,-1.62736,3.78009,2.77855,-1.66424,3.85476,2.06169,2.06169,A,130437.50
2.85754,57.68788433,11.98134479,57.68788500,11.98134417,13:04:37.681011,0.00319,1.99142,1.99142,-0.00494,-0.02325,0.03081,-0.00559,-0.03292,-0.03764,0.02434,1.00406,2.85236,1.77816,1.97305,1.96473,-1.62736,3.78009,2.77855,-1.66424,3.85476,2.06169,2.06169,A,130437.50
2.86796,57.68788433,11.98134479,57.68788500,11.98134417,13:04:37.691439,0.00321,1.99142,1.99142,-0.00547,-0.02310,0.04242,-0.00009,-0.02650,-0.05679,-0.05581,0.99058,2.86277,1.77816,1.97305,1.96473,-1.62736,3.78009,2.77855,-1.66424,3.85476,2.06169,2.06169,A,130437.50
2.87815,57.68788433,11.98134479,57.68788500,11.98134417,13:04:37.701623,0.00300,1.99142,1.99142,-0.00553,-0.02308,0.02745,0.00204,-0.02589,-0.03209,-0.01501,0.98796,2.87297,1.77816,1.97305,1.96473,-1.62736,3.78009,2.77855,-1.66424,3.85476,2.06169,2.06169,A,130437.50
2.90649,57.68788433,11.98134479,57.68788650,11.98134333,13:04:37.730209,0.02093,1.99142,1.99142,-0.00533,-0.02308,0.04120,0.01151,-0.01703,0.02348,-0.00726,0.96313,2.88355,1.77816,1.97305,1.96473,-1.62736,3.78009,2.90018,-1.71377,4.02155,1.85946,1.85946,A,130437.60
2.92392,57.68788614,11.98134339,57.68788650,11.98134333,13:04:37.747426,0.00750,1.99142,1.99142,-0.00457,-0.02308,0.03738,0.00006,-0.01841,0.00518,-0.02068,1.00028,2.91572,1.82081,1.95234,1.94549,-1.71042,3.98158,2.90018,-1.71377,4.02155,1.85946,1.85946,A,130437.60
2.93002,57.68788614,11.98134339,57.68788650,11.98134333,13:04:37.753471,0.00302,1.99142,1.99142,-0.00367,-0.02308,0.04074,0.00021,-0.02650,0.01568,0.04453,1.01126,2.92482,1.82081,1.95234,1.94549,-1.71042,3.98158,2.90018,-1.71377,4.02155,1.85946,1.85946,A,130437.60
2.94075,57.68788614,11.98134339,57.68788650,11.98134333,13:04:37.764215,0.00335,1.99142,1.99142,-0.00379,-0.02308,0.03402,-0.01750,-0.02956,0.01464,-0.02220,0.98850,2.93555,1.82081,1.95234,1.94549,-1.71042,3.98158,2.90018,-1.71377,4.02155,1.85946,1.85946,A,130437.60
2.95099,57.68788614,11.98134339,57.68788650,11.98134333,13:04:37.774463,0.00319,1.99142,1.99142,-0.00236,-0.02308,0.03280,-0.02056,-0.03230,-0.03483,0.08412,1.01449,2.94559,1.82081,1.95234,1.94549,-1.71042,3.98158,2.90018,-1.71377,4.02155,1.85946,1.85946,A,130437.60
2.96173,57.68788614,11.98134339,57.68788650,11.98134333,13:04:37.785199,0.00347,1.99142,1.99142,-0.00234,-0.02305,0.03295,-0.02209,-0.03215,-0.09217,-0.01165,1.06225,2.95654,1.82081,1.95234,1.94549,-1.71042,3.98158,2.90018,-1.71377,4.02155,1.85946,1.85946,A,130437.60
2.97200,57.68788614,11.98134339,57.68788650,11.98134333,13:04:37.795462,0.00312,1.99142,1.99142,-0.00135,-0.02299,0.02287,-0.00666,-0.03215,-0.11303,0.06545,1.05475,2.96680,1.82081,1.95234,1.94549,-1.71042,3.98158,2.90018,-1.71377,4.02155,1.85946,1.85946,A,130437.60
2.98217,57.68788614,11.98134339,57.68788650,11.98134333,13:04:37.805636,0.00300,1.99142,1.99142,-0.00184,-0.02282,0.03173,0.00556,-0.02650,-0.00665,-0.04374,1.04774,2.97699,1.82081,1.95234,1.94549,-1.71042,3.98158,2.90018,-1.71377,4.02155,1.85946,1.85946,A,130437.60
2.99275,57.68788614,11.98134339,57.68788650,11.98134333,13:04:37.816209,0.00318,1.99142,1.99142,-0.00136,-0.02251,0.01920,0.00861,-0.02039,0.01982,0.02922,0.98234,2.98755,1.82081,1.95234,1.94549,-1.71042,3.98158,2.90018,-1.71377,4.02155,1.85946,1.85946,A,130437.60
3.02067,57.68788614,11.98134339,57.68788783,11.98134200,13:04:37.844156,0.02071,1.99142,1.99142,-0.00047,-0.02214,0.02974,-0.00101,-0.00940,0.02013,0.04654,0.92275,2.99798,1.82081,1.95234,1.94549,-1.71042,3.98158,3.01480,-1.79302,4.16981,2.06169,2.06169,A,130437.70
3.03545,57.68788782,11.98134215,57.68788783,11.98134200,13:04:37.858930,0.00703,1.99142,1.99142,-0.00022,-0.02121,0.01111,0.01472,-0.01077,-0.12084,0.00720,0.94867,3.02779,1.85493,1.96609,1.95980,-1.78435,4.16848,3.01480,-1.79302,4.16981,2.06169,2.06169,A,130437.70
3.04323,57.68788782,11.98134215,57.68788783,11.98134200,13:04:37.866719,0.00423,1.99142,1.99142,-0.00015,-0.02107,0.00332,0.01334,-0.01367,-0.03074,0.01476,0.95026,3.03765,1.85493,1.96609,1.95980,-1.78435,4.16848,3.01480,-1.79302,4.16981,2.06169,2.06169,A,130437.70
3.05263,57.68788782,11.98134215,57.68788783,11.98134200,13:04:37.876090,0.00323,1.99142,1.99142,0.00046,-0.02104,-0.00141,0.00785,-0.01337,-0.03800,0.06362,1.12734,3.04743,1.85493,1.96609,1.95980,-1.78435,4.16848,3.01480,-1.79302,4.16981,2.06169,2.06169,A,130437.70
3.06299,57.68788782,11.98134215,57.68788783,11.98134200,13:04:37.886470,0.00320,1.99142,1.99142,0.00048,-0.02104,-0.00615,0.00693,-0.01780,0.00549,0.02318,1.13606,3.05758,1.85493,1.96609,1.95980,-1.78435,4.16848,3.01480,-1.79302,4.16981,2.06169,2.06169,A,130437.70
3.07341,57.68788782,11.98134215,57.68788783,11.98134200,13:04:37.896868,0.00321,1.99142,1.99142,0.00082,-0.02104,-0.00141,0.00708,-0.02284,-0.05642,0.04343,1.12277,3.06822,1.85493,1.96609,1.95980,-1.78435,4.16848,3.01480,-1.79302,4.16981,2.06169,2.06169,A,130437.70
3.08377,57.68788782,11.98134215,57.68788783,11.98134200,13:04:37.907233,0.00318,1.99142,1.99142,0.00010,-0.02104,-0.00660,0.00418,-0.02390,-0.00897,-0.02861,0.98088,3.07857,1.85493,1.96609,1.95980,-1.78435,4.16848,3.01480,-1.79302,4.16981,2.06169,2.06169,A,130437.70
3.09415,57.68788782,11.98134215,57.68788783,11.98134200,13:04:37.917615,0.00302,1.99142,1.99142,-0.00078,-0.02104,-0.02065,-0.00666,-0.02818,-0.03178,-0.02867,0.91744,3.08896,1.85493,1.96609,1.95980,-1.78435,4.16848,3.01480,-1.79302,4.16981,2.06169,2.06169,A,130437.70
3.10496,57.68788782,11.98134215,57.68788783,11.98134200,13:04:37.928426,0.00342,1.99142,1.99142,-0.00170,-0.02104,-0.02111,-0.00666,-0.02650,-0.00695,-0.03080,0.89072,3.09977,1.85493,1.96609,1.95980,-1.78435,4.16848,3.01480,-1.79302,4.16981,2.06169,2.06169,A,130437.70
3.11553,57.68788782,11.98134215,57.68788783,11.98134200,13:04:37.939003,0.00359,1.99142,1.99142,-0.00079,-0.02104,-0.02966,-0.01857,-0.02726,-0.10114,0.08534,0.92793,3.10973,1.85493,1.96609,1.95980,-1.78435,4.16848,3.01480,-1.79302,4.16981,2.06169,2.06169,A,130437.70
3.15260,57.68788782,11.98134215,57.68789083,11.98133983,13:04:37.976074,0.03026,1.67199,1.67199,-0.00059,-0.02104,-0.01592,-0.00269,-0.01780,-0.00390,0.04093,1.03737,3.12034,1.85493,1.96609,1.95980,-1.78435,4.16848,3.14786,-1.92180,4.50339,1.93922,1.93922,A,130437.90
3.16507,57.68788984,11.98134060,57.68789083,11.98133983,13:04:37.988544,0.00690,1.67199,1.67199,-0.00116,-0.02104,-0.03119,-0.00865,-0.01566,-0.11023,0.05533,1.02730,3.15758,1.81834,1.95910,1.95286,-1.87644,4.39314,3.14786,-1.92180,4.50339,1.93922,1.93922,A,130437.90
3.17178,57.68788984,11.98134060,57.68789083,11.98133983,13:04:37.995246,0.00320,1.67199,1.67199,-0.00111,-0.02104,-0.02890,0.00479,-0.01657,-0.05264,0.03282,0.94324,3.16658,1.81834,1.95910,1.95286,-1.87644,4.39314,3.14786,-1.92180,4.50339,1.93922,1.93922,A,130437.90
3.18208,57.68788984,11.98134060,57.68789083,11.98133983,13:04:38.005547,0.00311,1.67199,1.67199,-0.00063,-0.02104,-0.03318,0.01396,-0.02375,-0.09065,0.05941,0.86516,3.17688,1.81834,1.95910,1.95286,-1.87644,4.39314,3.14786,-1.92180,4.50339,1.93922,1.93922,A,130437.90
3.19257,57.68788984,11.98134060,57.68789083,11.98133983,13:04:38.016032,0.00320,1.67199,1.67199,-0.00170,-0.02104,-0.02814,0.04206,-0.02543,-0.11175,-0.03117,0.82649,3.18738,1.81834,1.95910,1.95286,-1.87644,4.39314,3.14786,-1.92180,4.50339,1.93922,1.93922,A,130437.90
3.20341,57.68788984,11.98134060,57.68789083,11.98133983,13:04:38.026890,0.00364,1.67199,1.67199,-0.00231,-0.02104,-0.03516,0.04801,-0.03154,-0.01287,-0.00268,0.89371,3.19778,1.81834,1.95910,1.95286,-1.87644,4.39314,3.14786,-1.92180,4.50339,1.93922,1.93922,A,130437.90
3.21350,57.68788984,11.98134060,57.68789083,11.98133983,13:04:38.036960,0.00333,1.67199,1.67199,-0.00270,-0.02104,-0.03562,0.03396,-0.02986,0.04990,0.01196,0.96862,3.20831,1.81834,1.95910,1.95286,-1.87644,4.39314,3.14786,-1.92180,4.50339,1.93922,1.93922,A,130437.90
3.22377,57.68788984,11.98134060,57.68789083,11.98133983,13:04:38.047231,0.00320,1.67199,1.67199,-0.00287,-0.02104,-0.04463,0.00831,-0.02467,-0.07668,0.03550,1.11240,3.21855,1.81834,1.95910,1.95286,-1.87644,4.39314,3.14786,-1.92180,4.50339,1.93922,1.93922,A,130437.90
3.23419,57.68788984,11.98134060,57.68789083,11.98133983,13:04:38.057650,0.00303,1.67199,1.67199,-0.00262,-0.02104,-0.03929,0.00724,-0.02635,0.02873,0.06887,1.19755,3.22900,1.81834,1.95910,1.95286,-1.87644,4.39314,3.14786,-1.92180,4.50339,1.93922,1.93922,A,130437.90
3.24490,57.68788984,11.98134060,57.68789083,11.98133983,13:04:38.068365,0.00320,1.67199,1.67199,-0.00291,-0.02104,-0.03974,-0.00238,-0.03169,0.00134,0.02898,1.25300,3.23971,1.81834,1.95910,1.95286,-1.87644,4.39314,3.14786,-1.92180,4.50339,1.93922,1.93922,A,130437.90
3.27274,57.68788984,11.98134060,57.68789233,11.98133850,13:04:38.096219,0.02065,1.67199,1.67199,-0.00411,-0.02104,-0.03715,-0.00926,-0.03429,0.05679,-0.04801,1.15497,3.24988,1.81834,1.95910,1.95286,-1.87644,4.39314,3.26662,-2.00105,4.67019,2.01436,2.01436,A,130438.00
3.28703,57.68789169,11.98133920,57.68789233,11.98133850,13:04:38.110531,0.00683,1.67199,1.67199,-0.00545,-0.02104,-0.05074,-0.04453,-0.03230,-0.01000,0.01482,0.78373,3.27923,1.78907,1.96478,1.95853,-1.95965,4.59858,3.26662,-2.00105,4.67019,2.01436,2.01436,A,130438.00
3.29379,57.68789169,11.98133920,57.68789233,11.98133850,13:04:38.117252,0.00319,1.67199,1.67199,-0.00464,-0.02104,-0.04280,-0.03949,-0.03551,-0.09034,0.06423,0.72120,3.28860,1.78907,1.96478,1.95853,-1.95965,4.59858,3.26662,-2.00105,4.67019,2.01436,2.01436,A,130438.00
3.30453,57.68789169,11.98133920,57.68789233,11.98133850,13:04:38.127986,0.00352,1.67199,1.67199,-0.00436,-0.02104,-0.03669,-0.03751,-0.03368,-0.11376,0.04563,0.83546,3.29933,1.78907,1.96478,1.95853,-1.95965,4.59858,3.26662,-2.00105,4.67019,2.01436,2.01436,A,130438.00
3.31427,57.68789169,11.98133920,57.68789233,11.98133850,13:04:38.137737,0.00303,1.67199,1.67199,-0.00460,-0.02104,-0.02753,-0.03247,-0.02146,-0.19331,0.01275,0.98570,3.30907,1.78907,1.96478,1.95853,-1.95965,4.59858,3.26662,-2.00105,4.67019,2.01436,2.01436,A,130438.00
3.32499,57.68789169,11.98133920,57.68789233,11.98133850,13:04:38.148451,0.00335,1.67199,1.67199,-0.00454,-0.02104,-0.02447,-0.01246,-0.02192,0.00921,0.03837,1.14637,3.31980,1.78907,1.96478,1.95853,-1.95965,4.59858,3.26662,-2.00105,4.67019,2.01436,2.01436,A,130438.00
3.33524,57.68789169,11.98133920,57.68789233,11.98133850,13:04:38.158714,0.00321,1.67199,1.67199,-0.00549,-0.02104,-0.02264,0.00204,-0.02314,-0.00092,-0.04227,1.15308,3.32983,1.78907,1.96478,1.95853,-1.95965,4.59858,3.26662,-2.00105,4.67019,2.01436,2.01436,A,130438.00
3.34580,57.68789169,11.98133920,57.68789233,11.98133850,13:04:38.169269,0.00337,1.67199,1.67199,-0.00566,-0.02104,-0.01959,0.00968,-0.02085,0.04764,0.01434,1.06872,3.34059,1.78907,1.96478,1.95853,-1.95965,4.59858,3.26662,-2.00105,4.67019,2.01436,2.01436,A,130438.00
3.35612,57.68789169,11.98133920,57.68789233,11.98133850,13:04:38.179577,0.00328,1.67199,1.67199,-0.00540,-0.02104,-0.01302,0.00922,-0.01963,0.00177,0.03758,1.01955,3.35091,1.78907,1.96478,1.95853,-1.95965,4.59858,3.26662,-2.00105,4.67019,2.01436,2.01436,A,130438.00
3.36616,57.68789169,11.98133920,57.68789233,11.98133850,13:04:38.189620,0.00299,1.67199,1.67199,-0.00575,-0.02104,-0.01867,-0.00315,-0.01627,-0.05033,-0.00159,0.86949,3.36096,1.78907,1.96478,1.95853,-1.95965,4.59858,3.26662,-2.00105,4.67019,2.01436,2.01436,A,130438.00
3.39383,57.68789169,11.98133920,57.68789367,11.98133733,13:04:38.217320,0.02027,1.67199,1.67199,-0.00699,-0.02098,-0.02004,-0.00712,-0.01734,-0.04727,-0.04917,0.83039,3.37156,1.78907,1.96478,1.95853,-1.95965,4.59858,3.38825,-2.07040,4.81845,2.00828,2.00828,A,130438.10
3.40996,57.68789349,11.98133780,57.68789367,11.98133733,13:04:38.233458,0.00673,1.67199,1.67199,-0.00740,-0.02073,-0.02203,-0.00300,-0.01551,-0.09004,0.02940,1.16449,3.40119,1.76565,1.96872,1.96256,-2.04237,4.79856,3.38825,-2.07040,4.81845,2.00828,2.00828,A,130438.10
3.41759,57.68789349,11.98133780,57.68789367,11.98133733,13:04:38.241096,0.00410,1.67199,1.67199,-0.00764,-0.02061,-0.01577,0.01365,-0.01627,-0.03947,0.00445,1.11551,3.41166,1.76565,1.96872,1.96256,-2.04237,4.79856,3.38825,-2.07040,4.81845,2.00828,2.00828,A,130438.10
3.42712,57.68789349,11.98133780,57.68789367,11.98133733,13:04:38.250592,0.00323,1.67199,1.67199,-0.00765,-0.02050,-0.02875,0.00937,-0.01459,0.08571,0.02727,1.03450,3.42169,1.76565,1.96872,1.96256,-2.04237,4.79856,3.38825,-2.07040,4.81845,2.00828,2.00828,A,130438.10
3.43765,57.68789349,11.98133780,57.68789367,11.98133733,13:04:38.261122,0.00337,1.67199,1.67199,-0.00850,-0.02033,-0.02646,-0.00712,-0.02039,-0.03080,-0.02995,1.01400,3.43245,1.76565,1.96872,1.96256,-2.04237,4.79856,3.38825,-2.07040,4.81845,2.00828,2.00828,A,130438.10
3.44786,57.68789349,11.98133780,57.68789367,11.98133733,13:04:38.271332,0.00319,1.67199,1.67199,-0.00862,-0.02002,-0.04524,-0.01506,-0.01276,-0.08546,0.02782,0.93922,3.44265,1.76565,1.96872,1.96256,-2.04237,4.79856,3.38825,-2.07040,4.81845,2.00828,2.00828,A,130438.10
3.45817,57.68789349,11.98133780,57.68789367,11.98133733,13:04:38.281632,0.00301,1.67199,1.67199,-0.00799,-0.01954,-0.03638,-0.01689,-0.01627,-0.09071,0.06747,0.90798,3.45298,1.76565,1.96872,1.96256,-2.04237,4.79856,3.38825,-2.07040,4.81845,2.00828,2.00828,A,130438.10
3.46875,57.68789349,11.98133780,57.68789367,11.98133733,13:04:38.292217,0.00319,1.67199,1.67199,-0.00801,-0.01892,-0.03959,-0.00513,-0.01948,-0.02074,0.03282,0.96258,3.46356,1.76565,1.96872,1.96256,-2.04237,4.79856,3.38825,-2.07040,4.81845,2.00828,2.00828,A,130438.10
3.47915,57.68789349,11.98133780,57.68789367,11.98133733,13:04:38.302633,0.00319,1.67199,1.67199,-0.00812,-0.01815,-0.02905,-0.00559,-0.01780,-0.03160,0.02019,0.97362,3.47374,1.76565,1.96872,1.96256,-2.04237,4.79856,3.38825,-2.07040,4.81845,2.00828,2.00828,A,130438.10
3.50592,57.68789349,11.98133780,57.68789500,11.98133650,13:04:38.329401,0.01956,1.67199,1.67199,-0.00901,-0.01736,-0.02478,0.00403,-0.01459,-0.05520,-0.03233,0.97460,3.48437,1.76565,1.96872,1.96256,-2.04237,4.79856,3.50096,-2.11993,4.96671,1.89322,1.89322,A,130438.20
3.52121,57.68789507,11.98133657,57.68789500,11.98133650,13:04:38.344686,0.00683,1.67199,1.67199,-0.00994,-0.01560,-0.03669,0.00999,-0.00955,-0.05795,0.01446,1.04706,3.51252,1.74692,1.95501,1.95038,-2.11563,4.97489,3.50096,-2.11993,4.96671,1.89322,1.89322,A,130438.20
3.52846,57.68789507,11.98133657,57.68789500,11.98133650,13:04:38.351927,0.00367,1.67199,1.67199,-0.01020,-0.01521,-0.02921,-0.00315,-0.00879,-0.02714,0.01104,1.02510,3.52325,1.74692,1.95501,1.95038,-2.11563,4.97489,3.50096,-2.11993,4.96671,1.89322,1.89322,A,130438.20
3.53856,57.68789507,11.98133657,57.68789500,11.98133650,13:04:38.362229,0.00320,1.78210,1.78210,-0.01056,-0.01484,-0.03440,-0.01705,-0.00054,0.02745,0.00573,1.02029,3.53337,1.74692,1.95501,1.95038,-2.11563,4.97489,3.50096,-2.11993,4.96671,1.89322,1.89322,A,130438.20
3.54895,57.68789507,11.98133657,57.68789500,11.98133650,13:04:38.372407,0.00319,1.78210,1.78210,-0.01071,-0.01456,-0.02936,-0.02697,-0.00436,-0.00226,0.01696,1.03596,3.54377,1.74692,1.95501,1.95038,-2.11563,4.97489,3.50096,-2.11993,4.96671,1.89322,1.89322,A,130438.20
3.55937,57.68789507,11.98133657,57.68789500,11.98133650,13:04:38.382832,0.00321,1.78210,1.78210,-0.01017,-0.01425,-0.02218,-0.01827,-0.00298,0.00305,0.05777,1.00699,3.55396,1.74692,1.95501,1.95038,-2.11563,4.97489,3.50096,-2.11993,4.96671,1.89322,1.89322,A,130438.20
3.56990,57.68789507,11.98133657,57.68789500,11.98133650,13:04:38.393363,0.00335,1.78210,1.78210,-0.01057,-0.01382,-0.02142,-0.00880,-0.00848,-0.11041,-0.00451,0.95502,3.56471,1.74692,1.95501,1.95038,-2.11563,4.97489,3.50096,-2.11993,4.96671,1.89322,1.89322,A,130438.20
3.58014,57.68789507,11.98133657,57.68789500,11.98133650,13:04:38.403601,0.00319,1.78210,1.78210,-0.01127,-0.01314,-0.01729,0.01396,-0.00573,-0.08418,-0.02605,0.91964,3.57494,1.74692,1.95501,1.95038,-2.11563,4.97489,3.50096,-2.11993,4.96671,1.89322,1.89322,A,130438.20
3.59021,57.68789507,11.98133657,57.68789500,11.98133650,13:04:38.413678,0.00303,1.78210,1.78210,-0.01185,-0.01210,-0.02081,0.00968,-0.00268,-0.05697,-0.01696,0.91091,3.58502,1.74692,1.95501,1.95038,-2.11563,4.97489,3.50096,-2.11993,4.96671,1.89322,1.89322,A,130438.20
3.60078,57.68789507,11.98133657,57.68789500,11.98133650,13:04:38.424244,0.00319,1.78210,1.78210,-0.01196,-0.01077,-0.01348,0.00831,0.00175,-0.02898,0.00775,0.94904,3.59560,1.74692,1.95501,1.95038,-2.11563,4.97489,3.50096,-2.11993,4.96671,1.89322,1.89322,A,130438.20
3.62803,57.68789507,11.98133657,57.68789650,11.98133533,13:04:38.451514,0.02004,1.78210,1.78210,-0.01246,-0.00938,-0.01195,0.00220,0.00969,0.00146,-0.01934,1.02724,3.60580,1.74692,1.95501,1.95038,-2.11563,4.97489,3.62244,-2.18927,5.13350,1.96480,1.96480,A,130438.30
3.64398,57.68789681,11.98133527,57.68789650,11.98133533,13:04:38.467489,0.00748,1.78210,1.78210,-0.01238,-0.00626,-0.00599,-0.01475,0.01122,-0.01714,0.02416,1.01748,3.63589,1.75396,1.95422,1.95236,-2.19315,5.16792,3.62244,-2.18927,5.13350,1.96480,1.96480,A,130438.30
3.65006,57.68789681,11.98133527,57.68789650,11.98133533,13:04:38.473519,0.00302,1.78210,1.78210,-0.01280,-0.00573,-0.00187,-0.02178,0.01153,-0.01183,-0.01976,1.00278,3.64488,1.75396,1.95422,1.95236,-2.19315,5.16792,3.62244,-2.18927,5.13350,1.96480,1.96480,A,130438.30
3.66065,57.68789681,11.98133527,57.68789650,11.98133533,13:04:38.484111,0.00321,1.78210,1.78210,-0.01273,-0.00544,-0.01256,-0.01323,0.00267,-0.13768,0.02056,1.02809,3.65546,1.75396,1.95422,1.95236,-2.19315,5.16792,3.62244,-2.18927,5.13350,1.96480,1.96480,A,130438.30
3.67105,57.68789681,11.98133527,57.68789650,11.98133533,13:04:38.494527,0.00321,1.78210,1.78210,-0.01287,-0.00539,-0.00492,0.00724,-0.00084,-0.02233,0.00110,1.00851,3.66564,1.75396,1.95422,1.95236,-2.19315,5.16792,3.62244,-2.18927,5.13350,1.96480,1.96480,A,130438.30
3.68159,57.68789681,11.98133527,57.68789650,11.98133533,13:04:38.505053,0.00336,1.78210,1.78210,-0.01335,-0.00539,-0.00722,-0.00055,-0.00176,-0.02940,-0.01952,0.95453,3.67640,1.75396,1.95422,1.95236,-2.19315,5.16792,3.62244,-2.18927,5.13350,1.96480,1.96480,A,130438.30
3.69181,57.68789681,11.98133527,57.68789650,11.98133533,13:04:38.515282,0.00317,1.78210,1.78210,-0.01294,-0.00539,0.00088,-0.00284,0.00343,0.01580,0.03068,0.94208,3.68662,1.75396,1.95422,1.95236,-2.19315,5.16792,3.62244,-2.18927,5.13350,1.96480,1.96480,A,130438.30
3.70216,57.68789681,11.98133527,57.68789650,11.98133533,13:04:38.525625,0.00301,1.78210,1.78210,-0.01279,-0.00539,-0.00554,-0.00070,0.00450,0.00677,0.01879,0.92891,3.69698,1.75396,1.95422,1.95236,-2.19315,5.16792,3.62244,-2.18927,5.13350,1.96480,1.96480,A,130438.30
3.71274,57.68789681,11.98133527,57.68789650,11.98133533,13:04:38.536197,0.00318,1.78210,1.78210,-0.01272,-0.00539,-0.00202,-0.00040,0.00435,-0.11791,0.01342,1.00998,3.70755,1.75396,1.95422,1.95236,-2.19315,5.16792,3.62244,-2.18927,5.13350,1.96480,1.96480,A,130438.30
3.74075,57.68789681,11.98133527,57.68789800,11.98133383,13:04:38.564247,0.02079,1.78210,1.78210,-0.01362,-0.00539,0.00042,0.01487,-0.00084,-0.11816,-0.05594,1.04530,3.71774,1.75396,1.95422,1.95236,-2.19315,5.16792,3.73482,-2.27843,5.30029,2.06169,2.06169,A,130438.40
3.75576,57.68789841,11.98133404,57.68789800,11.98133383,13:04:38.579230,0.00571,1.78210,1.78210,-0.01393,-0.00539,0.00073,-0.01231,-0.00665,-0.02409,-0.01684,1.05512,3.74826,1.75959,1.96963,1.96803,-2.26601,5.34550,3.73482,-2.27843,5.30029,2.06169,2.06169,A,130438.40
3.76388,57.68789841,11.98133404,57.68789800,11.98133383,13:04:38.587350,0.00333,1.78210,1.78210,-0.01370,-0.00539,0.00867,-0.01216,-0.00986,-0.09626,0.01629,1.08610,3.75865,1.75959,1.96963,1.96803,-2.26601,5.34550,3.73482,-2.27843,5.30029,2.06169,2.06169,A,130438.40
3.77411,57.68789841,11.98133404,57.68789800,11.98133383,13:04:38.597573,0.00302,1.78210,1.78210,-0.01320,-0.00539,0.01310,0.01090,-0.00237,-0.22875,0.03831,1.24330,3.76893,1.75959,1.96963,1.96803,-2.26601,5.34550,3.73482,-2.27843,5.30029,2.06169,2.06169,A,130438.40
3.78469,57.68789841,11.98133404,57.68789800,11.98133383,13:04:38.608155,0.00320,1.78210,1.78210,-0.01338,-0.00539,0.01493,0.06206,-0.00909,-0.05533,-0.01745,1.07726,3.77950,1.75959,1.96963,1.96803,-2.26601,5.34550,3.73482,-2.27843,5.30029,2.06169,2.06169,A,130438.40
3.79523,57.68789841,11.98133404,57.68789800,11.98133383,13:04:38.618712,0.00334,1.78210,1.78210,-0.01410,-0.00539,0.01600,0.05702,-0.00084,0.15933,-0.04551,0.85937,3.78967,1.75959,1.96963,1.96803,-2.26601,5.34550,3.73482,-2.27843,5.30029,2.06169,2.06169,A,130438.40
3.80621,57.68789841,11.98133404,57.68789800,11.98133383,13:04:38.629676,0.00393,1.78210,1.78210,-0.01460,-0.00539,0.01966,0.01487,0.00542,0.25254,-0.02739,0.62854,3.80102,1.75959,1.96963,1.96803,-2.26601,5.34550,3.73482,-2.27843,5.30029,2.06169,2.06169,A,130438.40
3.81588,57.68789841,11.98133404,57.68789800,11.98133383,13:04:38.639341,0.00320,1.78210,1.78210,-0.01530,-0.00536,0.00714,-0.03812,0.01473,0.05893,-0.02672,0.56791,3.81067,1.75959,1.96963,1.96803,-2.26601,5.34550,3.73482,-2.27843,5.30029,2.06169,2.06169,A,130438.40
3.82618,57.68789841,11.98133404,57.68789800,11.98133383,13:04:38.649635,0.00302,1.78210,1.78210,-0.01247,-0.00536,0.01859,-0.05645,0.02619,-0.05484,0.14176,0.77879,3.82099,1.75959,1.96963,1.96803,-2.26601,5.34550,3.73482,-2.27843,5.30029,2.06169,2.06169,A,130438.40
3.86516,57.68789841,11.98133404,57.68790117,11.98133217,13:04:38.688699,0.03160,1.78210,1.78210,-0.01102,-0.00536,0.02669,-0.04102,0.01977,-0.52728,0.10266,1.19944,3.83171,1.75959,1.96963,1.96803,-2.26601,5.34550,3.85918,-2.37749,5.65241,1.84504,1.84504,A,130438.60
3.88131,57.68790025,11.98133261,57.68790117,11.98133217,13:04:38.704785,0.00807,1.78210,1.78210,-0.00965,-0.00496,0.02226,-0.02942,0.00114,0.04703,0.04221,1.07494,3.87322,1.76409,1.95026,1.94879,-2.35101,5.55017,3.85918,-2.37749,5.65241,1.84504,1.84504,A,130438.60
3.88661,57.68790025,11.98133261,57.68790117,11.98133217,13:04:38.710354,0.00297,1.78210,1.78210,-0.01128,-0.00454,0.01584,-0.04499,-0.00252,-0.17397,-0.11029,1.02437,3.88143,1.76409,1.95026,1.94879,-2.35101,5.55017,3.85918,-2.37749,5.65241,1.84504,1.84504,A,130438.60
3.89726,57.68790025,11.98133261,57.68790117,11.98133217,13:04:38.720724,0.00322,1.78210,1.78210,-0.01102,-0.00383,0.02806,-0.01506,0.00419,-0.37582,0.00683,1.02132,3.89207,1.76409,1.95026,1.94879,-2.35101,5.55017,3.85918,-2.37749,5.65241,1.84504,1.84504,A,130438.60
3.90796,57.68790025,11.98133261,57.68790117,11.98133217,13:04:38.731429,0.00370,1.78210,1.78210,-0.01038,-0.00307,0.03051,0.01426,-0.00451,-0.11743,0.02843,0.93842,3.90275,1.76409,1.95026,1.94879,-2.35101,5.55017,3.85918,-2.37749,5.65241,1.84504,1.84504,A,130438.60
3.91800,57.68790025,11.98133261,57.68790117,11.98133217,13:04:38.741470,0.00335,1.93202,1.93202,-0.00874,-0.00227,0.02654,0.02571,0.00725,0.11810,0.08351,0.82179,3.91281,1.76409,1.95026,1.94879,-2.35101,5.55017,3.85918,-2.37749,5.65241,1.84504,1.84504,A,130438.60
3.92828,57.68790025,11.98133261,57.68790117,11.98133217,13:04:38.751742,0.00322,1.93202,1.93202,-0.00733,-0.00165,0.03280,-0.00223,0.01397,0.13841,0.07174,0.85705,3.92309,1.76409,1.95026,1.94879,-2.35101,5.55017,3.85918,-2.37749,5.65241,1.84504,1.84504,A,130438.60
3.93833,57.68790025,11.98133261,57.68790117,11.98133217,13:04:38.761800,0.00305,1.93202,1.93202,-0.00672,-0.00117,0.04410,-0.02010,0.00908,-0.12322,0.02714,1.06286,3.93314,1.76409,1.95026,1.94879,-2.35101,5.55017,3.85918,-2.37749,5.65241,1.84504,1.84504,A,130438.60
3.94898,57.68790025,11.98133261,57.68790117,11.98133217,13:04:38.772437,0.00330,1.93202,1.93202,-0.00740,-0.00080,0.04654,0.02480,0.01336,-0.33581,-0.07198,1.11935,3.94378,1.76409,1.95026,1.94879,-2.35101,5.55017,3.85918,-2.37749,5.65241,1.84504,1.84504,A,130438.60
3.95943,57.68790025,11.98133261,57.68790117,11.98133217,13:04:38.782900,0.00335,1.93202,1.93202,-0.00770,-0.00060,0.03860,0.07764,0.01687,-0.26681,-0.03904,1.21567,3.95387,1.76409,1.95026,1.94879,-2.35101,5.55017,3.85918,-2.37749,5.65241,1.84504,1.84504,A,130438.60
3.98719,57.68790025,11.98133261,57.68790267,11.98133083,13:04:38.810675,0.02071,1.93202,1.93202,-0.00769,-0.00055,0.02577,0.08711,0.01321,0.14481,-0.00403,1.01242,3.96448,1.76409,1.95026,1.94879,-2.35101,5.55017,3.98118,-2.45674,5.81920,2.01436,2.01436,A,130438.70
4.00162,57.68790203,11.98133129,57.68790267,11.98133083,13:04:38.825087,0.00726,1.93202,1.93202,-0.00530,-0.00055,0.02012,-0.12639,0.01061,-0.12194,0.11407,0.85125,3.99444,1.79767,1.95910,1.95893,-2.42960,5.74822,3.98118,-2.45674,5.81920,2.01436,2.01436,A,130438.70
4.00784,57.68790203,11.98133129,57.68790267,11.98133083,13:04:38.831309,0.00330,1.93202,1.93202,-0.00363,-0.00055,0.03616,-0.11860,0.00878,-0.38332,0.10181,0.94568,4.00262,1.79767,1.95910,1.95893,-2.42960,5.74822,3.98118,-2.45674,5.81920,2.01436,2.01436,A,130438.70
4.01809,57.68790203,11.98133129,57.68790267,11.98133083,13:04:38.841554,0.00301,1.93202,1.93202,-0.00413,-0.00055,0.03325,-0.03568,-0.00359,-0.40986,-0.04301,1.11221,4.01290,1.79767,1.95910,1.95893,-2.42960,5.74822,3.98118,-2.45674,5.81920,2.01436,2.01436,A,130438.70
4.02867,57.68790203,11.98133129,57.68790267,11.98133083,13:04:38.852133,0.00319,1.93202,1.93202,-0.00484,-0.00055,0.02241,0.05473,-0.01642,-0.19727,-0.05453,1.19023,4.02348,1.79767,1.95910,1.95893,-2.42960,5.74822,3.98118,-2.45674,5.81920,2.01436,2.01436,A,130438.70
4.03922,57.68790203,11.98133129,57.68790267,11.98133083,13:04:38.862700,0.00334,1.93202,1.93202,-0.00576,-0.00055,0.02104,0.09994,-0.01169,0.20441,-0.05618,0.94318,4.03367,1.79767,1.95910,1.95893,-2.42960,5.74822,3.98118,-2.45674,5.81920,2.01436,2.01436,A,130438.70
4.04954,57.68790203,11.98133129,57.68790267,11.98133083,13:04:38.873008,0.00326,1.93202,1.93202,-0.00498,-0.00055,0.01814,0.04771,0.00236,0.25260,0.05136,0.94099,4.04435,1.79767,1.95910,1.95893,-2.42960,5.74822,3.98118,-2.45674,5.81920,2.01436,2.01436,A,130438.70
4.05986,57.68790203,11.98133129,57.68790267,11.98133083,13:04:38.883320,0.00318,1.93202,1.93202,-0.00384,-0.00055,0.03142,-0.00468,0.00740,0.02836,0.06576,0.92921,4.05465,1.79767,1.95910,1.95893,-2.42960,5.74822,3.98118,-2.45674,5.81920,2.01436,2.01436,A,130438.70
4.07015,57.68790203,11.98133129,57.68790267,11.98133083,13:04:38.893602,0.00298,1.93202,1.93202,-0.00383,-0.00055,0.03020,-0.03369,0.02252,-0.20148,-0.00335,1.06116,4.06495,1.79767,1.95910,1.95893,-2.42960,5.74822,3.98118,-2.45674,5.81920,2.01436,2.01436,A,130438.70
4.08081,57.68790203,11.98133129,57.68790267,11.98133083,13:04:38.904268,0.00325,1.93202,1.93202,-0.00346,-0.00055,0.03127,-0.00544,0.01550,-0.07643,0.02190,1.08202,4.07562,1.79767,1.95910,1.95893,-2.42960,5.74822,3.98118,-2.45674,5.81920,2.01436,2.01436,A,130438.70
4.10744,57.68790203,11.98133129,57.68790417,11.98132983,13:04:38.930921,0.01948,1.93202,1.93202,-0.00370,-0.00055,0.01768,-0.02132,0.01382,-0.13884,-0.01104,1.06701,4.08576,1.79767,1.95910,1.95893,-2.42960,5.74822,4.10238,-2.51618,5.98599,1.91312,1.91312,A,130438.80
4.12202,57.68790382,11.98132993,57.68790417,11.98132983,13:04:38.945489,0.00525,1.93202,1.93202,-0.00208,-0.00055,0.00836,-0.05110,-0.00863,-0.01574,0.10815,0.99174,4.11484,1.82454,1.95213,1.95197,-2.51058,5.94759,4.10238,-2.51618,5.98599,1.91312,1.91312,A,130438.80
4.13032,57.68790382,11.98132993,57.68790417,11.98132983,13:04:38.953782,0.00308,1.93202,1.93202,-0.00221,-0.00055,0.02989,-0.01537,-0.00848,-0.16031,-0.00885,0.87883,4.12512,1.82454,1.95213,1.95197,-2.51058,5.94759,4.10238,-2.51618,5.98599,1.91312,1.91312,A,130438.80
4.14082,57.68790382,11.98132993,57.68790417,11.98132983,13:04:38.964287,0.00318,1.93202,1.93202,-0.00136,-0.00055,0.01310,0.00525,-0.00665,-0.30378,0.06252,0.93635,4.13564,1.82454,1.95213,1.95197,-2.51058,5.94759,4.10238,-2.51618,5.98599,1.91312,1.91312,A,130438.80
4.15125,57.68790382,11.98132993,57.68790417,11.98132983,13:04:38.974718,0.00321,1.93202,1.93202,-0.00403,-0.00055,0.02348,0.04816,-0.00069,-0.08119,-0.14902,0.84552,4.14583,1.82454,1.95213,1.95197,-2.51058,5.94759,4.10238,-2.51618,5.98599,1.91312,1.91312,A,130438.80
4.16166,57.68790382,11.98132993,57.68790417,11.98132983,13:04:38.985122,0.00322,1.93202,1.93202,-0.00429,-0.00055,0.00867,0.02816,0.00389,0.18154,-0.00555,0.84015,4.15646,1.82454,1.95213,1.95197,-2.51058,5.94759,4.10238,-2.51618,5.98599,1.91312,1.91312,A,130438.80
4.17200,57.68790382,11.98132993,57.68790417,11.98132983,13:04:38.995463,0.00315,1.93202,1.93202,-0.00361,-0.00055,0.01417,-0.00345,0.01122,0.08528,0.05459,1.04536,4.16680,1.82454,1.95213,1.95197,-2.51058,5.94759,4.10238,-2.51618,5.98599,1.91312,1.91312,A,130438.80
4.18213,57.68790382,11.98132993,57.68790417,11.98132983,13:04:39.005597,0.00307,1.93202,1.93202,-0.00393,-0.00055,0.01920,-0.02942,0.01947,-0.06911,-0.01982,1.17754,4.17693,1.82454,1.95213,1.95197,-2.51058,5.94759,4.10238,-2.51618,5.98599,1.91312,1.91312,A,130438.80
4.19265,57.68790382,11.98132993,57.68790417,11.98132983,13:04:39.016122,0.00320,1.93202,1.93202,-0.00398,-0.00055,0.02058,-0.00330,0.01473,-0.16592,-0.00061,1.27661,4.18746,1.82454,1.95213,1.95197,-2.51058,5.94759,4.10238,-2.51618,5.98599,1.91312,1.91312,A,130438.80
4.22066,57.68790382,11.98132993,57.68790550,11.98132850,13:04:39.044145,0.02081,1.93202,1.93202,-0.00461,-0.00055,0.01829,0.02816,0.00145,-0.09144,-0.04270,1.15595,4.19764,1.82454,1.95213,1.95197,-2.51058,5.94759,4.21475,-2.59542,6.13425,2.06169,2.06169,A,130438.90
4.23723,57.68790552,11.98132865,57.68790550,11.98132850,13:04:39.060712,0.00726,1.93202,1.93202,-0.00443,-0.00055,-0.01210,-0.05354,-0.00283,0.04380,0.04166,0.79568,4.22823,1.84604,1.96850,1.96834,-2.58677,6.13643,4.21475,-2.59542,6.13425,2.06169,2.06169,A,130438.90
4.24374,57.68790552,11.98132865,57.68790550,11.98132850,13:04:39.067209,0.00337,1.93202,1.93202,-0.00397,-0.00055,-0.00248,-0.06042,-0.00008,-0.06856,0.03739,0.76396,4.23853,1.84604,1.96850,1.96834,-2.58677,6.13643,4.21475,-2.59542,6.13425,2.06169,2.06169,A,130438.90
4.25382,57.68790552,11.98132865,57.68790550,11.98132850,13:04:39.077292,0.00322,1.93202,1.93202,-0.00325,-0.00055,0.00271,-0.04392,0.00084,-0.25687,0.05771,0.91408,4.24863,1.84604,1.96850,1.96834,-2.58677,6.13643,4.21475,-2.59542,6.13425,2.06169,2.06169,A,130438.90
4.26422,57.68790552,11.98132865,57.68790550,11.98132850,13:04:39.087693,0.00321,1.93202,1.93202,-0.00277,-0.00055,0.01600,0.01289,0.00649,-0.28749,0.04063,1.06128,4.25903,1.84604,1.96850,1.96834,-2.58677,6.13643,4.21475,-2.59542,6.13425,2.06169,2.06169,A,130438.90
4.27428,57.68790552,11.98132865,57.68790550,11.98132850,13:04:39.097745,0.00304,1.93202,1.93202,-0.00314,-0.00055,0.01340,0.06053,0.01809,-0.00897,-0.01623,1.05152,4.26910,1.84604,1.96850,1.96834,-2.58677,6.13643,4.21475,-2.59542,6.13425,2.06169,2.06169,A,130438.90
4.28498,57.68790552,11.98132865,57.68790550,11.98132850,13:04:39.108452,0.00334,1.93202,1.93202,-0.00307,-0.00055,0.00638,0.06023,0.02619,0.09870,0.01964,1.06787,4.27979,1.84604,1.96850,1.96834,-2.58677,6.13643,4.21475,-2.59542,6.13425,2.06169,2.06169,A,130438.90
4.29524,57.68790552,11.98132865,57.68790550,11.98132850,13:04:39.118719,0.00320,1.93202,1.93202,-0.00324,-0.00055,0.00775,0.02969,0.02374,0.11993,0.00110,1.10617,4.28984,1.84604,1.96850,1.96834,-2.58677,6.13643,4.21475,-2.59542,6.13425,2.06169,2.06169,A,130438.90
4.30586,57.68790552,11.98132865,57.68790550,11.98132850,13:04:39.129334,0.00342,1.93202,1.93202,-0.00245,-0.00055,0.00057,-0.01338,0.02756,0.02166,0.07857,1.12283,4.30066,1.84604,1.96850,1.96834,-2.58677,6.13643,4.21475,-2.59542,6.13425,2.06169,2.06169,A,130438.90
4.33226,57.68790552,11.98132865,57.68790700,11.98132717,13:04:39.155745,0.01941,1.93202,1.93202,-0.00253,-0.00055,0.01126,-0.03384,0.02405,-0.03276,0.00653,1.08226,4.31087,1.84604,1.96850,1.96834,-2.58677,6.13643,4.32785,-2.67467,6.30105,2.01436,2.01436,A,130439.00
4.34354,57.68790711,11.98132738,57.68790700,11.98132717,13:04:39.167190,0.00561,1.93202,1.93202,-0.00383,-0.00055,-0.00111,-0.03476,0.00923,-0.03209,-0.06191,0.92116,4.33610,1.86324,1.97532,1.97516,-2.66196,6.31326,4.32785,-2.67467,6.30105,2.01436,2.01436,A,130439.00
4.35161,57.68790711,11.98132738,57.68790700,11.98132717,13:04:39.175083,0.00328,1.93202,1.93202,-0.00467,-0.00055,-0.01607,-0.02407,0.00022,0.00275,-0.02458,0.88663,4.34640,1.86324,1.97532,1.97516,-2.66196,6.31326,4.32785,-2.67467,6.30105,2.01436,2.01436,A,130439.00
4.36191,57.68790711,11.98132738,57.68790700,11.98132717,13:04:39.185386,0.00300,1.64279,1.64279,-0.00426,-0.00043,-0.00676,-0.00300,0.00419,-0.13322,0.04429,0.92397,4.35672,1.86324,1.97532,1.97516,-2.66196,6.31326,4.32785,-2.67467,6.30105,2.01436,2.01436,A,130439.00
4.37250,57.68790711,11.98132738,57.68790700,11.98132717,13:04:39.195963,0.00319,1.64279,1.64279,-0.00395,-0.00018,-0.01424,0.02052,0.00710,-0.14488,0.04624,0.96972,4.36731,1.86324,1.97532,1.97516,-2.66196,6.31326,4.32785,-2.67467,6.30105,2.01436,2.01436,A,130439.00
4.38257,57.68790711,11.98132738,57.68790700,11.98132717,13:04:39.206237,0.00303,1.64279,1.64279,-0.00333,0.00027,-0.02020,0.03946,0.01137,-0.15409,0.07192,1.00375,4.37738,1.86324,1.97532,1.97516,-2.66196,6.31326,4.32785,-2.67467,6.30105,2.01436,2.01436,A,130439.00
4.39322,57.68790711,11.98132738,57.68790700,11.98132717,13:04:39.216684,0.00328,1.64279,1.64279,-0.00367,0.00087,-0.03196,0.04480,0.01534,0.05215,0.01848,1.05987,4.38802,1.86324,1.97532,1.97516,-2.66196,6.31326,4.32785,-2.67467,6.30105,2.01436,2.01436,A,130439.00
4.40363,57.68790711,11.98132738,57.68790700,11.98132717,13:04:39.227106,0.00324,1.64279,1.64279,-0.00343,0.00135,-0.02462,0.02327,0.01763,0.04020,0.06039,1.18334,4.39842,1.86324,1.97532,1.97516,-2.66196,6.31326,4.32785,-2.67467,6.30105,2.01436,2.01436,A,130439.00
4.41401,57.68790711,11.98132738,57.68790700,11.98132717,13:04:39.237467,0.00303,1.64279,1.64279,-0.00351,0.00169,-0.02615,0.00571,0.01458,0.09992,0.03471,1.14674,4.40882,1.86324,1.97532,1.97516,-2.66196,6.31326,4.32785,-2.67467,6.30105,2.01436,2.01436,A,130439.00
4.42457,57.68790711,11.98132738,57.68790700,11.98132717,13:04:39.248040,0.00319,1.64279,1.64279,-0.00341,0.00183,-0.04249,-0.02239,0.01030,0.02586,0.05612,1.04444,4.41939,1.86324,1.97532,1.97516,-2.66196,6.31326,4.32785,-2.67467,6.30105,2.01436,2.01436,A,130439.00
4.46092,57.68790711,11.98132738,57.68790983,11.98132500,13:04:39.284402,0.02915,1.64279,1.64279,-0.00277,0.00183,-0.03547,-0.02987,0.00435,-0.03312,0.08015,0.94703,4.42956,1.86324,1.97532,1.97516,-2.66196,6.31326,4.45716,-2.80346,6.61610,1.95883,1.95883,A,130439.20
4.47235,57.68790910,11.98132578,57.68790983,11.98132500,13:04:39.295827,0.00566,1.64279,1.64279,-0.00465,0.00186,-0.03119,0.00388,0.01580,0.00836,-0.03135,0.92049,4.46487,1.81915,1.97267,1.97322,-2.75726,6.53457,4.45716,-2.80346,6.61610,1.95883,1.95883,A,130439.20
4.48030,57.68790910,11.98132578,57.68790983,11.98132500,13:04:39.303762,0.00321,1.64279,1.64279,-0.00530,0.00189,-0.03394,0.00907,0.01534,0.02135,-0.00378,1.00455,4.47511,1.81915,1.97267,1.97322,-2.75726,6.53457,4.45716,-2.80346,6.61610,1.95883,1.95883,A,130439.20
4.49035,57.68790910,11.98132578,57.68790983,11.98132500,13:04:39.313819,0.00303,1.64279,1.64279,-0.00641,0.00197,-0.03333,0.00479,0.02069,-0.01196,-0.03678,1.03700,4.48514,1.81915,1.97267,1.97322,-2.75726,6.53457,4.45716,-2.80346,6.61610,1.95883,1.95883,A,130439.20
4.50089,57.68790910,11.98132578,57.68790983,11.98132500,13:04:39.324354,0.00318,1.64279,1.64279,-0.00701,0.00214,-0.03287,-0.00086,0.02176,-0.07009,-0.00250,1.11545,4.49571,1.81915,1.97267,1.97322,-2.75726,6.53457,4.45716,-2.80346,6.61610,1.95883,1.95883,A,130439.20
4.51177,57.68790910,11.98132578,57.68790983,11.98132500,13:04:39.335974,0.00365,1.64279,1.64279,-0.00822,0.00248,-0.02539,0.00128,0.01748,0.01415,-0.05240,1.05719,4.50591,1.81915,1.97267,1.97322,-2.75726,6.53457,4.45716,-2.80346,6.61610,1.95883,1.95883,A,130439.20
4.52254,57.68790910,11.98132578,57.68790983,11.98132500,13:04:39.346232,0.00402,1.64279,1.64279,-0.00785,0.00305,-0.03516,-0.02285,0.01458,0.03294,0.06667,1.03358,4.51729,1.81915,1.97267,1.97322,-2.75726,6.53457,4.45716,-2.80346,6.61610,1.95883,1.95883,A,130439.20
4.53200,57.68790910,11.98132578,57.68790983,11.98132500,13:04:39.355469,0.00309,1.64279,1.64279,-0.00734,0.00375,-0.02860,-0.02682,0.01412,0.08003,0.06496,0.98106,4.52680,1.81915,1.97267,1.97322,-2.75726,6.53457,4.45716,-2.80346,6.61610,1.95883,1.95883,A,130439.20
4.54233,57.68790910,11.98132578,57.68790983,11.98132500,13:04:39.365800,0.00317,1.64279,1.64279,-0.00720,0.00463,-0.02386,-0.04789,0.01580,-0.06173,0.04087,1.01370,4.53714,1.81915,1.97267,1.97322,-2.75726,6.53457,4.45716,-2.80346,6.61610,1.95883,1.95883,A,130439.20
4.55277,57.68790910,11.98132578,57.68790983,11.98132500,13:04:39.376236,0.00321,1.64279,1.64279,-0.00677,0.00562,-0.02050,-0.02285,0.01763,-0.14902,0.05685,0.98051,4.54758,1.81915,1.97267,1.97322,-2.75726,6.53457,4.45716,-2.80346,6.61610,1.95883,1.95883,A,130439.20
4.58088,57.68790910,11.98132578,57.68791133,11.98132417,13:04:39.404941,0.02091,1.64279,1.64279,-0.00771,0.00656,-0.01363,-0.01140,0.01473,-0.10693,-0.03428,0.90768,4.55775,1.81915,1.97267,1.97322,-2.75726,6.53457,4.57441,-2.85299,6.78289,1.85946,1.85946,A,130439.30
4.59777,57.68791095,11.98132431,57.68791133,11.98132417,13:04:39.421249,0.00806,1.64279,1.64279,-0.00812,0.00851,-0.01959,-0.02254,0.02725,-0.04886,0.02647,0.94013,4.58873,1.78387,1.95563,1.95815,-2.84445,6.74057,4.57441,-2.85299,6.78289,1.85946,1.85946,A,130439.30
4.60333,57.68791095,11.98132431,57.68791133,11.98132417,13:04:39.426798,0.00321,1.64279,1.64279,-0.00864,0.00874,-0.00660,-0.01170,0.02435,-0.13560,-0.01677,1.06591,4.59791,1.78387,1.95563,1.95815,-2.84445,6.74057,4.57441,-2.85299,6.78289,1.85946,1.85946,A,130439.30
4.61371,57.68791095,11.98132431,57.68791133,11.98132417,13:04:39.437174,0.00319,1.64279,1.64279,-0.00898,0.00876,-0.01393,0.00861,0.02527,-0.07619,0.00122,1.14875,4.60852,1.78387,1.95563,1.95815,-2.84445,6.74057,4.57441,-2.85299,6.78289,1.85946,1.85946,A,130439.30
4.62399,57.68791095,11.98132431,57.68791133,11.98132417,13:04:39.447461,0.00308,1.64279,1.64279,-0.00882,0.00876,-0.00737,0.02953,0.02588,-0.07436,0.03392,1.14948,4.61880,1.78387,1.95563,1.95815,-2.84445,6.74057,4.57441,-2.85299,6.78289,1.85946,1.85946,A,130439.30
4.63438,57.68791095,11.98132431,57.68791133,11.98132417,13:04:39.457847,0.00305,1.64279,1.64279,-0.00907,0.00876,-0.01256,0.01594,0.02527,0.14799,0.00616,1.01272,4.62917,1.78387,1.95563,1.95815,-2.84445,6.74057,4.57441,-2.85299,6.78289,1.85946,1.85946,A,130439.30
4.64505,57.68791095,11.98132431,57.68791133,11.98132417,13:04:39.468521,0.00333,1.64279,1.64279,-0.00899,0.00876,-0.00813,-0.01231,0.02160,0.07009,0.02477,0.97527,4.63972,1.78387,1.95563,1.95815,-2.84445,6.74057,4.57441,-2.85299,6.78289,1.85946,1.85946,A,130439.30
4.65533,57.68791095,11.98132431,57.68791133,11.98132417,13:04:39.478802,0.00320,1.64279,1.64279,-0.00952,0.00876,-0.00767,-0.03369,0.02313,-0.08174,-0.01610,1.00400,4.64992,1.78387,1.95563,1.95815,-2.84445,6.74057,4.57441,-2.85299,6.78289,1.85946,1.85946,A,130439.30
4.66570,57.68791095,11.98132431,57.68791133,11.98132417,13:04:39.489170,0.00318,1.64279,1.64279,-0.00892,0.00876,-0.00767,-0.02254,0.01473,-0.16507,0.06094,1.03706,4.66052,1.78387,1.95563,1.95815,-2.84445,6.74057,4.57441,-2.85299,6.78289,1.85946,1.85946,A,130439.30
4.69217,57.68791095,11.98132431,57.68791267,11.98132317,13:04:39.515654,0.01925,1.64279,1.64279,-0.00908,0.00876,0.00485,0.01136,0.01519,-0.03562,0.00055,0.98021,4.67081,1.78387,1.95563,1.95815,-2.84445,6.74057,4.68740,-2.91242,6.93115,1.95208,1.95208,A,130439.40
4.71238,57.68791262,11.98132305,57.68791267,11.98132317,13:04:39.535862,0.00762,1.64279,1.64279,-0.00834,0.00891,0.00760,-0.00544,0.03107,0.02233,0.04819,1.04072,4.70412,1.75566,1.95602,1.95866,-2.91938,6.92543,4.68740,-2.91242,6.93115,1.95208,1.95208,A,130439.40
4.71824,57.68791262,11.98132305,57.68791267,11.98132317,13:04:39.541707,0.00304,1.64279,1.64279,-0.00834,0.00891,0.01752,-0.00208,0.03168,-0.08461,0.00458,1.07525,4.71305,1.75566,1.95602,1.95866,-2.91938,6.92543,4.68740,-2.91242,6.93115,1.95208,1.95208,A,130439.40
4.72879,57.68791262,11.98132305,57.68791267,11.98132317,13:04:39.552253,0.00319,1.64279,1.64279,-0.00859,0.00891,0.01019,-0.00238,0.03061,-0.07680,-0.01037,1.14528,4.72360,1.75566,1.95602,1.95866,-2.91938,6.92543,4.68740,-2.91242,6.93115,1.95208,1.95208,A,130439.40
4.73937,57.68791262,11.98132305,57.68791267,11.98132317,13:04:39.562844,0.00337,1.64279,1.64279,-0.00825,0.00891,0.01707,0.00800,0.02542,0.01446,0.02898,1.13234,4.73397,1.75566,1.95602,1.95866,-2.91938,6.92543,4.68740,-2.91242,6.93115,1.95208,1.95208,A,130439.40
4.74973,57.68791262,11.98132305,57.68791267,11.98132317,13:04:39.573201,0.00321,1.64279,1.64279,-0.00771,0.00891,0.00775,-0.00910,0.02359,0.03977,0.04947,1.08989,4.74453,1.75566,1.95602,1.95866,-2.91938,6.92543,4.68740,-2.91242,6.93115,1.95208,1.95208,A,130439.40
4.76033,57.68791262,11.98132305,57.68791267,11.98132317,13:04:39.583805,0.00320,1.64279,1.64279,-0.00744,0.00891,0.01554,-0.02331,0.02130,0.02672,0.02135,0.94696,4.75515,1.75566,1.95602,1.95866,-2.91938,6.92543,4.68740,-2.91242,6.93115,1.95208,1.95208,A,130439.40
4.77040,57.68791262,11.98132305,57.68791267,11.98132317,13:04:39.593868,0.00303,1.64279,1.64279,-0.00783,0.00893,0.01829,-0.03690,0.01779,-0.03007,-0.01885,0.86461,4.76521,1.75566,1.95602,1.95866,-2.91938,6.92543,4.68740,-2.91242,6.93115,1.95208,1.95208,A,130439.40
4.78095,57.68791262,11.98132305,57.68791267,11.98132317,13:04:39.604419,0.00319,1.75022,1.75022,-0.00786,0.00899,0.01997,-0.01857,0.01656,-0.14994,0.00018,0.88383,4.77577,1.75566,1.95602,1.95866,-2.91938,6.92543,4.68740,-2.91242,6.93115,1.95208,1.95208,A,130439.40
4.80890,57.68791262,11.98132305,57.68791417,11.98132233,13:04:39.632379,0.02074,1.75022,1.75022,-0.00815,0.00916,0.02928,0.01197,0.02328,-0.08424,-0.02025,0.87016,4.78595,1.75566,1.95602,1.95866,-2.91938,6.92543,4.80289,-2.96195,7.09794,1.85946,1.85946,A,130439.50
4.82313,57.68791418,11.98132187,57.68791417,11.98132233,13:04:39.646632,0.00786,1.75022,1.75022,-0.00727,0.00973,0.01798,-0.00636,0.03107,0.14835,0.04197,1.03053,4.81432,1.75457,1.94240,1.94529,-2.98921,7.09978,4.80289,-2.96195,7.09794,1.85946,1.85946,A,130439.50
4.82890,57.68791418,11.98132187,57.68791417,11.98132233,13:04:39.652365,0.00323,1.75022,1.75022,-0.00639,0.00981,0.02119,-0.05095,0.04130,-0.00470,0.07192,1.16602,4.82371,1.75457,1.94240,1.94529,-2.98921,7.09978,4.80289,-2.96195,7.09794,1.85946,1.85946,A,130439.50
4.83951,57.68791418,11.98132187,57.68791417,11.98132233,13:04:39.662979,0.00344,1.75022,1.75022,-0.00590,0.00981,0.02440,-0.07004,0.03840,-0.16690,0.03989,1.23165,4.83430,1.75457,1.94240,1.94529,-2.98921,7.09978,4.80289,-2.96195,7.09794,1.85946,1.85946,A,130439.50
4.84958,57.68791418,11.98132187,57.68791417,11.98132233,13:04:39.673040,0.00326,1.75022,1.75022,-0.00436,0.00981,0.02913,-0.04362,0.02985,-0.15866,0.12359,1.22256,4.84438,1.75457,1.94240,1.94529,-2.98921,7.09978,4.80289,-2.96195,7.09794,1.85946,1.85946,A,130439.50
4.85989,57.68791418,11.98132187,57.68791417,11.98132233,13:04:39.683354,0.00318,1.75022,1.75022,-0.00490,0.00981,0.04837,-0.01033,0.02008,-0.01824,-0.05337,1.06872,4.85469,1.75457,1.94240,1.94529,-2.98921,7.09978,4.80289,-2.96195,7.09794,1.85946,1.85946,A,130439.50
4.87016,57.68791418,11.98132187,57.68791417,11.98132233,13:04:39.693618,0.00300,1.75022,1.75022,-0.00487,0.00981,0.03310,-0.00132,0.01672,0.08936,-0.00073,0.91433,4.86497,1.75457,1.94240,1.94529,-2.98921,7.09978,4.80289,-2.96195,7.09794,1.85946,1.85946,A,130439.50
4.88073,57.68791418,11.98132187,57.68791417,11.98132233,13:04:39.704186,0.00317,1.75022,1.75022,-0.00590,0.00987,0.02989,0.00510,0.02695,-0.07503,-0.05612,0.79556,4.87555,1.75457,1.94240,1.94529,-2.98921,7.09978,4.80289,-2.96195,7.09794,1.85946,1.85946,A,130439.50
4.89121,57.68791418,11.98132187,57.68791417,11.98132233,13:04:39.714684,0.00326,1.75022,1.75022,-0.00484,0.00992,0.00622,0.01747,0.02603,-0.09546,0.06411,0.75054,4.88574,1.75457,1.94240,1.94529,-2.98921,7.09978,4.80289,-2.96195,7.09794,1.85946,1.85946,A,130439.50
4.90155,57.68791418,11.98132187,57.68791417,11.98132233,13:04:39.725011,0.00320,1.75022,1.75022,-0.00336,0.00995,0.01203,0.02907,0.03321,-0.19136,0.09162,0.83039,4.89637,1.75457,1.94240,1.94529,-2.98921,7.09978,4.80289,-2.96195,7.09794,1.85946,1.85946,A,130439.50
4.92884,57.68791418,11.98132187,57.68791550,11.98132133,13:04:39.752728,0.02008,1.75022,1.75022,-0.00293,0.00995,0.00867,0.03885,0.02832,-0.05539,0.03751,0.86321,4.90676,1.75457,1.94240,1.94529,-2.98921,7.09978,4.92342,-3.02139,7.24620,1.95208,1.95208,A,130439.60
4.94489,57.68791590,11.98132063,57.68791550,11.98132133,13:04:39.768373,0.00818,1.75022,1.75022,-0.00359,0.00995,-0.00340,-0.02880,0.01733,-0.00830,-0.02172,1.24226,4.93588,1.75370,1.94498,1.94793,-3.06300,7.29075,4.92342,-3.02139,7.24620,1.95208,1.95208,A,130439.60
4.95016,57.68791590,11.98132063,57.68791550,11.98132133,13:04:39.773617,0.00300,1.75022,1.75022,-0.00415,0.00995,-0.00355,-0.02300,0.00450,-0.02550,-0.01976,1.28966,4.94497,1.75370,1.94498,1.94793,-3.06300,7.29075,4.92342,-3.02139,7.24620,1.95208,1.95208,A,130439.60
4.96082,57.68791590,11.98132063,57.68791550,11.98132133,13:04:39.784283,0.00327,1.75022,1.75022,-0.00440,0.00995,-0.03012,-0.01338,-0.00604,-0.13932,0.03007,1.30668,4.95564,1.75370,1.94498,1.94793,-3.06300,7.29075,4.92342,-3.02139,7.24620,1.95208,1.95208,A,130439.60
4.97115,57.68791590,11.98132063,57.68791550,11.98132133,13:04:39.794621,0.00320,1.75022,1.75022,-0.00390,0.00995,-0.01180,-0.00941,-0.00573,-0.00939,0.06594,1.08940,4.96574,1.75370,1.94498,1.94793,-3.06300,7.29075,4.92342,-3.02139,7.24620,1.95208,1.95208,A,130439.60
4.98169,57.68791590,11.98132063,57.68791550,11.98132133,13:04:39.805159,0.00335,1.75022,1.75022,-0.00426,0.00995,-0.01592,-0.01475,-0.00573,0.06539,0.00647,0.85906,4.97650,1.75370,1.94498,1.94793,-3.06300,7.29075,4.92342,-3.02139,7.24620,1.95208,1.95208,A,130439.60
4.99194,57.68791590,11.98132063,57.68791550,11.98132133,13:04:39.815405,0.00320,1.75022,1.75022,-0.00352,0.00995,-0.00951,-0.01873,0.00557,-0.06869,0.05887,0.77494,4.98673,1.75370,1.94498,1.94793,-3.06300,7.29075,4.92342,-3.02139,7.24620,1.95208,1.95208,A,130439.60
5.00225,57.68791590,11.98132063,57.68791550,11.98132133,13:04:39.825709,0.00303,1.75022,1.75022,-0.00536,0.00995,-0.01195,-0.01002,0.00954,-0.12462,-0.07375,0.78568,4.99705,1.75370,1.94498,1.94793,-3.06300,7.29075,4.92342,-3.02139,7.24620,1.95208,1.95208,A,130439.60
5.01556,57.68791590,11.98132063,57.68791550,11.98132133,13:04:39.839082,0.00593,1.75022,1.75022,0.00000,0.00995,-0.01928,-0.00132,0.01061,-0.15256,0.03318,0.81771,5.00764,1.75370,1.94498,1.94793,-3.06300,7.29075,4.92342,-3.02139,7.24620,1.95208,1.95208,A,130439.60
5.03148,57.68791590,11.98132063,57.68791550,11.98132133,13:04:39.856005,0.01158,1.75022,1.75022,-0.00099,0.00995,-0.01775,0.02587,0.01504,-0.14298,-0.02733,0.90170,5.01784,1.75370,1.94498,1.94793,0.02271,0.00000,4.92342,-3.02139,7.24620,1.95208,1.95208,A,130439.60
5.07548,57.68791590,11.98132063,57.68791850,11.98131933,13:04:39.898966,0.03344,1.75022,1.75022,-0.00168,0.00995,-0.03318,0.01090,0.00923,-0.01800,0.02867,1.12917,5.04039,1.75370,1.94498,1.94793,0.02271,0.00000,5.07020,-3.14027,7.57979,1.91312,1.91312,A,130439.80
5.09398,57.68791807,11.98131906,57.68791850,11.98131933,13:04:39.917451,0.00836,1.75022,1.75022,-0.00330,0.00984,-0.05196,0.00204,-0.00726,0.03861,0.06655,0.95935,5.08580,1.75300,1.94175,1.94467,-3.15680,7.53224,5.07020,-3.14027,7.57979,1.91312,1.91312,A,130439.80
5.09991,57.68791807,11.98131906,57.68791850,11.98131933,13:04:39.923370,0.00412,1.75022,1.75022,-0.00423,0.00984,-0.05074,0.00174,-0.00314,-0.00878,-0.01287,0.85943,5.09361,1.75300,1.94175,1.94467,-3.15680,7.53224,5.07020,-3.14027,7.57979,1.91312,1.91312,A,130439.80
5.11061,57.68791807,11.98131906,57.68791850,11.98131933,13:04:39.934320,0.00442,1.75022,1.75022,-0.00432,0.00984,-0.05471,-0.00040,0.00389,-0.03941,0.04233,0.80209,5.10447,1.75300,1.94175,1.94467,-3.15680,7.53224,5.07020,-3.14027,7.57979,1.91312,1.91312,A,130439.80
5.12086,57.68791807,11.98131906,57.68791850,11.98131933,13:04:39.944325,0.00427,1.75022,1.75022,-0.00583,0.00984,-0.04646,-0.00712,0.00939,-0.12481,-0.04111,0.82838,5.11468,1.75300,1.94175,1.94467,-3.15680,7.53224,5.07020,-3.14027,7.57979,1.91312,1.91312,A,130439.80
5.13156,57.68791807,11.98131906,57.68791850,11.98131933,13:04:39.955031,0.00446,1.75022,1.75022,-0.00635,0.00984,-0.05654,0.00601,0.01382,-0.09967,0.01995,0.91616,5.12492,1.75300,1.94175,1.94467,-3.15680,7.53224,5.07020,-3.14027,7.57979,1.91312,1.91312,A,130439.80
5.14166,57.68791807,11.98131906,57.68791850,11.98131933,13:04:39.965322,0.00417,1.75022,1.75022,-0.00773,0.00984,-0.04448,0.02739,0.01427,0.02495,-0.04380,0.99576,5.13550,1.75300,1.94175,1.94467,-3.15680,7.53224,5.07020,-3.14027,7.57979,1.91312,1.91312,A,130439.80
5.15209,57.68791807,11.98131906,57.68791850,11.98131933,13:04:39.975554,0.00420,1.75022,1.75022,-0.00796,0.00984,-0.04433,0.02648,0.01565,0.01854,0.03276,1.09611,5.14568,1.75300,1.94175,1.94467,-3.15680,7.53224,5.07020,-3.14027,7.57979,1.91312,1.91312,A,130439.80
5.16246,57.68791807,11.98131906,57.68791850,11.98131933,13:04:39.986163,0.00417,1.91220,1.91220,-0.00882,0.00984,-0.04005,0.02907,0.01626,0.04416,-0.01507,1.13411,5.15629,1.75300,1.94175,1.94467,-3.15680,7.53224,5.07020,-3.14027,7.57979,1.91312,1.91312,A,130439.80
5.19051,57.68791807,11.98131906,57.68792000,11.98131833,13:04:40.014775,0.02182,1.91220,1.91220,-0.00992,0.00984,-0.05089,0.01564,0.01030,-0.00573,-0.02623,1.09782,5.16668,1.75300,1.94175,1.94467,-3.15680,7.53224,5.18368,-3.19970,7.74658,1.91312,1.91312,A,130439.90
5.21053,57.68791975,11.98131786,57.68792000,11.98131833,13:04:40.034240,0.00948,1.91220,1.91220,-0.01128,0.00984,-0.05059,-0.00788,0.01107,0.00177,0.03684,0.95453,5.20118,1.78484,1.93853,1.94145,-3.22785,7.71861,5.18368,-3.19970,7.74658,1.91312,1.91312,A,130439.90
5.21589,57.68791975,11.98131786,57.68792000,11.98131833,13:04:40.039352,0.00409,1.91220,1.91220,-0.01236,0.00984,-0.04998,-0.01292,0.01824,0.01159,-0.02959,0.94404,5.20958,1.78484,1.93853,1.94145,-3.22785,7.71861,5.18368,-3.19970,7.74658,1.91312,1.91312,A,130439.90
5.22638,57.68791975,11.98131786,57.68792000,11.98131833,13:04:40.049850,0.00418,1.91220,1.91220,-0.01378,0.00984,-0.04799,-0.00895,0.02588,-0.01055,-0.04599,0.93470,5.22020,1.78484,1.93853,1.94145,-3.22785,7.71861,5.18368,-3.19970,7.74658,1.91312,1.91312,A,130439.90
5.23699,57.68791975,11.98131786,57.68792000,11.98131833,13:04:40.060459,0.00440,1.91220,1.91220,-0.01462,0.00984,-0.05120,-0.01216,0.03153,-0.08869,-0.01000,0.94440,5.23060,1.78484,1.93853,1.94145,-3.22785,7.71861,5.18368,-3.19970,7.74658,1.91312,1.91312,A,130439.90
5.24758,57.68791975,11.98131786,57.68792000,11.98131833,13:04:40.071047,0.00429,1.91220,1.91220,-0.01463,0.00984,-0.04875,-0.00559,0.03520,-0.13152,0.04258,0.99210,5.24115,1.78484,1.93853,1.94145,-3.22785,7.71861,5.18368,-3.19970,7.74658,1.91312,1.91312,A,130439.90
5.25788,57.68791975,11.98131786,57.68792000,11.98131833,13:04:40.081347,0.00419,1.91220,1.91220,-0.01504,0.00984,-0.04341,0.01197,0.04298,-0.06496,0.01232,0.98979,5.25172,1.78484,1.93853,1.94145,-3.22785,7.71861,5.18368,-3.19970,7.74658,1.91312,1.91312,A,130439.90
5.26827,57.68791975,11.98131786,57.68792000,11.98131833,13:04:40.091739,0.00417,1.91220,1.91220,-0.01520,0.00984,-0.05089,0.01167,0.03550,0.00604,0.03440,1.06817,5.26188,1.78484,1.93853,1.94145,-3.22785,7.71861,5.18368,-3.19970,7.74658,1.91312,1.91312,A,130439.90
5.27865,57.68791975,11.98131786,57.68792000,11.98131833,13:04:40.102348,0.00417,1.91220,1.91220,-0.01616,0.00987,-0.04891,0.00983,0.03871,-0.00329,-0.02324,1.07939,5.27248,1.78484,1.93853,1.94145,-3.22785,7.71861,5.18368,-3.19970,7.74658,1.91312,1.91312,A,130439.90
5.30498,57.68791975,11.98131786,57.68792117,11.98131717,13:04:40.128464,0.02010,1.91220,1.91220,-0.01596,0.01004,-0.05929,0.00311,0.03504,0.00055,0.06600,1.07470,5.28281,1.78484,1.93853,1.94145,-3.22785,7.71861,5.29944,-3.26905,7.87631,2.06169,2.06169,A,130440.00
5.31820,57.68792133,11.98131673,57.68792117,11.98131717,13:04:40.141671,0.00733,1.91220,1.91220,-0.01829,0.01134,-0.06036,-0.00086,0.02741,-0.07290,-0.03965,0.98960,5.30969,1.81031,1.95795,1.96131,-3.29506,7.89414,5.29944,-3.26905,7.87631,2.06169,2.06169,A,130440.00
5.32547,57.68792133,11.98131673,57.68792117,11.98131717,13:04:40.148935,0.00420,1.91220,1.91220,-0.01908,0.01202,-0.05960,0.00495,0.02252,-0.01403,-0.00714,0.90817,5.31938,1.81031,1.95795,1.96131,-3.29506,7.89414,5.29944,-3.26905,7.87631,2.06169,2.06169,A,130440.00
5.33676,57.68792133,11.98131673,57.68792117,11.98131717,13:04:40.160237,0.00527,1.91220,1.91220,-0.01937,0.01278,-0.06112,0.00647,0.02237,-0.06765,0.02824,0.90737,5.33032,1.81031,1.95795,1.96131,-3.29506,7.89414,5.29944,-3.26905,7.87631,2.06169,2.06169,A,130440.00
5.34636,57.68792133,11.98131673,57.68792117,11.98131717,13:04:40.169826,0.00447,1.91220,1.91220,-0.01956,0.01358,-0.06051,0.01487,0.02191,-0.02318,0.02959,0.91427,5.34006,1.81031,1.95795,1.96131,-3.29506,7.89414,5.29944,-3.26905,7.87631,2.06169,2.06169,A,130440.00
5.35648,57.68792133,11.98131673,57.68792117,11.98131717,13:04:40.179943,0.00419,1.91220,1.91220,-0.01977,0.01425,-0.07075,0.00693,0.02512,-0.13493,0.03825,0.95343,5.35030,1.81031,1.95795,1.96131,-3.29506,7.89414,5.29944,-3.26905,7.87631,2.06169,2.06169,A,130440.00
5.36719,57.68792133,11.98131673,57.68792117,11.98131717,13:04:40.190669,0.00451,1.91220,1.91220,-0.02035,0.01476,-0.06128,0.02236,0.03306,-0.07491,0.00848,0.98918,5.36067,1.81031,1.95795,1.96131,-3.29506,7.89414,5.29944,-3.26905,7.87631,2.06169,2.06169,A,130440.00
5.37728,57.68792133,11.98131673,57.68792117,11.98131717,13:04:40.200744,0.00421,1.91220,1.91220,-0.02094,0.01505,-0.06830,0.02480,0.03520,-0.05307,0.01403,1.12923,5.37110,1.81031,1.95795,1.96131,-3.29506,7.89414,5.29944,-3.26905,7.87631,2.06169,2.06169,A,130440.00
5.38759,57.68792133,11.98131673,57.68792117,11.98131717,13:04:40.211055,0.00428,1.91220,1.91220,-0.02118,0.01508,-0.06784,0.02816,0.03367,0.02123,0.03782,1.12478,5.38115,1.81031,1.95795,1.96131,-3.29506,7.89414,5.29944,-3.26905,7.87631,2.06169,2.06169,A,130440.00
5.39792,57.68792133,11.98131673,57.68792117,11.98131717,13:04:40.221388,0.00422,1.91220,1.91220,-0.02230,0.01508,-0.06112,0.01869,0.03321,-0.02989,-0.03215,1.13606,5.39173,1.81031,1.95795,1.96131,-3.29506,7.89414,5.29944,-3.26905,7.87631,2.06169,2.06169,A,130440.00
5.42450,57.68792133,11.98131673,57.68792267,11.98131567,13:04:40.247979,0.02041,1.91220,1.91220,-0.02237,0.01508,-0.05746,0.02068,0.02237,-0.00012,0.03904,1.06549,5.40189,1.81031,1.95795,1.96131,-3.29506,7.89414,5.41889,-3.35820,8.04310,2.06169,2.06169,A,130440.10
5.43750,57.68792307,11.98131538,57.68792267,11.98131567,13:04:40.260968,0.00666,1.91220,1.91220,-0.02615,0.01508,-0.06387,-0.01689,0.01672,0.12804,-0.10187,0.76793,5.42931,1.83069,1.97470,1.97918,-3.37497,8.08802,5.41889,-3.35820,8.04310,2.06169,2.06169,A,130440.10
5.44538,57.68792307,11.98131538,57.68792267,11.98131567,13:04:40.268841,0.00413,1.91220,1.91220,-0.02656,0.01508,-0.07548,-0.04789,0.02573,0.03306,0.01830,0.81368,5.43928,1.83069,1.97470,1.97918,-3.37497,8.08802,5.41889,-3.35820,8.04310,2.06169,2.06169,A,130440.10
5.45606,57.68792307,11.98131538,57.68792267,11.98131567,13:04:40.279526,0.00459,1.91220,1.91220,-0.02639,0.01513,-0.06112,-0.05385,0.02985,-0.13444,0.05069,0.99296,5.44932,1.83069,1.97470,1.97918,-3.37497,8.08802,5.41889,-3.35820,8.04310,2.06169,2.06169,A,130440.10
5.46619,57.68792307,11.98131538,57.68792267,11.98131567,13:04:40.289662,0.00433,1.91220,1.91220,-0.02616,0.01533,-0.04478,-0.01430,0.03535,-0.38284,0.05832,1.27472,5.46002,1.83069,1.97470,1.97918,-3.37497,8.08802,5.41889,-3.35820,8.04310,2.06169,2.06169,A,130440.10
5.47644,57.68792307,11.98131538,57.68792267,11.98131567,13:04:40.299907,0.00419,1.91220,1.91220,-0.02618,0.01561,-0.02233,0.06496,0.04069,-0.25736,0.01702,1.42472,5.47025,1.83069,1.97470,1.97918,-3.37497,8.08802,5.41889,-3.35820,8.04310,2.06169,2.06169,A,130440.10
5.48714,57.68792307,11.98131538,57.68792267,11.98131567,13:04:40.310605,0.00449,1.91220,1.91220,-0.02836,0.01590,-0.02860,0.09459,0.04222,0.24845,-0.14201,1.11471,5.48072,1.83069,1.97470,1.97918,-3.37497,8.08802,5.41889,-3.35820,8.04310,2.06169,2.06169,A,130440.10
5.49725,57.68792307,11.98131538,57.68792267,11.98131567,13:04:40.320725,0.00421,1.91220,1.91220,-0.03113,0.01607,-0.03791,0.04679,0.03795,0.31116,-0.13969,0.86565,5.49107,1.83069,1.97470,1.97918,-3.37497,8.08802,5.41889,-3.35820,8.04310,2.06169,2.06169,A,130440.10
5.50764,57.68792307,11.98131538,57.68792267,11.98131567,13:04:40.331106,0.00437,1.91220,1.91220,-0.03194,0.01609,-0.05425,-0.03216,0.03627,0.03331,-0.01708,0.77769,5.50111,1.83069,1.97470,1.97918,-3.37497,8.08802,5.41889,-3.35820,8.04310,2.06169,2.06169,A,130440.10
5.51785,57.68792307,11.98131538,57.68792267,11.98131567,13:04:40.341318,0.00419,1.91220,1.91220,-0.03082,0.01609,-0.04860,-0.05141,0.03077,-0.22967,0.09644,0.93446,5.51168,1.83069,1.97470,1.97918,-3.37497,8.08802,5.41889,-3.35820,8.04310,2.06169,2.06169,A,130440.10
5.55551,57.68792307,11.98131538,57.68792517,11.98131333,13:04:40.379787,0.03145,1.91220,1.91220,-0.03090,0.01609,-0.02768,-0.02636,0.02008,-0.20093,0.00848,0.90963,5.52185,1.83069,1.97470,1.97918,-3.37497,8.08802,5.54943,-3.49689,8.32109,2.03356,2.03356,A,130440.30
5.57214,57.68792507,11.98131374,57.68792517,11.98131333,13:04:40.395621,0.00822,1.91220,1.91220,-0.03327,0.01609,-0.02157,-0.04179,0.02909,-0.10797,-0.11578,1.10733,5.56369,1.84699,1.98565,1.99043,-3.47244,8.31085,5.54943,-3.49689,8.32109,2.03356,2.03356,A,130440.30
5.57961,57.68792507,11.98131374,57.68792517,11.98131333,13:04:40.403085,0.00530,1.91220,1.91220,-0.03439,0.01609,-0.02982,-0.01827,0.03260,-0.25040,-0.07576,1.18322,5.57315,1.84699,1.98565,1.99043,-3.47244,8.31085,5.54943,-3.49689,8.32109,2.03356,2.03356,A,130440.30
5.58889,57.68792507,11.98131374,57.68792517,11.98131333,13:04:40.412358,0.00418,1.91220,1.91220,-0.03442,0.01609,-0.01455,0.02358,0.03138,-0.22424,-0.00201,1.16144,5.58271,1.84699,1.98565,1.99043,-3.47244,8.31085,5.54943,-3.49689,8.32109,2.03356,2.03356,A,130440.30
5.59939,57.68792507,11.98131374,57.68792517,11.98131333,13:04:40.422864,0.00426,1.91220,1.91220,-0.03482,0.01609,-0.01684,0.04939,0.02756,-0.03440,-0.02470,1.03511,5.59296,1.84699,1.98565,1.99043,-3.47244,8.31085,5.54943,-3.49689,8.32109,2.03356,2.03356,A,130440.30
5.61010,57.68792507,11.98131374,57.68792517,11.98131333,13:04:40.433569,0.00457,1.91220,1.91220,-0.03327,0.01609,-0.01607,0.02831,0.03168,0.19191,0.09937,0.93409,5.60368,1.84699,1.98565,1.99043,-3.47244,8.31085,5.54943,-3.49689,8.32109,2.03356,2.03356,A,130440.30
5.62015,57.68792507,11.98131374,57.68792517,11.98131333,13:04:40.443617,0.00422,1.60544,1.60544,-0.03476,0.01609,-0.00401,-0.01002,0.03000,0.22509,-0.08912,0.85260,5.61371,1.84699,1.98565,1.99043,-3.47244,8.31085,5.54943,-3.49689,8.32109,2.03356,2.03356,A,130440.30
5.63050,57.68792507,11.98131374,57.68792517,11.98131333,13:04:40.454200,0.00418,1.60544,1.60544,-0.03529,0.01609,-0.00874,-0.03461,0.01763,-0.08137,-0.03538,0.90670,5.62433,1.84699,1.98565,1.99043,-3.47244,8.31085,5.54943,-3.49689,8.32109,2.03356,2.03356,A,130440.30
5.64097,57.68792507,11.98131374,57.68792517,11.98131333,13:04:40.464431,0.00426,1.60544,1.60544,-0.03586,0.01609,0.00164,-0.00361,0.01870,-0.24577,-0.04978,0.98997,5.63478,1.84699,1.98565,1.99043,-3.47244,8.31085,5.54943,-3.49689,8.32109,2.03356,2.03356,A,130440.30
5.66728,57.68792507,11.98131374,57.68792667,11.98131233,13:04:40.490764,0.02015,1.60544,1.60544,-0.03724,0.01609,-0.00584,0.01014,0.00679,-0.25657,-0.10681,1.07092,5.64497,1.84699,1.98565,1.99043,-3.47244,8.31085,5.66161,-3.55633,8.48788,1.91312,1.91312,A,130440.40
5.68586,57.68792677,11.98131233,57.68792667,11.98131233,13:04:40.509342,0.00703,1.60544,1.60544,-0.03605,0.01609,-0.01745,-0.01582,0.00511,-0.08546,0.11688,1.11984,5.67747,1.79868,1.97664,1.98142,-3.55667,8.49911,5.66161,-3.55633,8.48788,1.91312,1.91312,A,130440.40
