Time,lat_estimated,lon_estimated,latitude,longitude,RealTime,CalculationTime,MeasuredVelocity,FilteredVelocity,Roll,SteeringAngle,RollRate,gy,gz,ax,ay,az,imu_read_timing,v_estimated,yaw_estimated,heading_estimated,x_estimated,y_estimated,GPS_timestamp,x_GPS,y_GPS,theta_GPS,theta_GPS_noUnwrap,status,NMEA timestamp
0.04851,57.68785133,11.98138167,57.68785133,11.98138167,12:39:08.366456,0.04847,0.00000,0.00000,-0.00087,0.04262,-0.00188,-0.00023,-0.00161,-0.01519,-0.03587,1.01040,0.00001,0.00000,-0.01266,0.00000,0.00000,0.00000,0.01566,0.00000,0.00000,0.00000,0.00000,A,123908.20
0.06774,57.68785133,11.98138167,57.68785133,11.98138167,12:39:08.384775,0.00839,0.00000,0.00000,-0.00225,0.04262,-0.00798,0.00389,-0.00436,0.01177,-0.04014,1.00735,0.06113,0.00000,-0.01266,0.00000,0.00000,0.00000,0.01566,0.00000,0.00000,0.00000,0.00000,A,123908.20
0.07249,57.68785133,11.98138167,57.68785133,11.98138167,12:39:08.389511,0.00298,0.00000,0.00000,-0.00320,0.04262,-0.00218,0.00771,-0.00100,0.01976,-0.04404,1.01040,0.06886,0.00000,-0.01266,0.00000,0.00000,0.00000,0.01566,0.00000,0.00000,0.00000,0.00000,A,123908.20
0.08312,57.68785133,11.98138167,57.68785133,11.98138167,12:39:08.400152,0.00321,0.00000,0.00000,-0.00425,0.04262,-0.00692,0.00908,0.00129,0.00598,-0.04734,0.99887,0.07950,0.00000,-0.01266,0.00000,0.00000,0.00000,0.01566,0.00000,0.00000,0.00000,0.00000,A,123908.20
0.09351,57.68785133,11.98138167,57.68785133,11.98138167,12:39:08.410553,0.00320,0.00000,0.00000,-0.00517,0.04262,-0.00829,0.01229,-0.00008,0.00281,-0.03873,0.98991,0.08964,0.00000,-0.01266,0.00000,0.00000,0.00000,0.01566,0.00000,0.00000,0.00000,0.00000,A,123908.20
0.10404,57.68785133,11.98138167,57.68785133,11.98138167,12:39:08.421071,0.00333,0.00000,0.00000,-0.00606,0.04262,-0.00737,0.00710,-0.00207,0.01836,-0.03727,0.97685,0.10039,0.00000,-0.01266,0.00000,0.00000,0.00000,0.01566,0.00000,0.00000,0.00000,0.00000,A,123908.20
0.11428,57.68785133,11.98138167,57.68785133,11.98138167,12:39:08.431303,0.00317,0.00000,0.00000,-0.00685,0.04262,-0.01104,0.00878,0.00236,-0.00329,-0.02995,0.97630,0.11064,0.00000,-0.01266,0.00000,0.00000,0.00000,0.01566,0.00000,0.00000,0.00000,0.00000,A,123908.20
0.14007,57.68785133,11.98138167,57.68785167,11.98138133,12:39:08.457102,0.01847,0.00000,0.00000,-0.00766,0.04262,-0.01196,0.01015,-0.00237,0.00549,-0.03050,0.98131,0.12097,0.00000,-0.01266,0.00000,0.00000,0.00000,0.13617,-0.01981,0.03706,2.06169,2.06169,A,123908.30
0.15555,57.68785135,11.98138165,57.68785167,11.98138133,12:39:08.472583,0.00705,0.00000,0.00000,-0.00844,0.04262,-0.00004,0.00664,-0.00268,0.03593,-0.03825,0.98564,0.14939,0.00000,0.29660,0.30925,-0.00099,0.00185,0.13617,-0.01981,0.03706,2.06169,2.06169,A,123908.30
0.16221,57.68785135,11.98138165,57.68785167,11.98138133,12:39:08.479250,0.00331,0.00000,0.00000,-0.00929,0.04262,-0.00188,0.00053,-0.00481,0.03508,-0.04246,0.99088,0.15855,0.00000,0.29660,0.30925,-0.00099,0.00185,0.13617,-0.01981,0.03706,2.06169,2.06169,A,123908.30
0.17251,57.68785135,11.98138165,57.68785167,11.98138133,12:39:08.489531,0.00300,0.00000,0.00000,-0.01014,0.04262,-0.00356,-0.00420,-0.00023,0.01220,-0.04276,0.99863,0.16887,0.00000,0.29660,0.30925,-0.00099,0.00185,0.13617,-0.01981,0.03706,2.06169,2.06169,A,123908.30
0.18308,57.68785135,11.98138165,57.68785167,11.98138133,12:39:08.500107,0.00318,0.00000,0.00000,-0.01064,0.04262,-0.00035,-0.00665,-0.00405,0.00085,-0.02166,0.98436,0.17944,0.00000,0.29660,0.30925,-0.00099,0.00185,0.13617,-0.01981,0.03706,2.06169,2.06169,A,123908.30
0.19349,57.68785135,11.98138165,57.68785167,11.98138133,12:39:08.510528,0.00319,0.00000,0.00000,-0.01130,0.04262,0.00072,-0.00161,-0.00329,0.00598,-0.03355,0.98417,0.18962,0.00000,0.29660,0.30925,-0.00099,0.00185,0.13617,-0.01981,0.03706,2.06169,2.06169,A,123908.30
0.20387,57.68785135,11.98138165,57.68785167,11.98138133,12:39:08.520897,0.00318,0.00000,0.00000,-0.01209,0.04262,0.00286,-0.00038,-0.00176,0.02306,-0.04410,0.97637,0.20025,0.00000,0.29660,0.30925,-0.00099,0.00185,0.13617,-0.01981,0.03706,2.06169,2.06169,A,123908.30
0.21427,57.68785135,11.98138165,57.68785167,11.98138133,12:39:08.531302,0.00318,0.00000,0.00000,-0.01300,0.04262,0.00347,0.00084,-0.00222,0.03678,-0.05276,0.97356,0.21062,0.00000,0.29660,0.30925,-0.00099,0.00185,0.13617,-0.01981,0.03706,2.06169,2.06169,A,123908.30
0.22459,57.68785135,11.98138165,57.68785167,11.98138133,12:39:08.541617,0.00299,0.00000,0.00000,-0.01352,0.04262,0.00561,-0.00603,0.00221,0.02257,-0.02989,0.99058,0.22095,0.00000,0.29660,0.30925,-0.00099,0.00185,0.13617,-0.01981,0.03706,2.06169,2.06169,A,123908.30
0.23516,57.68785135,11.98138165,57.68785167,11.98138133,12:39:08.552182,0.00316,0.00000,0.00000,-0.01386,0.04262,0.00744,-0.00649,-0.00054,0.02001,-0.02080,1.00424,0.23153,0.00000,0.29660,0.30925,-0.00099,0.00185,0.13617,-0.01981,0.03706,2.06169,2.06169,A,123908.30
0.27241,57.68785135,11.98138165,57.68785267,11.98138100,12:39:08.589456,0.03002,0.00000,0.00000,-0.01425,0.04262,0.00943,-0.00726,0.00313,-0.00433,-0.02495,1.01882,0.24173,0.00000,0.29660,0.30925,-0.00099,0.00185,0.26787,-0.03962,0.14826,1.74712,1.74712,A,123908.50
0.28911,57.68785142,11.98138162,57.68785267,11.98138100,12:39:08.606415,0.00717,0.00000,0.00000,-0.01438,0.04262,0.01416,0.00313,-0.00161,0.00195,-0.04130,1.00857,0.28349,0.00000,0.51228,0.52493,-0.00292,0.00917,0.26787,-0.03962,0.14826,1.74712,1.74712,A,123908.50
0.29553,57.68785142,11.98138162,57.68785267,11.98138100,12:39:08.612556,0.00319,0.00000,0.00000,-0.01484,0.04262,0.01324,0.00359,0.00221,0.00555,-0.03111,0.99863,0.29190,0.00000,0.51228,0.52493,-0.00292,0.00917,0.26787,-0.03962,0.14826,1.74712,1.74712,A,123908.50
0.30591,57.68785142,11.98138162,57.68785267,11.98138100,12:39:08.622940,0.00316,0.00000,0.00000,-0.01499,0.04262,0.01370,0.00420,0.00526,0.00518,-0.01342,1.00723,0.30226,0.00000,0.51228,0.52493,-0.00292,0.00917,0.26787,-0.03962,0.14826,1.74712,1.74712,A,123908.50
0.31632,57.68785142,11.98138162,57.68785267,11.98138100,12:39:08.633348,0.00300,0.00000,0.00000,-0.01498,0.04262,0.01828,-0.00313,0.00221,-0.00146,-0.00616,1.00888,0.31269,0.00000,0.51228,0.52493,-0.00292,0.00917,0.26787,-0.03962,0.14826,1.74712,1.74712,A,123908.50
0.32704,57.68785142,11.98138162,57.68785267,11.98138100,12:39:08.644070,0.00320,0.00000,0.00000,-0.01518,0.04262,0.02118,-0.00359,-0.00222,-0.00421,-0.02214,1.01644,0.32340,0.00000,0.51228,0.52493,-0.00292,0.00917,0.26787,-0.03962,0.14826,1.74712,1.74712,A,123908.50
0.33743,57.68785142,11.98138162,57.68785267,11.98138100,12:39:08.654475,0.00320,0.00000,0.00000,-0.01574,0.04262,0.01889,-0.00313,-0.00161,0.03111,-0.04410,1.00351,0.33357,0.00000,0.51228,0.52493,-0.00292,0.00917,0.26787,-0.03962,0.14826,1.74712,1.74712,A,123908.50
0.34786,57.68785142,11.98138162,57.68785267,11.98138100,12:39:08.664888,0.00323,0.00000,0.00000,-0.01659,0.04262,0.01874,-0.00833,-0.00054,-0.00122,-0.06429,0.98771,0.34421,0.00000,0.51228,0.52493,-0.00292,0.00917,0.26787,-0.03962,0.14826,1.74712,1.74712,A,123908.50
0.35819,57.68785142,11.98138162,57.68785267,11.98138100,12:39:08.675225,0.00317,0.00000,0.00000,-0.01716,0.04262,0.01813,-0.00710,-0.00023,-0.04496,-0.04526,0.98576,0.35455,0.00000,0.51228,0.52493,-0.00292,0.00917,0.26787,-0.03962,0.14826,1.74712,1.74712,A,123908.50
0.38415,57.68785142,11.98138162,57.68785333,11.98138033,12:39:08.701186,0.01858,0.00000,0.00000,-0.01751,0.04262,0.01401,0.00038,-0.00130,-0.04599,-0.02879,0.99326,0.36517,0.00000,0.51228,0.52493,-0.00292,0.00917,0.38037,-0.07925,0.22239,2.06169,2.06169,A,123908.60
0.40262,57.68785151,11.98138155,57.68785333,11.98138033,12:39:08.719648,0.00759,0.00000,0.00000,-0.01725,0.04262,0.02042,-0.00634,0.00664,0.03300,-0.02080,0.97191,0.39668,0.00000,0.74279,0.75545,-0.00674,0.01983,0.38037,-0.07925,0.22239,2.06169,2.06169,A,123908.60
0.40854,57.68785151,11.98138155,57.68785333,11.98138033,12:39:08.725572,0.00297,0.00000,0.00000,-0.01742,0.04262,0.01981,-0.00970,0.00252,0.00909,-0.01787,0.98271,0.40491,0.00000,0.74279,0.75545,-0.00674,0.01983,0.38037,-0.07925,0.22239,2.06169,2.06169,A,123908.60
0.41914,57.68785151,11.98138155,57.68785333,11.98138033,12:39:08.736168,0.00318,0.00000,0.00000,-0.01758,0.04262,0.02409,-0.01107,0.00007,-0.04612,-0.02428,1.01510,0.41551,0.00000,0.74279,0.75545,-0.00674,0.01983,0.38037,-0.07925,0.22239,2.06169,2.06169,A,123908.60
0.42955,57.68785151,11.98138155,57.68785333,11.98138033,12:39:08.746598,0.00319,0.00000,0.00000,-0.01796,0.04262,0.01966,-0.00451,0.00023,-0.04959,-0.03562,1.01498,0.42569,0.00000,0.74279,0.75545,-0.00674,0.01983,0.38037,-0.07925,0.22239,2.06169,2.06169,A,123908.60
0.44016,57.68785151,11.98138155,57.68785333,11.98138033,12:39:08.757191,0.00340,0.00000,0.00000,-0.01826,0.04262,0.01676,0.00099,-0.00207,0.00885,-0.02898,1.00339,0.43652,0.00000,0.74279,0.75545,-0.00674,0.01983,0.38037,-0.07925,0.22239,2.06169,2.06169,A,123908.60
0.45043,57.68785151,11.98138155,57.68785333,11.98138033,12:39:08.767465,0.00326,0.00000,0.00000,-0.01844,0.04262,0.01844,-0.00542,0.00038,0.02428,-0.02080,0.98674,0.44677,0.00000,0.74279,0.75545,-0.00674,0.01983,0.38037,-0.07925,0.22239,2.06169,2.06169,A,123908.60
0.46060,57.68785151,11.98138155,57.68785333,11.98138033,12:39:08.777628,0.00300,0.00000,0.00000,-0.01848,0.04262,0.01538,-0.00634,-0.00145,0.00647,-0.01068,0.98759,0.45696,0.00000,0.74279,0.75545,-0.00674,0.01983,0.38037,-0.07925,0.22239,2.06169,2.06169,A,123908.60
0.47105,57.68785151,11.98138155,57.68785333,11.98138033,12:39:08.788080,0.00320,0.00000,0.00000,-0.01867,0.04262,0.02057,-0.00741,0.00023,-0.03270,-0.02434,1.00571,0.46742,0.00000,0.74279,0.75545,-0.00674,0.01983,0.38037,-0.07925,0.22239,2.06169,2.06169,A,123908.60
0.49637,57.68785151,11.98138155,57.68785400,11.98138033,12:39:08.813399,0.01812,0.00000,0.00000,-0.01907,0.04262,0.02057,-0.00649,0.00450,-0.06795,-0.03745,0.99320,0.47756,0.00000,0.74279,0.75545,-0.00674,0.01983,0.49265,-0.07925,0.29652,1.57080,1.57080,A,123908.70
0.50988,57.68785164,11.98138149,57.68785400,11.98138033,12:39:08.826925,0.00747,0.00000,0.00000,-0.01885,0.04262,0.01966,-0.00405,0.00465,0.01818,-0.01641,0.97789,0.50354,0.00000,0.86509,0.87775,-0.01036,0.03367,0.49265,-0.07925,0.29652,1.57080,1.57080,A,123908.70
0.51599,57.68785164,11.98138149,57.68785400,11.98138033,12:39:08.833016,0.00318,0.00000,0.00000,-0.01892,0.04262,0.01599,-0.01031,0.00404,0.01013,-0.01208,0.98387,0.51237,0.00000,0.86509,0.87775,-0.01036,0.03367,0.49265,-0.07925,0.29652,1.57080,1.57080,A,123908.70
0.52638,57.68785164,11.98138149,57.68785400,11.98138033,12:39:08.843409,0.00317,0.00000,0.00000,-0.01920,0.04262,0.02454,-0.00741,0.00450,-0.02879,-0.03294,0.99436,0.52274,0.00000,0.86509,0.87775,-0.01036,0.03367,0.49265,-0.07925,0.29652,1.57080,1.57080,A,123908.70
0.53658,57.68785164,11.98138149,57.68785400,11.98138033,12:39:08.853605,0.00299,0.00000,0.00000,-0.01941,0.04262,0.02103,-0.00909,0.00572,-0.03349,-0.02605,0.98887,0.53295,0.00000,0.86509,0.87775,-0.01036,0.03367,0.49265,-0.07925,0.29652,1.57080,1.57080,A,123908.70
0.54731,57.68785164,11.98138149,57.68785400,11.98138033,12:39:08.864342,0.00332,0.00000,0.00000,-0.01980,0.04262,0.02073,-0.00955,0.00450,-0.00110,-0.03831,0.98789,0.54352,0.00000,0.86509,0.87775,-0.01036,0.03367,0.49265,-0.07925,0.29652,1.57080,1.57080,A,123908.70
0.55757,57.68785164,11.98138149,57.68785400,11.98138033,12:39:08.874603,0.00318,0.00000,0.00000,-0.01989,0.04262,0.01477,-0.00985,0.00435,0.01372,-0.01409,0.98430,0.55373,0.00000,0.86509,0.87775,-0.01036,0.03367,0.49265,-0.07925,0.29652,1.57080,1.57080,A,123908.70
0.56819,57.68785164,11.98138149,57.68785400,11.98138033,12:39:08.885229,0.00341,0.00000,0.00000,-0.01990,0.04262,0.01737,-0.02008,0.00450,0.01494,-0.01171,0.99528,0.56433,0.00000,0.86509,0.87775,-0.01036,0.03367,0.49265,-0.07925,0.29652,1.57080,1.57080,A,123908.70
0.57834,57.68785164,11.98138149,57.68785400,11.98138033,12:39:08.895366,0.00315,0.00000,0.00000,-0.02005,0.04262,0.01996,-0.01718,0.00420,-0.02184,-0.02220,1.00266,0.57470,0.00000,0.86509,0.87775,-0.01036,0.03367,0.49265,-0.07925,0.29652,1.57080,1.57080,A,123908.70
0.58860,57.68785164,11.98138149,57.68785400,11.98138033,12:39:08.905630,0.00300,0.00000,0.00000,-0.02038,0.04262,0.01737,-0.00833,0.00389,-0.04404,-0.03355,1.01638,0.58496,0.00000,0.86509,0.87775,-0.01036,0.03367,0.49265,-0.07925,0.29652,1.57080,1.57080,A,123908.70
0.61589,57.68785164,11.98138149,57.68785467,11.98137950,12:39:08.932965,0.01989,0.00000,0.00000,-0.02091,0.04262,0.01752,0.00191,0.00374,-0.03825,-0.04642,0.99204,0.59554,0.00000,0.86509,0.87775,-0.01036,0.03367,0.61068,-0.12878,0.37065,2.15984,2.15984,A,123908.80
0.63173,57.68785179,11.98138139,57.68785467,11.98137950,12:39:08.948764,0.00638,0.00000,0.00000,-0.02069,0.04262,0.00622,-0.00512,0.00236,0.00988,0.00256,0.98838,0.62581,0.00000,1.05740,1.07006,-0.01629,0.05052,0.61068,-0.12878,0.37065,2.15984,2.15984,A,123908.80
0.63913,57.68785179,11.98138139,57.68785467,11.98137950,12:39:08.956168,0.00339,0.00000,0.00000,-0.02078,0.04262,0.00439,-0.00451,0.00603,-0.04117,-0.00860,1.01608,0.63531,0.00000,1.05740,1.07006,-0.01629,0.05052,0.61068,-0.12878,0.37065,2.15984,2.15984,A,123908.80
0.64934,57.68785179,11.98138139,57.68785467,11.98137950,12:39:08.966390,0.00338,0.00000,0.00000,-0.02080,0.04262,0.00866,-0.00390,0.00160,-0.03172,-0.00732,1.03956,0.64551,0.00000,1.05740,1.07006,-0.01629,0.05052,0.61068,-0.12878,0.37065,2.15984,2.15984,A,123908.80
0.65956,57.68785179,11.98138139,57.68785467,11.98137950,12:39:08.976585,0.00320,0.00000,0.00000,-0.02107,0.04262,0.00836,0.00374,-0.00298,-0.01055,-0.02416,1.02230,0.65594,0.00000,1.05740,1.07006,-0.01629,0.05052,0.61068,-0.12878,0.37065,2.15984,2.15984,A,123908.80
0.67023,57.68785179,11.98138139,57.68785467,11.98137950,12:39:08.987259,0.00346,0.00000,0.00000,-0.02156,0.04262,0.00209,0.00572,-0.00268,0.03050,-0.03410,0.99918,0.66657,0.00000,1.05740,1.07006,-0.01629,0.05052,0.61068,-0.12878,0.37065,2.15984,2.15984,A,123908.80
0.68033,57.68785179,11.98138139,57.68785467,11.98137950,12:39:08.997357,0.00299,0.00000,0.00000,-0.02195,0.04262,0.00118,-0.00695,-0.00329,0.00317,-0.02721,0.99528,0.67670,0.00000,1.05740,1.07006,-0.01629,0.05052,0.61068,-0.12878,0.37065,2.15984,2.15984,A,123908.80
0.69093,57.68785179,11.98138139,57.68785467,11.98137950,12:39:09.007953,0.00318,0.00000,0.00000,-0.02207,0.04262,-0.00218,-0.00603,0.00084,-0.06338,-0.00708,1.01150,0.68730,0.00000,1.05740,1.07006,-0.01629,0.05052,0.61068,-0.12878,0.37065,2.15984,2.15984,A,123908.80
0.70100,57.68785179,11.98138139,57.68785467,11.98137950,12:39:09.018329,0.00303,0.00000,0.00000,-0.02227,0.04262,0.00072,0.00481,0.00007,-0.05191,-0.01555,1.02138,0.69736,0.00000,1.05740,1.07006,-0.01629,0.05052,0.61068,-0.12878,0.37065,2.15984,2.15984,A,123908.80
0.72794,57.68785179,11.98138139,57.68785533,11.98137883,12:39:09.045006,0.01957,0.00000,0.00000,-0.02281,0.04262,0.00209,0.00695,0.00068,-0.00665,-0.03825,0.99643,0.70810,0.00000,1.05740,1.07006,-0.01629,0.05052,0.72323,-0.16841,0.44478,2.06169,2.06169,A,123908.90
0.74297,57.68785196,11.98138126,57.68785533,11.98137883,12:39:09.060130,0.00774,0.00000,0.00000,-0.02328,0.04262,-0.00692,0.00145,0.00190,-0.02898,-0.02001,0.97142,0.73657,0.00000,1.20615,1.21881,-0.02389,0.07023,0.72323,-0.16841,0.44478,2.06169,2.06169,A,123908.90
0.74850,57.68785196,11.98138126,57.68785533,11.98137883,12:39:09.065535,0.00305,0.00000,0.00000,-0.02367,0.04262,-0.00524,0.00603,0.00145,-0.06643,-0.02470,0.98082,0.74487,0.00000,1.20615,1.21881,-0.02389,0.07023,0.72323,-0.16841,0.44478,2.06169,2.06169,A,123908.90
0.75901,57.68785196,11.98138126,57.68785533,11.98137883,12:39:09.076049,0.00316,0.00000,0.00000,-0.02420,0.04262,-0.00630,0.01168,-0.00069,-0.02586,-0.03331,0.98192,0.75538,0.00000,1.20615,1.21881,-0.02389,0.07023,0.72323,-0.16841,0.44478,2.06169,2.06169,A,123908.90
0.76965,57.68785196,11.98138126,57.68785533,11.98137883,12:39:09.086691,0.00341,0.00000,0.00000,-0.02462,0.04262,-0.01577,0.01153,-0.00512,0.02007,-0.01989,0.97661,0.76580,0.00000,1.20615,1.21881,-0.02389,0.07023,0.72323,-0.16841,0.44478,2.06169,2.06169,A,123908.90
0.77994,57.68785196,11.98138126,57.68785533,11.98137883,12:39:09.096969,0.00330,0.00000,0.00000,-0.02488,0.04262,-0.01150,0.00236,-0.00481,0.05057,-0.01263,0.98771,0.77631,0.00000,1.20615,1.21881,-0.02389,0.07023,0.72323,-0.16841,0.44478,2.06169,2.06169,A,123908.90
0.79021,57.68785196,11.98138126,57.68785533,11.98137883,12:39:09.107240,0.00317,0.00000,0.00000,-0.02509,0.04262,-0.01425,-0.00497,-0.00436,0.01879,-0.00811,0.97539,0.78656,0.00000,1.20615,1.21881,-0.02389,0.07023,0.72323,-0.16841,0.44478,2.06169,2.06169,A,123908.90
0.80069,57.68785196,11.98138126,57.68785533,11.98137883,12:39:09.117720,0.00310,0.00000,0.00000,-0.02563,0.04262,-0.01134,-0.00512,-0.00619,-0.01854,-0.03160,0.99259,0.79705,0.00000,1.20615,1.21881,-0.02389,0.07023,0.72323,-0.16841,0.44478,2.06169,2.06169,A,123908.90
0.81114,57.68785196,11.98138126,57.68785533,11.98137883,12:39:09.128169,0.00316,0.00000,0.00000,-0.02645,0.04262,-0.01364,0.00023,-0.00420,-0.08784,-0.05142,1.02358,0.80751,0.00000,1.20615,1.21881,-0.02389,0.07023,0.72323,-0.16841,0.44478,2.06169,2.06169,A,123908.90
0.82160,57.68785196,11.98138126,57.68785533,11.98137883,12:39:09.138637,0.00322,0.00000,0.00000,-0.02713,0.04262,-0.01409,0.00298,-0.00268,-0.01086,-0.04209,1.01181,0.81770,0.00000,1.20615,1.21881,-0.02389,0.07023,0.72323,-0.16841,0.44478,2.06169,2.06169,A,123908.90
0.85821,57.68785196,11.98138126,57.68785700,11.98137783,12:39:09.175245,0.02943,0.00000,0.00000,-0.02741,0.04262,-0.01898,-0.00176,-0.00420,0.06472,-0.01104,0.98442,0.82835,0.00000,1.20615,1.21881,-0.02389,0.07023,0.85427,-0.22784,0.63010,1.88115,1.88115,A,123909.10
0.87022,57.68785222,11.98138109,57.68785700,11.98137783,12:39:09.187264,0.00707,0.00000,0.00000,-0.02843,0.04262,-0.01348,-0.01443,-0.00039,-0.11651,-0.04429,1.01175,0.86273,0.00000,1.30550,1.31816,-0.03409,0.09822,0.85427,-0.22784,0.63010,1.88115,1.88115,A,123909.10
0.87658,57.68785222,11.98138109,57.68785700,11.98137783,12:39:09.193605,0.00298,0.00000,0.00000,-0.02888,0.04262,-0.01699,0.00099,-0.00527,-0.04788,-0.02623,1.00668,0.87295,0.00000,1.30550,1.31816,-0.03409,0.09822,0.85427,-0.22784,0.63010,1.88115,1.88115,A,123909.10
0.88715,57.68785222,11.98138109,57.68785700,11.98137783,12:39:09.204180,0.00316,0.00000,0.00000,-0.02946,0.04262,-0.01699,0.00572,-0.00298,0.07790,-0.03318,0.94635,0.88353,0.00000,1.30550,1.31816,-0.03409,0.09822,0.85427,-0.22784,0.63010,1.88115,1.88115,A,123909.10
0.89754,57.68785222,11.98138109,57.68785700,11.98137783,12:39:09.214588,0.00315,0.00000,0.00000,-0.02954,0.04262,-0.01669,-0.01642,-0.00313,0.03569,-0.00238,0.94751,0.89370,0.00000,1.30550,1.31816,-0.03409,0.09822,0.85427,-0.22784,0.63010,1.88115,1.88115,A,123909.10
0.90811,57.68785222,11.98138109,57.68785700,11.98137783,12:39:09.225132,0.00332,0.00000,0.00000,-0.02979,0.04262,-0.01272,-0.02665,-0.00497,-0.00525,-0.01525,0.95489,0.90448,0.00000,1.30550,1.31816,-0.03409,0.09822,0.85427,-0.22784,0.63010,1.88115,1.88115,A,123909.10
0.91833,57.68785222,11.98138109,57.68785700,11.98137783,12:39:09.235362,0.00315,0.00000,0.00000,-0.03008,0.04262,-0.01715,-0.02864,-0.00344,-0.11541,-0.01653,1.00223,0.91470,0.00000,1.30550,1.31816,-0.03409,0.09822,0.85427,-0.22784,0.63010,1.88115,1.88115,A,123909.10
0.92860,57.68785222,11.98138109,57.68785700,11.98137783,12:39:09.245626,0.00300,0.00000,0.00000,-0.03080,0.04262,-0.01364,-0.00741,-0.00619,-0.03562,-0.04831,0.99918,0.92497,0.00000,1.30550,1.31816,-0.03409,0.09822,0.85427,-0.22784,0.63010,1.88115,1.88115,A,123909.10
0.93917,57.68785222,11.98138109,57.68785700,11.98137783,12:39:09.256207,0.00317,0.00000,0.00000,-0.03149,0.04262,-0.01730,-0.00145,-0.00466,-0.02483,-0.04343,0.99625,0.93554,0.00000,1.30550,1.31816,-0.03409,0.09822,0.85427,-0.22784,0.63010,1.88115,1.88115,A,123909.10
0.94955,57.68785222,11.98138109,57.68785700,11.98137783,12:39:09.266590,0.00315,0.00000,0.00000,-0.03211,0.04262,-0.01730,-0.00222,-0.00359,0.06130,-0.03953,0.98777,0.94571,0.00000,1.30550,1.31816,-0.03409,0.09822,0.85427,-0.22784,0.63010,1.88115,1.88115,A,123909.10
0.97548,57.68785222,11.98138109,57.68785750,11.98137733,12:39:09.292519,0.01868,0.00000,0.00000,-0.03276,0.04262,-0.02097,-0.02085,-0.00344,0.01507,-0.04081,1.01894,0.95633,0.00000,1.30550,1.31816,-0.03409,0.09822,0.97172,-0.25756,0.68570,2.06169,2.06169,A,123909.20
0.98593,57.68785248,11.98138091,57.68785750,11.98137733,12:39:09.302959,0.00554,0.00000,0.00000,-0.03308,0.04262,-0.02005,-0.00497,0.00160,-0.08131,-0.00213,1.01760,0.98003,0.00000,1.41703,1.42969,-0.04526,0.12760,0.97172,-0.25756,0.68570,2.06169,2.06169,A,123909.20
0.99396,57.68785248,11.98138091,57.68785750,11.98137733,12:39:09.310982,0.00316,0.00000,0.00000,-0.03346,0.04262,-0.01761,-0.00115,0.00190,0.01915,-0.02519,0.98814,0.99031,0.00000,1.41703,1.42969,-0.04526,0.12760,0.97172,-0.25756,0.68570,2.06169,2.06169,A,123909.20
1.00648,57.68785248,11.98138091,57.68785750,11.98137733,12:39:09.323515,0.00425,0.00000,0.00000,-0.03404,0.04262,-0.02097,-0.00252,-0.00161,0.04313,-0.03318,0.98112,1.00281,0.00000,1.41703,1.42969,-0.04526,0.12760,0.97172,-0.25756,0.68570,2.06169,2.06169,A,123909.20
1.01783,57.68785248,11.98138091,57.68785750,11.98137733,12:39:09.334870,0.00520,0.00000,0.00000,-0.03464,0.04262,-0.01684,-0.00405,-0.00069,-0.05435,-0.04093,1.01065,1.01396,0.00000,1.41703,1.42969,-0.04526,0.12760,0.97172,-0.25756,0.68570,2.06169,2.06169,A,123909.20
1.02667,57.68785248,11.98138091,57.68785750,11.98137733,12:39:09.343698,0.00329,0.00000,0.00000,-0.03512,0.04262,-0.02158,0.00542,-0.00420,-0.07777,-0.03349,1.01516,1.02301,0.00000,1.41703,1.42969,-0.04526,0.12760,0.97172,-0.25756,0.68570,2.06169,2.06169,A,123909.20
1.03663,57.68785248,11.98138091,57.68785750,11.98137733,12:39:09.353664,0.00300,0.00000,0.00000,-0.03594,0.04262,-0.02112,0.01046,-0.00649,-0.03623,-0.05429,0.99723,1.03299,0.00000,1.41703,1.42969,-0.04526,0.12760,0.97172,-0.25756,0.68570,2.06169,2.06169,A,123909.20
1.04734,57.68785248,11.98138091,57.68785750,11.98137733,12:39:09.364363,0.00331,0.00000,0.00000,-0.03649,0.04262,-0.02219,0.00970,-0.01047,0.01257,-0.03514,0.96636,1.04371,0.00000,1.41703,1.42969,-0.04526,0.12760,0.97172,-0.25756,0.68570,2.06169,2.06169,A,123909.20
1.05772,57.68785248,11.98138091,57.68785750,11.98137733,12:39:09.374760,0.00330,0.00000,0.00000,-0.03626,0.04262,-0.01974,0.00175,-0.01092,0.05856,0.01238,0.96203,1.05374,0.00000,1.41703,1.42969,-0.04526,0.12760,0.97172,-0.25756,0.68570,2.06169,2.06169,A,123909.20
1.06800,57.68785248,11.98138091,57.68785750,11.98137733,12:39:09.385028,0.00318,0.00000,0.00000,-0.03652,0.04262,-0.01532,-0.01550,-0.00420,-0.03965,-0.02141,0.98533,1.06436,0.00000,1.41703,1.42969,-0.04526,0.12760,0.97172,-0.25756,0.68570,2.06169,2.06169,A,123909.20
1.09464,57.68785248,11.98138091,57.68785850,11.98137667,12:39:09.412225,0.01942,0.00000,0.00000,-0.03685,0.04262,-0.01211,-0.00573,-0.00344,-0.06191,-0.02989,1.01583,1.07476,0.00000,1.41703,1.42969,-0.04526,0.12760,1.08988,-0.29719,0.79690,1.91312,1.91312,A,123909.30
1.10863,57.68785278,11.98138069,57.68785850,11.98137667,12:39:09.425660,0.00672,0.00000,0.00000,-0.03703,0.04262,-0.00371,0.01535,0.00084,0.02458,-0.02147,1.02169,1.10298,0.00000,1.48954,1.50220,-0.05786,0.16106,1.08988,-0.29719,0.79690,1.91312,1.91312,A,123909.30
1.11560,57.68785278,11.98138069,57.68785850,11.98137667,12:39:09.432627,0.00322,0.00000,0.00000,-0.03695,0.04262,-0.00508,0.01351,-0.00115,0.00415,-0.00769,1.03157,1.11195,0.00000,1.48954,1.50220,-0.05786,0.16106,1.08988,-0.29719,0.79690,1.91312,1.91312,A,123909.30
1.12595,57.68785278,11.98138069,57.68785850,11.98137667,12:39:09.442972,0.00317,0.00000,0.00000,-0.03680,0.04262,0.00026,0.01015,-0.00176,-0.00085,-0.00641,1.01437,1.12230,0.00000,1.48954,1.50220,-0.05786,0.16106,1.08988,-0.29719,0.79690,1.91312,1.91312,A,123909.30
1.13634,57.68785278,11.98138069,57.68785850,11.98137667,12:39:09.453371,0.00300,0.00000,0.00000,-0.03744,0.04262,0.00148,0.01015,-0.00268,-0.07582,-0.05862,0.99235,1.13271,0.00000,1.48954,1.50220,-0.05786,0.16106,1.08988,-0.29719,0.79690,1.91312,1.91312,A,123909.30
1.14693,57.68785278,11.98138069,57.68785850,11.98137667,12:39:09.463956,0.00319,0.00000,0.00000,-0.03800,0.04262,-0.00676,0.01015,-0.00711,-0.02013,-0.04776,0.96234,1.14329,0.00000,1.48954,1.50220,-0.05786,0.16106,1.08988,-0.29719,0.79690,1.91312,1.91312,A,123909.30
1.15698,57.68785278,11.98138069,57.68785850,11.98137667,12:39:09.474211,0.00301,0.00000,0.00000,-0.03846,0.04262,-0.00890,0.00710,-0.01031,0.02702,-0.03886,0.94416,1.15334,0.00000,1.48954,1.50220,-0.05786,0.16106,1.08988,-0.29719,0.79690,1.91312,1.91312,A,123909.30
1.16756,57.68785278,11.98138069,57.68785850,11.98137667,12:39:09.484587,0.00318,0.00000,0.00000,-0.03844,0.04262,-0.00753,-0.00435,-0.01001,0.05453,-0.01037,0.95538,1.16393,0.00000,1.48954,1.50220,-0.05786,0.16106,1.08988,-0.29719,0.79690,1.91312,1.91312,A,123909.30
1.17798,57.68785278,11.98138069,57.68785850,11.98137667,12:39:09.495006,0.00320,0.00000,0.00000,-0.03832,0.04262,-0.00218,-0.02268,-0.00924,0.00531,-0.00775,0.98326,1.17433,0.00000,1.48954,1.50220,-0.05786,0.16106,1.08988,-0.29719,0.79690,1.91312,1.91312,A,123909.30
1.18834,57.68785278,11.98138069,57.68785850,11.98137667,12:39:09.505375,0.00299,0.00000,0.00000,-0.03847,0.04262,-0.00035,-0.02222,-0.00802,-0.08680,-0.02812,1.02242,1.18471,0.00000,1.48954,1.50220,-0.05786,0.16106,1.08988,-0.29719,0.79690,1.91312,1.91312,A,123909.30
1.21411,57.68785278,11.98138069,57.68785917,11.98137567,12:39:09.531145,0.01836,0.00000,0.00000,-0.03899,0.04262,0.00713,-0.00939,-0.00237,-0.06490,-0.05838,1.02029,1.19530,0.00000,1.48954,1.50220,-0.05786,0.16106,1.21033,-0.35662,0.87103,2.24663,2.24663,A,123909.40
1.22980,57.68785310,11.98138044,57.68785917,11.98137567,12:39:09.546843,0.00757,0.00000,0.00000,-0.03874,0.04262,0.00866,0.00450,0.00206,-0.00165,-0.01739,1.02004,1.22342,0.00000,1.60121,1.61387,-0.07280,0.19656,1.21033,-0.35662,0.87103,2.24663,2.24663,A,123909.40
1.23586,57.68785310,11.98138044,57.68785917,11.98137567,12:39:09.552879,0.00322,0.00000,0.00000,-0.03848,0.04262,0.01034,0.00068,0.00603,-0.00531,-0.00622,1.00052,1.23222,0.00000,1.60121,1.61387,-0.07280,0.19656,1.21033,-0.35662,0.87103,2.24663,2.24663,A,123909.40
1.24619,57.68785310,11.98138044,57.68785917,11.98137567,12:39:09.563213,0.00316,0.00000,0.00000,-0.03831,0.04262,0.01370,-0.00222,0.00282,-0.04465,-0.01555,0.99875,1.24256,0.00000,1.60121,1.61387,-0.07280,0.19656,1.21033,-0.35662,0.87103,2.24663,2.24663,A,123909.40
1.25656,57.68785310,11.98138044,57.68785917,11.98137567,12:39:09.573580,0.00299,0.00000,0.00000,-0.03824,0.04262,0.01752,0.00007,0.00084,-0.04117,-0.02336,0.96654,1.25293,0.00000,1.60121,1.61387,-0.07280,0.19656,1.21033,-0.35662,0.87103,2.24663,2.24663,A,123909.40
1.26714,57.68785310,11.98138044,57.68785917,11.98137567,12:39:09.584165,0.00316,0.00000,0.00000,-0.03840,0.04262,0.01813,0.00771,-0.00588,0.03709,-0.03721,0.90603,1.26350,0.00000,1.60121,1.61387,-0.07280,0.19656,1.21033,-0.35662,0.87103,2.24663,2.24663,A,123909.40
1.27762,57.68785310,11.98138044,57.68785917,11.98137567,12:39:09.594661,0.00333,0.00000,0.00000,-0.03861,0.04262,0.01340,-0.00588,-0.00481,0.00030,-0.03526,0.88078,1.27377,0.00000,1.60121,1.61387,-0.07280,0.19656,1.21033,-0.35662,0.87103,2.24663,2.24663,A,123909.40
1.28789,57.68785310,11.98138044,57.68785917,11.98137567,12:39:09.604915,0.00319,0.00000,0.00000,-0.03867,0.04262,0.01492,-0.00298,-0.00787,-0.05826,-0.03117,0.97313,1.28426,0.00000,1.60121,1.61387,-0.07280,0.19656,1.21033,-0.35662,0.87103,2.24663,2.24663,A,123909.40
1.29827,57.68785310,11.98138044,57.68785917,11.98137567,12:39:09.615294,0.00318,0.00000,0.00000,-0.03848,0.04262,0.02286,0.00634,-0.01092,-0.10218,-0.02129,1.02712,1.29463,0.00000,1.60121,1.61387,-0.07280,0.19656,1.21033,-0.35662,0.87103,2.24663,2.24663,A,123909.40
1.30858,57.68785310,11.98138044,57.68785917,11.98137567,12:39:09.625608,0.00298,0.00000,0.00000,-0.03919,0.04262,0.01935,0.01809,-0.01031,0.03013,-0.07893,1.01205,1.30495,0.00000,1.60121,1.61387,-0.07280,0.19656,1.21033,-0.35662,0.87103,2.24663,2.24663,A,123909.40
1.33541,57.68785310,11.98138044,57.68785950,11.98137500,12:39:09.652443,0.01941,0.00000,0.00000,-0.03927,0.04262,0.01217,0.00557,-0.00527,0.07533,-0.03288,1.03651,1.31567,0.00000,1.60121,1.61387,-0.07280,0.19656,1.33101,-0.39625,0.90809,2.38956,2.38956,A,123909.50
1.34850,57.68785342,11.98138017,57.68785950,11.98137500,12:39:09.665546,0.00640,0.00000,0.00000,-0.03839,0.04262,0.03142,-0.00038,0.00725,-0.03873,-0.01568,1.03505,1.34266,0.00000,1.71756,1.73022,-0.08897,0.23214,1.33101,-0.39625,0.90809,2.38956,2.38956,A,123909.50
1.35571,57.68785342,11.98138017,57.68785950,11.98137500,12:39:09.672729,0.00320,0.00000,0.00000,-0.03847,0.04262,0.03096,0.00404,0.01000,0.03782,-0.03959,0.94495,1.35207,0.00000,1.71756,1.73022,-0.08897,0.23214,1.33101,-0.39625,0.90809,2.38956,2.38956,A,123909.50
1.36609,57.68785342,11.98138017,57.68785950,11.98137500,12:39:09.683116,0.00318,0.00000,0.00000,-0.03844,0.04262,0.03371,-0.01123,0.00862,0.01964,-0.03587,0.93946,1.36244,0.00000,1.71756,1.73022,-0.08897,0.23214,1.33101,-0.39625,0.90809,2.38956,2.38956,A,123909.50
1.37644,57.68785342,11.98138017,57.68785950,11.98137500,12:39:09.693461,0.00299,1.16544,1.16544,-0.03824,0.04262,0.03951,-0.01520,0.01183,0.00256,-0.02477,0.94739,1.37281,0.00000,1.71756,1.73022,-0.08897,0.23214,1.33101,-0.39625,0.90809,2.38956,2.38956,A,123909.50
1.38703,57.68785342,11.98138017,57.68785950,11.98137500,12:39:09.704056,0.00318,1.16544,1.16544,-0.03764,0.04262,0.03065,-0.01489,0.01015,-0.04441,0.00695,0.96288,1.38340,0.00000,1.71756,1.73022,-0.08897,0.23214,1.33101,-0.39625,0.90809,2.38956,2.38956,A,123909.50
1.39711,57.68785342,11.98138017,57.68785950,11.98137500,12:39:09.714362,0.00304,1.16544,1.16544,-0.03767,0.04262,0.04226,-0.00955,0.00862,-0.06289,-0.04056,0.98057,1.39347,0.00000,1.71756,1.73022,-0.08897,0.23214,1.33101,-0.39625,0.90809,2.38956,2.38956,A,123909.50
1.40767,57.68785342,11.98138017,57.68785950,11.98137500,12:39:09.724695,0.00319,1.16544,1.16544,-0.03767,0.04262,0.03340,-0.00084,0.01275,-0.05557,-0.03581,1.01510,1.40404,0.00000,1.71756,1.73022,-0.08897,0.23214,1.33101,-0.39625,0.90809,2.38956,2.38956,A,123909.50
1.41808,57.68785342,11.98138017,57.68785950,11.98137500,12:39:09.735104,0.00320,1.16544,1.16544,-0.03784,0.04268,0.04012,0.01367,0.00649,-0.00628,-0.05081,1.01876,1.41443,0.00000,1.71756,1.73022,-0.08897,0.23214,1.33101,-0.39625,0.90809,2.38956,2.38956,A,123909.50
1.42844,57.68785342,11.98138017,57.68785950,11.98137500,12:39:09.745472,0.00299,1.16544,1.16544,-0.03782,0.04299,0.02775,0.01305,0.00664,0.02422,-0.03123,1.05152,1.42481,0.00000,1.71756,1.73022,-0.08897,0.23214,1.33101,-0.39625,0.90809,2.38956,2.38956,A,123909.50
1.46612,57.68785342,11.98138017,57.68786117,11.98137383,12:39:09.783158,0.03027,1.16544,1.16544,-0.03719,0.04350,0.03707,0.00970,0.01107,-0.01580,0.00482,1.05774,1.43538,0.00000,1.71756,1.73022,-0.08897,0.23214,1.46268,-0.46559,1.09342,1.92884,1.92884,A,123909.70
1.47843,57.68785381,11.98137985,57.68786117,11.98137383,12:39:09.795452,0.00703,10.11923,1.16544,-0.03590,0.04619,0.03493,-0.01489,0.00465,-0.03160,-0.00988,0.99216,1.47254,0.23309,1.74720,1.76091,-0.10780,0.27520,1.46268,-0.46559,1.09342,1.92884,1.92884,A,123909.70
1.48675,57.68785381,11.98137985,57.68786117,11.98137383,12:39:09.803778,0.00512,10.11923,1.16544,-0.03574,0.04684,0.03630,-0.00665,0.00358,-0.06966,-0.02409,0.99704,1.48309,0.23309,1.74720,1.76091,-0.10780,0.27520,1.46268,-0.46559,1.09342,1.92884,1.92884,A,123909.70
1.49808,57.68785381,11.98137985,57.68786117,11.98137383,12:39:09.815117,0.00606,10.11923,1.16544,-0.03554,0.04741,0.03982,-0.00542,0.00649,-0.05850,-0.02458,0.98466,1.49441,0.23309,1.74720,1.76091,-0.10780,0.27520,1.46268,-0.46559,1.09342,1.92884,1.92884,A,123909.70
1.50813,57.68785381,11.98137985,57.68786117,11.98137383,12:39:09.825154,0.00570,10.11923,1.16544,-0.03532,0.04783,0.04272,-0.00115,0.01183,0.04362,-0.02123,0.95258,1.50448,0.23309,1.74720,1.76091,-0.10780,0.27520,1.46268,-0.46559,1.09342,1.92884,1.92884,A,123909.70
1.51807,57.68785381,11.98137985,57.68786117,11.98137383,12:39:09.835098,0.00524,10.11923,1.16544,-0.03530,0.04809,0.03523,-0.00955,0.01595,-0.05789,-0.03019,1.00363,1.51441,0.23309,1.74720,1.76091,-0.10780,0.27520,1.46268,-0.46559,1.09342,1.92884,1.92884,A,123909.70
1.52824,57.68785381,11.98137985,57.68786117,11.98137383,12:39:09.845263,0.00501,10.11923,1.16544,-0.03495,0.04820,0.04348,-0.00390,0.02130,-0.02245,-0.01470,1.03938,1.52458,0.23309,1.74720,1.76091,-0.10780,0.27520,1.46268,-0.46559,1.09342,1.92884,1.92884,A,123909.70
1.53886,57.68785381,11.98137985,57.68786117,11.98137383,12:39:09.855899,0.00527,10.11923,1.16544,-0.03445,0.04820,0.04318,-0.00145,0.01733,-0.06222,-0.00537,1.03310,1.53520,0.23309,1.74720,1.76091,-0.10780,0.27520,1.46268,-0.46559,1.09342,1.92884,1.92884,A,123909.70
1.54947,57.68785381,11.98137985,57.68786117,11.98137383,12:39:09.866513,0.00548,10.11923,1.16544,-0.03393,0.04820,0.04455,0.00374,0.01305,-0.00512,-0.00317,1.01632,1.54547,0.23309,1.74720,1.76091,-0.10780,0.27520,1.46268,-0.46559,1.09342,1.92884,1.92884,A,123909.70
1.55991,57.68785381,11.98137985,57.68786117,11.98137383,12:39:09.876937,0.00552,10.11923,1.16544,-0.03393,0.04820,0.04073,-0.00359,0.01168,0.01336,-0.03703,1.01687,1.55625,0.23309,1.74720,1.76091,-0.10780,0.27520,1.46268,-0.46559,1.09342,1.92884,1.92884,A,123909.70
1.58426,57.68785381,11.98137985,57.68786200,11.98137267,12:39:09.901291,0.01948,10.11923,1.16544,-0.03382,0.04820,0.03905,-0.00222,0.00801,-0.01702,-0.02544,0.98423,1.56639,0.23309,1.74720,1.76091,-0.10780,0.27520,1.58165,-0.53493,1.18608,2.21324,2.21324,A,123909.80
1.59614,57.68785444,11.98137941,57.68786200,11.98137267,12:39:09.913170,0.00703,10.11923,1.16544,-0.03277,0.04820,0.03676,0.00221,0.00023,-0.02757,0.00506,0.95630,1.59054,0.41956,1.81592,1.83024,-0.13401,0.34595,1.58165,-0.53493,1.18608,2.21324,2.21324,A,123909.80
1.60454,57.68785444,11.98137941,57.68786200,11.98137267,12:39:09.921568,0.00503,10.11923,1.16544,-0.03198,0.04820,0.04119,0.00023,0.00084,-0.01196,0.01739,0.93141,1.60090,0.41956,1.81592,1.83024,-0.13401,0.34595,1.58165,-0.53493,1.18608,2.21324,2.21324,A,123909.80
1.61489,57.68785444,11.98137941,57.68786200,11.98137267,12:39:09.931910,0.00515,10.11923,1.16544,-0.03215,0.04820,0.04684,-0.00497,0.00420,-0.00756,-0.04618,0.96923,1.61123,0.41956,1.81592,1.83024,-0.13401,0.34595,1.58165,-0.53493,1.18608,2.21324,2.21324,A,123909.80
1.62586,57.68785444,11.98137941,57.68786200,11.98137267,12:39:09.942920,0.00566,10.11923,1.16544,-0.03224,0.04820,0.04333,-0.00665,0.00771,-0.04301,-0.04087,0.99820,1.62164,0.41956,1.81592,1.83024,-0.13401,0.34595,1.58165,-0.53493,1.18608,2.21324,2.21324,A,123909.80
1.63570,57.68785444,11.98137941,57.68786200,11.98137267,12:39:09.952723,0.00511,10.11923,1.16544,-0.03235,0.04820,0.03768,-0.00283,0.00924,-0.04575,-0.03971,1.02212,1.63205,0.41956,1.81592,1.83024,-0.13401,0.34595,1.58165,-0.53493,1.18608,2.21324,2.21324,A,123909.80
1.64630,57.68785444,11.98137941,57.68786200,11.98137267,12:39:09.963332,0.00531,10.11923,1.16544,-0.03221,0.04820,0.03478,-0.00512,0.01076,0.01641,-0.02050,0.99094,1.64264,0.41956,1.81592,1.83024,-0.13401,0.34595,1.58165,-0.53493,1.18608,2.21324,2.21324,A,123909.80
1.65644,57.68785444,11.98137941,57.68786200,11.98137267,12:39:09.973469,0.00505,10.11923,1.16544,-0.03207,0.04820,0.03844,-0.00588,0.01153,-0.00177,-0.02184,1.02047,1.65279,0.41956,1.81592,1.83024,-0.13401,0.34595,1.58165,-0.53493,1.18608,2.21324,2.21324,A,123909.80
1.66673,57.68785444,11.98137941,57.68786200,11.98137267,12:39:09.983754,0.00511,10.11923,1.16544,-0.03170,0.04820,0.03646,-0.01749,0.01244,-0.03294,-0.00555,0.99802,1.66309,0.41956,1.81592,1.83024,-0.13401,0.34595,1.58165,-0.53493,1.18608,2.21324,2.21324,A,123909.80
1.67711,57.68785444,11.98137941,57.68786200,11.98137267,12:39:09.994362,0.00508,10.11923,1.16544,-0.03148,0.04820,0.03890,-0.01718,0.01351,-0.01135,-0.01647,0.99064,1.67345,0.41956,1.81592,1.83024,-0.13401,0.34595,1.58165,-0.53493,1.18608,2.21324,2.21324,A,123909.80
1.70402,57.68785444,11.98137941,57.68786283,11.98137200,12:39:10.021046,0.02070,10.11923,1.16544,-0.03094,0.04820,0.03936,-0.01138,0.00985,-0.04581,-0.00195,1.00058,1.68634,0.41956,1.81592,1.83024,-0.13401,0.34595,1.70140,-0.57456,1.27874,1.97489,1.97489,A,123909.90
1.71565,57.68785527,11.98137884,57.68786283,11.98137200,12:39:10.032680,0.00687,10.11923,1.16544,-0.03040,0.04820,0.03401,-0.00833,0.00404,-0.04843,-0.02037,0.99442,1.70984,0.56873,1.83947,1.85379,-0.16807,0.43794,1.70140,-0.57456,1.27874,1.97489,1.97489,A,123909.90
1.72433,57.68785527,11.98137884,57.68786283,11.98137200,12:39:10.041363,0.00515,10.11923,1.16544,-0.02999,0.04820,0.02958,-0.00023,0.00007,0.00012,0.00262,0.97600,1.72070,0.56873,1.83947,1.85379,-0.16807,0.43794,1.70140,-0.57456,1.27874,1.97489,1.97489,A,123909.90
1.73464,57.68785527,11.98137884,57.68786283,11.98137200,12:39:10.051662,0.00505,10.11923,1.16544,-0.02965,0.04820,0.03157,-0.00206,0.00114,-0.03117,-0.00165,0.97716,1.73098,0.56873,1.83947,1.85379,-0.16807,0.43794,1.70140,-0.57456,1.27874,1.97489,1.97489,A,123909.90
1.74511,57.68785527,11.98137884,57.68786283,11.98137200,12:39:10.062538,0.00513,10.11923,1.16544,-0.02948,0.04820,0.02790,-0.00680,0.00435,-0.01757,-0.01049,0.97332,1.74147,0.56873,1.83947,1.85379,-0.16807,0.43794,1.70140,-0.57456,1.27874,1.97489,1.97489,A,123909.90
1.75557,57.68785527,11.98137884,57.68786283,11.98137200,12:39:10.072592,0.00520,10.11923,1.16544,-0.02919,0.04820,0.02668,-0.00909,0.00511,0.00482,-0.00134,0.98039,1.75192,0.56873,1.83947,1.85379,-0.16807,0.43794,1.70140,-0.57456,1.27874,1.97489,1.97489,A,123909.90
1.76609,57.68785527,11.98137884,57.68786283,11.98137200,12:39:10.083129,0.00548,10.11923,1.16544,-0.02888,0.04820,0.02515,-0.02192,0.00618,-0.03117,0.00085,0.98911,1.76243,0.56873,1.83947,1.85379,-0.16807,0.43794,1.70140,-0.57456,1.27874,1.97489,1.97489,A,123909.90
1.77627,57.68785527,11.98137884,57.68786283,11.98137200,12:39:10.093293,0.00507,10.11923,1.16544,-0.02884,0.04820,0.02561,-0.01352,0.00160,-0.05136,-0.01714,1.02706,1.77262,0.56873,1.83947,1.85379,-0.16807,0.43794,1.70140,-0.57456,1.27874,1.97489,1.97489,A,123909.90
1.78870,57.68785527,11.98137884,57.68786283,11.98137200,12:39:10.105734,0.00712,10.11923,1.16544,-0.02871,0.04820,0.02164,0.00542,0.00252,-0.06954,-0.01220,1.04822,1.78505,0.56873,1.83947,1.85379,-0.16807,0.43794,1.70140,-0.57456,1.27874,1.97489,1.97489,A,123909.90
1.79706,57.68785527,11.98137884,57.68786283,11.98137200,12:39:10.114330,0.00528,10.11923,1.16544,-0.02891,0.04820,0.01324,0.01657,-0.00084,0.00738,-0.02269,1.01943,1.79341,0.56873,1.83947,1.85379,-0.16807,0.43794,1.70140,-0.57456,1.27874,1.97489,1.97489,A,123909.90
1.82139,57.68785527,11.98137884,57.68786367,11.98137117,12:39:10.138444,0.01939,10.11923,1.16544,-0.02903,0.04820,0.01691,0.01275,-0.00039,-0.01208,-0.02184,1.01480,1.80348,0.56873,1.83947,1.85379,-0.16807,0.43794,1.81858,-0.62409,1.37140,2.06169,2.06169,A,123910.00
1.83340,57.68785623,11.98137816,57.68786367,11.98137117,12:39:10.150447,0.00689,10.11923,1.16544,-0.02864,0.04820,0.01126,0.00481,-0.00207,-0.03947,0.00573,0.94703,1.82757,0.68807,1.87312,1.88744,-0.20833,0.54464,1.81858,-0.62409,1.37140,2.06169,2.06169,A,123910.00
1.84232,57.68785623,11.98137816,57.68786367,11.98137117,12:39:10.159353,0.00542,10.11923,1.16544,-0.02879,0.04820,0.00775,0.00542,-0.00359,-0.02227,-0.01610,0.95270,1.83850,0.68807,1.87312,1.88744,-0.20833,0.54464,1.81858,-0.62409,1.37140,2.06169,2.06169,A,123910.00
1.85249,57.68785623,11.98137816,57.68786367,11.98137117,12:39:10.169520,0.00519,10.11923,1.16544,-0.02860,0.04820,0.00515,0.00664,-0.00344,-0.00171,0.00732,0.96203,1.84885,0.68807,1.87312,1.88744,-0.20833,0.54464,1.81858,-0.62409,1.37140,2.06169,2.06169,A,123910.00
1.86470,57.68785623,11.98137816,57.68786367,11.98137117,12:39:10.181738,0.00634,10.11923,1.16544,-0.02850,0.04820,-0.00111,0.00313,-0.00634,-0.02025,0.00555,1.01132,1.86105,0.68807,1.87312,1.88744,-0.20833,0.54464,1.81858,-0.62409,1.37140,2.06169,2.06169,A,123910.00
1.87426,57.68785623,11.98137816,57.68786367,11.98137117,12:39:10.191287,0.00549,10.11923,1.16544,-0.02838,0.04820,0.00393,0.01183,-0.00420,-0.05746,0.00342,1.03682,1.87060,0.68807,1.87312,1.88744,-0.20833,0.54464,1.81858,-0.62409,1.37140,2.06169,2.06169,A,123910.00
1.88504,57.68785623,11.98137816,57.68786367,11.98137117,12:39:10.202295,0.00588,10.11923,1.16544,-0.02844,0.04820,0.00179,0.02604,-0.00283,-0.06149,-0.00708,1.06030,1.88053,0.68807,1.87312,1.88744,-0.20833,0.54464,1.81858,-0.62409,1.37140,2.06169,2.06169,A,123910.00
1.89823,57.68785623,11.98137816,57.68786367,11.98137117,12:39:10.215272,0.00858,10.11923,1.16544,-0.02869,0.04820,-0.00371,0.02695,-0.00237,0.00677,-0.01604,1.03639,1.89455,0.68807,1.87312,1.88744,-0.20833,0.54464,1.81858,-0.62409,1.37140,2.06169,2.06169,A,123910.00
1.90537,57.68785623,11.98137816,57.68786367,11.98137117,12:39:10.222414,0.00551,10.11923,1.16544,-0.02922,0.04820,-0.00951,0.01993,-0.00329,0.04258,-0.03392,1.02883,1.90150,0.68807,1.87312,1.88744,-0.20833,0.54464,1.81858,-0.62409,1.37140,2.06169,2.06169,A,123910.00
1.91551,57.68785623,11.98137816,57.68786367,11.98137117,12:39:10.232528,0.00525,10.11923,1.16544,-0.02914,0.04820,-0.01837,-0.00420,-0.00313,0.01013,0.01562,1.01669,1.91186,0.68807,1.87312,1.88744,-0.20833,0.54464,1.81858,-0.62409,1.37140,2.06169,2.06169,A,123910.00
1.95187,57.68785623,11.98137816,57.68786517,11.98136900,12:39:10.268910,0.03122,10.11923,1.16544,-0.02839,0.04809,-0.01486,-0.02940,-0.00756,0.03861,0.05887,1.02273,1.92228,0.68807,1.87312,1.88744,-0.20833,0.54464,1.94929,-0.75287,1.53820,2.22829,2.22829,A,123910.20
1.96588,57.68785740,11.98137726,57.68786517,11.98136900,12:39:10.282914,0.00777,10.11923,1.16544,-0.02892,0.04684,-0.01623,-0.02375,-0.01306,-0.05222,0.00256,0.94721,1.95927,0.78355,1.92765,1.94157,-0.26199,0.67499,1.94929,-0.75287,1.53820,2.22829,2.22829,A,123910.20
1.97408,57.68785740,11.98137726,57.68786517,11.98136900,12:39:10.291120,0.00556,10.11923,1.16544,-0.02962,0.04644,-0.01257,-0.01321,-0.00909,-0.10041,-0.03715,0.93867,1.97042,0.78355,1.92765,1.94157,-0.26199,0.67499,1.94929,-0.75287,1.53820,2.22829,2.22829,A,123910.20
1.98544,57.68785740,11.98137726,57.68786517,11.98136900,12:39:10.302484,0.00669,10.11923,1.16544,-0.02970,0.04613,-0.01959,0.00496,-0.00772,-0.06442,0.00604,0.92818,1.98158,0.78355,1.92765,1.94157,-0.26199,0.67499,1.94929,-0.75287,1.53820,2.22829,2.22829,A,123910.20
1.99965,57.68785740,11.98137726,57.68786517,11.98136900,12:39:10.316689,0.01032,10.11923,1.16544,-0.02969,0.04577,-0.02249,0.01748,-0.00375,-0.05996,0.01775,0.94550,1.99596,0.78355,1.92765,1.94157,-0.26199,0.67499,1.94929,-0.75287,1.53820,2.22829,2.22829,A,123910.20
2.00862,57.68785740,11.98137726,57.68786517,11.98136900,12:39:10.325648,0.00308,1.32870,1.32870,-0.02994,0.04545,-0.01211,0.01626,-0.00558,-0.03855,-0.01055,0.96917,2.00499,0.78355,1.92765,1.94157,-0.26199,0.67499,1.94929,-0.75287,1.53820,2.22829,2.22829,A,123910.20
2.02189,57.68785740,11.98137726,57.68786517,11.98136900,12:39:10.338969,0.00595,1.32870,1.32870,-0.02998,0.04500,-0.01715,0.01748,-0.01092,0.04648,0.00720,0.97996,2.01548,1.32870,2.01260,2.02597,-0.75287,1.53820,1.94929,-0.75287,1.53820,2.22829,2.22829,A,123910.20
2.02952,57.68785740,11.98137726,57.68786517,11.98136900,12:39:10.346559,0.00318,1.32870,1.32870,-0.03037,0.00039,-0.01959,-0.00374,-0.01459,0.00634,-0.02220,1.03261,2.02566,1.32870,2.01260,2.02597,-0.75287,1.53820,1.94929,-0.75287,1.53820,2.22829,2.22829,A,123910.20
2.04028,57.68785740,11.98137726,57.68786517,11.98136900,12:39:10.357310,0.00355,1.32870,1.32870,-0.03069,-0.00024,-0.02280,-0.01138,-0.02009,-0.03678,-0.01519,1.07537,2.03664,1.32870,2.01260,2.02597,-0.75287,1.53820,1.94929,-0.75287,1.53820,2.22829,2.22829,A,123910.20
2.06724,57.68785740,11.98137726,57.68786617,11.98136800,12:39:10.384278,0.01994,1.32870,1.32870,-0.03099,-0.00075,-0.02738,-0.01489,-0.02238,-0.03776,-0.01141,1.02834,2.04732,1.32870,2.01260,2.02597,-0.75287,1.53820,2.06242,-0.81231,1.64939,2.06169,2.06169,A,123910.30
2.07815,57.68786634,11.98136792,57.68786617,11.98136800,12:39:10.395177,0.00567,1.32870,1.32870,-0.03201,-0.00128,-0.02203,0.00679,-0.01627,-0.06033,-0.04178,1.00040,2.07225,1.32870,2.02514,2.02476,-0.81699,1.66868,2.06242,-0.81231,1.64939,2.06169,2.06169,A,123910.30
2.08656,57.68786634,11.98136792,57.68786617,11.98136800,12:39:10.403596,0.00368,1.32870,1.32870,-0.03221,-0.00128,-0.02921,0.00954,-0.01214,-0.06734,-0.00470,1.00894,2.08255,1.32870,2.02514,2.02476,-0.81699,1.66868,2.06242,-0.81231,1.64939,2.06169,2.06169,A,123910.30
2.09646,57.68786634,11.98136792,57.68786617,11.98136800,12:39:10.413485,0.00301,1.32870,1.32870,-0.03271,-0.00128,-0.02112,0.01687,-0.00558,-0.06307,-0.02989,0.97795,2.09283,1.32870,2.02514,2.02476,-0.81699,1.66868,2.06242,-0.81231,1.64939,2.06169,2.06169,A,123910.30
2.10703,57.68786634,11.98136792,57.68786617,11.98136800,12:39:10.424060,0.00318,1.32870,1.32870,-0.03274,-0.00134,-0.02020,0.02527,-0.00375,-0.05392,0.00024,1.00382,2.10340,1.32870,2.02514,2.02476,-0.81699,1.66868,2.06242,-0.81231,1.64939,2.06169,2.06169,A,123910.30
2.11745,57.68786634,11.98136792,57.68786617,11.98136800,12:39:10.434484,0.00320,1.32870,1.32870,-0.03307,-0.00145,-0.01501,0.02420,-0.00695,-0.00579,-0.02470,1.01138,2.11360,1.32870,2.02514,2.02476,-0.81699,1.66868,2.06242,-0.81231,1.64939,2.06169,2.06169,A,123910.30
2.12786,57.68786634,11.98136792,57.68786617,11.98136800,12:39:10.444881,0.00321,1.32870,1.32870,-0.03313,-0.00165,-0.01593,0.01626,-0.00756,0.01147,-0.00464,0.98003,2.12422,1.32870,2.02514,2.02476,-0.81699,1.66868,2.06242,-0.81231,1.64939,2.06169,2.06169,A,123910.30
2.13824,57.68786634,11.98136792,57.68786617,11.98136800,12:39:10.455450,0.00319,1.32870,1.32870,-0.03375,-0.00182,-0.01455,0.00695,-0.01214,0.04673,-0.04270,0.97319,2.13459,1.32870,2.02514,2.02476,-0.81699,1.66868,2.06242,-0.81231,1.64939,2.06169,2.06169,A,123910.30
2.14895,57.68786634,11.98136792,57.68786617,11.98136800,12:39:10.466213,0.00325,1.32870,1.32870,-0.03387,-0.00188,-0.02097,-0.00130,-0.01352,0.00055,-0.00592,0.93946,2.14531,1.32870,2.02514,2.02476,-0.81699,1.66868,2.06242,-0.81231,1.64939,2.06169,2.06169,A,123910.30
2.15929,57.68786634,11.98136792,57.68786617,11.98136800,12:39:10.476310,0.00319,1.32870,1.32870,-0.03394,-0.00188,-0.00951,-0.00634,-0.01520,-0.02037,-0.01068,0.95325,2.15566,1.32870,2.02514,2.02476,-0.81699,1.66868,2.06242,-0.81231,1.64939,2.06169,2.06169,A,123910.30
2.18775,57.68786634,11.98136792,57.68786700,11.98136683,12:39:10.504790,0.02034,1.32870,1.32870,-0.03420,-0.00188,-0.01134,-0.00603,-0.01321,-0.03593,-0.02117,0.96581,2.16788,1.32870,2.02514,2.02476,-0.81699,1.66868,2.18367,-0.88165,1.74205,2.21324,2.21324,A,123910.40
2.19860,57.68786758,11.98136677,57.68786700,11.98136683,12:39:10.515628,0.00597,1.32870,1.32870,-0.03431,-0.00188,-0.00188,-0.00481,-0.00558,-0.00238,-0.01757,1.00302,2.19263,1.32870,2.05328,2.05272,-0.88569,1.80653,2.18367,-0.88165,1.74205,2.21324,2.21324,A,123910.40
2.20623,57.68786758,11.98136677,57.68786700,11.98136683,12:39:10.523257,0.00319,1.32870,1.32870,-0.03448,-0.00188,0.00652,0.00313,0.00068,0.00092,-0.02946,1.01693,2.20257,1.32870,2.05328,2.05272,-0.88569,1.80653,2.18367,-0.88165,1.74205,2.21324,2.21324,A,123910.40
2.21659,57.68786758,11.98136677,57.68786700,11.98136683,12:39:10.533607,0.00301,1.32870,1.32870,-0.03450,-0.00188,0.00393,-0.00466,-0.00237,0.00201,-0.01812,0.99778,2.21295,1.32870,2.05328,2.05272,-0.88569,1.80653,2.18367,-0.88165,1.74205,2.21324,2.21324,A,123910.40
2.22717,57.68786758,11.98136677,57.68786700,11.98136683,12:39:10.544200,0.00319,1.32870,1.32870,-0.03438,-0.00188,0.00607,-0.00787,0.00007,-0.03172,-0.00976,0.99497,2.22353,1.32870,2.05328,2.05272,-0.88569,1.80653,2.18367,-0.88165,1.74205,2.21324,2.21324,A,123910.40
2.23754,57.68786758,11.98136677,57.68786700,11.98136683,12:39:10.554590,0.00326,1.32870,1.32870,-0.03446,-0.00188,0.01049,-0.00863,0.00068,0.00354,-0.02574,0.99107,2.23366,1.32870,2.05328,2.05272,-0.88569,1.80653,2.18367,-0.88165,1.74205,2.21324,2.21324,A,123910.40
2.24803,57.68786758,11.98136677,57.68786700,11.98136683,12:39:10.565052,0.00335,1.32870,1.32870,-0.03399,-0.00188,0.00866,-0.01321,-0.00512,-0.03721,0.01159,0.97893,2.24438,1.32870,2.05328,2.05272,-0.88569,1.80653,2.18367,-0.88165,1.74205,2.21324,2.21324,A,123910.40
2.25834,57.68786758,11.98136677,57.68786700,11.98136683,12:39:10.575374,0.00327,1.32870,1.32870,-0.03412,-0.00188,0.01187,-0.01306,-0.00680,-0.04605,-0.03038,1.01107,2.25467,1.32870,2.05328,2.05272,-0.88569,1.80653,2.18367,-0.88165,1.74205,2.21324,2.21324,A,123910.40
2.27028,57.68786758,11.98136677,57.68786700,11.98136683,12:39:10.587345,0.00468,1.32870,1.32870,-0.03381,-0.00188,0.01172,-0.00787,-0.01169,-0.08760,-0.00122,1.04090,2.26579,1.32870,2.05328,2.05272,-0.88569,1.80653,2.18367,-0.88165,1.74205,2.21324,2.21324,A,123910.40
2.27971,57.68786758,11.98136677,57.68786700,11.98136683,12:39:10.596739,0.00329,1.32870,1.32870,-0.03411,-0.00188,0.01217,-0.00115,-0.00817,-0.00543,-0.04166,1.00741,2.27608,1.32870,2.05328,2.05272,-0.88569,1.80653,2.18367,-0.88165,1.74205,2.21324,2.21324,A,123910.40
2.31022,57.68786758,11.98136677,57.68786800,11.98136600,12:39:10.627296,0.02220,1.32870,1.32870,-0.03438,-0.00188,0.00897,-0.01046,-0.00817,0.01720,-0.03806,0.98356,2.28815,1.32870,2.05328,2.05272,-0.88569,1.80653,2.30538,-0.93118,1.85325,1.98985,1.98985,A,123910.50
2.32674,57.68786887,11.98136549,57.68786800,11.98136600,12:39:10.643771,0.00624,1.32870,1.32870,-0.03397,-0.00188,0.01553,-0.03154,-0.00787,-0.00043,-0.01946,1.00504,2.32063,1.32870,2.04361,2.04305,-0.96159,1.94962,2.30538,-0.93118,1.85325,1.98985,1.98985,A,123910.50
2.33409,57.68786887,11.98136549,57.68786800,11.98136600,12:39:10.651127,0.00319,1.32870,1.32870,-0.03407,-0.00188,0.01706,-0.03047,-0.00879,-0.02507,-0.03148,1.01644,2.33044,1.32870,2.04361,2.04305,-0.96159,1.94962,2.30538,-0.93118,1.85325,1.98985,1.98985,A,123910.50
2.34445,57.68786887,11.98136549,57.68786800,11.98136600,12:39:10.661471,0.00301,1.32870,1.32870,-0.03394,-0.00188,0.02271,-0.02909,-0.00726,-0.03428,-0.02098,1.04475,2.34082,1.32870,2.04361,2.04305,-0.96159,1.94962,2.30538,-0.93118,1.85325,1.98985,1.98985,A,123910.50
2.35502,57.68786887,11.98136549,57.68786800,11.98136600,12:39:10.672045,0.00316,1.32870,1.32870,-0.03372,-0.00188,0.02103,-0.02451,-0.00497,-0.09504,-0.01421,1.09385,2.35139,1.32870,2.04361,2.04305,-0.96159,1.94962,2.30538,-0.93118,1.85325,1.98985,1.98985,A,123910.50
2.36542,57.68786887,11.98136549,57.68786800,11.98136600,12:39:10.682463,0.00317,1.32870,1.32870,-0.03371,-0.00188,0.01569,-0.00970,-0.00985,-0.02855,-0.02519,1.09629,2.36157,1.32870,2.04361,2.04305,-0.96159,1.94962,2.30538,-0.93118,1.85325,1.98985,1.98985,A,123910.50
2.37602,57.68786887,11.98136549,57.68786800,11.98136600,12:39:10.693043,0.00321,1.32870,1.32870,-0.03362,-0.00188,0.02012,-0.02299,-0.00863,-0.00659,-0.02251,1.06347,2.37238,1.32870,2.04361,2.04305,-0.96159,1.94962,2.30538,-0.93118,1.85325,1.98985,1.98985,A,123910.50
2.38645,57.68786887,11.98136549,57.68786800,11.98136600,12:39:10.703486,0.00325,1.32870,1.32870,-0.03345,-0.00188,0.01599,-0.03123,-0.01474,0.02806,-0.01238,1.00912,2.38282,1.32870,2.04361,2.04305,-0.96159,1.94962,2.30538,-0.93118,1.85325,1.98985,1.98985,A,123910.50
2.39660,57.68786887,11.98136549,57.68786800,11.98136600,12:39:10.713624,0.00300,1.32870,1.32870,-0.03319,-0.00193,0.01645,-0.03322,-0.01260,-0.03172,-0.00622,0.96331,2.39297,1.32870,2.04361,2.04305,-0.96159,1.94962,2.30538,-0.93118,1.85325,1.98985,1.98985,A,123910.50
2.42447,57.68786887,11.98136549,57.68786917,11.98136467,12:39:10.741521,0.02047,1.32870,1.32870,-0.03312,-0.00213,0.02149,-0.03566,-0.01673,-0.04959,-0.02086,0.90853,2.40370,1.32870,2.04361,2.04305,-0.96159,1.94962,2.41884,-1.01043,1.98298,2.11919,2.11919,A,123910.60
2.44465,57.68787005,11.98136433,57.68786917,11.98136467,12:39:10.761684,0.00847,1.32870,1.32870,-0.03233,-0.00443,0.01156,-0.00359,-0.02177,-0.06673,0.01318,0.98552,2.43855,1.32870,2.05492,2.05360,-1.03043,2.08126,2.41884,-1.01043,1.98298,2.11919,2.11919,A,123910.60
2.44973,57.68787005,11.98136433,57.68786917,11.98136467,12:39:10.766755,0.00336,1.32870,1.32870,-0.03259,-0.00505,0.01278,0.00328,-0.01917,-0.02879,-0.03489,0.98338,2.44586,1.32870,2.05492,2.05360,-1.03043,2.08126,2.41884,-1.01043,1.98298,2.11919,2.11919,A,123910.60
2.45997,57.68787005,11.98136433,57.68786917,11.98136467,12:39:10.776995,0.00321,1.32870,1.32870,-0.03229,-0.00601,0.00897,0.01519,-0.01841,-0.04508,0.00134,1.00016,2.45634,1.32870,2.05492,2.05360,-1.03043,2.08126,2.41884,-1.01043,1.98298,2.11919,2.11919,A,123910.60
2.47035,57.68787005,11.98136433,57.68786917,11.98136467,12:39:10.787377,0.00319,1.32870,1.32870,-0.03227,-0.00694,0.01782,0.01809,-0.02238,0.01348,-0.02239,0.97295,2.46670,1.32870,2.05492,2.05360,-1.03043,2.08126,2.41884,-1.01043,1.98298,2.11919,2.11919,A,123910.60
2.48075,57.68787005,11.98136433,57.68786917,11.98136467,12:39:10.797784,0.00303,1.32870,1.32870,-0.03221,-0.00793,0.01278,0.01489,-0.02085,-0.03514,-0.01665,0.96539,2.47711,1.32870,2.05492,2.05360,-1.03043,2.08126,2.41884,-1.01043,1.98298,2.11919,2.11919,A,123910.60
2.49214,57.68787005,11.98136433,57.68786917,11.98136467,12:39:10.809174,0.00402,1.32870,1.32870,-0.03188,-0.00893,0.00881,0.01305,-0.02574,-0.02861,0.00250,0.96081,2.48848,1.32870,2.05492,2.05360,-1.03043,2.08126,2.41884,-1.01043,1.98298,2.11919,2.11919,A,123910.60
2.50192,57.68787005,11.98136433,57.68786917,11.98136467,12:39:10.818946,0.00318,1.32870,1.32870,-0.03183,-0.00980,0.00591,0.02237,-0.02849,0.00610,-0.01208,0.94532,2.49826,1.32870,2.05492,2.05360,-1.03043,2.08126,2.41884,-1.01043,1.98298,2.11919,2.11919,A,123910.60
2.51233,57.68787005,11.98136433,57.68786917,11.98136467,12:39:10.829352,0.00319,1.32870,1.32870,-0.03159,-0.01051,0.01065,0.02054,-0.03185,-0.04898,-0.00378,0.98436,2.50869,1.32870,2.05492,2.05360,-1.03043,2.08126,2.41884,-1.01043,1.98298,2.11919,2.11919,A,123910.60
2.53969,57.68787005,11.98136433,57.68787017,11.98136383,12:39:10.857114,0.02016,1.40332,1.40332,-0.03161,-0.01102,0.00393,0.02344,-0.03123,-0.01555,-0.01623,1.01602,2.51909,1.32870,2.05492,2.05360,-1.03043,2.08126,2.53434,-1.05996,2.09417,1.98985,1.98985,A,123910.70
2.55266,57.68787112,11.98136326,57.68787017,11.98136383,12:39:10.869689,0.00533,1.40332,1.40332,-0.03132,-0.01144,0.00240,-0.00115,-0.02421,-0.01128,0.00256,1.08391,2.54703,1.34363,2.04518,2.04179,-1.09414,2.20063,2.53434,-1.05996,2.09417,1.98985,1.98985,A,123910.70
2.56061,57.68787112,11.98136326,57.68787017,11.98136383,12:39:10.877636,0.00301,1.40332,1.40332,-0.03084,-0.01144,-0.00294,-0.01550,-0.02299,0.00055,0.02385,1.08800,2.55697,1.34363,2.04518,2.04179,-1.09414,2.20063,2.53434,-1.05996,2.09417,1.98985,1.98985,A,123910.70
2.57118,57.68787112,11.98136326,57.68787017,11.98136383,12:39:10.888201,0.00317,1.40332,1.40332,-0.03081,-0.01144,0.00622,-0.01886,-0.02345,0.02245,-0.01421,1.02041,2.56754,1.34363,2.04518,2.04179,-1.09414,2.20063,2.53434,-1.05996,2.09417,1.98985,1.98985,A,123910.70
2.58160,57.68787112,11.98136326,57.68787017,11.98136383,12:39:10.898636,0.00320,1.40332,1.40332,-0.03060,-0.01144,0.00851,-0.03551,-0.02146,0.02092,-0.00372,0.95099,2.57775,1.34363,2.04518,2.04179,-1.09414,2.20063,2.53434,-1.05996,2.09417,1.98985,1.98985,A,123910.70
2.59213,57.68787112,11.98136326,57.68787017,11.98136383,12:39:10.909165,0.00332,1.40332,1.40332,-0.03074,-0.01144,0.00912,-0.04253,-0.01932,-0.09705,-0.02519,0.91067,2.58849,1.34363,2.04518,2.04179,-1.09414,2.20063,2.53434,-1.05996,2.09417,1.98985,1.98985,A,123910.70
2.60237,57.68787112,11.98136326,57.68787017,11.98136383,12:39:10.919403,0.00317,1.40332,1.40332,-0.03070,-0.01144,0.01156,-0.03581,-0.02268,-0.11773,-0.01562,0.92305,2.59874,1.34363,2.04518,2.04179,-1.09414,2.20063,2.53434,-1.05996,2.09417,1.98985,1.98985,A,123910.70
2.61260,57.68787112,11.98136326,57.68787017,11.98136383,12:39:10.929624,0.00300,1.40332,1.40332,-0.03081,-0.01144,0.00912,-0.01184,-0.01764,-0.05325,-0.02306,0.92842,2.60896,1.34363,2.04518,2.04179,-1.09414,2.20063,2.53434,-1.05996,2.09417,1.98985,1.98985,A,123910.70
2.62317,57.68787112,11.98136326,57.68787017,11.98136383,12:39:10.940193,0.00317,1.40332,1.40332,-0.03148,-0.01144,0.01095,-0.01550,-0.02070,-0.05209,-0.06222,0.96514,2.61954,1.34363,2.04518,2.04179,-1.09414,2.20063,2.53434,-1.05996,2.09417,1.98985,1.98985,A,123910.70
2.63357,57.68787112,11.98136326,57.68787017,11.98136383,12:39:10.950606,0.00318,1.40332,1.40332,-0.03147,-0.01144,0.01141,-0.00344,-0.02161,-0.00518,-0.01903,0.98991,2.62973,1.34363,2.04518,2.04179,-1.09414,2.20063,2.53434,-1.05996,2.09417,1.98985,1.98985,A,123910.70
2.67089,57.68787112,11.98136326,57.68787250,11.98136200,12:39:10.987929,0.03010,1.40332,1.40332,-0.03143,-0.01144,0.00698,-0.01214,-0.02482,0.02470,-0.01555,1.04847,2.64042,1.34363,2.04518,2.04179,-1.09414,2.20063,2.66642,-1.16893,2.35363,1.96842,1.96842,A,123910.90
2.68262,57.68787250,11.98136195,57.68787250,11.98136200,12:39:10.999650,0.00648,1.40332,1.40332,-0.03168,-0.01144,0.00988,-0.05338,-0.03551,-0.02092,-0.05362,1.02260,2.67666,1.35556,2.03265,2.02925,-1.17190,2.35366,2.66642,-1.16893,2.35363,1.96842,1.96842,A,123910.90
2.68975,57.68787250,11.98136195,57.68787250,11.98136200,12:39:11.006768,0.00320,1.40332,1.40332,-0.03174,-0.01144,0.00255,-0.05674,-0.03490,-0.02507,-0.01842,1.02803,2.68589,1.35556,2.03265,2.02925,-1.17190,2.35366,2.66642,-1.16893,2.35363,1.96842,1.96842,A,123910.90
2.70014,57.68787250,11.98136195,57.68787250,11.98136200,12:39:11.017164,0.00320,1.40332,1.40332,-0.03201,-0.01144,0.00836,-0.04162,-0.02711,-0.10620,-0.03898,1.06164,2.69651,1.35556,2.03265,2.02925,-1.17190,2.35366,2.66642,-1.16893,2.35363,1.96842,1.96842,A,123910.90
2.71042,57.68787250,11.98136195,57.68787250,11.98136200,12:39:11.027444,0.00308,1.40332,1.40332,-0.03196,-0.01144,0.01233,-0.01871,-0.02650,-0.14280,-0.01891,1.07189,2.70677,1.35556,2.03265,2.02925,-1.17190,2.35366,2.66642,-1.16893,2.35363,1.96842,1.96842,A,123910.90
2.72077,57.68787250,11.98136195,57.68787250,11.98136200,12:39:11.037785,0.00304,1.40332,1.40332,-0.03168,-0.01147,0.00943,0.00878,-0.02054,-0.08314,-0.00037,1.04603,2.71713,1.35556,2.03265,2.02925,-1.17190,2.35366,2.66642,-1.16893,2.35363,1.96842,1.96842,A,123910.90
2.73131,57.68787250,11.98136195,57.68787250,11.98136200,12:39:11.048332,0.00319,1.40332,1.40332,-0.03131,-0.01156,0.00469,0.01535,-0.02131,-0.02092,0.00842,0.99576,2.72769,1.35556,2.03265,2.02925,-1.17190,2.35366,2.66642,-1.16893,2.35363,1.96842,1.96842,A,123910.90
2.74170,57.68787250,11.98136195,57.68787250,11.98136200,12:39:11.058730,0.00319,1.40332,1.40332,-0.03069,-0.01176,0.00301,0.01122,-0.01978,0.00464,0.02647,0.96435,2.73785,1.35556,2.03265,2.02925,-1.17190,2.35366,2.66642,-1.16893,2.35363,1.96842,1.96842,A,123910.90
2.75210,57.68787250,11.98136195,57.68787250,11.98136200,12:39:11.069123,0.00318,1.40332,1.40332,-0.02975,-0.01212,0.00301,-0.00420,-0.02329,-0.03013,0.04636,0.95770,2.74847,1.35556,2.03265,2.02925,-1.17190,2.35366,2.66642,-1.16893,2.35363,1.96842,1.96842,A,123910.90
2.76258,57.68787250,11.98136195,57.68787250,11.98136200,12:39:11.079608,0.00321,1.40332,1.40332,-0.02885,-0.01266,0.00026,-0.02421,-0.02650,-0.01452,0.04703,0.95660,2.75894,1.35556,2.03265,2.02925,-1.17190,2.35366,2.66642,-1.16893,2.35363,1.96842,1.96842,A,123910.90
2.78886,57.68787250,11.98136195,57.68787383,11.98136133,12:39:11.106139,0.01919,1.40332,1.40332,-0.02907,-0.01326,0.00500,-0.03444,-0.03383,-0.00592,-0.02714,0.96917,2.76905,1.35556,2.03265,2.02925,-1.17190,2.35366,2.78445,-1.20856,2.50189,1.83196,1.83196,A,123911.00
2.79936,57.68787376,11.98136082,57.68787383,11.98136133,12:39:11.116392,0.00530,1.40332,1.40332,-0.02937,-0.01439,-0.00554,-0.03902,-0.03780,-0.04331,-0.02129,0.97234,2.79348,1.36511,2.00181,1.99754,-1.23908,2.49348,2.78445,-1.20856,2.50189,1.83196,1.83196,A,123911.00
2.80769,57.68787376,11.98136082,57.68787383,11.98136133,12:39:11.124713,0.00323,1.40332,1.40332,-0.02972,-0.01456,-0.00462,-0.02925,-0.03597,-0.02519,-0.03080,0.98454,2.80404,1.36511,2.00181,1.99754,-1.23908,2.49348,2.78445,-1.20856,2.50189,1.83196,1.83196,A,123911.00
2.81804,57.68787376,11.98136082,57.68787383,11.98136133,12:39:11.135074,0.00318,1.40332,1.40332,-0.02980,-0.01459,-0.00325,-0.02696,-0.02971,-0.04666,-0.01409,0.97142,2.81439,1.36511,2.00181,1.99754,-1.23908,2.49348,2.78445,-1.20856,2.50189,1.83196,1.83196,A,123911.00
2.82844,57.68787376,11.98136082,57.68787383,11.98136133,12:39:11.145456,0.00300,1.40332,1.40332,-0.03000,-0.01459,-0.00508,-0.02757,-0.02497,-0.05594,-0.02068,0.97679,2.82480,1.36511,2.00181,1.99754,-1.23908,2.49348,2.78445,-1.20856,2.50189,1.83196,1.83196,A,123911.00
2.83917,57.68787376,11.98136082,57.68787383,11.98136133,12:39:11.156203,0.00333,1.40332,1.40332,-0.03021,-0.01459,0.00545,-0.02222,-0.02116,-0.01739,-0.02873,0.98924,2.83554,1.36511,2.00181,1.99754,-1.23908,2.49348,2.78445,-1.20856,2.50189,1.83196,1.83196,A,123911.00
2.84953,57.68787376,11.98136082,57.68787383,11.98136133,12:39:11.166573,0.00318,1.40332,1.40332,-0.03085,-0.01459,0.00484,-0.03917,-0.01948,0.00354,-0.05795,1.00186,2.84567,1.36511,2.00181,1.99754,-1.23908,2.49348,2.78445,-1.20856,2.50189,1.83196,1.83196,A,123911.00
2.85995,57.68787376,11.98136082,57.68787383,11.98136133,12:39:11.176972,0.00321,1.40332,1.40332,-0.03124,-0.01459,0.00103,-0.03627,-0.02146,-0.08040,-0.04148,1.07262,2.85632,1.36511,2.00181,1.99754,-1.23908,2.49348,2.78445,-1.20856,2.50189,1.83196,1.83196,A,123911.00
2.87033,57.68787376,11.98136082,57.68787383,11.98136133,12:39:11.187357,0.00318,1.40332,1.40332,-0.03144,-0.01459,-0.00264,-0.02238,-0.02742,-0.12163,-0.02647,1.09940,2.86668,1.36511,2.00181,1.99754,-1.23908,2.49348,2.78445,-1.20856,2.50189,1.83196,1.83196,A,123911.00
2.88060,57.68787376,11.98136082,57.68787383,11.98136133,12:39:11.197620,0.00299,1.40332,1.40332,-0.03131,-0.01459,0.00377,-0.00726,-0.02650,-0.01153,-0.00677,1.04499,2.87696,1.36511,2.00181,1.99754,-1.23908,2.49348,2.78445,-1.20856,2.50189,1.83196,1.83196,A,123911.00
2.90941,57.68787376,11.98136082,57.68787483,11.98136000,12:39:11.226460,0.02155,1.40332,1.40332,-0.03216,-0.01459,0.00225,-0.00191,-0.02726,0.03764,-0.06875,0.96051,2.88911,1.36511,2.00181,1.99754,-1.23908,2.49348,2.90434,-1.28781,2.61308,2.19000,2.19000,A,123911.10
2.92376,57.68787511,11.98135967,57.68787483,11.98136000,12:39:11.240781,0.00701,1.40332,1.40332,-0.03212,-0.01459,-0.00401,-0.05597,-0.02451,-0.02727,-0.00329,0.83924,2.91793,1.37276,2.02882,2.02449,-1.30732,2.64418,2.90434,-1.28781,2.61308,2.19000,2.19000,A,123911.10
2.93032,57.68787511,11.98135967,57.68787483,11.98136000,12:39:11.247350,0.00317,1.40332,1.40332,-0.03156,-0.01459,0.00332,-0.05139,-0.01902,-0.11431,0.01976,0.92488,2.92668,1.37276,2.02882,2.02449,-1.30732,2.64418,2.90434,-1.28781,2.61308,2.19000,2.19000,A,123911.10
2.94076,57.68787511,11.98135967,57.68787483,11.98136000,12:39:11.257795,0.00317,1.40332,1.40332,-0.03113,-0.01459,0.00515,-0.02726,-0.01963,-0.14439,0.01366,1.06671,2.93711,1.37276,2.02882,2.02449,-1.30732,2.64418,2.90434,-1.28781,2.61308,2.19000,2.19000,A,123911.10
2.95132,57.68787511,11.98135967,57.68787483,11.98136000,12:39:11.268346,0.00333,1.40332,1.40332,-0.03114,-0.01459,0.00683,0.00817,-0.01856,-0.08778,-0.01995,1.10075,2.94768,1.37276,2.02882,2.02449,-1.30732,2.64418,2.90434,-1.28781,2.61308,2.19000,2.19000,A,123911.10
2.96157,57.68787511,11.98135967,57.68787483,11.98136000,12:39:11.278600,0.00318,1.40332,1.40332,-0.03101,-0.01459,0.00729,0.01061,-0.01535,0.04301,-0.00927,1.08488,2.95772,1.37276,2.02882,2.02449,-1.30732,2.64418,2.90434,-1.28781,2.61308,2.19000,2.19000,A,123911.10
2.97273,57.68787511,11.98135967,57.68787483,11.98136000,12:39:11.289786,0.00394,1.64937,1.64937,-0.03109,-0.01459,0.00423,-0.00695,-0.01428,0.07351,-0.02196,1.02663,2.96836,1.37276,2.02882,2.02449,-1.30732,2.64418,2.90434,-1.28781,2.61308,2.19000,2.19000,A,123911.10
2.98238,57.68787511,11.98135967,57.68787483,11.98136000,12:39:11.299415,0.00319,1.64937,1.64937,-0.03116,-0.01459,0.00118,-0.02192,-0.01581,0.00549,-0.01867,0.98411,2.97873,1.37276,2.02882,2.02449,-1.30732,2.64418,2.90434,-1.28781,2.61308,2.19000,2.19000,A,123911.10
2.99261,57.68787511,11.98135967,57.68787483,11.98136000,12:39:11.309626,0.00301,1.64937,1.64937,-0.03076,-0.01459,0.00607,-0.03963,-0.01657,-0.06850,0.00830,0.95258,2.98897,1.37276,2.02882,2.02449,-1.30732,2.64418,2.90434,-1.28781,2.61308,2.19000,2.19000,A,123911.10
3.00317,57.68787511,11.98135967,57.68787483,11.98136000,12:39:11.320192,0.00317,1.64937,1.64937,-0.03000,-0.01459,0.00271,-0.04437,-0.01566,-0.05618,0.03428,0.97124,2.99954,1.37276,2.02882,2.02449,-1.30732,2.64418,2.90434,-1.28781,2.61308,2.19000,2.19000,A,123911.10
3.03175,57.68787511,11.98135967,57.68787583,11.98135900,12:39:11.348821,0.02135,1.64937,1.64937,-0.02923,-0.01459,0.00484,-0.04818,-0.01550,-0.02129,0.03520,0.99308,3.00973,1.37276,2.02882,2.02449,-1.30732,2.64418,3.02548,-1.34724,2.72428,2.06169,2.06169,A,123911.20
3.04754,57.68787643,11.98135847,57.68787583,11.98135900,12:39:11.364564,0.00717,1.64937,1.64937,-0.02892,-0.01459,0.01477,-0.02131,-0.01016,-0.05600,-0.02111,0.96148,3.04167,1.42808,2.03250,2.02818,-1.37888,2.79084,3.02548,-1.34724,2.72428,2.06169,2.06169,A,123911.20
3.05395,57.68787643,11.98135847,57.68787583,11.98135900,12:39:11.370977,0.00318,1.64937,1.64937,-0.02860,-0.01450,0.01049,-0.01642,-0.00268,-0.08101,0.00433,0.99216,3.05030,1.42808,2.03250,2.02818,-1.37888,2.79084,3.02548,-1.34724,2.72428,2.06169,2.06169,A,123911.20
3.06435,57.68787643,11.98135847,57.68787583,11.98135900,12:39:11.381374,0.00300,1.64937,1.64937,-0.02880,-0.01430,0.00729,-0.01764,0.00542,-0.11523,-0.02940,1.00095,3.06072,1.42808,2.03250,2.02818,-1.37888,2.79084,3.02548,-1.34724,2.72428,2.06169,2.06169,A,123911.20
3.07493,57.68787643,11.98135847,57.68787583,11.98135900,12:39:11.392198,0.00318,1.64937,1.64937,-0.02865,-0.01402,0.00377,-0.01428,0.00679,0.01000,-0.00403,1.03114,3.07131,1.42808,2.03250,2.02818,-1.37888,2.79084,3.02548,-1.34724,2.72428,2.06169,2.06169,A,123911.20
3.08499,57.68787643,11.98135847,57.68787583,11.98135900,12:39:11.402223,0.00301,1.64937,1.64937,-0.02820,-0.01368,0.00759,-0.01993,0.00389,-0.00226,0.01586,1.10788,3.08136,1.42808,2.03250,2.02818,-1.37888,2.79084,3.02548,-1.34724,2.72428,2.06169,2.06169,A,123911.20
3.09558,57.68787643,11.98135847,57.68787583,11.98135900,12:39:11.412606,0.00320,1.64937,1.64937,-0.02764,-0.01337,0.00469,-0.01550,-0.00176,-0.08015,0.02843,1.15638,3.09195,1.42808,2.03250,2.02818,-1.37888,2.79084,3.02548,-1.34724,2.72428,2.06169,2.06169,A,123911.20
3.10595,57.68787643,11.98135847,57.68787583,11.98135900,12:39:11.422983,0.00318,1.64937,1.64937,-0.02715,-0.01309,0.00897,-0.00435,-0.00649,-0.04978,0.01879,1.10672,3.10230,1.42808,2.03250,2.02818,-1.37888,2.79084,3.02548,-1.34724,2.72428,2.06169,2.06169,A,123911.20
3.11635,57.68787643,11.98135847,57.68787583,11.98135900,12:39:11.433371,0.00299,1.64937,1.64937,-0.02700,-0.01286,0.00194,0.00130,-0.01184,-0.12273,-0.00055,1.04670,3.11271,1.42808,2.03250,2.02818,-1.37888,2.79084,3.02548,-1.34724,2.72428,2.06169,2.06169,A,123911.20
3.14479,57.68787643,11.98135847,57.68787683,11.98135850,12:39:11.461828,0.02104,1.64937,1.64937,-0.02696,-0.01272,-0.00844,0.00908,-0.01352,-0.07918,-0.00037,0.92848,3.12346,1.42808,2.03250,2.02818,-1.37888,2.79084,3.13852,-1.37696,2.83547,1.83196,1.83196,A,123911.30
3.15891,57.68787765,11.98135737,57.68787683,11.98135850,12:39:11.475942,0.00729,1.64937,1.64937,-0.02689,-0.01269,-0.00462,0.00007,-0.00985,-0.06832,0.00384,0.90737,3.15300,1.47234,2.00122,1.99745,-1.44424,2.92607,3.13852,-1.37696,2.83547,1.83196,1.83196,A,123911.30
3.16488,57.68787765,11.98135737,57.68787683,11.98135850,12:39:11.482115,0.00302,1.64937,1.64937,-0.02676,-0.01269,-0.00646,0.00374,-0.01581,-0.01452,0.00323,0.93995,3.16124,1.47234,2.00122,1.99745,-1.44424,2.92607,3.13852,-1.37696,2.83547,1.83196,1.83196,A,123911.30
3.17567,57.68787765,11.98135737,57.68787683,11.98135850,12:39:11.492703,0.00342,1.64937,1.64937,-0.02713,-0.01269,-0.00508,0.00740,-0.01398,-0.02556,-0.02989,0.98625,3.17180,1.47234,2.00122,1.99745,-1.44424,2.92607,3.13852,-1.37696,2.83547,1.83196,1.83196,A,123911.30
3.18583,57.68787765,11.98135737,57.68787683,11.98135850,12:39:11.502859,0.00318,1.64937,1.64937,-0.02775,-0.01269,-0.00829,-0.00588,-0.00970,-0.03062,-0.04538,1.00979,3.18198,1.47234,2.00122,1.99745,-1.44424,2.92607,3.13852,-1.37696,2.83547,1.83196,1.83196,A,123911.30
3.19624,57.68787765,11.98135737,57.68787683,11.98135850,12:39:11.513271,0.00320,1.64937,1.64937,-0.02783,-0.01269,-0.01440,-0.01153,-0.00588,-0.02062,-0.00512,1.03804,3.19261,1.47234,2.00122,1.99745,-1.44424,2.92607,3.13852,-1.37696,2.83547,1.83196,1.83196,A,123911.30
3.20750,57.68787765,11.98135737,57.68787683,11.98135850,12:39:11.524532,0.00406,1.64937,1.64937,-0.02727,-0.01269,-0.00462,-0.02207,-0.00268,0.03239,0.03367,1.06195,3.20385,1.47234,2.00122,1.99745,-1.44424,2.92607,3.13852,-1.37696,2.83547,1.83196,1.83196,A,123911.30
3.21668,57.68787765,11.98135737,57.68787683,11.98135850,12:39:11.533704,0.00301,1.64937,1.64937,-0.02673,-0.01269,0.00240,-0.03627,-0.00115,0.06283,0.02513,0.99735,3.21305,1.47234,2.00122,1.99745,-1.44424,2.92607,3.13852,-1.37696,2.83547,1.83196,1.83196,A,123911.30
3.22725,57.68787765,11.98135737,57.68787683,11.98135850,12:39:11.544273,0.00318,1.64937,1.64937,-0.02654,-0.01266,0.00775,-0.04757,0.00129,0.02470,-0.00146,0.95441,3.22361,1.47234,2.00122,1.99745,-1.44424,2.92607,3.13852,-1.37696,2.83547,1.83196,1.83196,A,123911.30
3.23765,57.68787765,11.98135737,57.68787683,11.98135850,12:39:11.554694,0.00318,1.64937,1.64937,-0.02648,-0.01266,0.00530,-0.05872,0.00007,0.00409,-0.00738,0.86925,3.23381,1.47234,2.00122,1.99745,-1.44424,2.92607,3.13852,-1.37696,2.83547,1.83196,1.83196,A,123911.30
3.27704,57.68787765,11.98135737,57.68787933,11.98135600,12:39:11.595055,0.03217,1.64937,1.64937,-0.02700,-0.01266,0.00118,-0.06727,-0.00497,-0.00701,-0.03605,0.80020,3.24457,1.47234,2.00122,1.99745,-1.44424,2.92607,3.27265,-1.52555,3.11346,2.06169,2.06169,A,123911.50
3.29061,57.68787921,11.98135604,57.68787933,11.98135600,12:39:11.607646,0.00741,1.64937,1.64937,-0.02618,-0.01266,0.01599,-0.01398,-0.01367,-0.19831,0.00573,1.27100,3.28424,1.50774,2.00898,2.00522,-1.52306,3.09988,3.27265,-1.52555,3.11346,2.06169,2.06169,A,123911.50
3.29663,57.68787921,11.98135604,57.68787933,11.98135600,12:39:11.613650,0.00301,1.64937,1.64937,-0.02638,-0.01266,0.00897,0.01993,-0.01978,-0.08339,-0.03282,1.26160,3.29299,1.50774,2.00898,2.00522,-1.52306,3.09988,3.27265,-1.52555,3.11346,2.06169,2.06169,A,123911.50
3.30717,57.68787921,11.98135604,57.68787933,11.98135600,12:39:11.624190,0.00315,1.64937,1.64937,-0.02740,-0.01266,0.01340,0.03092,-0.01612,0.10931,-0.09748,1.14802,3.30355,1.50774,2.00898,2.00522,-1.52306,3.09988,3.27265,-1.52555,3.11346,2.06169,2.06169,A,123911.50
3.31761,57.68787921,11.98135604,57.68787933,11.98135600,12:39:11.634636,0.00319,1.64937,1.64937,-0.02820,-0.01266,-0.00646,0.00206,-0.01703,0.08174,-0.06082,1.03145,3.31375,1.50774,2.00898,2.00522,-1.52306,3.09988,3.27265,-1.52555,3.11346,2.06169,2.06169,A,123911.50
3.32821,57.68787921,11.98135604,57.68787933,11.98135600,12:39:11.646812,0.00339,1.64937,1.64937,-0.02789,-0.01266,-0.01211,-0.02176,-0.01428,-0.03105,0.01812,0.93879,3.32457,1.50774,2.00898,2.00522,-1.52306,3.09988,3.27265,-1.52555,3.11346,2.06169,2.06169,A,123911.50
3.33887,57.68787921,11.98135604,57.68787933,11.98135600,12:39:11.655894,0.00337,1.64937,1.64937,-0.02666,-0.01266,-0.01364,-0.03597,-0.01337,-0.04892,0.07119,0.87285,3.33521,1.50774,2.00898,2.00522,-1.52306,3.09988,3.27265,-1.52555,3.11346,2.06169,2.06169,A,123911.50
3.34940,57.68787921,11.98135604,57.68787933,11.98135600,12:39:11.666598,0.00367,1.64937,1.64937,-0.02602,-0.01266,-0.00096,-0.03673,-0.02268,-0.07814,0.02794,0.83113,3.34555,1.50774,2.00898,2.00522,-1.52306,3.09988,3.27265,-1.52555,3.11346,2.06169,2.06169,A,123911.50
3.35933,57.68787921,11.98135604,57.68787933,11.98135600,12:39:11.676356,0.00321,1.64937,1.64937,-0.02578,-0.01266,0.00271,-0.02467,-0.01993,-0.06387,0.00549,0.87224,3.35569,1.50774,2.00898,2.00522,-1.52306,3.09988,3.27265,-1.52555,3.11346,2.06169,2.06169,A,123911.50
3.36968,57.68787921,11.98135604,57.68787933,11.98135600,12:39:11.686709,0.00316,1.64937,1.64937,-0.02628,-0.01266,-0.00233,-0.01092,-0.02039,-0.09473,-0.03886,0.97063,3.36584,1.50774,2.00898,2.00522,-1.52306,3.09988,3.27265,-1.52555,3.11346,2.06169,2.06169,A,123911.50
3.39646,57.68787921,11.98135604,57.68788000,11.98135483,12:39:11.713496,0.01954,1.64937,1.64937,-0.02690,-0.01266,-0.00325,0.02008,-0.01581,-0.07259,-0.04996,1.06067,3.37647,1.50774,2.00898,2.00522,-1.52306,3.09988,3.39154,-1.59490,3.18759,2.32284,2.32284,A,123911.60
3.41121,57.68788063,11.98135478,57.68788000,11.98135483,12:39:11.728238,0.00728,1.64937,1.64937,-0.02673,-0.01266,0.00011,0.03077,-0.01138,0.05905,0.00281,1.11227,3.40522,1.53607,2.05487,2.05111,-1.59805,3.25815,3.39154,-1.59490,3.18759,2.32284,2.32284,A,123911.60
3.41772,57.68788063,11.98135478,57.68788000,11.98135483,12:39:11.734777,0.00340,1.64937,1.64937,-0.02718,-0.01266,0.00591,0.00511,-0.00863,0.07229,-0.04362,1.03950,3.41367,1.53607,2.05487,2.05111,-1.59805,3.25815,3.39154,-1.59490,3.18759,2.32284,2.32284,A,123911.60
3.42793,57.68788063,11.98135478,57.68788000,11.98135483,12:39:11.744952,0.00321,1.64937,1.64937,-0.02726,-0.01266,0.00103,-0.02436,-0.01123,0.03831,-0.01537,1.04231,3.42430,1.53607,2.05487,2.05111,-1.59805,3.25815,3.39154,-1.59490,3.18759,2.32284,2.32284,A,123911.60
3.43828,57.68788063,11.98135478,57.68788000,11.98135483,12:39:11.755316,0.00317,1.64937,1.64937,-0.02706,-0.01266,0.00439,-0.03077,-0.01841,0.01025,0.00092,0.98234,3.43464,1.53607,2.05487,2.05111,-1.59805,3.25815,3.39154,-1.59490,3.18759,2.32284,2.32284,A,123911.60
3.44858,57.68788063,11.98135478,57.68788000,11.98135483,12:39:11.765606,0.00298,1.64937,1.64937,-0.02731,-0.01266,0.00713,-0.02726,-0.02054,-0.03013,-0.02812,0.91976,3.44495,1.53607,2.05487,2.05111,-1.59805,3.25815,3.39154,-1.59490,3.18759,2.32284,2.32284,A,123911.60
3.46013,57.68788063,11.98135478,57.68788000,11.98135483,12:39:11.777151,0.00407,1.64937,1.64937,-0.02848,-0.01266,0.00545,-0.01443,-0.02131,-0.10218,-0.08320,0.90225,3.45648,1.53607,2.05487,2.05111,-1.59805,3.25815,3.39154,-1.59490,3.18759,2.32284,2.32284,A,123911.60
3.46964,57.68788063,11.98135478,57.68788000,11.98135483,12:39:11.786675,0.00319,1.64937,1.64937,-0.02857,-0.01266,0.00729,0.01244,-0.02192,-0.11785,-0.01952,0.92769,3.46579,1.53607,2.05487,2.05111,-1.59805,3.25815,3.39154,-1.59490,3.18759,2.32284,2.32284,A,123911.60
3.48047,57.68788063,11.98135478,57.68788000,11.98135483,12:39:11.797491,0.00378,1.64937,1.64937,-0.02879,-0.01266,0.00561,0.02817,-0.01260,-0.07064,-0.02721,0.91482,3.47680,1.53607,2.05487,2.05111,-1.59805,3.25815,3.39154,-1.59490,3.18759,2.32284,2.32284,A,123911.60
3.49023,57.68788063,11.98135478,57.68788000,11.98135483,12:39:11.807259,0.00315,1.41855,1.41855,-0.02886,-0.01266,0.01049,0.02710,-0.01031,-0.01751,-0.02074,0.95630,3.48659,1.53607,2.05487,2.05111,-1.59805,3.25815,3.39154,-1.59490,3.18759,2.32284,2.32284,A,123911.60
3.51654,57.68788063,11.98135478,57.68788117,11.98135400,12:39:11.834554,0.01889,1.41855,1.41855,-0.02866,-0.01266,0.01706,0.02909,-0.00481,0.00604,-0.00823,1.03261,3.49703,1.53607,2.05487,2.05111,-1.59805,3.25815,3.51210,-1.64443,3.31732,1.93552,1.93552,A,123911.70
3.53153,57.68788204,11.98135340,57.68788117,11.98135400,12:39:11.848555,0.00529,1.41855,1.41855,-0.02828,-0.01266,0.01004,0.00068,-0.01321,0.00207,-0.00348,1.08434,3.52571,1.51256,2.03575,2.03199,-1.68014,3.41421,3.51210,-1.64443,3.31732,1.93552,1.93552,A,123911.70
3.54012,57.68788204,11.98135340,57.68788117,11.98135400,12:39:11.857150,0.00347,1.41855,1.41855,-0.02801,-0.01266,0.01110,-0.00833,-0.01841,-0.07869,0.00110,1.03840,3.53631,1.51256,2.03575,2.03199,-1.68014,3.41421,3.51210,-1.64443,3.31732,1.93552,1.93552,A,123911.70
3.55038,57.68788204,11.98135340,57.68788117,11.98135400,12:39:11.867408,0.00333,1.41855,1.41855,-0.02818,-0.01266,0.01248,0.00527,-0.01932,-0.08650,-0.02910,0.99912,3.54673,1.51256,2.03575,2.03199,-1.68014,3.41421,3.51210,-1.64443,3.31732,1.93552,1.93552,A,123911.70
3.56060,57.68788204,11.98135340,57.68788117,11.98135400,12:39:11.877630,0.00301,1.41855,1.41855,-0.02801,-0.01266,0.00790,0.01916,-0.02085,-0.08503,-0.00378,0.95532,3.55697,1.51256,2.03575,2.03199,-1.68014,3.41421,3.51210,-1.64443,3.31732,1.93552,1.93552,A,123911.70
3.57117,57.68788204,11.98135340,57.68788117,11.98135400,12:39:11.888198,0.00319,1.41855,1.41855,-0.02753,-0.01266,0.01278,0.02695,-0.01352,-0.03819,0.01214,0.87340,3.56754,1.51256,2.03575,2.03199,-1.68014,3.41421,3.51210,-1.64443,3.31732,1.93552,1.93552,A,123911.70
3.58157,57.68788204,11.98135340,57.68788117,11.98135400,12:39:11.898605,0.00318,1.41855,1.41855,-0.02739,-0.01266,0.00683,0.01748,-0.00344,-0.03751,-0.00390,0.89700,3.57773,1.51256,2.03575,2.03199,-1.68014,3.41421,3.51210,-1.64443,3.31732,1.93552,1.93552,A,123911.70
3.59198,57.68788204,11.98135340,57.68788117,11.98135400,12:39:11.908999,0.00320,1.41855,1.41855,-0.02681,-0.01266,0.00836,0.00695,0.00313,-0.06210,0.02373,0.96941,3.58835,1.51256,2.03575,2.03199,-1.68014,3.41421,3.51210,-1.64443,3.31732,1.93552,1.93552,A,123911.70
3.60234,57.68788204,11.98135340,57.68788117,11.98135400,12:39:11.919378,0.00317,1.41855,1.41855,-0.02624,-0.01266,0.01309,0.00847,0.00389,-0.03257,0.02178,1.02474,3.59870,1.51256,2.03575,2.03199,-1.68014,3.41421,3.51210,-1.64443,3.31732,1.93552,1.93552,A,123911.70
3.62851,57.68788204,11.98135340,57.68788233,11.98135267,12:39:11.945550,0.01891,1.41855,1.41855,-0.02567,-0.01266,0.01645,0.01092,0.00282,-0.07033,0.02196,1.11764,3.60896,1.51256,2.03575,2.03199,-1.68014,3.41421,3.62407,-1.72368,3.44704,2.11919,2.11919,A,123911.80
3.63915,57.68788327,11.98135223,57.68788233,11.98135267,12:39:11.956180,0.00531,1.41855,1.41855,-0.02542,-0.01266,0.00790,0.00572,-0.00588,-0.02605,-0.00317,1.04359,3.63326,1.49376,2.04726,2.04350,-1.74980,3.55164,3.62407,-1.72368,3.44704,2.11919,2.11919,A,123911.80
3.64747,57.68788327,11.98135223,57.68788233,11.98135267,12:39:11.964493,0.00322,1.41855,1.41855,-0.02566,-0.01266,0.00713,-0.00267,-0.00940,0.02617,-0.02599,0.93849,3.64384,1.49376,2.04726,2.04350,-1.74980,3.55164,3.62407,-1.72368,3.44704,2.11919,2.11919,A,123911.80
3.65781,57.68788327,11.98135223,57.68788233,11.98135267,12:39:11.974846,0.00317,1.41855,1.41855,-0.02557,-0.01266,-0.00325,-0.01306,-0.01520,-0.11706,0.00098,0.90390,3.65397,1.49376,2.04726,2.04350,-1.74980,3.55164,3.62407,-1.72368,3.44704,2.11919,2.11919,A,123911.80
3.66829,57.68788327,11.98135223,57.68788233,11.98135267,12:39:11.985311,0.00325,1.41855,1.41855,-0.02546,-0.01266,-0.00020,-0.00313,-0.01367,-0.04319,0.00049,0.83765,3.66465,1.49376,2.04726,2.04350,-1.74980,3.55164,3.62407,-1.72368,3.44704,2.11919,2.11919,A,123911.80
3.67901,57.68788327,11.98135223,57.68788233,11.98135267,12:39:11.996031,0.00356,1.41855,1.41855,-0.02542,-0.01266,-0.00310,-0.01107,-0.01657,0.00128,-0.00226,0.86907,3.67537,1.49376,2.04726,2.04350,-1.74980,3.55164,3.62407,-1.72368,3.44704,2.11919,2.11919,A,123911.80
3.68874,57.68788327,11.98135223,57.68788233,11.98135267,12:39:12.005767,0.00308,1.41855,1.41855,-0.02590,-0.01266,0.00408,-0.01306,-0.01382,-0.01732,-0.03794,0.91555,3.68510,1.49376,2.04726,2.04350,-1.74980,3.55164,3.62407,-1.72368,3.44704,2.11919,2.11919,A,123911.80
3.69923,57.68788327,11.98135223,57.68788233,11.98135267,12:39:12.016251,0.00318,1.41855,1.41855,-0.02604,-0.01266,-0.00371,-0.01993,-0.01520,-0.06734,-0.01446,1.06280,3.69560,1.49376,2.04726,2.04350,-1.74980,3.55164,3.62407,-1.72368,3.44704,2.11919,2.11919,A,123911.80
3.71079,57.68788327,11.98135223,57.68788233,11.98135267,12:39:12.027867,0.00402,1.41855,1.41855,-0.02584,-0.01266,-0.00004,-0.00680,-0.00924,-0.04740,0.00775,1.15638,3.70638,1.49376,2.04726,2.04350,-1.74980,3.55164,3.62407,-1.72368,3.44704,2.11919,2.11919,A,123911.80
3.72035,57.68788327,11.98135223,57.68788233,11.98135267,12:39:12.037372,0.00301,1.41855,1.41855,-0.02597,-0.01266,0.00362,-0.00527,-0.01077,0.00116,-0.02007,1.10526,3.71672,1.49376,2.04726,2.04350,-1.74980,3.55164,3.62407,-1.72368,3.44704,2.11919,2.11919,A,123911.80
3.76067,57.68788327,11.98135223,57.68788433,11.98135067,12:39:12.078443,0.03293,1.41855,1.41855,-0.02579,-0.01266,-0.00096,-0.00313,-0.00726,-0.03642,0.00616,1.06744,3.72731,1.49376,2.04726,2.04350,-1.74980,3.55164,3.75520,-1.84255,3.66943,2.06169,2.06169,A,123912.00
3.77848,57.68788488,11.98135066,57.68788433,11.98135067,12:39:12.095504,0.00783,1.41855,1.41855,-0.02552,-0.01266,-0.00753,-0.02390,-0.01062,-0.11492,0.03062,0.93074,3.77233,1.47872,2.04797,2.04422,-1.84293,3.73059,3.75520,-1.84255,3.66943,2.06169,2.06169,A,123912.00
3.78424,57.68788488,11.98135066,57.68788433,11.98135067,12:39:12.101264,0.00320,1.41855,1.41855,-0.02564,-0.01266,-0.00447,-0.00756,-0.01306,-0.05917,-0.01189,0.98838,3.78060,1.47872,2.04797,2.04422,-1.84293,3.73059,3.75520,-1.84255,3.66943,2.06169,2.06169,A,123912.00
3.79473,57.68788488,11.98135066,57.68788433,11.98135067,12:39:12.111765,0.00328,1.41855,1.41855,-0.02533,-0.01266,-0.00936,0.00832,-0.02009,-0.08857,0.02166,1.07787,3.79109,1.47872,2.04797,2.04422,-1.84293,3.73059,3.75520,-1.84255,3.66943,2.06169,2.06169,A,123912.00
3.80470,57.68788488,11.98135066,57.68788433,11.98135067,12:39:12.121729,0.00303,1.41855,1.41855,-0.02499,-0.01266,-0.01028,0.02405,-0.02589,-0.00213,0.02611,1.10624,3.80107,1.47872,2.04797,2.04422,-1.84293,3.73059,3.75520,-1.84255,3.66943,2.06169,2.06169,A,123912.00
3.81527,57.68788488,11.98135066,57.68788433,11.98135067,12:39:12.132292,0.00319,1.41855,1.41855,-0.02497,-0.01266,-0.01730,0.01412,-0.02619,-0.03489,0.00769,1.11911,3.81163,1.47872,2.04797,2.04422,-1.84293,3.73059,3.75520,-1.84255,3.66943,2.06169,2.06169,A,123912.00
3.82566,57.68788488,11.98135066,57.68788433,11.98135067,12:39:12.142702,0.00319,1.41855,1.41855,-0.02490,-0.01266,-0.01211,0.01550,-0.02390,-0.01299,0.00775,1.05963,3.82181,1.47872,2.04797,2.04422,-1.84293,3.73059,3.75520,-1.84255,3.66943,2.06169,2.06169,A,123912.00
3.83607,57.68788488,11.98135066,57.68788433,11.98135067,12:39:12.153095,0.00320,1.41855,1.41855,-0.02437,-0.01266,-0.01241,0.00145,-0.02161,0.03666,0.03739,0.98857,3.83244,1.47872,2.04797,2.04422,-1.84293,3.73059,3.75520,-1.84255,3.66943,2.06169,2.06169,A,123912.00
3.84642,57.68788488,11.98135066,57.68788433,11.98135067,12:39:12.163446,0.00315,1.41855,1.41855,-0.02382,-0.01266,-0.00661,-0.01642,-0.01382,-0.05954,0.03392,0.96288,3.84278,1.47872,2.04797,2.04422,-1.84293,3.73059,3.75520,-1.84255,3.66943,2.06169,2.06169,A,123912.00
3.87436,57.68788488,11.98135066,57.68788550,11.98135000,12:39:12.191406,0.02076,1.41855,1.41855,-0.02387,-0.01266,-0.00172,-0.01275,-0.01276,-0.03947,-0.00689,0.94995,3.85298,1.47872,2.04797,2.04422,-1.84293,3.73059,3.86808,-1.88218,3.79916,1.86724,1.86724,A,123912.10
3.88798,57.68788611,11.98134949,57.68788550,11.98135000,12:39:12.205440,0.00698,1.41855,1.41855,-0.02430,-0.01266,0.00316,0.01199,-0.01520,-0.05789,-0.03855,0.97527,3.88065,1.46668,2.01989,2.01613,-1.91278,3.86654,3.86808,-1.88218,3.79916,1.86724,1.86724,A,123912.10
3.89458,57.68788611,11.98134949,57.68788550,11.98135000,12:39:12.211612,0.00319,1.41855,1.41855,-0.02444,-0.01266,0.00041,0.02436,-0.01306,-0.05350,-0.01525,1.00882,3.89094,1.46668,2.01989,2.01613,-1.91278,3.86654,3.86808,-1.88218,3.79916,1.86724,1.86724,A,123912.10
3.90463,57.68788611,11.98134949,57.68788550,11.98135000,12:39:12.221654,0.00300,1.41855,1.41855,-0.02455,-0.01266,0.00698,0.02940,-0.01245,0.01220,-0.01714,0.99021,3.90099,1.46668,2.01989,2.01613,-1.91278,3.86654,3.86808,-1.88218,3.79916,1.86724,1.86724,A,123912.10
3.91520,57.68788611,11.98134949,57.68788550,11.98135000,12:39:12.232224,0.00318,1.41855,1.41855,-0.02502,-0.01266,0.00775,0.01535,-0.01153,0.02525,-0.04410,1.03279,3.91157,1.46668,2.01989,2.01613,-1.91278,3.86654,3.86808,-1.88218,3.79916,1.86724,1.86724,A,123912.10
3.92562,57.68788611,11.98134949,57.68788550,11.98135000,12:39:12.242650,0.00320,1.41855,1.41855,-0.02528,-0.01266,0.00759,0.00603,-0.01245,-0.03904,-0.03062,1.07116,3.92176,1.46668,2.01989,2.01613,-1.91278,3.86654,3.86808,-1.88218,3.79916,1.86724,1.86724,A,123912.10
3.93600,57.68788611,11.98134949,57.68788550,11.98135000,12:39:12.253030,0.00317,1.41855,1.41855,-0.02511,-0.01266,0.00652,0.00099,-0.00955,-0.00677,0.00055,1.03029,3.93237,1.46668,2.01989,2.01613,-1.91278,3.86654,3.86808,-1.88218,3.79916,1.86724,1.86724,A,123912.10
3.94687,57.68788611,11.98134949,57.68788550,11.98135000,12:39:12.263898,0.00335,1.41855,1.41855,-0.02520,-0.01266,0.00362,0.01122,-0.01062,0.00092,-0.01458,1.00571,3.94323,1.46668,2.01989,2.01613,-1.91278,3.86654,3.86808,-1.88218,3.79916,1.86724,1.86724,A,123912.10
3.95679,57.68788611,11.98134949,57.68788550,11.98135000,12:39:12.273814,0.00303,1.41855,1.41855,-0.02539,-0.01266,0.00591,0.00053,-0.01276,-0.00104,-0.02281,0.97136,3.95314,1.46668,2.01989,2.01613,-1.91278,3.86654,3.86808,-1.88218,3.79916,1.86724,1.86724,A,123912.10
3.96733,57.68788611,11.98134949,57.68788550,11.98135000,12:39:12.284352,0.00317,1.51846,1.51846,-0.02503,-0.01266,0.00179,-0.00298,-0.01062,-0.05581,0.01549,0.95947,3.96370,1.46668,2.01989,2.01613,-1.91278,3.86654,3.86808,-1.88218,3.79916,1.86724,1.86724,A,123912.10
3.99401,57.68788611,11.98134949,57.68788617,11.98134833,12:39:12.311057,0.01946,1.51846,1.51846,-0.02471,-0.01260,0.01737,0.00282,-0.00161,-0.05758,0.00275,0.90463,3.97389,1.46668,2.01989,2.01613,-1.91278,3.86654,3.98948,-1.98124,3.87329,2.49917,2.49917,A,123912.20
4.00665,57.68788741,11.98134826,57.68788617,11.98134833,12:39:12.323674,0.00769,1.51846,1.51846,-0.02425,-0.01170,0.00744,0.01519,0.00450,-0.03184,0.01122,0.96911,3.99956,1.47704,2.09064,2.08716,-1.98547,4.01200,3.98948,-1.98124,3.87329,2.49917,2.49917,A,123912.20
4.01250,57.68788741,11.98134826,57.68788617,11.98134833,12:39:12.329529,0.00301,1.51846,1.51846,-0.02390,-0.01108,0.00087,0.01183,0.00496,-0.03636,0.01787,1.03151,4.00887,1.47704,2.09064,2.08716,-1.98547,4.01200,3.98948,-1.98124,3.87329,2.49917,2.49917,A,123912.20
4.02308,57.68788741,11.98134826,57.68788617,11.98134833,12:39:12.340100,0.00319,1.51846,1.51846,-0.02367,-0.01028,0.00423,-0.00344,0.00435,-0.01787,0.00750,0.99826,4.01944,1.47704,2.09064,2.08716,-1.98547,4.01200,3.98948,-1.98124,3.87329,2.49917,2.49917,A,123912.20
4.03348,57.68788741,11.98134826,57.68788617,11.98134833,12:39:12.350525,0.00320,1.51846,1.51846,-0.02283,-0.00949,-0.00340,-0.00435,-0.00207,-0.06930,0.05533,1.01888,4.02961,1.47704,2.09064,2.08716,-1.98547,4.01200,3.98948,-1.98124,3.87329,2.49917,2.49917,A,123912.20
4.04378,57.68788741,11.98134826,57.68788617,11.98134833,12:39:12.360796,0.00326,1.51846,1.51846,-0.02277,-0.00870,0.00408,-0.00206,-0.00100,-0.06771,-0.00244,1.01815,4.04014,1.47704,2.09064,2.08716,-1.98547,4.01200,3.98948,-1.98124,3.87329,2.49917,2.49917,A,123912.20
4.05411,57.68788741,11.98134826,57.68788617,11.98134833,12:39:12.371141,0.00319,1.51846,1.51846,-0.02228,-0.00793,-0.01058,-0.00008,-0.00756,-0.00598,0.03709,1.02102,4.05047,1.47704,2.09064,2.08716,-1.98547,4.01200,3.98948,-1.98124,3.87329,2.49917,2.49917,A,123912.20
4.06447,57.68788741,11.98134826,57.68788617,11.98134833,12:39:12.381489,0.00300,1.51846,1.51846,-0.02253,-0.00720,0.00255,-0.00909,-0.00894,-0.00982,-0.02117,0.99808,4.06083,1.47704,2.09064,2.08716,-1.98547,4.01200,3.98948,-1.98124,3.87329,2.49917,2.49917,A,123912.20
4.07504,57.68788741,11.98134826,57.68788617,11.98134833,12:39:12.392062,0.00317,1.51846,1.51846,-0.02196,-0.00649,-0.00203,-0.01230,-0.00451,0.03898,0.03587,0.97490,4.07142,1.47704,2.09064,2.08716,-1.98547,4.01200,3.98948,-1.98124,3.87329,2.49917,2.49917,A,123912.20
4.08545,57.68788741,11.98134826,57.68788617,11.98134833,12:39:12.402487,0.00318,1.51846,1.51846,-0.02214,-0.00587,-0.00356,-0.02253,0.00252,-0.14579,-0.01226,1.01669,4.08160,1.47704,2.09064,2.08716,-1.98547,4.01200,3.98948,-1.98124,3.87329,2.49917,2.49917,A,123912.20
4.11227,57.68788741,11.98134826,57.68788717,11.98134750,12:39:12.429311,0.01961,1.51846,1.51846,-0.02225,-0.00533,-0.00508,-0.00863,0.00374,-0.11633,-0.00543,1.01242,4.09248,1.47704,2.09064,2.08716,-1.98547,4.01200,4.10818,-2.03077,3.98448,1.98985,1.98985,A,123912.30
4.12536,57.68788866,11.98134689,57.68788717,11.98134750,12:39:12.442420,0.00745,1.51846,1.51846,-0.02252,-0.00468,-0.00814,-0.00115,0.00099,0.03080,-0.00695,0.96417,4.11736,1.48533,2.07419,2.07280,-2.06709,4.15039,4.10818,-2.03077,3.98448,1.98985,1.98985,A,123912.30
4.13154,57.68788866,11.98134689,57.68788717,11.98134750,12:39:12.448567,0.00323,1.51846,1.51846,-0.02242,-0.00465,-0.00951,-0.01077,0.00847,-0.01665,0.01049,0.96435,4.12791,1.48533,2.07419,2.07280,-2.06709,4.15039,4.10818,-2.03077,3.98448,1.98985,1.98985,A,123912.30
4.14210,57.68788866,11.98134689,57.68788717,11.98134750,12:39:12.459135,0.00340,1.51846,1.51846,-0.02251,-0.00465,-0.01073,-0.01169,0.00542,-0.10986,-0.00104,0.99589,4.13844,1.48533,2.07419,2.07280,-2.06709,4.15039,4.10818,-2.03077,3.98448,1.98985,1.98985,A,123912.30
4.15227,57.68788866,11.98134689,57.68788717,11.98134750,12:39:12.469300,0.00317,1.51846,1.51846,-0.02224,-0.00465,-0.00936,-0.00939,0.00542,-0.10083,0.02281,1.04999,4.14864,1.48533,2.07419,2.07280,-2.06709,4.15039,4.10818,-2.03077,3.98448,1.98985,1.98985,A,123912.30
4.16271,57.68788866,11.98134689,57.68788717,11.98134750,12:39:12.479745,0.00321,1.51846,1.51846,-0.02170,-0.00465,-0.01150,0.00236,0.00710,-0.04605,0.04502,1.07561,4.15907,1.48533,2.07419,2.07280,-2.06709,4.15039,4.10818,-2.03077,3.98448,1.98985,1.98985,A,123912.30
4.17276,57.68788866,11.98134689,57.68788717,11.98134750,12:39:12.489788,0.00303,1.51846,1.51846,-0.02178,-0.00465,-0.00982,-0.00237,0.00206,0.00354,0.00012,1.04902,4.16912,1.48533,2.07419,2.07280,-2.06709,4.15039,4.10818,-2.03077,3.98448,1.98985,1.98985,A,123912.30
4.18333,57.68788866,11.98134689,57.68788717,11.98134750,12:39:12.500357,0.00319,1.51846,1.51846,-0.02180,-0.00465,-0.01623,-0.01153,-0.00008,0.04843,0.00793,1.01577,4.17970,1.48533,2.07419,2.07280,-2.06709,4.15039,4.10818,-2.03077,3.98448,1.98985,1.98985,A,123912.30
4.19379,57.68788866,11.98134689,57.68788717,11.98134750,12:39:12.510826,0.00319,1.51846,1.51846,-0.02112,-0.00465,-0.01623,-0.02833,-0.00405,-0.04599,0.05551,1.01144,4.18993,1.48533,2.07419,2.07280,-2.06709,4.15039,4.10818,-2.03077,3.98448,1.98985,1.98985,A,123912.30
4.20419,57.68788866,11.98134689,57.68788717,11.98134750,12:39:12.521212,0.00320,1.51846,1.51846,-0.02125,-0.00465,-0.00478,-0.02008,-0.00955,-0.04984,-0.00622,0.97332,4.20055,1.48533,2.07419,2.07280,-2.06709,4.15039,4.10818,-2.03077,3.98448,1.98985,1.98985,A,123912.30
4.23080,57.68788866,11.98134689,57.68788833,11.98134700,12:39:12.547839,0.01939,1.51846,1.51846,-0.02215,-0.00465,-0.00814,-0.01566,-0.00268,-0.09516,-0.05295,0.94898,4.21096,1.48533,2.07419,2.07280,-2.06709,4.15039,4.22666,-2.06049,4.11421,1.79600,1.79600,A,123912.40
4.24148,57.68788991,11.98134559,57.68788833,11.98134700,12:39:12.558523,0.00573,1.51846,1.51846,-0.02188,-0.00465,-0.00447,-0.00909,0.00862,-0.02043,0.02123,0.93062,4.23539,1.49195,2.03205,2.03067,-2.14421,4.28969,4.22666,-2.06049,4.11421,1.79600,1.79600,A,123912.40
4.24936,57.68788991,11.98134559,57.68788833,11.98134700,12:39:12.566403,0.00339,1.51846,1.51846,-0.02154,-0.00462,0.00607,-0.00817,0.01275,-0.01921,0.01623,0.96392,4.24551,1.49195,2.03205,2.03067,-2.14421,4.28969,4.22666,-2.06049,4.11421,1.79600,1.79600,A,123912.40
4.25956,57.68788991,11.98134559,57.68788833,11.98134700,12:39:12.576582,0.00319,1.51846,1.51846,-0.02164,-0.00460,0.00469,-0.00405,0.01412,-0.07161,-0.01080,0.95977,4.25592,1.49195,2.03205,2.03067,-2.14421,4.28969,4.22666,-2.06049,4.11421,1.79600,1.79600,A,123912.40
4.26997,57.68788991,11.98134559,57.68788833,11.98134700,12:39:12.586988,0.00320,1.51846,1.51846,-0.02172,-0.00460,0.00622,-0.01153,0.01626,-0.04483,-0.01080,0.97978,4.26631,1.49195,2.03205,2.03067,-2.14421,4.28969,4.22666,-2.06049,4.11421,1.79600,1.79600,A,123912.40
4.28059,57.68788991,11.98134559,57.68788833,11.98134700,12:39:12.597618,0.00324,1.51846,1.51846,-0.02182,-0.00460,-0.00065,-0.00924,0.00542,0.02294,-0.00750,1.01138,4.27695,1.49195,2.03205,2.03067,-2.14421,4.28969,4.22666,-2.06049,4.11421,1.79600,1.79600,A,123912.40
4.29094,57.68788991,11.98134559,57.68788833,11.98134700,12:39:12.607960,0.00319,1.51846,1.51846,-0.02209,-0.00460,0.00545,-0.01138,0.00007,-0.05478,-0.02507,1.07342,4.28730,1.49195,2.03205,2.03067,-2.14421,4.28969,4.22666,-2.06049,4.11421,1.79600,1.79600,A,123912.40
4.30099,57.68788991,11.98134559,57.68788833,11.98134700,12:39:12.618230,0.00301,1.51846,1.51846,-0.02231,-0.00460,-0.00157,-0.01016,-0.00680,-0.04148,-0.01696,1.06658,4.29736,1.49195,2.03205,2.03067,-2.14421,4.28969,4.22666,-2.06049,4.11421,1.79600,1.79600,A,123912.40
4.31157,57.68788991,11.98134559,57.68788833,11.98134700,12:39:12.628591,0.00319,1.51846,1.51846,-0.02268,-0.00460,-0.00646,-0.00665,-0.01184,-0.04215,-0.02397,1.07464,4.30793,1.49195,2.03205,2.03067,-2.14421,4.28969,4.22666,-2.06049,4.11421,1.79600,1.79600,A,123912.40
4.32312,57.68788991,11.98134559,57.68788833,11.98134700,12:39:12.640166,0.00435,1.51846,1.51846,-0.02329,-0.00460,-0.00905,-0.00283,-0.01550,-0.00433,-0.03459,0.95477,4.31941,1.49195,2.03205,2.03067,-2.14421,4.28969,4.22666,-2.06049,4.11421,1.79600,1.79600,A,123912.40
4.35967,57.68788991,11.98134559,57.68789000,11.98134517,12:39:12.676718,0.03031,1.51846,1.51846,-0.02367,-0.00460,-0.01043,0.00420,-0.01306,-0.03709,-0.02068,0.92012,4.32874,1.49195,2.03205,2.03067,-2.14421,4.28969,4.35478,-2.16946,4.29954,2.10233,2.10233,A,123912.60
4.38015,57.68789147,11.98134413,57.68789000,11.98134517,12:39:12.697195,0.00742,1.51846,1.51846,-0.02451,-0.00460,0.00011,0.00893,-0.00375,-0.02336,-0.06240,1.04115,4.37357,1.49726,2.04207,2.04070,-2.23110,4.46305,4.35478,-2.16946,4.29954,2.10233,2.10233,A,123912.60
4.38644,57.68789147,11.98134413,57.68789000,11.98134517,12:39:12.703464,0.00306,1.51846,1.51846,-0.02522,-0.00460,-0.00417,0.01367,-0.00619,-0.03282,-0.05258,1.07110,4.38279,1.49726,2.04207,2.04070,-2.23110,4.46305,4.35478,-2.16946,4.29954,2.10233,2.10233,A,123912.60
4.39663,57.68789147,11.98134413,57.68789000,11.98134517,12:39:12.713661,0.00300,1.51846,1.51846,-0.02604,-0.00460,-0.00569,0.00496,-0.01306,-0.01122,-0.05935,1.06109,4.39300,1.49726,2.04207,2.04070,-2.23110,4.46305,4.35478,-2.16946,4.29954,2.10233,2.10233,A,123912.60
4.40886,57.68789147,11.98134413,57.68789000,11.98134517,12:39:12.727803,0.00354,1.51846,1.51846,-0.02629,-0.00460,-0.00462,-0.00329,-0.01657,0.01995,-0.01964,1.05445,4.40522,1.49726,2.04207,2.04070,-2.23110,4.46305,4.35478,-2.16946,4.29954,2.10233,2.10233,A,123912.60
4.42088,57.68789147,11.98134413,57.68789000,11.98134517,12:39:12.738191,0.00516,1.63256,1.63256,-0.02607,-0.00460,0.00041,-0.01642,-0.01566,-0.00134,0.00781,1.02901,4.41722,1.49726,2.04207,2.04070,-2.23110,4.46305,4.35478,-2.16946,4.29954,2.10233,2.10233,A,123912.60
4.42993,57.68789147,11.98134413,57.68789000,11.98134517,12:39:12.746959,0.00398,1.63256,1.63256,-0.02606,-0.00460,0.00515,-0.01398,-0.01505,-0.02501,-0.00823,0.98149,4.42626,1.49726,2.04207,2.04070,-2.23110,4.46305,4.35478,-2.16946,4.29954,2.10233,2.10233,A,123912.60
4.43962,57.68789147,11.98134413,57.68789000,11.98134517,12:39:12.756646,0.00327,1.63256,1.63256,-0.02626,-0.00460,0.00545,-0.01825,-0.01459,-0.03215,-0.02306,1.01900,4.43599,1.49726,2.04207,2.04070,-2.23110,4.46305,4.35478,-2.16946,4.29954,2.10233,2.10233,A,123912.60
4.45009,57.68789147,11.98134413,57.68789000,11.98134517,12:39:12.767109,0.00333,1.63256,1.63256,-0.02691,-0.00460,0.00179,-0.01550,-0.00894,-0.04404,-0.04721,0.92720,4.44643,1.49726,2.04207,2.04070,-2.23110,4.46305,4.35478,-2.16946,4.29954,2.10233,2.10233,A,123912.60
4.47783,57.68789147,11.98134413,57.68789100,11.98134400,12:39:12.794877,0.02051,1.63256,1.63256,-0.02676,-0.00460,0.00775,-0.01092,-0.00604,-0.07997,-0.00244,0.95099,4.45668,1.49726,2.04207,2.04070,-2.23110,4.46305,4.47253,-2.23880,4.41073,2.12840,2.12840,A,123912.70
4.49422,57.68789272,11.98134292,57.68789100,11.98134400,12:39:12.811254,0.00783,1.63256,1.63256,-0.02697,-0.00460,0.01859,-0.00222,-0.00588,0.01555,-0.05466,0.94123,4.48722,1.52432,2.05463,2.05326,-2.30317,4.60160,4.47253,-2.23880,4.41073,2.12840,2.12840,A,123912.70
4.49999,57.68789272,11.98134292,57.68789100,11.98134400,12:39:12.817020,0.00320,1.63256,1.63256,-0.02696,-0.00460,0.00927,-0.00817,-0.01092,0.00848,-0.01159,0.95044,4.49635,1.52432,2.05463,2.05326,-2.30317,4.60160,4.47253,-2.23880,4.41073,2.12840,2.12840,A,123912.70
4.51037,57.68789272,11.98134292,57.68789100,11.98134400,12:39:12.827399,0.00318,1.63256,1.63256,-0.02671,-0.00460,0.00393,-0.02543,-0.01718,-0.01775,0.00762,1.01016,4.50672,1.52432,2.05463,2.05326,-2.30317,4.60160,4.47253,-2.23880,4.41073,2.12840,2.12840,A,123912.70
4.52062,57.68789272,11.98134292,57.68789100,11.98134400,12:39:12.837646,0.00301,1.63256,1.63256,-0.02649,-0.00460,-0.00081,-0.01993,-0.02421,-0.06637,0.00866,1.04835,4.51697,1.52432,2.05463,2.05326,-2.30317,4.60160,4.47253,-2.23880,4.41073,2.12840,2.12840,A,123912.70
4.53119,57.68789272,11.98134292,57.68789100,11.98134400,12:39:12.848214,0.00319,1.63256,1.63256,-0.02673,-0.00460,-0.00111,-0.00863,-0.02299,-0.09382,-0.02397,1.09074,4.52755,1.52432,2.05463,2.05326,-2.30317,4.60160,4.47253,-2.23880,4.41073,2.12840,2.12840,A,123912.70
4.54172,57.68789272,11.98134292,57.68789100,11.98134400,12:39:12.858756,0.00349,1.63256,1.63256,-0.02649,-0.00460,0.00393,0.00435,-0.02696,-0.01238,0.00787,1.09428,4.53787,1.52432,2.05463,2.05326,-2.30317,4.60160,4.47253,-2.23880,4.41073,2.12840,2.12840,A,123912.70
4.55195,57.68789272,11.98134292,57.68789100,11.98134400,12:39:12.868968,0.00332,1.63256,1.63256,-0.02595,-0.00460,-0.00401,0.00481,-0.02161,0.01391,0.03434,1.05963,4.54831,1.52432,2.05463,2.05326,-2.30317,4.60160,4.47253,-2.23880,4.41073,2.12840,2.12840,A,123912.70
4.56298,57.68789272,11.98134292,57.68789100,11.98134400,12:39:12.880017,0.00396,1.63256,1.63256,-0.02544,-0.00460,0.00194,-0.00008,-0.01047,-0.02037,0.02672,1.00998,4.55933,1.52432,2.05463,2.05326,-2.30317,4.60160,4.47253,-2.23880,4.41073,2.12840,2.12840,A,123912.70
4.59063,57.68789272,11.98134292,57.68789217,11.98134350,12:39:12.907669,0.02105,1.63256,1.63256,-0.02529,-0.00460,0.00377,-0.01016,-0.00619,0.00586,0.00183,0.91988,4.56960,1.52432,2.05463,2.05326,-2.30317,4.60160,4.58573,-2.26852,4.54046,1.79600,1.79600,A,123912.80
4.60679,57.68789395,11.98134171,57.68789217,11.98134350,12:39:12.923821,0.00816,1.63256,1.63256,-0.02476,-0.00460,-0.00065,-0.00924,-0.01016,-0.04801,0.02952,0.94489,4.59974,1.54596,2.01544,2.01408,-2.37490,4.73881,4.58573,-2.26852,4.54046,1.79600,1.79600,A,123912.80
4.61219,57.68789395,11.98134171,57.68789217,11.98134350,12:39:12.929217,0.00316,1.63256,1.63256,-0.02413,-0.00460,-0.00310,-0.00100,-0.01123,-0.05722,0.03892,0.99656,4.60856,1.54596,2.01544,2.01408,-2.37490,4.73881,4.58573,-2.26852,4.54046,1.79600,1.79600,A,123912.80
4.62284,57.68789395,11.98134171,57.68789217,11.98134350,12:39:12.939863,0.00319,1.63256,1.63256,-0.02426,-0.00460,-0.00386,0.00878,-0.01642,-0.03770,-0.01086,1.03273,4.61921,1.54596,2.01544,2.01408,-2.37490,4.73881,4.58573,-2.26852,4.54046,1.79600,1.79600,A,123912.80
4.63290,57.68789395,11.98134171,57.68789217,11.98134350,12:39:12.950198,0.00302,1.63256,1.63256,-0.02484,-0.00460,-0.00325,0.00710,-0.01825,-0.01110,-0.04185,1.03804,4.62926,1.54596,2.01544,2.01408,-2.37490,4.73881,4.58573,-2.26852,4.54046,1.79600,1.79600,A,123912.80
4.64374,57.68789395,11.98134171,57.68789217,11.98134350,12:39:12.960773,0.00346,1.63256,1.63256,-0.02516,-0.00460,-0.02127,-0.00588,-0.01428,0.01458,-0.01147,1.01595,4.64009,1.54596,2.01544,2.01408,-2.37490,4.73881,4.58573,-2.26852,4.54046,1.79600,1.79600,A,123912.80
4.65386,57.68789395,11.98134171,57.68789217,11.98134350,12:39:12.970882,0.00318,1.63256,1.63256,-0.02515,-0.00460,-0.01822,-0.02253,-0.01489,0.00915,0.00756,1.00979,4.65020,1.54596,2.01544,2.01408,-2.37490,4.73881,4.58573,-2.26852,4.54046,1.79600,1.79600,A,123912.80
4.66426,57.68789395,11.98134171,57.68789217,11.98134350,12:39:12.981285,0.00318,1.63256,1.63256,-0.02511,-0.00460,-0.01990,-0.03077,-0.01657,-0.03489,0.01074,0.99668,4.66063,1.54596,2.01544,2.01408,-2.37490,4.73881,4.58573,-2.26852,4.54046,1.79600,1.79600,A,123912.80
4.67468,57.68789395,11.98134171,57.68789217,11.98134350,12:39:12.991707,0.00321,1.63256,1.63256,-0.02487,-0.00460,-0.01547,-0.02451,-0.01260,-0.06277,0.02263,1.04182,4.67104,1.54596,2.01544,2.01408,-2.37490,4.73881,4.58573,-2.26852,4.54046,1.79600,1.79600,A,123912.80
4.68506,57.68789395,11.98134171,57.68789217,11.98134350,12:39:13.002308,0.00336,1.63256,1.63256,-0.02502,-0.00460,-0.01440,-0.00665,-0.01718,-0.03605,-0.00518,0.96929,4.68108,1.54596,2.01544,2.01408,-2.37490,4.73881,4.58573,-2.26852,4.54046,1.79600,1.79600,A,123912.80
4.71130,57.68789395,11.98134171,57.68789333,11.98134250,12:39:13.028333,0.01920,1.63256,1.63256,-0.02558,-0.00462,-0.02051,-0.00374,-0.02009,-0.04740,-0.02690,0.94123,4.69166,1.54596,2.01544,2.01408,-2.37490,4.73881,4.70721,-2.32796,4.67019,2.00042,2.00042,A,123912.90
4.72174,57.68789527,11.98134055,57.68789333,11.98134250,12:39:13.038772,0.00553,1.63256,1.63256,-0.02531,-0.00462,-0.02173,0.00832,-0.01535,0.00006,0.04282,0.90939,4.71587,1.56328,2.01277,2.01140,-2.44368,4.88518,4.70721,-2.32796,4.67019,2.00042,2.00042,A,123912.90
4.72979,57.68789527,11.98134055,57.68789333,11.98134250,12:39:13.046817,0.00319,1.63256,1.63256,-0.02515,-0.00462,-0.00905,-0.00191,-0.01673,-0.00976,0.01165,1.01876,4.72594,1.56328,2.01277,2.01140,-2.44368,4.88518,4.70721,-2.32796,4.67019,2.00042,2.00042,A,123912.90
4.74021,57.68789527,11.98134055,57.68789333,11.98134250,12:39:13.057233,0.00320,1.63256,1.63256,-0.02470,-0.00462,-0.00600,-0.01138,-0.01688,0.01940,0.03062,1.05603,4.73657,1.56328,2.01277,2.01140,-2.44368,4.88518,4.70721,-2.32796,4.67019,2.00042,2.00042,A,123912.90
4.75059,57.68789527,11.98134055,57.68789333,11.98134250,12:39:13.067632,0.00317,1.63256,1.63256,-0.02482,-0.00462,-0.00279,-0.01413,-0.01795,-0.08028,-0.01196,1.13753,4.74695,1.56328,2.01277,2.01140,-2.44368,4.88518,4.70721,-2.32796,4.67019,2.00042,2.00042,A,123912.90
4.76068,57.68789527,11.98134055,57.68789333,11.98134250,12:39:13.077716,0.00302,1.63256,1.63256,-0.02493,-0.00462,-0.01211,0.00191,-0.01963,0.01330,-0.00458,1.12069,4.75705,1.56328,2.01277,2.01140,-2.44368,4.88518,4.70721,-2.32796,4.67019,2.00042,2.00042,A,123912.90
4.77143,57.68789527,11.98134055,57.68789333,11.98134250,12:39:13.088455,0.00335,1.63256,1.63256,-0.02496,-0.00462,-0.01516,0.01183,-0.01993,-0.02501,0.00390,1.02035,4.76779,1.56328,2.01277,2.01140,-2.44368,4.88518,4.70721,-2.32796,4.67019,2.00042,2.00042,A,123912.90
4.78186,57.68789527,11.98134055,57.68789333,11.98134250,12:39:13.098896,0.00338,1.63256,1.63256,-0.02450,-0.00462,-0.01791,0.00756,-0.01856,0.04325,0.03453,0.92202,4.77820,1.56328,2.01277,2.01140,-2.44368,4.88518,4.70721,-2.32796,4.67019,2.00042,2.00042,A,123912.90
4.79204,57.68789527,11.98134055,57.68789333,11.98134250,12:39:13.109073,0.00317,1.63256,1.63256,-0.02381,-0.00462,-0.00707,-0.01627,-0.01688,-0.00122,0.04032,0.87023,4.78841,1.56328,2.01277,2.01140,-2.44368,4.88518,4.70721,-2.32796,4.67019,2.00042,2.00042,A,123912.90
4.80259,57.68789527,11.98134055,57.68789333,11.98134250,12:39:13.119618,0.00332,1.63256,1.63256,-0.02357,-0.00462,0.00316,-0.02436,-0.01245,-0.03032,0.00830,0.87358,4.79893,1.56328,2.01277,2.01140,-2.44368,4.88518,4.70721,-2.32796,4.67019,2.00042,2.00042,A,123912.90
4.83004,57.68789527,11.98134055,57.68789450,11.98134150,12:39:13.148103,0.02042,1.63256,1.63256,-0.02272,-0.00462,0.00836,-0.02772,-0.00894,-0.07247,0.04502,0.94782,4.80900,1.56328,2.01277,2.01140,-2.44368,4.88518,4.82426,-2.38739,4.79991,2.00042,2.00042,A,123913.00
4.84500,57.68789670,11.98133931,57.68789450,11.98134150,12:39:13.162271,0.00717,1.63256,1.63256,-0.02274,-0.00462,0.01538,0.03703,-0.01413,0.00427,-0.03886,1.13857,4.83917,1.57714,2.01044,2.00907,-2.51782,5.04411,4.82426,-2.38739,4.79991,2.00042,2.00042,A,123913.00
4.85157,57.68789670,11.98133931,57.68789450,11.98134150,12:39:13.168603,0.00334,1.63256,1.63256,-0.02308,-0.00462,0.01065,0.03596,-0.01856,0.02916,-0.03440,1.09166,4.84779,1.57714,2.01044,2.00907,-2.51782,5.04411,4.82426,-2.38739,4.79991,2.00042,2.00042,A,123913.00
4.86180,57.68789670,11.98133931,57.68789450,11.98134150,12:39:13.178840,0.00318,1.63256,1.63256,-0.02299,-0.00462,0.01523,0.01550,-0.01321,0.00909,-0.00756,1.03718,4.85794,1.57714,2.01044,2.00907,-2.51782,5.04411,4.82426,-2.38739,4.79991,2.00042,2.00042,A,123913.00
4.87221,57.68789670,11.98133931,57.68789450,11.98134150,12:39:13.189234,0.00319,1.63256,1.63256,-0.02298,-0.00462,0.01844,-0.00741,-0.01444,0.02867,-0.01476,0.98918,4.86857,1.57714,2.01044,2.00907,-2.51782,5.04411,4.82426,-2.38739,4.79991,2.00042,2.00042,A,123913.00
4.88286,57.68789670,11.98133931,57.68789450,11.98134150,12:39:13.199892,0.00343,1.63256,1.63256,-0.02235,-0.00462,0.02378,-0.02192,-0.01337,-0.05679,0.02135,0.95599,4.87922,1.57714,2.01044,2.00907,-2.51782,5.04411,4.82426,-2.38739,4.79991,2.00042,2.00042,A,123913.00
4.89278,57.68789670,11.98133931,57.68789450,11.98134150,12:39:13.209809,0.00313,1.63256,1.63256,-0.02202,-0.00462,0.03035,-0.01489,-0.01169,0.01964,-0.00012,0.88755,4.88912,1.57714,2.01044,2.00907,-2.51782,5.04411,4.82426,-2.38739,4.79991,2.00042,2.00042,A,123913.00
4.90323,57.68789670,11.98133931,57.68789450,11.98134150,12:39:13.220256,0.00318,1.63256,1.63256,-0.02222,-0.00462,0.03203,-0.01764,-0.01047,-0.01403,-0.03440,0.90591,4.89959,1.57714,2.01044,2.00907,-2.51782,5.04411,4.82426,-2.38739,4.79991,2.00042,2.00042,A,123913.00
4.91360,57.68789670,11.98133931,57.68789450,11.98134150,12:39:13.230645,0.00316,1.63256,1.63256,-0.02207,-0.00462,0.03966,-0.00191,-0.00481,-0.08217,-0.01726,0.93257,4.90977,1.57714,2.01044,2.00907,-2.51782,5.04411,4.82426,-2.38739,4.79991,2.00042,2.00042,A,123913.00
4.92418,57.68789670,11.98133931,57.68789450,11.98134150,12:39:13.241203,0.00334,1.63256,1.63256,-0.02236,-0.00462,0.04104,0.01535,0.00404,-0.10602,-0.05033,0.99778,4.92053,1.57714,2.01044,2.00907,-2.51782,5.04411,4.82426,-2.38739,4.79991,2.00042,2.00042,A,123913.00
4.96386,57.68789670,11.98133931,57.68789650,11.98133917,12:39:13.280934,0.03261,1.63256,1.63256,-0.02206,-0.00462,0.04226,0.03718,0.00481,-0.10779,-0.01159,1.09184,4.93077,1.57714,2.01044,2.00907,-2.51782,5.04411,4.95765,-2.52608,5.02230,2.12840,2.12840,A,123913.20
4.97783,57.68789828,11.98133790,57.68789650,11.98133917,12:39:13.294869,0.00713,1.39937,1.39937,-0.02043,-0.00462,0.03890,-0.02574,-0.00191,-0.02934,0.00159,0.99277,4.97195,1.54158,2.02760,2.02623,-2.60137,5.22042,4.95765,-2.52608,5.02230,2.12840,2.12840,A,123913.20
4.98448,57.68789828,11.98133790,57.68789650,11.98133917,12:39:13.301507,0.00304,1.39937,1.39937,-0.02044,-0.00462,0.04837,-0.01932,-0.00252,-0.05984,-0.02836,0.95904,4.98083,1.54158,2.02760,2.02623,-2.60137,5.22042,4.95765,-2.52608,5.02230,2.12840,2.12840,A,123913.20
4.99503,57.68789828,11.98133790,57.68789650,11.98133917,12:39:13.312066,0.00320,1.39937,1.39937,-0.02066,-0.00462,0.03783,-0.01046,-0.01047,-0.06515,-0.03788,0.92592,4.99140,1.54158,2.02760,2.02623,-2.60137,5.22042,4.95765,-2.52608,5.02230,2.12840,2.12840,A,123913.20
5.00555,57.68789828,11.98133790,57.68789650,11.98133917,12:39:13.322602,0.00331,1.39937,1.39937,-0.02043,-0.00462,0.03905,0.00267,0.00175,-0.07845,-0.01025,0.88853,5.00157,1.54158,2.02760,2.02623,-2.60137,5.22042,4.95765,-2.52608,5.02230,2.12840,2.12840,A,123913.20
5.01847,57.68789828,11.98133790,57.68789650,11.98133917,12:39:13.335559,0.00584,1.39937,1.39937,0.00000,-0.00462,0.03554,0.01183,0.00664,-0.05094,-0.02843,0.91878,5.01223,1.54158,2.02760,2.02623,-2.60137,5.22042,4.95765,-2.52608,5.02230,2.12840,2.12840,A,123913.20
5.03556,57.68789828,11.98133790,57.68789650,11.98133917,12:39:13.353342,0.01274,1.39937,1.39937,0.00033,-0.00460,0.03417,0.01199,0.01412,-0.06930,0.01763,0.97710,5.02305,1.54158,2.02760,2.02623,0.02432,0.00000,4.95765,-2.52608,5.02230,2.12840,2.12840,A,123913.20
5.05096,57.68789828,11.98133790,57.68789650,11.98133917,12:39:13.368003,0.00650,1.39937,1.39937,0.00109,-0.00457,0.02958,0.01397,0.01260,-0.00287,0.02806,1.07793,5.04633,1.54158,2.02760,2.02623,0.02432,0.00000,4.95765,-2.52608,5.02230,2.12840,2.12840,A,123913.20
5.07567,57.68789828,11.98133790,57.68789767,11.98133867,12:39:13.393314,0.02081,1.39937,1.39937,0.00055,-0.00457,0.02760,0.00588,0.00908,0.00152,-0.03148,1.07500,5.05441,1.54158,2.02760,2.02623,0.02432,0.00000,5.06934,-2.55580,5.15203,1.79600,1.79600,A,123913.30
5.09139,57.68789954,11.98133675,57.68789767,11.98133867,12:39:13.408440,0.00813,1.39937,1.39937,0.00082,-0.00454,0.00943,-0.02421,-0.00420,-0.04972,0.02135,1.00363,5.08297,1.51314,1.99246,1.99111,-2.66944,5.36062,5.06934,-2.55580,5.15203,1.79600,1.79600,A,123913.30
5.09776,57.68789954,11.98133675,57.68789767,11.98133867,12:39:13.414794,0.00416,1.39937,1.39937,0.00116,-0.00451,0.00790,-0.02696,-0.00359,-0.08796,0.03672,0.95556,5.09298,1.51314,1.99246,1.99111,-2.66944,5.36062,5.06934,-2.55580,5.15203,1.79600,1.79600,A,123913.30
5.10815,57.68789954,11.98133675,57.68789767,11.98133867,12:39:13.425178,0.00415,1.39937,1.39937,0.00101,-0.00440,0.00652,-0.01428,-0.00176,-0.12834,0.00634,0.89957,5.10355,1.51314,1.99246,1.99111,-2.66944,5.36062,5.06934,-2.55580,5.15203,1.79600,1.79600,A,123913.30
5.11876,57.68789954,11.98133675,57.68789767,11.98133867,12:39:13.435786,0.00414,1.39937,1.39937,0.00127,-0.00426,0.00194,-0.00191,0.00190,-0.06240,0.03227,0.86352,5.11395,1.51314,1.99246,1.99111,-2.66944,5.36062,5.06934,-2.55580,5.15203,1.79600,1.79600,A,123913.30
5.12966,57.68789954,11.98133675,57.68789767,11.98133867,12:39:13.446701,0.00465,1.39937,1.39937,0.00095,-0.00420,0.00362,-0.00451,0.00404,-0.01525,-0.00250,0.88322,5.12480,1.51314,1.99246,1.99111,-2.66944,5.36062,5.06934,-2.55580,5.15203,1.79600,1.79600,A,123913.30
5.13979,57.68789954,11.98133675,57.68789767,11.98133867,12:39:13.457729,0.00439,1.39937,1.39937,0.00125,-0.00420,0.00255,-0.00420,0.00649,-0.03080,0.03831,0.97045,5.13495,1.51314,1.99246,1.99111,-2.66944,5.36062,5.06934,-2.55580,5.15203,1.79600,1.79600,A,123913.30
5.15005,57.68789954,11.98133675,57.68789767,11.98133867,12:39:13.467076,0.00441,1.39937,1.39937,0.00096,-0.00420,-0.00264,-0.00237,0.00389,-0.06655,0.00409,1.01766,5.14502,1.51314,1.99246,1.99111,-2.66944,5.36062,5.06934,-2.55580,5.15203,1.79600,1.79600,A,123913.30
5.16023,57.68789954,11.98133675,57.68789767,11.98133867,12:39:13.477264,0.00420,1.39937,1.39937,0.00119,-0.00420,-0.00356,0.01336,0.00358,-0.12725,0.04294,1.09196,5.15560,1.51314,1.99246,1.99111,-2.66944,5.36062,5.06934,-2.55580,5.15203,1.79600,1.79600,A,123913.30
5.17063,57.68789954,11.98133675,57.68789767,11.98133867,12:39:13.487661,0.00420,1.39937,1.39937,0.00068,-0.00420,-0.00188,0.03627,-0.00237,0.00445,-0.01220,1.12722,5.16577,1.51314,1.99246,1.99111,-2.66944,5.36062,5.06934,-2.55580,5.15203,1.79600,1.79600,A,123913.30
5.19699,57.68789954,11.98133675,57.68789867,11.98133767,12:39:13.514169,0.02016,1.39937,1.39937,0.00026,-0.00420,-0.01684,0.01015,-0.00405,0.06027,0.00470,1.11905,5.17638,1.51314,1.99246,1.99111,-2.66944,5.36062,5.19177,-2.61524,5.26323,2.06169,2.06169,A,123913.40
5.21274,57.68790093,11.98133560,57.68789867,11.98133767,12:39:13.529778,0.00783,1.39937,1.39937,0.00039,-0.00420,-0.01150,-0.05383,-0.01153,-0.05655,0.04984,0.96075,5.20587,1.49039,2.00238,2.00114,-2.73802,5.51527,5.19177,-2.61524,5.26323,2.06169,2.06169,A,123913.40
5.21931,57.68790093,11.98133560,57.68789867,11.98133767,12:39:13.536341,0.00401,1.39937,1.39937,-0.00061,-0.00420,-0.00310,-0.04910,-0.00940,-0.03703,-0.03880,0.87285,5.21478,1.49039,2.00238,2.00114,-2.73802,5.51527,5.19177,-2.61524,5.26323,2.06169,2.06169,A,123913.40
5.22988,57.68790093,11.98133560,57.68789867,11.98133767,12:39:13.546905,0.00428,1.39937,1.39937,-0.00199,-0.00420,0.00057,-0.04376,-0.01092,-0.06173,-0.06143,0.84644,5.22498,1.49039,2.00238,2.00114,-2.73802,5.51527,5.19177,-2.61524,5.26323,2.06169,2.06169,A,123913.40
5.24059,57.68790093,11.98133560,57.68789867,11.98133767,12:39:13.557621,0.00459,1.39937,1.39937,-0.00429,-0.00420,0.00148,-0.02589,-0.00191,-0.07552,-0.11401,0.83186,5.23552,1.49039,2.00238,2.00114,-2.73802,5.51527,5.19177,-2.61524,5.26323,2.06169,2.06169,A,123913.40
5.25075,57.68790093,11.98133560,57.68789867,11.98133767,12:39:13.567778,0.00436,1.39937,1.39937,-0.00569,-0.00420,-0.00493,-0.00100,0.00145,-0.07430,-0.06594,0.88950,5.24587,1.49039,2.00238,2.00114,-2.73802,5.51527,5.19177,-2.61524,5.26323,2.06169,2.06169,A,123913.40
5.26193,57.68790093,11.98133560,57.68789867,11.98133767,12:39:13.578973,0.00439,1.39937,1.39937,-0.00604,-0.00420,0.01034,0.01580,0.01000,-0.09949,-0.01659,1.01095,5.25702,1.49039,2.00238,2.00114,-2.73802,5.51527,5.19177,-2.61524,5.26323,2.06169,2.06169,A,123913.40
5.27212,57.68790093,11.98133560,57.68789867,11.98133767,12:39:13.589145,0.00418,1.39937,1.39937,-0.00569,-0.00420,0.00561,0.02008,0.01473,-0.00104,0.03727,1.10337,5.26748,1.49039,2.00238,2.00114,-2.73802,5.51527,5.19177,-2.61524,5.26323,2.06169,2.06169,A,123913.40
5.28282,57.68790093,11.98133560,57.68789867,11.98133767,12:39:13.599848,0.00449,1.39937,1.39937,-0.00546,-0.00420,0.01187,0.01061,0.01870,0.01696,0.02501,1.12386,5.27767,1.49039,2.00238,2.00114,-2.73802,5.51527,5.19177,-2.61524,5.26323,2.06169,2.06169,A,123913.40
5.29303,57.68790093,11.98133560,57.68789867,11.98133767,12:39:13.610295,0.00431,1.39937,1.39937,-0.00539,-0.00420,0.00316,-0.00084,0.00908,0.10535,0.01885,1.08068,5.28841,1.49039,2.00238,2.00114,-2.73802,5.51527,5.19177,-2.61524,5.26323,2.06169,2.06169,A,123913.40
5.31974,57.68790093,11.98133560,57.68790000,11.98133683,12:39:13.636772,0.02062,1.39937,1.39937,-0.00491,-0.00420,0.00271,-0.02680,-0.00298,0.01787,0.04788,1.06701,5.29865,1.49039,2.00238,2.00114,-2.73802,5.51527,5.31366,-2.66477,5.41149,1.89322,1.89322,A,123913.50
5.34034,57.68790234,11.98133442,57.68790000,11.98133683,12:39:13.657378,0.00847,1.39937,1.39937,-0.00540,-0.00420,-0.00554,0.00527,-0.03963,-0.06368,-0.00415,0.90640,5.33346,1.47218,1.98559,1.98434,-2.80836,5.67129,5.31366,-2.66477,5.41149,1.89322,1.89322,A,123913.50
5.34642,57.68790234,11.98133442,57.68790000,11.98133683,12:39:13.663450,0.00437,1.39937,1.39937,-0.00656,-0.00420,-0.01012,0.01183,-0.03490,-0.08888,-0.05051,0.88310,5.34140,1.47218,1.98559,1.98434,-2.80836,5.67129,5.31366,-2.66477,5.41149,1.89322,1.89322,A,123913.50
5.35663,57.68790234,11.98133442,57.68790000,11.98133683,12:39:13.673654,0.00419,1.39937,1.39937,-0.00730,-0.00420,-0.00676,0.02710,-0.02681,0.03026,-0.02727,0.88682,5.35201,1.47218,1.98559,1.98434,-2.80836,5.67129,5.31366,-2.66477,5.41149,1.89322,1.89322,A,123913.50
5.36703,57.68790234,11.98133442,57.68790000,11.98133683,12:39:13.684057,0.00419,1.39937,1.39937,-0.00776,-0.00423,-0.01028,0.02542,-0.01734,-0.04636,-0.00988,0.91457,5.36240,1.47218,1.98559,1.98434,-2.80836,5.67129,5.31366,-2.66477,5.41149,1.89322,1.89322,A,123913.50
5.37763,57.68790234,11.98133442,57.68790000,11.98133683,12:39:13.694678,0.00424,1.39937,1.39937,-0.00783,-0.00443,-0.00982,0.03046,-0.01825,0.03465,0.01397,0.98918,5.37277,1.47218,1.98559,1.98434,-2.80836,5.67129,5.31366,-2.66477,5.41149,1.89322,1.89322,A,123913.50
5.38796,57.68790234,11.98133442,57.68790000,11.98133683,12:39:13.704999,0.00417,1.39937,1.39937,-0.00796,-0.00505,-0.01028,0.02344,-0.01886,-0.00952,0.01135,1.05524,5.38334,1.47218,1.98559,1.98434,-2.80836,5.67129,5.31366,-2.66477,5.41149,1.89322,1.89322,A,123913.50
5.39841,57.68790234,11.98133442,57.68790000,11.98133683,12:39:13.715451,0.00422,1.39937,1.39937,-0.00844,-0.00626,-0.00325,0.01290,-0.02558,0.01598,-0.01915,1.09105,5.39353,1.47218,1.98559,1.98434,-2.80836,5.67129,5.31366,-2.66477,5.41149,1.89322,1.89322,A,123913.50
5.40877,57.68790234,11.98133442,57.68790000,11.98133683,12:39:13.725810,0.00419,1.39937,1.39937,-0.00884,-0.00802,-0.00203,0.00847,-0.02925,0.08070,-0.01568,1.11386,5.40416,1.47218,1.98559,1.98434,-2.80836,5.67129,5.31366,-2.66477,5.41149,1.89322,1.89322,A,123913.50
5.43787,57.68790234,11.98133442,57.68790100,11.98133600,12:39:13.754909,0.02289,1.39937,1.39937,-0.00933,-0.00983,0.00744,-0.00573,-0.02742,-0.03886,-0.02928,1.10233,5.41453,1.47218,1.98559,1.98434,-2.80836,5.67129,5.43029,-2.71430,5.52268,1.98985,1.98985,A,123913.60
5.45435,57.68790355,11.98133345,57.68790100,11.98133600,12:39:13.771388,0.00927,1.49252,1.49252,-0.01083,-0.01382,-0.00142,-0.00695,-0.02635,-0.00872,-0.07777,0.87291,5.44646,1.47625,1.98631,1.98221,-2.86599,5.80589,5.43029,-2.71430,5.52268,1.98985,1.98985,A,123913.60
5.45946,57.68790355,11.98133345,57.68790100,11.98133600,12:39:13.776486,0.00407,1.49252,1.49252,-0.01140,-0.01442,-0.00065,-0.01581,-0.02818,-0.02202,-0.02653,0.86327,5.45496,1.47625,1.98631,1.98221,-2.86599,5.80589,5.43029,-2.71430,5.52268,1.98985,1.98985,A,123913.60
5.47038,57.68790355,11.98133345,57.68790100,11.98133600,12:39:13.787408,0.00474,1.49252,1.49252,-0.01167,-0.01478,0.00591,-0.01077,-0.02619,-0.03050,-0.01385,0.90847,5.46548,1.47625,1.98631,1.98221,-2.86599,5.80589,5.43029,-2.71430,5.52268,1.98985,1.98985,A,123913.60
5.48205,57.68790355,11.98133345,57.68790100,11.98133600,12:39:13.799343,0.00503,1.49252,1.49252,-0.01218,-0.01487,0.00881,-0.00542,-0.02757,-0.04544,-0.03471,1.01053,5.47711,1.47625,1.98631,1.98221,-2.86599,5.80589,5.43029,-2.71430,5.52268,1.98985,1.98985,A,123913.60
5.49367,57.68790355,11.98133345,57.68790100,11.98133600,12:39:13.810725,0.00626,1.49252,1.49252,-0.01231,-0.01487,0.00820,-0.00787,-0.02528,0.06350,-0.00964,1.10148,5.48839,1.47625,1.98631,1.98221,-2.86599,5.80589,5.43029,-2.71430,5.52268,1.98985,1.98985,A,123913.60
5.50335,57.68790355,11.98133345,57.68790100,11.98133600,12:39:13.820411,0.00572,1.49252,1.49252,-0.01265,-0.01487,0.00041,-0.02925,-0.02665,0.04325,-0.01928,1.18328,5.49701,1.47625,1.98631,1.98221,-2.86599,5.80589,5.43029,-2.71430,5.52268,1.98985,1.98985,A,123913.60
5.51222,57.68790355,11.98133345,57.68790100,11.98133600,12:39:13.829249,0.00420,1.49252,1.49252,-0.01214,-0.01487,0.00316,-0.05109,-0.02253,-0.01135,0.04380,1.15949,5.50758,1.47625,1.98631,1.98221,-2.86599,5.80589,5.43029,-2.71430,5.52268,1.98985,1.98985,A,123913.60
5.52261,57.68790355,11.98133345,57.68790100,11.98133600,12:39:13.839650,0.00419,1.49252,1.49252,-0.01150,-0.01487,0.01004,-0.05490,-0.02513,-0.02861,0.04294,1.02852,5.51776,1.47625,1.98631,1.98221,-2.86599,5.80589,5.43029,-2.71430,5.52268,1.98985,1.98985,A,123913.60
5.56191,57.68790355,11.98133345,57.68790283,11.98133433,12:39:13.878956,0.03311,1.49252,1.49252,-0.01235,-0.01490,0.01996,-0.05429,-0.02803,-0.01128,-0.05893,0.92452,5.52835,1.47625,1.98631,1.98221,-2.86599,5.80589,5.55450,-2.81336,5.72654,2.02313,2.02313,A,123913.80
5.57981,57.68790493,11.98133233,57.68790283,11.98133433,12:39:13.896846,0.00858,1.49252,1.49252,-0.01193,-0.01493,-0.00447,0.07323,-0.03200,-0.15091,0.03776,0.82527,5.57237,1.47950,1.99055,1.98612,-2.93242,5.96022,5.55450,-2.81336,5.72654,2.02313,2.02313,A,123913.80
5.58600,57.68790493,11.98133233,57.68790283,11.98133433,12:39:13.903028,0.00453,1.49252,1.49252,-0.01124,-0.01493,0.00133,0.10499,-0.03001,-0.10132,0.04642,0.90182,5.58110,1.47950,1.99055,1.98612,-2.93242,5.96022,5.55450,-2.81336,5.72654,2.02313,2.02313,A,123913.80
5.59604,57.68790493,11.98133233,57.68790283,11.98133433,12:39:13.913073,0.00418,1.49252,1.49252,-0.01111,-0.01493,0.00271,0.10270,-0.02360,-0.01842,0.01379,1.00863,5.59142,1.47950,1.99055,1.98612,-2.93242,5.96022,5.55450,-2.81336,5.72654,2.02313,2.02313,A,123913.80
