Time,lat_estimated,lon_estimated,latitude,longitude,RealTime,CalculationTime,MeasuredVelocity,FilteredVelocity,Roll,SteeringAngle,RollRate,gy,gz,ax,ay,az,imu_read_timing,v_estimated,yaw_estimated,heading_estimated,x_estimated,y_estimated,GPS_timestamp,x_GPS,y_GPS,theta_GPS,theta_GPS_noUnwrap,status,NMEA timestamp
0.06074,57.68808783,11.98120517,57.68808783,11.98120517,16:45:12.453060,0.06070,0.00000,1.50000,-0.00046,-0.11647,0.00269,-0.00584,-0.00154,-0.01116,-0.00122,1.01065,0.00001,0.00000,0.06793,0.00000,0.00000,0.00000,0.01586,0.00000,0.00000,0.00000,0.00000,A,164512.30
0.07238,57.68808783,11.98120517,57.68808783,11.98120517,16:45:12.464674,0.00541,0.00000,0.00000,-0.00093,-0.11647,0.00162,0.00195,0.00320,0.01257,-0.00720,0.95599,0.06633,0.00000,0.06793,0.00000,0.00000,0.00000,0.01586,0.00000,0.00000,0.00000,0.00000,A,164512.30
0.08274,57.68808783,11.98120517,57.68808783,11.98120517,16:45:12.475034,0.00536,0.00000,0.00000,-0.00140,-0.11647,0.00254,-0.00248,0.00076,-0.01391,-0.00299,0.97600,0.07680,0.00000,0.06793,0.00000,0.00000,0.00000,0.01586,0.00000,0.00000,0.00000,0.00000,A,164512.30
0.09283,57.68808783,11.98120517,57.68808783,11.98120517,16:45:12.485122,0.00506,0.00000,0.00000,-0.00184,-0.11647,0.00788,-0.00798,0.00610,-0.03947,-0.00518,1.00546,0.08718,0.00000,0.06793,0.00000,0.00000,0.00000,0.01586,0.00000,0.00000,0.00000,0.00000,A,164512.30
0.10349,57.68808783,11.98120517,57.68808783,11.98120517,16:45:12.495775,0.00518,0.00000,0.00000,-0.00245,-0.11647,0.00254,-0.00645,0.00442,-0.03953,-0.01354,1.05847,0.09756,0.00000,0.06793,0.00000,0.00000,0.00000,0.01586,0.00000,0.00000,0.00000,0.00000,A,164512.30
0.11441,57.68808783,11.98120517,57.68808783,11.98120517,16:45:12.506702,0.00571,0.00000,0.00000,-0.00340,-0.11647,0.00147,0.00347,0.00350,-0.01128,-0.03825,1.06122,0.10822,0.00000,0.06793,0.00000,0.00000,0.00000,0.01586,0.00000,0.00000,0.00000,0.00000,A,164512.30
0.15272,57.68808783,11.98120517,57.68808800,11.98120433,16:45:12.545028,0.03362,0.00000,1.50000,-0.00421,-0.11647,-0.00342,-0.00294,0.00106,-0.01763,-0.02507,1.04786,0.11833,0.00000,0.06793,0.00000,0.00000,0.00000,0.13548,-0.04953,0.01853,2.78356,2.78356,A,164512.40
0.16294,57.68808784,11.98120512,57.68808800,11.98120433,16:45:12.555238,0.00541,0.00000,0.00000,-0.00485,-0.11644,0.00498,0.00882,0.00137,-0.02824,-0.02684,0.96307,0.15700,0.00000,0.48546,0.41755,-0.00248,0.00093,0.13548,-0.04953,0.01853,2.78356,2.78356,A,164512.40
0.17298,57.68808785,11.98120509,57.68808800,11.98120433,16:45:12.565274,0.00505,0.00000,0.00000,-0.00567,-0.11638,0.00345,0.00317,0.00213,-0.03776,-0.03135,1.00632,0.16735,0.00000,0.84035,0.77248,-0.00483,0.00181,0.13548,-0.04953,0.01853,2.78356,2.78356,A,164512.40
0.18334,57.68808786,11.98120505,57.68808800,11.98120433,16:45:12.575631,0.00515,0.00000,0.00000,-0.00655,-0.11635,0.00559,0.00515,0.00442,0.00140,-0.03697,1.00723,0.17742,0.00000,1.14201,1.07415,-0.00706,0.00264,0.13548,-0.04953,0.01853,2.78356,2.78356,A,164512.40
0.19365,57.68808786,11.98120501,57.68808800,11.98120433,16:45:12.586182,0.00507,0.00000,0.00000,-0.00695,-0.11635,0.00376,-0.00355,0.00014,0.02043,-0.00470,1.03078,0.18802,0.00000,1.39842,1.33056,-0.00919,0.00344,0.13548,-0.04953,0.01853,2.78356,2.78356,A,164512.40
0.20420,57.68808787,11.98120498,57.68808800,11.98120433,16:45:12.596492,0.00523,0.00000,0.00000,-0.00744,-0.11635,0.00147,-0.00981,0.00518,-0.02440,-0.00964,1.02767,0.19819,0.00000,1.61637,1.54851,-0.01120,0.00419,0.13548,-0.04953,0.01853,2.78356,2.78356,A,164512.40
0.21500,57.68808788,11.98120495,57.68808800,11.98120433,16:45:12.607291,0.00562,0.00000,0.00000,-0.00804,-0.11635,-0.00082,-0.00813,-0.00276,-0.07802,-0.01659,1.02828,0.20901,0.00000,1.80163,1.73377,-0.01312,0.00491,0.13548,-0.04953,0.01853,2.78356,2.78356,A,164512.40
0.22483,57.68808788,11.98120492,57.68808800,11.98120433,16:45:12.617125,0.00505,0.00000,0.00000,-0.00856,-0.11635,0.00758,0.00775,-0.00169,-0.07674,-0.01647,0.99460,0.21920,0.00000,1.95910,1.89124,-0.01494,0.00559,0.13548,-0.04953,0.01853,2.78356,2.78356,A,164512.40
0.23555,57.68808789,11.98120489,57.68808800,11.98120433,16:45:12.627834,0.00526,0.00000,0.00000,-0.00932,-0.11635,-0.00067,0.01218,-0.00108,-0.04319,-0.02702,0.98728,0.22954,0.00000,2.09294,2.02509,-0.01667,0.00624,0.13548,-0.04953,0.01853,2.78356,2.78356,A,164512.40
0.28615,57.68808789,11.98120486,57.68808950,11.98120350,16:45:12.678468,0.04545,0.00000,1.50000,-0.00956,-0.11635,0.00131,0.01844,-0.00383,-0.02385,0.00494,0.99955,0.24012,0.00000,2.20672,2.13886,-0.01831,0.00685,0.26798,-0.09906,0.18532,1.85946,1.85946,A,164512.60
0.29605,57.68808798,11.98120479,57.68808950,11.98120350,16:45:12.688346,0.00519,0.00000,0.00000,-0.00956,-0.11635,0.00696,-0.00813,-0.00092,-0.04258,-0.00140,0.96654,0.29016,0.00000,2.16481,2.09695,-0.02235,0.01578,0.26798,-0.09906,0.18532,1.85946,1.85946,A,164512.60
0.30674,57.68808805,11.98120473,57.68808950,11.98120350,16:45:12.699030,0.00547,0.00000,0.00000,-0.00987,-0.11635,0.00467,-0.00584,-0.00169,-0.04898,-0.00201,0.97643,0.30078,0.00000,2.12918,2.06132,-0.02619,0.02425,0.26798,-0.09906,0.18532,1.85946,1.85946,A,164512.60
0.31980,57.68808812,11.98120466,57.68808950,11.98120350,16:45:12.712093,0.00829,0.00000,0.00000,-0.01044,-0.11635,-0.00021,0.00424,-0.00367,-0.02757,-0.01690,0.99936,0.31271,0.00000,2.09890,2.03104,-0.02983,0.03231,0.26798,-0.09906,0.18532,1.85946,1.85946,A,164512.60
0.32723,57.68808819,11.98120461,57.68808950,11.98120350,16:45:12.719517,0.00518,0.00000,0.00000,-0.01113,-0.11635,0.00376,0.00943,-0.00016,0.00049,-0.02763,1.00992,0.32127,0.00000,2.07317,2.00531,-0.03329,0.03996,0.26798,-0.09906,0.18532,1.85946,1.85946,A,164512.60
0.33753,57.68808826,11.98120455,57.68808950,11.98120350,16:45:12.729815,0.00508,0.00000,0.00000,-0.01145,-0.11635,0.00391,0.00607,-0.00092,0.00043,-0.00439,1.01266,0.33189,0.00000,2.05129,1.98343,-0.03658,0.04723,0.26798,-0.09906,0.18532,1.85946,1.85946,A,164512.60
0.34796,57.68808832,11.98120450,57.68808950,11.98120350,16:45:12.740248,0.00511,0.00000,0.00000,-0.01180,-0.11635,0.00620,0.00057,0.00366,-0.01141,-0.00762,1.01370,0.34205,0.00000,2.03269,1.96484,-0.03970,0.05413,0.26798,-0.09906,0.18532,1.85946,1.85946,A,164512.60
0.35890,57.68808838,11.98120445,57.68808950,11.98120350,16:45:12.751195,0.00565,0.00000,0.00000,-0.01203,-0.11635,0.00758,-0.00325,0.00809,-0.02294,-0.00122,1.00717,0.35294,0.00000,2.01689,1.94903,-0.04267,0.06069,0.26798,-0.09906,0.18532,1.85946,1.85946,A,164512.60
0.41261,57.68808844,11.98120440,57.68809033,11.98120333,16:45:12.804949,0.04897,0.00000,1.50000,-0.01260,-0.11632,0.00834,-0.00783,0.00961,-0.03331,-0.02501,1.01223,0.36305,0.00000,2.00345,1.93561,-0.04549,0.06692,0.38010,-0.10897,0.27799,1.67730,1.67730,A,164512.70
0.43231,57.68808853,11.98120435,57.68809033,11.98120333,16:45:12.824596,0.00667,0.74088,0.74088,-0.01265,-0.11581,-0.00052,-0.00722,-0.00413,-0.02550,0.01141,0.96850,0.42641,0.14818,1.96466,1.89712,-0.04867,0.07748,0.38010,-0.10897,0.27799,1.67730,1.67730,A,164512.70
0.44113,57.68808863,11.98120429,57.68809033,11.98120333,16:45:12.833419,0.00509,0.74088,0.74088,-0.01314,-0.11581,0.00040,-0.01149,-0.00215,-0.03044,-0.01897,0.97155,0.43548,0.26672,1.93160,1.86405,-0.05200,0.08844,0.38010,-0.10897,0.27799,1.67730,1.67730,A,164512.70
0.45154,57.68808873,11.98120423,57.68809033,11.98120333,16:45:12.843824,0.00526,0.74088,0.74088,-0.01369,-0.11581,-0.00189,-0.01226,-0.00627,-0.02239,-0.02257,0.98015,0.44553,0.36155,1.90339,1.83585,-0.05545,0.09992,0.38010,-0.10897,0.27799,1.67730,1.67730,A,164512.70
0.46210,57.68808884,11.98120418,57.68809033,11.98120333,16:45:12.854529,0.00542,0.74088,0.74088,-0.01444,-0.11581,-0.00663,-0.00248,-0.00749,-0.02446,-0.03257,0.98997,0.45609,0.43742,1.87935,1.81181,-0.05889,0.11162,0.38010,-0.10897,0.27799,1.67730,1.67730,A,164512.70
0.47215,57.68808894,11.98120412,57.68809033,11.98120333,16:45:12.864434,0.00507,0.74088,0.74088,-0.01516,-0.11581,-0.01151,-0.00615,-0.00658,-0.02043,-0.02867,0.98503,0.46627,0.49811,1.85885,1.79131,-0.06224,0.12341,0.38010,-0.10897,0.27799,1.67730,1.67730,A,164512.70
0.51713,57.68808905,11.98120407,57.68809117,11.98120300,16:45:12.909447,0.03959,0.74088,1.50000,-0.01569,-0.11581,-0.01442,-0.00569,-0.00780,-0.02879,-0.01446,0.99601,0.47696,0.54666,1.84138,1.77384,-0.06548,0.13514,0.49506,-0.12878,0.37065,1.78144,1.78144,A,164512.80
0.52843,57.68808935,11.98120394,57.68809117,11.98120300,16:45:12.920749,0.00611,0.74088,0.74088,-0.01734,-0.11581,-0.02282,-0.01210,-0.01299,-0.00665,-0.03392,1.01998,0.52161,0.58551,1.84052,1.77298,-0.07310,0.16859,0.49506,-0.12878,0.37065,1.78144,1.78144,A,164512.80
0.53805,57.68808948,11.98120387,57.68809117,11.98120300,16:45:12.930351,0.00533,0.74088,0.74088,-0.01804,-0.11581,-0.02068,-0.01531,-0.01100,-0.01251,-0.02397,1.00900,0.53215,0.61658,1.84137,1.77382,-0.07683,0.18329,0.49506,-0.12878,0.37065,1.78144,1.78144,A,164512.80
0.54820,57.68808961,11.98120381,57.68809117,11.98120300,16:45:12.940488,0.00508,0.74088,0.74088,-0.01871,-0.11581,-0.02923,-0.00890,-0.01436,-0.03270,-0.01726,1.00705,0.54232,0.64144,1.84205,1.77451,-0.08044,0.19758,0.49506,-0.12878,0.37065,1.78144,1.78144,A,164512.80
0.55893,57.68808973,11.98120375,57.68809117,11.98120300,16:45:12.951220,0.00537,0.74088,0.74088,-0.01928,-0.11581,-0.03198,-0.01271,-0.01421,-0.03355,-0.00860,0.98728,0.55299,0.66133,1.84262,1.77507,-0.08393,0.21140,0.49506,-0.12878,0.37065,1.78144,1.78144,A,164512.80
0.56917,57.68808985,11.98120370,57.68809117,11.98120300,16:45:12.961462,0.00521,0.74088,0.74088,-0.01973,-0.11584,-0.03427,-0.01241,-0.01650,-0.03776,0.00012,0.99552,0.56352,0.67724,1.84309,1.77553,-0.08725,0.22457,0.49506,-0.12878,0.37065,1.78144,1.78144,A,164512.80
0.57949,57.68808997,11.98120365,57.68809117,11.98120300,16:45:12.971780,0.00527,0.74088,0.74088,-0.02006,-0.11590,-0.03320,-0.00706,-0.01742,-0.03849,0.00616,0.99662,0.57354,0.68997,1.84350,1.77591,-0.09040,0.23706,0.49506,-0.12878,0.37065,1.78144,1.78144,A,164512.80
0.59031,57.68809008,11.98120359,57.68809117,11.98120300,16:45:12.982611,0.00569,0.74088,0.74088,-0.02088,-0.11621,-0.03183,-0.00554,-0.01772,-0.00885,-0.02629,0.99430,0.58440,0.70015,1.84384,1.77606,-0.09349,0.24938,0.49506,-0.12878,0.37065,1.78144,1.78144,A,164512.80
0.64263,57.68809018,11.98120355,57.68809217,11.98120250,16:45:13.034946,0.04760,0.74088,1.50000,-0.02172,-0.11683,-0.02511,-0.00935,-0.01833,-0.01251,-0.03477,0.99473,0.59424,0.70830,1.84422,1.77607,-0.09635,0.26068,0.61607,-0.15850,0.48184,1.83196,1.83196,A,164512.90
0.65973,57.68809060,11.98120337,57.68809217,11.98120250,16:45:13.052021,0.00776,0.74088,0.74088,-0.02388,-0.12114,-0.02755,-0.00095,-0.00810,-0.00872,-0.03282,1.01663,0.65376,0.71481,1.84959,1.77892,-0.10704,0.30816,0.61607,-0.15850,0.48184,1.83196,1.83196,A,164512.90
0.66783,57.68809072,11.98120331,57.68809217,11.98120250,16:45:13.060120,0.00563,0.74088,0.74088,-0.02447,-0.12162,-0.02709,-0.00233,-0.01436,-0.02489,-0.02403,1.01156,0.66144,0.72003,1.85721,1.78626,-0.11044,0.32076,0.61607,-0.15850,0.48184,1.83196,1.83196,A,164512.90
0.67769,57.68809084,11.98120325,57.68809217,11.98120250,16:45:13.070304,0.00509,0.74088,0.74088,-0.02503,-0.12235,-0.02556,0.00302,-0.01864,-0.00476,-0.01879,0.98240,0.67204,0.72420,1.86360,1.79222,-0.11402,0.33422,0.61607,-0.15850,0.48184,1.83196,1.83196,A,164512.90
0.68808,57.68809096,11.98120319,57.68809217,11.98120250,16:45:13.080366,0.00508,0.74088,0.74088,-0.02526,-0.12312,-0.02633,-0.00279,-0.02139,-0.00128,0.00293,0.97472,0.68221,0.72753,1.86908,1.79725,-0.11752,0.34723,0.61607,-0.15850,0.48184,1.83196,1.83196,A,164512.90
0.69876,57.68809107,11.98120313,57.68809217,11.98120250,16:45:13.091049,0.00536,0.74088,0.74088,-0.02588,-0.12394,-0.02679,-0.01332,-0.01986,-0.00860,-0.02208,0.97557,0.69282,0.73020,1.87379,1.80147,-0.12090,0.35975,0.61607,-0.15850,0.48184,1.83196,1.83196,A,164512.90
0.70885,57.68809117,11.98120308,57.68809217,11.98120250,16:45:13.101142,0.00504,0.74088,0.74088,-0.02632,-0.12467,-0.02312,-0.01485,-0.02215,-0.00854,-0.01397,0.99656,0.70322,0.73234,1.87787,1.80512,-0.12410,0.37148,0.61607,-0.15850,0.48184,1.83196,1.83196,A,164512.90
0.76064,57.68809128,11.98120303,57.68809283,11.98120267,16:45:13.152960,0.04631,0.74088,1.50000,-0.02705,-0.12530,-0.02022,-0.01684,-0.01772,-0.03056,-0.03648,1.01644,0.71361,0.73405,1.88136,1.80825,-0.12721,0.38283,0.73078,-0.14859,0.55597,1.43795,1.43795,A,164513.00
0.77636,57.68809169,11.98120286,57.68809283,11.98120267,16:45:13.168648,0.00733,0.74088,0.74088,-0.02767,-0.12654,-0.01365,0.00057,-0.01727,-0.03373,0.00842,1.01455,0.77065,0.73541,1.82218,1.74834,-0.13730,0.42877,0.73078,-0.14859,0.55597,1.43795,1.43795,A,164513.00
0.78453,57.68809179,11.98120283,57.68809283,11.98120267,16:45:13.176820,0.00510,0.74088,0.74088,-0.02804,-0.12654,-0.01182,0.00057,-0.01895,-0.01031,-0.02117,1.00992,0.77887,0.73651,1.77518,1.70134,-0.13866,0.43952,0.73078,-0.14859,0.55597,1.43795,1.43795,A,164513.00
0.79528,57.68809189,11.98120281,57.68809283,11.98120267,16:45:13.187569,0.00528,0.74088,0.74088,-0.02863,-0.12654,-0.00449,-0.00386,-0.01711,0.01348,-0.03837,0.99851,0.78924,0.73738,1.73508,1.66124,-0.13993,0.45129,0.73078,-0.14859,0.55597,1.43795,1.43795,A,164513.00
0.80549,57.68809199,11.98120280,57.68809283,11.98120267,16:45:13.197778,0.00509,0.74088,0.74088,-0.02916,-0.12654,-0.01381,-0.00477,-0.01895,-0.00232,-0.02928,0.99101,0.79985,0.73808,1.70100,1.62716,-0.14090,0.46242,0.73078,-0.14859,0.55597,1.43795,1.43795,A,164513.00
0.81817,57.68809210,11.98120278,57.68809283,11.98120267,16:45:13.210471,0.00612,0.74088,0.74088,-0.02967,-0.12654,-0.01762,-0.00126,-0.02139,-0.05374,-0.02263,0.97807,0.81226,0.73864,1.67188,1.59804,-0.14171,0.47455,0.73078,-0.14859,0.55597,1.43795,1.43795,A,164513.00
0.82747,57.68809218,11.98120277,57.68809283,11.98120267,16:45:13.219756,0.00519,0.74088,0.74088,-0.02985,-0.12654,-0.00785,0.00210,-0.01803,-0.07692,-0.01147,0.99070,0.82153,0.73909,1.64735,1.57351,-0.14219,0.48386,0.73078,-0.14859,0.55597,1.43795,1.43795,A,164513.00
0.87809,57.68809227,11.98120277,57.68809367,11.98120117,16:45:13.270411,0.04541,0.74088,1.50000,-0.03016,-0.12654,-0.00999,0.01035,-0.01772,-0.03459,-0.01836,0.97789,0.83211,0.73945,1.62643,1.55259,-0.14253,0.49344,0.84931,-0.23775,0.64864,2.33691,2.33691,A,164513.10
0.89599,57.68809270,11.98120270,57.68809367,11.98120117,16:45:13.288279,0.00690,0.74088,0.74088,-0.03104,-0.12660,-0.01106,-0.00325,-0.02093,-0.02166,-0.02208,1.02669,0.89005,0.73973,1.74019,1.66631,-0.14657,0.54065,0.84931,-0.23775,0.64864,2.33691,2.33691,A,164513.10
0.90457,57.68809279,11.98120262,57.68809367,11.98120117,16:45:13.296857,0.00508,0.74088,0.74088,-0.03144,-0.12665,-0.00907,-0.00248,-0.02139,-0.01104,-0.02751,1.02852,0.89890,0.73996,1.84031,1.76640,-0.15159,0.55081,0.84931,-0.23775,0.64864,2.33691,2.33691,A,164513.10
0.91550,57.68809288,11.98120252,57.68809367,11.98120117,16:45:13.307791,0.00546,0.74088,0.74088,-0.03209,-0.12674,-0.01655,0.00027,-0.02383,0.01830,-0.03867,1.00912,0.90928,0.74015,1.92530,1.85134,-0.15707,0.56161,0.84931,-0.23775,0.64864,2.33691,2.33691,A,164513.10
0.92552,57.68809297,11.98120243,57.68809367,11.98120117,16:45:13.317807,0.00508,0.74088,0.74088,-0.03271,-0.12685,-0.01518,-0.00813,-0.02124,-0.03703,-0.03751,1.00406,0.91987,0.74029,1.99757,1.92354,-0.16271,0.57155,0.84931,-0.23775,0.64864,2.33691,2.33691,A,164513.10
0.93681,57.68809306,11.98120233,57.68809367,11.98120117,16:45:13.329098,0.00597,0.74088,0.74088,-0.03303,-0.12697,-0.01365,-0.00783,-0.01940,-0.04404,-0.01970,1.00070,0.93005,0.74041,2.05900,1.98491,-0.16850,0.58094,0.84931,-0.23775,0.64864,2.33691,2.33691,A,164513.10
0.94657,57.68809313,11.98120224,57.68809367,11.98120117,16:45:13.338857,0.00533,0.74088,0.74088,-0.03343,-0.12705,-0.01213,-0.00370,-0.01711,-0.02568,-0.02556,1.00302,0.94065,0.74050,2.11127,2.03713,-0.17415,0.58930,0.84931,-0.23775,0.64864,2.33691,2.33691,A,164513.10
1.01099,57.68809321,11.98120214,57.68809467,11.98119900,16:45:13.403305,0.05935,0.74088,1.50000,-0.03381,-0.12714,-0.01335,-0.00279,-0.01452,-0.01677,-0.02458,0.99107,0.95104,0.74058,2.15566,2.08147,-0.17997,0.59751,0.97930,-0.36653,0.75983,2.42934,2.42934,A,164513.30
1.02928,57.68809367,11.98120157,57.68809467,11.98119900,16:45:13.421564,0.00684,0.74088,0.74088,-0.03439,-0.12728,-0.00510,-0.00554,-0.01727,-0.00476,-0.02391,1.06573,1.02360,0.74064,2.20293,2.12866,-0.21354,0.64891,0.97930,-0.36653,0.75983,2.42934,2.42934,A,164513.30
1.03842,57.68809376,11.98120140,57.68809467,11.98119900,16:45:13.430718,0.00558,0.74088,0.74088,-0.03498,-0.12728,-0.00617,-0.01241,-0.01559,-0.01574,-0.04624,1.04261,1.03228,0.74069,2.24756,2.17328,-0.22375,0.65856,0.97930,-0.36653,0.75983,2.42934,2.42934,A,164513.30
1.04830,57.68809384,11.98120123,57.68809467,11.98119900,16:45:13.440578,0.00505,0.74088,0.74088,-0.03538,-0.12728,-0.01167,-0.01042,-0.01161,-0.01122,-0.02898,0.99210,1.04245,0.74073,2.28540,2.21112,-0.23413,0.66833,0.97930,-0.36653,0.75983,2.42934,2.42934,A,164513.30
1.05932,57.68809393,11.98120105,57.68809467,11.98119900,16:45:13.451608,0.00567,0.74088,0.74088,-0.03559,-0.12728,-0.00678,-0.00477,-0.01207,-0.02129,-0.01848,0.97167,1.05322,0.74076,2.31752,2.24324,-0.24445,0.67787,0.97930,-0.36653,0.75983,2.42934,2.42934,A,164513.30
1.07039,57.68809401,11.98120088,57.68809467,11.98119900,16:45:13.462689,0.00635,0.74088,0.74088,-0.03594,-0.12728,-0.01075,0.00546,-0.00963,-0.06460,-0.02562,0.97887,1.06442,0.74078,2.34480,2.27053,-0.25449,0.68691,0.97930,-0.36653,0.75983,2.42934,2.42934,A,164513.30
1.07948,57.68809408,11.98120074,57.68809467,11.98119900,16:45:13.471771,0.00520,0.74088,0.74088,-0.03599,-0.12728,-0.00495,0.01218,-0.01085,-0.01635,-0.01080,0.95502,1.07353,0.74080,2.36812,2.29384,-0.26340,0.69449,0.97930,-0.36653,0.75983,2.42934,2.42934,A,164513.30
1.12791,57.68809415,11.98120058,57.68809483,11.98119800,16:45:13.520218,0.04323,0.74088,1.50000,-0.03670,-0.12728,-0.00434,0.00577,-0.01009,0.04008,-0.05240,0.94898,1.08410,0.74082,2.38785,2.31357,-0.27251,0.70224,1.10143,-0.42596,0.77836,2.83934,2.83934,A,164513.40
1.14243,57.68809442,11.98120005,57.68809483,11.98119800,16:45:13.534720,0.00746,1.01676,1.01676,-0.03785,-0.12728,-0.02022,0.01600,-0.01925,-0.00195,-0.02495,1.07049,1.13601,0.79601,2.46321,2.38894,-0.30404,0.73203,1.10143,-0.42596,0.77836,2.83934,2.83934,A,164513.40
1.15073,57.68809447,11.98119989,57.68809483,11.98119800,16:45:13.543020,0.00535,1.01676,1.01676,-0.03823,-0.12728,-0.02007,0.00424,-0.02521,0.02294,-0.03172,1.00949,1.14479,0.84016,2.53030,2.45603,-0.31359,0.73758,1.10143,-0.42596,0.77836,2.83934,2.83934,A,164513.40
1.16071,57.68809452,11.98119971,57.68809483,11.98119800,16:45:13.552997,0.00509,1.01676,1.01676,-0.03801,-0.12728,-0.02098,0.00317,-0.02307,-0.04770,0.01013,0.99290,1.15506,0.87548,2.58715,2.51288,-0.32427,0.74375,1.10143,-0.42596,0.77836,2.83934,2.83934,A,164513.40
1.17133,57.68809458,11.98119953,57.68809483,11.98119800,16:45:13.563623,0.00517,1.01676,1.01676,-0.03760,-0.12728,-0.01365,0.00347,-0.01895,-0.07320,0.01787,0.95691,1.16539,0.90374,2.63541,2.56114,-0.33510,0.74966,1.10143,-0.42596,0.77836,2.83934,2.83934,A,164513.40
1.18162,57.68809462,11.98119935,57.68809483,11.98119800,16:45:13.574160,0.00506,1.01676,1.01676,-0.03750,-0.12728,-0.00922,0.00485,-0.01391,-0.04294,-0.00518,0.94434,1.17598,0.92634,2.67642,2.60215,-0.34576,0.75511,1.10143,-0.42596,0.77836,2.83934,2.83934,A,164513.40
1.19204,57.68809467,11.98119918,57.68809483,11.98119800,16:45:13.584331,0.00508,1.01676,1.01676,-0.03812,-0.12728,-0.00418,0.00286,-0.01314,0.01311,-0.05197,0.91067,1.18617,0.94443,2.71126,2.63699,-0.35611,0.76007,1.10143,-0.42596,0.77836,2.83934,2.83934,A,164513.40
1.24805,57.68809471,11.98119900,57.68809550,11.98119733,16:45:13.640369,0.05068,1.01676,1.50000,-0.03885,-0.12728,-0.01564,-0.00767,-0.00856,-0.00335,-0.05386,0.96191,1.19678,0.95889,2.74085,2.66658,-0.36636,0.76471,1.21460,-0.46559,0.85249,2.06168,2.06168,A,164513.50
1.27023,57.68809499,11.98119806,57.68809550,11.98119733,16:45:13.662525,0.01232,8.53343,1.50000,-0.04000,-0.12728,-0.02052,-0.00584,-0.01192,-0.03141,-0.02025,0.99412,1.26215,1.06712,2.64444,2.57016,-0.42222,0.79528,1.21460,-0.46559,0.85249,2.06168,2.06168,A,164513.50
1.28816,57.68809509,11.98119780,57.68809550,11.98119733,16:45:13.680451,0.01021,8.53343,1.50000,-0.04064,-0.12728,-0.01976,-0.00401,-0.01039,-0.02153,-0.04843,0.95361,1.28220,1.15369,2.56654,2.49227,-0.43811,0.80696,1.21460,-0.46559,0.85249,2.06168,2.06168,A,164513.50
1.30797,57.68809522,11.98119751,57.68809550,11.98119733,16:45:13.700257,0.00888,8.53343,1.50000,-0.04123,-0.12728,-0.02343,0.00134,-0.00810,-0.02532,-0.04130,0.96282,1.30204,1.22295,2.50002,2.42575,-0.45499,0.82101,1.21460,-0.46559,0.85249,2.06168,2.06168,A,164513.50
1.36348,57.68809530,11.98119735,57.68809583,11.98119683,16:45:13.755940,0.05415,8.53343,1.50000,-0.04147,-0.12728,-0.02327,-0.00004,-0.00535,-0.02385,-0.03166,1.02700,1.31425,1.27836,2.44421,2.36994,-0.46465,0.83053,1.33155,-0.49531,0.88956,2.24663,2.24663,A,164513.60
1.38149,57.68809578,11.98119646,57.68809583,11.98119683,16:45:13.773779,0.01060,8.53343,1.50000,-0.04257,-0.12368,-0.02068,-0.00386,0.00503,-0.02355,-0.02367,0.97417,1.37545,1.32269,2.41827,2.34611,-0.51761,0.88351,1.33155,-0.49531,0.88956,2.24663,2.24663,A,164513.60
1.40274,57.68809594,11.98119619,57.68809583,11.98119683,16:45:13.795027,0.00959,8.53343,1.50000,-0.04374,-0.12142,-0.03076,-0.00508,-0.00673,0.03916,-0.07363,1.08696,1.39674,1.35815,2.40083,2.33000,-0.53333,0.90099,1.33155,-0.49531,0.88956,2.24663,2.24663,A,164513.60
1.41358,57.68809600,11.98119610,57.68809583,11.98119683,16:45:13.806112,0.00998,8.53343,1.50000,-0.04413,-0.12057,-0.03625,-0.02814,-0.00688,0.00189,-0.03697,1.09727,1.40735,1.38652,2.38721,2.31688,-0.53898,0.90838,1.33155,-0.49531,0.88956,2.24663,2.24663,A,164513.60
1.42476,57.68809608,11.98119599,57.68809583,11.98119683,16:45:13.817046,0.01003,8.53343,1.50000,-0.04453,-0.11958,-0.03946,-0.04616,-0.01207,-0.02763,-0.03215,1.02498,1.41905,1.40922,2.37543,2.30567,-0.54519,0.91651,1.33155,-0.49531,0.88956,2.24663,2.24663,A,164513.60
1.49356,57.68809623,11.98119576,57.68809650,11.98119633,16:45:13.886084,0.06050,8.53343,1.50000,-0.04545,-0.11853,-0.03213,-0.03593,-0.01100,-0.13701,-0.05179,0.91805,1.43924,1.42737,2.36418,2.29504,-0.55920,0.93343,1.46713,-0.52503,0.96369,1.95207,1.95207,A,164513.80
1.51639,57.68809688,11.98119474,57.68809650,11.98119633,16:45:13.908985,0.01166,8.53343,1.50000,-0.04677,-0.11514,-0.02190,0.01523,-0.00764,0.13023,-0.02147,1.11044,1.51069,1.44190,2.30371,2.23657,-0.62002,1.00563,1.46713,-0.52503,0.96369,1.95207,1.95207,A,164513.80
1.53477,57.68809701,11.98119459,57.68809650,11.98119633,16:45:13.927062,0.00966,8.53343,1.50000,-0.04762,-0.11259,-0.03305,-0.01898,0.00350,0.05209,-0.06167,1.12557,1.52742,1.45352,2.25890,2.19325,-0.62845,1.02032,1.46713,-0.52503,0.96369,1.95207,1.95207,A,164513.80
1.54659,57.68809708,11.98119455,57.68809650,11.98119633,16:45:13.938882,0.01095,8.53343,1.50000,-0.04737,-0.11027,-0.02190,-0.00538,0.01511,-0.07216,-0.00116,1.01760,1.54059,1.46282,2.22134,2.15705,-0.63112,1.02841,1.46713,-0.52503,0.96369,1.95207,1.95207,A,164513.80
1.56641,57.68809724,11.98119441,57.68809650,11.98119633,16:45:13.958698,0.00892,8.53343,1.50000,-0.04704,-0.10741,-0.00220,0.05708,0.03741,-0.09607,-0.01299,0.86937,1.56042,1.47025,2.18822,2.12561,-0.63944,1.04569,1.46713,-0.52503,0.96369,1.95207,1.95207,A,164513.80
1.62283,57.68809731,11.98119438,57.68809700,11.98119633,16:45:14.015145,0.05477,8.53343,1.50000,-0.04785,-0.10574,-0.00632,0.05372,0.04306,0.04593,-0.07979,0.92293,1.57258,1.47620,2.16087,2.09923,-0.64115,1.05358,1.58992,-0.52503,1.01929,1.57080,1.57080,A,164513.90
1.64702,57.68809800,11.98119371,57.68809700,11.98119633,16:45:14.039307,0.01313,8.53343,1.50000,-0.04839,-0.09790,-0.01579,-0.00584,0.01465,-0.04154,-0.00213,0.99753,1.63914,1.48096,2.07346,2.01641,-0.68093,1.12995,1.58992,-0.52503,1.01929,1.57080,1.57080,A,164513.90
1.67003,57.68809818,11.98119363,57.68809700,11.98119633,16:45:14.062329,0.01235,8.53343,1.50000,-0.04836,-0.09326,0.00834,0.00424,0.02412,-0.01653,-0.04142,0.83015,1.66388,1.48477,2.00398,1.94965,-0.68574,1.15081,1.58992,-0.52503,1.01929,1.57080,1.57080,A,164513.90
1.74076,57.68809836,11.98119359,57.68809733,11.98119617,16:45:14.133081,0.05862,8.53343,1.50000,-0.04890,-0.08890,0.01155,0.00042,0.03863,-0.01153,-0.08284,0.94727,1.68569,1.48782,1.94472,1.89294,-0.68813,1.17042,1.70534,-0.53493,1.05635,1.83196,1.83196,A,164514.00
1.75922,57.68809909,11.98119323,57.68809733,11.98119617,16:45:14.151514,0.01194,8.53343,1.50000,-0.04861,-0.08468,0.00819,0.00592,0.02290,-0.02227,-0.04874,0.94892,1.75323,1.49025,1.92883,1.87952,-0.70959,1.25196,1.70534,-0.53493,1.05635,1.83196,1.83196,A,164514.00
1.77510,57.68809915,11.98119329,57.68809733,11.98119617,16:45:14.167386,0.00921,8.53343,1.50000,-0.04841,-0.08468,0.01063,0.00454,0.02061,0.00701,-0.02818,0.87846,1.76723,1.49220,1.92059,1.87127,-0.70597,1.25820,1.70534,-0.53493,1.05635,1.83196,1.83196,A,164514.00
1.78708,57.68809918,11.98119336,57.68809733,11.98119617,16:45:14.179362,0.01108,8.53343,1.50000,-0.04906,-0.08468,0.02162,-0.00157,0.02840,-0.00762,-0.08772,0.89585,1.78106,1.49376,1.91377,1.86445,-0.70156,1.26149,1.70534,-0.53493,1.05635,1.83196,1.83196,A,164514.00
1.80366,57.68809926,11.98119340,57.68809733,11.98119617,16:45:14.195949,0.01015,8.53343,1.50000,-0.04909,-0.08468,0.01338,-0.00233,0.02488,-0.04233,-0.05002,0.98430,1.79761,1.49501,1.90755,1.85823,-0.69916,1.27082,1.70534,-0.53493,1.05635,1.83196,1.83196,A,164514.00
1.86604,57.68809937,11.98119343,57.68809750,11.98119533,16:45:14.258359,0.05256,8.53343,1.50000,-0.04847,-0.08468,0.01216,0.01508,0.01923,-0.05039,-0.00689,1.07946,1.81628,1.49601,1.90206,1.85274,-0.69759,1.28259,1.83417,-0.58446,1.07488,2.78356,2.78356,A,164514.10
1.88051,57.68809996,11.98119315,57.68809750,11.98119533,16:45:14.272802,0.00602,1.13954,1.13954,-0.04782,-0.08468,0.01781,-0.00706,0.02183,0.00244,-0.04886,0.94141,1.87481,1.42471,2.03645,1.98714,-0.71398,1.34832,1.83417,-0.58446,1.07488,2.78356,2.78356,A,164514.10
1.89024,57.68809992,11.98119319,57.68809750,11.98119533,16:45:14.282533,0.00534,1.13954,1.13954,-0.04780,-0.08468,0.02468,-0.00890,0.02504,-0.03837,-0.03825,0.93489,1.88435,1.36768,2.15523,2.10591,-0.71173,1.34419,1.83417,-0.58446,1.07488,2.78356,2.78356,A,164514.10
1.90035,57.68809989,11.98119320,57.68809750,11.98119533,16:45:14.292632,0.00505,1.13954,1.13954,-0.04773,-0.08468,0.02697,-0.00645,0.02840,-0.05569,-0.03819,0.96246,1.89469,1.32205,2.25614,2.20682,-0.71103,1.34029,1.83417,-0.58446,1.07488,2.78356,2.78356,A,164514.10
1.91125,57.68809985,11.98119320,57.68809750,11.98119533,16:45:14.303541,0.00556,1.13954,1.13954,-0.04777,-0.08468,0.02468,0.00470,0.02733,-0.04136,-0.04477,0.98100,1.90511,1.28555,2.34194,2.29262,-0.71114,1.33574,1.83417,-0.58446,1.07488,2.78356,2.78356,A,164514.10
1.92147,57.68809980,11.98119319,57.68809750,11.98119533,16:45:14.313759,0.00531,1.13954,1.13954,-0.04769,-0.08468,0.02789,0.00454,0.02519,-0.03831,-0.04075,1.01589,1.91581,1.25635,2.41490,2.36558,-0.71162,1.33044,1.83417,-0.58446,1.07488,2.78356,2.78356,A,164514.10
1.93351,57.68809976,11.98119315,57.68809750,11.98119533,16:45:14.325803,0.00712,1.13954,1.13954,-0.04713,-0.08468,0.02300,0.00729,0.02824,-0.02263,-0.00616,1.02352,1.92783,1.23298,2.47679,2.42747,-0.71399,1.32622,1.83417,-0.58446,1.07488,2.78356,2.78356,A,164514.10
1.98675,57.68809969,11.98119316,57.68809833,11.98119483,16:45:14.379082,0.04996,1.13954,1.50000,-0.04694,-0.08468,0.01949,0.00347,0.02534,-0.01714,-0.02348,1.03102,1.93626,1.21429,2.52969,2.48037,-0.71336,1.31873,1.95335,-0.61418,1.16755,1.88115,1.88115,A,164514.20
2.00390,57.68810001,11.98119233,57.68809833,11.98119483,16:45:14.396186,0.00600,1.13954,1.13954,-0.04458,-0.08468,0.03522,0.00760,0.03145,-0.07777,-0.01037,0.95288,1.99796,1.19934,2.43525,2.38593,-0.76295,1.35361,1.95335,-0.61418,1.16755,1.88115,1.88115,A,164514.20
2.01547,57.68809998,11.98119235,57.68809833,11.98119483,16:45:14.407804,0.00717,1.13954,1.13954,-0.04409,-0.08468,0.03842,0.01279,0.02794,-0.02056,-0.01446,0.93684,2.00780,1.18738,2.35895,2.30963,-0.76196,1.35038,1.95335,-0.61418,1.16755,1.88115,1.88115,A,164514.20
2.02362,57.68809996,11.98119237,57.68809833,11.98119483,16:45:14.415913,0.00524,1.13954,1.13954,-0.04427,-0.08468,0.03491,0.01157,0.02794,0.02227,-0.05417,0.94239,2.01765,1.17781,2.29407,2.24476,-0.76071,1.34797,1.95335,-0.61418,1.16755,1.88115,1.88115,A,164514.20
2.03410,57.68809994,11.98119239,57.68809833,11.98119483,16:45:14.426396,0.00531,1.13954,1.13954,-0.04448,-0.08468,0.03461,0.00195,0.03512,-0.01031,-0.05905,0.98161,2.02822,1.17016,2.23891,2.18959,-0.75930,1.34637,1.95335,-0.61418,1.16755,1.88115,1.88115,A,164514.20
2.04429,57.68809993,11.98119242,57.68809833,11.98119483,16:45:14.436571,0.00509,1.13954,1.13954,-0.04404,-0.08468,0.02987,0.00103,0.03344,-0.06649,-0.01366,1.06018,2.03841,1.16403,2.19201,2.14269,-0.75762,1.34525,1.95335,-0.61418,1.16755,1.88115,1.88115,A,164514.20
2.11157,57.68809992,11.98119245,57.68810050,11.98119467,16:45:14.504717,0.06197,1.13954,1.50000,-0.04350,-0.08468,0.03293,0.00607,0.03588,-0.06210,-0.00964,1.07750,2.04916,1.15913,2.15214,2.10282,-0.75568,1.34450,2.07831,-0.62409,1.40847,1.61189,1.61189,A,164514.40
2.13048,57.68810058,11.98119187,57.68810050,11.98119467,16:45:14.522779,0.00691,1.13954,1.13954,-0.04223,-0.08468,0.02162,0.02791,0.01832,-0.03983,-0.04380,1.00339,2.12450,1.15521,2.07318,2.02386,-0.79003,1.41722,2.07831,-0.62409,1.40847,1.61189,1.61189,A,164514.40
2.13930,57.68810063,11.98119196,57.68810050,11.98119467,16:45:14.531581,0.00519,1.13954,1.13954,-0.04247,-0.08468,0.01979,0.02592,0.01328,0.00885,-0.04917,1.04420,2.13335,1.15208,2.01089,1.96157,-0.78498,1.42346,2.07831,-0.62409,1.40847,1.61189,1.61189,A,164514.40
2.14959,57.68810071,11.98119204,57.68810050,11.98119467,16:45:14.542138,0.00508,1.13954,1.13954,-0.04211,-0.08468,0.01460,0.01890,0.01282,0.02733,-0.00683,1.07317,2.14394,1.14957,1.95782,1.90851,-0.78049,1.43134,2.07831,-0.62409,1.40847,1.61189,1.61189,A,164514.40
2.16004,57.68810077,11.98119212,57.68810050,11.98119467,16:45:14.552326,0.00512,1.13954,1.13954,-0.04143,-0.08468,0.00773,0.00775,0.01603,0.00677,0.02208,1.07110,2.15413,1.14756,1.91273,1.86341,-0.77571,1.43886,2.07831,-0.62409,1.40847,1.61189,1.61189,A,164514.40
2.17153,57.68810085,11.98119219,57.68810050,11.98119467,16:45:14.563814,0.00621,1.13954,1.13954,-0.04099,-0.08468,0.01613,0.00088,0.01435,0.01519,-0.00159,1.05951,2.16557,1.14596,1.87432,1.82500,-0.77109,1.44716,2.07831,-0.62409,1.40847,1.61189,1.61189,A,164514.40
2.22055,57.68810090,11.98119228,57.68810183,11.98119483,16:45:14.612868,0.04483,1.13954,1.50000,-0.04116,-0.08482,0.01857,-0.01058,0.01542,0.01946,-0.04191,0.99125,2.17511,1.14467,1.84183,1.79243,-0.76578,1.45310,2.19231,-0.61418,1.55673,1.50408,1.50408,A,164514.50
2.23758,57.68810147,11.98119219,57.68810183,11.98119483,16:45:14.630128,0.00696,1.13954,1.13954,-0.04149,-0.09227,-0.00907,0.02073,0.00274,-0.02983,-0.00769,1.03877,2.23188,1.14365,1.79528,1.74153,-0.77135,1.51660,2.19231,-0.61418,1.55673,1.50408,1.50408,A,164514.50
2.24637,57.68810156,11.98119230,57.68810183,11.98119483,16:45:14.638656,0.00534,1.13954,1.13954,-0.04160,-0.09399,-0.01365,0.01432,0.00060,0.00299,-0.02080,1.03572,2.24046,1.14283,1.75929,1.70453,-0.76474,1.52584,2.19231,-0.61418,1.55673,1.50408,1.50408,A,164514.50
2.25674,57.68810165,11.98119241,57.68810183,11.98119483,16:45:14.649024,0.00531,1.13954,1.13954,-0.04152,-0.09572,-0.01778,0.00821,0.00595,0.05417,-0.00323,1.04408,2.25085,1.14217,1.72869,1.67291,-0.75846,1.53667,2.19231,-0.61418,1.55673,1.50408,1.50408,A,164514.50
2.26748,57.68810174,11.98119251,57.68810183,11.98119483,16:45:14.659765,0.00547,1.13954,1.13954,-0.04148,-0.09742,-0.02373,-0.00752,-0.00016,0.00464,-0.00116,1.03700,2.26139,1.14164,1.70282,1.64605,-0.75219,1.54689,2.19231,-0.61418,1.55673,1.50408,1.50408,A,164514.50
2.27751,57.68810183,11.98119262,57.68810183,11.98119483,16:45:14.669799,0.00510,1.13954,1.13954,-0.04220,-0.09906,-0.02083,-0.01195,-0.00551,-0.07107,-0.05612,1.02029,2.27185,1.14122,1.68099,1.62326,-0.74596,1.55631,2.19231,-0.61418,1.55673,1.50408,1.50408,A,164514.50
2.28794,57.68810191,11.98119272,57.68810183,11.98119483,16:45:14.680230,0.00514,1.13954,1.13954,-0.04249,-0.10079,-0.02801,-0.00508,-0.00856,-0.07369,-0.02257,1.01577,2.28202,1.14088,1.66256,1.60382,-0.73985,1.56540,2.19231,-0.61418,1.55673,1.50408,1.50408,A,164514.50
2.34295,57.68810199,11.98119282,57.68810300,11.98119467,16:45:14.735272,0.04975,1.13954,1.50000,-0.04327,-0.10265,-0.03549,0.00638,-0.01299,-0.04423,-0.04831,0.96728,2.29265,1.14061,1.64703,1.58720,-0.73387,1.57426,2.30981,-0.62409,1.68646,1.64701,1.64701,A,164514.60
2.36288,57.68810265,11.98119289,57.68810300,11.98119467,16:45:14.755170,0.00705,1.13954,1.13954,-0.04501,-0.11321,-0.05183,0.03051,-0.02414,-0.31561,0.10315,1.28478,2.35672,1.14040,1.65155,1.58554,-0.72948,1.64707,2.30981,-0.62409,1.68646,1.64701,1.64701,A,164514.60
2.37135,57.68810273,11.98119298,57.68810300,11.98119467,16:45:14.763642,0.00519,1.13954,1.13954,-0.04463,-0.11468,-0.03855,0.08243,-0.03300,-0.32733,0.03062,1.27197,2.36540,1.14023,1.66028,1.59340,-0.72432,1.65615,2.30981,-0.62409,1.68646,1.64701,1.64701,A,164514.60
2.38163,57.68810282,11.98119306,57.68810300,11.98119467,16:45:14.774166,0.00506,1.13954,1.13954,-0.04556,-0.11644,-0.04313,0.11847,-0.04109,-0.02361,-0.06814,1.20737,2.37598,1.14009,1.66765,1.59974,-0.71952,1.66688,2.30981,-0.62409,1.68646,1.64701,1.64701,A,164514.60
2.39208,57.68810291,11.98119314,57.68810300,11.98119467,16:45:14.784370,0.00511,1.13954,1.13954,-0.04765,-0.11788,-0.05305,0.11358,-0.04705,-0.02599,-0.16098,1.24995,2.38619,1.13998,1.67404,1.60528,-0.71501,1.67699,2.30981,-0.62409,1.68646,1.64701,1.64701,A,164514.60
2.40347,57.68810301,11.98119321,57.68810300,11.98119467,16:45:14.795755,0.00610,1.13954,1.13954,-0.04864,-0.11898,-0.06665,0.12733,-0.03559,-0.15701,-0.05185,1.16059,2.39746,1.13989,1.67947,1.61007,-0.71081,1.68750,2.30981,-0.62409,1.68646,1.64701,1.64701,A,164514.60
2.46345,57.68810308,11.98119328,57.68810433,11.98119467,16:45:14.855763,0.05567,1.13954,1.50000,-0.04813,-0.11972,-0.05809,0.13863,-0.03605,-0.06740,0.04349,1.05225,2.40717,1.13982,1.68431,1.61448,-0.70680,1.69567,2.42462,-0.62409,1.83472,1.57080,1.57080,A,164514.70
2.48147,57.68810380,11.98119329,57.68810433,11.98119467,16:45:14.873761,0.00624,1.25040,1.25040,-0.05548,-0.12235,-0.05504,-0.19811,-0.01452,0.14786,-0.13158,0.43615,2.47578,1.16194,1.67123,1.59985,-0.70582,1.77494,2.42462,-0.62409,1.83472,1.57080,1.57080,A,164514.70
2.49102,57.68810390,11.98119336,57.68810433,11.98119467,16:45:14.883318,0.00539,1.25040,1.25040,-0.06106,-0.12397,-0.05840,-0.24958,-0.01803,0.24241,-0.23644,0.58261,2.48506,1.17963,1.66623,1.59390,-0.70197,1.78616,2.42462,-0.62409,1.83472,1.57080,1.57080,A,164514.70
2.50113,57.68810400,11.98119342,57.68810433,11.98119467,16:45:14.893417,0.00509,1.25040,1.25040,-0.06088,-0.12600,-0.08833,-0.23919,-0.02032,-0.77342,0.04917,1.54672,2.49548,1.19378,1.66204,1.58852,-0.69830,1.79793,2.42462,-0.62409,1.83472,1.57080,1.57080,A,164514.70
2.51171,57.68810410,11.98119348,57.68810433,11.98119467,16:45:14.904001,0.00544,1.25040,1.25040,-0.06093,-0.12835,-0.05794,-0.06250,-0.04094,-0.96288,-0.00592,1.99860,2.50552,1.20511,1.65867,1.58376,-0.69475,1.80914,2.42462,-0.62409,1.83472,1.57080,1.57080,A,164514.70
2.52226,57.68810420,11.98119354,57.68810433,11.98119467,16:45:14.914546,0.00558,1.25040,1.25040,-0.06035,-0.13079,-0.06710,0.15176,-0.07194,-0.09992,0.09589,1.99860,2.51635,1.21417,1.65596,1.57962,-0.69134,1.82018,2.42462,-0.62409,1.83472,1.57080,1.57080,A,164514.70
2.57743,57.68810430,11.98119359,57.68810483,11.98119367,16:45:14.970690,0.05036,1.25040,1.50000,-0.06123,-0.13280,-0.05931,0.17161,-0.08416,0.44890,-0.10785,1.82359,2.52628,1.22141,1.65383,1.57631,-0.68807,1.83054,2.54351,-0.68352,1.89031,2.38956,2.38956,A,164514.80
2.59177,57.68810491,11.98119359,57.68810483,11.98119367,16:45:14.984072,0.00745,1.25040,1.25040,-0.06678,-0.13738,-0.00800,-0.08418,-0.00398,0.16452,-0.14292,0.32196,2.58466,1.22721,1.76944,1.68923,-0.68820,1.89895,2.54351,-0.68352,1.89031,2.38956,2.38956,A,164514.80
2.59974,57.68810497,11.98119358,57.68810483,11.98119367,16:45:14.992024,0.00519,1.25040,1.25040,-0.07267,-0.13738,-0.02862,-0.07411,-0.01497,0.24010,-0.32806,0.70913,2.59380,1.23185,1.87374,1.79353,-0.68879,1.90546,2.54351,-0.68352,1.89031,2.38956,2.38956,A,164514.80
2.61029,57.68810505,11.98119355,57.68810483,11.98119367,16:45:15.002582,0.00534,1.25040,1.25040,-0.07699,-0.13738,-0.09047,-0.05242,-0.04827,-0.44682,-0.34123,1.18316,2.60438,1.23556,1.96208,1.88186,-0.69073,1.91442,2.54351,-0.68352,1.89031,2.38956,2.38956,A,164514.80
2.62079,57.68810513,11.98119350,57.68810483,11.98119367,16:45:15.013079,0.00544,1.25040,1.25040,-0.07518,-0.13738,-0.09230,0.06212,-0.09362,-0.61537,0.18367,1.44966,2.61476,1.23853,2.03715,1.95693,-0.69346,1.92283,2.54351,-0.68352,1.89031,2.38956,2.38956,A,164514.80
2.63128,57.68810519,11.98119345,57.68810483,11.98119367,16:45:15.023565,0.00523,1.25040,1.25040,-0.07229,-0.13738,-0.05351,0.16444,-0.10355,-0.17946,0.27139,1.53879,2.62531,1.24090,2.10099,2.02077,-0.69669,1.93037,2.54351,-0.68352,1.89031,2.38956,2.38956,A,164514.80
2.64156,57.68810526,11.98119338,57.68810483,11.98119367,16:45:15.034086,0.00510,1.25040,1.25040,-0.07042,-0.13738,-0.02999,0.13221,-0.09347,0.29079,0.12578,1.37055,2.63590,1.24280,2.15523,2.07501,-0.70040,1.93740,2.54351,-0.68352,1.89031,2.38956,2.38956,A,164514.80
2.69763,57.68810531,11.98119332,57.68810600,11.98119183,16:45:15.090243,0.05077,1.25040,1.50000,-0.07039,-0.13738,-0.01884,0.02745,-0.06003,0.56962,-0.04892,1.22640,2.64607,1.24432,2.20135,2.12113,-0.70433,1.94371,2.67458,-0.79249,2.02004,2.26944,2.26944,A,164515.00
2.70942,57.68810584,11.98119268,57.68810600,11.98119183,16:45:15.101720,0.00667,1.25040,1.25040,-0.07330,-0.13738,-0.02129,0.08441,-0.00719,-0.06753,-0.12590,0.69156,2.70207,1.24554,2.21676,2.13654,-0.74210,2.00190,2.67458,-0.79249,2.02004,2.26944,2.26944,A,164515.00
2.71858,57.68810591,11.98119256,57.68810600,11.98119183,16:45:15.110867,0.00543,1.25040,1.25040,-0.07406,-0.13738,-0.02724,0.10121,-0.02078,0.15775,-0.07753,0.80307,2.71259,1.24651,2.23579,2.15557,-0.74913,2.00991,2.67458,-0.79249,2.02004,2.26944,2.26944,A,164515.00
2.73042,57.68810600,11.98119242,57.68810600,11.98119183,16:45:15.122708,0.00686,1.25040,1.25040,-0.07245,-0.13738,-0.02098,0.05479,-0.03727,0.13457,0.06893,1.07195,2.72447,1.24729,2.25163,2.17141,-0.75770,2.02008,2.67458,-0.79249,2.02004,2.26944,2.26944,A,164515.00
2.73932,57.68810606,11.98119231,57.68810600,11.98119183,16:45:15.131609,0.00531,1.25040,1.25040,-0.07143,-0.13738,-0.01442,0.02608,-0.03941,0.06173,0.02495,1.22201,2.73333,1.24791,2.26546,2.18525,-0.76401,2.02675,2.67458,-0.79249,2.02004,2.26944,2.26944,A,164515.00
2.75018,57.68810613,11.98119219,57.68810600,11.98119183,16:45:15.142484,0.00591,1.25040,1.25040,-0.07153,-0.13738,-0.01365,-0.02157,-0.04720,-0.00903,-0.06771,1.33962,2.74425,1.24841,2.27697,2.19675,-0.77146,2.03495,2.67458,-0.79249,2.02004,2.26944,2.26944,A,164515.00
2.76206,57.68810621,11.98119206,57.68810600,11.98119183,16:45:15.154358,0.00756,1.25040,1.25040,-0.07158,-0.13738,-0.02266,-0.04127,-0.05040,-0.01202,-0.05673,1.31937,2.75395,1.24881,2.28667,2.20646,-0.77908,2.04329,2.67458,-0.79249,2.02004,2.26944,2.26944,A,164515.00
2.77009,57.68810625,11.98119197,57.68810600,11.98119183,16:45:15.162390,0.00535,1.25040,1.25040,-0.07172,-0.13738,-0.02740,-0.06525,-0.04567,0.05649,-0.05563,1.18724,2.76420,1.24913,2.29531,2.21510,-0.78422,2.04819,2.67458,-0.79249,2.02004,2.26944,2.26944,A,164515.00
2.81140,57.68810631,11.98119186,57.68810667,11.98119133,16:45:15.203703,0.03625,1.25040,1.50000,-0.07256,-0.13730,-0.03045,-0.07288,-0.03452,0.09180,-0.09656,1.02651,2.77436,1.24938,2.30236,2.22220,-0.79076,2.05495,2.79167,-0.82221,2.09417,1.95207,1.95207,A,164515.10
2.82275,57.68810667,11.98119135,57.68810667,11.98119133,16:45:15.215033,0.00585,1.25040,1.25040,-0.07176,-0.13721,-0.00067,0.05860,-0.02108,-0.03251,-0.00695,0.79507,2.81648,1.24959,2.25671,2.17659,-0.82138,2.09500,2.79167,-0.82221,2.09417,1.95207,1.95207,A,164515.10
2.83237,57.68810674,11.98119126,57.68810667,11.98119133,16:45:15.224659,0.00507,1.25040,1.25040,-0.07226,-0.13721,0.01246,0.05143,-0.01421,0.10059,-0.09119,0.88798,2.82671,1.24975,2.22203,2.14191,-0.82673,2.10262,2.79167,-0.82221,2.09417,1.95207,1.95207,A,164515.10
2.84313,57.68810682,11.98119117,57.68810667,11.98119133,16:45:15.235424,0.00543,1.25040,1.25040,-0.07363,-0.13721,0.00971,0.01859,-0.01345,0.13030,-0.16122,1.02510,2.83718,1.24988,2.19245,2.11233,-0.83208,2.11088,2.79167,-0.82221,2.09417,1.95207,1.95207,A,164515.10
2.85335,57.68810689,11.98119109,57.68810667,11.98119133,16:45:15.245641,0.00525,1.25040,1.25040,-0.07379,-0.13721,-0.00617,-0.02203,-0.02368,0.07741,-0.07442,1.14717,2.84769,1.24998,2.16734,2.08722,-0.83675,2.11863,2.79167,-0.82221,2.09417,1.95207,1.95207,A,164515.10
2.86364,57.68810695,11.98119102,57.68810667,11.98119133,16:45:15.255928,0.00530,1.25040,1.25040,-0.07379,-0.13721,-0.00785,-0.03745,-0.03513,-0.00909,-0.06362,1.21475,2.85760,1.25007,2.14603,2.06592,-0.84079,2.12579,2.79167,-0.82221,2.09417,1.95207,1.95207,A,164515.10
2.87640,57.68810703,11.98119094,57.68810667,11.98119133,16:45:15.270672,0.00765,1.25040,1.25040,-0.07345,-0.13721,-0.00418,-0.02295,-0.03987,-0.11322,-0.03758,1.19414,2.86999,1.25013,2.12765,2.04754,-0.84564,2.13492,2.79167,-0.82221,2.09417,1.95207,1.95207,A,164515.10
2.88483,57.68810708,11.98119090,57.68810667,11.98119133,16:45:15.277115,0.00512,1.25040,1.25040,-0.07264,-0.13721,0.00910,-0.00569,-0.03727,-0.09919,-0.01153,1.07946,2.87914,1.25019,2.11249,2.03237,-0.84809,2.13990,2.79167,-0.82221,2.09417,1.95207,1.95207,A,164515.10
2.92737,57.68810714,11.98119084,57.68810750,11.98119117,16:45:15.319673,0.03720,1.25040,1.50000,-0.07249,-0.13721,0.01536,0.00103,-0.03666,-0.05258,-0.05740,0.94849,2.88941,1.25023,2.09937,2.01925,-0.85127,2.14661,2.90666,-0.83212,2.18683,1.67730,1.67730,A,164515.20
2.93882,57.68810755,11.98119051,57.68810750,11.98119117,16:45:15.331128,0.00586,1.49961,1.49961,-0.07178,-0.13721,0.02300,0.00607,-0.00398,-0.08821,-0.08186,0.94898,2.93254,1.30011,2.04286,1.96274,-0.87142,2.19249,2.90666,-0.83212,2.18683,1.67730,1.67730,A,164515.20
2.94844,57.68810763,11.98119047,57.68810750,11.98119117,16:45:15.340793,0.00507,1.49961,1.49961,-0.07066,-0.13721,0.02453,0.00531,-0.00978,-0.04849,-0.00842,1.01961,2.94279,1.34001,1.99896,1.91885,-0.87332,2.20155,2.90666,-0.83212,2.18683,1.67730,1.67730,A,164515.20
2.95941,57.68810772,11.98119044,57.68810750,11.98119117,16:45:15.351690,0.00540,1.49961,1.49961,-0.07049,-0.13721,0.02682,0.00317,-0.01620,0.00396,-0.07631,1.08177,2.95344,1.37193,1.96152,1.88140,-0.87511,2.21143,2.90666,-0.83212,2.18683,1.67730,1.67730,A,164515.20
2.97122,57.68810782,11.98119042,57.68810750,11.98119117,16:45:15.363510,0.00688,1.49961,1.49961,-0.06989,-0.13715,0.02300,-0.00141,-0.02307,-0.00921,-0.04471,1.11831,2.96508,1.39746,1.92956,1.84948,-0.87677,2.22208,2.90666,-0.83212,2.18683,1.67730,1.67730,A,164515.20
2.98109,57.68810789,11.98119040,57.68810750,11.98119117,16:45:15.373377,0.00601,1.49961,1.49961,-0.06944,-0.13701,0.02147,-0.00706,-0.02750,-0.01781,-0.05124,1.08251,2.97537,1.41789,1.90258,1.82258,-0.87749,2.23062,2.90666,-0.83212,2.18683,1.67730,1.67730,A,164515.20
2.99345,57.68810800,11.98119038,57.68810750,11.98119117,16:45:15.385733,0.00796,11.82246,1.49961,-0.06848,-0.13676,0.02254,-0.00599,-0.03040,-0.05307,-0.01763,1.03005,2.98776,1.43424,1.87924,1.79939,-0.87877,2.24223,2.90666,-0.83212,2.18683,1.67730,1.67730,A,164515.20
3.00320,57.68810806,11.98119038,57.68810750,11.98119117,16:45:15.395480,0.00730,11.82246,1.49961,-0.06812,-0.13662,0.02575,-0.00569,-0.03040,-0.02227,-0.05362,0.94916,2.99721,1.44731,1.85980,1.78004,-0.87879,2.24959,2.90666,-0.83212,2.18683,1.67730,1.67730,A,164515.20
3.04535,57.68810814,11.98119038,57.68810850,11.98119017,16:45:15.437654,0.03918,11.82246,1.50000,-0.06716,-0.13659,0.02483,-0.01439,-0.02918,0.00451,-0.01665,0.90683,3.00754,1.45777,1.84318,1.76343,-0.87881,2.25752,3.02511,-0.89155,2.29803,2.06168,2.06168,A,164515.30
3.05717,57.68810867,11.98119018,57.68810850,11.98119017,16:45:15.449460,0.00682,11.82246,1.50000,-0.06543,-0.13659,0.03109,0.00668,-0.02750,-0.07533,-0.03562,1.02498,3.05128,1.46622,1.88173,1.80198,-0.89057,2.31658,3.02511,-0.89155,2.29803,2.06168,2.06168,A,164515.30
3.06838,57.68810878,11.98119013,57.68810850,11.98119017,16:45:15.460672,0.00764,11.82246,1.50000,-0.06482,-0.13659,0.02544,0.02195,-0.03666,-0.00787,-0.03855,1.06256,3.06234,1.47297,1.91926,1.83951,-0.89367,2.32862,3.02511,-0.89155,2.29803,2.06168,2.06168,A,164515.30
3.08306,57.68810889,11.98119007,57.68810850,11.98119017,16:45:15.475352,0.01210,11.82246,1.50000,-0.06452,-0.13659,0.01979,0.00454,-0.03971,-0.04715,-0.05935,1.09361,3.07529,1.47838,1.95098,1.87123,-0.89758,2.34167,3.02511,-0.89155,2.29803,2.06168,2.06168,A,164515.30
3.09993,57.68810905,11.98118997,57.68810850,11.98119017,16:45:15.492212,0.00709,11.82246,1.50000,-0.06396,-0.13659,0.02346,-0.00065,-0.04094,-0.01165,-0.05112,1.00870,3.09399,1.48270,1.97732,1.89757,-0.90345,2.35941,3.02511,-0.89155,2.29803,2.06168,2.06168,A,164515.30
3.11084,57.68810913,11.98118991,57.68810850,11.98119017,16:45:15.503132,0.00760,11.82246,1.50000,-0.06340,-0.13659,0.02911,-0.00218,-0.03544,-0.02562,-0.04081,0.97637,3.10463,1.48616,2.00065,1.92090,-0.90674,2.36781,3.02511,-0.89155,2.29803,2.06168,2.06168,A,164515.30
3.12122,57.68810920,11.98118986,57.68810850,11.98119017,16:45:15.513514,0.00758,11.82246,1.50000,-0.06348,-0.13659,0.03369,-0.00554,-0.03040,-0.08040,-0.08619,0.98460,3.11525,1.48893,2.02052,1.94076,-0.91001,2.37534,3.02511,-0.89155,2.29803,2.06168,2.06168,A,164515.30
3.16617,57.68810927,11.98118979,57.68810933,11.98118883,16:45:15.558486,0.04214,11.82246,1.50000,-0.06335,-0.13659,0.03002,-0.00477,-0.03483,-0.07802,-0.06856,0.95770,3.12606,1.49114,2.03729,1.95754,-0.91370,2.38337,3.14542,-0.97080,2.39069,2.27833,2.27833,A,164515.40
3.17986,57.68810980,11.98118934,57.68810933,11.98118883,16:45:15.572145,0.00817,11.82246,1.50000,-0.06249,-0.13659,0.00971,-0.00248,-0.03269,-0.04465,-0.03105,1.01931,3.17387,1.49291,2.07866,1.99890,-0.94046,2.44244,3.14542,-0.97080,2.39069,2.27833,2.27833,A,164515.40
3.18939,57.68810987,11.98118924,57.68810933,11.98118883,16:45:15.581676,0.00724,11.82246,1.50000,-0.06267,-0.13659,0.00849,-0.00996,-0.03300,-0.06015,-0.07777,1.06299,3.18374,1.49433,2.11939,2.03964,-0.94655,2.44988,3.14542,-0.97080,2.39069,2.27833,2.27833,A,164515.40
3.20387,57.68810998,11.98118909,57.68810933,11.98118883,16:45:15.596154,0.01151,11.82246,1.50000,-0.06182,-0.13659,0.00452,-0.00691,-0.03345,-0.01903,-0.00384,1.06299,3.19757,1.49547,2.15333,2.07357,-0.95570,2.46258,3.14542,-0.97080,2.39069,2.27833,2.27833,A,164515.40
3.21738,57.68811008,11.98118894,57.68810933,11.98118883,16:45:15.609663,0.00677,11.82246,1.50000,-0.06129,-0.13659,0.00635,-0.00691,-0.03758,-0.04416,-0.02653,1.00461,3.21169,1.49637,2.18226,2.10251,-0.96448,2.47359,3.14542,-0.97080,2.39069,2.27833,2.27833,A,164515.40
3.22887,57.68811015,11.98118882,57.68810933,11.98118883,16:45:15.621153,0.00768,11.82246,1.50000,-0.06107,-0.13659,0.00895,-0.00722,-0.03712,-0.05905,-0.04788,0.97954,3.22319,1.49710,2.20716,2.12741,-0.97179,2.48133,3.14542,-0.97080,2.39069,2.27833,2.27833,A,164515.40
3.23936,57.68811020,11.98118871,57.68810933,11.98118883,16:45:15.631647,0.00776,11.82246,1.50000,-0.06102,-0.13659,0.00330,-0.00859,-0.03559,0.00988,-0.05106,0.88694,3.23335,1.49768,2.22853,2.14878,-0.97803,2.48691,3.14542,-0.97080,2.39069,2.27833,2.27833,A,164515.40
3.29428,57.68811025,11.98118860,57.68811167,11.98118633,16:45:15.687270,0.05215,11.82246,1.50000,-0.06074,-0.13659,0.00712,-0.01638,-0.03422,-0.03160,-0.04117,0.93708,3.24425,1.49814,2.24663,2.16688,-0.98450,2.49257,3.27314,-1.11939,2.65015,2.09091,2.09091,A,164515.60
3.31314,57.68811093,11.98118771,57.68811167,11.98118633,16:45:15.705459,0.01056,11.82246,1.50000,-0.06017,-0.13659,0.00055,0.00271,-0.02689,0.00195,-0.01903,1.02285,3.30467,1.49851,2.22645,2.14670,-1.03753,2.56868,3.27314,-1.11939,2.65015,2.09091,2.09091,A,164515.60
3.32649,57.68811110,11.98118748,57.68811167,11.98118633,16:45:15.718779,0.00725,11.82246,1.50000,-0.05942,-0.13659,0.01323,-0.00752,-0.01971,-0.02440,-0.01867,0.95794,3.32053,1.49881,2.21619,2.13644,-1.05127,2.58760,3.27314,-1.11939,2.65015,2.09091,2.09091,A,164515.60
3.33677,57.68811122,11.98118731,57.68811167,11.98118633,16:45:15.729052,0.00727,11.82246,1.50000,-0.05963,-0.13659,0.01216,-0.01195,-0.01238,0.00287,-0.07204,0.90817,3.33106,1.49905,2.20807,2.12832,-1.06116,2.60094,3.27314,-1.11939,2.65015,2.09091,2.09091,A,164515.60
3.34805,57.68811135,11.98118715,57.68811167,11.98118633,16:45:15.740333,0.00816,11.82246,1.50000,-0.05960,-0.13633,0.01017,-0.01180,-0.00749,-0.06820,-0.05734,0.94001,3.34213,1.49924,2.20103,2.12143,-1.07103,2.61457,3.27314,-1.11939,2.65015,2.09091,2.09091,A,164515.60
3.35737,57.68811144,11.98118701,57.68811167,11.98118633,16:45:15.749657,0.00721,11.82246,1.50000,-0.05966,-0.13568,0.01124,-0.01088,-0.00123,-0.03843,-0.06442,0.96917,3.35168,1.49939,2.19526,2.11604,-1.07905,2.62547,3.27314,-1.11939,2.65015,2.09091,2.09091,A,164515.60
3.36803,57.68811155,11.98118687,57.68811167,11.98118633,16:45:15.760314,0.00735,11.82246,1.50000,-0.05927,-0.13435,0.00651,-0.01332,0.00014,-0.03630,-0.03202,1.01534,3.36209,1.49951,2.19007,2.11164,-1.08743,2.63718,3.27314,-1.11939,2.65015,2.09091,2.09091,A,164515.60
3.41560,57.68811165,11.98118674,57.68811300,11.98118517,16:45:15.807917,0.04453,11.82246,1.50000,-0.05900,-0.13243,0.01185,-0.00554,-0.00596,-0.06618,-0.04459,1.06732,3.37247,1.49961,2.18555,2.10825,-1.09513,2.64800,3.39153,-1.18874,2.79841,2.00828,2.00828,A,164515.70
3.43571,57.68811232,11.98118599,57.68811300,11.98118517,16:45:15.827997,0.00900,11.82246,1.50000,-0.05746,-0.11805,0.02407,-0.03638,0.00977,0.01476,-0.03617,0.90414,3.42964,1.49969,2.16123,2.09238,-1.13972,2.72248,3.39153,-1.18874,2.79841,2.00828,2.00828,A,164515.70
3.44755,57.68811246,11.98118583,57.68811300,11.98118517,16:45:15.839840,0.01063,11.82246,1.50000,-0.05767,-0.11576,0.02498,-0.03257,0.01862,-0.03117,-0.07308,0.86193,3.44153,1.49975,2.14714,2.07963,-1.14907,2.73828,3.39153,-1.18874,2.79841,2.00828,2.00828,A,164515.70
3.46922,57.68811270,11.98118558,57.68811300,11.98118517,16:45:15.861513,0.01063,11.82246,1.50000,-0.05724,-0.11296,0.02010,-0.01180,0.02397,-0.09614,-0.04520,0.94172,3.46230,1.49980,2.13377,2.06790,-1.16413,2.76474,3.39153,-1.18874,2.79841,2.00828,2.00828,A,164515.70
3.49072,57.68811293,11.98118534,57.68811300,11.98118517,16:45:15.883017,0.01075,11.82246,1.50000,-0.05602,-0.11129,0.02834,0.02195,0.02305,0.00671,-0.00665,1.04633,3.48470,1.49984,2.12225,2.05736,-1.17854,2.79070,3.39153,-1.18874,2.79841,2.00828,2.00828,A,164515.70
3.55128,57.68811311,11.98118516,57.68811383,11.98118333,16:45:15.943613,0.05003,1.46953,1.50000,-0.05536,-0.11052,0.02178,0.00729,0.01343,0.02702,-0.02653,1.08842,3.50200,1.49378,2.11294,2.04850,-1.18915,2.81019,3.51977,-1.29770,2.89107,2.43689,2.43689,A,164515.80
3.56780,57.68811380,11.98118443,57.68811383,11.98118333,16:45:15.960083,0.00712,1.46953,1.46953,-0.05530,-0.10939,0.00925,-0.01791,0.00091,-0.03379,-0.07113,0.91384,3.56183,1.48893,2.16403,2.10026,-1.23228,2.88706,3.51977,-1.29770,2.89107,2.43689,2.43689,A,164515.80
3.57616,57.68811387,11.98118430,57.68811383,11.98118333,16:45:15.968444,0.00508,1.46953,1.46953,-0.05487,-0.10939,0.00162,-0.01699,0.00854,-0.14658,-0.01604,0.96587,3.57029,1.48505,2.21374,2.14996,-1.24025,2.89530,3.51977,-1.29770,2.89107,2.43689,2.43689,A,164515.80
3.58683,57.68811396,11.98118414,57.68811383,11.98118333,16:45:15.979118,0.00535,1.46953,1.46953,-0.05422,-0.10939,0.01414,0.01554,0.00717,-0.10712,-0.01043,0.95593,3.58089,1.48195,2.25574,2.19196,-1.24977,2.90524,3.51977,-1.29770,2.89107,2.43689,2.43689,A,164515.80
3.59752,57.68811404,11.98118399,57.68811383,11.98118333,16:45:15.990023,0.00564,1.46953,1.46953,-0.05409,-0.10939,0.00880,0.02272,0.01145,-0.00677,-0.04050,0.99259,3.59123,1.47946,2.29148,2.22771,-1.25895,2.91401,3.51977,-1.29770,2.89107,2.43689,2.43689,A,164515.80
3.60868,57.68811412,11.98118382,57.68811383,11.98118333,16:45:16.000977,0.00605,1.46953,1.46953,-0.05386,-0.10939,0.01628,0.01142,0.01297,0.02635,-0.03898,1.02718,3.60196,1.47748,2.32179,2.25801,-1.26857,2.92283,3.51977,-1.29770,2.89107,2.43689,2.43689,A,164515.80
3.61924,57.68811418,11.98118368,57.68811383,11.98118333,16:45:16.011524,0.00620,1.46953,1.46953,-0.05360,-0.10939,0.01231,0.00179,0.01068,-0.00726,-0.03465,1.04963,3.61246,1.47589,2.34770,2.28392,-1.27686,2.92956,3.51977,-1.29770,2.89107,2.43689,2.43689,A,164515.80
3.67151,57.68811423,11.98118355,57.68811450,11.98118100,16:45:16.064385,0.04807,1.46953,1.50000,-0.05319,-0.10939,0.01735,-0.01012,0.01236,-0.01415,-0.02647,1.05957,3.62287,1.47462,2.36974,2.30597,-1.28481,2.93563,3.63984,-1.43639,2.96520,2.65071,2.65071,A,164515.90
3.68454,57.68811474,11.98118259,57.68811450,11.98118100,16:45:16.076830,0.00740,1.46953,1.46953,-0.05346,-0.10939,-0.00205,-0.00447,-0.00673,-0.01714,-0.04996,0.90975,3.67755,1.47360,2.41514,2.35136,-1.34209,2.99207,3.63984,-1.43639,2.96520,2.65071,2.65071,A,164515.90
3.69262,57.68811479,11.98118240,57.68811450,11.98118100,16:45:16.084911,0.00507,1.46953,1.46953,-0.05299,-0.10939,0.00024,-0.00157,-0.00826,-0.06808,-0.01159,0.91232,3.68695,1.47279,2.45928,2.39551,-1.35304,2.99702,3.63984,-1.43639,2.96520,2.65071,2.65071,A,164515.90
3.70331,57.68811485,11.98118218,57.68811450,11.98118100,16:45:16.095593,0.00521,1.46953,1.46953,-0.05267,-0.10939,0.00284,0.00912,-0.00383,-0.06222,-0.02172,0.93605,3.69734,1.47214,2.49654,2.43276,-1.36603,3.00359,3.63984,-1.43639,2.96520,2.65071,2.65071,A,164515.90
3.71360,57.68811490,11.98118197,57.68811450,11.98118100,16:45:16.106149,0.00510,1.46953,1.46953,-0.05235,-0.10939,-0.00037,0.00317,-0.00505,-0.04782,-0.02013,0.98844,3.70795,1.47162,2.52822,2.46444,-1.37860,3.00943,3.63984,-1.43639,2.96520,2.65071,2.65071,A,164515.90
3.72433,57.68811494,11.98118177,57.68811450,11.98118100,16:45:16.116621,0.00544,1.46953,1.46953,-0.05227,-0.10939,-0.00021,0.00577,-0.00948,-0.01092,-0.03587,1.02712,3.71811,1.47120,2.55516,2.49138,-1.39062,3.01456,3.63984,-1.43639,2.96520,2.65071,2.65071,A,164515.90
3.73468,57.68811498,11.98118158,57.68811450,11.98118100,16:45:16.126970,0.00539,1.46953,1.46953,-0.05233,-0.10953,-0.00266,-0.00630,-0.00856,0.00268,-0.04459,1.08299,3.72871,1.47087,2.57808,2.51423,-1.40211,3.01909,3.63984,-1.43639,2.96520,2.65071,2.65071,A,164515.90
3.78792,57.68811502,11.98118139,57.68811517,11.98117850,16:45:16.180232,0.04823,1.46953,1.50000,-0.05202,-0.10996,-0.00327,-0.01562,-0.02063,0.00665,-0.01763,1.12838,3.73910,1.47060,2.59761,2.53350,-1.41321,3.02319,3.75623,-1.58498,3.03933,2.67884,2.67884,A,164516.00
3.80427,57.68811544,11.98118013,57.68811517,11.98117850,16:45:16.196554,0.00741,1.46953,1.46953,-0.05191,-0.11522,0.00315,-0.00523,-0.00703,-0.04233,-0.04423,0.88865,3.79833,1.47039,2.61297,2.54577,-1.48790,3.07002,3.75623,-1.58498,3.03933,2.67884,2.67884,A,164516.00
3.81246,57.68811547,11.98117993,57.68811517,11.98117850,16:45:16.204742,0.00519,1.46953,1.46953,-0.05205,-0.11547,0.00544,0.00027,-0.00978,-0.05618,-0.05215,0.95386,3.80675,1.47022,2.63215,2.56480,-1.50013,3.07348,3.75623,-1.58498,3.03933,2.67884,2.67884,A,164516.00
3.82333,57.68811552,11.98117969,57.68811517,11.98117850,16:45:16.215616,0.00566,1.46953,1.46953,-0.05225,-0.11553,0.01185,0.00912,-0.00581,-0.04374,-0.06448,1.03541,3.81709,1.47008,2.64819,2.58081,-1.51435,3.07827,3.75623,-1.58498,3.03933,2.67884,2.67884,A,164516.00
3.83316,57.68811555,11.98117946,57.68811517,11.98117850,16:45:16.225452,0.00510,1.46953,1.46953,-0.05199,-0.11553,0.00437,0.00775,-0.01116,-0.02891,-0.02824,1.09086,3.82750,1.46997,2.66184,2.59447,-1.52772,3.08250,3.75623,-1.58498,3.03933,2.67884,2.67884,A,164516.00
3.84349,57.68811559,11.98117925,57.68811517,11.98117850,16:45:16.235781,0.00519,1.46953,1.46953,-0.05201,-0.11553,0.00574,0.00332,-0.01299,0.00165,-0.04984,1.10014,3.83755,1.46988,2.67346,2.60608,-1.54043,3.08634,3.75623,-1.58498,3.03933,2.67884,2.67884,A,164516.00
3.85412,57.68811562,11.98117904,57.68811517,11.98117850,16:45:16.246417,0.00542,1.46953,1.46953,-0.05169,-0.11553,0.00437,-0.00615,-0.01635,-0.00213,-0.02385,1.09727,3.84815,1.46981,2.68330,2.61592,-1.55291,3.09007,3.75623,-1.58498,3.03933,2.67884,2.67884,A,164516.00
3.91455,57.68811565,11.98117884,57.68811683,11.98117367,16:45:16.306875,0.05545,1.46953,1.50000,-0.05123,-0.11553,0.00773,-0.01226,-0.01589,-0.04355,-0.01519,1.08513,3.85830,1.46976,2.69166,2.62428,-1.56487,3.09354,3.88788,-1.87226,3.22465,2.56867,2.56867,A,164516.20
3.93497,57.68811614,11.98117718,57.68811683,11.98117367,16:45:16.327261,0.00928,1.46953,1.46953,-0.04985,-0.11553,0.01811,0.00134,0.00778,-0.06088,-0.03312,1.00772,3.92897,1.46971,2.67468,2.60730,-1.66358,3.14752,3.88788,-1.87226,3.22465,2.56867,2.56867,A,164516.20
3.94302,57.68811621,11.98117689,57.68811683,11.98117367,16:45:16.335316,0.00719,1.46953,1.46953,-0.04984,-0.11553,0.01827,0.00454,0.00885,-0.04752,-0.04917,1.05103,3.93657,1.46968,2.66819,2.60081,-1.68063,3.15529,3.88788,-1.87226,3.22465,2.56867,2.56867,A,164516.20
3.95154,57.68811628,11.98117660,57.68811683,11.98117367,16:45:16.343826,0.00536,1.46953,1.46953,-0.04946,-0.11553,0.01735,-0.00447,0.00595,-0.01031,-0.02489,1.06451,3.94546,1.46965,2.66257,2.59519,-1.69780,3.16332,3.88788,-1.87226,3.22465,2.56867,2.56867,A,164516.20
3.96159,57.68811636,11.98117629,57.68811683,11.98117367,16:45:16.354131,0.00516,1.46953,1.46953,-0.04936,-0.11553,0.01506,-0.00722,0.00778,-0.00634,-0.04343,1.04316,3.95592,1.46962,2.65755,2.59017,-1.71641,3.17239,3.88788,-1.87226,3.22465,2.56867,2.56867,A,164516.20
3.97195,57.68811644,11.98117599,57.68811683,11.98117367,16:45:16.364237,0.00512,1.46953,1.46953,-0.04911,-0.11553,0.01628,-0.01332,0.00870,-0.03026,-0.03349,1.02291,3.96604,1.46961,2.65328,2.58590,-1.73410,3.18109,3.88788,-1.87226,3.22465,2.56867,2.56867,A,164516.20
3.98316,57.68811652,11.98117569,57.68811683,11.98117367,16:45:16.375441,0.00592,1.46953,1.46953,-0.04867,-0.11553,0.00864,-0.01195,0.00366,-0.00561,-0.01592,0.99119,3.97717,1.46959,2.64955,2.58217,-1.75180,3.18997,3.88788,-1.87226,3.22465,2.56867,2.56867,A,164516.20
4.03883,57.68811659,11.98117544,57.68811817,11.98117317,16:45:16.431147,0.05120,1.47699,1.50000,-0.04819,-0.11553,0.01384,-0.01699,0.00152,-0.03026,-0.01598,0.97643,3.98705,1.47107,2.64654,2.57917,-1.76703,3.19747,4.00401,-1.90198,3.37291,1.76862,1.76862,A,164516.30
4.05792,57.68811709,11.98117407,57.68811817,11.98117317,16:45:16.450222,0.00709,1.47699,1.47699,-0.04663,-0.11553,0.01567,-0.00722,-0.00092,-0.04752,-0.00037,1.00260,4.05180,1.47226,2.51703,2.44966,-1.84822,3.25317,4.00401,-1.90198,3.37291,1.76862,1.76862,A,164516.30
4.06679,57.68811720,11.98117390,57.68811817,11.98117317,16:45:16.459077,0.00556,1.47699,1.47699,-0.04629,-0.11553,0.02086,-0.00660,0.00534,-0.04191,-0.02623,1.03383,4.06067,1.47320,2.41402,2.34664,-1.85826,3.26525,4.00401,-1.90198,3.37291,1.76862,1.76862,A,164516.30
4.07669,57.68811732,11.98117373,57.68811817,11.98117317,16:45:16.468977,0.00506,1.47699,1.47699,-0.04615,-0.11553,0.01628,-0.00508,0.00763,-0.03471,-0.03825,1.02675,4.07103,1.47396,2.32629,2.25892,-1.86840,3.27874,4.00401,-1.90198,3.37291,1.76862,1.76862,A,164516.30
4.08753,57.68811745,11.98117357,57.68811817,11.98117317,16:45:16.479818,0.00536,1.47699,1.47699,-0.04557,-0.11553,0.01445,-0.00294,0.00534,-0.02593,-0.00647,1.04944,4.08141,1.47457,2.25166,2.18429,-1.87773,3.29275,4.00401,-1.90198,3.37291,1.76862,1.76862,A,164516.30
4.09764,57.68811757,11.98117344,57.68811817,11.98117317,16:45:16.490172,0.00507,1.47699,1.47699,-0.04526,-0.11553,0.01384,-0.00645,0.00915,-0.04209,-0.02464,1.01321,4.09200,1.47505,2.18826,2.12088,-1.88568,3.30633,4.00401,-1.90198,3.37291,1.76862,1.76862,A,164516.30
4.15644,57.68811769,11.98117332,57.68811967,11.98117267,16:45:16.548778,0.05348,1.47699,1.50000,-0.04417,-0.11553,0.01720,-0.00584,0.00656,-0.04215,0.02422,0.95752,4.10218,1.47544,2.13436,2.06698,-1.89266,3.31971,4.11936,-1.93170,3.53971,1.74712,1.74712,A,164516.40
4.17473,57.68811850,11.98117257,57.68811967,11.98117267,16:45:16.567018,0.00701,1.47699,1.47699,-0.04273,-0.11553,0.01720,0.01936,0.00060,-0.01732,-0.01330,1.05042,4.16871,1.47575,2.07823,2.01086,-1.93766,3.41023,4.11936,-1.93170,3.53971,1.74712,1.74712,A,164516.40
4.18335,57.68811864,11.98117251,57.68811967,11.98117267,16:45:16.575628,0.00519,1.47699,1.47699,-0.04231,-0.11553,0.01277,0.02211,0.00167,-0.06112,-0.01110,1.04706,4.17738,1.47600,2.03785,1.97047,-1.94127,3.42500,4.11936,-1.93170,3.53971,1.74712,1.74712,A,164516.40
4.19363,57.68811879,11.98117244,57.68811967,11.98117267,16:45:16.586167,0.00507,1.47699,1.47699,-0.04168,-0.11553,0.02025,0.02272,0.00137,-0.03331,-0.00421,1.01107,4.18799,1.47620,2.00327,1.93589,-1.94544,3.44175,4.11936,-1.93170,3.53971,1.74712,1.74712,A,164516.40
4.20407,57.68811893,11.98117238,57.68811967,11.98117267,16:45:16.596356,0.00512,1.47699,1.47699,-0.04102,-0.11553,0.02132,0.01187,0.00427,-0.01629,-0.00146,1.00400,4.19817,1.47636,1.97389,1.90651,-1.94896,3.45766,4.11936,-1.93170,3.53971,1.74712,1.74712,A,164516.40
4.21476,57.68811907,11.98117232,57.68811967,11.98117267,16:45:16.607042,0.00540,1.47699,1.47699,-0.04071,-0.11553,0.02483,0.00241,0.00198,0.01403,-0.02751,0.94233,4.20879,1.47649,1.94890,1.88152,-1.95207,3.47314,4.11936,-1.93170,3.53971,1.74712,1.74712,A,164516.40
4.26164,57.68811920,11.98117228,57.68812117,11.98117217,16:45:16.654257,0.04188,1.47699,1.50000,-0.04071,-0.11553,0.01827,-0.01256,0.00350,-0.02080,-0.04172,0.93135,4.21916,1.47659,1.92769,1.86031,-1.95460,3.48753,4.23647,-1.96141,3.70650,1.74712,1.74712,A,164516.50
4.27407,57.68811986,11.98117196,57.68812117,11.98117217,16:45:16.666371,0.00726,1.47699,1.47699,-0.04009,-0.11553,0.00834,-0.00599,-0.00047,-0.01635,-0.01555,1.04548,4.26749,1.47667,1.90480,1.83743,-1.97367,3.56135,4.23647,-1.96141,3.70650,1.74712,1.74712,A,164516.50
4.28264,57.68812001,11.98117193,57.68812117,11.98117217,16:45:16.674936,0.00543,1.47699,1.47699,-0.03951,-0.11553,0.01261,-0.01470,0.00259,-0.00268,0.00226,1.05121,4.27671,1.47673,1.89040,1.82302,-1.97557,3.57781,4.23647,-1.96141,3.70650,1.74712,1.74712,A,164516.50
4.29268,57.68812017,11.98117189,57.68812117,11.98117217,16:45:16.684973,0.00507,1.47699,1.47699,-0.03963,-0.11553,0.01261,-0.01730,0.00732,-0.01665,-0.04630,1.02803,4.28702,1.47679,1.87797,1.81059,-1.97776,3.59548,4.23647,-1.96141,3.70650,1.74712,1.74712,A,164516.50
4.30332,57.68812032,11.98117186,57.68812117,11.98117217,16:45:16.695610,0.00516,1.47699,1.47699,-0.03991,-0.11553,0.00422,-0.02508,0.00778,-0.08607,-0.05258,1.03279,4.29739,1.47683,1.86736,1.79999,-1.97980,3.61272,4.23647,-1.96141,3.70650,1.74712,1.74712,A,164516.50
4.31365,57.68812047,11.98117183,57.68812117,11.98117217,16:45:16.706178,0.00509,1.47699,1.47699,-0.04008,-0.11553,0.00330,-0.01500,0.00427,-0.10724,-0.04374,1.01364,4.30799,1.47686,1.85835,1.79097,-1.98161,3.62910,4.23647,-1.96141,3.70650,1.74712,1.74712,A,164516.50
4.32405,57.68812061,11.98117180,57.68812117,11.98117217,16:45:16.716606,0.00510,1.47699,1.47699,-0.03943,-0.11553,-0.00082,0.00317,-0.00154,-0.03300,0.01379,0.99235,4.31815,1.47689,1.85072,1.78334,-1.98316,3.64442,4.23647,-1.96141,3.70650,1.74712,1.74712,A,164516.50
4.33475,57.68812074,11.98117178,57.68812117,11.98117217,16:45:16.727040,0.00539,1.47699,1.47699,-0.03938,-0.11553,-0.00082,0.00577,0.00335,-0.03270,-0.02550,0.97393,4.32879,1.47691,1.84420,1.77682,-1.98463,3.65934,4.23647,-1.96141,3.70650,1.74712,1.74712,A,164516.50
4.39368,57.68812087,11.98117176,57.68812400,11.98116900,16:45:16.786184,0.05392,1.47699,1.50000,-0.03839,-0.11550,-0.00159,0.01340,0.00259,-0.05868,0.03453,0.94154,4.33916,1.47693,1.83869,1.77133,-1.98584,3.67308,4.36870,-2.14963,4.02155,2.10931,2.10931,A,164516.70
4.40799,57.68812177,11.98117133,57.68812400,11.98116900,16:45:16.800276,0.00745,1.47699,1.47699,-0.03918,-0.11313,-0.01258,-0.01042,0.01679,-0.07265,-0.02928,1.04670,4.40131,1.47694,1.88155,1.81558,-2.01090,3.77351,4.36870,-2.14963,4.02155,2.10931,2.10931,A,164516.70
4.41605,57.68812195,11.98117118,57.68812400,11.98116900,16:45:16.808343,0.00512,1.47699,1.47699,-0.03928,-0.11273,-0.00953,0.00149,0.01297,-0.04002,-0.03026,1.03212,4.41014,1.47695,1.92483,1.85909,-2.01990,3.79414,4.36870,-2.14963,4.02155,2.10931,2.10931,A,164516.70
4.42754,57.68812216,11.98117102,57.68812400,11.98116900,16:45:16.819836,0.00621,1.47699,1.47699,-0.03945,-0.11222,-0.01304,0.00515,0.02091,-0.04178,-0.03056,0.99155,4.42077,1.47696,1.96125,1.89582,-2.02981,3.81708,4.36870,-2.14963,4.02155,2.10931,2.10931,A,164516.70
4.43678,57.68812234,11.98117086,57.68812400,11.98116900,16:45:16.829065,0.00505,1.63338,1.63338,-0.03901,-0.11160,-0.01228,0.00622,0.01878,-0.04776,0.00232,0.93440,4.43113,1.50824,1.99229,1.92722,-2.03922,3.83743,4.36870,-2.14963,4.02155,2.10931,2.10931,A,164516.70
4.44735,57.68812253,11.98117069,57.68812400,11.98116900,16:45:16.839627,0.00518,1.63338,1.63338,-0.03881,-0.11072,-0.00571,0.00790,0.01908,-0.02940,-0.01580,0.91915,4.44141,1.53327,2.01847,1.95391,-2.04899,3.85805,4.36870,-2.14963,4.02155,2.10931,2.10931,A,164516.70
4.45859,57.68812271,11.98117052,57.68812400,11.98116900,16:45:16.850878,0.00602,1.63338,1.63338,-0.03920,-0.10964,-0.00586,0.00179,0.02046,-0.03392,-0.05173,0.92458,4.45260,1.55329,2.04053,1.97661,-2.05900,3.87857,4.36870,-2.14963,4.02155,2.10931,2.10931,A,164516.70
4.46829,57.68812287,11.98117037,57.68812400,11.98116900,16:45:16.860571,0.00531,1.63338,1.63338,-0.03956,-0.10860,-0.01655,-0.00569,0.02412,-0.06637,-0.04514,0.96990,4.46233,1.56931,2.05935,1.99604,-2.06814,3.89645,4.36870,-2.14963,4.02155,2.10931,2.10931,A,164516.70
4.52075,57.68812303,11.98117022,57.68812550,11.98116817,16:45:16.913062,0.04737,1.63338,1.50000,-0.04000,-0.10749,-0.01671,-0.00218,0.02214,-0.03483,-0.05026,1.00607,4.47280,1.58212,2.07518,2.01252,-2.07737,3.91410,4.49064,-2.19916,4.18834,1.85946,1.85946,A,164516.80
4.53703,57.68812385,11.98116950,57.68812550,11.98116817,16:45:16.929321,0.00693,1.63338,1.63338,-0.04030,-0.10415,-0.00999,-0.00569,0.02351,0.02007,-0.01434,0.94288,4.53067,1.59238,2.04483,1.98412,-2.11970,4.00445,4.49064,-2.19916,4.18834,1.85946,1.85946,A,164516.80
4.54558,57.68812401,11.98116937,57.68812550,11.98116817,16:45:16.938120,0.00507,1.63338,1.63338,-0.04036,-0.10376,-0.00327,-0.01531,0.02626,-0.00360,-0.03385,0.93342,4.53993,1.60058,2.02526,1.96478,-2.12781,4.02307,4.49064,-2.19916,4.18834,1.85946,1.85946,A,164516.80
4.55628,57.68812419,11.98116922,57.68812550,11.98116817,16:45:16.948565,0.00537,1.63338,1.63338,-0.04013,-0.10330,-0.00434,-0.02600,0.02794,-0.01348,-0.01427,0.94135,4.55012,1.60714,2.00839,1.94818,-2.13628,4.04312,4.49064,-2.19916,4.18834,1.85946,1.85946,A,164516.80
4.56684,57.68812437,11.98116909,57.68812550,11.98116817,16:45:16.959122,0.00553,1.63338,1.63338,-0.03978,-0.10291,-0.00495,-0.02615,0.02840,-0.03910,-0.00592,0.95935,4.56088,1.61239,1.99400,1.93402,-2.14420,4.06243,4.49064,-2.19916,4.18834,1.85946,1.85946,A,164516.80
4.57676,57.68812453,11.98116897,57.68812550,11.98116817,16:45:16.969047,0.00505,1.63338,1.63338,-0.03984,-0.10268,-0.00281,-0.02127,0.03008,-0.11004,-0.03398,1.01882,4.57109,1.61658,1.98180,1.92195,-2.15138,4.08038,4.49064,-2.19916,4.18834,1.85946,1.85946,A,164516.80
4.58737,57.68812469,11.98116885,57.68812550,11.98116817,16:45:16.979653,0.00520,1.63338,1.63338,-0.03956,-0.10265,-0.00510,-0.01042,0.02015,-0.05850,-0.00866,1.03133,4.58141,1.61994,1.97138,1.91155,-2.15827,4.09807,4.49064,-2.19916,4.18834,1.85946,1.85946,A,164516.80
4.64468,57.68812484,11.98116875,57.68812683,11.98116783,16:45:17.037010,0.05212,1.63338,1.50000,-0.03993,-0.10265,-0.00846,0.00271,0.02320,-0.04264,-0.05118,1.02718,4.59200,1.62263,1.96251,1.90268,-2.16469,4.11493,4.60903,-2.21897,4.33660,1.70364,1.70364,A,164516.90
4.66044,57.68812574,11.98116819,57.68812683,11.98116783,16:45:17.052726,0.00702,1.63338,1.63338,-0.03905,-0.10265,0.01475,0.02363,0.01648,0.02788,-0.03361,0.96264,4.65472,1.62478,1.92514,1.86531,-2.19801,4.21483,4.60903,-2.21897,4.33660,1.70364,1.70364,A,164516.90
4.66929,57.68812589,11.98116812,57.68812683,11.98116783,16:45:17.061580,0.00548,1.63338,1.63338,-0.03887,-0.10265,0.00773,0.01814,0.01648,0.00695,-0.02294,0.99796,4.66361,1.62650,1.90002,1.84019,-2.20223,4.23135,4.60903,-2.21897,4.33660,1.70364,1.70364,A,164516.90
4.67949,57.68812604,11.98116805,57.68812683,11.98116783,16:45:17.071776,0.00530,1.63338,1.63338,-0.03903,-0.10265,0.01429,0.01646,0.01740,-0.06350,-0.05130,1.03212,4.67343,1.62788,1.87855,1.81872,-2.20636,4.24855,4.60903,-2.21897,4.33660,1.70364,1.70364,A,164516.90
4.68968,57.68812619,11.98116798,57.68812683,11.98116783,16:45:17.082335,0.00508,1.63338,1.63338,-0.03863,-0.10265,0.01139,0.01554,0.01190,-0.05033,-0.01147,1.08000,4.68401,1.62898,1.86024,1.80041,-2.21018,4.26556,4.60903,-2.21897,4.33660,1.70364,1.70364,A,164516.90
4.70009,57.68812634,11.98116792,57.68812683,11.98116783,16:45:17.092381,0.00510,1.63338,1.63338,-0.03861,-0.10265,0.00834,0.01859,0.01328,0.01031,-0.03562,1.08086,4.69421,1.62986,1.84469,1.78486,-2.21358,4.28177,4.60903,-2.21897,4.33660,1.70364,1.70364,A,164516.90
4.75595,57.68812648,11.98116787,57.68812850,11.98116733,16:45:17.148273,0.05057,1.63338,1.50000,-0.03837,-0.10265,0.00788,0.01447,0.00931,-0.00299,-0.01952,1.05768,4.70480,1.63056,1.83144,1.77161,-2.21667,4.29750,4.72197,-2.24869,4.52193,1.72980,1.72980,A,164517.00
4.77196,57.68812739,11.98116754,57.68812850,11.98116733,16:45:17.164242,0.00638,1.63338,1.63338,-0.03767,-0.10265,0.02254,0.01630,0.00564,-0.11413,-0.06985,0.91445,4.76602,1.63113,1.81784,1.75801,-2.23654,4.39847,4.72197,-2.24869,4.52193,1.72980,1.72980,A,164517.00
4.78105,57.68812755,11.98116749,57.68812850,11.98116733,16:45:17.173344,0.00507,1.63338,1.63338,-0.03806,-0.10265,0.01765,0.04211,0.00091,-0.10620,-0.06606,1.00412,4.77539,1.63158,1.81270,1.75287,-2.23926,4.41579,4.72197,-2.24869,4.52193,1.72980,1.72980,A,164517.00
4.79143,57.68812771,11.98116744,57.68812850,11.98116733,16:45:17.183712,0.00520,1.63338,1.63338,-0.03832,-0.10265,0.01139,0.04898,-0.00108,-0.05917,-0.05801,1.08983,4.78548,1.63194,1.80821,1.74838,-2.24207,4.43376,4.72197,-2.24869,4.52193,1.72980,1.72980,A,164517.00
4.80210,57.68812786,11.98116740,57.68812850,11.98116733,16:45:17.194407,0.00547,1.63338,1.63338,-0.03772,-0.10265,0.00666,0.04822,-0.00994,0.03526,0.00805,1.09623,4.79608,1.63223,1.80437,1.74454,-2.24473,4.45119,4.72197,-2.24869,4.52193,1.72980,1.72980,A,164517.00
4.81222,57.68812801,11.98116736,57.68812850,11.98116733,16:45:17.204499,0.00518,1.63338,1.63338,-0.03714,-0.10265,0.01139,0.02944,-0.00871,0.07033,0.00415,1.10081,4.80634,1.63246,1.80108,1.74125,-2.24726,4.46798,4.72197,-2.24869,4.52193,1.72980,1.72980,A,164517.00
4.86750,57.68812816,11.98116732,57.68813000,11.98116683,16:45:17.259813,0.05007,1.63338,1.50000,-0.03607,-0.10265,0.01659,-0.01226,-0.00596,0.10010,0.03684,1.10068,4.81684,1.63264,1.79831,1.73848,-2.24957,4.48369,4.83423,-2.27841,4.68872,1.74712,1.74712,A,164517.10
4.88255,57.68812904,11.98116704,57.68813000,11.98116683,16:45:17.274833,0.00693,1.63338,1.63338,-0.03523,-0.10271,0.00834,0.02638,0.00854,-0.11627,-0.00598,0.91518,4.87656,1.63279,1.79245,1.73259,-2.26594,4.58211,4.83423,-2.27841,4.68872,1.74712,1.74712,A,164517.10
4.89135,57.68812918,11.98116700,57.68813000,11.98116683,16:45:17.283632,0.00520,1.63338,1.63338,-0.03442,-0.10274,0.01750,0.04318,0.01038,-0.11444,0.01263,0.89487,4.88540,1.63291,1.79380,1.73392,-2.26825,4.59777,4.83423,-2.27841,4.68872,1.74712,1.74712,A,164517.10
4.90162,57.68812934,11.98116696,57.68813000,11.98116683,16:45:17.294168,0.00508,1.63338,1.63338,-0.03264,-0.10274,0.02743,0.06074,0.00732,-0.05588,0.06271,0.88273,4.89599,1.63300,1.79472,1.73484,-2.27090,4.61538,4.83423,-2.27841,4.68872,1.74712,1.74712,A,164517.10
4.91207,57.68812949,11.98116692,57.68813000,11.98116683,16:45:17.304357,0.00512,1.63338,1.63338,-0.03191,-0.10274,0.04117,0.04853,0.00839,0.04252,-0.00604,0.88053,4.90616,1.63308,1.79552,1.73564,-2.27341,4.63191,4.83423,-2.27841,4.68872,1.74712,1.74712,A,164517.10
4.92272,57.68812963,11.98116688,57.68813000,11.98116683,16:45:17.315010,0.00537,1.63338,1.63338,-0.03222,-0.10274,0.03751,0.01829,0.00763,0.04575,-0.06875,0.96386,4.91676,1.63314,1.79617,1.73630,-2.27584,4.64787,4.83423,-2.27841,4.68872,1.74712,1.74712,A,164517.10
4.93287,57.68812977,11.98116684,57.68813000,11.98116683,16:45:17.325153,0.00511,1.63338,1.63338,-0.03294,-0.10274,0.03583,-0.00859,0.01083,-0.02836,-0.09760,1.01949,4.92720,1.63319,1.79676,1.73688,-2.27811,4.66270,4.83423,-2.27841,4.68872,1.74712,1.74712,A,164517.10
5.00816,57.68812989,11.98116680,57.68813183,11.98116550,16:45:17.400473,0.06999,1.63338,1.50000,-0.03295,-0.10274,0.02010,-0.01699,0.01022,-0.06551,-0.04032,1.09745,4.93739,1.63323,1.79725,1.73737,-2.28028,4.67687,4.97396,-2.35766,4.89258,1.94156,1.94156,A,164517.30
5.03136,57.68813110,11.98116639,57.68813183,11.98116550,16:45:17.424282,0.01462,1.37868,1.37868,0.00000,-0.10274,0.02224,-0.02676,0.01083,-0.07759,-0.02080,0.99784,5.01986,1.37868,2.07973,2.01985,-2.35766,4.89258,4.97396,-2.35766,4.89258,1.94156,1.94156,A,164517.30
