Time,lat_estimated,lon_estimated,latitude,longitude,RealTime,CalculationTime,MeasuredVelocity,FilteredVelocity,Roll,SteeringAngle,RollRate,gy,gz,ax,ay,az,imu_read_timing,v_estimated,yaw_estimated,heading_estimated,x_estimated,y_estimated,GPS_timestamp,x_GPS,y_GPS,theta_GPS,theta_GPS_noUnwrap,status,NMEA timestamp
0.07325,57.68810733,11.97958833,57.68810733,11.97958833,14:42:07.611366,0.07320,0.00000,0.00000,-0.00224,0.00000,-0.00174,-0.00121,0.00081,-0.04837,-0.11651,0.99216,0.00001,0.00000,0.00000,0.00000,0.00000,0.00000,0.03220,0.00000,0.00000,0.00000,0.00000,A,144207.50
0.08999,57.68810733,11.97958833,57.68810733,11.97958833,14:42:07.628107,0.00825,0.00000,0.00000,-0.00470,0.00000,-0.00327,0.00031,-0.00316,-0.04917,-0.11706,0.99253,0.08353,0.00000,0.00000,0.00000,0.00000,0.00000,0.03220,0.00000,0.00000,0.00000,0.00000,A,144207.50
0.09759,57.68810733,11.97958833,57.68810733,11.97958833,14:42:07.635701,0.00531,0.00000,0.00000,-0.00686,0.00000,-0.00174,0.00031,-0.00209,-0.05045,-0.11621,0.99113,0.09172,0.00000,0.00000,0.00000,0.00000,0.00000,0.03220,0.00000,0.00000,0.00000,0.00000,A,144207.50
0.10776,57.68810733,11.97958833,57.68810733,11.97958833,14:42:07.646139,0.00524,0.00000,0.00000,-0.00896,0.00000,0.00116,-0.00259,0.00142,-0.04947,-0.11572,0.99253,0.10218,0.00000,0.00000,0.00000,0.00000,0.00000,0.03220,0.00000,0.00000,0.00000,0.00000,A,144207.50
0.11817,57.68810733,11.97958833,57.68810733,11.97958833,14:42:07.656280,0.00525,0.00000,0.00000,-0.01103,0.00000,-0.00067,0.00092,-0.00179,-0.05167,-0.11566,0.99369,0.11232,0.00000,0.00000,0.00000,0.00000,0.00000,0.03220,0.00000,0.00000,0.00000,0.00000,A,144207.50
0.12883,57.68810733,11.97958833,57.68810733,11.97958833,14:42:07.666945,0.00551,0.00000,0.00000,-0.01307,0.00000,0.00070,0.00123,0.00203,-0.04965,-0.11608,0.99326,0.12296,0.00000,0.00000,0.00000,0.00000,0.00000,0.03220,0.00000,0.00000,0.00000,0.00000,A,144207.50
0.16339,57.68810733,11.97958833,57.68810650,11.97958850,14:42:07.702136,0.02967,0.00000,0.00000,-0.01510,0.00000,-0.00082,0.00016,-0.00026,-0.04996,-0.11627,0.99253,0.13407,0.00000,0.00000,0.00000,0.00000,0.00000,0.15345,0.00000,0.00000,0.00000,0.00000,A,144207.60
0.18088,57.68810733,11.97958833,57.68810650,11.97958850,14:42:07.718990,0.00650,0.00000,0.00000,-0.01712,0.00000,-0.00052,-0.00030,0.00005,-0.05014,-0.11651,0.99210,0.17501,0.00000,0.00000,0.00000,0.00000,0.00000,0.15345,0.00000,0.00000,0.00000,0.00000,A,144207.60
0.18984,57.68810733,11.97958833,57.68810650,11.97958850,14:42:07.727949,0.00523,0.00000,0.00000,-0.01907,0.00000,-0.00098,0.00001,0.00081,-0.05014,-0.11541,0.99338,0.18405,0.00000,0.00000,0.00000,0.00000,0.00000,0.15345,0.00000,0.00000,0.00000,0.00000,A,144207.60
0.20038,57.68810733,11.97958833,57.68810650,11.97958850,14:42:07.738501,0.00537,0.00000,0.00000,-0.02098,0.00000,-0.00067,0.00276,0.00264,-0.04856,-0.11474,0.99369,0.19465,0.00000,0.00000,0.00000,0.00000,0.00000,0.15345,0.00000,0.00000,0.00000,0.00000,A,144207.60
0.21055,57.68810733,11.97958833,57.68810650,11.97958850,14:42:07.748660,0.00514,0.00000,0.00000,-0.02290,0.00000,-0.00098,-0.00014,-0.00011,-0.04929,-0.11700,0.99625,0.20481,0.00000,0.00000,0.00000,0.00000,0.00000,0.15345,0.00000,0.00000,0.00000,0.00000,A,144207.60
0.22161,57.68810733,11.97958833,57.68810650,11.97958850,14:42:07.759739,0.00579,0.00000,0.00000,-0.02479,0.00000,-0.00144,0.00215,0.00081,-0.04801,-0.11633,0.99326,0.21541,0.00000,0.00000,0.00000,0.00000,0.00000,0.15345,0.00000,0.00000,0.00000,0.00000,A,144207.60
0.23136,57.68810733,11.97958833,57.68810650,11.97958850,14:42:07.769468,0.00515,0.00000,0.00000,-0.02666,0.00000,-0.00327,0.00092,0.00142,-0.04947,-0.11608,0.99155,0.22583,0.00000,0.00000,0.00000,0.00000,0.00000,0.15345,0.00000,0.00000,0.00000,0.00000,A,144207.60
0.24169,57.68810733,11.97958833,57.68810650,11.97958850,14:42:07.779806,0.00525,0.00000,0.00000,-0.02842,0.00000,0.00376,0.00276,-0.00118,-0.05179,-0.11480,0.99204,0.23589,0.00000,0.00000,0.00000,0.00000,0.00000,0.15345,0.00000,0.00000,0.00000,0.00000,A,144207.60
0.25223,57.68810733,11.97958833,57.68810650,11.97958850,14:42:07.790346,0.00537,0.00000,0.00000,-0.03020,0.00000,0.00086,0.00245,0.00218,-0.04880,-0.11639,0.99406,0.24647,0.00000,0.00000,0.00000,0.00000,0.00000,0.15345,0.00000,0.00000,0.00000,0.00000,A,144207.60
0.28557,57.68810733,11.97958833,57.68810400,11.97958500,14:42:07.823717,0.02832,0.00000,0.00000,-0.03197,0.00000,0.00116,0.00092,0.00081,-0.05100,-0.11761,0.99277,0.25667,0.00000,0.00000,0.00000,0.00000,0.00000,0.27544,0.00000,0.00000,0.00000,0.00000,A,144207.70
0.30319,57.68810733,11.97958833,57.68810400,11.97958500,14:42:07.841301,0.00768,0.00000,0.00000,-0.03380,0.00000,-0.00159,0.00016,-0.00102,-0.04935,-0.11816,0.99284,0.29734,0.00000,0.00000,0.00000,0.00000,0.00000,0.27544,0.00000,0.00000,0.00000,0.00000,A,144207.70
0.31127,57.68810733,11.97958833,57.68810400,11.97958500,14:42:07.849378,0.00535,0.00000,0.00000,-0.03550,0.00000,0.00208,0.00230,-0.00224,-0.04849,-0.11675,0.99412,0.30552,0.00000,0.00000,0.00000,0.00000,0.00000,0.27544,0.00000,0.00000,0.00000,0.00000,A,144207.70
0.32159,57.68810733,11.97958833,57.68810400,11.97958500,14:42:07.859698,0.00524,0.00000,0.00000,-0.03713,0.00000,0.00437,0.00444,-0.00102,-0.04740,-0.11553,0.99040,0.31578,0.00000,0.00000,0.00000,0.00000,0.00000,0.27544,0.00000,0.00000,0.00000,0.00000,A,144207.70
0.33223,57.68810733,11.97958833,57.68810400,11.97958500,14:42:07.870364,0.00512,0.00000,0.00000,-0.03882,0.00000,-0.00174,0.00062,0.00142,-0.04892,-0.11736,0.99503,0.32637,0.00000,0.00000,0.00000,0.00000,0.00000,0.27544,0.00000,0.00000,0.00000,0.00000,A,144207.70
0.34295,57.68810733,11.97958833,57.68810400,11.97958500,14:42:07.881066,0.00580,0.00000,0.00000,-0.04046,0.00000,0.00147,-0.00259,-0.00026,-0.04953,-0.11706,0.99137,0.33657,0.00000,0.00000,0.00000,0.00000,0.00000,0.27544,0.00000,0.00000,0.00000,0.00000,A,144207.70
0.35307,57.68810733,11.97958833,57.68810400,11.97958500,14:42:07.891186,0.00567,0.00000,0.00000,-0.04209,0.00000,-0.00144,-0.00060,0.00157,-0.04874,-0.11712,0.99418,0.34723,0.00000,0.00000,0.00000,0.00000,0.00000,0.27544,0.00000,0.00000,0.00000,0.00000,A,144207.70
0.36295,57.68810733,11.97958833,57.68810400,11.97958500,14:42:07.901057,0.00514,0.00000,0.00000,-0.04370,0.00000,-0.00189,0.00016,0.00127,-0.04959,-0.11663,0.99271,0.35742,0.00000,0.00000,0.00000,0.00000,0.00000,0.27544,0.00000,0.00000,0.00000,0.00000,A,144207.70
0.37358,57.68810733,11.97958833,57.68810400,11.97958500,14:42:07.911691,0.00524,0.00000,0.00000,-0.04526,0.00000,-0.00006,0.00092,-0.00026,-0.05112,-0.11584,0.99168,0.36777,0.00000,0.00000,0.00000,0.00000,0.00000,0.27544,0.00000,0.00000,0.00000,0.00000,A,144207.70
0.40945,57.68810733,11.97958833,57.68810267,11.97958550,14:42:07.947607,0.03071,0.00000,0.00000,-0.04679,0.00000,0.00086,0.00276,-0.00224,-0.05118,-0.11706,0.99595,0.37851,0.00000,0.00000,0.00000,0.00000,0.00000,0.39754,0.00000,0.00000,0.00000,0.00000,A,144207.80
0.42694,57.68810733,11.97958833,57.68810267,11.97958550,14:42:07.965059,0.00738,0.00000,0.00000,-0.04841,0.00000,-0.00174,-0.00045,0.00050,-0.04953,-0.11858,0.99277,0.42134,0.00000,0.00000,0.00000,0.00000,0.00000,0.39754,0.00000,0.00000,0.00000,0.00000,A,144207.80
0.43545,57.68810733,11.97958833,57.68810267,11.97958550,14:42:07.973561,0.00548,0.00000,0.00000,-0.04993,0.00000,-0.00449,-0.00045,0.00020,-0.05014,-0.11566,0.99113,0.42956,0.00000,0.00000,0.00000,0.00000,0.00000,0.39754,0.00000,0.00000,0.00000,0.00000,A,144207.80
0.44615,57.68810733,11.97958833,57.68810267,11.97958550,14:42:07.984263,0.00581,0.00000,0.00000,-0.05137,0.00000,0.00269,0.00245,-0.00118,-0.04740,-0.11645,0.99509,0.44014,0.00000,0.00000,0.00000,0.00000,0.00000,0.39754,0.00000,0.00000,0.00000,0.00000,A,144207.80
0.45614,57.68810733,11.97958833,57.68810267,11.97958550,14:42:07.994257,0.00544,0.00000,0.00000,-0.05280,0.00000,0.00147,0.00337,0.00112,-0.05124,-0.11639,0.99271,0.45038,0.00000,0.00000,0.00000,0.00000,0.00000,0.39754,0.00000,0.00000,0.00000,0.00000,A,144207.80
0.46625,57.68810733,11.97958833,57.68810267,11.97958550,14:42:08.004364,0.00516,0.00000,0.00000,-0.05428,0.00000,-0.00403,-0.00167,-0.00240,-0.04941,-0.11767,0.99454,0.46050,0.00000,0.00000,0.00000,0.00000,0.00000,0.39754,0.00000,0.00000,0.00000,0.00000,A,144207.80
0.47696,57.68810733,11.97958833,57.68810267,11.97958550,14:42:08.015072,0.00547,0.00000,0.00000,-0.05569,0.00000,0.00147,-0.00106,-0.00026,-0.04941,-0.11743,0.99357,0.47114,0.00000,0.00000,0.00000,0.00000,0.00000,0.39754,0.00000,0.00000,0.00000,0.00000,A,144207.80
0.48717,57.68810733,11.97958833,57.68810267,11.97958550,14:42:08.025282,0.00528,0.00000,0.00000,-0.05708,0.00000,-0.00021,0.00230,0.00066,-0.04746,-0.11675,0.99265,0.48163,0.00000,0.00000,0.00000,0.00000,0.00000,0.39754,0.00000,0.00000,0.00000,0.00000,A,144207.80
0.49759,57.68810733,11.97958833,57.68810267,11.97958550,14:42:08.035697,0.00524,0.00000,0.00000,-0.05842,0.00000,-0.00006,-0.00030,-0.00255,-0.04782,-0.11505,0.99485,0.49178,0.00000,0.00000,0.00000,0.00000,0.00000,0.39754,0.00000,0.00000,0.00000,0.00000,A,144207.80
0.54693,57.68810733,11.97958833,57.68809867,11.97958267,14:42:08.085068,0.04419,0.00000,0.00000,-0.05976,0.00000,0.00040,-0.00030,0.00096,-0.05039,-0.11706,0.99375,0.50236,0.00000,0.00000,0.00000,0.00000,0.00000,0.53488,0.00000,0.00000,0.00000,0.00000,A,144208.00
0.56150,57.68810733,11.97958833,57.68809867,11.97958267,14:42:08.099608,0.00711,0.00000,0.00000,-0.06107,0.00000,0.00009,-0.00076,0.00142,-0.05106,-0.11602,0.99277,0.55562,0.00000,0.00000,0.00000,0.00000,0.00000,0.53488,0.00000,0.00000,0.00000,0.00000,A,144208.00
0.57037,57.68810733,11.97958833,57.68809867,11.97958267,14:42:08.108487,0.00522,0.00000,0.00000,-0.06233,0.00000,0.00299,-0.00244,0.00020,-0.05094,-0.11499,0.99235,0.56462,0.00000,0.00000,0.00000,0.00000,0.00000,0.53488,0.00000,0.00000,0.00000,0.00000,A,144208.00
0.58098,57.68810733,11.97958833,57.68809867,11.97958267,14:42:08.119086,0.00543,0.00000,0.00000,-0.06358,0.00000,0.00376,-0.00014,-0.00224,-0.04880,-0.11724,0.99406,0.57517,0.00000,0.00000,0.00000,0.00000,0.00000,0.53488,0.00000,0.00000,0.00000,0.00000,A,144208.00
0.59109,57.68810733,11.97958833,57.68809867,11.97958267,14:42:08.129197,0.00514,0.00000,0.00000,-0.06485,0.00000,-0.00220,0.00367,0.00142,-0.05069,-0.11553,0.99381,0.58557,0.00000,0.00000,0.00000,0.00000,0.00000,0.53488,0.00000,0.00000,0.00000,0.00000,A,144208.00
0.60160,57.68810733,11.97958833,57.68809867,11.97958267,14:42:08.139714,0.00526,0.00000,0.00000,-0.06615,0.00000,-0.00266,-0.00137,0.00050,-0.05106,-0.11767,0.99216,0.59577,0.00000,0.00000,0.00000,0.00000,0.00000,0.53488,0.00000,0.00000,0.00000,0.00000,A,144208.00
0.61250,57.68810733,11.97958833,57.68809867,11.97958267,14:42:08.150623,0.00585,0.00000,0.00000,-0.06732,0.00000,0.00299,0.00077,-0.00011,-0.05112,-0.11511,0.99314,0.60662,0.00000,0.00000,0.00000,0.00000,0.00000,0.53488,0.00000,0.00000,0.00000,0.00000,A,144208.00
0.62351,57.68810733,11.97958833,57.68809867,11.97958267,14:42:08.161625,0.00647,0.00000,0.00000,-0.06851,0.00000,0.00086,0.00383,0.00005,-0.04910,-0.11578,0.99467,0.61793,0.00000,0.00000,0.00000,0.00000,0.00000,0.53488,0.00000,0.00000,0.00000,0.00000,A,144208.00
0.63289,57.68810733,11.97958833,57.68809867,11.97958267,14:42:08.171002,0.00545,0.00000,0.00000,-0.06971,0.00000,-0.00205,0.00230,-0.00133,-0.05020,-0.11584,0.99247,0.62708,0.00000,0.00000,0.00000,0.00000,0.00000,0.53488,0.00000,0.00000,0.00000,0.00000,A,144208.00
0.66778,57.68810733,11.97958833,57.68809583,11.97957933,14:42:08.206169,0.02993,0.00000,0.00000,-0.07085,0.00000,0.00299,0.00245,-0.00270,-0.05112,-0.11669,0.99137,0.63744,0.00000,0.00000,0.00000,0.00000,0.00000,0.65611,0.00000,0.00000,0.00000,0.00000,A,144208.10
0.68692,57.68810733,11.97958833,57.68809583,11.97957933,14:42:08.225026,0.00719,0.00000,0.00000,-0.07208,0.00000,-0.00189,-0.00182,0.00035,-0.05185,-0.11553,0.99216,0.68134,0.00000,0.00000,0.00000,0.00000,0.00000,0.65611,0.00000,0.00000,0.00000,0.00000,A,144208.10
0.69545,57.68810733,11.97958833,57.68809583,11.97957933,14:42:08.233556,0.00521,0.00000,0.00000,-0.07325,0.00000,-0.00220,0.00092,0.00325,-0.05167,-0.11773,0.99338,0.68992,0.00000,0.00000,0.00000,0.00000,0.00000,0.65611,0.00000,0.00000,0.00000,0.00000,A,144208.10
0.70587,57.68810733,11.97958833,57.68809583,11.97957933,14:42:08.243977,0.00539,0.00000,0.00000,-0.07439,0.00000,-0.00250,-0.00060,-0.00133,-0.04941,-0.11633,0.99436,0.69992,0.00000,0.00000,0.00000,0.00000,0.00000,0.65611,0.00000,0.00000,0.00000,0.00000,A,144208.10
0.71724,57.68810733,11.97958833,57.68809583,11.97957933,14:42:08.255355,0.00637,0.00000,0.00000,-0.07550,0.00000,-0.00128,0.00199,0.00188,-0.04807,-0.11608,0.99320,0.71106,0.00000,0.00000,0.00000,0.00000,0.00000,0.65611,0.00000,0.00000,0.00000,0.00000,A,144208.10
0.72645,57.68810733,11.97958833,57.68809583,11.97957933,14:42:08.264565,0.00518,0.00000,0.00000,-0.07662,0.00000,-0.00174,0.00291,-0.00194,-0.05008,-0.11749,0.99473,0.72071,0.00000,0.00000,0.00000,0.00000,0.00000,0.65611,0.00000,0.00000,0.00000,0.00000,A,144208.10
0.73737,57.68810733,11.97958833,57.68809583,11.97957933,14:42:08.275485,0.00570,0.00000,0.00000,-0.07766,0.00000,0.00376,0.00184,0.00050,-0.05057,-0.11730,0.99308,0.73129,0.00000,0.00000,0.00000,0.00000,0.00000,0.65611,0.00000,0.00000,0.00000,0.00000,A,144208.10
0.74716,57.68810733,11.97958833,57.68809583,11.97957933,14:42:08.285276,0.00523,0.00000,0.00000,-0.07870,0.00000,0.00192,0.00123,0.00127,-0.04758,-0.11657,0.99284,0.74163,0.00000,0.00000,0.00000,0.00000,0.00000,0.65611,0.00000,0.00000,0.00000,0.00000,A,144208.10
0.78299,57.68810733,11.97958833,57.68809267,11.97957500,14:42:08.321462,0.03065,0.00000,0.00000,-0.07972,0.00000,-0.00037,0.00260,-0.00224,-0.04972,-0.11486,0.99094,0.75178,0.00000,0.00000,0.00000,0.00000,0.00000,0.77150,0.00000,0.00000,0.00000,0.00000,A,144208.20
0.80418,57.68810733,11.97958833,57.68809267,11.97957500,14:42:08.342464,0.00780,0.00000,0.00000,-0.08084,0.00000,-0.00220,0.00047,0.00188,-0.04856,-0.11621,0.99259,0.79837,0.00000,0.00000,0.00000,0.00000,0.00000,0.77150,0.00000,0.00000,0.00000,0.00000,A,144208.20
0.81214,57.68810733,11.97958833,57.68809267,11.97957500,14:42:08.350261,0.00536,0.00000,0.00000,-0.08187,0.00000,-0.00220,-0.00198,0.00157,-0.05039,-0.11694,0.99247,0.80640,0.00000,0.00000,0.00000,0.00000,0.00000,0.77150,0.00000,0.00000,0.00000,0.00000,A,144208.20
0.82315,57.68810733,11.97958833,57.68809267,11.97957500,14:42:08.361266,0.00598,0.00000,0.00000,-0.08286,0.00000,-0.00113,-0.00213,0.00295,-0.04801,-0.11535,0.99290,0.81658,0.00000,0.00000,0.00000,0.00000,0.00000,0.77150,0.00000,0.00000,0.00000,0.00000,A,144208.20
0.83302,57.68810733,11.97958833,57.68809267,11.97957500,14:42:08.371134,0.00545,0.00000,0.00000,-0.08381,0.00000,0.00254,0.00184,-0.00255,-0.04984,-0.11688,0.99314,0.82721,0.00000,0.00000,0.00000,0.00000,0.00000,0.77150,0.00000,0.00000,0.00000,0.00000,A,144208.20
0.84314,57.68810733,11.97958833,57.68809267,11.97957500,14:42:08.381247,0.00515,0.00000,0.00000,-0.08476,0.00000,-0.00128,-0.00045,0.00341,-0.05130,-0.11480,0.99265,0.83761,0.00000,0.00000,0.00000,0.00000,0.00000,0.77150,0.00000,0.00000,0.00000,0.00000,A,144208.20
0.85478,57.68810733,11.97958833,57.68809267,11.97957500,14:42:08.392891,0.00643,0.00000,0.00000,-0.08573,0.00000,-0.00357,0.00123,-0.00179,-0.05069,-0.11553,0.99271,0.84878,0.00000,0.00000,0.00000,0.00000,0.00000,0.77150,0.00000,0.00000,0.00000,0.00000,A,144208.20
0.86413,57.68810733,11.97958833,57.68809267,11.97957500,14:42:08.402247,0.00538,0.00000,0.00000,-0.08667,0.00000,-0.00144,0.00551,-0.00301,-0.04972,-0.11602,0.99308,0.85838,0.00000,0.00000,0.00000,0.00000,0.00000,0.77150,0.00000,0.00000,0.00000,0.00000,A,144208.20
0.90057,57.68810733,11.97958833,57.68809100,11.97957450,14:42:08.438720,0.03143,0.00000,0.00000,-0.08759,0.00000,0.00254,0.00230,-0.00240,-0.04947,-0.11779,0.99326,0.86857,0.00000,0.00000,0.00000,0.00000,0.00000,0.88804,0.00000,0.00000,0.00000,0.00000,A,144208.30
0.91867,57.68810733,11.97958833,57.68809100,11.97957450,14:42:08.456774,0.00569,0.00000,0.00000,-0.08861,0.00000,-0.00296,0.00031,0.00066,-0.04965,-0.11535,0.99253,0.91308,0.00000,0.00000,0.00000,0.00000,0.00000,0.88804,0.00000,0.00000,0.00000,0.00000,A,144208.30
0.92898,57.68810733,11.97958833,57.68809100,11.97957450,14:42:08.467085,0.00560,0.00000,0.00000,-0.08948,0.00000,0.00162,-0.00106,-0.00026,-0.05100,-0.11657,0.99375,0.92312,0.00000,0.00000,0.00000,0.00000,0.00000,0.88804,0.00000,0.00000,0.00000,0.00000,A,144208.30
0.93986,57.68810733,11.97958833,57.68809100,11.97957450,14:42:08.478191,0.00603,0.00000,0.00000,-0.09035,0.00000,0.00223,-0.00182,0.00142,-0.04849,-0.11755,0.99442,0.93396,0.00000,0.00000,0.00000,0.00000,0.00000,0.88804,0.00000,0.00000,0.00000,0.00000,A,144208.30
0.94953,57.68810733,11.97958833,57.68809100,11.97957450,14:42:08.487642,0.00535,0.00000,0.00000,-0.09122,0.00000,-0.00144,0.00047,-0.00087,-0.04801,-0.11645,0.99582,0.94368,0.00000,0.00000,0.00000,0.00000,0.00000,0.88804,0.00000,0.00000,0.00000,0.00000,A,144208.30
0.96163,57.68810733,11.97958833,57.68809100,11.97957450,14:42:08.499744,0.00680,0.00000,0.00000,-0.09209,0.00000,-0.00235,0.00169,0.00173,-0.05039,-0.11669,0.99582,0.95469,0.00000,0.00000,0.00000,0.00000,0.00000,0.88804,0.00000,0.00000,0.00000,0.00000,A,144208.30
0.97038,57.68810733,11.97958833,57.68809100,11.97957450,14:42:08.508490,0.00516,0.00000,0.00000,-0.09290,0.00000,0.00192,-0.00228,0.00295,-0.04886,-0.11608,0.99296,0.96465,0.00000,0.00000,0.00000,0.00000,0.00000,0.88804,0.00000,0.00000,0.00000,0.00000,A,144208.30
0.98213,57.68810733,11.97958833,57.68809100,11.97957450,14:42:08.520245,0.00645,0.00000,0.00000,-0.09375,0.00000,-0.00159,-0.00167,0.00112,-0.04953,-0.11663,0.99235,0.97606,0.00000,0.00000,0.00000,0.00000,0.00000,0.88804,0.00000,0.00000,0.00000,0.00000,A,144208.30
1.02861,57.68810733,11.97958833,57.68808950,11.97957317,14:42:08.567387,0.04252,0.00000,0.00000,-0.09458,0.00000,0.00070,-0.00228,0.00295,-0.04910,-0.11816,0.99412,0.98560,0.00000,0.00000,0.00000,0.00000,0.00000,1.01676,0.00000,0.00000,0.00000,0.00000,A,144208.50
1.04951,57.68810733,11.97958833,57.68808950,11.97957317,14:42:08.587618,0.00893,0.00000,0.00000,-0.09530,0.00000,0.00131,0.00077,0.00173,-0.05136,-0.11614,0.99320,1.04309,0.00000,0.00000,0.00000,0.00000,0.00000,1.01676,0.00000,0.00000,0.00000,0.00000,A,144208.50
1.05616,57.68810733,11.97958833,57.68808950,11.97957317,14:42:08.594277,0.00537,0.00000,0.00000,-0.09611,0.00000,-0.00266,0.00092,0.00173,-0.04972,-0.11633,0.99296,1.05042,0.00000,0.00000,0.00000,0.00000,0.00000,1.01676,0.00000,0.00000,0.00000,0.00000,A,144208.50
1.06699,57.68810733,11.97958833,57.68808950,11.97957317,14:42:08.605103,0.00581,0.00000,0.00000,-0.09686,0.00000,0.00330,0.00154,0.00050,-0.04825,-0.11700,0.99326,1.06118,0.00000,0.00000,0.00000,0.00000,0.00000,1.01676,0.00000,0.00000,0.00000,0.00000,A,144208.50
1.07703,57.68810733,11.97958833,57.68808950,11.97957317,14:42:08.615134,0.00544,0.00000,0.00000,-0.09763,0.00000,0.00101,-0.00030,0.00005,-0.04734,-0.11761,0.99259,1.07121,0.00000,0.00000,0.00000,0.00000,0.00000,1.01676,0.00000,0.00000,0.00000,0.00000,A,144208.50
1.08713,57.68810733,11.97958833,57.68808950,11.97957317,14:42:08.625243,0.00514,0.00000,0.00000,-0.09838,0.00000,-0.00113,0.00154,-0.00056,-0.04917,-0.11566,0.99174,1.08161,0.00000,0.00000,0.00000,0.00000,0.00000,1.01676,0.00000,0.00000,0.00000,0.00000,A,144208.50
1.09758,57.68810733,11.97958833,57.68808950,11.97957317,14:42:08.635693,0.00523,0.00000,0.00000,-0.09915,0.00000,-0.00205,0.00092,0.00035,-0.05069,-0.11645,0.99442,1.09178,0.00000,0.00000,0.00000,0.00000,0.00000,1.01676,0.00000,0.00000,0.00000,0.00000,A,144208.50
1.10835,57.68810733,11.97958833,57.68808950,11.97957317,14:42:08.646470,0.00559,0.00000,0.00000,-0.09988,0.00000,-0.00144,0.00001,-0.00224,-0.04825,-0.11584,0.99204,1.10257,0.00000,0.00000,0.00000,0.00000,0.00000,1.01676,0.00000,0.00000,0.00000,0.00000,A,144208.50
1.14355,57.68810733,11.97958833,57.68808750,11.97957100,14:42:08.681692,0.03040,0.00000,0.00000,-0.10062,0.00000,0.00070,0.00062,-0.00133,-0.04953,-0.11822,0.99491,1.11256,0.00000,0.00000,0.00000,0.00000,0.00000,1.13157,0.00000,0.00000,0.00000,0.00000,A,144208.60
1.16468,57.68810733,11.97958833,57.68808750,11.97957100,14:42:08.702795,0.00764,0.00000,0.00000,-0.10128,0.00000,0.00116,0.00077,-0.00041,-0.04917,-0.11712,0.99387,1.15883,0.00000,0.00000,0.00000,0.00000,0.00000,1.13157,0.00000,0.00000,0.00000,0.00000,A,144208.60
1.17303,57.68810733,11.97958833,57.68808750,11.97957100,14:42:08.711141,0.00554,0.00000,0.00000,-0.10202,0.00000,-0.00510,0.00092,-0.00377,-0.04910,-0.11645,0.99460,1.16718,0.00000,0.00000,0.00000,0.00000,0.00000,1.13157,0.00000,0.00000,0.00000,0.00000,A,144208.60
1.18303,57.68810733,11.97958833,57.68808750,11.97957100,14:42:08.721133,0.00514,0.00000,0.00000,-0.10272,0.00000,-0.00082,-0.00076,0.00096,-0.05075,-0.11651,0.99046,1.17750,0.00000,0.00000,0.00000,0.00000,0.00000,1.13157,0.00000,0.00000,0.00000,0.00000,A,144208.60
1.19361,57.68810733,11.97958833,57.68808750,11.97957100,14:42:08.731720,0.00526,0.00000,0.00000,-0.10340,0.00000,0.00024,0.00352,-0.00224,-0.04740,-0.11627,0.99192,1.18778,0.00000,0.00000,0.00000,0.00000,0.00000,1.13157,0.00000,0.00000,0.00000,0.00000,A,144208.60
1.20455,57.68810733,11.97958833,57.68808750,11.97957100,14:42:08.742659,0.00581,0.00000,0.00000,-0.10402,0.00000,-0.00006,-0.00335,-0.00255,-0.05069,-0.11340,0.99308,1.19852,0.00000,0.00000,0.00000,0.00000,0.00000,1.13157,0.00000,0.00000,0.00000,0.00000,A,144208.60
1.21443,57.68810733,11.97958833,57.68808750,11.97957100,14:42:08.752536,0.00529,0.00000,0.00000,-0.10466,0.00000,0.00131,-0.00152,0.00157,-0.04874,-0.11651,0.99564,1.20867,0.00000,0.00000,0.00000,0.00000,0.00000,1.13157,0.00000,0.00000,0.00000,0.00000,A,144208.60
1.22497,57.68810733,11.97958833,57.68808750,11.97957100,14:42:08.763080,0.00544,0.00000,0.00000,-0.10533,0.00000,-0.00250,0.00260,-0.00056,-0.05112,-0.11560,0.99192,1.21916,0.00000,0.00000,0.00000,0.00000,0.00000,1.13157,0.00000,0.00000,0.00000,0.00000,A,144208.60
1.25979,57.68810733,11.97958833,57.68808333,11.97956783,14:42:08.798119,0.02984,0.00000,0.00000,-0.10596,0.00000,-0.00189,0.00123,-0.00072,-0.04825,-0.11480,0.99454,1.22955,0.00000,0.00000,0.00000,0.00000,0.00000,1.24873,0.00000,0.00000,0.00000,0.00000,A,144208.70
1.27477,57.68810733,11.97958833,57.68808333,11.97956783,14:42:08.812881,0.00761,0.00000,0.00000,-0.10678,0.00000,-0.00556,-0.00045,0.00127,-0.04697,-0.11566,0.99290,1.26814,0.00000,0.00000,0.00000,0.00000,0.00000,1.24873,0.00000,0.00000,0.00000,0.00000,A,144208.70
1.28270,57.68810733,11.97958833,57.68808333,11.97956783,14:42:08.820801,0.00514,0.00000,0.00000,-0.10737,0.00000,0.00254,0.00230,0.00005,-0.04910,-0.11602,0.99485,1.27718,0.00000,0.00000,0.00000,0.00000,0.00000,1.24873,0.00000,0.00000,0.00000,0.00000,A,144208.70
1.29341,57.68810733,11.97958833,57.68808333,11.97956783,14:42:08.831515,0.00527,0.00000,0.00000,-0.10801,0.00000,-0.00021,0.00321,-0.00194,-0.05075,-0.11816,0.99216,1.28757,0.00000,0.00000,0.00000,0.00000,0.00000,1.24873,0.00000,0.00000,0.00000,0.00000,A,144208.70
1.30417,57.68810733,11.97958833,57.68808333,11.97956783,14:42:08.842290,0.00564,0.00000,0.00000,-0.10860,0.00000,0.00009,0.00184,0.00112,-0.05136,-0.11602,0.99326,1.29817,0.00000,0.00000,0.00000,0.00000,0.00000,1.24873,0.00000,0.00000,0.00000,0.00000,A,144208.70
1.31414,57.68810733,11.97958833,57.68808333,11.97956783,14:42:08.852242,0.00537,0.00000,0.00000,-0.10924,0.00000,-0.00373,-0.00045,0.00157,-0.04807,-0.11736,0.99241,1.30834,0.00000,0.00000,0.00000,0.00000,0.00000,1.24873,0.00000,0.00000,0.00000,0.00000,A,144208.70
1.32468,57.68810733,11.97958833,57.68808333,11.97956783,14:42:08.862799,0.00546,0.00000,0.00000,-0.10985,0.00000,-0.00327,0.00169,-0.00056,-0.04843,-0.11639,0.99552,1.31888,0.00000,0.00000,0.00000,0.00000,0.00000,1.24873,0.00000,0.00000,0.00000,0.00000,A,144208.70
1.33479,57.68810733,11.97958833,57.68808333,11.97956783,14:42:08.872904,0.00517,0.00000,0.00000,-0.11037,0.00000,0.00528,0.00184,-0.00118,-0.04947,-0.11724,0.99485,1.32926,0.00000,0.00000,0.00000,0.00000,0.00000,1.24873,0.00000,0.00000,0.00000,0.00000,A,144208.70
1.34567,57.68810733,11.97958833,57.68808333,11.97956783,14:42:08.883779,0.00532,0.00000,0.00000,-0.11092,0.00000,0.00223,-0.00305,-0.00240,-0.04868,-0.11682,0.99259,1.33984,0.00000,0.00000,0.00000,0.00000,0.00000,1.24873,0.00000,0.00000,0.00000,0.00000,A,144208.70
1.38150,57.68810733,11.97958833,57.68808017,11.97956700,14:42:08.919649,0.03074,0.00000,0.00000,-0.11157,0.00000,-0.00617,0.00306,0.00249,-0.05069,-0.11858,0.99186,1.35038,0.00000,0.00000,0.00000,0.00000,0.00000,1.36968,0.00000,0.00000,0.00000,0.00000,A,144208.80
1.40023,57.68810733,11.97958833,57.68808017,11.97956700,14:42:08.938348,0.00776,0.00000,0.00000,-0.11211,0.00000,-0.00006,0.00138,0.00066,-0.04880,-0.11572,0.99332,1.39444,0.00000,0.00000,0.00000,0.00000,0.00000,1.36968,0.00000,0.00000,0.00000,0.00000,A,144208.80
1.40840,57.68810733,11.97958833,57.68808017,11.97956700,14:42:08.946511,0.00539,0.00000,0.00000,-0.11264,0.00000,0.00024,-0.00228,0.00142,-0.04917,-0.11651,0.99454,1.40265,0.00000,0.00000,0.00000,0.00000,0.00000,1.36968,0.00000,0.00000,0.00000,0.00000,A,144208.80
1.41855,57.68810733,11.97958833,57.68808017,11.97956700,14:42:08.956663,0.00515,0.00000,0.00000,-0.11315,0.00000,0.00238,-0.00030,0.00020,-0.04831,-0.11694,0.99320,1.41281,0.00000,0.00000,0.00000,0.00000,0.00000,1.36968,0.00000,0.00000,0.00000,0.00000,A,144208.80
1.42976,57.68810733,11.97958833,57.68808017,11.97956700,14:42:08.967878,0.00596,0.00000,0.00000,-0.11366,0.00000,0.00254,-0.00091,-0.00026,-0.05094,-0.11743,0.99375,1.42394,0.00000,0.00000,0.00000,0.00000,0.00000,1.36968,0.00000,0.00000,0.00000,0.00000,A,144208.80
1.44058,57.68810733,11.97958833,57.68808017,11.97956700,14:42:08.978689,0.00637,0.00000,0.00000,-0.11414,0.00000,0.00376,-0.00091,-0.00163,-0.04959,-0.11694,0.99436,1.43382,0.00000,0.00000,0.00000,0.00000,0.00000,1.36968,0.00000,0.00000,0.00000,0.00000,A,144208.80
1.44985,57.68810733,11.97958833,57.68808017,11.97956700,14:42:08.987964,0.00540,0.00000,0.00000,-0.11466,0.00000,0.00009,-0.00289,-0.00163,-0.05118,-0.11755,0.99332,1.44400,0.00000,0.00000,0.00000,0.00000,0.00000,1.36968,0.00000,0.00000,0.00000,0.00000,A,144208.80
1.46026,57.68810733,11.97958833,57.68808017,11.97956700,14:42:08.998378,0.00541,0.00000,0.00000,-0.11519,0.00000,-0.00098,-0.00152,-0.00286,-0.04837,-0.11828,0.99436,1.45447,0.00000,0.00000,0.00000,0.00000,0.00000,1.36968,0.00000,0.00000,0.00000,0.00000,A,144208.80
1.49661,57.68810733,11.97958833,57.68807767,11.97956783,14:42:09.034758,0.03136,0.00000,0.00000,-0.11568,0.00000,-0.00098,0.00184,-0.00102,-0.04904,-0.11553,0.99204,1.46549,0.00000,0.00000,0.00000,0.00000,0.00000,1.48481,0.00000,0.00000,0.00000,0.00000,A,144208.90
1.51656,57.68810733,11.97958833,57.68807767,11.97956783,14:42:09.054681,0.00717,0.00000,0.00000,-0.11621,0.00000,-0.00144,0.00001,0.00020,-0.04941,-0.11541,0.99247,1.51072,0.00000,0.00000,0.00000,0.00000,0.00000,1.48481,0.00000,0.00000,0.00000,0.00000,A,144208.90
1.52518,57.68810733,11.97958833,57.68807767,11.97956783,14:42:09.063292,0.00554,0.00000,0.00000,-0.11673,0.00000,-0.00296,-0.00060,0.00218,-0.04776,-0.11755,0.99430,1.51929,0.00000,0.00000,0.00000,0.00000,0.00000,1.48481,0.00000,0.00000,0.00000,0.00000,A,144208.90
1.53520,57.68810733,11.97958833,57.68807767,11.97956783,14:42:09.073306,0.00515,0.00000,0.00000,-0.11725,0.00000,-0.00205,-0.00121,0.00218,-0.04886,-0.11840,0.99223,1.52969,0.00000,0.00000,0.00000,0.00000,0.00000,1.48481,0.00000,0.00000,0.00000,0.00000,A,144208.90
1.54588,57.68810733,11.97958833,57.68807767,11.97956783,14:42:09.083991,0.00546,0.00000,0.00000,-0.11765,0.00000,0.00330,0.00596,-0.00163,-0.05051,-0.11499,0.99448,1.53987,0.00000,0.00000,0.00000,0.00000,0.00000,1.48481,0.00000,0.00000,0.00000,0.00000,A,144208.90
1.55623,57.68810733,11.97958833,57.68807767,11.97956783,14:42:09.094349,0.00541,0.00000,0.00000,-0.11815,0.00000,-0.00510,0.00062,-0.00179,-0.05057,-0.11608,0.99265,1.55047,0.00000,0.00000,0.00000,0.00000,0.00000,1.48481,0.00000,0.00000,0.00000,0.00000,A,144208.90
1.56730,57.68810733,11.97958833,57.68807767,11.97956783,14:42:09.105412,0.00608,0.00000,0.00000,-0.11856,0.00000,0.00269,0.00077,0.00325,-0.04819,-0.11596,0.99540,1.56063,0.00000,0.00000,0.00000,0.00000,0.00000,1.48481,0.00000,0.00000,0.00000,0.00000,A,144208.90
1.57771,57.68810733,11.97958833,57.68807767,11.97956783,14:42:09.115818,0.00608,0.00000,0.00000,-0.11905,0.00000,-0.00312,-0.00366,0.00157,-0.04746,-0.11773,0.99503,1.57123,0.00000,0.00000,0.00000,0.00000,0.00000,1.48481,0.00000,0.00000,0.00000,0.00000,A,144208.90
1.61214,57.68810733,11.97958833,57.68807533,11.97956900,14:42:09.150289,0.03011,0.00000,0.00000,-0.11949,0.00000,-0.00021,0.00276,-0.00026,-0.04996,-0.11682,0.99296,1.58160,0.00000,0.00000,0.00000,0.00000,0.00000,1.60030,0.00000,0.00000,0.00000,0.00000,A,144209.00
1.63145,57.68810733,11.97958833,57.68807533,11.97956900,14:42:09.169560,0.00573,0.00000,0.00000,-0.11987,0.00000,0.00101,-0.00045,0.00310,-0.05087,-0.11633,0.99381,1.62589,0.00000,0.00000,0.00000,0.00000,0.00000,1.60030,0.00000,0.00000,0.00000,0.00000,A,144209.00
1.64175,57.68810733,11.97958833,57.68807533,11.97956900,14:42:09.179853,0.00548,0.00000,0.00000,-0.12032,0.00000,-0.00128,0.00428,-0.00056,-0.04813,-0.11761,0.99271,1.63568,0.00000,0.00000,0.00000,0.00000,0.00000,1.60030,0.00000,0.00000,0.00000,0.00000,A,144209.00
1.65180,57.68810733,11.97958833,57.68807533,11.97956900,14:42:09.190166,0.00514,0.00000,0.00000,-0.12076,0.00000,-0.00144,0.00001,0.00203,-0.04953,-0.11773,0.99418,1.64629,0.00000,0.00000,0.00000,0.00000,0.00000,1.60030,0.00000,0.00000,0.00000,0.00000,A,144209.00
1.66238,57.68810733,11.97958833,57.68807533,11.97956900,14:42:09.200498,0.00533,0.00000,0.00000,-0.12121,0.00000,-0.00174,-0.00030,0.00264,-0.04734,-0.11816,0.99149,1.65647,0.00000,0.00000,0.00000,0.00000,0.00000,1.60030,0.00000,0.00000,0.00000,0.00000,A,144209.00
1.67429,57.68810733,11.97958833,57.68807533,11.97956900,14:42:09.212423,0.00683,0.00000,0.00000,-0.12161,0.00000,0.00101,-0.00045,-0.00011,-0.04959,-0.11675,0.99381,1.66716,0.00000,0.00000,0.00000,0.00000,0.00000,1.60030,0.00000,0.00000,0.00000,0.00000,A,144209.00
1.68357,57.68810733,11.97958833,57.68807533,11.97956900,14:42:09.221685,0.00572,0.00000,0.00000,-0.12198,0.00000,0.00192,0.00031,-0.00133,-0.04740,-0.11621,0.99223,1.67804,0.00000,0.00000,0.00000,0.00000,0.00000,1.60030,0.00000,0.00000,0.00000,0.00000,A,144209.00
1.69359,57.68810733,11.97958833,57.68807533,11.97956900,14:42:09.231699,0.00525,0.00000,0.00000,-0.12241,0.00000,-0.00357,-0.00274,0.00157,-0.04978,-0.11712,0.99216,1.68778,0.00000,0.00000,0.00000,0.00000,0.00000,1.60030,0.00000,0.00000,0.00000,0.00000,A,144209.00
1.74016,57.68810733,11.97958833,57.68807367,11.97957767,14:42:09.278296,0.04141,0.00000,0.00000,-0.12278,0.00000,0.00192,-0.00121,0.00249,-0.05039,-0.11675,0.99076,1.69837,0.00000,0.00000,0.00000,0.00000,0.00000,1.72816,0.00000,0.00000,0.00000,0.00000,A,144209.20
1.76042,57.68810733,11.97958833,57.68807367,11.97957767,14:42:09.298542,0.00820,0.00000,0.00000,-0.12321,0.00000,-0.00174,-0.00457,-0.00026,-0.04978,-0.11352,0.99204,1.75460,0.00000,0.00000,0.00000,0.00000,0.00000,1.72816,0.00000,0.00000,0.00000,0.00000,A,144209.20
1.76779,57.68810733,11.97958833,57.68807367,11.97957767,14:42:09.306174,0.00517,0.00000,0.00000,-0.12360,0.00000,0.00101,0.00108,0.00035,-0.04923,-0.11816,0.99302,1.76226,0.00000,0.00000,0.00000,0.00000,0.00000,1.72816,0.00000,0.00000,0.00000,0.00000,A,144209.20
1.77875,57.68810733,11.97958833,57.68807367,11.97957767,14:42:09.316861,0.00573,0.00000,0.00000,-0.12400,0.00000,-0.00312,0.00321,0.00234,-0.04929,-0.11657,0.99265,1.77320,0.00000,0.00000,0.00000,0.00000,0.00000,1.72816,0.00000,0.00000,0.00000,0.00000,A,144209.20
1.78887,57.68810733,11.97958833,57.68807367,11.97957767,14:42:09.326984,0.00546,0.00000,0.00000,-0.12433,0.00000,0.00040,0.00230,-0.00087,-0.04721,-0.11468,0.99192,1.78304,0.00000,0.00000,0.00000,0.00000,0.00000,1.72816,0.00000,0.00000,0.00000,0.00000,A,144209.20
1.79904,57.68810733,11.97958833,57.68807367,11.97957767,14:42:09.337148,0.00522,0.00000,0.00000,-0.12466,0.00000,0.00238,-0.00121,0.00234,-0.05039,-0.11657,0.99332,1.79349,0.00000,0.00000,0.00000,0.00000,0.00000,1.72816,0.00000,0.00000,0.00000,0.00000,A,144209.20
1.80958,57.68810733,11.97958833,57.68807367,11.97957767,14:42:09.347685,0.00528,0.00000,0.00000,-0.12502,0.00000,-0.00021,0.00276,0.00157,-0.05075,-0.11682,0.99460,1.80375,0.00000,0.00000,0.00000,0.00000,0.00000,1.72816,0.00000,0.00000,0.00000,0.00000,A,144209.20
1.82024,57.68810733,11.97958833,57.68807367,11.97957767,14:42:09.358361,0.00555,0.00000,0.00000,-0.12534,0.00000,0.00162,-0.00167,0.00066,-0.04972,-0.11645,0.99338,1.81447,0.00000,0.00000,0.00000,0.00000,0.00000,1.72816,0.00000,0.00000,0.00000,0.00000,A,144209.20
1.85614,57.68810733,11.97958833,57.68807333,11.97957933,14:42:09.394288,0.03105,0.00000,0.00000,-0.12571,0.00000,-0.00250,-0.00045,-0.00118,-0.05081,-0.11675,0.98991,1.82450,0.00000,0.00000,0.00000,0.00000,0.00000,1.84381,0.00000,0.00000,0.00000,0.00000,A,144209.30
1.87495,57.68810733,11.97958833,57.68807333,11.97957933,14:42:09.413056,0.00783,0.00000,0.00000,-0.12613,0.00000,-0.00174,0.00092,-0.00163,-0.04734,-0.11694,0.99430,1.86937,0.00000,0.00000,0.00000,0.00000,0.00000,1.84381,0.00000,0.00000,0.00000,0.00000,A,144209.30
1.88276,57.68810733,11.97958833,57.68807333,11.97957933,14:42:09.420864,0.00523,0.00000,0.00000,-0.12650,0.00000,0.00009,0.00337,-0.00056,-0.04782,-0.11968,0.99412,1.87720,0.00000,0.00000,0.00000,0.00000,0.00000,1.84381,0.00000,0.00000,0.00000,0.00000,A,144209.30
1.89336,57.68810733,11.97958833,57.68807333,11.97957933,14:42:09.431467,0.00525,0.00000,0.00000,-0.12684,0.00000,-0.00205,-0.00152,-0.00026,-0.04801,-0.11621,0.99326,1.88753,0.00000,0.00000,0.00000,0.00000,0.00000,1.84381,0.00000,0.00000,0.00000,0.00000,A,144209.30
1.90411,57.68810733,11.97958833,57.68807333,11.97957933,14:42:09.442231,0.00561,0.00000,0.00000,-0.12721,0.00000,-0.00250,0.00138,-0.00056,-0.05270,-0.11840,0.99320,1.89812,0.00000,0.00000,0.00000,0.00000,0.00000,1.84381,0.00000,0.00000,0.00000,0.00000,A,144209.30
1.91401,57.68810733,11.97958833,57.68807333,11.97957933,14:42:09.452119,0.00528,0.00000,0.00000,-0.12747,0.00000,0.00330,0.00276,0.00035,-0.04764,-0.11547,0.99271,1.90823,0.00000,0.00000,0.00000,0.00000,0.00000,1.84381,0.00000,0.00000,0.00000,0.00000,A,144209.30
1.92549,57.68810733,11.97958833,57.68807333,11.97957933,14:42:09.463744,0.00636,0.00000,0.00000,-0.12778,0.00000,-0.00037,-0.00289,-0.00133,-0.04935,-0.11627,0.99314,1.91954,0.00000,0.00000,0.00000,0.00000,0.00000,1.84381,0.00000,0.00000,0.00000,0.00000,A,144209.30
1.93468,57.68810733,11.97958833,57.68807333,11.97957933,14:42:09.472789,0.00516,0.00000,0.00000,-0.12806,0.00000,0.00040,0.00260,0.00112,-0.04868,-0.11523,0.99247,1.92913,0.00000,0.00000,0.00000,0.00000,0.00000,1.84381,0.00000,0.00000,0.00000,0.00000,A,144209.30
1.97012,57.68810733,11.97958833,57.68807300,11.97957950,14:42:09.508772,0.02988,0.00000,0.00000,-0.12837,0.00000,-0.00037,0.00001,-0.00011,-0.04795,-0.11688,0.99131,1.93971,0.00000,0.00000,0.00000,0.00000,0.00000,1.95927,0.00000,0.00000,0.00000,0.00000,A,144209.40
1.98975,57.68810733,11.97958833,57.68807300,11.97957950,14:42:09.527869,0.00797,0.00000,0.00000,-0.12878,0.00000,-0.00250,-0.00198,0.00234,-0.04660,-0.11724,0.99125,1.98222,0.00000,0.00000,0.00000,0.00000,0.00000,1.95927,0.00000,0.00000,0.00000,0.00000,A,144209.40
1.99754,57.68810733,11.97958833,57.68807300,11.97957950,14:42:09.535648,0.00538,0.00000,0.00000,-0.12904,0.00000,0.00223,0.00001,0.00112,-0.05112,-0.11584,0.99406,1.99169,0.00000,0.00000,0.00000,0.00000,0.00000,1.95927,0.00000,0.00000,0.00000,0.00000,A,144209.40
2.00812,57.68810733,11.97958833,57.68807300,11.97957950,14:42:09.546243,0.00541,0.00000,0.00000,-0.12927,0.00000,0.00391,0.00169,-0.00026,-0.04709,-0.11596,0.99186,2.00234,0.00000,0.00000,0.00000,0.00000,0.00000,1.95927,0.00000,0.00000,0.00000,0.00000,A,144209.40
2.02029,57.68810733,11.97958833,57.68807300,11.97957950,14:42:09.558443,0.00719,0.00000,0.00000,-0.12955,0.00000,0.00208,0.00001,0.00005,-0.04770,-0.11755,0.99436,2.01250,0.00000,0.00000,0.00000,0.00000,0.00000,1.95927,0.00000,0.00000,0.00000,0.00000,A,144209.40
2.02963,57.68810733,11.97958833,57.68807300,11.97957950,14:42:09.567739,0.00628,0.00000,0.00000,-0.12980,0.00000,-0.00006,-0.00152,0.00157,-0.05002,-0.11529,0.99521,2.02373,0.00000,0.00000,0.00000,0.00000,0.00000,1.95927,0.00000,0.00000,0.00000,0.00000,A,144209.40
2.03890,57.68810733,11.97958833,57.68807300,11.97957950,14:42:09.576999,0.00515,0.00000,0.00000,-0.13009,0.00000,0.00009,0.00077,-0.00102,-0.04715,-0.11761,0.99345,2.03335,0.00000,0.00000,0.00000,0.00000,0.00000,1.95927,0.00000,0.00000,0.00000,0.00000,A,144209.40
2.04957,57.68810733,11.97958833,57.68807300,11.97957950,14:42:09.587682,0.00528,0.00000,0.00000,-0.13036,0.00000,-0.00067,-0.00060,0.00234,-0.04996,-0.11639,0.99143,2.04374,0.00000,0.00000,0.00000,0.00000,0.00000,1.95927,0.00000,0.00000,0.00000,0.00000,A,144209.40
2.08446,57.68810733,11.97958833,57.68807233,11.97958050,14:42:09.622591,0.02977,0.00000,0.00000,-0.13065,0.00000,-0.00067,-0.00014,0.00081,-0.05002,-0.11773,0.99168,2.05432,0.00000,0.00000,0.00000,0.00000,0.00000,2.07349,0.00000,0.00000,0.00000,0.00000,A,144209.50
2.09711,57.68810733,11.97958833,57.68807233,11.97958050,14:42:09.635221,0.00742,0.00000,0.00000,-0.13094,0.00000,-0.00144,-0.00335,0.00020,-0.05002,-0.11486,0.99625,2.09122,0.00000,0.00000,0.00000,0.00000,0.00000,2.07349,0.00000,0.00000,0.00000,0.00000,A,144209.50
2.10564,57.68810733,11.97958833,57.68807233,11.97958050,14:42:09.643745,0.00540,0.00000,0.00000,-0.13124,0.00000,-0.00266,-0.00137,0.00112,-0.04673,-0.11816,0.99113,2.09981,0.00000,0.00000,0.00000,0.00000,0.00000,2.07349,0.00000,0.00000,0.00000,0.00000,A,144209.50
2.11617,57.68810733,11.97958833,57.68807233,11.97958050,14:42:09.654285,0.00553,0.00000,0.00000,-0.13148,0.00000,0.00284,0.00169,0.00020,-0.04825,-0.11797,0.99357,2.11041,0.00000,0.00000,0.00000,0.00000,0.00000,2.07349,0.00000,0.00000,0.00000,0.00000,A,144209.50
2.12633,57.68810733,11.97958833,57.68807233,11.97958050,14:42:09.664435,0.00523,0.00000,0.00000,-0.13170,0.00000,0.00208,-0.00030,0.00081,-0.04795,-0.11566,0.99320,2.12052,0.00000,0.00000,0.00000,0.00000,0.00000,2.07349,0.00000,0.00000,0.00000,0.00000,A,144209.50
2.13696,57.68810733,11.97958833,57.68807233,11.97958050,14:42:09.675059,0.00545,0.00000,0.00000,-0.13189,0.00000,0.00254,0.00047,0.00280,-0.05008,-0.11505,0.99345,2.13112,0.00000,0.00000,0.00000,0.00000,0.00000,2.07349,0.00000,0.00000,0.00000,0.00000,A,144209.50
2.14707,57.68810733,11.97958833,57.68807233,11.97958050,14:42:09.685177,0.00516,0.00000,0.00000,-0.13207,0.00000,0.00345,-0.00060,0.00096,-0.05008,-0.11486,0.99351,2.14151,0.00000,0.00000,0.00000,0.00000,0.00000,2.07349,0.00000,0.00000,0.00000,0.00000,A,144209.50
2.15757,57.68810733,11.97958833,57.68807233,11.97958050,14:42:09.695681,0.00523,0.00000,0.00000,-0.13230,0.00000,-0.00052,0.00062,-0.00194,-0.04776,-0.11553,0.99479,2.15177,0.00000,0.00000,0.00000,0.00000,0.00000,2.07349,0.00000,0.00000,0.00000,0.00000,A,144209.50
2.16813,57.68810733,11.97958833,57.68807233,11.97958050,14:42:09.706249,0.00539,0.00000,0.00000,-0.13253,0.00000,0.00009,-0.00488,-0.00041,-0.04874,-0.11651,0.99387,2.16237,0.00000,0.00000,0.00000,0.00000,0.00000,2.07349,0.00000,0.00000,0.00000,0.00000,A,144209.50
2.20512,57.68810733,11.97958833,57.68807183,11.97957967,14:42:09.744000,0.03199,0.00000,0.00000,-0.13278,0.00000,0.00040,0.00138,0.00050,-0.05081,-0.11779,0.98991,2.17254,0.00000,0.00000,0.00000,0.00000,0.00000,2.19259,0.00000,0.00000,0.00000,0.00000,A,144209.60
2.22505,57.68810733,11.97958833,57.68807183,11.97957967,14:42:09.763155,0.00784,0.00000,0.00000,-0.13308,0.00000,-0.00113,-0.00091,-0.00041,-0.04959,-0.11779,0.99326,2.21918,0.00000,0.00000,0.00000,0.00000,0.00000,2.19259,0.00000,0.00000,0.00000,0.00000,A,144209.60
2.23304,57.68810733,11.97958833,57.68807183,11.97957967,14:42:09.771146,0.00543,0.00000,0.00000,-0.13332,0.00000,0.00024,-0.00259,0.00005,-0.05039,-0.11749,0.99253,2.22722,0.00000,0.00000,0.00000,0.00000,0.00000,2.19259,0.00000,0.00000,0.00000,0.00000,A,144209.60
2.24336,57.68810733,11.97958833,57.68807183,11.97957967,14:42:09.781463,0.00534,0.00000,0.00000,-0.13353,0.00000,0.00147,0.00077,-0.00087,-0.04972,-0.11669,0.99143,2.23782,0.00000,0.00000,0.00000,0.00000,0.00000,2.19259,0.00000,0.00000,0.00000,0.00000,A,144209.60
2.25361,57.68810733,11.97958833,57.68807183,11.97957967,14:42:09.791713,0.00525,0.00000,0.00000,-0.13376,0.00000,0.00024,0.00092,0.00050,-0.04886,-0.11797,0.99430,2.24779,0.00000,0.00000,0.00000,0.00000,0.00000,2.19259,0.00000,0.00000,0.00000,0.00000,A,144209.60
2.26414,57.68810733,11.97958833,57.68807183,11.97957967,14:42:09.802264,0.00538,0.00000,0.00000,-0.13395,0.00000,0.00269,0.00016,-0.00056,-0.04758,-0.11700,0.99381,2.25837,0.00000,0.00000,0.00000,0.00000,0.00000,2.19259,0.00000,0.00000,0.00000,0.00000,A,144209.60
2.27438,57.68810733,11.97958833,57.68807183,11.97957967,14:42:09.812494,0.00522,0.00000,0.00000,-0.13414,0.00000,-0.00113,-0.00030,0.00005,-0.04813,-0.11474,0.99625,2.26857,0.00000,0.00000,0.00000,0.00000,0.00000,2.19259,0.00000,0.00000,0.00000,0.00000,A,144209.60
2.28501,57.68810733,11.97958833,57.68807183,11.97957967,14:42:09.823120,0.00544,0.00000,0.00000,-0.13433,0.00000,0.00177,0.00169,-0.00163,-0.04880,-0.11669,0.99186,2.27919,0.00000,0.00000,0.00000,0.00000,0.00000,2.19259,0.00000,0.00000,0.00000,0.00000,A,144209.60
2.33126,57.68810733,11.97958833,57.68807233,11.97958183,14:42:09.870284,0.04128,0.00000,0.00000,-0.13452,0.00000,0.00055,-0.00182,0.00234,-0.04837,-0.11596,0.99509,2.28991,0.00000,0.00000,0.00000,0.00000,0.00000,2.31957,0.00000,0.00000,0.00000,0.00000,A,144209.80
2.35031,57.68810733,11.97958833,57.68807233,11.97958183,14:42:09.888423,0.00821,0.00000,0.00000,-0.13447,0.00000,0.00437,-0.00152,-0.00102,-0.04825,-0.11572,0.99436,2.34450,0.00000,0.00000,0.00000,0.00000,0.00000,2.31957,0.00000,0.00000,0.00000,0.00000,A,144209.80
2.35817,57.68810733,11.97958833,57.68807233,11.97958183,14:42:09.896279,0.00581,0.00000,0.00000,-0.13469,0.00000,-0.00250,0.00047,0.00112,-0.04886,-0.11627,0.99235,2.35236,0.00000,0.00000,0.00000,0.00000,0.00000,2.31957,0.00000,0.00000,0.00000,0.00000,A,144209.80
2.36816,57.68810733,11.97958833,57.68807233,11.97958183,14:42:09.906276,0.00540,0.00000,0.00000,-0.13490,0.00000,-0.00037,0.00092,0.00264,-0.04727,-0.11700,0.99253,2.36240,0.00000,0.00000,0.00000,0.00000,0.00000,2.31957,0.00000,0.00000,0.00000,0.00000,A,144209.80
2.37864,57.68810733,11.97958833,57.68807233,11.97958183,14:42:09.916748,0.00547,0.00000,0.00000,-0.13509,0.00000,-0.00037,0.00321,-0.00087,-0.05124,-0.11566,0.99271,2.37258,0.00000,0.00000,0.00000,0.00000,0.00000,2.31957,0.00000,0.00000,0.00000,0.00000,A,144209.80
2.38963,57.68810733,11.97958833,57.68807233,11.97958183,14:42:09.927743,0.00607,0.00000,0.00000,-0.13530,0.00000,-0.00281,-0.00198,-0.00102,-0.04941,-0.11608,0.99576,2.38318,0.00000,0.00000,0.00000,0.00000,0.00000,2.31957,0.00000,0.00000,0.00000,0.00000,A,144209.80
2.39972,57.68810733,11.97958833,57.68807233,11.97958183,14:42:09.938057,0.00575,0.00000,0.00000,-0.13546,0.00000,0.00162,0.00291,-0.00270,-0.04685,-0.11596,0.99247,2.39416,0.00000,0.00000,0.00000,0.00000,0.00000,2.31957,0.00000,0.00000,0.00000,0.00000,A,144209.80
2.40960,57.68810733,11.97958833,57.68807233,11.97958183,14:42:09.947707,0.00525,0.00000,0.00000,-0.13564,0.00000,0.00040,-0.00091,-0.00072,-0.04770,-0.11553,0.99137,2.40378,0.00000,0.00000,0.00000,0.00000,0.00000,2.31957,0.00000,0.00000,0.00000,0.00000,A,144209.80
2.42012,57.68810733,11.97958833,57.68807233,11.97958183,14:42:09.958244,0.00538,0.00000,0.00000,-0.13584,0.00000,-0.00388,-0.00091,0.00005,-0.04904,-0.11541,0.99399,2.41437,0.00000,0.00000,0.00000,0.00000,0.00000,2.31957,0.00000,0.00000,0.00000,0.00000,A,144209.80
2.45678,57.68810733,11.97958833,57.68807050,11.97958000,14:42:09.994919,0.03165,0.00000,0.00000,-0.13602,0.00000,0.00086,0.00077,0.00234,-0.05020,-0.11700,0.99418,2.42455,0.00000,0.00000,0.00000,0.00000,0.00000,2.44420,0.00000,0.00000,0.00000,0.00000,A,144209.90
2.47795,57.68810733,11.97958833,57.68807050,11.97958000,14:42:10.016058,0.00885,0.00000,0.00000,-0.13623,0.00000,-0.00052,0.00199,-0.00011,-0.04758,-0.11736,0.99625,2.47209,0.00000,0.00000,0.00000,0.00000,0.00000,2.44420,0.00000,0.00000,0.00000,0.00000,A,144209.90
2.48478,57.68810733,11.97958833,57.68807050,11.97958000,14:42:10.022880,0.00546,0.00000,0.00000,-0.13638,0.00000,0.00162,0.00474,0.00127,-0.04837,-0.11523,0.99302,2.47896,0.00000,0.00000,0.00000,0.00000,0.00000,2.44420,0.00000,0.00000,0.00000,0.00000,A,144209.90
2.49546,57.68810733,11.97958833,57.68807050,11.97958000,14:42:10.033566,0.00574,0.00000,0.00000,-0.13656,0.00000,0.00055,-0.00121,-0.00087,-0.04770,-0.11749,0.99204,2.48990,0.00000,0.00000,0.00000,0.00000,0.00000,2.44420,0.00000,0.00000,0.00000,0.00000,A,144209.90
2.50553,57.68810733,11.97958833,57.68807050,11.97958000,14:42:10.043645,0.00527,0.00000,0.00000,-0.13673,0.00000,0.00223,0.00199,0.00142,-0.04978,-0.11767,0.99418,2.49970,0.00000,0.00000,0.00000,0.00000,0.00000,2.44420,0.00000,0.00000,0.00000,0.00000,A,144209.90
2.51649,57.68810733,11.97958833,57.68807050,11.97958000,14:42:10.054603,0.00562,0.00000,0.00000,-0.13693,0.00000,-0.00266,-0.00030,0.00050,-0.04734,-0.11663,0.99137,2.51049,0.00000,0.00000,0.00000,0.00000,0.00000,2.44420,0.00000,0.00000,0.00000,0.00000,A,144209.90
2.52654,57.68810733,11.97958833,57.68807050,11.97958000,14:42:10.064653,0.00527,0.00000,0.00000,-0.13714,0.00000,-0.00388,0.00062,0.00341,-0.04996,-0.11749,0.99473,2.52066,0.00000,0.00000,0.00000,0.00000,0.00000,2.44420,0.00000,0.00000,0.00000,0.00000,A,144209.90
2.53735,57.68810733,11.97958833,57.68807050,11.97958000,14:42:10.075458,0.00562,0.00000,0.00000,-0.13731,0.00000,-0.00205,-0.00121,-0.00011,-0.04825,-0.11560,0.99290,2.53149,0.00000,0.00000,0.00000,0.00000,0.00000,2.44420,0.00000,0.00000,0.00000,0.00000,A,144209.90
2.57318,57.68810733,11.97958833,57.68806867,11.97957817,14:42:10.111315,0.03123,0.00000,0.00000,-0.13747,0.00000,-0.00098,0.00031,0.00096,-0.04965,-0.11560,0.99363,2.54161,0.00000,0.00000,0.00000,0.00000,0.00000,2.56063,0.00000,0.00000,0.00000,0.00000,A,144210.00
2.58939,57.68810733,11.97958833,57.68806867,11.97957817,14:42:10.127503,0.00711,0.00000,0.00000,-0.13767,0.00000,-0.00098,-0.00014,0.00020,-0.04862,-0.11663,0.99314,2.58351,0.00000,0.00000,0.00000,0.00000,0.00000,2.56063,0.00000,0.00000,0.00000,0.00000,A,144210.00
2.59828,57.68810733,11.97958833,57.68806867,11.97957817,14:42:10.136389,0.00576,0.00000,0.00000,-0.13783,0.00000,0.00101,0.00123,-0.00072,-0.04843,-0.11804,0.99479,2.59249,0.00000,0.00000,0.00000,0.00000,0.00000,2.56063,0.00000,0.00000,0.00000,0.00000,A,144210.00
2.60841,57.68810733,11.97958833,57.68806867,11.97957817,14:42:10.146526,0.00564,0.00000,0.00000,-0.13799,0.00000,0.00162,-0.00014,-0.00056,-0.04721,-0.11791,0.99345,2.60263,0.00000,0.00000,0.00000,0.00000,0.00000,2.56063,0.00000,0.00000,0.00000,0.00000,A,144210.00
2.61841,57.68810733,11.97958833,57.68806867,11.97957817,14:42:10.156512,0.00523,0.00000,0.00000,-0.13813,0.00000,-0.00189,0.00352,0.00035,-0.04990,-0.11523,0.99723,2.61258,0.00000,0.00000,0.00000,0.00000,0.00000,2.56063,0.00000,0.00000,0.00000,0.00000,A,144210.00
2.62900,57.68810733,11.97958833,57.68806867,11.97957817,14:42:10.167108,0.00543,0.00000,0.00000,-0.13827,0.00000,-0.00144,-0.00213,0.00081,-0.05130,-0.11541,0.99284,2.62319,0.00000,0.00000,0.00000,0.00000,0.00000,2.56063,0.00000,0.00000,0.00000,0.00000,A,144210.00
2.64019,57.68810733,11.97958833,57.68806867,11.97957817,14:42:10.178312,0.00623,0.00000,0.00000,-0.13846,0.00000,-0.00189,-0.00121,0.00020,-0.04752,-0.11804,0.99460,2.63437,0.00000,0.00000,0.00000,0.00000,0.00000,2.56063,0.00000,0.00000,0.00000,0.00000,A,144210.00
2.64964,57.68810733,11.97958833,57.68806867,11.97957817,14:42:10.187743,0.00529,0.00000,0.00000,-0.13866,0.00000,-0.00235,-0.00182,-0.00133,-0.04837,-0.11877,0.99271,2.64378,0.00000,0.00000,0.00000,0.00000,0.00000,2.56063,0.00000,0.00000,0.00000,0.00000,A,144210.00
2.66013,57.68810733,11.97958833,57.68806867,11.97957817,14:42:10.198256,0.00539,0.00000,0.00000,-0.13879,0.00000,0.00116,-0.00091,-0.00087,-0.04978,-0.11724,0.99424,2.65436,0.00000,0.00000,0.00000,0.00000,0.00000,2.56063,0.00000,0.00000,0.00000,0.00000,A,144210.00
2.69656,57.68810733,11.97958833,57.68806667,11.97957600,14:42:10.234960,0.03141,0.00000,0.00000,-0.13893,0.00000,-0.00052,-0.00091,0.00188,-0.04636,-0.11614,0.99198,2.66455,0.00000,0.00000,0.00000,0.00000,0.00000,2.68370,0.00000,0.00000,0.00000,0.00000,A,144210.10
2.70925,57.68810733,11.97958833,57.68806667,11.97957600,14:42:10.247385,0.00751,0.00000,0.00000,-0.13904,0.00000,0.00086,0.00016,-0.00133,-0.04886,-0.11645,0.99338,2.70195,0.00000,0.00000,0.00000,0.00000,0.00000,2.68370,0.00000,0.00000,0.00000,0.00000,A,144210.10
2.71766,57.68810733,11.97958833,57.68806667,11.97957600,14:42:10.255768,0.00528,0.00000,0.00000,-0.13921,0.00000,-0.00632,-0.00076,0.00005,-0.04898,-0.11468,0.99168,2.71183,0.00000,0.00000,0.00000,0.00000,0.00000,2.68370,0.00000,0.00000,0.00000,0.00000,A,144210.10
2.72816,57.68810733,11.97958833,57.68806667,11.97957600,14:42:10.266285,0.00538,0.00000,0.00000,-0.13934,0.00000,-0.00067,0.00199,-0.00026,-0.04904,-0.11596,0.99302,2.72240,0.00000,0.00000,0.00000,0.00000,0.00000,2.68370,0.00000,0.00000,0.00000,0.00000,A,144210.10
2.73833,57.68810733,11.97958833,57.68806667,11.97957600,14:42:10.276436,0.00515,0.00000,0.00000,-0.13948,0.00000,-0.00159,0.00031,-0.00011,-0.04917,-0.11627,0.99186,2.73259,0.00000,0.00000,0.00000,0.00000,0.00000,2.68370,0.00000,0.00000,0.00000,0.00000,A,144210.10
2.74919,57.68810733,11.97958833,57.68806667,11.97957600,14:42:10.287296,0.00560,0.00000,0.00000,-0.13963,0.00000,-0.00235,0.00047,0.00127,-0.04819,-0.11675,0.99381,2.74334,0.00000,0.00000,0.00000,0.00000,0.00000,2.68370,0.00000,0.00000,0.00000,0.00000,A,144210.10
2.76022,57.68810733,11.97958833,57.68806667,11.97957600,14:42:10.298341,0.00623,0.00000,0.00000,-0.13978,0.00000,-0.00037,-0.00030,0.00050,-0.04721,-0.11791,0.99210,2.75359,0.00000,0.00000,0.00000,0.00000,0.00000,2.68370,0.00000,0.00000,0.00000,0.00000,A,144210.10
2.76961,57.68810733,11.97958833,57.68806667,11.97957600,14:42:10.307716,0.00526,0.00000,0.00000,-0.13988,0.00000,0.00086,-0.00030,-0.00011,-0.05020,-0.11553,0.99277,2.76378,0.00000,0.00000,0.00000,0.00000,0.00000,2.68370,0.00000,0.00000,0.00000,0.00000,A,144210.10
2.78013,57.68810733,11.97958833,57.68806667,11.97957600,14:42:10.318255,0.00538,0.00000,0.00000,-0.13998,0.00000,0.00269,0.00169,-0.00286,-0.04813,-0.11682,0.99479,2.77437,0.00000,0.00000,0.00000,0.00000,0.00000,2.68370,0.00000,0.00000,0.00000,0.00000,A,144210.10
2.81645,57.68810733,11.97958833,57.68806517,11.97957750,14:42:10.354593,0.03129,0.00000,0.00000,-0.14012,0.00000,-0.00403,-0.00106,-0.00163,-0.04984,-0.11517,0.99412,2.78457,0.00000,0.00000,0.00000,0.00000,0.00000,2.80437,0.00000,0.00000,0.00000,0.00000,A,144210.20
2.83467,57.68810733,11.97958833,57.68806517,11.97957750,14:42:10.372776,0.00785,0.00000,0.00000,-0.14034,0.00000,-0.00266,0.00047,-0.00056,-0.05155,-0.11553,0.99198,2.82907,0.00000,0.00000,0.00000,0.00000,0.00000,2.80437,0.00000,0.00000,0.00000,0.00000,A,144210.20
2.84265,57.68810733,11.97958833,57.68806517,11.97957750,14:42:10.380768,0.00542,0.00000,0.00000,-0.14049,0.00000,-0.00480,0.00138,0.00310,-0.05008,-0.11621,0.99162,2.83663,0.00000,0.00000,0.00000,0.00000,0.00000,2.80437,0.00000,0.00000,0.00000,0.00000,A,144210.20
2.85307,57.68810733,11.97958833,57.68806517,11.97957750,14:42:10.391175,0.00544,0.00000,0.00000,-0.14061,0.00000,-0.00052,0.00138,-0.00072,-0.04910,-0.11724,0.99296,2.84725,0.00000,0.00000,0.00000,0.00000,0.00000,2.80437,0.00000,0.00000,0.00000,0.00000,A,144210.20
2.86314,57.68810733,11.97958833,57.68806517,11.97957750,14:42:10.401244,0.00510,0.00000,0.00000,-0.14077,0.00000,-0.00510,0.00337,0.00035,-0.04856,-0.11590,0.99241,2.85761,0.00000,0.00000,0.00000,0.00000,0.00000,2.80437,0.00000,0.00000,0.00000,0.00000,A,144210.20
2.87359,57.68810733,11.97958833,57.68806517,11.97957750,14:42:10.411698,0.00524,0.00000,0.00000,-0.14086,0.00000,0.00131,-0.00152,-0.00240,-0.04685,-0.11639,0.99564,2.86778,0.00000,0.00000,0.00000,0.00000,0.00000,2.80437,0.00000,0.00000,0.00000,0.00000,A,144210.20
2.88563,57.68810733,11.97958833,57.68806517,11.97957750,14:42:10.423738,0.00704,0.00000,0.00000,-0.14097,0.00000,-0.00082,0.00062,0.00264,-0.05002,-0.11639,0.99302,2.87974,0.00000,0.00000,0.00000,0.00000,0.00000,2.80437,0.00000,0.00000,0.00000,0.00000,A,144210.20
2.89419,57.68810733,11.97958833,57.68806517,11.97957750,14:42:10.432299,0.00520,0.00000,0.00000,-0.14109,0.00000,0.00070,0.00031,-0.00255,-0.04904,-0.11810,0.99247,2.88839,0.00000,0.00000,0.00000,0.00000,0.00000,2.80437,0.00000,0.00000,0.00000,0.00000,A,144210.20
2.94345,57.68810733,11.97958833,57.68806483,11.97958233,14:42:10.481600,0.04406,0.00000,0.00000,-0.14117,0.00000,0.00177,-0.00350,-0.00194,-0.05087,-0.11621,0.99180,2.89964,0.00000,0.00000,0.00000,0.00000,0.00000,2.92987,0.00000,0.00000,0.00000,0.00000,A,144210.40
2.96316,57.68810733,11.97958833,57.68806483,11.97958233,14:42:10.501261,0.00676,0.00000,0.00000,-0.14118,0.00000,0.00162,0.00337,-0.00133,-0.04953,-0.11590,0.99155,2.95758,0.00000,0.00000,0.00000,0.00000,0.00000,2.92987,0.00000,0.00000,0.00000,0.00000,A,144210.40
2.97220,57.68810733,11.97958833,57.68806483,11.97958233,14:42:10.510326,0.00540,0.00000,0.00000,-0.14124,0.00000,0.00177,-0.00305,0.00203,-0.05026,-0.11468,0.99284,2.96643,0.00000,0.00000,0.00000,0.00000,0.00000,2.92987,0.00000,0.00000,0.00000,0.00000,A,144210.40
2.98236,57.68810733,11.97958833,57.68806483,11.97958233,14:42:10.520466,0.00516,0.00000,0.00000,-0.14135,0.00000,-0.00357,0.00215,-0.00194,-0.04819,-0.11547,0.99436,2.97660,0.00000,0.00000,0.00000,0.00000,0.00000,2.92987,0.00000,0.00000,0.00000,0.00000,A,144210.40
2.99317,57.68810733,11.97958833,57.68806483,11.97958233,14:42:10.531284,0.00558,0.00000,0.00000,-0.14141,0.00000,0.00284,0.00001,-0.00087,-0.05002,-0.11584,0.99528,2.98720,0.00000,0.00000,0.00000,0.00000,0.00000,2.92987,0.00000,0.00000,0.00000,0.00000,A,144210.40
3.00470,57.68810733,11.97958833,57.68806483,11.97958233,14:42:10.542845,0.00671,0.00000,0.00000,-0.14155,0.00000,-0.00327,-0.00137,0.00020,-0.04898,-0.11724,0.99631,2.99760,0.00000,0.00000,0.00000,0.00000,0.00000,2.92987,0.00000,0.00000,0.00000,0.00000,A,144210.40
3.01431,57.68810733,11.97958833,57.68806483,11.97958233,14:42:10.552420,0.00596,0.00000,0.00000,-0.14166,0.00000,-0.00205,0.00138,0.00112,-0.05033,-0.11657,0.99491,3.00842,0.00000,0.00000,0.00000,0.00000,0.00000,2.92987,0.00000,0.00000,0.00000,0.00000,A,144210.40
3.02414,57.68810733,11.97958833,57.68806483,11.97958233,14:42:10.562258,0.00539,0.00000,0.00000,-0.14181,0.00000,-0.00541,0.00001,-0.00163,-0.05002,-0.11682,0.99558,3.01837,0.00000,0.00000,0.00000,0.00000,0.00000,2.92987,0.00000,0.00000,0.00000,0.00000,A,144210.40
3.06068,57.68810733,11.97958833,57.68806467,11.97958467,14:42:10.598816,0.03153,0.00000,0.00000,-0.14187,0.00000,0.00315,0.00260,0.00035,-0.05087,-0.11614,0.99168,3.02854,0.00000,0.00000,0.00000,0.00000,0.00000,3.04814,0.00000,0.00000,0.00000,0.00000,A,144210.50
3.07985,57.68810733,11.97958833,57.68806467,11.97958467,14:42:10.618203,0.00755,0.00000,0.00000,-0.14200,0.00000,-0.00098,0.00230,-0.00102,-0.05203,-0.11657,0.99332,3.07426,0.00000,0.00000,0.00000,0.00000,0.00000,3.04814,0.00000,0.00000,0.00000,0.00000,A,144210.50
3.08787,57.68810733,11.97958833,57.68806467,11.97958467,14:42:10.626227,0.00517,0.00000,0.00000,-0.14209,0.00000,-0.00266,0.00062,0.00096,-0.04788,-0.11499,0.99491,3.08233,0.00000,0.00000,0.00000,0.00000,0.00000,3.04814,0.00000,0.00000,0.00000,0.00000,A,144210.50
3.09826,57.68810733,11.97958833,57.68806467,11.97958467,14:42:10.636372,0.00517,0.00000,0.00000,-0.14218,0.00000,-0.00174,0.00016,-0.00194,-0.04837,-0.11553,0.99345,3.09249,0.00000,0.00000,0.00000,0.00000,0.00000,3.04814,0.00000,0.00000,0.00000,0.00000,A,144210.50
3.10972,57.68810733,11.97958833,57.68806467,11.97958467,14:42:10.647831,0.00608,0.00000,0.00000,-0.14232,0.00000,-0.00388,0.00108,-0.00194,-0.04831,-0.11712,0.99082,3.10387,0.00000,0.00000,0.00000,0.00000,0.00000,3.04814,0.00000,0.00000,0.00000,0.00000,A,144210.50
3.11915,57.68810733,11.97958833,57.68806467,11.97958467,14:42:10.657254,0.00511,0.00000,0.00000,-0.14243,0.00000,-0.00220,-0.00152,0.00218,-0.05081,-0.11645,0.99174,3.11361,0.00000,0.00000,0.00000,0.00000,0.00000,3.04814,0.00000,0.00000,0.00000,0.00000,A,144210.50
3.12958,57.68810733,11.97958833,57.68806467,11.97958467,14:42:10.667691,0.00523,0.00000,0.00000,-0.14254,0.00000,-0.00327,0.00031,0.00173,-0.04849,-0.11639,0.99253,3.12377,0.00000,0.00000,0.00000,0.00000,0.00000,3.04814,0.00000,0.00000,0.00000,0.00000,A,144210.50
3.14013,57.68810733,11.97958833,57.68806467,11.97958467,14:42:10.678256,0.00538,0.00000,0.00000,-0.14261,0.00000,0.00208,0.00535,0.00035,-0.05033,-0.11730,0.99497,3.13438,0.00000,0.00000,0.00000,0.00000,0.00000,3.04814,0.00000,0.00000,0.00000,0.00000,A,144210.50
3.17754,57.68810733,11.97958833,57.68806450,11.97958767,14:42:10.715926,0.03238,0.00000,0.00000,-0.14269,0.00000,0.00040,-0.00137,0.00035,-0.05026,-0.11688,0.99180,3.14457,0.00000,0.00000,0.00000,0.00000,0.00000,3.16379,0.00000,0.00000,0.00000,0.00000,A,144210.60
3.19798,57.68810733,11.97958833,57.68806450,11.97958767,14:42:10.736085,0.00847,0.00000,0.00000,-0.14282,0.00000,-0.00113,-0.00244,0.00218,-0.04886,-0.11651,0.99265,3.19210,0.00000,0.00000,0.00000,0.00000,0.00000,3.16379,0.00000,0.00000,0.00000,0.00000,A,144210.60
3.20555,57.68810733,11.97958833,57.68806450,11.97958767,14:42:10.743658,0.00548,0.00000,0.00000,-0.14292,0.00000,-0.00098,0.00383,-0.00240,-0.04929,-0.11694,0.99277,3.19951,0.00000,0.00000,0.00000,0.00000,0.00000,3.16379,0.00000,0.00000,0.00000,0.00000,A,144210.60
3.21679,57.68810733,11.97958833,57.68806450,11.97958767,14:42:10.754901,0.00632,0.00000,0.00000,-0.14299,0.00000,-0.00082,-0.00152,0.00050,-0.04904,-0.11614,0.99277,3.21026,0.00000,0.00000,0.00000,0.00000,0.00000,3.16379,0.00000,0.00000,0.00000,0.00000,A,144210.60
3.22596,57.68810733,11.97958833,57.68806450,11.97958767,14:42:10.764071,0.00526,0.00000,0.00000,-0.14304,0.00000,0.00086,0.00398,-0.00026,-0.04849,-0.11560,0.99485,3.22016,0.00000,0.00000,0.00000,0.00000,0.00000,3.16379,0.00000,0.00000,0.00000,0.00000,A,144210.60
3.23655,57.68810733,11.97958833,57.68806450,11.97958767,14:42:10.774657,0.00544,0.00000,0.00000,-0.14315,0.00000,-0.00159,0.00276,-0.00286,-0.04923,-0.11773,0.99399,3.23074,0.00000,0.00000,0.00000,0.00000,0.00000,3.16379,0.00000,0.00000,0.00000,0.00000,A,144210.60
3.24683,57.68810733,11.97958833,57.68806450,11.97958767,14:42:10.784941,0.00534,0.00000,0.00000,-0.14322,0.00000,-0.00067,0.00047,0.00142,-0.05094,-0.11621,0.99326,3.24126,0.00000,0.00000,0.00000,0.00000,0.00000,3.16379,0.00000,0.00000,0.00000,0.00000,A,144210.60
3.25770,57.68810733,11.97958833,57.68806450,11.97958767,14:42:10.795826,0.00562,0.00000,0.00000,-0.14330,0.00000,0.00269,0.00047,-0.00056,-0.04972,-0.11901,0.99454,3.25151,0.00000,0.00000,0.00000,0.00000,0.00000,3.16379,0.00000,0.00000,0.00000,0.00000,A,144210.60
3.29393,57.68810733,11.97958833,57.68806417,11.97959067,14:42:10.832065,0.03145,0.00000,0.00000,-0.14337,0.00000,-0.00006,-0.00076,0.00081,-0.04880,-0.11614,0.99381,3.26212,0.00000,0.00000,0.00000,0.00000,0.00000,3.28147,0.00000,0.00000,0.00000,0.00000,A,144210.70
3.31345,57.68810733,11.97958833,57.68806417,11.97959067,14:42:10.851562,0.00874,0.00000,0.00000,-0.14347,0.00000,-0.00098,-0.00244,-0.00041,-0.04935,-0.11566,0.99235,3.30728,0.00000,0.00000,0.00000,0.00000,0.00000,3.28147,0.00000,0.00000,0.00000,0.00000,A,144210.70
3.32123,57.68810733,11.97958833,57.68806417,11.97959067,14:42:10.859340,0.00612,0.00000,0.00000,-0.14357,0.00000,-0.00754,-0.00213,0.00524,-0.04941,-0.11505,0.99119,3.31535,0.00000,0.00000,0.00000,0.00000,0.00000,3.28147,0.00000,0.00000,0.00000,0.00000,A,144210.70
3.33065,57.68810733,11.97958833,57.68806417,11.97959067,14:42:10.868757,0.00514,0.00000,0.00000,-0.14364,0.00000,-0.00174,0.00215,-0.00072,-0.04788,-0.11499,0.99149,3.32511,0.00000,0.00000,0.00000,0.00000,0.00000,3.28147,0.00000,0.00000,0.00000,0.00000,A,144210.70
3.34133,57.68810733,11.97958833,57.68806417,11.97959067,14:42:10.879440,0.00525,0.00000,0.00000,-0.14373,0.00000,-0.00006,-0.00198,-0.00270,-0.05039,-0.11804,0.99229,3.33550,0.00000,0.00000,0.00000,0.00000,0.00000,3.28147,0.00000,0.00000,0.00000,0.00000,A,144210.70
3.35167,57.68810733,11.97958833,57.68806417,11.97959067,14:42:10.889773,0.00518,0.00000,0.00000,-0.14372,0.00000,0.00620,0.00215,-0.00148,-0.05002,-0.11602,0.99235,3.34613,0.00000,0.00000,0.00000,0.00000,0.00000,3.28147,0.00000,0.00000,0.00000,0.00000,A,144210.70
3.36200,57.68810733,11.97958833,57.68806417,11.97959067,14:42:10.900106,0.00528,0.00000,0.00000,-0.14375,0.00000,0.00299,-0.00060,-0.00072,-0.05209,-0.11651,0.99576,3.35619,0.00000,0.00000,0.00000,0.00000,0.00000,3.28147,0.00000,0.00000,0.00000,0.00000,A,144210.70
3.37254,57.68810733,11.97958833,57.68806417,11.97959067,14:42:10.910654,0.00542,0.00000,0.00000,-0.14380,0.00000,0.00147,0.00260,-0.00026,-0.04703,-0.11700,0.99387,3.36675,0.00000,0.00000,0.00000,0.00000,0.00000,3.28147,0.00000,0.00000,0.00000,0.00000,A,144210.70
3.40825,57.68810733,11.97958833,57.68806383,11.97959367,14:42:10.946393,0.03061,0.00000,0.00000,-0.14384,0.00000,-0.00098,0.00062,-0.00377,-0.05069,-0.11468,0.99692,3.37727,0.00000,0.00000,0.00000,0.00000,0.00000,3.39536,0.00000,0.00000,0.00000,0.00000,A,144210.80
3.42504,57.68810733,11.97958833,57.68806383,11.97959367,14:42:10.963152,0.00775,0.00000,0.00000,-0.14396,0.00000,-0.00189,0.00321,-0.00209,-0.04673,-0.11553,0.99540,3.41831,0.00000,0.00000,0.00000,0.00000,0.00000,3.39536,0.00000,0.00000,0.00000,0.00000,A,144210.80
3.43314,57.68810733,11.97958833,57.68806383,11.97959367,14:42:10.971249,0.00544,0.00000,0.00000,-0.14404,0.00000,-0.00205,-0.00289,-0.00392,-0.04892,-0.11706,0.99302,3.42730,0.00000,0.00000,0.00000,0.00000,0.00000,3.39536,0.00000,0.00000,0.00000,0.00000,A,144210.80
3.44312,57.68810733,11.97958833,57.68806383,11.97959367,14:42:10.981225,0.00502,0.00000,0.00000,-0.14413,0.00000,-0.00449,-0.00045,0.00295,-0.04984,-0.11553,0.99412,3.43760,0.00000,0.00000,0.00000,0.00000,0.00000,3.39536,0.00000,0.00000,0.00000,0.00000,A,144210.80
3.45382,57.68810733,11.97958833,57.68806383,11.97959367,14:42:10.991930,0.00527,0.00000,0.00000,-0.14421,0.00000,0.00147,-0.00106,-0.00072,-0.04795,-0.11877,0.99326,3.44800,0.00000,0.00000,0.00000,0.00000,0.00000,3.39536,0.00000,0.00000,0.00000,0.00000,A,144210.80
3.46444,57.68810733,11.97958833,57.68806383,11.97959367,14:42:11.002559,0.00549,0.00000,0.00000,-0.14426,0.00000,-0.00006,-0.00060,-0.00194,-0.04782,-0.11627,0.99265,3.45866,0.00000,0.00000,0.00000,0.00000,0.00000,3.39536,0.00000,0.00000,0.00000,0.00000,A,144210.80
3.47469,57.68810733,11.97958833,57.68806383,11.97959367,14:42:11.012795,0.00529,0.00000,0.00000,-0.14430,0.00000,0.00162,0.00474,-0.00179,-0.04746,-0.11633,0.99131,3.46912,0.00000,0.00000,0.00000,0.00000,0.00000,3.39536,0.00000,0.00000,0.00000,0.00000,A,144210.80
3.48524,57.68810733,11.97958833,57.68806383,11.97959367,14:42:11.023345,0.00544,0.00000,0.00000,-0.14438,0.00000,-0.00464,0.00016,0.00020,-0.04795,-0.11517,0.99247,3.47939,0.00000,0.00000,0.00000,0.00000,0.00000,3.39536,0.00000,0.00000,0.00000,0.00000,A,144210.80
3.49535,57.68810733,11.97958833,57.68806383,11.97959367,14:42:11.033456,0.00515,0.00000,0.00000,-0.14446,0.00000,-0.00373,-0.00137,0.00066,-0.04990,-0.11547,0.99296,3.48982,0.00000,0.00000,0.00000,0.00000,0.00000,3.39536,0.00000,0.00000,0.00000,0.00000,A,144210.80
3.54181,57.68810733,11.97958833,57.68806317,11.97959433,14:42:11.079950,0.04139,0.00000,0.00000,-0.14451,0.00000,0.00086,-0.00030,-0.00286,-0.04978,-0.11706,0.99229,3.49989,0.00000,0.00000,0.00000,0.00000,0.00000,3.52969,0.00000,0.00000,0.00000,0.00000,A,144211.00
3.56181,57.68810733,11.97958833,57.68806317,11.97959433,14:42:11.099918,0.00647,0.00000,0.00000,-0.14443,0.00000,0.00254,-0.00045,-0.00087,-0.05155,-0.11682,0.99369,3.55592,0.00000,0.00000,0.00000,0.00000,0.00000,3.52969,0.00000,0.00000,0.00000,0.00000,A,144211.00
3.57091,57.68810733,11.97958833,57.68806317,11.97959433,14:42:11.109022,0.00518,0.00000,0.00000,-0.14451,0.00000,-0.00128,0.00031,-0.00011,-0.05112,-0.11773,0.99259,3.56535,0.00000,0.00000,0.00000,0.00000,0.00000,3.52969,0.00000,0.00000,0.00000,0.00000,A,144211.00
3.58155,57.68810733,11.97958833,57.68806317,11.97959433,14:42:11.119663,0.00527,0.00000,0.00000,-0.14452,0.00000,0.00284,-0.00274,-0.00133,-0.04917,-0.11566,0.99497,3.57570,0.00000,0.00000,0.00000,0.00000,0.00000,3.52969,0.00000,0.00000,0.00000,0.00000,A,144211.00
3.59227,57.68810733,11.97958833,57.68806317,11.97959433,14:42:11.130393,0.00559,0.00000,0.00000,-0.14456,0.00000,0.00131,-0.00213,-0.00072,-0.04941,-0.11645,0.99149,3.58638,0.00000,0.00000,0.00000,0.00000,0.00000,3.52969,0.00000,0.00000,0.00000,0.00000,A,144211.00
3.60227,57.68810733,11.97958833,57.68806317,11.97959433,14:42:11.140373,0.00519,0.00000,0.00000,-0.14457,0.00000,0.00452,0.00169,0.00127,-0.04819,-0.11712,0.99589,3.59649,0.00000,0.00000,0.00000,0.00000,0.00000,3.52969,0.00000,0.00000,0.00000,0.00000,A,144211.00
3.61312,57.68810733,11.97958833,57.68806317,11.97959433,14:42:11.151234,0.00565,0.00000,0.00000,-0.14461,0.00000,-0.00037,-0.00091,-0.00270,-0.05020,-0.11627,0.99460,3.60713,0.00000,0.00000,0.00000,0.00000,0.00000,3.52969,0.00000,0.00000,0.00000,0.00000,A,144211.00
3.62309,57.68810733,11.97958833,57.68806317,11.97959433,14:42:11.161198,0.00536,0.00000,0.00000,-0.14459,0.00000,0.00742,-0.00045,-0.00072,-0.05008,-0.11639,0.99308,3.61753,0.00000,0.00000,0.00000,0.00000,0.00000,3.52969,0.00000,0.00000,0.00000,0.00000,A,144211.00
3.65805,57.68810733,11.97958833,57.68806383,11.97959517,14:42:11.196196,0.02977,0.00000,0.00000,-0.14465,0.00000,0.00162,0.00092,0.00142,-0.04990,-0.11865,0.99351,3.62772,0.00000,0.00000,0.00000,0.00000,0.00000,3.64596,0.00000,0.00000,0.00000,0.00000,A,144211.10
3.67548,57.68810733,11.97958833,57.68806383,11.97959517,14:42:11.213591,0.00717,0.00000,0.00000,-0.14462,0.00000,0.00208,-0.00030,-0.00240,-0.04825,-0.11736,0.99625,3.66990,0.00000,0.00000,0.00000,0.00000,0.00000,3.64596,0.00000,0.00000,0.00000,0.00000,A,144211.10
3.68410,57.68810733,11.97958833,57.68806383,11.97959517,14:42:11.222228,0.00516,0.00000,0.00000,-0.14470,0.00000,-0.00189,-0.00076,-0.00163,-0.04978,-0.11755,0.99552,3.67834,0.00000,0.00000,0.00000,0.00000,0.00000,3.64596,0.00000,0.00000,0.00000,0.00000,A,144211.10
3.69429,57.68810733,11.97958833,57.68806383,11.97959517,14:42:11.232392,0.00517,0.00000,0.00000,-0.14473,0.00000,0.00162,0.00016,0.00081,-0.04801,-0.11621,0.99338,3.68851,0.00000,0.00000,0.00000,0.00000,0.00000,3.64596,0.00000,0.00000,0.00000,0.00000,A,144211.10
3.70531,57.68810733,11.97958833,57.68806383,11.97959517,14:42:11.243417,0.00580,0.00000,0.00000,-0.14481,0.00000,-0.00220,-0.00228,0.00096,-0.04862,-0.11761,0.99399,3.69915,0.00000,0.00000,0.00000,0.00000,0.00000,3.64596,0.00000,0.00000,0.00000,0.00000,A,144211.10
3.71494,57.68810733,11.97958833,57.68806383,11.97959517,14:42:11.253046,0.00519,0.00000,0.00000,-0.14487,0.00000,-0.00205,0.00108,0.00112,-0.05020,-0.11608,0.99467,3.70938,0.00000,0.00000,0.00000,0.00000,0.00000,3.64596,0.00000,0.00000,0.00000,0.00000,A,144211.10
3.72563,57.68810733,11.97958833,57.68806383,11.97959517,14:42:11.263739,0.00546,0.00000,0.00000,-0.14488,0.00000,0.00131,-0.00182,0.00005,-0.04892,-0.11505,0.99332,3.71978,0.00000,0.00000,0.00000,0.00000,0.00000,3.64596,0.00000,0.00000,0.00000,0.00000,A,144211.10
3.73670,57.68810733,11.97958833,57.68806383,11.97959517,14:42:11.274818,0.00613,0.00000,0.00000,-0.14494,0.00000,-0.00342,-0.00076,-0.00102,-0.04764,-0.11517,0.99436,3.73021,0.00000,0.00000,0.00000,0.00000,0.00000,3.64596,0.00000,0.00000,0.00000,0.00000,A,144211.10
3.76964,57.68810733,11.97958833,57.68806383,11.97959367,14:42:11.308463,0.02868,0.00000,0.00000,-0.14499,0.00000,-0.00312,-0.00167,0.00280,-0.04819,-0.11468,0.99290,3.74037,0.00000,0.00000,0.00000,0.00000,0.00000,3.75862,0.00000,0.00000,0.00000,0.00000,A,144211.20
3.78905,57.68810733,11.97958833,57.68806383,11.97959367,14:42:11.327163,0.00707,0.00000,0.00000,-0.14496,0.00000,0.00116,0.00199,0.00050,-0.05026,-0.11517,0.99546,3.78318,0.00000,0.00000,0.00000,0.00000,0.00000,3.75862,0.00000,0.00000,0.00000,0.00000,A,144211.20
3.79760,57.68810733,11.97958833,57.68806383,11.97959367,14:42:11.335708,0.00526,0.00000,0.00000,-0.14499,0.00000,0.00131,0.00321,0.00035,-0.04886,-0.11633,0.99406,3.79177,0.00000,0.00000,0.00000,0.00000,0.00000,3.75862,0.00000,0.00000,0.00000,0.00000,A,144211.20
3.80832,57.68810733,11.97958833,57.68806383,11.97959367,14:42:11.346438,0.00558,0.00000,0.00000,-0.14506,0.00000,-0.00418,0.00062,0.00203,-0.05118,-0.11553,0.99223,3.80254,0.00000,0.00000,0.00000,0.00000,0.00000,3.75862,0.00000,0.00000,0.00000,0.00000,A,144211.20
3.81832,57.68810733,11.97958833,57.68806383,11.97959367,14:42:11.356430,0.00519,0.00000,0.00000,-0.14510,0.00000,-0.00144,0.00016,0.00234,-0.04990,-0.11486,0.99204,3.81254,0.00000,0.00000,0.00000,0.00000,0.00000,3.75862,0.00000,0.00000,0.00000,0.00000,A,144211.20
3.82926,57.68810733,11.97958833,57.68806383,11.97959367,14:42:11.367389,0.00588,0.00000,0.00000,-0.14518,0.00000,-0.00235,0.00291,0.00035,-0.05020,-0.11724,0.99332,3.82308,0.00000,0.00000,0.00000,0.00000,0.00000,3.75862,0.00000,0.00000,0.00000,0.00000,A,144211.20
3.83892,57.68810733,11.97958833,57.68806383,11.97959367,14:42:11.377027,0.00515,0.00000,0.00000,-0.14480,0.00000,0.03858,0.00077,-0.00102,-0.04947,-0.11517,0.99430,3.83338,0.00000,0.00000,0.00000,0.00000,0.00000,3.75862,0.00000,0.00000,0.00000,0.00000,A,144211.20
3.84986,57.68810733,11.97958833,57.68806383,11.97959367,14:42:11.387973,0.00549,0.00000,0.00000,-0.14481,0.00000,0.00345,0.00062,-0.00072,-0.04972,-0.11566,0.99155,3.84406,0.00000,0.00000,0.00000,0.00000,0.00000,3.75862,0.00000,0.00000,0.00000,0.00000,A,144211.20
3.88525,57.68810733,11.97958833,57.68806400,11.97959150,14:42:11.423393,0.03047,0.00000,0.00000,-0.14485,0.00000,-0.00006,-0.00030,-0.00056,-0.04764,-0.11614,0.99351,3.85442,0.00000,0.00000,0.00000,0.00000,0.00000,3.87257,0.00000,0.00000,0.00000,0.00000,A,144211.30
3.90280,57.68810733,11.97958833,57.68806400,11.97959150,14:42:11.440908,0.00623,0.00000,0.00000,-0.14498,0.00000,-0.00128,-0.00152,-0.00026,-0.05203,-0.11852,0.99229,3.89721,0.00000,0.00000,0.00000,0.00000,0.00000,3.87257,0.00000,0.00000,0.00000,0.00000,A,144211.30
3.91264,57.68810733,11.97958833,57.68806400,11.97959150,14:42:11.450744,0.00566,0.00000,0.00000,-0.14504,0.00000,-0.00037,0.00169,-0.00347,-0.04972,-0.11706,0.99277,3.90662,0.00000,0.00000,0.00000,0.00000,0.00000,3.87257,0.00000,0.00000,0.00000,0.00000,A,144211.30
3.92253,57.68810733,11.97958833,57.68806400,11.97959150,14:42:11.460639,0.00516,0.00000,0.00000,-0.14507,0.00000,-0.00037,0.00062,0.00050,-0.04874,-0.11560,0.99497,3.91679,0.00000,0.00000,0.00000,0.00000,0.00000,3.87257,0.00000,0.00000,0.00000,0.00000,A,144211.30
3.93388,57.68810733,11.97958833,57.68806400,11.97959150,14:42:11.471988,0.00610,0.00000,0.00000,-0.14512,0.00000,-0.00159,-0.00076,-0.00056,-0.04953,-0.11602,0.99186,3.92739,0.00000,0.00000,0.00000,0.00000,0.00000,3.87257,0.00000,0.00000,0.00000,0.00000,A,144211.30
3.94331,57.68810733,11.97958833,57.68806400,11.97959150,14:42:11.481420,0.00514,0.00000,0.00000,-0.14514,0.00000,0.00147,0.00108,-0.00163,-0.04776,-0.11633,0.99296,3.93777,0.00000,0.00000,0.00000,0.00000,0.00000,3.87257,0.00000,0.00000,0.00000,0.00000,A,144211.30
3.95424,57.68810733,11.97958833,57.68806400,11.97959150,14:42:11.492352,0.00534,0.00000,0.00000,-0.14515,0.00000,0.00223,-0.00045,0.00371,-0.04941,-0.11560,0.99284,3.94844,0.00000,0.00000,0.00000,0.00000,0.00000,3.87257,0.00000,0.00000,0.00000,0.00000,A,144211.30
3.96479,57.68810733,11.97958833,57.68806400,11.97959150,14:42:11.502896,0.00549,0.00000,0.00000,-0.14518,0.00000,0.00009,-0.00625,0.00157,-0.04929,-0.11572,0.99332,3.95896,0.00000,0.00000,0.00000,0.00000,0.00000,3.87257,0.00000,0.00000,0.00000,0.00000,A,144211.30
4.00007,57.68810733,11.97958833,57.68806517,11.97959117,14:42:11.538203,0.03037,0.00000,0.00000,-0.14521,0.00000,0.00147,0.00031,-0.00469,-0.04843,-0.11663,0.99284,3.96937,0.00000,0.00000,0.00000,0.00000,0.00000,3.98759,0.00000,0.00000,0.00000,0.00000,A,144211.40
4.01817,57.68810733,11.97958833,57.68806517,11.97959117,14:42:11.556284,0.00693,0.00000,0.00000,-0.14512,0.00000,0.00269,0.00077,0.00157,-0.05081,-0.11584,0.99363,4.01233,0.00000,0.00000,0.00000,0.00000,0.00000,3.98759,0.00000,0.00000,0.00000,0.00000,A,144211.40
4.02718,57.68810733,11.97958833,57.68806517,11.97959117,14:42:11.565294,0.00553,0.00000,0.00000,-0.14513,0.00000,0.00116,0.00306,0.00020,-0.04959,-0.11450,0.99326,4.02126,0.00000,0.00000,0.00000,0.00000,0.00000,3.98759,0.00000,0.00000,0.00000,0.00000,A,144211.40
4.03806,57.68810733,11.97958833,57.68806517,11.97959117,14:42:11.576166,0.00585,0.00000,0.00000,-0.14516,0.00000,0.00101,-0.00091,-0.00286,-0.04990,-0.11675,0.99210,4.03194,0.00000,0.00000,0.00000,0.00000,0.00000,3.98759,0.00000,0.00000,0.00000,0.00000,A,144211.40
4.04830,57.68810733,11.97958833,57.68806517,11.97959117,14:42:11.586418,0.00570,0.00000,0.00000,-0.14513,0.00000,0.00452,0.00031,0.00020,-0.05039,-0.11492,0.99320,4.04223,0.00000,0.00000,0.00000,0.00000,0.00000,3.98759,0.00000,0.00000,0.00000,0.00000,A,144211.40
4.05896,57.68810733,11.97958833,57.68806517,11.97959117,14:42:11.597072,0.00596,0.00000,0.00000,-0.14519,0.00000,-0.00098,0.00108,-0.00224,-0.04965,-0.11663,0.99363,4.05240,0.00000,0.00000,0.00000,0.00000,0.00000,3.98759,0.00000,0.00000,0.00000,0.00000,A,144211.40
4.06886,57.68810733,11.97958833,57.68806517,11.97959117,14:42:11.606970,0.00546,0.00000,0.00000,-0.14523,0.00000,0.00131,0.00016,-0.00026,-0.04612,-0.11724,0.99229,4.06303,0.00000,0.00000,0.00000,0.00000,0.00000,3.98759,0.00000,0.00000,0.00000,0.00000,A,144211.40
4.07895,57.68810733,11.97958833,57.68806517,11.97959117,14:42:11.617050,0.00514,0.00000,0.00000,-0.14525,0.00000,-0.00220,-0.00274,-0.00026,-0.04782,-0.11401,0.99497,4.07340,0.00000,0.00000,0.00000,0.00000,0.00000,3.98759,0.00000,0.00000,0.00000,0.00000,A,144211.40
4.11485,57.68810733,11.97958833,57.68806650,11.97959167,14:42:11.652982,0.03051,0.00000,0.00000,-0.14535,0.00000,-0.00373,-0.00335,0.00203,-0.04721,-0.11816,0.99345,4.08378,0.00000,0.00000,0.00000,0.00000,0.00000,4.10220,0.00000,0.00000,0.00000,0.00000,A,144211.50
4.13432,57.68810733,11.97958833,57.68806650,11.97959167,14:42:11.672429,0.00773,0.00000,0.00000,-0.14531,0.00000,0.00162,-0.00030,0.00035,-0.04941,-0.11547,0.99046,4.12849,0.00000,0.00000,0.00000,0.00000,0.00000,4.10220,0.00000,0.00000,0.00000,0.00000,A,144211.50
4.14219,57.68810733,11.97958833,57.68806650,11.97959167,14:42:11.680298,0.00526,0.00000,0.00000,-0.14535,0.00000,-0.00113,0.00062,0.00157,-0.04990,-0.11621,0.99387,4.13640,0.00000,0.00000,0.00000,0.00000,0.00000,4.10220,0.00000,0.00000,0.00000,0.00000,A,144211.50
4.15279,57.68810733,11.97958833,57.68806650,11.97959167,14:42:11.690899,0.00544,0.00000,0.00000,-0.14539,0.00000,0.00070,0.00199,-0.00286,-0.04910,-0.11706,0.99479,4.14697,0.00000,0.00000,0.00000,0.00000,0.00000,4.10220,0.00000,0.00000,0.00000,0.00000,A,144211.50
4.16291,57.68810733,11.97958833,57.68806650,11.97959167,14:42:11.701021,0.00516,0.00000,0.00000,-0.14543,0.00000,0.00208,-0.00305,-0.00286,-0.04935,-0.11797,0.99155,4.15735,0.00000,0.00000,0.00000,0.00000,0.00000,4.10220,0.00000,0.00000,0.00000,0.00000,A,144211.50
4.17370,57.68810733,11.97958833,57.68806650,11.97959167,14:42:11.711814,0.00541,0.00000,0.00000,-0.14543,0.00000,0.00360,-0.00106,0.00050,-0.04685,-0.11657,0.99436,4.16771,0.00000,0.00000,0.00000,0.00000,0.00000,4.10220,0.00000,0.00000,0.00000,0.00000,A,144211.50
4.18478,57.68810733,11.97958833,57.68806650,11.97959167,14:42:11.722887,0.00608,0.00000,0.00000,-0.14547,0.00000,-0.00144,-0.00060,0.00081,-0.04953,-0.11535,0.99259,4.17892,0.00000,0.00000,0.00000,0.00000,0.00000,4.10220,0.00000,0.00000,0.00000,0.00000,A,144211.50
4.19464,57.68810733,11.97958833,57.68806650,11.97959167,14:42:11.732766,0.00554,0.00000,0.00000,-0.14550,0.00000,0.00192,0.00108,0.00035,-0.04892,-0.11755,0.99216,4.18850,0.00000,0.00000,0.00000,0.00000,0.00000,4.10220,0.00000,0.00000,0.00000,0.00000,A,144211.50
4.23659,57.68810733,11.97958833,57.68806400,11.97958717,14:42:11.774711,0.03707,0.00000,0.00000,-0.14554,0.00000,-0.00067,-0.00060,-0.00026,-0.05179,-0.11639,0.99589,4.19913,0.00000,0.00000,0.00000,0.00000,0.00000,4.22694,0.00000,0.00000,0.00000,0.00000,A,144211.70
4.24972,57.68810733,11.97958833,57.68806400,11.97958717,14:42:11.787833,0.00796,0.00000,0.00000,-0.14572,0.00000,-0.00342,-0.00076,-0.00072,-0.04868,-0.11627,0.99479,4.24385,0.00000,0.00000,0.00000,0.00000,0.00000,4.22694,0.00000,0.00000,0.00000,0.00000,A,144211.70
4.25763,57.68810733,11.97958833,57.68806400,11.97958717,14:42:11.795734,0.00533,0.00000,0.00000,-0.14569,0.00000,0.00742,0.00062,-0.00133,-0.04923,-0.11663,0.99375,4.25173,0.00000,0.00000,0.00000,0.00000,0.00000,4.22694,0.00000,0.00000,0.00000,0.00000,A,144211.70
4.26839,57.68810733,11.97958833,57.68806400,11.97958717,14:42:11.806508,0.00550,0.00000,0.00000,-0.14577,0.00000,-0.00067,-0.00198,-0.00056,-0.05063,-0.11895,0.99259,4.26261,0.00000,0.00000,0.00000,0.00000,0.00000,4.22694,0.00000,0.00000,0.00000,0.00000,A,144211.70
4.27847,57.68810733,11.97958833,57.68806400,11.97958717,14:42:11.816575,0.00517,0.00000,0.00000,-0.14586,0.00000,-0.00403,0.00092,0.00096,-0.04831,-0.11718,0.99064,4.27271,0.00000,0.00000,0.00000,0.00000,0.00000,4.22694,0.00000,0.00000,0.00000,0.00000,A,144211.70
4.28995,57.68810733,11.97958833,57.68806400,11.97958717,14:42:11.828056,0.00624,0.00000,0.00000,-0.14592,0.00000,-0.00235,-0.00167,0.00081,-0.04819,-0.11706,0.99345,4.28332,0.00000,0.00000,0.00000,0.00000,0.00000,4.22694,0.00000,0.00000,0.00000,0.00000,A,144211.70
4.29913,57.68810733,11.97958833,57.68806400,11.97958717,14:42:11.837241,0.00503,0.00000,0.00000,-0.14602,0.00000,-0.00434,0.00077,-0.00041,-0.04904,-0.11804,0.99033,4.29361,0.00000,0.00000,0.00000,0.00000,0.00000,4.22694,0.00000,0.00000,0.00000,0.00000,A,144211.70
4.30978,57.68810733,11.97958833,57.68806400,11.97958717,14:42:11.847889,0.00542,0.00000,0.00000,-0.14607,0.00000,-0.00006,0.00215,-0.00102,-0.04947,-0.11743,0.99271,4.30378,0.00000,0.00000,0.00000,0.00000,0.00000,4.22694,0.00000,0.00000,0.00000,0.00000,A,144211.70
4.32015,57.68810733,11.97958833,57.68806400,11.97958717,14:42:11.858268,0.00539,0.00000,0.00000,-0.14610,0.00000,0.00162,-0.00350,-0.00347,-0.04941,-0.11785,0.99479,4.31439,0.00000,0.00000,0.00000,0.00000,0.00000,4.22694,0.00000,0.00000,0.00000,0.00000,A,144211.70
4.34956,57.68810733,11.97958833,57.68806217,11.97958483,14:42:11.887681,0.02441,0.00000,0.00000,-0.14614,0.00000,-0.00220,0.00169,0.00020,-0.04788,-0.11578,0.99235,4.32455,0.00000,0.00000,0.00000,0.00000,0.00000,4.34327,0.00000,0.00000,0.00000,0.00000,A,144211.80
4.36216,57.68810733,11.97958833,57.68806217,11.97958483,14:42:11.900275,0.00792,0.00000,0.00000,-0.14598,0.00000,0.00544,0.00230,-0.00118,-0.04843,-0.11535,0.99223,4.35515,0.00000,0.00000,0.00000,0.00000,0.00000,4.34327,0.00000,0.00000,0.00000,0.00000,A,144211.80
4.36977,57.68810733,11.97958833,57.68806217,11.97958483,14:42:11.907876,0.00529,0.00000,0.00000,-0.14602,0.00000,-0.00144,-0.00182,-0.00011,-0.05051,-0.11651,0.99393,4.36392,0.00000,0.00000,0.00000,0.00000,0.00000,4.34327,0.00000,0.00000,0.00000,0.00000,A,144211.80
4.38059,57.68810733,11.97958833,57.68806217,11.97958483,14:42:11.918706,0.00572,0.00000,0.00000,-0.14602,0.00000,0.00223,-0.00106,-0.00133,-0.05039,-0.11590,0.99436,4.37451,0.00000,0.00000,0.00000,0.00000,0.00000,4.34327,0.00000,0.00000,0.00000,0.00000,A,144211.80
4.39043,57.68810733,11.97958833,57.68806217,11.97958483,14:42:11.928532,0.00516,0.00000,0.00000,-0.14601,0.00000,0.00376,0.00108,-0.00026,-0.04807,-0.11688,0.99308,4.38468,0.00000,0.00000,0.00000,0.00000,0.00000,4.34327,0.00000,0.00000,0.00000,0.00000,A,144211.80
4.40125,57.68810733,11.97958833,57.68806217,11.97958483,14:42:11.939361,0.00558,0.00000,0.00000,-0.14606,0.00000,-0.00052,0.00138,-0.00148,-0.04941,-0.11712,0.99351,4.39541,0.00000,0.00000,0.00000,0.00000,0.00000,4.34327,0.00000,0.00000,0.00000,0.00000,A,144211.80
4.41134,57.68810733,11.97958833,57.68806217,11.97958483,14:42:11.949452,0.00527,0.00000,0.00000,-0.14605,0.00000,0.00330,0.00428,0.00280,-0.04923,-0.11688,0.99534,4.40560,0.00000,0.00000,0.00000,0.00000,0.00000,4.34327,0.00000,0.00000,0.00000,0.00000,A,144211.80
4.42162,57.68810733,11.97958833,57.68806217,11.97958483,14:42:11.959732,0.00527,0.00000,0.00000,-0.14604,0.00000,0.00330,0.00291,0.00020,-0.04770,-0.11560,0.99162,4.41578,0.00000,0.00000,0.00000,0.00000,0.00000,4.34327,0.00000,0.00000,0.00000,0.00000,A,144211.80
4.43215,57.68810733,11.97958833,57.68806217,11.97958483,14:42:11.970273,0.00540,0.00000,0.00000,-0.14607,0.00000,-0.00174,0.00337,-0.00102,-0.05057,-0.11541,0.99125,4.42639,0.00000,0.00000,0.00000,0.00000,0.00000,4.34327,0.00000,0.00000,0.00000,0.00000,A,144211.80
4.44235,57.68810733,11.97958833,57.68806217,11.97958483,14:42:11.980460,0.00537,0.00000,0.00000,-0.14611,0.00000,-0.00067,-0.00167,-0.00026,-0.04898,-0.11663,0.99204,4.43661,0.00000,0.00000,0.00000,0.00000,0.00000,4.34327,0.00000,0.00000,0.00000,0.00000,A,144211.80
4.47635,57.68810733,11.97958833,57.68806033,11.97958233,14:42:12.014477,0.02878,0.00000,0.00000,-0.14614,0.00000,0.00055,0.00383,-0.00056,-0.04856,-0.11688,0.99198,4.44721,0.00000,0.00000,0.00000,0.00000,0.00000,4.46517,0.00000,0.00000,0.00000,0.00000,A,144211.90
4.49462,57.68810733,11.97958833,57.68806033,11.97958233,14:42:12.032727,0.00703,0.00000,0.00000,-0.14605,0.00000,0.00299,0.00108,0.00295,-0.04740,-0.11706,0.99241,4.48902,0.00000,0.00000,0.00000,0.00000,0.00000,4.46517,0.00000,0.00000,0.00000,0.00000,A,144211.90
4.50315,57.68810733,11.97958833,57.68806033,11.97958233,14:42:12.041250,0.00516,0.00000,0.00000,-0.14614,0.00000,-0.00480,-0.00076,-0.00179,-0.05087,-0.11797,0.99460,4.49761,0.00000,0.00000,0.00000,0.00000,0.00000,4.46517,0.00000,0.00000,0.00000,0.00000,A,144211.90
4.51375,57.68810733,11.97958833,57.68806033,11.97958233,14:42:12.051862,0.00540,0.00000,0.00000,-0.14615,0.00000,0.00192,0.00352,-0.00163,-0.04776,-0.11675,0.99204,4.50778,0.00000,0.00000,0.00000,0.00000,0.00000,4.46517,0.00000,0.00000,0.00000,0.00000,A,144211.90
4.52471,57.68810733,11.97958833,57.68806033,11.97958233,14:42:12.062828,0.00596,0.00000,0.00000,-0.14611,0.00000,0.00483,0.00367,0.00050,-0.05002,-0.11547,0.99296,4.51872,0.00000,0.00000,0.00000,0.00000,0.00000,4.46517,0.00000,0.00000,0.00000,0.00000,A,144211.90
4.53433,57.68810733,11.97958833,57.68806033,11.97958233,14:42:12.072434,0.00518,0.00000,0.00000,-0.14610,0.00000,0.00192,0.00215,-0.00056,-0.04923,-0.11517,0.99515,4.52856,0.00000,0.00000,0.00000,0.00000,0.00000,4.46517,0.00000,0.00000,0.00000,0.00000,A,144211.90
4.54509,57.68810733,11.97958833,57.68806033,11.97958233,14:42:12.083196,0.00554,0.00000,0.00000,-0.14615,0.00000,0.00009,0.00199,-0.00087,-0.05124,-0.11858,0.99479,4.53926,0.00000,0.00000,0.00000,0.00000,0.00000,4.46517,0.00000,0.00000,0.00000,0.00000,A,144211.90
4.55509,57.68810733,11.97958833,57.68806033,11.97958233,14:42:12.093196,0.00514,0.00000,0.00000,-0.14618,0.00000,0.00284,-0.00152,0.00020,-0.05002,-0.11883,0.99442,4.54955,0.00000,0.00000,0.00000,0.00000,0.00000,4.46517,0.00000,0.00000,0.00000,0.00000,A,144211.90
4.58997,57.68810733,11.97958833,57.68805933,11.97958167,14:42:12.128113,0.02963,0.00000,0.00000,-0.14620,0.00000,-0.00006,-0.00091,0.00142,-0.04819,-0.11584,0.99192,4.55977,0.00000,0.00000,0.00000,0.00000,0.00000,4.57817,0.00000,0.00000,0.00000,0.00000,A,144212.00
4.60903,57.68810733,11.97958833,57.68805933,11.97958167,14:42:12.147138,0.00808,0.00000,0.00000,-0.14599,0.00000,0.00559,0.00169,-0.00133,-0.04947,-0.11645,0.99235,4.60309,0.00000,0.00000,0.00000,0.00000,0.00000,4.57817,0.00000,0.00000,0.00000,0.00000,A,144212.00
4.61689,57.68810733,11.97958833,57.68805933,11.97958167,14:42:12.154995,0.00554,0.00000,0.00000,-0.14600,0.00000,-0.00098,0.00108,0.00020,-0.05130,-0.11499,0.99619,4.61106,0.00000,0.00000,0.00000,0.00000,0.00000,4.57817,0.00000,0.00000,0.00000,0.00000,A,144212.00
4.62691,57.68810733,11.97958833,57.68805933,11.97958167,14:42:12.165017,0.00515,0.00000,0.00000,-0.14604,0.00000,0.00223,0.00016,0.00173,-0.05112,-0.11907,0.99229,4.62136,0.00000,0.00000,0.00000,0.00000,0.00000,4.57817,0.00000,0.00000,0.00000,0.00000,A,144212.00
4.63755,57.68810733,11.97958833,57.68805933,11.97958167,14:42:12.175654,0.00524,0.00000,0.00000,-0.14608,0.00000,0.00009,0.00230,0.00310,-0.04782,-0.11700,0.99485,4.63173,0.00000,0.00000,0.00000,0.00000,0.00000,4.57817,0.00000,0.00000,0.00000,0.00000,A,144212.00
4.64823,57.68810733,11.97958833,57.68805933,11.97958167,14:42:12.186367,0.00513,0.00000,0.00000,-0.14609,0.00000,-0.00205,0.00047,0.00127,-0.04990,-0.11462,0.99436,4.64232,0.00000,0.00000,0.00000,0.00000,0.00000,4.57817,0.00000,0.00000,0.00000,0.00000,A,144212.00
4.65829,57.68810733,11.97958833,57.68805933,11.97958167,14:42:12.196402,0.00519,0.00000,0.00000,-0.14616,0.00000,-0.00220,0.00016,0.00142,-0.04807,-0.11779,0.99674,4.65251,0.00000,0.00000,0.00000,0.00000,0.00000,4.57817,0.00000,0.00000,0.00000,0.00000,A,144212.00
4.66897,57.68810733,11.97958833,57.68805933,11.97958167,14:42:12.207073,0.00547,0.00000,0.00000,-0.14622,0.00000,-0.00220,-0.00076,0.00066,-0.04770,-0.11712,0.99229,4.66313,0.00000,0.00000,0.00000,0.00000,0.00000,4.57817,0.00000,0.00000,0.00000,0.00000,A,144212.00
4.70333,57.68810733,11.97958833,57.68805967,11.97957933,14:42:12.242718,0.02943,0.00000,0.00000,-0.14620,0.00000,0.00345,0.00154,-0.00041,-0.04874,-0.11675,0.99729,4.67351,0.00000,0.00000,0.00000,0.00000,0.00000,4.69150,0.00000,0.00000,0.00000,0.00000,A,144212.10
4.72186,57.68810733,11.97958833,57.68805967,11.97957933,14:42:12.259972,0.00675,0.00000,0.00000,-0.14628,0.00000,-0.00021,-0.00060,0.00264,-0.05069,-0.11932,0.99290,4.71597,0.00000,0.00000,0.00000,0.00000,0.00000,4.69150,0.00000,0.00000,0.00000,0.00000,A,144212.10
4.73064,57.68810733,11.97958833,57.68805967,11.97957933,14:42:12.268749,0.00513,0.00000,0.00000,-0.14640,0.00000,-0.00602,0.00031,0.00188,-0.05008,-0.11865,0.99137,4.72511,0.00000,0.00000,0.00000,0.00000,0.00000,4.69150,0.00000,0.00000,0.00000,0.00000,A,144212.10
4.74146,57.68810733,11.97958833,57.68805967,11.97957933,14:42:12.279566,0.00537,0.00000,0.00000,-0.14642,0.00000,-0.00189,0.00428,0.00218,-0.04648,-0.11529,0.99497,4.73553,0.00000,0.00000,0.00000,0.00000,0.00000,4.69150,0.00000,0.00000,0.00000,0.00000,A,144212.10
4.75216,57.68810733,11.97958833,57.68805967,11.97957933,14:42:12.290277,0.00566,0.00000,0.00000,-0.14644,0.00000,-0.00312,-0.00076,-0.00270,-0.04697,-0.11431,0.99241,4.74636,0.00000,0.00000,0.00000,0.00000,0.00000,4.69150,0.00000,0.00000,0.00000,0.00000,A,144212.10
4.76211,57.68810733,11.97958833,57.68805967,11.97957933,14:42:12.300225,0.00538,0.00000,0.00000,-0.14647,0.00000,-0.00067,-0.00137,0.00341,-0.05112,-0.11651,0.99375,4.75617,0.00000,0.00000,0.00000,0.00000,0.00000,4.69150,0.00000,0.00000,0.00000,0.00000,A,144212.10
4.77407,57.68810733,11.97958833,57.68805967,11.97957933,14:42:12.312176,0.00693,0.00000,0.00000,-0.14646,0.00000,0.00131,-0.00412,0.00173,-0.05008,-0.11547,0.99198,4.76781,0.00000,0.00000,0.00000,0.00000,0.00000,4.69150,0.00000,0.00000,0.00000,0.00000,A,144212.10
4.78487,57.68810733,11.97958833,57.68805967,11.97957933,14:42:12.322996,0.00733,0.00000,0.00000,-0.14647,0.00000,0.00162,0.00108,-0.00148,-0.04941,-0.11669,0.99235,4.77764,0.00000,0.00000,0.00000,0.00000,0.00000,4.69150,0.00000,0.00000,0.00000,0.00000,A,144212.10
4.82812,57.68810733,11.97958833,57.68806317,11.97957983,14:42:12.366791,0.04000,0.00000,0.00000,-0.14646,0.00000,0.00147,0.00092,0.00386,-0.04862,-0.11529,0.99534,4.78754,0.00000,0.00000,0.00000,0.00000,0.00000,4.81615,0.00000,0.00000,0.00000,0.00000,A,144212.30
4.84700,57.68810733,11.97958833,57.68806317,11.97957983,14:42:12.385105,0.00646,0.00000,0.00000,-0.14670,0.00000,-0.00403,-0.00381,0.00020,-0.04898,-0.11706,0.99241,4.84141,0.00000,0.00000,0.00000,0.00000,0.00000,4.81615,0.00000,0.00000,0.00000,0.00000,A,144212.30
4.85710,57.68810733,11.97958833,57.68806317,11.97957983,14:42:12.395207,0.00615,0.00000,0.00000,-0.14670,0.00000,-0.00067,-0.00014,-0.00102,-0.04813,-0.11474,0.99308,4.85058,0.00000,0.00000,0.00000,0.00000,0.00000,4.81615,0.00000,0.00000,0.00000,0.00000,A,144212.30
4.86651,57.68810733,11.97958833,57.68806317,11.97957983,14:42:12.404616,0.00516,0.00000,0.00000,-0.14672,0.00000,-0.00159,-0.00045,-0.00118,-0.05033,-0.11541,0.99393,4.86076,0.00000,0.00000,0.00000,0.00000,0.00000,4.81615,0.00000,0.00000,0.00000,0.00000,A,144212.30
4.87716,57.68810733,11.97958833,57.68806317,11.97957983,14:42:12.415264,0.00541,0.00000,0.00000,-0.14673,0.00000,-0.00113,0.00077,0.00218,-0.04746,-0.11553,0.99442,4.87134,0.00000,0.00000,0.00000,0.00000,0.00000,4.81615,0.00000,0.00000,0.00000,0.00000,A,144212.30
4.88735,57.68810733,11.97958833,57.68806317,11.97957983,14:42:12.425453,0.00521,0.00000,0.00000,-0.14679,0.00000,-0.00449,-0.00137,-0.00026,-0.04862,-0.11639,0.99363,4.88180,0.00000,0.00000,0.00000,0.00000,0.00000,4.81615,0.00000,0.00000,0.00000,0.00000,A,144212.30
4.89847,57.68810733,11.97958833,57.68806317,11.97957983,14:42:12.436585,0.00609,0.00000,0.00000,-0.14682,0.00000,0.00086,0.00352,0.00325,-0.05075,-0.11749,0.99198,4.89269,0.00000,0.00000,0.00000,0.00000,0.00000,4.81615,0.00000,0.00000,0.00000,0.00000,A,144212.30
4.90906,57.68810733,11.97958833,57.68806317,11.97957983,14:42:12.447172,0.00629,0.00000,0.00000,-0.14681,0.00000,0.00299,0.00306,-0.00102,-0.04959,-0.11736,0.99448,4.90290,0.00000,0.00000,0.00000,0.00000,0.00000,4.81615,0.00000,0.00000,0.00000,0.00000,A,144212.30
4.94203,57.68810733,11.97958833,57.68806367,11.97958367,14:42:12.480162,0.02886,0.00000,0.00000,-0.14688,0.00000,-0.00296,-0.00137,-0.00056,-0.04886,-0.11749,0.99021,4.91258,0.00000,0.00000,0.00000,0.00000,0.00000,4.93062,0.00000,0.00000,0.00000,0.00000,A,144212.40
4.95925,57.68810733,11.97958833,57.68806367,11.97958367,14:42:12.497360,0.00656,0.00000,0.00000,-0.14675,0.00000,0.00345,-0.00060,-0.00148,-0.04886,-0.11602,0.99326,4.95365,0.00000,0.00000,0.00000,0.00000,0.00000,4.93062,0.00000,0.00000,0.00000,0.00000,A,144212.40
4.96912,57.68810733,11.97958833,57.68806367,11.97958367,14:42:12.507234,0.00575,0.00000,0.00000,-0.14675,0.00000,0.00177,-0.00152,0.00157,-0.05136,-0.11682,0.99308,4.96327,0.00000,0.00000,0.00000,0.00000,0.00000,4.93062,0.00000,0.00000,0.00000,0.00000,A,144212.40
4.97898,57.68810733,11.97958833,57.68806367,11.97958367,14:42:12.517084,0.00515,0.00000,0.00000,-0.14679,0.00000,-0.00250,0.00092,0.00203,-0.04856,-0.11639,0.99442,4.97343,0.00000,0.00000,0.00000,0.00000,0.00000,4.93062,0.00000,0.00000,0.00000,0.00000,A,144212.40
4.98997,57.68810733,11.97958833,57.68806367,11.97958367,14:42:12.528084,0.00561,0.00000,0.00000,-0.14683,0.00000,-0.00037,-0.00091,0.00096,-0.05020,-0.11761,0.99241,4.98378,0.00000,0.00000,0.00000,0.00000,0.00000,4.93062,0.00000,0.00000,0.00000,0.00000,A,144212.40
5.00024,57.68810733,11.97958833,57.68806367,11.97958367,14:42:12.538355,0.00548,0.00000,0.00000,-0.14688,0.00000,-0.00189,-0.00014,0.00264,-0.04538,-0.11730,0.99241,4.99446,0.00000,0.00000,0.00000,0.00000,0.00000,4.93062,0.00000,0.00000,0.00000,0.00000,A,144212.40
5.01708,57.68810733,11.97958833,57.68806367,11.97958367,14:42:12.555223,0.01192,0.00000,0.00000,0.00000,0.00000,0.00223,-0.00060,-0.00347,-0.05209,-0.11682,0.99302,5.00456,0.00000,0.00000,0.00000,0.00000,0.00000,4.93062,0.00000,0.00000,0.00000,0.00000,A,144212.40
5.05942,57.68810733,11.97958833,57.68806267,11.97958517,14:42:12.597536,0.03130,0.00000,0.00000,-0.00219,0.00000,0.00070,0.00337,-0.00011,-0.04972,-0.11541,0.99119,5.03138,0.00000,0.00000,0.00000,0.00000,0.00000,5.05028,0.00000,0.00000,0.00000,0.00000,A,144212.50
5.08559,57.68810733,11.97958833,57.68806267,11.97958517,14:42:12.623714,0.01327,0.00000,0.00000,-0.00441,0.00000,-0.00021,0.00138,-0.00118,-0.04947,-0.11810,0.99241,5.07516,0.00000,0.00000,0.00000,0.00000,0.00000,5.05028,0.00000,0.00000,0.00000,0.00000,A,144212.50
5.10892,57.68810733,11.97958833,57.68806267,11.97958517,14:42:12.647630,0.01459,0.00000,0.00000,-0.00652,0.00000,0.00208,0.00108,0.00050,-0.04880,-0.11736,0.99296,5.09906,0.00000,0.00000,0.00000,0.00000,0.00000,5.05028,0.00000,0.00000,0.00000,0.00000,A,144212.50
5.13440,57.68810733,11.97958833,57.68806267,11.97958517,14:42:12.672532,0.01527,0.00000,0.00000,-0.00863,0.00000,0.00055,0.00047,-0.00209,-0.04776,-0.11657,0.99509,5.12397,0.00000,0.00000,0.00000,0.00000,0.00000,5.05028,0.00000,0.00000,0.00000,0.00000,A,144212.50
5.17854,57.68810733,11.97958833,57.68806000,11.97958317,14:42:12.716677,0.03318,0.00000,0.00000,-0.01077,0.00000,-0.00205,-0.00014,-0.00163,-0.04892,-0.11682,0.99320,5.14880,0.00000,0.00000,0.00000,0.00000,0.00000,5.16869,0.00000,0.00000,0.00000,0.00000,A,144212.60
5.20168,57.68810733,11.97958833,57.68806000,11.97958317,14:42:12.739795,0.01330,0.00000,0.00000,-0.01303,0.00000,-0.00480,-0.00121,0.00066,-0.04679,-0.11627,0.99491,5.19196,0.00000,0.00000,0.00000,0.00000,0.00000,5.16869,0.00000,0.00000,0.00000,0.00000,A,144212.60
5.22758,57.68810733,11.97958833,57.68806000,11.97958317,14:42:12.765721,0.01397,0.00000,0.00000,-0.01502,0.00000,0.00131,-0.00244,-0.00026,-0.04910,-0.11645,0.99412,5.21810,0.00000,0.00000,0.00000,0.00000,0.00000,5.16869,0.00000,0.00000,0.00000,0.00000,A,144212.60
5.25186,57.68810733,11.97958833,57.68806000,11.97958317,14:42:12.790772,0.01305,0.00000,0.00000,-0.01687,0.00000,0.00528,-0.00060,-0.00148,-0.04910,-0.11547,0.99223,5.24216,0.00000,0.00000,0.00000,0.00000,0.00000,5.16869,0.00000,0.00000,0.00000,0.00000,A,144212.60
5.29099,57.68810733,11.97958833,57.68805767,11.97958200,14:42:12.829123,0.03043,0.00000,0.00000,-0.01889,0.00000,-0.00312,0.00016,0.00050,-0.04929,-0.11602,0.99540,5.26244,0.00000,0.00000,0.00000,0.00000,0.00000,5.28151,0.00000,0.00000,0.00000,0.00000,A,144212.70
5.31494,57.68810733,11.97958833,57.68805767,11.97958200,14:42:12.853082,0.01353,0.00000,0.00000,-0.02099,0.00000,-0.00357,0.00092,0.00066,-0.05069,-0.11761,0.99412,5.30538,0.00000,0.00000,0.00000,0.00000,0.00000,5.28151,0.00000,0.00000,0.00000,0.00000,A,144212.70
5.33903,57.68810733,11.97958833,57.68805767,11.97958200,14:42:12.877172,0.01303,0.00000,0.00000,-0.02294,0.00000,-0.00205,0.00016,0.00096,-0.04874,-0.11621,0.99119,5.32963,0.00000,0.00000,0.00000,0.00000,0.00000,5.28151,0.00000,0.00000,0.00000,0.00000,A,144212.70
5.36469,57.68810733,11.97958833,57.68805767,11.97958200,14:42:12.903137,0.01456,0.00000,0.00000,-0.02471,0.00000,0.00330,0.00123,0.00112,-0.05002,-0.11523,0.99216,5.35543,0.00000,0.00000,0.00000,0.00000,0.00000,5.28151,0.00000,0.00000,0.00000,0.00000,A,144212.70
5.40712,57.68810733,11.97958833,57.68805517,11.97957967,14:42:12.946198,0.03291,0.00000,0.00000,-0.02658,0.00000,-0.00006,-0.00320,0.00112,-0.05203,-0.11822,0.99576,5.37897,0.00000,0.00000,0.00000,0.00000,0.00000,5.39694,0.00000,0.00000,0.00000,0.00000,A,144212.80
5.43066,57.68810733,11.97958833,57.68805517,11.97957967,14:42:12.968773,0.01244,0.00000,0.00000,-0.02840,0.00000,0.00055,0.00184,0.00081,-0.05075,-0.11736,0.99216,5.42125,0.00000,0.00000,0.00000,0.00000,0.00000,5.39694,0.00000,0.00000,0.00000,0.00000,A,144212.80
5.45462,57.68810733,11.97958833,57.68805517,11.97957967,14:42:12.992739,0.01333,0.00000,0.00000,-0.03020,0.00000,0.00009,-0.00091,0.00127,-0.05148,-0.11761,0.99485,5.44471,0.00000,0.00000,0.00000,0.00000,0.00000,5.39694,0.00000,0.00000,0.00000,0.00000,A,144212.80
5.47698,57.68810733,11.97958833,57.68805517,11.97957967,14:42:13.015122,0.01314,0.00000,0.00000,-0.03202,0.00000,-0.00281,-0.00106,0.00203,-0.05100,-0.11663,0.99424,5.46474,0.00000,0.00000,0.00000,0.00000,0.00000,5.39694,0.00000,0.00000,0.00000,0.00000,A,144212.80
5.50065,57.68810733,11.97958833,57.68805517,11.97957967,14:42:13.038791,0.01364,0.00000,0.00000,-0.03375,0.00000,-0.00052,-0.00335,0.00127,-0.04819,-0.11492,0.99247,5.49032,0.00000,0.00000,0.00000,0.00000,0.00000,5.39694,0.00000,0.00000,0.00000,0.00000,A,144212.80
5.55556,57.68810733,11.97958833,57.68805517,11.97958317,14:42:13.093708,0.04222,0.00000,0.00000,-0.03535,0.00000,0.00406,-0.00091,-0.00087,-0.05057,-0.11596,0.99247,5.51594,0.00000,0.00000,0.00000,0.00000,0.00000,5.54402,0.00000,0.00000,0.00000,0.00000,A,144213.00
5.58151,57.68810733,11.97958833,57.68805517,11.97958317,14:42:13.120700,0.01449,0.00000,0.00000,-0.03714,0.00000,-0.00174,-0.00137,-0.00301,-0.04886,-0.11645,0.99253,5.57034,0.00000,0.00000,0.00000,0.00000,0.00000,5.54402,0.00000,0.00000,0.00000,0.00000,A,144213.00
5.60855,57.68810733,11.97958833,57.68805517,11.97958317,14:42:13.146670,0.01448,0.00000,0.00000,-0.03890,0.00000,-0.00235,-0.00259,0.00280,-0.05039,-0.11865,0.99271,5.59877,0.00000,0.00000,0.00000,0.00000,0.00000,5.54402,0.00000,0.00000,0.00000,0.00000,A,144213.00
5.63367,57.68810733,11.97958833,57.68805517,11.97958317,14:42:13.171784,0.01220,0.00000,0.00000,-0.04060,0.00000,-0.00220,-0.00030,0.00020,-0.04679,-0.11749,0.99534,5.62393,0.00000,0.00000,0.00000,0.00000,0.00000,5.54402,0.00000,0.00000,0.00000,0.00000,A,144213.00
5.67740,57.68810733,11.97958833,57.68805483,11.97958267,14:42:13.216481,0.03172,0.00000,0.00000,-0.04216,0.00000,0.00192,0.00154,0.00218,-0.04953,-0.11639,0.99229,5.64778,0.00000,0.00000,0.00000,0.00000,0.00000,5.66761,0.00000,0.00000,0.00000,0.00000,A,144213.10
5.70277,57.68810733,11.97958833,57.68805483,11.97958267,14:42:13.241103,0.01337,0.00000,0.00000,-0.04380,0.00000,-0.00144,-0.00030,-0.00224,-0.04996,-0.11572,0.99332,5.69232,0.00000,0.00000,0.00000,0.00000,0.00000,5.66761,0.00000,0.00000,0.00000,0.00000,A,144213.10
5.72843,57.68810733,11.97958833,57.68805483,11.97958267,14:42:13.266880,0.01343,0.00000,0.00000,-0.04547,0.00000,-0.00373,0.00108,-0.00011,-0.04898,-0.11743,0.99210,5.71873,0.00000,0.00000,0.00000,0.00000,0.00000,5.66761,0.00000,0.00000,0.00000,0.00000,A,144213.10
5.75556,57.68810733,11.97958833,57.68805483,11.97958267,14:42:13.293703,0.01441,0.00000,0.00000,-0.04700,0.00000,0.00070,-0.00198,-0.00026,-0.05057,-0.11730,0.99290,5.74519,0.00000,0.00000,0.00000,0.00000,0.00000,5.66761,0.00000,0.00000,0.00000,0.00000,A,144213.10
5.79741,57.68810733,11.97958833,57.68805483,11.97958133,14:42:13.335868,0.03079,0.00000,0.00000,-0.04839,0.00000,0.00589,-0.00045,-0.00072,-0.05039,-0.11743,0.99277,5.76927,0.00000,0.00000,0.00000,0.00000,0.00000,5.78762,0.00000,0.00000,0.00000,0.00000,A,144213.20
5.82354,57.68810733,11.97958833,57.68805483,11.97958133,14:42:13.361664,0.01412,0.00000,0.00000,-0.04984,0.00000,0.00101,-0.00030,0.00280,-0.05203,-0.11682,0.99399,5.81412,0.00000,0.00000,0.00000,0.00000,0.00000,5.78762,0.00000,0.00000,0.00000,0.00000,A,144213.20
