Time,lat_estimated,lon_estimated,latitude,longitude,RealTime,CalculationTime,MeasuredVelocity,FilteredVelocity,Roll,SteeringAngle,RollRate,gy,gz,ax,ay,az,imu_read_timing,v_estimated,yaw_estimated,heading_estimated,x_estimated,y_estimated,GPS_timestamp,x_GPS,y_GPS,theta_GPS,theta_GPS_noUnwrap,status,NMEA timestamp
0.07712,57.78220900,12.77346933,57.78220900,12.77346933,16:17:09.076421,0.07708,0.00000,1.50000,-0.00010,-0.01840,0.00811,0.00320,-0.01761,0.11254,0.01208,0.96905,0.00001,0.00000,0.01070,0.00000,0.00000,0.00000,0.01449,0.00000,0.00000,0.00000,0.00000,A,151605.00
0.09780,57.78220900,12.77346933,57.78220900,12.77346933,16:17:09.097086,0.00998,0.00000,0.00000,0.00010,-0.02103,0.00337,-0.00673,-0.03395,0.08168,0.01732,0.99503,0.09124,0.00000,0.01093,-0.00130,0.00000,0.00000,0.01449,0.00000,0.00000,0.00000,0.00000,A,151605.00
0.10368,57.78220900,12.77346933,57.78220900,12.77346933,16:17:09.102966,0.00502,0.00000,0.00000,-0.00009,-0.02126,0.00872,-0.00169,-0.03181,0.08290,0.00842,0.99503,0.09843,0.00000,0.01114,-0.00122,0.00000,0.00000,0.01449,0.00000,0.00000,0.00000,0.00000,A,151605.00
0.11417,57.78220900,12.77346933,57.78220900,12.77346933,16:17:09.113449,0.00528,0.00000,0.00000,-0.00039,-0.02168,0.00735,-0.00367,-0.03334,0.11376,-0.00079,0.98588,0.10853,0.00000,0.01136,-0.00125,0.00000,0.00000,0.01449,0.00000,0.00000,0.00000,0.00000,A,151605.00
0.17280,57.78220900,12.77346933,57.78220883,12.77346900,16:17:09.172122,0.05350,0.00000,1.50000,-0.00061,-0.02216,0.00505,-0.00123,-0.03319,0.11358,0.00616,0.97624,0.11913,0.00000,0.01159,-0.00130,0.00000,0.00000,0.13600,-0.01976,-0.01853,-2.38826,-2.38826,A,151605.10
0.19534,57.78220899,12.77346932,57.78220883,12.77346900,16:17:09.194621,0.00881,0.00000,0.00000,-0.00076,-0.02638,0.00276,0.00213,-0.03991,0.11383,0.00128,1.00717,0.18995,0.00000,-0.34609,-0.36143,-0.00099,-0.00093,0.13600,-0.01976,-0.01853,-2.38826,-2.38826,A,151605.10
0.20189,57.78220898,12.77346930,57.78220883,12.77346900,16:17:09.201167,0.00518,0.00000,0.00000,-0.00101,-0.02672,-0.00136,-0.00123,-0.03655,0.10614,0.00744,1.01541,0.19631,0.00000,-0.65008,-0.66562,-0.00193,-0.00181,0.13600,-0.01976,-0.01853,-2.38826,-2.38826,A,151605.10
0.21250,57.78220898,12.77346929,57.78220883,12.77346900,16:17:09.211797,0.00538,0.00000,0.00000,-0.00113,-0.02717,0.00139,-0.00718,-0.04204,0.08192,0.01476,1.01382,0.20696,0.00000,-0.90844,-0.92424,-0.00282,-0.00264,0.13600,-0.01976,-0.01853,-2.38826,-2.38826,A,151605.10
0.22265,57.78220897,12.77346927,57.78220883,12.77346900,16:17:09.221929,0.00513,0.00000,0.00000,-0.00119,-0.02757,0.00139,-0.00673,-0.04082,0.08375,0.01867,0.99515,0.21711,0.00000,-1.12801,-1.14404,-0.00367,-0.00344,0.13600,-0.01976,-0.01853,-2.38826,-2.38826,A,151605.10
0.23348,57.78220896,12.77346926,57.78220883,12.77346900,16:17:09.232757,0.00556,0.00000,0.00000,-0.00121,-0.02791,0.00124,-0.00245,-0.04128,0.09418,0.02086,0.98594,0.22788,0.00000,-1.31461,-1.33084,-0.00447,-0.00419,0.13600,-0.01976,-0.01853,-2.38826,-2.38826,A,151605.10
0.28591,57.78220896,12.77346925,57.78220883,12.77346850,16:17:09.285225,0.04759,0.00000,1.50000,-0.00130,-0.02822,0.00261,-0.00245,-0.03960,0.09211,0.01513,0.97271,0.23804,0.00000,-1.47320,-1.48961,-0.00523,-0.00491,0.25468,-0.04940,-0.01853,3.14159,3.14159,A,151605.20
0.30630,57.78220895,12.77346921,57.78220883,12.77346850,16:17:09.305585,0.00846,0.00000,0.00000,-0.00148,-0.03119,0.00322,0.00519,-0.03945,0.09241,-0.00195,1.01894,0.30068,0.00000,-0.77826,-0.79640,-0.00744,-0.00559,0.25468,-0.04940,-0.01853,3.14159,3.14159,A,151605.20
0.31371,57.78220894,12.77346917,57.78220883,12.77346850,16:17:09.312991,0.00530,0.00000,0.00000,-0.00184,-0.03161,0.00169,0.00259,-0.04281,0.09967,-0.00189,1.01766,0.30804,0.00000,-0.18752,-0.20591,-0.00954,-0.00624,0.25468,-0.04940,-0.01853,3.14159,3.14159,A,151605.20
0.32395,57.78220894,12.77346914,57.78220883,12.77346850,16:17:09.323232,0.00514,0.00000,0.00000,-0.00210,-0.03212,0.00215,0.00977,-0.04418,0.09833,0.00403,1.00528,0.31866,0.00000,0.31465,0.29597,-0.01153,-0.00685,0.25468,-0.04940,-0.01853,3.14159,3.14159,A,151605.20
0.33438,57.78220893,12.77346911,57.78220883,12.77346850,16:17:09.333662,0.00517,0.00000,0.00000,-0.00192,-0.03255,-0.00105,0.00213,-0.04953,0.08930,0.03459,0.97649,0.32881,0.00000,0.74153,0.72260,-0.01343,-0.00744,0.25468,-0.04940,-0.01853,3.14159,3.14159,A,151605.20
0.34512,57.78220893,12.77346908,57.78220883,12.77346850,16:17:09.344408,0.00550,0.00000,0.00000,-0.00199,-0.03292,0.00811,-0.00046,-0.04800,0.08046,0.01153,0.95727,0.33952,0.00000,1.10441,1.08527,-0.01523,-0.00799,0.25468,-0.04940,-0.01853,3.14159,3.14159,A,151605.20
0.41913,57.78220892,12.77346905,57.78220850,12.77346717,16:17:09.419071,0.06911,0.00000,1.50000,-0.00230,-0.03317,0.01086,-0.00077,-0.04510,0.09522,-0.00500,0.95983,0.34981,0.00000,1.41288,1.39359,-0.01694,-0.00852,0.37730,-0.12845,-0.05560,-2.70312,-2.70312,A,151605.40
0.43866,57.78220890,12.77346895,57.78220850,12.77346717,16:17:09.437948,0.00760,0.00000,0.00000,-0.00001,-0.03442,0.03086,0.00290,-0.05151,0.09498,0.00573,0.98814,0.43314,0.00000,0.79849,0.77847,-0.02251,-0.01087,0.37730,-0.12845,-0.05560,-2.70312,-2.70312,A,151605.40
0.44658,57.78220888,12.77346886,57.78220850,12.77346717,16:17:09.445858,0.00512,0.00000,0.00000,-0.00020,-0.03442,0.02705,0.00076,-0.04602,0.09638,-0.00201,0.98430,0.44106,0.00000,0.27625,0.25623,-0.02781,-0.01311,0.37730,-0.12845,-0.05560,-2.70312,-2.70312,A,151605.40
0.45726,57.78220886,12.77346878,57.78220850,12.77346717,16:17:09.456542,0.00539,0.00000,0.00000,-0.00011,-0.03442,0.02521,-0.00489,-0.04418,0.05222,0.01305,0.99723,0.45168,0.00000,-0.16765,-0.18767,-0.03284,-0.01523,0.37730,-0.12845,-0.05560,-2.70312,-2.70312,A,151605.40
0.46734,57.78220884,12.77346870,57.78220850,12.77346717,16:17:09.466621,0.00508,0.00000,0.00000,0.00027,-0.03442,0.03193,0.00015,-0.04281,0.04240,0.02788,0.99204,0.46204,0.00000,-0.54497,-0.56499,-0.03762,-0.01725,0.37730,-0.12845,-0.05560,-2.70312,-2.70312,A,151605.40
0.52744,57.78220883,12.77346862,57.78220833,12.77346633,16:17:09.527196,0.05483,0.00000,1.50000,0.00057,-0.03442,0.03835,0.00290,-0.04434,0.06521,0.01818,0.97203,0.47224,0.00000,-0.86569,-0.88571,-0.04216,-0.01917,0.48924,-0.17785,-0.07413,-2.78270,-2.78270,A,151605.50
0.54708,57.78220880,12.77346851,57.78220833,12.77346633,16:17:09.546367,0.00660,0.00000,0.00000,0.00282,-0.03442,0.03682,-0.00138,-0.05686,0.14677,0.00738,0.99058,0.54172,0.00000,-1.15024,-1.17026,-0.04895,-0.02192,0.48924,-0.17785,-0.07413,-2.78270,-2.78270,A,151605.50
0.55599,57.78220878,12.77346840,57.78220833,12.77346633,16:17:09.555516,0.00511,0.00000,0.00000,0.00297,-0.03442,0.03544,-0.00703,-0.05289,0.08912,0.01610,0.99271,0.55070,0.00000,-1.39211,-1.41212,-0.05539,-0.02453,0.48924,-0.17785,-0.07413,-2.78270,-2.78270,A,151605.50
0.56641,57.78220876,12.77346830,57.78220833,12.77346633,16:17:09.565697,0.00513,0.00000,0.00000,0.00322,-0.03442,0.03575,-0.00886,-0.05365,0.06844,0.02068,0.98918,0.56089,0.00000,-1.59769,-1.61771,-0.06151,-0.02701,0.48924,-0.17785,-0.07413,-2.78270,-2.78270,A,151605.50
0.57727,57.78220874,12.77346820,57.78220833,12.77346633,16:17:09.576554,0.00559,0.00000,0.00000,0.00339,-0.03442,0.03697,-0.01039,-0.05396,0.04178,0.01324,0.99027,0.57151,0.00000,-1.77244,-1.79246,-0.06733,-0.02936,0.48924,-0.17785,-0.07413,-2.78270,-2.78270,A,151605.50
0.58757,57.78220872,12.77346810,57.78220833,12.77346633,16:17:09.586851,0.00549,0.00000,0.00000,0.00357,-0.03442,0.03789,-0.00535,-0.05548,0.06063,0.01287,0.98844,0.58222,0.00000,-1.92098,-1.94100,-0.07286,-0.03160,0.48924,-0.17785,-0.07413,-2.78270,-2.78270,A,151605.50
0.64635,57.78220870,12.77346802,57.78220833,12.77346533,16:17:09.645665,0.05364,0.00000,1.50000,0.00391,-0.03442,0.03972,0.00106,-0.05533,0.07332,0.02416,0.98576,0.59236,0.00000,-2.04723,-2.06725,-0.07811,-0.03373,0.60919,-0.23713,-0.07413,3.14159,3.14159,A,151605.60
0.66681,57.78220868,12.77346788,57.78220833,12.77346533,16:17:09.666103,0.00708,0.00000,0.00000,0.00557,-0.03442,0.03239,-0.00108,-0.05961,0.09888,-0.00744,1.01785,0.66108,0.00000,-1.26591,-1.28592,-0.08606,-0.03575,0.60919,-0.23713,-0.07413,3.14159,3.14159,A,151605.60
0.67602,57.78220866,12.77346775,57.78220833,12.77346533,16:17:09.675549,0.00588,0.00000,0.00000,0.00563,-0.03442,0.02750,-0.00459,-0.06007,0.07582,0.01745,1.00205,0.67068,0.00000,-0.60178,-0.62180,-0.09361,-0.03767,0.60919,-0.23713,-0.07413,3.14159,3.14159,A,151605.60
0.68582,57.78220864,12.77346763,57.78220833,12.77346533,16:17:09.685107,0.00522,0.00000,0.00000,0.00591,-0.03442,0.02766,-0.01054,-0.06251,0.06204,0.03093,0.99631,0.68023,0.00000,-0.03727,-0.05729,-0.10079,-0.03949,0.60919,-0.23713,-0.07413,3.14159,3.14159,A,151605.60
0.69660,57.78220863,12.77346752,57.78220833,12.77346533,16:17:09.695887,0.00560,0.00000,0.00000,0.00649,-0.03442,0.02567,-0.00459,-0.06144,0.02794,0.04978,0.97252,0.69104,0.00000,0.44256,0.42254,-0.10760,-0.04122,0.60919,-0.23713,-0.07413,3.14159,3.14159,A,151605.60
0.70668,57.78220861,12.77346741,57.78220833,12.77346533,16:17:09.705964,0.00528,0.00000,0.00000,0.00695,-0.03442,0.03117,-0.00062,-0.06190,0.08577,0.03934,0.94562,0.70099,0.00000,0.85042,0.83040,-0.11408,-0.04287,0.60919,-0.23713,-0.07413,3.14159,3.14159,A,151605.60
0.76648,57.78220860,12.77346731,57.78220800,12.77346433,16:17:09.765788,0.05467,0.00000,1.50000,0.00691,-0.03442,0.03132,0.00259,-0.06251,0.09058,0.00634,0.94416,0.71169,0.00000,1.19710,1.17708,-0.12023,-0.04443,0.72917,-0.29641,-0.11119,-2.58283,-2.58283,A,151605.70
0.78281,57.78220857,12.77346716,57.78220800,12.77346433,16:17:09.782096,0.00681,0.00000,0.00000,0.00829,-0.03442,0.02170,-0.00673,-0.05747,0.07533,0.03044,0.98369,0.77656,0.00000,0.63311,0.61309,-0.12904,-0.04777,0.72917,-0.29641,-0.11119,-2.58283,-2.58283,A,151605.70
0.79180,57.78220854,12.77346702,57.78220800,12.77346433,16:17:09.791091,0.00539,0.00000,0.00000,0.00823,-0.03442,0.02491,-0.00581,-0.06007,0.04660,0.01275,0.98728,0.78620,0.00000,0.15372,0.13370,-0.13741,-0.05094,0.72917,-0.29641,-0.11119,-2.58283,-2.58283,A,151605.70
0.80186,57.78220851,12.77346688,57.78220800,12.77346433,16:17:09.801142,0.00521,0.00000,0.00000,0.00851,-0.03442,0.02139,0.00396,-0.05884,0.04416,0.03733,0.98972,0.79628,0.00000,-0.25376,-0.27378,-0.14536,-0.05395,0.72917,-0.29641,-0.11119,-2.58283,-2.58283,A,151605.70
0.81240,57.78220849,12.77346675,57.78220800,12.77346433,16:17:09.811688,0.00535,0.00000,0.00000,0.00868,-0.03442,0.02445,0.00702,-0.05869,0.08827,0.02617,0.96740,0.80687,0.00000,-0.60012,-0.62013,-0.15291,-0.05682,0.72917,-0.29641,-0.11119,-2.58283,-2.58283,A,151605.70
0.82256,57.78220846,12.77346663,57.78220800,12.77346433,16:17:09.821843,0.00512,0.00000,0.00000,0.00852,-0.03442,0.02323,0.00259,-0.06251,0.13792,0.00738,0.97149,0.81705,0.00000,-0.89452,-0.91454,-0.16009,-0.05953,0.72917,-0.29641,-0.11119,-2.58283,-2.58283,A,151605.70
0.89558,57.78220844,12.77346652,57.78220750,12.77346183,16:17:09.894909,0.06773,7.41589,1.50000,0.00855,-0.03442,0.02750,-0.00978,-0.06098,0.07448,0.00146,0.96606,0.83561,0.00000,-1.14476,-1.16478,-0.16690,-0.06212,0.86625,-0.44462,-0.16679,-2.78270,-2.78270,A,151605.90
0.92112,57.78220839,12.77346628,57.78220750,12.77346183,16:17:09.920400,0.01268,7.41589,1.50000,0.00950,-0.03436,0.01544,-0.00260,-0.06434,0.03745,0.00921,1.01370,0.91545,0.30000,-1.38746,-1.40744,-0.18079,-0.06735,0.86625,-0.44462,-0.16679,-2.78270,-2.78270,A,151605.90
0.94596,57.78220829,12.77346608,57.78220750,12.77346183,16:17:09.945245,0.01462,7.41589,1.50000,0.00977,-0.03393,0.01620,0.00519,-0.05808,0.12133,0.01964,0.99418,0.93973,0.54000,-1.59396,-1.61369,-0.19293,-0.07871,0.86625,-0.44462,-0.16679,-2.78270,-2.78270,A,151605.90
1.02010,57.78220815,12.77346586,57.78220717,12.77346050,16:17:10.020301,0.06262,7.41589,1.50000,0.00985,-0.03357,0.01590,-0.00001,-0.06159,0.04465,0.00756,0.96770,0.96422,0.73200,-1.76964,-1.78916,-0.20599,-0.09430,0.98211,-0.52366,-0.20386,-2.70312,-2.70312,A,151606.00
1.04371,57.78220766,12.77346541,57.78220717,12.77346050,16:17:10.042991,0.00953,7.41589,1.50000,0.01180,-0.03357,0.02811,-0.00260,-0.06740,0.05100,0.02129,1.00211,1.03832,0.88560,-1.90804,-1.92756,-0.23272,-0.14863,0.98211,-0.52366,-0.20386,-2.70312,-2.70312,A,151606.00
1.05768,57.78220755,12.77346510,57.78220717,12.77346050,16:17:10.056963,0.01281,7.41589,1.50000,0.01240,-0.03357,0.02873,0.00167,-0.05991,0.04008,0.04447,1.00827,1.05205,1.00848,-2.02463,-2.04415,-0.25076,-0.16078,0.98211,-0.52366,-0.20386,-2.70312,-2.70312,A,151606.00
1.07856,57.78220739,12.77346473,57.78220717,12.77346050,16:17:10.077839,0.00850,7.41589,1.50000,0.01289,-0.03354,0.03438,-0.00566,-0.05945,0.09162,0.01592,0.99643,1.07299,1.10678,-2.12395,-2.14346,-0.27265,-0.17902,0.98211,-0.52366,-0.20386,-2.70312,-2.70312,A,151606.00
1.14324,57.78220729,12.77346441,57.78220717,12.77345917,16:17:10.142549,0.06242,7.41589,1.50000,0.01356,-0.03345,0.03315,-0.00657,-0.06190,0.04276,0.04563,0.98600,1.08668,1.18543,-2.20823,-2.22768,-0.29184,-0.19056,1.10477,-0.60270,-0.20386,3.14159,3.14159,A,151606.10
1.16914,57.78220669,12.77346329,57.78220717,12.77345917,16:17:10.168426,0.01233,7.41589,1.50000,0.01575,-0.03009,0.03163,-0.00917,-0.07961,0.10266,0.01940,1.01400,1.16349,1.24834,-1.40529,-1.42278,-0.35801,-0.25689,1.10477,-0.60270,-0.20386,3.14159,3.14159,A,151606.10
1.18862,57.78220654,12.77346314,57.78220717,12.77345917,16:17:10.187911,0.01067,7.41589,1.50000,0.01609,-0.02924,0.02552,-0.01986,-0.08083,0.05716,0.02721,1.02883,1.18194,1.29867,-0.72116,-0.73816,-0.36738,-0.27344,1.10477,-0.60270,-0.20386,3.14159,3.14159,A,151606.10
1.26200,57.78220642,12.77346325,57.78220683,12.77345750,16:17:10.262095,0.06071,7.41589,1.50000,0.01716,-0.02850,0.03086,-0.01665,-0.07045,0.05844,0.05819,0.96081,1.20490,1.33894,-0.13982,-0.15640,-0.36081,-0.28664,1.22173,-0.70151,-0.24092,-2.78270,-2.78270,A,151606.20
1.28833,57.78220631,12.77346451,57.78220683,12.77345750,16:17:10.287641,0.01119,7.41589,1.50000,0.01908,-0.02663,0.02170,-0.00596,-0.06846,0.03581,0.05600,0.97484,1.28021,1.37115,-0.53600,-0.55149,-0.28576,-0.29888,1.22173,-0.70151,-0.24092,-2.78270,-2.78270,A,151606.20
1.31330,57.78220619,12.77346461,57.78220683,12.77345750,16:17:10.312578,0.01335,7.41589,1.50000,0.01918,-0.02576,0.01193,0.00305,-0.07549,0.08778,0.02336,0.98509,1.30766,1.39692,-0.87140,-0.88638,-0.28026,-0.31215,1.22173,-0.70151,-0.24092,-2.78270,-2.78270,A,151606.20
1.38437,57.78220603,12.77346455,57.78220650,12.77345600,16:17:10.383681,0.05922,7.41589,1.50000,0.01900,-0.02527,0.00093,-0.02093,-0.07106,0.05417,0.02416,0.95947,1.33114,1.41754,-1.15646,-1.17116,-0.28337,-0.33059,1.34787,-0.79043,-0.27799,-2.74667,-2.74667,A,151606.30
1.40583,57.78220530,12.77346472,57.78220650,12.77345600,16:17:10.405120,0.00878,7.41589,1.50000,0.01804,-0.02525,-0.02014,0.01160,-0.07915,-0.00933,0.06759,1.01327,1.40015,1.43403,-1.39457,-1.40925,-0.27349,-0.41137,1.34787,-0.79043,-0.27799,-2.74667,-2.74667,A,151606.30
1.41840,57.78220523,12.77346432,57.78220650,12.77345600,16:17:10.417690,0.01114,7.41589,1.50000,0.01807,-0.02525,-0.02243,0.01572,-0.08251,0.06801,0.05716,0.97942,1.41276,1.44722,-1.59546,-1.61014,-0.29704,-0.41882,1.34787,-0.79043,-0.27799,-2.74667,-2.74667,A,151606.30
1.44468,57.78220500,12.77346388,57.78220650,12.77345600,16:17:10.443977,0.01435,7.41589,1.50000,0.01737,-0.02525,-0.02854,-0.00795,-0.08160,0.08162,0.03819,0.95575,1.43904,1.45778,-1.76660,-1.78128,-0.32302,-0.44504,1.34787,-0.79043,-0.27799,-2.74667,-2.74667,A,151606.30
1.52698,57.78220488,12.77346341,57.78220600,12.77345267,16:17:10.526546,0.07257,7.41589,1.50000,0.01706,-0.02525,-0.03007,-0.00382,-0.08068,-0.00360,0.05033,0.97691,1.45678,1.46622,-1.91184,-1.92652,-0.35099,-0.45820,1.48544,-0.98804,-0.33358,-2.86733,-2.86733,A,151606.50
1.55022,57.78220394,12.77346218,57.78220600,12.77345267,16:17:10.549507,0.00876,1.02387,1.02387,0.01195,-0.02525,-0.05237,-0.01070,-0.09137,0.04636,0.00098,0.97679,1.54455,1.37775,-2.05528,-2.06997,-0.42405,-0.56290,1.48544,-0.98804,-0.33358,-2.86733,-2.86733,A,151606.50
1.55708,57.78220399,12.77346165,57.78220600,12.77345267,16:17:10.556359,0.00541,1.02387,1.02387,0.01073,-0.02525,-0.06184,-0.00871,-0.08755,0.02794,-0.01824,0.95398,1.55149,1.30698,-2.17501,-2.18969,-0.45527,-0.55698,1.48544,-0.98804,-0.33358,-2.86733,-2.86733,A,151606.50
1.56717,57.78220402,12.77346110,57.78220600,12.77345267,16:17:10.566446,0.00509,1.02387,1.02387,0.00913,-0.02525,-0.06733,0.00060,-0.08664,-0.00189,-0.02666,0.95514,1.56187,1.25035,-2.27686,-2.29154,-0.48790,-0.55422,1.48544,-0.98804,-0.33358,-2.86733,-2.86733,A,151606.50
1.57783,57.78220405,12.77346057,57.78220600,12.77345267,16:17:10.577114,0.00523,1.02387,1.02387,0.00823,-0.02525,-0.07772,0.00641,-0.08343,0.03294,0.02294,0.95331,1.57224,1.20506,-2.36343,-2.37811,-0.51965,-0.55087,1.48544,-0.98804,-0.33358,-2.86733,-2.86733,A,151606.50
1.63949,57.78220408,12.77346005,57.78220567,12.77345083,16:17:10.639076,0.05648,1.02387,1.50000,0.00749,-0.02527,-0.07283,0.00687,-0.08878,0.07033,0.03331,0.97033,1.58325,1.16882,-2.43701,-2.45171,-0.55048,-0.54709,1.60040,-1.09672,-0.37065,-2.81293,-2.81293,A,151606.60
1.65934,57.78220373,12.77345861,57.78220567,12.77345083,16:17:10.658628,0.00869,1.02387,1.02387,0.00467,-0.02567,-0.03816,-0.00199,-0.06969,0.05826,0.01610,0.98735,1.65296,1.13983,-2.49264,-2.50757,-0.63575,-0.58610,1.60040,-1.09672,-0.37065,-2.81293,-2.81293,A,151606.60
1.66600,57.78220380,12.77345815,57.78220567,12.77345083,16:17:10.665283,0.00517,1.02387,1.02387,0.00446,-0.02567,-0.03923,-0.00184,-0.06846,0.04703,0.03087,0.95703,1.66042,1.11664,-2.53855,-2.55347,-0.66301,-0.57842,1.60040,-1.09672,-0.37065,-2.81293,-2.81293,A,151606.60
1.67659,57.78220385,12.77345766,57.78220567,12.77345083,16:17:10.675880,0.00536,1.02387,1.02387,0.00352,-0.02567,-0.03450,-0.00169,-0.06953,0.00073,-0.01177,0.97033,1.67104,1.09808,-2.57765,-2.59257,-0.69228,-0.57309,1.60040,-1.09672,-0.37065,-2.81293,-2.81293,A,151606.60
1.68679,57.78220389,12.77345718,57.78220567,12.77345083,16:17:10.686075,0.00517,1.02387,1.02387,0.00376,-0.02567,-0.03465,0.00717,-0.06434,0.01586,0.06222,0.95575,1.68123,1.08324,-2.61088,-2.62581,-0.72022,-0.56769,1.60040,-1.09672,-0.37065,-2.81293,-2.81293,A,151606.60
1.69781,57.78220394,12.77345673,57.78220567,12.77345083,16:17:10.697093,0.00578,1.02387,1.02387,0.00366,-0.02567,-0.02778,0.01374,-0.06358,0.00695,0.03751,0.96008,1.69221,1.07137,-2.63913,-2.65406,-0.74705,-0.56237,1.60040,-1.09672,-0.37065,-2.81293,-2.81293,A,151606.60
1.75716,57.78220399,12.77345632,57.78220533,12.77344883,16:17:10.756478,0.05473,1.02387,1.50000,0.00350,-0.02561,-0.02396,0.01572,-0.05762,0.05459,0.03044,0.97759,1.70223,1.06187,-2.66313,-2.67802,-0.77169,-0.55658,1.71892,-1.21529,-0.40771,-2.83860,-2.83860,A,151606.70
1.77807,57.78220378,12.77345490,57.78220533,12.77344883,16:17:10.777350,0.00776,1.02387,1.02387,0.00161,-0.01305,-0.03099,-0.01039,-0.06617,0.07021,0.04221,0.96142,1.77243,1.05427,-2.68969,-2.69727,-0.85561,-0.58000,1.71892,-1.21529,-0.40771,-2.83860,-2.83860,A,151606.70
1.78583,57.78220384,12.77345451,57.78220533,12.77344883,16:17:10.785112,0.00522,1.02387,1.02387,0.00185,-0.01124,-0.02854,-0.00825,-0.06755,0.06826,0.05209,0.93403,1.78023,1.04819,-2.71110,-2.71764,-0.87875,-0.57384,1.71892,-1.21529,-0.40771,-2.83860,-2.83860,A,151606.70
1.79666,57.78220388,12.77345410,57.78220533,12.77344883,16:17:10.795958,0.00566,1.02387,1.02387,0.00176,-0.00909,-0.02625,-0.01039,-0.06465,0.03934,0.03593,0.94007,1.79082,1.04332,-2.72951,-2.73479,-0.90333,-0.56904,1.71892,-1.21529,-0.40771,-2.83860,-2.83860,A,151606.70
1.80653,57.78220393,12.77345371,57.78220533,12.77344883,16:17:10.805812,0.00513,1.02387,1.02387,0.00157,-0.00705,-0.01999,-0.01207,-0.05777,-0.00830,0.02580,0.99241,1.80101,1.03943,-2.74532,-2.74941,-0.92630,-0.56414,1.71892,-1.21529,-0.40771,-2.83860,-2.83860,A,151606.70
1.81722,57.78220397,12.77345333,57.78220533,12.77344883,16:17:10.816498,0.00542,1.02387,1.02387,0.00118,-0.00501,-0.02060,0.00381,-0.05090,-0.00146,0.01409,1.00174,1.81162,1.03632,-2.75892,-2.76183,-0.94861,-0.55958,1.71892,-1.21529,-0.40771,-2.83860,-2.83860,A,151606.70
1.87716,57.78220401,12.77345298,57.78220500,12.77344700,16:17:10.877046,0.05495,1.02387,1.50000,0.00063,-0.00311,-0.02595,0.00839,-0.04434,0.05295,0.00634,0.99387,1.82202,1.03383,-2.77063,-2.77244,-0.96957,-0.55502,1.83873,-1.32397,-0.44478,-2.81293,-2.81293,A,151606.80
1.89869,57.78220384,12.77345162,57.78220500,12.77344700,16:17:10.897972,0.00916,1.02387,1.02387,-0.00029,0.00679,-0.00609,-0.02322,-0.03639,0.04325,-0.00665,0.96459,1.89225,1.03184,-2.77773,-2.77378,-1.05000,-0.57377,1.83873,-1.32397,-0.44478,-2.81293,-2.81293,A,151606.80
1.90532,57.78220388,12.77345132,57.78220500,12.77344700,16:17:10.904604,0.00550,1.02387,1.02387,-0.00058,0.00787,-0.00304,-0.01757,-0.03731,0.02422,0.00647,0.97081,1.89971,1.03024,-2.78367,-2.77910,-1.06789,-0.56894,1.83873,-1.32397,-0.44478,-2.81293,-2.81293,A,151606.80
1.91535,57.78220391,12.77345098,57.78220500,12.77344700,16:17:10.914624,0.00513,1.02387,1.02387,-0.00047,0.00931,-0.00365,-0.00779,-0.03807,-0.02111,0.03416,0.98381,1.91004,1.02897,-2.78882,-2.78341,-1.08824,-0.56560,1.83873,-1.32397,-0.44478,-2.81293,-2.81293,A,151606.80
1.92582,57.78220394,12.77345065,57.78220500,12.77344700,16:17:10.925101,0.00521,1.02387,1.02387,-0.00051,0.01078,-0.00243,0.00213,-0.03838,0.04270,0.02361,0.97667,1.92024,1.02795,-2.79332,-2.78705,-1.10775,-0.56244,1.83873,-1.32397,-0.44478,-2.81293,-2.81293,A,151606.80
1.93661,57.78220397,12.77345033,57.78220500,12.77344700,16:17:10.935900,0.00559,1.02387,1.02387,-0.00050,0.01231,0.00093,0.00137,-0.03884,0.05033,0.02519,1.00058,1.93104,1.02713,-2.79726,-2.79011,-1.12657,-0.55953,1.83873,-1.32397,-0.44478,-2.81293,-2.81293,A,151606.80
1.99695,57.78220399,12.77345004,57.78220467,12.77344483,16:17:10.996262,0.05553,1.02387,1.50000,-0.00041,0.01384,0.00429,0.00473,-0.03471,0.04654,0.02867,1.00815,1.94100,1.02648,-2.80074,-2.79270,-1.14392,-0.55653,1.95784,-1.45242,-0.48184,-2.86066,-2.86066,A,151606.90
2.01144,57.78220384,12.77344881,57.78220467,12.77344483,16:17:11.010732,0.00789,1.02387,1.02387,-0.00000,0.02437,0.01697,-0.00627,-0.02250,0.01025,-0.01739,0.98619,2.00503,1.02596,-2.81120,-2.79703,-1.21641,-0.57356,1.95784,-1.45242,-0.48184,-2.86066,-2.86066,A,151606.90
2.02137,57.78220387,12.77344852,57.78220467,12.77344483,16:17:11.021348,0.00742,1.02387,1.02387,0.00058,0.02576,0.01574,-0.00459,-0.02494,-0.00226,0.05636,1.00156,2.01375,1.02554,-2.82076,-2.80578,-1.23360,-0.57091,1.95784,-1.45242,-0.48184,-2.86066,-2.86066,A,151606.90
2.03048,57.78220388,12.77344819,57.78220467,12.77344483,16:17:11.029764,0.00598,1.02387,1.02387,0.00019,0.02726,0.02659,0.00366,-0.02418,0.01098,-0.01757,0.98521,2.02490,1.02520,-2.82894,-2.81309,-1.25315,-0.56946,1.95784,-1.45242,-0.48184,-2.86066,-2.86066,A,151606.90
2.04005,57.78220390,12.77344791,57.78220467,12.77344483,16:17:11.039591,0.00515,1.02387,1.02387,0.00059,0.02842,0.02231,0.00748,-0.02326,0.04258,0.03904,0.97698,2.03474,1.02494,-2.83602,-2.81949,-1.27030,-0.56753,1.95784,-1.45242,-0.48184,-2.86066,-2.86066,A,151606.90
2.05045,57.78220391,12.77344762,57.78220467,12.77344483,16:17:11.049722,0.00515,1.02387,1.02387,0.00032,0.02943,0.01513,0.00458,-0.02418,0.01970,-0.00043,0.98064,2.04490,1.02472,-2.84210,-2.82498,-1.28715,-0.56582,1.95784,-1.45242,-0.48184,-2.86066,-2.86066,A,151606.90
2.11827,57.78220393,12.77344735,57.78220417,12.77344083,16:17:11.117587,0.06257,1.02387,1.50000,0.00081,0.03031,0.01391,0.00274,-0.02738,0.08430,0.04953,0.97399,2.05551,1.02455,-2.84734,-2.82971,-1.30337,-0.56423,2.08348,-1.68955,-0.53744,-2.91129,-2.91129,A,151607.10
2.13977,57.78220373,12.77344582,57.78220417,12.77344083,16:17:11.139049,0.00888,1.02387,1.02387,0.00146,0.03204,-0.00167,0.00259,-0.03212,0.01574,0.07936,0.98783,2.13439,1.02442,-2.85796,-2.83933,-1.39369,-0.58579,2.08348,-1.68955,-0.53744,-2.91129,-2.91129,A,151607.10
2.14653,57.78220374,12.77344550,57.78220417,12.77344083,16:17:11.145806,0.00560,1.02387,1.02387,0.00234,0.03204,-0.00243,0.00259,-0.03624,0.03471,0.08808,0.99631,2.14099,1.02431,-2.86864,-2.85001,-1.41291,-0.58475,2.08348,-1.68955,-0.53744,-2.91129,-2.91129,A,151607.10
2.15672,57.78220374,12.77344514,57.78220417,12.77344083,16:17:11.156006,0.00540,1.21735,1.21735,0.00304,0.03204,0.00063,0.00396,-0.03273,0.00891,0.07546,0.97185,2.15116,1.06291,-2.87764,-2.85900,-1.43436,-0.58467,2.08348,-1.68955,-0.53744,-2.91129,-2.91129,A,151607.10
2.16682,57.78220374,12.77344478,57.78220417,12.77344083,16:17:11.166100,0.00512,1.21735,1.21735,0.00321,0.03204,0.01437,0.00106,-0.02983,0.08595,0.03172,0.94410,2.16149,1.09380,-2.88526,-2.86663,-1.45542,-0.58472,2.08348,-1.68955,-0.53744,-2.91129,-2.91129,A,151607.10
2.17751,57.78220374,12.77344444,57.78220417,12.77344083,16:17:11.176794,0.00541,1.21735,1.21735,0.00310,0.03204,0.00765,-0.00841,-0.02631,0.07100,0.01818,0.96636,2.17191,1.11851,-2.89174,-2.87311,-1.47576,-0.58479,2.08348,-1.68955,-0.53744,-2.91129,-2.91129,A,151607.10
2.23582,57.78220374,12.77344411,57.78220383,12.77343867,16:17:11.236026,0.05331,1.21735,1.50000,0.00293,0.03204,-0.00075,-0.00886,-0.02082,0.06112,0.02050,0.95776,2.18232,1.13828,-2.89725,-2.87861,-1.49500,-0.58478,2.19926,-1.81799,-0.57451,-2.86066,-2.86066,A,151607.20
2.25667,57.78220358,12.77344266,57.78220383,12.77343867,16:17:11.255959,0.00693,1.21735,1.21735,0.00176,0.03204,-0.00884,-0.01238,-0.03090,0.04776,-0.00634,0.97905,2.25107,1.15409,-2.89275,-2.87411,-1.58108,-0.60309,2.19926,-1.81799,-0.57451,-2.86066,-2.86066,A,151607.20
2.26574,57.78220357,12.77344233,57.78220383,12.77343867,16:17:11.265025,0.00561,1.21735,1.21735,0.00162,0.03204,-0.01068,-0.01558,-0.02586,0.00811,0.02721,0.99198,2.26012,1.16674,-2.89053,-2.87190,-1.60057,-0.60376,2.19926,-1.81799,-0.57451,-2.86066,-2.86066,A,151607.20
2.27582,57.78220356,12.77344200,57.78220383,12.77343867,16:17:11.275104,0.00518,1.21735,1.21735,0.00134,0.03204,-0.00793,-0.00428,-0.02693,0.00372,0.01641,1.00674,2.27051,1.17686,-2.88862,-2.86998,-1.62032,-0.60475,2.19926,-1.81799,-0.57451,-2.86066,-2.86066,A,151607.20
2.28612,57.78220355,12.77344168,57.78220383,12.77343867,16:17:11.285406,0.00525,1.21735,1.21735,0.00122,0.03204,-0.00808,-0.00046,-0.02173,0.01458,0.02708,0.99192,2.28054,1.18496,-2.88699,-2.86835,-1.63910,-0.60571,2.19926,-1.81799,-0.57451,-2.86066,-2.86066,A,151607.20
2.29701,57.78220354,12.77344138,57.78220383,12.77343867,16:17:11.296288,0.00574,1.21735,1.21735,0.00133,0.03204,-0.00945,-0.01146,-0.02326,0.01726,0.04496,1.02254,2.29112,1.19144,-2.88559,-2.86696,-1.65729,-0.60675,2.19926,-1.81799,-0.57451,-2.86066,-2.86066,A,151607.20
2.34618,57.78220354,12.77344109,57.78220350,12.77343650,16:17:11.345484,0.04450,1.21735,1.50000,0.00120,0.03204,-0.01419,-0.00520,-0.02861,0.06789,0.03117,1.02431,2.30147,1.19662,-2.88442,-2.86579,-1.67407,-0.60760,2.31811,-1.94644,-0.61157,-2.86066,-2.86066,A,151607.30
2.35751,57.78220340,12.77343998,57.78220350,12.77343650,16:17:11.356803,0.00612,1.21735,1.21735,0.00070,0.03204,-0.00884,0.00045,-0.02845,0.05130,0.02446,0.94263,2.35133,1.20076,-2.88229,-2.86366,-1.74026,-0.62267,2.31811,-1.94644,-0.61157,-2.86066,-2.86066,A,151607.30
2.36690,57.78220338,12.77343966,57.78220350,12.77343650,16:17:11.366182,0.00512,1.21735,1.21735,0.00054,0.03204,-0.01068,-0.00734,-0.02845,0.00152,0.02568,0.99863,2.36159,1.20408,-2.88162,-2.86299,-1.75899,-0.62452,2.31811,-1.94644,-0.61157,-2.86066,-2.86066,A,151607.30
2.37771,57.78220336,12.77343934,57.78220350,12.77343650,16:17:11.376985,0.00534,1.21735,1.21735,0.00013,0.03204,-0.01342,0.00335,-0.02967,0.01812,0.01104,1.03852,2.37200,1.20673,-2.88103,-2.86239,-1.77787,-0.62659,2.31811,-1.94644,-0.61157,-2.86066,-2.86066,A,151607.30
2.38792,57.78220335,12.77343904,57.78220350,12.77343650,16:17:11.387199,0.00515,1.21735,1.21735,-0.00011,0.03204,-0.01892,0.00122,-0.02769,0.07204,0.02635,1.03627,2.38260,1.20886,-2.88052,-2.86189,-1.79560,-0.62851,2.31811,-1.94644,-0.61157,-2.86066,-2.86066,A,151607.30
2.39930,57.78220333,12.77343874,57.78220350,12.77343650,16:17:11.398580,0.00583,1.21735,1.21735,0.00002,0.03204,-0.01724,-0.01161,-0.02631,0.02605,0.05344,1.06573,2.39393,1.21055,-2.88007,-2.86143,-1.81370,-0.63069,2.31811,-1.94644,-0.61157,-2.86066,-2.86066,A,151607.30
2.40956,57.78220331,12.77343847,57.78220350,12.77343650,16:17:11.408841,0.00545,1.21735,1.21735,-0.00023,0.03204,-0.01144,-0.00841,-0.02280,-0.00293,0.01989,1.03401,2.40393,1.21191,-2.87972,-2.86108,-1.82937,-0.63234,2.31811,-1.94644,-0.61157,-2.86066,-2.86066,A,151607.30
2.45163,57.78220330,12.77343822,57.78220333,12.77343450,16:17:11.450930,0.03712,1.21735,1.50000,0.00039,0.03204,-0.00823,-0.00749,-0.02234,0.04551,0.07412,0.98832,2.41433,1.21300,-2.87941,-2.86078,-1.84442,-0.63395,2.43099,-2.06500,-0.63010,-2.98654,-2.98654,A,151607.40
2.46278,57.78220318,12.77343726,57.78220333,12.77343450,16:17:11.462059,0.00543,1.21735,1.21735,-0.00043,0.03204,-0.01953,-0.00856,-0.02799,0.01092,0.02769,0.93184,2.45724,1.21387,-2.89709,-2.87846,-1.90121,-0.64696,2.43099,-2.06500,-0.63010,-2.98654,-2.98654,A,151607.40
2.47421,57.78220316,12.77343695,57.78220333,12.77343450,16:17:11.473483,0.00587,1.21735,1.21735,-0.00094,0.03204,-0.01785,-0.01238,-0.02586,0.02342,0.00756,0.94886,2.46861,1.21456,-2.91303,-2.89440,-1.91983,-0.64892,2.43099,-2.06500,-0.63010,-2.98654,-2.98654,A,151607.40
2.48386,57.78220315,12.77343668,57.78220333,12.77343450,16:17:11.483140,0.00512,1.21735,1.21735,-0.00152,0.03204,-0.01862,-0.00657,-0.02051,-0.03294,0.00073,0.98423,2.47856,1.21512,-2.92663,-2.90799,-1.93593,-0.65021,2.43099,-2.06500,-0.63010,-2.98654,-2.98654,A,151607.40
2.49420,57.78220314,12.77343641,57.78220333,12.77343450,16:17:11.493485,0.00522,1.21735,1.21735,-0.00147,0.03204,-0.02091,0.00763,-0.02631,0.00549,0.04502,1.02151,2.48864,1.21557,-2.93817,-2.91954,-1.95170,-0.65143,2.43099,-2.06500,-0.63010,-2.98654,-2.98654,A,151607.40
2.50498,57.78220313,12.77343615,57.78220333,12.77343450,16:17:11.504263,0.00559,1.21735,1.21735,-0.00166,0.03207,-0.02091,0.00916,-0.02357,0.02525,0.02977,1.02590,2.49922,1.21592,-2.94798,-2.92933,-1.96702,-0.65254,2.43099,-2.06500,-0.63010,-2.98654,-2.98654,A,151607.40
2.51489,57.78220312,12.77343591,57.78220333,12.77343450,16:17:11.514164,0.00510,1.21735,1.21735,-0.00218,0.03218,-0.02396,0.00870,-0.02479,0.01867,0.00860,1.06604,2.50957,1.21621,-2.95632,-2.93761,-1.98161,-0.65351,2.43099,-2.06500,-0.63010,-2.98654,-2.98654,A,151607.40
2.52564,57.78220312,12.77343567,57.78220333,12.77343450,16:17:11.524919,0.00527,1.21735,1.21735,-0.00266,0.03232,-0.03068,0.00564,-0.02372,-0.02611,0.01635,1.06988,2.52000,1.21643,-2.96342,-2.94462,-1.99557,-0.65436,2.43099,-2.06500,-0.63010,-2.98654,-2.98654,A,151607.40
2.56845,57.78220311,12.77343545,57.78220283,12.77343233,16:17:11.567754,0.03769,1.21735,1.50000,-0.00303,0.03249,-0.03114,0.01374,-0.02845,0.03959,0.02336,1.02193,2.53058,1.21662,-2.96948,-2.95058,-2.00867,-0.65507,2.54725,-2.19345,-0.68570,-2.73309,-2.73309,A,151607.50
2.57942,57.78220301,12.77343450,57.78220283,12.77343233,16:17:11.578710,0.00535,1.21735,1.21735,-0.00501,0.03260,-0.04152,-0.00306,-0.03426,0.04020,0.01171,0.91293,2.57406,1.21676,-2.93565,-2.91668,-2.06527,-0.66576,2.54725,-2.19345,-0.68570,-2.73309,-2.73309,A,151607.50
2.59025,57.78220298,12.77343422,57.78220283,12.77343233,16:17:11.589530,0.00552,1.21735,1.21735,-0.00555,0.03260,-0.04427,-0.00856,-0.02723,0.01921,0.01732,0.92281,2.58467,1.21688,-2.90785,-2.88889,-2.08159,-0.66903,2.54725,-2.19345,-0.68570,-2.73309,-2.73309,A,151607.50
2.60129,57.78220295,12.77343396,57.78220283,12.77343233,16:17:11.600570,0.00585,1.21735,1.21735,-0.00645,0.03260,-0.04595,-0.00153,-0.03074,-0.01775,-0.00372,0.96728,2.59564,1.21697,-2.88422,-2.86525,-2.09720,-0.67244,2.54725,-2.19345,-0.68570,-2.73309,-2.73309,A,151607.50
2.61098,57.78220292,12.77343373,57.78220283,12.77343233,16:17:11.610263,0.00514,1.21735,1.21735,-0.00628,0.03260,-0.04244,0.01053,-0.03059,0.04782,0.06027,0.97521,2.60567,1.21705,-2.86416,-2.84520,-2.11083,-0.67561,2.54725,-2.19345,-0.68570,-2.73309,-2.73309,A,151607.50
2.62167,57.78220289,12.77343350,57.78220283,12.77343233,16:17:11.620955,0.00525,1.21735,1.21735,-0.00684,0.03260,-0.03954,0.00366,-0.02799,0.05344,0.01202,1.01864,2.61607,1.21711,-2.84709,-2.82813,-2.12450,-0.67902,2.54725,-2.19345,-0.68570,-2.73309,-2.73309,A,151607.50
2.63210,57.78220286,12.77343328,57.78220283,12.77343233,16:17:11.631696,0.00528,1.21735,1.21735,-0.00735,0.03260,-0.03878,0.00900,-0.02983,0.06057,0.01549,1.03407,2.62679,1.21715,-2.83258,-2.81362,-2.13747,-0.68245,2.54725,-2.19345,-0.68570,-2.73309,-2.73309,A,151607.50
2.64238,57.78220283,12.77343308,57.78220283,12.77343233,16:17:11.641661,0.00516,1.21735,1.21735,-0.00839,0.03260,-0.03297,0.00793,-0.03227,0.08851,-0.02806,1.04597,2.63683,1.21719,-2.82026,-2.80130,-2.14931,-0.68569,2.54725,-2.19345,-0.68570,-2.73309,-2.73309,A,151607.50
2.70449,57.78220280,12.77343288,57.78220233,12.77342800,16:17:11.703800,0.05687,1.21735,1.50000,-0.00905,0.03260,-0.03832,0.00091,-0.03029,0.08912,0.00299,1.00845,2.64745,1.21722,-2.80978,-2.79081,-2.16089,-0.68900,2.67550,-2.45034,-0.74130,-2.92845,-2.92845,A,151607.70
2.71507,57.78220256,12.77343154,57.78220233,12.77342800,16:17:11.714346,0.00525,1.39329,1.39329,-0.01094,0.03260,-0.02259,0.00320,-0.04082,0.00323,-0.01202,0.96368,2.70971,1.25244,-2.82866,-2.80969,-2.24075,-0.71555,2.67550,-2.45034,-0.74130,-2.92845,-2.92845,A,151607.70
2.72599,57.78220252,12.77343120,57.78220233,12.77342800,16:17:11.725277,0.00555,1.39329,1.39329,-0.01104,0.03260,-0.02259,0.01435,-0.04159,0.04612,0.02617,0.94227,2.72008,1.28061,-2.84621,-2.82725,-2.26085,-0.72015,2.67550,-2.45034,-0.74130,-2.92845,-2.92845,A,151607.70
2.73798,57.78220248,12.77343084,57.78220233,12.77342800,16:17:11.737260,0.00714,1.39329,1.39329,-0.01111,0.03260,-0.01831,0.01007,-0.03639,0.08473,0.02751,0.95014,2.73233,1.30315,-2.86109,-2.84213,-2.28177,-0.72493,2.67550,-2.45034,-0.74130,-2.92845,-2.92845,A,151607.70
2.74640,57.78220245,12.77343057,57.78220233,12.77342800,16:17:11.745679,0.00516,1.39329,1.39329,-0.01159,0.03260,-0.01358,0.00625,-0.03166,0.07247,-0.00561,0.98003,2.74084,1.32118,-2.87384,-2.85487,-2.29779,-0.72809,2.67550,-2.45034,-0.74130,-2.92845,-2.92845,A,151607.70
2.75711,57.78220242,12.77343027,57.78220233,12.77342800,16:17:11.756390,0.00546,1.39329,1.39329,-0.01173,0.03260,-0.01251,-0.00031,-0.02631,0.02647,0.01769,0.99961,2.75148,1.33560,-2.88460,-2.86564,-2.31580,-0.73181,2.67550,-2.45034,-0.74130,-2.92845,-2.92845,A,151607.70
2.76706,57.78220239,12.77342999,57.78220233,12.77342800,16:17:11.766339,0.00517,1.39329,1.39329,-0.01167,0.03260,-0.01022,-0.00444,-0.02128,0.06655,0.02940,0.99101,2.76172,1.34714,-2.89376,-2.87480,-2.33249,-0.73511,2.67550,-2.45034,-0.74130,-2.92845,-2.92845,A,151607.70
2.81938,57.78220236,12.77342971,57.78220200,12.77342583,16:17:11.818684,0.04677,1.39329,1.50000,-0.01196,0.03260,-0.00335,-0.01177,-0.01486,0.00458,0.00079,1.03297,2.77224,1.35637,-2.90152,-2.88256,-2.34915,-0.73836,2.79011,-2.57878,-0.77836,-2.86066,-2.86066,A,151607.80
2.83013,57.78220219,12.77342846,57.78220200,12.77342583,16:17:11.829411,0.00533,1.39329,1.39329,-0.01034,0.03280,0.00796,0.00213,-0.01272,0.01348,0.09394,0.95044,2.82449,1.36375,-2.89662,-2.87754,-2.42314,-0.75692,2.79011,-2.57878,-0.77836,-2.86066,-2.86066,A,151607.80
2.84238,57.78220215,12.77342811,57.78220200,12.77342583,16:17:11.841661,0.00718,1.39329,1.39329,-0.00975,0.03328,0.00948,0.00290,-0.01685,0.03733,0.04917,0.95117,2.83673,1.36966,-2.89379,-2.87443,-2.44362,-0.76143,2.79011,-2.57878,-0.77836,-2.86066,-2.86066,A,151607.80
2.85072,57.78220212,12.77342786,57.78220200,12.77342583,16:17:11.849997,0.00512,1.39329,1.39329,-0.00964,0.03377,0.01193,0.00152,-0.01104,0.03416,0.02001,0.92311,2.84520,1.37439,-2.89154,-2.87191,-2.45863,-0.76453,2.79011,-2.57878,-0.77836,-2.86066,-2.86066,A,151607.80
2.86159,57.78220209,12.77342758,57.78220200,12.77342583,16:17:11.860877,0.00559,1.39329,1.39329,-0.00894,0.03453,0.01147,0.00595,-0.01425,0.07936,0.05862,0.98460,2.85580,1.37817,-2.88963,-2.86955,-2.47548,-0.76822,2.79011,-2.57878,-0.77836,-2.86066,-2.86066,A,151607.80
2.87169,57.78220206,12.77342731,57.78220200,12.77342583,16:17:11.870974,0.00529,1.39329,1.39329,-0.00875,0.03543,0.00643,-0.00489,-0.01898,0.01848,0.02934,0.99070,2.86638,1.38119,-2.88808,-2.86747,-2.49115,-0.77166,2.79011,-2.57878,-0.77836,-2.86066,-2.86066,A,151607.80
2.88187,57.78220203,12.77342706,57.78220200,12.77342583,16:17:11.881152,0.00523,1.39329,1.39329,-0.00900,0.03634,0.00505,-0.00764,-0.02219,0.08467,0.00159,1.02364,2.87627,1.38361,-2.88685,-2.86571,-2.50577,-0.77488,2.79011,-2.57878,-0.77836,-2.86066,-2.86066,A,151607.80
2.92773,57.78220200,12.77342682,57.78220167,12.77342350,16:17:11.927033,0.04069,1.39329,1.50000,-0.00896,0.03725,0.00414,-0.00337,-0.01990,-0.00708,0.02172,1.03279,2.88694,1.38555,-2.88585,-2.86418,-2.52032,-0.77814,2.90441,-2.71711,-0.81543,-2.87979,-2.87979,A,151607.90
2.93995,57.78220184,12.77342570,57.78220167,12.77342350,16:17:11.939438,0.00647,1.39329,1.39329,-0.00847,0.03951,0.01284,-0.00092,-0.01517,0.01921,0.01586,0.99296,2.93322,1.38710,-2.88668,-2.86370,-2.58675,-0.79612,2.90441,-2.71711,-0.81543,-2.87979,-2.87979,A,151607.90
2.94929,57.78220181,12.77342542,57.78220167,12.77342350,16:17:11.948575,0.00541,1.39329,1.39329,-0.00886,0.03971,0.00841,0.00076,-0.01013,0.02416,-0.00909,0.98088,2.94370,1.38834,-2.88878,-2.86569,-2.60349,-0.80000,2.90441,-2.71711,-0.81543,-2.87979,-2.87979,A,151607.90
2.95933,57.78220177,12.77342514,57.78220167,12.77342350,16:17:11.958614,0.00504,1.39329,1.39329,-0.00934,0.03979,0.00780,-0.00199,-0.00936,0.09065,-0.01494,0.98021,2.95403,1.38933,-2.89057,-2.86742,-2.61967,-0.80374,2.90441,-2.71711,-0.81543,-2.87979,-2.87979,A,151607.90
2.97000,57.78220174,12.77342488,57.78220167,12.77342350,16:17:11.969283,0.00538,1.39329,1.39329,-0.00974,0.03979,0.00780,-0.00810,-0.01059,0.06161,-0.00970,0.96014,2.96440,1.39012,-2.89207,-2.86892,-2.63549,-0.80740,2.90441,-2.71711,-0.81543,-2.87979,-2.87979,A,151607.90
2.98010,57.78220171,12.77342463,57.78220167,12.77342350,16:17:11.979626,0.00524,1.39329,1.39329,-0.01009,0.03979,0.00735,-0.01635,-0.01288,0.04026,-0.00628,0.95983,2.97476,1.39076,-2.89336,-2.87021,-2.65013,-0.81076,2.90441,-2.71711,-0.81543,-2.87979,-2.87979,A,151607.90
2.99061,57.78220168,12.77342440,57.78220167,12.77342350,16:17:11.989886,0.00551,1.39329,1.39329,-0.00982,0.03979,0.00460,-0.01757,-0.01578,0.02050,0.03495,0.96093,2.98477,1.39126,-2.89446,-2.87131,-2.66394,-0.81390,2.90441,-2.71711,-0.81543,-2.87979,-2.87979,A,151607.90
3.00115,57.78220165,12.77342417,57.78220167,12.77342350,16:17:12.000431,0.00565,1.39329,1.39329,-0.00973,0.03979,0.00124,-0.01329,-0.02082,0.05716,0.02562,0.95703,2.99550,1.39167,-2.89539,-2.87224,-2.67737,-0.81696,2.90441,-2.71711,-0.81543,-2.87979,-2.87979,A,151607.90
3.04436,57.78220163,12.77342396,57.78220133,12.77342133,16:17:12.043669,0.03847,1.39329,1.50000,-0.00908,0.03979,-0.00304,-0.01803,-0.02219,-0.02818,0.06698,1.01248,3.00582,1.39199,-2.89618,-2.87304,-2.68983,-0.81978,3.02262,-2.84555,-0.85249,-2.86066,-2.86066,A,151608.00
3.05495,57.78220148,12.77342293,57.78220133,12.77342133,16:17:12.054231,0.00527,1.39329,1.39329,-0.00927,0.04013,-0.00838,0.01572,-0.01639,0.06686,0.03318,0.97606,3.04960,1.39225,-2.89264,-2.86929,-2.75117,-0.83615,3.02262,-2.84555,-0.85249,-2.86066,-2.86066,A,151608.00
3.06601,57.78220144,12.77342265,57.78220133,12.77342133,16:17:12.065289,0.00593,1.39329,1.39329,-0.00881,0.04027,-0.00533,0.00641,-0.01181,0.08589,0.05466,0.97618,3.06037,1.39246,-2.89098,-2.86755,-2.76733,-0.84016,3.02262,-2.84555,-0.85249,-2.86066,-2.86066,A,151608.00
3.07575,57.78220141,12.77342242,57.78220133,12.77342133,16:17:12.075030,0.00514,1.39329,1.39329,-0.00864,0.04033,-0.00151,-0.00764,-0.00906,0.08388,0.03318,0.93891,3.07043,1.39263,-2.88962,-2.86616,-2.78139,-0.84363,3.02262,-2.84555,-0.85249,-2.86066,-2.86066,A,151608.00
3.08608,57.78220138,12.77342218,57.78220133,12.77342133,16:17:12.085364,0.00524,1.39329,1.39329,-0.00926,0.04033,0.00582,-0.01314,-0.00661,0.12194,-0.02043,0.92763,3.08049,1.39276,-2.88845,-2.86499,-2.79514,-0.84706,3.02262,-2.84555,-0.85249,-2.86066,-2.86066,A,151608.00
3.09659,57.78220135,12.77342196,57.78220133,12.77342133,16:17:12.095878,0.00536,1.39329,1.39329,-0.00985,0.04033,-0.00090,-0.03391,-0.01196,0.03026,-0.01641,0.96728,3.09104,1.39287,-2.88745,-2.86399,-2.80849,-0.85040,3.02262,-2.84555,-0.85249,-2.86066,-2.86066,A,151608.00
3.10674,57.78220132,12.77342174,57.78220133,12.77342133,16:17:12.106017,0.00510,1.39329,1.39329,-0.01056,0.04033,-0.00396,-0.02643,-0.01394,0.03355,-0.02251,0.98503,3.10123,1.39295,-2.88659,-2.86313,-2.82133,-0.85364,3.02262,-2.84555,-0.85249,-2.86066,-2.86066,A,151608.00
3.11746,57.78220130,12.77342154,57.78220133,12.77342133,16:17:12.116737,0.00541,1.39329,1.39329,-0.01114,0.04033,-0.00961,-0.01787,-0.01288,-0.04063,-0.01232,1.03877,3.11184,1.39302,-2.88586,-2.86240,-2.83354,-0.85672,3.02262,-2.84555,-0.85249,-2.86066,-2.86066,A,151608.00
3.16436,57.78220127,12.77342134,57.78220100,12.77341900,16:17:12.163671,0.04170,1.39329,1.50000,-0.01126,0.04033,-0.00838,0.00763,-0.02082,-0.02050,0.01806,1.03005,3.12243,1.39308,-2.88525,-2.86179,-2.84497,-0.85962,3.14235,-2.98388,-0.88956,-2.87979,-2.87979,A,151608.10
3.17503,57.78220111,12.77342025,57.78220100,12.77341900,16:17:12.174308,0.00529,1.39329,1.39329,-0.01078,0.04042,0.00643,0.00519,-0.01074,0.01501,0.03032,0.94837,3.16968,1.39312,-2.88606,-2.86255,-2.90976,-0.87774,3.14235,-2.98388,-0.88956,-2.87979,-2.87979,A,151608.10
3.18577,57.78220107,12.77342000,57.78220100,12.77341900,16:17:12.185053,0.00563,1.39329,1.39329,-0.01165,0.04053,0.00551,0.00015,-0.01333,0.08430,-0.03812,0.94001,3.18009,1.39315,-2.88830,-2.86473,-2.92442,-0.88147,3.14235,-2.98388,-0.88956,-2.87979,-2.87979,A,151608.10
3.19568,57.78220104,12.77341978,57.78220100,12.77341900,16:17:12.194965,0.00514,1.39329,1.39329,-0.01143,0.04064,0.00017,-0.00688,-0.00570,-0.01006,0.03331,0.97222,3.19036,1.39318,-2.89023,-2.86659,-2.93774,-0.88481,3.14235,-2.98388,-0.88956,-2.87979,-2.87979,A,151608.10
3.20791,57.78220101,12.77341956,57.78220100,12.77341900,16:17:12.207915,0.00713,1.39329,1.39329,-0.01201,0.04073,0.00307,-0.01131,-0.00891,0.07442,-0.02111,1.00101,3.20041,1.39320,-2.89187,-2.86818,-2.95058,-0.88802,3.14235,-2.98388,-0.88956,-2.87979,-2.87979,A,151608.10
3.21656,57.78220099,12.77341939,57.78220100,12.77341900,16:17:12.215854,0.00538,1.39329,1.39329,-0.01182,0.04073,0.00032,-0.00657,-0.01303,0.03501,0.03129,0.98637,3.21100,1.39322,-2.89333,-2.86964,-2.96077,-0.89049,3.14235,-2.98388,-0.88956,-2.87979,-2.87979,A,151608.10
3.22669,57.78220096,12.77341919,57.78220100,12.77341900,16:17:12.225967,0.00511,1.39329,1.39329,-0.01165,0.04073,0.00276,-0.00764,-0.01868,0.03221,0.02910,1.01486,3.22117,1.39324,-2.89449,-2.87080,-2.97290,-0.89350,3.14235,-2.98388,-0.88956,-2.87979,-2.87979,A,151608.10
3.23740,57.78220094,12.77341899,57.78220100,12.77341900,16:17:12.236682,0.00541,1.39329,1.39329,-0.01121,0.04081,-0.00335,0.00198,-0.01944,-0.02111,0.05215,1.01760,3.23179,1.39325,-2.89549,-2.87175,-2.98447,-0.89637,3.14235,-2.98388,-0.88956,-2.87979,-2.87979,A,151608.10
3.28059,57.78220091,12.77341881,57.78220067,12.77341667,16:17:12.279903,0.03821,1.28398,1.50000,-0.01133,0.04098,-0.00060,0.01511,-0.01975,0.00171,0.01098,0.98539,3.24239,1.37139,-2.89635,-2.87251,-2.99533,-0.89904,3.25912,-3.12220,-0.92662,-2.87979,-2.87979,A,151608.20
3.29117,57.78220077,12.77341782,57.78220067,12.77341667,16:17:12.290451,0.00522,1.28398,1.28398,-0.01118,0.04313,0.00063,0.00610,-0.00463,0.05612,0.02684,0.95776,3.28584,1.35391,-2.89590,-2.87081,-3.05398,-0.91484,3.25912,-3.12220,-0.92662,-2.87979,-2.87979,A,151608.20
3.30197,57.78220074,12.77341758,57.78220067,12.77341667,16:17:12.301248,0.00547,1.28398,1.28398,-0.01115,0.04367,0.00292,0.00167,-0.00188,-0.01440,0.01891,0.99021,3.29635,1.33992,-2.89691,-2.87151,-3.06821,-0.91843,3.25912,-3.12220,-0.92662,-2.87979,-2.87979,A,151608.20
3.31279,57.78220071,12.77341735,57.78220067,12.77341667,16:17:12.312090,0.00605,1.28398,1.28398,-0.01093,0.04412,-0.00380,-0.00046,-0.00570,0.04953,0.03764,1.02248,3.30703,1.32873,-2.89782,-2.87216,-3.08146,-0.92176,3.25912,-3.12220,-0.92662,-2.87979,-2.87979,A,151608.20
3.32218,57.78220068,12.77341716,57.78220067,12.77341667,16:17:12.321461,0.00521,1.28398,1.28398,-0.01065,0.04441,-0.00487,0.00671,-0.00234,-0.04990,0.04246,1.02901,3.31661,1.31978,-2.89866,-2.87282,-3.09299,-0.92463,3.25912,-3.12220,-0.92662,-2.87979,-2.87979,A,151608.20
3.33277,57.78220066,12.77341696,57.78220067,12.77341667,16:17:12.332051,0.00538,1.28398,1.28398,-0.01072,0.04463,0.00215,0.00488,-0.00555,0.01800,0.01440,1.00119,3.32721,1.31262,-2.89935,-2.87338,-3.10481,-0.92758,3.25912,-3.12220,-0.92662,-2.87979,-2.87979,A,151608.20
3.34305,57.78220063,12.77341677,57.78220067,12.77341667,16:17:12.342328,0.00527,1.28398,1.28398,-0.01088,0.04477,0.00475,0.00519,-0.00875,0.03947,0.00592,1.00754,3.33770,1.30689,-2.89994,-2.87390,-3.11618,-0.93042,3.25912,-3.12220,-0.92662,-2.87979,-2.87979,A,151608.20
3.35379,57.78220061,12.77341659,57.78220067,12.77341667,16:17:12.353075,0.00521,1.28398,1.28398,-0.01177,0.04492,0.00414,0.00106,-0.00692,-0.02727,-0.04178,0.98899,3.34820,1.30231,-2.90046,-2.87433,-3.12689,-0.93308,3.25912,-3.12220,-0.92662,-2.87979,-2.87979,A,151608.20
3.40840,57.78220059,12.77341642,57.78219983,12.77341200,16:17:12.407713,0.04942,1.28398,1.50000,-0.01147,0.04506,0.00597,0.00488,-0.00829,0.02721,0.03373,0.97954,3.35898,1.29864,-2.90092,-2.87470,-3.13706,-0.93561,3.38637,-3.39885,-1.01929,-2.81839,-2.81839,A,151608.40
3.42067,57.78220039,12.77341511,57.78219983,12.77341200,16:17:12.419955,0.00696,1.28398,1.28398,-0.01121,0.04670,0.00689,0.00488,-0.00631,0.01574,0.01220,0.98430,3.41470,1.29571,-2.89028,-2.86311,-3.21435,-0.95735,3.38637,-3.39885,-1.01929,-2.81839,-2.81839,A,151608.40
3.42955,57.78220034,12.77341482,57.78219983,12.77341200,16:17:12.428836,0.00545,1.28398,1.28398,-0.01161,0.04721,0.01330,0.00320,-0.00799,0.04544,-0.01391,0.95056,3.42392,1.29336,-2.88330,-2.85584,-3.23188,-0.96282,3.38637,-3.39885,-1.01929,-2.81839,-2.81839,A,151608.40
3.43963,57.78220029,12.77341451,57.78219983,12.77341200,16:17:12.438915,0.00512,1.28398,1.28398,-0.01153,0.04775,0.00246,-0.00703,-0.00661,0.03812,0.02257,0.95800,3.43433,1.29149,-2.87736,-2.84958,-3.25004,-0.96852,3.38637,-3.39885,-1.01929,-2.81839,-2.81839,A,151608.40
3.45005,57.78220024,12.77341422,57.78219983,12.77341200,16:17:12.449681,0.00526,1.28398,1.28398,-0.01146,0.04831,0.00643,-0.00993,-0.00402,0.03190,0.01976,0.97691,3.44445,1.28998,-2.87235,-2.84424,-3.26729,-0.97401,3.38637,-3.39885,-1.01929,-2.81839,-2.81839,A,151608.40
3.46055,57.78220019,12.77341394,57.78219983,12.77341200,16:17:12.459843,0.00537,1.28398,1.28398,-0.01136,0.04896,0.00521,-0.01146,-0.00387,0.05868,0.02227,0.98100,3.45501,1.28878,-2.86814,-2.83965,-3.28383,-0.97933,3.38637,-3.39885,-1.01929,-2.81839,-2.81839,A,151608.40
3.47123,57.78220015,12.77341367,57.78219983,12.77341200,16:17:12.470517,0.00564,1.28398,1.28398,-0.01184,0.04959,-0.00441,-0.01940,-0.00555,0.04111,-0.00891,0.99869,3.46518,1.28782,-2.86459,-2.83574,-3.30000,-0.98457,3.38637,-3.39885,-1.01929,-2.81839,-2.81839,A,151608.40
3.48137,57.78220010,12.77341342,57.78219983,12.77341200,16:17:12.480658,0.00539,1.28398,1.28398,-0.01125,0.05024,-0.00289,-0.01360,-0.00463,-0.01379,0.06338,1.04475,3.47579,1.28705,-2.86166,-2.83243,-3.31443,-0.98930,3.38637,-3.39885,-1.01929,-2.81839,-2.81839,A,151608.40
3.52531,57.78220006,12.77341319,57.78219950,12.77340967,16:17:12.524616,0.03892,1.28398,1.50000,-0.01115,0.05080,-0.00670,0.00228,-0.00493,0.00152,0.03209,1.01925,3.48620,1.28644,-2.85920,-2.82964,-3.32840,-0.99391,3.50316,-3.53718,-1.05635,-2.87979,-2.87979,A,151608.50
3.53642,57.78219989,12.77341217,57.78219950,12.77340967,16:17:12.535712,0.00553,1.28398,1.28398,-0.01101,0.05344,-0.00121,-0.00260,0.00499,0.02568,0.03129,0.91415,3.53083,1.28595,-2.86488,-2.83379,-3.38870,-1.01312,3.50316,-3.53718,-1.05635,-2.87979,-2.87979,A,151608.50
3.54642,57.78219984,12.77341188,57.78219950,12.77340967,16:17:12.545700,0.00514,1.28398,1.28398,-0.01166,0.05411,-0.00701,-0.00886,0.00713,0.02086,-0.01623,0.95038,3.54087,1.28555,-2.87142,-2.83993,-3.40572,-1.01833,3.50316,-3.53718,-1.05635,-2.87979,-2.87979,A,151608.50
3.55847,57.78219979,12.77341158,57.78219950,12.77340967,16:17:12.557744,0.00679,1.28398,1.28398,-0.01202,0.05485,-0.01068,-0.00230,0.00377,0.04050,0.00494,0.98021,3.55268,1.28524,-2.87696,-2.84504,-3.42374,-1.02379,3.50316,-3.53718,-1.05635,-2.87979,-2.87979,A,151608.50
3.56733,57.78219976,12.77341134,57.78219950,12.77340967,16:17:12.566610,0.00526,1.28398,1.28398,-0.01294,0.05547,-0.01465,0.00106,0.00469,0.05234,-0.03422,1.04072,3.56199,1.28499,-2.88186,-2.84958,-3.43770,-1.02795,3.50316,-3.53718,-1.05635,-2.87979,-2.87979,A,151608.50
3.57782,57.78219972,12.77341109,57.78219950,12.77340967,16:17:12.577105,0.00522,1.28398,1.28398,-0.01291,0.05610,-0.01159,-0.00153,0.00194,-0.00360,0.03062,1.06829,3.57224,1.28478,-2.88600,-2.85335,-3.45255,-1.03234,3.50316,-3.53718,-1.05635,-2.87979,-2.87979,A,151608.50
3.58888,57.78219968,12.77341085,57.78219950,12.77340967,16:17:12.588164,0.00586,1.28398,1.28398,-0.01317,0.05666,-0.01342,0.00396,0.00194,0.04111,0.01220,1.04816,3.58314,1.28462,-2.88954,-2.85657,-3.46716,-1.03662,3.50316,-3.53718,-1.05635,-2.87979,-2.87979,A,151608.50
3.59858,57.78219964,12.77341063,57.78219950,12.77340967,16:17:12.597854,0.00516,1.28398,1.28398,-0.01299,0.05714,-0.01236,-0.00077,-0.00387,0.00244,0.03941,1.01303,3.59303,1.28449,-2.89263,-2.85938,-3.48012,-1.04038,3.50316,-3.53718,-1.05635,-2.87979,-2.87979,A,151608.50
3.64182,57.78219961,12.77341041,57.78219933,12.77340717,16:17:12.641122,0.03800,1.28398,1.50000,-0.01352,0.05757,-0.01495,0.00793,0.00011,0.06472,-0.00476,0.98430,3.60363,1.28439,-2.89526,-2.86176,-3.49305,-1.04410,3.62088,-3.68539,-1.07488,-3.01719,-3.01719,A,151608.60
3.65260,57.78219947,12.77340943,57.78219933,12.77340717,16:17:12.651891,0.00555,1.28398,1.28398,-0.01341,0.05850,-0.01098,0.00244,0.01156,0.02891,0.05649,0.97551,3.64699,1.28431,-2.91640,-2.88235,-3.55110,-1.05956,3.62088,-3.68539,-1.07488,-3.01719,-3.01719,A,151608.60
3.66282,57.78219944,12.77340916,57.78219933,12.77340717,16:17:12.662106,0.00554,1.28398,1.28398,-0.01333,0.05850,-0.00747,0.00671,0.00637,0.04929,0.02873,0.99406,3.65700,1.28424,-2.93617,-2.90212,-3.56749,-1.06289,3.62088,-3.68539,-1.07488,-3.01719,-3.01719,A,151608.60
3.67327,57.78219941,12.77340889,57.78219933,12.77340717,16:17:12.672557,0.00560,1.28398,1.28398,-0.01330,0.05850,-0.00716,0.00198,0.00881,0.01995,0.02696,1.02645,3.66766,1.28419,-2.95296,-2.91892,-3.58334,-1.06592,3.62088,-3.68539,-1.07488,-3.01719,-3.01719,A,151608.60
3.68319,57.78219939,12.77340864,57.78219933,12.77340717,16:17:12.682469,0.00512,1.28398,1.28398,-0.01341,0.05850,-0.00472,0.00641,0.00881,0.06838,0.01592,1.03901,3.67785,1.28415,-2.96725,-2.93321,-3.59811,-1.06856,3.62088,-3.68539,-1.07488,-3.01719,-3.01719,A,151608.60
3.69464,57.78219937,12.77340837,57.78219933,12.77340717,16:17:12.693917,0.00603,1.28398,1.28398,-0.01413,0.05850,-0.00838,0.00671,0.00469,0.03111,-0.02263,0.99296,3.68906,1.28411,-2.97931,-2.94527,-3.61395,-1.07130,3.62088,-3.68539,-1.07488,-3.01719,-3.01719,A,151608.60
3.70510,57.78219935,12.77340815,57.78219933,12.77340717,16:17:12.704378,0.00609,1.28398,1.28398,-0.01435,0.05850,-0.00014,0.00060,0.00835,0.06905,0.00390,0.97271,3.69907,1.28409,-2.98966,-2.95562,-3.62707,-1.07338,3.62088,-3.68539,-1.07488,-3.01719,-3.01719,A,151608.60
3.71454,57.78219933,12.77340795,57.78219933,12.77340717,16:17:12.713820,0.00512,1.28398,1.28398,-0.01431,0.05850,-0.00335,-0.00612,0.00667,0.02550,0.02342,1.00278,3.70901,1.28406,-2.99848,-2.96444,-3.63892,-1.07513,3.62088,-3.68539,-1.07488,-3.01719,-3.01719,A,151608.60
3.75823,57.78219931,12.77340774,57.78219900,12.77340483,16:17:12.758303,0.03841,1.28398,1.50000,-0.01484,0.05850,0.00475,-0.00046,0.00408,0.05703,-0.01952,0.95935,3.71962,1.28405,-3.00592,-2.97187,-3.65159,-1.07697,3.73655,-3.82371,-1.11195,-2.87979,-2.87979,A,151608.70
3.77063,57.78219922,12.77340672,57.78219900,12.77340483,16:17:12.769911,0.00556,1.44221,1.44221,-0.01406,0.05867,0.01391,0.00839,-0.00325,0.05874,0.03001,0.96789,3.76480,1.31568,-2.98972,-2.95558,-3.71204,-1.08761,3.73655,-3.82371,-1.11195,-2.87979,-2.87979,A,151608.70
3.78090,57.78219919,12.77340645,57.78219900,12.77340483,16:17:12.780188,0.00544,1.44221,1.44221,-0.01315,0.05898,0.01727,0.00900,0.00576,-0.02818,0.06820,0.97942,3.77529,1.34098,-2.97791,-2.94359,-3.72772,-1.09072,3.73655,-3.82371,-1.11195,-2.87979,-2.87979,A,151608.70
3.79162,57.78219916,12.77340618,57.78219900,12.77340483,16:17:12.790902,0.00575,1.44221,1.44221,-0.01350,0.05952,0.01651,0.00427,0.00545,0.06362,-0.01189,0.94349,3.78624,1.36123,-2.96787,-2.93323,-3.74367,-1.09402,3.73655,-3.82371,-1.11195,-2.87979,-2.87979,A,151608.70
3.80543,57.78219912,12.77340587,57.78219900,12.77340483,16:17:12.804713,0.00706,1.44221,1.44221,-0.01355,0.06048,0.02384,-0.00092,0.01599,0.06137,-0.00207,0.96142,3.79978,1.37743,-2.95923,-2.92403,-3.76252,-1.09806,3.73655,-3.82371,-1.11195,-2.87979,-2.87979,A,151608.70
3.81388,57.78219910,12.77340568,57.78219900,12.77340483,16:17:12.813167,0.00525,1.44221,1.44221,-0.01416,0.06108,0.02628,-0.00596,0.01477,0.00817,-0.03294,0.98082,3.80827,1.39038,-2.95225,-2.91671,-3.77375,-1.10056,3.73655,-3.82371,-1.11195,-2.87979,-2.87979,A,151608.70
3.82461,57.78219907,12.77340545,57.78219900,12.77340483,16:17:12.823915,0.00557,1.44221,1.44221,-0.01375,0.06181,0.02613,-0.01070,0.01583,0.02269,0.03001,1.00150,3.81885,1.40075,-2.94624,-2.91027,-3.78721,-1.10364,3.73655,-3.82371,-1.11195,-2.87979,-2.87979,A,151608.70
3.83456,57.78219905,12.77340523,57.78219900,12.77340483,16:17:12.833840,0.00512,1.44221,1.44221,-0.01422,0.06246,0.02705,-0.01314,0.01675,-0.03447,-0.02910,1.03242,3.82902,1.40904,-2.94119,-2.90484,-3.79990,-1.10661,3.73655,-3.82371,-1.11195,-2.87979,-2.87979,A,151608.70
3.87871,57.78219902,12.77340503,57.78219867,12.77340250,16:17:12.878016,0.03888,1.44221,1.50000,-0.01473,0.06303,0.02705,-0.00352,0.01232,0.03099,-0.03233,1.02297,3.83965,1.41567,-2.93692,-2.90024,-3.81233,-1.10959,3.85647,-3.96204,-1.14901,-2.87979,-2.87979,A,151608.80
3.88974,57.78219888,12.77340397,57.78219867,12.77340250,16:17:12.889016,0.00560,1.44221,1.44221,-0.01316,0.06487,0.03010,0.00274,0.01080,0.01928,0.03770,0.97649,3.88408,1.42098,-2.93122,-2.89346,-3.87515,-1.12518,3.85647,-3.96204,-1.14901,-2.87979,-2.87979,A,151608.80
3.89985,57.78219885,12.77340371,57.78219867,12.77340250,16:17:12.899586,0.00530,1.44221,1.44221,-0.01320,0.06529,0.03163,0.00381,0.01415,-0.00854,-0.00140,0.97673,3.89451,1.42523,-2.92864,-2.89063,-3.89041,-1.12914,3.85647,-3.96204,-1.14901,-2.87979,-2.87979,A,151608.80
3.91012,57.78219881,12.77340347,57.78219867,12.77340250,16:17:12.909398,0.00534,1.44221,1.44221,-0.01317,0.06572,0.02766,-0.00352,0.01568,0.00494,0.00653,0.99576,3.90450,1.42862,-2.92648,-2.88823,-3.90474,-1.13289,3.85647,-3.96204,-1.14901,-2.87979,-2.87979,A,151608.80
3.92056,57.78219878,12.77340323,57.78219867,12.77340250,16:17:12.919845,0.00539,1.44221,1.44221,-0.01369,0.06606,0.02445,-0.00199,0.01309,-0.00811,-0.03032,1.04005,3.91499,1.43134,-2.92466,-2.88621,-3.91866,-1.13656,3.85647,-3.96204,-1.14901,-2.87979,-2.87979,A,151608.80
3.93073,57.78219875,12.77340300,57.78219867,12.77340250,16:17:12.930006,0.00515,1.44221,1.44221,-0.01415,0.06631,0.02063,0.00244,0.01018,0.04862,-0.02227,1.01522,3.92518,1.43351,-2.92312,-2.88452,-3.93218,-1.14014,3.85647,-3.96204,-1.14901,-2.87979,-2.87979,A,151608.80
3.94155,57.78219872,12.77340278,57.78219867,12.77340250,16:17:12.940833,0.00558,1.44221,1.44221,-0.01432,0.06648,0.01758,0.00564,0.00698,0.02702,-0.00220,0.99704,3.93593,1.43525,-2.92181,-2.88311,-3.94519,-1.14361,3.85647,-3.96204,-1.14901,-2.87979,-2.87979,A,151608.80
3.95157,57.78219869,12.77340259,57.78219867,12.77340250,16:17:12.950852,0.00520,1.44221,1.44221,-0.01397,0.06654,0.01926,0.00335,0.01202,0.00458,0.03318,1.03633,3.94624,1.43664,-2.92073,-2.88200,-3.95689,-1.14676,3.85647,-3.96204,-1.14901,-2.87979,-2.87979,A,151608.80
4.00566,57.78219866,12.77340240,57.78219800,12.77339750,16:17:13.004965,0.04903,1.44221,1.50000,-0.01358,0.06654,0.01422,0.01511,0.01080,-0.00823,0.03922,1.01040,3.95624,1.43776,-2.91982,-2.88109,-3.96800,-1.14975,3.98385,-4.25845,-1.22314,-2.89653,-2.89653,A,151609.00
4.02600,57.78219843,12.77340077,57.78219800,12.77339750,16:17:13.025280,0.00544,1.44221,1.44221,-0.01244,0.06654,0.01590,0.00458,0.01278,0.07076,0.03080,0.95453,4.02033,1.43865,-2.91774,-2.87901,-4.06440,-1.17524,3.98385,-4.25845,-1.22314,-2.89653,-2.89653,A,151609.00
4.03607,57.78219838,12.77340042,57.78219800,12.77339750,16:17:13.035601,0.00512,1.44221,1.44221,-0.01254,0.06654,0.01605,0.00213,0.01645,-0.02623,0.00573,0.97423,4.03077,1.43936,-2.91978,-2.88105,-4.08509,-1.18059,3.98385,-4.25845,-1.22314,-2.89653,-2.89653,A,151609.00
4.04649,57.78219834,12.77340009,57.78219800,12.77339750,16:17:13.045774,0.00514,1.44221,1.44221,-0.01256,0.06654,0.01483,0.00335,0.00881,0.02977,0.01275,1.01114,4.04094,1.43993,-2.92151,-2.88278,-4.10487,-1.18568,3.98385,-4.25845,-1.22314,-2.89653,-2.89653,A,151609.00
4.05733,57.78219829,12.77339977,57.78219800,12.77339750,16:17:13.056611,0.00559,1.44221,1.44221,-0.01178,0.06654,0.01406,0.00534,0.00957,0.00043,0.06527,0.99454,4.05172,1.44038,-2.92295,-2.88422,-4.12416,-1.19063,3.98385,-4.25845,-1.22314,-2.89653,-2.89653,A,151609.00
4.06865,57.78219825,12.77339945,57.78219800,12.77339750,16:17:13.067946,0.00651,1.44221,1.44221,-0.01216,0.06654,0.01468,-0.00199,0.00774,0.04849,-0.01147,1.01046,4.06236,1.44075,-2.92414,-2.88541,-4.14307,-1.19547,3.98385,-4.25845,-1.22314,-2.89653,-2.89653,A,151609.00
4.07796,57.78219821,12.77339918,57.78219800,12.77339750,16:17:13.077243,0.00525,1.44221,1.44221,-0.01191,0.06654,0.00765,0.00809,0.01034,-0.06771,0.03788,1.09342,4.07236,1.44104,-2.92528,-2.88655,-4.15878,-1.19945,3.98385,-4.25845,-1.22314,-2.89653,-2.89653,A,151609.00
4.12646,57.78219818,12.77339891,57.78219767,12.77339517,16:17:13.126486,0.04335,1.44221,1.50000,-0.01135,0.06654,0.00780,0.01801,0.01217,0.07875,0.05655,1.01699,4.08295,1.44127,-2.92617,-2.88744,-4.17505,-1.20358,4.09962,-4.39677,-1.26021,-2.87979,-2.87979,A,151609.10
4.13810,57.78219800,12.77339765,57.78219767,12.77339517,16:17:13.137383,0.00538,1.44221,1.44221,-0.01019,0.06654,0.01361,0.00564,0.02133,0.01781,0.05368,0.90878,4.13246,1.44146,-2.92163,-2.88291,-4.24940,-1.22285,4.09962,-4.39677,-1.26021,-2.87979,-2.87979,A,151609.10
4.14850,57.78219796,12.77339734,57.78219767,12.77339517,16:17:13.147786,0.00538,1.44221,1.44221,-0.00942,0.06654,0.01437,0.00045,0.02026,-0.03453,0.06515,0.96044,4.14296,1.44161,-2.92057,-2.88184,-4.26790,-1.22766,4.09962,-4.39677,-1.26021,-2.87979,-2.87979,A,151609.10
4.15862,57.78219792,12.77339704,57.78219767,12.77339517,16:17:13.157901,0.00510,1.44221,1.44221,-0.00901,0.06654,0.03132,0.00183,0.01751,0.02782,0.03324,0.97405,4.15310,1.44173,-2.91965,-2.88092,-4.28571,-1.23231,4.09962,-4.39677,-1.26021,-2.87979,-2.87979,A,151609.10
4.17063,57.78219788,12.77339675,57.78219767,12.77339517,16:17:13.169908,0.00671,1.44221,1.44221,-0.00889,0.06654,0.02353,-0.00046,0.01522,-0.03904,0.01854,1.03737,4.16374,1.44183,-2.91887,-2.88014,-4.30272,-1.23676,4.09962,-4.39677,-1.26021,-2.87979,-2.87979,A,151609.10
4.17934,57.78219784,12.77339652,57.78219767,12.77339517,16:17:13.178625,0.00502,1.44221,1.44221,-0.00873,0.06654,0.02292,0.00946,0.01904,0.10620,0.02227,0.98899,4.17403,1.44190,-2.91832,-2.87959,-4.31663,-1.24040,4.09962,-4.39677,-1.26021,-2.87979,-2.87979,A,151609.10
4.18985,57.78219781,12.77339626,57.78219767,12.77339517,16:17:13.189135,0.00523,1.44221,1.44221,-0.00894,0.06654,0.02369,-0.00856,0.01446,0.01031,-0.00250,1.02883,4.18425,1.44196,-2.91775,-2.87902,-4.33182,-1.24439,4.09962,-4.39677,-1.26021,-2.87979,-2.87979,A,151609.10
4.23844,57.78219777,12.77339601,57.78219717,12.77339267,16:17:13.237741,0.04342,1.44221,1.50000,-0.00933,0.06654,0.02323,-0.00963,0.00820,-0.01311,-0.01690,1.03035,4.19521,1.44201,-2.91723,-2.87851,-4.34685,-1.24834,4.21228,-4.54498,-1.31581,-2.78270,-2.78270,A,151609.20
4.24962,57.78219759,12.77339480,57.78219717,12.77339267,16:17:13.248898,0.00594,1.62651,1.62651,-0.00848,0.06671,0.04094,0.00503,0.01568,0.05496,-0.04044,0.94593,4.24364,1.47891,-2.89957,-2.86074,-4.41846,-1.26834,4.21228,-4.54498,-1.31581,-2.78270,-2.78270,A,151609.20
4.25918,57.78219754,12.77339452,57.78219717,12.77339267,16:17:13.258461,0.00510,1.62651,1.62651,-0.00790,0.06685,0.03651,0.00137,0.02164,-0.03404,0.04380,0.95422,4.25387,1.50843,-2.88730,-2.84839,-4.43533,-1.27375,4.21228,-4.54498,-1.31581,-2.78270,-2.78270,A,151609.20
4.27126,57.78219749,12.77339422,57.78219717,12.77339267,16:17:13.270557,0.00653,1.62651,1.62651,-0.00821,0.06708,0.03972,0.00824,0.01660,0.01861,-0.01421,0.91793,4.26438,1.53205,-2.87682,-2.83778,-4.45280,-1.27947,4.21228,-4.54498,-1.31581,-2.78270,-2.78270,A,151609.20
4.28050,57.78219745,12.77339396,57.78219717,12.77339267,16:17:13.279789,0.00537,1.62651,1.62651,-0.00784,0.06742,0.03667,0.00290,0.01538,0.00116,0.02995,0.93190,4.27496,1.55094,-2.86798,-2.82874,-4.46845,-1.28475,4.21228,-4.54498,-1.31581,-2.78270,-2.78270,A,151609.20
4.29068,57.78219740,12.77339369,57.78219717,12.77339267,16:17:13.289961,0.00514,1.62651,1.62651,-0.00677,0.06784,0.04262,0.00793,0.02072,0.01562,0.07088,0.94489,4.28514,1.56606,-2.86045,-2.82096,-4.48437,-1.29022,4.21228,-4.54498,-1.31581,-2.78270,-2.78270,A,151609.20
4.30168,57.78219735,12.77339343,57.78219717,12.77339267,16:17:13.300973,0.00574,1.62651,1.62651,-0.00674,0.06835,0.04155,0.00458,0.01797,0.02568,0.00598,0.99369,4.29582,1.57815,-2.85407,-2.81429,-4.49964,-1.29556,4.21228,-4.54498,-1.31581,-2.78270,-2.78270,A,151609.20
4.31135,57.78219730,12.77339320,57.78219717,12.77339267,16:17:13.310630,0.00501,1.62651,1.62651,-0.00652,0.06886,0.04736,0.00931,0.02103,-0.02153,0.01586,1.04487,4.30603,1.58782,-2.84873,-2.80865,-4.51346,-1.30049,4.21228,-4.54498,-1.31581,-2.78270,-2.78270,A,151609.20
4.35583,57.78219726,12.77339297,57.78219700,12.77339017,16:17:13.355140,0.03921,1.62651,1.50000,-0.00607,0.06934,0.04369,0.01206,0.02072,0.00421,0.03556,1.05201,4.31625,1.59556,-2.84420,-2.80383,-4.52706,-1.30542,4.33458,-4.69319,-1.33434,-3.01719,-3.01719,A,151609.30
4.36674,57.78219705,12.77339179,57.78219700,12.77339017,16:17:13.366022,0.00529,1.62651,1.62651,-0.00341,0.07047,0.05117,-0.00642,0.01797,0.02007,0.05685,0.92019,4.36116,1.60175,-2.87278,-2.83175,-4.59694,-1.32849,4.33458,-4.69319,-1.33434,-3.01719,-3.01719,A,151609.30
4.37827,57.78219701,12.77339148,57.78219700,12.77339017,16:17:13.377547,0.00614,1.62651,1.62651,-0.00319,0.07047,0.05133,-0.01528,0.01797,-0.05588,0.01251,0.94965,4.37267,1.60670,-2.89980,-2.85878,-4.61552,-1.33319,4.33458,-4.69319,-1.33434,-3.01719,-3.01719,A,151609.30
4.38768,57.78219698,12.77339122,57.78219700,12.77339017,16:17:13.386967,0.00515,1.62651,1.62651,-0.00351,0.07047,0.04827,0.00091,0.01522,-0.02824,-0.01391,0.97478,4.38235,1.61066,-2.92292,-2.88190,-4.63060,-1.33650,4.33458,-4.69319,-1.33434,-3.01719,-3.01719,A,151609.30
4.39797,57.78219695,12.77339096,57.78219700,12.77339017,16:17:13.397251,0.00521,1.62651,1.62651,-0.00359,0.07047,0.04537,-0.00245,0.01431,-0.06801,0.00146,0.98222,4.39240,1.61383,-2.94252,-2.90150,-4.64593,-1.33964,4.33458,-4.69319,-1.33434,-3.01719,-3.01719,A,151609.30
4.40870,57.78219693,12.77339071,57.78219700,12.77339017,16:17:13.407993,0.00552,1.62651,1.62651,-0.00364,0.07047,0.03987,0.01374,0.01003,0.01122,0.00500,1.01516,4.40299,1.61637,-2.95916,-2.91813,-4.66105,-1.34249,4.33458,-4.69319,-1.33434,-3.01719,-3.01719,A,151609.30
4.41870,57.78219690,12.77339046,57.78219700,12.77339017,16:17:13.417980,0.00512,1.62651,1.62651,-0.00328,0.07047,0.04125,0.01221,0.00789,0.02452,0.03337,0.99637,4.41318,1.61840,-2.97329,-2.93227,-4.67556,-1.34502,4.33458,-4.69319,-1.33434,-3.01719,-3.01719,A,151609.30
4.43001,57.78219688,12.77339023,57.78219700,12.77339017,16:17:13.429304,0.00604,1.62651,1.62651,-0.00231,0.07047,0.03422,0.00793,0.00316,-0.02416,0.07948,1.03151,4.42385,1.62002,-2.98529,-2.94427,-4.68953,-1.34726,4.33458,-4.69319,-1.33434,-3.01719,-3.01719,A,151609.30
4.47315,57.78219687,12.77339003,57.78219650,12.77338750,16:17:13.472457,0.03877,1.62651,1.50000,-0.00175,0.07047,0.03682,0.00778,0.00133,0.03068,0.05075,1.02004,4.43412,1.62132,-2.99558,-2.95456,-4.70129,-1.34893,4.45165,-4.85127,-1.38994,-2.80341,-2.80341,A,151609.40
4.48542,57.78219674,12.77338881,57.78219650,12.77338750,16:17:13.484702,0.00570,1.62651,1.62651,-0.00097,0.07047,0.01590,-0.03528,-0.00188,0.05222,0.04172,0.95947,4.47967,1.62236,-2.96929,-2.92826,-4.77374,-1.36327,4.45165,-4.85127,-1.38994,-2.80341,-2.80341,A,151609.40
4.49523,57.78219670,12.77338854,57.78219650,12.77338750,16:17:13.494514,0.00511,1.62651,1.62651,-0.00038,0.07047,0.01742,-0.03757,0.00209,-0.08406,0.06588,0.97466,4.48991,1.62319,-2.94988,-2.90885,-4.78974,-1.36723,4.45165,-4.85127,-1.38994,-2.80341,-2.80341,A,151609.40
4.50608,57.78219667,12.77338826,57.78219650,12.77338750,16:17:13.505358,0.00547,1.62651,1.62651,-0.00028,0.07047,0.02139,-0.01497,0.00026,-0.06021,0.03068,0.94477,4.50048,1.62385,-2.93332,-2.89229,-4.80601,-1.37150,4.45165,-4.85127,-1.38994,-2.80341,-2.80341,A,151609.40
4.51613,57.78219663,12.77338802,57.78219650,12.77338750,16:17:13.515657,0.00513,1.62651,1.62651,-0.00042,0.07047,0.01315,-0.00825,-0.00585,-0.02818,0.02098,0.97234,4.51082,1.62439,-2.91928,-2.87826,-4.82064,-1.37557,4.45165,-4.85127,-1.38994,-2.80341,-2.80341,A,151609.40
4.52655,57.78219659,12.77338778,57.78219650,12.77338750,16:17:13.525830,0.00514,1.62651,1.62651,0.00029,0.07047,0.00597,0.00992,-0.00738,-0.03843,0.08308,0.99332,4.52102,1.62481,-2.90734,-2.86632,-4.83472,-1.37967,4.45165,-4.85127,-1.38994,-2.80341,-2.80341,A,151609.40
4.53943,57.78219655,12.77338749,57.78219650,12.77338750,16:17:13.538714,0.00762,1.62651,1.62651,0.00008,0.07045,0.00307,0.01282,-0.00723,0.01800,0.02373,1.00992,4.53405,1.62515,-2.89697,-2.85596,-4.85197,-1.38482,4.45165,-4.85127,-1.38994,-2.80341,-2.80341,A,151609.40
4.54732,57.78219652,12.77338734,57.78219650,12.77338750,16:17:13.546598,0.00510,1.62651,1.62651,-0.00008,0.07036,0.00612,0.01435,-0.00967,-0.01293,0.02629,1.01644,4.54201,1.62542,-2.88856,-2.84760,-4.86100,-1.38774,4.45165,-4.85127,-1.38994,-2.80341,-2.80341,A,151609.40
4.60241,57.78219648,12.77338713,57.78219600,12.77338267,16:17:13.601722,0.04975,1.62651,1.50000,-0.00065,0.07011,-0.00289,0.00763,-0.01211,0.04862,0.00396,0.99863,4.55231,1.62564,-2.88119,-2.84038,-4.87311,-1.39166,4.58025,-5.13780,-1.44553,-2.94994,-2.94994,A,151609.60
4.61340,57.78219624,12.77338558,57.78219600,12.77338267,16:17:13.612679,0.00557,1.62651,1.62651,-0.00184,0.06575,-0.01358,-0.01100,-0.00463,-0.07784,0.00872,1.01321,4.60774,1.62582,-2.89274,-2.85448,-4.96505,-1.41881,4.58025,-5.13780,-1.44553,-2.94994,-2.94994,A,151609.60
4.62334,57.78219620,12.77338523,57.78219600,12.77338267,16:17:13.622623,0.00512,1.62651,1.62651,-0.00231,0.06399,-0.02335,0.00290,-0.01608,-0.03166,0.02141,1.00077,4.61803,1.62595,-2.90626,-2.86902,-4.98581,-1.42372,4.58025,-5.13780,-1.44553,-2.94994,-2.94994,A,151609.60
4.63385,57.78219615,12.77338489,57.78219600,12.77338267,16:17:13.633134,0.00524,1.62651,1.62651,-0.00235,0.06204,-0.02671,0.01969,-0.02311,-0.05429,0.05179,1.01046,4.62824,1.62607,-2.91758,-2.88147,-5.00596,-1.42832,4.58025,-5.13780,-1.44553,-2.94994,-2.94994,A,151609.60
4.64448,57.78219612,12.77338456,57.78219600,12.77338267,16:17:13.643772,0.00553,1.62651,1.62651,-0.00240,0.06006,-0.03175,0.02840,-0.02647,0.04557,0.05179,0.94294,4.63890,1.62616,-2.92703,-2.89208,-5.02538,-1.43259,4.58025,-5.13780,-1.44553,-2.94994,-2.94994,A,151609.60
4.65452,57.78219608,12.77338426,57.78219600,12.77338267,16:17:13.653798,0.00516,1.62651,1.62651,-0.00202,0.05833,-0.03221,0.02107,-0.02708,0.01702,0.07668,0.92934,4.64896,1.62623,-2.93496,-2.90102,-5.04338,-1.43640,4.58025,-5.13780,-1.44553,-2.94994,-2.94994,A,151609.60
4.66535,57.78219605,12.77338396,57.78219600,12.77338267,16:17:13.664634,0.00559,1.62651,1.62651,-0.00171,0.05675,-0.02686,0.01328,-0.02723,0.05618,0.07107,0.94086,4.65974,1.62628,-2.94155,-2.90853,-5.06126,-1.44008,4.58025,-5.13780,-1.44553,-2.94994,-2.94994,A,151609.60
4.67528,57.78219602,12.77338369,57.78219600,12.77338267,16:17:13.674562,0.00527,1.62651,1.62651,-0.00233,0.05550,-0.02549,0.00564,-0.02326,0.01537,0.01141,0.98326,4.66995,1.62633,-2.94709,-2.91480,-5.07734,-1.44326,4.58025,-5.13780,-1.44553,-2.94994,-2.94994,A,151609.60
4.71860,57.78219599,12.77338342,57.78219567,12.77338000,16:17:13.717903,0.03799,1.62651,1.50000,-0.00311,0.05437,-0.02732,0.00564,-0.02173,0.11157,0.00092,0.97210,4.68025,1.62637,-2.95170,-2.92006,-5.09319,-1.44634,4.69707,-5.29589,-1.48260,-2.91129,-2.91129,A,151609.70
4.73052,57.78219585,12.77338217,57.78219567,12.77338000,16:17:13.729798,0.00536,1.39969,1.39969,-0.00466,0.05015,-0.03007,-0.00642,-0.02738,-0.00311,0.01458,1.01608,4.72491,1.58103,-2.94723,-2.91805,-5.16754,-1.46261,4.69707,-5.29589,-1.48260,-2.91129,-2.91129,A,151609.70
4.74323,57.78219581,12.77338183,57.78219567,12.77338000,16:17:13.742518,0.00767,1.39969,1.39969,-0.00502,0.04896,-0.02335,-0.00077,-0.03212,-0.00945,0.02098,0.99399,4.73627,1.54476,-2.94556,-2.91708,-5.18760,-1.46671,4.69707,-5.29589,-1.48260,-2.91129,-2.91129,A,151609.70
4.75107,57.78219578,12.77338159,57.78219567,12.77338000,16:17:13.750346,0.00511,1.39969,1.39969,-0.00561,0.04789,-0.01785,0.00687,-0.03456,0.03447,-0.00024,0.96215,4.74576,1.51575,-2.94426,-2.91640,-5.20176,-1.46951,4.69707,-5.29589,-1.48260,-2.91129,-2.91129,A,151609.70
4.76172,57.78219575,12.77338130,57.78219567,12.77338000,16:17:13.761002,0.00521,1.39969,1.39969,-0.00603,0.04693,-0.01694,0.00290,-0.03548,0.02385,0.01013,0.96227,4.75614,1.49254,-2.94295,-2.91565,-5.21856,-1.47293,4.69707,-5.29589,-1.48260,-2.91129,-2.91129,A,151609.70
4.77252,57.78219572,12.77338104,57.78219567,12.77338000,16:17:13.771805,0.00560,1.39969,1.39969,-0.00621,0.04619,-0.02381,0.00900,-0.03288,-0.03733,0.02952,0.95398,4.76674,1.47397,-2.94179,-2.91492,-5.23424,-1.47613,4.69707,-5.29589,-1.48260,-2.91129,-2.91129,A,151609.70
4.78247,57.78219570,12.77338080,57.78219567,12.77338000,16:17:13.781756,0.00515,1.39969,1.39969,-0.00591,0.04574,-0.02075,0.00931,-0.03166,0.01702,0.05765,0.96093,4.77692,1.45912,-2.94079,-2.91419,-5.24848,-1.47903,4.69707,-5.29589,-1.48260,-2.91129,-2.91129,A,151609.70
4.79317,57.78219567,12.77338056,57.78219567,12.77338000,16:17:13.792451,0.00545,1.39969,1.39969,-0.00577,0.04551,-0.02396,0.01068,-0.02830,0.03501,0.05069,0.96264,4.78755,1.44723,-2.93991,-2.91344,-5.26249,-1.48190,4.69707,-5.29589,-1.48260,-2.91129,-2.91129,A,151609.70
4.83589,57.78219565,12.77338035,57.78219533,12.77337767,16:17:13.835190,0.03777,1.39969,1.50000,-0.00525,0.04551,-0.02075,-0.00001,-0.02708,0.03959,0.07344,0.98210,4.79790,1.43772,-2.93919,-2.91271,-5.27526,-1.48451,4.81492,-5.43422,-1.51966,-2.87979,-2.87979,A,151609.80
4.85089,57.78219551,12.77337919,57.78219533,12.77337767,16:17:13.850169,0.00767,1.39969,1.39969,-0.00575,0.04551,-0.01587,0.00977,-0.01975,0.01006,0.04429,1.02224,4.84548,1.43012,-2.93205,-2.90557,-5.34372,-1.50037,4.81492,-5.43422,-1.51966,-2.87979,-2.87979,A,151609.80
4.85872,57.78219548,12.77337898,57.78219533,12.77337767,16:17:13.858006,0.00511,1.39969,1.39969,-0.00586,0.04551,-0.01678,0.00717,-0.02280,-0.00348,0.02714,0.99479,4.85320,1.42403,-2.92789,-2.90141,-5.35627,-1.50326,4.81492,-5.43422,-1.51966,-2.87979,-2.87979,A,151609.80
4.86967,57.78219545,12.77337872,57.78219533,12.77337767,16:17:13.868955,0.00566,1.39969,1.39969,-0.00583,0.04551,-0.01724,0.01160,-0.02189,0.05557,0.03947,0.96825,4.86382,1.41917,-2.92423,-2.89776,-5.37151,-1.50686,4.81492,-5.43422,-1.51966,-2.87979,-2.87979,A,151609.80
4.87951,57.78219542,12.77337849,57.78219533,12.77337767,16:17:13.878791,0.00510,1.39969,1.39969,-0.00551,0.04551,-0.01358,0.01038,-0.02922,0.05020,0.05459,0.96325,4.87421,1.41527,-2.92115,-2.89467,-5.38521,-1.51013,4.81492,-5.43422,-1.51966,-2.87979,-2.87979,A,151609.80
4.88993,57.78219539,12.77337827,57.78219533,12.77337767,16:17:13.889209,0.00528,1.39969,1.39969,-0.00572,0.04551,-0.00564,-0.00077,-0.03090,0.08253,0.01610,0.94892,4.88432,1.41216,-2.91852,-2.89204,-5.39856,-1.51335,4.81492,-5.43422,-1.51966,-2.87979,-2.87979,A,151609.80
4.90040,57.78219536,12.77337805,57.78219533,12.77337767,16:17:13.899690,0.00535,1.39969,1.39969,-0.00626,0.04551,-0.01144,-0.00092,-0.03120,0.02050,-0.00146,0.91073,4.89486,1.40966,-2.91628,-2.88980,-5.41136,-1.51647,4.81492,-5.43422,-1.51966,-2.87979,-2.87979,A,151609.80
4.91058,57.78219533,12.77337784,57.78219533,12.77337767,16:17:13.909866,0.00513,1.39969,1.39969,-0.00691,0.04551,-0.01449,-0.01207,-0.02998,0.09534,-0.00616,0.88816,4.90504,1.40767,-2.91437,-2.88789,-5.42367,-1.51951,4.81492,-5.43422,-1.51966,-2.87979,-2.87979,A,151609.80
4.96696,57.78219531,12.77337765,57.78219483,12.77337533,16:17:13.966421,0.05111,1.39969,1.50000,-0.00708,0.04551,-0.01907,-0.02001,-0.02402,0.05929,0.02635,0.95014,4.91566,1.40608,-2.91274,-2.88627,-5.43536,-1.52241,4.93242,-5.57254,-1.57526,-2.75942,-2.75942,A,151609.90
4.98781,57.78219509,12.77337612,57.78219483,12.77337533,16:17:13.987094,0.00737,1.39969,1.39969,-0.00864,0.04551,-0.01678,-0.01070,-0.03074,0.01501,-0.00458,0.94910,4.98242,1.40480,-2.89065,-2.86418,-5.52585,-1.54688,4.93242,-5.57254,-1.57526,-2.75942,-2.75942,A,151609.90
4.99596,57.78219505,12.77337594,57.78219483,12.77337533,16:17:13.995238,0.00512,1.39969,1.39969,-0.00851,0.04551,-0.01388,-0.01757,-0.02616,0.06149,0.03751,0.94184,4.99064,1.40378,-2.87464,-2.84816,-5.53639,-1.55064,4.93242,-5.57254,-1.57526,-2.75942,-2.75942,A,151609.90
5.00660,57.78219501,12.77337572,57.78219483,12.77337533,16:17:14.005880,0.00535,1.39969,1.39969,-0.00904,0.04551,-0.01678,-0.02047,-0.02143,0.00409,0.00073,0.88365,5.00106,1.40296,-2.86091,-2.83443,-5.54950,-1.55528,4.93242,-5.57254,-1.57526,-2.75942,-2.75942,A,151609.90
5.02221,57.78219497,12.77337552,57.78219483,12.77337533,16:17:14.022131,0.01057,1.39969,1.39969,0.00000,0.04551,-0.01755,-0.02551,-0.02158,0.07631,0.01787,0.93178,5.01146,1.39969,-2.89257,-2.86610,-5.57254,-1.57526,4.93242,-5.57254,-1.57526,-2.75942,-2.75942,A,151609.90
5.05991,57.78219475,12.77337480,57.78219450,12.77337283,16:17:14.059186,0.02478,1.39969,1.39969,-0.00054,0.03717,-0.02870,-0.00856,-0.02891,-0.04453,0.04679,1.05628,5.03806,1.39969,-2.87469,-2.85307,-5.60400,-1.58415,5.05473,-5.72075,-1.61233,-2.89653,-2.89653,A,151610.00
5.07702,57.78219464,12.77337405,57.78219450,12.77337283,16:17:14.076299,0.00682,1.39969,1.39969,-0.00090,0.03717,-0.02442,0.01557,-0.03303,0.01739,0.05844,1.00863,5.07020,1.39969,-2.88004,-2.85842,-5.64855,-1.59705,5.05473,-5.72075,-1.61233,-2.89653,-2.89653,A,151610.00
5.08586,57.78219461,12.77337384,57.78219450,12.77337283,16:17:14.085133,0.00542,1.39969,1.39969,-0.00122,0.03717,-0.02167,0.00748,-0.02525,0.09565,0.02287,0.99778,5.08052,1.39969,-2.88549,-2.86387,-5.66086,-1.60035,5.05473,-5.72075,-1.61233,-2.89653,-2.89653,A,151610.00
5.09570,57.78219458,12.77337362,57.78219450,12.77337283,16:17:14.094970,0.00487,1.39969,1.39969,-0.00132,0.03717,-0.01510,-0.00612,-0.01883,-0.01269,0.03331,1.00571,5.09066,1.39969,-2.89008,-2.86846,-5.67418,-1.60389,5.05473,-5.72075,-1.61233,-2.89653,-2.89653,A,151610.00
5.10632,57.78219454,12.77337339,57.78219450,12.77337283,16:17:14.105589,0.00509,1.39969,1.39969,-0.00194,0.03717,-0.01984,-0.00932,-0.01669,0.06515,0.00116,0.97362,5.10107,1.39969,-2.89395,-2.87233,-5.68782,-1.60748,5.05473,-5.72075,-1.61233,-2.89653,-2.89653,A,151610.00
5.11692,57.78219451,12.77337318,57.78219450,12.77337283,16:17:14.116195,0.00530,1.39969,1.39969,-0.00235,0.03717,-0.01770,-0.01360,-0.00768,0.01153,0.01385,0.98911,5.11145,1.39969,-2.89726,-2.87564,-5.70024,-1.61070,5.05473,-5.72075,-1.61233,-2.89653,-2.89653,A,151610.00
5.12689,57.78219449,12.77337298,57.78219450,12.77337283,16:17:14.126160,0.00487,1.39969,1.39969,-0.00297,0.03717,-0.02030,-0.01192,-0.00539,0.00659,0.00092,0.97569,5.12183,1.39969,-2.90007,-2.87846,-5.71178,-1.61364,5.05473,-5.72075,-1.61233,-2.89653,-2.89653,A,151610.00
5.13752,57.78219446,12.77337279,57.78219450,12.77337283,16:17:14.136792,0.00498,1.39969,1.39969,-0.00329,0.03717,-0.01999,-0.00871,-0.00845,0.00647,0.01909,0.97271,5.13219,1.39969,-2.90245,-2.88084,-5.72324,-1.61654,5.05473,-5.72075,-1.61233,-2.89653,-2.89653,A,151610.00
5.14780,57.78219444,12.77337261,57.78219450,12.77337283,16:17:14.147065,0.00486,1.39969,1.39969,-0.00345,0.03717,-0.01449,-0.00520,-0.01272,-0.01293,0.02605,0.96063,5.14276,1.39969,-2.90448,-2.88286,-5.73404,-1.61925,5.05473,-5.72075,-1.61233,-2.89653,-2.89653,A,151610.00
5.18630,57.78219442,12.77337244,57.78219383,12.77336800,16:17:14.185562,0.03297,1.39969,1.39969,-0.00339,0.03717,-0.01999,-0.00291,-0.01578,0.03007,0.04313,0.96569,5.15295,1.39969,-2.90621,-2.88459,-5.74420,-1.62177,5.18077,-6.00728,-1.68646,-2.88843,-2.88843,A,151610.20
5.20474,57.78219425,12.77337127,57.78219383,12.77336800,16:17:14.204010,0.00805,1.39969,1.39969,-0.00481,0.03719,-0.02579,-0.00550,-0.01807,-0.02422,0.01006,1.04017,5.19863,1.39969,-2.90511,-2.88347,-5.81354,-1.63977,5.18077,-6.00728,-1.68646,-2.88843,-2.88843,A,151610.20
5.21197,57.78219422,12.77337099,57.78219383,12.77336800,16:17:14.211242,0.00489,1.51879,1.51879,-0.00470,0.03739,-0.02778,-0.00062,-0.01547,0.03825,0.05033,1.00699,5.20692,1.42351,-2.90566,-2.88391,-5.83027,-1.64396,5.18077,-6.00728,-1.68646,-2.88843,-2.88843,A,151610.20
5.22235,57.78219417,12.77337065,57.78219383,12.77336800,16:17:14.221614,0.00487,1.51879,1.51879,-0.00482,0.03776,-0.02809,-0.00260,-0.00768,-0.00970,0.03697,0.98503,5.21708,1.44257,-2.90603,-2.88406,-5.85036,-1.64905,5.18077,-6.00728,-1.68646,-2.88843,-2.88843,A,151610.20
5.23299,57.78219413,12.77337032,57.78219383,12.77336800,16:17:14.232264,0.00512,1.51879,1.51879,-0.00466,0.03830,-0.02961,-0.00428,-0.00051,0.01690,0.05850,0.99162,5.22768,1.45781,-2.90638,-2.88411,-5.86959,-1.65392,5.18077,-6.00728,-1.68646,-2.88843,-2.88843,A,151610.20
5.24307,57.78219408,12.77337002,57.78219383,12.77336800,16:17:14.242344,0.00481,1.51879,1.51879,-0.00435,0.03886,-0.02488,0.00198,0.00423,0.03050,0.06124,0.93897,5.23803,1.47001,-2.90674,-2.88413,-5.88762,-1.65848,5.18077,-6.00728,-1.68646,-2.88843,-2.88843,A,151610.20
5.25359,57.78219405,12.77336973,57.78219383,12.77336800,16:17:14.252857,0.00497,1.51879,1.51879,-0.00431,0.03940,-0.02014,-0.00046,0.00408,-0.00207,0.04148,0.92330,5.24825,1.47977,-2.90707,-2.88415,-5.90501,-1.66288,5.18077,-6.00728,-1.68646,-2.88843,-2.88843,A,151610.20
5.26406,57.78219401,12.77336944,57.78219383,12.77336800,16:17:14.263559,0.00505,1.51879,1.51879,-0.00484,0.03994,-0.02228,0.00030,0.00423,-0.01568,0.00787,0.94398,5.25882,1.48757,-2.90739,-2.88416,-5.92169,-1.66711,5.18077,-6.00728,-1.68646,-2.88843,-2.88843,A,151610.20
5.27443,57.78219397,12.77336917,57.78219383,12.77336800,16:17:14.273697,0.00503,1.51879,1.51879,-0.00474,0.04039,-0.02381,-0.00001,0.00087,0.04056,0.04758,0.94160,5.26915,1.49381,-2.90770,-2.88420,-5.93770,-1.67116,5.18077,-6.00728,-1.68646,-2.88843,-2.88843,A,151610.20
5.30207,57.78219394,12.77336892,57.78219350,12.77336533,16:17:14.301337,0.02227,1.51879,1.51879,-0.00580,0.04082,-0.02595,-0.01146,-0.00371,0.03995,-0.02409,0.96636,5.27959,1.49881,-2.90799,-2.88425,-5.95276,-1.67497,5.29640,-6.16536,-1.72352,-2.91129,-2.91129,A,151610.30
5.32131,57.78219380,12.77336795,57.78219350,12.77336533,16:17:14.320585,0.00857,1.51879,1.51879,-0.00676,0.04249,-0.02488,-0.00947,-0.00402,0.02623,0.02257,1.03523,5.31584,1.50281,-2.91065,-2.88593,-6.01046,-1.68979,5.29640,-6.16536,-1.72352,-2.91129,-2.91129,A,151610.30
5.32801,57.78219377,12.77336770,57.78219350,12.77336533,16:17:14.327729,0.00486,1.51879,1.51879,-0.00689,0.04294,-0.02152,-0.00795,-0.00035,0.06600,0.02800,0.99997,5.32298,1.50600,-2.91426,-2.88928,-6.02503,-1.69326,5.29640,-6.16536,-1.72352,-2.91129,-2.91129,A,151610.30
5.33842,57.78219373,12.77336738,57.78219350,12.77336533,16:17:14.337691,0.00487,1.51879,1.51879,-0.00725,0.04362,-0.02182,-0.00291,0.00270,-0.04355,0.01629,0.99113,5.33316,1.50856,-2.91721,-2.89183,-6.04401,-1.69786,5.29640,-6.16536,-1.72352,-2.91129,-2.91129,A,151610.30
5.34907,57.78219369,12.77336708,57.78219350,12.77336533,16:17:14.348342,0.00513,1.51879,1.51879,-0.00718,0.04430,-0.02625,-0.00306,0.00652,0.03672,0.04685,0.95221,5.34375,1.51061,-2.91977,-2.89400,-6.06202,-1.70219,5.29640,-6.16536,-1.72352,-2.91129,-2.91129,A,151610.30
5.35939,57.78219366,12.77336679,57.78219350,12.77336533,16:17:14.358660,0.00504,1.51879,1.51879,-0.00720,0.04492,-0.02427,-0.00245,0.00576,-0.01385,0.04087,0.96959,5.35434,1.51224,-2.92199,-2.89586,-6.07908,-1.70626,5.29640,-6.16536,-1.72352,-2.91129,-2.91129,A,151610.30
5.36960,57.78219362,12.77336652,57.78219350,12.77336533,16:17:14.368867,0.00501,1.51879,1.51879,-0.00721,0.04546,-0.02961,0.00335,0.00484,0.00213,0.04392,0.97649,5.36427,1.51355,-2.92394,-2.89750,-6.09474,-1.70997,5.29640,-6.16536,-1.72352,-2.91129,-2.91129,A,151610.30
5.37984,57.78219359,12.77336627,57.78219350,12.77336533,16:17:14.379103,0.00485,1.51879,1.51879,-0.00763,0.04588,-0.02259,0.00320,0.00774,0.03294,0.01354,0.98253,5.37480,1.51460,-2.92562,-2.89893,-6.11010,-1.71359,5.29640,-6.16536,-1.72352,-2.91129,-2.91129,A,151610.30
5.39027,57.78219356,12.77336602,57.78219350,12.77336533,16:17:14.389540,0.00488,1.51879,1.51879,-0.00744,0.04622,-0.02992,-0.00138,0.00240,0.02946,0.05838,0.99576,5.38499,1.51544,-2.92707,-2.90018,-6.12463,-1.71700,5.29640,-6.16536,-1.72352,-2.91129,-2.91129,A,151610.30
5.41812,57.78219353,12.77336578,57.78219317,12.77336283,16:17:14.417387,0.02234,1.51879,1.51879,-0.00877,0.04648,-0.01923,-0.00871,0.00438,0.07784,-0.04923,0.99711,5.39559,1.51611,-2.92831,-2.90128,-6.13868,-1.72029,5.41266,-6.31357,-1.76059,-2.89653,-2.89653,A,151610.40
5.43916,57.78219340,12.77336478,57.78219317,12.77336283,16:17:14.438431,0.00879,1.51879,1.51879,-0.01014,0.04696,-0.03480,-0.00077,0.00133,-0.05246,0.01976,1.00412,5.43344,1.51665,-2.92575,-2.89843,-6.19838,-1.73479,5.41266,-6.31357,-1.76059,-2.89653,-2.89653,A,151610.40
5.44548,57.78219337,12.77336458,57.78219317,12.77336283,16:17:14.444748,0.00494,1.51879,1.51879,-0.00999,0.04701,-0.03068,0.00702,0.00667,0.03751,0.04514,0.94465,5.44017,1.51707,-2.92524,-2.89789,-6.21014,-1.73756,5.41266,-6.31357,-1.76059,-2.89653,-2.89653,A,151610.40
5.45578,57.78219334,12.77336429,57.78219317,12.77336283,16:17:14.455051,0.00485,1.51879,1.51879,-0.01068,0.04713,-0.03648,0.00351,0.00423,0.05740,0.00329,0.97002,5.45075,1.51742,-2.92460,-2.89718,-6.22725,-1.74169,5.41266,-6.31357,-1.76059,-2.89653,-2.89653,A,151610.40
5.46621,57.78219330,12.77336402,57.78219317,12.77336283,16:17:14.465479,0.00489,1.51879,1.51879,-0.01037,0.04721,-0.03908,0.00824,0.00163,-0.05435,0.07192,1.03663,5.46094,1.51769,-2.92406,-2.89659,-6.24335,-1.74557,5.41266,-6.31357,-1.76059,-2.89653,-2.89653,A,151610.40
5.47702,57.78219327,12.77336375,57.78219317,12.77336283,16:17:14.476287,0.00530,1.51879,1.51879,-0.01106,0.04735,-0.03480,0.01817,0.00194,0.03306,0.00207,0.94733,5.47169,1.51791,-2.92360,-2.89605,-6.25911,-1.74938,5.41266,-6.31357,-1.76059,-2.89653,-2.89653,A,151610.40
5.48706,57.78219324,12.77336351,57.78219317,12.77336283,16:17:14.486335,0.00495,1.51879,1.51879,-0.01144,0.04755,-0.04366,0.01343,-0.00264,0.00445,0.02635,0.94574,5.48201,1.51809,-2.92325,-2.89558,-6.27340,-1.75284,5.41266,-6.31357,-1.76059,-2.89653,-2.89653,A,151610.40
5.49754,57.78219321,12.77336328,57.78219317,12.77336283,16:17:14.496814,0.00495,1.51879,1.51879,-0.01098,0.04784,-0.04992,0.00839,0.00087,0.02001,0.08296,0.95654,5.49223,1.51823,-2.92296,-2.89513,-6.28722,-1.75620,5.41266,-6.31357,-1.76059,-2.89653,-2.89653,A,151610.40
5.50808,57.78219318,12.77336305,57.78219317,12.77336283,16:17:14.507599,0.00510,1.51879,1.51879,-0.01133,0.04818,-0.04458,0.00015,-0.00417,0.04215,0.03026,0.94916,5.50304,1.51834,-2.92273,-2.89470,-6.30081,-1.75950,5.41266,-6.31357,-1.76059,-2.89653,-2.89653,A,151610.40
5.53527,57.78219315,12.77336284,57.78219267,12.77336033,16:17:14.534540,0.02189,1.51879,1.51879,-0.01180,0.04852,-0.05053,0.00076,-0.00463,-0.06051,0.02525,1.04304,5.51300,1.51843,-2.92259,-2.89437,-6.31289,-1.76244,5.52984,-6.46178,-1.81618,-2.78270,-2.78270,A,151610.50
5.55320,57.78219302,12.77336195,57.78219267,12.77336033,16:17:14.552469,0.00655,1.51879,1.51879,-0.01274,0.04939,-0.05023,0.01557,-0.00295,0.00964,0.07381,0.99802,5.54779,1.51850,-2.90413,-2.87540,-6.36622,-1.77671,5.52984,-6.46178,-1.81618,-2.78270,-2.78270,A,151610.50
5.56205,57.78219298,12.77336171,57.78219267,12.77336033,16:17:14.561325,0.00517,1.51879,1.51879,-0.01310,0.04948,-0.05099,0.01832,0.00087,0.01653,0.02501,0.90676,5.55654,1.51856,-2.88987,-2.86108,-6.38021,-1.78119,5.52984,-6.46178,-1.81618,-2.78270,-2.78270,A,151610.50
5.57254,57.78219293,12.77336144,57.78219267,12.77336033,16:17:14.571813,0.00526,1.51879,1.51879,-0.01419,0.04951,-0.05435,0.00290,0.00499,0.01110,-0.01098,0.88249,5.56709,1.51861,-2.87763,-2.84883,-6.39629,-1.78640,5.52984,-6.46178,-1.81618,-2.78270,-2.78270,A,151610.50
5.58251,57.78219289,12.77336119,57.78219267,12.77336033,16:17:14.581778,0.00484,1.51879,1.51879,-0.01552,0.04951,-0.05053,-0.00184,0.00423,-0.00043,-0.03135,0.93208,5.57745,1.51864,-2.86724,-2.83844,-6.41125,-1.79141,5.52984,-6.46178,-1.81618,-2.78270,-2.78270,A,151610.50
5.59322,57.78219284,12.77336094,57.78219267,12.77336033,16:17:14.592492,0.00515,1.51879,1.51879,-0.01573,0.04951,-0.05817,0.00076,0.00469,-0.05972,0.04331,0.97990,5.58787,1.51867,-2.85840,-2.82960,-6.42567,-1.79637,5.52984,-6.46178,-1.81618,-2.78270,-2.78270,A,151610.50
5.60336,57.78219280,12.77336072,57.78219267,12.77336033,16:17:14.602636,0.00490,1.51879,1.51879,-0.01701,0.04951,-0.05527,0.00167,0.00255,0.03617,-0.02934,1.01168,5.59831,1.51870,-2.85090,-2.82210,-6.43897,-1.80107,5.52984,-6.46178,-1.81618,-2.78270,-2.78270,A,151610.50
5.61371,57.78219276,12.77336051,57.78219267,12.77336033,16:17:14.612977,0.00500,1.51879,1.51879,-0.01745,0.04951,-0.05313,-0.00245,0.00453,0.07533,0.02300,1.04035,5.60837,1.51872,-2.84453,-2.81573,-6.45145,-1.80558,5.52984,-6.46178,-1.81618,-2.78270,-2.78270,A,151610.50
5.62395,57.78219272,12.77336030,57.78219267,12.77336033,16:17:14.623215,0.00485,1.51879,1.51879,-0.01710,0.04951,-0.06046,-0.00993,0.00255,-0.01586,0.08741,1.07220,5.61892,1.51873,-2.83911,-2.81030,-6.46357,-1.81003,5.52984,-6.46178,-1.81618,-2.78270,-2.78270,A,151610.50
5.65186,57.78219268,12.77336011,57.78219233,12.77335783,16:17:14.651127,0.02236,1.51879,1.51879,-0.01740,0.04951,-0.05618,0.00274,-0.00188,0.00433,0.03569,1.03895,5.62911,1.51874,-2.83449,-2.80568,-6.47525,-1.81439,5.64591,-6.60998,-1.85325,-2.89653,-2.89653,A,151610.60
5.66347,57.78219255,12.77335936,57.78219233,12.77335783,16:17:14.662742,0.00519,1.65089,1.65089,-0.01870,0.04979,-0.04168,0.00503,0.01171,-0.03697,0.01165,0.93946,5.65841,1.54517,-2.84662,-2.81765,-6.51920,-1.82932,5.64591,-6.60998,-1.85325,-2.89653,-2.89653,A,151610.60
5.67352,57.78219250,12.77335910,57.78219233,12.77335783,16:17:14.672794,0.00502,1.65089,1.65089,-0.01942,0.04999,-0.03862,0.01924,0.01614,-0.01623,-0.00396,0.88322,5.66819,1.56632,-2.85801,-2.82893,-6.53485,-1.83425,5.64591,-6.60998,-1.85325,-2.89653,-2.89653,A,151610.60
5.68377,57.78219246,12.77335883,57.78219233,12.77335783,16:17:14.683038,0.00486,1.65089,1.65089,-0.02021,0.05018,-0.03419,0.01740,0.01690,0.04526,-0.00970,0.90890,5.67873,1.58323,-2.86768,-2.83848,-6.55062,-1.83908,5.64591,-6.60998,-1.85325,-2.89653,-2.89653,A,151610.60
5.69464,57.78219242,12.77335856,57.78219233,12.77335783,16:17:14.693913,0.00506,1.65089,1.65089,-0.02150,0.05041,-0.03587,0.00763,0.01767,0.02861,-0.04392,0.97630,5.68958,1.59676,-2.87587,-2.84654,-6.56663,-1.84387,5.64591,-6.60998,-1.85325,-2.89653,-2.89653,A,151610.60
5.70543,57.78219238,12.77335832,57.78219233,12.77335783,16:17:14.704716,0.00544,1.65089,1.65089,-0.02215,0.05061,-0.03710,0.01633,0.01202,0.03392,-0.00348,1.01071,5.69979,1.60759,-2.88289,-2.85344,-6.58103,-1.84805,5.64591,-6.60998,-1.85325,-2.89653,-2.89653,A,151610.60
5.71523,57.78219235,12.77335809,57.78219233,12.77335783,16:17:14.714502,0.00485,1.65089,1.65089,-0.02200,0.05078,-0.03480,0.01007,0.00377,-0.00275,0.04898,1.04609,5.71020,1.61625,-2.88886,-2.85932,-6.59462,-1.85191,5.64591,-6.60998,-1.85325,-2.89653,-2.89653,A,151610.60
5.72563,57.78219231,12.77335787,57.78219233,12.77335783,16:17:14.724904,0.00499,1.65089,1.65089,-0.02225,0.05095,-0.02579,0.00717,0.00270,0.09449,0.01452,1.04426,5.72029,1.62318,-2.89396,-2.86431,-6.60767,-1.85554,5.64591,-6.60998,-1.85325,-2.89653,-2.89653,A,151610.60
5.73606,57.78219228,12.77335765,57.78219233,12.77335783,16:17:14.735577,0.00502,1.65089,1.65089,-0.02288,0.05120,-0.02732,-0.00673,0.00117,0.01092,-0.00994,1.07421,5.73101,1.62872,-2.89828,-2.86849,-6.62062,-1.85908,5.64591,-6.60998,-1.85325,-2.89653,-2.89653,A,151610.60
5.76333,57.78219225,12.77335745,57.78219200,12.77335533,16:17:14.762596,0.02189,1.65089,1.65089,-0.02243,0.05152,-0.02778,-0.00550,0.00041,0.05087,0.06130,0.99686,5.74105,1.63315,-2.90199,-2.87202,-6.63267,-1.86231,5.75786,-6.75819,-1.89031,-2.89653,-2.89653,A,151610.70
5.77765,57.78219213,12.77335661,57.78219200,12.77335533,16:17:14.776916,0.00513,1.65089,1.65089,-0.02360,0.05276,-0.02427,0.00732,0.00530,-0.02379,-0.01116,0.88493,5.77228,1.63670,-2.90396,-2.87326,-6.68269,-1.87580,5.75786,-6.75819,-1.89031,-2.89653,-2.89653,A,151610.70
5.78778,57.78219209,12.77335633,57.78219200,12.77335533,16:17:14.787048,0.00487,1.65089,1.65089,-0.02339,0.05330,-0.02564,0.02015,0.01568,-0.09455,0.04191,0.90134,5.78274,1.63954,-2.90696,-2.87595,-6.69901,-1.87997,5.75786,-6.75819,-1.89031,-2.89653,-2.89653,A,151610.70
5.79820,57.78219206,12.77335607,57.78219200,12.77335533,16:17:14.797473,0.00490,1.65089,1.65089,-0.02382,0.05389,-0.02534,0.02489,0.01568,0.02416,0.00275,0.89804,5.79291,1.64181,-2.90956,-2.87820,-6.71459,-1.88392,5.75786,-6.75819,-1.89031,-2.89653,-2.89653,A,151610.70
5.81015,57.78219202,12.77335580,57.78219200,12.77335533,16:17:14.809423,0.00645,1.65089,1.65089,-0.02380,0.05454,-0.01663,0.02580,0.02255,0.01171,0.02593,0.95508,5.80390,1.64363,-2.91178,-2.88004,-6.73029,-1.88789,5.75786,-6.75819,-1.89031,-2.89653,-2.89653,A,151610.70
5.81895,57.78219200,12.77335560,57.78219200,12.77335533,16:17:14.818213,0.00485,1.65089,1.65089,-0.02396,0.05511,-0.01938,0.02657,0.02118,0.10327,0.01482,0.97356,5.81389,1.64508,-2.91383,-2.88177,-6.74228,-1.89085,5.75786,-6.75819,-1.89031,-2.89653,-2.89653,A,151610.70
5.82954,57.78219196,12.77335537,57.78219200,12.77335533,16:17:14.828804,0.00495,1.65089,1.65089,-0.02435,0.05568,-0.02366,0.01023,0.02286,0.02544,0.00335,1.05249,5.82422,1.64624,-2.91552,-2.88313,-6.75599,-1.89425,5.75786,-6.75819,-1.89031,-2.89653,-2.89653,A,151610.70
5.84134,57.78219193,12.77335513,57.78219200,12.77335533,16:17:14.840617,0.00576,1.65089,1.65089,-0.02544,0.05621,-0.02457,0.01465,0.02011,0.05344,-0.04532,1.07031,5.83576,1.64717,-2.91694,-2.88423,-6.77047,-1.89786,5.75786,-6.75819,-1.89031,-2.89653,-2.89653,A,151610.70
5.85086,57.78219191,12.77335494,57.78219200,12.77335533,16:17:14.850132,0.00488,1.65089,1.65089,-0.02569,0.05658,-0.03740,0.00839,0.02194,0.00220,0.02050,1.05085,5.84580,1.64791,-2.91828,-2.88536,-6.78156,-1.90056,5.75786,-6.75819,-1.89031,-2.89653,-2.89653,A,151610.70
5.88910,57.78219188,12.77335474,57.78219133,12.77335033,16:17:14.888374,0.03260,1.65089,1.65089,-0.02598,0.05684,-0.03206,0.00320,0.01186,0.06594,0.01434,1.01595,5.85615,1.64851,-2.91938,-2.88631,-6.79359,-1.90350,5.88394,-7.05460,-1.96444,-2.89653,-2.89653,A,151610.90
5.90227,57.78219172,12.77335353,57.78219133,12.77335033,16:17:14.901538,0.00678,1.65089,1.65089,-0.02761,0.05701,-0.03038,-0.01619,0.01202,0.00970,-0.01415,0.93214,5.89695,1.64899,-2.91825,-2.88508,-6.86516,-1.92182,5.88394,-7.05460,-1.96444,-2.89653,-2.89653,A,151610.90
5.91118,57.78219167,12.77335319,57.78219133,12.77335033,16:17:14.910447,0.00513,1.65089,1.65089,-0.02845,0.05701,-0.03725,-0.01283,0.01202,-0.02898,-0.02086,0.93763,5.90611,1.64937,-2.91947,-2.88630,-6.88542,-1.92679,5.88394,-7.05460,-1.96444,-2.89653,-2.89653,A,151610.90
5.92194,57.78219163,12.77335283,57.78219133,12.77335033,16:17:14.921212,0.00536,1.65089,1.65089,-0.02952,0.05701,-0.03587,-0.00947,0.00484,-0.00939,-0.03727,0.96770,5.91620,1.64967,-2.92043,-2.88726,-6.90646,-1.93195,5.88394,-7.05460,-1.96444,-2.89653,-2.89653,A,151610.90
5.93182,57.78219158,12.77335250,57.78219133,12.77335033,16:17:14.931082,0.00485,1.65089,1.65089,-0.02994,0.05701,-0.04504,0.00458,0.00362,0.00421,0.01128,0.99003,5.92677,1.64992,-2.92126,-2.88809,-6.92618,-1.93678,5.88394,-7.05460,-1.96444,-2.89653,-2.89653,A,151610.90
5.94222,57.78219154,12.77335218,57.78219133,12.77335033,16:17:14.941488,0.00486,1.65089,1.65089,-0.03077,0.05701,-0.04412,0.00015,0.00301,0.09217,-0.01818,1.01010,5.93696,1.65011,-2.92194,-2.88877,-6.94537,-1.94147,5.88394,-7.05460,-1.96444,-2.89653,-2.89653,A,151610.90
5.95289,57.78219150,12.77335186,57.78219133,12.77335033,16:17:14.952166,0.00513,1.65089,1.65089,-0.03162,0.05701,-0.04427,-0.00138,0.00011,0.02068,-0.02135,1.05341,5.94756,1.65027,-2.92250,-2.88933,-6.96391,-1.94600,5.88394,-7.05460,-1.96444,-2.89653,-2.89653,A,151610.90
5.96309,57.78219146,12.77335157,57.78219133,12.77335033,16:17:14.962361,0.00494,1.65089,1.65089,-0.03212,0.05701,-0.04336,0.00717,-0.00173,0.03501,0.00232,1.02767,5.95802,1.65039,-2.92300,-2.88983,-6.98120,-1.95021,5.88394,-7.05460,-1.96444,-2.89653,-2.89653,A,151610.90
5.97355,57.78219143,12.77335129,57.78219133,12.77335033,16:17:14.972999,0.00497,1.65089,1.65089,-0.03229,0.05701,-0.05267,0.00870,0.00453,-0.01800,0.02916,1.00296,5.96824,1.65049,-2.92342,-2.89025,-6.99765,-1.95421,5.88394,-7.05460,-1.96444,-2.89653,-2.89653,A,151610.90
5.98383,57.78219139,12.77335103,57.78219133,12.77335033,16:17:14.983097,0.00485,1.65089,1.65089,-0.03355,0.05701,-0.05344,0.01175,0.00560,0.13091,-0.04038,0.98283,5.97879,1.65057,-2.92377,-2.89060,-7.01342,-1.95804,5.88394,-7.05460,-1.96444,-2.89653,-2.89653,A,151610.90
6.01044,57.78219136,12.77335078,57.78219100,12.77334783,16:17:15.009706,0.02106,1.65089,1.65089,-0.03394,0.05701,-0.05970,-0.00184,0.01263,0.04447,0.01800,0.97582,5.98900,1.65063,-2.92407,-2.89090,-7.02829,-1.96164,6.00579,-7.20281,-2.00151,-2.89653,-2.89653,A,151611.00
6.02754,57.78219123,12.77334982,57.78219100,12.77334783,16:17:15.026814,0.00661,1.65089,1.65089,-0.03612,0.05701,-0.05466,-0.01329,0.01278,0.05441,-0.01848,0.89609,6.02243,1.65069,-2.92273,-2.88956,-7.08479,-1.97587,6.00579,-7.20281,-2.00151,-2.89653,-2.89653,A,151611.00
6.03641,57.78219119,12.77334955,57.78219100,12.77334783,16:17:15.035688,0.00508,1.65089,1.65089,-0.03731,0.05701,-0.05603,-0.01818,0.00835,-0.01616,-0.04526,0.99430,6.03115,1.65073,-2.92329,-2.89012,-7.10114,-1.97984,6.00579,-7.20281,-2.00151,-2.89653,-2.89653,A,151611.00
6.04658,57.78219115,12.77334924,57.78219100,12.77334783,16:17:15.045845,0.00485,1.65089,1.65089,-0.03824,0.05701,-0.06122,-0.00657,0.00713,-0.01476,-0.02129,1.02675,6.04153,1.65076,-2.92365,-2.89048,-7.11932,-1.98429,6.00579,-7.20281,-2.00151,-2.89653,-2.89653,A,151611.00
6.05723,57.78219112,12.77334895,57.78219100,12.77334783,16:17:15.056498,0.00511,1.65089,1.65089,-0.03926,0.05701,-0.06168,0.01374,0.00117,-0.00701,-0.02861,1.05585,6.05191,1.65079,-2.92396,-2.89079,-7.13658,-1.98851,6.00579,-7.20281,-2.00151,-2.89653,-2.89653,A,151611.00
6.06740,57.78219108,12.77334868,57.78219100,12.77334783,16:17:15.066670,0.00488,1.65089,1.65089,-0.03978,0.05701,-0.07008,0.01542,0.00056,0.00037,0.01153,1.09367,6.06235,1.65081,-2.92424,-2.89107,-7.15265,-1.99243,6.00579,-7.20281,-2.00151,-2.89653,-2.89653,A,151611.00
6.07770,57.78219105,12.77334843,57.78219100,12.77334783,16:17:15.076972,0.00496,1.65089,1.65089,-0.04072,0.05701,-0.06352,0.02611,-0.00448,0.06118,-0.02532,1.05884,6.07238,1.65082,-2.92448,-2.89131,-7.16771,-1.99609,6.00579,-7.20281,-2.00151,-2.89653,-2.89653,A,151611.00
6.08800,57.78219102,12.77334818,57.78219100,12.77334783,16:17:15.087558,0.00486,1.65089,1.65089,-0.04092,0.05701,-0.06962,0.02886,0.00117,0.05710,0.03135,0.99997,6.08296,1.65084,-2.92467,-2.89150,-7.18244,-1.99968,6.00579,-7.20281,-2.00151,-2.89653,-2.89653,A,151611.00
6.09840,57.78219099,12.77334794,57.78219100,12.77334783,16:17:15.097674,0.00487,1.65089,1.65089,-0.04070,0.05701,-0.06367,0.01191,0.00774,0.06850,0.05002,0.89938,6.09314,1.65085,-2.92483,-2.89165,-7.19654,-2.00311,6.00579,-7.20281,-2.00151,-2.89653,-2.89653,A,151611.00
6.12533,57.78219095,12.77334770,57.78219067,12.77334533,16:17:15.124604,0.02139,1.65089,1.65089,-0.04033,0.05701,-0.05176,-0.00352,0.01385,0.03087,0.05337,0.88535,6.10410,1.65086,-2.92493,-2.89176,-7.21049,-2.00651,6.12092,-7.35101,-2.03857,-2.89653,-2.89653,A,151611.10
6.13566,57.78219086,12.77334696,57.78219067,12.77334533,16:17:15.134924,0.00493,1.65089,1.65089,-0.04170,0.05701,-0.05053,-0.02505,0.02423,-0.00281,-0.00683,1.02883,6.13058,1.65086,-2.92395,-2.89078,-7.25465,-2.01759,6.12092,-7.35101,-2.03857,-2.89653,-2.89653,A,151611.10
6.14591,57.78219082,12.77334667,57.78219067,12.77334533,16:17:15.145182,0.00496,1.65089,1.65089,-0.04198,0.05701,-0.05313,-0.00123,0.01736,-0.06289,0.01220,1.01217,6.14063,1.65087,-2.92424,-2.89107,-7.27198,-2.02185,6.12092,-7.35101,-2.03857,-2.89653,-2.89653,A,151611.10
6.15660,57.78219078,12.77334638,57.78219067,12.77334533,16:17:15.155889,0.00525,1.65089,1.65089,-0.04240,0.05701,-0.05130,0.00519,0.01354,0.02733,0.00256,1.03621,6.15117,1.65087,-2.92446,-2.89129,-7.28890,-2.02600,6.12092,-7.35101,-2.03857,-2.89653,-2.89653,A,151611.10
6.16704,57.78219074,12.77334611,57.78219067,12.77334533,16:17:15.166310,0.00538,1.65089,1.65089,-0.04286,0.05701,-0.04214,0.01481,0.00499,0.00378,-0.00756,1.03316,6.16149,1.65088,-2.92465,-2.89148,-7.30500,-2.02995,6.12092,-7.35101,-2.03857,-2.89653,-2.89653,A,151611.10
6.17719,57.78219071,12.77334586,57.78219067,12.77334533,16:17:15.176464,0.00513,1.41713,1.41713,-0.04366,0.05701,-0.03694,0.01374,-0.00234,0.03385,-0.03831,1.03541,6.17186,1.60413,-2.92485,-2.89167,-7.31960,-2.03353,6.12092,-7.35101,-2.03857,-2.89653,-2.89653,A,151611.10
6.18734,57.78219068,12.77334563,57.78219067,12.77334533,16:17:15.186610,0.00489,1.41713,1.41713,-0.04380,0.05701,-0.03267,0.01175,0.00270,-0.01708,0.00360,0.99643,6.18229,1.56673,-2.92501,-2.89184,-7.33353,-2.03693,6.12092,-7.35101,-2.03857,-2.89653,-2.89653,A,151611.10
6.19765,57.78219065,12.77334541,57.78219067,12.77334533,16:17:15.196917,0.00497,1.41713,1.41713,-0.04489,0.05701,-0.02427,0.01527,0.00423,0.05887,-0.06777,1.01419,6.19233,1.53681,-2.92517,-2.89199,-7.34632,-2.04006,6.12092,-7.35101,-2.03857,-2.89653,-2.89653,A,151611.10
6.20849,57.78219063,12.77334521,57.78219067,12.77334533,16:17:15.207766,0.00542,1.41713,1.41713,-0.04577,0.05701,-0.02198,0.00244,0.01141,0.01019,-0.05539,1.01577,6.20290,1.51287,-2.92529,-2.89212,-7.35862,-2.04306,6.12092,-7.35101,-2.03857,-2.89653,-2.89653,A,151611.10
6.21992,57.78219060,12.77334502,57.78219067,12.77334533,16:17:15.219188,0.00645,1.41713,1.41713,-0.04628,0.05701,-0.02320,0.00183,0.02087,0.11151,-0.02916,0.97356,6.21307,1.49372,-2.92542,-2.89225,-7.36986,-2.04579,6.12092,-7.35101,-2.03857,-2.89653,-2.89653,A,151611.10
6.24506,57.78219058,12.77334486,57.78219017,12.77334283,16:17:15.244335,0.02120,1.41713,1.41713,-0.04682,0.05701,-0.02075,-0.00123,0.03065,0.05289,-0.03184,0.97545,6.22399,1.47841,-2.92560,-2.89243,-7.37905,-2.04801,6.24082,-7.49922,-2.09417,-2.78270,-2.78270,A,151611.20
6.25541,57.78219049,12.77334420,57.78219017,12.77334283,16:17:15.254683,0.00502,1.41713,1.41713,-0.04728,0.05715,-0.00915,-0.00321,0.02591,-0.05563,-0.02623,0.96166,6.25034,1.46615,-2.90764,-2.87439,-7.41812,-2.05873,6.24082,-7.49922,-2.09417,-2.78270,-2.78270,A,151611.20
6.26578,57.78219044,12.77334395,57.78219017,12.77334283,16:17:15.265047,0.00514,1.41713,1.41713,-0.04773,0.05735,-0.01159,0.01114,0.02607,-0.02227,-0.03422,0.96325,6.26029,1.45635,-2.89340,-2.86003,-7.43312,-2.06350,6.24082,-7.49922,-2.09417,-2.78270,-2.78270,A,151611.20
6.27589,57.78219040,12.77334371,57.78219017,12.77334283,16:17:15.275162,0.00486,1.41713,1.41713,-0.04780,0.05769,-0.00915,0.01206,0.02240,-0.00287,-0.01177,1.01656,6.27084,1.44850,-2.88131,-2.84775,-7.44752,-2.06824,6.24082,-7.49922,-2.09417,-2.78270,-2.78270,A,151611.20
6.28806,57.78219036,12.77334347,57.78219017,12.77334283,16:17:15.287566,0.00664,1.41713,1.41713,-0.04784,0.05822,-0.00609,0.01160,0.02240,0.01458,-0.01244,1.00022,6.28103,1.44223,-2.87109,-2.83720,-7.46118,-2.07289,6.24082,-7.49922,-2.09417,-2.78270,-2.78270,A,151611.20
6.29694,57.78219032,12.77334329,57.78219017,12.77334283,16:17:15.296215,0.00513,1.41713,1.41713,-0.04792,0.05913,-0.00777,0.01007,0.02057,0.06393,-0.01251,0.98228,6.29162,1.43721,-2.86256,-2.82815,-7.47204,-2.07677,6.24082,-7.49922,-2.09417,-2.78270,-2.78270,A,151611.20
6.30744,57.78219028,12.77334309,57.78219017,12.77334283,16:17:15.306715,0.00523,1.41713,1.41713,-0.04793,0.06020,-0.00548,0.00274,0.02210,-0.00305,-0.01043,1.00101,6.30204,1.43319,-2.85531,-2.82028,-7.48428,-2.08116,6.24082,-7.49922,-2.09417,-2.78270,-2.78270,A,151611.20
6.31759,57.78219025,12.77334290,57.78219017,12.77334283,16:17:15.316865,0.00498,1.41713,1.41713,-0.04774,0.06148,0.00078,0.00015,0.02317,-0.00744,-0.00073,1.00857,6.31224,1.42998,-2.84927,-2.81349,-7.49546,-2.08529,6.24082,-7.49922,-2.09417,-2.78270,-2.78270,A,151611.20
6.32800,57.78219021,12.77334271,57.78219017,12.77334283,16:17:15.327505,0.00500,1.41713,1.41713,-0.04783,0.06284,0.00902,0.00503,0.02637,0.00738,-0.02416,0.97393,6.32295,1.42741,-2.84421,-2.80764,-7.50676,-2.08952,6.24082,-7.49922,-2.09417,-2.78270,-2.78270,A,151611.20
6.33827,57.78219017,12.77334253,57.78219017,12.77334283,16:17:15.337542,0.00488,1.41713,1.41713,-0.04799,0.06405,0.01254,-0.00627,0.03111,0.07131,-0.02910,0.94812,6.33301,1.42536,-2.84003,-2.80275,-7.51699,-2.09343,6.24082,-7.49922,-2.09417,-2.78270,-2.78270,A,151611.20
6.36604,57.78219014,12.77334236,57.78218983,12.77334033,16:17:15.365315,0.02219,1.41713,1.41713,-0.04745,0.06524,0.00948,-0.01192,0.03126,0.01372,0.01635,0.97222,6.34374,1.42371,-2.83653,-2.79856,-7.52727,-2.09740,6.36052,-7.64742,-2.13124,-2.89653,-2.89653,A,151611.30
6.38076,57.78219000,12.77334162,57.78218983,12.77334033,16:17:15.380037,0.00535,1.41713,1.41713,-0.04692,0.06810,0.02873,-0.02551,0.03263,-0.04837,-0.03733,1.03310,6.37539,1.42239,-2.84944,-2.80980,-7.57101,-2.11257,6.36052,-7.64742,-2.13124,-2.89653,-2.89653,A,151611.30
6.39071,57.78218996,12.77334138,57.78218983,12.77334033,16:17:15.389973,0.00489,1.41713,1.41713,-0.04676,0.06884,0.02979,-0.01268,0.03660,-0.02818,-0.02123,1.02273,6.38564,1.42134,-2.86193,-2.82186,-7.58527,-2.11710,6.36052,-7.64742,-2.13124,-2.89653,-2.89653,A,151611.30
6.40131,57.78218992,12.77334114,57.78218983,12.77334033,16:17:15.400581,0.00494,1.41713,1.41713,-0.04636,0.06966,0.03117,-0.00566,0.03676,0.01104,-0.00531,1.02761,6.39597,1.42050,-2.87258,-2.83204,-7.59934,-2.12144,6.36052,-7.64742,-2.13124,-2.89653,-2.89653,A,151611.30
6.41189,57.78218988,12.77334091,57.78218983,12.77334033,16:17:15.411160,0.00507,1.41713,1.41713,-0.04592,0.07059,0.03621,-0.00841,0.04256,0.06551,-0.00634,1.00754,6.40684,1.41983,-2.88169,-2.84060,-7.61307,-2.12555,6.36052,-7.64742,-2.13124,-2.89653,-2.89653,A,151611.30
6.42213,57.78218985,12.77334071,57.78218983,12.77334033,16:17:15.421400,0.00491,1.41713,1.41713,-0.04594,0.07161,0.04155,-0.01406,0.04164,0.10303,-0.03495,0.94507,6.41681,1.41929,-2.88956,-2.84788,-7.62535,-2.12911,6.36052,-7.64742,-2.13124,-2.89653,-2.89653,A,151611.30
6.43280,57.78218982,12.77334050,57.78218983,12.77334033,16:17:15.432075,0.00518,1.41713,1.41713,-0.04533,0.07286,0.04293,-0.03544,0.04684,0.00988,0.00177,0.95178,6.42747,1.41886,-2.89632,-2.85391,-7.63757,-2.13258,6.36052,-7.64742,-2.13124,-2.89653,-2.89653,A,151611.30
6.44284,57.78218979,12.77334031,57.78218983,12.77334033,16:17:15.442111,0.00499,1.41713,1.41713,-0.04384,0.07413,0.04446,-0.02841,0.04775,-0.09479,0.05984,0.97649,6.43776,1.41851,-2.90220,-2.85904,-7.64873,-2.13567,6.36052,-7.64742,-2.13124,-2.89653,-2.89653,A,151611.30
6.45337,57.78218977,12.77334013,57.78218983,12.77334033,16:17:15.452643,0.00497,1.41713,1.41713,-0.04443,0.07546,0.05240,-0.01222,0.04745,-0.05948,-0.08064,0.98643,6.44805,1.41824,-2.90728,-2.86334,-7.65965,-2.13864,6.36052,-7.64742,-2.13124,-2.89653,-2.89653,A,151611.30
6.49191,57.78218974,12.77333995,57.78218917,12.77333500,16:17:15.491178,0.03311,1.41713,1.41713,-0.04376,0.07673,0.05011,0.00167,0.04913,-0.14372,0.00232,1.07085,6.45875,1.41801,-2.91168,-2.86700,-7.67025,-2.14147,6.48650,-7.96360,-2.20537,-2.91129,-2.91129,A,151611.50
6.51075,57.78218957,12.77333878,57.78218917,12.77333500,16:17:15.510021,0.00797,1.41713,1.41713,-0.04134,0.08154,0.05285,-0.02948,0.04653,0.00701,0.00360,0.94696,6.50272,1.41784,-2.91535,-2.86786,-7.73963,-2.16008,6.48650,-7.96360,-2.20537,-2.91129,-2.91129,A,151611.50
6.51808,57.78218954,12.77333847,57.78218917,12.77333500,16:17:15.517351,0.00491,1.41713,1.41713,-0.03994,0.08268,0.05301,-0.03055,0.04760,-0.07741,0.05203,0.92208,6.51278,1.41770,-2.92151,-2.87336,-7.75774,-2.16428,6.48650,-7.96360,-2.20537,-2.91129,-2.91129,A,151611.50
6.52905,57.78218949,12.77333810,57.78218917,12.77333500,16:17:15.528320,0.00549,1.41713,1.41713,-0.03878,0.08389,0.05820,-0.02933,0.05401,0.01385,0.03331,0.93635,6.52372,1.41758,-2.92653,-2.87767,-7.77961,-2.16952,6.48650,-7.96360,-2.20537,-2.91129,-2.91129,A,151611.50
6.53885,57.78218945,12.77333777,57.78218917,12.77333500,16:17:15.538114,0.00489,1.41713,1.41713,-0.03820,0.08491,0.05744,-0.02291,0.05753,0.00677,0.00098,0.95325,6.53377,1.41749,-2.93096,-2.88150,-7.79921,-2.17412,6.48650,-7.96360,-2.20537,-2.91129,-2.91129,A,151611.50
6.54946,57.78218941,12.77333745,57.78218917,12.77333500,16:17:15.548731,0.00498,1.41713,1.41713,-0.03728,0.08585,0.06339,-0.02261,0.05829,0.03288,0.01952,1.03676,6.54410,1.41742,-2.93475,-2.88475,-7.81852,-2.17864,6.48650,-7.96360,-2.20537,-2.91129,-2.91129,A,151611.50
6.55973,57.78218937,12.77333714,57.78218917,12.77333500,16:17:15.559001,0.00485,1.41713,1.41713,-0.03664,0.08661,0.06248,-0.00825,0.05768,-0.12096,0.00006,1.06256,6.55469,1.41736,-2.93803,-2.88758,-7.83686,-2.18288,6.48650,-7.96360,-2.20537,-2.91129,-2.91129,A,151611.50
6.57040,57.78218933,12.77333684,57.78218917,12.77333500,16:17:15.569671,0.00507,1.41713,1.41713,-0.03665,0.08712,0.06538,0.00427,0.05172,-0.04203,-0.04374,1.02876,6.56494,1.41732,-2.94086,-2.89012,-7.85424,-2.18688,6.48650,-7.96360,-2.20537,-2.91129,-2.91129,A,151611.50
6.58098,57.78218930,12.77333656,57.78218917,12.77333500,16:17:15.580249,0.00525,1.41713,1.41713,-0.03692,0.08749,0.06064,0.00534,0.04424,0.03947,-0.05819,1.00418,6.57565,1.41728,-2.94329,-2.89233,-7.87083,-2.19066,6.48650,-7.96360,-2.20537,-2.91129,-2.91129,A,151611.50
6.60701,57.78218927,12.77333631,57.78218883,12.77333250,16:17:15.606279,0.02089,1.41713,1.41713,-0.03641,0.08771,0.06324,-0.00398,0.04363,0.04624,-0.00567,0.98094,6.58592,1.41725,-2.94540,-2.89431,-7.88621,-2.19413,6.60261,-8.11180,-2.24243,-2.89653,-2.89653,A,151611.60
6.61777,57.78218917,12.77333557,57.78218883,12.77333250,16:17:15.617032,0.00509,1.41713,1.41713,-0.03491,0.08803,0.07133,-0.02520,0.05539,0.01800,-0.02098,0.99582,6.61241,1.41723,-2.94349,-2.89221,-7.92973,-2.20468,6.60261,-8.11180,-2.24243,-2.89653,-2.89653,A,151611.60
6.62979,57.78218913,12.77333523,57.78218883,12.77333250,16:17:15.629064,0.00671,1.41713,1.41713,-0.03435,0.08803,0.06309,-0.02093,0.05462,-0.08863,-0.00177,1.00534,6.62290,1.41721,-2.94336,-2.89209,-7.94980,-2.20936,6.60261,-8.11180,-2.24243,-2.89653,-2.89653,A,151611.60
6.63959,57.78218909,12.77333492,57.78218883,12.77333250,16:17:15.638866,0.00612,1.41713,1.41713,-0.03346,0.08803,0.05881,-0.01024,0.05233,0.06387,0.01952,0.99284,6.63451,1.41719,-2.94328,-2.89201,-7.96836,-2.21368,6.60261,-8.11180,-2.24243,-2.89653,-2.89653,A,151611.60
6.64903,57.78218906,12.77333464,57.78218883,12.77333250,16:17:15.648302,0.00516,1.55429,1.55429,-0.03286,0.08803,0.06660,-0.01085,0.04760,-0.07704,0.00860,1.02083,6.64368,1.44461,-2.94328,-2.89201,-7.98515,-2.21757,6.60261,-8.11180,-2.24243,-2.89653,-2.89653,A,151611.60
6.65908,57.78218902,12.77333434,57.78218883,12.77333250,16:17:15.658353,0.00482,1.55429,1.55429,-0.03203,0.08803,0.06782,-0.00214,0.04531,0.06771,0.01867,0.95471,6.65403,1.46655,-2.94318,-2.89191,-8.00249,-2.22162,6.60261,-8.11180,-2.24243,-2.89653,-2.89653,A,151611.60
6.66974,57.78218899,12.77333406,57.78218883,12.77333250,16:17:15.669009,0.00513,1.55429,1.55429,-0.03121,0.08803,0.07500,-0.00169,0.04271,-0.03623,0.01452,0.95337,6.66425,1.48410,-2.94307,-2.89179,-8.01936,-2.22557,6.60261,-8.11180,-2.24243,-2.89653,-2.89653,A,151611.60
6.67988,57.78218895,12.77333379,57.78218883,12.77333250,16:17:15.679153,0.00488,1.55429,1.55429,-0.03159,0.08803,0.07576,-0.00046,0.04424,0.03544,-0.06027,0.92391,6.67482,1.49814,-2.94297,-2.89169,-8.03542,-2.22933,6.60261,-8.11180,-2.24243,-2.89653,-2.89653,A,151611.60
6.69029,57.78218892,12.77333353,57.78218883,12.77333250,16:17:15.689564,0.00489,1.55429,1.55429,-0.03136,0.08803,0.07072,0.00228,0.04363,0.02409,-0.01806,0.92275,6.68500,1.50937,-2.94287,-2.89160,-8.05081,-2.23294,6.60261,-8.11180,-2.24243,-2.89653,-2.89653,A,151611.60
6.70095,57.78218889,12.77333328,57.78218883,12.77333250,16:17:15.700224,0.00516,1.55429,1.55429,-0.03062,0.08803,0.06492,-0.01253,0.04057,0.05557,0.01513,0.94684,6.69561,1.51835,-2.94277,-2.89149,-8.06579,-2.23646,6.60261,-8.11180,-2.24243,-2.89653,-2.89653,A,151611.60
6.72733,57.78218886,12.77333304,57.78218867,12.77333000,16:17:15.726607,0.02114,1.55429,1.55429,-0.03006,0.08803,0.07164,-0.01558,0.03767,0.00409,-0.00110,1.00375,6.70624,1.52554,-2.94267,-2.89140,-8.08008,-2.23982,6.72293,-8.26001,-2.26096,-3.01719,-3.01719,A,151611.70
6.73940,57.78218877,12.77333230,57.78218867,12.77333000,16:17:15.738677,0.00653,1.55429,1.55429,-0.02807,0.08803,0.06706,-0.01879,0.02698,-0.00073,0.02922,1.03785,6.73259,1.53129,-2.95910,-2.90783,-8.12358,-2.24969,6.72293,-8.26001,-2.26096,-3.01719,-3.01719,A,151611.70
6.74895,57.78218874,12.77333201,57.78218867,12.77333000,16:17:15.748224,0.00532,1.55429,1.55429,-0.02702,0.08803,0.06492,-0.01100,0.02485,-0.03404,0.03831,1.02535,6.74357,1.53589,-2.97476,-2.92349,-8.14096,-2.25277,6.72293,-8.26001,-2.26096,-3.01719,-3.01719,A,151611.70
6.75890,57.78218871,12.77333171,57.78218867,12.77333000,16:17:15.758176,0.00487,1.55429,1.55429,-0.02578,0.08803,0.06813,-0.00413,0.02927,-0.00146,0.05106,0.96587,6.75384,1.53957,-2.98800,-2.93673,-8.15855,-2.25576,6.72293,-8.26001,-2.26096,-3.01719,-3.01719,A,151611.70
6.76987,57.78218869,12.77333141,57.78218867,12.77333000,16:17:15.769144,0.00532,1.55429,1.55429,-0.02476,0.08803,0.06996,0.00595,0.03340,-0.00189,0.03453,0.96099,6.76455,1.54252,-2.99917,-2.94790,-8.17640,-2.25868,6.72293,-8.26001,-2.26096,-3.01719,-3.01719,A,151611.70
6.77988,57.78218867,12.77333114,57.78218867,12.77333000,16:17:15.779151,0.00501,1.55429,1.55429,-0.02347,0.08803,0.06858,-0.00184,0.03996,-0.00061,0.05520,0.95117,6.77482,1.54487,-3.00874,-2.95747,-8.19241,-2.26111,6.72293,-8.26001,-2.26096,-3.01719,-3.01719,A,151611.70
6.79016,57.78218865,12.77333088,57.78218867,12.77333000,16:17:15.789436,0.00490,1.55429,1.55429,-0.02249,0.08803,0.07240,-0.00688,0.04546,0.02775,0.03562,0.94947,6.78488,1.54675,-3.01687,-2.96560,-8.20771,-2.26332,6.72293,-8.26001,-2.26096,-3.01719,-3.01719,A,151611.70
6.80083,57.78218863,12.77333063,57.78218867,12.77333000,16:17:15.800101,0.00517,1.55429,1.55429,-0.02162,0.08803,0.06935,-0.00932,0.04623,0.04605,0.02934,0.97307,6.79548,1.54826,-3.02374,-2.97247,-8.22277,-2.26542,6.72293,-8.26001,-2.26096,-3.01719,-3.01719,A,151611.70
6.81112,57.78218861,12.77333039,57.78218867,12.77333000,16:17:15.810391,0.00507,1.55429,1.55429,-0.02081,0.08803,0.06782,-0.01787,0.05279,-0.02385,0.02782,1.00284,6.80605,1.54947,-3.02959,-2.97832,-8.23696,-2.26730,6.72293,-8.26001,-2.26096,-3.01719,-3.01719,A,151611.70
6.82154,57.78218859,12.77333016,57.78218867,12.77333000,16:17:15.820811,0.00496,1.55429,1.55429,-0.02046,0.08803,0.07164,-0.01238,0.04500,0.02843,-0.00329,1.00717,6.81621,1.55043,-3.03458,-2.98331,-8.25027,-2.26899,6.72293,-8.26001,-2.26096,-3.01719,-3.01719,A,151611.70
6.84810,57.78218858,12.77332995,57.78218817,12.77332733,16:17:15.847531,0.02113,1.55429,1.55429,-0.02056,0.08803,0.06767,-0.02429,0.04210,0.00323,-0.03233,1.01583,6.82681,1.55120,-3.03880,-2.98753,-8.26319,-2.27057,6.84401,-8.41809,-2.31656,-2.80341,-2.80341,A,151611.80
6.85870,57.78218851,12.77332922,57.78218817,12.77332733,16:17:15.857971,0.00508,1.55429,1.55429,-0.01848,0.08794,0.06110,-0.00642,0.03462,-0.00531,0.05197,0.98405,6.85359,1.55182,-3.00872,-2.95749,-8.30635,-2.27837,6.84401,-8.41809,-2.31656,-2.80341,-2.80341,A,151611.80
6.86915,57.78218847,12.77332892,57.78218817,12.77332733,16:17:15.868419,0.00514,1.55429,1.55429,-0.01851,0.08774,0.06064,-0.00108,0.03126,-0.02525,-0.01659,0.94721,6.86381,1.55232,-2.98474,-2.93363,-8.32411,-2.28254,6.84401,-8.41809,-2.31656,-2.80341,-2.80341,A,151611.80
6.87926,57.78218843,12.77332864,57.78218817,12.77332733,16:17:15.878533,0.00486,1.55429,1.55429,-0.01805,0.08749,0.06767,-0.00841,0.02973,0.05606,0.00811,0.95471,6.87422,1.55271,-2.96434,-2.91338,-8.34086,-2.28679,6.84401,-8.41809,-2.31656,-2.80341,-2.80341,A,151611.80
6.88965,57.78218840,12.77332837,57.78218817,12.77332733,16:17:15.888925,0.00501,1.55429,1.55429,-0.01758,0.08715,0.06278,-0.00337,0.02820,0.01019,0.01409,0.96575,6.88432,1.55303,-2.94698,-2.89622,-8.35670,-2.29106,6.84401,-8.41809,-2.31656,-2.80341,-2.80341,A,151611.80
6.89988,57.78218836,12.77332811,57.78218817,12.77332733,16:17:15.899148,0.00485,1.55429,1.55429,-0.01742,0.08678,0.06125,0.00030,0.02408,0.06021,-0.00665,0.98362,6.89484,1.55328,-2.93218,-2.88163,-8.37189,-2.29537,6.84401,-8.41809,-2.31656,-2.80341,-2.80341,A,151611.80
6.91052,57.78218832,12.77332787,57.78218817,12.77332733,16:17:15.909790,0.00509,1.55429,1.55429,-0.01721,0.08638,0.06370,-0.00123,0.02561,0.05588,-0.00287,0.95892,6.90504,1.55348,-2.91955,-2.86924,-8.38649,-2.29970,6.84401,-8.41809,-2.31656,-2.80341,-2.80341,A,151611.80
6.92097,57.78218828,12.77332764,57.78218817,12.77332733,16:17:15.920241,0.00515,1.55429,1.55429,-0.01702,0.08599,0.05866,-0.00016,0.02317,0.02214,-0.00354,0.98222,6.91565,1.55364,-2.90881,-2.85872,-8.40002,-2.30388,6.84401,-8.41809,-2.31656,-2.80341,-2.80341,A,151611.80
6.93110,57.78218824,12.77332742,57.78218817,12.77332733,16:17:15.930375,0.00488,1.55429,1.55429,-0.01629,0.08559,0.05011,-0.00902,0.02118,0.05923,0.03898,0.98649,6.92604,1.55377,-2.89965,-2.84980,-8.41275,-2.30795,6.84401,-8.41809,-2.31656,-2.80341,-2.80341,A,151611.80
6.94153,57.78218821,12.77332722,57.78218817,12.77332733,16:17:15.940803,0.00509,1.55429,1.55429,-0.01556,0.08511,0.05240,-0.01161,0.01217,0.00964,0.03934,0.98918,6.93617,1.55388,-2.89183,-2.84226,-8.42482,-2.31193,6.84401,-8.41809,-2.31656,-2.80341,-2.80341,A,151611.80
6.96962,57.78218817,12.77332703,57.78218800,12.77332483,16:17:15.968896,0.02278,1.55429,1.55429,-0.01429,0.08457,0.05224,-0.02368,0.01538,-0.01128,0.07625,1.02852,6.94667,1.55396,-2.88513,-2.83587,-8.43636,-2.31582,6.96440,-8.56630,-2.33509,-3.01719,-3.01719,A,151611.90
6.98118,57.78218806,12.77332627,57.78218800,12.77332483,16:17:15.980448,0.00540,1.55429,1.55429,-0.01314,0.08242,0.05683,0.00076,0.01889,0.06594,-0.00518,1.01455,6.97579,1.55403,-2.90948,-2.86148,-8.48135,-2.32894,6.96440,-8.56630,-2.33509,-3.01719,-3.01719,A,151611.90
6.99104,57.78218802,12.77332600,57.78218800,12.77332483,16:17:15.990310,0.00486,1.55429,1.55429,-0.01286,0.08143,0.05255,-0.00321,0.02194,0.02678,0.01110,1.02364,6.98598,1.55408,-2.93198,-2.88456,-8.49708,-2.33255,6.96440,-8.56630,-2.33509,-3.01719,-3.01719,A,151611.90
7.00158,57.78218799,12.77332574,57.78218800,12.77332483,16:17:16.000852,0.00498,1.55429,1.55429,-0.01235,0.08030,0.04919,-0.00108,0.02011,0.00604,0.02855,0.96532,6.99624,1.55412,-2.95098,-2.90422,-8.51266,-2.33586,6.96440,-8.56630,-2.33509,-3.01719,-3.01719,A,151611.90
7.01209,57.78218797,12.77332548,57.78218800,12.77332483,16:17:16.011598,0.00510,1.55429,1.55429,-0.01136,0.07911,0.04949,0.00183,0.01874,0.02409,0.05655,0.94398,7.00704,1.55416,-2.96702,-2.92095,-8.52788,-2.33885,6.96440,-8.56630,-2.33509,-3.01719,-3.01719,A,151611.90
7.02227,57.78218794,12.77332525,57.78218800,12.77332483,16:17:16.021538,0.00488,1.55429,1.55429,-0.01115,0.07803,0.04751,0.00106,0.01858,0.02666,0.01202,0.96349,7.01700,1.55418,-2.98062,-2.93518,-8.54159,-2.34131,6.96440,-8.56630,-2.33509,-3.01719,-3.01719,A,151611.90
7.03294,57.78218792,12.77332502,57.78218800,12.77332483,16:17:16.032207,0.00515,1.55429,1.55429,-0.01086,0.07704,0.04171,-0.00031,0.01492,0.06856,0.01909,0.95148,7.02758,1.55421,-2.99206,-2.94720,-8.55524,-2.34360,6.96440,-8.56630,-2.33509,-3.01719,-3.01719,A,151611.90
7.04371,57.78218790,12.77332479,57.78218800,12.77332483,16:17:16.042973,0.00544,1.55429,1.55429,-0.01017,0.07619,0.03957,-0.01665,0.01813,0.04910,0.04569,0.97954,7.03863,1.55422,-3.00169,-2.95733,-8.56880,-2.34573,6.96440,-8.56630,-2.33509,-3.01719,-3.01719,A,151611.90
7.05359,57.78218789,12.77332460,57.78218800,12.77332483,16:17:16.052857,0.00498,1.55429,1.55429,-0.00970,0.07535,0.03315,-0.01955,0.00805,0.01110,0.04026,1.00571,7.04826,1.55424,-3.00991,-2.96604,-8.58003,-2.34732,6.96440,-8.56630,-2.33509,-3.01719,-3.01719,A,151611.90
7.06413,57.78218788,12.77332440,57.78218800,12.77332483,16:17:16.063607,0.00513,1.55429,1.55429,-0.00927,0.07441,0.03987,-0.01665,0.00988,0.03477,0.03105,1.00394,7.05881,1.55425,-3.01676,-2.97344,-8.59170,-2.34890,6.96440,-8.56630,-2.33509,-3.01719,-3.01719,A,151611.90
7.10275,57.78218786,12.77332422,57.78218733,12.77331983,16:17:16.102023,0.03335,1.55429,1.55429,-0.00922,0.07345,0.03224,-0.01192,0.00072,-0.05441,0.01159,1.03560,7.06913,1.55426,-3.02251,-2.97975,-8.60280,-2.35031,7.09730,-8.86271,-2.40922,-2.89653,-2.89653,A,151612.10
7.12175,57.78218774,12.77332292,57.78218733,12.77331983,16:17:16.121551,0.00654,1.62319,1.62319,-0.00847,0.06903,0.02720,0.01252,0.00362,0.04227,-0.00146,0.98350,7.11513,1.56804,-3.00593,-2.96575,-8.67990,-2.36372,7.09730,-8.86271,-2.40922,-2.89653,-2.89653,A,151612.10
7.13050,57.78218771,12.77332259,57.78218733,12.77331983,16:17:16.129758,0.00489,1.62319,1.62319,-0.00832,0.06819,0.01987,0.01435,0.00011,0.01964,0.02836,1.00827,7.12522,1.57907,-2.99491,-2.95523,-8.69925,-2.36781,7.09730,-8.86271,-2.40922,-2.89653,-2.89653,A,151612.10
7.14153,57.78218767,12.77332224,57.78218733,12.77331983,16:17:16.140798,0.00553,1.62319,1.62319,-0.00770,0.06742,0.01605,0.00732,0.00133,0.02800,0.06124,1.00247,7.13583,1.58790,-2.98536,-2.94611,-8.72011,-2.37227,7.09730,-8.86271,-2.40922,-2.89653,-2.89653,A,151612.10
7.15128,57.78218763,12.77332192,57.78218733,12.77331983,16:17:16.150548,0.00489,1.62319,1.62319,-0.00788,0.06677,0.01788,0.00351,-0.00096,0.08436,0.00750,0.97771,7.14622,1.59495,-2.97723,-2.93837,-8.73905,-2.37646,7.09730,-8.86271,-2.40922,-2.89653,-2.89653,A,151612.10
7.16182,57.78218759,12.77332160,57.78218733,12.77331983,16:17:16.161087,0.00500,1.62319,1.62319,-0.00842,0.06626,0.02399,-0.00795,-0.00112,0.05777,-0.01934,0.96600,7.15647,1.60060,-2.97024,-2.93168,-8.75780,-2.38069,7.09730,-8.86271,-2.40922,-2.89653,-2.89653,A,151612.10
7.17208,57.78218755,12.77332130,57.78218733,12.77331983,16:17:16.171584,0.00486,1.62319,1.62319,-0.00836,0.06586,0.01636,-0.00718,-0.00020,-0.01885,0.02294,0.96923,7.16703,1.60512,-2.96427,-2.92594,-8.77566,-2.38480,7.09730,-8.86271,-2.40922,-2.89653,-2.89653,A,151612.10
