Time,lat_estimated,lon_estimated,latitude,longitude,RealTime,CalculationTime,MeasuredVelocity,FilteredVelocity,Roll,SteeringAngle,RollRate,gy,gz,ax,ay,az,imu_read_timing,v_estimated,yaw_estimated,heading_estimated,x_estimated,y_estimated,GPS_timestamp,x_GPS,y_GPS,theta_GPS,theta_GPS_noUnwrap,status,NMEA timestamp
0.04732,57.68779883,11.98130683,57.68779883,11.98130683,15:24:21.581088,0.04727,0.00000,0.00000,-0.00022,0.09221,0.00362,-0.00527,-0.00178,-0.03636,0.01434,1.01168,0.00001,0.00000,-0.05641,0.00000,0.00000,0.00000,0.01488,0.00000,0.00000,0.00000,0.00000,A,142344.10
0.06283,57.68779883,11.98130683,57.68779883,11.98130683,15:24:21.596199,0.00741,0.00000,0.00000,0.00006,0.08862,0.00545,-0.00527,-0.00162,-0.02166,0.03007,1.01181,0.05492,0.00000,-0.05608,-0.00188,0.00000,0.00000,0.01488,0.00000,0.00000,0.00000,0.00000,A,142344.10
0.07105,57.68779883,11.98130683,57.68779883,11.98130683,15:24:21.604080,0.00523,0.00000,0.00000,0.00008,0.08808,0.01065,-0.00527,-0.00071,-0.02275,0.02593,1.01254,0.06510,0.00000,-0.05575,-0.00187,0.00000,0.00000,0.01488,0.00000,0.00000,0.00000,0.00000,A,142344.10
0.08157,57.68779883,11.98130683,57.68779883,11.98130683,15:24:21.614608,0.00535,0.00000,0.00000,-0.00002,0.08754,0.01294,0.00069,-0.00040,0.00586,0.01604,1.01095,0.07556,0.00000,-0.05542,-0.00187,0.00000,0.00000,0.01488,0.00000,0.00000,0.00000,0.00000,A,142344.10
0.09168,57.68779883,11.98130683,57.68779883,11.98130683,15:24:21.624711,0.00506,0.00000,0.00000,-0.00020,0.08709,0.01095,-0.00359,-0.00147,-0.00403,0.01183,1.00613,0.08596,0.00000,-0.05510,-0.00183,0.00000,0.00000,0.01488,0.00000,0.00000,0.00000,0.00000,A,142344.10
0.10263,57.68779883,11.98130683,57.68779883,11.98130683,15:24:21.635668,0.00548,0.00000,0.00000,-0.00024,0.08672,0.00943,-0.00252,-0.00086,-0.03489,0.02196,1.00375,0.09634,0.00000,-0.05479,-0.00175,0.00000,0.00000,0.01488,0.00000,0.00000,0.00000,0.00000,A,142344.10
0.11375,57.68779883,11.98130683,57.68779883,11.98130683,15:24:21.646792,0.00621,0.00000,0.00000,-0.00011,0.08641,0.01401,0.00206,-0.00056,-0.05118,0.02873,0.98783,0.10772,0.00000,-0.05450,-0.00165,0.00000,0.00000,0.01488,0.00000,0.00000,0.00000,0.00000,A,142344.10
0.13804,57.68779883,11.98130683,57.68779900,11.98130683,15:24:21.671081,0.02010,0.00000,0.00000,-0.00001,0.08629,0.00973,0.00542,0.00250,-0.02952,0.03044,0.97100,0.11709,0.00000,-0.05424,-0.00146,0.00000,0.00000,0.13374,0.00000,0.01853,1.57080,1.57080,A,142344.20
0.15165,57.68779884,11.98130683,57.68779900,11.98130683,15:24:21.684684,0.00710,0.00000,0.00000,0.00026,0.08629,0.01187,-0.00481,-0.00086,-0.01177,0.02739,1.01236,0.14585,0.00000,0.18160,0.23438,0.00000,0.00093,0.13374,0.00000,0.01853,1.57080,1.57080,A,142344.20
0.16005,57.68779885,11.98130683,57.68779900,11.98130683,15:24:21.693083,0.00510,0.00000,0.00000,0.00035,0.08629,0.00790,-0.00664,-0.00101,-0.02952,0.03392,1.02925,0.15433,0.00000,0.38206,0.43484,0.00000,0.00181,0.13374,0.00000,0.01853,1.57080,1.57080,A,142344.20
0.17039,57.68779886,11.98130683,57.68779900,11.98130683,15:24:21.703422,0.00520,0.00000,0.00000,0.00040,0.08629,0.00836,-0.00328,-0.00193,-0.02532,0.02983,1.02998,0.16437,0.00000,0.55245,0.60524,0.00000,0.00264,0.13374,0.00000,0.01853,1.57080,1.57080,A,142344.20
0.18118,57.68779886,11.98130683,57.68779900,11.98130683,15:24:21.714228,0.00559,0.00000,0.00000,0.00040,0.08629,0.01202,-0.00038,-0.00590,-0.02501,0.02397,1.02279,0.17509,0.00000,0.69729,0.75007,0.00000,0.00344,0.13374,0.00000,0.01853,1.57080,1.57080,A,142344.20
0.19160,57.68779887,11.98130683,57.68779900,11.98130683,15:24:21.724640,0.00561,0.00000,0.00000,0.00021,0.08624,0.00668,-0.00160,-0.00193,-0.02287,0.01464,1.01888,0.18514,0.00000,0.82040,0.87315,0.00000,0.00419,0.13374,0.00000,0.01853,1.57080,1.57080,A,142344.20
0.20616,57.68779888,11.98130683,57.68779900,11.98130683,15:24:21.739201,0.00978,3.28077,0.00000,0.00018,0.08604,0.00607,0.00084,-0.00269,-0.01812,0.02330,0.99900,0.20005,0.00000,0.92507,0.97769,0.00000,0.00491,0.13374,0.00000,0.01853,1.57080,1.57080,A,142344.20
0.21527,57.68779888,11.98130683,57.68779900,11.98130683,15:24:21.748306,0.00824,3.28077,0.00000,0.00023,0.08576,0.00194,0.00023,-0.00361,-0.01068,0.03318,0.98393,0.20839,0.00000,1.01406,1.06651,0.00000,0.00559,0.13374,0.00000,0.01853,1.57080,1.57080,A,142344.20
0.22580,57.68779889,11.98130683,57.68779900,11.98130683,15:24:21.758838,0.00820,3.28077,0.00000,0.00029,0.08536,0.00851,-0.00236,-0.00025,-0.00390,0.02879,0.97179,0.21890,0.00000,1.08974,1.14195,0.00000,0.00624,0.13374,0.00000,0.01853,1.57080,1.57080,A,142344.20
0.25316,57.68779889,11.98130683,57.68779867,11.98130617,15:24:21.786219,0.02508,3.28077,0.00000,0.00014,0.08488,0.00041,-0.00725,-0.00086,-0.01690,0.02043,0.97935,0.23077,0.00000,1.15411,1.20602,0.00000,0.00685,0.24854,-0.03962,-0.01853,-2.38956,-2.38956,A,142344.30
0.27356,57.68779888,11.98130680,57.68779867,11.98130617,15:24:21.806598,0.00959,3.28077,0.00000,-0.00038,0.08341,-0.01302,-0.00985,-0.00162,-0.00860,0.02855,1.00815,0.26748,0.00000,0.61491,0.66592,-0.00198,0.00558,0.24854,-0.03962,-0.01853,-2.38956,-2.38956,A,142344.30
0.28272,57.68779887,11.98130677,57.68779867,11.98130617,15:24:21.815762,0.00829,3.28077,0.00000,-0.00060,0.08315,-0.00814,-0.00695,-0.00162,-0.01305,0.02123,1.00479,0.27666,0.00000,0.15661,0.20746,-0.00386,0.00438,0.24854,-0.03962,-0.01853,-2.38956,-2.38956,A,142344.30
0.29439,57.68779886,11.98130674,57.68779867,11.98130617,15:24:21.827428,0.00900,3.28077,0.00000,-0.00079,0.08279,-0.01333,-0.00572,-0.00407,-0.03178,0.02739,0.99168,0.28828,0.00000,-0.23291,-0.18228,-0.00565,0.00323,0.24854,-0.03962,-0.01853,-2.38956,-2.38956,A,142344.30
0.30418,57.68779885,11.98130671,57.68779867,11.98130617,15:24:21.837224,0.00857,3.28077,0.00000,-0.00072,0.08253,-0.00936,-0.00313,-0.00483,-0.03453,0.04026,0.99290,0.29693,0.00000,-0.56398,-0.51351,-0.00735,0.00214,0.24854,-0.03962,-0.01853,-2.38956,-2.38956,A,142344.30
0.31520,57.68779884,11.98130668,57.68779867,11.98130617,15:24:21.848228,0.00895,3.28077,0.00000,-0.00082,0.08219,-0.00982,0.00130,-0.00514,-0.01037,0.03178,0.99271,0.30921,0.00000,-0.84536,-0.79509,-0.00896,0.00111,0.24854,-0.03962,-0.01853,-2.38956,-2.38956,A,142344.30
0.32488,57.68779883,11.98130666,57.68779867,11.98130617,15:24:21.857919,0.00840,3.28077,0.00000,-0.00108,0.08191,-0.01654,-0.00313,-0.00453,0.01098,0.02336,0.99985,0.31888,0.00000,-1.08450,-1.03441,-0.01050,0.00013,0.24854,-0.03962,-0.01853,-2.38956,-2.38956,A,142344.30
0.33592,57.68779883,11.98130663,57.68779867,11.98130617,15:24:21.868968,0.00872,3.28077,0.00000,-0.00129,0.08160,-0.01577,-0.00847,-0.00330,-0.00165,0.02574,1.00266,0.32860,0.00000,-1.28774,-1.23785,-0.01195,-0.00081,0.24854,-0.03962,-0.01853,-2.38956,-2.38956,A,142344.30
0.34706,57.68779882,11.98130661,57.68779867,11.98130617,15:24:21.880097,0.00944,3.28077,0.00000,-0.00158,0.08114,-0.02265,-0.00832,-0.00132,-0.02342,0.02763,1.00022,0.33984,0.00000,-1.46046,-1.41084,-0.01334,-0.00169,0.24854,-0.03962,-0.01853,-2.38956,-2.38956,A,142344.30
0.37218,57.68779881,11.98130659,57.68779867,11.98130583,15:24:21.905738,0.02425,3.28077,0.00000,-0.00178,0.08066,-0.01364,-0.00481,-0.00346,-0.03392,0.02580,0.99101,0.35074,0.00000,-1.60722,-1.55790,-0.01465,-0.00253,0.36781,-0.05944,-0.01853,3.14159,3.14159,A,142344.40
0.39139,57.68779880,11.98130655,57.68779867,11.98130583,15:24:21.924426,0.00892,3.28077,0.00000,-0.00267,0.07885,-0.02784,0.00084,-0.00422,0.00909,0.03056,1.00394,0.38374,0.00000,-0.90213,-0.85392,-0.01689,-0.00333,0.36781,-0.05944,-0.01853,3.14159,3.14159,A,142344.40
0.40105,57.68779880,11.98130651,57.68779867,11.98130583,15:24:21.934097,0.00819,3.28077,0.00000,-0.00285,0.07829,-0.02723,-0.00298,-0.00422,0.01141,0.03691,1.00949,0.39505,0.00000,-0.30276,-0.25489,-0.01902,-0.00409,0.36781,-0.05944,-0.01853,3.14159,3.14159,A,142344.40
0.41302,57.68779879,11.98130648,57.68779867,11.98130583,15:24:21.946065,0.00921,3.28077,0.00000,-0.00324,0.07783,-0.03104,-0.00588,-0.00651,-0.01287,0.02550,1.01644,0.40639,0.00000,0.20676,0.25435,-0.02104,-0.00482,0.36781,-0.05944,-0.01853,3.14159,3.14159,A,142344.40
0.42319,57.68779878,11.98130645,57.68779867,11.98130583,15:24:21.956225,0.00927,3.28077,0.00000,-0.00369,0.07744,-0.02998,-0.00298,-0.00987,-0.02001,0.01842,1.00894,0.41649,0.00000,0.63988,0.68723,-0.02296,-0.00550,0.36781,-0.05944,-0.01853,3.14159,3.14159,A,142344.40
0.43370,57.68779878,11.98130642,57.68779867,11.98130583,15:24:21.966740,0.00939,3.28077,0.00000,-0.00415,0.07701,-0.03883,-0.00343,-0.00926,-0.01641,0.02452,0.98613,0.42760,0.00000,1.00807,1.05516,-0.02478,-0.00615,0.36781,-0.05944,-0.01853,3.14159,3.14159,A,142344.40
0.44380,57.68779877,11.98130639,57.68779867,11.98130583,15:24:21.976840,0.00922,3.28077,0.00000,-0.00457,0.07659,-0.03868,0.00283,-0.00483,-0.02111,0.02294,0.98125,0.43719,0.00000,1.32108,1.36791,-0.02652,-0.00677,0.36781,-0.05944,-0.01853,3.14159,3.14159,A,142344.40
0.45475,57.68779877,11.98130636,57.68779867,11.98130583,15:24:21.987782,0.00960,3.28077,0.00000,-0.00508,0.07608,-0.03776,0.00802,-0.00743,-0.02190,0.01757,0.97533,0.44741,0.00000,1.58718,1.63369,-0.02816,-0.00736,0.36781,-0.05944,-0.01853,3.14159,3.14159,A,142344.40
0.46498,57.68779876,11.98130633,57.68779867,11.98130583,15:24:21.998025,0.00936,3.28077,0.00000,-0.00568,0.07560,-0.04769,0.01214,-0.00926,-0.02629,0.02184,0.97704,0.45894,0.00000,1.81341,1.85963,-0.02973,-0.00792,0.36781,-0.05944,-0.01853,3.14159,3.14159,A,142344.40
0.49934,57.68779876,11.98130631,57.68779967,11.98130550,15:24:22.032371,0.03346,3.28077,0.00000,-0.00618,0.07514,-0.04800,0.01520,-0.01002,-0.01769,0.02190,0.98796,0.46850,0.00000,2.00574,2.05169,-0.03121,-0.00845,0.49596,-0.07925,0.09266,1.74712,1.74712,A,142344.60
0.51635,57.68779880,11.98130627,57.68779967,11.98130550,15:24:22.049387,0.00890,3.28077,0.00000,-0.00824,0.07393,-0.05304,0.01718,-0.00743,-0.02861,0.02647,1.01077,0.50828,0.00000,1.96017,2.00537,-0.03361,-0.00339,0.49596,-0.07925,0.09266,1.74712,1.74712,A,142344.60
0.52674,57.68779885,11.98130623,57.68779967,11.98130550,15:24:22.059777,0.00923,3.28077,0.00000,-0.00902,0.07370,-0.05578,0.01291,-0.00682,-0.01745,0.01470,1.00802,0.52031,0.00000,1.92145,1.96651,-0.03589,0.00141,0.49596,-0.07925,0.09266,1.74712,1.74712,A,142344.60
0.53688,57.68779889,11.98130619,57.68779967,11.98130550,15:24:22.069927,0.00926,3.28077,0.00000,-0.00967,0.07356,-0.05578,0.01627,-0.00773,0.00183,0.01647,1.00144,0.53047,0.00000,1.88856,1.93353,-0.03806,0.00597,0.49596,-0.07925,0.09266,1.74712,1.74712,A,142344.60
0.54672,57.68779893,11.98130616,57.68779967,11.98130550,15:24:22.079753,0.00893,3.28077,0.00000,-0.01039,0.07347,-0.05746,0.01749,-0.00712,0.00427,0.00567,0.99497,0.53914,0.00000,1.86061,1.90553,-0.04012,0.01031,0.49596,-0.07925,0.09266,1.74712,1.74712,A,142344.60
0.55772,57.68779896,11.98130613,57.68779967,11.98130550,15:24:22.090764,0.00971,3.28077,0.00000,-0.01085,0.07347,-0.05808,0.01489,-0.00789,0.00360,0.03080,0.98619,0.54982,0.00000,1.83685,1.88177,-0.04208,0.01442,0.49596,-0.07925,0.09266,1.74712,1.74712,A,142344.60
0.56750,57.68779900,11.98130609,57.68779967,11.98130550,15:24:22.100541,0.00887,3.28077,0.00000,-0.01153,0.07347,-0.05685,0.01749,-0.00392,0.00817,0.01873,0.98710,0.56168,0.00000,1.81665,1.86157,-0.04394,0.01834,0.49596,-0.07925,0.09266,1.74712,1.74712,A,142344.60
0.57836,57.68779903,11.98130606,57.68779967,11.98130550,15:24:22.111400,0.00942,3.28077,0.00000,-0.01215,0.07347,-0.06220,0.01382,-0.00147,0.01574,0.01354,0.99186,0.57034,0.00000,1.79948,1.84440,-0.04570,0.02205,0.49596,-0.07925,0.09266,1.74712,1.74712,A,142344.60
0.58840,57.68779906,11.98130604,57.68779967,11.98130550,15:24:22.121686,0.00917,3.28077,0.00000,-0.01292,0.07347,-0.05884,0.00863,-0.00361,0.00549,0.01311,1.00363,0.58209,0.00000,1.78489,1.82981,-0.04738,0.02558,0.49596,-0.07925,0.09266,1.74712,1.74712,A,142344.60
0.61565,57.68779909,11.98130601,57.68780000,11.98130450,15:24:22.148706,0.02609,3.28077,0.00000,-0.01357,0.07347,-0.06037,0.00802,-0.00300,-0.00817,0.01702,1.02651,0.59270,0.00000,1.77249,1.81741,-0.04897,0.02894,0.61054,-0.13869,0.12973,2.58400,2.58400,A,142344.70
0.63448,57.68779914,11.98130593,57.68780000,11.98130450,15:24:22.167517,0.01012,3.28077,0.00000,-0.01597,0.07347,-0.06510,0.00634,-0.00666,-0.00921,0.00616,1.00192,0.62733,0.00000,1.88748,1.93240,-0.05346,0.03398,0.61054,-0.13869,0.12973,2.58400,2.58400,A,142344.70
0.65462,57.68779918,11.98130586,57.68780000,11.98130450,15:24:22.187655,0.00857,3.28077,0.00000,-0.01725,0.07347,-0.06510,0.01504,-0.01033,-0.04374,0.01970,0.96478,0.64857,0.00000,1.98522,2.03014,-0.05772,0.03876,0.61054,-0.13869,0.12973,2.58400,2.58400,A,142344.70
0.66553,57.68779922,11.98130579,57.68780000,11.98130450,15:24:22.198568,0.00908,3.28077,0.00000,-0.01812,0.07347,-0.06602,0.01627,-0.00560,-0.01110,0.00287,0.96508,0.65941,0.00000,2.06830,2.11322,-0.06177,0.04331,0.61054,-0.13869,0.12973,2.58400,2.58400,A,142344.70
0.67586,57.68779926,11.98130573,57.68780000,11.98130450,15:24:22.208905,0.00919,3.28077,0.00000,-0.01912,0.07347,-0.06678,0.01520,-0.00957,0.00671,-0.00781,0.98478,0.66989,0.00000,2.13891,2.18383,-0.06561,0.04763,0.61054,-0.13869,0.12973,2.58400,2.58400,A,142344.70
0.68619,57.68779930,11.98130567,57.68780000,11.98130450,15:24:22.219231,0.00919,3.28077,0.00000,-0.01972,0.07347,-0.06846,0.00985,-0.00605,0.00878,0.01769,1.00369,0.68007,0.00000,2.19894,2.24386,-0.06927,0.05174,0.61054,-0.13869,0.12973,2.58400,2.58400,A,142344.70
0.69647,57.68779933,11.98130561,57.68780000,11.98130450,15:24:22.229772,0.00941,3.28077,0.00000,-0.02017,0.07347,-0.06174,0.00176,-0.00392,-0.00354,0.02043,1.02578,0.68950,0.00000,2.24996,2.29488,-0.07274,0.05564,0.61054,-0.13869,0.12973,2.58400,2.58400,A,142344.70
0.70700,57.68779937,11.98130555,57.68780000,11.98130450,15:24:22.240033,0.00935,3.28077,0.00000,-0.02100,0.07347,-0.06113,-0.00328,-0.00101,-0.00622,0.00201,1.04706,0.70100,0.00000,2.29333,2.33825,-0.07604,0.05934,0.61054,-0.13869,0.12973,2.58400,2.58400,A,142344.70
0.73191,57.68779940,11.98130550,57.68780033,11.98130400,15:24:22.264952,0.02404,3.28077,0.00000,-0.02204,0.07347,-0.06327,-0.00389,0.00464,-0.01177,-0.01751,1.03950,0.71123,0.00000,2.33019,2.37511,-0.07917,0.06286,0.72776,-0.16841,0.16679,2.24663,2.24663,A,142344.80
0.75232,57.68779945,11.98130543,57.68780033,11.98130400,15:24:22.285357,0.00794,3.28077,0.00000,-0.02437,0.07347,-0.05991,0.00634,0.00509,-0.01641,-0.00689,0.96490,0.74657,0.00000,2.31092,2.35584,-0.08363,0.06806,0.72776,-0.16841,0.16679,2.24663,2.24663,A,142344.80
0.76378,57.68779949,11.98130535,57.68780033,11.98130400,15:24:22.296818,0.00901,3.28077,0.00000,-0.02530,0.07347,-0.06037,0.00634,0.00067,0.01732,-0.01128,0.95605,0.75760,0.00000,2.29454,2.33946,-0.08787,0.07299,0.72776,-0.16841,0.16679,2.24663,2.24663,A,142344.80
0.77407,57.68779953,11.98130529,57.68780033,11.98130400,15:24:22.307107,0.00915,3.28077,0.00000,-0.02597,0.07347,-0.05914,-0.00053,-0.00239,0.00482,0.00140,0.95929,0.76799,0.00000,2.28062,2.32554,-0.09190,0.07768,0.72776,-0.16841,0.16679,2.24663,2.24663,A,142344.80
0.78409,57.68779957,11.98130522,57.68780033,11.98130400,15:24:22.317131,0.00894,3.28077,0.00000,-0.02661,0.07347,-0.05914,-0.00450,-0.00773,0.00384,0.00275,0.98155,0.77833,0.00000,2.26878,2.31370,-0.09572,0.08214,0.72776,-0.16841,0.16679,2.24663,2.24663,A,142344.80
0.79238,57.68779961,11.98130516,57.68780033,11.98130400,15:24:22.325418,0.00711,3.28077,0.00000,-0.02727,0.07347,-0.05853,-0.00557,-0.01277,-0.00708,-0.00775,0.99942,0.78664,0.00000,2.25872,2.30364,-0.09936,0.08637,0.72776,-0.16841,0.16679,2.24663,2.24663,A,142344.80
0.80547,57.68779965,11.98130510,57.68780033,11.98130400,15:24:22.338506,0.00979,3.28077,0.00000,-0.02821,0.07347,-0.06144,-0.00817,-0.01873,-0.01989,-0.01025,1.03139,0.79865,0.00000,2.25017,2.29509,-0.10281,0.09039,0.72776,-0.16841,0.16679,2.24663,2.24663,A,142344.80
0.81528,57.68779968,11.98130505,57.68780033,11.98130400,15:24:22.348325,0.00894,3.28077,0.00000,-0.02883,0.07347,-0.06281,-0.00145,-0.02087,-0.01562,-0.00098,1.04054,0.80771,0.00000,2.24290,2.28782,-0.10609,0.09421,0.72776,-0.16841,0.16679,2.24663,2.24663,A,142344.80
0.82515,57.68779971,11.98130500,57.68780033,11.98130400,15:24:22.358202,0.00843,3.28077,0.00000,-0.02954,0.07347,-0.06021,0.00069,-0.01842,-0.00732,-0.00030,1.03907,0.81910,0.00000,2.23672,2.28164,-0.10920,0.09784,0.72776,-0.16841,0.16679,2.24663,2.24663,A,142344.80
0.85623,57.68779974,11.98130495,57.68780033,11.98130367,15:24:22.389285,0.02939,3.28077,0.00000,-0.03024,0.07347,-0.05181,-0.00298,-0.01613,0.00427,-0.00293,1.01852,0.83144,0.00000,2.23147,2.27639,-0.11216,0.10129,0.85020,-0.18822,0.16679,3.14159,3.14159,A,142344.90
0.87504,57.68779977,11.98130488,57.68780033,11.98130367,15:24:22.408081,0.01061,3.28077,0.00000,-0.03191,0.07347,-0.03838,-0.00588,-0.00086,-0.03324,-0.02074,0.97088,0.86687,0.00000,2.36125,2.40617,-0.11597,0.10456,0.85020,-0.18822,0.16679,3.14159,3.14159,A,142344.90
0.89501,57.68779980,11.98130482,57.68780033,11.98130367,15:24:22.428052,0.00979,3.28077,0.00000,-0.03279,0.07347,-0.03211,0.00145,0.00342,-0.00226,-0.01494,0.99863,0.88809,0.00000,2.47156,2.51648,-0.11958,0.10768,0.85020,-0.18822,0.16679,3.14159,3.14159,A,142344.90
0.90511,57.68779983,11.98130476,57.68780033,11.98130367,15:24:22.438170,0.00920,3.28077,0.00000,-0.03310,0.07347,-0.03074,0.00023,0.00357,-0.00555,-0.00110,1.00766,0.89832,0.00000,2.56533,2.61025,-0.12301,0.11063,0.85020,-0.18822,0.16679,3.14159,3.14159,A,142344.90
0.91491,57.68779985,11.98130471,57.68780033,11.98130367,15:24:22.447971,0.00817,3.28077,0.00000,-0.03325,0.07347,-0.03013,0.00069,-0.00285,-0.02129,0.00726,1.01693,0.90800,0.00000,2.64503,2.68995,-0.12627,0.11344,0.85020,-0.18822,0.16679,3.14159,3.14159,A,142344.90
0.92664,57.68779988,11.98130466,57.68780033,11.98130367,15:24:22.459679,0.00972,3.28077,0.00000,-0.03350,0.07347,-0.02356,0.00451,-0.00300,-0.01921,-0.00146,1.03029,0.91951,0.00000,2.71278,2.75770,-0.12937,0.11611,0.85020,-0.18822,0.16679,3.14159,3.14159,A,142344.90
0.93621,57.68779990,11.98130461,57.68780033,11.98130367,15:24:22.469239,0.00867,3.28077,0.00000,-0.03406,0.07347,-0.02203,-0.00145,-0.00819,0.02403,-0.02501,1.01931,0.93003,0.00000,2.77036,2.81528,-0.13231,0.11864,0.85020,-0.18822,0.16679,3.14159,3.14159,A,142344.90
0.94735,57.68779992,11.98130456,57.68780033,11.98130367,15:24:22.480386,0.00934,3.28077,0.00000,-0.03462,0.07347,-0.02203,-0.00695,-0.00514,0.01470,-0.02495,1.01126,0.94067,0.00000,2.81931,2.86423,-0.13511,0.12105,0.85020,-0.18822,0.16679,3.14159,3.14159,A,142344.90
0.98853,57.68779994,11.98130452,57.68780083,11.98130267,15:24:22.522063,0.04030,3.28077,0.00000,-0.03488,0.07347,-0.01730,-0.00679,-0.00086,-0.01238,-0.00805,0.99881,0.95169,0.00000,2.86091,2.90583,-0.13776,0.12334,0.98424,-0.24766,0.22239,2.38956,2.38956,A,142345.10
1.00232,57.68779999,11.98130442,57.68780083,11.98130267,15:24:22.535363,0.00638,3.28077,0.00000,-0.03552,0.07347,-0.00860,0.00588,-0.00117,0.00683,-0.02129,0.99241,0.99627,0.00000,2.78347,2.82839,-0.14326,0.12829,0.98424,-0.24766,0.22239,2.38956,2.38956,A,142345.10
1.01568,57.68780003,11.98130434,57.68780083,11.98130267,15:24:22.548723,0.00899,3.28077,0.00000,-0.03559,0.07347,-0.00554,0.00176,-0.00162,0.01287,-0.00464,1.01016,1.00863,0.00000,2.71765,2.76257,-0.14848,0.13299,0.98424,-0.24766,0.22239,2.38956,2.38956,A,142345.10
1.02631,57.68780007,11.98130425,57.68780083,11.98130267,15:24:22.559345,0.00921,3.28077,0.00000,-0.03580,0.07347,0.00500,-0.01000,-0.00712,0.00342,-0.02202,1.00650,1.02022,0.00000,2.66170,2.70662,-0.15344,0.13746,0.98424,-0.24766,0.22239,2.38956,2.38956,A,142345.10
1.03623,57.68780011,11.98130417,57.68780083,11.98130267,15:24:22.569272,0.00905,3.28077,0.00000,-0.03597,0.07347,0.00255,-0.01657,-0.00437,-0.01580,-0.01812,1.01333,1.03048,0.00000,2.61414,2.65906,-0.15815,0.14171,0.98424,-0.24766,0.22239,2.38956,2.38956,A,142345.10
1.04652,57.68780014,11.98130410,57.68780083,11.98130267,15:24:22.579563,0.00914,3.28077,0.00000,-0.03617,0.07347,0.00988,-0.02039,-0.00498,-0.01525,-0.02507,1.01278,1.04044,0.00000,2.57371,2.61863,-0.16262,0.14574,0.98424,-0.24766,0.22239,2.38956,2.38956,A,142345.10
1.05681,57.68780018,11.98130403,57.68780083,11.98130267,15:24:22.589858,0.00921,3.28077,0.00000,-0.03624,0.07347,0.01721,-0.01535,-0.00498,-0.00677,-0.02129,1.01095,1.05081,0.00000,2.53935,2.58427,-0.16687,0.14958,0.98424,-0.24766,0.22239,2.38956,2.38956,A,142345.10
1.06688,57.68780021,11.98130396,57.68780083,11.98130267,15:24:22.599917,0.00918,3.28077,0.00000,-0.03649,0.07347,0.01508,-0.01641,-0.00147,0.00641,-0.03196,0.99717,1.06084,0.00000,2.51015,2.55507,-0.17091,0.15322,0.98424,-0.24766,0.22239,2.38956,2.38956,A,142345.10
1.07760,57.68780024,11.98130389,57.68780083,11.98130267,15:24:22.610637,0.00959,3.28077,0.00000,-0.03652,0.07347,0.01202,-0.01871,-0.00147,-0.00726,-0.01525,0.96801,1.07150,0.00000,2.48532,2.53024,-0.17475,0.15668,0.98424,-0.24766,0.22239,2.38956,2.38956,A,142345.10
1.10247,57.68780027,11.98130383,57.68780150,11.98130200,15:24:22.636323,0.02383,3.28077,0.00000,-0.03639,0.07347,0.02134,-0.02054,-0.00071,-0.02818,-0.01104,0.98777,1.08182,0.00000,2.46422,2.50914,-0.17840,0.15996,1.09906,-0.28728,0.29652,2.06169,2.06169,A,142345.20
1.12211,57.68780033,11.98130374,57.68780150,11.98130200,15:24:22.655161,0.00811,3.28077,0.00000,-0.03548,0.07347,0.04058,-0.00771,0.00006,0.00543,-0.03300,1.03944,1.11452,0.00000,2.39710,2.44202,-0.18384,0.16679,1.09906,-0.28728,0.29652,2.06169,2.06169,A,142345.20
1.13350,57.68780039,11.98130365,57.68780150,11.98130200,15:24:22.666541,0.00930,3.28077,0.00000,-0.03525,0.07347,0.04592,-0.01122,0.00464,0.02129,-0.02794,1.01986,1.12739,0.00000,2.34005,2.38497,-0.18901,0.17328,1.09906,-0.28728,0.29652,2.06169,2.06169,A,142345.20
1.14329,57.68780045,11.98130357,57.68780150,11.98130200,15:24:22.676326,0.00892,3.28077,0.00000,-0.03503,0.07347,0.04211,-0.01733,0.00403,-0.02141,-0.01824,1.03084,1.13749,0.00000,2.29156,2.33648,-0.19393,0.17944,1.09906,-0.28728,0.29652,2.06169,2.06169,A,142345.20
1.15390,57.68780050,11.98130349,57.68780150,11.98130200,15:24:22.686939,0.00915,3.28077,0.00000,-0.03456,0.07347,0.05127,-0.01626,0.00265,-0.06155,-0.00720,1.00308,1.14781,0.00000,2.25034,2.29526,-0.19859,0.18529,1.09906,-0.28728,0.29652,2.06169,2.06169,A,142345.20
1.16386,57.68780055,11.98130342,57.68780150,11.98130200,15:24:22.696889,0.00889,3.28077,0.00000,-0.03425,0.07347,0.05829,-0.01321,0.00051,-0.05008,-0.02220,0.99759,1.15808,0.00000,2.21530,2.26022,-0.20303,0.19085,1.09906,-0.28728,0.29652,2.06169,2.06169,A,142345.20
1.17410,57.68780060,11.98130335,57.68780150,11.98130200,15:24:22.707131,0.00909,3.28077,0.00000,-0.03402,0.07347,0.05860,-0.00664,-0.00254,-0.01647,-0.02525,0.98997,1.16799,0.00000,2.18552,2.23044,-0.20724,0.19614,1.09906,-0.28728,0.29652,2.06169,2.06169,A,142345.20
1.18426,57.68780064,11.98130328,57.68780150,11.98130200,15:24:22.717294,0.00903,3.28077,0.00000,-0.03362,0.07347,0.05463,-0.00466,-0.00330,0.00085,-0.01379,0.97868,1.17846,0.00000,2.16021,2.20513,-0.21124,0.20116,1.09906,-0.28728,0.29652,2.06169,2.06169,A,142345.20
1.19446,57.68780069,11.98130322,57.68780150,11.98130200,15:24:22.727502,0.00905,3.28077,0.00000,-0.03317,0.07347,0.05692,-0.00481,-0.00819,-0.01531,-0.00885,0.98722,1.18833,0.00000,2.13869,2.18361,-0.21504,0.20592,1.09906,-0.28728,0.29652,2.06169,2.06169,A,142345.20
1.21610,57.68780073,11.98130315,57.68780167,11.98130150,15:24:22.749136,0.02047,0.00000,0.00000,-0.03309,0.07347,0.05646,-0.00740,-0.01109,-0.02556,-0.02166,0.99503,1.19508,0.00000,2.12040,2.16532,-0.21866,0.21045,1.21185,-0.31700,0.31505,2.58400,2.58400,A,142345.30
1.23166,57.68780077,11.98130307,57.68780167,11.98130150,15:24:22.764698,0.00728,0.00000,0.00000,-0.03136,0.07347,0.05524,-0.00527,-0.01461,0.00366,0.00159,0.99521,1.22585,0.00000,2.18321,2.22813,-0.22357,0.21568,1.21185,-0.31700,0.31505,2.58400,2.58400,A,142345.30
1.23977,57.68780082,11.98130299,57.68780167,11.98130150,15:24:22.772800,0.00499,0.00000,0.00000,-0.03110,0.07347,0.05539,-0.01550,-0.01338,0.02385,-0.01214,0.98149,1.23404,0.00000,2.23659,2.28151,-0.22824,0.22065,1.21185,-0.31700,0.31505,2.58400,2.58400,A,142345.30
1.25022,57.68780086,11.98130292,57.68780167,11.98130150,15:24:22.783250,0.00519,0.00000,0.00000,-0.03060,0.07347,0.04837,-0.02069,-0.01231,-0.03385,0.00110,1.00760,1.24421,0.00000,2.28196,2.32688,-0.23268,0.22537,1.21185,-0.31700,0.31505,2.58400,2.58400,A,142345.30
1.26054,57.68780090,11.98130285,57.68780167,11.98130150,15:24:22.793950,0.00510,0.00000,0.00000,-0.03004,0.07347,0.04821,-0.01809,-0.01384,-0.04307,0.00451,1.01608,1.25481,0.00000,2.32053,2.36545,-0.23690,0.22986,1.21185,-0.31700,0.31505,2.58400,2.58400,A,142345.30
1.27192,57.68780094,11.98130278,57.68780167,11.98130150,15:24:22.804965,0.00608,0.00000,0.00000,-0.02916,0.07345,0.04974,-0.01153,-0.01354,-0.05929,0.02690,1.01803,1.26499,0.00000,2.35332,2.39822,-0.24090,0.23412,1.21185,-0.31700,0.31505,2.58400,2.58400,A,142345.30
1.28183,57.68780098,11.98130272,57.68780167,11.98130150,15:24:22.814867,0.00559,0.00000,0.00000,-0.02857,0.07328,0.04684,-0.00572,-0.01369,-0.03288,0.00823,1.00131,1.27561,0.00000,2.38120,2.42600,-0.24471,0.23816,1.21185,-0.31700,0.31505,2.58400,2.58400,A,142345.30
1.29176,57.68780101,11.98130266,57.68780167,11.98130150,15:24:22.824791,0.00512,0.00000,0.00000,-0.02825,0.07291,0.04867,-0.00710,-0.01308,-0.02416,-0.00897,0.99119,1.28601,0.00000,2.40493,2.44951,-0.24832,0.24201,1.21185,-0.31700,0.31505,2.58400,2.58400,A,142345.30
1.30223,57.68780104,11.98130260,57.68780167,11.98130150,15:24:22.835261,0.00520,0.00000,0.00000,-0.02767,0.07237,0.05325,-0.01122,-0.01613,0.00427,0.00592,0.97106,1.29621,0.00000,2.42516,2.46940,-0.25176,0.24566,1.21185,-0.31700,0.31505,2.58400,2.58400,A,142345.30
1.32930,57.68780107,11.98130254,57.68780233,11.98130033,15:24:22.862350,0.02187,0.00000,0.00000,-0.02699,0.07180,0.04715,-0.02008,-0.01140,-0.03331,0.01586,1.00992,1.30679,0.00000,2.44240,2.48630,-0.25502,0.24913,1.32405,-0.38634,0.38918,2.32285,2.32285,A,142345.40
1.34393,57.68780114,11.98130243,57.68780233,11.98130033,15:24:22.876967,0.00697,0.00000,0.00000,-0.02581,0.07132,0.04211,-0.01351,-0.00010,-0.00958,-0.00378,1.01388,1.33814,0.00000,2.41793,2.46153,-0.26158,0.25613,1.32405,-0.38634,0.38918,2.32285,2.32285,A,142345.40
1.35251,57.68780120,11.98130233,57.68780233,11.98130033,15:24:22.885791,0.00515,0.00000,0.00000,-0.02556,0.07132,0.04684,-0.01412,-0.00056,-0.02068,-0.00421,1.00363,1.34679,0.00000,2.39712,2.44073,-0.26782,0.26278,1.32405,-0.38634,0.38918,2.32285,2.32285,A,142345.40
1.36290,57.68780125,11.98130223,57.68780233,11.98130033,15:24:22.895935,0.00514,0.00000,0.00000,-0.02498,0.07127,0.04455,-0.01580,-0.00605,-0.02757,0.01409,0.99162,1.35693,0.00000,2.37945,2.42301,-0.27375,0.26910,1.32405,-0.38634,0.38918,2.32285,2.32285,A,142345.40
1.37388,57.68780131,11.98130213,57.68780233,11.98130033,15:24:22.906924,0.00573,0.00000,0.00000,-0.02469,0.07118,0.03798,-0.01336,-0.00987,-0.06594,-0.00098,0.99814,1.36769,0.00000,2.36443,2.40794,-0.27938,0.27511,1.32405,-0.38634,0.38918,2.32285,2.32285,A,142345.40
1.38363,57.68780136,11.98130204,57.68780233,11.98130033,15:24:22.916676,0.00508,0.00000,0.00000,-0.02396,0.07104,0.03707,0.00329,-0.01354,-0.06881,0.03013,0.99741,1.37790,0.00000,2.35168,2.39511,-0.28473,0.28081,1.32405,-0.38634,0.38918,2.32285,2.32285,A,142345.40
1.39495,57.68780141,11.98130196,57.68780233,11.98130033,15:24:22.927990,0.00593,0.00000,0.00000,-0.02349,0.07090,0.03982,0.00069,-0.01445,-0.01220,0.00964,1.00333,1.38897,0.00000,2.34085,2.38419,-0.28981,0.28623,1.32405,-0.38634,0.38918,2.32285,2.32285,A,142345.40
1.40451,57.68780145,11.98130188,57.68780233,11.98130033,15:24:22.937795,0.00508,0.00000,0.00000,-0.02337,0.07087,0.03340,-0.00450,-0.01873,0.01189,-0.00616,1.01095,1.39879,0.00000,2.33165,2.37498,-0.29463,0.29138,1.32405,-0.38634,0.38918,2.32285,2.32285,A,142345.40
1.41496,57.68780150,11.98130180,57.68780233,11.98130033,15:24:22.947996,0.00513,0.00000,0.00000,-0.02294,0.07087,0.02958,-0.01367,-0.01674,-0.00421,0.01684,1.00180,1.40898,0.00000,2.32383,2.36716,-0.29922,0.29627,1.32405,-0.38634,0.38918,2.32285,2.32285,A,142345.40
1.44169,57.68780154,11.98130173,57.68780300,11.98130000,15:24:22.974737,0.02147,0.00000,0.00000,-0.02216,0.07087,0.03600,-0.01886,-0.01720,-0.03324,0.03501,0.98771,1.41958,0.00000,2.31719,2.36051,-0.30358,0.30091,1.43714,-0.40615,0.46331,1.83196,1.83196,A,142345.50
1.45452,57.68780161,11.98130164,57.68780300,11.98130000,15:24:22.987559,0.00772,0.00000,0.00000,-0.02117,0.07087,0.03447,-0.00389,-0.00621,-0.04825,0.01238,0.99631,1.44711,0.00000,2.23790,2.28123,-0.30870,0.30903,1.43714,-0.40615,0.46331,1.83196,1.83196,A,142345.50
1.46225,57.68780168,11.98130156,57.68780300,11.98130000,15:24:22.995292,0.00520,0.00000,0.00000,-0.02102,0.07087,0.03081,0.00161,-0.00682,-0.01080,0.00128,0.99418,1.45624,0.00000,2.17051,2.21384,-0.31358,0.31675,1.43714,-0.40615,0.46331,1.83196,1.83196,A,142345.50
1.47293,57.68780175,11.98130148,57.68780300,11.98130000,15:24:23.005969,0.00548,0.00000,0.00000,-0.02082,0.07087,0.02729,-0.00481,-0.00666,-0.01330,0.00451,0.99412,1.46696,0.00000,2.11323,2.15656,-0.31821,0.32408,1.43714,-0.40615,0.46331,1.83196,1.83196,A,142345.50
1.48286,57.68780181,11.98130141,57.68780300,11.98130000,15:24:23.015893,0.00517,0.00000,0.00000,-0.02040,0.07084,0.02638,-0.00420,-0.00575,-0.01842,0.02123,1.00186,1.47687,0.00000,2.06454,2.10785,-0.32260,0.33104,1.43714,-0.40615,0.46331,1.83196,1.83196,A,142345.50
1.49367,57.68780187,11.98130134,57.68780300,11.98130000,15:24:23.026704,0.00558,0.00000,0.00000,-0.02008,0.07073,0.02760,-0.00557,-0.00911,-0.03001,0.01251,1.01742,1.48763,0.00000,2.02317,2.06641,-0.32678,0.33765,1.43714,-0.40615,0.46331,1.83196,1.83196,A,142345.50
1.50358,57.68780193,11.98130127,57.68780300,11.98130000,15:24:23.036613,0.00509,0.00000,0.00000,-0.01980,0.07053,0.02500,-0.00481,-0.01354,-0.01726,0.01330,1.01358,1.49784,0.00000,1.98802,2.03114,-0.33075,0.34393,1.43714,-0.40615,0.46331,1.83196,1.83196,A,142345.50
1.51424,57.68780198,11.98130121,57.68780300,11.98130000,15:24:23.047271,0.00521,0.00000,0.00000,-0.01955,0.07025,0.02592,-0.01031,-0.01308,-0.00433,0.01037,1.01120,1.50820,0.00000,1.95817,2.00111,-0.33452,0.34990,1.43714,-0.40615,0.46331,1.83196,1.83196,A,142345.50
1.52450,57.68780203,11.98130114,57.68780300,11.98130000,15:24:23.057776,0.00507,0.00000,0.00000,-0.01923,0.06994,0.02577,-0.01168,-0.01644,-0.03209,0.01549,1.00424,1.51879,0.00000,1.93283,1.97558,-0.33810,0.35557,1.43714,-0.40615,0.46331,1.83196,1.83196,A,142345.50
1.53495,57.68780208,11.98130109,57.68780300,11.98130000,15:24:23.067983,0.00512,0.00000,0.00000,-0.01896,0.06965,0.02103,-0.00817,-0.01903,-0.03800,0.01623,1.02230,1.52898,0.00000,1.91131,1.95389,-0.34150,0.36096,1.43714,-0.40615,0.46331,1.83196,1.83196,A,142345.50
1.56168,57.68780213,11.98130103,57.68780350,11.98129967,15:24:23.094725,0.02145,0.00000,0.00000,-0.01888,0.06943,0.01477,-0.01000,-0.01659,-0.02708,0.00683,1.01077,1.53976,0.00000,1.89304,1.93548,-0.34474,0.36608,1.55714,-0.42597,0.51891,1.91312,1.91312,A,142345.60
1.57867,57.68780219,11.98130096,57.68780350,11.98129967,15:24:23.111706,0.00775,0.00000,0.00000,-0.01801,0.06895,0.01508,-0.00740,-0.01094,-0.05173,0.03751,0.97996,1.57238,0.00000,1.88973,1.93188,-0.34880,0.37372,1.55714,-0.42597,0.51891,1.91312,1.91312,A,142345.60
1.58638,57.68780226,11.98130090,57.68780350,11.98129967,15:24:23.119414,0.00523,0.00000,0.00000,-0.01775,0.06880,0.01202,-0.00542,-0.01063,-0.04166,0.02385,0.99094,1.58035,0.00000,1.88693,1.92899,-0.35266,0.38098,1.55714,-0.42597,0.51891,1.91312,1.91312,A,142345.60
1.59688,57.68780232,11.98130084,57.68780350,11.98129967,15:24:23.129932,0.00533,0.00000,0.00000,-0.01780,0.06869,0.00927,-0.00802,-0.00712,-0.02867,0.00342,1.00900,1.59093,0.00000,1.88456,1.92655,-0.35632,0.38788,1.55714,-0.42597,0.51891,1.91312,1.91312,A,142345.60
1.60741,57.68780238,11.98130078,57.68780350,11.98129967,15:24:23.140437,0.00545,0.00000,0.00000,-0.01765,0.06863,0.00179,-0.01214,-0.00880,-0.00842,0.02227,0.99711,1.60111,0.00000,1.88255,1.92451,-0.35980,0.39443,1.55714,-0.42597,0.51891,1.91312,1.91312,A,142345.60
1.61774,57.68780244,11.98130072,57.68780350,11.98129967,15:24:23.150774,0.00538,0.00000,0.00000,-0.01758,0.06863,0.00255,-0.01687,-0.00819,-0.01379,0.01665,0.99826,1.61173,0.00000,1.88084,1.92280,-0.36311,0.40065,1.55714,-0.42597,0.51891,1.91312,1.91312,A,142345.60
1.62896,57.68780249,11.98130067,57.68780350,11.98129967,15:24:23.162008,0.00620,0.00000,0.00000,-0.01758,0.06863,0.00148,-0.02069,-0.00941,-0.01976,0.01183,0.97033,1.62295,0.00000,1.87939,1.92135,-0.36626,0.40656,1.55714,-0.42597,0.51891,1.91312,1.91312,A,142345.60
1.63822,57.68780254,11.98130062,57.68780350,11.98129967,15:24:23.171261,0.00519,0.00000,0.00000,-0.01749,0.06863,0.00286,-0.02848,-0.00911,-0.06917,0.01745,0.97594,1.63221,0.00000,1.87816,1.92011,-0.36924,0.41218,1.55714,-0.42597,0.51891,1.91312,1.91312,A,142345.60
1.64879,57.68780259,11.98130057,57.68780350,11.98129967,15:24:23.181844,0.00534,0.00000,0.00000,-0.01742,0.06863,-0.00707,-0.02130,-0.01308,-0.06143,0.02269,0.98911,1.64281,0.00000,1.87711,1.91906,-0.37208,0.41752,1.55714,-0.42597,0.51891,1.91312,1.91312,A,142345.60
1.68635,57.68780263,11.98130053,57.68780367,11.98129817,15:24:23.219748,0.03251,0.00000,0.00000,-0.01758,0.06863,-0.00692,-0.00740,-0.01445,-0.05270,0.00775,1.00119,1.65300,0.00000,1.87622,1.91817,-0.37477,0.42259,1.68182,-0.51512,0.53744,2.93665,2.93665,A,142345.80
1.70480,57.68780269,11.98130041,57.68780367,11.98129817,15:24:23.237843,0.00717,0.00000,0.00000,-0.01855,0.06863,-0.02921,-0.03062,-0.01155,-0.06972,0.03788,1.02687,1.69880,0.00000,2.02899,2.07094,-0.38179,0.42833,1.68182,-0.51512,0.53744,2.93665,2.93665,A,142345.80
1.71353,57.68780273,11.98130030,57.68780367,11.98129817,15:24:23.246568,0.00550,0.00000,0.00000,-0.01839,0.06863,-0.02570,-0.01748,-0.01018,-0.05807,0.03849,1.01406,1.70748,0.00000,2.15884,2.20080,-0.38846,0.43379,1.68182,-0.51512,0.53744,2.93665,2.93665,A,142345.80
1.72353,57.68780278,11.98130019,57.68780367,11.98129817,15:24:23.256561,0.00509,0.00000,0.00000,-0.01891,0.06863,-0.02555,-0.00572,-0.01201,-0.03508,-0.00439,1.01351,1.71779,0.00000,2.26922,2.31118,-0.39479,0.43897,1.68182,-0.51512,0.53744,2.93665,2.93665,A,142345.80
1.73415,57.68780283,11.98130009,57.68780367,11.98129817,15:24:23.267190,0.00518,0.00000,0.00000,-0.01917,0.06863,-0.03532,-0.00313,-0.01613,-0.00421,0.01861,0.99399,1.72814,0.00000,2.36304,2.40500,-0.40081,0.44389,1.68182,-0.51512,0.53744,2.93665,2.93665,A,142345.80
1.74447,57.68780287,11.98129999,57.68780367,11.98129817,15:24:23.277756,0.00509,0.00000,0.00000,-0.01970,0.06863,-0.03685,-0.00374,-0.01644,-0.01043,0.00207,0.96441,1.73874,0.00000,2.44279,2.48474,-0.40652,0.44857,1.68182,-0.51512,0.53744,2.93665,2.93665,A,142345.80
1.75493,57.68780291,11.98129990,57.68780367,11.98129817,15:24:23.287967,0.00515,0.00000,0.00000,-0.01968,0.06863,-0.04128,-0.00389,-0.01644,-0.02208,0.03983,0.97685,1.74895,0.00000,2.51057,2.55253,-0.41195,0.45301,1.68182,-0.51512,0.53744,2.93665,2.93665,A,142345.80
1.76559,57.68780295,11.98129982,57.68780367,11.98129817,15:24:23.298624,0.00541,0.00000,0.00000,-0.01966,0.06863,-0.03807,-0.01275,-0.01583,-0.02745,0.03867,0.98704,1.75956,0.00000,2.56819,2.61015,-0.41711,0.45724,1.68182,-0.51512,0.53744,2.93665,2.93665,A,142345.80
1.77566,57.68780298,11.98129973,57.68780367,11.98129817,15:24:23.308698,0.00508,0.00000,0.00000,-0.01999,0.06863,-0.03349,-0.01504,-0.01186,-0.01549,0.01189,0.99808,1.76993,0.00000,2.61717,2.65912,-0.42201,0.46125,1.68182,-0.51512,0.53744,2.93665,2.93665,A,142345.80
1.80235,57.68780302,11.98129965,57.68780433,11.98129717,15:24:23.335752,0.02121,0.00000,0.00000,-0.02053,0.06863,-0.03838,-0.02130,-0.01109,0.02660,0.00152,0.99668,1.78034,0.00000,2.65879,2.70075,-0.42667,0.46506,1.79778,-0.57456,0.61157,2.24663,2.24663,A,142345.90
1.81894,57.68780308,11.98129953,57.68780433,11.98129717,15:24:23.352026,0.00681,0.00000,0.00000,-0.02210,0.06846,-0.05029,-0.00740,-0.01522,-0.06155,0.00866,1.02681,1.81128,0.00000,2.59069,2.63254,-0.43406,0.47238,1.79778,-0.57456,0.61157,2.24663,2.24663,A,142345.90
1.82722,57.68780314,11.98129941,57.68780433,11.98129717,15:24:23.360256,0.00509,0.00000,0.00000,-0.02257,0.06838,-0.05395,-0.00679,-0.01430,-0.04984,0.01421,1.02858,1.82147,0.00000,2.53281,2.57461,-0.44109,0.47934,1.79778,-0.57456,0.61157,2.24663,2.24663,A,142345.90
1.83808,57.68780320,11.98129930,57.68780433,11.98129717,15:24:23.371114,0.00554,0.00000,0.00000,-0.02271,0.06835,-0.04662,-0.00267,-0.01399,-0.00085,0.03093,0.99534,1.83190,0.00000,2.48362,2.52540,-0.44776,0.48595,1.79778,-0.57456,0.61157,2.24663,2.24663,A,142345.90
1.84804,57.68780326,11.98129919,57.68780433,11.98129717,15:24:23.381075,0.00511,0.00000,0.00000,-0.02311,0.06835,-0.04479,-0.00817,-0.01613,0.00665,0.01238,0.99119,1.84231,0.00000,2.44180,2.48359,-0.45410,0.49223,1.79778,-0.57456,0.61157,2.24663,2.24663,A,142345.90
1.86076,57.68780331,11.98129909,57.68780433,11.98129717,15:24:23.393820,0.00759,0.00000,0.00000,-0.02347,0.06835,-0.04983,-0.01183,-0.01231,-0.05551,0.01714,1.00863,1.85236,0.00000,2.40626,2.44804,-0.46012,0.49820,1.79778,-0.57456,0.61157,2.24663,2.24663,A,142345.90
1.87365,57.68780336,11.98129900,57.68780433,11.98129717,15:24:23.406704,0.01007,0.00000,0.00000,-0.02383,0.06835,-0.05059,-0.00710,-0.01430,-0.07936,0.02513,1.01358,1.86478,0.00000,2.37605,2.41783,-0.46584,0.50387,1.79778,-0.57456,0.61157,2.24663,2.24663,A,142345.90
1.89253,57.68780341,11.98129890,57.68780433,11.98129717,15:24:23.425809,0.00901,0.00000,0.00000,-0.02474,0.06835,-0.04555,0.00038,-0.00987,-0.03239,0.01080,1.00748,1.88624,0.00000,2.35037,2.39215,-0.47128,0.50925,1.79778,-0.57456,0.61157,2.24663,2.24663,A,142345.90
1.92159,57.68780346,11.98129882,57.68780517,11.98129700,15:24:23.454628,0.02564,0.00000,0.00000,-0.02529,0.06835,-0.04861,-0.00618,-0.00529,0.01171,0.00421,0.99387,1.89716,0.00000,2.32854,2.37032,-0.47644,0.51437,1.91783,-0.58447,0.70423,1.67730,1.67730,A,142346.00
1.94352,57.68780354,11.98129873,57.68780517,11.98129700,15:24:23.476590,0.01131,0.00000,0.00000,-0.02713,0.06835,-0.04311,-0.01076,-0.00071,0.00311,-0.01787,0.94898,1.93170,0.00000,2.22459,2.26637,-0.48185,0.52386,1.91783,-0.58447,0.70423,1.67730,1.67730,A,142346.00
1.96036,57.68780363,11.98129864,57.68780517,11.98129700,15:24:23.493394,0.00520,0.00000,0.00000,-0.02808,0.06835,-0.03899,-0.01626,-0.00911,-0.03087,-0.00073,1.00851,1.95462,0.00000,2.13623,2.17801,-0.48698,0.53288,1.91783,-0.58447,0.70423,1.67730,1.67730,A,142346.00
1.97251,57.68780370,11.98129856,57.68780517,11.98129700,15:24:23.505781,0.00608,0.00000,0.00000,-0.02876,0.06835,-0.03853,-0.01290,-0.01537,0.00390,-0.01379,1.02681,1.96594,0.00000,2.06112,2.10290,-0.49185,0.54145,1.91783,-0.58447,0.70423,1.67730,1.67730,A,142346.00
1.98273,57.68780378,11.98129848,57.68780517,11.98129700,15:24:23.515782,0.00575,0.00000,0.00000,-0.02930,0.06835,-0.04143,-0.01764,-0.01873,0.01196,-0.00610,1.01821,1.97614,0.00000,1.99728,2.03906,-0.49648,0.54959,1.91783,-0.58447,0.70423,1.67730,1.67730,A,142346.00
1.99636,57.68780385,11.98129841,57.68780517,11.98129700,15:24:23.529403,0.00898,0.00000,0.00000,-0.03000,0.06835,-0.04112,-0.01779,-0.02133,-0.01769,-0.01519,1.01827,1.98715,0.00000,1.94302,1.98480,-0.50088,0.55732,1.91783,-0.58447,0.70423,1.67730,1.67730,A,142346.00
2.00668,57.68780391,11.98129834,57.68780517,11.98129700,15:24:23.539726,0.00882,0.00000,0.00000,-0.03023,0.06835,-0.03746,-0.01336,-0.01980,-0.04227,0.01464,0.99332,1.99910,0.00000,1.89689,1.93867,-0.50506,0.56467,1.91783,-0.58447,0.70423,1.67730,1.67730,A,142346.00
2.02112,57.68780397,11.98129827,57.68780517,11.98129700,15:24:23.554980,0.01285,0.00000,0.00000,-0.03042,0.06835,-0.03379,-0.01504,-0.02026,-0.01604,0.01202,0.99259,2.00972,0.00000,1.85768,1.89947,-0.50903,0.57164,1.91783,-0.58447,0.70423,1.67730,1.67730,A,142346.00
2.06105,57.68780403,11.98129821,57.68780600,11.98129683,15:24:23.594090,0.02792,0.00000,0.00000,-0.03111,0.06835,-0.01715,-0.03612,-0.00560,0.07210,-0.01623,0.92866,2.03412,0.00000,1.82436,1.86614,-0.51280,0.57827,2.05678,-0.59437,0.79690,1.67730,1.67730,A,142346.10
2.07166,57.68780413,11.98129814,57.68780600,11.98129683,15:24:23.604694,0.00545,0.00000,0.00000,-0.03180,0.06835,-0.01028,-0.03520,0.00158,-0.10175,-0.02623,1.04743,2.06565,0.00000,1.79603,1.83781,-0.51688,0.58921,2.05678,-0.59437,0.79690,1.67730,1.67730,A,142346.10
2.08215,57.68780423,11.98129807,57.68780600,11.98129683,15:24:23.615178,0.00536,0.00000,0.00000,-0.03213,0.06835,-0.00630,-0.01214,0.00372,-0.04514,-0.01964,1.05914,2.07612,0.00000,1.77196,1.81374,-0.52076,0.59959,2.05678,-0.59437,0.79690,1.67730,1.67730,A,142346.10
2.09571,57.68780431,11.98129801,57.68780600,11.98129683,15:24:23.628762,0.00804,0.00000,0.00000,-0.03254,0.06835,-0.00753,-0.00710,0.00418,0.05283,-0.02220,1.03895,2.08910,0.00000,1.75149,1.79327,-0.52444,0.60946,2.05678,-0.59437,0.79690,1.67730,1.67730,A,142346.10
2.10502,57.68780440,11.98129795,57.68780600,11.98129683,15:24:23.638067,0.00694,0.00000,0.00000,-0.03269,0.06835,-0.00310,-0.01733,-0.00117,0.00250,-0.01025,1.06116,2.09900,0.00000,1.73409,1.77588,-0.52793,0.61883,2.05678,-0.59437,0.79690,1.67730,1.67730,A,142346.10
2.11425,57.68780448,11.98129790,57.68780600,11.98129683,15:24:23.647280,0.00588,0.00000,0.00000,-0.03217,0.06835,-0.00371,-0.01748,-0.00040,-0.04477,0.03691,1.04377,2.10774,0.00000,1.71931,1.76109,-0.53126,0.62773,2.05678,-0.59437,0.79690,1.67730,1.67730,A,142346.10
2.12432,57.68780455,11.98129784,57.68780600,11.98129683,15:24:23.657352,0.00572,0.00000,0.00000,-0.03154,0.06835,0.00790,-0.00481,0.00097,-0.08247,0.03770,1.05438,2.11808,0.00000,1.70674,1.74852,-0.53441,0.63619,2.05678,-0.59437,0.79690,1.67730,1.67730,A,142346.10
2.13465,57.68780463,11.98129779,57.68780600,11.98129683,15:24:23.668458,0.00562,0.00000,0.00000,-0.03142,0.06835,0.01950,-0.00069,0.00112,-0.04124,-0.00586,1.01022,2.12863,0.00000,1.69606,1.73784,-0.53741,0.64422,2.05678,-0.59437,0.79690,1.67730,1.67730,A,142346.10
2.14535,57.68780470,11.98129774,57.68780600,11.98129683,15:24:23.678392,0.00591,0.00000,0.00000,-0.03191,0.06835,0.01614,0.00344,0.00051,0.01415,-0.04331,0.98728,2.13881,0.00000,1.68697,1.72876,-0.54026,0.65186,2.05678,-0.59437,0.79690,1.67730,1.67730,A,142346.10
2.15629,57.68780476,11.98129770,57.68780600,11.98129683,15:24:23.689328,0.00662,0.00000,0.00000,-0.03254,0.06835,0.00744,-0.00970,-0.00193,0.05356,-0.04648,0.95642,2.15047,0.00000,1.67926,1.72104,-0.54296,0.65911,2.05678,-0.59437,0.79690,1.67730,1.67730,A,142346.10
2.20946,57.68780482,11.98129766,57.68780667,11.98129483,15:24:23.742536,0.04938,0.00000,0.00000,-0.03263,0.06835,0.00240,-0.00924,-0.00056,-0.04483,-0.00891,0.98003,2.16216,0.00000,1.67269,1.71448,-0.54553,0.66600,2.20184,-0.71325,0.87103,2.58400,2.58400,A,142346.30
2.23528,57.68780492,11.98129751,57.68780667,11.98129483,15:24:23.768342,0.01148,0.87402,0.87402,-0.03124,0.06835,0.02180,-0.00985,-0.00728,-0.06240,0.00323,0.99942,2.22670,0.17480,1.80312,1.84491,-0.55392,0.67625,2.20184,-0.71325,0.87103,2.58400,2.58400,A,142346.30
2.25396,57.68780502,11.98129737,57.68780667,11.98129483,15:24:23.788286,0.01078,0.87402,0.87402,-0.03086,0.06835,0.03172,-0.00099,-0.00437,-0.00372,-0.00994,0.98051,2.24591,0.31465,1.91413,1.95591,-0.56256,0.68839,2.20184,-0.71325,0.87103,2.58400,2.58400,A,142346.30
2.27805,57.68780515,11.98129721,57.68780667,11.98129483,15:24:23.811094,0.01097,0.87402,0.87402,-0.03047,0.06835,0.03203,-0.02100,-0.00422,0.04130,-0.01745,0.98106,2.26897,0.42652,2.00866,2.05044,-0.57223,0.70279,2.20184,-0.71325,0.87103,2.58400,2.58400,A,142346.30
2.29911,57.68780528,11.98129703,57.68780667,11.98129483,15:24:23.832189,0.01059,0.87402,0.87402,-0.02976,0.06835,0.03600,-0.00908,-0.01781,-0.05508,0.00030,1.00443,2.29120,0.51602,2.08908,2.13086,-0.58249,0.71737,2.20184,-0.71325,0.87103,2.58400,2.58400,A,142346.30
2.36025,57.68780544,11.98129682,57.68780767,11.98129500,15:24:23.893334,0.04335,0.87402,0.87402,-0.02921,0.06835,0.03249,-0.01092,-0.02087,0.01732,-0.01208,1.01345,2.31668,0.58762,2.15768,2.19946,-0.59498,0.73455,2.34330,-0.70334,0.98222,1.48194,1.48194,A,142346.40
2.37907,57.68780575,11.98129646,57.68780767,11.98129500,15:24:23.912117,0.00936,0.87402,0.87402,-0.02749,0.06835,0.03523,-0.01412,-0.01186,-0.00323,-0.00287,1.01882,2.37025,0.64490,2.05160,2.09338,-0.61667,0.76931,2.34330,-0.70334,0.98222,1.48194,1.48194,A,142346.40
2.38905,57.68780588,11.98129635,57.68780767,11.98129500,15:24:23.922103,0.00909,0.87402,0.87402,-0.02747,0.06835,0.03050,-0.01153,-0.01186,0.00714,-0.01196,0.97606,2.38121,0.69072,1.96011,2.00189,-0.62305,0.78351,2.34330,-0.70334,0.98222,1.48194,1.48194,A,142346.40
2.39570,57.68780600,11.98129626,57.68780767,11.98129500,15:24:23.928730,0.00553,0.87402,0.87402,-0.02768,0.06835,0.02439,-0.01153,-0.01430,-0.08229,-0.01873,0.97210,2.38997,0.72738,1.88231,1.92409,-0.62847,0.79650,2.34330,-0.70334,0.98222,1.48194,1.48194,A,142346.40
2.40805,57.68780613,11.98129616,57.68780767,11.98129500,15:24:23.941096,0.00725,0.87402,0.87402,-0.02723,0.06832,0.02836,0.00252,-0.01842,-0.07875,0.01848,0.97319,2.40008,0.75671,1.81631,1.85807,-0.63421,0.81119,2.34330,-0.70334,0.98222,1.48194,1.48194,A,142346.40
2.41887,57.68780626,11.98129608,57.68780767,11.98129500,15:24:23.951912,0.00680,0.87402,0.87402,-0.02657,0.06807,0.02622,0.00649,-0.02804,-0.04605,0.03166,0.97990,2.41206,0.78017,1.76024,1.80184,-0.63930,0.82528,2.34330,-0.70334,0.98222,1.48194,1.48194,A,142346.40
2.43032,57.68780637,11.98129600,57.68780767,11.98129500,15:24:23.963375,0.00784,0.87402,0.87402,-0.02614,0.06750,0.03035,0.00955,-0.03110,0.00714,0.01696,0.97576,2.42234,0.79894,1.71261,1.75387,-0.64377,0.83850,2.34330,-0.70334,0.98222,1.48194,1.48194,A,142346.40
2.44214,57.68780649,11.98129593,57.68780767,11.98129500,15:24:23.975179,0.00785,0.87402,0.87402,-0.02574,0.06660,0.02409,-0.00084,-0.03140,0.01513,0.01763,0.99875,2.43407,0.81396,1.67224,1.71295,-0.64787,0.85176,2.34330,-0.70334,0.98222,1.48194,1.48194,A,142346.40
2.49607,57.68780660,11.98129587,57.68780933,11.98129383,15:24:24.029129,0.05021,0.87402,0.87402,-0.02570,0.06575,0.02164,-0.00756,-0.02545,-0.05813,-0.00458,1.01034,2.44578,0.82597,1.63799,1.67818,-0.65148,0.86413,2.48361,-0.77268,1.16755,1.92884,1.92884,A,142346.60
2.52436,57.68780722,11.98129567,57.68780933,11.98129383,15:24:24.057396,0.01072,0.87402,0.87402,-0.02366,0.06374,0.02531,-0.00359,-0.01735,-0.07180,0.02843,0.98960,2.51631,0.83558,1.67867,1.71763,-0.66332,0.93290,2.48361,-0.77268,1.16755,1.92884,1.92884,A,142346.60
2.54820,57.68780748,11.98129554,57.68780933,11.98129383,15:24:24.082815,0.01010,0.87402,0.87402,-0.02350,0.06334,0.02012,-0.00236,-0.02560,-0.00817,-0.01165,0.97667,2.54205,0.84327,1.71129,1.75000,-0.67131,0.96168,2.48361,-0.77268,1.16755,1.92884,1.92884,A,142346.60
2.56613,57.68780768,11.98129542,57.68780933,11.98129383,15:24:24.099168,0.01032,0.87402,0.87402,-0.02287,0.06334,0.01767,-0.00527,-0.02514,-0.01482,0.03617,1.02937,2.55853,0.84942,1.73871,1.77742,-0.67842,0.98325,2.48361,-0.77268,1.16755,1.92884,1.92884,A,142346.60
2.61774,57.68780787,11.98129529,57.68780983,11.98129317,15:24:24.150827,0.04249,0.87402,0.87402,-0.02236,0.06334,0.01874,-0.00908,-0.02255,-0.01677,0.02245,1.01913,2.57836,0.85434,1.76210,1.80081,-0.68582,1.00527,2.60147,-0.81231,1.22314,2.19000,2.19000,A,142346.70
2.63962,57.68780834,11.98129503,57.68780983,11.98129317,15:24:24.172659,0.01027,0.87402,0.87402,-0.02183,0.06334,0.01294,-0.01076,-0.01537,0.00573,0.00226,0.98222,2.63257,0.85827,1.82266,1.86138,-0.70176,1.05725,2.60147,-0.81231,1.22314,2.19000,2.19000,A,142346.70
2.66148,57.68780854,11.98129486,57.68780983,11.98129317,15:24:24.194561,0.01016,0.87402,0.87402,-0.02139,0.06334,0.01584,-0.01504,-0.01445,-0.04026,0.02196,1.01766,2.65311,0.86142,1.87270,1.91142,-0.71142,1.07935,2.60147,-0.81231,1.22314,2.19000,2.19000,A,142346.70
2.68345,57.68780874,11.98129469,57.68780983,11.98129317,15:24:24.216485,0.00806,0.87402,0.87402,-0.02136,0.06334,0.00927,0.00023,-0.02209,-0.02342,0.00213,1.00266,2.67545,0.86394,1.91532,1.95403,-0.72178,1.10154,2.60147,-0.81231,1.22314,2.19000,2.19000,A,142346.70
2.69457,57.68780884,11.98129458,57.68780983,11.98129317,15:24:24.227600,0.00805,0.87402,0.87402,-0.02126,0.06334,0.00301,0.00237,-0.02316,-0.02653,0.01879,1.00113,2.68646,0.86596,1.95101,1.98972,-0.72845,1.11294,2.60147,-0.81231,1.22314,2.19000,2.19000,A,142346.70
2.73541,57.68780894,11.98129446,57.68781083,11.98129283,15:24:24.268470,0.03838,0.87402,0.87402,-0.02100,0.06334,0.00408,0.00420,-0.02316,-0.03697,0.02812,1.00534,2.69837,0.86757,1.98138,2.02010,-0.73525,1.12431,2.72153,-0.83212,1.33434,1.74712,1.74712,A,142346.80
2.75490,57.68780935,11.98129410,57.68781083,11.98129283,15:24:24.288384,0.00822,0.87402,0.87402,-0.02085,0.06178,0.00607,0.00359,-0.02713,-0.03471,0.00415,1.03285,2.74884,0.86886,1.94258,1.98034,-0.75687,1.16961,2.72153,-0.83212,1.33434,1.74712,1.74712,A,142346.80
2.76407,57.68780946,11.98129401,57.68781083,11.98129283,15:24:24.297106,0.00721,0.87402,0.87402,-0.02115,0.06125,-0.00249,0.00023,-0.02255,0.02647,-0.00445,1.01455,2.75602,0.86989,1.90786,1.94529,-0.76231,1.18170,2.72153,-0.83212,1.33434,1.74712,1.74712,A,142346.80
2.77443,57.68780958,11.98129391,57.68781083,11.98129283,15:24:24.307465,0.00732,0.87402,0.87402,-0.02132,0.06068,-0.00585,-0.00343,-0.02575,0.02318,0.00744,1.02974,2.76794,0.87072,1.87851,1.91560,-0.76817,1.19537,2.72153,-0.83212,1.33434,1.74712,1.74712,A,142346.80
2.78518,57.68780969,11.98129382,57.68781083,11.98129283,15:24:24.318224,0.00787,0.87402,0.87402,-0.02136,0.06040,-0.00722,-0.01122,-0.02163,-0.04117,0.01598,1.03913,2.77698,0.87138,1.85353,1.89044,-0.77319,1.20739,2.72153,-0.83212,1.33434,1.74712,1.74712,A,142346.80
2.79602,57.68780980,11.98129374,57.68781083,11.98129283,15:24:24.329057,0.00794,0.87402,0.87402,-0.02122,0.06023,-0.00646,-0.00053,-0.02178,-0.06588,0.02830,1.02096,2.78805,0.87191,1.83234,1.86915,-0.77798,1.21929,2.72153,-0.83212,1.33434,1.74712,1.74712,A,142346.80
2.80534,57.68780990,11.98129367,57.68781083,11.98129283,15:24:24.338375,0.00599,0.87402,0.87402,-0.02124,0.06023,-0.00554,0.00329,-0.02300,-0.02361,0.01665,1.01059,2.79929,0.87233,1.81433,1.85114,-0.78245,1.23079,2.72153,-0.83212,1.33434,1.74712,1.74712,A,142346.80
2.81712,57.68781001,11.98129360,57.68781083,11.98129283,15:24:24.350162,0.00737,0.87402,0.87402,-0.02136,0.06023,-0.00585,0.00802,-0.02316,-0.01787,0.01000,0.99765,2.80925,0.87267,1.79906,1.83587,-0.78679,1.24241,2.72153,-0.83212,1.33434,1.74712,1.74712,A,142346.80
2.84705,57.68781010,11.98129353,57.68781133,11.98129233,15:24:24.380096,0.02690,0.87402,0.87402,-0.02175,0.06023,-0.01089,0.00252,-0.02300,-0.02257,-0.00476,0.97710,2.81952,0.87294,1.78602,1.82283,-0.79049,1.25230,2.83911,-0.86184,1.38994,2.06169,2.06169,A,142346.90
2.86151,57.68781039,11.98129336,57.68781133,11.98129233,15:24:24.394586,0.00967,1.08166,1.08166,-0.02232,0.06023,-0.01409,-0.01382,-0.02041,-0.01513,0.00939,0.97307,2.85391,0.91468,1.82317,1.85998,-0.80075,1.28517,2.83911,-0.86184,1.38994,2.06169,2.06169,A,142346.90
2.86801,57.68781048,11.98129328,57.68781133,11.98129233,15:24:24.401044,0.00553,1.08166,1.08166,-0.02247,0.06023,-0.01318,-0.00817,-0.01812,-0.07351,0.01165,0.98442,2.86181,0.94808,1.85368,1.89049,-0.80531,1.29545,2.83911,-0.86184,1.38994,2.06169,2.06169,A,142346.90
2.87838,57.68781059,11.98129320,57.68781133,11.98129233,15:24:24.411416,0.00536,1.08166,1.08166,-0.02272,0.06023,-0.01898,-0.00466,-0.02453,-0.05417,0.01135,1.00436,2.87237,0.97479,1.87975,1.91656,-0.81062,1.30768,2.83911,-0.86184,1.38994,2.06169,2.06169,A,142346.90
2.89115,57.68781070,11.98129310,57.68781133,11.98129233,15:24:24.424584,0.00768,1.08166,1.08166,-0.02317,0.06023,-0.01287,0.00985,-0.02255,-0.02891,-0.00567,1.01150,2.88362,0.99617,1.90194,1.93875,-0.81606,1.31978,2.83911,-0.86184,1.38994,2.06169,2.06169,A,142346.90
2.90122,57.68781078,11.98129303,57.68781133,11.98129233,15:24:24.434260,0.00735,1.08166,1.08166,-0.02343,0.06023,-0.01241,0.00787,-0.02774,-0.02086,0.00396,1.02517,2.89302,1.01327,1.92065,1.95746,-0.82034,1.32846,2.83911,-0.86184,1.38994,2.06169,2.06169,A,142346.90
2.91203,57.68781088,11.98129294,57.68781133,11.98129233,15:24:24.445062,0.00775,1.08166,1.08166,-0.02361,0.06023,-0.01913,0.00359,-0.01659,-0.01464,0.01787,1.01785,2.90522,1.02694,1.93669,1.97350,-0.82550,1.33911,2.83911,-0.86184,1.38994,2.06169,2.06169,A,142346.90
2.91975,57.68781095,11.98129288,57.68781133,11.98129233,15:24:24.452784,0.00507,1.08166,1.08166,-0.02418,0.06023,-0.01486,-0.00267,-0.01476,-0.03007,-0.01610,1.01181,2.91404,1.03789,1.95020,1.98701,-0.82960,1.34701,2.83911,-0.86184,1.38994,2.06169,2.06169,A,142346.90
2.93074,57.68781103,11.98129279,57.68781133,11.98129233,15:24:24.463773,0.00571,1.08166,1.08166,-0.02399,0.06023,-0.01409,-0.00618,-0.01079,-0.02861,0.03562,1.01199,2.92421,1.04664,1.96181,1.99862,-0.83456,1.35672,2.83911,-0.86184,1.38994,2.06169,2.06169,A,142346.90
2.96217,57.68781114,11.98129269,57.68781200,11.98129217,15:24:24.495222,0.02686,8.48286,1.08166,-0.02447,0.06023,-0.01073,-0.00588,-0.01231,-0.01452,-0.00939,1.00735,2.93762,1.05365,1.97180,2.00861,-0.84039,1.36819,2.95576,-0.87175,1.46407,1.70364,1.70364,A,142347.00
2.97979,57.68781146,11.98129243,57.68781200,11.98129217,15:24:24.512836,0.01082,8.48286,1.08166,-0.02476,0.06023,-0.02280,0.00267,-0.01995,-0.03318,0.04593,0.97844,2.97322,1.05925,1.92773,1.96454,-0.85637,1.40377,2.95576,-0.87175,1.46407,1.70364,1.70364,A,142347.00
2.99643,57.68781159,11.98129233,57.68781200,11.98129217,15:24:24.529712,0.01121,8.48286,1.08166,-0.02475,0.06023,-0.01409,-0.00420,-0.01949,-0.06143,0.02733,1.01297,2.98818,1.06373,1.88922,1.92603,-0.86198,1.41844,2.95576,-0.87175,1.46407,1.70364,1.70364,A,142347.00
3.01994,57.68781181,11.98129218,57.68781200,11.98129217,15:24:24.552974,0.01261,8.48286,1.08166,-0.02550,0.06023,-0.00310,0.00252,-0.00453,-0.01031,-0.03251,1.00778,3.01307,1.06732,1.85702,1.89383,-0.87069,1.44288,2.95576,-0.87175,1.46407,1.70364,1.70364,A,142347.00
3.04141,57.68781199,11.98129208,57.68781200,11.98129217,15:24:24.574445,0.00754,8.48286,1.08166,-0.02584,0.06031,-0.00203,0.00619,0.01151,-0.08339,-0.00787,1.00131,3.03535,1.07018,1.82946,1.86632,-0.87698,1.46258,2.95576,-0.87175,1.46407,1.70364,1.70364,A,142347.00
3.09931,57.68781212,11.98129201,57.68781317,11.98129067,15:24:24.633005,0.05523,8.48286,1.08166,-0.02590,0.06091,0.00515,0.01871,0.01640,-0.00195,0.00165,1.00260,3.05285,1.07248,1.80577,1.84300,-0.88129,1.47765,3.08737,-0.96090,1.59379,2.17292,2.17292,A,142347.20
3.12760,57.68781273,11.98129165,57.68781317,11.98129067,15:24:24.660638,0.01693,8.48286,1.08166,-0.02534,0.06320,0.01080,0.01199,-0.01903,0.02702,0.00152,0.97545,3.11957,1.07432,1.85826,1.89688,-0.90258,1.54547,3.08737,-0.96090,1.59379,2.17292,2.17292,A,142347.20
3.15470,57.68781296,11.98129147,57.68781317,11.98129067,15:24:24.687733,0.01498,8.48286,1.08166,-0.02483,0.06478,0.01156,-0.00908,-0.00697,-0.05063,0.02544,0.99643,3.14698,1.07578,1.90079,1.94039,-0.91339,1.57125,3.08737,-0.96090,1.59379,2.17292,2.17292,A,142347.20
3.18382,57.68781319,11.98129127,57.68781317,11.98129067,15:24:24.716861,0.01766,8.48286,1.08166,-0.02422,0.06566,0.03111,-0.00023,0.00326,-0.02458,-0.00488,0.99948,3.17567,1.07696,1.93694,1.97708,-0.92499,1.59618,3.08737,-0.96090,1.59379,2.17292,2.17292,A,142347.20
3.24673,57.68781337,11.98129109,57.68781450,11.98129033,15:24:24.779791,0.05212,8.48286,1.08166,-0.02359,0.06566,0.03019,0.00848,0.00525,-0.05563,0.00390,1.02236,3.20176,1.07790,1.96752,2.00766,-0.93566,1.61668,3.23149,-0.98071,1.74205,1.70364,1.70364,A,142347.30
3.27557,57.68781395,11.98129060,57.68781450,11.98129033,15:24:24.808617,0.01524,8.48286,1.08166,-0.02194,0.06566,0.02790,-0.01489,-0.01842,-0.01861,0.00396,0.98594,3.26751,1.07865,1.92533,1.96547,-0.96480,1.68054,3.23149,-0.98071,1.74205,1.70364,1.70364,A,142347.30
3.30409,57.68781418,11.98129043,57.68781450,11.98129033,15:24:24.837129,0.01675,8.48286,1.08166,-0.02120,0.06566,0.03019,-0.00450,-0.01995,-0.04246,0.00909,0.99137,3.29601,1.07925,1.88740,1.92754,-0.97523,1.70674,3.23149,-0.98071,1.74205,1.70364,1.70364,A,142347.30
3.36734,57.68781440,11.98129028,57.68781517,11.98128967,15:24:24.900413,0.05150,8.48286,1.08166,-0.02040,0.06566,0.02714,-0.00130,-0.01613,-0.04075,0.02098,1.02187,3.32360,1.07973,1.85511,1.89525,-0.98392,1.73108,3.35086,-1.02034,1.81618,2.06169,2.06169,A,142347.40
3.39236,57.68781495,11.98128993,57.68781517,11.98128967,15:24:24.925398,0.01276,8.48286,1.08166,-0.01920,0.06470,0.03065,-0.01412,-0.02194,-0.00610,-0.02763,0.97289,3.38613,1.08012,1.88335,1.92290,-1.00465,1.79156,3.35086,-1.02034,1.81618,2.06169,2.06169,A,142347.40
3.42385,57.68781521,11.98128974,57.68781517,11.98128967,15:24:24.958471,0.01634,8.48286,1.08166,-0.01856,0.06229,0.02775,-0.02176,-0.01888,-0.02635,0.00372,0.97313,3.41770,1.08043,1.90600,1.94408,-1.01594,1.82138,3.35086,-1.02034,1.81618,2.06169,2.06169,A,142347.40
3.45066,57.68781541,11.98128959,57.68781517,11.98128967,15:24:24.983701,0.01549,8.48286,1.08166,-0.01805,0.06147,0.02882,0.00267,-0.02377,-0.00213,0.00525,1.01888,3.44274,1.08067,1.92491,1.96249,-1.02471,1.84297,3.35086,-1.02034,1.81618,2.06169,2.06169,A,142347.40
3.52507,57.68781560,11.98128944,57.68781717,11.98128883,15:24:25.058140,0.06146,8.48286,1.08166,-0.01706,0.06130,0.03615,-0.00985,-0.02163,-0.03916,0.02129,1.05756,3.47025,1.08087,1.94103,1.97849,-1.03374,1.86400,3.50971,-1.06987,2.03857,1.78994,1.78994,A,142347.60
3.55555,57.68781631,11.98128890,57.68781717,11.98128883,15:24:25.088593,0.01557,8.48286,1.08166,-0.01545,0.06034,0.02745,-0.00481,-0.03110,-0.01397,-0.01171,0.98686,3.54756,1.08103,1.91669,1.95357,-1.06609,1.94346,3.50971,-1.06987,2.03857,1.78994,1.78994,A,142347.60
3.58290,57.68781655,11.98128874,57.68781717,11.98128883,15:24:25.115945,0.01340,8.48286,1.08166,-0.01463,0.06034,0.02577,-0.01458,-0.02163,-0.05746,0.03227,1.06048,3.57445,1.08115,1.89333,1.93021,-1.07525,1.97049,3.50971,-1.06987,2.03857,1.78994,1.78994,A,142347.60
3.60939,57.68781680,11.98128860,57.68781717,11.98128883,15:24:25.142420,0.01469,8.48286,1.08166,-0.01434,0.06003,0.02577,-0.00970,-0.01644,-0.02446,-0.00689,1.01132,3.60329,1.08126,1.87356,1.91024,-1.08379,1.99734,3.50971,-1.06987,2.03857,1.78994,1.78994,A,142347.60
3.65794,57.68781696,11.98128852,57.68781817,11.98128850,15:24:25.190999,0.03745,1.08737,1.08737,-0.01391,0.05927,0.02256,-0.01367,-0.01980,-0.02824,0.02477,0.99936,3.62167,1.08248,1.85640,1.89262,-1.08866,2.01516,3.64209,-1.08968,2.14977,1.74712,1.74712,A,142347.70
3.67574,57.68781742,11.98128827,57.68781817,11.98128850,15:24:25.208774,0.00783,1.08737,1.08737,-0.01392,0.05794,0.00484,-0.00053,-0.03400,-0.04069,0.00708,0.99387,3.66993,1.08346,1.83699,1.87239,-1.10365,2.06669,3.64209,-1.08968,2.14977,1.74712,1.74712,A,142347.70
3.68722,57.68781753,11.98128824,57.68781817,11.98128850,15:24:25.220265,0.00891,1.08737,1.08737,-0.01383,0.05794,0.00484,0.00191,-0.03049,-0.07741,0.02605,1.00766,3.67961,1.08424,1.81858,1.85398,-1.10534,2.07855,3.64209,-1.08968,2.14977,1.74712,1.74712,A,142347.70
3.69734,57.68781762,11.98128822,57.68781817,11.98128850,15:24:25.230411,0.00881,1.08737,1.08737,-0.01322,0.05794,0.00744,0.01062,-0.02866,-0.07893,0.06063,1.02742,3.68990,1.08486,1.80288,1.83828,-1.10648,2.08872,3.64209,-1.08968,2.14977,1.74712,1.74712,A,142347.70
3.70553,57.68781771,11.98128820,57.68781817,11.98128850,15:24:25.238572,0.00684,1.08737,1.08737,-0.01334,0.05794,0.01110,0.00741,-0.02362,-0.03605,0.00909,1.02974,3.69938,1.08537,1.78958,1.82498,-1.10774,2.09942,3.64209,-1.08968,2.14977,1.74712,1.74712,A,142347.70
3.71647,57.68781781,11.98128818,57.68781817,11.98128850,15:24:25.249760,0.00744,1.08737,1.08737,-0.01313,0.05794,0.00347,0.00634,-0.01461,0.01867,0.03544,0.99613,3.70989,1.08577,1.77831,1.81371,-1.10900,2.11025,3.64209,-1.08968,2.14977,1.74712,1.74712,A,142347.70
3.72674,57.68781789,11.98128816,57.68781817,11.98128850,15:24:25.259776,0.00747,1.08737,1.08737,-0.01346,0.05794,0.00607,-0.00343,-0.01415,0.02355,-0.00165,0.99948,3.71913,1.08609,1.76864,1.80405,-1.10968,2.11887,3.64209,-1.08968,2.14977,1.74712,1.74712,A,142347.70
3.73641,57.68781796,11.98128816,57.68781817,11.98128850,15:24:25.270019,0.00691,1.08737,1.08737,-0.01359,0.05794,0.00316,-0.01168,-0.01644,-0.04331,0.01257,0.98491,3.72876,1.08634,1.76040,1.79580,-1.11011,2.12644,3.64209,-1.08968,2.14977,1.74712,1.74712,A,142347.70
3.77525,57.68781804,11.98128814,57.68781900,11.98128767,15:24:25.308327,0.03534,1.08737,1.08737,-0.01375,0.05794,0.00194,-0.00298,-0.01903,-0.08351,0.01141,0.98112,3.74081,1.08655,1.75350,1.78891,-1.11102,2.13604,3.76247,-1.13921,2.24243,2.06169,2.06169,A,142347.80
3.79730,57.68781851,11.98128794,57.68781900,11.98128767,15:24:25.330353,0.01065,1.08737,1.08737,-0.01372,0.05794,-0.00539,0.00329,-0.03370,-0.02788,0.04368,1.02126,3.78919,1.08671,1.79667,1.83208,-1.12270,2.18771,3.76247,-1.13921,2.24243,2.06169,2.06169,A,142347.80
3.81808,57.68781868,11.98128785,57.68781900,11.98128767,15:24:25.351123,0.01123,1.08737,1.08737,-0.01372,0.05794,0.00041,0.01016,-0.02591,-0.01397,0.02251,0.99747,3.80972,1.08684,1.83194,1.86735,-1.12805,2.20735,3.76247,-1.13921,2.24243,2.06169,2.06169,A,142347.80
3.84132,57.68781887,11.98128775,57.68781900,11.98128767,15:24:25.374358,0.01052,1.08737,1.08737,-0.01414,0.05794,-0.00478,-0.00145,-0.02300,-0.01769,0.00293,0.96734,3.83311,1.08695,1.86203,1.89744,-1.13440,2.22808,3.76247,-1.13921,2.24243,2.06169,2.06169,A,142347.80
3.86079,57.68781903,11.98128765,57.68781900,11.98128767,15:24:25.393845,0.00887,1.08737,1.08737,-0.01449,0.05794,-0.00921,-0.00542,-0.01934,-0.03428,0.01269,0.96429,3.85475,1.08703,1.88752,1.92293,-1.14043,2.24589,3.76247,-1.13921,2.24243,2.06169,2.06169,A,142347.80
3.91364,57.68781909,11.98128761,57.68782100,11.98128617,15:24:25.446701,0.05047,1.08737,1.08737,-0.01451,0.05794,-0.01470,-0.00725,-0.02087,-0.00055,0.02751,0.93135,3.86307,1.08710,1.90865,1.94406,-1.14268,2.25198,3.89990,-1.22837,2.46482,1.95208,1.95208,A,142348.00
3.93561,57.68781973,11.98128713,57.68782100,11.98128617,15:24:25.468663,0.00836,1.08737,1.08737,-0.01560,0.05794,-0.01929,0.00008,-0.02682,0.02025,0.03245,0.99674,3.92841,1.08715,1.91297,1.94837,-1.17090,2.32374,3.89990,-1.22837,2.46482,1.95208,1.95208,A,142348.00
3.94360,57.68781984,11.98128705,57.68782100,11.98128617,15:24:25.476646,0.00596,1.08737,1.08737,-0.01547,0.05794,-0.02081,-0.01168,-0.01598,-0.02684,0.04258,1.01101,3.93680,1.08720,1.91380,1.94921,-1.17596,2.33632,3.89990,-1.22837,2.46482,1.95208,1.95208,A,142348.00
3.95344,57.68781997,11.98128695,57.68782100,11.98128617,15:24:25.486482,0.00539,1.08737,1.08737,-0.01556,0.05794,-0.02066,-0.00572,-0.01369,-0.05075,0.02983,1.00095,3.94743,1.08723,1.91461,1.95002,-1.18156,2.35023,3.89990,-1.22837,2.46482,1.95208,1.95208,A,142348.00
3.96404,57.68782010,11.98128686,57.68782100,11.98128617,15:24:25.497063,0.00558,1.08737,1.08737,-0.01622,0.05794,-0.01791,-0.00435,-0.01293,-0.06429,-0.00939,0.97832,3.95828,1.08726,1.91535,1.95076,-1.18726,2.36440,3.89990,-1.22837,2.46482,1.95208,1.95208,A,142348.00
3.98110,57.68782024,11.98128675,57.68782100,11.98128617,15:24:25.514178,0.01210,1.08737,1.08737,-0.01663,0.05794,-0.02952,0.00924,-0.01674,-0.01251,0.01903,0.96776,3.97169,1.08728,1.91612,1.95152,-1.19377,2.38057,3.89990,-1.22837,2.46482,1.95208,1.95208,A,142348.00
3.99741,57.68782041,11.98128663,57.68782100,11.98128617,15:24:25.530458,0.01053,1.08737,1.08737,-0.01708,0.05794,-0.03822,0.00023,-0.02331,0.00281,0.03288,0.97515,3.98881,1.08730,1.91691,1.95232,-1.20106,2.39868,3.89990,-1.22837,2.46482,1.95208,1.95208,A,142348.00
4.04974,57.68782056,11.98128651,57.68782200,11.98128583,15:24:25.582818,0.04241,1.08737,1.08737,-0.01773,0.05794,-0.03853,-0.01809,-0.02881,-0.06924,0.02599,1.03791,4.00782,1.08731,1.91758,1.95299,-1.20798,2.41583,4.03356,-1.24818,2.57602,1.74712,1.74712,A,142348.10
4.07121,57.68782108,11.98128614,57.68782200,11.98128583,15:24:25.604242,0.00866,1.08737,1.08737,-0.01939,0.05794,-0.03502,0.01260,-0.01461,-0.10480,0.04069,0.99900,4.06520,1.08732,1.88927,1.92468,-1.23023,2.47420,4.03356,-1.24818,2.57602,1.74712,1.74712,A,142348.10
4.08160,57.68782118,11.98128608,57.68782200,11.98128583,15:24:25.614640,0.00879,1.08737,1.08737,-0.01902,0.05794,-0.02723,0.02360,-0.01201,-0.03825,0.05545,0.98308,4.07344,1.08733,1.86294,1.89835,-1.23336,2.48532,4.03356,-1.24818,2.57602,1.74712,1.74712,A,142348.10
4.09035,57.68782128,11.98128604,57.68782200,11.98128583,15:24:25.623386,0.00602,1.08737,1.08737,-0.01928,0.05794,-0.02112,0.01672,-0.00636,0.04947,0.01562,1.00540,4.08383,1.08734,1.84057,1.87597,-1.23617,2.49595,4.03356,-1.24818,2.57602,1.74712,1.74712,A,142348.10
4.10451,57.68782140,11.98128597,57.68782200,11.98128583,15:24:25.638034,0.00997,1.08737,1.08737,-0.01982,0.05794,-0.01929,-0.00389,-0.01094,0.02769,-0.00354,1.01345,4.09571,1.08734,1.82171,1.85712,-1.23978,2.50950,4.03356,-1.24818,2.57602,1.74712,1.74712,A,142348.10
4.11483,57.68782151,11.98128592,57.68782200,11.98128583,15:24:25.647870,0.00888,1.08737,1.08737,-0.02005,0.05794,-0.02982,-0.01382,-0.00651,-0.04984,0.02483,1.01876,4.10725,1.08735,1.80566,1.84106,-1.24283,2.52178,4.03356,-1.24818,2.57602,1.74712,1.74712,A,142348.10
4.12347,57.68782158,11.98128590,57.68782200,11.98128583,15:24:25.656510,0.00744,1.08737,1.08737,-0.01996,0.05794,-0.02280,-0.00878,-0.00895,-0.09205,0.03782,1.04072,4.11585,1.08735,1.79181,1.82721,-1.24448,2.52946,4.03356,-1.24818,2.57602,1.74712,1.74712,A,142348.10
4.16709,57.68782168,11.98128585,57.68782300,11.98128583,15:24:25.700161,0.04066,1.08737,1.08737,-0.01997,0.05813,-0.02005,0.00863,-0.00651,-0.02373,0.03294,0.99637,4.12859,1.08736,1.78022,1.81575,-1.24705,2.54088,4.15403,-1.24818,2.68721,1.57080,1.57080,A,142348.20
4.18718,57.68782219,11.98128565,57.68782300,11.98128583,15:24:25.720245,0.00969,1.08737,1.08737,-0.02081,0.06399,-0.01012,0.01031,0.00754,-0.06191,-0.00451,0.97515,4.17928,1.08736,1.74532,1.78443,-1.25924,2.59676,4.15403,-1.24818,2.68721,1.57080,1.57080,A,142348.20
4.19599,57.68782228,11.98128563,57.68782300,11.98128583,15:24:25.729034,0.00787,1.08737,1.08737,-0.02114,0.06461,-0.00401,0.01566,0.00097,0.02123,-0.00189,0.97454,4.18801,1.08736,1.71355,1.75305,-1.26005,2.60757,4.15403,-1.24818,2.68721,1.57080,1.57080,A,142348.20
4.20552,57.68782239,11.98128562,57.68782300,11.98128583,15:24:25.738553,0.00699,1.08737,1.08737,-0.02164,0.06512,-0.00386,0.01230,0.00158,0.02312,-0.01366,0.99723,4.19942,1.08736,1.68658,1.72638,-1.26086,2.61912,4.15403,-1.24818,2.68721,1.57080,1.57080,A,142348.20
4.21857,57.68782250,11.98128561,57.68782300,11.98128583,15:24:25.751604,0.00955,1.08737,1.08737,-0.02184,0.06532,-0.00264,0.00558,0.00097,-0.03160,0.00488,1.01260,4.21023,1.08736,1.66370,1.70362,-1.26161,2.63138,4.15403,-1.24818,2.68721,1.57080,1.57080,A,142348.20
4.22666,57.68782258,11.98128560,57.68782300,11.98128583,15:24:25.759689,0.00721,1.08737,1.08737,-0.02196,0.06532,-0.00753,0.00099,-0.00590,-0.04636,0.01293,1.04157,4.22062,1.08736,1.64411,1.68403,-1.26176,2.64034,4.15403,-1.24818,2.68721,1.57080,1.57080,A,142348.20
4.23694,57.68782266,11.98128560,57.68782300,11.98128583,15:24:25.769991,0.00729,1.08737,1.08737,-0.02187,0.06532,-0.00340,0.00329,-0.00575,-0.03532,0.02440,1.01168,4.22924,1.08736,1.62749,1.66742,-1.26187,2.64961,4.15403,-1.24818,2.68721,1.57080,1.57080,A,142348.20
4.24816,57.68782278,11.98128560,57.68782300,11.98128583,15:24:25.781197,0.00703,1.08737,1.08737,-0.02122,0.06532,-0.00081,0.00023,-0.01063,0.00903,0.06063,1.00912,4.24084,1.08737,1.61361,1.65354,-1.26229,2.66286,4.15403,-1.24818,2.68721,1.57080,1.57080,A,142348.20
4.30928,57.68782288,11.98128559,57.68782517,11.98128383,15:24:25.842349,0.05775,1.08737,1.08737,-0.02183,0.06532,0.01049,-0.00191,-0.01125,-0.04038,-0.03355,1.02486,4.25272,1.08737,1.60175,1.64168,-1.26244,2.67435,4.29917,-1.36706,2.92813,2.02916,2.02916,A,142348.40
4.33462,57.68782364,11.98128542,57.68782517,11.98128383,15:24:25.867684,0.01319,1.08570,1.08570,-0.02001,0.06827,0.02790,-0.00557,0.00036,-0.02464,0.00360,1.01327,4.32610,1.08703,1.66344,1.70517,-1.27276,2.75875,4.29917,-1.36706,2.92813,2.02916,2.02916,A,142348.40
4.36187,57.68782395,11.98128528,57.68782517,11.98128383,15:24:25.894913,0.01152,1.08570,1.08570,-0.01945,0.06909,0.02653,0.00161,0.00250,-0.01867,0.00421,0.96612,4.35539,1.08677,1.71342,1.75566,-1.28098,2.79314,4.29917,-1.36706,2.92813,2.02916,2.02916,A,142348.40
4.38101,57.68782416,11.98128516,57.68782517,11.98128383,15:24:25.914071,0.00660,1.08570,1.08570,-0.01901,0.06909,0.02806,0.00008,-0.00040,-0.00098,0.01421,0.97313,4.37390,1.08655,1.75538,1.79762,-1.28832,2.81612,4.29917,-1.36706,2.92813,2.02916,2.02916,A,142348.40
4.39341,57.68782430,11.98128505,57.68782517,11.98128383,15:24:25.926486,0.00726,1.08570,1.08570,-0.01832,0.06909,0.02851,0.00695,-0.00651,-0.03306,0.04276,1.01181,4.38604,1.08638,1.79070,1.83294,-1.29460,2.83188,4.29917,-1.36706,2.92813,2.02916,2.02916,A,142348.40
4.43474,57.68782444,11.98128495,57.68782633,11.98128417,15:24:25.967810,0.03819,1.08570,1.08570,-0.01803,0.06909,0.02943,0.02238,-0.01094,-0.04782,0.01592,1.01101,4.39811,1.08625,1.82074,1.86297,-1.30096,2.84691,4.42147,-1.34724,3.05786,1.41924,1.41924,A,142348.50
4.45337,57.68782493,11.98128468,57.68782633,11.98128417,15:24:25.986452,0.01025,1.08570,1.08570,-0.01696,0.06909,0.02317,-0.03260,-0.00712,0.01086,0.01946,1.01675,4.44601,1.08614,1.75677,1.79901,-1.31652,2.90148,4.42147,-1.34724,3.05786,1.41924,1.41924,A,142348.50
4.47150,57.68782514,11.98128460,57.68782633,11.98128417,15:24:26.004536,0.00939,1.08570,1.08570,-0.01662,0.06909,0.02424,-0.02466,-0.00544,-0.07100,0.01592,0.99881,4.46338,1.08605,1.70072,1.74295,-1.32168,2.92493,4.42147,-1.34724,3.05786,1.41924,1.41924,A,142348.50
4.48219,57.68782526,11.98128455,57.68782633,11.98128417,15:24:26.015630,0.00932,1.08570,1.08570,-0.01726,0.06909,0.01630,-0.00328,-0.00728,-0.04093,-0.03190,0.98112,4.47457,1.08598,1.65257,1.69480,-1.32421,2.93875,4.42147,-1.34724,3.05786,1.41924,1.41924,A,142348.50
4.49088,57.68782536,11.98128452,57.68782633,11.98128417,15:24:26.023919,0.00738,1.08570,1.08570,-0.01720,0.06909,0.01126,0.00497,-0.00560,-0.05716,0.01830,0.96844,4.48289,1.08592,1.61151,1.65374,-1.32596,2.94950,4.42147,-1.34724,3.05786,1.41924,1.41924,A,142348.50
4.50279,57.68782548,11.98128449,57.68782633,11.98128417,15:24:26.035839,0.00888,1.08570,1.08570,-0.01659,0.06909,0.01294,0.01352,-0.01308,-0.01196,0.04862,0.94001,4.49526,1.08588,1.57682,1.61906,-1.32774,2.96352,4.42147,-1.34724,3.05786,1.41924,1.41924,A,142348.50
4.51139,57.68782559,11.98128447,57.68782633,11.98128417,15:24:26.044422,0.00729,1.08570,1.08570,-0.01603,0.06909,0.02546,0.00115,-0.01293,-0.03434,0.04148,0.96642,4.50497,1.08584,1.54721,1.58945,-1.32902,2.97466,4.42147,-1.34724,3.05786,1.41924,1.41924,A,142348.50
4.55185,57.68782569,11.98128446,57.68782767,11.98128350,15:24:26.084930,0.03725,1.08570,1.08570,-0.01538,0.06909,0.03142,0.00420,-0.01170,-0.06978,0.04691,1.01858,4.51466,1.08582,1.52211,1.56434,-1.33007,2.98628,4.53974,-1.38687,3.20612,1.83196,1.83196,A,142348.60
4.57537,57.68782624,11.98128441,57.68782767,11.98128350,15:24:26.108916,0.01064,1.08570,1.08570,-0.01366,0.06909,0.02592,0.00222,-0.02468,-0.11236,0.04715,0.98783,4.56736,1.08579,1.56508,1.60731,-1.33259,3.04744,4.53974,-1.38687,3.20612,1.83196,1.83196,A,142348.60
4.59243,57.68782645,11.98128436,57.68782767,11.98128350,15:24:26.125705,0.00855,1.08570,1.08570,-0.01310,0.06909,0.02683,0.01932,-0.01888,-0.01934,0.02788,0.94806,4.58609,1.08577,1.59964,1.64187,-1.33586,3.07059,4.53974,-1.38687,3.20612,1.83196,1.83196,A,142348.60
4.60221,57.68782656,11.98128431,57.68782767,11.98128350,15:24:26.135285,0.00720,1.08570,1.08570,-0.01343,0.06909,0.02836,0.01291,-0.01797,0.07845,-0.01092,0.92281,4.59442,1.08576,1.62850,1.67073,-1.33885,3.08351,4.53974,-1.38687,3.20612,1.83196,1.83196,A,142348.60
4.61243,57.68782671,11.98128425,57.68782767,11.98128350,15:24:26.145733,0.00659,1.08570,1.08570,-0.01256,0.06909,0.02928,-0.00404,-0.01766,0.02446,0.05807,0.97417,4.60670,1.08575,1.65327,1.69550,-1.34228,3.09989,4.53974,-1.38687,3.20612,1.83196,1.83196,A,142348.60
4.62330,57.68782684,11.98128419,57.68782767,11.98128350,15:24:26.156329,0.00706,1.08570,1.08570,-0.01177,0.06909,0.02714,0.00206,-0.01644,-0.15152,0.06027,1.01925,4.61750,1.08574,1.67426,1.71649,-1.34566,3.11443,4.53974,-1.38687,3.20612,1.83196,1.83196,A,142348.60
4.63401,57.68782696,11.98128414,57.68782767,11.98128350,15:24:26.167039,0.00737,1.08570,1.08570,-0.01067,0.06906,0.02607,0.01046,-0.02270,-0.12121,0.09058,1.06561,4.62599,1.08573,1.69205,1.73427,-1.34894,3.12727,4.53974,-1.38687,3.20612,1.83196,1.83196,A,142348.60
4.67681,57.68782705,11.98128409,57.68782833,11.98128350,15:24:26.209899,0.03996,1.08570,1.08570,-0.01060,0.06906,0.02699,0.02604,-0.02575,0.03904,0.01403,1.03554,4.63653,1.08573,1.70709,1.74930,-1.35192,3.13783,4.66178,-1.38687,3.28025,1.57080,1.57080,A,142348.70
4.69548,57.68782756,11.98128391,57.68782833,11.98128350,15:24:26.228513,0.00939,1.08570,1.08570,-0.01027,0.06906,0.02302,0.01001,-0.00987,0.02178,-0.02653,0.91439,4.68904,1.08572,1.68315,1.72537,-1.36260,3.19447,4.66178,-1.38687,3.28025,1.57080,1.57080,A,142348.70
4.70598,57.68782766,11.98128387,57.68782833,11.98128350,15:24:26.239017,0.00961,1.08570,1.08570,-0.01126,0.06906,0.01462,-0.00206,-0.00758,0.05850,-0.04301,0.93483,4.69785,1.08572,1.66034,1.70255,-1.36483,3.20525,4.66178,-1.38687,3.28025,1.57080,1.57080,A,142348.70
4.71549,57.68782774,11.98128384,57.68782833,11.98128350,15:24:26.248558,0.00860,1.08570,1.08570,-0.01141,0.06903,0.00683,-0.01535,-0.01063,0.00159,0.01232,0.97460,4.70764,1.08571,1.64091,1.68310,-1.36670,3.21480,4.66178,-1.38687,3.28025,1.57080,1.57080,A,142348.70
4.72441,57.68782784,11.98128381,57.68782833,11.98128350,15:24:26.257706,0.00734,1.08570,1.08570,-0.01107,0.06889,0.00301,-0.01962,-0.01201,-0.07881,0.04862,1.03127,4.71678,1.08571,1.62446,1.66657,-1.36847,3.22485,4.66178,-1.38687,3.28025,1.57080,1.57080,A,142348.70
4.73709,57.68782794,11.98128378,57.68782833,11.98128350,15:24:26.270167,0.00908,1.08570,1.08570,-0.01038,0.06858,0.00652,-0.00572,-0.02117,-0.09607,0.07155,1.05786,4.72888,1.08571,1.61061,1.65253,-1.37023,3.23631,4.66178,-1.38687,3.28025,1.57080,1.57080,A,142348.70
4.74726,57.68782802,11.98128376,57.68782833,11.98128350,15:24:26.280334,0.00920,1.08570,1.08570,-0.01045,0.06821,0.00607,0.00145,-0.02545,-0.00317,0.01934,1.01303,4.73884,1.08571,1.59877,1.64046,-1.37162,3.24530,4.66178,-1.38687,3.28025,1.57080,1.57080,A,142348.70
4.75585,57.68782811,11.98128373,57.68782833,11.98128350,15:24:26.288883,0.00704,1.08570,1.08570,-0.01085,0.06770,-0.00218,0.00665,-0.02942,-0.02818,0.00250,1.01980,4.74959,1.08571,1.58881,1.63019,-1.37293,3.25492,4.66178,-1.38687,3.28025,1.57080,1.57080,A,142348.70
4.81820,57.68782819,11.98128371,57.68783083,11.98128200,15:24:26.351267,0.05830,1.08570,1.08570,-0.01112,0.06708,-0.00860,0.00894,-0.02667,-0.06698,0.01488,0.98448,4.75984,1.08571,1.58041,1.62141,-1.37411,3.26439,4.80158,-1.47603,3.55824,1.88115,1.88115,A,142348.90
4.83750,57.68782892,11.98128357,57.68783083,11.98128200,15:24:26.370575,0.00919,1.08570,1.08570,-0.01315,0.06413,-0.03288,-0.01306,-0.02163,-0.07643,0.03953,1.03499,4.82782,1.08570,1.62327,1.66247,-1.38256,3.34522,4.80158,-1.47603,3.55824,1.88115,1.88115,A,142348.90
4.84627,57.68782907,11.98128348,57.68783083,11.98128200,15:24:26.379303,0.00779,1.08570,1.08570,-0.01355,0.06343,-0.03379,-0.00267,-0.02270,-0.11865,0.02196,1.05146,4.83834,1.08570,1.65648,1.69525,-1.38783,3.36238,4.80158,-1.47603,3.55824,1.88115,1.88115,A,142348.90
4.85606,57.68782922,11.98128340,57.68783083,11.98128200,15:24:26.389095,0.00753,1.08570,1.08570,-0.01371,0.06289,-0.02998,0.00985,-0.02438,-0.04130,0.03324,0.99729,4.84841,1.08570,1.68474,1.72318,-1.39302,3.37843,4.80158,-1.47603,3.55824,1.88115,1.88115,A,142348.90
4.86627,57.68782937,11.98128331,57.68783083,11.98128200,15:24:26.399307,0.00734,1.08570,1.08570,-0.01428,0.06252,-0.03670,-0.00053,-0.01934,0.00701,0.01415,0.99479,4.86021,1.08570,1.70890,1.74712,-1.39845,3.39571,4.80158,-1.47603,3.55824,1.88115,1.88115,A,142348.90
4.87647,57.68782950,11.98128322,57.68783083,11.98128200,15:24:26.409758,0.00705,1.08570,1.08570,-0.01467,0.06246,-0.03715,-0.01015,-0.01781,0.03538,0.01757,0.95691,4.86865,1.08570,1.72935,1.76753,-1.40347,3.41026,4.80158,-1.47603,3.55824,1.88115,1.88115,A,142348.90
4.88967,57.68782965,11.98128313,57.68783083,11.98128200,15:24:26.422742,0.00956,1.22155,1.22155,-0.01539,0.06246,-0.04250,-0.02573,-0.02056,-0.03324,0.01275,0.94190,4.88169,1.11287,1.74688,1.78505,-1.40895,3.42697,4.80158,-1.47603,3.55824,1.88115,1.88115,A,142348.90
4.89802,57.68782977,11.98128305,57.68783083,11.98128200,15:24:26.431060,0.00738,1.22155,1.22155,-0.01566,0.06241,-0.04433,-0.02100,-0.02728,-0.08882,0.03105,0.98088,4.89047,1.13461,1.76164,1.79978,-1.41373,3.44009,4.80158,-1.47603,3.55824,1.88115,1.88115,A,142348.90
4.94077,57.68782990,11.98128296,57.68783150,11.98128083,15:24:26.473848,0.03975,1.22155,1.22155,-0.01646,0.06218,-0.04693,-0.00069,-0.03110,-0.09211,0.00543,1.00778,4.90187,1.15199,1.77430,1.81230,-1.41877,3.45424,4.92600,-1.54537,3.63237,2.32285,2.32285,A,142349.00
4.96258,57.68783046,11.98128263,57.68783150,11.98128083,15:24:26.495622,0.00988,1.22155,1.22155,-0.01903,0.05978,-0.05013,0.00054,-0.01812,-0.05033,0.01976,1.02602,4.95306,1.16590,1.85393,1.89046,-1.43840,3.51716,4.92600,-1.54537,3.63237,2.32285,2.32285,A,142349.00
4.97979,57.68783066,11.98128245,57.68783150,11.98128083,15:24:26.513003,0.01483,9.45186,1.22155,-0.02046,0.05921,-0.05136,-0.00420,-0.01766,0.00079,-0.01263,1.00034,4.97174,1.17703,1.91966,1.95584,-1.44902,3.53884,4.92600,-1.54537,3.63237,2.32285,2.32285,A,142349.00
5.00043,57.68783086,11.98128225,57.68783150,11.98128083,15:24:26.533683,0.00947,9.45186,1.22155,-0.02176,0.05884,-0.05304,-0.00481,-0.02102,-0.08381,0.00537,0.95453,4.99286,1.18593,1.97566,2.01162,-1.46100,3.56118,4.92600,-1.54537,3.63237,2.32285,2.32285,A,142349.00
5.02162,57.68783100,11.98128209,57.68783150,11.98128083,15:24:26.554702,0.01983,9.45186,1.22155,0.00000,0.05881,-0.05991,0.00237,-0.02224,-0.06332,0.02233,0.96081,5.00739,1.22155,1.93710,1.97304,-1.54537,3.63237,4.92600,-1.54537,3.63237,2.32285,2.32285,A,142349.00
5.09967,57.68783171,11.98128067,57.68783233,11.98128017,15:24:26.633760,0.07303,9.45186,1.22155,-0.00331,-12.64910,-0.05181,0.00863,-0.02239,-0.02031,-0.00445,1.05493,5.03087,1.22155,2.00375,1.95316,-1.55511,3.65526,5.05298,-1.58499,3.72503,1.97489,1.97489,A,142349.10
