Time,lat_estimated,lon_estimated,latitude,longitude,RealTime,CalculationTime,MeasuredVelocity,Roll,SteeringAngle,RollRate,gy,gz,ax,ay,az,imu_read_timing,v_estimated,yaw_estimated,heading_estimated,x_estimated,y_estimated,GPS_timestamp,x_GPS,y_GPS,status,NMEA timestamp
0.04450,57.68785833,11.98135567,57.68786,11.98136,11:17:03.113960,0.04446,0.00000,-0.00110,0.02621,-0.01402,0.01323,-0.00965,0.02428,-0.04313,1.00705,0.00001,0.00000,0.00000,0.00000,0.00000,0.00000,0.01583,0.85193,1.87178,A,111703.00
0.06501,57.68786507,11.98136140,57.68786,11.98136,11:17:03.133915,0.00859,0.00000,-0.00347,0.02621,-0.02410,0.00774,-0.02126,0.02977,-0.04624,0.98753,0.05774,0.00000,0.11437,0.12215,0.34077,0.74871,0.01583,0.85193,1.87178,A,111703.00
0.06978,57.68786507,11.98136140,57.68786,11.98136,11:17:03.138662,0.00317,0.00000,-0.00462,0.02621,-0.02563,0.00758,-0.02080,0.02599,-0.04477,0.99338,0.06608,0.00000,0.11437,0.12215,0.34077,0.74871,0.01583,0.85193,1.87178,A,111703.00
0.08016,57.68786507,11.98136140,57.68786,11.98136,11:17:03.149024,0.00315,0.00000,-0.00566,0.02621,-0.02609,0.00865,-0.02446,0.02684,-0.03447,0.99357,0.07668,0.00000,0.11437,0.12215,0.34077,0.74871,0.01583,0.85193,1.87178,A,111703.00
0.09095,57.68786507,11.98136140,57.68786,11.98136,11:17:03.159819,0.00354,0.00000,-0.00672,0.02621,-0.02135,0.00468,-0.02171,0.03172,-0.04014,0.99674,0.08745,0.00000,0.11437,0.12215,0.34077,0.74871,0.01583,0.85193,1.87178,A,111703.00
0.10105,57.68786507,11.98136140,57.68786,11.98136,11:17:03.169924,0.00300,0.00000,-0.00778,0.02621,-0.01738,0.00331,-0.02110,0.04605,-0.04459,0.99509,0.09757,0.00000,0.11437,0.12215,0.34077,0.74871,0.01583,0.85193,1.87178,A,111703.00
0.11169,57.68786507,11.98136140,57.68786,11.98136,11:17:03.180555,0.00323,0.00000,-0.00902,0.02621,-0.01402,0.00514,-0.02171,0.04270,-0.05978,0.99711,0.10821,0.00000,0.11437,0.12215,0.34077,0.74871,0.01583,0.85193,1.87178,A,111703.00
0.13390,57.68786507,11.98136140,57.68786,11.98136,11:17:03.202802,0.01505,0.00000,-0.01010,0.02621,-0.01173,0.00132,-0.01606,0.03520,-0.05173,0.99094,0.11831,0.00000,0.11437,0.12215,0.34077,0.74871,0.13251,0.86184,1.92738,A,111703.10
0.15188,57.68786931,11.98136491,57.68786,11.98136,11:17:03.220766,0.00791,0.00000,-0.01141,0.02621,-0.01112,-0.00387,-0.01667,0.03873,-0.05508,0.97996,0.14610,0.00000,0.24160,0.24938,0.54920,1.22018,0.13251,0.86184,1.92738,A,111703.10
0.15720,57.68786931,11.98136491,57.68786,11.98136,11:17:03.226288,0.00300,0.00000,-0.01251,0.02621,-0.01387,-0.00158,-0.01362,0.04270,-0.05575,0.98417,0.15371,0.00000,0.24160,0.24938,0.54920,1.22018,0.13251,0.86184,1.92738,A,111703.10
0.16773,57.68786931,11.98136491,57.68786,11.98136,11:17:03.236602,0.00313,0.00000,-0.01358,0.02621,-0.01570,-0.00295,-0.02141,0.03337,-0.05191,0.99735,0.16425,0.00000,0.24160,0.24938,0.54920,1.22018,0.13251,0.86184,1.92738,A,111703.10
0.17825,57.68786931,11.98136491,57.68786,11.98136,11:17:03.247125,0.00325,0.00000,-0.01438,0.02621,-0.01647,-0.00326,-0.02049,0.03148,-0.03477,0.99753,0.17473,0.00000,0.24160,0.24938,0.54920,1.22018,0.13251,0.86184,1.92738,A,111703.10
0.18867,57.68786931,11.98136491,57.68786,11.98136,11:17:03.257800,0.00328,0.00000,-0.01520,0.02621,-0.01112,-0.00341,-0.02523,0.03538,-0.04002,0.99906,0.18517,0.00000,0.24160,0.24938,0.54920,1.22018,0.13251,0.86184,1.92738,A,111703.10
0.19893,57.68786931,11.98136491,57.68786,11.98136,11:17:03.267793,0.00315,0.00000,-0.01600,0.02621,-0.00837,-0.00066,-0.02538,0.04258,-0.04227,0.99924,0.19544,0.00000,0.24160,0.24938,0.54920,1.22018,0.13251,0.86184,1.92738,A,111703.10
0.20899,57.68786931,11.98136491,57.68786,11.98136,11:17:03.277869,0.00299,0.00000,-0.01693,0.02621,-0.00593,-0.00509,-0.02400,0.03855,-0.05258,0.99991,0.20551,0.00000,0.24160,0.24938,0.54920,1.22018,0.13251,0.86184,1.92738,A,111703.10
0.21955,57.68786931,11.98136491,57.68786,11.98136,11:17:03.288411,0.00315,0.00000,-0.01791,0.02621,-0.01036,-0.00845,-0.02981,0.03861,-0.05441,1.00180,0.21606,0.00000,0.24160,0.24938,0.54920,1.22018,0.13251,0.86184,1.92738,A,111703.10
0.23000,57.68786931,11.98136491,57.68786,11.98136,11:17:03.298883,0.00320,0.00000,-0.01875,0.02621,-0.00425,-0.00525,-0.02645,0.03257,-0.04996,1.00083,0.22624,0.00000,0.24160,0.24938,0.54920,1.22018,0.13251,0.86184,1.92738,A,111703.10
0.25219,57.68786931,11.98136491,57.68786,11.98136,11:17:03.321065,0.01499,0.00000,-0.01953,0.02624,-0.00043,-0.00677,-0.02339,0.02727,-0.04984,0.99717,0.23687,0.00000,0.24160,0.24938,0.54920,1.22018,0.25104,0.82221,1.94591,A,111703.20
0.27099,57.68787192,11.98136674,57.68786,11.98136,11:17:03.339885,0.00861,0.00000,-0.02093,0.02652,0.00186,-0.00341,-0.02019,0.02001,-0.09376,0.98283,0.26407,0.00000,0.48707,0.49495,0.65841,1.51047,0.25104,0.82221,1.94591,A,111703.20
0.27596,57.68787192,11.98136674,57.68786,11.98136,11:17:03.344836,0.00319,0.00000,-0.02158,0.02669,0.00140,-0.00906,-0.01927,0.02647,-0.04368,0.99284,0.27247,0.00000,0.48707,0.49495,0.65841,1.51047,0.25104,0.82221,1.94591,A,111703.20
0.28656,57.68787192,11.98136674,57.68786,11.98136,11:17:03.355446,0.00320,0.00000,-0.02223,0.02686,0.00430,-0.00693,-0.02355,0.00030,-0.04782,1.02382,0.28305,0.00000,0.48707,0.49495,0.65841,1.51047,0.25104,0.82221,1.94591,A,111703.20
0.29712,57.68787192,11.98136674,57.68786,11.98136,11:17:03.365996,0.00302,0.00000,-0.02233,0.02703,0.00614,-0.00952,-0.02141,-0.03575,-0.01287,1.05524,0.29363,0.00000,0.48707,0.49495,0.65841,1.51047,0.25104,0.82221,1.94591,A,111703.20
0.30779,57.68787192,11.98136674,57.68786,11.98136,11:17:03.376671,0.00329,0.00000,-0.02245,0.02720,0.00446,-0.00005,-0.02965,-0.03508,-0.01257,1.04767,0.30430,0.00000,0.48707,0.49495,0.65841,1.51047,0.25104,0.82221,1.94591,A,111703.20
0.31950,57.68787192,11.98136674,57.68786,11.98136,11:17:03.388402,0.00461,0.00000,-0.02307,0.02743,0.00583,0.00712,-0.03118,0.00506,-0.04727,1.00430,0.31435,0.00000,0.48707,0.49495,0.65841,1.51047,0.25104,0.82221,1.94591,A,111703.20
0.32890,57.68787192,11.98136674,57.68786,11.98136,11:17:03.399241,0.00361,0.00000,-0.02385,0.02774,0.00583,0.00865,-0.02889,0.01177,-0.05679,0.98082,0.32537,0.00000,0.48707,0.49495,0.65841,1.51047,0.25104,0.82221,1.94591,A,111703.20
0.34051,57.68787192,11.98136674,57.68786,11.98136,11:17:03.409394,0.00482,0.00000,-0.02447,0.02819,0.00369,-0.00097,-0.02920,-0.00159,-0.04666,0.98118,0.33701,0.00000,0.48707,0.49495,0.65841,1.51047,0.25104,0.82221,1.94591,A,111703.20
0.34913,57.68787192,11.98136674,57.68786,11.98136,11:17:03.418000,0.00298,0.00000,-0.02495,0.02861,0.00155,-0.00234,-0.02813,-0.01183,-0.03544,0.98247,0.34564,0.00000,0.48707,0.49495,0.65841,1.51047,0.25104,0.82221,1.94591,A,111703.20
0.37827,57.68787192,11.98136674,57.68786,11.98136,11:17:03.447179,0.02138,0.00000,-0.02552,0.02924,0.00278,-0.00372,-0.02691,-0.00396,-0.04380,0.99668,0.35677,0.00000,0.48707,0.49495,0.65841,1.51047,0.37653,0.84203,2.07564,A,111703.30
0.39229,57.68787395,11.98136798,57.68786,11.98136,11:17:03.461168,0.00604,0.00000,-0.02622,0.03130,0.00369,-0.00983,-0.02064,0.00689,-0.05740,0.98814,0.38625,0.00000,0.57950,0.58880,0.73185,1.73654,0.37653,0.84203,2.07564,A,111703.30
0.39981,57.68787395,11.98136798,57.68786,11.98136,11:17:03.468685,0.00316,0.00000,-0.02665,0.03212,0.00476,-0.01166,-0.02248,-0.01751,-0.03648,0.98521,0.39634,0.00000,0.57950,0.58880,0.73185,1.73654,0.37653,0.84203,2.07564,A,111703.30
0.41019,57.68787395,11.98136798,57.68786,11.98136,11:17:03.479068,0.00315,0.00000,-0.02694,0.03294,-0.00058,-0.00769,-0.02034,-0.03288,-0.02458,0.98430,0.40669,0.00000,0.57950,0.58880,0.73185,1.73654,0.37653,0.84203,2.07564,A,111703.30
0.42062,57.68787395,11.98136798,57.68786,11.98136,11:17:03.489490,0.00317,0.00000,-0.02719,0.03377,0.00140,-0.00555,-0.02126,-0.04642,-0.02355,1.00150,0.41713,0.00000,0.57950,0.58880,0.73185,1.73654,0.37653,0.84203,2.07564,A,111703.30
0.43117,57.68787395,11.98136798,57.68786,11.98136,11:17:03.500051,0.00333,0.00000,-0.02758,0.03447,0.00675,0.00483,-0.02202,0.00885,-0.03703,1.01120,0.42767,0.00000,0.57950,0.58880,0.73185,1.73654,0.37653,0.84203,2.07564,A,111703.30
0.44106,57.68787395,11.98136798,57.68786,11.98136,11:17:03.509936,0.00299,0.00000,-0.02803,0.03512,0.00446,-0.00219,-0.02629,0.03989,-0.03971,1.01144,0.43757,0.00000,0.57950,0.58880,0.73185,1.73654,0.37653,0.84203,2.07564,A,111703.30
0.45162,57.68787395,11.98136798,57.68786,11.98136,11:17:03.520495,0.00315,0.00000,-0.02856,0.03577,-0.00150,-0.00906,-0.02568,0.04130,-0.04154,0.99704,0.44814,0.00000,0.57950,0.58880,0.73185,1.73654,0.37653,0.84203,2.07564,A,111703.30
0.46202,57.68787395,11.98136798,57.68786,11.98136,11:17:03.530896,0.00316,0.00000,-0.02912,0.03637,-0.00287,-0.01029,-0.02797,0.01189,-0.04233,0.98710,0.45832,0.00000,0.57950,0.58880,0.73185,1.73654,0.37653,0.84203,2.07564,A,111703.30
0.47247,57.68787395,11.98136798,57.68786,11.98136,11:17:03.541348,0.00322,0.00000,-0.02957,0.03696,-0.00287,-0.01059,-0.02889,-0.03062,-0.03508,0.98228,0.46899,0.00000,0.57950,0.58880,0.73185,1.73654,0.37653,0.84203,2.07564,A,111703.30
0.50571,57.68787395,11.98136798,57.68786,11.98136,11:17:03.574603,0.02606,0.00000,-0.02983,0.03750,0.00033,-0.00631,-0.02935,-0.02550,-0.02629,0.98735,0.47928,0.00000,0.57950,0.58880,0.73185,1.73654,0.50437,0.87175,2.29803,A,111703.50
0.52123,57.68787597,11.98136892,57.68786,11.98136,11:17:03.590369,0.00822,0.00000,-0.03066,0.03937,-0.00791,0.00468,-0.02400,-0.02952,-0.04819,1.04932,0.51411,0.00000,0.66442,0.67611,0.78781,1.96113,0.50437,0.87175,2.29803,A,111703.50
0.52660,57.68787597,11.98136892,57.68786,11.98136,11:17:03.595467,0.00318,0.00000,-0.03095,0.03991,-0.00761,0.01140,-0.02126,-0.03642,-0.02513,1.03377,0.52309,0.00000,0.66442,0.67611,0.78781,1.96113,0.50437,0.87175,2.29803,A,111703.50
0.53694,57.68787597,11.98136892,57.68786,11.98136,11:17:03.605810,0.00299,0.00000,-0.03131,0.04059,-0.00303,0.02148,-0.02263,0.00762,-0.03148,0.98753,0.53344,0.00000,0.66442,0.67611,0.78781,1.96113,0.50437,0.87175,2.29803,A,111703.50
0.54752,57.68787597,11.98136892,57.68786,11.98136,11:17:03.616389,0.00317,0.00000,-0.03190,0.04141,-0.00379,0.01201,-0.02293,0.05136,-0.04398,0.93458,0.54403,0.00000,0.66442,0.67611,0.78781,1.96113,0.50437,0.87175,2.29803,A,111703.50
0.55790,57.68787597,11.98136892,57.68786,11.98136,11:17:03.626785,0.00316,0.00000,-0.03245,0.04223,-0.00455,0.00315,-0.02141,0.03416,-0.04191,0.93995,0.55420,0.00000,0.66442,0.67611,0.78781,1.96113,0.50437,0.87175,2.29803,A,111703.50
0.56830,57.68787597,11.98136892,57.68786,11.98136,11:17:03.637176,0.00318,0.00000,-0.03305,0.04313,-0.00486,-0.00036,-0.01851,-0.04654,-0.04813,0.99778,0.56482,0.00000,0.66442,0.67611,0.78781,1.96113,0.50437,0.87175,2.29803,A,111703.50
0.57866,57.68787597,11.98136892,57.68786,11.98136,11:17:03.647531,0.00314,0.00000,-0.03354,0.04398,-0.00165,0.01018,-0.02202,-0.04618,-0.04410,1.01175,0.57518,0.00000,0.66442,0.67611,0.78781,1.96113,0.50437,0.87175,2.29803,A,111703.50
0.58893,57.68787597,11.98136892,57.68786,11.98136,11:17:03.657799,0.00299,0.00000,-0.03427,0.04489,-0.00272,0.01766,-0.02492,0.02464,-0.05911,0.99857,0.58544,0.00000,0.66442,0.67611,0.78781,1.96113,0.50437,0.87175,2.29803,A,111703.50
0.59971,57.68787597,11.98136892,57.68786,11.98136,11:17:03.668584,0.00316,0.00000,-0.03489,0.04591,-0.00364,0.00758,-0.02461,0.05649,-0.05276,1.01364,0.59622,0.00000,0.66442,0.67611,0.78781,1.96113,0.50437,0.87175,2.29803,A,111703.50
0.62303,57.68787597,11.98136892,57.68786,11.98135,11:17:03.691910,0.01609,0.00000,-0.03500,0.04698,-0.00074,-0.00448,-0.02477,0.02940,-0.02166,1.05933,0.60641,0.00000,0.66442,0.67611,0.78781,1.96113,0.62186,0.79250,2.29803,A,111703.60
0.63935,57.68787718,11.98136895,57.68786,11.98135,11:17:03.708235,0.00646,0.00000,-0.03533,0.05032,0.00736,-0.00387,-0.02782,0.04002,-0.04599,0.93763,0.63276,0.00000,0.91097,0.92591,0.78969,2.09589,0.62186,0.79250,2.29803,A,111703.60
0.64679,57.68787718,11.98136895,57.68786,11.98135,11:17:03.715668,0.00332,0.00000,-0.03596,0.05188,0.01056,-0.01334,-0.02568,0.02507,-0.05746,0.90134,0.64327,0.00000,0.91097,0.92591,0.78969,2.09589,0.62186,0.79250,2.29803,A,111703.60
0.65693,57.68787718,11.98136895,57.68786,11.98135,11:17:03.725799,0.00298,0.00000,-0.03675,0.05361,0.00995,-0.01807,-0.02721,-0.04514,-0.07015,0.94257,0.65344,0.00000,0.91097,0.92591,0.78969,2.09589,0.62186,0.79250,2.29803,A,111703.60
0.66752,57.68787718,11.98136895,57.68786,11.98135,11:17:03.736383,0.00318,0.00000,-0.03723,0.05544,0.01056,-0.00479,-0.02339,-0.04087,-0.05423,0.98314,0.66402,0.00000,0.91097,0.92591,0.78969,2.09589,0.62186,0.79250,2.29803,A,111703.60
0.67803,57.68787718,11.98136895,57.68786,11.98135,11:17:03.746929,0.00329,0.00000,-0.03762,0.05723,0.01301,-0.00158,-0.01728,-0.01055,-0.05057,1.00369,0.67419,0.00000,0.91097,0.92591,0.78969,2.09589,0.62186,0.79250,2.29803,A,111703.60
0.68829,57.68787718,11.98136895,57.68786,11.98135,11:17:03.757163,0.00316,0.00000,-0.03756,0.05907,0.02355,-0.00051,-0.01530,0.04496,-0.03026,1.03053,0.68481,0.00000,0.91097,0.92591,0.78969,2.09589,0.62186,0.79250,2.29803,A,111703.60
0.69868,57.68787718,11.98136895,57.68786,11.98135,11:17:03.767559,0.00315,0.00000,-0.03775,0.06074,0.02690,-0.01151,-0.01362,0.04160,-0.04990,1.05829,0.69518,0.00000,0.91097,0.92591,0.78969,2.09589,0.62186,0.79250,2.29803,A,111703.60
0.70894,57.68787718,11.98136895,57.68786,11.98135,11:17:03.777805,0.00299,0.00000,-0.03759,0.06238,0.02599,-0.01945,-0.01194,0.01208,-0.02568,1.07543,0.70545,0.00000,0.91097,0.92591,0.78969,2.09589,0.62186,0.79250,2.29803,A,111703.60
0.71948,57.68787718,11.98136895,57.68786,11.98135,11:17:03.788347,0.00314,0.00000,-0.03780,0.06396,0.03775,-0.01792,-0.01194,0.01793,-0.05832,1.02858,0.71599,0.00000,0.91097,0.92591,0.78969,2.09589,0.62186,0.79250,2.29803,A,111703.60
0.74173,57.68787718,11.98136895,57.68786,11.98135,11:17:03.810620,0.01501,0.00000,-0.03797,0.06552,0.03347,-0.02327,-0.00950,0.03532,-0.04880,0.97149,0.72620,0.00000,0.91097,0.92591,0.78969,2.09589,0.74047,0.78259,2.31656,A,111703.70
0.75684,57.68787798,11.98136890,57.68786,11.98135,11:17:03.825733,0.00775,0.00000,-0.03734,0.06914,0.04920,-0.02021,-0.00766,-0.07259,-0.05136,0.97374,0.75018,0.00000,1.02454,1.04510,0.78685,2.18416,0.74047,0.78259,2.31656,A,111703.70
0.76263,57.68787798,11.98136890,57.68786,11.98135,11:17:03.831501,0.00314,0.00000,-0.03732,0.07070,0.04783,0.00117,-0.00247,-0.08412,-0.04307,1.00638,0.75914,0.00000,1.02454,1.04510,0.78685,2.18416,0.74047,0.78259,2.31656,A,111703.70
0.77294,57.68787798,11.98136890,57.68786,11.98135,11:17:03.841806,0.00299,0.00000,-0.03718,0.07245,0.05836,0.01293,-0.00278,-0.04508,-0.04904,1.04816,0.76944,0.00000,1.02454,1.04510,0.78685,2.18416,0.74047,0.78259,2.31656,A,111703.70
0.78365,57.68787798,11.98136890,57.68786,11.98135,11:17:03.852532,0.00331,0.00000,-0.03640,0.07415,0.05241,0.01598,-0.00782,0.01366,-0.00116,1.05445,0.78016,0.00000,1.02454,1.04510,0.78685,2.18416,0.74047,0.78259,2.31656,A,111703.70
0.79414,57.68787798,11.98136890,57.68786,11.98135,11:17:03.863020,0.00321,0.00000,-0.03595,0.07574,0.06157,0.00987,-0.01056,0.04697,-0.02836,1.05225,0.79042,0.00000,1.02454,1.04510,0.78685,2.18416,0.74047,0.78259,2.31656,A,111703.70
0.80448,57.68787798,11.98136890,57.68786,11.98135,11:17:03.873348,0.00316,0.00000,-0.03572,0.07727,0.05989,-0.00601,-0.01377,0.04392,-0.04197,1.02822,0.80099,0.00000,1.02454,1.04510,0.78685,2.18416,0.74047,0.78259,2.31656,A,111703.70
0.81478,57.68787798,11.98136890,57.68786,11.98135,11:17:03.883662,0.00307,0.00000,-0.03553,0.07874,0.05332,-0.01502,-0.01392,-0.05398,-0.03953,1.03419,0.81128,0.00000,1.02454,1.04510,0.78685,2.18416,0.74047,0.78259,2.31656,A,111703.70
0.82497,57.68787798,11.98136890,57.68786,11.98135,11:17:03.893844,0.00300,0.00000,-0.03538,0.08018,0.05913,-0.00647,-0.01347,-0.04178,-0.04410,1.00314,0.82148,0.00000,1.02454,1.04510,0.78685,2.18416,0.74047,0.78259,2.31656,A,111703.70
0.83553,57.68787798,11.98136890,57.68786,11.98135,11:17:03.904406,0.00317,0.00000,-0.03499,0.08165,0.06234,0.00193,-0.01087,-0.02105,-0.03038,0.95727,0.83204,0.00000,1.02454,1.04510,0.78685,2.18416,0.74047,0.78259,2.31656,A,111703.70
0.85785,57.68787798,11.98136890,57.68786,11.98135,11:17:03.926731,0.01509,0.00000,-0.03471,0.08301,0.05775,0.00239,-0.00400,-0.01671,-0.03282,0.94666,0.84242,0.00000,1.02454,1.04510,0.78685,2.18416,0.85661,0.74297,2.33509,A,111703.80
0.87330,57.68787852,11.98136861,57.68786,11.98135,11:17:03.942425,0.00631,0.00000,-0.03299,0.08590,0.07073,0.01003,0.00226,-0.02031,-0.01641,0.99820,0.86780,0.00000,1.19045,1.21600,0.76929,2.24453,0.85661,0.74297,2.33509,A,111703.80
0.88113,57.68787852,11.98136861,57.68786,11.98135,11:17:03.950006,0.00312,0.00000,-0.03258,0.08680,0.07303,0.00682,0.00852,0.02208,-0.03080,0.96471,0.87763,0.00000,1.19045,1.21600,0.76929,2.24453,0.85661,0.74297,2.33509,A,111703.80
0.89199,57.68787852,11.98136861,57.68786,11.98135,11:17:03.960873,0.00358,0.00000,-0.03215,0.08760,0.06951,-0.01074,0.00715,0.02416,-0.03172,0.97911,0.88848,0.00000,1.19045,1.21600,0.76929,2.24453,0.85661,0.74297,2.33509,A,111703.80
0.90198,57.68787852,11.98136861,57.68786,11.98135,11:17:03.970855,0.00318,0.00000,-0.03167,0.08822,0.06585,-0.02266,0.00287,-0.09083,-0.02214,1.04835,0.89826,0.00000,1.19045,1.21600,0.76929,2.24453,0.85661,0.74297,2.33509,A,111703.80
0.91236,57.68787852,11.98136861,57.68786,11.98135,11:17:03.981231,0.00316,0.00000,-0.03098,0.08881,0.07073,-0.00861,0.00028,-0.11029,-0.01513,1.08476,0.90886,0.00000,1.19045,1.21600,0.76929,2.24453,0.85661,0.74297,2.33509,A,111703.80
0.92277,57.68787852,11.98136861,57.68786,11.98135,11:17:03.991643,0.00317,0.00000,-0.03053,0.08941,0.06600,0.01339,0.00150,-0.00207,-0.02593,1.02974,0.91926,0.00000,1.19045,1.21600,0.76929,2.24453,0.85661,0.74297,2.33509,A,111703.80
0.93294,57.68787852,11.98136861,57.68786,11.98135,11:17:04.001809,0.00298,0.00000,-0.03060,0.09012,0.07257,0.00819,-0.00110,0.07540,-0.06015,0.96362,0.92945,0.00000,1.19045,1.21600,0.76929,2.24453,0.85661,0.74297,2.33509,A,111703.80
0.94350,57.68787852,11.98136861,57.68786,11.98135,11:17:04.012380,0.00315,0.00000,-0.03019,0.09096,0.06340,-0.01762,-0.00049,0.02287,-0.02501,0.94452,0.94000,0.00000,1.19045,1.21600,0.76929,2.24453,0.85661,0.74297,2.33509,A,111703.80
0.95397,57.68787852,11.98136861,57.68786,11.98135,11:17:04.022858,0.00317,0.00000,-0.02949,0.09187,0.06279,-0.02800,0.00455,-0.06265,-0.00433,0.95245,0.95027,0.00000,1.19045,1.21600,0.76929,2.24453,0.85661,0.74297,2.33509,A,111703.80
0.97622,57.68787852,11.98136861,57.68786,11.98135,11:17:04.045105,0.01502,0.00000,-0.02841,0.09289,0.06676,-0.02174,0.00028,-0.13701,0.01653,0.99326,0.96087,0.00000,1.19045,1.21600,0.76929,2.24453,0.97508,0.72315,2.40922,A,111703.90
0.99163,57.68787911,11.98136830,57.68786,11.98135,11:17:04.060535,0.00720,0.00000,-0.02757,0.09501,0.06799,0.00300,0.00165,0.07826,-0.05966,0.99857,0.98518,0.00000,1.25204,1.28032,0.75084,2.31041,0.97508,0.72315,2.40922,A,111703.90
0.99864,57.68787911,11.98136830,57.68786,11.98135,11:17:04.067524,0.00396,0.00000,-0.02728,0.09586,0.06432,-0.01044,0.00348,0.05014,-0.02843,0.98100,0.99512,0.00000,1.25204,1.28032,0.75084,2.31041,0.97508,0.72315,2.40922,A,111703.90
1.00830,57.68787911,11.98136830,57.68786,11.98135,11:17:04.077168,0.00323,0.00000,-0.02673,0.09660,0.05943,-0.01945,0.00333,-0.05508,-0.00708,0.98369,1.00481,0.00000,1.25204,1.28032,0.75084,2.31041,0.97508,0.72315,2.40922,A,111703.90
1.01863,57.68787911,11.98136830,57.68786,11.98135,11:17:04.087505,0.00317,0.00000,-0.02591,0.09725,0.05577,-0.00906,0.00623,-0.12926,0.01080,1.01193,1.01513,0.00000,1.25204,1.28032,0.75084,2.31041,0.97508,0.72315,2.40922,A,111703.90
1.02894,57.68787911,11.98136830,57.68786,11.98135,11:17:04.097801,0.00300,0.00000,-0.02493,0.09781,0.05836,-0.00601,0.00593,-0.03666,0.02147,1.00333,1.02544,0.00000,1.25204,1.28032,0.75084,2.31041,0.97508,0.72315,2.40922,A,111703.90
1.03948,57.68787911,11.98136830,57.68786,11.98135,11:17:04.108344,0.00314,0.00000,-0.02415,0.09824,0.06799,-0.01090,0.00211,0.04483,0.00055,0.98667,1.03600,0.00000,1.25204,1.28032,0.75084,2.31041,0.97508,0.72315,2.40922,A,111703.90
1.04989,57.68787911,11.98136830,57.68786,11.98135,11:17:04.118777,0.00316,0.00000,-0.02398,0.09846,0.06646,-0.02327,0.00562,0.04569,-0.03605,0.99942,1.04619,0.00000,1.25204,1.28032,0.75084,2.31041,0.97508,0.72315,2.40922,A,111703.90
1.06030,57.68787911,11.98136830,57.68786,11.98135,11:17:04.129173,0.00318,0.00000,-0.02380,0.09861,0.06172,-0.02067,0.00242,-0.07460,-0.03617,1.06073,1.05681,0.00000,1.25204,1.28032,0.75084,2.31041,0.97508,0.72315,2.40922,A,111703.90
1.07069,57.68787911,11.98136830,57.68786,11.98135,11:17:04.139560,0.00316,0.00000,-0.02378,0.09866,0.05821,-0.00295,0.00318,-0.12188,-0.04227,1.03407,1.06719,0.00000,1.25204,1.28032,0.75084,2.31041,0.97508,0.72315,2.40922,A,111703.90
1.10453,57.68787911,11.98136830,57.68786,11.98135,11:17:04.173410,0.02659,0.00000,-0.02315,0.09880,0.05256,0.01308,-0.00018,-0.07412,0.00384,0.97319,1.07743,0.00000,1.25204,1.28032,0.75084,2.31041,1.10338,0.71325,2.57602,A,111704.10
1.12106,57.68788007,11.98136805,57.68786,11.98135,11:17:04.189940,0.00659,0.00000,-0.02157,0.09948,0.05516,-0.01884,0.00914,0.02959,-0.03013,1.02584,1.11408,0.00000,1.28702,1.31664,0.73580,2.41665,1.10338,0.71325,2.57602,A,111704.10
1.12810,57.68788007,11.98136805,57.68786,11.98135,11:17:04.196966,0.00335,0.00000,-0.02133,0.09965,0.04905,-0.02495,0.00028,-0.00787,-0.01873,1.01254,1.12460,0.00000,1.28702,1.31664,0.73580,2.41665,1.10338,0.71325,2.57602,A,111704.10
1.13830,57.68788007,11.98136805,57.68786,11.98135,11:17:04.207177,0.00315,0.00000,-0.02097,0.09977,0.04798,-0.02464,-0.00308,-0.03886,-0.00793,0.97984,1.13479,0.00000,1.28702,1.31664,0.73580,2.41665,1.10338,0.71325,2.57602,A,111704.10
1.14870,57.68788007,11.98136805,57.68786,11.98135,11:17:04.217575,0.00298,0.00000,-0.02111,0.09982,0.04416,-0.02250,-0.00507,-0.07198,-0.03788,0.95721,1.14522,0.00000,1.28702,1.31664,0.73580,2.41665,1.10338,0.71325,2.57602,A,111704.10
1.15928,57.68788007,11.98136805,57.68786,11.98135,11:17:04.228159,0.00317,0.00000,-0.02085,0.09985,0.03912,-0.01517,-0.00415,-0.05594,-0.00976,0.94660,1.15580,0.00000,1.28702,1.31664,0.73580,2.41665,1.10338,0.71325,2.57602,A,111704.10
1.16944,57.68788007,11.98136805,57.68786,11.98135,11:17:04.238547,0.00293,0.00000,-0.02069,0.09985,0.03912,-0.00357,-0.00201,-0.02946,-0.01427,0.96807,1.16597,0.00000,1.28702,1.31664,0.73580,2.41665,1.10338,0.71325,2.57602,A,111704.10
1.18023,57.68788007,11.98136805,57.68786,11.98135,11:17:04.249102,0.00326,0.00000,-0.01992,0.09985,0.03424,-0.00341,0.00058,0.01574,0.02635,0.96776,1.17673,0.00000,1.28702,1.31664,0.73580,2.41665,1.10338,0.71325,2.57602,A,111704.10
1.19053,57.68788007,11.98136805,57.68786,11.98135,11:17:04.259403,0.00316,0.00000,-0.01923,0.09985,0.04004,-0.01548,0.00715,0.03312,0.01903,0.96404,1.18703,0.00000,1.28702,1.31664,0.73580,2.41665,1.10338,0.71325,2.57602,A,111704.10
1.20091,57.68788007,11.98136805,57.68786,11.98135,11:17:04.269780,0.00300,0.00000,-0.01898,0.09985,0.04263,-0.03090,-0.00033,-0.04368,-0.01055,1.04908,1.19742,0.00000,1.28702,1.31664,0.73580,2.41665,1.10338,0.71325,2.57602,A,111704.10
1.22404,57.68788007,11.98136805,57.68787,11.98135,11:17:04.292914,0.01573,0.00000,-0.01865,0.09985,0.03393,-0.02189,0.00593,-0.09229,0.00055,1.12271,1.20797,0.00000,1.28702,1.31664,0.73580,2.41665,1.22289,0.72315,2.66868,A,111704.20
1.23882,57.68788097,11.98136796,57.68787,11.98135,11:17:04.307710,0.00720,0.00000,-0.01819,0.09985,0.03210,0.02469,-0.00827,0.02708,-0.01897,1.00900,1.23252,0.00000,1.30179,1.33151,0.73074,2.51746,1.22289,0.72315,2.66868,A,111704.20
1.24493,57.68788097,11.98136796,57.68787,11.98135,11:17:04.313803,0.00298,0.00000,-0.01852,0.09985,0.01652,0.01308,-0.00629,0.01909,-0.02714,0.93385,1.24145,0.00000,1.30179,1.33151,0.73074,2.51746,1.22289,0.72315,2.66868,A,111704.20
1.25550,57.68788097,11.98136796,57.68787,11.98135,11:17:04.324377,0.00316,0.00000,-0.01803,0.09985,0.01377,-0.00723,-0.00934,-0.02830,0.02281,0.88340,1.25202,0.00000,1.30179,1.33151,0.73074,2.51746,1.22289,0.72315,2.66868,A,111704.20
1.26591,57.68788097,11.98136796,57.68787,11.98135,11:17:04.334792,0.00317,0.00000,-0.01746,0.09985,0.01667,-0.01838,-0.01102,-0.05258,0.02672,0.90390,1.26221,0.00000,1.30179,1.33151,0.73074,2.51746,1.22289,0.72315,2.66868,A,111704.20
1.27644,57.68788097,11.98136796,57.68787,11.98135,11:17:04.345313,0.00331,0.00000,-0.01718,0.09985,0.01805,-0.02143,-0.01102,-0.12474,0.00976,0.98716,1.27295,0.00000,1.30179,1.33151,0.73074,2.51746,1.22289,0.72315,2.66868,A,111704.20
1.28668,57.68788097,11.98136796,57.68787,11.98135,11:17:04.355558,0.00316,0.00000,-0.01737,0.09985,0.02080,-0.00250,-0.00950,-0.12261,-0.02507,1.09410,1.28319,0.00000,1.30179,1.33151,0.73074,2.51746,1.22289,0.72315,2.66868,A,111704.20
1.29693,57.68788097,11.98136796,57.68787,11.98135,11:17:04.365804,0.00298,0.00000,-0.01790,0.09985,0.00659,0.02850,-0.01591,-0.03337,-0.04148,1.14149,1.29345,0.00000,1.30179,1.33151,0.73074,2.51746,1.22289,0.72315,2.66868,A,111704.20
1.30749,57.68788097,11.98136796,57.68787,11.98135,11:17:04.376367,0.00315,0.00000,-0.01864,0.09977,0.00018,0.03385,-0.01866,0.06850,-0.04825,1.04164,1.30401,0.00000,1.30179,1.33151,0.73074,2.51746,1.22289,0.72315,2.66868,A,111704.20
1.31791,57.68788097,11.98136796,57.68787,11.98135,11:17:04.386792,0.00317,0.00000,-0.01844,0.09951,-0.01066,0.01445,-0.02339,0.07180,0.02172,0.93598,1.31420,0.00000,1.30179,1.33151,0.73074,2.51746,1.22289,0.72315,2.66868,A,111704.20
1.34092,57.68788097,11.98136796,57.68787,11.98135,11:17:04.409803,0.01579,0.00000,-0.01791,0.09875,-0.01402,-0.01746,-0.02767,-0.10901,0.04660,0.97307,1.32482,0.00000,1.30179,1.33151,0.73074,2.51746,1.33976,0.71325,2.76134,A,111704.30
1.35701,57.68788185,11.98136784,57.68787,11.98135,11:17:04.425932,0.00661,0.00000,-0.01846,0.09493,0.00339,0.02285,-0.02202,0.06088,-0.03666,0.92659,1.35103,0.00000,1.33637,1.36462,0.72374,2.61501,1.33976,0.71325,2.76134,A,111704.30
1.36401,57.68788185,11.98136784,57.68787,11.98135,11:17:04.432882,0.00321,0.00000,-0.01986,0.09286,-0.00700,0.01415,-0.02019,0.13969,-0.07759,0.89890,1.36051,0.00000,1.33637,1.36462,0.72374,2.61501,1.33976,0.71325,2.76134,A,111704.30
1.37439,57.68788185,11.98136784,57.68787,11.98135,11:17:04.443264,0.00319,0.00000,-0.02113,0.09085,-0.02105,-0.02586,-0.01759,0.04868,-0.06173,0.89005,1.37088,0.00000,1.33637,1.36462,0.72374,2.61501,1.33976,0.71325,2.76134,A,111704.30
1.38492,57.68788185,11.98136784,57.68787,11.98135,11:17:04.453792,0.00316,0.00000,-0.02153,0.08881,-0.02090,-0.03212,-0.01606,-0.14256,-0.01220,0.99253,1.38143,0.00000,1.33637,1.36462,0.72374,2.61501,1.33976,0.71325,2.76134,A,111704.30
1.39571,57.68788185,11.98136784,57.68787,11.98135,11:17:04.464591,0.00356,0.00000,-0.02098,0.08697,-0.02242,0.00224,-0.01545,-0.28005,0.05856,1.12990,1.39221,0.00000,1.33637,1.36462,0.72374,2.61501,1.33976,0.71325,2.76134,A,111704.30
1.40573,57.68788185,11.98136784,57.68787,11.98135,11:17:04.474616,0.00318,0.00000,-0.02027,0.08545,-0.01097,0.03874,-0.02141,-0.08516,0.06228,1.14412,1.40204,0.00000,1.33637,1.36462,0.72374,2.61501,1.33976,0.71325,2.76134,A,111704.30
1.41612,57.68788185,11.98136784,57.68787,11.98135,11:17:04.484984,0.00317,0.00000,-0.02112,0.08403,-0.00776,0.04240,-0.02767,0.19923,-0.05215,1.02724,1.41262,0.00000,1.33637,1.36462,0.72374,2.61501,1.33976,0.71325,2.76134,A,111704.30
1.42650,57.68788185,11.98136784,57.68787,11.98135,11:17:04.495378,0.00316,0.00000,-0.02202,0.08284,-0.02044,-0.00525,-0.03179,0.21612,-0.04362,0.94910,1.42300,0.00000,1.33637,1.36462,0.72374,2.61501,1.33976,0.71325,2.76134,A,111704.30
1.43687,57.68788185,11.98136784,57.68787,11.98135,11:17:04.505738,0.00299,0.00000,-0.02237,0.08182,-0.03128,-0.05121,-0.02920,-0.03398,-0.00287,0.97710,1.43338,0.00000,1.33637,1.36462,0.72374,2.61501,1.33976,0.71325,2.76134,A,111704.30
1.46022,57.68788185,11.98136784,57.68787,11.98135,11:17:04.529092,0.01594,0.00000,-0.02253,0.08100,-0.03204,-0.04129,-0.03256,-0.26816,0.01068,1.04164,1.44394,0.00000,1.33637,1.36462,0.72374,2.61501,1.45907,0.64390,2.81694,A,111704.40
1.47496,57.68788258,11.98136731,57.68787,11.98135,11:17:04.543850,0.00696,0.00000,-0.02448,0.07970,-0.02059,0.01659,-0.03133,0.12822,-0.09272,0.92952,1.46787,0.00000,1.44648,1.47018,0.69181,2.69578,1.45907,0.64390,2.81694,A,111704.40
1.48123,57.68788258,11.98136731,57.68787,11.98135,11:17:04.550310,0.00299,0.00000,-0.02540,0.07922,-0.03907,-0.01594,-0.02813,0.10370,-0.03666,0.93794,1.47774,0.00000,1.44648,1.47018,0.69181,2.69578,1.45907,0.64390,2.81694,A,111704.40
1.49192,57.68788258,11.98136731,57.68787,11.98135,11:17:04.560796,0.00330,0.00000,-0.02541,0.07871,-0.04319,-0.02418,-0.02752,-0.16378,0.02739,1.08806,1.48843,0.00000,1.44648,1.47018,0.69181,2.69578,1.45907,0.64390,2.81694,A,111704.40
1.50220,57.68788258,11.98136731,57.68787,11.98135,11:17:04.571075,0.00317,0.00000,-0.02555,0.07820,-0.04579,0.00835,-0.02461,-0.22192,0.01873,1.07647,1.49869,0.00000,1.44648,1.47018,0.69181,2.69578,1.45907,0.64390,2.81694,A,111704.40
1.51259,57.68788258,11.98136731,57.68787,11.98135,11:17:04.581465,0.00317,0.00000,-0.02545,0.07772,-0.03876,0.03141,-0.02767,-0.04233,0.02708,0.94635,1.50911,0.00000,1.44648,1.47018,0.69181,2.69578,1.45907,0.64390,2.81694,A,111704.40
1.52301,57.68788258,11.98136731,57.68787,11.98135,11:17:04.591879,0.00318,0.00000,-0.02587,0.07732,-0.03128,-0.00158,-0.02492,0.15506,-0.00994,0.86797,1.51952,0.00000,1.44648,1.47018,0.69181,2.69578,1.45907,0.64390,2.81694,A,111704.40
1.53306,57.68788258,11.98136731,57.68787,11.98135,11:17:04.601939,0.00301,0.00000,-0.02676,0.07698,-0.04411,-0.04190,-0.02752,0.06594,-0.03447,0.98131,1.52956,0.00000,1.44648,1.47018,0.69181,2.69578,1.45907,0.64390,2.81694,A,111704.40
1.54384,57.68788258,11.98136731,57.68787,11.98135,11:17:04.612717,0.00339,0.00000,-0.02656,0.07681,-0.03907,-0.04068,-0.03011,-0.22552,0.04209,1.17681,1.54034,0.00000,1.44648,1.47018,0.69181,2.69578,1.45907,0.64390,2.81694,A,111704.40
1.55401,57.68788258,11.98136731,57.68787,11.98135,11:17:04.622884,0.00317,0.00000,-0.02747,0.07681,-0.02502,0.01323,-0.02874,-0.21374,-0.05685,1.13057,1.55030,0.00000,1.44648,1.47018,0.69181,2.69578,1.45907,0.64390,2.81694,A,111704.40
1.57712,57.68788258,11.98136731,57.68787,11.98135,11:17:04.645990,0.01588,0.00000,-0.02995,0.07681,-0.03586,0.05706,-0.03195,0.04136,-0.12969,0.87840,1.56100,0.00000,1.44648,1.47018,0.69181,2.69578,1.57596,0.61418,2.90960,A,111704.50
1.58829,57.68788335,11.98136678,57.68787,11.98135,11:17:04.657172,0.00529,0.00000,-0.03010,0.07681,-0.05174,0.01094,-0.02141,-0.08906,0.05020,0.91628,1.58275,0.00000,1.48758,1.51042,0.66076,2.78131,1.57596,0.61418,2.90960,A,111704.50
1.59644,57.68788335,11.98136678,57.68787,11.98135,11:17:04.665308,0.00321,0.00000,-0.02937,0.07681,-0.03922,0.00835,-0.01728,-0.12639,0.06954,1.04975,1.59293,0.00000,1.48758,1.51042,0.66076,2.78131,1.57596,0.61418,2.90960,A,111704.50
1.60679,57.68788335,11.98136678,57.68787,11.98135,11:17:04.675661,0.00316,0.00000,-0.02909,0.07681,-0.02777,0.02148,-0.02034,-0.02782,0.03141,1.08177,1.60328,0.00000,1.48758,1.51042,0.66076,2.78131,1.57596,0.61418,2.90960,A,111704.50
1.61694,57.68788335,11.98136678,57.68787,11.98135,11:17:04.685814,0.00299,0.00000,-0.02939,0.07681,-0.01906,0.01400,-0.02049,0.18324,-0.01555,1.03621,1.61345,0.00000,1.48758,1.51042,0.66076,2.78131,1.57596,0.61418,2.90960,A,111704.50
1.62751,57.68788335,11.98136678,57.68787,11.98135,11:17:04.696384,0.00316,0.00000,-0.03139,0.07681,-0.02135,-0.01746,-0.02187,0.13871,-0.13011,1.01998,1.62401,0.00000,1.48758,1.51042,0.66076,2.78131,1.57596,0.61418,2.90960,A,111704.50
1.63792,57.68788335,11.98136678,57.68787,11.98135,11:17:04.706796,0.00317,0.00000,-0.03233,0.07681,-0.03663,-0.02388,-0.02370,-0.12962,-0.05209,1.06860,1.63421,0.00000,1.48758,1.51042,0.66076,2.78131,1.57596,0.61418,2.90960,A,111704.50
1.64843,57.68788335,11.98136678,57.68787,11.98135,11:17:04.717306,0.00330,0.00000,-0.03265,0.07681,-0.03510,0.00667,-0.02752,-0.20667,-0.00848,1.05750,1.64494,0.00000,1.48758,1.51042,0.66076,2.78131,1.57596,0.61418,2.90960,A,111704.50
1.65870,57.68788335,11.98136678,57.68787,11.98135,11:17:04.727570,0.00317,0.00000,-0.03315,0.07681,-0.04121,0.03477,-0.02828,-0.04666,-0.01580,0.92921,1.65519,0.00000,1.48758,1.51042,0.66076,2.78131,1.57596,0.61418,2.90960,A,111704.50
1.66893,57.68788335,11.98136678,57.68787,11.98135,11:17:04.737806,0.00299,0.00000,-0.03331,0.07681,-0.03556,0.01476,-0.02324,0.12163,0.00073,0.87407,1.66543,0.00000,1.48758,1.51042,0.66076,2.78131,1.57596,0.61418,2.90960,A,111704.50
1.70658,57.68788335,11.98136678,57.68787,11.98135,11:17:04.775466,0.03024,0.00000,-0.03407,0.07681,-0.03006,-0.01746,-0.02126,0.09357,-0.03916,0.93476,1.67600,0.00000,1.48758,1.51042,0.66076,2.78131,1.70529,0.60428,3.18759,A,111704.70
1.73064,57.68788481,11.98136640,57.68787,11.98135,11:17:04.799530,0.01238,0.00000,-0.03674,0.07681,-0.03998,0.00163,-0.02645,0.05337,-0.06374,0.94129,1.72290,0.00000,1.49718,1.52002,0.63817,2.94382,1.70529,0.60428,3.18759,A,111704.70
1.74576,57.68788481,11.98136640,57.68787,11.98135,11:17:04.815261,0.00546,0.00000,-0.03682,0.07681,-0.03937,-0.00983,-0.02721,-0.14829,0.03166,1.11349,1.74203,0.00000,1.49718,1.52002,0.63817,2.94382,1.70529,0.60428,3.18759,A,111704.70
1.75385,57.68788481,11.98136640,57.68787,11.98135,11:17:04.822740,0.00316,0.00000,-0.03657,0.07681,-0.03357,0.02026,-0.02568,-0.11602,0.02025,1.11234,1.75015,0.00000,1.49718,1.52002,0.63817,2.94382,1.70529,0.60428,3.18759,A,111704.70
1.76426,57.68788481,11.98136640,57.68787,11.98135,11:17:04.833124,0.00317,0.00000,-0.03619,0.07681,-0.02838,0.03400,-0.02461,0.00372,0.03068,1.02352,1.76077,0.00000,1.49718,1.52002,0.63817,2.94382,1.70529,0.60428,3.18759,A,111704.70
1.77463,57.68788481,11.98136640,57.68787,11.98135,11:17:04.843510,0.00315,0.00000,-0.03729,0.07681,-0.02074,0.02698,-0.02110,-0.00183,-0.07515,1.00308,1.77113,0.00000,1.49718,1.52002,0.63817,2.94382,1.70529,0.60428,3.18759,A,111704.70
1.78524,57.68788481,11.98136640,57.68787,11.98135,11:17:04.854322,0.00317,0.00000,-0.03806,0.07681,-0.03418,0.02209,-0.02370,-0.07759,-0.04538,1.04517,1.78173,0.00000,1.49718,1.52002,0.63817,2.94382,1.70529,0.60428,3.18759,A,111704.70
1.79585,57.68788481,11.98136640,57.68787,11.98135,11:17:04.864732,0.00339,0.00000,-0.03795,0.07681,-0.03601,0.03141,-0.02110,-0.05966,0.01549,1.00339,1.79236,0.00000,1.49718,1.52002,0.63817,2.94382,1.70529,0.60428,3.18759,A,111704.70
1.81920,57.68788481,11.98136640,57.68787,11.98135,11:17:04.888069,0.01635,0.00000,-0.03820,0.07681,-0.03082,0.03110,-0.02492,-0.02483,-0.01324,0.95929,1.80231,0.00000,1.49718,1.52002,0.63817,2.94382,1.81740,0.54484,3.20612,A,111704.80
1.83375,57.68788575,11.98136578,57.68787,11.98135,11:17:04.902672,0.01041,0.89648,-0.03956,0.07681,-0.02639,-0.00173,-0.02523,0.05246,-0.06088,0.94459,1.82409,0.08965,1.62911,1.65195,0.60084,3.04874,1.81740,0.54484,3.20612,A,111704.80
1.84645,57.68788575,11.98136578,57.68787,11.98135,11:17:04.915379,0.00541,0.89648,-0.04037,0.07681,-0.03052,-0.01013,-0.02782,-0.06289,-0.03026,0.97655,1.84196,0.08965,1.62911,1.65195,0.60084,3.04874,1.81740,0.54484,3.20612,A,111704.80
1.85460,57.68788575,11.98136578,57.68787,11.98135,11:17:04.923470,0.00317,0.89648,-0.04146,0.07681,-0.02410,-0.00204,-0.02645,-0.04471,-0.06808,0.94782,1.85109,0.08965,1.62911,1.65195,0.60084,3.04874,1.81740,0.54484,3.20612,A,111704.80
1.86493,57.68788575,11.98136578,57.68787,11.98135,11:17:04.933801,0.00299,0.89648,-0.04175,0.07681,-0.02807,-0.00662,-0.02538,0.02111,-0.01336,0.90591,1.86144,0.08965,1.62911,1.65195,0.60084,3.04874,1.81740,0.54484,3.20612,A,111704.80
1.87550,57.68788575,11.98136578,57.68787,11.98135,11:17:04.944365,0.00316,0.89648,-0.04257,0.07684,-0.01845,-0.01441,-0.01866,0.00049,-0.05466,0.95922,1.87200,0.08965,1.62911,1.65195,0.60084,3.04874,1.81740,0.54484,3.20612,A,111704.80
1.88609,57.68788575,11.98136578,57.68787,11.98135,11:17:04.954982,0.00337,0.89648,-0.04365,0.07695,-0.02242,-0.01258,-0.01896,-0.02660,-0.07582,1.02632,1.88218,0.08965,1.62911,1.65195,0.60084,3.04874,1.81740,0.54484,3.20612,A,111704.80
1.89650,57.68788575,11.98136578,57.68787,11.98135,11:17:04.965373,0.00339,0.89648,-0.04426,0.07715,-0.02090,-0.00586,-0.01438,0.04301,-0.04368,1.01907,1.89300,0.08965,1.62911,1.65195,0.60084,3.04874,1.81740,0.54484,3.20612,A,111704.80
1.90666,57.68788575,11.98136578,57.68787,11.98135,11:17:04.975528,0.00315,0.89648,-0.04430,0.07738,-0.02563,-0.02449,-0.00690,0.01696,-0.00366,1.04774,1.90315,0.08965,1.62911,1.65195,0.60084,3.04874,1.81740,0.54484,3.20612,A,111704.80
1.91694,57.68788575,11.98136578,57.68787,11.98135,11:17:04.985807,0.00300,0.89648,-0.04357,0.07758,-0.01082,-0.02968,-0.00889,0.00470,0.03953,1.03871,1.91345,0.08965,1.62911,1.65195,0.60084,3.04874,1.81740,0.54484,3.20612,A,111704.80
1.94391,57.68788575,11.98136578,57.68787,11.98135,11:17:05.012794,0.01957,0.89648,-0.04414,0.07775,-0.00211,-0.02739,-0.01026,-0.10461,-0.05710,1.05774,1.92725,0.08965,1.62911,1.65195,0.60084,3.04874,1.94275,0.48540,3.18759,A,111704.90
1.95816,57.68788631,11.98136499,57.68787,11.98135,11:17:05.027048,0.00566,0.89648,-0.04552,0.07795,-0.00776,0.00392,-0.02324,0.04880,-0.08808,0.91671,1.95237,0.17033,1.18076,1.20393,0.55413,3.11088,1.94275,0.48540,3.18759,A,111704.90
1.96662,57.68788631,11.98136499,57.68787,11.98135,11:17:05.035504,0.00373,0.89648,-0.04522,0.07809,-0.00532,-0.01532,-0.01988,0.03178,0.00451,0.92915,1.96311,0.17033,1.18076,1.20393,0.55413,3.11088,1.94275,0.48540,3.18759,A,111704.90
1.97645,57.68788631,11.98136499,57.68787,11.98135,11:17:05.045325,0.00331,0.89648,-0.04515,0.07831,-0.00028,-0.02647,-0.01683,-0.06137,-0.01379,1.01345,1.97296,0.17033,1.18076,1.20393,0.55413,3.11088,1.94275,0.48540,3.18759,A,111704.90
1.98678,57.68788631,11.98136499,57.68787,11.98135,11:17:05.055659,0.00325,0.89648,-0.04486,0.07857,0.00583,-0.01044,-0.01484,-0.05313,-0.00421,1.09294,1.98328,0.17033,1.18076,1.20393,0.55413,3.11088,1.94275,0.48540,3.18759,A,111704.90
1.99714,57.68788631,11.98136499,57.68787,11.98135,11:17:05.066007,0.00304,0.89648,-0.04545,0.07882,0.01179,-0.00219,-0.01331,0.00165,-0.07100,1.07677,1.99364,0.17033,1.18076,1.20393,0.55413,3.11088,1.94275,0.48540,3.18759,A,111704.90
2.00782,57.68788631,11.98136499,57.68787,11.98135,11:17:05.076691,0.00332,0.89648,-0.04613,0.07908,0.00598,-0.01013,-0.01606,0.07375,-0.06765,0.98247,2.00432,0.17033,1.18076,1.20393,0.55413,3.11088,1.94275,0.48540,3.18759,A,111704.90
2.02390,57.68788631,11.98136499,57.68787,11.98135,11:17:05.092794,0.00900,0.89648,-0.04635,0.07928,-0.00119,-0.02479,-0.01438,-0.00952,-0.03239,0.97600,2.01436,0.89648,1.39610,1.41968,0.48540,3.18759,1.94275,0.48540,3.18759,A,111704.90
2.02893,57.68788631,11.98136499,57.68787,11.98135,11:17:05.097785,0.00360,0.89648,-0.04577,0.01160,0.00400,-0.02082,-0.01805,-0.12670,0.01122,1.00168,2.02507,0.89648,1.39610,1.41968,0.48540,3.18759,1.94275,0.48540,3.18759,A,111704.90
2.03915,57.68788631,11.98136499,57.68787,11.98135,11:17:05.108016,0.00343,0.89648,-0.04514,0.01185,0.00812,-0.00418,-0.00889,-0.08296,0.01287,0.99406,2.03528,0.89648,1.39610,1.41968,0.48540,3.18759,1.94275,0.48540,3.18759,A,111704.90
2.06258,57.68788631,11.98136499,57.68787,11.98135,11:17:05.131445,0.01659,0.89648,-0.04493,0.01217,0.01713,0.00132,-0.01362,0.00842,-0.02080,0.99631,2.04547,0.89648,1.39610,1.41968,0.48540,3.18759,2.06093,0.44578,3.29878,A,111705.00
2.07581,57.68788795,11.98136372,57.68787,11.98135,11:17:05.144681,0.00704,0.89648,-0.04462,0.01282,0.00766,-0.03762,-0.01194,-0.05124,-0.01464,1.02864,2.06923,0.89648,1.45292,1.45673,0.47887,3.29321,2.06093,0.44578,3.29878,A,111705.00
2.08413,57.68788795,11.98136372,57.68787,11.98135,11:17:05.152995,0.00496,0.89648,-0.04424,0.01302,0.01163,-0.01594,-0.01270,-0.15061,-0.00579,1.03706,2.08010,0.89648,1.45292,1.45673,0.47887,3.29321,2.06093,0.44578,3.29878,A,111705.00
2.09325,57.68788795,11.98136372,57.68787,11.98135,11:17:05.162335,0.00350,0.89648,-0.04422,0.01313,0.01209,0.01155,-0.01392,-0.12474,-0.02782,0.99412,2.08939,0.89648,1.45292,1.45673,0.47887,3.29321,2.06093,0.44578,3.29878,A,111705.00
2.10369,57.68788795,11.98136372,57.68787,11.98135,11:17:05.172546,0.00354,0.89648,-0.04423,0.01324,0.00782,0.02515,-0.01790,0.00512,-0.02544,0.90426,2.09982,0.89648,1.45292,1.45673,0.47887,3.29321,2.06093,0.44578,3.29878,A,111705.00
2.11419,57.68788795,11.98136372,57.68787,11.98135,11:17:05.183063,0.00365,0.89648,-0.04413,0.01341,0.00858,0.00804,-0.01347,0.04331,-0.01915,0.90152,2.11001,0.89648,1.45292,1.45673,0.47887,3.29321,2.06093,0.44578,3.29878,A,111705.00
2.12446,57.68788795,11.98136372,57.68787,11.98135,11:17:05.193324,0.00352,0.89648,-0.04318,0.01358,0.01408,-0.00830,-0.01423,-0.02513,0.03056,0.98570,2.12061,0.89648,1.45292,1.45673,0.47887,3.29321,2.06093,0.44578,3.29878,A,111705.00
2.13491,57.68788795,11.98136372,57.68787,11.98135,11:17:05.203772,0.00356,0.89648,-0.04265,0.01375,0.02095,-0.00845,-0.00873,-0.09974,0.00012,1.09312,2.13104,0.89648,1.45292,1.45673,0.47887,3.29321,2.06093,0.44578,3.29878,A,111705.00
2.14524,57.68788795,11.98136372,57.68787,11.98135,11:17:05.214327,0.00336,0.89648,-0.04248,0.01398,0.01896,0.00804,-0.01576,-0.02989,-0.02342,1.04963,2.14139,0.89648,1.45292,1.45673,0.47887,3.29321,2.06093,0.44578,3.29878,A,111705.00
2.15582,57.68788795,11.98136372,57.68787,11.98135,11:17:05.224678,0.00353,0.89648,-0.04351,0.01426,0.02080,0.00361,-0.01362,0.06149,-0.09980,0.96105,2.15196,0.89648,1.45292,1.45673,0.47887,3.29321,2.06093,0.44578,3.29878,A,111705.00
2.17883,57.68788795,11.98136372,57.68787,11.98135,11:17:05.247699,0.01614,0.89648,-0.04414,0.01466,0.01056,-0.01762,-0.01805,-0.02135,-0.07290,1.03017,2.16216,0.89648,1.45292,1.45673,0.47887,3.29321,2.17723,0.41606,3.31732,A,111705.10
2.19515,57.68788859,11.98136342,57.68787,11.98135,11:17:05.264023,0.00871,0.89648,-0.04299,0.01613,0.02813,0.01293,-0.00598,0.05459,0.00720,0.92214,2.18772,0.89648,1.56687,1.57166,0.46084,3.36481,2.17723,0.41606,3.31732,A,111705.10
2.20023,57.68788859,11.98136342,57.68787,11.98135,11:17:05.269090,0.00359,0.89648,-0.04276,0.01692,0.02721,-0.00433,0.00089,0.08778,-0.01769,0.85626,2.19638,0.89648,1.56687,1.57166,0.46084,3.36481,2.17723,0.41606,3.31732,A,111705.10
2.21059,57.68788859,11.98136342,57.68787,11.98135,11:17:05.279447,0.00355,0.89648,-0.04293,0.01785,0.03225,-0.01823,0.00379,-0.03373,-0.05130,0.94812,2.20670,0.89648,1.56687,1.57166,0.46084,3.36481,2.17723,0.41606,3.31732,A,111705.10
2.22098,57.68788859,11.98136342,57.68787,11.98135,11:17:05.289842,0.00354,0.89648,-0.04248,0.01882,0.02645,-0.00357,0.00272,-0.17141,-0.00878,1.03096,2.21712,0.89648,1.56687,1.57166,0.46084,3.36481,2.17723,0.41606,3.31732,A,111705.10
2.23142,57.68788859,11.98136342,57.68787,11.98135,11:17:05.300278,0.00357,0.89648,-0.04191,0.01972,0.02843,0.03370,-0.00262,-0.10516,-0.00159,1.01528,2.22756,0.89648,1.56687,1.57166,0.46084,3.36481,2.17723,0.41606,3.31732,A,111705.10
2.24146,57.68788859,11.98136342,57.68787,11.98135,11:17:05.310526,0.00338,0.89648,-0.04168,0.02057,0.02156,0.03477,-0.00110,0.02403,-0.01842,1.00272,2.23759,0.89648,1.56687,1.57166,0.46084,3.36481,2.17723,0.41606,3.31732,A,111705.10
2.25212,57.68788859,11.98136342,57.68787,11.98135,11:17:05.320986,0.00364,0.89648,-0.04129,0.02139,0.02355,0.02087,-0.00446,0.08003,-0.00970,1.02974,2.24816,0.89648,1.56687,1.57166,0.46084,3.36481,2.17723,0.41606,3.31732,A,111705.10
2.26243,57.68788859,11.98136342,57.68787,11.98135,11:17:05.331291,0.00355,0.89648,-0.04089,0.02216,0.02248,-0.00036,0.00211,0.01128,-0.00738,1.05432,2.25835,0.89648,1.56687,1.57166,0.46084,3.36481,2.17723,0.41606,3.31732,A,111705.10
2.27280,57.68788859,11.98136342,57.68787,11.98135,11:17:05.341664,0.00352,0.89648,-0.04068,0.02292,0.02278,-0.01517,-0.00293,-0.06198,-0.02153,1.06219,2.26894,0.89648,1.56687,1.57166,0.46084,3.36481,2.17723,0.41606,3.31732,A,111705.10
2.30693,57.68788859,11.98136342,57.68788,11.98135,11:17:05.375802,0.02726,0.89648,-0.04064,0.02369,0.02171,-0.01792,-0.00430,-0.01903,-0.02989,0.99985,2.27927,0.89648,1.56687,1.57166,0.46084,3.36481,2.30534,0.46559,3.78063,A,111705.30
2.32191,57.68789069,11.98136345,57.68788,11.98135,11:17:05.390788,0.00725,0.89648,-0.03996,0.02686,0.02202,0.00010,0.00272,-0.08802,-0.02470,1.00418,2.31528,0.89648,1.55778,1.56575,0.46268,3.59807,2.30534,0.46559,3.78063,A,111705.30
2.32869,57.68789069,11.98136345,57.68788,11.98135,11:17:05.397557,0.00363,0.89648,-0.04013,0.02802,0.02248,0.01094,0.00929,-0.05581,-0.04081,0.97210,2.32475,0.89648,1.55778,1.56575,0.46268,3.59807,2.30534,0.46559,3.78063,A,111705.30
2.33899,57.68789069,11.98136345,57.68788,11.98135,11:17:05.407851,0.00353,0.89648,-0.03982,0.02923,0.02339,0.01369,0.01066,0.00098,-0.01214,0.96026,2.33512,0.89648,1.55778,1.56575,0.46268,3.59807,2.30534,0.46559,3.78063,A,111705.30
2.34929,57.68789069,11.98136345,57.68788,11.98135,11:17:05.418380,0.00334,0.89648,-0.03895,0.03056,0.02477,-0.00005,0.01143,-0.02367,0.02513,1.00571,2.34544,0.89648,1.55778,1.56575,0.46268,3.59807,2.30534,0.46559,3.78063,A,111705.30
2.35985,57.68789069,11.98136345,57.68788,11.98135,11:17:05.428715,0.00350,0.89648,-0.03818,0.03184,0.03026,-0.00357,0.01066,-0.04984,0.01501,1.03791,2.35600,0.89648,1.55778,1.56575,0.46268,3.59807,2.30534,0.46559,3.78063,A,111705.30
2.37029,57.68789069,11.98136345,57.68788,11.98135,11:17:05.439148,0.00353,0.89648,-0.03800,0.03291,0.03576,-0.00143,0.00730,-0.02330,-0.02660,0.99088,2.36622,0.89648,1.55778,1.56575,0.46268,3.59807,2.30534,0.46559,3.78063,A,111705.30
2.38068,57.68789069,11.98136345,57.68788,11.98135,11:17:05.449541,0.00352,0.89648,-0.03819,0.03390,0.02431,-0.00463,0.00196,0.00610,-0.04416,0.99521,2.37683,0.89648,1.55778,1.56575,0.46268,3.59807,2.30534,0.46559,3.78063,A,111705.30
2.39109,57.68789069,11.98136345,57.68788,11.98135,11:17:05.460101,0.00353,0.89648,-0.03819,0.03475,0.02049,-0.00066,-0.00094,-0.04599,-0.02879,1.00473,2.38722,0.89648,1.55778,1.56575,0.46268,3.59807,2.30534,0.46559,3.78063,A,111705.30
2.40131,57.68789069,11.98136345,57.68788,11.98135,11:17:05.470384,0.00335,0.89648,-0.03787,0.03552,0.01988,0.00392,0.00471,-0.04477,-0.00634,0.97948,2.39745,0.89648,1.55778,1.56575,0.46268,3.59807,2.30534,0.46559,3.78063,A,111705.30
2.42459,57.68789069,11.98136345,57.68788,11.98135,11:17:05.493461,0.01624,0.89648,-0.03730,0.03622,0.02400,0.00331,0.00394,-0.02867,0.00677,0.95935,2.40802,0.89648,1.55778,1.56575,0.46268,3.59807,2.42310,0.44578,3.91035,A,111705.40
2.43941,57.68789237,11.98136334,57.68788,11.98135,11:17:05.508983,0.00712,0.89648,-0.03687,0.03719,0.02339,0.00514,0.01173,-0.00006,-0.02373,1.00009,2.43321,0.89648,1.57598,1.58702,0.45624,3.78516,2.42310,0.44578,3.91035,A,111705.40
2.44623,57.68789237,11.98136334,57.68788,11.98135,11:17:05.515099,0.00355,0.89648,-0.03669,0.03724,0.02446,0.00789,0.01188,-0.01269,-0.01568,1.00973,2.44217,0.89648,1.57598,1.58702,0.45624,3.78516,2.42310,0.44578,3.91035,A,111705.40
2.45663,57.68789237,11.98136334,57.68788,11.98135,11:17:05.525492,0.00354,0.89648,-0.03664,0.03724,0.01728,0.00407,0.01326,-0.07253,-0.02275,1.04639,2.45278,0.89648,1.57598,1.58702,0.45624,3.78516,2.42310,0.44578,3.91035,A,111705.40
2.46701,57.68789237,11.98136334,57.68788,11.98135,11:17:05.535876,0.00352,0.89648,-0.03649,0.03724,0.01270,0.00697,0.00929,-0.00823,-0.01189,1.00345,2.46315,0.89648,1.57598,1.58702,0.45624,3.78516,2.42310,0.44578,3.91035,A,111705.40
2.47744,57.68789237,11.98136334,57.68788,11.98135,11:17:05.546514,0.00337,0.89648,-0.03666,0.03724,-0.00013,-0.00189,0.00883,0.04337,-0.02251,0.95337,2.47358,0.89648,1.57598,1.58702,0.45624,3.78516,2.42310,0.44578,3.91035,A,111705.40
2.48801,57.68789237,11.98136334,57.68788,11.98135,11:17:05.556865,0.00354,0.89648,-0.03670,0.03724,0.00140,-0.02617,0.00211,0.02025,-0.01641,0.99345,2.48415,0.89648,1.57598,1.58702,0.45624,3.78516,2.42310,0.44578,3.91035,A,111705.40
2.49864,57.68789237,11.98136334,57.68788,11.98135,11:17:05.567502,0.00377,1.08962,-0.03627,0.03724,-0.00135,-0.03838,-0.00415,-0.06381,0.01775,1.02639,2.49475,0.89648,1.57598,1.58702,0.45624,3.78516,2.42310,0.44578,3.91035,A,111705.40
2.50880,57.68789237,11.98136334,57.68788,11.98135,11:17:05.577666,0.00353,1.08962,-0.03580,0.03724,0.00186,-0.03029,-0.00262,-0.05941,0.01909,0.99284,2.50495,0.89648,1.57598,1.58702,0.45624,3.78516,2.42310,0.44578,3.91035,A,111705.40
2.51914,57.68789237,11.98136334,57.68788,11.98135,11:17:05.588002,0.00347,1.08962,-0.03587,0.03724,0.00843,-0.01609,0.00318,-0.09229,-0.02123,0.99772,2.51528,0.89648,1.57598,1.58702,0.45624,3.78516,2.42310,0.44578,3.91035,A,111705.40
2.54203,57.68789237,11.98136334,57.68788,11.98135,11:17:05.610900,0.01607,1.08962,-0.03650,0.03724,-0.00425,0.00804,0.00516,-0.10468,-0.05191,1.02065,2.52545,0.89648,1.57598,1.58702,0.45624,3.78516,2.54041,0.43587,4.02155,A,111705.50
2.55558,57.68789377,11.98136319,57.68788,11.98135,11:17:05.624459,0.00693,1.08962,-0.03690,0.03724,-0.02746,0.01003,0.00898,-0.04172,0.00329,1.00601,2.54850,0.91579,1.58669,1.59774,0.44710,3.94055,2.54041,0.43587,4.02155,A,111705.50
2.56350,57.68789377,11.98136319,57.68788,11.98135,11:17:05.632371,0.00417,1.08962,-0.03630,0.03724,-0.02319,0.01339,0.00547,-0.10419,0.04740,1.05414,2.55963,0.91579,1.58669,1.59774,0.44710,3.94055,2.54041,0.43587,4.02155,A,111705.50
2.57325,57.68789377,11.98136319,57.68788,11.98135,11:17:05.642322,0.00337,1.08962,-0.03592,0.03724,-0.01860,0.02117,0.00440,-0.07704,0.02745,1.08281,2.56938,0.91579,1.58669,1.59774,0.44710,3.94055,2.54041,0.43587,4.02155,A,111705.50
2.58397,57.68789377,11.98136319,57.68788,11.98135,11:17:05.652833,0.00369,1.08962,-0.03705,0.03724,-0.02288,0.03263,-0.00980,0.03392,-0.06893,0.98442,2.58011,0.91579,1.58669,1.59774,0.44710,3.94055,2.54041,0.43587,4.02155,A,111705.50
2.59450,57.68789377,11.98136319,57.68788,11.98135,11:17:05.663360,0.00369,1.08962,-0.03779,0.03724,-0.03693,0.02240,-0.01438,-0.01202,-0.03587,0.97844,2.59029,0.91579,1.58669,1.59774,0.44710,3.94055,2.54041,0.43587,4.02155,A,111705.50
2.60476,57.68789377,11.98136319,57.68788,11.98135,11:17:05.673621,0.00355,1.08962,-0.03839,0.03724,-0.04289,0.01827,-0.01896,-0.05295,-0.02220,0.97411,2.60091,0.91579,1.58669,1.59774,0.44710,3.94055,2.54041,0.43587,4.02155,A,111705.50
2.61552,57.68789377,11.98136319,57.68788,11.98135,11:17:05.684390,0.00390,1.08962,-0.03838,0.03724,-0.04411,0.01232,-0.01958,-0.11254,0.01824,1.00937,2.61165,0.91579,1.58669,1.59774,0.44710,3.94055,2.54041,0.43587,4.02155,A,111705.50
2.62532,57.68789377,11.98136319,57.68788,11.98135,11:17:05.694401,0.00337,1.08962,-0.03844,0.03724,-0.03433,0.01384,-0.01896,0.05179,0.00445,0.93910,2.62146,0.91579,1.58669,1.59774,0.44710,3.94055,2.54041,0.43587,4.02155,A,111705.50
2.63593,57.68789377,11.98136319,57.68788,11.98135,11:17:05.704792,0.00352,1.08962,-0.03912,0.03721,-0.02181,-0.01685,-0.01499,0.08461,-0.03904,0.90176,2.63209,0.91579,1.58669,1.59774,0.44710,3.94055,2.54041,0.43587,4.02155,A,111705.50
2.65887,57.68789377,11.98136319,57.68788,11.98135,11:17:05.727729,0.01605,1.08962,-0.04064,0.03702,-0.02395,-0.03335,-0.01362,0.01409,-0.09437,0.95069,2.64227,0.91579,1.58669,1.59774,0.44710,3.94055,2.65726,0.35662,4.09568,A,111705.60
2.67616,57.68789491,11.98136255,57.68788,11.98135,11:17:05.745045,0.00880,1.08962,-0.04144,0.03549,-0.04060,0.00865,-0.01026,-0.07497,-0.00098,1.00150,2.66800,0.93317,1.66950,1.68004,0.40919,4.06662,2.65726,0.35662,4.09568,A,111705.60
2.68108,57.68789491,11.98136255,57.68788,11.98135,11:17:05.749925,0.00338,1.08962,-0.04086,0.03441,-0.03464,0.00621,-0.00598,0.02513,0.04142,0.96947,2.67721,0.93317,1.66950,1.68004,0.40919,4.06662,2.65726,0.35662,4.09568,A,111705.60
2.69177,57.68789491,11.98136255,57.68788,11.98135,11:17:05.760633,0.00367,1.08962,-0.04079,0.03322,-0.03296,0.00315,-0.00827,0.01476,0.01220,1.04548,2.68791,0.93317,1.66950,1.68004,0.40919,4.06662,2.65726,0.35662,4.09568,A,111705.60
2.70193,57.68789491,11.98136255,57.68788,11.98135,11:17:05.770797,0.00359,1.08962,-0.04085,0.03206,-0.03250,-0.00586,-0.01087,-0.04636,0.00043,1.08440,2.69786,0.93317,1.66950,1.68004,0.40919,4.06662,2.65726,0.35662,4.09568,A,111705.60
2.71242,57.68789491,11.98136255,57.68788,11.98135,11:17:05.781279,0.00369,1.08962,-0.04167,0.03093,-0.03036,0.00285,-0.01805,-0.09656,-0.05337,1.06695,2.70856,0.93317,1.66950,1.68004,0.40919,4.06662,2.65726,0.35662,4.09568,A,111705.60
2.72267,57.68789491,11.98136255,57.68788,11.98135,11:17:05.791534,0.00354,1.08962,-0.04213,0.03003,-0.03678,0.01339,-0.02492,-0.04685,-0.02287,0.97576,2.71880,0.93317,1.66950,1.68004,0.40919,4.06662,2.65726,0.35662,4.09568,A,111705.60
2.73306,57.68789491,11.98136255,57.68788,11.98135,11:17:05.801923,0.00335,1.08962,-0.04282,0.02935,-0.02792,0.01155,-0.03225,0.03026,-0.04227,0.93617,2.72921,0.93317,1.66950,1.68004,0.40919,4.06662,2.65726,0.35662,4.09568,A,111705.60
2.74364,57.68789491,11.98136255,57.68788,11.98135,11:17:05.812496,0.00353,1.08962,-0.04427,0.02889,-0.03265,-0.00189,-0.03179,0.04502,-0.08577,0.92513,2.73978,0.93317,1.66950,1.68004,0.40919,4.06662,2.65726,0.35662,4.09568,A,111705.60
2.75392,57.68789491,11.98136255,57.68788,11.98135,11:17:05.822786,0.00357,1.08962,-0.04489,0.02869,-0.03281,-0.01532,-0.03347,-0.04624,-0.03886,0.98399,2.74986,0.93317,1.66950,1.68004,0.40919,4.06662,2.65726,0.35662,4.09568,A,111705.60
2.77688,57.68789491,11.98136255,57.68788,11.98135,11:17:05.845746,0.01613,1.08962,-0.04542,0.02867,-0.02975,-0.01029,-0.02706,-0.05691,-0.03642,1.00760,2.76044,0.93317,1.66950,1.68004,0.40919,4.06662,2.77539,0.31700,4.18834,A,111705.70
2.79144,57.68789591,11.98136181,57.68788,11.98135,11:17:05.860321,0.00741,1.08962,-0.04658,0.02864,-0.01784,-0.00173,-0.01606,0.00396,-0.07021,1.00308,2.78469,0.94882,1.70241,1.71092,0.36539,4.17839,2.77539,0.31700,4.18834,A,111705.70
2.79812,57.68789591,11.98136181,57.68788,11.98135,11:17:05.866989,0.00386,1.08962,-0.04705,0.02853,-0.01708,-0.01059,-0.01438,-0.02202,-0.04313,0.99320,2.79405,0.94882,1.70241,1.71092,0.36539,4.17839,2.77539,0.31700,4.18834,A,111705.70
2.80822,57.68789591,11.98136181,57.68788,11.98135,11:17:05.877078,0.00355,1.08962,-0.04675,0.02830,-0.01219,-0.00784,-0.01728,-0.04502,0.00476,0.99979,2.80436,0.94882,1.70241,1.71092,0.36539,4.17839,2.77539,0.31700,4.18834,A,111705.70
2.81860,57.68789591,11.98136181,57.68788,11.98135,11:17:05.887473,0.00354,1.08962,-0.04675,0.02787,-0.01005,-0.00158,-0.01790,-0.03691,-0.01513,0.97155,2.81473,0.94882,1.70241,1.71092,0.36539,4.17839,2.77539,0.31700,4.18834,A,111705.70
2.82900,57.68789591,11.98136181,57.68788,11.98135,11:17:05.897858,0.00353,1.08962,-0.04665,0.02734,-0.01112,-0.00005,-0.02370,-0.01793,-0.00860,0.96539,2.82514,0.94882,1.70241,1.71092,0.36539,4.17839,2.77539,0.31700,4.18834,A,111705.70
2.83941,57.68789591,11.98136181,57.68788,11.98135,11:17:05.908273,0.00355,1.08962,-0.04689,0.02677,-0.00959,0.00315,-0.02385,-0.01128,-0.03056,0.95142,2.83556,0.94882,1.70241,1.71092,0.36539,4.17839,2.77539,0.31700,4.18834,A,111705.70
2.84980,57.68789591,11.98136181,57.68788,11.98135,11:17:05.918681,0.00361,1.08962,-0.04721,0.02620,-0.01479,0.00575,-0.02309,-0.12127,-0.03623,1.05377,2.84574,0.94882,1.70241,1.71092,0.36539,4.17839,2.77539,0.31700,4.18834,A,111705.70
2.86016,57.68789591,11.98136181,57.68788,11.98135,11:17:05.929027,0.00356,1.08962,-0.04768,0.02572,-0.00944,0.03324,-0.02721,-0.04032,-0.05142,1.05487,2.85630,0.94882,1.70241,1.71092,0.36539,4.17839,2.77539,0.31700,4.18834,A,111705.70
2.87054,57.68789591,11.98136181,57.68788,11.98135,11:17:05.939399,0.00354,1.08962,-0.04809,0.02530,-0.01509,0.01919,-0.02553,0.06649,-0.04197,1.01925,2.86647,0.94882,1.70241,1.71092,0.36539,4.17839,2.77539,0.31700,4.18834,A,111705.70
2.90468,57.68789591,11.98136181,57.68788,11.98135,11:17:05.973545,0.02728,1.08962,-0.04829,0.02490,-0.02013,-0.00341,-0.02080,0.05758,-0.02495,1.05341,2.87707,0.94882,1.70241,1.71092,0.36539,4.17839,2.90317,0.23775,4.33660,A,111705.90
2.92226,57.68789713,11.98136078,57.68788,11.98135,11:17:05.991140,0.00764,1.08962,-0.04977,0.02428,-0.00471,-0.01777,-0.02446,-0.04477,-0.10736,0.95947,2.91607,0.96290,1.74068,1.74789,0.30410,4.31422,2.90317,0.23775,4.33660,A,111705.90
2.92857,57.68789713,11.98136078,57.68788,11.98135,11:17:05.997431,0.00354,1.08962,-0.05078,0.02428,-0.00730,-0.00708,-0.02691,0.01970,-0.07991,0.89127,2.92472,0.96290,1.74068,1.74789,0.30410,4.31422,2.90317,0.23775,4.33660,A,111705.90
2.93916,57.68789713,11.98136078,57.68788,11.98135,11:17:06.008016,0.00344,1.08962,-0.05139,0.02428,-0.01250,-0.00402,-0.02202,-0.02733,-0.05496,0.93690,2.93530,0.96290,1.74068,1.74789,0.30410,4.31422,2.90317,0.23775,4.33660,A,111705.90
2.94934,57.68789713,11.98136078,57.68788,11.98135,11:17:06.018419,0.00337,1.08962,-0.05114,0.02428,-0.01418,0.00880,-0.01988,-0.08894,-0.00189,1.00607,2.94549,0.96290,1.74068,1.74789,0.30410,4.31422,2.90317,0.23775,4.33660,A,111705.90
2.95989,57.68789713,11.98136078,57.68788,11.98135,11:17:06.028747,0.00350,1.08962,-0.05078,0.02428,-0.01112,0.01354,-0.01408,-0.07149,0.00421,1.03517,2.95603,0.96290,1.74068,1.74789,0.30410,4.31422,2.90317,0.23775,4.33660,A,111705.90
2.97030,57.68789713,11.98136078,57.68788,11.98135,11:17:06.039170,0.00353,1.08962,-0.05051,0.02428,-0.00394,0.02179,-0.01331,-0.02446,-0.00689,1.06616,2.96624,0.96290,1.74068,1.74789,0.30410,4.31422,2.90317,0.23775,4.33660,A,111705.90
2.98070,57.68789713,11.98136078,57.68788,11.98135,11:17:06.049560,0.00352,1.08962,-0.05040,0.02428,-0.00410,0.01675,-0.01637,0.05069,-0.01757,1.03340,2.97685,0.96290,1.74068,1.74789,0.30410,4.31422,2.90317,0.23775,4.33660,A,111705.90
2.99113,57.68789713,11.98136078,57.68788,11.98135,11:17:06.059992,0.00342,1.08962,-0.05020,0.02428,-0.00853,0.00911,-0.01988,-0.00671,-0.00872,1.06500,2.98727,0.96290,1.74068,1.74789,0.30410,4.31422,2.90317,0.23775,4.33660,A,111705.90
3.00132,57.68789713,11.98136078,57.68788,11.98135,11:17:06.070386,0.00336,1.08962,-0.05037,0.02428,-0.01051,0.01552,-0.02736,-0.01360,-0.03154,1.03163,2.99746,0.96290,1.74068,1.74789,0.30410,4.31422,2.90317,0.23775,4.33660,A,111705.90
3.02449,57.68789713,11.98136078,57.68788,11.98134,11:17:06.093355,0.01612,1.08962,-0.05088,0.02428,-0.00562,0.01552,-0.03332,-0.03873,-0.05771,1.00949,3.00803,0.96290,1.74068,1.74789,0.30410,4.31422,3.02301,0.18822,4.48486,A,111706.00
3.03995,57.68789834,11.98135980,57.68788,11.98134,11:17:06.108819,0.00719,1.08962,-0.05053,0.02428,-0.00746,-0.00631,-0.02248,-0.02836,0.00885,0.99314,3.03376,0.97557,1.75769,1.76490,0.24596,4.44833,3.02301,0.18822,4.48486,A,111706.00
3.04764,57.68789834,11.98135980,57.68788,11.98134,11:17:06.116499,0.00371,1.08962,-0.05051,0.02428,0.00171,0.00224,-0.01560,-0.06911,-0.02733,1.01699,3.04376,0.97557,1.75769,1.76490,0.24596,4.44833,3.02301,0.18822,4.48486,A,111706.00
3.05783,57.68789834,11.98135980,57.68788,11.98134,11:17:06.126716,0.00367,1.08962,-0.05003,0.02428,0.00690,0.00789,-0.01194,0.01074,0.00037,1.00205,3.05368,0.97557,1.75769,1.76490,0.24596,4.44833,3.02301,0.18822,4.48486,A,111706.00
3.06809,57.68789834,11.98135980,57.68788,11.98134,11:17:06.136946,0.00353,1.08962,-0.05050,0.02428,0.01011,0.00376,-0.00659,0.05636,-0.06137,0.94300,3.06424,0.97557,1.75769,1.76490,0.24596,4.44833,3.02301,0.18822,4.48486,A,111706.00
3.07864,57.68789834,11.98135980,57.68788,11.98134,11:17:06.147497,0.00368,1.08962,-0.05077,0.02428,0.01453,-0.02296,-0.00751,0.04343,-0.05136,0.94922,3.07443,0.97557,1.75769,1.76490,0.24596,4.44833,3.02301,0.18822,4.48486,A,111706.00
3.08888,57.68789834,11.98135980,57.68788,11.98134,11:17:06.157744,0.00353,1.08962,-0.05043,0.02428,0.00659,-0.03426,-0.00232,-0.00329,-0.00909,0.98112,3.08502,0.97557,1.75769,1.76490,0.24596,4.44833,3.02301,0.18822,4.48486,A,111706.00
3.09998,57.68789834,11.98135980,57.68788,11.98134,11:17:06.168847,0.00422,1.08962,-0.04987,0.02428,0.01896,-0.02907,-0.00491,-0.02812,-0.00329,1.01046,3.09611,0.97557,1.75769,1.76490,0.24596,4.44833,3.02301,0.18822,4.48486,A,111706.00
3.10938,57.68789834,11.98135980,57.68788,11.98134,11:17:06.178470,0.00337,1.21134,-0.04942,0.02428,0.01942,-0.01868,-0.00721,-0.11608,-0.00860,1.08031,3.10551,0.97557,1.75769,1.76490,0.24596,4.44833,3.02301,0.18822,4.48486,A,111706.00
3.11994,57.68789834,11.98135980,57.68788,11.98134,11:17:06.188806,0.00354,1.21134,-0.04892,0.02428,0.03149,0.01384,-0.00919,-0.04026,-0.01415,1.03816,3.11608,0.97557,1.75769,1.76490,0.24596,4.44833,3.02301,0.18822,4.48486,A,111706.00
3.14289,57.68789834,11.98135980,57.68788,11.98134,11:17:06.211759,0.01609,1.21134,-0.04915,0.02428,0.03133,0.02285,-0.00262,-0.01464,-0.06137,0.99717,3.12627,0.97557,1.75769,1.76490,0.24596,4.44833,3.14127,0.15850,4.59606,A,111706.10
3.16102,57.68789947,11.98135899,57.68788,11.98134,11:17:06.229888,0.00783,1.21134,-0.04818,0.02533,0.02584,-0.02785,0.01463,-0.09571,-0.00543,0.97740,3.15302,0.99915,1.76693,1.77445,0.19776,4.57468,3.14127,0.15850,4.59606,A,111706.10
3.16712,57.68789947,11.98135899,57.68788,11.98134,11:17:06.235981,0.00353,1.21134,-0.04662,0.02623,0.03179,-0.01899,0.01341,-0.00952,0.05832,0.98875,3.16326,0.99915,1.76693,1.77445,0.19776,4.57468,3.14127,0.15850,4.59606,A,111706.10
3.17742,57.68789947,11.98135899,57.68788,11.98134,11:17:06.246508,0.00346,1.21134,-0.04619,0.02728,0.04752,-0.02678,0.01677,0.06374,-0.02361,0.95929,3.17345,0.99915,1.76693,1.77445,0.19776,4.57468,3.14127,0.15850,4.59606,A,111706.10
3.18783,57.68789947,11.98135899,57.68788,11.98134,11:17:06.256693,0.00364,1.21134,-0.04705,0.02838,0.04095,-0.04220,0.00700,0.01165,-0.11187,1.03724,3.18397,0.99915,1.76693,1.77445,0.19776,4.57468,3.14127,0.15850,4.59606,A,111706.10
3.19828,57.68789947,11.98135899,57.68788,11.98134,11:17:06.267143,0.00384,1.21134,-0.04689,0.02943,0.02599,-0.04236,-0.00171,-0.12889,-0.03447,1.15101,3.19420,0.99915,1.76693,1.77445,0.19776,4.57468,3.14127,0.15850,4.59606,A,111706.10
3.20840,57.68789947,11.98135899,57.68788,11.98134,11:17:06.277271,0.00356,1.21134,-0.04642,0.03056,0.02095,-0.00204,-0.00675,-0.17434,-0.00567,1.17901,3.20455,0.99915,1.76693,1.77445,0.19776,4.57468,3.14127,0.15850,4.59606,A,111706.10
3.21882,57.68789947,11.98135899,57.68788,11.98134,11:17:06.287689,0.00358,1.21134,-0.04555,0.03155,0.02248,0.01919,-0.00598,0.02330,0.02111,1.02352,3.21495,0.99915,1.76693,1.77445,0.19776,4.57468,3.14127,0.15850,4.59606,A,111706.10
3.22916,57.68789947,11.98135899,57.68788,11.98134,11:17:06.298019,0.00336,1.21134,-0.04482,0.03243,0.03103,0.01064,-0.00751,0.01897,0.00744,0.99216,3.22530,0.99915,1.76693,1.77445,0.19776,4.57468,3.14127,0.15850,4.59606,A,111706.10
3.23972,57.68789947,11.98135899,57.68788,11.98134,11:17:06.308587,0.00353,1.21134,-0.04471,0.03317,0.03057,-0.00601,0.00700,0.02330,-0.03056,0.93245,3.23586,0.99915,1.76693,1.77445,0.19776,4.57468,3.14127,0.15850,4.59606,A,111706.10
3.26269,57.68789947,11.98135899,57.68788,11.98134,11:17:06.331555,0.01610,1.21134,-0.04452,0.03359,0.02813,-0.00967,0.00914,-0.12804,-0.02464,0.96581,3.24608,0.99915,1.76693,1.77445,0.19776,4.57468,3.26106,0.12878,4.68872,A,111706.20
3.27663,57.68790049,11.98135830,57.68788,11.98134,11:17:06.346679,0.00646,1.21134,-0.04360,0.03379,0.02461,-0.00051,0.01036,0.04807,0.00238,0.91707,3.27071,1.02037,1.78023,1.79026,0.15637,4.68709,3.26106,0.12878,4.68872,A,111706.20
3.28476,57.68790049,11.98135830,57.68788,11.98134,11:17:06.353628,0.00388,1.21134,-0.04383,0.03379,0.03561,-0.02052,0.00944,0.03654,-0.05642,0.98881,3.28071,1.02037,1.78023,1.79026,0.15637,4.68709,3.26106,0.12878,4.68872,A,111706.20
3.29498,57.68790049,11.98135830,57.68788,11.98134,11:17:06.363833,0.00369,1.21134,-0.04336,0.03379,0.02797,-0.02983,0.00043,-0.07668,-0.00708,1.10465,3.29110,1.02037,1.78023,1.79026,0.15637,4.68709,3.26106,0.12878,4.68872,A,111706.20
3.30519,57.68790049,11.98135830,57.68788,11.98134,11:17:06.374272,0.00336,1.21134,-0.04279,0.03379,0.03714,-0.00586,-0.00125,-0.06869,-0.00592,1.12698,3.30134,1.02037,1.78023,1.79026,0.15637,4.68709,3.26106,0.12878,4.68872,A,111706.20
3.31605,57.68790049,11.98135830,57.68788,11.98134,11:17:06.384920,0.00382,1.21134,-0.04289,0.03379,0.03500,-0.00906,0.00181,0.02159,-0.05014,1.01528,3.31219,1.02037,1.78023,1.79026,0.15637,4.68709,3.26106,0.12878,4.68872,A,111706.20
3.32617,57.68790049,11.98135830,57.68788,11.98134,11:17:06.395036,0.00354,1.21134,-0.04256,0.03379,0.03393,-0.01548,-0.00064,0.01970,-0.01665,0.96947,3.32210,1.02037,1.78023,1.79026,0.15637,4.68709,3.26106,0.12878,4.68872,A,111706.20
3.33660,57.68790049,11.98135830,57.68788,11.98134,11:17:06.405464,0.00357,1.21134,-0.04275,0.03379,0.02782,-0.02785,0.00104,-0.03648,-0.04447,0.90207,3.33274,1.02037,1.78023,1.79026,0.15637,4.68709,3.26106,0.12878,4.68872,A,111706.20
3.34698,57.68790049,11.98135830,57.68788,11.98134,11:17:06.415847,0.00354,1.21134,-0.04245,0.03379,0.02706,-0.02601,0.00761,-0.16641,-0.01391,0.92879,3.34311,1.02037,1.78023,1.79026,0.15637,4.68709,3.26106,0.12878,4.68872,A,111706.20
3.35731,57.68790049,11.98135830,57.68788,11.98134,11:17:06.426386,0.00337,1.21134,-0.04202,0.03379,0.02645,0.00590,0.00807,-0.09052,-0.00518,0.89652,3.35345,1.02037,1.78023,1.79026,0.15637,4.68709,3.26106,0.12878,4.68872,A,111706.20
3.38048,57.68790049,11.98135830,57.68788,11.98134,11:17:06.449346,0.01613,1.21134,-0.04140,0.03379,0.03332,0.02499,0.00578,-0.01690,0.00128,0.94080,3.36403,1.02037,1.78023,1.79026,0.15637,4.68709,3.37898,0.05944,4.79991,A,111706.30
3.39907,57.68790154,11.98135738,57.68788,11.98134,11:17:06.467942,0.00867,1.21134,-0.04056,0.03379,0.01912,0.02530,0.00211,-0.07759,0.00396,1.17474,3.39261,1.03946,1.81782,1.82786,0.10160,4.80393,3.37898,0.05944,4.79991,A,111706.30
3.40421,57.68790154,11.98135738,57.68788,11.98134,11:17:06.473074,0.00360,1.21134,-0.03981,0.03379,0.02400,0.02637,-0.00110,0.00061,0.02562,1.16223,3.40036,1.03946,1.81782,1.82786,0.10160,4.80393,3.37898,0.05944,4.79991,A,111706.30
3.41457,57.68790154,11.98135738,57.68788,11.98134,11:17:06.483434,0.00355,1.21134,-0.03923,0.03379,0.02248,0.01232,-0.00827,0.07448,0.00933,1.04487,3.41069,1.03946,1.81782,1.82786,0.10160,4.80393,3.37898,0.05944,4.79991,A,111706.30
3.42496,57.68790154,11.98135738,57.68788,11.98134,11:17:06.493820,0.00354,1.21134,-0.03903,0.03379,0.01255,-0.02449,-0.01286,0.12621,-0.00817,0.92202,3.42110,1.03946,1.81782,1.82786,0.10160,4.80393,3.37898,0.05944,4.79991,A,111706.30
3.43538,57.68790154,11.98135738,57.68788,11.98134,11:17:06.504241,0.00356,1.21134,-0.03883,0.03379,0.01026,-0.05579,-0.01011,-0.07387,-0.00677,0.94648,3.43152,1.03946,1.81782,1.82786,0.10160,4.80393,3.37898,0.05944,4.79991,A,111706.30
3.44542,57.68790154,11.98135738,57.68788,11.98134,11:17:06.514514,0.00337,1.21134,-0.03887,0.03379,0.01133,-0.04816,-0.01286,-0.14457,-0.02233,0.97130,3.44157,1.03946,1.81782,1.82786,0.10160,4.80393,3.37898,0.05944,4.79991,A,111706.30
3.45597,57.68790154,11.98135738,57.68788,11.98134,11:17:06.524831,0.00352,1.21134,-0.03876,0.03379,0.00950,-0.02357,-0.00873,-0.09040,-0.01153,0.93464,3.45212,1.03946,1.81782,1.82786,0.10160,4.80393,3.37898,0.05944,4.79991,A,111706.30
3.46638,57.68790154,11.98135738,57.68788,11.98134,11:17:06.535236,0.00353,1.21134,-0.03915,0.03379,0.02293,-0.01273,-0.00598,-0.09888,-0.05581,1.01016,3.46230,1.03946,1.81782,1.82786,0.10160,4.80393,3.37898,0.05944,4.79991,A,111706.30
3.47679,57.68790154,11.98135738,57.68788,11.98134,11:17:06.545648,0.00354,1.21134,-0.03850,0.03379,0.01896,0.00270,0.00684,-0.00146,0.01659,1.00558,3.47294,1.03946,1.81782,1.82786,0.10160,4.80393,3.37898,0.05944,4.79991,A,111706.30
3.51071,57.68790154,11.98135738,57.68789,11.98134,11:17:06.579587,0.02722,1.21134,-0.03847,0.03379,0.02309,-0.00387,0.01753,0.05508,-0.02714,1.01443,3.48318,1.03946,1.81782,1.82786,0.10160,4.80393,3.50909,-0.00991,4.98524,A,111706.50
3.52691,57.68790287,11.98135629,57.68789,11.98134,11:17:06.595782,0.00784,1.21134,-0.03709,0.03379,0.02706,-0.04037,0.00562,-0.05734,0.01366,1.05042,3.51999,1.05665,1.83193,1.84196,0.03718,4.95183,3.50909,-0.00991,4.98524,A,111706.50
3.53397,57.68790287,11.98135629,57.68789,11.98134,11:17:06.602844,0.00378,1.21134,-0.03650,0.03379,0.01560,-0.03609,-0.00247,-0.11944,0.01970,1.11099,3.52981,1.05665,1.83193,1.84196,0.03718,4.95183,3.50909,-0.00991,4.98524,A,111706.50
3.54413,57.68790287,11.98135629,57.68789,11.98134,11:17:06.612993,0.00353,1.21134,-0.03648,0.03379,0.02981,-0.01242,-0.01041,-0.02977,-0.03062,1.00888,3.54027,1.05665,1.83193,1.84196,0.03718,4.95183,3.50909,-0.00991,4.98524,A,111706.50
3.55454,57.68790287,11.98135629,57.68789,11.98134,11:17:06.623401,0.00355,1.21134,-0.03707,0.03379,0.01286,-0.00036,-0.01209,-0.03117,-0.05051,0.86528,3.55046,1.05665,1.83193,1.84196,0.03718,4.95183,3.50909,-0.00991,4.98524,A,111706.50
3.56492,57.68790287,11.98135629,57.68789,11.98134,11:17:06.633785,0.00353,1.21134,-0.03809,0.03379,0.00766,0.00132,-0.00553,-0.11694,-0.07253,0.85254,3.56107,1.05665,1.83193,1.84196,0.03718,4.95183,3.50909,-0.00991,4.98524,A,111706.50
3.57533,57.68790287,11.98135629,57.68789,11.98134,11:17:06.644193,0.00354,1.21134,-0.03823,0.03379,-0.00089,0.01048,-0.00583,-0.21576,-0.01952,0.93873,3.57148,1.05665,1.83193,1.84196,0.03718,4.95183,3.50909,-0.00991,4.98524,A,111706.50
3.58581,57.68790287,11.98135629,57.68789,11.98134,11:17:06.654680,0.00378,1.21134,-0.03696,0.03379,-0.00608,0.02866,0.00272,-0.05826,0.07082,0.92763,3.58173,1.05665,1.83193,1.84196,0.03718,4.95183,3.50909,-0.00991,4.98524,A,111706.50
3.59584,57.68790287,11.98135629,57.68789,11.98134,11:17:06.664696,0.00353,1.21134,-0.03610,0.03379,-0.00089,0.01445,0.00257,0.03678,0.04593,0.99784,3.59199,1.05665,1.83193,1.84196,0.03718,4.95183,3.50909,-0.00991,4.98524,A,111706.50
3.60626,57.68790287,11.98135629,57.68789,11.98134,11:17:06.675118,0.00354,1.21134,-0.03630,0.03379,0.00110,0.00331,0.00348,-0.01519,-0.02806,1.13399,3.60218,1.05665,1.83193,1.84196,0.03718,4.95183,3.50909,-0.00991,4.98524,A,111706.50
3.62941,57.68790287,11.98135629,57.68789,11.98134,11:17:06.698483,0.01623,1.21134,-0.03614,0.03379,-0.00746,0.01827,0.00043,-0.08156,0.00476,1.14363,3.61291,1.05665,1.83193,1.84196,0.03718,4.95183,3.62790,-0.07925,5.11497,A,111706.60
3.64899,57.68790411,11.98135517,57.68789,11.98134,11:17:06.717855,0.00771,1.36041,-0.03676,0.03379,-0.04533,0.05065,-0.01851,-0.10413,0.03611,0.92439,3.64307,1.08703,1.85783,1.86786,-0.02981,5.09053,3.62790,-0.07925,5.11497,A,111706.60
3.65515,57.68790411,11.98135517,57.68789,11.98134,11:17:06.724008,0.00347,1.36041,-0.03665,0.03379,-0.04060,0.03996,-0.02278,0.07369,0.01677,0.82246,3.65128,1.08703,1.85783,1.86786,-0.02981,5.09053,3.62790,-0.07925,5.11497,A,111706.60
3.66582,57.68790411,11.98135517,57.68789,11.98134,11:17:06.734692,0.00376,1.36041,-0.03722,0.03379,-0.04900,0.00774,-0.02080,0.07875,-0.01183,0.85485,3.66166,1.08703,1.85783,1.86786,-0.02981,5.09053,3.62790,-0.07925,5.11497,A,111706.60
3.67599,57.68790411,11.98135517,57.68789,11.98134,11:17:06.744848,0.00353,1.36041,-0.03760,0.03379,-0.05907,-0.02113,-0.01988,-0.09760,0.00421,0.98515,3.67213,1.08703,1.85783,1.86786,-0.02981,5.09053,3.62790,-0.07925,5.11497,A,111706.60
3.68656,57.68790411,11.98135517,57.68789,11.98134,11:17:06.755430,0.00370,1.36041,-0.03815,0.03370,-0.05388,-0.01578,-0.02706,-0.19252,-0.01202,1.12417,3.68267,1.08703,1.85783,1.86786,-0.02981,5.09053,3.62790,-0.07925,5.11497,A,111706.60
3.69679,57.68790411,11.98135517,57.68789,11.98134,11:17:06.765651,0.00353,1.36041,-0.03853,0.03339,-0.05709,0.00254,-0.02400,-0.04910,0.00067,1.16107,3.69293,1.08703,1.85783,1.86786,-0.02981,5.09053,3.62790,-0.07925,5.11497,A,111706.60
3.70715,57.68790411,11.98135517,57.68789,11.98134,11:17:06.776005,0.00349,1.36041,-0.03998,0.03288,-0.05877,-0.02250,-0.02431,0.04453,-0.07723,1.11215,3.70328,1.08703,1.85783,1.86786,-0.02981,5.09053,3.62790,-0.07925,5.11497,A,111706.60
3.71730,57.68790411,11.98135517,57.68789,11.98134,11:17:06.786445,0.00334,1.36041,-0.04053,0.03218,-0.06686,-0.04358,-0.02813,-0.02306,-0.00762,1.13796,3.71345,1.08703,1.85783,1.86786,-0.02981,5.09053,3.62790,-0.07925,5.11497,A,111706.60
3.72787,57.68790411,11.98135517,57.68789,11.98134,11:17:06.796728,0.00352,1.36041,-0.04105,0.03144,-0.06518,-0.03044,-0.02064,-0.19209,-0.00482,1.15504,3.72401,1.08703,1.85783,1.86786,-0.02981,5.09053,3.62790,-0.07925,5.11497,A,111706.60
3.75081,57.68790411,11.98135517,57.68789,11.98134,11:17:06.819674,0.01605,1.36041,-0.04086,0.03090,-0.05892,-0.00341,-0.01744,-0.14884,0.03733,1.01968,3.73423,1.08703,1.85783,1.86786,-0.02981,5.09053,3.74922,-0.24766,4.98524,A,111706.70
3.76591,57.68790437,11.98135334,57.68789,11.98134,11:17:06.834790,0.00735,1.36041,-0.04287,0.03022,-0.05449,-0.00952,0.00440,-0.00366,-0.04898,0.79495,3.75818,1.11437,1.42632,1.43529,-0.13856,5.11903,3.74922,-0.24766,4.98524,A,111706.70
3.77253,57.68790437,11.98135334,57.68789,11.98134,11:17:06.841398,0.00357,1.36041,-0.04322,0.02997,-0.05984,-0.02113,0.00578,-0.13450,0.00104,0.87041,3.76867,1.11437,1.42632,1.43529,-0.13856,5.11903,3.74922,-0.24766,4.98524,A,111706.70
3.78315,57.68790437,11.98135334,57.68789,11.98134,11:17:06.852001,0.00355,1.36041,-0.04386,0.02957,-0.06228,-0.00250,-0.00110,-0.15585,-0.01531,0.95142,3.77928,1.11437,1.42632,1.43529,-0.13856,5.11903,3.74922,-0.24766,4.98524,A,111706.70
3.79343,57.68790437,11.98135334,57.68789,11.98134,11:17:06.862517,0.00338,1.36041,-0.04428,0.02906,-0.05510,0.02484,-0.01347,-0.09553,-0.00848,0.97155,3.78958,1.11437,1.42632,1.43529,-0.13856,5.11903,3.74922,-0.24766,4.98524,A,111706.70
3.80403,57.68790437,11.98135334,57.68789,11.98134,11:17:06.872887,0.00356,1.36041,-0.04505,0.02838,-0.05190,0.03156,-0.02889,-0.03508,-0.03697,1.06805,3.80017,1.11437,1.42632,1.43529,-0.13856,5.11903,3.74922,-0.24766,4.98524,A,111706.70
3.81465,57.68790437,11.98135334,57.68789,11.98134,11:17:06.883523,0.00379,1.36041,-0.04593,0.02779,-0.06808,0.01949,-0.03439,-0.02574,-0.03892,1.16833,3.81033,1.11437,1.42632,1.43529,-0.13856,5.11903,3.74922,-0.24766,4.98524,A,111706.70
3.82486,57.68790437,11.98135334,57.68789,11.98134,11:17:06.893721,0.00353,1.36041,-0.04660,0.02739,-0.06228,0.00590,-0.03821,-0.00012,-0.02556,1.15156,3.82100,1.11437,1.42632,1.43529,-0.13856,5.11903,3.74922,-0.24766,4.98524,A,111706.70
3.83522,57.68790437,11.98135334,57.68789,11.98134,11:17:06.904085,0.00350,1.36041,-0.04764,0.02725,-0.06335,-0.00341,-0.03637,-0.01385,-0.05063,1.06506,3.83136,1.11437,1.42632,1.43529,-0.13856,5.11903,3.74922,-0.24766,4.98524,A,111706.70
3.84534,57.68790437,11.98135334,57.68789,11.98134,11:17:06.914484,0.00336,1.36041,-0.04794,0.02725,-0.05403,-0.02540,-0.03240,0.01366,-0.00592,0.96642,3.84149,1.11437,1.42632,1.43529,-0.13856,5.11903,3.74922,-0.24766,4.98524,A,111706.70
3.86856,57.68790437,11.98135334,57.68789,11.98134,11:17:06.937430,0.01617,1.36041,-0.04857,0.02725,-0.04273,-0.03533,-0.01927,0.00695,-0.03154,0.91622,3.85206,1.11437,1.42632,1.43529,-0.13856,5.11903,3.86707,-0.28728,5.18910,A,111706.80
3.88217,57.68790531,11.98135251,57.68789,11.98134,11:17:06.951047,0.00607,1.36041,-0.05061,0.02725,-0.02410,-0.01334,0.00165,-0.11486,-0.11663,0.95788,3.87596,1.13897,1.46260,1.47069,-0.18769,5.22303,3.86707,-0.28728,5.18910,A,111706.80
3.89041,57.68790531,11.98135251,57.68789,11.98134,11:17:06.959276,0.00407,1.36041,-0.05098,0.02725,-0.03128,-0.00005,0.00226,-0.00848,-0.02751,0.96331,3.88629,1.13897,1.46260,1.47069,-0.18769,5.22303,3.86707,-0.28728,5.18910,A,111706.80
3.90055,57.68790531,11.98135251,57.68789,11.98134,11:17:06.969421,0.00381,1.36041,-0.05123,0.02725,-0.02090,-0.00463,0.00287,-0.05990,-0.02916,1.05024,3.89669,1.13897,1.46260,1.47069,-0.18769,5.22303,3.86707,-0.28728,5.18910,A,111706.80
3.91091,57.68790531,11.98135251,57.68789,11.98134,11:17:06.979779,0.00354,1.36041,-0.05088,0.02725,-0.01998,-0.00219,-0.00293,-0.04423,0.01098,1.07531,3.90705,1.13897,1.46260,1.47069,-0.18769,5.22303,3.86707,-0.28728,5.18910,A,111706.80
3.92217,57.68790531,11.98135251,57.68789,11.98134,11:17:06.991038,0.00369,1.36041,-0.05113,0.02725,-0.01143,-0.02204,-0.01255,0.00720,-0.03581,1.06683,3.91807,1.13897,1.46260,1.47069,-0.18769,5.22303,3.86707,-0.28728,5.18910,A,111706.80
3.93245,57.68790531,11.98135251,57.68789,11.98134,11:17:07.001310,0.00357,1.36041,-0.05105,0.02725,-0.02380,-0.04495,-0.02263,0.00500,-0.00427,1.03267,3.92858,1.13897,1.46260,1.47069,-0.18769,5.22303,3.86707,-0.28728,5.18910,A,111706.80
3.94280,57.68790531,11.98135251,57.68789,11.98134,11:17:07.011667,0.00353,1.36041,-0.05152,0.02725,-0.01433,-0.04572,-0.03027,-0.10285,-0.04618,0.97777,3.93894,1.13897,1.46260,1.47069,-0.18769,5.22303,3.86707,-0.28728,5.18910,A,111706.80
3.95317,57.68790531,11.98135251,57.68789,11.98134,11:17:07.022030,0.00335,1.36041,-0.05146,0.02725,-0.01051,-0.03121,-0.03714,-0.06625,-0.01421,0.96563,3.94932,1.13897,1.46260,1.47069,-0.18769,5.22303,3.86707,-0.28728,5.18910,A,111706.80
3.96377,57.68790531,11.98135251,57.68789,11.98134,11:17:07.032627,0.00355,1.36041,-0.05212,0.02725,-0.01265,-0.02739,-0.03271,-0.08711,-0.05691,0.93080,3.95991,1.13897,1.46260,1.47069,-0.18769,5.22303,3.86707,-0.28728,5.18910,A,111706.80
3.98692,57.68790531,11.98135251,57.68789,11.98134,11:17:07.055791,0.01630,1.36041,-0.05294,0.02725,-0.01021,-0.01044,-0.02538,-0.08729,-0.06783,0.91250,3.97007,1.13897,1.46260,1.47069,-0.18769,5.22303,3.98512,-0.33681,5.37442,A,111706.90
4.00083,57.68790656,11.98135164,57.68789,11.98134,11:17:07.069695,0.00752,1.36041,-0.05312,0.02725,-0.00013,0.00163,-0.00308,-0.00915,-0.03989,1.01114,3.99435,1.16111,1.50203,1.51012,-0.23937,5.36296,3.98512,-0.33681,5.37442,A,111706.90
4.00790,57.68790656,11.98135164,57.68789,11.98134,11:17:07.076769,0.00419,1.36041,-0.05271,0.02725,0.00262,-0.01349,-0.00018,-0.02538,-0.00268,1.12454,4.00396,1.16111,1.50203,1.51012,-0.23937,5.36296,3.98512,-0.33681,5.37442,A,111706.90
4.01731,57.68790656,11.98135164,57.68789,11.98134,11:17:07.086381,0.00335,1.36041,-0.05250,0.02725,0.01041,-0.01868,-0.00201,0.01330,-0.02202,1.11142,4.01345,1.16111,1.50203,1.51012,-0.23937,5.36296,3.98512,-0.33681,5.37442,A,111706.90
4.02788,57.68790656,11.98135164,57.68789,11.98134,11:17:07.096740,0.00352,1.36041,-0.05236,0.02725,0.01805,-0.03136,-0.01026,0.02525,-0.03160,1.03468,4.02402,1.16111,1.50203,1.51012,-0.23937,5.36296,3.98512,-0.33681,5.37442,A,111706.90
4.03830,57.68790656,11.98135164,57.68789,11.98134,11:17:07.107163,0.00354,1.36041,-0.05238,0.02725,0.01973,-0.04220,-0.02126,-0.06112,-0.04453,1.07012,4.03422,1.16111,1.50203,1.51012,-0.23937,5.36296,3.98512,-0.33681,5.37442,A,111706.90
4.04876,57.68790656,11.98135164,57.68789,11.98134,11:17:07.117622,0.00354,1.36041,-0.05212,0.02725,0.02614,-0.02601,-0.02843,-0.08333,-0.02873,1.00979,4.04491,1.16111,1.50203,1.51012,-0.23937,5.36296,3.98512,-0.33681,5.37442,A,111706.90
4.05915,57.68790656,11.98135164,57.68789,11.98134,11:17:07.128017,0.00353,1.36041,-0.05275,0.02725,0.03454,-0.01563,-0.03057,0.00073,-0.08125,0.88700,4.05529,1.16111,1.50203,1.51012,-0.23937,5.36296,3.98512,-0.33681,5.37442,A,111706.90
4.06931,57.68790656,11.98135164,57.68789,11.98134,11:17:07.138384,0.00335,1.36041,-0.05287,0.02725,0.03561,-0.02159,-0.02461,0.02690,-0.05045,0.86315,4.06544,1.16111,1.50203,1.51012,-0.23937,5.36296,3.98512,-0.33681,5.37442,A,111706.90
4.07989,57.68790656,11.98135164,57.68789,11.98134,11:17:07.148751,0.00353,1.36041,-0.05278,0.02725,0.04431,-0.02922,-0.01454,-0.04514,-0.04776,0.92110,4.07602,1.16111,1.50203,1.51012,-0.23937,5.36296,3.98512,-0.33681,5.37442,A,111706.90
4.11391,57.68790656,11.98135164,57.68789,11.98133,11:17:07.182789,0.02716,1.36041,-0.05229,0.02725,0.04783,-0.02663,-0.00491,-0.07704,-0.02580,0.97728,4.08622,1.16111,1.50203,1.51012,-0.23937,5.36296,4.11218,-0.39625,5.65241,A,111707.10
4.12769,57.68790838,11.98135067,57.68789,11.98133,11:17:07.196558,0.00724,1.36041,-0.05042,0.02725,0.05256,-0.02067,-0.01072,-0.01324,-0.02714,1.10587,4.12148,1.18104,1.53277,1.54086,-0.29685,5.56544,4.11218,-0.39625,5.65241,A,111707.10
4.13450,57.68790838,11.98135067,57.68789,11.98133,11:17:07.203363,0.00365,1.36041,-0.05002,0.02722,0.05088,-0.01258,-0.02232,-0.04715,-0.03135,1.11307,4.13034,1.18104,1.53277,1.54086,-0.29685,5.56544,4.11218,-0.39625,5.65241,A,111707.10
4.14480,57.68790838,11.98135067,57.68789,11.98133,11:17:07.213663,0.00355,1.36041,-0.04969,0.02702,0.04706,-0.00097,-0.03576,-0.04008,-0.03910,1.09605,4.14094,1.18104,1.53277,1.54086,-0.29685,5.56544,4.11218,-0.39625,5.65241,A,111707.10
4.15515,57.68790838,11.98135067,57.68789,11.98133,11:17:07.224011,0.00349,1.36041,-0.04947,0.02663,0.04981,-0.00815,-0.04538,0.01604,-0.04319,0.98594,4.15128,1.18104,1.53277,1.54086,-0.29685,5.56544,4.11218,-0.39625,5.65241,A,111707.10
4.16530,57.68790838,11.98135067,57.68789,11.98133,11:17:07.234377,0.00335,1.36041,-0.04951,0.02603,0.04309,-0.01914,-0.04752,0.06515,-0.04965,0.90146,4.16145,1.18104,1.53277,1.54086,-0.29685,5.56544,4.11218,-0.39625,5.65241,A,111707.10
4.17605,57.68790838,11.98135067,57.68789,11.98133,11:17:07.244906,0.00369,1.36041,-0.04937,0.02524,0.04477,-0.03625,-0.03546,-0.04764,-0.04325,0.93574,4.17219,1.18104,1.53277,1.54086,-0.29685,5.56544,4.11218,-0.39625,5.65241,A,111707.10
4.18653,57.68790838,11.98135067,57.68789,11.98133,11:17:07.255401,0.00378,1.34683,-0.04916,0.02439,0.05378,-0.02449,-0.03301,-0.04929,-0.04136,0.89591,4.18240,1.18104,1.53277,1.54086,-0.29685,5.56544,4.11218,-0.39625,5.65241,A,111707.10
4.19669,57.68790838,11.98135067,57.68789,11.98133,11:17:07.265549,0.00354,1.34683,-0.04957,0.02354,0.05256,-0.02693,-0.02034,0.04941,-0.07113,0.81392,4.19284,1.18104,1.53277,1.54086,-0.29685,5.56544,4.11218,-0.39625,5.65241,A,111707.10
4.20708,57.68790838,11.98135067,57.68789,11.98133,11:17:07.275934,0.00352,1.34683,-0.04954,0.02269,0.04767,-0.04434,-0.01866,0.03379,-0.04734,0.86724,4.20321,1.18104,1.53277,1.54086,-0.29685,5.56544,4.11218,-0.39625,5.65241,A,111707.10
4.22998,57.68790838,11.98135067,57.68789,11.98134,11:17:07.298848,0.01603,1.34683,-0.04888,0.02179,0.04890,-0.03930,-0.01927,-0.14982,-0.01574,1.09013,4.21345,1.18104,1.53277,1.54086,-0.29685,5.56544,4.22838,-0.35662,5.89333,A,111707.20
4.24341,57.68791029,11.98135031,57.68789,11.98134,11:17:07.312286,0.00685,1.34683,-0.04756,0.01947,0.06111,-0.00005,-0.02950,0.00897,-0.03569,1.13039,4.23711,1.19762,1.52280,1.52857,-0.31835,5.77696,4.22838,-0.35662,5.89333,A,111707.20
4.25098,57.68791029,11.98135031,57.68789,11.98134,11:17:07.319841,0.00401,1.34683,-0.04684,0.01856,0.05302,-0.00861,-0.03378,0.04105,-0.01257,1.12496,4.24709,1.19762,1.52280,1.52857,-0.31835,5.77696,4.22838,-0.35662,5.89333,A,111707.20
4.26089,57.68791029,11.98135031,57.68789,11.98134,11:17:07.329763,0.00367,1.34683,-0.04654,0.01780,0.04951,-0.02647,-0.03546,-0.04002,-0.03947,1.11459,4.25703,1.19762,1.52280,1.52857,-0.31835,5.77696,4.22838,-0.35662,5.89333,A,111707.20
4.27114,57.68791029,11.98135031,57.68789,11.98134,11:17:07.340001,0.00353,1.34683,-0.04580,0.01720,0.04538,-0.03747,-0.03622,-0.03056,-0.00451,1.06530,4.26728,1.19762,1.52280,1.52857,-0.31835,5.77696,4.22838,-0.35662,5.89333,A,111707.20
4.28131,57.68791029,11.98135031,57.68789,11.98134,11:17:07.350385,0.00335,1.34683,-0.04504,0.01678,0.04263,-0.03686,-0.03637,-0.06753,0.00024,0.98600,4.27745,1.19762,1.52280,1.52857,-0.31835,5.77696,4.22838,-0.35662,5.89333,A,111707.20
4.29223,57.68791029,11.98135031,57.68789,11.98134,11:17:07.361101,0.00387,1.34683,-0.04457,0.01647,0.04737,-0.03167,-0.03347,-0.07472,-0.02208,0.94562,4.28818,1.19762,1.52280,1.52857,-0.31835,5.77696,4.22838,-0.35662,5.89333,A,111707.20
4.30261,57.68791029,11.98135031,57.68789,11.98134,11:17:07.371472,0.00385,1.34683,-0.04408,0.01621,0.04370,-0.02235,-0.03332,-0.03257,-0.01726,0.98051,4.29846,1.19762,1.52280,1.52857,-0.31835,5.77696,4.22838,-0.35662,5.89333,A,111707.20
4.31271,57.68791029,11.98135031,57.68789,11.98134,11:17:07.381564,0.00355,1.34683,-0.04371,0.01582,0.04783,-0.00570,-0.03546,-0.13377,-0.02806,0.99137,4.30885,1.19762,1.52280,1.52857,-0.31835,5.77696,4.22838,-0.35662,5.89333,A,111707.20
4.32309,57.68791029,11.98135031,57.68789,11.98134,11:17:07.391953,0.00353,1.34683,-0.04330,0.01528,0.03866,0.01751,-0.03637,-0.07393,-0.01726,0.89725,4.31923,1.19762,1.52280,1.52857,-0.31835,5.77696,4.22838,-0.35662,5.89333,A,111707.20
4.34629,57.68791029,11.98135031,57.68790,11.98134,11:17:07.415153,0.01634,1.34683,-0.04300,0.01454,0.03592,0.01583,-0.03989,-0.13652,-0.02227,0.92982,4.32945,1.19762,1.52280,1.52857,-0.31835,5.77696,4.34465,-0.33681,6.15279,A,111707.30
4.36395,57.68791239,11.98135025,57.68790,11.98134,11:17:07.432822,0.00789,1.34683,-0.04207,0.01211,0.02920,0.01155,-0.04218,0.06789,-0.00897,1.04938,4.35593,1.21254,1.52188,1.52547,-0.32220,6.01097,4.34465,-0.33681,6.15279,A,111707.30
4.36991,57.68791239,11.98135025,57.68790,11.98134,11:17:07.438786,0.00362,1.34683,-0.04129,0.01120,0.01973,-0.01151,-0.04233,-0.04459,0.02336,1.17407,4.36584,1.21254,1.52188,1.52547,-0.32220,6.01097,4.34465,-0.33681,6.15279,A,111707.30
4.38024,57.68791239,11.98135025,57.68790,11.98134,11:17:07.449100,0.00355,1.34683,-0.04080,0.01033,0.02141,0.00041,-0.04630,-0.04874,-0.00183,1.16028,4.37638,1.21254,1.52188,1.52547,-0.32220,6.01097,4.34465,-0.33681,6.15279,A,111707.30
4.39063,57.68791239,11.98135025,57.68790,11.98134,11:17:07.459490,0.00353,1.34683,-0.04114,0.00959,0.02095,-0.00631,-0.04783,0.07485,-0.05185,0.94440,4.38676,1.21254,1.52188,1.52547,-0.32220,6.01097,4.34465,-0.33681,6.15279,A,111707.30
4.40138,57.68791239,11.98135025,57.68790,11.98134,11:17:07.470462,0.00371,1.34683,-0.04201,0.00891,0.01011,-0.04190,-0.04584,0.03410,-0.06356,0.76445,4.39741,1.21254,1.52188,1.52547,-0.32220,6.01097,4.34465,-0.33681,6.15279,A,111707.30
4.41163,57.68791239,11.98135025,57.68790,11.98134,11:17:07.480498,0.00356,1.34683,-0.04268,0.00835,0.00354,-0.05839,-0.04248,-0.05520,-0.05057,0.76067,4.40778,1.21254,1.52188,1.52547,-0.32220,6.01097,4.34465,-0.33681,6.15279,A,111707.30
4.42188,57.68791239,11.98135025,57.68790,11.98134,11:17:07.490766,0.00357,1.34683,-0.04272,0.00781,-0.00685,-0.05702,-0.04172,-0.14902,-0.01549,0.84058,4.41782,1.21254,1.52188,1.52547,-0.32220,6.01097,4.34465,-0.33681,6.15279,A,111707.30
4.43225,57.68791239,11.98135025,57.68790,11.98134,11:17:07.501117,0.00355,1.34683,-0.04218,0.00718,-0.00455,-0.03701,-0.04080,-0.12121,0.01775,0.95483,4.42840,1.21254,1.52188,1.52547,-0.32220,6.01097,4.34465,-0.33681,6.15279,A,111707.30
4.44265,57.68791239,11.98135025,57.68790,11.98134,11:17:07.511513,0.00354,1.34683,-0.04121,0.00645,-0.00639,-0.01441,-0.04279,-0.03148,0.04965,1.01437,4.43879,1.21254,1.52188,1.52547,-0.32220,6.01097,4.34465,-0.33681,6.15279,A,111707.30
4.46583,57.68791239,11.98135025,57.68790,11.98134,11:17:07.534715,0.01614,1.34683,-0.04155,0.00549,-0.00440,0.00041,-0.04706,0.02623,-0.04203,1.07933,4.44917,1.21254,1.52188,1.52547,-0.32220,6.01097,4.46413,-0.34672,6.33811,A,111707.40
4.48351,57.68791433,11.98135015,57.68790,11.98134,11:17:07.552403,0.00782,1.34683,-0.04276,0.00223,-0.04518,-0.00891,-0.06004,0.03654,-0.02025,1.02657,4.47648,1.22597,1.53331,1.53398,-0.32816,6.22658,4.46413,-0.34672,6.33811,A,111707.40
4.48930,57.68791433,11.98135015,57.68790,11.98134,11:17:07.558378,0.00338,1.34683,-0.04214,0.00110,-0.05220,-0.04648,-0.06081,0.12718,0.04429,0.88493,4.48545,1.22597,1.53331,1.53398,-0.32816,6.22658,4.46413,-0.34672,6.33811,A,111707.40
4.49985,57.68791433,11.98135015,57.68790,11.98134,11:17:07.568983,0.00352,1.34683,-0.04207,-0.00012,-0.05388,-0.09474,-0.05806,0.05411,0.01726,0.82899,4.49600,1.22597,1.53331,1.53398,-0.32816,6.22658,4.46413,-0.34672,6.33811,A,111707.40
4.51028,57.68791433,11.98135015,57.68790,11.98134,11:17:07.579144,0.00355,1.34683,-0.04248,-0.00111,-0.05541,-0.11596,-0.06188,-0.08308,-0.01068,0.97246,4.50620,1.22597,1.53331,1.53398,-0.32816,6.22658,4.46413,-0.34672,6.33811,A,111707.40
4.52083,57.68791433,11.98135015,57.68790,11.98134,11:17:07.589690,0.00371,1.34683,-0.04301,-0.00199,-0.05923,-0.06648,-0.06035,-0.21082,-0.01702,1.10758,4.51696,1.22597,1.53331,1.53398,-0.32816,6.22658,4.46413,-0.34672,6.33811,A,111707.40
4.53112,57.68791433,11.98135015,57.68790,11.98134,11:17:07.599982,0.00359,1.34683,-0.04276,-0.00261,-0.06427,-0.00555,-0.06050,-0.19191,0.04319,1.14192,4.52725,1.22597,1.53331,1.53398,-0.32816,6.22658,4.46413,-0.34672,6.33811,A,111707.40
4.54130,57.68791433,11.98135015,57.68790,11.98134,11:17:07.610371,0.00336,1.34683,-0.04466,-0.00300,-0.06106,0.03645,-0.05867,-0.04795,-0.12206,1.12563,4.53745,1.22597,1.53331,1.53398,-0.32816,6.22658,4.46413,-0.34672,6.33811,A,111707.40
4.55189,57.68791433,11.98135015,57.68790,11.98134,11:17:07.620751,0.00354,1.34683,-0.04584,-0.00323,-0.06534,0.04759,-0.05165,0.01787,-0.06368,1.10758,4.54802,1.22597,1.53331,1.53398,-0.32816,6.22658,4.46413,-0.34672,6.33811,A,111707.40
4.56228,57.68791433,11.98135015,57.68790,11.98134,11:17:07.631149,0.00354,1.34683,-0.04528,-0.00329,-0.06686,0.03614,-0.05470,-0.02684,0.06118,1.07830,4.55821,1.22597,1.53331,1.53398,-0.32816,6.22658,4.46413,-0.34672,6.33811,A,111707.40
4.59772,57.68791433,11.98135015,57.68790,11.98133,11:17:07.666605,0.02857,1.34683,-0.04498,-0.00329,-0.06595,0.01873,-0.05073,-0.03215,0.04240,1.03267,4.56883,1.22597,1.53331,1.53398,-0.32816,6.22658,4.59602,-0.38634,6.61610,A,111707.60
4.61185,57.68791656,11.98134981,57.68790,11.98133,11:17:07.680725,0.00732,1.34683,-0.04868,-0.00329,-0.06870,-0.05518,-0.06340,-0.08967,-0.09614,0.89432,4.60520,1.23806,1.55147,1.55049,-0.34803,6.47496,4.59602,-0.38634,6.61610,A,111707.60
4.61843,57.68791656,11.98134981,57.68790,11.98133,11:17:07.687291,0.00368,1.34683,-0.04954,-0.00329,-0.08076,-0.02937,-0.06768,-0.20551,-0.03636,0.97746,4.61432,1.23806,1.55147,1.55049,-0.34803,6.47496,4.59602,-0.38634,6.61610,A,111707.60
4.62869,57.68791656,11.98134981,57.68790,11.98133,11:17:07.697553,0.00354,1.34683,-0.04955,-0.00329,-0.08213,0.01064,-0.05455,-0.14201,0.02629,0.96557,4.62483,1.23806,1.55147,1.55049,-0.34803,6.47496,4.59602,-0.38634,6.61610,A,111707.60
4.63909,57.68791656,11.98134981,57.68790,11.98133,11:17:07.707955,0.00354,1.34683,-0.04964,-0.00329,-0.06961,0.02988,-0.05485,-0.05508,0.01232,0.98747,4.63522,1.23806,1.55147,1.55049,-0.34803,6.47496,4.59602,-0.38634,6.61610,A,111707.60
4.64931,57.68791656,11.98134981,57.68790,11.98133,11:17:07.718510,0.00336,1.34683,-0.05014,-0.00329,-0.07221,0.03324,-0.04966,0.03581,-0.01531,1.06097,4.64544,1.23806,1.55147,1.55049,-0.34803,6.47496,4.59602,-0.38634,6.61610,A,111707.60
4.65988,57.68791656,11.98134981,57.68790,11.98133,11:17:07.728742,0.00353,1.34683,-0.05074,-0.00329,-0.07648,0.01476,-0.04829,-0.01824,-0.01848,1.13844,4.65602,1.23806,1.55147,1.55049,-0.34803,6.47496,4.59602,-0.38634,6.61610,A,111707.60
4.67029,57.68791656,11.98134981,57.68790,11.98133,11:17:07.739155,0.00354,1.34683,-0.05142,-0.00329,-0.08595,0.00575,-0.04920,0.01580,-0.01995,1.09550,4.66621,1.23806,1.55147,1.55049,-0.34803,6.47496,4.59602,-0.38634,6.61610,A,111707.60
4.68068,57.68791656,11.98134981,57.68790,11.98133,11:17:07.749718,0.00353,1.34683,-0.05233,-0.00329,-0.09298,-0.02617,-0.04981,0.00220,-0.02800,1.04401,4.67683,1.23806,1.55147,1.55049,-0.34803,6.47496,4.59602,-0.38634,6.61610,A,111707.60
4.69114,57.68791656,11.98134981,57.68790,11.98133,11:17:07.760003,0.00359,1.34683,-0.05298,-0.00329,-0.09221,-0.03747,-0.05760,-0.08406,-0.01177,1.02486,4.68727,1.23806,1.55147,1.55049,-0.34803,6.47496,4.59602,-0.38634,6.61610,A,111707.60
4.71421,57.68791656,11.98134981,57.68790,11.98133,11:17:07.783077,0.01626,1.34683,-0.05369,-0.00329,-0.09221,-0.03411,-0.06081,-0.07802,-0.01879,1.02297,4.69744,1.23806,1.55147,1.55049,-0.34803,6.47496,4.71261,-0.41606,6.76436,A,111707.70
4.73135,57.68791839,11.98134938,57.68790,11.98133,11:17:07.800218,0.00742,1.35793,-0.05592,-0.00329,-0.09145,0.01171,-0.05455,-0.10840,-0.01787,0.95837,4.72468,1.25004,1.57285,1.57187,-0.37347,6.67782,4.71261,-0.41606,6.76436,A,111707.70
4.73863,57.68791839,11.98134938,57.68790,11.98133,11:17:07.807490,0.00446,1.35793,-0.05667,-0.00329,-0.08275,0.02744,-0.04096,-0.12609,-0.02775,0.90548,4.73472,1.25004,1.57285,1.57187,-0.37347,6.67782,4.71261,-0.41606,6.76436,A,111707.70
4.74821,57.68791839,11.98134938,57.68790,11.98133,11:17:07.817075,0.00365,1.35793,-0.05782,-0.00329,-0.08397,0.03599,-0.03637,-0.13756,-0.05533,0.92738,4.74434,1.25004,1.57285,1.57187,-0.37347,6.67782,4.71261,-0.41606,6.76436,A,111707.70
4.75850,57.68791839,11.98134938,57.68790,11.98133,11:17:07.827368,0.00353,1.35793,-0.05843,-0.00329,-0.07847,0.03950,-0.02813,-0.04563,-0.02513,0.94922,4.75442,1.25004,1.57285,1.57187,-0.37347,6.67782,4.71261,-0.41606,6.76436,A,111707.70
4.76890,57.68791839,11.98134938,57.68790,11.98133,11:17:07.837759,0.00353,1.35793,-0.05929,-0.00329,-0.07893,0.02866,-0.02660,-0.07973,-0.04221,1.05798,4.76505,1.25004,1.57285,1.57187,-0.37347,6.67782,4.71261,-0.41606,6.76436,A,111707.70
4.77932,57.68791839,11.98134938,57.68790,11.98133,11:17:07.848185,0.00355,1.35793,-0.05982,-0.00329,-0.07954,0.02866,-0.02309,-0.04849,-0.02190,1.10416,4.77546,1.25004,1.57285,1.57187,-0.37347,6.67782,4.71261,-0.41606,6.76436,A,111707.70
4.78938,57.68791839,11.98134938,57.68790,11.98133,11:17:07.858473,0.00336,1.35793,-0.06024,-0.00329,-0.08076,0.02209,-0.03179,0.03324,-0.01415,1.01522,4.78552,1.25004,1.57285,1.57187,-0.37347,6.67782,4.71261,-0.41606,6.76436,A,111707.70
4.79995,57.68791839,11.98134938,57.68790,11.98133,11:17:07.868813,0.00354,1.35793,-0.06130,-0.00329,-0.08366,-0.00127,-0.03698,-0.07710,-0.05710,1.08836,4.79610,1.25004,1.57285,1.57187,-0.37347,6.67782,4.71261,-0.41606,6.76436,A,111707.70
4.81038,57.68791839,11.98134938,57.68790,11.98133,11:17:07.879242,0.00356,1.35793,-0.06196,-0.00320,-0.09695,0.00178,-0.04523,-0.13298,-0.02129,1.05262,4.80629,1.25004,1.57285,1.57187,-0.37347,6.67782,4.71261,-0.41606,6.76436,A,111707.70
4.83337,57.68791839,11.98134938,57.68790,11.98133,11:17:07.902528,0.01614,1.35793,-0.06281,-0.00283,-0.09130,0.01140,-0.04355,-0.04935,-0.03080,0.90134,4.81692,1.25004,1.57285,1.57187,-0.37347,6.67782,4.83187,-0.49531,6.83849,A,111707.80
4.84902,57.68791975,11.98134856,57.68790,11.98133,11:17:07.917895,0.00707,1.35793,-0.06570,-0.00012,-0.08427,-0.01471,-0.01774,-0.15610,-0.09119,0.99643,4.84283,1.26083,1.65418,1.65415,-0.42230,6.82873,4.83187,-0.49531,6.83849,A,111707.80
4.85664,57.68791975,11.98134856,57.68790,11.98133,11:17:07.925518,0.00429,1.35793,-0.06629,0.00121,-0.09771,0.01232,-0.02064,-0.08930,-0.02068,1.01778,4.85272,1.26083,1.65418,1.65415,-0.42230,6.82873,4.83187,-0.49531,6.83849,A,111707.80
4.86629,57.68791975,11.98134856,57.68790,11.98133,11:17:07.935152,0.00353,1.35793,-0.06750,0.00249,-0.08580,0.01491,-0.01820,-0.03587,-0.07290,1.01101,4.86223,1.26083,1.65418,1.65415,-0.42230,6.82873,4.83187,-0.49531,6.83849,A,111707.80
4.87672,57.68791975,11.98134856,57.68790,11.98133,11:17:07.945584,0.00356,1.35793,-0.06880,0.00353,-0.09267,0.01659,-0.02416,0.01836,-0.07107,1.04316,4.87286,1.26083,1.65418,1.65415,-0.42230,6.82873,4.83187,-0.49531,6.83849,A,111707.80
4.88712,57.68791975,11.98134856,57.68790,11.98133,11:17:07.955987,0.00355,1.35793,-0.06933,0.00430,-0.09267,0.00483,-0.02584,-0.06789,-0.02043,1.08842,4.88325,1.26083,1.65418,1.65415,-0.42230,6.82873,4.83187,-0.49531,6.83849,A,111707.80
4.89733,57.68791975,11.98134856,57.68790,11.98133,11:17:07.966395,0.00337,1.35793,-0.06941,0.00484,-0.08946,0.00987,-0.02935,-0.07613,0.00720,1.10465,4.89347,1.26083,1.65418,1.65415,-0.42230,6.82873,4.83187,-0.49531,6.83849,A,111707.80
4.90786,57.68791975,11.98134856,57.68790,11.98133,11:17:07.976724,0.00350,1.35793,-0.07038,0.00532,-0.08351,0.00575,-0.03072,0.02330,-0.05453,1.00205,4.90402,1.26083,1.65418,1.65415,-0.42230,6.82873,4.83187,-0.49531,6.83849,A,111707.80
4.91831,57.68791975,11.98134856,57.68790,11.98133,11:17:07.987175,0.00355,1.35793,-0.07142,0.00585,-0.07526,-0.00341,-0.02584,-0.12084,-0.07149,1.06213,4.91423,1.26083,1.65418,1.65415,-0.42230,6.82873,4.83187,-0.49531,6.83849,A,111707.80
4.92883,57.68791975,11.98134856,57.68790,11.98133,11:17:07.997690,0.00367,1.35793,-0.07206,0.00668,-0.06915,0.01445,-0.02477,-0.01019,-0.04325,1.00802,4.92497,1.26083,1.65418,1.65415,-0.42230,6.82873,4.83187,-0.49531,6.83849,A,111707.80
4.95161,57.68791975,11.98134856,57.68790,11.98133,11:17:08.020483,0.01606,1.35793,-0.07305,0.00775,-0.06091,0.00758,-0.01423,0.01421,-0.06917,0.92269,4.93523,1.26083,1.65418,1.65415,-0.42230,6.82873,4.95012,-0.55475,6.96822,A,111707.90
4.96853,57.68792103,11.98134755,57.68790,11.98133,11:17:08.037401,0.00845,1.35793,-0.07459,0.01146,-0.05617,-0.00066,-0.00675,-0.16336,-0.05868,1.00900,4.96089,1.27054,1.68879,1.69220,-0.48259,6.97209,4.95012,-0.55475,6.96822,A,111707.90
4.97414,57.68792103,11.98134755,57.68790,11.98133,11:17:08.043006,0.00354,1.35793,-0.07508,0.01285,-0.05388,0.01797,-0.01316,-0.04209,-0.05051,0.97106,4.97008,1.27054,1.68879,1.69220,-0.48259,6.97209,4.95012,-0.55475,6.96822,A,111707.90
4.98456,57.68792103,11.98134755,57.68790,11.98133,11:17:08.053423,0.00356,1.35793,-0.07604,0.01432,-0.04945,0.00606,-0.01270,0.10272,-0.07369,0.91189,4.98070,1.27054,1.68879,1.69220,-0.48259,6.97209,4.95012,-0.55475,6.96822,A,111707.90
4.99528,57.68792103,11.98134755,57.68790,11.98133,11:17:08.064139,0.00365,1.35793,-0.07635,0.01553,-0.05067,-0.02769,-0.00782,0.03123,-0.03928,1.02663,4.99127,1.27054,1.68879,1.69220,-0.48259,6.97209,4.95012,-0.55475,6.96822,A,111707.90
5.00585,57.68792103,11.98134755,57.68790,11.98133,11:17:08.074726,0.00362,1.35793,-0.07654,0.01655,-0.05266,-0.01762,-0.01484,-0.12639,-0.03331,1.12441,5.00179,1.27054,1.68879,1.69220,-0.48259,6.97209,4.95012,-0.55475,6.96822,A,111707.90
5.02189,57.68792103,11.98134755,57.68790,11.98133,11:17:08.090806,0.00927,1.35793,0.00000,0.01735,-0.04380,-0.00127,-0.00980,-0.06832,-0.04136,1.03682,5.01231,1.27054,1.68879,1.69220,-0.48259,6.97209,4.95012,-0.55475,6.96822,A,111707.90
5.03131,57.68792103,11.98134755,57.68790,11.98133,11:17:08.100209,0.00799,1.35793,-0.00217,0.01808,-0.04579,0.00361,-0.01484,-0.00988,-0.04770,0.98881,5.02669,1.27054,1.68879,1.69220,-0.48259,6.97209,4.95012,-0.55475,6.96822,A,111707.90
5.03724,57.68792103,11.98134755,57.68790,11.98133,11:17:08.106344,0.00339,1.35793,-0.00402,0.01831,-0.04594,0.00361,-0.01133,-0.01092,-0.06838,0.97685,5.03335,1.27054,1.68879,1.69220,-0.48259,6.97209,4.95012,-0.55475,6.96822,A,111707.90
5.04780,57.68792103,11.98134755,57.68790,11.98133,11:17:08.116670,0.00355,1.35793,-0.00612,0.01853,-0.05235,0.00468,-0.01056,0.01940,-0.06612,0.92885,5.04393,1.27054,1.68879,1.69220,-0.48259,6.97209,4.95012,-0.55475,6.96822,A,111707.90
5.07078,57.68792103,11.98134755,57.68791,11.98133,11:17:08.139661,0.01607,1.35793,-0.00793,0.01868,-0.04625,-0.00234,-0.00675,-0.04514,-0.05594,0.94916,5.05417,1.27054,1.68879,1.69220,-0.48259,6.97209,5.06921,-0.56465,7.17207,A,111708.00
5.08621,57.68792253,11.98134682,57.68791,11.98133,11:17:08.155088,0.00735,1.35793,-0.01013,0.01890,-0.03678,0.00560,-0.00659,-0.03703,-0.06362,1.05097,5.07868,1.27928,1.68303,1.68864,-0.52596,7.13851,5.06921,-0.56465,7.17207,A,111708.00
5.09374,57.68792253,11.98134682,57.68791,11.98133,11:17:08.162639,0.00449,1.35793,-0.01168,0.01904,-0.04151,0.01110,-0.01087,0.01543,-0.05185,1.07641,5.08969,1.27928,1.68303,1.68864,-0.52596,7.13851,5.06921,-0.56465,7.17207,A,111708.00
5.10341,57.68792253,11.98134682,57.68791,11.98133,11:17:08.172286,0.00376,1.35793,-0.01338,0.01930,-0.04182,0.01232,-0.01316,-0.02763,-0.07155,1.11575,5.09951,1.27928,1.68303,1.68864,-0.52596,7.13851,5.06921,-0.56465,7.17207,A,111708.00
5.11326,57.68792253,11.98134682,57.68791,11.98133,11:17:08.182358,0.00332,1.35793,-0.01496,0.01967,-0.03998,0.02682,-0.01163,-0.02574,-0.06191,1.08732,5.10945,1.27928,1.68303,1.68864,-0.52596,7.13851,5.06921,-0.56465,7.17207,A,111708.00
5.12398,57.68792253,11.98134682,57.68791,11.98133,11:17:08.192849,0.00363,1.35793,-0.01693,0.02006,-0.03388,0.02117,-0.00995,-0.05429,-0.08729,1.00906,5.12009,1.27928,1.68303,1.68864,-0.52596,7.13851,5.06921,-0.56465,7.17207,A,111708.00
5.13438,57.68792253,11.98134682,57.68791,11.98133,11:17:08.203250,0.00358,1.35793,-0.01873,0.02040,-0.03693,0.01965,-0.00904,0.01549,-0.06948,0.93733,5.13026,1.27928,1.68303,1.68864,-0.52596,7.13851,5.06921,-0.56465,7.17207,A,111708.00
5.14476,57.68792253,11.98134682,57.68791,11.98133,11:17:08.213631,0.00356,1.35793,-0.02107,0.02077,-0.03036,0.01110,-0.01026,0.07161,-0.09699,0.84735,5.14087,1.27928,1.68303,1.68864,-0.52596,7.13851,5.06921,-0.56465,7.17207,A,111708.00
5.15515,57.68792253,11.98134682,57.68791,11.98133,11:17:08.224021,0.00356,1.35793,-0.02313,0.02117,-0.03021,-0.01105,-0.01011,-0.02233,-0.08686,0.88444,5.15126,1.27928,1.68303,1.68864,-0.52596,7.13851,5.06921,-0.56465,7.17207,A,111708.00
5.16533,57.68792253,11.98134682,57.68791,11.98133,11:17:08.234434,0.00338,1.35793,-0.02532,0.02159,-0.02380,0.00117,-0.00644,-0.10748,-0.11730,1.01162,5.16145,1.27928,1.68303,1.68864,-0.52596,7.13851,5.06921,-0.56465,7.17207,A,111708.00
5.19946,57.68792253,11.98134682,57.68791,11.98133,11:17:08.268328,0.02711,1.35793,-0.02657,0.02202,-0.03097,0.02606,-0.00659,-0.04557,-0.05167,1.04700,5.17203,1.27928,1.68303,1.68864,-0.52596,7.13851,5.19801,-0.59437,7.46859,A,111708.20
5.21479,57.68792459,11.98134616,57.68791,11.98133,11:17:08.283665,0.00702,1.35793,-0.02797,0.02284,-0.02670,0.00529,-0.00446,-0.04642,-0.01800,1.03322,5.20862,1.28715,1.68403,1.69081,-0.56475,7.36707,5.19801,-0.59437,7.46859,A,111708.20
5.22217,57.68792459,11.98134616,57.68791,11.98133,11:17:08.291089,0.00417,1.35793,-0.02942,0.02284,-0.02273,-0.00463,-0.01209,-0.06265,-0.07796,1.05945,5.21751,1.28715,1.68403,1.69081,-0.56475,7.36707,5.19801,-0.59437,7.46859,A,111708.20
5.23197,57.68792459,11.98134616,57.68791,11.98133,11:17:08.300838,0.00358,1.35793,-0.03076,0.02284,-0.02181,0.00651,-0.00995,-0.04246,-0.06686,1.02327,5.22808,1.28715,1.68403,1.69081,-0.56475,7.36707,5.19801,-0.59437,7.46859,A,111708.20
5.24237,57.68792459,11.98134616,57.68791,11.98133,11:17:08.311246,0.00359,1.35793,-0.03208,0.02292,-0.01066,0.02056,-0.01316,-0.00988,-0.07655,1.03920,5.23826,1.28715,1.68403,1.69081,-0.56475,7.36707,5.19801,-0.59437,7.46859,A,111708.20
5.25272,57.68792459,11.98134616,57.68791,11.98133,11:17:08.321591,0.00354,1.35793,-0.03376,0.02315,-0.01433,0.02560,-0.00934,0.00854,-0.09571,1.00845,5.24884,1.28715,1.68403,1.69081,-0.56475,7.36707,5.19801,-0.59437,7.46859,A,111708.20
5.26314,57.68792459,11.98134616,57.68791,11.98133,11:17:08.332019,0.00356,1.35793,-0.03532,0.02357,-0.01463,0.01537,-0.00491,0.03178,-0.08101,0.92805,5.25926,1.28715,1.68403,1.69081,-0.56475,7.36707,5.19801,-0.59437,7.46859,A,111708.20
5.27334,57.68792459,11.98134616,57.68791,11.98133,11:17:08.342440,0.00339,1.35793,-0.03647,0.02417,-0.01387,0.00697,-0.00430,-0.06448,-0.05649,0.92195,5.26947,1.28715,1.68403,1.69081,-0.56475,7.36707,5.19801,-0.59437,7.46859,A,111708.20
5.28443,57.68792459,11.98134616,57.68791,11.98133,11:17:08.353306,0.00408,1.35793,-0.03782,0.02504,-0.00746,0.01247,0.00028,-0.04477,-0.06966,0.89194,5.28037,1.28715,1.68403,1.69081,-0.56475,7.36707,5.19801,-0.59437,7.46859,A,111708.20
5.29448,57.68792459,11.98134616,57.68791,11.98133,11:17:08.363348,0.00373,1.30285,-0.03854,0.02598,0.00079,0.01278,0.00058,0.03812,-0.03776,0.88822,5.29037,1.28715,1.68403,1.69081,-0.56475,7.36707,5.19801,-0.59437,7.46859,A,111708.20
5.31744,57.68792459,11.98134616,57.68791,11.98133,11:17:08.386440,0.01629,1.30285,-0.03975,0.02705,0.00247,-0.00234,0.00058,0.02898,-0.07357,0.94776,5.30103,1.28715,1.68403,1.69081,-0.56475,7.36707,5.31600,-0.63400,7.61685,A,111708.30
5.33173,57.68792627,11.98134552,57.68791,11.98133,11:17:08.400609,0.00628,1.30285,-0.03993,0.03017,0.01438,0.00911,0.01020,-0.07753,-0.03672,1.12576,5.32518,1.28872,1.70121,1.71017,-0.60302,7.55465,5.31600,-0.63400,7.61685,A,111708.30
5.33935,57.68792627,11.98134552,57.68791,11.98133,11:17:08.408232,0.00352,1.30285,-0.04080,0.03181,0.02553,0.02576,0.01356,-0.01068,-0.07716,1.08739,5.33554,1.28872,1.70121,1.71017,-0.60302,7.55465,5.31600,-0.63400,7.61685,A,111708.30
5.34947,57.68792627,11.98134552,57.68791,11.98133,11:17:08.418583,0.00340,1.30285,-0.04146,0.03356,0.02141,0.02484,0.01448,0.01177,-0.05075,0.99046,5.34559,1.28872,1.70121,1.71017,-0.60302,7.55465,5.31600,-0.63400,7.61685,A,111708.30
5.36003,57.68792627,11.98134552,57.68791,11.98133,11:17:08.428895,0.00356,1.30285,-0.04267,0.03549,0.02996,0.01201,0.01524,0.01995,-0.09107,0.96996,5.35614,1.28872,1.70121,1.71017,-0.60302,7.55465,5.31600,-0.63400,7.61685,A,111708.30
5.37057,57.68792627,11.98134552,57.68791,11.98133,11:17:08.439453,0.00371,1.30285,-0.04344,0.03741,0.03194,-0.00112,0.01601,-0.03447,-0.06216,0.97057,5.36633,1.28872,1.70121,1.71017,-0.60302,7.55465,5.31600,-0.63400,7.61685,A,111708.30
5.38080,57.68792627,11.98134552,57.68791,11.98133,11:17:08.449666,0.00354,1.30285,-0.04338,0.03939,0.02553,-0.01441,0.02288,-0.05746,-0.00378,0.96545,5.37692,1.28872,1.70121,1.71017,-0.60302,7.55465,5.31600,-0.63400,7.61685,A,111708.30
5.39117,57.68792627,11.98134552,57.68791,11.98133,11:17:08.460043,0.00351,1.30285,-0.04318,0.04132,0.03393,-0.01059,0.02578,-0.04008,0.00079,0.99210,5.38728,1.28872,1.70121,1.71017,-0.60302,7.55465,5.31600,-0.63400,7.61685,A,111708.30
5.40134,57.68792627,11.98134552,57.68791,11.98133,11:17:08.470432,0.00338,1.30285,-0.04415,0.04327,0.04523,-0.00540,0.02395,-0.01897,-0.08107,0.97935,5.39745,1.28872,1.70121,1.71017,-0.60302,7.55465,5.31600,-0.63400,7.61685,A,111708.30
5.41193,57.68792627,11.98134552,57.68791,11.98133,11:17:08.480804,0.00356,1.30285,-0.04495,0.04517,0.04706,0.00376,0.02349,-0.02483,-0.08015,1.05890,5.40805,1.28872,1.70121,1.71017,-0.60302,7.55465,5.31600,-0.63400,7.61685,A,111708.30
5.43481,57.68792627,11.98134552,57.68791,11.98133,11:17:08.503679,0.01604,1.30285,-0.04573,0.04687,0.04080,0.01216,0.02746,-0.07076,-0.07283,1.06335,5.41823,1.28872,1.70121,1.71017,-0.60302,7.55465,5.43323,-0.68353,7.69098,A,111708.40
5.45154,57.68792757,11.98134477,57.68791,11.98133,11:17:08.520413,0.00705,1.30285,-0.04549,0.05052,0.04997,0.00041,0.02960,-0.01135,-0.05094,0.92549,5.44546,1.29013,1.75036,1.76537,-0.64786,7.69928,5.43323,-0.68353,7.69098,A,111708.40
5.45917,57.68792757,11.98134477,57.68791,11.98133,11:17:08.528047,0.00428,1.30285,-0.04627,0.05148,0.05424,-0.00448,0.02532,-0.01793,-0.06820,0.96758,5.45533,1.29013,1.75036,1.76537,-0.64786,7.69928,5.43323,-0.68353,7.69098,A,111708.40
5.46892,57.68792757,11.98134477,57.68791,11.98133,11:17:08.537789,0.00363,1.30285,-0.04707,0.05247,0.04859,-0.00784,0.02792,-0.00970,-0.06448,0.96465,5.46503,1.29013,1.75036,1.76537,-0.64786,7.69928,5.43323,-0.68353,7.69098,A,111708.40
5.47916,57.68792757,11.98134477,57.68791,11.98133,11:17:08.548032,0.00349,1.30285,-0.04801,0.05329,0.04645,-0.01746,0.02792,-0.00189,-0.07442,0.96978,5.47527,1.29013,1.75036,1.76537,-0.64786,7.69928,5.43323,-0.68353,7.69098,A,111708.40
5.48933,57.68792757,11.98134477,57.68791,11.98133,11:17:08.558435,0.00338,1.30285,-0.04837,0.05403,0.04951,-0.02204,0.03052,-0.02251,-0.04197,1.00607,5.48546,1.29013,1.75036,1.76537,-0.64786,7.69928,5.43323,-0.68353,7.69098,A,111708.40
5.49992,57.68792757,11.98134477,57.68791,11.98133,11:17:08.568791,0.00357,1.30285,-0.04910,0.05468,0.05195,-0.02495,0.03601,-0.07094,-0.06863,0.99162,5.49603,1.29013,1.75036,1.76537,-0.64786,7.69928,5.43323,-0.68353,7.69098,A,111708.40
5.51033,57.68792757,11.98134477,57.68791,11.98133,11:17:08.579204,0.00359,1.30285,-0.04970,0.05521,0.06004,-0.00952,0.04090,-0.03721,-0.06442,0.99576,5.50622,1.29013,1.75036,1.76537,-0.64786,7.69928,5.43323,-0.68353,7.69098,A,111708.40
5.52068,57.68792757,11.98134477,57.68791,11.98133,11:17:08.589555,0.00354,1.30285,-0.05009,0.05564,0.04752,-0.00998,0.03754,-0.02684,-0.04502,1.01431,5.51681,1.29013,1.75036,1.76537,-0.64786,7.69928,5.43323,-0.68353,7.69098,A,111708.40
5.53110,57.68792757,11.98134477,57.68791,11.98133,11:17:08.599973,0.00356,1.30285,-0.05018,0.05581,0.04126,-0.01288,0.03953,-0.08247,-0.02117,1.03340,5.52721,1.29013,1.75036,1.76537,-0.64786,7.69928,5.43323,-0.68353,7.69098,A,111708.40
5.55412,57.68792757,11.98134477,57.68791,11.98133,11:17:08.623003,0.01619,1.30285,-0.04981,0.05584,0.04233,-0.00967,0.04044,-0.00555,0.01104,1.00461,5.53743,1.29013,1.75036,1.76537,-0.64786,7.69928,5.55242,-0.70334,7.80218,A,111708.50
5.56633,57.68792871,11.98134411,57.68791,11.98133,11:17:08.635204,0.00581,1.30285,-0.04985,0.05584,0.03943,-0.02036,0.02700,-0.01287,-0.04703,1.00266,5.56027,1.29140,1.75525,1.77183,-0.68692,7.82600,5.55242,-0.70334,7.80218,A,111708.50
5.57484,57.68792871,11.98134411,57.68791,11.98133,11:17:08.643714,0.00392,1.30285,-0.05081,0.05584,0.02645,-0.02495,0.01967,-0.06966,-0.06850,1.00711,5.57101,1.29140,1.75525,1.77183,-0.68692,7.82600,5.55242,-0.70334,7.80218,A,111708.50
5.58490,57.68792871,11.98134411,57.68791,11.98133,11:17:08.653776,0.00356,1.30285,-0.05121,0.05584,0.01835,-0.01105,0.01387,-0.11523,-0.02782,1.04835,5.58101,1.29140,1.75525,1.77183,-0.68692,7.82600,5.55242,-0.70334,7.80218,A,111708.50
5.59518,57.68792871,11.98134411,57.68791,11.98133,11:17:08.664055,0.00344,1.30285,-0.05147,0.05584,0.01957,0.00544,0.01479,-0.00439,-0.01348,0.94190,5.59130,1.29140,1.75525,1.77183,-0.68692,7.82600,5.55242,-0.70334,7.80218,A,111708.50
5.60630,57.68792871,11.98134411,57.68791,11.98133,11:17:08.675211,0.00432,1.30285,-0.05251,0.05584,0.01820,-0.00738,0.01631,0.05667,-0.06179,0.94257,5.60172,1.29140,1.75525,1.77183,-0.68692,7.82600,5.55242,-0.70334,7.80218,A,111708.50
5.61624,57.68792871,11.98134411,57.68791,11.98133,11:17:08.685117,0.00387,1.30285,-0.05299,0.05584,0.01759,-0.03533,0.01753,0.04288,-0.02867,0.96246,5.61236,1.29140,1.75525,1.77183,-0.68692,7.82600,5.55242,-0.70334,7.80218,A,111708.50
5.62633,57.68792871,11.98134411,57.68791,11.98133,11:17:08.695204,0.00357,1.30285,-0.05393,0.05584,0.00904,-0.04740,0.02319,-0.11865,-0.06210,1.05414,5.62223,1.29140,1.75525,1.77183,-0.68692,7.82600,5.55242,-0.70334,7.80218,A,111708.50
5.63671,57.68792871,11.98134411,57.68791,11.98133,11:17:08.705578,0.00355,1.30285,-0.05434,0.05584,0.01484,-0.01792,0.02746,-0.05051,-0.02373,0.95654,5.63282,1.29140,1.75525,1.77183,-0.68692,7.82600,5.55242,-0.70334,7.80218,A,111708.50
5.64710,57.68792871,11.98134411,57.68791,11.98133,11:17:08.715971,0.00354,1.30285,-0.05564,0.05584,0.02293,-0.02327,0.03265,0.00323,-0.08082,0.91927,5.64321,1.29140,1.75525,1.77183,-0.68692,7.82600,5.55242,-0.70334,7.80218,A,111708.50
5.67023,57.68792871,11.98134411,57.68791,11.98133,11:17:08.739110,0.01629,1.30285,-0.05732,0.05584,0.01957,-0.01502,0.03189,-0.00830,-0.11193,0.96947,5.65345,1.29140,1.75525,1.77183,-0.68692,7.82600,5.66856,-0.70334,7.91337,A,111708.60
5.68126,57.68792980,11.98134370,57.68791,11.98133,11:17:08.750391,0.00553,1.30285,-0.05754,0.05584,0.01163,0.01690,0.02685,-0.02422,-0.02678,1.04267,5.67550,1.29255,1.74261,1.75920,-0.71103,7.94702,5.66856,-0.70334,7.91337,A,111708.60
5.68930,57.68792980,11.98134370,57.68791,11.98133,11:17:08.758382,0.00333,1.30285,-0.05744,0.05584,0.00797,0.00224,0.02120,0.03166,0.00872,0.99723,5.68549,1.29255,1.74261,1.75920,-0.71103,7.94702,5.66856,-0.70334,7.91337,A,111708.60
5.69998,57.68792980,11.98134370,57.68791,11.98133,11:17:08.768857,0.00355,1.30285,-0.05776,0.05584,0.01713,-0.01746,0.02257,0.02690,-0.02721,1.02669,5.69610,1.29255,1.74261,1.75920,-0.71103,7.94702,5.66856,-0.70334,7.91337,A,111708.60
5.71041,57.68792980,11.98134370,57.68791,11.98133,11:17:08.779278,0.00357,1.30285,-0.05852,0.05584,0.01423,-0.03167,0.02151,-0.02135,-0.05722,1.04401,5.70630,1.29255,1.74261,1.75920,-0.71103,7.94702,5.66856,-0.70334,7.91337,A,111708.60
5.72080,57.68792980,11.98134370,57.68791,11.98133,11:17:08.789674,0.00356,1.30285,-0.05963,0.05584,0.00934,-0.02510,0.02044,-0.08070,-0.07954,1.04542,5.71691,1.29255,1.74261,1.75920,-0.71103,7.94702,5.66856,-0.70334,7.91337,A,111708.60
5.73116,57.68792980,11.98134370,57.68791,11.98133,11:17:08.800022,0.00352,1.30285,-0.06068,0.05584,0.00293,-0.01975,0.01784,0.00281,-0.06234,0.95739,5.72726,1.29255,1.74261,1.75920,-0.71103,7.94702,5.66856,-0.70334,7.91337,A,111708.60
5.74136,57.68792980,11.98134370,57.68791,11.98133,11:17:08.810454,0.00341,1.30285,-0.06144,0.05584,-0.00318,-0.02724,0.02105,-0.05905,-0.04197,0.97374,5.73747,1.29255,1.74261,1.75920,-0.71103,7.94702,5.66856,-0.70334,7.91337,A,111708.60
5.75190,57.68792980,11.98134370,57.68791,11.98133,11:17:08.820763,0.00355,1.30285,-0.06203,0.05584,0.00766,-0.00311,0.02655,-0.15055,-0.03812,0.96593,5.74801,1.29255,1.74261,1.75920,-0.71103,7.94702,5.66856,-0.70334,7.91337,A,111708.60
5.76232,57.68792980,11.98134370,57.68791,11.98133,11:17:08.831201,0.00359,1.30285,-0.06269,0.05584,0.00720,0.01781,0.02960,-0.08253,-0.04044,0.94080,5.75821,1.29255,1.74261,1.75920,-0.71103,7.94702,5.66856,-0.70334,7.91337,A,111708.60
5.79960,57.68792980,11.98134370,57.68791,11.98133,11:17:08.868472,0.03046,1.30285,-0.06369,0.05584,0.01011,0.01995,0.03281,-0.07454,-0.06911,0.97832,5.76880,1.29255,1.74261,1.75920,-0.71103,7.94702,5.79810,-0.74297,8.06163,A,111708.80
5.81524,57.68793111,11.98134317,57.68791,11.98133,11:17:08.884128,0.00818,1.30285,-0.06500,0.05584,-0.01463,-0.02357,0.01876,-0.01232,-0.05276,1.04078,5.80768,1.29358,1.75849,1.77508,-0.74273,8.09215,5.79810,-0.74297,8.06163,A,111708.80
5.82138,57.68793111,11.98134317,57.68791,11.98133,11:17:08.890465,0.00392,1.30285,-0.06580,0.05584,-0.01341,-0.01700,0.01188,-0.13890,-0.05008,1.05542,5.81715,1.29358,1.75849,1.77508,-0.74273,8.09215,5.79810,-0.74297,8.06163,A,111708.80
5.83167,57.68793111,11.98134317,57.68791,11.98133,11:17:08.900536,0.00381,1.35950,-0.06674,0.05584,-0.00959,-0.00326,0.00639,-0.12542,-0.05807,1.01528,5.82777,1.29358,1.75849,1.77508,-0.74273,8.09215,5.79810,-0.74297,8.06163,A,111708.80
5.84142,57.68793111,11.98134317,57.68791,11.98133,11:17:08.910526,0.00333,1.35950,-0.06831,0.05584,-0.01952,0.01354,0.00394,-0.06557,-0.08857,0.95916,5.83761,1.29358,1.75849,1.77508,-0.74273,8.09215,5.79810,-0.74297,8.06163,A,111708.80
5.85234,57.68793111,11.98134317,57.68791,11.98133,11:17:08.921207,0.00385,1.35950,-0.06985,0.05584,-0.02700,0.01522,0.00562,-0.02220,-0.07704,0.92220,5.84846,1.29358,1.75849,1.77508,-0.74273,8.09215,5.79810,-0.74297,8.06163,A,111708.80
5.86257,57.68793111,11.98134317,57.68791,11.98133,11:17:08.931451,0.00369,1.35950,-0.07089,0.05584,-0.02914,0.00697,0.01005,-0.02562,-0.05130,0.96179,5.85836,1.29358,1.75849,1.77508,-0.74273,8.09215,5.79810,-0.74297,8.06163,A,111708.80
5.87292,57.68793111,11.98134317,57.68791,11.98133,11:17:08.941793,0.00364,1.35950,-0.07122,0.05584,-0.02777,0.00621,0.02044,-0.04715,-0.00769,0.98100,5.86905,1.29358,1.75849,1.77508,-0.74273,8.09215,5.79810,-0.74297,8.06163,A,111708.80
5.88341,57.68793111,11.98134317,57.68791,11.98133,11:17:08.952290,0.00373,1.35950,-0.07190,0.05584,-0.02181,-0.00662,0.02166,-0.09790,-0.03995,1.03798,5.87934,1.29358,1.75849,1.77508,-0.74273,8.09215,5.79810,-0.74297,8.06163,A,111708.80
5.89369,57.68793111,11.98134317,57.68791,11.98133,11:17:08.962586,0.00373,1.35950,-0.07234,0.05581,-0.02028,-0.00112,0.02242,-0.01287,-0.02513,1.03822,5.88960,1.29358,1.75849,1.77508,-0.74273,8.09215,5.79810,-0.74297,8.06163,A,111708.80
5.91669,57.68793111,11.98134317,57.68792,11.98133,11:17:08.985569,0.01633,1.35950,-0.07306,0.05558,-0.01906,-0.01120,0.01250,0.03715,-0.04581,1.04103,5.90002,1.29358,1.75849,1.77508,-0.74273,8.09215,5.91523,-0.77268,8.20989,A,111708.90
5.93528,57.68793234,11.98134266,57.68792,11.98133,11:17:09.004157,0.00767,1.35950,-0.07461,0.05253,-0.03296,0.00132,-0.00659,-0.11767,-0.05185,1.00992,5.92913,1.30017,1.76562,1.78123,-0.77327,8.22882,5.91523,-0.77268,8.20989,A,111708.90
5.94111,57.68793234,11.98134266,57.68792,11.98133,11:17:09.009968,0.00333,1.35950,-0.07514,0.05066,-0.03510,0.01629,-0.00675,-0.08912,-0.02714,0.95398,5.93730,1.30017,1.76562,1.78123,-0.77327,8.22882,5.91523,-0.77268,8.20989,A,111708.90
5.95173,57.68793234,11.98134266,57.68792,11.98133,11:17:09.020604,0.00356,1.35950,-0.07532,0.04856,-0.03433,0.00926,-0.00736,-0.02153,-0.00098,0.93501,5.94786,1.30017,1.76562,1.78123,-0.77327,8.22882,5.91523,-0.77268,8.20989,A,111708.90
5.96215,57.68793234,11.98134266,57.68792,11.98133,11:17:09.031030,0.00358,1.35950,-0.07619,0.04633,-0.03159,0.00239,-0.00247,0.03483,-0.05118,0.95520,5.95804,1.30017,1.76562,1.78123,-0.77327,8.22882,5.91523,-0.77268,8.20989,A,111708.90
5.97273,57.68793234,11.98134266,57.68792,11.98133,11:17:09.041603,0.00376,1.35950,-0.07768,0.04401,-0.03388,-0.01456,-0.00369,-0.01641,-0.09504,0.99473,5.96884,1.30017,1.76562,1.78123,-0.77327,8.22882,5.91523,-0.77268,8.20989,A,111708.90
5.98293,57.68793234,11.98134266,57.68792,11.98133,11:17:09.051805,0.00357,1.35950,-0.07900,0.04177,-0.03159,-0.01426,-0.00843,-0.08503,-0.09455,1.02639,5.97904,1.30017,1.76562,1.78123,-0.77327,8.22882,5.91523,-0.77268,8.20989,A,111708.90
5.99327,57.68793234,11.98134266,57.68792,11.98133,11:17:09.062348,0.00338,1.35950,-0.07995,0.03945,-0.03907,-0.00204,-0.02049,-0.02885,-0.06484,1.01290,5.98939,1.30017,1.76562,1.78123,-0.77327,8.22882,5.91523,-0.77268,8.20989,A,111708.90
6.00393,57.68793234,11.98134266,57.68792,11.98133,11:17:09.072802,0.00365,1.35950,-0.08097,0.03724,-0.03143,0.00468,-0.02492,-0.02428,-0.07710,1.00876,6.00004,1.30017,1.76562,1.78123,-0.77327,8.22882,5.91523,-0.77268,8.20989,A,111708.90
6.01469,57.68793234,11.98134266,57.68792,11.98133,11:17:09.083565,0.00401,1.35950,-0.08215,0.03532,-0.02517,0.00987,-0.03133,-0.01196,-0.09321,0.99851,6.01078,1.30017,1.76562,1.78123,-0.77327,8.22882,5.91523,-0.77268,8.20989,A,111708.90
6.03715,57.68793234,11.98134266,57.68792,11.98133,11:17:09.106024,0.01607,1.35950,-0.08306,0.03379,-0.02181,0.00590,-0.02965,-0.03758,-0.07607,0.95599,6.02075,1.30017,1.76562,1.78123,-0.77327,8.22882,6.03569,-0.85193,8.28402,A,111709.00
6.05117,57.68793331,11.98134182,57.68792,11.98133,11:17:09.120052,0.00774,1.35950,-0.08355,0.03161,-0.02288,-0.00555,-0.01622,-0.04075,-0.03385,0.98686,6.04416,1.30610,1.83350,1.84288,-0.82312,8.33697,6.03569,-0.85193,8.28402,A,111709.00
6.05726,57.68793331,11.98134182,57.68792,11.98133,11:17:09.126360,0.00331,1.35950,-0.08382,0.03110,-0.00669,-0.01288,-0.01133,0.01342,-0.05124,0.98350,6.05345,1.30610,1.83350,1.84288,-0.82312,8.33697,6.03569,-0.85193,8.28402,A,111709.00
6.06789,57.68793331,11.98134182,57.68792,11.98133,11:17:09.136758,0.00354,1.35950,-0.08450,0.03087,-0.00257,-0.02204,-0.00721,0.03532,-0.08412,1.01852,6.06401,1.30610,1.83350,1.84288,-0.82312,8.33697,6.03569,-0.85193,8.28402,A,111709.00
6.07839,57.68793331,11.98134182,57.68792,11.98133,11:17:09.147257,0.00365,1.35950,-0.08523,0.03085,0.00201,-0.02250,-0.00659,-0.11791,-0.10224,1.11246,6.07420,1.30610,1.83350,1.84288,-0.82312,8.33697,6.03569,-0.85193,8.28402,A,111709.00
6.08882,57.68793331,11.98134182,57.68792,11.98133,11:17:09.157694,0.00369,1.35950,-0.08594,0.03085,-0.00685,0.00483,-0.01362,-0.09431,-0.09205,1.08946,6.08493,1.30610,1.83350,1.84288,-0.82312,8.33697,6.03569,-0.85193,8.28402,A,111709.00
6.09907,57.68793331,11.98134182,57.68792,11.98133,11:17:09.167946,0.00354,1.35950,-0.08630,0.03085,-0.01005,0.01415,-0.01637,0.02690,-0.05453,0.95947,6.09519,1.30610,1.83350,1.84288,-0.82312,8.33697,6.03569,-0.85193,8.28402,A,111709.00
6.10932,57.68793331,11.98134182,57.68792,11.98133,11:17:09.178394,0.00338,1.35950,-0.08647,0.03082,-0.01158,0.00331,-0.02355,0.01086,-0.03593,0.87145,6.10543,1.30610,1.83350,1.84288,-0.82312,8.33697,6.03569,-0.85193,8.28402,A,111709.00
6.11990,57.68793331,11.98134182,57.68792,11.98133,11:17:09.188770,0.00356,1.35950,-0.08643,0.03070,-0.00700,-0.01044,-0.02706,-0.02775,-0.02507,0.84778,6.11601,1.30610,1.83350,1.84288,-0.82312,8.33697,6.03569,-0.85193,8.28402,A,111709.00
6.13067,57.68793331,11.98134182,57.68792,11.98133,11:17:09.199574,0.00395,1.35950,-0.08664,0.03051,-0.00975,-0.01548,-0.02935,-0.06045,-0.04044,0.88865,6.12619,1.30610,1.83350,1.84288,-0.82312,8.33697,6.03569,-0.85193,8.28402,A,111709.00
6.15321,57.68793331,11.98134182,57.68792,11.98133,11:17:09.222205,0.01609,1.35950,-0.08717,0.03019,-0.01418,-0.01456,-0.02584,-0.04117,-0.06198,0.93818,6.13679,1.30610,1.83350,1.84288,-0.82312,8.33697,6.15176,-0.90146,8.43228,A,111709.10
