Time,lat_estimated,lon_estimated,latitude,longitude,RealTime,CalculationTime,MeasuredVelocity,Roll,SteeringAngle,RollRate,gy,gz,ax,ay,az,imu_read_timing,v_estimated,yaw_estimated,heading_estimated,x_estimated,y_estimated,GPS_timestamp,x_GPS,y_GPS,status,NMEA timestamp
0.04671,0.00000000,0.00000000,57.68877,11.98034,14:57:09.576970,0.04667,0.00000,-0.00164,0.04234,-0.00587,0.03484,-0.00014,0.04972,-0.07832,0.92677,0.00001,0.00000,0.00000,0.00000,0.00000,0.00000,0.01584,-0.20803,2.77987,A,145709.40
0.05542,0.00000000,0.00000000,57.68877,11.98034,14:57:09.585601,0.00375,0.00000,-0.00427,0.04061,-0.02710,-0.03190,-0.01465,0.06503,-0.06106,0.95014,0.05161,0.00000,0.00000,0.00000,0.00000,0.00000,0.01584,-0.20803,2.77987,A,145709.40
0.06495,0.00000000,0.00000000,57.68877,11.98034,14:57:09.595138,0.00306,0.00000,-0.00575,0.04022,-0.02695,-0.03190,-0.01236,0.03129,-0.06576,1.01004,0.06118,0.00000,0.00000,0.00000,0.00000,0.00000,0.01584,-0.20803,2.77987,A,145709.40
0.07556,0.00000000,0.00000000,57.68877,11.98034,14:57:09.605738,0.00326,0.00000,-0.00731,0.03982,-0.02573,-0.01418,-0.01297,0.01403,-0.07558,1.06994,0.07180,0.00000,0.00000,0.00000,0.00000,0.00000,0.01584,-0.20803,2.77987,A,145709.40
0.08600,0.00000000,0.00000000,57.68877,11.98034,14:57:09.616187,0.00316,0.00000,-0.00843,0.03954,-0.03000,0.00109,-0.00793,0.01183,-0.04465,1.08885,0.08202,0.00000,0.00000,0.00000,0.00000,0.00000,0.01584,-0.20803,2.77987,A,145709.40
0.09651,0.00000000,0.00000000,57.68877,11.98034,14:57:09.626687,0.00327,0.00000,-0.00957,0.03914,-0.03382,0.01056,-0.00732,-0.01403,-0.04483,1.12447,0.09274,0.00000,0.00000,0.00000,0.00000,0.00000,0.01584,-0.20803,2.77987,A,145709.40
0.10676,0.00000000,0.00000000,57.68877,11.98034,14:57:09.636937,0.00312,0.00000,-0.01043,0.03866,-0.02954,0.01224,-0.00610,0.00769,-0.02824,1.09885,0.10299,0.00000,0.00000,0.00000,0.00000,0.00000,0.01584,-0.20803,2.77987,A,145709.40
0.14077,0.00000000,0.00000000,57.68877,11.98034,14:57:09.670960,0.02691,0.00000,-0.01142,0.03793,-0.02985,0.01392,-0.01053,0.07643,-0.03721,1.04511,0.11304,0.00000,0.00000,0.00000,0.00000,0.00000,0.13963,-0.21793,2.94667,A,145709.60
0.15019,0.00000000,0.00000000,57.68877,11.98034,14:57:09.680373,0.00325,0.00000,-0.01357,0.03495,-0.03367,0.00582,-0.01923,-0.01031,-0.05624,0.93483,0.14639,0.00000,0.00000,0.00000,0.00000,0.00000,0.13963,-0.21793,2.94667,A,145709.60
0.16127,0.00000000,0.00000000,57.68877,11.98034,14:57:09.691679,0.00394,0.00000,-0.01536,0.03419,-0.03168,0.00842,-0.01709,0.00335,-0.08449,0.94599,0.15749,0.00000,0.00000,0.00000,0.00000,0.00000,0.13963,-0.21793,2.94667,A,145709.60
0.17095,0.00000000,0.00000000,57.68877,11.98034,14:57:09.701128,0.00323,0.00000,-0.01732,0.03371,-0.03596,0.01422,-0.01725,0.05893,-0.09778,0.95715,0.16717,0.00000,0.00000,0.00000,0.00000,0.00000,0.13963,-0.21793,2.94667,A,145709.60
0.18090,0.00000000,0.00000000,57.68877,11.98034,14:57:09.711074,0.00295,0.00000,-0.01823,0.03343,-0.03962,0.01361,-0.01236,0.06405,-0.03074,0.98728,0.17714,0.00000,0.00000,0.00000,0.00000,0.00000,0.13963,-0.21793,2.94667,A,145709.60
0.19145,0.00000000,0.00000000,57.68877,11.98034,14:57:09.721631,0.00311,0.00000,-0.01880,0.03328,-0.03535,0.00353,-0.01251,0.05923,-0.01128,1.04395,0.18770,0.00000,0.00000,0.00000,0.00000,0.00000,0.13963,-0.21793,2.94667,A,145709.60
0.20187,0.00000000,0.00000000,57.68877,11.98034,14:57:09.732053,0.00314,0.00000,-0.01951,0.03323,-0.02909,0.00185,-0.01602,0.03886,-0.02678,1.04774,0.19788,0.00000,0.00000,0.00000,0.00000,0.00000,0.13963,-0.21793,2.94667,A,145709.60
0.21225,0.00000000,0.00000000,57.68877,11.98034,14:57:09.742434,0.00313,0.00000,-0.02073,0.03320,-0.02343,0.00475,-0.01572,0.04191,-0.06686,1.04682,0.20849,0.00000,0.00000,0.00000,0.00000,0.00000,0.13963,-0.21793,2.94667,A,145709.60
0.22290,0.00000000,0.00000000,57.68877,11.98034,14:57:09.753077,0.00338,0.00000,-0.02220,0.03317,-0.03122,-0.00349,-0.01801,0.02635,-0.07942,1.04682,0.21912,0.00000,0.00000,0.00000,0.00000,0.00000,0.13963,-0.21793,2.94667,A,145709.60
0.23272,0.00000000,0.00000000,57.68877,11.98034,14:57:09.762902,0.00296,0.00000,-0.02356,0.03309,-0.03519,-0.00594,-0.02122,-0.03050,-0.07576,1.09477,0.22896,0.00000,0.00000,0.00000,0.00000,0.00000,0.13963,-0.21793,2.94667,A,145709.60
0.25597,0.00000000,0.00000000,57.68877,11.98034,14:57:09.786155,0.01582,0.00000,-0.02434,0.03297,-0.03199,0.01117,-0.02183,0.00549,-0.03392,1.04865,0.23951,0.00000,0.00000,0.00000,0.00000,0.00000,0.25485,-0.22784,3.03933,A,145709.70
0.26560,0.00000000,0.00000000,57.68877,11.98034,14:57:09.795796,0.00325,0.00000,-0.02502,0.03277,-0.01901,0.00078,-0.01618,0.02092,-0.02056,0.97691,0.26160,0.00000,0.00000,0.00000,0.00000,0.00000,0.25485,-0.22784,3.03933,A,145709.70
0.27589,0.00000000,0.00000000,57.68877,11.98034,14:57:09.806064,0.00314,0.00000,-0.02560,0.03275,-0.01045,-0.00319,-0.01816,-0.00555,-0.03459,0.97911,0.27212,0.00000,0.00000,0.00000,0.00000,0.00000,0.25485,-0.22784,3.03933,A,145709.70
0.28648,0.00000000,0.00000000,57.68877,11.98034,14:57:09.816670,0.00334,0.00000,-0.02702,0.03275,-0.00984,-0.00074,-0.01893,0.07125,-0.08412,0.90762,0.28270,0.00000,0.00000,0.00000,0.00000,0.00000,0.25485,-0.22784,3.03933,A,145709.70
0.29677,0.00000000,0.00000000,57.68877,11.98034,14:57:09.826956,0.00298,0.00000,-0.02872,0.03275,-0.01213,-0.02732,-0.01954,0.17013,-0.09126,0.81453,0.29300,0.00000,0.00000,0.00000,0.00000,0.00000,0.25485,-0.22784,3.03933,A,145709.70
0.30730,0.00000000,0.00000000,57.68877,11.98034,14:57:09.837472,0.00311,0.00000,-0.02951,0.03275,-0.01351,-0.06382,-0.02259,0.09827,-0.04282,0.84284,0.30353,0.00000,0.00000,0.00000,0.00000,0.00000,0.25485,-0.22784,3.03933,A,145709.70
0.31771,0.00000000,0.00000000,57.68877,11.98034,14:57:09.847908,0.00313,0.00000,-0.03017,0.03275,-0.01320,-0.07588,-0.02213,-0.13475,-0.04538,1.03444,0.31372,0.00000,0.00000,0.00000,0.00000,0.00000,0.25485,-0.22784,3.03933,A,145709.70
0.32849,0.00000000,0.00000000,57.68877,11.98034,14:57:09.858669,0.00328,0.00000,-0.03186,0.03275,-0.00648,-0.02472,-0.02091,-0.11059,-0.13389,1.14052,0.32472,0.00000,0.00000,0.00000,0.00000,0.00000,0.25485,-0.22784,3.03933,A,145709.70
0.33883,0.00000000,0.00000000,57.68877,11.98034,14:57:09.869018,0.00323,0.00000,-0.03328,0.03275,-0.01198,0.00445,-0.01618,0.04325,-0.10468,1.07317,0.33505,0.00000,0.00000,0.00000,0.00000,0.00000,0.25485,-0.22784,3.03933,A,145709.70
0.34881,0.00000000,0.00000000,57.68877,11.98034,14:57:09.878986,0.00296,0.00000,-0.03438,0.03275,-0.02145,0.01331,-0.00701,0.06960,-0.07796,1.08635,0.34504,0.00000,0.00000,0.00000,0.00000,0.00000,0.25485,-0.22784,3.03933,A,145709.70
0.37437,0.00000000,0.00000000,57.68877,11.98034,14:57:09.904556,0.01804,0.00000,-0.03371,0.03275,-0.01152,0.01605,0.00184,0.01623,0.04215,1.06146,0.35648,0.00000,0.00000,0.00000,0.00000,0.00000,0.37309,-0.24765,3.15052,A,145709.80
0.38653,0.00000000,0.00000000,57.68877,11.98034,14:57:09.916731,0.00581,0.00000,-0.03461,0.03275,0.01062,0.01208,-0.00045,0.10852,-0.07820,0.85735,0.38269,0.00000,0.00000,0.00000,0.00000,0.00000,0.37309,-0.24765,3.15052,A,145709.80
0.39427,0.00000000,0.00000000,57.68877,11.98034,14:57:09.924456,0.00315,1.00212,-0.03603,0.03275,0.00497,-0.01250,-0.00610,0.13853,-0.08985,0.83387,0.39048,0.00000,0.00000,0.00000,0.00000,0.00000,0.37309,-0.24765,3.15052,A,145709.80
0.40466,0.00000000,0.00000000,57.68877,11.98034,14:57:09.934843,0.00295,1.00212,-0.03666,0.03275,-0.00083,-0.02747,-0.01068,0.05655,-0.04953,0.93489,0.40090,0.00000,0.00000,0.00000,0.00000,0.00000,0.37309,-0.24765,3.15052,A,145709.80
0.41523,0.00000000,0.00000000,57.68877,11.98034,14:57:09.945413,0.00313,1.00212,-0.03757,0.03275,0.00635,-0.02304,-0.01572,-0.04294,-0.08186,1.04365,0.41147,0.00000,0.00000,0.00000,0.00000,0.00000,0.37309,-0.24765,3.15052,A,145709.80
0.42562,0.00000000,0.00000000,57.68877,11.98034,14:57:09.955806,0.00311,1.00212,-0.03841,0.03275,0.00054,-0.00410,-0.02076,0.00275,-0.07259,1.04005,0.42165,0.00000,0.00000,0.00000,0.00000,0.00000,0.37309,-0.24765,3.15052,A,145709.80
0.43602,0.00000000,0.00000000,57.68877,11.98034,14:57:09.966193,0.00312,1.00212,-0.03990,0.03275,-0.00236,0.00628,-0.01541,0.00860,-0.12371,1.09080,0.43226,0.00000,0.00000,0.00000,0.00000,0.00000,0.37309,-0.24765,3.15052,A,145709.80
0.44641,0.00000000,0.00000000,57.68877,11.98034,14:57:09.976596,0.00312,1.00212,-0.04021,0.03275,-0.00389,0.01376,-0.01114,0.00293,-0.03758,1.10990,0.44263,0.00000,0.00000,0.00000,0.00000,0.00000,0.37309,-0.24765,3.15052,A,145709.80
0.45671,0.00000000,0.00000000,57.68877,11.98034,14:57:09.986882,0.00292,1.00212,-0.04006,0.03275,-0.00022,0.02491,-0.00549,0.04349,-0.00695,1.05628,0.45295,0.00000,0.00000,0.00000,0.00000,0.00000,0.37309,-0.24765,3.15052,A,145709.80
0.46730,0.00000000,0.00000000,57.68877,11.98034,14:57:09.997477,0.00312,1.00212,-0.03983,0.03275,0.01444,0.01361,-0.00045,0.06612,-0.01086,1.00138,0.46354,0.00000,0.00000,0.00000,0.00000,0.00000,0.37309,-0.24765,3.15052,A,145709.80
0.49065,0.00000000,0.00000000,57.68877,11.98034,14:57:10.020847,0.01608,1.00212,-0.04017,0.03275,0.01673,0.00200,-0.00136,0.04502,-0.04709,0.95520,0.47371,0.00000,0.00000,0.00000,0.00000,0.00000,0.48951,-0.28727,3.26172,A,145709.90
0.50166,0.00000000,0.00000000,57.68877,11.98034,14:57:10.031859,0.00329,1.00212,-0.04135,0.03275,0.01520,-0.00701,-0.00747,0.03599,-0.11059,0.92555,0.49764,0.00000,0.00000,0.00000,0.00000,0.00000,0.48951,-0.28727,3.26172,A,145709.90
0.51192,0.00000000,0.00000000,57.68877,11.98034,14:57:10.042116,0.00329,1.00212,-0.04275,0.03275,0.01169,-0.00869,-0.01221,0.01677,-0.11730,0.98167,0.50815,0.00000,0.00000,0.00000,0.00000,0.00000,0.48951,-0.28727,3.26172,A,145709.90
0.52216,0.00000000,0.00000000,57.68877,11.98034,14:57:10.052345,0.00313,1.00212,-0.04312,0.03275,0.00833,-0.00044,-0.01862,0.01464,-0.04892,0.99936,0.51837,0.00000,0.00000,0.00000,0.00000,0.00000,0.48951,-0.28727,3.26172,A,145709.90
0.53253,0.00000000,0.00000000,57.68877,11.98034,14:57:10.062705,0.00293,1.00212,-0.04351,0.03275,0.00619,0.00582,-0.02229,0.03556,-0.05100,1.02980,0.52876,0.00000,0.00000,0.00000,0.00000,0.00000,0.48951,-0.28727,3.26172,A,145709.90
0.54332,0.00000000,0.00000000,57.68877,11.98034,14:57:10.073498,0.00333,1.00212,-0.04357,0.03275,0.01368,0.00827,-0.01725,0.03190,-0.03434,1.02010,0.53956,0.00000,0.00000,0.00000,0.00000,0.00000,0.48951,-0.28727,3.26172,A,145709.90
0.55329,0.00000000,0.00000000,57.68877,11.98034,14:57:10.083691,0.00290,1.00212,-0.04386,0.03275,0.01933,-0.00044,-0.01266,0.00085,-0.05295,1.02266,0.54953,0.00000,0.00000,0.00000,0.00000,0.00000,0.48951,-0.28727,3.26172,A,145709.90
0.56391,0.00000000,0.00000000,57.68877,11.98034,14:57:10.094085,0.00313,1.00212,-0.04375,0.03275,0.02375,-0.00304,-0.01114,0.05484,-0.02843,0.98667,0.56014,0.00000,0.00000,0.00000,0.00000,0.00000,0.48951,-0.28727,3.26172,A,145709.90
0.57431,0.00000000,0.00000000,57.68877,11.98034,14:57:10.104493,0.00314,1.00212,-0.04424,0.03275,0.02406,-0.00945,-0.00533,0.04917,-0.06679,0.96825,0.57053,0.00000,0.00000,0.00000,0.00000,0.00000,0.48951,-0.28727,3.26172,A,145709.90
0.58489,0.00000000,0.00000000,57.68877,11.98034,14:57:10.115076,0.00318,1.00212,-0.04447,0.03275,0.03276,-0.01479,-0.00869,0.00458,-0.05813,0.99924,0.58111,0.00000,0.00000,0.00000,0.00000,0.00000,0.48951,-0.28727,3.26172,A,145709.90
0.60841,0.00000000,0.00000000,57.68877,11.98034,14:57:10.138631,0.01630,1.00212,-0.04533,0.03275,0.02711,-0.01006,-0.01022,-0.00976,-0.09510,0.98198,0.59146,0.00000,0.00000,0.00000,0.00000,0.00000,0.60681,-0.32690,3.35438,A,145710.00
0.62249,0.00000000,0.00000000,57.68877,11.98034,14:57:10.152682,0.00574,1.00212,-0.04461,0.03275,0.02360,0.01865,-0.02091,0.02422,-0.01568,1.00077,0.61865,0.00000,0.00000,0.00000,0.00000,0.00000,0.60681,-0.32690,3.35438,A,145710.00
0.63042,0.00000000,0.00000000,57.68877,11.98034,14:57:10.160606,0.00327,1.00212,-0.04490,0.03275,0.02452,0.01285,-0.01862,0.12273,-0.04837,0.91958,0.62650,0.00000,0.00000,0.00000,0.00000,0.00000,0.60681,-0.32690,3.35438,A,145710.00
0.64061,0.00000000,0.00000000,57.68877,11.98034,14:57:10.170784,0.00292,1.00212,-0.04520,0.03275,0.01994,-0.01143,-0.01923,0.11206,-0.04819,0.89469,0.63686,0.00000,0.00000,0.00000,0.00000,0.00000,0.60681,-0.32690,3.35438,A,145710.00
0.65121,0.00000000,0.00000000,57.68877,11.98034,14:57:10.181384,0.00311,1.00212,-0.04518,0.03275,0.01704,-0.02579,-0.01816,-0.07741,-0.03215,1.01248,0.64745,0.00000,0.00000,0.00000,0.00000,0.00000,0.60681,-0.32690,3.35438,A,145710.00
0.66161,0.00000000,0.00000000,57.68877,11.98034,14:57:10.191800,0.00313,1.00212,-0.04502,0.03275,0.01810,-0.00777,-0.02198,-0.10992,-0.02513,1.09184,0.65764,0.00000,0.00000,0.00000,0.00000,0.00000,0.60681,-0.32690,3.35438,A,145710.00
0.67202,0.00000000,0.00000000,57.68877,11.98034,14:57:10.202198,0.00313,1.00212,-0.04566,0.03275,0.02666,0.01422,-0.02381,0.05911,-0.08333,1.00888,0.66826,0.00000,0.00000,0.00000,0.00000,0.00000,0.60681,-0.32690,3.35438,A,145710.00
0.68239,0.00000000,0.00000000,57.68877,11.98034,14:57:10.212565,0.00311,1.00212,-0.04622,0.03275,0.02345,0.01178,-0.02473,0.12395,-0.07161,0.95032,0.67862,0.00000,0.00000,0.00000,0.00000,0.00000,0.60681,-0.32690,3.35438,A,145710.00
0.69273,0.00000000,0.00000000,57.68877,11.98034,14:57:10.222905,0.00293,1.00212,-0.04689,0.03275,0.02009,-0.01938,-0.01709,0.07942,-0.07430,0.92403,0.68897,0.00000,0.00000,0.00000,0.00000,0.00000,0.60681,-0.32690,3.35438,A,145710.00
0.70332,0.00000000,0.00000000,57.68877,11.98034,14:57:10.233490,0.00313,1.00212,-0.04668,0.03275,0.02253,-0.01418,-0.01755,-0.10834,-0.02519,1.02169,0.69956,0.00000,0.00000,0.00000,0.00000,0.00000,0.60681,-0.32690,3.35438,A,145710.00
0.73955,0.00000000,0.00000000,57.68878,11.98034,14:57:10.269745,0.02896,1.00212,-0.04651,0.03275,0.03109,-0.00044,-0.01541,-0.07253,-0.03221,1.00906,0.70974,0.00000,0.00000,0.00000,0.00000,0.00000,0.73838,-0.35661,3.57677,A,145710.20
0.75492,0.00000000,0.00000000,57.68878,11.98034,14:57:10.285111,0.00499,1.00212,-0.04546,0.03275,0.03215,-0.01021,-0.00213,-0.03630,-0.04258,1.06158,0.75112,0.00000,0.00000,0.00000,0.00000,0.00000,0.73838,-0.35661,3.57677,A,145710.20
0.76346,0.00000000,0.00000000,57.68878,11.98034,14:57:10.293643,0.00314,1.00212,-0.04540,0.03275,0.03612,-0.00044,-0.00029,-0.07863,-0.03965,1.03578,0.75970,0.00000,0.00000,0.00000,0.00000,0.00000,0.73838,-0.35661,3.57677,A,145710.20
0.77386,0.00000000,0.00000000,57.68878,11.98034,14:57:10.304039,0.00313,1.00212,-0.04532,0.03275,0.03826,0.01361,0.00215,-0.09278,-0.04233,1.01309,0.76987,0.00000,0.00000,0.00000,0.00000,0.00000,0.73838,-0.35661,3.57677,A,145710.20
0.78436,0.00000000,0.00000000,57.68878,11.98034,14:57:10.314798,0.00324,1.00212,-0.04517,0.03275,0.03842,0.02140,0.00001,0.05948,-0.03483,0.90878,0.78059,0.00000,0.00000,0.00000,0.00000,0.00000,0.73838,-0.35661,3.57677,A,145710.20
0.79459,0.00000000,0.00000000,57.68878,11.98034,14:57:10.324771,0.00308,1.00212,-0.04521,0.03275,0.03780,0.01437,0.00551,0.11261,-0.04166,0.86004,0.79082,0.00000,0.00000,0.00000,0.00000,0.00000,0.73838,-0.35661,3.57677,A,145710.20
0.80474,0.00000000,0.00000000,57.68878,11.98034,14:57:10.334923,0.00294,1.00212,-0.04571,0.03275,0.04071,-0.00930,0.00673,0.05289,-0.07320,0.89347,0.80098,0.00000,0.00000,0.00000,0.00000,0.00000,0.73838,-0.35661,3.57677,A,145710.20
0.81531,0.00000000,0.00000000,57.68878,11.98034,14:57:10.345487,0.00310,1.00212,-0.04520,0.03286,0.04223,-0.01373,0.01055,-0.08589,-0.01659,0.99155,0.81155,0.00000,0.00000,0.00000,0.00000,0.00000,0.73838,-0.35661,3.57677,A,145710.20
0.82588,0.00000000,0.00000000,57.68878,11.98034,14:57:10.356071,0.00315,1.00212,-0.04463,0.03328,0.04911,0.00949,0.01681,-0.10620,-0.01787,1.03804,0.82189,0.00000,0.00000,0.00000,0.00000,0.00000,0.73838,-0.35661,3.57677,A,145710.20
0.83687,0.00000000,0.00000000,57.68878,11.98034,14:57:10.367048,0.00368,1.00212,-0.04445,0.03413,0.04391,0.02216,0.01925,0.04740,-0.04508,1.09849,0.83309,0.00000,0.00000,0.00000,0.00000,0.00000,0.73838,-0.35661,3.57677,A,145710.20
0.85929,0.00000000,0.00000000,57.68878,11.98034,14:57:10.389482,0.01570,1.00212,-0.04415,0.03515,0.04468,0.00460,0.01498,0.13627,-0.03019,1.05609,0.84282,0.00000,0.00000,0.00000,0.00000,0.00000,0.85816,-0.34671,3.70650,A,145710.30
0.86835,0.00000000,0.00000000,57.68878,11.98034,14:57:10.398530,0.00323,1.00212,-0.04342,0.03767,0.04422,-0.03572,0.00139,-0.03819,-0.03684,1.06207,0.86458,0.00000,0.00000,0.00000,0.00000,0.00000,0.85816,-0.34671,3.70650,A,145710.30
0.87858,0.00000000,0.00000000,57.68878,11.98034,14:57:10.408768,0.00306,1.00212,-0.04317,0.03886,0.03872,-0.02411,-0.00045,-0.08991,-0.03062,1.06055,0.87481,0.00000,0.00000,0.00000,0.00000,0.00000,0.85816,-0.34671,3.70650,A,145710.30
0.88874,0.00000000,0.00000000,57.68878,11.98034,14:57:10.418927,0.00300,1.00212,-0.04329,0.04002,0.03154,-0.01342,0.00093,-0.06393,-0.04593,0.97313,0.88497,0.00000,0.00000,0.00000,0.00000,0.00000,0.85816,-0.34671,3.70650,A,145710.30
0.89925,0.00000000,0.00000000,57.68878,11.98034,14:57:10.429429,0.00312,1.00212,-0.04307,0.04112,0.02650,-0.00807,0.00077,0.03392,-0.01989,0.90310,0.89549,0.00000,0.00000,0.00000,0.00000,0.00000,0.85816,-0.34671,3.70650,A,145710.30
0.90963,0.00000000,0.00000000,57.68878,11.98034,14:57:10.439826,0.00311,1.00212,-0.04257,0.04203,0.03109,-0.00670,0.00307,0.01128,-0.00525,0.93647,0.90566,0.00000,0.00000,0.00000,0.00000,0.00000,0.85816,-0.34671,3.70650,A,145710.30
0.92022,0.00000000,0.00000000,57.68878,11.98034,14:57:10.450401,0.00330,1.00212,-0.04210,0.04274,0.02864,0.00979,0.01391,-0.00500,-0.00641,0.97490,0.91646,0.00000,0.00000,0.00000,0.00000,0.00000,0.85816,-0.34671,3.70650,A,145710.30
0.93072,0.00000000,0.00000000,57.68878,11.98034,14:57:10.460943,0.00323,1.00212,-0.04201,0.04316,0.02986,0.01208,0.01589,-0.03019,-0.03093,0.97228,0.92694,0.00000,0.00000,0.00000,0.00000,0.00000,0.85816,-0.34671,3.70650,A,145710.30
0.94073,0.00000000,0.00000000,57.68878,11.98034,14:57:10.470911,0.00294,1.32993,-0.04187,0.04333,0.02498,0.00735,0.01513,-0.00927,-0.02092,0.98497,0.93696,0.00000,0.00000,0.00000,0.00000,0.00000,0.85816,-0.34671,3.70650,A,145710.30
0.95131,0.00000000,0.00000000,57.68878,11.98034,14:57:10.481490,0.00313,1.32993,-0.04154,0.04333,0.02513,0.00109,0.01559,0.02086,-0.00939,1.01803,0.94755,0.00000,0.00000,0.00000,0.00000,0.00000,0.85816,-0.34671,3.70650,A,145710.30
0.97437,0.00000000,0.00000000,57.68878,11.98034,14:57:10.504563,0.01580,1.32993,-0.04117,0.04333,0.03185,-0.00639,0.01177,0.08516,-0.01068,1.01175,0.95771,0.00000,0.00000,0.00000,0.00000,0.00000,0.97315,-0.38633,3.85476,A,145710.40
0.99102,0.00000000,0.00000000,57.68878,11.98034,14:57:10.521207,0.00424,1.32993,-0.04137,0.04333,0.01642,-0.04213,-0.00014,-0.08345,-0.06100,1.03682,0.98724,0.00000,0.00000,0.00000,0.00000,0.00000,0.97315,-0.38633,3.85476,A,145710.40
1.00036,0.00000000,0.00000000,57.68878,11.98034,14:57:10.530535,0.00317,1.32993,-0.04163,0.04333,0.01138,-0.02564,-0.00533,-0.08003,-0.03928,1.02498,0.99660,0.00000,0.00000,0.00000,0.00000,0.00000,0.97315,-0.38633,3.85476,A,145710.40
1.01057,0.00000000,0.00000000,57.68878,11.98034,14:57:10.540752,0.00299,1.32993,-0.04134,0.04333,0.01337,-0.00853,-0.00106,-0.01769,-0.00348,1.00735,1.00681,0.00000,0.00000,0.00000,0.00000,0.00000,0.97315,-0.38633,3.85476,A,145710.40
1.02078,0.00000000,0.00000000,57.68878,11.98034,14:57:10.550957,0.00295,1.32993,-0.04105,0.04333,0.00680,-0.00517,0.00627,0.02220,0.00140,0.96325,1.01702,0.00000,0.00000,0.00000,0.00000,0.00000,0.97315,-0.38633,3.85476,A,145710.40
1.03149,0.00000000,0.00000000,57.68878,11.98034,14:57:10.561664,0.00327,1.32993,-0.04085,0.04333,0.01658,-0.00090,0.00978,0.01879,-0.01055,0.92342,1.02772,0.00000,0.00000,0.00000,0.00000,0.00000,0.97315,-0.38633,3.85476,A,145710.40
1.04174,0.00000000,0.00000000,57.68878,11.98034,14:57:10.571930,0.00312,1.32993,-0.04076,0.04333,0.00772,-0.00533,0.01299,-0.03587,-0.01055,0.91506,1.03777,0.00000,0.00000,0.00000,0.00000,0.00000,0.97315,-0.38633,3.85476,A,145710.40
1.05214,0.00000000,0.00000000,57.68878,11.98034,14:57:10.582312,0.00312,1.32993,-0.04074,0.04333,0.00772,0.01147,0.01391,-0.08150,-0.01604,0.97258,1.04837,0.00000,0.00000,0.00000,0.00000,0.00000,0.97315,-0.38633,3.85476,A,145710.40
1.06252,0.00000000,0.00000000,57.68878,11.98034,14:57:10.592698,0.00311,1.32993,-0.04081,0.04333,0.00314,0.01987,0.01269,0.00037,-0.02043,1.00851,1.05874,0.00000,0.00000,0.00000,0.00000,0.00000,0.97315,-0.38633,3.85476,A,145710.40
1.07274,0.00000000,0.00000000,57.68878,11.98034,14:57:10.602921,0.00294,1.32993,-0.04066,0.04333,-0.00175,0.01651,0.00566,0.04447,-0.00220,1.06738,1.06899,0.00000,0.00000,0.00000,0.00000,0.00000,0.97315,-0.38633,3.85476,A,145710.40
1.09694,0.00000000,0.00000000,57.68878,11.98034,14:57:10.627121,0.01674,1.32993,-0.04054,0.04333,-0.00343,0.00582,0.00444,0.05106,-0.00396,1.11722,1.07956,0.00000,0.00000,0.00000,0.00000,0.00000,1.09578,-0.41605,4.00302,A,145710.50
1.10604,0.00000000,0.00000000,57.68878,11.98034,14:57:10.636221,0.00326,1.32993,-0.04143,0.04333,-0.00526,-0.00823,-0.00228,-0.03056,-0.07070,1.09422,1.10223,0.00000,0.00000,0.00000,0.00000,0.00000,1.09578,-0.41605,4.00302,A,145710.50
1.11631,0.00000000,0.00000000,57.68878,11.98034,14:57:10.646486,0.00314,1.32993,-0.04221,0.04333,-0.01259,0.00032,0.00169,-0.07710,-0.05960,1.03529,1.11254,0.00000,0.00000,0.00000,0.00000,0.00000,1.09578,-0.41605,4.00302,A,145710.50
1.12659,0.00000000,0.00000000,57.68878,11.98034,14:57:10.656766,0.00302,1.32993,-0.04263,0.04333,-0.01213,0.01300,0.00917,-0.06448,-0.03288,0.96722,1.12282,0.00000,0.00000,0.00000,0.00000,0.00000,1.09578,-0.41605,4.00302,A,145710.50
1.13688,0.00000000,0.00000000,57.68878,11.98034,14:57:10.667049,0.00296,1.32993,-0.04314,0.04333,-0.00648,0.02461,0.01146,0.03202,-0.04050,0.91653,1.13311,0.00000,0.00000,0.00000,0.00000,0.00000,1.09578,-0.41605,4.00302,A,145710.50
1.14750,0.00000000,0.00000000,57.68878,11.98034,14:57:10.677680,0.00319,1.32993,-0.04352,0.04333,-0.00877,0.02659,0.01299,0.00518,-0.03038,0.90719,1.14374,0.00000,0.00000,0.00000,0.00000,0.00000,1.09578,-0.41605,4.00302,A,145710.50
1.15791,0.00000000,0.00000000,57.68878,11.98034,14:57:10.688086,0.00320,1.32993,-0.04370,0.04333,-0.01045,0.02491,0.01467,-0.05441,-0.01958,0.93440,1.15385,0.00000,0.00000,0.00000,0.00000,0.00000,1.09578,-0.41605,4.00302,A,145710.50
1.16823,0.00000000,0.00000000,57.68878,11.98034,14:57:10.698411,0.00313,1.32993,-0.04369,0.04333,-0.01091,0.02736,0.00826,-0.01257,-0.00708,0.96203,1.16447,0.00000,0.00000,0.00000,0.00000,0.00000,1.09578,-0.41605,4.00302,A,145710.50
1.17936,0.00000000,0.00000000,57.68878,11.98034,14:57:10.709552,0.00390,1.32993,-0.04410,0.04333,-0.02145,0.01667,0.00474,0.06368,-0.02782,1.00815,1.17556,0.00000,0.00000,0.00000,0.00000,0.00000,1.09578,-0.41605,4.00302,A,145710.50
1.18896,0.00000000,0.00000000,57.68878,11.98034,14:57:10.719143,0.00316,1.32993,-0.04455,0.04333,-0.01839,-0.00609,-0.00106,0.07564,-0.03636,1.03663,1.18521,0.00000,0.00000,0.00000,0.00000,0.00000,1.09578,-0.41605,4.00302,A,145710.50
1.21203,0.00000000,0.00000000,57.68878,11.98034,14:57:10.742217,0.01584,1.32993,-0.04507,0.04333,-0.02588,-0.02915,-0.01740,0.01915,-0.03483,1.03157,1.19554,0.00000,0.00000,0.00000,0.00000,0.00000,1.21090,-0.46558,4.13274,A,145710.60
1.22482,0.00000000,0.00000000,57.68878,11.98034,14:57:10.754998,0.00441,1.32993,-0.04641,0.04333,-0.02145,-0.00441,-0.02580,-0.05520,-0.06777,0.95983,1.22104,0.00000,0.00000,0.00000,0.00000,0.00000,1.21090,-0.46558,4.13274,A,145710.60
1.23394,0.00000000,0.00000000,57.68878,11.98034,14:57:10.764117,0.00312,1.32993,-0.04728,0.04333,-0.02160,0.00888,-0.01938,-0.02849,-0.05880,0.92476,1.22995,0.00000,0.00000,0.00000,0.00000,0.00000,1.21090,-0.46558,4.13274,A,145710.60
1.24432,0.00000000,0.00000000,57.68878,11.98034,14:57:10.774491,0.00311,1.32993,-0.04798,0.04333,-0.01534,-0.00044,-0.00931,-0.00018,-0.04862,0.89066,1.24056,0.00000,0.00000,0.00000,0.00000,0.00000,1.21090,-0.46558,4.13274,A,145710.60
1.25458,0.00000000,0.00000000,57.68878,11.98034,14:57:10.784766,0.00297,1.32993,-0.04823,0.04333,-0.00648,0.00353,-0.00304,0.01434,-0.03056,0.94849,1.25081,0.00000,0.00000,0.00000,0.00000,0.00000,1.21090,-0.46558,4.13274,A,145710.60
1.26480,0.00000000,0.00000000,57.68878,11.98034,14:57:10.794973,0.00294,1.32993,-0.04835,0.04333,0.00864,0.00720,0.01238,-0.05563,-0.03721,1.06915,1.26104,0.00000,0.00000,0.00000,0.00000,0.00000,1.21090,-0.46558,4.13274,A,145710.60
1.27538,0.00000000,0.00000000,57.68878,11.98034,14:57:10.805561,0.00313,1.32993,-0.04816,0.04333,0.00879,0.02018,0.01971,-0.04301,-0.01763,1.15924,1.27162,0.00000,0.00000,0.00000,0.00000,0.00000,1.21090,-0.46558,4.13274,A,145710.60
1.28578,0.00000000,0.00000000,57.68878,11.98034,14:57:10.815966,0.00313,1.32993,-0.04845,0.04333,0.01047,0.02995,0.01834,-0.03239,-0.05386,1.13783,1.28180,0.00000,0.00000,0.00000,0.00000,0.00000,1.21090,-0.46558,4.13274,A,145710.60
1.29618,0.00000000,0.00000000,57.68878,11.98034,14:57:10.826358,0.00313,1.32993,-0.04899,0.04333,0.01261,0.02934,0.00780,0.09284,-0.07198,1.08055,1.29241,0.00000,0.00000,0.00000,0.00000,0.00000,1.21090,-0.46558,4.13274,A,145710.60
1.30657,0.00000000,0.00000000,57.68878,11.98034,14:57:10.836742,0.00312,1.32993,-0.04899,0.04333,0.01016,0.01331,-0.00259,0.09546,-0.02714,0.97197,1.30281,0.00000,0.00000,0.00000,0.00000,0.00000,1.21090,-0.46558,4.13274,A,145710.60
1.34103,0.00000000,0.00000000,57.68878,11.98034,14:57:10.871218,0.02718,1.32993,-0.04870,0.04333,0.00711,-0.00960,-0.00976,0.01915,-0.00543,0.91659,1.31303,0.00000,0.00000,0.00000,0.00000,0.00000,1.33987,-0.49530,4.37367,A,145710.80
1.35008,0.00000000,0.00000000,57.68878,11.98034,14:57:10.880263,0.00324,1.32993,-0.04817,0.04333,0.03719,-0.00059,-0.00976,-0.03709,-0.06484,0.97502,1.34628,0.00000,0.00000,0.00000,0.00000,0.00000,1.33987,-0.49530,4.37367,A,145710.80
1.36035,0.00000000,0.00000000,57.68878,11.98034,14:57:10.890528,0.00312,1.32993,-0.04882,0.04333,0.03872,0.00949,-0.00029,-0.00586,-0.09229,1.02315,1.35658,0.00000,0.00000,0.00000,0.00000,0.00000,1.33987,-0.49530,4.37367,A,145710.80
1.37087,0.00000000,0.00000000,57.68878,11.98034,14:57:10.901047,0.00325,1.32993,-0.04897,0.04333,0.03811,0.01590,0.01146,-0.01196,-0.06137,1.05981,1.36709,0.00000,0.00000,0.00000,0.00000,0.00000,1.33987,-0.49530,4.37367,A,145710.80
1.38114,0.00000000,0.00000000,57.68878,11.98034,14:57:10.911534,0.00321,1.32993,-0.04878,0.04333,0.03903,0.01163,0.01559,-0.00579,-0.03794,1.06152,1.37736,0.00000,0.00000,0.00000,0.00000,0.00000,1.33987,-0.49530,4.37367,A,145710.80
1.39197,0.00000000,0.00000000,57.68878,11.98034,14:57:10.922152,0.00328,1.32993,-0.04802,0.04333,0.04590,0.00567,0.02185,0.01671,-0.00342,1.03529,1.38820,0.00000,0.00000,0.00000,0.00000,0.00000,1.33987,-0.49530,4.37367,A,145710.80
1.40230,0.00000000,0.00000000,57.68878,11.98034,14:57:10.932476,0.00315,1.32993,-0.04736,0.04333,0.05476,-0.00441,0.01559,0.02233,-0.01275,0.99436,1.39851,0.00000,0.00000,0.00000,0.00000,0.00000,1.33987,-0.49530,4.37367,A,145710.80
1.41285,0.00000000,0.00000000,57.68878,11.98034,14:57:10.943025,0.00299,1.32993,-0.04712,0.04333,0.05735,-0.02304,0.01116,0.03941,-0.04240,0.97789,1.40907,0.00000,0.00000,0.00000,0.00000,0.00000,1.33987,-0.49530,4.37367,A,145710.80
1.42364,0.00000000,0.00000000,57.68878,11.98034,14:57:10.953817,0.00338,1.32993,-0.04694,0.04333,0.05445,-0.02778,0.00658,0.01830,-0.04404,0.95807,1.41988,0.00000,0.00000,0.00000,0.00000,0.00000,1.33987,-0.49530,4.37367,A,145710.80
1.43366,0.00000000,0.00000000,57.68878,11.98034,14:57:10.963855,0.00317,1.48883,-0.04675,0.04333,0.05002,-0.03052,-0.00350,-0.06771,-0.03654,1.00058,1.42967,0.00000,0.00000,0.00000,0.00000,0.00000,1.33987,-0.49530,4.37367,A,145710.80
1.45689,0.00000000,0.00000000,57.68879,11.98034,14:57:10.987077,0.01600,1.48883,-0.04640,0.04333,0.05552,-0.00380,0.00016,-0.06509,-0.03416,1.02870,1.44036,0.00000,0.00000,0.00000,0.00000,0.00000,1.45576,-0.54483,4.54046,A,145710.90
1.47259,0.00000000,0.00000000,57.68879,11.98034,14:57:11.002779,0.00483,1.48883,-0.04470,0.04333,0.05842,0.01621,0.01635,0.06710,-0.01116,0.92659,1.46879,0.00000,0.00000,0.00000,0.00000,0.00000,1.45576,-0.54483,4.54046,A,145710.90
1.48094,0.00000000,0.00000000,57.68879,11.98034,14:57:11.011109,0.00295,1.48883,-0.04381,0.04333,0.05292,-0.00273,0.02597,0.06710,0.01434,0.90256,1.47717,0.00000,0.00000,0.00000,0.00000,0.00000,1.45576,-0.54483,4.54046,A,145710.90
1.49149,0.00000000,0.00000000,57.68879,11.98034,14:57:11.021669,0.00310,1.48883,-0.04307,0.04333,0.05659,-0.02243,0.02735,0.02904,-0.00360,0.93812,1.48774,0.00000,0.00000,0.00000,0.00000,0.00000,1.45576,-0.54483,4.54046,A,145710.90
1.50192,0.00000000,0.00000000,57.68879,11.98034,14:57:11.032101,0.00314,1.48883,-0.04173,0.04333,0.06086,-0.02991,0.02964,-0.10370,0.03532,1.02724,1.49794,0.00000,0.00000,0.00000,0.00000,0.00000,1.45576,-0.54483,4.54046,A,145710.90
1.51232,0.00000000,0.00000000,57.68879,11.98034,14:57:11.042503,0.00314,1.48883,-0.04132,0.04333,0.06529,-0.00914,0.01849,-0.09431,-0.03556,1.13783,1.50856,0.00000,0.00000,0.00000,0.00000,0.00000,1.45576,-0.54483,4.54046,A,145710.90
1.52260,0.00000000,0.00000000,57.68879,11.98034,14:57:11.052777,0.00301,1.48883,-0.04097,0.04333,0.06499,0.01590,0.01192,0.01598,-0.03892,1.15601,1.51882,0.00000,0.00000,0.00000,0.00000,0.00000,1.45576,-0.54483,4.54046,A,145710.90
1.53277,0.00000000,0.00000000,57.68879,11.98034,14:57:11.062955,0.00295,1.48883,-0.04117,0.04333,0.05521,0.00857,0.01284,0.08247,-0.07052,1.13009,1.52901,0.00000,0.00000,0.00000,0.00000,0.00000,1.45576,-0.54483,4.54046,A,145710.90
1.54331,0.00000000,0.00000000,57.68879,11.98034,14:57:11.073488,0.00310,1.48883,-0.04097,0.04333,0.04849,-0.01846,0.01085,0.16482,-0.03196,0.99619,1.53956,0.00000,0.00000,0.00000,0.00000,0.00000,1.45576,-0.54483,4.54046,A,145710.90
1.55374,0.00000000,0.00000000,57.68879,11.98034,14:57:11.083923,0.00312,1.48883,-0.04030,0.04336,0.04284,-0.04671,0.01666,-0.00665,0.00476,0.93092,1.54976,0.00000,0.00000,0.00000,0.00000,0.00000,1.45576,-0.54483,4.54046,A,145710.90
1.57686,0.00000000,0.00000000,57.68879,11.98034,14:57:11.107043,0.01585,1.48883,-0.03890,0.04339,0.05430,-0.05481,0.01727,-0.10089,0.04069,0.88761,1.56037,0.00000,0.00000,0.00000,0.00000,0.00000,1.57574,-0.59436,4.67019,A,145711.00
1.59098,0.00000000,0.00000000,57.68879,11.98034,14:57:11.121170,0.00576,1.48883,-0.03782,0.04347,0.06926,-0.00563,0.02215,-0.00903,-0.05514,0.93885,1.58715,0.00000,0.00000,0.00000,0.00000,0.00000,1.57574,-0.59436,4.67019,A,145711.00
1.59887,0.00000000,0.00000000,57.68879,11.98034,14:57:11.129048,0.00325,1.48883,-0.03837,0.04347,0.05934,0.00368,0.01834,0.00714,-0.07393,0.97655,1.59509,0.00000,0.00000,0.00000,0.00000,0.00000,1.57574,-0.59436,4.67019,A,145711.00
1.60881,0.00000000,0.00000000,57.68879,11.98034,14:57:11.138989,0.00295,1.48883,-0.03787,0.04347,0.05980,0.01269,0.01055,-0.02788,-0.01549,1.01467,1.60505,0.00000,0.00000,0.00000,0.00000,0.00000,1.57574,-0.59436,4.67019,A,145711.00
1.61940,0.00000000,0.00000000,57.68879,11.98034,14:57:11.149571,0.00313,1.48883,-0.03716,0.04347,0.06193,0.01285,0.00872,-0.03355,-0.00421,1.05359,1.61563,0.00000,0.00000,0.00000,0.00000,0.00000,1.57574,-0.59436,4.67019,A,145711.00
1.62978,0.00000000,0.00000000,57.68879,11.98034,14:57:11.159973,0.00313,1.48883,-0.03661,0.04347,0.05781,-0.00166,0.01024,-0.02074,-0.01147,1.06506,1.62580,0.00000,0.00000,0.00000,0.00000,0.00000,1.57574,-0.59436,4.67019,A,145711.00
1.64017,0.00000000,0.00000000,57.68879,11.98034,14:57:11.170345,0.00311,1.48883,-0.03551,0.04347,0.05583,-0.00838,0.00826,0.04972,0.02904,1.07354,1.63641,0.00000,0.00000,0.00000,0.00000,0.00000,1.57574,-0.59436,4.67019,A,145711.00
1.65060,0.00000000,0.00000000,57.68879,11.98034,14:57:11.180775,0.00315,1.48883,-0.03431,0.04347,0.05628,-0.01999,0.00688,0.10620,0.03623,1.02632,1.64681,0.00000,0.00000,0.00000,0.00000,0.00000,1.57574,-0.59436,4.67019,A,145711.00
1.66074,0.00000000,0.00000000,57.68879,11.98034,14:57:11.190913,0.00294,1.48883,-0.03420,0.04347,0.05491,-0.03923,0.00398,0.08699,-0.03093,0.93104,1.65697,0.00000,0.00000,0.00000,0.00000,0.00000,1.57574,-0.59436,4.67019,A,145711.00
1.67132,0.00000000,0.00000000,57.68879,11.98034,14:57:11.201494,0.00313,1.48883,-0.03395,0.04347,0.04773,-0.04916,0.00856,-0.11218,-0.02007,0.95331,1.66755,0.00000,0.00000,0.00000,0.00000,0.00000,1.57574,-0.59436,4.67019,A,145711.00
1.69522,0.00000000,0.00000000,57.68879,11.98034,14:57:11.225404,0.01663,1.48883,-0.03423,0.04347,0.04636,-0.02197,0.01040,-0.11944,-0.04605,0.86864,1.67774,0.00000,0.00000,0.00000,0.00000,0.00000,1.69406,-0.61417,4.81845,A,145711.10
1.70400,0.00000000,0.00000000,57.68879,11.98034,14:57:11.234181,0.00327,1.48883,-0.03312,0.04347,0.03231,0.03285,0.00917,-0.10157,0.02233,1.04719,1.70022,0.00000,0.00000,0.00000,0.00000,0.00000,1.69406,-0.61417,4.81845,A,145711.10
1.71426,0.00000000,0.00000000,57.68879,11.98034,14:57:11.244438,0.00313,1.48883,-0.03281,0.04347,0.03368,0.05378,0.01314,0.03349,-0.00732,1.12118,1.71048,0.00000,0.00000,0.00000,0.00000,0.00000,1.69406,-0.61417,4.81845,A,145711.10
1.72612,0.00000000,0.00000000,57.68879,11.98034,14:57:11.256340,0.00398,1.48883,-0.03264,0.04347,0.02941,0.05072,0.01314,0.07241,-0.01586,1.11935,1.72150,0.00000,0.00000,0.00000,0.00000,0.00000,1.69406,-0.61417,4.81845,A,145711.10
1.73571,0.00000000,0.00000000,57.68879,11.98034,14:57:11.265887,0.00317,1.48883,-0.03235,0.04347,0.01184,0.03270,0.00795,0.09223,0.00817,1.00577,1.73194,0.00000,0.00000,0.00000,0.00000,0.00000,1.69406,-0.61417,4.81845,A,145711.10
1.74604,0.00000000,0.00000000,57.68879,11.98034,14:57:11.276225,0.00311,1.48883,-0.03167,0.04347,0.01123,0.00399,0.00337,0.00439,0.03355,0.95965,1.74226,0.00000,0.00000,0.00000,0.00000,0.00000,1.69406,-0.61417,4.81845,A,145711.10
1.75645,0.00000000,0.00000000,57.68879,11.98034,14:57:11.286617,0.00312,1.48883,-0.03116,0.04347,0.01780,-0.00227,-0.00885,-0.01440,0.01787,0.81496,1.75269,0.00000,0.00000,0.00000,0.00000,0.00000,1.69406,-0.61417,4.81845,A,145711.10
1.76686,0.00000000,0.00000000,57.68879,11.98034,14:57:11.297033,0.00313,1.48883,-0.03185,0.04347,0.01581,0.00307,-0.01725,0.01385,-0.03367,0.62354,1.76309,0.00000,0.00000,0.00000,0.00000,0.00000,1.69406,-0.61417,4.81845,A,145711.10
1.77697,0.00000000,0.00000000,57.68879,11.98034,14:57:11.307143,0.00297,1.48883,-0.03342,0.04347,0.00680,0.02170,-0.02580,-0.09748,-0.07576,0.70107,1.77320,0.00000,0.00000,0.00000,0.00000,0.00000,1.69406,-0.61417,4.81845,A,145711.10
1.78752,0.00000000,0.00000000,57.68879,11.98034,14:57:11.317951,0.00312,1.48883,-0.03397,0.04347,0.00573,0.07546,-0.02045,-0.21344,-0.04130,0.93171,1.78376,0.00000,0.00000,0.00000,0.00000,0.00000,1.69406,-0.61417,4.81845,A,145711.10
1.81285,0.00000000,0.00000000,57.68879,11.98034,14:57:11.343040,0.01806,1.48883,-0.03443,0.04347,-0.00099,0.12402,-0.01633,-0.15860,-0.03886,1.09763,1.79394,0.00000,0.00000,0.00000,0.00000,0.00000,1.81166,-0.65379,4.96671,A,145711.20
1.82904,0.00000000,0.00000000,57.68879,11.98034,14:57:11.359440,0.00558,1.48883,-0.03431,0.04347,-0.00893,-0.00594,0.01788,0.31354,0.02550,1.35902,1.82474,0.00000,0.00000,0.00000,0.00000,0.00000,1.81166,-0.65379,4.96671,A,145711.20
1.83875,0.00000000,0.00000000,57.68879,11.98034,14:57:11.369425,0.00496,1.48883,-0.03398,0.04347,-0.00770,-0.06030,0.00673,0.07893,0.02647,1.25703,1.83489,0.00000,0.00000,0.00000,0.00000,0.00000,1.81166,-0.65379,4.96671,A,145711.20
1.84734,0.00000000,0.00000000,57.68879,11.98034,14:57:11.377510,0.00315,1.48883,-0.03379,0.04347,0.00039,-0.06321,-0.00747,-0.05496,0.00799,1.08946,1.84357,0.00000,0.00000,0.00000,0.00000,0.00000,1.81166,-0.65379,4.96671,A,145711.20
1.85814,0.00000000,0.00000000,57.68879,11.98034,14:57:11.388330,0.00321,1.48883,-0.03481,0.04347,0.00451,-0.03419,-0.02152,-0.10016,-0.06002,0.81100,1.85436,0.00000,0.00000,0.00000,0.00000,0.00000,1.81166,-0.65379,4.96671,A,145711.20
1.86846,0.00000000,0.00000000,57.68879,11.98034,14:57:11.398635,0.00294,1.48883,-0.03673,0.04347,-0.00770,-0.01586,-0.01984,-0.09144,-0.07607,0.61403,1.86470,0.00000,0.00000,0.00000,0.00000,0.00000,1.81166,-0.65379,4.96671,A,145711.20
1.87905,0.00000000,0.00000000,57.68879,11.98034,14:57:11.409230,0.00313,1.48883,-0.03762,0.04347,-0.02282,0.00170,-0.01511,-0.07692,-0.02580,0.58072,1.87529,0.00000,0.00000,0.00000,0.00000,0.00000,1.81166,-0.65379,4.96671,A,145711.20
1.89034,0.00000000,0.00000000,57.68879,11.98034,14:57:11.420528,0.00420,1.48883,-0.03680,0.04347,-0.01290,0.01911,-0.00289,-0.12627,0.04441,0.75939,1.88651,0.00000,0.00000,0.00000,0.00000,0.00000,1.81166,-0.65379,4.96671,A,145711.20
1.89969,0.00000000,0.00000000,57.68879,11.98034,14:57:11.429868,0.00315,1.59215,-0.03601,0.04347,-0.00832,0.03866,0.01085,-0.11980,0.05270,1.00924,1.89594,0.00000,0.00000,0.00000,0.00000,0.00000,1.81166,-0.65379,4.96671,A,145711.20
1.91004,0.00000000,0.00000000,57.68879,11.98034,14:57:11.440222,0.00311,1.59215,-0.03547,0.04347,-0.00496,0.06095,0.01452,-0.17464,0.04191,1.32785,1.90626,0.00000,0.00000,0.00000,0.00000,0.00000,1.81166,-0.65379,4.96671,A,145711.20
1.94441,0.00000000,0.00000000,57.68879,11.98033,14:57:11.474596,0.02708,1.59215,-0.03536,0.04347,-0.00282,0.09302,0.01376,0.04612,0.00189,1.41355,1.91667,0.00000,0.00000,0.00000,0.00000,0.00000,1.94327,-0.77266,5.28176,A,145711.40
1.95632,0.00000000,0.00000000,57.68879,11.98033,14:57:11.486521,0.00501,1.59215,-0.03595,0.04347,-0.03015,-0.05465,-0.01725,0.07991,0.02391,0.82936,1.95251,0.00000,0.00000,0.00000,0.00000,0.00000,1.94327,-0.77266,5.28176,A,145711.40
1.96472,0.00000000,0.00000000,57.68879,11.98033,14:57:11.494887,0.00294,1.59215,-0.03475,0.04347,-0.01962,-0.06061,-0.01664,-0.09132,0.06057,0.66734,1.96096,0.00000,0.00000,0.00000,0.00000,0.00000,1.94327,-0.77266,5.28176,A,145711.40
1.97530,0.00000000,0.00000000,57.68879,11.98033,14:57:11.505481,0.00313,1.59215,-0.03802,0.04347,-0.01504,-0.06046,-0.02000,-0.06801,-0.14219,0.67521,1.97154,0.00000,0.00000,0.00000,0.00000,0.00000,1.94327,-0.77266,5.28176,A,145711.40
1.98570,0.00000000,0.00000000,57.68879,11.98033,14:57:11.515893,0.00313,1.59215,-0.03883,0.04347,-0.02557,-0.02396,-0.00793,-0.25230,-0.03666,0.85321,1.98172,0.00000,0.00000,0.00000,0.00000,0.00000,1.94327,-0.77266,5.28176,A,145711.40
1.99611,0.00000000,0.00000000,57.68879,11.98033,14:57:11.526285,0.00315,1.59215,-0.03876,0.04347,-0.02573,0.03927,-0.00289,-0.18233,0.01543,1.07695,1.99235,0.00000,0.00000,0.00000,0.00000,0.00000,1.94327,-0.77266,5.28176,A,145711.40
2.00646,0.00000000,0.00000000,57.68879,11.98033,14:57:11.536645,0.00310,1.59215,-0.03868,0.04347,-0.02588,0.08401,0.00581,0.05734,0.01574,1.16846,2.00269,0.00000,0.00000,0.00000,0.00000,0.00000,1.94327,-0.77266,5.28176,A,145711.40
2.02430,57.68877442,11.98034270,57.68879,11.98033,14:57:11.554572,0.01051,1.59215,-0.03895,0.04347,-0.02527,0.07958,0.00978,0.18178,-0.01287,1.17212,2.01295,1.59215,1.70314,1.71606,-0.77266,5.28176,1.94327,-0.77266,5.28176,A,145711.40
2.04084,57.68877442,11.98034270,57.68879,11.98033,14:57:11.571836,0.00358,1.59215,-0.03872,0.00419,-0.03993,-0.04198,0.01620,0.02312,0.06173,1.01278,2.03667,1.59215,1.70314,1.71606,-0.77266,5.28176,1.94327,-0.77266,5.28176,A,145711.40
2.06388,57.68877442,11.98034270,57.68879,11.98033,14:57:11.594089,0.01622,1.59215,-0.03834,0.00419,-0.03718,-0.06061,0.00474,-0.08583,0.03318,0.98741,2.04702,1.59215,1.70314,1.71606,-0.77266,5.28176,2.06241,-0.81229,5.43002,A,145711.50
2.07710,57.68881800,11.98033074,57.68879,11.98033,14:57:11.607550,0.00686,1.59215,-0.04087,0.00419,-0.04527,-0.01693,-0.01221,0.02641,-0.10236,0.88999,2.07069,1.59215,1.70779,1.70903,-0.78806,5.37477,2.06241,-0.81229,5.43002,A,145711.50
2.08417,57.68881800,11.98033074,57.68879,11.98033,14:57:11.614381,0.00354,1.59215,-0.04224,0.00419,-0.05337,0.00048,-0.01664,-0.04526,-0.06814,0.88230,2.08003,1.59215,1.70779,1.70903,-0.78806,5.37477,2.06241,-0.81229,5.43002,A,145711.50
2.09462,57.68881800,11.98033074,57.68879,11.98033,14:57:11.624831,0.00353,1.59215,-0.04344,0.00419,-0.05260,0.02430,-0.00961,-0.13652,-0.06106,0.94684,2.09047,1.59215,1.70779,1.70903,-0.78806,5.37477,2.06241,-0.81229,5.43002,A,145711.50
2.10496,57.68881800,11.98033074,57.68879,11.98033,14:57:11.635161,0.00332,1.59215,-0.04423,0.00419,-0.06039,0.04889,0.00230,-0.12176,-0.03288,1.00205,2.10083,1.59215,1.70779,1.70903,-0.78806,5.37477,2.06241,-0.81229,5.43002,A,145711.50
2.11553,57.68881800,11.98033074,57.68879,11.98033,14:57:11.645732,0.00348,1.59215,-0.04464,0.00419,-0.05948,0.03667,0.01498,0.03172,-0.00958,1.07305,2.11140,1.59215,1.70779,1.70903,-0.78806,5.37477,2.06241,-0.81229,5.43002,A,145711.50
2.12595,57.68881800,11.98033074,57.68879,11.98033,14:57:11.656316,0.00367,1.59215,-0.04427,0.00419,-0.05993,0.00995,0.02063,0.16677,0.04465,1.06006,2.12158,1.59215,1.70779,1.70903,-0.78806,5.37477,2.06241,-0.81229,5.43002,A,145711.50
2.13617,57.68881800,11.98033074,57.68879,11.98033,14:57:11.666376,0.00349,1.59215,-0.04423,0.00419,-0.05474,-0.02946,0.03055,0.18343,0.01879,1.05817,2.13203,1.59215,1.70779,1.70903,-0.78806,5.37477,2.06241,-0.81229,5.43002,A,145711.50
2.14663,57.68881800,11.98033074,57.68879,11.98033,14:57:11.676836,0.00354,1.59215,-0.04481,0.00419,-0.04970,-0.05084,0.02475,-0.02916,-0.02824,1.06665,2.14247,1.59215,1.70779,1.70903,-0.78806,5.37477,2.06241,-0.81229,5.43002,A,145711.50
2.15694,57.68881800,11.98033074,57.68879,11.98033,14:57:11.687142,0.00331,1.59215,-0.04569,0.00419,-0.04558,-0.03037,0.01605,-0.10791,-0.05295,1.04255,2.15281,1.59215,1.70779,1.70903,-0.78806,5.37477,2.06241,-0.81229,5.43002,A,145711.50
2.18022,57.68881800,11.98033074,57.68879,11.98033,14:57:11.710426,0.01618,1.59215,-0.04666,0.00419,-0.05825,-0.01311,0.00612,-0.14256,-0.04770,0.99003,2.16340,1.59215,1.70779,1.70903,-0.78806,5.37477,2.17874,-0.92125,5.55975,A,145711.60
2.20037,57.68881972,11.98033011,57.68879,11.98033,14:57:11.730579,0.00753,1.59215,-0.04783,0.00566,-0.05291,0.00460,0.02842,0.04423,0.00232,0.84625,2.19357,1.59215,1.71413,1.71581,-0.82534,5.56545,2.17874,-0.92125,5.55975,A,145711.60
2.20696,57.68881972,11.98033011,57.68879,11.98033,14:57:11.737165,0.00349,1.59215,-0.04858,0.00671,-0.05184,-0.00563,0.03590,-0.03129,-0.04111,0.94245,2.20281,1.59215,1.71413,1.71581,-0.82534,5.56545,2.17874,-0.92125,5.55975,A,145711.60
2.21712,57.68881972,11.98033011,57.68879,11.98033,14:57:11.747539,0.00332,1.59215,-0.04857,0.00793,-0.04894,0.00002,0.04018,-0.08320,0.00787,1.02986,2.21299,1.59215,1.71413,1.71581,-0.82534,5.56545,2.17874,-0.92125,5.55975,A,145711.60
2.22781,57.68881972,11.98033011,57.68879,11.98033,14:57:11.758016,0.00360,1.59215,-0.04854,0.00894,-0.04848,0.01224,0.03788,-0.03227,0.01147,1.12508,2.22365,1.59215,1.71413,1.71581,-0.82534,5.56545,2.17874,-0.92125,5.55975,A,145711.60
2.23811,57.68881972,11.98033011,57.68879,11.98033,14:57:11.768314,0.00351,1.59215,-0.04916,0.00965,-0.04252,0.02079,0.02781,-0.00360,-0.04776,1.21347,2.23374,1.59215,1.71413,1.71581,-0.82534,5.56545,2.17874,-0.92125,5.55975,A,145711.60
2.24927,57.68881972,11.98033011,57.68879,11.98033,14:57:11.779731,0.00421,1.59215,-0.04948,0.01008,-0.03916,0.03545,0.01727,0.09790,-0.02281,1.14589,2.24442,1.59215,1.71413,1.71581,-0.82534,5.56545,2.17874,-0.92125,5.55975,A,145711.60
2.25897,57.68881972,11.98033011,57.68879,11.98033,14:57:11.789178,0.00351,1.59215,-0.04943,0.01027,-0.03703,0.02109,0.01055,0.05795,0.00250,1.13393,2.25482,1.59215,1.71413,1.71581,-0.82534,5.56545,2.17874,-0.92125,5.55975,A,145711.60
2.26914,57.68881972,11.98033011,57.68879,11.98033,14:57:11.799565,0.00334,1.59215,-0.05057,0.01033,-0.03290,0.01880,0.01009,0.02635,-0.07826,0.97618,2.26499,1.59215,1.71413,1.71581,-0.82534,5.56545,2.17874,-0.92125,5.55975,A,145711.60
2.29290,57.68881972,11.98033011,57.68880,11.98033,14:57:11.823106,0.01670,1.59215,-0.05275,0.01044,-0.03978,0.00475,0.01437,-0.02763,-0.12975,0.88999,2.27555,1.59215,1.71413,1.71581,-0.82534,5.56545,2.29139,-0.99060,5.70801,A,145711.70
2.30708,57.68882118,11.98032947,57.68880,11.98033,14:57:11.837289,0.00670,1.59215,-0.05300,0.01078,-0.02496,-0.00365,0.02246,-0.07466,-0.00451,0.91848,2.30061,1.59215,1.71792,1.72112,-0.86352,5.72797,2.29139,-0.99060,5.70801,A,145711.70
2.31430,57.68882118,11.98032947,57.68880,11.98033,14:57:11.844503,0.00352,1.59215,-0.05277,0.01081,-0.01198,0.01758,0.02933,-0.08595,-0.00665,0.97746,2.30993,1.59215,1.71792,1.72112,-0.86352,5.72797,2.29139,-0.99060,5.70801,A,145711.70
2.32454,57.68882118,11.98032947,57.68880,11.98033,14:57:11.854749,0.00352,1.59215,-0.05421,0.01081,-0.00526,0.02766,0.02781,0.04630,-0.12450,1.01803,2.32040,1.59215,1.71792,1.72112,-0.86352,5.72797,2.29139,-0.99060,5.70801,A,145711.70
2.33492,57.68882118,11.98032947,57.68880,11.98033,14:57:11.865124,0.00350,1.66403,-0.05554,0.01081,-0.01839,0.02873,0.02521,0.01982,-0.11401,1.06225,2.33078,1.59215,1.71792,1.72112,-0.86352,5.72797,2.29139,-0.99060,5.70801,A,145711.70
2.34598,57.68882118,11.98032947,57.68880,11.98033,14:57:11.876193,0.00364,1.66403,-0.05558,0.01081,-0.01488,0.02934,0.02399,-0.03977,-0.02721,1.11014,2.34162,1.59215,1.71792,1.72112,-0.86352,5.72797,2.29139,-0.99060,5.70801,A,145711.70
2.35645,57.68882118,11.98032947,57.68880,11.98033,14:57:11.886660,0.00371,1.66403,-0.05479,0.01081,-0.00938,0.03026,0.01803,0.00958,0.02959,1.07817,2.35231,1.59215,1.71792,1.72112,-0.86352,5.72797,2.29139,-0.99060,5.70801,A,145711.70
2.36668,57.68882118,11.98032947,57.68880,11.98033,14:57:11.896887,0.00353,1.66403,-0.05562,0.01081,0.00405,0.02170,0.01421,0.07692,-0.08778,0.98247,2.36252,1.59215,1.71792,1.72112,-0.86352,5.72797,2.29139,-0.99060,5.70801,A,145711.70
2.37701,57.68882118,11.98032947,57.68880,11.98033,14:57:11.907212,0.00332,1.66403,-0.05605,0.01081,-0.00496,-0.00639,0.00780,0.09650,-0.05173,0.90628,2.37287,1.59215,1.71792,1.72112,-0.86352,5.72797,2.29139,-0.99060,5.70801,A,145711.70
2.38759,57.68882118,11.98032947,57.68880,11.98033,14:57:11.917797,0.00350,1.66403,-0.05698,0.01081,-0.00969,-0.03892,0.00566,0.11968,-0.06991,0.80221,2.38346,1.59215,1.71792,1.72112,-0.86352,5.72797,2.29139,-0.99060,5.70801,A,145711.70
2.41063,57.68882118,11.98032947,57.68880,11.98033,14:57:11.940839,0.01614,1.66403,-0.05690,0.01081,-0.01351,-0.06412,0.00536,-0.07247,-0.01580,0.83765,2.39364,1.59215,1.71792,1.72112,-0.86352,5.72797,2.40902,-1.04013,5.87480,A,145711.80
2.43005,57.68882285,11.98032874,57.68880,11.98033,14:57:11.960263,0.00698,1.66403,-0.05689,0.01081,0.01459,0.03866,0.01116,0.00494,-0.06612,1.08574,2.42342,1.59933,1.72119,1.72440,-0.90707,5.91360,2.40902,-1.04013,5.87480,A,145711.80
2.43694,57.68882285,11.98032874,57.68880,11.98033,14:57:11.967144,0.00330,1.66403,-0.05802,0.01081,0.00833,0.02216,0.01681,0.27395,-0.10870,0.94971,2.43280,1.59933,1.72119,1.72440,-0.90707,5.91360,2.40902,-1.04013,5.87480,A,145711.80
2.44760,57.68882285,11.98032874,57.68880,11.98033,14:57:11.977810,0.00350,1.66403,-0.05884,0.01081,-0.00205,-0.05374,0.02399,0.29067,-0.07235,0.83113,2.44347,1.59933,1.72119,1.72440,-0.90707,5.91360,2.40902,-1.04013,5.87480,A,145711.80
2.45812,57.68882285,11.98032874,57.68880,11.98033,14:57:11.988326,0.00363,1.66403,-0.05753,0.01081,-0.00679,-0.12292,0.03193,0.09815,0.04514,0.78190,2.45364,1.59933,1.72119,1.72440,-0.90707,5.91360,2.40902,-1.04013,5.87480,A,145711.80
2.46843,57.68882285,11.98032874,57.68880,11.98033,14:57:11.998632,0.00353,1.66403,-0.05569,0.01081,0.01642,-0.16201,0.02933,0.04172,0.06033,0.77714,2.46429,1.59933,1.72119,1.72440,-0.90707,5.91360,2.40902,-1.04013,5.87480,A,145711.80
2.47881,57.68882285,11.98032874,57.68880,11.98033,14:57:12.009015,0.00350,1.66403,-0.05574,0.01081,0.03307,-0.14781,0.02582,-0.36216,-0.06612,1.13600,2.47466,1.59933,1.72119,1.72440,-0.90707,5.91360,2.40902,-1.04013,5.87480,A,145711.80
2.48910,57.68882285,11.98032874,57.68880,11.98033,14:57:12.019518,0.00331,1.66403,-0.05554,0.01081,0.03750,-0.04961,0.02032,-0.36948,-0.05954,1.34133,2.48497,1.59933,1.72119,1.72440,-0.90707,5.91360,2.40902,-1.04013,5.87480,A,145711.80
2.49970,57.68882285,11.98032874,57.68880,11.98033,14:57:12.029907,0.00350,1.66403,-0.05635,0.01081,0.02895,0.06004,0.01101,-0.00848,-0.14128,1.31376,2.49555,1.59933,1.72119,1.72440,-0.90707,5.91360,2.40902,-1.04013,5.87480,A,145711.80
2.52272,57.68882285,11.98032874,57.68880,11.98033,14:57:12.052927,0.01612,1.66403,-0.05582,0.01081,0.00940,0.07882,0.01421,0.22930,-0.00464,1.19865,2.50575,1.59933,1.72119,1.72440,-0.90707,5.91360,2.52112,-1.08966,6.02306,A,145711.90
2.53472,57.68882426,11.98032805,57.68880,11.98033,14:57:12.065108,0.00599,1.66403,-0.05438,0.01081,0.01383,-0.00869,0.02139,-0.04727,0.04087,0.93696,2.52825,1.60580,1.72451,1.72771,-0.94795,6.07068,2.52112,-1.08966,6.02306,A,145711.90
2.54264,57.68882426,11.98032805,57.68880,11.98033,14:57:12.072839,0.00350,1.66403,-0.05422,0.01081,0.02421,-0.03572,0.02078,-0.00939,-0.03367,0.92879,2.53850,1.60580,1.72451,1.72771,-0.94795,6.07068,2.52112,-1.08966,6.02306,A,145711.90
2.55299,57.68882426,11.98032805,57.68880,11.98033,14:57:12.083197,0.00332,1.66403,-0.05290,0.01081,0.01948,-0.04076,0.00872,-0.12865,0.03794,0.85247,2.54886,1.60580,1.72451,1.72771,-0.94795,6.07068,2.52112,-1.08966,6.02306,A,145711.90
2.56358,57.68882426,11.98032805,57.68880,11.98033,14:57:12.093776,0.00350,1.66403,-0.05345,0.01081,0.01291,-0.03068,-0.00152,0.03733,-0.06509,0.87547,2.55944,1.60580,1.72451,1.72771,-0.94795,6.07068,2.52112,-1.08966,6.02306,A,145711.90
2.57396,57.68882426,11.98032805,57.68880,11.98033,14:57:12.104169,0.00348,1.66403,-0.05347,0.01081,0.01719,-0.01678,-0.00732,0.11834,-0.03715,0.88072,2.56962,1.60580,1.72451,1.72771,-0.94795,6.07068,2.52112,-1.08966,6.02306,A,145711.90
2.58438,57.68882426,11.98032805,57.68880,11.98033,14:57:12.114578,0.00350,1.66403,-0.05314,0.01081,0.01077,-0.00975,-0.00976,-0.10498,-0.01470,0.97551,2.58024,1.60580,1.72451,1.72771,-0.94795,6.07068,2.52112,-1.08966,6.02306,A,145711.90
2.59470,57.68882426,11.98032805,57.68880,11.98033,14:57:12.124899,0.00356,1.66403,-0.05199,0.01081,0.02437,0.02277,-0.00259,-0.18086,0.03324,1.09233,2.59054,1.60580,1.72451,1.72771,-0.94795,6.07068,2.52112,-1.08966,6.02306,A,145711.90
2.60500,57.68882426,11.98032805,57.68880,11.98033,14:57:12.135201,0.00331,1.66403,-0.05216,0.01081,0.02574,0.05164,0.00505,-0.17477,-0.06307,1.09031,2.60087,1.60580,1.72451,1.72771,-0.94795,6.07068,2.52112,-1.08966,6.02306,A,145711.90
2.61599,57.68882426,11.98032805,57.68880,11.98033,14:57:12.146198,0.00406,1.66403,-0.05202,0.01081,0.02391,0.05286,0.00887,0.09577,-0.04136,1.13606,2.61184,1.60580,1.72451,1.72771,-0.94795,6.07068,2.52112,-1.08966,6.02306,A,145711.90
2.64968,57.68882426,11.98032805,57.68880,11.98033,14:57:12.179907,0.02752,1.66403,-0.05046,0.01081,0.02269,0.01667,0.01711,0.26730,0.06454,1.06421,2.62160,1.60580,1.72451,1.72771,-0.94795,6.07068,2.64797,-1.15900,6.31958,A,145712.10
2.66826,57.68882616,11.98032720,57.68880,11.98033,14:57:12.198478,0.00784,1.66403,-0.05115,0.01081,0.01887,-0.01800,0.00093,-0.15854,-0.11151,0.91707,2.66098,1.61163,1.72730,1.73051,-0.99855,6.28196,2.64797,-1.15900,6.31958,A,145712.10
2.67435,57.68882616,11.98032720,57.68880,11.98033,14:57:12.204559,0.00353,1.66403,-0.05182,0.01081,0.01398,0.01208,-0.00136,-0.02306,-0.06740,0.83735,2.66999,1.61163,1.72730,1.73051,-0.99855,6.28196,2.64797,-1.15900,6.31958,A,145712.10
2.68472,57.68882616,11.98032720,57.68880,11.98033,14:57:12.214929,0.00350,1.66403,-0.05149,0.01081,0.00665,0.01269,-0.00732,-0.00451,-0.00897,0.86169,2.68059,1.61163,1.72730,1.73051,-0.99855,6.28196,2.64797,-1.15900,6.31958,A,145712.10
2.69497,57.68882616,11.98032720,57.68880,11.98033,14:57:12.225173,0.00346,1.66403,-0.05074,0.01081,0.00909,0.01147,-0.00182,0.06661,0.01446,0.87419,2.69082,1.61163,1.72730,1.73051,-0.99855,6.28196,2.64797,-1.15900,6.31958,A,145712.10
2.70528,57.68882616,11.98032720,57.68880,11.98033,14:57:12.235713,0.00336,1.66403,-0.05056,0.01081,0.01123,-0.00304,0.00291,-0.05972,-0.02373,1.03804,2.70113,1.61163,1.72730,1.73051,-0.99855,6.28196,2.64797,-1.15900,6.31958,A,145712.10
2.71584,57.68882616,11.98032720,57.68880,11.98033,14:57:12.246046,0.00352,1.66403,-0.05066,0.01081,0.00329,0.00536,0.00734,-0.11895,-0.04032,1.11740,2.71170,1.61163,1.72730,1.73051,-0.99855,6.28196,2.64797,-1.15900,6.31958,A,145712.10
2.72626,57.68882616,11.98032720,57.68880,11.98033,14:57:12.256463,0.00353,1.66403,-0.05058,0.01078,-0.00037,0.00811,0.00474,-0.05209,-0.02599,1.20444,2.72189,1.61163,1.72730,1.73051,-0.99855,6.28196,2.64797,-1.15900,6.31958,A,145712.10
2.73664,57.68882616,11.98032720,57.68880,11.98033,14:57:12.266843,0.00351,1.66403,-0.05018,0.01056,-0.00312,0.02064,-0.00320,0.08168,0.00140,1.14631,2.73250,1.61163,1.72730,1.73051,-0.99855,6.28196,2.64797,-1.15900,6.31958,A,145712.10
2.74697,57.68882616,11.98032720,57.68880,11.98033,14:57:12.277172,0.00344,1.79010,-0.04964,0.01010,0.00100,0.01163,-0.00808,0.06783,0.01025,1.13436,2.74282,1.61163,1.72730,1.73051,-0.99855,6.28196,2.64797,-1.15900,6.31958,A,145712.10
2.77052,57.68882616,11.98032720,57.68880,11.98033,14:57:12.300734,0.01672,1.79010,-0.04904,0.00954,0.00314,-0.00639,-0.01098,0.02105,0.01232,1.03066,2.75298,1.61163,1.72730,1.73051,-0.99855,6.28196,2.76885,-1.20853,6.44931,A,145712.20
2.78205,57.68882775,11.98032641,57.68880,11.98033,14:57:12.312269,0.00589,1.79010,-0.05053,0.00838,-0.01183,-0.01250,-0.00457,-0.08613,-0.08272,0.76958,2.77565,1.62947,1.73113,1.73362,-1.04532,6.45870,2.76885,-1.20853,6.44931,A,145712.20
2.79008,57.68882775,11.98032641,57.68880,11.98033,14:57:12.320287,0.00351,1.79010,-0.05039,0.00801,-0.01152,-0.01296,0.00123,-0.07668,-0.00793,0.82814,2.78572,1.62947,1.73113,1.73362,-1.04532,6.45870,2.76885,-1.20853,6.44931,A,145712.20
2.80051,57.68882775,11.98032641,57.68880,11.98033,14:57:12.330714,0.00353,1.79010,-0.05053,0.00776,-0.00908,-0.00029,0.00108,-0.05758,-0.02745,0.91756,2.79637,1.62947,1.73113,1.73362,-1.04532,6.45870,2.76885,-1.20853,6.44931,A,145712.20
2.81086,57.68882775,11.98032641,57.68880,11.98033,14:57:12.341072,0.00349,1.79010,-0.05026,0.00761,-0.00801,0.02048,0.00841,-0.09309,-0.00464,1.09227,2.80671,1.62947,1.73113,1.73362,-1.04532,6.45870,2.76885,-1.20853,6.44931,A,145712.20
2.82262,57.68882775,11.98032641,57.68880,11.98033,14:57:12.352826,0.00474,1.79010,-0.05022,0.00744,-0.01152,0.02995,-0.00365,-0.01055,-0.01812,1.13436,2.81827,1.62947,1.73113,1.73362,-1.04532,6.45870,2.76885,-1.20853,6.44931,A,145712.20
2.83197,57.68882775,11.98032641,57.68880,11.98033,14:57:12.362181,0.00370,1.79010,-0.05102,0.00727,-0.01198,0.03346,0.00093,0.05819,-0.07930,1.08714,2.82784,1.62947,1.73113,1.73362,-1.04532,6.45870,2.76885,-1.20853,6.44931,A,145712.20
2.84220,57.68882775,11.98032641,57.68880,11.98033,14:57:12.372400,0.00352,1.79010,-0.05087,0.00710,-0.01977,0.00979,0.00062,0.04136,-0.00506,1.00296,2.83784,1.62947,1.73113,1.73362,-1.04532,6.45870,2.76885,-1.20853,6.44931,A,145712.20
2.85257,57.68882775,11.98032641,57.68880,11.98033,14:57:12.382771,0.00349,1.79010,-0.05041,0.00696,-0.01794,-0.00441,-0.00228,-0.02318,0.01470,0.99808,2.84843,1.62947,1.73113,1.73362,-1.04532,6.45870,2.76885,-1.20853,6.44931,A,145712.20
2.86297,57.68882775,11.98032641,57.68880,11.98033,14:57:12.393182,0.00350,1.79010,-0.05029,0.00693,-0.01305,-0.01342,-0.00106,-0.02007,-0.00976,0.94733,2.85882,1.62947,1.73113,1.73362,-1.04532,6.45870,2.76885,-1.20853,6.44931,A,145712.20
2.89016,57.68882775,11.98032641,57.68880,11.98033,14:57:12.420372,0.02036,1.79010,-0.05057,0.00693,-0.01106,-0.01800,-0.00488,-0.03056,-0.03678,0.96429,2.86898,1.62947,1.73113,1.73362,-1.04532,6.45870,2.88850,-1.29768,6.61610,A,145712.30
2.91116,57.68882953,11.98032548,57.68880,11.98033,14:57:12.441438,0.00888,1.79010,-0.05100,0.00693,-0.00679,-0.03358,0.00490,-0.05142,-0.04368,1.05475,2.90326,1.64554,1.73598,1.73804,-1.10045,6.65642,2.88850,-1.29768,6.61610,A,145712.30
2.91623,57.68882953,11.98032548,57.68880,11.98033,14:57:12.446429,0.00359,1.79010,-0.05068,0.00693,-0.00755,-0.02106,0.01208,-0.11523,-0.00201,1.01010,2.91208,1.64554,1.73598,1.73804,-1.10045,6.65642,2.88850,-1.29768,6.61610,A,145712.30
2.92656,57.68882953,11.98032548,57.68880,11.98033,14:57:12.456762,0.00352,1.79010,-0.05062,0.00693,0.00451,0.00338,0.01238,-0.05838,-0.02611,0.95910,2.92240,1.64554,1.73598,1.73804,-1.10045,6.65642,2.88850,-1.29768,6.61610,A,145712.30
2.93694,57.68882953,11.98032548,57.68880,11.98033,14:57:12.467139,0.00332,1.79010,-0.05087,0.00693,0.00833,0.00323,0.02170,0.04520,-0.04392,0.88670,2.93279,1.64554,1.73598,1.73804,-1.10045,6.65642,2.88850,-1.29768,6.61610,A,145712.30
2.94767,57.68882953,11.98032548,57.68880,11.98033,14:57:12.477883,0.00366,1.79010,-0.05058,0.00693,0.00909,-0.01449,0.03116,0.01830,-0.01324,0.89450,2.94353,1.64554,1.73598,1.73804,-1.10045,6.65642,2.88850,-1.29768,6.61610,A,145712.30
2.95793,57.68882953,11.98032548,57.68880,11.98033,14:57:12.488131,0.00351,1.79010,-0.04951,0.00693,0.01810,-0.00960,0.02567,-0.01372,0.02891,0.89932,2.95357,1.64554,1.73598,1.73804,-1.10045,6.65642,2.88850,-1.29768,6.61610,A,145712.30
2.96831,57.68882953,11.98032548,57.68880,11.98033,14:57:12.498509,0.00350,1.79010,-0.04955,0.00693,0.01826,-0.00609,0.03025,-0.13389,-0.04294,1.01656,2.96418,1.64554,1.73598,1.73804,-1.10045,6.65642,2.88850,-1.29768,6.61610,A,145712.30
2.97872,57.68882953,11.98032548,57.68880,11.98033,14:57:12.508926,0.00351,1.79010,-0.04907,0.00696,0.01994,0.01926,0.02429,-0.03569,-0.00897,1.08598,2.97456,1.64554,1.73598,1.73804,-1.10045,6.65642,2.88850,-1.29768,6.61610,A,145712.30
3.00250,57.68882953,11.98032548,57.68881,11.98032,14:57:12.532710,0.01663,1.79010,-0.04934,0.00713,0.01887,0.02140,0.02979,0.01952,-0.06210,1.09068,2.98507,1.64554,1.73598,1.73804,-1.10045,6.65642,3.00085,-1.35712,6.81996,A,145712.40
3.02242,57.68883113,11.98032459,57.68881,11.98032,14:57:12.552634,0.00719,1.79010,-0.04878,0.00894,0.00680,-0.03862,0.03010,0.04782,-0.00195,0.94928,3.01595,1.65999,1.73830,1.74095,-1.15345,6.83466,3.00085,-1.35712,6.81996,A,145712.40
3.02924,57.68883113,11.98032459,57.68881,11.98032,14:57:12.559680,0.00347,1.79010,-0.04961,0.00985,0.00864,-0.05389,0.02796,-0.03611,-0.08064,0.93946,3.02510,1.65999,1.73830,1.74095,-1.15345,6.83466,3.00085,-1.35712,6.81996,A,145712.40
3.03969,57.68883113,11.98032459,57.68881,11.98032,14:57:12.569888,0.00352,1.79010,-0.04930,0.01067,0.00390,-0.04778,0.02750,-0.17678,-0.00750,1.02449,3.03555,1.65999,1.73830,1.74095,-1.15345,6.83466,3.00085,-1.35712,6.81996,A,145712.40
3.05020,57.68883113,11.98032459,57.68881,11.98032,14:57:12.580414,0.00363,1.79010,-0.04899,0.01126,0.00131,-0.00930,0.02445,-0.12188,-0.00604,1.07195,3.04574,1.65999,1.73830,1.74095,-1.15345,6.83466,3.00085,-1.35712,6.81996,A,145712.40
3.06125,57.68883113,11.98032459,57.68881,11.98032,14:57:12.591691,0.00428,1.79010,-0.04836,0.01163,0.00986,0.02400,0.02643,-0.05161,0.01019,1.06512,3.05705,1.65999,1.73830,1.74095,-1.15345,6.83466,3.00085,-1.35712,6.81996,A,145712.40
3.07086,57.68883113,11.98032459,57.68881,11.98032,14:57:12.601068,0.00349,1.79010,-0.04880,0.01175,0.01291,0.03789,0.02658,0.03934,-0.06259,1.01205,3.06671,1.65999,1.73830,1.74095,-1.15345,6.83466,3.00085,-1.35712,6.81996,A,145712.40
3.08097,57.68883113,11.98032459,57.68881,11.98032,14:57:12.611177,0.00335,1.79010,-0.04906,0.01175,0.00253,0.02445,0.02811,-0.00092,-0.04264,0.98271,3.07684,1.65999,1.73830,1.74095,-1.15345,6.83466,3.00085,-1.35712,6.81996,A,145712.40
3.09152,57.68883113,11.98032459,57.68881,11.98032,14:57:12.621730,0.00350,1.79010,-0.04952,0.01175,-0.00419,0.01147,0.02796,-0.02050,-0.04935,0.94282,3.08738,1.65999,1.73830,1.74095,-1.15345,6.83466,3.00085,-1.35712,6.81996,A,145712.40
3.11456,57.68883113,11.98032459,57.68881,11.98032,14:57:12.644766,0.01613,1.79010,-0.04886,0.01175,-0.00893,-0.00594,0.02811,-0.02775,0.02336,0.92629,3.09759,1.65999,1.73830,1.74095,-1.15345,6.83466,3.11295,-1.45618,6.96822,A,145712.50
3.13085,57.68883266,11.98032363,57.68881,11.98032,14:57:12.661062,0.00768,1.79010,-0.04895,0.01175,-0.00221,-0.02075,0.01360,-0.05984,-0.02885,1.06683,3.12422,1.67300,1.74393,1.74741,-1.21058,7.00433,3.11295,-1.45618,6.96822,A,145712.50
3.13789,57.68883266,11.98032363,57.68881,11.98032,14:57:12.668102,0.00418,1.79010,-0.04952,0.01175,-0.00709,-0.00624,0.00902,-0.08564,-0.06484,1.10703,3.13353,1.67300,1.74393,1.74741,-1.21058,7.00433,3.11295,-1.45618,6.96822,A,145712.50
3.14762,57.68883266,11.98032363,57.68881,11.98032,14:57:12.677815,0.00351,1.85425,-0.04975,0.01175,-0.00770,0.01499,0.00841,-0.12743,-0.03709,1.04432,3.14348,1.67300,1.74393,1.74741,-1.21058,7.00433,3.11295,-1.45618,6.96822,A,145712.50
3.16042,57.68883266,11.98032363,57.68881,11.98032,14:57:12.690629,0.00591,1.85425,-0.05009,0.01175,-0.00938,0.03743,0.01162,-0.04978,-0.03910,0.98314,3.15625,1.67300,1.74393,1.74741,-1.21058,7.00433,3.11295,-1.45618,6.96822,A,145712.50
3.16843,57.68883266,11.98032363,57.68881,11.98032,14:57:12.698639,0.00351,1.85425,-0.05045,0.01175,-0.01366,0.03652,0.01711,-0.02342,-0.03928,0.93946,3.16429,1.67300,1.74393,1.74741,-1.21058,7.00433,3.11295,-1.45618,6.96822,A,145712.50
3.17883,57.68883266,11.98032363,57.68881,11.98032,14:57:12.709041,0.00350,1.85425,-0.05040,0.01175,-0.00862,0.01758,0.02704,0.07485,-0.01549,0.91793,3.17467,1.67300,1.74393,1.74741,-1.21058,7.00433,3.11295,-1.45618,6.96822,A,145712.50
3.18911,57.68883266,11.98032363,57.68881,11.98032,14:57:12.719538,0.00331,1.85425,-0.05126,0.01175,-0.01091,0.00155,0.03193,0.01793,-0.06948,0.91970,3.18497,1.67300,1.74393,1.74741,-1.21058,7.00433,3.11295,-1.45618,6.96822,A,145712.50
3.19970,57.68883266,11.98032363,57.68881,11.98032,14:57:12.729903,0.00349,1.85425,-0.05099,0.01175,-0.01122,0.00353,0.02307,-0.08888,-0.00061,1.02779,3.19557,1.67300,1.74393,1.74741,-1.21058,7.00433,3.11295,-1.45618,6.96822,A,145712.50
3.21021,57.68883266,11.98032363,57.68881,11.98032,14:57:12.740426,0.00361,1.85425,-0.05073,0.01175,-0.00633,0.01483,0.01895,-0.08717,-0.00555,1.04389,3.20576,1.67300,1.74393,1.74741,-1.21058,7.00433,3.11295,-1.45618,6.96822,A,145712.50
3.24418,57.68883266,11.98032363,57.68881,11.98032,14:57:12.774385,0.02717,1.85425,-0.05047,0.01175,-0.00373,0.02873,0.00841,0.01720,-0.00677,1.03682,3.21636,1.67300,1.74393,1.74741,-1.21058,7.00433,3.24269,-1.59486,7.30180,A,145712.70
3.26026,57.68883461,11.98032242,57.68881,11.98032,14:57:12.790479,0.00830,1.85425,-0.05031,0.01175,0.00986,-0.00059,0.00795,-0.07619,-0.03941,1.01931,3.25259,1.69113,1.74836,1.75185,-1.28236,7.22095,3.24269,-1.59486,7.30180,A,145712.70
3.26579,57.68883461,11.98032242,57.68881,11.98032,14:57:12.796008,0.00353,1.85425,-0.04990,0.01175,0.01872,-0.00013,0.01834,0.00317,-0.00915,1.02187,3.26143,1.69113,1.74836,1.75185,-1.28236,7.22095,3.24269,-1.59486,7.30180,A,145712.70
3.27618,57.68883461,11.98032242,57.68881,11.98032,14:57:12.806377,0.00352,1.85425,-0.04965,0.01175,0.02696,-0.00487,0.02933,-0.01726,-0.02702,0.97667,3.27204,1.69113,1.74836,1.75185,-1.28236,7.22095,3.24269,-1.59486,7.30180,A,145712.70
3.28658,57.68883461,11.98032242,57.68881,11.98032,14:57:12.816787,0.00352,1.85425,-0.04900,0.01175,0.03658,-0.00746,0.03452,0.02684,-0.00592,0.96044,3.28243,1.69113,1.74836,1.75185,-1.28236,7.22095,3.24269,-1.59486,7.30180,A,145712.70
3.29727,57.68883461,11.98032242,57.68881,11.98032,14:57:12.827723,0.00338,1.85425,-0.04816,0.01175,0.04269,-0.01999,0.03850,0.02519,0.00165,0.95892,3.29311,1.69113,1.74836,1.75185,-1.28236,7.22095,3.24269,-1.59486,7.30180,A,145712.70
3.30780,57.68883461,11.98032242,57.68881,11.98032,14:57:12.838001,0.00351,1.85425,-0.04833,0.01175,0.04666,-0.02915,0.03559,-0.00634,-0.06503,0.96478,3.30365,1.69113,1.74836,1.75185,-1.28236,7.22095,3.24269,-1.59486,7.30180,A,145712.70
3.31819,57.68883461,11.98032242,57.68881,11.98032,14:57:12.848401,0.00351,1.85425,-0.04806,0.01175,0.04498,-0.01953,0.02857,-0.12108,-0.03581,0.99930,3.31382,1.69113,1.74836,1.75185,-1.28236,7.22095,3.24269,-1.59486,7.30180,A,145712.70
3.32857,57.68883461,11.98032242,57.68881,11.98032,14:57:12.858773,0.00349,1.85425,-0.04785,0.01175,0.05094,0.00750,0.02109,-0.08449,-0.04496,0.99479,3.32443,1.69113,1.74836,1.75185,-1.28236,7.22095,3.24269,-1.59486,7.30180,A,145712.70
3.33897,57.68883461,11.98032242,57.68881,11.98032,14:57:12.869178,0.00349,1.85425,-0.04676,0.01175,0.04575,0.01682,0.01574,0.03678,0.01824,0.97984,3.33482,1.69113,1.74836,1.75185,-1.28236,7.22095,3.24269,-1.59486,7.30180,A,145712.70
3.36269,57.68883461,11.98032242,57.68881,11.98032,14:57:12.892906,0.01689,1.85425,-0.04608,0.01175,0.04010,0.01117,0.01864,0.01879,-0.00378,0.96868,3.34499,1.69113,1.74836,1.75185,-1.28236,7.22095,3.36105,-1.69392,7.43153,A,145712.80
3.37418,57.68883630,11.98032122,57.68881,11.98032,14:57:12.904401,0.00591,1.85425,-0.04485,0.01175,0.03735,-0.00334,0.01345,-0.03288,0.00525,0.99692,3.36775,1.70744,1.75510,1.75859,-1.35416,7.40943,3.36105,-1.69392,7.43153,A,145712.80
3.38217,57.68883630,11.98032122,57.68881,11.98032,14:57:12.912376,0.00350,1.85425,-0.04391,0.01175,0.04300,-0.00044,0.01498,-0.03623,0.01409,1.02187,3.37782,1.70744,1.75510,1.75859,-1.35416,7.40943,3.36105,-1.69392,7.43153,A,145712.80
3.39258,57.68883630,11.98032122,57.68881,11.98032,14:57:12.922785,0.00350,1.85425,-0.04326,0.01175,0.04681,-0.00548,0.02078,0.00683,-0.00909,1.02883,3.38844,1.70744,1.75510,1.75859,-1.35416,7.40943,3.36105,-1.69392,7.43153,A,145712.80
3.40296,57.68883630,11.98032122,57.68881,11.98032,14:57:12.933165,0.00348,1.85425,-0.04297,0.01175,0.04773,-0.00930,0.01788,0.06094,-0.03233,1.01028,3.39882,1.70744,1.75510,1.75859,-1.35416,7.40943,3.36105,-1.69392,7.43153,A,145712.80
3.41313,57.68883630,11.98032122,57.68881,11.98032,14:57:12.943560,0.00333,1.85425,-0.04394,0.01175,0.05445,-0.01021,0.01864,-0.04215,-0.12542,1.04420,3.40899,1.70744,1.75510,1.75859,-1.35416,7.40943,3.36105,-1.69392,7.43153,A,145712.80
3.42387,57.68883630,11.98032122,57.68881,11.98032,14:57:12.954081,0.00367,1.85425,-0.04335,0.01175,0.04666,-0.00655,0.02658,-0.17464,-0.01366,1.06579,3.41972,1.70744,1.75510,1.75859,-1.35416,7.40943,3.36105,-1.69392,7.43153,A,145712.80
3.43606,57.68883630,11.98032122,57.68881,11.98032,14:57:12.966279,0.00546,1.85425,-0.04294,0.01175,0.05262,0.02537,0.01879,-0.03989,-0.03209,1.01461,3.43126,1.70744,1.75510,1.75859,-1.35416,7.40943,3.36105,-1.69392,7.43153,A,145712.80
3.44451,57.68883630,11.98032122,57.68881,11.98032,14:57:12.974712,0.00351,1.85425,-0.04255,0.01175,0.05598,0.02216,0.02490,0.07619,-0.02342,0.92116,3.44037,1.70744,1.75510,1.75859,-1.35416,7.40943,3.36105,-1.69392,7.43153,A,145712.80
3.45489,57.68883630,11.98032122,57.68881,11.98032,14:57:12.985091,0.00349,1.85425,-0.04203,0.01175,0.05308,-0.00365,0.01910,0.09284,-0.01958,0.99650,3.45074,1.70744,1.75510,1.75859,-1.35416,7.40943,3.36105,-1.69392,7.43153,A,145712.80
3.47815,57.68883630,11.98032122,57.68881,11.98032,14:57:13.008357,0.01635,1.85425,-0.04075,0.01175,0.05216,-0.01831,0.02047,0.01287,0.03270,0.99894,3.46097,1.70744,1.75510,1.75859,-1.35416,7.40943,3.47654,-1.79298,7.61685,A,145712.90
3.49376,57.68883806,11.98031992,57.68881,11.98032,14:57:13.024239,0.00875,1.85425,-0.03968,0.01175,0.05934,-0.03083,0.02017,-0.06198,-0.04154,1.00888,3.48574,1.72212,1.76026,1.76375,-1.43137,7.60553,3.47654,-1.79298,7.61685,A,145712.90
3.49900,57.68883806,11.98031992,57.68881,11.98032,14:57:13.029198,0.00351,1.85425,-0.03915,0.01175,0.05506,-0.01189,0.01895,-0.10352,-0.01232,0.97368,3.49484,1.72212,1.76026,1.76375,-1.43137,7.60553,3.47654,-1.79298,7.61685,A,145712.90
3.50922,57.68883806,11.98031992,57.68881,11.98032,14:57:13.039655,0.00336,1.85425,-0.03871,0.01175,0.05751,0.01514,0.02231,-0.09772,-0.02519,1.04395,3.50507,1.72212,1.76026,1.76375,-1.43137,7.60553,3.47654,-1.79298,7.61685,A,145712.90
3.51976,57.68883806,11.98031992,57.68881,11.98032,14:57:13.049976,0.00350,1.85425,-0.03811,0.01175,0.05185,0.02812,0.02674,0.01879,-0.00878,0.93391,3.51562,1.72212,1.76026,1.76375,-1.43137,7.60553,3.47654,-1.79298,7.61685,A,145712.90
3.53117,57.68883806,11.98031992,57.68881,11.98032,14:57:13.061371,0.00450,1.85425,-0.03745,0.01175,0.05567,0.02613,0.02719,-0.02037,-0.00903,0.85656,3.52698,1.72212,1.76026,1.76375,-1.43137,7.60553,3.47654,-1.79298,7.61685,A,145712.90
3.54056,57.68883806,11.98031992,57.68881,11.98032,14:57:13.070765,0.00350,1.86453,-0.03658,0.01175,0.04605,0.01605,0.02735,-0.05874,0.01513,0.91628,3.53643,1.72212,1.76026,1.76375,-1.43137,7.60553,3.47654,-1.79298,7.61685,A,145712.90
3.55097,57.68883806,11.98031992,57.68881,11.98032,14:57:13.081170,0.00351,1.86453,-0.03602,0.01175,0.05201,0.00521,0.02551,-0.04776,-0.00958,0.97264,3.54682,1.72212,1.76026,1.76375,-1.43137,7.60553,3.47654,-1.79298,7.61685,A,145712.90
3.56112,57.68883806,11.98031992,57.68881,11.98032,14:57:13.091542,0.00332,1.86453,-0.03474,0.01175,0.04101,-0.00380,0.01620,0.02928,0.04837,1.04261,3.55699,1.72212,1.76026,1.76375,-1.43137,7.60553,3.47654,-1.79298,7.61685,A,145712.90
3.57168,57.68883806,11.98031992,57.68881,11.98032,14:57:13.101888,0.00348,1.86453,-0.03462,0.01175,0.05292,-0.00960,0.01864,0.04666,-0.04209,1.08092,3.56754,1.72212,1.76026,1.76375,-1.43137,7.60553,3.47654,-1.79298,7.61685,A,145712.90
3.59528,57.68883806,11.98031992,57.68881,11.98032,14:57:13.125490,0.01668,1.86453,-0.03484,0.01175,0.05445,-0.01708,0.00719,0.03215,-0.06740,1.09837,3.57774,1.72212,1.76026,1.76375,-1.43137,7.60553,3.59325,-1.92176,7.78364,A,145713.00
3.61016,57.68883979,11.98031852,57.68881,11.98032,14:57:13.140374,0.00771,1.86453,-0.03390,0.01175,0.03674,-0.00319,0.00810,-0.09107,-0.00781,1.00796,3.60271,1.73636,1.76703,1.77051,-1.51450,7.79782,3.59325,-1.92176,7.78364,A,145713.00
3.61636,57.68883979,11.98031852,57.68881,11.98032,14:57:13.146568,0.00353,1.86453,-0.03345,0.01175,0.03154,0.00766,0.01070,-0.03922,0.00128,0.91140,3.61224,1.73636,1.76703,1.77051,-1.51450,7.79782,3.59325,-1.92176,7.78364,A,145713.00
3.62691,57.68883979,11.98031852,57.68881,11.98032,14:57:13.157113,0.00367,1.86453,-0.03213,0.01175,0.02925,0.00353,0.01910,-0.04288,0.05496,0.92787,3.62275,1.73636,1.76703,1.77051,-1.51450,7.79782,3.59325,-1.92176,7.78364,A,145713.00
3.63722,57.68883979,11.98031852,57.68881,11.98032,14:57:13.167669,0.00333,1.86453,-0.03173,0.01175,0.03857,-0.00166,0.02032,0.02013,-0.00634,0.95014,3.63309,1.73636,1.76703,1.77051,-1.51450,7.79782,3.59325,-1.92176,7.78364,A,145713.00
3.64781,57.68883979,11.98031852,57.68881,11.98032,14:57:13.178014,0.00352,1.86453,-0.03139,0.01175,0.04239,-0.01403,0.02826,0.01092,-0.01397,0.98643,3.64367,1.73636,1.76703,1.77051,-1.51450,7.79782,3.59325,-1.92176,7.78364,A,145713.00
3.65904,57.68883979,11.98031852,57.68881,11.98032,14:57:13.189250,0.00366,1.86453,-0.03130,0.01175,0.03444,-0.02044,0.02124,-0.12102,-0.02849,1.07329,3.65486,1.73636,1.76703,1.77051,-1.51450,7.79782,3.59325,-1.92176,7.78364,A,145713.00
3.66910,57.68883979,11.98031852,57.68881,11.98032,14:57:13.199519,0.00331,1.86453,-0.03093,0.01175,0.03414,-0.00410,0.02109,-0.08369,-0.00494,1.07122,3.66497,1.73636,1.76703,1.77051,-1.51450,7.79782,3.59325,-1.92176,7.78364,A,145713.00
3.67970,57.68883979,11.98031852,57.68881,11.98032,14:57:13.209902,0.00351,1.86453,-0.03039,0.01175,0.02253,0.00979,0.00978,-0.03849,0.01427,1.05365,3.67556,1.73636,1.76703,1.77051,-1.51450,7.79782,3.59325,-1.92176,7.78364,A,145713.00
3.69024,57.68883979,11.98031852,57.68881,11.98032,14:57:13.220444,0.00364,1.86453,-0.03019,0.01175,0.02437,0.01208,0.00398,-0.02373,-0.00927,1.04505,3.68574,1.73636,1.76703,1.77051,-1.51450,7.79782,3.59325,-1.92176,7.78364,A,145713.00
3.71324,57.68883979,11.98031852,57.68882,11.98031,14:57:13.243678,0.01624,1.86453,-0.02982,0.01175,0.01520,0.01376,-0.00610,0.01208,0.00878,0.95788,3.69638,1.73636,1.76703,1.77051,-1.51450,7.79782,3.71176,-2.05053,7.96897,A,145713.10
3.73014,57.68884157,11.98031700,57.68882,11.98031,14:57:13.260355,0.00777,1.86453,-0.02929,0.01175,0.02192,0.00063,-0.01098,-0.01226,-0.00823,0.91097,3.72359,1.74918,1.77330,1.77679,-1.60470,7.99572,3.71176,-2.05053,7.96897,A,145713.10
3.73630,57.68884157,11.98031700,57.68882,11.98031,14:57:13.266506,0.00354,1.86453,-0.02945,0.01175,0.01978,-0.00242,-0.00976,-0.07253,-0.02507,0.94904,3.73216,1.74918,1.77330,1.77679,-1.60470,7.99572,3.71176,-2.05053,7.96897,A,145713.10
3.74668,57.68884157,11.98031700,57.68882,11.98031,14:57:13.276880,0.00352,1.86453,-0.02906,0.01175,0.03017,0.00017,-0.00335,-0.00598,0.00122,0.97045,3.74252,1.74918,1.77330,1.77679,-1.60470,7.99572,3.71176,-2.05053,7.96897,A,145713.10
3.75703,57.68884157,11.98031700,57.68882,11.98031,14:57:13.287232,0.00332,1.86453,-0.02890,0.01175,0.02605,-0.00899,-0.00091,-0.01397,-0.01269,1.03938,3.75288,1.74918,1.77330,1.77679,-1.60470,7.99572,3.71176,-2.05053,7.96897,A,145713.10
3.76763,57.68884157,11.98031700,57.68882,11.98031,14:57:13.297843,0.00352,1.86453,-0.02837,0.01175,0.03032,-0.01861,0.00398,0.00085,0.01031,1.06146,3.76350,1.74918,1.77330,1.77679,-1.60470,7.99572,3.71176,-2.05053,7.96897,A,145713.10
3.77801,57.68884157,11.98031700,57.68882,11.98031,14:57:13.308223,0.00351,1.86453,-0.02825,0.01172,0.03582,-0.01434,0.00734,-0.03416,-0.02001,1.01571,3.77365,1.74918,1.77330,1.77679,-1.60470,7.99572,3.71176,-2.05053,7.96897,A,145713.10
3.78842,57.68884157,11.98031700,57.68882,11.98031,14:57:13.318615,0.00351,1.86453,-0.02811,0.01166,0.04132,-0.00746,0.01162,-0.06618,-0.02348,1.03218,3.78428,1.74918,1.77330,1.77679,-1.60470,7.99572,3.71176,-2.05053,7.96897,A,145713.10
3.79874,57.68884157,11.98031700,57.68882,11.98031,14:57:13.328949,0.00354,1.86453,-0.02802,0.01160,0.04178,0.00720,0.01009,-0.04459,-0.02727,1.03913,3.79458,1.74918,1.77330,1.77679,-1.60470,7.99572,3.71176,-2.05053,7.96897,A,145713.10
3.80905,57.68884157,11.98031700,57.68882,11.98031,14:57:13.339465,0.00331,1.86453,-0.02774,0.01155,0.04025,0.01178,0.00459,-0.03575,-0.01299,1.05756,3.80492,1.74918,1.77330,1.77679,-1.60470,7.99572,3.71176,-2.05053,7.96897,A,145713.10
3.84400,57.68884157,11.98031700,57.68882,11.98031,14:57:13.374215,0.02787,1.86453,-0.02775,0.01155,0.04010,0.00552,0.00505,0.05447,-0.03123,0.99076,3.81550,1.74918,1.77330,1.77679,-1.60470,7.99572,3.84247,-2.21893,8.30255,A,145713.30
3.86225,57.68884366,11.98031526,57.68882,11.98031,14:57:13.392462,0.00735,1.86453,-0.02585,0.01155,0.05033,0.00017,-0.00243,-0.07369,-0.01019,1.01114,3.85584,1.76071,1.77836,1.78179,-1.70810,8.22733,3.84247,-2.21893,8.30255,A,145713.30
3.86880,57.68884366,11.98031526,57.68882,11.98031,14:57:13.398996,0.00350,1.86453,-0.02602,0.01155,0.04559,0.01437,-0.00197,-0.04209,-0.03764,0.97484,3.86465,1.76071,1.77836,1.78179,-1.70810,8.22733,3.84247,-2.21893,8.30255,A,145713.30
3.87921,57.68884366,11.98031526,57.68882,11.98031,14:57:13.409411,0.00351,1.86453,-0.02615,0.01152,0.04529,0.02125,-0.00320,0.01171,-0.04319,1.03657,3.87507,1.76071,1.77836,1.78179,-1.70810,8.22733,3.84247,-2.21893,8.30255,A,145713.30
3.88928,57.68884366,11.98031526,57.68882,11.98031,14:57:13.419938,0.00335,1.86453,-0.02546,0.01143,0.03857,0.01437,-0.00533,0.03453,0.01940,1.02041,3.88514,1.76071,1.77836,1.78179,-1.70810,8.22733,3.84247,-2.21893,8.30255,A,145713.30
3.89985,57.68884366,11.98031526,57.68882,11.98031,14:57:13.430057,0.00352,1.86453,-0.02493,0.01132,0.03872,0.00857,-0.00243,-0.01928,0.00787,1.05018,3.89571,1.76071,1.77836,1.78179,-1.70810,8.22733,3.84247,-2.21893,8.30255,A,145713.30
3.91024,57.68884366,11.98031526,57.68882,11.98031,14:57:13.440441,0.00350,1.86453,-0.02401,0.01118,0.05002,0.00735,-0.00091,-0.05856,0.02940,1.08702,3.90588,1.76071,1.77836,1.78179,-1.70810,8.22733,3.84247,-2.21893,8.30255,A,145713.30
3.92083,57.68884366,11.98031526,57.68882,11.98031,14:57:13.451025,0.00369,1.89527,-0.02373,0.01101,0.04620,0.00399,-0.00136,0.00262,-0.01397,1.03108,3.91669,1.76071,1.77836,1.78179,-1.70810,8.22733,3.84247,-2.21893,8.30255,A,145713.30
3.93120,57.68884366,11.98031526,57.68882,11.98031,14:57:13.461410,0.00356,1.89527,-0.02355,0.01087,0.04605,-0.00838,-0.00121,0.08979,-0.01653,0.91171,3.92702,1.76071,1.77836,1.78179,-1.70810,8.22733,3.84247,-2.21893,8.30255,A,145713.30
3.95845,57.68884366,11.98031526,57.68882,11.98031,14:57:13.488666,0.01925,1.89527,-0.02399,0.01076,0.04773,-0.03281,-0.00228,0.01793,-0.05575,0.84668,3.93913,1.76071,1.77836,1.78179,-1.70810,8.22733,3.95676,-2.30809,8.48788,A,145713.40
3.97535,57.68884544,11.98031363,57.68882,11.98031,14:57:13.505559,0.00663,1.89527,-0.02227,0.01070,0.05567,0.00628,0.00719,-0.15866,0.00616,1.05634,3.96888,1.77417,1.78280,1.78598,-1.80500,8.42566,3.95676,-2.30809,8.48788,A,145713.40
3.98458,57.68884544,11.98031363,57.68882,11.98031,14:57:13.514798,0.00546,1.89527,-0.02186,0.01067,0.05598,0.02812,0.00719,-0.02135,-0.01507,1.12960,3.98038,1.77417,1.78280,1.78598,-1.80500,8.42566,3.95676,-2.30809,8.48788,A,145713.40
3.99300,57.68884544,11.98031363,57.68882,11.98031,14:57:13.523200,0.00334,1.89527,-0.02144,0.01053,0.04620,0.03209,0.00658,0.05130,0.00518,1.12417,3.98886,1.77417,1.78280,1.78598,-1.80500,8.42566,3.95676,-2.30809,8.48788,A,145713.40
4.00355,57.68884544,11.98031363,57.68882,11.98031,14:57:13.533753,0.00349,1.89527,-0.02112,0.01016,0.04559,0.01957,0.00429,0.07558,-0.00811,1.05286,3.99942,1.77417,1.78280,1.78598,-1.80500,8.42566,3.95676,-2.30809,8.48788,A,145713.40
4.01489,57.68884544,11.98031363,57.68882,11.98031,14:57:13.545100,0.00443,1.89527,-0.01992,0.00943,0.03429,-0.01403,-0.00045,-0.04630,0.05807,1.00650,4.01070,1.77417,1.78280,1.78598,-1.80500,8.42566,3.95676,-2.30809,8.48788,A,145713.40
4.02453,57.68884544,11.98031363,57.68882,11.98031,14:57:13.554742,0.00367,1.89527,-0.01874,0.00838,0.03872,-0.02716,-0.00839,-0.03404,0.05612,0.97271,4.02039,1.77417,1.78280,1.78598,-1.80500,8.42566,3.95676,-2.30809,8.48788,A,145713.40
4.03477,57.68884544,11.98031363,57.68882,11.98031,14:57:13.564982,0.00351,1.89527,-0.01823,0.00708,0.03383,-0.02243,-0.01709,-0.07716,0.01513,0.95191,4.03062,1.77417,1.78280,1.78598,-1.80500,8.42566,3.95676,-2.30809,8.48788,A,145713.40
4.04510,57.68884544,11.98031363,57.68882,11.98031,14:57:13.575659,0.00331,1.89527,-0.01825,0.00555,0.03109,-0.01296,-0.02244,-0.01647,-0.01684,0.95087,4.04098,1.77417,1.78280,1.78598,-1.80500,8.42566,3.95676,-2.30809,8.48788,A,145713.40
4.05570,57.68884544,11.98031363,57.68882,11.98031,14:57:13.585902,0.00351,1.89527,-0.01803,0.00402,0.02773,-0.01082,-0.02290,-0.00287,-0.00024,0.96880,4.05157,1.77417,1.78280,1.78598,-1.80500,8.42566,3.95676,-2.30809,8.48788,A,145713.40
4.07887,57.68884544,11.98031363,57.68882,11.98031,14:57:13.609078,0.01628,1.89527,-0.01821,0.00252,0.01459,-0.01006,-0.02045,-0.08436,-0.01915,1.04859,4.06172,1.77417,1.78280,1.78598,-1.80500,8.42566,4.07708,-2.44677,8.65467,A,145713.50
4.09461,57.68884729,11.98031188,57.68882,11.98031,14:57:13.624827,0.00825,1.89527,-0.01769,-0.00144,0.00405,0.00246,-0.02091,0.00140,0.03148,1.04706,4.08812,1.78628,1.78962,1.78919,-1.90910,8.63124,4.07708,-2.44677,8.65467,A,145713.50
4.10021,57.68884729,11.98031188,57.68882,11.98031,14:57:13.630419,0.00355,1.89527,-0.01740,-0.00317,0.00558,-0.00914,-0.02259,0.09729,0.01812,0.97332,4.09607,1.78628,1.78962,1.78919,-1.90910,8.63124,4.07708,-2.44677,8.65467,A,145713.50
4.11060,57.68884729,11.98031188,57.68882,11.98031,14:57:13.640804,0.00353,1.89527,-0.01786,-0.00543,0.00451,-0.04106,-0.02626,0.14835,-0.02806,0.88230,4.10644,1.78628,1.78962,1.78919,-1.90910,8.63124,4.07708,-2.44677,8.65467,A,145713.50
4.12097,57.68884729,11.98031188,57.68882,11.98031,14:57:13.651172,0.00332,1.89527,-0.01784,-0.00809,0.00344,-0.06931,-0.03527,-0.00128,-0.00049,0.86492,4.11682,1.78628,1.78962,1.78919,-1.90910,8.63124,4.07708,-2.44677,8.65467,A,145713.50
4.13170,57.68884729,11.98031188,57.68882,11.98031,14:57:13.661905,0.00366,1.89527,-0.01795,-0.01098,0.00024,-0.04763,-0.04321,-0.29341,-0.00769,0.96063,4.12755,1.78628,1.78962,1.78919,-1.90910,8.63124,4.07708,-2.44677,8.65467,A,145713.50
4.14194,57.68884729,11.98031188,57.68882,11.98031,14:57:13.672154,0.00351,1.89527,-0.01825,-0.01387,0.00069,0.01178,-0.05084,-0.20868,-0.02153,0.99930,4.13760,1.78628,1.78962,1.78919,-1.90910,8.63124,4.07708,-2.44677,8.65467,A,145713.50
4.15239,57.68884729,11.98031188,57.68882,11.98031,14:57:13.682602,0.00356,1.89527,-0.01889,-0.01687,-0.01045,0.05087,-0.05802,-0.00915,-0.03855,1.01742,4.14826,1.78628,1.78962,1.78919,-1.90910,8.63124,4.07708,-2.44677,8.65467,A,145713.50
4.16299,57.68884729,11.98031188,57.68882,11.98031,14:57:13.693193,0.00353,1.89527,-0.02038,-0.01970,-0.01763,0.05026,-0.06306,0.12779,-0.09327,1.02102,4.15883,1.78628,1.78962,1.78919,-1.90910,8.63124,4.07708,-2.44677,8.65467,A,145713.50
4.17312,57.68884729,11.98031188,57.68882,11.98031,14:57:13.703555,0.00332,1.89527,-0.02084,-0.02236,-0.02817,0.01300,-0.06367,0.16940,-0.01903,1.04243,4.16899,1.78628,1.78962,1.78919,-1.90910,8.63124,4.07708,-2.44677,8.65467,A,145713.50
4.19730,57.68884729,11.98031188,57.68882,11.98031,14:57:13.727720,0.01710,1.89527,-0.02035,-0.02488,-0.02970,-0.03785,-0.06138,-0.03758,0.04984,1.06787,4.17955,1.78628,1.78962,1.78919,-1.90910,8.63124,4.19547,-2.50621,8.82146,A,145713.60
4.20877,57.68884905,11.98031022,57.68882,11.98031,14:57:13.738981,0.00561,1.89527,-0.02122,-0.02958,-0.00328,-0.04992,-0.06780,-0.02080,-0.06460,1.04993,4.20262,1.79718,1.79059,1.78181,-2.00795,8.82658,4.19547,-2.50621,8.82146,A,145713.60
4.21704,57.68884905,11.98031022,57.68882,11.98031,14:57:13.747453,0.00333,1.89527,-0.02209,-0.03133,-0.00572,-0.03098,-0.07375,0.03575,-0.06472,1.01272,4.21290,1.79718,1.79059,1.78181,-2.00795,8.82658,4.19547,-2.50621,8.82146,A,145713.60
4.22760,57.68884905,11.98031022,57.68882,11.98031,14:57:13.757806,0.00349,1.89527,-0.02325,-0.03283,-0.00969,-0.02090,-0.07451,0.00622,-0.07723,0.92555,4.22347,1.79718,1.79059,1.78181,-2.00795,8.82658,4.19547,-2.50621,8.82146,A,145713.60
4.23792,57.68884905,11.98031022,57.68882,11.98031,14:57:13.768135,0.00358,1.89527,-0.02394,-0.03396,0.00054,-0.00090,-0.07131,-0.13859,-0.05557,0.92470,4.23356,1.79718,1.79059,1.78181,-2.00795,8.82658,4.19547,-2.50621,8.82146,A,145713.60
4.24864,57.68884905,11.98031022,57.68882,11.98031,14:57:13.778850,0.00390,1.89527,-0.02417,-0.03490,0.00161,0.02751,-0.07238,-0.16433,-0.02867,0.92781,4.24448,1.79718,1.79059,1.78181,-2.00795,8.82658,4.19547,-2.50621,8.82146,A,145713.60
4.25867,57.68884905,11.98031022,57.68882,11.98031,14:57:13.788878,0.00353,1.89527,-0.02335,-0.03563,-0.00526,0.04263,-0.07192,-0.04185,0.03886,0.91366,4.25452,1.79718,1.79059,1.78181,-2.00795,8.82658,4.19547,-2.50621,8.82146,A,145713.60
4.26962,57.68884905,11.98031022,57.68882,11.98031,14:57:13.799839,0.00406,1.89527,-0.02266,-0.03631,-0.00404,0.02094,-0.06535,0.07753,0.03379,0.97106,4.26523,1.79718,1.79059,1.78181,-2.00795,8.82658,4.19547,-2.50621,8.82146,A,145713.60
4.27952,57.68884905,11.98031022,57.68882,11.98031,14:57:13.809718,0.00355,1.89527,-0.02234,-0.03699,-0.00633,-0.00777,-0.07222,0.16287,0.01415,1.06854,4.27536,1.79718,1.79059,1.78181,-2.00795,8.82658,4.19547,-2.50621,8.82146,A,145713.60
4.28976,57.68884905,11.98031022,57.68882,11.98031,14:57:13.819968,0.00356,1.89527,-0.02209,-0.03787,-0.00389,-0.03694,-0.07711,0.07174,0.00897,1.18505,4.28541,1.79718,1.79059,1.78181,-2.00795,8.82658,4.19547,-2.50621,8.82146,A,145713.60
4.31389,57.68884905,11.98031022,57.68883,11.98030,14:57:13.844100,0.01661,1.91569,-0.02220,-0.03906,-0.00496,-0.04686,-0.09315,-0.12895,-0.01745,1.18981,4.29667,1.79718,1.79059,1.78181,-2.00795,8.82658,4.31227,-2.58545,8.98826,A,145713.70
4.32833,57.68885086,11.98030857,57.68883,11.98030,14:57:13.858542,0.00767,1.91569,-0.02378,-0.04243,-0.00786,-0.00380,-0.10582,-0.02233,-0.09443,0.86156,4.32191,1.80903,1.78720,1.77460,-2.10556,9.02883,4.31227,-2.58545,8.98826,A,145713.70
4.33460,57.68885086,11.98030857,57.68883,11.98030,14:57:13.864805,0.00354,1.91569,-0.02324,-0.04356,-0.01687,-0.00013,-0.10231,-0.07070,0.01958,0.78727,4.33045,1.80903,1.78720,1.77460,-2.10556,9.02883,4.31227,-2.58545,8.98826,A,145713.70
4.34497,57.68885086,11.98030857,57.68883,11.98030,14:57:13.875177,0.00334,1.91569,-0.02376,-0.04489,-0.01366,0.01819,-0.09177,-0.13444,-0.03812,0.84973,4.34083,1.80903,1.78720,1.77460,-2.10556,9.02883,4.31227,-2.58545,8.98826,A,145713.70
4.35572,57.68885086,11.98030857,57.68883,11.98030,14:57:13.885927,0.00368,1.91569,-0.02388,-0.04610,-0.00954,0.04461,-0.08887,-0.16763,-0.01842,0.93757,4.35157,1.80903,1.78720,1.77460,-2.10556,9.02883,4.31227,-2.58545,8.98826,A,145713.70
4.36599,57.68885086,11.98030857,57.68883,11.98030,14:57:13.896192,0.00355,1.91569,-0.02395,-0.04729,-0.01137,0.05866,-0.08688,0.03678,-0.01513,0.99576,4.36161,1.80903,1.78720,1.77460,-2.10556,9.02883,4.31227,-2.58545,8.98826,A,145713.70
4.37638,57.68885086,11.98030857,57.68883,11.98030,14:57:13.906587,0.00354,1.91569,-0.02364,-0.04865,-0.00801,0.04125,-0.09238,0.09626,0.00939,1.06268,4.37223,1.80903,1.78720,1.77460,-2.10556,9.02883,4.31227,-2.58545,8.98826,A,145713.70
4.38676,57.68885086,11.98030857,57.68883,11.98030,14:57:13.916968,0.00352,1.91569,-0.02406,-0.05015,-0.01549,0.01254,-0.09681,0.17849,-0.03812,1.09666,4.38260,1.80903,1.78720,1.77460,-2.10556,9.02883,4.31227,-2.58545,8.98826,A,145713.70
4.39757,57.68885086,11.98030857,57.68883,11.98030,14:57:13.927796,0.00379,1.91569,-0.02357,-0.05185,-0.01946,-0.02029,-0.10597,0.05118,0.03306,1.16181,4.39299,1.80903,1.78720,1.77460,-2.10556,9.02883,4.31227,-2.58545,8.98826,A,145713.70
4.40786,57.68885086,11.98030857,57.68883,11.98030,14:57:13.938064,0.00368,1.91569,-0.02362,-0.05360,-0.02130,-0.02884,-0.11285,-0.08156,-0.00720,1.14735,4.40371,1.80903,1.78720,1.77460,-2.10556,9.02883,4.31227,-2.58545,8.98826,A,145713.70
4.44180,57.68885086,11.98030857,57.68883,11.98030,14:57:13.972027,0.02723,1.91569,-0.02406,-0.05513,-0.01473,-0.00578,-0.11941,-0.04276,-0.04026,1.04414,4.41375,1.80903,1.78720,1.77460,-2.10556,9.02883,4.44009,-2.77367,9.34037,A,145713.90
4.45884,57.68885298,11.98030674,57.68883,11.98030,14:57:13.989053,0.00762,1.91569,-0.02370,-0.05825,-0.02588,-0.01311,-0.09620,-0.08003,0.05014,0.80154,4.45186,1.81970,1.78111,1.76380,-2.21450,9.26387,4.44009,-2.77367,9.34037,A,145713.90
4.46519,57.68885298,11.98030674,57.68883,11.98030,14:57:13.995625,0.00350,1.91569,-0.02332,-0.05842,-0.02069,-0.00731,-0.09773,-0.06130,0.01287,0.90451,4.46102,1.81970,1.78111,1.76380,-2.21450,9.26387,4.44009,-2.77367,9.34037,A,145713.90
4.47561,57.68885298,11.98030674,57.68883,11.98030,14:57:14.005817,0.00352,1.91569,-0.02357,-0.05844,-0.00175,-0.00136,-0.08734,-0.12206,-0.03776,1.07787,4.47147,1.81970,1.78111,1.76380,-2.21450,9.26387,4.44009,-2.77367,9.34037,A,145713.90
4.48600,57.68885298,11.98030674,57.68883,11.98030,14:57:14.016202,0.00351,1.91569,-0.02363,-0.05844,-0.00862,0.02262,-0.09788,0.04258,-0.02043,1.25751,4.48164,1.81970,1.78111,1.76380,-2.21450,9.26387,4.44009,-2.77367,9.34037,A,145713.90
4.49660,57.68885298,11.98030674,57.68883,11.98030,14:57:14.026808,0.00371,1.91569,-0.02315,-0.05844,-0.00694,0.01529,-0.10048,0.15122,0.02403,1.23275,4.49246,1.81970,1.78111,1.76380,-2.21450,9.26387,4.44009,-2.77367,9.34037,A,145713.90
4.50680,57.68885298,11.98030674,57.68883,11.98030,14:57:14.037003,0.00351,1.91569,-0.02290,-0.05844,-0.00129,-0.01449,-0.11712,0.13377,-0.00177,1.12264,4.50265,1.81970,1.78111,1.76380,-2.21450,9.26387,4.44009,-2.77367,9.34037,A,145713.90
4.51715,57.68885298,11.98030674,57.68883,11.98030,14:57:14.047571,0.00335,1.91569,-0.02291,-0.05844,0.00085,-0.04427,-0.11590,-0.04923,-0.02202,1.01742,4.51301,1.81970,1.78111,1.76380,-2.21450,9.26387,4.44009,-2.77367,9.34037,A,145713.90
4.52788,57.68885298,11.98030674,57.68883,11.98030,14:57:14.058086,0.00368,1.91569,-0.02150,-0.05844,-0.00419,-0.04900,-0.11712,-0.09601,0.06789,0.90731,4.52373,1.81970,1.78111,1.76380,-2.21450,9.26387,4.44009,-2.77367,9.34037,A,145713.90
4.53807,57.68885298,11.98030674,57.68883,11.98030,14:57:14.068280,0.00356,1.91569,-0.02186,-0.05844,-0.00358,-0.03801,-0.11437,-0.10705,-0.03812,0.88200,4.53370,1.81970,1.78111,1.76380,-2.21450,9.26387,4.44009,-2.77367,9.34037,A,145713.90
4.56184,57.68885298,11.98030674,57.68883,11.98030,14:57:14.092070,0.01693,1.91569,-0.02173,-0.05844,0.00268,-0.01205,-0.10185,-0.03019,-0.01391,0.81325,4.54432,1.81970,1.78111,1.76380,-2.21450,9.26387,4.55965,-2.86282,9.52570,A,145714.00
4.57321,57.68885484,11.98030506,57.68883,11.98030,14:57:14.103679,0.00566,1.91569,-0.02225,-0.05844,0.00375,0.00032,-0.08154,-0.04862,-0.06015,1.00455,4.56704,1.82929,1.77276,1.75539,-2.31469,9.47093,4.55965,-2.86282,9.52570,A,145714.00
4.58116,57.68885484,11.98030506,57.68883,11.98030,14:57:14.111575,0.00335,1.91569,-0.02184,-0.05844,0.00299,0.00445,-0.07054,-0.13036,0.00756,1.08104,4.57702,1.82929,1.77276,1.75539,-2.31469,9.47093,4.55965,-2.86282,9.52570,A,145714.00
4.59174,57.68885484,11.98030506,57.68883,11.98030,14:57:14.121946,0.00353,1.91569,-0.02120,-0.05844,0.00573,0.01697,-0.07009,-0.10254,0.02342,1.11014,4.58759,1.82929,1.77276,1.75539,-2.31469,9.47093,4.55965,-2.86282,9.52570,A,145714.00
4.60215,57.68885484,11.98030506,57.68883,11.98030,14:57:14.132354,0.00353,1.91569,-0.02075,-0.05844,0.00283,0.01407,-0.06596,0.02702,0.01177,1.10331,4.59778,1.82929,1.77276,1.75539,-2.31469,9.47093,4.55965,-2.86282,9.52570,A,145714.00
4.61255,57.68885484,11.98030506,57.68883,11.98030,14:57:14.142752,0.00353,1.91569,-0.02029,-0.05827,0.00390,-0.00090,-0.07131,0.10388,0.01055,1.02376,4.60841,1.82929,1.77276,1.75539,-2.31469,9.47093,4.55965,-2.86282,9.52570,A,145714.00
4.62530,57.68885484,11.98030506,57.68883,11.98030,14:57:14.156323,0.00588,1.91569,-0.01983,-0.05782,-0.00984,-0.02106,-0.07879,0.00311,0.01989,0.98552,4.62046,1.82929,1.77276,1.75539,-2.31469,9.47093,4.55965,-2.86282,9.52570,A,145714.00
4.63327,57.68885484,11.98030506,57.68883,11.98030,14:57:14.163699,0.00336,1.91569,-0.01963,-0.05700,-0.01702,-0.02029,-0.08261,-0.13389,0.00555,1.00052,4.62912,1.82929,1.77276,1.75539,-2.31469,9.47093,4.55965,-2.86282,9.52570,A,145714.00
4.64382,57.68885484,11.98030506,57.68883,11.98030,14:57:14.174022,0.00351,1.91569,-0.01900,-0.05573,-0.01656,-0.00746,-0.08673,-0.11090,0.03288,0.92104,4.63968,1.82929,1.77276,1.75539,-2.31469,9.47093,4.55965,-2.86282,9.52570,A,145714.00
4.65422,57.68885484,11.98030506,57.68883,11.98030,14:57:14.184428,0.00352,1.91569,-0.01945,-0.05414,-0.01274,0.01422,-0.08566,-0.07790,-0.03556,0.94044,4.64986,1.82929,1.77276,1.75539,-2.31469,9.47093,4.55965,-2.86282,9.52570,A,145714.00
4.67834,57.68885484,11.98030506,57.68883,11.98030,14:57:14.208547,0.01724,1.91569,-0.02012,-0.05222,-0.02481,0.01667,-0.07940,-0.00165,-0.04069,0.94032,4.66064,1.82929,1.77276,1.75539,-2.31469,9.47093,4.67651,-2.97179,9.69249,A,145714.10
4.69438,57.68885676,11.98030335,57.68883,11.98030,14:57:14.224595,0.00812,1.93102,-0.01974,-0.04794,-0.02954,0.02247,-0.06291,-0.05697,0.07168,1.11764,4.68732,1.83947,1.76512,1.75088,-2.41619,9.68476,4.67651,-2.97179,9.69249,A,145714.10
4.70036,57.68885676,11.98030335,57.68883,11.98030,14:57:14.230562,0.00381,1.93102,-0.01905,-0.04653,-0.03703,0.02293,-0.06276,0.00586,0.06039,1.10056,4.69621,1.83947,1.76512,1.75088,-2.41619,9.68476,4.67651,-2.97179,9.69249,A,145714.10
4.71046,57.68885676,11.98030335,57.68883,11.98030,14:57:14.240662,0.00349,1.93102,-0.01866,-0.04548,-0.02909,0.00766,-0.05894,0.08571,0.03373,1.01553,4.70631,1.83947,1.76512,1.75088,-2.41619,9.68476,4.67651,-2.97179,9.69249,A,145714.10
4.72085,57.68885676,11.98030335,57.68883,11.98030,14:57:14.251050,0.00331,1.93102,-0.01905,-0.04460,-0.03748,-0.01907,-0.05924,0.09571,-0.01275,0.90853,4.71671,1.83947,1.76512,1.75088,-2.41619,9.68476,4.67651,-2.97179,9.69249,A,145714.10
4.73162,57.68885676,11.98030335,57.68883,11.98030,14:57:14.261827,0.00368,1.93102,-0.01958,-0.04387,-0.04008,-0.04106,-0.05695,-0.03190,-0.01915,0.86626,4.72748,1.83947,1.76512,1.75088,-2.41619,9.68476,4.67651,-2.97179,9.69249,A,145714.10
4.74172,57.68885676,11.98030335,57.68883,11.98030,14:57:14.271940,0.00354,1.93102,-0.01970,-0.04299,-0.03916,-0.03770,-0.05726,-0.07912,0.00201,0.83942,4.73738,1.83947,1.76512,1.75088,-2.41619,9.68476,4.67651,-2.97179,9.69249,A,145714.10
4.75209,57.68885676,11.98030335,57.68883,11.98030,14:57:14.282298,0.00351,1.93102,-0.02034,-0.04177,-0.03504,-0.02029,-0.04794,-0.14384,-0.02971,0.94818,4.74796,1.83947,1.76512,1.75088,-2.41619,9.68476,4.67651,-2.97179,9.69249,A,145714.10
4.76250,57.68885676,11.98030335,57.68883,11.98030,14:57:14.292700,0.00352,1.93102,-0.02066,-0.04027,-0.03901,0.01254,-0.04015,-0.10596,-0.00659,1.04694,4.75834,1.83947,1.76512,1.75088,-2.41619,9.68476,4.67651,-2.97179,9.69249,A,145714.10
4.77287,57.68885676,11.98030335,57.68883,11.98030,14:57:14.303067,0.00331,1.93102,-0.02104,-0.03838,-0.03672,0.02522,-0.03954,-0.03928,-0.01269,1.13698,4.76873,1.83947,1.76512,1.75088,-2.41619,9.68476,4.67651,-2.97179,9.69249,A,145714.10
4.79683,57.68885676,11.98030335,57.68883,11.98030,14:57:14.327042,0.01687,1.93102,-0.02097,-0.03637,-0.04543,0.03484,-0.03420,0.06332,0.02989,1.15772,4.77933,1.83947,1.76512,1.75088,-2.41619,9.68476,4.79531,-3.05103,9.87782,A,145714.20
4.80868,57.68885859,11.98030172,57.68883,11.98030,14:57:14.338889,0.00562,1.93102,-0.02129,-0.03212,-0.04268,0.00491,-0.03954,-0.05063,0.03483,1.02748,4.80254,1.84862,1.75828,1.74874,-2.51310,9.88769,4.79531,-3.05103,9.87782,A,145714.20
4.81694,57.68885859,11.98030172,57.68883,11.98030,14:57:14.347143,0.00330,1.93102,-0.02145,-0.03042,-0.04711,-0.00441,-0.04046,0.01128,0.00939,0.93458,4.81281,1.84862,1.75828,1.74874,-2.51310,9.88769,4.79531,-3.05103,9.87782,A,145714.20
4.82770,57.68885859,11.98030172,57.68883,11.98030,14:57:14.357900,0.00366,1.93102,-0.02236,-0.02881,-0.04084,-0.01113,-0.04260,0.02452,-0.03678,0.84881,4.82355,1.84862,1.75828,1.74874,-2.51310,9.88769,4.79531,-3.05103,9.87782,A,145714.20
4.83809,57.68885859,11.98030172,57.68883,11.98030,14:57:14.368312,0.00371,1.93102,-0.02358,-0.02734,-0.05108,-0.01953,-0.03603,-0.04142,-0.04984,0.83704,4.83364,1.84862,1.75828,1.74874,-2.51310,9.88769,4.79531,-3.05103,9.87782,A,145714.20
4.84830,57.68885859,11.98030172,57.68883,11.98030,14:57:14.378504,0.00352,1.93102,-0.02402,-0.02581,-0.04894,-0.00365,-0.03328,-0.02440,-0.00677,0.88602,4.84418,1.84862,1.75828,1.74874,-2.51310,9.88769,4.79531,-3.05103,9.87782,A,145714.20
4.85870,57.68885859,11.98030172,57.68883,11.98030,14:57:14.388901,0.00351,1.93102,-0.02484,-0.02426,-0.04283,0.00995,-0.02733,-0.12047,-0.03581,0.98295,4.85455,1.84862,1.75828,1.74874,-2.51310,9.88769,4.79531,-3.05103,9.87782,A,145714.20
4.86968,57.68885859,11.98030172,57.68883,11.98030,14:57:14.399893,0.00365,1.93102,-0.02530,-0.02250,-0.05321,0.03545,-0.02641,-0.15335,-0.00360,1.09458,4.86532,1.84862,1.75828,1.74874,-2.51310,9.88769,4.79531,-3.05103,9.87782,A,145714.20
4.87993,57.68885859,11.98030172,57.68883,11.98030,14:57:14.410129,0.00349,1.93102,-0.02511,-0.02077,-0.04863,0.05484,-0.02183,-0.02446,0.04038,1.13741,4.87579,1.84862,1.75828,1.74874,-2.51310,9.88769,4.79531,-3.05103,9.87782,A,145714.20
4.89033,57.68885859,11.98030172,57.68883,11.98030,14:57:14.420533,0.00350,1.93102,-0.02497,-0.01922,-0.04634,0.04919,-0.02045,0.02830,0.03532,1.13991,4.88598,1.84862,1.75828,1.74874,-2.51310,9.88769,4.79531,-3.05103,9.87782,A,145714.20
4.91424,57.68885859,11.98030172,57.68883,11.98029,14:57:14.444462,0.01701,1.93102,-0.02471,-0.01777,-0.04649,0.01835,-0.01801,0.08497,0.04240,1.04109,4.89684,1.84862,1.75828,1.74874,-2.51310,9.88769,4.91242,-3.15009,10.02608,A,145714.30
4.93218,57.68886050,11.98030005,57.68883,11.98029,14:57:14.462391,0.00819,1.93102,-0.02642,-0.01523,-0.05428,-0.07023,-0.01251,-0.10669,-0.02025,1.00174,4.92550,1.85686,1.75582,1.75130,-2.61247,10.09988,4.91242,-3.15009,10.02608,A,145714.30
4.93779,57.68886050,11.98030005,57.68883,11.98029,14:57:14.468011,0.00352,1.93102,-0.02664,-0.01469,-0.05642,-0.06992,-0.01404,-0.09528,0.00555,1.08019,4.93345,1.85686,1.75582,1.75130,-2.61247,10.09988,4.91242,-3.15009,10.02608,A,145714.30
4.94818,57.68886050,11.98030005,57.68883,11.98029,14:57:14.478382,0.00350,1.93102,-0.02742,-0.01401,-0.05077,-0.06091,-0.01419,-0.03270,-0.02928,1.09770,4.94404,1.85686,1.75582,1.75130,-2.61247,10.09988,4.91242,-3.15009,10.02608,A,145714.30
4.95860,57.68886050,11.98030005,57.68883,11.98029,14:57:14.488811,0.00352,1.93102,-0.02855,-0.01322,-0.05001,-0.06076,-0.01068,-0.02495,-0.05490,1.06433,4.95445,1.85686,1.75582,1.75130,-2.61247,10.09988,4.91242,-3.15009,10.02608,A,145714.30
4.96896,57.68886050,11.98030005,57.68883,11.98029,14:57:14.499154,0.00333,1.93102,-0.02875,-0.01217,-0.05703,-0.05129,-0.00549,-0.00708,0.01354,0.96886,4.96481,1.85686,1.75582,1.75130,-2.61247,10.09988,4.91242,-3.15009,10.02608,A,145714.30
4.97957,57.68886050,11.98030005,57.68883,11.98029,14:57:14.509769,0.00354,1.93102,-0.02873,-0.01090,-0.05917,-0.03648,0.00062,-0.11712,0.02641,0.86840,4.97543,1.85686,1.75582,1.75130,-2.61247,10.09988,4.91242,-3.15009,10.02608,A,145714.30
4.98994,57.68886050,11.98030005,57.68883,11.98029,14:57:14.520149,0.00351,1.93102,-0.02892,-0.00942,-0.05047,-0.01617,-0.00014,-0.15750,0.00744,0.79953,4.98558,1.85686,1.75582,1.75130,-2.61247,10.09988,4.91242,-3.15009,10.02608,A,145714.30
5.00060,57.68886050,11.98030005,57.68883,11.98029,14:57:14.530796,0.00377,1.93102,-0.02886,-0.00781,-0.05886,0.00872,0.00536,-0.15512,0.02916,0.83326,4.99645,1.85686,1.75582,1.75130,-2.61247,10.09988,4.91242,-3.15009,10.02608,A,145714.30
5.01393,57.68886050,11.98030005,57.68883,11.98029,14:57:14.544169,0.00670,1.93102,0.00000,-0.00623,-0.05489,0.01987,0.00627,-0.07790,0.05826,0.93202,5.00659,1.85686,1.75582,1.75130,-2.61247,10.09988,4.91242,-3.15009,10.02608,A,145714.30
5.04982,57.68886050,11.98030005,57.68884,11.98029,14:57:14.580048,0.03150,1.93102,-0.00039,-0.00450,-0.04481,0.02186,0.00734,0.01324,0.02714,1.02340,5.01778,1.85686,1.75582,1.75130,-2.61247,10.09988,5.04815,-3.29868,10.37819,A,145714.50
5.06356,57.68886265,11.98029824,57.68884,11.98029,14:57:14.593786,0.00946,1.94710,-0.00287,-0.00011,-0.07169,0.05439,0.00429,0.03636,0.03745,1.05432,5.05604,1.86589,1.75469,1.75465,-2.71966,10.33907,5.04815,-3.29868,10.37819,A,145714.50
5.07020,57.68886265,11.98029824,57.68884,11.98029,14:57:14.600422,0.00393,1.94710,-0.00312,0.00074,-0.06650,0.02781,0.01192,0.09577,0.03977,0.92598,5.06548,1.86589,1.75469,1.75465,-2.71966,10.33907,5.04815,-3.29868,10.37819,A,145714.50
5.08242,57.68886265,11.98029824,57.68884,11.98029,14:57:14.612679,0.00576,1.94710,-0.00358,0.00173,-0.05398,0.00598,0.01681,0.10888,0.02745,0.89408,5.07761,1.86589,1.75469,1.75465,-2.71966,10.33907,5.04815,-3.29868,10.37819,A,145714.50
5.09054,57.68886265,11.98029824,57.68884,11.98029,14:57:14.620761,0.00348,1.94710,-0.00431,0.00275,-0.04283,-0.01876,0.02414,-0.06612,-0.00482,0.90573,5.08645,1.86589,1.75469,1.75465,-2.71966,10.33907,5.04815,-3.29868,10.37819,A,145714.50
5.10120,57.68886265,11.98029824,57.68884,11.98029,14:57:14.631654,0.00360,1.94710,-0.00547,0.00402,-0.03825,-0.00594,0.02322,-0.11017,-0.03111,0.96246,5.09705,1.86589,1.75469,1.75465,-2.71966,10.33907,5.04815,-3.29868,10.37819,A,145714.50
5.11153,57.68886265,11.98029824,57.68884,11.98029,14:57:14.641746,0.00353,1.94710,-0.00659,0.00555,-0.03748,0.01422,0.02933,-0.15524,-0.03355,1.03066,5.10738,1.86589,1.75469,1.75465,-2.71966,10.33907,5.04815,-3.29868,10.37819,A,145714.50
5.12196,57.68886265,11.98029824,57.68884,11.98029,14:57:14.652182,0.00374,1.94710,-0.00796,0.00750,-0.03474,0.03575,0.03010,0.01708,-0.05344,1.04981,5.11759,1.86589,1.75469,1.75465,-2.71966,10.33907,5.04815,-3.29868,10.37819,A,145714.50
5.13227,57.68886265,11.98029824,57.68884,11.98029,14:57:14.662489,0.00366,1.94710,-0.00904,0.00985,-0.02985,0.03423,0.03956,-0.01769,-0.03965,1.11276,5.12812,1.86589,1.75469,1.75465,-2.71966,10.33907,5.04815,-3.29868,10.37819,A,145714.50
5.14252,57.68886265,11.98029824,57.68884,11.98029,14:57:14.672734,0.00352,1.94710,-0.00852,0.01226,-0.01656,0.03942,0.04048,-0.03794,0.07430,1.20304,5.13837,1.86589,1.75469,1.75465,-2.71966,10.33907,5.04815,-3.29868,10.37819,A,145714.50
5.16587,57.68886265,11.98029824,57.68884,11.98029,14:57:14.696088,0.01631,1.94710,-0.00886,0.01477,-0.01183,0.03560,0.04552,-0.04294,0.00244,1.09111,5.14873,1.86589,1.75469,1.75465,-2.71966,10.33907,5.16430,-3.36802,10.54499,A,145714.60
5.18372,57.68886459,11.98029654,57.68884,11.98029,14:57:14.713935,0.00768,1.94710,-0.00925,0.02106,-0.00602,-0.06366,0.04292,0.14549,0.00518,0.70248,5.17738,1.87401,1.75676,1.76301,-2.82076,10.55466,5.16430,-3.36802,10.54499,A,145714.60
5.18997,57.68886459,11.98029654,57.68884,11.98029,14:57:14.720196,0.00353,1.94710,-0.00946,0.02267,-0.00526,-0.09298,0.04674,0.00268,0.00787,0.78196,5.18559,1.87401,1.75676,1.76301,-2.82076,10.55466,5.16430,-3.36802,10.54499,A,145714.60
5.20059,57.68886459,11.98029654,57.68884,11.98029,14:57:14.730811,0.00376,1.94710,-0.01034,0.02465,0.00848,-0.07283,0.04903,-0.27834,-0.04520,1.00186,5.19644,1.87401,1.75676,1.76301,-2.82076,10.55466,5.16430,-3.36802,10.54499,A,145714.60
5.21075,57.68886459,11.98029654,57.68884,11.98029,14:57:14.740962,0.00353,1.94710,-0.01139,0.02644,0.02070,-0.00563,0.05590,-0.25760,-0.07491,1.14814,5.20659,1.87401,1.75676,1.76301,-2.82076,10.55466,5.16430,-3.36802,10.54499,A,145714.60
5.22124,57.68886459,11.98029654,57.68884,11.98029,14:57:14.751686,0.00349,1.94710,-0.01253,0.02819,0.02269,0.05637,0.06430,-0.00122,-0.07979,1.08995,5.21692,1.87401,1.75676,1.76301,-2.82076,10.55466,5.16430,-3.36802,10.54499,A,145714.60
5.23183,57.68886459,11.98029654,57.68884,11.98029,14:57:14.762043,0.00370,1.94710,-0.01344,0.02977,0.01673,0.04675,0.07163,0.19111,-0.05527,1.00845,5.22767,1.87401,1.75676,1.76301,-2.82076,10.55466,5.16430,-3.36802,10.54499,A,145714.60
5.24206,57.68886459,11.98029654,57.68884,11.98029,14:57:14.772275,0.00354,1.94710,-0.01302,0.03096,0.00100,-0.00044,0.07698,0.04752,0.04538,0.99387,5.23768,1.87401,1.75676,1.76301,-2.82076,10.55466,5.16430,-3.36802,10.54499,A,145714.60
5.25251,57.68886459,11.98029654,57.68884,11.98029,14:57:14.782727,0.00360,1.94710,-0.01154,0.03190,0.01154,-0.01983,0.07576,-0.02379,0.11041,1.01144,5.24835,1.87401,1.75676,1.76301,-2.82076,10.55466,5.16430,-3.36802,10.54499,A,145714.60
5.26280,57.68886459,11.98029654,57.68884,11.98029,14:57:14.793020,0.00351,1.94710,-0.01010,0.03249,0.03170,-0.03358,0.06705,-0.11602,0.09656,1.01955,5.25865,1.87401,1.75676,1.76301,-2.82076,10.55466,5.16430,-3.36802,10.54499,A,145714.60
5.28600,57.68886459,11.98029654,57.68884,11.98029,14:57:14.816219,0.01623,1.94710,-0.00982,0.03283,0.03872,-0.01724,0.06064,-0.08302,0.01519,1.07787,5.26895,1.87401,1.75676,1.76301,-2.82076,10.55466,5.28444,-3.47699,10.76738,A,145714.70
5.30490,57.68886655,11.98029479,57.68884,11.98029,14:57:14.835123,0.00854,1.94710,-0.01005,0.03292,0.02192,-0.00395,0.04919,-0.00860,-0.03642,0.99497,5.29884,1.88132,1.76370,1.77347,-2.92483,10.77349,5.28444,-3.47699,10.76738,A,145714.70
5.30994,57.68886655,11.98029479,57.68884,11.98029,14:57:14.840159,0.00353,1.94710,-0.01030,0.03292,0.01673,-0.00365,0.05148,-0.08314,-0.00171,0.95874,5.30556,1.88132,1.76370,1.77347,-2.92483,10.77349,5.28444,-3.47699,10.76738,A,145714.70
5.32052,57.68886655,11.98029479,57.68884,11.98029,14:57:14.850745,0.00371,1.94710,-0.01078,0.03292,0.01933,0.00124,0.05422,-0.05868,-0.01964,0.88029,5.31619,1.88132,1.76370,1.77347,-2.92483,10.77349,5.28444,-3.47699,10.76738,A,145714.70
5.33088,57.68886655,11.98029479,57.68884,11.98029,14:57:14.861101,0.00369,1.94710,-0.01136,0.03292,0.02345,0.00674,0.05881,-0.00360,-0.02745,0.86919,5.32672,1.88132,1.76370,1.77347,-2.92483,10.77349,5.28444,-3.47699,10.76738,A,145714.70
5.34105,57.68886655,11.98029479,57.68884,11.98029,14:57:14.871477,0.00332,1.94710,-0.00990,0.03292,0.02391,0.01040,0.06232,0.07784,0.09675,0.94361,5.33689,1.88132,1.76370,1.77347,-2.92483,10.77349,5.28444,-3.47699,10.76738,A,145714.70
5.35163,57.68886655,11.98029479,57.68884,11.98029,14:57:14.881846,0.00351,1.94710,-0.00952,0.03292,0.04346,0.00933,0.05728,-0.05039,0.01787,1.09495,5.34748,1.88132,1.76370,1.77347,-2.92483,10.77349,5.28444,-3.47699,10.76738,A,145714.70
5.36205,57.68886655,11.98029479,57.68884,11.98029,14:57:14.892279,0.00355,1.94710,-0.00988,0.03292,0.04269,0.01972,0.04995,0.00140,-0.03642,1.15882,5.35767,1.88132,1.76370,1.77347,-2.92483,10.77349,5.28444,-3.47699,10.76738,A,145714.70
5.37242,57.68886655,11.98029479,57.68884,11.98029,14:57:14.902635,0.00352,1.94710,-0.01136,0.03292,0.03047,0.02201,0.04231,-0.00299,-0.11486,1.14772,5.36827,1.88132,1.76370,1.77347,-2.92483,10.77349,5.28444,-3.47699,10.76738,A,145714.70
5.38278,57.68886655,11.98029479,57.68884,11.98029,14:57:14.913003,0.00349,1.94710,-0.01244,0.03289,0.01032,0.01896,0.02735,0.06667,-0.06484,1.09422,5.37864,1.88132,1.76370,1.77347,-2.92483,10.77349,5.28444,-3.47699,10.76738,A,145714.70
5.40674,57.68886655,11.98029479,57.68884,11.98029,14:57:14.936957,0.01696,1.94710,-0.01256,0.03272,0.00146,-0.00838,0.01559,0.09675,0.01068,0.98125,5.38897,1.88132,1.76370,1.77347,-2.92483,10.77349,5.40518,-3.58596,10.93417,A,145714.80
5.41810,57.68886836,11.98029304,57.68884,11.98029,14:57:14.948323,0.00575,1.94710,-0.01240,0.03062,0.01276,-0.04244,0.01376,-0.03593,0.01037,0.89054,5.41176,1.88790,1.77374,1.78283,-3.02880,10.97374,5.40518,-3.58596,10.93417,A,145714.80
5.42620,57.68886836,11.98029304,57.68884,11.98029,14:57:14.956980,0.00346,1.94710,-0.01210,0.02893,0.01490,-0.02594,0.01589,-0.07979,0.02599,0.89048,5.42191,1.88790,1.77374,1.78283,-3.02880,10.97374,5.40518,-3.58596,10.93417,A,145714.80
5.43664,57.68886836,11.98029304,57.68884,11.98029,14:57:14.966857,0.00351,1.95798,-0.01239,0.02703,0.02055,0.00124,0.01650,-0.19087,-0.01379,0.93147,5.43250,1.88790,1.77374,1.78283,-3.02880,10.97374,5.40518,-3.58596,10.93417,A,145714.80
5.44698,57.68886836,11.98029304,57.68884,11.98029,14:57:14.977193,0.00346,1.95798,-0.01297,0.02525,0.02437,0.02736,0.02460,-0.05264,-0.03788,0.98710,5.44283,1.88790,1.77374,1.78283,-3.02880,10.97374,5.40518,-3.58596,10.93417,A,145714.80
5.45713,57.68886836,11.98029304,57.68884,11.98029,14:57:14.987573,0.00333,1.95798,-0.01258,0.02363,0.01704,0.03850,0.03269,-0.00964,0.03160,1.03255,5.45298,1.88790,1.77374,1.78283,-3.02880,10.97374,5.40518,-3.58596,10.93417,A,145714.80
5.46771,57.68886836,11.98029304,57.68884,11.98029,14:57:14.997930,0.00353,1.95798,-0.01239,0.02225,0.01902,0.03423,0.03208,0.02861,0.01568,1.04645,5.46356,1.88790,1.77374,1.78283,-3.02880,10.97374,5.40518,-3.58596,10.93417,A,145714.80
5.48038,57.68886836,11.98029304,57.68884,11.98029,14:57:15.010621,0.00581,1.95798,-0.01142,0.02117,0.01200,0.01239,0.02460,-0.04642,0.07863,1.11569,5.47549,1.88790,1.77374,1.78283,-3.02880,10.97374,5.40518,-3.58596,10.93417,A,145714.80
5.48844,57.68886836,11.98029304,57.68884,11.98029,14:57:15.018654,0.00347,1.95798,-0.01143,0.02041,0.00986,0.00384,0.02353,-0.00854,0.01049,1.10245,5.48437,1.88790,1.77374,1.78283,-3.02880,10.97374,5.40518,-3.58596,10.93417,A,145714.80
5.49889,57.68886836,11.98029304,57.68884,11.98029,14:57:15.029104,0.00353,1.95798,-0.01118,0.01993,0.00802,0.00048,0.01146,-0.02287,0.03013,1.13930,5.49474,1.88790,1.77374,1.78283,-3.02880,10.97374,5.40518,-3.58596,10.93417,A,145714.80
5.52207,57.68886836,11.98029304,57.68884,11.98029,14:57:15.052292,0.01630,1.95798,-0.01112,0.01970,0.00894,0.00827,0.01116,-0.11797,0.01610,1.20505,5.50495,1.88790,1.77374,1.78283,-3.02880,10.97374,5.52051,-3.70483,11.10096,A,145714.90
5.53940,57.68887025,11.98029119,57.68884,11.98029,14:57:15.069626,0.00811,1.95798,-0.01110,0.01970,-0.00099,0.07974,0.00933,0.00049,0.01928,0.94495,5.53304,1.89490,1.78412,1.78997,-3.13910,11.18480,5.52051,-3.70483,11.10096,A,145714.90
5.54504,57.68887025,11.98029119,57.68884,11.98029,14:57:15.075486,0.00326,1.95798,-0.01196,0.01970,-0.00618,0.06492,0.02017,0.04557,-0.02855,0.78824,5.54097,1.89490,1.78412,1.78997,-3.13910,11.18480,5.52051,-3.70483,11.10096,A,145714.90
5.55568,57.68887025,11.98029119,57.68884,11.98029,14:57:15.085900,0.00352,1.95798,-0.01242,0.01970,-0.00801,0.03591,0.02750,0.02178,-0.00360,0.64568,5.55153,1.89490,1.78412,1.78997,-3.13910,11.18480,5.52051,-3.70483,11.10096,A,145714.90
5.56609,57.68887025,11.98029119,57.68884,11.98029,14:57:15.096307,0.00355,1.95798,-0.01098,0.01970,-0.00297,0.00811,0.02567,-0.01757,0.07753,0.66368,5.56171,1.89490,1.78412,1.78997,-3.13910,11.18480,5.52051,-3.70483,11.10096,A,145714.90
5.57644,57.68887025,11.98029119,57.68884,11.98029,14:57:15.106647,0.00350,1.95798,-0.01028,0.01970,0.01108,-0.00502,0.03010,-0.06124,0.04526,0.78751,5.57230,1.89490,1.78412,1.78997,-3.13910,11.18480,5.52051,-3.70483,11.10096,A,145714.90
5.58697,57.68887025,11.98029119,57.68884,11.98029,14:57:15.117182,0.00363,1.95798,-0.01029,0.01970,0.02146,-0.00197,0.02643,-0.05283,0.00177,0.98070,5.58281,1.89490,1.78412,1.78997,-3.13910,11.18480,5.52051,-3.70483,11.10096,A,145714.90
5.59709,57.68887025,11.98029119,57.68884,11.98029,14:57:15.127533,0.00332,1.95798,-0.01127,0.01970,0.01933,0.00643,0.02307,0.02647,-0.06930,1.12868,5.59294,1.89490,1.78412,1.78997,-3.13910,11.18480,5.52051,-3.70483,11.10096,A,145714.90
5.60768,57.68887025,11.98029119,57.68884,11.98029,14:57:15.137889,0.00351,1.95798,-0.01230,0.01970,0.00543,0.00659,0.02063,0.02519,-0.06899,1.20695,5.60353,1.89490,1.78412,1.78997,-3.13910,11.18480,5.52051,-3.70483,11.10096,A,145714.90
5.61810,57.68887025,11.98029119,57.68884,11.98029,14:57:15.148325,0.00355,1.95798,-0.01275,0.01970,-0.01351,0.00491,0.01620,0.04801,-0.00756,1.16492,5.61373,1.89490,1.78412,1.78997,-3.13910,11.18480,5.52051,-3.70483,11.10096,A,145714.90
5.65289,57.68887025,11.98029119,57.68885,11.98028,14:57:15.183100,0.02794,1.95798,-0.01286,0.01970,-0.01290,-0.01266,0.02628,0.01452,0.01708,1.05280,5.62431,1.89490,1.78412,1.78997,-3.13910,11.18480,5.65144,-3.81379,11.45308,A,145715.10
5.66428,57.68887234,11.98028928,57.68885,11.98028,14:57:15.194501,0.00550,1.95798,-0.01263,0.01970,0.00879,-0.03587,0.03284,-0.05679,0.00958,0.83753,5.65823,1.90121,1.78912,1.79497,-3.25219,11.41645,5.65144,-3.81379,11.45308,A,145715.10
5.67260,57.68887234,11.98028928,57.68885,11.98028,14:57:15.202809,0.00343,1.95798,-0.01293,0.01970,0.01398,-0.01968,0.03040,-0.07393,-0.01251,0.92848,5.66852,1.90121,1.78912,1.79497,-3.25219,11.41645,5.65144,-3.81379,11.45308,A,145715.10
5.68427,57.68887234,11.98028928,57.68885,11.98028,14:57:15.214529,0.00470,1.95798,-0.01392,0.01970,0.01413,0.00872,0.02903,-0.07021,-0.06393,1.03828,5.67934,1.90121,1.78912,1.79497,-3.25219,11.41645,5.65144,-3.81379,11.45308,A,145715.10
5.69320,57.68887234,11.98028928,57.68885,11.98028,14:57:15.223657,0.00340,1.95798,-0.01503,0.01970,0.00757,0.02537,0.02781,-0.03062,-0.07418,1.11496,5.68911,1.90121,1.78912,1.79497,-3.25219,11.41645,5.65144,-3.81379,11.45308,A,145715.10
5.70393,57.68887234,11.98028928,57.68885,11.98028,14:57:15.234145,0.00356,1.95798,-0.01509,0.01970,-0.00404,0.04706,0.02353,-0.14884,0.01348,1.29039,5.69977,1.90121,1.78912,1.79497,-3.25219,11.41645,5.65144,-3.81379,11.45308,A,145715.10
5.71429,57.68887234,11.98028928,57.68885,11.98028,14:57:15.244503,0.00352,1.95798,-0.01539,0.01970,-0.00267,0.04538,0.02735,0.14244,-0.00726,1.10087,5.70992,1.90121,1.78912,1.79497,-3.25219,11.41645,5.65144,-3.81379,11.45308,A,145715.10
5.72481,57.68887234,11.98028928,57.68885,11.98028,14:57:15.255029,0.00365,1.95798,-0.01546,0.01970,-0.00526,0.00155,0.02781,0.18306,0.01135,1.02126,5.72065,1.90121,1.78912,1.79497,-3.25219,11.41645,5.65144,-3.81379,11.45308,A,145715.10
5.73514,57.68887234,11.98028928,57.68885,11.98028,14:57:15.265356,0.00353,1.95798,-0.01469,0.01970,0.00268,-0.04427,0.03162,0.12389,0.05527,0.88352,5.73099,1.90121,1.78912,1.79497,-3.25219,11.41645,5.65144,-3.81379,11.45308,A,145715.10
5.74521,57.68887234,11.98028928,57.68885,11.98028,14:57:15.275644,0.00336,1.95798,-0.01333,0.01970,0.00802,-0.06840,0.02628,-0.03392,0.08272,0.82429,5.74106,1.90121,1.78912,1.79497,-3.25219,11.41645,5.65144,-3.81379,11.45308,A,145715.10
5.76839,57.68887234,11.98028928,57.68885,11.98028,14:57:15.298611,0.01616,1.95798,-0.01363,0.01970,0.01383,-0.06061,0.02032,-0.15079,-0.01354,0.90792,5.75160,1.90121,1.78912,1.79497,-3.25219,11.41645,5.76697,-3.87323,11.63840,A,145715.20
5.78441,57.68887431,11.98028748,57.68885,11.98028,14:57:15.314633,0.00784,1.95798,-0.01462,0.01970,0.01184,0.05576,0.01696,0.01958,-0.06826,0.94672,5.77786,1.90689,1.79403,1.79988,-3.35927,11.63592,5.76697,-3.87323,11.63840,A,145715.20
5.79042,57.68887431,11.98028748,57.68885,11.98028,14:57:15.320639,0.00345,1.95798,-0.01472,0.01970,0.00696,0.05271,0.02903,0.01989,0.00287,0.98369,5.78633,1.90689,1.79403,1.79988,-3.35927,11.63592,5.76697,-3.87323,11.63840,A,145715.20
5.80187,57.68887431,11.98028748,57.68885,11.98028,14:57:15.332091,0.00435,1.95798,-0.01417,0.01970,0.00390,0.04614,0.02643,0.02574,0.04856,1.04353,5.79751,1.90689,1.79403,1.79988,-3.35927,11.63592,5.76697,-3.87323,11.63840,A,145715.20
5.81137,57.68887431,11.98028748,57.68885,11.98028,14:57:15.341593,0.00346,1.96774,-0.01320,0.01970,0.00726,0.01514,0.04002,-0.05118,0.07967,1.08897,5.80730,1.90689,1.79403,1.79988,-3.35927,11.63592,5.76697,-3.87323,11.63840,A,145715.20
5.82185,57.68887431,11.98028748,57.68885,11.98028,14:57:15.352084,0.00372,1.96774,-0.01150,0.01970,0.01612,-0.00242,0.04170,-0.01982,0.13237,1.13558,5.81735,1.90689,1.79403,1.79988,-3.35927,11.63592,5.76697,-3.87323,11.63840,A,145715.20
5.83293,57.68887431,11.98028748,57.68885,11.98028,14:57:15.363155,0.00441,1.96774,-0.01084,0.01970,0.02207,-0.01968,0.03834,0.11804,0.04569,1.05280,5.82874,1.90689,1.79403,1.79988,-3.35927,11.63592,5.76697,-3.87323,11.63840,A,145715.20
5.84375,57.68887431,11.98028748,57.68885,11.98028,14:57:15.373985,0.00478,1.96774,-0.01098,0.01970,0.02238,-0.04244,0.03575,0.11889,-0.00817,0.99424,5.83954,1.90689,1.79403,1.79988,-3.35927,11.63592,5.76697,-3.87323,11.63840,A,145715.20
5.85290,57.68887431,11.98028748,57.68885,11.98028,14:57:15.383112,0.00329,1.96774,-0.01206,0.01970,0.01841,-0.04534,0.02689,-0.07241,-0.06094,0.92452,5.84881,1.90689,1.79403,1.79988,-3.35927,11.63592,5.76697,-3.87323,11.63840,A,145715.20
5.86351,57.68887431,11.98028748,57.68885,11.98028,14:57:15.393728,0.00352,1.96774,-0.01341,0.01970,0.01032,-0.01938,0.02185,-0.25711,-0.07271,0.89920,5.85936,1.90689,1.79403,1.79988,-3.35927,11.63592,5.76697,-3.87323,11.63840,A,145715.20
5.88647,57.68887431,11.98028748,57.68885,11.98028,14:57:15.416695,0.01608,1.96774,-0.01463,0.01970,0.00772,0.03209,0.02215,-0.25821,-0.06374,0.89054,5.86954,1.90689,1.79403,1.79988,-3.35927,11.63592,5.88491,-3.92276,11.80519,A,145715.30
5.90295,57.68887621,11.98028577,57.68885,11.98028,14:57:15.433175,0.00770,1.96774,-0.01440,0.01970,-0.00404,0.02537,0.04415,0.21045,0.03483,0.97881,5.89627,1.91297,1.79861,1.80445,-3.46085,11.84682,5.88491,-3.92276,11.80519,A,145715.30
5.90904,57.68887621,11.98028577,57.68885,11.98028,14:57:15.439465,0.00327,1.96774,-0.01365,0.01970,-0.00694,-0.02839,0.05499,0.13829,0.07265,1.08653,5.90497,1.91297,1.79861,1.80445,-3.46085,11.84682,5.88491,-3.92276,11.80519,A,145715.30
5.91968,57.68887621,11.98028577,57.68885,11.98028,14:57:15.449887,0.00351,1.96774,-0.01314,0.01970,-0.00770,-0.07420,0.06339,-0.08668,0.06008,1.14637,5.91552,1.91297,1.79861,1.80445,-3.46085,11.84682,5.88491,-3.92276,11.80519,A,145715.30
5.93011,57.68887621,11.98028577,57.68885,11.98028,14:57:15.460320,0.00355,1.96774,-0.01282,0.01970,-0.00312,-0.07237,0.05377,-0.21728,0.04587,1.25056,5.92572,1.91297,1.79861,1.80445,-3.46085,11.84682,5.88491,-3.92276,11.80519,A,145715.30
5.94129,57.68887621,11.98028577,57.68885,11.98028,14:57:15.471734,0.00434,1.96774,-0.01369,0.01970,-0.00572,-0.03358,0.04430,-0.13060,-0.04819,1.19719,5.93712,1.91297,1.79861,1.80445,-3.46085,11.84682,5.88491,-3.92276,11.80519,A,145715.30
5.95076,57.68887621,11.98028577,57.68885,11.98028,14:57:15.480982,0.00343,1.96774,-0.01495,0.01970,-0.01442,0.00643,0.03300,-0.04294,-0.06515,1.06567,5.94670,1.91297,1.79861,1.80445,-3.46085,11.84682,5.88491,-3.92276,11.80519,A,145715.30
5.96111,57.68887621,11.98028577,57.68885,11.98028,14:57:15.491545,0.00334,1.96774,-0.01636,0.01970,-0.02221,0.02873,0.02765,-0.05557,-0.06472,0.97405,5.95695,1.91297,1.79861,1.80445,-3.46085,11.84682,5.88491,-3.92276,11.80519,A,145715.30
5.97168,57.68887621,11.98028577,57.68885,11.98028,14:57:15.501896,0.00352,1.96774,-0.01711,0.01970,-0.03733,0.05316,0.02490,-0.15781,-0.00976,0.86736,5.96754,1.91297,1.79861,1.80445,-3.46085,11.84682,5.88491,-3.92276,11.80519,A,145715.30
5.98210,57.68887621,11.98028577,57.68885,11.98028,14:57:15.512322,0.00355,1.96774,-0.01700,0.01970,-0.03794,0.05927,0.03116,-0.05795,0.03355,0.73877,5.97771,1.91297,1.79861,1.80445,-3.46085,11.84682,5.88491,-3.92276,11.80519,A,145715.30
6.00562,57.68887621,11.98028577,57.68885,11.98028,14:57:15.535858,0.01668,1.96774,-0.01560,0.01970,-0.03672,0.04156,0.03972,0.08900,0.08900,0.66588,5.98830,1.91297,1.79861,1.80445,-3.46085,11.84682,6.00395,-4.02182,11.97199,A,145715.40
6.01977,57.68887805,11.98028406,57.68885,11.98028,14:57:15.549995,0.00746,1.96774,-0.01548,0.01970,-0.00312,-0.01999,0.04018,0.06118,0.02611,1.06421,6.01344,1.91845,1.80558,1.81143,-3.56267,12.05146,6.00395,-4.02182,11.97199,A,145715.40
6.02616,57.68887805,11.98028406,57.68885,11.98028,14:57:15.556380,0.00346,1.96774,-0.01654,0.01970,0.00436,-0.01189,0.03865,-0.04282,-0.07662,1.23293,6.02186,1.91845,1.80558,1.81143,-3.56267,12.05146,6.00395,-4.02182,11.97199,A,145715.40
6.03659,57.68887805,11.98028406,57.68885,11.98028,14:57:15.566802,0.00350,1.96774,-0.01858,0.01970,-0.00251,0.01163,0.03254,-0.09479,-0.16104,1.28698,6.03244,1.91845,1.80558,1.81143,-3.56267,12.05146,6.00395,-4.02182,11.97199,A,145715.40
6.04697,57.68887805,11.98028406,57.68885,11.98028,14:57:15.577180,0.00349,1.96774,-0.02060,0.01970,-0.01351,0.03484,0.02643,-0.00738,-0.13847,1.17108,6.04282,1.91845,1.80558,1.81143,-3.56267,12.05146,6.00395,-4.02182,11.97199,A,145715.40
6.05713,57.68887805,11.98028406,57.68885,11.98028,14:57:15.587567,0.00333,1.96774,-0.02163,0.01970,-0.02802,0.03545,0.03498,0.00836,-0.04587,1.06018,6.05298,1.91845,1.80558,1.81143,-3.56267,12.05146,6.00395,-4.02182,11.97199,A,145715.40
6.06772,57.68887805,11.98028406,57.68885,11.98028,14:57:15.597940,0.00369,1.96774,-0.02159,0.01970,-0.01137,0.03056,0.03865,0.03379,0.01598,0.88249,6.06355,1.91845,1.80558,1.81143,-3.56267,12.05146,6.00395,-4.02182,11.97199,A,145715.40
6.07796,57.68887805,11.98028406,57.68885,11.98028,14:57:15.608177,0.00354,1.96774,-0.02056,0.01970,0.00039,0.02980,0.04735,-0.00549,0.06466,0.86028,6.07358,1.91845,1.80558,1.81143,-3.56267,12.05146,6.00395,-4.02182,11.97199,A,145715.40
6.08834,57.68887805,11.98028406,57.68885,11.98028,14:57:15.618557,0.00353,1.96774,-0.01969,0.01970,0.01551,0.02812,0.04445,-0.04935,0.04837,0.86797,6.08420,1.91845,1.80558,1.81143,-3.56267,12.05146,6.00395,-4.02182,11.97199,A,145715.40
6.09889,57.68887805,11.98028406,57.68885,11.98028,14:57:15.629111,0.00368,1.96774,-0.02031,0.01970,0.01444,0.01773,0.04537,-0.03239,-0.04197,0.97490,6.09472,1.91845,1.80558,1.81143,-3.56267,12.05146,6.00395,-4.02182,11.97199,A,145715.40
6.13699,57.68887805,11.98028406,57.68886,11.98028,14:57:15.667205,0.03126,1.96774,-0.02145,0.01970,0.00024,0.00659,0.03575,0.06387,-0.07503,1.07799,6.10492,1.91845,1.80558,1.81143,-3.56267,12.05146,6.13554,-4.19022,12.36117,A,145715.60
6.15653,57.68888032,11.98028209,57.68886,11.98028,14:57:15.686760,0.00993,1.96774,-0.02232,0.01970,-0.00312,-0.05252,0.01605,-0.07887,-0.04416,1.01778,6.14762,1.92338,1.81181,1.81766,-3.67976,12.30384,6.13554,-4.19022,12.36117,A,145715.60
6.16104,57.68888032,11.98028209,57.68886,11.98028,14:57:15.691471,0.00322,1.96774,-0.02327,0.01970,0.00268,-0.02946,0.02017,-0.08650,-0.05258,0.89969,6.15697,1.92338,1.81181,1.81766,-3.67976,12.30384,6.13554,-4.19022,12.36117,A,145715.60
6.17460,57.68888032,11.98028209,57.68886,11.98028,14:57:15.704825,0.00638,1.96774,-0.02503,0.01970,-0.00923,-0.01006,0.01971,-0.08009,-0.08595,0.82240,6.16982,1.92338,1.81181,1.81766,-3.67976,12.30384,6.13554,-4.19022,12.36117,A,145715.60
6.18210,57.68888032,11.98028209,57.68886,11.98028,14:57:15.712323,0.00349,1.97610,-0.02615,0.01970,-0.01305,0.00002,0.02154,-0.04703,-0.05344,0.83930,6.17778,1.92338,1.81181,1.81766,-3.67976,12.30384,6.13554,-4.19022,12.36117,A,145715.60
