Time,lat_estimated,lon_estimated,latitude,longitude,RealTime,CalculationTime,MeasuredVelocity,FilteredVelocity,Roll,SteeringAngle,RollRate,gy,gz,ax,ay,az,imu_read_timing,v_estimated,yaw_estimated,heading_estimated,x_estimated,y_estimated,GPS_timestamp,x_GPS,y_GPS,theta_GPS,theta_GPS_noUnwrap,status,NMEA timestamp
0.05200,57.68799333,11.98127383,57.68799333,11.98127383,12:34:00.458312,0.05196,0.00000,0.00000,-0.00051,-0.06965,-0.01973,-0.00356,-0.02308,0.03471,0.01049,1.01016,0.00001,0.00000,0.02070,0.00000,0.00000,0.00000,0.01516,0.00000,0.00000,0.00000,0.00000,A,123400.30
0.06397,57.68799333,11.98127383,57.68799333,11.98127383,12:34:00.470304,0.00605,0.00000,0.00000,-0.00235,-0.07002,-0.02492,-0.00310,-0.01712,0.02294,0.00244,0.99320,0.05781,0.00000,0.02072,-0.00009,0.00000,0.00000,0.01516,0.00000,0.00000,0.00000,0.00000,A,123400.30
0.07345,57.68799333,11.98127383,57.68799333,11.98127383,12:34:00.479756,0.00530,0.00000,0.00000,-0.00307,-0.07002,-0.02584,-0.00493,-0.01849,0.03471,-0.00268,1.00150,0.06770,0.00000,0.02073,-0.00008,0.00000,0.00000,0.01516,0.00000,0.00000,0.00000,0.00000,A,123400.30
0.08397,57.68799333,11.98127383,57.68799333,11.98127383,12:34:00.490289,0.00541,0.00000,0.00000,-0.00383,-0.07002,-0.02874,-0.00768,-0.02170,0.03306,-0.00275,1.01034,0.07828,0.00000,0.02075,-0.00007,0.00000,0.00000,0.01516,0.00000,0.00000,0.00000,0.00000,A,123400.30
0.09405,57.68799333,11.98127383,57.68799333,11.98127383,12:34:00.500357,0.00510,0.00000,0.00000,-0.00452,-0.07002,-0.02828,-0.01058,-0.02063,0.02300,0.00067,1.00839,0.08846,0.00000,0.02076,-0.00006,0.00000,0.00000,0.01516,0.00000,0.00000,0.00000,0.00000,A,123400.30
0.10495,57.68799333,11.98127383,57.68799333,11.98127383,12:34:00.511251,0.00560,0.00000,0.00000,-0.00512,-0.07002,-0.03149,-0.00799,-0.02369,0.02135,0.00866,0.99814,0.09923,0.00000,0.02076,-0.00005,0.00000,0.00000,0.01516,0.00000,0.00000,0.00000,0.00000,A,123400.30
0.13188,57.68799333,11.98127383,57.68799333,11.98127367,12:34:00.538967,0.02229,0.00000,0.00000,-0.00566,-0.07002,-0.02996,-0.00570,-0.02476,0.02971,0.01141,0.97850,0.11027,0.00000,0.02077,-0.00004,0.00000,0.00000,0.12828,-0.00991,0.00000,3.14159,3.14159,A,123400.40
0.15135,57.68799333,11.98127383,57.68799333,11.98127367,12:34:00.557923,0.00809,0.00000,0.00000,-0.00659,-0.07002,-0.02278,0.00087,-0.02796,0.00915,0.01671,0.99692,0.14592,0.00000,0.49202,0.47120,-0.00050,0.00000,0.12828,-0.00991,0.00000,3.14159,3.14159,A,123400.40
0.15880,57.68799333,11.98127382,57.68799333,11.98127367,12:34:00.565107,0.00514,0.00000,0.00000,-0.00702,-0.07002,-0.02492,-0.00463,-0.02735,0.01842,0.00830,1.00382,0.15340,0.00000,0.89258,0.87176,-0.00097,0.00000,0.12828,-0.00991,0.00000,3.14159,3.14159,A,123400.40
0.16927,57.68799333,11.98127381,57.68799333,11.98127367,12:34:00.575577,0.00525,0.00000,0.00000,-0.00772,-0.07002,-0.01973,-0.00447,-0.02613,0.03916,-0.00927,1.00131,0.16358,0.00000,1.23305,1.21224,-0.00141,0.00000,0.12828,-0.00991,0.00000,3.14159,3.14159,A,123400.40
0.18015,57.68799333,11.98127380,57.68799333,11.98127367,12:34:00.586467,0.00573,0.00000,0.00000,-0.00826,-0.07002,-0.02080,-0.00447,-0.02399,0.03630,0.00213,0.98753,0.17438,0.00000,1.52245,1.50164,-0.00184,0.00000,0.12828,-0.00991,0.00000,3.14159,3.14159,A,123400.40
0.18991,57.68799333,11.98127380,57.68799333,11.98127367,12:34:00.596215,0.00509,0.00000,0.00000,-0.00860,-0.07002,-0.02217,-0.01211,-0.02369,0.01543,0.01452,1.00022,0.18432,0.00000,1.76845,1.74763,-0.00224,0.00000,0.12828,-0.00991,0.00000,3.14159,3.14159,A,123400.40
0.20061,57.68799333,11.98127379,57.68799333,11.98127367,12:34:00.606914,0.00539,0.00000,0.00000,-0.00870,-0.07002,-0.02019,-0.00845,-0.02231,-0.01598,0.03062,1.01156,0.19494,0.00000,1.97754,1.95673,-0.00262,0.00000,0.12828,-0.00991,0.00000,3.14159,3.14159,A,123400.40
0.21066,57.68799333,11.98127378,57.68799333,11.98127367,12:34:00.616967,0.00505,0.00000,0.00000,-0.00886,-0.07002,-0.00904,-0.00111,-0.01666,-0.01244,0.01775,1.00540,0.20528,0.00000,2.15527,2.13446,-0.00299,0.00000,0.12828,-0.00991,0.00000,3.14159,3.14159,A,123400.40
0.22119,57.68799333,11.98127378,57.68799333,11.98127367,12:34:00.627502,0.00527,0.00000,0.00000,-0.00921,-0.07002,-0.00858,0.00026,-0.01712,0.01287,0.00476,0.99717,0.21546,0.00000,2.30634,2.28553,-0.00333,0.00000,0.12828,-0.00991,0.00000,3.14159,3.14159,A,123400.40
0.24912,57.68799333,11.98127377,57.68799350,11.98127333,12:34:00.655437,0.02279,0.00000,0.00000,-0.00942,-0.07002,-0.00156,0.00026,-0.01666,0.02519,0.00860,0.98149,0.22605,0.00000,2.43475,2.41394,-0.00366,0.00000,0.24285,-0.02972,0.01853,2.38956,2.38956,A,123400.50
0.26798,57.68799334,11.98127375,57.68799350,11.98127333,12:34:00.674296,0.00755,0.00000,0.00000,-0.00945,-0.06948,0.00471,-0.01043,-0.00536,-0.03544,0.00903,1.02260,0.26116,0.00000,2.43107,2.41042,-0.00497,0.00093,0.24285,-0.02972,0.01853,2.38956,2.38956,A,123400.50
0.27732,57.68799335,11.98127373,57.68799350,11.98127333,12:34:00.683647,0.00650,0.00000,0.00000,-0.00944,-0.06827,0.00272,-0.00677,-0.00796,-0.01616,0.02129,1.02852,0.27136,0.00000,2.42789,2.40760,-0.00620,0.00181,0.24285,-0.02972,0.01853,2.38956,2.38956,A,123400.50
0.28633,57.68799336,11.98127371,57.68799350,11.98127333,12:34:00.692633,0.00511,0.00000,0.00000,-0.00967,-0.06654,0.00822,-0.00783,-0.00429,0.02220,0.00116,1.01943,0.28096,0.00000,2.42510,2.40533,-0.00738,0.00264,0.24285,-0.02972,0.01853,2.38956,2.38956,A,123400.50
0.29705,57.68799336,11.98127369,57.68799350,11.98127333,12:34:00.703364,0.00523,0.00000,0.00000,-0.00981,-0.06411,0.00929,-0.00738,-0.00796,0.02166,0.00604,1.00302,0.29138,0.00000,2.42263,2.40358,-0.00850,0.00344,0.24285,-0.02972,0.01853,2.38956,2.38956,A,123400.50
0.30732,57.68799337,11.98127367,57.68799350,11.98127333,12:34:00.714022,0.00510,0.00000,0.00000,-0.00993,-0.06150,0.00791,-0.00951,-0.00903,-0.01397,0.00738,0.98478,0.30195,0.00000,2.42041,2.40214,-0.00956,0.00419,0.24285,-0.02972,0.01853,2.38956,2.38956,A,123400.50
0.31778,57.68799338,11.98127366,57.68799350,11.98127333,12:34:00.724081,0.00515,0.00000,0.00000,-0.00951,-0.05918,0.00990,-0.00982,-0.01452,-0.01592,0.04154,0.96490,0.31215,0.00000,2.41842,2.40084,-0.01057,0.00491,0.24285,-0.02972,0.01853,2.38956,2.38956,A,123400.50
0.32854,57.68799338,11.98127364,57.68799350,11.98127333,12:34:00.734851,0.00552,0.00000,0.00000,-0.00931,-0.05700,0.01876,-0.00997,-0.01666,-0.01775,0.02037,0.95685,0.32285,0.00000,2.41663,2.39970,-0.01152,0.00559,0.24285,-0.02972,0.01853,2.38956,2.38956,A,123400.50
0.33858,57.68799339,11.98127362,57.68799350,11.98127333,12:34:00.744891,0.00510,0.00000,0.00000,-0.00933,-0.05525,0.02257,-0.00554,-0.00872,-0.02763,0.00543,0.97905,0.33320,0.00000,2.41503,2.39862,-0.01243,0.00624,0.24285,-0.02972,0.01853,2.38956,2.38956,A,123400.50
0.37685,57.68799339,11.98127361,57.68799433,11.98127267,12:34:00.783175,0.03294,0.00000,0.00000,-0.00993,-0.05366,0.02364,-0.00982,-0.01407,-0.01251,-0.03416,1.00790,0.34346,0.00000,2.41360,2.39766,-0.01330,0.00685,0.37185,-0.06934,0.11119,1.97489,1.97489,A,123400.70
0.39258,57.68799344,11.98127356,57.68799433,11.98127267,12:34:00.798888,0.00685,0.00000,0.00000,-0.00869,-0.04715,0.02609,-0.01379,-0.00002,-0.02202,0.03050,0.99448,0.38609,0.00000,2.34990,2.33589,-0.01610,0.01207,0.37185,-0.06934,0.11119,1.97489,1.97489,A,123400.70
0.40121,57.68799349,11.98127352,57.68799433,11.98127267,12:34:00.807515,0.00523,0.00000,0.00000,-0.00785,-0.04554,0.02257,-0.01364,0.00029,-0.03934,0.06417,0.99735,0.39554,0.00000,2.29567,2.28215,-0.01876,0.01703,0.37185,-0.06934,0.11119,1.97489,1.97489,A,123400.70
0.41173,57.68799353,11.98127348,57.68799433,11.98127267,12:34:00.818053,0.00535,0.00000,0.00000,-0.00736,-0.04376,0.03647,-0.01058,-0.00597,-0.00354,0.03062,0.98674,0.40612,0.00000,2.24950,2.23651,-0.02129,0.02173,0.37185,-0.06934,0.11119,1.97489,1.97489,A,123400.70
0.42189,57.68799357,11.98127343,57.68799433,11.98127267,12:34:00.828200,0.00512,0.00000,0.00000,-0.00759,-0.04203,0.03326,-0.01516,-0.00582,-0.00573,-0.01379,0.99210,0.41629,0.00000,2.21018,2.19770,-0.02369,0.02621,0.37185,-0.06934,0.11119,1.97489,1.97489,A,123400.70
0.43258,57.68799361,11.98127340,57.68799433,11.98127267,12:34:00.838889,0.00541,0.00000,0.00000,-0.00796,-0.04019,0.02334,-0.01715,-0.00735,-0.00970,-0.01739,0.99741,0.42691,0.00000,2.17668,2.16475,-0.02598,0.03046,0.37185,-0.06934,0.11119,1.97489,1.97489,A,123400.70
0.44278,57.68799364,11.98127336,57.68799433,11.98127267,12:34:00.849085,0.00521,0.00000,0.00000,-0.00767,-0.03832,0.02135,-0.01394,-0.00841,-0.04258,0.02794,1.00064,0.43740,0.00000,2.14812,2.13674,-0.02814,0.03449,0.37185,-0.06934,0.11119,1.97489,1.97489,A,123400.70
0.45313,57.68799368,11.98127333,57.68799433,11.98127267,12:34:00.859441,0.00529,0.00000,0.00000,-0.00698,-0.03631,0.02150,-0.01196,-0.00139,-0.03678,0.05527,1.00138,0.44744,0.00000,2.12375,2.11297,-0.03020,0.03833,0.37185,-0.06934,0.11119,1.97489,1.97489,A,123400.70
0.46341,57.68799371,11.98127329,57.68799433,11.98127267,12:34:00.869969,0.00518,0.00000,0.00000,-0.00637,-0.03416,0.02990,-0.00783,0.00686,-0.02739,0.04429,1.00650,0.45804,0.00000,2.10294,2.09280,-0.03216,0.04197,0.37185,-0.06934,0.11119,1.97489,1.97489,A,123400.70
0.48938,57.68799374,11.98127326,57.68799450,11.98127233,12:34:00.896548,0.02075,0.00000,0.00000,-0.00602,-0.03215,0.03662,0.00041,0.01006,-0.01543,0.02409,0.99369,0.46814,0.00000,2.08517,2.07562,-0.03402,0.04543,0.48542,-0.08916,0.12973,2.38956,2.38956,A,123400.80
0.50833,57.68799378,11.98127321,57.68799450,11.98127233,12:34:00.914643,0.00750,0.00000,0.00000,-0.00464,-0.02683,0.04243,-0.00799,0.01037,-0.03526,0.02111,0.99924,0.50262,0.00000,2.13202,2.12405,-0.03678,0.04965,0.48542,-0.08916,0.12973,2.38956,2.38956,A,123400.80
0.51742,57.68799382,11.98127317,57.68799450,11.98127233,12:34:00.923729,0.00619,0.00000,0.00000,-0.00397,-0.02559,0.04243,-0.00539,0.01052,-0.02507,0.04587,0.99942,0.51167,0.00000,2.17179,2.16419,-0.03940,0.05365,0.48542,-0.08916,0.12973,2.38956,2.38956,A,123400.80
0.52926,57.68799385,11.98127313,57.68799450,11.98127233,12:34:00.935578,0.00763,0.00000,0.00000,-0.00337,-0.02409,0.04533,-0.00447,0.00930,-0.02220,0.03349,0.99320,0.52297,0.00000,2.20553,2.19838,-0.04188,0.05746,0.48542,-0.08916,0.12973,2.38956,2.38956,A,123400.80
0.53715,57.68799388,11.98127309,57.68799450,11.98127233,12:34:00.943459,0.00522,0.00000,0.00000,-0.00294,-0.02242,0.04502,0.00072,0.01327,0.00403,0.03050,0.98594,0.53148,0.00000,2.23413,2.22748,-0.04425,0.06107,0.48542,-0.08916,0.12973,2.38956,2.38956,A,123400.80
0.54812,57.68799391,11.98127305,57.68799450,11.98127233,12:34:00.954442,0.00580,0.00000,0.00000,-0.00274,-0.02063,0.04426,-0.00432,0.00930,-0.03068,0.01092,1.00851,0.54207,0.00000,2.25836,2.25224,-0.04649,0.06450,0.48542,-0.08916,0.12973,2.38956,2.38956,A,123400.80
0.55800,57.68799394,11.98127302,57.68799450,11.98127233,12:34:00.964307,0.00528,0.00000,0.00000,-0.00250,-0.01896,0.04166,-0.00432,0.01006,-0.01360,0.01598,1.00241,0.55238,0.00000,2.27889,2.27326,-0.04863,0.06776,0.48542,-0.08916,0.12973,2.38956,2.38956,A,123400.80
0.56853,57.68799397,11.98127298,57.68799450,11.98127233,12:34:00.974833,0.00540,0.00000,0.00000,-0.00207,-0.01741,0.04182,-0.00478,0.00701,-0.00244,0.02806,0.97094,0.56285,0.00000,2.29626,2.29110,-0.05065,0.07086,0.48542,-0.08916,0.12973,2.38956,2.38956,A,123400.80
0.57895,57.68799400,11.98127295,57.68799450,11.98127233,12:34:00.985267,0.00544,0.00000,0.00000,-0.00148,-0.01616,0.03723,-0.01043,0.00136,0.03385,0.04056,0.93696,0.57323,0.00000,2.31098,2.30618,-0.05258,0.07380,0.48542,-0.08916,0.12973,2.38956,2.38956,A,123400.80
0.60526,57.68799402,11.98127292,57.68799533,11.98127167,12:34:01.011941,0.02134,0.00000,0.00000,-0.00101,-0.01514,0.04304,-0.02127,0.00060,-0.01458,0.03019,0.95282,0.58346,0.00000,2.32344,2.31894,-0.05441,0.07660,0.60043,-0.12878,0.22239,1.97489,1.97489,A,123400.90
0.62958,57.68799409,11.98127286,57.68799533,11.98127167,12:34:01.035936,0.01516,0.00000,0.00000,0.00007,-0.01268,0.04747,-0.00020,0.01190,-0.00653,-0.00329,1.05548,0.61724,0.00000,2.27172,2.26796,-0.05813,0.08389,0.60043,-0.12878,0.22239,1.97489,1.97489,A,123400.90
0.64441,57.68799415,11.98127280,57.68799533,11.98127167,12:34:01.050717,0.00607,0.00000,0.00000,0.00104,-0.01090,0.04655,-0.00890,0.02320,-0.00720,0.03135,1.03791,0.63870,0.00000,2.22768,2.22445,-0.06166,0.09082,0.60043,-0.12878,0.22239,1.97489,1.97489,A,123400.90
0.65699,57.68799421,11.98127274,57.68799533,11.98127167,12:34:01.063304,0.00826,6.69002,0.00000,0.00198,-0.00993,0.05632,-0.00936,0.02335,-0.00445,0.04709,0.95617,0.65120,0.00000,2.19020,2.18726,-0.06501,0.09739,0.60043,-0.12878,0.22239,1.97489,1.97489,A,123400.90
0.66674,57.68799427,11.98127269,57.68799533,11.98127167,12:34:01.073045,0.00761,6.69002,0.00000,0.00259,-0.00925,0.05571,-0.01410,0.01999,0.00018,0.03385,0.93184,0.66133,0.00000,2.15832,2.15557,-0.06820,0.10364,0.60043,-0.12878,0.22239,1.97489,1.97489,A,123400.90
0.67763,57.68799432,11.98127263,57.68799533,11.98127167,12:34:01.084883,0.00810,6.69002,0.00000,0.00302,-0.00860,0.06625,-0.02250,0.01969,-0.00579,0.01745,0.93910,0.67151,0.00000,2.13119,2.12863,-0.07123,0.10958,0.60043,-0.12878,0.22239,1.97489,1.97489,A,123400.90
0.68742,57.68799437,11.98127259,57.68799533,11.98127167,12:34:01.093970,0.00763,6.69002,0.00000,0.00350,-0.00801,0.06900,-0.01578,0.01999,-0.01543,0.01824,0.97905,0.68202,0.00000,2.10810,2.10572,-0.07411,0.11522,0.60043,-0.12878,0.22239,1.97489,1.97489,A,123400.90
0.69786,57.68799442,11.98127254,57.68799533,11.98127167,12:34:01.104172,0.00768,6.69002,0.00000,0.00405,-0.00742,0.07266,-0.01700,0.01709,-0.03745,0.02263,1.01370,0.69220,0.00000,2.08845,2.08625,-0.07684,0.12058,0.60043,-0.12878,0.22239,1.97489,1.97489,A,123400.90
0.72310,57.68799446,11.98127250,57.68799567,11.98127150,12:34:01.129411,0.02252,6.69002,0.00000,0.00423,-0.00679,0.07572,-0.00402,0.01434,-0.04313,-0.00439,1.03871,0.70256,0.00000,2.07172,2.06970,-0.07944,0.12567,0.72019,-0.13869,0.25945,1.83196,1.83196,A,123401.00
0.74170,57.68799452,11.98127245,57.68799567,11.98127150,12:34:01.148016,0.01094,6.69002,0.00000,0.00762,-0.00416,0.08519,-0.01119,0.01663,-0.09296,0.07857,1.05658,0.73600,0.00000,2.03594,2.03470,-0.08240,0.13236,0.72019,-0.13869,0.25945,1.83196,1.83196,A,123401.00
0.75579,57.68799458,11.98127240,57.68799567,11.98127150,12:34:01.162107,0.00749,6.69002,0.00000,0.00885,-0.00266,0.09435,0.00851,0.01984,-0.02574,0.03392,1.02236,0.75015,0.00000,2.00546,2.00467,-0.08522,0.13871,0.72019,-0.13869,0.25945,1.83196,1.83196,A,123401.00
0.76629,57.68799464,11.98127235,57.68799567,11.98127150,12:34:01.172597,0.00759,6.69002,0.00000,0.00912,-0.00156,0.08717,0.00377,0.02396,0.06478,-0.00275,0.96362,0.76085,0.00000,1.97950,1.97904,-0.08789,0.14475,0.72019,-0.13869,0.25945,1.83196,1.83196,A,123401.00
0.77672,57.68799469,11.98127231,57.68799567,11.98127150,12:34:01.183036,0.00763,6.69002,0.00000,0.01015,-0.00040,0.08565,-0.00906,0.02640,0.00701,0.04923,0.95343,0.77102,0.00000,1.95739,1.95727,-0.09043,0.15049,0.72019,-0.13869,0.25945,1.83196,1.83196,A,123401.00
0.78863,57.68799474,11.98127227,57.68799567,11.98127150,12:34:01.194938,0.00863,6.69002,0.00000,0.01179,0.00091,0.09145,-0.00157,0.02885,-0.16482,0.08272,1.03541,0.78287,0.00000,1.93853,1.93880,-0.09284,0.15594,0.72019,-0.13869,0.25945,1.83196,1.83196,A,123401.00
0.79802,57.68799478,11.98127223,57.68799567,11.98127150,12:34:01.204331,0.00763,6.69002,0.00000,0.01313,0.00201,0.09786,0.02179,0.02717,-0.13121,0.07485,1.05011,0.79239,0.00000,1.92246,1.92305,-0.09513,0.16111,0.72019,-0.13869,0.25945,1.83196,1.83196,A,123401.00
0.80891,57.68799483,11.98127220,57.68799567,11.98127150,12:34:01.215221,0.00813,6.69002,0.00000,0.01402,0.00334,0.10703,0.03813,0.02763,0.02477,0.02751,0.98484,0.80314,0.00000,1.90873,1.90972,-0.09731,0.16603,0.72019,-0.13869,0.25945,1.83196,1.83196,A,123401.00
0.81873,57.68799487,11.98127216,57.68799567,11.98127150,12:34:01.225039,0.00755,6.69002,0.00000,0.01469,0.00475,0.10764,0.01981,0.02885,0.13756,0.01604,0.90841,0.81333,0.00000,1.89701,1.89842,-0.09938,0.17070,0.72019,-0.13869,0.25945,1.83196,1.83196,A,123401.00
0.84573,57.68799491,11.98127213,57.68799617,11.98127100,12:34:01.252044,0.02415,6.69002,0.00000,0.01547,0.00625,0.09970,-0.01715,0.03114,0.04294,0.02806,0.90060,0.82354,0.00000,1.88697,1.88883,-0.10135,0.17514,0.84208,-0.16840,0.31505,2.06168,2.06168,A,123401.10
0.85865,57.68799497,11.98127207,57.68799617,11.98127100,12:34:01.264961,0.00741,6.69002,0.00000,0.01894,0.01013,0.10580,0.01981,0.03297,-0.11633,0.07924,1.09879,0.85322,0.00000,1.91273,1.91573,-0.10470,0.18213,0.84208,-0.16840,0.31505,2.06168,2.06168,A,123401.10
0.86935,57.68799503,11.98127202,57.68799617,11.98127100,12:34:01.275662,0.00770,6.69002,0.00000,0.01959,0.01126,0.11023,0.02989,0.03129,0.07912,0.01800,1.01065,0.86365,0.00000,1.93457,1.93791,-0.10788,0.18878,0.84208,-0.16840,0.31505,2.06168,2.06168,A,123401.10
0.88005,57.68799509,11.98127197,57.68799617,11.98127100,12:34:01.286374,0.00813,6.69002,0.00000,0.02042,0.01217,0.09557,0.00805,0.03389,0.12694,0.03922,0.94544,0.87391,0.00000,1.95309,1.95671,-0.11091,0.19509,0.84208,-0.16840,0.31505,2.06168,2.06168,A,123401.10
0.89076,57.68799514,11.98127192,57.68799617,11.98127100,12:34:01.297068,0.00834,6.69002,0.00000,0.02203,0.01310,0.09313,-0.01684,0.02870,-0.08339,0.08735,0.97850,0.88535,0.00000,1.96880,1.97269,-0.11378,0.20109,0.84208,-0.16840,0.31505,2.06168,2.06168,A,123401.10
0.90057,57.68799519,11.98127187,57.68799617,11.98127100,12:34:01.306884,0.00774,6.69002,0.00000,0.02413,0.01398,0.10351,-0.01211,0.03160,-0.19483,0.13274,1.02352,0.89484,0.00000,1.98211,1.98626,-0.11652,0.20679,0.84208,-0.16840,0.31505,2.06168,2.06168,A,123401.10
0.91076,57.68799524,11.98127183,57.68799617,11.98127100,12:34:01.317065,0.00753,6.69002,0.00000,0.02565,0.01500,0.11817,0.01477,0.02931,-0.14103,0.07784,1.03547,0.90535,0.00000,1.99338,1.99783,-0.11911,0.21220,0.84208,-0.16840,0.31505,2.06168,2.06168,A,123401.10
0.92126,57.68799529,11.98127179,57.68799617,11.98127100,12:34:01.327567,0.00762,6.69002,0.00000,0.02605,0.01616,0.12108,0.02851,0.03190,0.05118,0.00256,0.94227,0.91554,0.00000,2.00290,2.00770,-0.12157,0.21734,0.84208,-0.16840,0.31505,2.06168,2.06168,A,123401.10
0.93112,57.68799533,11.98127175,57.68799617,11.98127100,12:34:01.337425,0.00719,6.69002,0.00000,0.02536,0.01726,0.11115,0.00759,0.03282,0.17165,-0.05826,0.92208,0.92570,0.00000,2.01095,2.01608,-0.12392,0.22223,0.84208,-0.16840,0.31505,2.06168,2.06168,A,123401.10
0.96849,57.68799537,11.98127171,57.68799733,11.98127000,12:34:01.374802,0.03417,6.69002,0.00000,0.02624,0.01843,0.10092,-0.02448,0.03206,0.02519,0.03373,0.96972,0.93782,0.00000,2.01774,2.02321,-0.12614,0.22687,0.96559,-0.22784,0.44478,2.00042,2.00042,A,123401.30
0.98113,57.68799547,11.98127163,57.68799733,11.98127000,12:34:01.387443,0.00746,6.69002,0.00000,0.03044,0.01953,0.11542,0.00866,0.02824,0.01366,0.05331,0.96484,0.97504,0.00000,2.01427,2.02007,-0.13123,0.23777,0.96559,-0.22784,0.44478,2.00042,2.00042,A,123401.30
0.99118,57.68799556,11.98127154,57.68799733,11.98127000,12:34:01.397488,0.00723,6.69002,0.00000,0.03118,0.01953,0.10382,-0.00692,0.03007,0.08259,0.03630,0.95056,0.98576,0.00000,2.01133,2.01712,-0.13606,0.24812,0.96559,-0.22784,0.44478,2.00042,2.00042,A,123401.30
1.00179,57.68799565,11.98127147,57.68799733,11.98127000,12:34:01.408106,0.00744,6.69002,0.00000,0.03187,0.01953,0.09863,-0.01990,0.02686,-0.00671,0.04075,0.99277,0.99614,0.00000,2.00882,2.01462,-0.14065,0.25795,0.96559,-0.22784,0.44478,2.00042,2.00042,A,123401.30
1.01227,57.68799574,11.98127139,57.68799733,11.98127000,12:34:01.418578,0.00751,6.69002,0.00000,0.03300,0.01953,0.09847,-0.02020,0.02915,-0.09113,0.07168,1.00851,1.00657,0.00000,2.00669,2.01249,-0.14501,0.26729,0.96559,-0.22784,0.44478,2.00042,2.00042,A,123401.30
1.02251,57.68799582,11.98127132,57.68799733,11.98127000,12:34:01.428818,0.00735,6.69002,0.00000,0.03451,0.01953,0.10290,-0.00951,0.02671,-0.11694,0.09528,1.01449,1.01709,0.00000,2.00488,2.01068,-0.14915,0.27617,0.96559,-0.22784,0.44478,2.00042,2.00042,A,123401.30
1.03313,57.68799589,11.98127126,57.68799733,11.98127000,12:34:01.439435,0.00757,6.69002,0.00000,0.03588,0.01953,0.10382,0.00102,0.02854,-0.01684,0.08528,0.98100,1.02741,0.00000,2.00334,2.00914,-0.15308,0.28460,0.96559,-0.22784,0.44478,2.00042,2.00042,A,123401.30
1.04384,57.68799596,11.98127119,57.68799733,11.98127000,12:34:01.450167,0.00792,6.69002,0.00000,0.03697,0.01953,0.10489,-0.00707,0.03496,0.05972,0.06704,0.96618,1.03771,0.00000,2.00204,2.00783,-0.15682,0.29261,0.96559,-0.22784,0.44478,2.00042,2.00042,A,123401.30
1.05406,57.68799603,11.98127114,57.68799733,11.98127000,12:34:01.460367,0.00760,6.69002,0.00000,0.03804,0.01953,0.10305,-0.01975,0.03587,0.03410,0.06484,0.96581,1.04842,0.00000,2.00092,2.00672,-0.16037,0.30021,0.96559,-0.22784,0.44478,2.00042,2.00042,A,123401.30
1.06426,57.68799610,11.98127108,57.68799733,11.98127000,12:34:01.470568,0.00757,6.69002,0.00000,0.03895,0.01953,0.10397,-0.03013,0.03816,-0.03654,0.05978,0.98948,1.05855,0.00000,1.99998,2.00578,-0.16374,0.30744,0.96559,-0.22784,0.44478,2.00042,2.00042,A,123401.30
1.08944,57.68799616,11.98127102,57.68799800,11.98126933,12:34:01.495748,0.02235,6.69002,0.00000,0.03992,0.01953,0.10046,-0.02555,0.03816,-0.10510,0.06442,0.99637,1.06925,0.00000,1.99918,2.00497,-0.16695,0.31431,1.08649,-0.26747,0.51891,2.06168,2.06168,A,123401.40
1.10143,57.68799625,11.98127094,57.68799800,11.98126933,12:34:01.507738,0.00710,6.69002,0.00000,0.04282,0.01953,0.09908,-0.00539,0.02900,0.04801,0.09144,0.99326,1.09573,0.00000,2.00768,2.01348,-0.17198,0.32454,1.08649,-0.26747,0.51891,2.06168,2.06168,A,123401.40
1.11221,57.68799634,11.98127086,57.68799800,11.98126933,12:34:01.518518,0.00747,6.69002,0.00000,0.04384,0.01953,0.10122,-0.01761,0.02350,0.02086,0.06991,0.99418,1.10652,0.00000,2.01491,2.02071,-0.17675,0.33426,1.08649,-0.26747,0.51891,2.06168,2.06168,A,123401.40
1.12255,57.68799642,11.98127078,57.68799800,11.98126933,12:34:01.528853,0.00742,6.69002,0.00000,0.04448,0.01953,0.09863,-0.01898,0.02488,-0.06167,0.04910,1.00101,1.11712,0.00000,2.02106,2.02686,-0.18129,0.34349,1.08649,-0.26747,0.51891,2.06168,2.06168,A,123401.40
1.13299,57.68799650,11.98127071,57.68799800,11.98126933,12:34:01.539289,0.00746,6.69002,0.00000,0.04515,0.01953,0.09175,-0.00570,0.02931,-0.09699,0.05832,0.97881,1.12726,0.00000,2.02628,2.03208,-0.18559,0.35226,1.08649,-0.26747,0.51891,2.06168,2.06168,A,123401.40
1.14332,57.68799658,11.98127064,57.68799800,11.98126933,12:34:01.549860,0.00741,6.69002,0.00000,0.04615,0.01953,0.09756,0.00454,0.02992,-0.03947,0.07296,0.95904,1.13768,0.00000,2.03072,2.03652,-0.18969,0.36059,1.08649,-0.26747,0.51891,2.06168,2.06168,A,123401.40
1.15437,57.68799665,11.98127058,57.68799800,11.98126933,12:34:01.560673,0.00780,6.69002,0.00000,0.04744,0.01953,0.09847,0.00362,0.03740,0.03672,0.08503,0.93415,1.14895,0.00000,2.03450,2.04030,-0.19358,0.36851,1.08649,-0.26747,0.51891,2.06168,2.06168,A,123401.40
1.16508,57.68799672,11.98127051,57.68799800,11.98126933,12:34:01.571385,0.00811,6.69002,0.00000,0.04892,0.01953,0.10351,-0.00890,0.04702,0.06283,0.10413,0.97020,1.15935,0.00000,2.03771,2.04350,-0.19727,0.37603,1.08649,-0.26747,0.51891,2.06168,2.06168,A,123401.40
1.17615,57.68799678,11.98127046,57.68799800,11.98126933,12:34:01.582463,0.00899,6.69002,0.00000,0.05031,0.01953,0.10641,-0.01852,0.04977,-0.02721,0.09943,1.00192,1.16983,0.00000,2.04043,2.04623,-0.20078,0.38317,1.08649,-0.26747,0.51891,2.06168,2.06168,A,123401.40
1.18526,57.68799684,11.98127040,57.68799800,11.98126933,12:34:01.591568,0.00789,6.69002,0.00000,0.05133,0.01953,0.09786,-0.01761,0.04931,-0.04898,0.08906,1.01852,1.17954,0.00000,2.04275,2.04855,-0.20412,0.38996,1.08649,-0.26747,0.51891,2.06168,2.06168,A,123401.40
1.20964,57.68799690,11.98127035,57.68799883,11.98126883,12:34:01.615946,0.02173,6.69002,0.00000,0.05188,0.01953,0.09282,-0.01684,0.04611,-0.03648,0.05819,1.01156,1.18969,0.00000,2.04472,2.05052,-0.20728,0.39641,1.20660,-0.29718,0.61157,1.88115,1.88115,A,123401.50
1.22171,57.68799700,11.98127027,57.68799883,11.98126883,12:34:01.628019,0.00710,6.69002,0.00000,0.05417,0.01964,0.08442,-0.01929,0.03389,0.01494,0.09065,1.00534,1.21602,0.00000,2.01931,2.02514,-0.21178,0.40717,1.20660,-0.29718,0.61157,1.88115,1.88115,A,123401.50
1.23374,57.68799709,11.98127020,57.68799883,11.98126883,12:34:01.640053,0.00874,6.69002,0.00000,0.05513,0.01998,0.07847,-0.02815,0.03694,-0.05728,0.08900,1.01565,1.22806,0.00000,1.99770,2.00363,-0.21605,0.41739,1.20660,-0.29718,0.61157,1.88115,1.88115,A,123401.50
1.24396,57.68799717,11.98127013,57.68799883,11.98126883,12:34:01.650275,0.00873,6.69002,0.00000,0.05569,0.02041,0.07495,-0.01929,0.03923,-0.07472,0.07271,0.99052,1.23829,0.00000,1.97931,1.98536,-0.22011,0.42710,1.20660,-0.29718,0.61157,1.88115,1.88115,A,123401.50
1.25341,57.68799726,11.98127007,57.68799883,11.98126883,12:34:01.659726,0.00797,6.69002,0.00000,0.05659,0.02089,0.06976,-0.01028,0.04366,-0.06185,0.10272,0.98667,1.24770,0.00000,1.96365,1.96985,-0.22396,0.43632,1.20660,-0.29718,0.61157,1.88115,1.88115,A,123401.50
1.26488,57.68799734,11.98127000,57.68799883,11.98126883,12:34:01.671183,0.00896,6.69002,0.00000,0.05729,0.02131,0.07175,-0.00402,0.04168,0.00159,0.07924,0.98667,1.25912,0.00000,1.95033,1.95666,-0.22762,0.44508,1.20660,-0.29718,0.61157,1.88115,1.88115,A,123401.50
1.27377,57.68799741,11.98126995,57.68799883,11.98126883,12:34:01.680074,0.00764,6.69002,0.00000,0.05793,0.02148,0.06808,-0.00921,0.04061,-0.00043,0.08973,0.98344,1.26811,0.00000,1.93900,1.94537,-0.23110,0.45341,1.20660,-0.29718,0.61157,1.88115,1.88115,A,123401.50
1.28416,57.68799748,11.98126989,57.68799883,11.98126883,12:34:01.690475,0.00780,6.69002,0.00000,0.05857,0.02151,0.05403,-0.01516,0.04000,-0.00140,0.09583,1.00034,1.27847,0.00000,1.92936,1.93575,-0.23440,0.46132,1.20660,-0.29718,0.61157,1.88115,1.88115,A,123401.50
1.29509,57.68799755,11.98126984,57.68799883,11.98126883,12:34:01.701393,0.00833,6.69002,0.00000,0.05930,0.02151,0.04563,-0.02250,0.04366,-0.02043,0.10712,1.00644,1.28917,0.00000,1.92117,1.92756,-0.23754,0.46883,1.20660,-0.29718,0.61157,1.88115,1.88115,A,123401.50
1.30462,57.68799761,11.98126979,57.68799883,11.98126883,12:34:01.710919,0.00746,6.69002,0.00000,0.06008,0.02151,0.04686,-0.02570,0.04198,-0.03806,0.11315,1.00339,1.29891,0.00000,1.91421,1.92060,-0.24052,0.47597,1.20660,-0.29718,0.61157,1.88115,1.88115,A,123401.50
1.32977,57.68799767,11.98126974,57.68799950,11.98126833,12:34:01.736084,0.02205,6.69002,0.00000,0.06068,0.02151,0.04136,-0.01746,0.04000,-0.03148,0.10157,0.98594,1.30951,0.00000,1.90829,1.91468,-0.24336,0.48275,1.32636,-0.32690,0.68570,1.95208,1.95208,A,123401.60
1.34210,57.68799777,11.98126967,57.68799950,11.98126833,12:34:01.748401,0.00712,6.69002,0.00000,0.06047,0.02151,0.00654,0.00362,0.03190,-0.02830,0.06265,0.93812,1.33645,0.00000,1.91390,1.92029,-0.24753,0.49289,1.32636,-0.32690,0.68570,1.95208,1.95208,A,123401.60
1.36308,57.68799785,11.98126960,57.68799950,11.98126833,12:34:01.769390,0.01753,6.69002,0.00000,0.06076,0.02151,-0.01652,0.01156,0.02702,-0.02489,0.12987,0.96813,1.35759,0.00000,1.91867,1.92506,-0.25150,0.50253,1.32636,-0.32690,0.68570,1.95208,1.95208,A,123401.60
1.40551,57.68799794,11.98126954,57.68799950,11.98126833,12:34:01.811824,0.02340,6.69002,0.00000,0.05896,0.02151,-0.03958,-0.00035,0.01465,-0.03007,0.08479,1.02950,1.39981,0.00000,1.92272,1.92911,-0.25527,0.51169,1.32636,-0.32690,0.68570,1.95208,1.95208,A,123401.60
1.44576,57.68799801,11.98126948,57.68799983,11.98126783,12:34:01.852070,0.02481,0.98191,0.98191,0.05788,0.02026,-0.06845,-0.00310,0.00548,-0.01226,0.13524,0.98625,1.42587,0.19638,1.92622,1.93224,-0.25885,0.52039,1.44258,-0.35662,0.72277,2.24663,2.24663,A,123401.70
1.46134,57.68799815,11.98126937,57.68799983,11.98126783,12:34:01.867660,0.00903,0.98191,0.98191,0.05538,0.01520,-0.05867,-0.00417,0.01541,0.01854,0.03233,0.94233,1.45449,0.35349,1.97369,1.97820,-0.26551,0.53519,1.44258,-0.35662,0.72277,2.24663,2.24663,A,123401.70
1.46796,57.68799824,11.98126928,57.68799983,11.98126783,12:34:01.874280,0.00543,0.98191,0.98191,0.05387,0.01305,-0.06463,-0.01242,0.02045,-0.03465,0.01958,0.97508,1.46232,0.47917,2.01407,2.01794,-0.27068,0.54599,1.44258,-0.35662,0.72277,2.24663,2.24663,A,123401.70
1.47802,57.68799835,11.98126918,57.68799983,11.98126783,12:34:01.884326,0.00510,0.98191,0.98191,0.05270,0.01078,-0.07379,-0.00050,0.02182,-0.03026,0.05655,0.98911,1.47243,0.57972,2.04852,2.05172,-0.27666,0.55833,1.44258,-0.35662,0.72277,2.24663,2.24663,A,123401.70
1.48871,57.68799847,11.98126907,57.68799983,11.98126783,12:34:01.895014,0.00538,0.98191,0.98191,0.05156,0.00835,-0.06982,0.00240,0.01342,-0.01952,0.05819,1.01595,1.48305,0.66016,2.07790,2.08038,-0.28286,0.57077,1.44258,-0.35662,0.72277,2.24663,2.24663,A,123401.70
1.49894,57.68799858,11.98126897,57.68799983,11.98126783,12:34:01.905247,0.00529,0.98191,0.98191,0.05061,0.00603,-0.07639,0.00072,0.00441,0.00628,0.07308,1.00949,1.49352,0.72451,2.10298,2.10477,-0.28911,0.58297,1.44258,-0.35662,0.72277,2.24663,2.24663,A,123401.70
1.50916,57.68799868,11.98126886,57.68799983,11.98126783,12:34:01.915468,0.00522,0.98191,0.98191,0.04980,0.00382,-0.08143,-0.00402,0.00548,0.02037,0.08455,1.03535,1.50348,0.77599,2.12439,2.12552,-0.29535,0.59479,1.44258,-0.35662,0.72277,2.24663,2.24663,A,123401.70
1.52080,57.68799879,11.98126875,57.68799983,11.98126783,12:34:01.927104,0.00570,0.98191,0.98191,0.04946,0.00158,-0.07517,-0.01654,-0.00536,-0.01659,0.11986,1.03285,1.51504,0.81717,2.14267,2.14314,-0.30210,0.60714,1.44258,-0.35662,0.72277,2.24663,2.24663,A,123401.70
1.53059,57.68799889,11.98126865,57.68799983,11.98126783,12:34:01.936893,0.00510,0.98191,0.98191,0.04934,-0.00011,-0.07715,-0.01746,-0.00826,-0.00433,0.12481,1.00485,1.52521,0.85012,2.15828,2.15825,-0.30819,0.61815,1.44258,-0.35662,0.72277,2.24663,2.24663,A,123401.70
1.54225,57.68799900,11.98126853,57.68799983,11.98126783,12:34:01.948561,0.00632,0.98191,0.98191,0.04887,-0.00170,-0.06951,-0.02158,-0.00628,-0.04233,0.10260,0.99900,1.53683,0.87648,2.17161,2.17110,-0.31503,0.63001,1.44258,-0.35662,0.72277,2.24663,2.24663,A,123401.70
1.58231,57.68799909,11.98126844,57.68800150,11.98126633,12:34:01.988620,0.03593,0.98191,0.98191,0.04810,-0.00280,-0.06768,-0.02204,-0.00490,-0.01434,0.06936,0.99528,1.54618,0.89756,2.18298,2.18215,-0.32065,0.63982,1.57837,-0.44578,0.90809,2.01919,2.01919,A,123401.90
1.59336,57.68799945,11.98126802,57.68800150,11.98126633,12:34:01.999673,0.00534,0.98191,0.98191,0.04545,-0.00759,-0.07517,-0.01578,0.00029,-0.05600,0.09967,0.93031,1.58765,0.91443,2.15867,2.15642,-0.34562,0.67993,1.57837,-0.44578,0.90809,2.01919,2.01919,A,123401.90
1.60455,57.68799961,11.98126786,57.68800150,11.98126633,12:34:02.010858,0.00613,0.98191,0.98191,0.04509,-0.00925,-0.06646,-0.00692,-0.00399,-0.05155,0.09845,0.98491,1.59854,0.92793,2.13811,2.13537,-0.35498,0.69790,1.57837,-0.44578,0.90809,2.01919,2.01919,A,123401.90
1.61397,57.68799976,11.98126772,57.68800150,11.98126633,12:34:02.020273,0.00515,0.98191,0.98191,0.04421,-0.01084,-0.05501,0.00469,-0.00551,-0.00683,0.05252,1.01388,1.60834,0.93873,2.12071,2.11749,-0.36311,0.71409,1.57837,-0.44578,0.90809,2.01919,2.01919,A,123401.90
1.62464,57.68799990,11.98126759,57.68800150,11.98126633,12:34:02.030949,0.00542,0.98191,0.98191,0.04288,-0.01245,-0.05455,0.00255,-0.01040,-0.00213,0.02477,1.05140,1.61895,0.94736,2.10597,2.10227,-0.37122,0.73032,1.57837,-0.44578,0.90809,2.01919,2.01919,A,123401.90
1.63472,57.68800004,11.98126746,57.68800150,11.98126633,12:34:02.041027,0.00511,0.98191,0.98191,0.04186,-0.01376,-0.06249,-0.01379,-0.01681,0.01452,0.04978,1.04957,1.62931,0.95427,2.09349,2.08940,-0.37872,0.74563,1.57837,-0.44578,0.90809,2.01919,2.01919,A,123401.90
1.64522,57.68800017,11.98126734,57.68800150,11.98126633,12:34:02.051538,0.00530,0.98191,0.98191,0.04111,-0.01472,-0.06615,-0.01822,-0.01956,-0.02727,0.06881,1.03456,1.63946,0.95980,2.08291,2.07854,-0.38583,0.76032,1.57837,-0.44578,0.90809,2.01919,2.01919,A,123401.90
1.65591,57.68800030,11.98126723,57.68800150,11.98126633,12:34:02.062226,0.00558,0.98191,0.98191,0.04091,-0.01534,-0.05149,-0.01837,-0.01712,-0.01696,0.09248,0.98179,1.65026,0.96422,2.07394,2.06939,-0.39266,0.77460,1.57837,-0.44578,0.90809,2.01919,2.01919,A,123401.90
1.66830,57.68800043,11.98126711,57.68800150,11.98126633,12:34:02.074617,0.00716,0.98191,0.98191,0.04054,-0.01559,-0.04248,-0.01914,-0.01605,-0.02818,0.07381,0.94544,1.66175,0.96776,2.06631,2.06168,-0.39956,0.78908,1.57837,-0.44578,0.90809,2.01919,2.01919,A,123401.90
1.67871,57.68800055,11.98126701,57.68800150,11.98126633,12:34:02.085014,0.00519,0.98191,0.98191,0.03988,-0.01559,-0.02950,-0.02784,-0.01361,-0.00805,0.04483,0.91543,1.67332,0.97059,2.05984,2.05521,-0.40562,0.80203,1.57837,-0.44578,0.90809,2.01919,2.01919,A,123401.90
1.70475,57.68800066,11.98126691,57.68800167,11.98126583,12:34:02.111062,0.02083,0.98191,0.98191,0.03928,-0.01559,-0.02278,-0.02937,-0.01177,-0.02190,0.04227,0.94599,1.68350,0.97285,2.05434,2.04971,-0.41122,0.81417,1.70046,-0.47550,0.92662,2.58400,2.58400,A,123402.00
1.71573,57.68800089,11.98126668,57.68800167,11.98126583,12:34:02.122046,0.00547,0.98191,0.98191,0.03857,-0.01559,-0.01225,-0.01028,0.00105,-0.05807,0.04532,1.05341,1.71009,0.97467,2.13419,2.12956,-0.42488,0.83991,1.70046,-0.47550,0.92662,2.58400,2.58400,A,123402.00
1.72579,57.68800098,11.98126657,57.68800167,11.98126583,12:34:02.132097,0.00513,0.98191,0.98191,0.03811,-0.01559,-0.01286,-0.00860,0.00228,0.01665,0.04801,1.03889,1.72017,0.97611,2.20226,2.19763,-0.43147,0.85074,1.70046,-0.47550,0.92662,2.58400,2.58400,A,123402.00
1.73655,57.68800108,11.98126646,57.68800167,11.98126583,12:34:02.142857,0.00550,0.98191,0.98191,0.03791,-0.01559,-0.00553,-0.01028,-0.00154,0.02147,0.06002,1.01778,1.73079,0.97727,2.26011,2.25548,-0.43835,0.86099,1.70046,-0.47550,0.92662,2.58400,2.58400,A,123402.00
1.74737,57.68800116,11.98126634,57.68800167,11.98126583,12:34:02.153907,0.00592,0.98191,0.98191,0.03828,-0.01559,0.00608,-0.03196,-0.00338,0.03617,0.08522,0.96911,1.74178,0.97820,2.30929,2.30466,-0.44539,0.87062,1.70046,-0.47550,0.92662,2.58400,2.58400,A,123402.00
1.75727,57.68800124,11.98126623,57.68800167,11.98126583,12:34:02.163575,0.00535,0.98191,0.98191,0.03891,-0.01559,0.00959,-0.04800,-0.00429,-0.00152,0.10181,0.97350,1.75146,0.97894,2.35109,2.34646,-0.45181,0.87887,1.70046,-0.47550,0.92662,2.58400,2.58400,A,123402.00
1.77122,57.68800133,11.98126608,57.68800167,11.98126583,12:34:02.177531,0.00856,0.98191,0.98191,0.03908,-0.01559,0.01555,-0.05151,-0.00643,-0.03831,0.06307,0.96685,1.76582,0.97954,2.38658,2.38195,-0.46091,0.88933,1.70046,-0.47550,0.92662,2.58400,2.58400,A,123402.00
1.77792,57.68800138,11.98126601,57.68800167,11.98126583,12:34:02.184221,0.00505,0.98191,0.98191,0.03845,-0.01559,0.01326,-0.04372,-0.00628,-0.06222,0.02135,0.98826,1.77233,0.98001,2.41683,2.41220,-0.46495,0.89433,1.70046,-0.47550,0.92662,2.58400,2.58400,A,123402.00
1.78866,57.68800144,11.98126590,57.68800167,11.98126583,12:34:02.194969,0.00539,0.98191,0.98191,0.03809,-0.01559,0.01494,-0.02845,-0.00567,-0.00543,0.03257,0.97051,1.78300,0.98039,2.44250,2.43787,-0.47150,0.90134,1.70046,-0.47550,0.92662,2.58400,2.58400,A,123402.00
1.79867,57.68800150,11.98126580,57.68800167,11.98126583,12:34:02.204978,0.00501,0.98191,0.98191,0.03776,-0.01559,0.00898,-0.02876,-0.00841,0.00079,0.03910,0.98076,1.79329,0.98069,2.46432,2.45969,-0.47754,0.90755,1.70046,-0.47550,0.92662,2.58400,2.58400,A,123402.00
1.82704,57.68800156,11.98126568,57.68800250,11.98126517,12:34:02.233354,0.02311,0.98191,0.98191,0.03831,-0.01559,0.01708,-0.02570,-0.00903,-0.04581,0.09229,1.01077,1.80516,0.98094,2.48284,2.47822,-0.48474,0.91444,1.82338,-0.51512,1.01929,1.97489,1.97489,A,123402.10
1.83795,57.68800174,11.98126534,57.68800250,11.98126517,12:34:02.244257,0.00525,0.98191,0.98191,0.03917,-0.01559,0.02547,-0.00371,-0.00154,0.02458,0.08107,1.00638,1.83230,0.98113,2.40704,2.40241,-0.50499,0.93432,1.82338,-0.51512,1.01929,1.97489,1.97489,A,123402.10
1.84868,57.68800182,11.98126523,57.68800250,11.98126517,12:34:02.254996,0.00559,0.98191,0.98191,0.03968,-0.01559,0.02013,-0.02005,0.00319,0.05173,0.08985,1.01083,1.84284,0.98129,2.34281,2.33818,-0.51134,0.94390,1.82338,-0.51512,1.01929,1.97489,1.97489,A,123402.10
1.85874,57.68800191,11.98126514,57.68800250,11.98126517,12:34:02.265046,0.00524,0.98191,0.98191,0.04029,-0.01559,0.02654,-0.03319,0.00518,0.03867,0.09406,1.01931,1.85320,0.98141,2.28822,2.28359,-0.51688,0.95322,1.82338,-0.51512,1.01929,1.97489,1.97489,A,123402.10
1.87228,57.68800200,11.98126504,57.68800250,11.98126517,12:34:02.278618,0.00835,0.98191,0.98191,0.04097,-0.01559,0.03250,-0.03929,0.00090,-0.02379,0.09223,1.01669,1.86495,0.98151,2.24180,2.23717,-0.52278,0.96345,1.82338,-0.51512,1.01929,1.97489,1.97489,A,123402.10
1.87932,57.68800207,11.98126497,57.68800250,11.98126517,12:34:02.285885,0.00520,0.98191,0.98191,0.04102,-0.01559,0.03128,-0.04250,0.00090,-0.03117,0.05655,1.00394,1.87394,0.98159,2.20237,2.19774,-0.52654,0.97150,1.82338,-0.51512,1.01929,1.97489,1.97489,A,123402.10
1.88959,57.68800215,11.98126491,57.68800250,11.98126517,12:34:02.295897,0.00523,0.98191,0.98191,0.04087,-0.01559,0.02212,-0.03471,-0.00276,0.01653,0.04410,0.95343,1.88393,0.98166,2.16884,2.16422,-0.53046,0.98009,1.82338,-0.51512,1.01929,1.97489,1.97489,A,123402.10
1.90104,57.68800223,11.98126484,57.68800250,11.98126517,12:34:02.307346,0.00536,0.98191,0.98191,0.04169,-0.01559,0.02395,-0.03135,-0.00582,-0.02788,0.10541,0.97667,1.89533,0.98171,2.14033,2.13571,-0.53457,0.98928,1.82338,-0.51512,1.01929,1.97489,1.97489,A,123402.10
1.91119,57.68800230,11.98126479,57.68800250,11.98126517,12:34:02.317495,0.00511,0.98191,0.98191,0.04191,-0.01559,0.02547,-0.02097,-0.00780,-0.01427,0.06740,0.98460,1.90582,0.98175,2.11611,2.11148,-0.53778,0.99738,1.82338,-0.51512,1.01929,1.97489,1.97489,A,123402.10
1.92153,57.68800237,11.98126474,57.68800250,11.98126517,12:34:02.327834,0.00522,0.98191,0.98191,0.04147,-0.01559,0.02334,-0.01975,-0.00765,-0.03080,0.02727,1.00430,1.91587,0.98178,2.09552,2.09090,-0.54062,1.00510,1.82338,-0.51512,1.01929,1.97489,1.97489,A,123402.10
1.94774,57.68800244,11.98126469,57.68800317,11.98126417,12:34:02.354069,0.02103,0.98191,0.98191,0.04120,-0.01559,0.01372,-0.01211,-0.00780,0.02855,0.04294,0.99052,1.92661,0.98181,2.07802,2.07339,-0.54337,1.01284,1.94343,-0.57456,1.09342,2.24663,2.24663,A,123402.20
1.95860,57.68800266,11.98126448,57.68800317,11.98126417,12:34:02.364903,0.00538,0.98191,0.98191,0.04254,-0.01559,0.01769,-0.02082,0.00197,0.02696,0.12718,0.97691,1.95317,0.98183,2.10371,2.09909,-0.55594,1.03690,1.94343,-0.57456,1.09342,2.24663,2.24663,A,123402.20
1.97240,57.68800275,11.98126440,57.68800317,11.98126417,12:34:02.378713,0.00847,0.98191,0.98191,0.04268,-0.01559,0.01845,-0.03151,0.00014,0.01208,0.06734,0.97075,1.96345,0.98184,2.12575,2.12112,-0.56086,1.04655,1.94343,-0.57456,1.09342,2.24663,2.24663,A,123402.20
1.97942,57.68800281,11.98126434,57.68800317,11.98126417,12:34:02.385964,0.00510,0.98191,0.98191,0.04225,-0.01559,0.01249,-0.03639,-0.00170,-0.01519,0.03465,0.98619,1.97406,0.98186,2.14450,2.13987,-0.56437,1.05351,1.94343,-0.57456,1.09342,2.24663,2.24663,A,123402.20
1.98986,57.68800289,11.98126426,57.68800317,11.98126417,12:34:02.396169,0.00514,0.98191,0.98191,0.04167,-0.01559,0.00318,-0.03105,-0.01391,-0.05185,0.03257,1.04279,1.98424,0.98187,2.16042,2.15579,-0.56911,1.06210,1.94343,-0.57456,1.09342,2.24663,2.24663,A,123402.20
2.00053,57.68800296,11.98126418,57.68800317,11.98126417,12:34:02.406840,0.00541,0.98191,0.98191,0.04065,-0.01576,-0.00950,-0.01883,-0.01880,-0.05283,0.01098,1.04243,1.99486,0.98188,2.17395,2.16927,-0.57380,1.07035,1.94343,-0.57456,1.09342,2.24663,2.24663,A,123402.20
2.01579,57.68800303,11.98126410,57.68800317,11.98126417,12:34:02.422144,0.01028,0.98191,0.98191,0.04058,-0.01633,-0.01591,-0.01379,-0.02353,0.03184,0.07601,0.98405,2.00595,0.98191,2.05946,2.05461,-0.57456,1.09342,1.94343,-0.57456,1.09342,2.24663,2.24663,A,123402.20
2.02646,57.68800327,11.98126407,57.68800317,11.98126417,12:34:02.432766,0.00521,1.17966,1.17966,0.04038,-0.00506,-0.01805,-0.01730,-0.02979,0.02184,0.07314,0.96197,2.02107,1.02146,2.08759,2.08609,-0.58035,1.10443,1.94343,-0.57456,1.09342,2.24663,2.24663,A,123402.20
2.03702,57.68800333,11.98126401,57.68800317,11.98126417,12:34:02.443320,0.00523,1.17966,1.17966,0.04039,-0.00684,-0.01881,-0.03196,-0.02262,-0.06051,0.08235,0.97954,2.03133,1.05310,2.11172,2.10969,-0.58411,1.11104,1.94343,-0.57456,1.09342,2.24663,2.24663,A,123402.20
2.07640,57.68800338,11.98126394,57.68800500,11.98126283,12:34:02.483089,0.03421,1.17966,1.17966,0.04018,-0.00893,-0.02278,-0.02020,-0.01651,-0.04965,0.07180,0.98863,2.04210,1.07841,2.13231,2.12965,-0.58809,1.11762,2.07079,-0.65381,1.29727,1.94157,1.94157,A,123402.40
2.08881,57.68800377,11.98126353,57.68800500,11.98126283,12:34:02.495125,0.00560,1.17966,1.17966,0.03795,-0.01870,-0.04798,-0.02433,-0.02659,-0.03898,0.05002,1.00662,2.08305,1.09866,2.10423,2.09868,-0.61266,1.16063,2.07079,-0.65381,1.29727,1.94157,1.94157,A,123402.40
2.09868,57.68800390,11.98126342,57.68800500,11.98126283,12:34:02.504986,0.00507,1.17966,1.17966,0.03709,-0.02127,-0.05485,-0.01822,-0.03529,-0.03331,0.04471,0.98064,2.09329,1.11486,2.08065,2.07434,-0.61897,1.17475,2.07079,-0.65381,1.29727,1.94157,1.94157,A,123402.40
2.10915,57.68800402,11.98126332,57.68800500,11.98126283,12:34:02.515455,0.00523,1.17966,1.17966,0.03674,-0.02382,-0.06524,-0.02143,-0.04171,-0.03123,0.08272,0.96551,2.10347,1.12782,2.06070,2.05362,-0.62499,1.18866,2.07079,-0.65381,1.29727,1.94157,1.94157,A,123402.40
2.11941,57.68800414,11.98126322,57.68800500,11.98126283,12:34:02.525970,0.00523,1.17966,1.17966,0.03645,-0.02637,-0.07517,-0.01914,-0.04598,0.04307,0.09046,0.92427,2.11401,1.13819,2.04382,2.03600,-0.63065,1.20213,2.07079,-0.65381,1.29727,1.94157,1.94157,A,123402.40
2.12976,57.68800426,11.98126314,57.68800500,11.98126283,12:34:02.536065,0.00518,1.17966,1.17966,0.03632,-0.02889,-0.07547,-0.03456,-0.04980,0.00659,0.10218,0.96789,2.12413,1.14648,2.02958,2.02100,-0.63584,1.21493,2.07079,-0.65381,1.29727,1.94157,1.94157,A,123402.40
2.14041,57.68800437,11.98126305,57.68800500,11.98126283,12:34:02.546720,0.00542,1.17966,1.17966,0.03576,-0.03163,-0.07654,-0.02723,-0.05194,-0.10571,0.08137,1.01400,2.13474,1.15312,2.01756,2.00817,-0.64081,1.22746,2.07079,-0.65381,1.29727,1.94157,1.94157,A,123402.40
2.15131,57.68800448,11.98126297,57.68800500,11.98126283,12:34:02.557873,0.00592,1.17966,1.17966,0.03415,-0.03446,-0.07868,-0.00722,-0.06064,-0.10065,0.01208,1.03450,2.14571,1.15842,2.00744,1.99721,-0.64568,1.23997,2.07079,-0.65381,1.29727,1.94157,1.94157,A,123402.40
2.16129,57.68800458,11.98126290,57.68800500,11.98126283,12:34:02.567592,0.00537,1.17966,1.17966,0.03275,-0.03721,-0.08188,0.00209,-0.06431,-0.07436,0.02172,1.04096,2.15560,1.16267,1.99897,1.98792,-0.64968,1.25076,2.07079,-0.65381,1.29727,1.94157,1.94157,A,123402.40
2.19110,57.68800468,11.98126284,57.68800567,11.98126183,12:34:02.597409,0.02479,1.17966,1.17966,0.03123,-0.03978,-0.09257,-0.00203,-0.06752,-0.01482,0.02227,1.02480,2.16607,1.16607,1.99185,1.98004,-0.65363,1.26154,2.18675,-0.71324,1.37140,2.24663,2.24663,A,123402.50
2.20206,57.68800499,11.98126257,57.68800567,11.98126183,12:34:02.608362,0.00524,1.17966,1.17966,0.02894,-0.04533,-0.08906,-0.01593,-0.04858,-0.03178,0.08198,1.00375,2.19645,1.16879,2.03105,2.01759,-0.66931,1.29630,2.18675,-0.71324,1.37140,2.24663,2.24663,A,123402.50
2.21263,57.68800510,11.98126247,57.68800567,11.98126183,12:34:02.618937,0.00541,1.17966,1.17966,0.02786,-0.04677,-0.09074,-0.01639,-0.05347,-0.08571,0.04654,1.01986,2.20696,1.17096,2.06512,2.05123,-0.67558,1.30856,2.18675,-0.71324,1.37140,2.24663,2.24663,A,123402.50
2.22267,57.68800520,11.98126236,57.68800567,11.98126183,12:34:02.628978,0.00505,1.17966,1.17966,0.02684,-0.04825,-0.09991,-0.00509,-0.06019,-0.10211,0.05337,1.01138,2.21730,1.17270,2.09415,2.07982,-0.68172,1.31986,2.18675,-0.71324,1.37140,2.24663,2.24663,A,123402.50
2.23312,57.68800530,11.98126226,57.68800567,11.98126183,12:34:02.639428,0.00520,1.17966,1.17966,0.02559,-0.04989,-0.10128,0.00958,-0.06813,-0.01458,0.03520,0.98125,2.22747,1.17409,2.11887,2.10405,-0.68785,1.33060,2.18675,-0.71324,1.37140,2.24663,2.24663,A,123402.50
2.24345,57.68800539,11.98126216,57.68800567,11.98126183,12:34:02.650003,0.00513,1.17966,1.17966,0.02423,-0.05167,-0.09899,0.01263,-0.08111,-0.04843,0.02775,0.96752,2.23807,1.17520,2.13995,2.12460,-0.69396,1.34084,2.18675,-0.71324,1.37140,2.24663,2.24663,A,123402.50
2.25389,57.68800548,11.98126206,57.68800567,11.98126183,12:34:02.660200,0.00535,1.17966,1.17966,0.02319,-0.05331,-0.09868,0.01110,-0.07958,-0.04313,0.04252,0.95581,2.24813,1.17610,2.15794,2.14210,-0.69978,1.35022,2.18675,-0.71324,1.37140,2.24663,2.24663,A,123402.50
2.26438,57.68800556,11.98126196,57.68800567,11.98126183,12:34:02.670690,0.00544,1.17966,1.17966,0.02235,-0.05470,-0.09929,0.01034,-0.08294,-0.07320,0.05783,0.95819,2.25870,1.17681,2.17327,2.15702,-0.70553,1.35919,2.18675,-0.71324,1.37140,2.24663,2.24663,A,123402.50
2.27544,57.68800563,11.98126187,57.68800567,11.98126183,12:34:02.682040,0.00610,1.17966,1.17966,0.02180,-0.05572,-0.10036,0.00942,-0.07683,-0.02050,0.07430,0.95563,2.26905,1.17738,2.18634,2.16979,-0.71104,1.36751,2.18675,-0.71324,1.37140,2.24663,2.24663,A,123402.50
2.30465,57.68800574,11.98126174,57.68800667,11.98126083,12:34:02.710954,0.02345,1.17966,1.17966,0.02047,-0.05662,-0.11166,-0.00646,-0.06660,0.00573,0.05893,0.97423,2.28310,1.17783,2.19728,2.18046,-0.71890,1.37906,2.30024,-0.77268,1.48260,2.06168,2.06168,A,123402.60
2.31731,57.68800600,11.98126141,57.68800667,11.98126083,12:34:02.723620,0.00592,1.17966,1.17966,0.01709,-0.05883,-0.11838,-0.00661,-0.07622,-0.09797,0.03819,1.01339,2.31124,1.17820,2.17822,2.16074,-0.73825,1.40809,2.30024,-0.77268,1.48260,2.06168,2.06168,A,123402.60
2.32697,57.68800610,11.98126130,57.68800667,11.98126083,12:34:02.733275,0.00512,1.17966,1.17966,0.01578,-0.06016,-0.12205,0.00790,-0.07928,-0.09254,0.03703,1.00601,2.32160,1.17849,2.16299,2.14512,-0.74489,1.41916,2.30024,-0.77268,1.48260,2.06168,2.06168,A,123402.60
2.33731,57.68800619,11.98126119,57.68800667,11.98126083,12:34:02.743613,0.00523,1.17966,1.17966,0.01490,-0.06161,-0.12266,0.01645,-0.08844,-0.00159,0.06008,0.97600,2.33163,1.17872,2.15009,2.13178,-0.75129,1.43008,2.30024,-0.77268,1.48260,2.06168,2.06168,A,123402.60
2.34810,57.68800629,11.98126109,57.68800667,11.98126083,12:34:02.754416,0.00563,1.17966,1.17966,0.01405,-0.06296,-0.12465,0.00423,-0.08325,0.00329,0.06661,0.97929,2.34222,1.17891,2.13915,2.12044,-0.75744,1.44079,2.30024,-0.77268,1.48260,2.06168,2.06168,A,123402.60
2.35814,57.68800638,11.98126099,57.68800667,11.98126083,12:34:02.764448,0.00527,1.17966,1.17966,0.01252,-0.06404,-0.12297,-0.00295,-0.08431,-0.00018,0.01964,0.97966,2.35273,1.17906,2.12990,2.11087,-0.76315,1.45096,2.30024,-0.77268,1.48260,2.06168,2.06168,A,123402.60
2.36870,57.68800647,11.98126090,57.68800667,11.98126083,12:34:02.775009,0.00543,1.17966,1.17966,0.01077,-0.06494,-0.12785,-0.01425,-0.08034,-0.01214,0.00543,0.97783,2.36302,1.17918,2.12206,2.10276,-0.76852,1.46070,2.30024,-0.77268,1.48260,2.06168,2.06168,A,123402.60
2.38030,57.68800656,11.98126081,57.68800667,11.98126083,12:34:02.786611,0.00663,1.17966,1.17966,0.00891,-0.06577,-0.13549,-0.01486,-0.08157,-0.05087,0.00171,1.00479,2.37332,1.17928,2.11540,2.09586,-0.77385,1.47050,2.30024,-0.77268,1.48260,2.06168,2.06168,A,123402.60
2.38927,57.68800662,11.98126075,57.68800667,11.98126083,12:34:02.795579,0.00537,1.17966,1.17966,0.00731,-0.06687,-0.14923,-0.01547,-0.08355,-0.06643,0.02635,1.04334,2.38352,1.17935,2.10991,2.09004,-0.77764,1.47774,2.30024,-0.77268,1.48260,2.06168,2.06168,A,123402.60
2.39945,57.68800670,11.98126068,57.68800667,11.98126083,12:34:02.806002,0.00515,1.17966,1.17966,0.00586,-0.06845,-0.15473,0.00011,-0.08981,-0.05899,0.04355,1.05865,2.39406,1.17941,2.10521,2.08487,-0.78207,1.48618,2.30024,-0.77268,1.48260,2.06168,2.06168,A,123402.60
2.42901,57.68800678,11.98126059,57.68800767,11.98125983,12:34:02.835326,0.02340,1.17966,1.17966,0.00417,-0.07069,-0.15595,0.00652,-0.10020,0.00445,0.03263,1.00260,2.40550,1.17946,2.10123,2.08022,-0.78692,1.49542,2.42462,-0.83212,1.59379,2.06168,2.06168,A,123402.70
2.43997,57.68800706,11.98126031,57.68800767,11.98125983,12:34:02.846281,0.00552,1.17966,1.17966,-0.00036,-0.07675,-0.16237,0.00102,-0.09836,-0.03520,0.02940,0.96374,2.43429,1.17950,2.09697,2.07415,-0.80392,1.52673,2.42462,-0.83212,1.59379,2.06168,2.06168,A,123402.70
2.45012,57.68800717,11.98126021,57.68800767,11.98125983,12:34:02.856429,0.00527,1.17966,1.17966,-0.00197,-0.07833,-0.16114,-0.00111,-0.09562,-0.01220,0.02330,0.96081,2.44472,1.17953,2.09457,2.07127,-0.80999,1.53853,2.42462,-0.83212,1.59379,2.06168,2.06168,A,123402.70
2.46083,57.68800727,11.98126011,57.68800767,11.98125983,12:34:02.867138,0.00558,1.17966,1.17966,-0.00410,-0.07963,-0.16466,-0.01486,-0.09378,0.01818,-0.01000,0.99656,2.45513,1.17956,2.09257,2.06889,-0.81573,1.54976,2.42462,-0.83212,1.59379,2.06168,2.06168,A,123402.70
2.47068,57.68800736,11.98126002,57.68800767,11.98125983,12:34:02.876985,0.00503,1.17966,1.17966,-0.00572,-0.08057,-0.17413,-0.01914,-0.09668,-0.02745,0.02623,1.03865,2.46530,1.17958,2.09094,2.06698,-0.82086,1.55990,2.42462,-0.83212,1.59379,2.06168,2.06168,A,123402.70
2.48244,57.68800746,11.98125993,57.68800767,11.98125983,12:34:02.888745,0.00651,1.17966,1.17966,-0.00743,-0.08133,-0.17718,-0.02005,-0.09989,-0.06856,0.02202,1.04597,2.47550,1.17959,2.08948,2.06529,-0.82646,1.57090,2.42462,-0.83212,1.59379,2.06168,2.06168,A,123402.70
2.49260,57.68800754,11.98125985,57.68800767,11.98125983,12:34:02.898905,0.00627,1.17966,1.17966,-0.00904,-0.08201,-0.17901,-0.00951,-0.10325,-0.08394,0.04258,1.05201,2.48687,1.17961,2.08837,2.06398,-0.83103,1.57999,2.42462,-0.83212,1.59379,2.06168,2.06168,A,123402.70
2.50189,57.68800761,11.98125979,57.68800767,11.98125983,12:34:02.908192,0.00516,1.17966,1.17966,-0.01074,-0.08249,-0.17581,0.00179,-0.10417,-0.06234,0.00677,1.01681,2.49626,1.17962,2.08750,2.06297,-0.83494,1.58785,2.42462,-0.83212,1.59379,2.06168,2.06168,A,123402.70
2.51254,57.68800769,11.98125971,57.68800767,11.98125983,12:34:02.918850,0.00541,1.17966,1.17966,-0.01243,-0.08286,-0.17901,-0.00279,-0.10325,-0.00207,0.02068,0.94904,2.50686,1.17962,2.08668,2.06203,-0.83934,1.59662,2.42462,-0.83212,1.59379,2.06168,2.06168,A,123402.70
2.52279,57.68800777,11.98125964,57.68800767,11.98125983,12:34:02.929098,0.00527,1.44835,1.44835,-0.01375,-0.08295,-0.17015,-0.00295,-0.09699,-0.01885,0.02928,0.91354,2.51740,1.23337,2.08599,2.06131,-0.84345,1.60484,2.42462,-0.83212,1.59379,2.06168,2.06168,A,123402.70
2.54967,57.68800784,11.98125957,57.68800833,11.98125883,12:34:02.955982,0.02174,1.44835,1.44835,-0.01510,-0.08295,-0.17245,-0.01150,-0.09470,-0.03819,0.02287,0.91476,2.52749,1.27636,2.08538,2.06071,-0.84747,1.61288,2.54441,-0.89155,1.66792,2.24663,2.24663,A,123402.80
2.56078,57.68800811,11.98125929,57.68800833,11.98125883,12:34:02.967083,0.00564,1.44835,1.44835,-0.01953,-0.08295,-0.16817,0.01920,-0.09439,-0.11901,0.01025,1.03852,2.55504,1.31076,2.11117,2.08650,-0.86421,1.64289,2.54441,-0.89155,1.66792,2.24663,2.24663,A,123402.80
2.57065,57.68800820,11.98125919,57.68800833,11.98125883,12:34:02.976952,0.00511,1.44835,1.44835,-0.02160,-0.08295,-0.17122,0.03325,-0.09577,0.01732,-0.02733,1.06231,2.56527,1.33828,2.13450,2.10983,-0.87055,1.65292,2.54441,-0.89155,1.66792,2.24663,2.24663,A,123402.80
2.58188,57.68800829,11.98125908,57.68800833,11.98125883,12:34:02.988183,0.00595,1.44835,1.44835,-0.02290,-0.08295,-0.16710,0.01126,-0.09210,0.04270,0.02300,1.09105,2.57548,1.36029,2.15430,2.12963,-0.87710,1.66286,2.54441,-0.89155,1.66792,2.24663,2.24663,A,123402.80
2.59715,57.68800842,11.98125891,57.68800833,11.98125883,12:34:03.003460,0.01083,11.16091,1.44835,-0.02434,-0.08295,-0.16588,-0.01608,-0.08645,-0.04953,0.07716,1.07226,2.59145,1.37790,2.17069,2.14602,-0.88687,1.67758,2.54441,-0.89155,1.66792,2.24663,2.24663,A,123402.80
2.61001,57.68800852,11.98125878,57.68800833,11.98125883,12:34:03.016316,0.00732,11.16091,1.44835,-0.02590,-0.08295,-0.14939,-0.02280,-0.07607,-0.07765,0.01446,0.99369,2.60437,1.39199,2.18480,2.16013,-0.89497,1.68923,2.54441,-0.89155,1.66792,2.24663,2.24663,A,123402.80
2.62100,57.68800860,11.98125867,57.68800833,11.98125883,12:34:03.027303,0.00791,11.16091,1.44835,-0.02746,-0.08295,-0.14236,-0.02356,-0.06721,-0.05185,-0.01299,0.92189,2.61523,1.40326,2.19698,2.17231,-0.90129,1.69787,2.54441,-0.89155,1.66792,2.24663,2.24663,A,123402.80
2.63199,57.68800868,11.98125856,57.68800833,11.98125883,12:34:03.038310,0.00797,11.16091,1.44835,-0.02989,-0.08292,-0.14572,-0.01593,-0.06645,-0.03508,-0.06295,0.91189,2.62632,1.41228,2.20732,2.18266,-0.90754,1.70619,2.54441,-0.89155,1.66792,2.24663,2.24663,A,123402.80
2.64215,57.68800875,11.98125847,57.68800833,11.98125883,12:34:03.048459,0.00773,11.16091,1.44835,-0.03145,-0.08278,-0.14939,-0.00234,-0.06171,-0.10419,-0.01586,0.91994,2.63670,1.41949,2.21613,2.19151,-0.91335,1.71370,2.54441,-0.89155,1.66792,2.24663,2.24663,A,123402.80
2.67909,57.68800881,11.98125838,57.68801050,11.98125683,12:34:03.085397,0.03428,11.16091,1.44835,-0.03235,-0.08227,-0.14587,0.01385,-0.06110,-0.10089,0.01952,0.94782,2.64683,1.42526,2.22362,2.19915,-0.91876,1.72050,2.67531,-1.01043,1.90885,2.02916,2.02916,A,123403.00
2.69698,57.68800931,11.98125773,57.68801050,11.98125683,12:34:03.103291,0.00994,11.16091,1.44835,-0.03788,-0.07593,-0.13213,0.00408,-0.07072,-0.01055,0.00189,1.05530,2.69122,1.42988,2.19399,2.17141,-0.95689,1.77609,2.67531,-1.01043,1.90885,2.02916,2.02916,A,123403.00
2.70638,57.68800944,11.98125759,57.68801050,11.98125683,12:34:03.112685,0.00853,11.16091,1.44835,-0.03907,-0.07412,-0.12633,-0.00035,-0.07011,-0.03227,-0.01921,1.05316,2.70097,1.43357,2.17193,2.14989,-0.96541,1.79125,2.67531,-1.01043,1.90885,2.02916,2.02916,A,123403.00
2.71591,57.68800957,11.98125746,57.68801050,11.98125683,12:34:03.122223,0.00789,11.16091,1.44835,-0.04030,-0.07225,-0.11991,-0.00234,-0.06874,-0.04978,-0.03105,1.02309,2.71022,1.43653,2.15312,2.13164,-0.97321,1.80562,2.67531,-1.01043,1.90885,2.02916,2.02916,A,123403.00
2.72653,57.68800971,11.98125732,57.68801050,11.98125683,12:34:03.132845,0.00812,11.16091,1.44835,-0.04086,-0.07021,-0.11304,0.00209,-0.06767,-0.05533,0.01531,0.96221,2.72041,1.43889,2.13696,2.11609,-0.98130,1.82070,2.67531,-1.01043,1.90885,2.02916,2.02916,A,123403.00
2.73659,57.68800983,11.98125720,57.68801050,11.98125683,12:34:03.142891,0.00792,11.16091,1.44835,-0.04239,-0.06809,-0.10433,0.00606,-0.05576,-0.07863,-0.05014,0.93745,2.73087,1.44078,2.12320,2.10297,-0.98840,1.83441,2.67531,-1.01043,1.90885,2.02916,2.02916,A,123403.00
2.74661,57.68800995,11.98125709,57.68801050,11.98125683,12:34:03.152917,0.00755,11.16091,1.44835,-0.04382,-0.06613,-0.10052,0.01217,-0.05362,-0.06057,-0.04752,0.93202,2.74120,1.44230,2.11142,2.09176,-0.99522,1.84784,2.67531,-1.01043,1.90885,2.02916,2.02916,A,123403.00
2.75760,57.68801007,11.98125698,57.68801050,11.98125683,12:34:03.163909,0.00788,11.16091,1.44835,-0.04506,-0.06412,-0.09914,0.02225,-0.04446,-0.04935,-0.03770,0.94928,2.75169,1.44351,2.10129,2.08224,-1.00191,1.86121,2.67531,-1.01043,1.90885,2.02916,2.02916,A,123403.00
2.76783,57.68801018,11.98125688,57.68801050,11.98125683,12:34:03.174156,0.00783,11.16091,1.44835,-0.04614,-0.06231,-0.10235,0.01813,-0.04140,-0.01043,-0.02599,0.92195,2.76217,1.44447,2.09266,2.07414,-1.00782,1.87338,2.67531,-1.01043,1.90885,2.02916,2.02916,A,123403.00
2.79726,57.68801029,11.98125678,57.68801083,11.98125617,12:34:03.203568,0.02686,11.16091,1.44835,-0.04692,-0.06061,-0.09242,0.00179,-0.03865,-0.02873,-0.01537,0.97332,2.77243,1.44525,2.08523,2.06722,-1.01369,1.88556,2.79114,-1.05005,1.94591,2.38956,2.38956,A,123403.10
2.81067,57.68801065,11.98125641,57.68801083,11.98125617,12:34:03.216977,0.00733,11.16091,1.44835,-0.04956,-0.05572,-0.08540,0.01126,-0.04293,-0.01055,-0.01909,1.05896,2.80524,1.44587,2.13127,2.11472,-1.03562,1.92572,2.79114,-1.05005,1.94591,2.38956,2.38956,A,123403.10
2.82144,57.68801075,11.98125629,57.68801083,11.98125617,12:34:03.227743,0.00769,11.16091,1.44835,-0.05042,-0.05416,-0.08188,0.01492,-0.04751,-0.01525,-0.02940,1.03395,2.81574,1.44636,2.17188,2.15579,-1.04251,1.93693,2.79114,-1.05005,1.94591,2.38956,2.38956,A,123403.10
2.83239,57.68801085,11.98125617,57.68801083,11.98125617,12:34:03.238699,0.00841,11.16091,1.44835,-0.05129,-0.05261,-0.08005,0.01874,-0.04354,-0.01513,-0.02952,0.98308,2.82666,1.44676,2.20634,2.19071,-1.04959,1.94750,2.79114,-1.05005,1.94591,2.38956,2.38956,A,123403.10
2.84206,57.68801093,11.98125607,57.68801083,11.98125617,12:34:03.248369,0.00768,11.16091,1.44835,-0.05194,-0.05102,-0.07669,0.00851,-0.04110,0.00689,-0.02263,0.91250,2.83642,1.44708,2.23563,2.22048,-1.05590,1.95622,2.79114,-1.05005,1.94591,2.38956,2.38956,A,123403.10
2.85299,57.68801101,11.98125595,57.68801083,11.98125617,12:34:03.259296,0.00821,11.16091,1.44835,-0.05236,-0.04927,-0.07028,-0.00005,-0.03270,-0.05283,-0.00762,0.92879,2.84724,1.44733,2.26041,2.24578,-1.06292,1.96533,2.79114,-1.05005,1.94591,2.38956,2.38956,A,123403.10
2.86275,57.68801108,11.98125585,57.68801083,11.98125617,12:34:03.269051,0.00757,11.16091,1.44835,-0.05267,-0.04768,-0.05944,0.00209,-0.02918,-0.11096,-0.01116,1.00083,2.85734,1.44753,2.28147,2.26731,-1.06912,1.97291,2.79114,-1.05005,1.94591,2.38956,2.38956,A,123403.10
2.87325,57.68801114,11.98125574,57.68801083,11.98125617,12:34:03.279560,0.00768,11.16091,1.44835,-0.05335,-0.04621,-0.05592,0.01843,-0.02918,-0.13121,-0.04014,1.05646,2.86754,1.44770,2.29929,2.28556,-1.07557,1.98042,2.79114,-1.05005,1.94591,2.38956,2.38956,A,123403.10
2.88473,57.68801121,11.98125562,57.68801083,11.98125617,12:34:03.291047,0.00881,11.16091,1.44835,-0.05484,-0.04477,-0.05409,0.03279,-0.02582,0.04599,-0.08985,0.99570,2.87873,1.44783,2.31435,2.30106,-1.08250,1.98814,2.79114,-1.05005,1.94591,2.38956,2.38956,A,123403.10
2.91174,57.68801127,11.98125552,57.68801200,11.98125533,12:34:03.318053,0.02562,11.16091,1.44835,-0.05589,-0.04358,-0.05149,0.01660,-0.02552,0.03849,-0.06460,0.98271,2.88935,1.44793,2.32715,2.31421,-1.08865,1.99471,2.90721,-1.09958,2.07564,1.93552,1.93552,A,123403.20
2.92460,57.68801156,11.98125508,57.68801200,11.98125533,12:34:03.330905,0.00742,11.16091,1.44835,-0.05662,-0.04043,-0.03256,0.03477,-0.02476,-0.03239,-0.01769,0.97234,2.91888,1.44801,2.26887,2.25686,-1.11459,2.02638,2.90721,-1.09958,2.07564,1.93552,1.93552,A,123403.20
2.93682,57.68801168,11.98125495,57.68801200,11.98125533,12:34:03.343123,0.00907,11.16091,1.44835,-0.05759,-0.03899,-0.02538,0.01400,-0.02476,0.08137,-0.06924,0.89292,2.93104,1.44808,2.22014,2.20857,-1.12261,2.03955,2.90721,-1.09958,2.07564,1.93552,1.93552,A,123403.20
2.94606,57.68801176,11.98125487,57.68801200,11.98125533,12:34:03.352373,0.00811,11.16091,1.44835,-0.05873,-0.03780,-0.02798,-0.01165,-0.02353,0.01281,-0.08534,0.91341,2.94018,1.44813,2.17883,2.16760,-1.12717,2.04906,2.90721,-1.09958,2.07564,1.93552,1.93552,A,123403.20
2.95600,57.68801185,11.98125479,57.68801200,11.98125533,12:34:03.362313,0.00782,11.16091,1.44835,-0.05913,-0.03647,-0.02843,-0.02250,-0.02155,-0.04990,-0.04240,0.99357,2.95019,1.44818,2.14362,2.13279,-1.13189,2.05937,2.90721,-1.09958,2.07564,1.93552,1.93552,A,123403.20
2.96633,57.68801195,11.98125471,57.68801200,11.98125533,12:34:03.372637,0.00776,11.16091,1.44835,-0.05924,-0.03514,-0.01897,-0.00890,-0.01941,-0.13859,-0.03019,1.08928,2.96090,1.44821,2.11361,2.10318,-1.13669,2.07038,2.90721,-1.09958,2.07564,1.93552,1.93552,A,123403.20
2.97667,57.68801204,11.98125464,57.68801200,11.98125533,12:34:03.382972,0.00769,11.16091,1.44835,-0.05947,-0.03393,-0.01270,0.01797,-0.02094,-0.06698,-0.04532,1.10727,2.97095,1.44824,2.08808,2.07801,-1.14058,2.08040,2.90721,-1.09958,2.07564,1.93552,1.93552,A,123403.20
2.98724,57.68801214,11.98125458,57.68801200,11.98125533,12:34:03.393535,0.00787,11.16091,1.44835,-0.05969,-0.03279,-0.01515,0.03233,-0.02078,0.00518,-0.04075,1.08147,2.98156,1.44826,2.06633,2.05659,-1.14438,2.09067,2.90721,-1.09958,2.07564,1.93552,1.93552,A,123403.20
2.99864,57.68801223,11.98125452,57.68801200,11.98125533,12:34:03.404950,0.00888,11.16091,1.44835,-0.05959,-0.03163,0.00028,0.02011,-0.01529,0.09516,-0.02818,1.00278,2.99280,1.44828,2.04778,2.03838,-1.14805,2.10112,2.90721,-1.09958,2.07564,1.93552,1.93552,A,123403.20
3.02385,57.68801231,11.98125447,57.68801317,11.98125433,12:34:03.430161,0.02367,11.16091,1.44835,-0.05933,-0.03039,-0.00461,-0.00279,-0.01315,-0.02800,-0.01348,0.97832,3.00308,1.44829,2.03200,2.02298,-1.15063,2.10974,3.02009,-1.15902,2.20537,2.00042,2.00042,A,123403.30
3.03722,57.68801264,11.98125420,57.68801317,11.98125433,12:34:03.443528,0.00797,11.16091,1.44835,-0.05892,-0.02693,0.00165,0.00515,-0.00658,-0.07265,-0.00897,0.96471,3.03148,1.44830,2.02757,2.01957,-1.16684,2.14705,3.02009,-1.15902,2.20537,2.00042,2.00042,A,123403.30
3.04743,57.68801276,11.98125413,57.68801317,11.98125433,12:34:03.453922,0.00763,11.16091,1.44835,-0.05903,-0.02566,0.00807,0.00240,-0.00903,-0.02507,-0.04337,0.96636,3.04181,1.44831,2.02439,2.01677,-1.17135,2.16013,3.02009,-1.15902,2.20537,2.00042,2.00042,A,123403.30
3.05797,57.68801288,11.98125405,57.68801317,11.98125433,12:34:03.464285,0.00779,11.16091,1.44835,-0.05896,-0.02444,-0.00049,0.00576,-0.00612,0.00262,-0.02684,0.96996,3.05218,1.44832,2.02164,2.01438,-1.17582,2.17303,3.02009,-1.15902,2.20537,2.00042,2.00042,A,123403.30
3.06840,57.68801298,11.98125398,57.68801317,11.98125433,12:34:03.474705,0.00782,11.16091,1.44835,-0.05919,-0.02337,-0.00797,0.00896,-0.01636,-0.01757,-0.04172,0.98887,3.06257,1.44832,2.01927,2.01233,-1.17983,2.18485,3.02009,-1.15902,2.20537,2.00042,2.00042,A,123403.30
3.07856,57.68801309,11.98125392,57.68801317,11.98125433,12:34:03.484864,0.00758,11.16091,1.44835,-0.05887,-0.02232,-0.00965,0.01080,-0.01208,-0.09028,-0.00390,1.00034,3.07312,1.44833,2.01722,2.01059,-1.18371,2.19629,3.02009,-1.15902,2.20537,2.00042,2.00042,A,123403.30
3.09048,57.68801320,11.98125384,57.68801317,11.98125433,12:34:03.496786,0.00910,11.16091,1.44835,-0.05833,-0.02110,-0.01530,0.02622,-0.01361,-0.07271,0.01677,1.01242,3.08505,1.44833,2.01538,2.00912,-1.18840,2.20933,3.02009,-1.15902,2.20537,2.00042,2.00042,A,123403.30
3.10423,57.68801331,11.98125376,57.68801317,11.98125433,12:34:03.510544,0.01248,11.16091,1.44835,-0.05818,-0.01989,-0.00919,0.02195,-0.00994,-0.00695,-0.01391,1.01711,3.09700,1.44833,2.01378,2.00788,-1.19285,2.22177,3.02009,-1.15902,2.20537,2.00042,2.00042,A,123403.30
3.11670,57.68801342,11.98125369,57.68801317,11.98125433,12:34:03.523003,0.00554,1.38455,1.38455,-0.05838,-0.01870,-0.00843,0.00362,-0.00414,0.04544,-0.03642,1.01736,3.11098,1.43558,2.01238,2.00683,-1.19722,2.23392,3.02009,-1.15902,2.20537,2.00042,2.00042,A,123403.30
3.14254,57.68801350,11.98125364,57.68801417,11.98125350,12:34:03.548849,0.02098,1.38455,1.38455,-0.05854,-0.01816,-0.01194,-0.00600,-0.00429,0.01208,-0.03404,1.03657,3.12129,1.42537,2.01122,2.00583,-1.20003,2.24262,3.13874,-1.20855,2.31656,1.98985,1.98985,A,123403.40
3.15870,57.68801387,11.98125335,57.68801417,11.98125350,12:34:03.565004,0.00750,1.38455,1.38455,-0.05932,-0.01785,-0.00904,0.00438,-0.01071,-0.06484,-0.05996,0.94202,3.15319,1.41721,2.00821,2.00291,-1.21766,2.28333,3.13874,-1.20855,2.31656,1.98985,1.98985,A,123403.40
3.17739,57.68801402,11.98125324,57.68801417,11.98125350,12:34:03.583701,0.01345,1.38455,1.38455,-0.05943,-0.01785,-0.01286,0.00774,-0.00872,-0.03227,-0.02495,0.91427,3.16711,1.41068,2.00601,2.00071,-1.22400,2.29975,3.13874,-1.20855,2.31656,1.98985,1.98985,A,123403.40
3.19998,57.68801420,11.98125310,57.68801417,11.98125350,12:34:03.606349,0.01583,1.38455,1.38455,-0.05935,-0.01785,-0.01209,0.00622,-0.00399,-0.06021,-0.00799,1.00327,3.18956,1.40545,2.00407,1.99877,-1.23208,2.31989,3.13874,-1.20855,2.31656,1.98985,1.98985,A,123403.40
3.21938,57.68801444,11.98125292,57.68801417,11.98125350,12:34:03.630201,0.01121,1.38455,1.38455,-0.05937,-0.01771,-0.01301,0.00912,-0.00215,-0.04453,-0.01324,1.12240,3.21345,1.40127,2.00230,1.99704,-1.24314,2.34654,3.13874,-1.20855,2.31656,1.98985,1.98985,A,123403.40
3.27141,57.68801465,11.98125275,57.68801617,11.98125217,12:34:03.677967,0.04054,1.38455,1.38455,-0.05969,-0.01689,-0.00797,-0.00509,0.00579,-0.01220,-0.04136,1.02980,3.23690,1.39793,2.00078,1.99576,-1.25306,2.37069,3.26718,-1.28780,2.53895,1.91312,1.91312,A,123403.60
3.28342,57.68801516,11.98125236,57.68801617,11.98125217,12:34:03.689972,0.00640,1.38455,1.38455,-0.05997,-0.01315,-0.00125,0.00973,-0.00002,-0.07399,-0.04069,0.88212,3.27800,1.39525,1.98749,1.98359,-1.27629,2.42661,3.26718,-1.28780,2.53895,1.91312,1.91312,A,123403.60
3.29285,57.68801529,11.98125229,57.68801617,11.98125217,12:34:03.699154,0.00543,1.38455,1.38455,-0.06068,-0.01208,-0.00262,0.01904,-0.00093,-0.06252,-0.07229,0.93519,3.28714,1.39311,1.97677,1.97319,-1.28076,2.44112,3.26718,-1.28780,2.53895,1.91312,1.91312,A,123403.60
3.30579,57.68801544,11.98125219,57.68801617,11.98125217,12:34:03.712122,0.00797,1.38455,1.38455,-0.06130,-0.01066,-0.00690,0.02347,0.00151,-0.05313,-0.06905,1.03224,3.29890,1.39140,1.96757,1.96441,-1.28612,2.45777,3.26718,-1.28780,2.53895,1.91312,1.91312,A,123403.60
3.31328,57.68801555,11.98125214,57.68801617,11.98125217,12:34:03.719590,0.00523,1.38455,1.38455,-0.06132,-0.00956,-0.00415,0.02989,0.00441,-0.07259,-0.03379,1.09812,3.30761,1.39003,1.95975,1.95692,-1.28954,2.46986,3.26718,-1.28780,2.53895,1.91312,1.91312,A,123403.60
3.32387,57.68801567,11.98125207,57.68801617,11.98125217,12:34:03.730188,0.00542,1.38455,1.38455,-0.06122,-0.00834,-0.00156,0.03645,0.00212,-0.01043,-0.02660,1.13143,3.31824,1.38893,1.95304,1.95057,-1.29371,2.48379,3.26718,-1.28780,2.53895,1.91312,1.91312,A,123403.60
3.33399,57.68801579,11.98125200,57.68801617,11.98125217,12:34:03.740300,0.00514,1.38455,1.38455,-0.06103,-0.00732,-0.00430,0.03233,0.00777,0.01171,-0.01690,1.08421,3.32837,1.38806,1.94730,1.94513,-1.29760,2.49704,3.26718,-1.28780,2.53895,1.91312,1.91312,A,123403.60
3.34466,57.68801590,11.98125194,57.68801617,11.98125217,12:34:03.750971,0.00541,1.38455,1.38455,-0.06085,-0.00636,-0.00064,0.01507,0.01006,0.06155,-0.01861,0.98381,3.33900,1.38736,1.94239,1.94050,-1.30126,2.50969,3.26718,-1.28780,2.53895,1.91312,1.91312,A,123403.60
3.35484,57.68801601,11.98125188,57.68801617,11.98125217,12:34:03.761154,0.00520,1.38455,1.38455,-0.06084,-0.00551,-0.00858,-0.01486,0.01449,0.01873,-0.02257,0.93275,3.34944,1.38680,1.93819,1.93655,-1.30458,2.52145,3.26718,-1.28780,2.53895,1.91312,1.91312,A,123403.60
3.36516,57.68801611,11.98125183,57.68801617,11.98125217,12:34:03.771473,0.00523,1.38455,1.38455,-0.06066,-0.00475,-0.00629,-0.02494,0.01739,-0.06997,-0.01318,0.91750,3.35948,1.38635,1.93459,1.93318,-1.30762,2.53246,3.26718,-1.28780,2.53895,1.91312,1.91312,A,123403.60
3.39430,57.68801622,11.98125178,57.68801717,11.98125117,12:34:03.800633,0.02315,1.38455,1.38455,-0.06034,-0.00398,-0.00049,-0.01516,0.02137,-0.09315,-0.00756,0.90530,3.37103,1.38599,1.93150,1.93032,-1.31105,2.54445,3.38827,-1.34724,2.65015,2.06168,2.06168,A,123403.70
3.40625,57.68801657,11.98125153,57.68801717,11.98125117,12:34:03.812564,0.00529,1.38455,1.38455,-0.06059,-0.00234,-0.00324,0.01859,0.01724,-0.05283,-0.04008,1.00473,3.40082,1.38570,1.95101,1.95032,-1.32568,2.58386,3.38827,-1.34724,2.65015,2.06168,2.06168,A,123403.70
3.41679,57.68801669,11.98125144,57.68801717,11.98125117,12:34:03.823098,0.00542,1.38455,1.38455,-0.06084,-0.00172,-0.01041,0.01629,0.01526,-0.04319,-0.04160,1.04975,3.41108,1.38547,1.96767,1.96716,-1.33087,2.59748,3.38827,-1.34724,2.65015,2.06168,2.06168,A,123403.70
3.42688,57.68801681,11.98125136,57.68801717,11.98125117,12:34:03.833195,0.00513,1.38455,1.38455,-0.06044,-0.00095,-0.01347,0.02103,0.01266,-0.05734,0.00714,1.11935,3.42151,1.38529,1.98180,1.98151,-1.33592,2.61022,3.38827,-1.34724,2.65015,2.06168,2.06168,A,123403.70
3.43731,57.68801692,11.98125127,57.68801717,11.98125117,12:34:03.843620,0.00526,1.38455,1.38455,-0.06057,0.00001,-0.01179,0.01965,0.01144,-0.00055,-0.03263,1.08086,3.43163,1.38514,1.99377,1.99377,-1.34087,2.62228,3.38827,-1.34724,2.65015,2.06168,2.06168,A,123403.70
3.44852,57.68801702,11.98125119,57.68801717,11.98125117,12:34:03.854823,0.00608,1.38455,1.38455,-0.06043,0.00128,-0.01072,0.00255,0.01602,0.06393,-0.01214,1.00491,3.44259,1.38502,2.00390,2.00428,-1.34598,2.63433,3.38827,-1.34724,2.65015,2.06168,2.06168,A,123403.70
3.45806,57.68801711,11.98125111,57.68801717,11.98125117,12:34:03.864362,0.00523,1.38455,1.38455,-0.06085,0.00244,-0.01897,-0.01150,0.01984,0.01177,-0.04490,0.99656,3.45247,1.38493,2.01247,2.01320,-1.35034,2.64440,3.38827,-1.34724,2.65015,2.06168,2.06168,A,123403.70
3.46864,57.68801721,11.98125104,57.68801717,11.98125117,12:34:03.874950,0.00541,1.38455,1.38455,-0.06125,0.00360,-0.02462,-0.01914,0.02595,-0.07399,-0.03715,0.95935,3.46298,1.38485,2.01971,2.02078,-1.35499,2.65482,3.38827,-1.34724,2.65015,2.06168,2.06168,A,123403.70
3.47883,57.68801730,11.98125096,57.68801717,11.98125117,12:34:03.885135,0.00520,1.38455,1.38455,-0.06121,0.00451,-0.02202,-0.00554,0.03083,-0.07960,-0.01122,0.96575,3.47343,1.38479,2.02584,2.02718,-1.35940,2.66453,3.38827,-1.34724,2.65015,2.06168,2.06168,A,123403.70
3.50735,57.68801738,11.98125089,57.68801833,11.98125033,12:34:03.913913,0.02342,1.38455,1.38455,-0.06133,0.00522,-0.02171,0.01339,0.03144,-0.14176,-0.02141,0.96105,3.48369,1.38474,2.03103,2.03258,-1.36371,2.67382,3.50302,-1.39677,2.77987,1.93552,1.93552,A,123403.80
3.51849,57.68801772,11.98125059,57.68801833,11.98125033,12:34:03.924795,0.00528,1.38455,1.38455,-0.06282,0.00624,-0.02904,0.00377,0.02472,0.00787,-0.07192,0.99302,3.51305,1.38471,2.01658,2.01843,-1.38135,2.71125,3.50302,-1.39677,2.77987,1.93552,1.93552,A,123403.80
3.52898,57.68801784,11.98125050,57.68801833,11.98125033,12:34:03.935283,0.00521,1.38455,1.38455,-0.06315,0.00669,-0.02981,-0.00845,0.02640,-0.02251,-0.03361,1.02834,3.52329,1.38468,2.00418,2.00616,-1.38691,2.72466,3.50302,-1.39677,2.77987,1.93552,1.93552,A,123403.80
3.53935,57.68801795,11.98125041,57.68801833,11.98125033,12:34:03.946052,0.00512,1.38455,1.38455,-0.06314,0.00731,-0.03790,-0.01593,0.02549,-0.03343,-0.00403,1.06195,3.53397,1.38465,1.99361,1.99578,-1.39217,2.73767,3.50302,-1.39677,2.77987,1.93552,1.93552,A,123403.80
3.55075,57.68801808,11.98125032,57.68801833,11.98125033,12:34:03.957057,0.00594,1.38455,1.38455,-0.06328,0.00813,-0.03958,-0.02708,0.02091,-0.02080,-0.01086,1.06793,3.54533,1.38463,1.98461,1.98703,-1.39760,2.75127,3.50302,-1.39677,2.77987,1.93552,1.93552,A,123403.80
3.56052,57.68801817,11.98125025,57.68801833,11.98125033,12:34:03.966827,0.00547,1.38455,1.38455,-0.06298,0.00884,-0.04294,-0.02250,0.01801,-0.01183,0.01653,1.05024,3.55482,1.38461,1.97692,1.97955,-1.40164,2.76193,3.50302,-1.39677,2.77987,1.93552,1.93552,A,123403.80
3.57097,57.68801827,11.98125018,57.68801833,11.98125033,12:34:03.977281,0.00552,1.38455,1.38455,-0.06326,0.00938,-0.03363,-0.02616,0.01999,-0.02172,-0.02641,1.00961,3.56517,1.38460,1.97037,1.97316,-1.40572,2.77280,3.50302,-1.39677,2.77987,1.93552,1.93552,A,123403.80
3.58111,57.68801836,11.98125012,57.68801833,11.98125033,12:34:03.987414,0.00536,1.38455,1.38455,-0.06396,0.00966,-0.03149,-0.01669,0.02091,-0.10748,-0.05459,0.97454,3.57539,1.38459,1.96480,1.96766,-1.40941,2.78287,3.50302,-1.39677,2.77987,1.93552,1.93552,A,123403.80
3.59174,57.68801845,11.98125006,57.68801833,11.98125033,12:34:03.998052,0.00559,1.38455,1.38455,-0.06509,0.00969,-0.03210,-0.00249,0.02503,-0.08479,-0.07832,0.93403,3.58609,1.38458,1.96006,1.96294,-1.41315,2.79316,3.50302,-1.39677,2.77987,1.93552,1.93552,A,123403.80
3.60174,57.68801854,11.98125000,57.68801833,11.98125033,12:34:04.008841,0.00519,1.38455,1.38455,-0.06639,0.00969,-0.03699,0.00805,0.02793,-0.05276,-0.08619,0.90554,3.59607,1.38458,1.95604,1.95891,-1.41643,2.80242,3.50302,-1.39677,2.77987,1.93552,1.93552,A,123403.80
3.62816,57.68801862,11.98124995,57.68801933,11.98124950,12:34:04.034476,0.02120,1.38455,1.38455,-0.06712,0.00969,-0.02843,0.00408,0.03328,-0.01037,-0.05679,0.91042,3.60673,1.38457,1.95262,1.95549,-1.41973,2.81176,3.62364,-1.44630,2.89107,1.98985,1.98985,A,123403.90
3.64642,57.68801901,11.98124966,57.68801933,11.98124950,12:34:04.052731,0.00527,1.38140,1.38140,-0.06786,0.00969,-0.02996,-0.01914,0.03175,-0.00610,-0.01763,1.10142,3.64100,1.38394,1.95811,1.96098,-1.43695,2.85497,3.62364,-1.44630,2.89107,1.98985,1.98985,A,123403.90
3.65710,57.68801912,11.98124958,57.68801933,11.98124950,12:34:04.063414,0.00538,1.38140,1.38140,-0.06773,0.00969,-0.02217,-0.01333,0.02121,-0.02379,-0.01299,1.11923,3.65144,1.38343,1.96253,1.96540,-1.44173,2.86727,3.62364,-1.44630,2.89107,1.98985,1.98985,A,123403.90
3.66724,57.68801922,11.98124950,57.68801933,11.98124950,12:34:04.073554,0.00513,1.38140,1.38140,-0.06792,0.00969,-0.02736,-0.00890,0.01129,-0.05008,-0.03148,1.08312,3.66188,1.38302,1.96628,1.96916,-1.44619,2.87862,3.62364,-1.44630,2.89107,1.98985,1.98985,A,123403.90
3.67770,57.68801932,11.98124943,57.68801933,11.98124950,12:34:04.084007,0.00518,1.38140,1.38140,-0.06838,0.00969,-0.02462,-0.00783,0.00686,0.00226,-0.04923,1.00272,3.67203,1.38270,1.96947,1.97235,-1.45047,2.88939,3.62364,-1.44630,2.89107,1.98985,1.98985,A,123403.90
3.68865,57.68801941,11.98124936,57.68801933,11.98124950,12:34:04.094958,0.00573,1.38140,1.38140,-0.06889,0.00969,-0.02828,-0.01471,0.00365,-0.00561,-0.04697,0.93354,3.68268,1.38244,1.97219,1.97506,-1.45466,2.89984,3.62364,-1.44630,2.89107,1.98985,1.98985,A,123403.90
3.69860,57.68801950,11.98124930,57.68801933,11.98124950,12:34:04.104900,0.00528,1.38140,1.38140,-0.06982,0.00969,-0.03240,-0.02753,0.00487,-0.03550,-0.06716,0.88584,3.69319,1.38223,1.97449,1.97737,-1.45846,2.90925,3.62364,-1.44630,2.89107,1.98985,1.98985,A,123403.90
3.70908,57.68801958,11.98124923,57.68801933,11.98124950,12:34:04.115384,0.00522,1.38140,1.38140,-0.07135,0.00969,-0.03821,-0.03303,0.00548,-0.06112,-0.10004,0.88035,3.70342,1.38207,1.97645,1.97933,-1.46222,2.91849,3.62364,-1.44630,2.89107,1.98985,1.98985,A,123403.90
3.71937,57.68801966,11.98124917,57.68801933,11.98124950,12:34:04.125926,0.00511,1.38140,1.38140,-0.07166,0.00969,-0.03958,-0.03105,0.00884,-0.10157,-0.02916,0.92299,3.71400,1.38193,1.97812,1.98099,-1.46587,2.92738,3.62364,-1.44630,2.89107,1.98985,1.98985,A,123403.90
3.74600,57.68801973,11.98124911,57.68802033,11.98124800,12:34:04.152308,0.02134,1.38140,1.38140,-0.07129,0.00969,-0.03729,-0.02005,0.01556,-0.09986,0.01049,0.98167,3.72418,1.38183,1.97953,1.98241,-1.46928,2.93567,3.74129,-1.53545,3.00226,2.24663,2.24663,A,123404.00
3.75862,57.68802006,11.98124882,57.68802033,11.98124800,12:34:04.164922,0.00543,1.38140,1.38140,-0.07262,0.00969,-0.02569,0.00958,0.01388,-0.03745,-0.08308,1.05664,3.75304,1.38174,2.01945,2.02232,-1.48675,2.97144,3.74129,-1.53545,3.00226,2.24663,2.24663,A,123404.00
3.76901,57.68802016,11.98124870,57.68802033,11.98124800,12:34:04.175307,0.00523,1.38140,1.38140,-0.07318,0.00969,-0.02859,0.00179,0.00915,0.01080,-0.06167,1.06774,3.76332,1.38167,2.05318,2.05606,-1.49395,2.98281,3.74129,-1.53545,3.00226,2.24663,2.24663,A,123404.00
3.77931,57.68802026,11.98124858,57.68802033,11.98124800,12:34:04.185851,0.00514,1.38140,1.38140,-0.07352,0.00969,-0.01988,-0.01135,0.01113,-0.02891,-0.05155,1.03633,3.77392,1.38162,2.08185,2.08473,-1.50124,2.99367,3.74129,-1.53545,3.00226,2.24663,2.24663,A,123404.00
3.78985,57.68802035,11.98124845,57.68802033,11.98124800,12:34:04.196154,0.00545,1.38140,1.38140,-0.07354,0.00969,-0.01652,-0.01868,0.01235,-0.04660,-0.03087,1.00211,3.78422,1.38157,2.10623,2.10910,-1.50844,3.00383,3.74129,-1.53545,3.00226,2.24663,2.24663,A,123404.00
3.80018,57.68802043,11.98124834,57.68802033,11.98124800,12:34:04.206494,0.00539,1.38140,1.38140,-0.07369,0.00969,-0.01316,-0.02173,0.01831,-0.06576,-0.04002,0.96398,3.79454,1.38154,2.12694,2.12982,-1.51538,3.01310,3.74129,-1.53545,3.00226,2.24663,2.24663,A,123404.00
3.81186,57.68802052,11.98124821,57.68802033,11.98124800,12:34:04.218186,0.00668,1.38140,1.38140,-0.07405,0.00969,-0.00950,-0.01013,0.02259,-0.08912,-0.05527,0.95319,3.80618,1.38151,2.14457,2.14744,-1.52310,3.02329,3.74129,-1.53545,3.00226,2.24663,2.24663,A,123404.00
3.82101,57.68802059,11.98124811,57.68802033,11.98124800,12:34:04.227314,0.00525,1.38140,1.38140,-0.07485,0.00969,-0.00400,0.00835,0.02045,-0.06588,-0.08973,0.96978,3.81531,1.38149,2.15952,2.16240,-1.52894,3.03027,3.74129,-1.53545,3.00226,2.24663,2.24663,A,123404.00
3.83141,57.68802066,11.98124800,57.68802033,11.98124800,12:34:04.237967,0.00526,1.38140,1.38140,-0.07547,0.00969,-0.00644,0.01492,0.02198,-0.08918,-0.07777,0.98625,3.82601,1.38147,2.17224,2.17512,-1.53557,3.03826,3.74129,-1.53545,3.00226,2.24663,2.24663,A,123404.00
3.86874,57.68802072,11.98124789,57.68802250,11.98124600,12:34:04.275056,0.03219,1.38140,1.38140,-0.07513,0.00969,-0.01209,0.03050,0.01785,-0.06204,-0.01214,1.00394,3.83606,1.38146,2.18306,2.18593,-1.54171,3.04536,3.86408,-1.65433,3.24319,2.02916,2.02916,A,123404.20
3.87931,57.68802116,11.98124734,57.68802250,11.98124600,12:34:04.285887,0.00523,1.38140,1.38140,-0.07536,0.00969,-0.00064,0.02393,0.00670,-0.03770,-0.05148,0.92122,3.87391,1.38145,2.15991,2.16279,-1.57447,3.09364,3.86408,-1.65433,3.24319,2.02916,2.02916,A,123404.20
3.88972,57.68802130,11.98124717,57.68802250,11.98124600,12:34:04.296024,0.00541,1.38140,1.38140,-0.07510,0.00969,0.00379,0.03447,0.00564,-0.06771,-0.02458,0.89273,3.88387,1.38144,2.13996,2.14283,-1.58460,3.11025,3.86408,-1.65433,3.24319,2.02916,2.02916,A,123404.20
3.90020,57.68802145,11.98124702,57.68802250,11.98124600,12:34:04.306509,0.00549,1.38140,1.38140,-0.07480,0.00969,0.00257,0.06700,0.00930,-0.12218,-0.02043,0.84692,3.89444,1.38143,2.12299,2.12587,-1.59399,3.12606,3.86408,-1.65433,3.24319,2.02916,2.02916,A,123404.20
3.91941,57.68802159,11.98124686,57.68802250,11.98124600,12:34:04.334316,0.01431,1.38140,1.38140,-0.07466,0.00969,0.00684,0.10945,0.00686,-0.18404,-0.03044,0.82588,3.90483,1.38142,2.10857,2.11145,-1.60297,3.14154,3.86408,-1.65433,3.24319,2.02916,2.02916,A,123404.20
3.96271,57.68802205,11.98124635,57.68802250,11.98124600,12:34:04.369016,0.01859,1.38140,1.38140,-0.07415,0.00969,-0.01270,-0.06434,0.02808,0.08821,0.04978,1.42191,3.95721,1.38142,2.09666,2.09954,-1.63354,3.19326,3.86408,-1.65433,3.24319,2.02916,2.02916,A,123404.20
4.06476,57.68802247,11.98124590,57.68802533,11.98124400,12:34:04.471068,0.07786,1.38140,1.38140,-0.07528,0.00969,-0.03729,-0.05915,0.03129,-0.19782,-0.01110,0.70333,3.99807,1.38141,2.08651,2.08939,-1.66042,3.23999,4.06009,-1.77320,3.55824,1.93159,1.93159,A,123404.40
4.07540,57.68802333,11.98124504,57.68802533,11.98124400,12:34:04.481963,0.00526,1.38140,1.38140,-0.07930,0.00969,-0.06295,0.02042,0.01755,0.12901,-0.01781,1.30625,4.06999,1.38141,2.06357,2.06645,-1.71163,3.33575,4.06009,-1.77320,3.55824,1.93159,1.93159,A,123404.40
4.08571,57.68802352,11.98124490,57.68802533,11.98124400,12:34:04.492012,0.00517,1.38140,1.38140,-0.07993,0.00969,-0.06875,-0.00417,0.02350,0.07509,-0.05252,1.20987,4.08006,1.38141,2.04343,2.04630,-1.71985,3.35639,4.06009,-1.77320,3.55824,1.93159,1.93159,A,123404.40
4.09711,57.68802370,11.98124477,57.68802533,11.98124400,12:34:04.503419,0.00617,1.38140,1.38140,-0.08006,0.00969,-0.07058,-0.02311,0.02961,-0.04203,-0.00726,1.06628,4.09070,1.38141,2.02631,2.02919,-1.72768,3.37651,4.06009,-1.77320,3.55824,1.93159,1.93159,A,123404.40
4.10645,57.68802386,11.98124465,57.68802533,11.98124400,12:34:04.512756,0.00511,1.61275,1.61275,-0.07934,0.00969,-0.07746,-0.02601,0.03435,-0.05429,0.04599,0.83930,4.10107,1.42768,2.01175,2.01463,-1.73435,3.39450,4.06009,-1.77320,3.55824,1.93159,1.93159,A,123404.40
4.11718,57.68802403,11.98124454,57.68802533,11.98124400,12:34:04.523490,0.00525,1.61275,1.61275,-0.08046,0.00969,-0.06539,-0.03380,0.03465,-0.06673,-0.05905,0.78330,4.11151,1.46469,1.99939,2.00226,-1.74133,3.41328,4.06009,-1.77320,3.55824,1.93159,1.93159,A,123404.40
4.12744,57.68802419,11.98124443,57.68802533,11.98124400,12:34:04.533996,0.00511,1.61275,1.61275,-0.08154,0.00969,-0.07364,-0.01516,0.03358,-0.15677,-0.05118,0.75951,4.12208,1.49430,1.98888,1.99176,-1.74787,3.43126,4.06009,-1.77320,3.55824,1.93159,1.93159,A,123404.40
4.13787,57.68802435,11.98124432,57.68802533,11.98124400,12:34:04.544177,0.00514,1.61275,1.61275,-0.08297,0.00969,-0.08692,0.00713,0.02640,-0.12243,-0.07003,0.82130,4.13225,1.51799,1.97995,1.98283,-1.75400,3.44849,4.06009,-1.77320,3.55824,1.93159,1.93159,A,123404.40
4.14908,57.68802450,11.98124422,57.68802533,11.98124400,12:34:04.555388,0.00595,1.61275,1.61275,-0.08458,0.00969,-0.09074,0.03279,0.01724,-0.09333,-0.08796,0.93806,4.14286,1.53694,1.97236,1.97524,-1.75992,3.46532,4.06009,-1.77320,3.55824,1.93159,1.93159,A,123404.40
4.15865,57.68802463,11.98124414,57.68802533,11.98124400,12:34:04.564958,0.00513,1.61275,1.61275,-0.08553,0.00969,-0.10097,0.04745,0.01205,-0.07735,-0.04776,1.04591,4.15328,1.55210,1.96591,1.96878,-1.76507,3.48045,4.06009,-1.77320,3.55824,1.93159,1.93159,A,123404.40
4.18421,57.68802477,11.98124405,57.68802650,11.98124300,12:34:04.590522,0.02030,1.61275,1.61275,-0.08612,0.00969,-0.10571,0.04959,0.00701,0.01769,-0.02355,1.11313,4.16346,1.56423,1.96043,1.96330,-1.77028,3.49576,4.18041,-1.83264,3.68797,2.00042,2.00042,A,123404.50
4.19520,57.68802516,11.98124376,57.68802650,11.98124300,12:34:04.601505,0.00528,1.61275,1.61275,-0.08904,0.00969,-0.10143,0.00530,0.02488,0.04813,-0.08101,1.11679,4.18979,1.57394,1.96628,1.96916,-1.78719,3.53869,4.18041,-1.83264,3.68797,2.00042,2.00042,A,123404.50
4.20637,57.68802534,11.98124364,57.68802650,11.98124300,12:34:04.612673,0.00567,1.61275,1.61275,-0.09056,0.00969,-0.10601,-0.02372,0.02442,0.05185,-0.07875,0.99180,4.20094,1.58170,1.97108,1.97396,-1.79489,3.55905,4.18041,-1.83264,3.68797,2.00042,2.00042,A,123404.50
4.21655,57.68802550,11.98124352,57.68802650,11.98124300,12:34:04.622856,0.00545,1.61275,1.61275,-0.09180,0.00969,-0.11701,-0.03884,0.03190,-0.00207,-0.05795,0.91097,4.21086,1.58791,1.97515,1.97802,-1.80155,3.57668,4.18041,-1.83264,3.68797,2.00042,2.00042,A,123404.50
4.22656,57.68802565,11.98124341,57.68802650,11.98124300,12:34:04.632866,0.00506,1.61275,1.61275,-0.09179,0.00969,-0.11166,-0.03548,0.03587,-0.14433,0.01653,0.92799,4.22120,1.59288,1.97861,1.98148,-1.80804,3.59368,4.18041,-1.83264,3.68797,2.00042,2.00042,A,123404.50
4.23715,57.68802580,11.98124331,57.68802650,11.98124300,12:34:04.643462,0.00523,1.61275,1.61275,-0.09229,0.00969,-0.09761,-0.00875,0.03526,-0.17782,-0.02275,0.87572,4.23146,1.59685,1.98155,1.98442,-1.81440,3.61017,4.18041,-1.83264,3.68797,2.00042,2.00042,A,123404.50
4.24792,57.68802594,11.98124320,57.68802650,11.98124300,12:34:04.654239,0.00561,1.61275,1.61275,-0.09383,0.00969,-0.09853,0.01141,0.03251,-0.15043,-0.08186,0.88072,4.24205,1.60003,1.98405,1.98693,-1.82049,3.62587,4.18041,-1.83264,3.68797,2.00042,2.00042,A,123404.50
4.25796,57.68802607,11.98124311,57.68802650,11.98124300,12:34:04.664269,0.00525,1.61275,1.61275,-0.09550,0.00969,-0.09761,0.03126,0.02503,-0.05588,-0.09906,0.92982,4.25223,1.60257,1.98618,1.98905,-1.82625,3.64064,4.18041,-1.83264,3.68797,2.00042,2.00042,A,123404.50
4.26852,57.68802620,11.98124301,57.68802650,11.98124300,12:34:04.674824,0.00541,1.61275,1.61275,-0.09662,0.00969,-0.09792,0.02866,0.01342,-0.01391,-0.07283,1.05530,4.26283,1.60461,1.98798,1.99086,-1.83181,3.65479,4.18041,-1.83264,3.68797,2.00042,2.00042,A,123404.50
4.27861,57.68802632,11.98124293,57.68802650,11.98124300,12:34:04.684918,0.00510,1.61275,1.61275,-0.09763,0.00969,-0.10021,0.02286,0.01281,-0.04416,-0.06960,1.11679,4.27324,1.60624,1.98952,1.99239,-1.83702,3.66803,4.18041,-1.83264,3.68797,2.00042,2.00042,A,123404.50
4.30670,57.68802644,11.98124284,57.68802717,11.98124183,12:34:04.713011,0.02270,1.61275,1.61275,-0.09875,0.00969,-0.09166,0.01263,0.01281,-0.00775,-0.08949,1.15070,4.28356,1.60754,1.99083,1.99370,-1.84215,3.68093,4.30083,-1.90198,3.76210,2.32284,2.32284,A,123404.60
4.32106,57.68802684,11.98124248,57.68802717,11.98124183,12:34:04.727374,0.00632,1.61275,1.61275,-0.10062,0.00969,-0.07685,-0.01242,0.03129,-0.06332,-0.02885,0.97271,4.31534,1.60858,2.04055,2.04343,-1.86357,3.72594,4.30083,-1.90198,3.76210,2.32284,2.32284,A,123404.60
4.33116,57.68802695,11.98124236,57.68802717,11.98124183,12:34:04.737471,0.00602,1.61275,1.61275,-0.10097,0.00972,-0.06035,-0.01684,0.03923,-0.07253,-0.04673,0.89615,4.32489,1.60942,2.08255,2.08544,-1.87067,3.73787,4.30083,-1.90198,3.76210,2.32284,2.32284,A,123404.60
4.34179,57.68802706,11.98124223,57.68802717,11.98124183,12:34:04.748098,0.00607,1.61275,1.61275,-0.10160,0.00983,-0.04981,-0.00142,0.04916,-0.14024,-0.06551,0.89725,4.33604,1.61008,2.11826,2.12118,-1.87864,3.75042,4.30083,-1.90198,3.76210,2.32284,2.32284,A,123404.60
4.35141,57.68802716,11.98124210,57.68802717,11.98124183,12:34:04.757969,0.00530,1.61275,1.61275,-0.10279,0.01006,-0.04569,0.01385,0.05252,-0.12767,-0.10059,0.85443,4.34604,1.61062,2.14860,2.15158,-1.88609,3.76125,4.30083,-1.90198,3.76210,2.32284,2.32284,A,123404.60
4.36173,57.68802725,11.98124197,57.68802717,11.98124183,12:34:04.768038,0.00522,1.61275,1.61275,-0.10381,0.01051,-0.04309,0.02072,0.05099,-0.08991,-0.09711,0.88950,4.35608,1.61104,2.17437,2.17749,-1.89382,3.77186,4.30083,-1.90198,3.76210,2.32284,2.32284,A,123404.60
4.37245,57.68802735,11.98124184,57.68802717,11.98124183,12:34:04.778762,0.00554,1.61275,1.61275,-0.10442,0.01127,-0.04172,0.03340,0.04977,-0.04624,-0.07906,0.96758,4.36665,1.61138,2.19625,2.19960,-1.90167,3.78208,4.30083,-1.90198,3.76210,2.32284,2.32284,A,123404.60
4.38242,57.68802743,11.98124171,57.68802717,11.98124183,12:34:04.788724,0.00511,1.61275,1.61275,-0.10506,0.01221,-0.04661,0.03783,0.04091,-0.04972,-0.08308,1.01547,4.37703,1.61166,2.21481,2.21844,-1.90907,3.79124,4.30083,-1.90198,3.76210,2.32284,2.32284,A,123404.60
4.39343,57.68802751,11.98124158,57.68802717,11.98124183,12:34:04.799741,0.00558,1.61275,1.61275,-0.10572,0.01343,-0.04401,0.02668,0.03404,0.03764,-0.08845,1.04780,4.38767,1.61188,2.23055,2.23454,-1.91689,3.80058,4.30083,-1.90198,3.76210,2.32284,2.32284,A,123404.60
4.42037,57.68802758,11.98124147,57.68802817,11.98124050,12:34:04.826686,0.02213,1.61275,1.61275,-0.10644,0.01476,-0.04981,0.00194,0.02198,0.00464,-0.09217,1.07427,4.39799,1.61205,2.24388,2.24826,-1.92384,3.80851,4.41472,-1.98123,3.87329,2.19000,2.19000,A,123404.70
4.43426,57.68802791,11.98124097,57.68802817,11.98124050,12:34:04.840565,0.00752,1.61275,1.61275,-0.10747,0.01892,-0.04187,-0.00753,0.02335,-0.13463,-0.06423,1.04694,4.42662,1.61219,2.23546,2.24108,-1.95325,3.84473,4.41472,-1.98123,3.87329,2.19000,2.19000,A,123404.70
4.44226,57.68802799,11.98124085,57.68802817,11.98124050,12:34:04.848566,0.00512,1.61275,1.61275,-0.10802,0.02022,-0.03989,0.00698,0.02900,-0.10748,-0.08156,0.99528,4.43686,1.61230,2.22789,2.23389,-1.96059,3.85366,4.41472,-1.98123,3.87329,2.19000,2.19000,A,123404.70
4.45305,57.68802809,11.98124069,57.68802817,11.98124050,12:34:04.859358,0.00525,1.61275,1.61275,-0.10959,0.02132,-0.03973,0.02561,0.04107,-0.08394,-0.13768,0.91982,4.44737,1.61239,2.22148,2.22781,-1.96983,3.86515,4.41472,-1.98123,3.87329,2.19000,2.19000,A,123404.70
4.46333,57.68802819,11.98124055,57.68802817,11.98124050,12:34:04.869891,0.00513,1.61275,1.61275,-0.11040,0.02209,-0.04768,0.03340,0.05069,-0.06033,-0.08650,0.91604,4.45795,1.61246,2.21600,2.22256,-1.97836,3.87587,4.41472,-1.98123,3.87329,2.19000,2.19000,A,123404.70
4.47366,57.68802828,11.98124042,57.68802817,11.98124050,12:34:04.879964,0.00523,1.61275,1.61275,-0.11074,0.02251,-0.04539,0.03309,0.05695,-0.05630,-0.05984,0.90060,4.46801,1.61252,2.21133,2.21801,-1.98619,3.88582,4.41472,-1.98123,3.87329,2.19000,2.19000,A,123404.70
4.48431,57.68802837,11.98124029,57.68802817,11.98124050,12:34:04.890616,0.00548,1.61275,1.61275,-0.11056,0.02274,-0.03836,0.02332,0.06168,-0.01006,-0.03294,0.92696,4.47859,1.61257,2.20736,2.21410,-1.99382,3.89561,4.41472,-1.98123,3.87329,2.19000,2.19000,A,123404.70
4.49433,57.68802845,11.98124017,57.68802817,11.98124050,12:34:04.900636,0.00513,1.61275,1.61275,-0.11027,0.02274,-0.03943,0.00728,0.06275,-0.01757,-0.02727,0.97606,4.48894,1.61260,2.20397,2.21072,-2.00078,3.90462,4.41472,-1.98123,3.87329,2.19000,2.19000,A,123404.70
4.50510,57.68802853,11.98124006,57.68802817,11.98124050,12:34:04.911405,0.00533,1.61275,1.61275,-0.11030,0.02274,-0.04371,0.00026,0.06153,-0.03569,-0.04941,1.06042,4.49932,1.61263,2.20111,2.20786,-2.00766,3.91361,4.41472,-1.98123,3.87329,2.19000,2.19000,A,123404.70
4.53137,57.68802860,11.98123995,57.68802900,11.98123983,12:34:04.937934,0.02120,1.61275,1.61275,-0.11074,0.02274,-0.04157,0.01019,0.05389,-0.04764,-0.08211,1.09403,4.50991,1.61266,2.19867,2.20542,-2.01400,3.92195,4.52662,-2.02086,3.96595,1.97489,1.97489,A,123404.80
4.54882,57.68802895,11.98123949,57.68802900,11.98123983,12:34:04.955136,0.00833,1.61275,1.61275,-0.11196,0.02274,-0.06600,0.02500,0.03908,-0.04514,-0.02294,0.95459,4.54016,1.61267,2.16494,2.17169,-2.04137,3.96085,4.52662,-2.02086,3.96595,1.97489,1.97489,A,123404.80
4.55657,57.68802903,11.98123942,57.68802900,11.98123983,12:34:04.962880,0.00568,1.61275,1.61275,-0.11237,0.02274,-0.06127,0.01920,0.03786,-0.06228,-0.05868,0.95953,4.55064,1.61269,2.13559,2.14234,-2.04557,3.96874,4.52662,-2.02086,3.96595,1.97489,1.97489,A,123404.80
4.56640,57.68802912,11.98123933,57.68802900,11.98123983,12:34:04.972706,0.00511,1.61275,1.61275,-0.11246,0.02274,-0.06341,0.02378,0.03511,-0.07015,-0.03453,0.91006,4.56102,1.61270,2.11070,2.11745,-2.05101,3.97897,4.52662,-2.02086,3.96595,1.97489,1.97489,A,123404.80
4.57706,57.68802921,11.98123924,57.68802900,11.98123983,12:34:04.983364,0.00521,1.61275,1.61275,-0.11282,0.02274,-0.06127,0.01202,0.03954,-0.05136,-0.05466,0.93739,4.57139,1.61271,2.08956,2.09631,-2.05634,3.98957,4.52662,-2.02086,3.96595,1.97489,1.97489,A,123404.80
4.58783,57.68802931,11.98123915,57.68802900,11.98123983,12:34:04.994149,0.00559,1.61275,1.61275,-0.11373,0.02274,-0.06310,0.01003,0.03526,-0.07088,-0.08949,0.96539,4.58214,1.61272,2.07159,2.07834,-2.06125,3.99990,4.52662,-2.02086,3.96595,1.97489,1.97489,A,123404.80
4.59779,57.68802939,11.98123908,57.68802900,11.98123983,12:34:05.004097,0.00515,1.61275,1.61275,-0.11470,0.02274,-0.07272,0.01110,0.04275,-0.05252,-0.09510,1.00772,4.59215,1.61272,2.05631,2.06306,-2.06535,4.00921,4.52662,-2.02086,3.96595,1.97489,1.97489,A,123404.80
4.60849,57.68802947,11.98123902,57.68802900,11.98123983,12:34:05.014800,0.00545,1.61275,1.61275,-0.11559,0.02274,-0.07135,0.01309,0.04045,-0.01818,-0.08997,1.01553,4.60279,1.61273,2.04333,2.05008,-2.06935,4.01867,4.52662,-2.02086,3.96595,1.97489,1.97489,A,123404.80
4.61852,57.68802955,11.98123896,57.68802900,11.98123983,12:34:05.024824,0.00508,1.61275,1.61275,-0.11635,0.02274,-0.07440,0.00698,0.03984,-0.03764,-0.08082,1.01534,4.61314,1.61273,2.03229,2.03903,-2.07276,4.02725,4.52662,-2.02086,3.96595,1.97489,1.97489,A,123404.80
4.64676,57.68802964,11.98123890,57.68803017,11.98123817,12:34:05.053074,0.02278,1.61275,1.61275,-0.11677,0.02274,-0.07318,0.00759,0.03435,-0.04435,-0.05710,1.02266,4.62405,1.61274,2.02292,2.02967,-2.07646,4.03664,4.64090,-2.11992,4.09568,2.22295,2.22295,A,123404.90
4.66570,57.68803008,11.98123847,57.68803017,11.98123817,12:34:05.072014,0.00669,1.37848,1.37848,-0.12071,0.02274,-0.06631,-0.04326,0.01419,0.09540,-0.16098,0.84808,4.65995,1.56588,2.05288,2.05963,-2.10163,4.08614,4.64090,-2.11992,4.09568,2.22295,2.22295,A,123404.90
4.67453,57.68803017,11.98123838,57.68803017,11.98123817,12:34:05.080836,0.00512,1.37848,1.37848,-0.12219,0.02260,-0.07364,-0.06862,0.00441,-0.01354,-0.12670,0.90262,4.66914,1.52840,2.07758,2.08429,-2.10747,4.09587,4.64090,-2.11992,4.09568,2.22295,2.22295,A,123404.90
4.68512,57.68803027,11.98123826,57.68803017,11.98123817,12:34:05.091427,0.00521,1.37848,1.37848,-0.12360,0.02183,-0.07517,-0.05915,0.00533,-0.13731,-0.13347,1.01480,4.67947,1.49842,2.09864,2.10512,-2.11418,4.10666,4.64090,-2.11992,4.09568,2.22295,2.22295,A,123404.90
4.69533,57.68803035,11.98123816,57.68803017,11.98123817,12:34:05.101895,0.00519,1.37848,1.37848,-0.12438,0.02025,-0.07013,-0.03151,-0.00872,-0.31830,-0.11084,1.18511,4.68993,1.47443,2.11660,2.12261,-2.12057,4.11642,4.64090,-2.11992,4.09568,2.22295,2.22295,A,123404.90
4.70587,57.68803043,11.98123805,57.68803017,11.98123817,12:34:05.112184,0.00534,1.37848,1.37848,-0.12452,0.01784,-0.06157,0.03752,-0.00689,-0.22180,-0.07369,1.24355,4.70007,1.45524,2.13195,2.13725,-2.12665,4.12532,4.64090,-2.11992,4.09568,2.22295,2.22295,A,123404.90
4.71646,57.68803051,11.98123795,57.68803017,11.98123817,12:34:05.122769,0.00553,1.37848,1.37848,-0.12538,0.01470,-0.05317,0.07601,-0.00857,0.02599,-0.12590,1.12502,4.71068,1.43989,2.14512,2.14948,-2.13256,4.13365,4.64090,-2.11992,4.09568,2.22295,2.22295,A,123404.90
4.72649,57.68803058,11.98123786,57.68803017,11.98123817,12:34:05.132794,0.00510,1.37848,1.37848,-0.12568,0.01150,-0.05088,0.06654,-0.00200,0.18861,-0.08082,1.03389,4.72111,1.42760,2.15642,2.15983,-2.13811,4.14121,4.64090,-2.11992,4.09568,2.22295,2.22295,A,123404.90
4.73713,57.68803064,11.98123777,57.68803017,11.98123817,12:34:05.143434,0.00521,1.37848,1.37848,-0.12662,0.00850,-0.04477,0.01385,0.00380,0.03495,-0.12072,0.95691,4.73147,1.41778,2.16613,2.16865,-2.14365,4.14860,4.64090,-2.11992,4.09568,2.22295,2.22295,A,123404.90
4.77529,57.68803071,11.98123768,57.68803183,11.98123583,12:34:05.181820,0.03298,1.37848,1.37848,-0.12636,0.00595,-0.03378,-0.01410,0.00961,0.02928,-0.04459,0.84942,4.74226,1.40992,2.17447,2.17624,-2.14908,4.15567,4.76978,-2.25860,4.28100,2.21323,2.21323,A,123405.10
4.78788,57.68803113,11.98123711,57.68803183,11.98123583,12:34:05.194207,0.00690,1.37848,1.37848,-0.12776,0.00058,0.01188,0.01080,0.00609,-0.08863,-0.22143,0.99729,4.78080,1.40363,2.18050,2.18067,-2.18258,4.20242,4.76978,-2.25860,4.28100,2.21323,2.21323,A,123405.10
4.79785,57.68803124,11.98123694,57.68803183,11.98123583,12:34:05.204164,0.00647,1.37848,1.37848,-0.12949,-0.00005,0.00807,0.02164,-0.00505,-0.00531,-0.23223,1.04639,4.79219,1.39860,2.18542,2.18540,-2.19268,4.21536,4.76978,-2.25860,4.28100,2.21323,2.21323,A,123405.10
4.80711,57.68803135,11.98123679,57.68803183,11.98123583,12:34:05.213418,0.00513,1.37848,1.37848,-0.13005,-0.00030,0.00516,0.01950,-0.01101,-0.04349,-0.14762,1.05695,4.80173,1.39458,2.18960,2.18951,-2.20173,4.22679,4.76978,-2.25860,4.28100,2.21323,2.21323,A,123405.10
4.81750,57.68803145,11.98123664,57.68803183,11.98123583,12:34:05.223802,0.00528,1.37848,1.37848,-0.12931,-0.00030,0.01555,0.01889,-0.01865,-0.08229,-0.06515,1.08787,4.81177,1.39136,2.19316,2.19307,-2.21091,4.23840,4.76978,-2.25860,4.28100,2.21323,2.21323,A,123405.10
4.82799,57.68803155,11.98123649,57.68803183,11.98123583,12:34:05.234311,0.00538,1.37848,1.37848,-0.12849,-0.00030,0.03189,0.01171,-0.02292,-0.07082,-0.06704,1.02004,4.82235,1.38878,2.19618,2.19609,-2.21981,4.24962,4.76978,-2.25860,4.28100,2.21323,2.21323,A,123405.10
4.83812,57.68803165,11.98123634,57.68803183,11.98123583,12:34:05.244423,0.00511,1.37848,1.37848,-0.12747,-0.00030,0.05037,0.00163,-0.01452,-0.01049,-0.06240,0.97685,4.83273,1.38672,2.19875,2.19866,-2.22837,4.26036,4.76978,-2.25860,4.28100,2.21323,2.21323,A,123405.10
4.84903,57.68803174,11.98123620,57.68803183,11.98123583,12:34:05.255336,0.00563,1.37848,1.37848,-0.12637,-0.00030,0.07022,-0.02280,0.00686,-0.04526,-0.06710,0.94178,4.84312,1.38507,2.20093,2.20084,-2.23653,4.27055,4.76978,-2.25860,4.28100,2.21323,2.21323,A,123405.10
4.85908,57.68803182,11.98123608,57.68803183,11.98123583,12:34:05.265385,0.00527,1.37848,1.37848,-0.12590,-0.00030,0.07694,-0.03380,0.01999,-0.04544,-0.11419,0.97240,4.85367,1.38375,2.20279,2.20270,-2.24404,4.27985,4.76978,-2.25860,4.28100,2.21323,2.21323,A,123405.10
4.86927,57.68803190,11.98123596,57.68803183,11.98123583,12:34:05.275569,0.00523,1.37848,1.37848,-0.12619,-0.00030,0.08397,-0.02448,0.03099,-0.03440,-0.17245,1.01156,4.86360,1.38270,2.20437,2.20428,-2.25107,4.28852,4.76978,-2.25860,4.28100,2.21323,2.21323,A,123405.10
4.89711,57.68803198,11.98123584,57.68803317,11.98123500,12:34:05.303422,0.02268,1.37848,1.37848,-0.12627,-0.00030,0.08122,-0.01730,0.02915,-0.09571,-0.16134,1.01919,4.87418,1.38185,2.20571,2.20562,-2.25806,4.29715,4.89125,-2.30814,4.42926,1.89322,1.89322,A,123405.20
4.91331,57.68803232,11.98123541,57.68803317,11.98123500,12:34:05.319614,0.00724,1.37848,1.37848,-0.12205,-0.00030,0.11054,0.02454,0.01312,-0.04984,-0.04270,0.95947,4.90596,1.38118,2.15884,2.15875,-2.28391,4.33546,4.89125,-2.30814,4.42926,1.89322,1.89322,A,123405.20
4.92178,57.68803243,11.98123531,57.68803317,11.98123500,12:34:05.328089,0.00530,1.37848,1.37848,-0.12057,-0.00030,0.11405,0.01217,0.00854,-0.01104,-0.06460,0.93751,4.91614,1.38064,2.11901,2.11892,-2.28983,4.34720,4.89125,-2.30814,4.42926,1.89322,1.89322,A,123405.20
4.93240,57.68803255,11.98123519,57.68803317,11.98123500,12:34:05.338703,0.00544,1.37848,1.37848,-0.11975,-0.00027,0.10626,-0.00646,0.00930,-0.04483,-0.10852,0.99833,4.92671,1.38021,2.08515,2.08507,-2.29658,4.36087,4.89125,-2.30814,4.42926,1.89322,1.89322,A,123405.20
4.94244,57.68803267,11.98123510,57.68803317,11.98123500,12:34:05.348739,0.00509,1.37848,1.37848,-0.11876,-0.00010,0.10244,-0.01028,0.01403,0.00293,-0.09443,1.01815,4.93706,1.37986,2.05636,2.05633,-2.30249,4.37372,4.89125,-2.30814,4.42926,1.89322,1.89322,A,123405.20
4.95315,57.68803278,11.98123500,57.68803317,11.98123500,12:34:05.359463,0.00543,1.37848,1.37848,-0.11687,0.00035,0.09985,-0.00921,0.02014,-0.04880,-0.02995,1.06805,4.94730,1.37958,2.03187,2.03198,-2.30794,4.38630,4.89125,-2.30814,4.42926,1.89322,1.89322,A,123405.20
4.96326,57.68803289,11.98123492,57.68803317,11.98123500,12:34:05.369568,0.00514,1.37848,1.37848,-0.11511,0.00109,0.10290,0.00484,0.02564,-0.11370,-0.04252,1.06665,4.95787,1.37936,2.01103,2.01135,-2.31280,4.39821,4.89125,-2.30814,4.42926,1.89322,1.89322,A,123405.20
4.97359,57.68803299,11.98123485,57.68803317,11.98123500,12:34:05.379905,0.00525,1.37848,1.37848,-0.11369,0.00188,0.10901,0.01721,0.02411,-0.03654,-0.06289,1.02571,4.96792,1.37919,1.99328,1.99384,-2.31718,4.40955,4.89125,-2.30814,4.42926,1.89322,1.89322,A,123405.20
4.98416,57.68803309,11.98123478,57.68803317,11.98123500,12:34:05.390467,0.00542,1.37848,1.37848,-0.11242,0.00261,0.10428,0.01232,0.02198,-0.07046,-0.07094,1.02041,4.97851,1.37904,1.97818,1.97895,-2.32131,4.42071,4.89125,-2.30814,4.42926,1.89322,1.89322,A,123405.20
5.01169,57.68803319,11.98123471,57.68803417,11.98123417,12:34:05.418023,0.02255,1.37848,1.37848,-0.11139,0.00312,0.09924,0.00194,0.02564,-0.00427,-0.07954,0.97820,4.98908,1.37893,1.96532,1.96624,-2.32511,4.43144,5.00580,-2.35767,4.54046,1.98985,1.98985,A,123405.30
5.03105,57.68803356,11.98123443,57.68803417,11.98123417,12:34:05.437396,0.01121,1.37848,1.37848,0.00000,0.00338,0.06839,-0.02219,0.01251,-0.08052,-0.05911,1.04298,5.02045,1.37884,1.96895,1.96995,-2.34175,4.47286,5.00580,-2.35767,4.54046,1.98985,1.98985,A,123405.30
5.05528,57.68803381,11.98123424,57.68803417,11.98123417,12:34:05.462409,0.01410,1.37848,1.37848,-0.00032,0.00338,0.06258,0.00515,0.00854,-0.04026,-0.08510,1.00998,5.04347,1.37877,1.97201,1.97301,-2.35303,4.50110,5.00580,-2.35767,4.54046,1.98985,1.98985,A,123405.30
5.07373,57.68803404,11.98123408,57.68803417,11.98123417,12:34:05.480049,0.00850,1.37848,1.37848,-0.00052,0.00338,0.03876,0.01294,-0.00521,-0.05264,-0.03697,0.92281,5.06628,1.37871,1.97460,1.97560,-2.36308,4.52615,5.00580,-2.35767,4.54046,1.98985,1.98985,A,123405.30
5.08338,57.68803412,11.98123402,57.68803417,11.98123417,12:34:05.489922,0.00759,1.37848,1.37848,-0.00109,0.00338,0.03189,0.02133,-0.00826,-0.02489,-0.02397,0.93391,5.07533,1.37866,1.97677,1.97777,-2.36653,4.53555,5.00580,-2.35767,4.54046,1.98985,1.98985,A,123405.30
5.09468,57.68803423,11.98123394,57.68803417,11.98123417,12:34:05.500992,0.00850,1.37848,1.37848,-0.00189,0.00329,0.02609,0.01126,-0.00964,-0.04374,-0.03989,0.96783,5.08593,1.37863,1.97862,1.97959,-2.37120,4.54765,5.00580,-2.35767,4.54046,1.98985,1.98985,A,123405.30
5.10401,57.68803431,11.98123389,57.68803417,11.98123417,12:34:05.510315,0.00682,1.37848,1.37848,-0.00345,0.00264,0.01494,0.01049,-0.02109,0.01592,-0.08595,1.00253,5.09751,1.37860,1.98021,1.98100,-2.37438,4.55620,5.00580,-2.35767,4.54046,1.98985,1.98985,A,123405.30
5.13227,57.68803439,11.98123383,57.68803500,11.98123317,12:34:05.538575,0.02418,1.37848,1.37848,-0.00486,0.00083,0.00348,-0.00295,-0.02644,0.00860,-0.07058,1.02883,5.10773,1.37857,1.98164,1.98189,-2.37794,4.56551,5.12548,-2.41710,4.63312,2.14113,2.14113,A,123405.40
5.14823,57.68803474,11.98123354,57.68803500,11.98123317,12:34:05.554546,0.00910,1.50716,1.50716,-0.00708,-0.01001,-0.01790,0.00057,-0.02949,-0.07582,-0.08674,1.00424,5.13963,1.40429,2.00604,2.00307,-2.39514,4.60386,5.12548,-2.41710,4.63312,2.14113,2.14113,A,123405.40
5.15595,57.68803483,11.98123345,57.68803500,11.98123317,12:34:05.562263,0.00660,1.50716,1.50716,-0.00908,-0.01420,-0.02233,0.00652,-0.02750,-0.04703,-0.09260,0.94294,5.14923,1.42486,2.02686,2.02264,-2.40025,4.61401,5.12548,-2.41710,4.63312,2.14113,2.14113,A,123405.40
5.16613,57.68803493,11.98123335,57.68803500,11.98123317,12:34:05.572438,0.00620,1.50716,1.50716,-0.01086,-0.01859,-0.03057,-0.00020,-0.02567,0.00140,-0.07149,0.88846,5.15950,1.44132,2.04469,2.03917,-2.40608,4.62526,5.12548,-2.41710,4.63312,2.14113,2.14113,A,123405.40
5.17674,57.68803503,11.98123325,57.68803500,11.98123317,12:34:05.583047,0.00642,1.50716,1.50716,-0.01269,-0.02272,-0.03378,-0.00371,-0.03514,0.00708,-0.07344,0.87486,5.17006,1.45449,2.05999,2.05325,-2.41188,4.63603,5.12548,-2.41710,4.63312,2.14113,2.14113,A,123405.40
5.18689,57.68803512,11.98123316,57.68803500,11.98123317,12:34:05.593200,0.00618,1.50716,1.50716,-0.01456,-0.02654,-0.03286,-0.00936,-0.04216,-0.03995,-0.08247,0.91842,5.18024,1.46502,2.07313,2.06525,-2.41752,4.64614,5.12548,-2.41710,4.63312,2.14113,2.14113,A,123405.40
5.19761,57.68803521,11.98123306,57.68803500,11.98123317,12:34:05.603914,0.00639,1.50716,1.50716,-0.01689,-0.03042,-0.03164,-0.00203,-0.05209,-0.06667,-0.12365,1.00131,5.19095,1.47345,2.08442,2.07539,-2.42320,4.65607,5.12548,-2.41710,4.63312,2.14113,2.14113,A,123405.40
5.20791,57.68803529,11.98123298,57.68803500,11.98123317,12:34:05.614221,0.00630,1.50716,1.50716,-0.01939,-0.03393,-0.04691,0.00622,-0.07194,-0.09711,-0.13377,1.05347,5.20130,1.48019,2.09415,2.08408,-2.42849,4.66505,5.12548,-2.41710,4.63312,2.14113,2.14113,A,123405.40
5.21812,57.68803537,11.98123289,57.68803500,11.98123317,12:34:05.624429,0.00619,1.50716,1.50716,-0.02120,-0.03727,-0.05776,0.01446,-0.07851,-0.03221,-0.08394,1.07763,5.21148,1.48558,2.10253,2.09147,-2.43371,4.67372,5.12548,-2.41710,4.63312,2.14113,2.14113,A,123405.40
5.24581,57.68803544,11.98123280,57.68803633,11.98123233,12:34:05.652119,0.02348,1.50716,1.50716,-0.02301,-0.04046,-0.06050,0.01263,-0.08233,0.06161,-0.07863,1.03444,5.22206,1.48990,2.10976,2.09774,-2.43885,4.68212,5.23878,-2.46663,4.78138,1.89322,1.89322,A,123405.50
5.26312,57.68803583,11.98123241,57.68803633,11.98123233,12:34:05.669424,0.00885,1.50716,1.50716,-0.02572,-0.04856,-0.04966,-0.02097,-0.07210,-0.07405,-0.07412,0.97069,5.25484,1.49335,2.07799,2.06357,-2.46230,4.72498,5.23878,-2.46663,4.78138,1.89322,1.89322,A,123405.50
5.27042,57.68803592,11.98123233,57.68803633,11.98123233,12:34:05.676720,0.00594,1.50716,1.50716,-0.02779,-0.05037,-0.05180,-0.01516,-0.06965,-0.08125,-0.10638,0.94940,5.26400,1.49611,2.05217,2.03721,-2.46667,4.73555,5.23878,-2.46663,4.78138,1.89322,1.89322,A,123405.50
5.28124,57.68803604,11.98123224,57.68803633,11.98123233,12:34:05.687554,0.00638,1.50716,1.50716,-0.02958,-0.05215,-0.04997,-0.01929,-0.07057,-0.04380,-0.08863,0.95868,5.27462,1.49832,2.03015,2.01466,-2.47216,4.74874,5.23878,-2.46663,4.78138,1.89322,1.89322,A,123405.50
5.29181,57.68803615,11.98123216,57.68803633,11.98123233,12:34:05.698129,0.00655,1.50716,1.50716,-0.03157,-0.05354,-0.04966,-0.01715,-0.06599,-0.06466,-0.10340,0.95361,5.28500,1.50009,2.01149,1.99558,-2.47699,4.76111,5.23878,-2.46663,4.78138,1.89322,1.89322,A,123405.50
5.30212,57.68803626,11.98123208,57.68803633,11.98123233,12:34:05.708427,0.00622,1.50716,1.50716,-0.03342,-0.05456,-0.05195,-0.01364,-0.06797,-0.05887,-0.09760,0.98564,5.29549,1.50150,1.99563,1.97943,-2.48159,4.77343,5.23878,-2.46663,4.78138,1.89322,1.89322,A,123405.50
5.31271,57.68803637,11.98123201,57.68803633,11.98123233,12:34:05.719026,0.00642,1.50716,1.50716,-0.03546,-0.05521,-0.04493,-0.00677,-0.07256,-0.11950,-0.11932,1.00382,5.30603,1.50263,1.98219,1.96579,-2.48564,4.78493,5.23878,-2.46663,4.78138,1.89322,1.89322,A,123405.50
5.32279,57.68803646,11.98123195,57.68803633,11.98123233,12:34:05.729101,0.00611,1.50716,1.50716,-0.03744,-0.05549,-0.04309,0.00958,-0.07424,-0.08479,-0.11950,1.00571,5.31622,1.50354,1.97078,1.95429,-2.48930,4.79581,5.23878,-2.46663,4.78138,1.89322,1.89322,A,123405.50
5.33347,57.68803656,11.98123189,57.68803633,11.98123233,12:34:05.739778,0.00639,1.50716,1.50716,-0.03979,-0.05549,-0.04172,0.01126,-0.07439,-0.05484,-0.14695,1.00839,5.32682,1.50426,1.96106,1.94458,-2.49276,4.80646,5.23878,-2.46663,4.78138,1.89322,1.89322,A,123405.50
5.37215,57.68803665,11.98123184,57.68803817,11.98123017,12:34:05.778463,0.03467,1.50716,1.50716,-0.04160,-0.05549,-0.03851,0.01202,-0.07637,-0.00317,-0.11206,0.97643,5.33720,1.50484,1.95282,1.93633,-2.49579,4.81625,5.36494,-2.59541,4.98524,2.13421,2.13421,A,123405.70
5.38854,57.68803723,11.98123140,57.68803817,11.98123017,12:34:05.794848,0.00948,1.50716,1.50716,-0.04382,-0.05549,-0.03088,-0.00539,-0.05789,-0.07967,-0.08131,1.00235,5.38098,1.50530,1.97978,1.96329,-2.52223,4.88078,5.36494,-2.59541,4.98524,2.13421,2.13421,A,123405.70
5.39578,57.68803734,11.98123128,57.68803817,11.98123017,12:34:05.802097,0.00629,1.50716,1.50716,-0.04563,-0.05549,-0.02691,-0.00386,-0.05805,-0.07241,-0.13152,1.01101,5.38936,1.50567,2.00504,1.98855,-2.52905,4.89363,5.36494,-2.59541,4.98524,2.13421,2.13421,A,123405.70
5.40608,57.68803748,11.98123115,57.68803817,11.98123017,12:34:05.812387,0.00616,1.50716,1.50716,-0.04692,-0.05549,-0.02614,0.00454,-0.05698,-0.09199,-0.09742,1.03730,5.39948,1.50597,2.02635,2.00986,-2.53720,4.90910,5.36494,-2.59541,4.98524,2.13421,2.13421,A,123405.70
5.41670,57.68803762,11.98123101,57.68803817,11.98123017,12:34:05.823008,0.00639,1.50716,1.50716,-0.04806,-0.05544,-0.02187,0.01355,-0.05102,-0.10443,-0.09101,1.04389,5.41004,1.50621,2.04444,2.02797,-2.54529,4.92394,5.36494,-2.59541,4.98524,2.13421,2.13421,A,123405.70
5.42681,57.68803774,11.98123088,57.68803817,11.98123017,12:34:05.833110,0.00610,1.50716,1.50716,-0.04923,-0.05504,-0.02034,0.01874,-0.04751,-0.05716,-0.09607,1.04316,5.42023,1.50640,2.05982,2.04347,-2.55311,4.93780,5.36494,-2.59541,4.98524,2.13421,2.13421,A,123405.70
5.43750,57.68803786,11.98123075,57.68803817,11.98123017,12:34:05.843803,0.00639,1.50716,1.50716,-0.05057,-0.05405,-0.00858,0.02072,-0.04201,-0.02385,-0.11010,0.97344,5.43084,1.50655,2.07283,2.05677,-2.56082,4.95111,5.36494,-2.59541,4.98524,2.13421,2.13421,A,123405.70
5.44811,57.68803797,11.98123063,57.68803817,11.98123017,12:34:05.854419,0.00662,1.50716,1.50716,-0.05160,-0.05241,-0.01347,0.00866,-0.03560,0.00622,-0.08534,0.94806,5.44121,1.50667,2.08385,2.06828,-2.56809,4.96332,5.36494,-2.59541,4.98524,2.13421,2.13421,A,123405.70
5.45821,57.68803807,11.98123051,57.68803817,11.98123017,12:34:05.864517,0.00631,1.50716,1.50716,-0.05259,-0.05017,-0.01057,-0.00157,-0.03071,-0.03160,-0.08729,0.97271,5.45158,1.50677,2.09313,2.07822,-2.57514,4.97488,5.36494,-2.59541,4.98524,2.13421,2.13421,A,123405.70
5.48599,57.68803817,11.98123039,57.68803950,11.98122967,12:34:05.892300,0.02370,1.50716,1.50716,-0.05356,-0.04745,-0.00553,-0.01807,-0.03438,-0.02763,-0.09412,1.02663,5.46210,1.50684,2.10091,2.08681,-2.58204,4.98598,5.47879,-2.62513,5.13350,1.76862,1.76862,A,123405.80
5.50328,57.68803860,11.98122997,57.68803950,11.98122967,12:34:05.909827,0.00801,1.50716,1.50716,-0.05406,-0.03786,-0.00660,-0.01257,-0.03987,-0.05087,-0.04947,1.03120,5.49601,1.50691,2.05097,2.03973,-2.60688,5.03334,5.47879,-2.62513,5.13350,1.76862,1.76862,A,123405.80
5.51171,57.68803872,11.98122989,57.68803950,11.98122967,12:34:05.918029,0.00605,1.50716,1.50716,-0.05477,-0.03503,0.00150,-0.01196,-0.03102,-0.06063,-0.07552,0.96020,5.50529,1.50696,2.00988,1.99948,-2.61204,5.04674,5.47879,-2.62513,5.13350,1.76862,1.76862,A,123405.80
5.52211,57.68803886,11.98122979,57.68803950,11.98122967,12:34:05.928411,0.00618,1.50716,1.50716,-0.05495,-0.03166,0.00700,0.01034,-0.01483,-0.11700,-0.04410,0.92824,5.51547,1.50700,1.97476,1.96536,-2.61768,5.06199,5.47879,-2.62513,5.13350,1.76862,1.76862,A,123405.80
5.53269,57.68803899,11.98122971,57.68803950,11.98122967,12:34:05.939002,0.00637,1.50716,1.50716,-0.05545,-0.02795,0.01372,0.03874,-0.00567,-0.10224,-0.06472,0.88804,5.52605,1.50703,1.94477,1.93647,-2.62274,5.07681,5.47879,-2.62513,5.13350,1.76862,1.76862,A,123405.80
5.54281,57.68803912,11.98122963,57.68803950,11.98122967,12:34:05.949118,0.00609,1.50716,1.50716,-0.05605,-0.02416,0.02181,0.04271,0.01083,-0.08821,-0.07326,0.86754,5.53625,1.50705,1.91915,1.91198,-2.62717,5.09091,5.47879,-2.62513,5.13350,1.76862,1.76862,A,123405.80
5.55345,57.68803924,11.98122957,57.68803950,11.98122967,12:34:05.959952,0.00633,1.69383,1.69383,-0.05633,-0.02011,0.02227,0.04837,0.01617,-0.05130,-0.05813,0.89725,5.54681,1.54441,1.89722,1.89125,-2.63117,5.10459,5.47879,-2.62513,5.13350,1.76862,1.76862,A,123405.80
5.56383,57.68803936,11.98122951,57.68803950,11.98122967,12:34:05.970141,0.00632,1.69383,1.69383,-0.05639,-0.01615,0.02990,0.04119,0.02137,0.00622,-0.05209,0.97344,5.55725,1.57429,1.87845,1.87366,-2.63474,5.11769,5.47879,-2.62513,5.13350,1.76862,1.76862,A,123405.80
5.57408,57.68803947,11.98122945,57.68803950,11.98122967,12:34:05.980388,0.00617,1.69383,1.69383,-0.05600,-0.01208,0.03723,0.03401,0.03206,0.01013,-0.02904,1.07445,5.56746,1.59820,1.86235,1.85876,-2.63801,5.13051,5.47879,-2.62513,5.13350,1.76862,1.76862,A,123405.80
5.60312,57.68803959,11.98122940,57.68804067,11.98122817,12:34:06.009445,0.02482,1.69383,1.69383,-0.05583,-0.00794,0.03800,0.02240,0.03175,0.00012,-0.04831,1.15601,5.57803,1.61732,1.84852,1.84616,-2.64104,5.14304,5.59502,-2.71429,5.26323,2.17292,2.17292,A,123405.90
5.62129,57.68804009,11.98122910,57.68804067,11.98122817,12:34:06.027602,0.00923,1.69383,1.69383,-0.05508,0.00516,0.04151,-0.02097,0.03221,0.00189,-0.06820,0.95794,5.61386,1.63262,1.89661,1.89814,-2.65892,5.19939,5.59502,-2.71429,5.26323,2.17292,2.17292,A,123405.90
5.62856,57.68804020,11.98122900,57.68804067,11.98122817,12:34:06.034871,0.00636,1.69383,1.69383,-0.05594,0.00805,0.04960,-0.01776,0.03526,-0.05996,-0.09132,0.86504,5.62199,1.64486,1.93774,1.94012,-2.66484,5.21186,5.59502,-2.71429,5.26323,2.17292,2.17292,A,123405.90
5.63872,57.68804034,11.98122888,57.68804067,11.98122817,12:34:06.045024,0.00612,1.69383,1.69383,-0.05675,0.01110,0.05189,-0.01852,0.03984,-0.04191,-0.08930,0.80593,5.63212,1.65466,1.97260,1.97590,-2.67203,5.22660,5.59502,-2.71429,5.26323,2.17292,2.17292,A,123405.90
5.65233,57.68804050,11.98122873,57.68804067,11.98122817,12:34:06.058644,0.00934,1.69383,1.69383,-0.05713,0.01419,0.04899,-0.01196,0.04351,-0.06991,-0.07070,0.82472,5.64437,1.66249,2.00218,2.00639,-2.68093,5.24426,5.59502,-2.71429,5.26323,2.17292,2.17292,A,123405.90
5.65933,57.68804058,11.98122864,57.68804067,11.98122817,12:34:06.065900,0.00610,1.69383,1.69383,-0.05720,0.01614,0.05006,-0.00127,0.04580,-0.15781,-0.05142,0.92995,5.65315,1.66876,2.02717,2.03196,-2.68640,5.25339,5.59502,-2.71429,5.26323,2.17292,2.17292,A,123405.90
5.66996,57.68804069,11.98122851,57.68804067,11.98122817,12:34:06.076262,0.00620,1.69383,1.69383,-0.05684,0.01841,0.05907,0.01095,0.04901,-0.09241,-0.03770,1.01913,5.66332,1.67377,2.04839,2.05385,-2.69370,5.26576,5.59502,-2.71429,5.26323,2.17292,2.17292,A,123405.90
5.68054,57.68804080,11.98122839,57.68804067,11.98122817,12:34:06.086851,0.00639,1.69383,1.69383,-0.05693,0.02039,0.06411,0.02668,0.05298,-0.10638,-0.08089,1.12222,5.67389,1.67778,2.06636,2.07242,-2.70100,5.27760,5.59502,-2.71429,5.26323,2.17292,2.17292,A,123405.90
5.69067,57.68804089,11.98122827,57.68804067,11.98122817,12:34:06.096976,0.00612,1.69383,1.69383,-0.05741,0.02209,0.06106,0.03493,0.04992,0.04520,-0.10437,1.11404,5.68406,1.68099,2.08159,2.08814,-2.70809,5.28859,5.59502,-2.71429,5.26323,2.17292,2.17292,A,123405.90
5.71936,57.68804099,11.98122815,57.68804200,11.98122750,12:34:06.125817,0.02442,1.69383,1.69383,-0.05779,0.02356,0.05205,0.01217,0.04061,0.10791,-0.08607,1.04694,5.69469,1.68356,2.09448,2.10148,-2.71518,5.29924,5.71156,-2.75391,5.41149,1.83196,1.83196,A,123406.00
5.73931,57.68804147,11.98122765,57.68804200,11.98122750,12:34:06.145856,0.00890,1.69383,1.69383,-0.05631,0.02602,0.05067,-0.04586,0.03786,-0.16738,-0.04392,0.99485,5.73148,1.68561,2.05502,2.06274,-2.74524,5.35278,5.71156,-2.75391,5.41149,1.83196,1.83196,A,123406.00
5.74642,57.68804158,11.98122756,57.68804200,11.98122750,12:34:06.152724,0.00595,1.69383,1.69383,-0.05669,0.02605,0.05495,-0.02677,0.03939,-0.11169,-0.07265,0.97618,5.73998,1.68725,2.02060,2.02834,-2.75027,5.36429,5.71156,-2.75391,5.41149,1.83196,1.83196,A,123406.00
5.75738,57.68804171,11.98122746,57.68804200,11.98122750,12:34:06.163685,0.00651,1.69383,1.69383,-0.05841,0.02605,0.05205,-0.00997,0.00579,-0.08040,-0.16726,0.97283,5.75060,1.68857,1.99144,1.99917,-2.75652,5.37896,5.71156,-2.75391,5.41149,1.83196,1.83196,A,123406.00
5.76718,57.68804183,11.98122737,57.68804200,11.98122750,12:34:06.173481,0.00591,1.69383,1.69383,-0.05950,0.02605,0.04456,-0.00310,0.04534,0.05270,-0.11322,0.91829,5.76099,1.68962,1.96664,1.97437,-2.76185,5.39255,5.71156,-2.75391,5.41149,1.83196,1.83196,A,123406.00
5.77813,57.68804195,11.98122728,57.68804200,11.98122750,12:34:06.184442,0.00622,1.69383,1.69383,-0.05987,0.02605,0.03510,-0.01471,0.04305,-0.07887,-0.06417,0.91482,5.77148,1.69046,1.94557,1.95330,-2.76693,5.40632,5.71156,-2.75391,5.41149,1.83196,1.83196,A,123406.00
5.78871,57.68804207,11.98122721,57.68804200,11.98122750,12:34:06.195014,0.00640,1.69383,1.69383,-0.05888,0.02605,0.05403,0.00209,0.04366,-0.11053,0.00628,0.90390,5.78205,1.69113,1.92766,1.93539,-2.77137,5.41924,5.71156,-2.75391,5.41149,1.83196,1.83196,A,123406.00
5.79899,57.68804218,11.98122714,57.68804200,11.98122750,12:34:06.205296,0.00613,1.69383,1.69383,-0.05830,0.02605,0.07068,0.00011,0.04519,-0.06063,-0.02769,0.92348,5.79241,1.69167,1.91245,1.92018,-2.77554,5.43205,5.71156,-2.75391,5.41149,1.83196,1.83196,A,123406.00
5.80968,57.68804229,11.98122708,57.68804200,11.98122750,12:34:06.215989,0.00642,1.69383,1.69383,-0.05912,0.02605,0.07847,0.00622,0.04122,-0.08125,-0.12773,0.97563,5.80297,1.69210,1.89950,1.90724,-2.77915,5.44392,5.71156,-2.75391,5.41149,1.83196,1.83196,A,123406.00
5.83593,57.68804239,11.98122702,57.68804333,11.98122650,12:34:06.242235,0.02227,1.69383,1.69383,-0.06011,0.02605,0.07511,0.00515,0.04213,-0.00098,-0.13792,0.99162,5.81330,1.69245,1.88849,1.89623,-2.78225,5.45476,5.83005,-2.81335,5.55975,1.95208,1.95208,A,123406.10
5.85300,57.68804285,11.98122673,57.68804333,11.98122650,12:34:06.259309,0.00974,1.69383,1.69383,-0.05801,0.02605,0.06365,-0.03945,0.03389,-0.08308,-0.01446,1.10032,5.84439,1.69272,1.89792,1.90565,-2.79950,5.50651,5.83005,-2.81335,5.55975,1.95208,1.95208,A,123406.10
5.86027,57.68804296,11.98122667,57.68804333,11.98122650,12:34:06.266571,0.00636,1.69383,1.69383,-0.05834,0.02605,0.07312,-0.02784,0.03038,-0.16232,-0.09577,1.09281,5.85379,1.69294,1.90510,1.91283,-2.80353,5.51876,5.83005,-2.81335,5.55975,1.95208,1.95208,A,123406.10
5.87031,57.68804309,11.98122658,57.68804333,11.98122650,12:34:06.276617,0.00618,1.69383,1.69383,-0.05778,0.02605,0.07465,-0.00142,0.02289,-0.08540,-0.03343,1.02962,5.86369,1.69312,1.91126,1.91899,-2.80840,5.53312,5.83005,-2.81335,5.55975,1.95208,1.95208,A,123406.10
5.88092,57.68804322,11.98122650,57.68804333,11.98122650,12:34:06.287225,0.00640,1.69383,1.69383,-0.05830,0.02605,0.07923,0.00851,0.01923,-0.01836,-0.10425,0.95184,5.87427,1.69326,1.91652,1.92425,-2.81332,5.54733,5.83005,-2.81335,5.55975,1.95208,1.95208,A,123406.10
5.89115,57.68804335,11.98122642,57.68804333,11.98122650,12:34:06.297457,0.00623,1.69383,1.69383,-0.05938,0.02605,0.07908,-0.00157,0.02396,0.03947,-0.13438,0.91756,5.88444,1.69337,1.92099,1.92872,-2.81818,5.56111,5.83005,-2.81335,5.55975,1.95208,1.95208,A,123406.10
5.90167,57.68804346,11.98122634,57.68804333,11.98122650,12:34:06.307976,0.00636,1.69383,1.69383,-0.05996,0.02605,0.07816,-0.01562,0.02732,-0.03087,-0.10443,0.91494,5.89504,1.69346,1.92478,1.93251,-2.82270,5.57377,5.83005,-2.81335,5.55975,1.95208,1.95208,A,123406.10
5.91209,57.68804357,11.98122627,57.68804333,11.98122650,12:34:06.318398,0.00638,1.69383,1.69383,-0.06023,0.02605,0.06885,-0.02891,0.04015,-0.09217,-0.08314,0.95020,5.90543,1.69354,1.92800,1.93573,-2.82697,5.58561,5.83005,-2.81335,5.55975,1.95208,1.95208,A,123406.10
5.92217,57.68804367,11.98122620,57.68804333,11.98122650,12:34:06.328474,0.00622,1.69383,1.69383,-0.06018,0.02605,0.06839,-0.03135,0.04565,-0.16397,-0.06728,1.04225,5.91551,1.69359,1.93073,1.93847,-2.83104,5.59674,5.83005,-2.81335,5.55975,1.95208,1.95208,A,123406.10
5.95008,57.68804376,11.98122613,57.68804433,11.98122517,12:34:06.356387,0.02374,1.69383,1.69383,-0.05907,0.02605,0.07770,-0.00768,0.04641,-0.09327,-0.00342,1.08623,5.92607,1.69364,1.93307,1.94080,-2.83507,5.60764,5.94276,-2.89260,5.67094,2.19000,2.19000,A,123406.20
5.96846,57.68804424,11.98122576,57.68804433,11.98122517,12:34:06.374769,0.00969,1.69383,1.69383,-0.05717,0.02605,0.08641,0.00820,0.04107,-0.03581,-0.09461,1.01455,5.96097,1.69368,1.97158,1.97931,-2.85721,5.66049,5.94276,-2.89260,5.67094,2.19000,2.19000,A,123406.20
5.97520,57.68804432,11.98122567,57.68804433,11.98122517,12:34:06.381506,0.00584,1.69383,1.69383,-0.05698,0.02605,0.08366,0.00591,0.03755,-0.06643,-0.05020,0.99235,5.96905,1.69371,2.00337,2.01110,-2.86248,5.66910,5.94276,-2.89260,5.67094,2.19000,2.19000,A,123406.20
5.98602,57.68804443,11.98122555,57.68804433,11.98122517,12:34:06.392332,0.00614,1.69383,1.69383,-0.05661,0.02605,0.08091,0.01217,0.03068,-0.08772,-0.04831,0.96917,5.97943,1.69373,2.03050,2.03823,-2.86988,5.68170,5.94276,-2.89260,5.67094,2.19000,2.19000,A,123406.20
5.99691,57.68804454,11.98122542,57.68804433,11.98122517,12:34:06.403226,0.00664,1.69383,1.69383,-0.05589,0.02605,0.08198,0.01507,0.03022,-0.06509,-0.02513,0.91811,5.99003,1.69375,2.05357,2.06130,-2.87739,5.69379,5.94276,-2.89260,5.67094,2.19000,2.19000,A,123406.20
6.00668,57.68804463,11.98122531,57.68804433,11.98122517,12:34:06.412976,0.00601,1.69383,1.69383,-0.05532,0.02605,0.09145,0.01889,0.03435,-0.04252,-0.03855,0.93916,6.00018,1.69376,2.07315,2.08088,-2.88432,5.70420,5.94276,-2.89260,5.67094,2.19000,2.19000,A,123406.20
6.01746,57.68804472,11.98122519,57.68804433,11.98122517,12:34:06.423770,0.00640,1.69383,1.69383,-0.05513,0.02605,0.09221,0.02027,0.03465,0.00787,-0.06374,0.93287,6.01077,1.69378,2.08981,2.09754,-2.89140,5.71444,5.94276,-2.89260,5.67094,2.19000,2.19000,A,123406.20
6.02776,57.68804481,11.98122507,57.68804433,11.98122517,12:34:06.434076,0.00629,1.69383,1.69383,-0.05528,0.02605,0.08076,0.01629,0.04015,0.00043,-0.07771,0.94440,6.02117,1.69379,2.10396,2.11169,-2.89818,5.72383,5.94276,-2.89260,5.67094,2.19000,2.19000,A,123406.20
6.03810,57.68804489,11.98122496,57.68804433,11.98122517,12:34:06.444404,0.00620,1.69383,1.69383,-0.05546,0.02605,0.07434,0.00866,0.03236,-0.04624,-0.07991,0.99881,6.03145,1.69379,2.11600,2.12373,-2.90494,5.73291,5.94276,-2.89260,5.67094,2.19000,2.19000,A,123406.20
6.07736,57.68804497,11.98122485,57.68804683,11.98122350,12:34:06.483667,0.03506,1.69383,1.69383,-0.05543,0.02605,0.06793,0.00851,0.02198,-0.06869,-0.06417,1.01748,6.04203,1.69380,2.12623,2.13396,-2.91152,5.74146,6.07033,-2.99166,5.94893,1.91312,1.91312,A,123406.40
