Time,lat_estimated,lon_estimated,latitude,longitude,RealTime,CalculationTime,MeasuredVelocity,FilteredVelocity,Roll,SteeringAngle,RollRate,gy,gz,ax,ay,az,imu_read_timing,v_estimated,yaw_estimated,heading_estimated,x_estimated,y_estimated,GPS_timestamp,x_GPS,y_GPS,theta_GPS,theta_GPS_noUnwrap,status,NMEA timestamp
0.05979,57.68785250,11.98134233,57.68785250,11.98134233,15:20:26.470213,0.05975,0.00000,0.00000,-0.00105,0.02547,0.00002,-0.00406,0.00010,-0.02196,-0.03867,0.98735,0.00001,0.00000,-0.01556,0.00000,0.00000,0.00000,0.02132,0.00000,0.00000,0.00000,0.00000,A,141949.00
0.08230,57.68785250,11.98134233,57.68785250,11.98134233,15:20:26.492685,0.01032,0.00000,0.00000,-0.00285,0.02576,-0.00929,-0.00406,-0.00341,-0.05459,-0.04514,1.00083,0.07288,0.00000,-0.01558,0.00015,0.00000,0.00000,0.02132,0.00000,0.00000,0.00000,0.00000,A,141949.00
0.10350,57.68785250,11.98134233,57.68785250,11.98134233,15:20:26.513889,0.00878,0.00000,0.00000,-0.00406,0.02576,-0.00975,0.00266,-0.00081,-0.00653,-0.03636,0.98308,0.09657,0.00000,-0.01561,0.00012,0.00000,0.00000,0.02132,0.00000,0.00000,0.00000,0.00000,A,141949.00
0.11376,57.68785250,11.98134233,57.68785250,11.98134233,15:20:26.524179,0.00884,0.00000,0.00000,-0.00509,0.02576,-0.00945,0.00755,0.00087,-0.02586,-0.03593,0.99064,0.10616,0.00000,-0.01562,0.00011,0.00000,0.00000,0.02132,0.00000,0.00000,0.00000,0.00000,A,141949.00
0.12236,57.68785250,11.98134233,57.68785250,11.98134233,15:20:26.532775,0.00724,0.00000,0.00000,-0.00625,0.02576,-0.01357,0.00419,-0.00142,-0.04166,-0.04429,1.01461,0.11474,0.00000,-0.01564,0.00009,0.00000,0.00000,0.02132,0.00000,0.00000,0.00000,0.00000,A,141949.00
0.15692,57.68785250,11.98134233,57.68785300,11.98134150,15:20:26.567309,0.03139,0.00000,0.00000,-0.00742,0.02576,-0.01464,0.01136,-0.00051,-0.03178,-0.04288,1.02102,0.12629,0.00000,-0.01565,0.00008,0.00000,0.00000,0.15207,-0.04953,0.05560,2.29855,2.29855,A,141949.10
0.18043,57.68785252,11.98134229,57.68785300,11.98134150,15:20:26.590844,0.01146,0.00000,0.00000,-0.00932,0.02576,-0.02166,-0.00589,-0.00463,-0.07039,-0.03782,1.01461,0.17246,0.00000,0.32912,0.34485,-0.00248,0.00278,0.15207,-0.04953,0.05560,2.29855,2.29855,A,141949.10
0.19903,57.68785255,11.98134225,57.68785300,11.98134150,15:20:26.609417,0.01000,0.00000,0.00000,-0.01074,0.02576,-0.02258,0.00587,-0.00020,0.01970,-0.04447,0.99723,0.19133,0.00000,0.62217,0.63790,-0.00483,0.00542,0.15207,-0.04953,0.05560,2.29855,2.29855,A,141949.10
0.21740,57.68785257,11.98134221,57.68785300,11.98134150,15:20:26.627780,0.00791,0.00000,0.00000,-0.01220,0.02576,-0.02930,-0.00712,-0.00112,-0.01800,-0.03849,0.98393,0.21112,0.00000,0.87127,0.88700,-0.00706,0.00793,0.15207,-0.04953,0.05560,2.29855,2.29855,A,141949.10
0.22598,57.68785259,11.98134218,57.68785300,11.98134150,15:20:26.638058,0.00524,0.00000,0.00000,-0.01324,0.02576,-0.03144,-0.00452,-0.00417,-0.06155,-0.03099,0.97588,0.22006,0.00000,1.08300,1.09873,-0.00919,0.01031,0.15207,-0.04953,0.05560,2.29855,2.29855,A,141949.10
0.23704,57.68785261,11.98134214,57.68785300,11.98134150,15:20:26.647414,0.00523,0.00000,0.00000,-0.01450,0.02576,-0.03251,0.00251,-0.00631,-0.04972,-0.04282,0.98686,0.23084,0.00000,1.26298,1.27871,-0.01120,0.01258,0.15207,-0.04953,0.05560,2.29855,2.29855,A,141949.10
0.24998,57.68785263,11.98134211,57.68785300,11.98134150,15:20:26.660358,0.00777,0.00000,0.00000,-0.01592,0.02576,-0.03434,0.00495,-0.00432,-0.01013,-0.05368,1.01162,0.24186,0.00000,1.41595,1.43168,-0.01312,0.01473,0.15207,-0.04953,0.05560,2.29855,2.29855,A,141949.10
0.27675,57.68785265,11.98134208,57.68785367,11.98134100,15:20:26.687129,0.02427,0.00000,0.00000,-0.01718,0.02576,-0.03755,-0.00452,-0.00600,0.00055,-0.04380,1.02114,0.25226,0.00000,1.54598,1.56171,-0.01494,0.01677,0.27324,-0.07925,0.12973,1.95208,1.95208,A,141949.20
0.29513,57.68785270,11.98134203,57.68785367,11.98134100,15:20:26.705742,0.00914,0.00000,0.00000,-0.01950,0.02576,-0.03556,0.01075,-0.00646,-0.04709,-0.06429,1.00717,0.28535,0.00000,1.60454,1.62027,-0.01816,0.02242,0.27324,-0.07925,0.12973,1.95208,1.95208,A,141949.20
0.30566,57.68785275,11.98134198,57.68785367,11.98134100,15:20:26.716041,0.00940,0.00000,0.00000,-0.02103,0.02576,-0.03816,0.01091,-0.00662,0.00793,-0.05856,0.98094,0.29749,0.00000,1.65431,1.67004,-0.02121,0.02778,0.27324,-0.07925,0.12973,1.95208,1.95208,A,141949.20
0.31231,57.68785280,11.98134193,57.68785367,11.98134100,15:20:26.722685,0.00548,0.00000,0.00000,-0.02227,0.02576,-0.04411,0.00235,-0.00646,0.00860,-0.04666,0.98125,0.30612,0.00000,1.69662,1.71235,-0.02411,0.03288,0.27324,-0.07925,0.12973,1.95208,1.95208,A,141949.20
0.32229,57.68785284,11.98134188,57.68785367,11.98134100,15:20:26.732663,0.00506,0.00000,0.00000,-0.02357,0.02576,-0.04304,-0.00605,-0.00509,0.00586,-0.04825,0.98289,0.31641,0.00000,1.73257,1.74831,-0.02687,0.03772,0.27324,-0.07925,0.12973,1.95208,1.95208,A,141949.20
0.33288,57.68785288,11.98134184,57.68785367,11.98134100,15:20:26.743254,0.00520,0.00000,0.00000,-0.02487,0.02576,-0.03480,-0.01338,-0.00371,-0.03642,-0.05563,1.00607,0.32671,0.00000,1.76314,1.77887,-0.02949,0.04232,0.27324,-0.07925,0.12973,1.95208,1.95208,A,141949.20
0.34566,57.68785292,11.98134180,57.68785367,11.98134100,15:20:26.756037,0.00773,0.00000,0.00000,-0.02618,0.02576,-0.04075,-0.00238,-0.00066,-0.05758,-0.05380,1.00595,0.33725,0.00000,1.78912,1.80485,-0.03198,0.04669,0.27324,-0.07925,0.12973,1.95208,1.95208,A,141949.20
0.35572,57.68785296,11.98134176,57.68785367,11.98134100,15:20:26.766113,0.00739,0.00000,0.00000,-0.02730,0.02576,-0.04167,0.00495,-0.00555,-0.02879,-0.03703,1.00260,0.34916,0.00000,1.81121,1.82694,-0.03434,0.05085,0.27324,-0.07925,0.12973,1.95208,1.95208,A,141949.20
0.36610,57.68785299,11.98134172,57.68785367,11.98134100,15:20:26.778170,0.00756,0.00000,0.00000,-0.02856,0.02576,-0.04182,0.00510,-0.00280,-0.00641,-0.05063,1.01907,0.36017,0.00000,1.82998,1.84571,-0.03659,0.05479,0.27324,-0.07925,0.12973,1.95208,1.95208,A,141949.20
0.42421,57.68785303,11.98134168,57.68785450,11.98134017,15:20:26.834586,0.05508,0.00000,0.00000,-0.02983,0.02576,-0.04274,0.00281,-0.00600,-0.01177,-0.04990,1.00766,0.37195,0.00000,1.84593,1.86166,-0.03872,0.05854,0.42078,-0.12878,0.22239,2.06169,2.06169,A,141949.40
0.44101,57.68785310,11.98134161,57.68785450,11.98134017,15:20:26.851389,0.00841,0.00000,0.00000,-0.03319,0.02576,-0.03739,-0.00284,-0.01868,-0.02623,-0.07466,1.00711,0.43237,0.00000,1.87594,1.89167,-0.04322,0.06673,0.42078,-0.12878,0.22239,2.06169,2.06169,A,141949.40
0.45186,57.68785317,11.98134153,57.68785450,11.98134017,15:20:26.862266,0.00756,0.00000,0.00000,-0.03430,0.02576,-0.02655,0.00296,-0.01135,-0.03447,-0.05429,1.00882,0.44532,0.00000,1.90144,1.91717,-0.04750,0.07451,0.42078,-0.12878,0.22239,2.06169,2.06169,A,141949.40
0.46414,57.68785324,11.98134147,57.68785450,11.98134017,15:20:26.874538,0.00940,0.00000,0.00000,-0.03557,0.02576,-0.02059,0.00342,-0.00952,-0.01751,-0.07296,0.99711,0.45612,0.00000,1.92312,1.93885,-0.05156,0.08191,0.42078,-0.12878,0.22239,2.06169,2.06169,A,141949.40
0.47401,57.68785330,11.98134140,57.68785450,11.98134017,15:20:26.884418,0.00895,0.00000,0.00000,-0.03655,0.02576,-0.01494,-0.00528,-0.00616,-0.02806,-0.06143,1.00077,0.46478,0.00000,1.94154,1.95727,-0.05543,0.08893,0.42078,-0.12878,0.22239,2.06169,2.06169,A,141949.40
0.48452,57.68785336,11.98134134,57.68785450,11.98134017,15:20:26.894934,0.00891,0.00000,0.00000,-0.03763,0.02576,-0.01113,-0.00208,-0.00158,-0.02233,-0.06820,0.99284,0.47631,0.00000,1.95720,1.97293,-0.05909,0.09560,0.42078,-0.12878,0.22239,2.06169,2.06169,A,141949.40
0.49377,57.68785342,11.98134128,57.68785450,11.98134017,15:20:26.904145,0.00795,0.00000,0.00000,-0.03879,0.02576,-0.00166,-0.00849,-0.00035,-0.03306,-0.08253,0.99430,0.48555,0.00000,1.97052,1.98625,-0.06258,0.10194,0.42078,-0.12878,0.22239,2.06169,2.06169,A,141949.40
0.50430,57.68785347,11.98134122,57.68785450,11.98134017,15:20:26.914704,0.00801,0.00000,0.00000,-0.03974,0.02576,-0.00349,-0.00467,-0.00112,-0.03654,-0.06875,0.99826,0.49594,0.00000,1.98183,1.99756,-0.06589,0.10797,0.42078,-0.12878,0.22239,2.06169,2.06169,A,141949.40
0.51400,57.68785352,11.98134117,57.68785450,11.98134017,15:20:26.924380,0.00730,0.00000,0.00000,-0.04065,0.02576,0.00063,0.00174,-0.00463,-0.03080,-0.06991,0.99772,0.50736,0.00000,1.99145,2.00718,-0.06903,0.11369,0.42078,-0.12878,0.22239,2.06169,2.06169,A,141949.40
0.54128,57.68785357,11.98134112,57.68785500,11.98133883,15:20:26.952381,0.02418,0.00000,0.00000,-0.04113,0.02576,-0.00273,0.00037,-0.00768,-0.05063,-0.03922,0.99704,0.51771,0.00000,1.99963,2.01536,-0.07202,0.11912,0.53737,-0.20803,0.27799,2.52983,2.52983,A,141949.50
0.55595,57.68785364,11.98134101,57.68785500,11.98133883,15:20:26.966334,0.00655,0.00000,0.00000,-0.04204,0.02576,0.00247,0.00251,-0.01578,-0.01915,-0.07668,1.00284,0.54973,0.00000,2.07680,2.09253,-0.07882,0.12707,0.53737,-0.20803,0.27799,2.52983,2.52983,A,141949.50
0.56668,57.68785371,11.98134090,57.68785500,11.98133883,15:20:26.977062,0.00580,0.00000,0.00000,-0.04254,0.02573,0.00109,0.00098,-0.01990,-0.03410,-0.04544,1.01004,0.56074,0.00000,2.14239,2.15811,-0.08528,0.13461,0.53737,-0.20803,0.27799,2.52983,2.52983,A,141949.50
0.57668,57.68785378,11.98134080,57.68785500,11.98133883,15:20:26.987061,0.00521,0.00000,0.00000,-0.04323,0.02559,0.00690,0.00861,-0.02296,0.00506,-0.06179,1.00375,0.57049,0.00000,2.19817,2.21379,-0.09142,0.14178,0.53737,-0.20803,0.27799,2.52983,2.52983,A,141949.50
0.58789,57.68785384,11.98134070,57.68785500,11.98133883,15:20:26.998280,0.00592,0.00000,0.00000,-0.04395,0.02536,0.00720,-0.00223,-0.02372,0.00037,-0.06533,0.99650,0.58172,0.00000,2.24559,2.26108,-0.09725,0.14859,0.53737,-0.20803,0.27799,2.52983,2.52983,A,141949.50
0.60098,57.68785389,11.98134060,57.68785500,11.98133883,15:20:27.011401,0.00878,0.00000,0.00000,-0.04485,0.02499,0.00369,-0.00605,-0.01440,-0.00866,-0.07466,0.98722,0.59303,0.00000,2.28594,2.30120,-0.10279,0.15506,0.53737,-0.20803,0.27799,2.52983,2.52983,A,141949.50
0.60828,57.68785395,11.98134052,57.68785500,11.98133883,15:20:27.018660,0.00552,0.00000,0.00000,-0.04555,0.02459,0.00476,-0.00620,-0.01608,-0.01921,-0.06259,0.99076,0.60207,0.00000,2.32027,2.33529,-0.10805,0.16121,0.53737,-0.20803,0.27799,2.52983,2.52983,A,141949.50
0.61874,57.68785400,11.98134043,57.68785500,11.98133883,15:20:27.029119,0.00557,0.00000,0.00000,-0.04626,0.02409,-0.00028,-0.01139,-0.01211,-0.00061,-0.06057,0.98405,0.61284,0.00000,2.34950,2.36421,-0.11305,0.16705,0.53737,-0.20803,0.27799,2.52983,2.52983,A,141949.50
0.62884,57.68785405,11.98134035,57.68785500,11.98133883,15:20:27.039223,0.00534,0.00000,0.00000,-0.04684,0.02352,0.00384,-0.01368,-0.00875,-0.01726,-0.05588,0.99076,0.62261,0.00000,2.37439,2.38876,-0.11780,0.17259,0.53737,-0.20803,0.27799,2.52983,2.52983,A,141949.50
0.66049,57.68785410,11.98134028,57.68785550,11.98133833,15:20:27.070871,0.02621,0.00000,0.00000,-0.04746,0.02293,0.00796,-0.01047,-0.01196,-0.02428,-0.06301,0.99595,0.63408,0.00000,2.39561,2.40961,-0.12231,0.17786,0.65568,-0.23775,0.33358,2.06169,2.06169,A,141949.60
0.67744,57.68785417,11.98134018,57.68785550,11.98133833,15:20:27.087829,0.01087,0.00000,0.00000,-0.04796,0.02134,-0.00303,-0.00253,-0.02005,-0.01415,-0.04282,0.99869,0.66928,0.00000,2.34356,2.35660,-0.12808,0.18565,0.65568,-0.23775,0.33358,2.06169,2.06169,A,141949.60
0.69591,57.68785424,11.98134009,57.68785550,11.98133833,15:20:27.106292,0.00925,0.00000,0.00000,-0.04847,0.02072,0.00186,-0.00376,-0.02265,-0.01068,-0.05350,1.00339,0.68918,0.00000,2.29938,2.31204,-0.13356,0.19305,0.65568,-0.23775,0.33358,2.06169,2.06169,A,141949.60
0.70586,57.68785430,11.98134000,57.68785550,11.98133833,15:20:27.116242,0.00905,0.00000,0.00000,-0.04912,0.02052,0.00155,-0.00146,-0.02570,0.00543,-0.06210,1.00717,0.69807,0.00000,2.26185,2.27438,-0.13877,0.20007,0.65568,-0.23775,0.33358,2.06169,2.06169,A,141949.60
0.71294,57.68785436,11.98133992,57.68785550,11.98133833,15:20:27.123319,0.00586,0.00000,0.00000,-0.04986,0.02041,-0.00059,-0.00360,-0.02555,-0.00268,-0.06838,1.02334,0.70672,0.00000,2.22996,2.24242,-0.14372,0.20675,0.65568,-0.23775,0.33358,2.06169,2.06169,A,141949.60
0.72294,57.68785442,11.98133984,57.68785550,11.98133833,15:20:27.134946,0.00523,0.00000,0.00000,-0.05062,0.02038,-0.00059,-0.00712,-0.02204,-0.01653,-0.07168,1.03816,0.71703,0.00000,2.20285,2.21529,-0.14842,0.21309,0.65568,-0.23775,0.33358,2.06169,2.06169,A,141949.60
0.73509,57.68785447,11.98133976,57.68785550,11.98133833,15:20:27.146414,0.00713,0.00000,0.00000,-0.05118,0.02038,0.00491,-0.00330,-0.02021,-0.04874,-0.06271,1.03163,0.72917,0.00000,2.17981,2.19225,-0.15289,0.21911,0.65568,-0.23775,0.33358,2.06169,2.06169,A,141949.60
0.74711,57.68785452,11.98133969,57.68785550,11.98133833,15:20:27.158072,0.00739,0.00000,0.00000,-0.05193,0.02038,0.00170,0.00434,-0.01517,-0.03373,-0.07088,0.99784,0.73925,0.00000,2.16022,2.17267,-0.15713,0.22484,0.65568,-0.23775,0.33358,2.06169,2.06169,A,141949.60
0.77565,57.68785457,11.98133962,57.68785633,11.98133717,15:20:27.186036,0.02554,0.00000,0.00000,-0.05247,0.02038,0.00842,0.00877,-0.01318,-0.01354,-0.06088,0.96947,0.74935,0.00000,2.14357,2.15602,-0.16116,0.23028,0.77224,-0.30709,0.42625,2.21324,2.21324,A,141949.70
0.78981,57.68785466,11.98133950,57.68785633,11.98133717,15:20:27.200189,0.00788,0.00000,0.00000,-0.05258,0.02038,0.01514,0.00907,-0.01242,-0.01708,-0.06100,0.97600,0.78351,0.00000,2.15216,2.16460,-0.16846,0.24007,0.77224,-0.30709,0.42625,2.21324,2.21324,A,141949.70
0.79998,57.68785474,11.98133938,57.68785633,11.98133717,15:20:27.210361,0.00795,0.00000,0.00000,-0.05320,0.02038,0.01636,0.00190,-0.01166,-0.00616,-0.07009,0.98332,0.79150,0.00000,2.15945,2.17190,-0.17539,0.24938,0.77224,-0.30709,0.42625,2.21324,2.21324,A,141949.70
0.81073,57.68785482,11.98133927,57.68785633,11.98133717,15:20:27.221106,0.00791,0.00000,0.00000,-0.05345,0.02038,0.01423,0.00006,-0.01395,0.02251,-0.04947,0.99997,0.80265,0.00000,2.16565,2.17810,-0.18198,0.25823,0.77224,-0.30709,0.42625,2.21324,2.21324,A,141949.70
0.82033,57.68785490,11.98133917,57.68785633,11.98133717,15:20:27.230710,0.00711,0.00000,0.00000,-0.05378,0.02038,0.01774,-0.01139,-0.01532,0.03013,-0.05880,1.01833,0.81398,0.00000,2.17092,2.18337,-0.18823,0.26663,0.77224,-0.30709,0.42625,2.21324,2.21324,A,141949.70
0.83075,57.68785497,11.98133907,57.68785633,11.98133717,15:20:27.241128,0.00708,0.00000,0.00000,-0.05396,0.02038,0.01652,-0.02010,-0.01364,-0.00775,-0.04746,1.02913,0.82479,0.00000,2.17540,2.18785,-0.19418,0.27461,0.77224,-0.30709,0.42625,2.21324,2.21324,A,141949.70
0.84370,57.68785504,11.98133897,57.68785633,11.98133717,15:20:27.254423,0.00962,0.00000,0.00000,-0.05416,0.02038,0.02629,-0.02055,-0.01288,-0.03038,-0.05533,1.02754,0.83516,0.00000,2.17921,2.19166,-0.19982,0.28219,0.77224,-0.30709,0.42625,2.21324,2.21324,A,141949.70
0.85406,57.68785510,11.98133888,57.68785633,11.98133717,15:20:27.264441,0.00905,0.00000,0.00000,-0.05452,0.02038,0.02996,-0.01475,-0.01150,-0.05337,-0.07076,1.02449,0.84631,0.00000,2.18245,2.19489,-0.20519,0.28939,0.77224,-0.30709,0.42625,2.21324,2.21324,A,141949.70
0.86569,57.68785516,11.98133880,57.68785633,11.98133717,15:20:27.276098,0.00885,0.00000,0.00000,-0.05469,0.02038,0.03194,-0.00498,-0.00738,-0.02416,-0.06063,1.01114,0.85806,0.00000,2.18520,2.19765,-0.21028,0.29624,0.77224,-0.30709,0.42625,2.21324,2.21324,A,141949.70
0.91693,57.68785522,11.98133871,57.68785667,11.98133683,15:20:27.327336,0.04987,0.00000,0.00000,-0.05488,0.02038,0.02996,-0.00101,-0.00158,-0.00024,-0.05392,0.96874,0.86815,0.00000,2.18754,2.19998,-0.21512,0.30274,0.91105,-0.32690,0.46331,2.06169,2.06169,A,141949.90
0.93458,57.68785529,11.98133862,57.68785667,11.98133683,15:20:27.344962,0.00965,0.00000,0.00000,-0.05335,0.02038,0.03194,-0.00635,-0.01074,0.00854,-0.04349,1.03450,0.92550,0.00000,2.16679,2.17924,-0.22071,0.31076,0.91105,-0.32690,0.46331,2.06169,2.06169,A,141949.90
0.94277,57.68785536,11.98133853,57.68785667,11.98133683,15:20:27.353154,0.00704,0.00000,0.00000,-0.05343,0.02038,0.02980,-0.00192,-0.00967,-0.02184,-0.05087,1.03499,0.93644,0.00000,2.14916,2.16161,-0.22602,0.31839,0.91105,-0.32690,0.46331,2.06169,2.06169,A,141949.90
0.95211,57.68785543,11.98133845,57.68785667,11.98133683,15:20:27.362493,0.00598,0.00000,0.00000,-0.05356,0.02038,0.02614,-0.00070,-0.01166,-0.03959,-0.04788,1.02803,0.94537,0.00000,2.13417,2.14662,-0.23106,0.32564,0.91105,-0.32690,0.46331,2.06169,2.06169,A,141949.90
0.96437,57.68785549,11.98133837,57.68785667,11.98133683,15:20:27.374744,0.00748,0.00000,0.00000,-0.05381,0.02038,0.02934,0.00770,-0.01440,-0.03093,-0.05996,0.99631,0.95657,0.00000,2.12143,2.13388,-0.23586,0.33252,0.91105,-0.32690,0.46331,2.06169,2.06169,A,141949.90
0.97654,57.68785555,11.98133829,57.68785667,11.98133683,15:20:27.386927,0.00790,0.00000,0.00000,-0.05400,0.02043,0.02537,0.00693,-0.00936,-0.00201,-0.05368,0.96844,0.96835,0.00000,2.11060,2.12308,-0.24041,0.33906,0.91105,-0.32690,0.46331,2.06169,2.06169,A,141949.90
0.98827,57.68785561,11.98133822,57.68785667,11.98133683,15:20:27.399092,0.00923,0.00000,0.00000,-0.05418,0.02069,0.03011,0.00312,-0.00417,0.03184,-0.05673,0.96478,0.98053,0.00000,2.10137,2.11400,-0.24473,0.34527,0.91105,-0.32690,0.46331,2.06169,2.06169,A,141949.90
0.99691,57.68785566,11.98133815,57.68785667,11.98133683,15:20:27.407488,0.00728,0.00000,0.00000,-0.05488,0.02100,0.02797,-0.00834,-0.00310,0.02092,-0.08522,0.97313,0.99023,0.00000,2.09349,2.10632,-0.24884,0.35118,0.91105,-0.32690,0.46331,2.06169,2.06169,A,141949.90
1.00819,57.68785571,11.98133808,57.68785667,11.98133683,15:20:27.418575,0.00792,0.00000,0.00000,-0.05499,0.02157,0.02492,-0.01109,0.00514,-0.05710,-0.04843,1.01278,1.00035,0.00000,2.08674,2.09992,-0.25275,0.35678,0.91105,-0.32690,0.46331,2.06169,2.06169,A,141949.90
1.04002,57.68785576,11.98133802,57.68785767,11.98133617,15:20:27.450435,0.02950,0.00000,0.00000,-0.05514,0.02208,0.02629,0.00083,0.00606,-0.05472,-0.05191,1.03011,1.00982,0.00000,2.08096,2.09445,-0.25645,0.36211,1.03436,-0.36653,0.57451,1.91312,1.91312,A,141950.00
1.05416,57.68785585,11.98133793,57.68785767,11.98133617,15:20:27.464537,0.00777,0.00000,0.00000,-0.05445,0.02343,0.01652,-0.00421,0.00178,0.00482,-0.01958,1.00406,1.04822,0.00000,2.05364,2.06795,-0.26196,0.37273,1.03436,-0.36653,0.57451,1.91312,1.91312,A,141950.00
1.06483,57.68785594,11.98133784,57.68785767,11.98133617,15:20:27.475214,0.00741,0.00000,0.00000,-0.05436,0.02363,0.01224,-0.00650,-0.00020,-0.00085,-0.02403,0.99259,1.05720,0.00000,2.03040,2.04483,-0.26719,0.38282,1.03436,-0.36653,0.57451,1.91312,1.91312,A,141950.00
1.07704,57.68785603,11.98133775,57.68785767,11.98133617,15:20:27.487421,0.00934,0.00000,0.00000,-0.05443,0.02386,0.00873,-0.01170,-0.00020,-0.02013,-0.03385,0.97978,1.06881,0.00000,2.01062,2.02519,-0.27215,0.39240,1.03436,-0.36653,0.57451,1.91312,1.91312,A,141950.00
1.08786,57.68785611,11.98133768,57.68785767,11.98133617,15:20:27.498243,0.00991,0.00000,0.00000,-0.05459,0.02409,0.00659,-0.01414,-0.00677,-0.03227,-0.03770,0.97386,1.07929,0.00000,1.99379,2.00850,-0.27687,0.40151,1.03436,-0.36653,0.57451,1.91312,1.91312,A,141950.00
1.09813,57.68785619,11.98133760,57.68785767,11.98133617,15:20:27.508509,0.00935,0.00000,0.00000,-0.05487,0.02428,0.00842,-0.01475,-0.00539,-0.00476,-0.04642,0.97039,1.09006,0.00000,1.97946,1.99430,-0.28135,0.41016,1.03436,-0.36653,0.57451,1.91312,1.91312,A,141950.00
1.10749,57.68785626,11.98133753,57.68785767,11.98133617,15:20:27.517882,0.00847,0.00000,0.00000,-0.05551,0.02448,0.00262,-0.01582,-0.00585,-0.01171,-0.06734,0.98320,1.10057,0.00000,1.96727,1.98222,-0.28561,0.41838,1.03436,-0.36653,0.57451,1.91312,1.91312,A,141950.00
1.11697,57.68785633,11.98133746,57.68785767,11.98133617,15:20:27.527379,0.00720,0.00000,0.00000,-0.05587,0.02462,-0.00502,-0.00681,-0.01013,-0.06155,-0.04514,0.99784,1.10947,0.00000,1.95689,1.97193,-0.28966,0.42618,1.03436,-0.36653,0.57451,1.91312,1.91312,A,141950.00
1.12745,57.68785640,11.98133740,57.68785767,11.98133617,15:20:27.537841,0.00743,0.00000,0.00000,-0.05634,0.02485,-0.01021,0.00755,-0.00692,-0.03837,-0.05014,1.02297,1.12073,0.00000,1.94805,1.96323,-0.29350,0.43360,1.03436,-0.36653,0.57451,1.91312,1.91312,A,141950.00
1.16146,57.68785646,11.98133733,57.68785833,11.98133583,15:20:27.571908,0.02928,0.00000,0.00000,-0.05661,0.02502,-0.00883,0.00770,-0.00448,0.02324,-0.03715,1.01089,1.13128,0.00000,1.94052,1.95580,-0.29715,0.44064,1.15465,-0.38634,0.64864,1.83196,1.83196,A,141950.10
1.18769,57.68785656,11.98133726,57.68785833,11.98133583,15:20:27.598076,0.01122,0.78314,0.78314,-0.05754,0.02539,-0.01006,-0.01338,-0.00096,-0.05039,-0.05520,1.00357,1.17891,0.15663,1.92191,1.93741,-0.30161,0.45104,1.15465,-0.38634,0.64864,1.83196,1.83196,A,141950.10
1.21162,57.68785667,11.98133717,57.68785833,11.98133583,15:20:27.622006,0.01046,0.78314,0.78314,-0.05815,0.02542,-0.01158,-0.00635,0.00316,-0.04923,-0.04575,0.97350,1.20355,0.28193,1.90615,1.92167,-0.30694,0.46376,1.15465,-0.38634,0.64864,1.83196,1.83196,A,141950.10
1.22944,57.68785679,11.98133708,57.68785833,11.98133583,15:20:27.639814,0.00846,0.78314,0.78314,-0.05900,0.02542,-0.02105,-0.00284,-0.00173,-0.00598,-0.05270,0.95447,1.22323,0.38217,1.89278,1.90830,-0.31238,0.47703,1.15465,-0.38634,0.64864,1.83196,1.83196,A,141950.10
1.23839,57.68785689,11.98133700,57.68785833,11.98133583,15:20:27.648767,0.00720,0.78314,0.78314,-0.05982,0.02542,-0.02716,-0.01246,-0.00158,0.02495,-0.06161,0.94947,1.23207,0.46236,1.88138,1.89691,-0.31694,0.48805,1.15465,-0.38634,0.64864,1.83196,1.83196,A,141950.10
1.24696,57.68785698,11.98133693,57.68785833,11.98133583,15:20:27.657341,0.00557,0.78314,0.78314,-0.06026,0.02542,-0.03434,-0.01719,-0.00142,-0.00543,-0.03599,0.96410,1.24057,0.52652,1.87170,1.88722,-0.32129,0.49870,1.15465,-0.38634,0.64864,1.83196,1.83196,A,141950.10
1.28179,57.68785709,11.98133685,57.68785867,11.98133617,15:20:27.692172,0.03016,0.78314,0.78314,-0.06073,0.02542,-0.03388,-0.01903,-0.00830,-0.04362,-0.03276,0.98460,1.25234,0.57784,1.86351,1.87903,-0.32602,0.51071,1.27626,-0.36653,0.68570,1.07991,1.07991,A,141950.20
1.30532,57.68785737,11.98133670,57.68785867,11.98133617,15:20:27.715698,0.01073,0.78314,0.78314,-0.06280,0.02542,-0.04808,0.00739,-0.00585,0.01080,-0.02544,1.00571,1.29706,0.61890,1.74412,1.75965,-0.33510,0.54162,1.27626,-0.36653,0.68570,1.07991,1.07991,A,141950.20
1.32160,57.68785749,11.98133665,57.68785867,11.98133617,15:20:27.731981,0.00916,0.78314,0.78314,-0.06360,0.02542,-0.05175,0.00892,-0.00646,-0.05929,-0.03141,0.99284,1.31221,0.65175,1.64230,1.65782,-0.33789,0.55520,1.27626,-0.36653,0.68570,1.07991,1.07991,A,141950.20
1.33202,57.68785759,11.98133662,57.68785867,11.98133617,15:20:27.742401,0.00951,0.78314,0.78314,-0.06445,0.02542,-0.05098,0.01930,-0.00753,-0.03562,-0.04874,0.97935,1.32366,0.67802,1.55569,1.57121,-0.33967,0.56567,1.27626,-0.36653,0.68570,1.07991,1.07991,A,141950.20
1.34190,57.68785768,11.98133660,57.68785867,11.98133617,15:20:27.752288,0.00897,0.78314,0.78314,-0.06542,0.02542,-0.05450,0.01885,-0.00860,-0.01287,-0.05685,0.95855,1.33414,0.69905,1.48208,1.49760,-0.34101,0.57572,1.27626,-0.36653,0.68570,1.07991,1.07991,A,141950.20
1.35036,57.68785776,11.98133658,57.68785867,11.98133617,15:20:27.760787,0.00721,0.78314,0.78314,-0.06621,0.02542,-0.05816,0.02343,-0.01150,0.01921,-0.04965,0.94770,1.34275,0.71586,1.41949,1.43502,-0.34205,0.58453,1.27626,-0.36653,0.68570,1.07991,1.07991,A,141950.20
1.36041,57.68785786,11.98133657,57.68785867,11.98133617,15:20:27.770793,0.00681,0.78314,0.78314,-0.06740,0.02542,-0.06488,0.02160,-0.00631,-0.01586,-0.06326,0.98051,1.35418,0.72932,1.36636,1.38188,-0.34241,0.59587,1.27626,-0.36653,0.68570,1.07991,1.07991,A,141950.20
1.37119,57.68785795,11.98133657,57.68785867,11.98133617,15:20:27.781789,0.00706,0.78314,0.78314,-0.06826,0.02542,-0.06305,0.01793,-0.00494,-0.01781,-0.04843,1.00796,1.36482,0.74008,1.32119,1.33671,-0.34251,0.60617,1.27626,-0.36653,0.68570,1.07991,1.07991,A,141950.20
1.39858,57.68785804,11.98133658,57.68785933,11.98133583,15:20:27.808955,0.02405,0.78314,0.78314,-0.06918,0.02542,-0.06458,0.01656,-0.00371,-0.04307,-0.05447,1.04871,1.37557,0.74869,1.28280,1.29832,-0.34222,0.61639,1.39407,-0.38634,0.75983,1.83196,1.83196,A,141950.30
1.41327,57.68785829,11.98133663,57.68785933,11.98133583,15:20:27.823643,0.00830,0.78314,0.78314,-0.07171,0.02542,-0.06931,0.00632,0.00575,-0.00842,-0.06393,1.02639,1.40706,0.75558,1.36328,1.37880,-0.33879,0.64375,1.39407,-0.38634,0.75983,1.83196,1.83196,A,141950.30
1.42461,57.68785839,11.98133661,57.68785933,11.98133583,15:20:27.834987,0.00790,0.78314,0.78314,-0.07243,0.02542,-0.07634,0.00693,0.00270,-0.07216,-0.04178,1.03529,1.41643,0.76109,1.43136,1.44688,-0.34017,0.65468,1.39407,-0.38634,0.75983,1.83196,1.83196,A,141950.30
1.43617,57.68785848,11.98133658,57.68785933,11.98133583,15:20:27.846592,0.00906,0.78314,0.78314,-0.07339,0.02542,-0.07634,0.00907,0.00117,-0.06387,-0.04618,1.03974,1.42820,0.76550,1.48924,1.50476,-0.34178,0.66550,1.39407,-0.38634,0.75983,1.83196,1.83196,A,141950.30
1.44242,57.68785857,11.98133655,57.68785933,11.98133583,15:20:27.852795,0.00508,0.78314,0.78314,-0.07442,0.02542,-0.07191,0.01488,-0.00662,0.02318,-0.07082,1.00064,1.43652,0.76903,1.53841,1.55393,-0.34372,0.67457,1.39407,-0.38634,0.75983,1.83196,1.83196,A,141950.30
1.45339,57.68785866,11.98133652,57.68785933,11.98133583,15:20:27.863767,0.00570,0.78314,0.78314,-0.07526,0.02542,-0.07023,0.00037,-0.01135,0.04599,-0.05020,0.98064,1.44670,0.77185,1.58024,1.59576,-0.34575,0.68495,1.39407,-0.38634,0.75983,1.83196,1.83196,A,141950.30
1.46502,57.68785876,11.98133648,57.68785933,11.98133583,15:20:27.875396,0.00693,0.78314,0.78314,-0.07683,0.02542,-0.06763,-0.01903,-0.01242,0.00311,-0.09418,1.00699,1.45880,0.77411,1.61581,1.63134,-0.34796,0.69569,1.39407,-0.38634,0.75983,1.83196,1.83196,A,141950.30
1.47660,57.68785884,11.98133644,57.68785933,11.98133583,15:20:27.886980,0.00810,0.78314,0.78314,-0.07770,0.02542,-0.05999,-0.02254,-0.01410,-0.07540,-0.06344,1.00400,1.46885,0.77591,1.64603,1.66155,-0.35023,0.70472,1.39407,-0.38634,0.75983,1.83196,1.83196,A,141950.30
1.48659,57.68785890,11.98133640,57.68785933,11.98133583,15:20:27.897360,0.00769,0.78314,0.78314,-0.07921,0.02547,-0.04625,-0.01093,-0.00799,-0.12334,-0.11822,1.00180,1.47811,0.77736,1.67168,1.68724,-0.35244,0.71194,1.39407,-0.38634,0.75983,1.83196,1.83196,A,141950.30
1.52843,57.68785897,11.98133636,57.68786067,11.98133250,15:20:27.938813,0.03913,0.78314,0.78314,-0.08049,0.02576,-0.04274,0.00984,-0.00616,-0.04496,-0.09815,0.98765,1.48996,0.77851,1.69348,1.70921,-0.35478,0.71985,1.52268,-0.58447,0.90809,2.49917,2.49917,A,141950.50
1.54102,57.68785934,11.98133610,57.68786067,11.98133250,15:20:27.951396,0.00539,0.78314,0.78314,-0.08121,0.02941,-0.00822,-0.02132,0.00988,-0.03672,-0.07357,1.02730,1.53477,0.77944,1.81230,1.83026,-0.37062,0.76050,1.52268,-0.58447,0.90809,2.49917,2.49917,A,141950.50
1.55331,57.68785947,11.98133589,57.68786067,11.98133250,15:20:27.963685,0.00586,0.78314,0.78314,-0.08165,0.02989,0.00094,-0.02025,0.00667,-0.02580,-0.07991,1.01205,1.54659,0.78018,1.91276,1.93102,-0.38315,0.77481,1.52268,-0.58447,0.90809,2.49917,2.49917,A,141950.50
1.56485,57.68785959,11.98133568,57.68786067,11.98133250,15:20:27.975228,0.00700,0.78314,0.78314,-0.08221,0.02997,0.00751,-0.01781,-0.00341,0.01232,-0.09254,1.00766,1.55851,0.78077,1.99815,2.01645,-0.39566,0.78796,1.52268,-0.58447,0.90809,2.49917,2.49917,A,141950.50
1.57562,57.68785968,11.98133548,57.68786067,11.98133250,15:20:27.986017,0.00754,0.78314,0.78314,-0.08262,0.02997,0.00903,-0.01704,-0.00081,0.02062,-0.08064,0.98259,1.56717,0.78124,2.07067,2.08898,-0.40716,0.79829,1.52268,-0.58447,0.90809,2.49917,2.49917,A,141950.50
1.58486,57.68785977,11.98133529,57.68786067,11.98133250,15:20:27.995241,0.00644,0.78314,0.78314,-0.08293,0.02997,0.01178,-0.02162,-0.00341,-0.05362,-0.07838,0.98911,1.57784,0.78162,2.13232,2.15063,-0.41844,0.80802,1.52268,-0.58447,0.90809,2.49917,2.49917,A,141950.50
1.59506,57.68785985,11.98133510,57.68786067,11.98133250,15:20:28.006920,0.00639,0.78314,0.78314,-0.08312,0.02997,0.01881,-0.01307,-0.00463,-0.08357,-0.07619,1.00558,1.58814,0.78192,2.18474,2.20304,-0.42976,0.81762,1.52268,-0.58447,0.90809,2.49917,2.49917,A,141950.50
1.60855,57.68785995,11.98133489,57.68786067,11.98133250,15:20:28.018930,0.00897,0.78314,0.78314,-0.08345,0.02997,0.02156,-0.01002,-0.00158,0.02745,-0.08973,0.97691,1.60181,0.78217,2.22935,2.24766,-0.44229,0.82870,1.52268,-0.58447,0.90809,2.49917,2.49917,A,141950.50
1.61851,57.68786003,11.98133471,57.68786067,11.98133250,15:20:28.028881,0.00756,0.78314,0.78314,-0.08364,0.02997,0.02690,-0.02468,-0.00035,0.03947,-0.08180,0.99955,1.61221,0.78236,2.26723,2.28553,-0.45318,0.83737,1.52268,-0.58447,0.90809,2.49917,2.49917,A,141950.50
1.65272,57.68786011,11.98133453,57.68786150,11.98133200,15:20:28.063102,0.03065,0.78314,0.78314,-0.08387,0.02997,0.02690,-0.03827,0.00423,-0.03605,-0.08943,1.04261,1.62314,0.78252,2.29943,2.31774,-0.46403,0.84584,1.64825,-0.61418,1.00075,1.88115,1.88115,A,141950.60
1.67487,57.68786038,11.98133405,57.68786150,11.98133200,15:20:28.085285,0.00973,0.78314,0.78314,-0.08300,0.02997,0.03179,-0.00009,-0.01150,0.04703,-0.08381,0.99412,1.66687,0.78264,2.23470,2.25300,-0.49241,0.87613,1.64825,-0.61418,1.00075,1.88115,1.88115,A,141950.60
1.68562,57.68786048,11.98133388,57.68786150,11.98133200,15:20:28.095996,0.00922,0.78314,0.78314,-0.08283,0.02997,0.03011,-0.01109,-0.01318,-0.00159,-0.05740,0.95739,1.67745,0.78274,2.17907,2.19737,-0.50228,0.88702,1.64825,-0.61418,1.00075,1.88115,1.88115,A,141950.60
1.69431,57.68786056,11.98133374,57.68786150,11.98133200,15:20:28.104711,0.00779,0.78314,0.78314,-0.08281,0.02997,0.03179,-0.01842,-0.01517,-0.04148,-0.06307,0.93647,1.68622,0.78282,2.13175,2.15006,-0.51069,0.89659,1.64825,-0.61418,1.00075,1.88115,1.88115,A,141950.60
1.70547,57.68786065,11.98133360,57.68786150,11.98133200,15:20:28.115851,0.00778,0.78314,0.78314,-0.08235,0.02997,0.02660,-0.01781,-0.01700,-0.09113,-0.03776,0.98613,1.69727,0.78288,2.09156,2.10987,-0.51908,0.90671,1.64825,-0.61418,1.00075,1.88115,1.88115,A,141950.60
1.71744,57.68786075,11.98133346,57.68786150,11.98133200,15:20:28.127825,0.00823,0.78314,0.78314,-0.08286,0.02997,0.02629,-0.00605,-0.01944,-0.00891,-0.10169,0.96917,1.70920,0.78293,2.05742,2.07573,-0.52744,0.91745,1.64825,-0.61418,1.00075,1.88115,1.88115,A,141950.60
1.72712,57.68786082,11.98133335,57.68786150,11.98133200,15:20:28.137754,0.00719,0.78314,0.78314,-0.08309,0.02997,0.01743,-0.00956,-0.02021,0.03880,-0.07381,0.95837,1.71939,0.78297,2.02835,2.04665,-0.53396,0.92557,1.64825,-0.61418,1.00075,1.88115,1.88115,A,141950.60
1.73920,57.68786091,11.98133323,57.68786150,11.98133200,15:20:28.149806,0.00853,0.78314,0.78314,-0.08349,0.02997,0.01178,-0.02162,-0.01731,0.01025,-0.08326,0.96124,1.73130,0.78301,2.00367,2.02198,-0.54081,0.93483,1.64825,-0.61418,1.00075,1.88115,1.88115,A,141950.60
1.74644,57.68786098,11.98133314,57.68786150,11.98133200,15:20:28.156809,0.00556,0.78314,0.78314,-0.08329,0.02997,0.01468,-0.01597,-0.02112,-0.04563,-0.04471,0.97637,1.74052,0.78303,1.98267,2.00098,-0.54667,0.94265,1.64825,-0.61418,1.00075,1.88115,1.88115,A,141950.60
1.77394,57.68786105,11.98133304,57.68786200,11.98133150,15:20:28.184321,0.02243,0.78314,0.78314,-0.08328,0.02986,0.01942,-0.00635,-0.01792,-0.06692,-0.06271,1.00138,1.75053,0.78305,1.96486,1.98310,-0.55259,0.95110,1.77058,-0.64390,1.05635,2.06169,2.06169,A,141950.70
1.78914,57.68786127,11.98133282,57.68786200,11.98133150,15:20:28.199553,0.00879,0.78314,0.78314,-0.08288,0.02822,0.01545,-0.02040,-0.02051,0.07851,-0.05466,1.02401,1.77946,0.78307,1.97728,1.99452,-0.56516,0.97466,1.77058,-0.64390,1.05635,2.06169,2.06169,A,141950.70
1.80067,57.68786136,11.98133271,57.68786200,11.98133150,15:20:28.211049,0.01019,0.78314,0.78314,-0.08244,0.02731,0.01041,-0.03613,-0.01883,-0.03538,-0.03117,1.03920,1.79229,0.78308,1.98760,2.00428,-0.57191,0.98498,1.77058,-0.64390,1.05635,2.06169,2.06169,A,141950.70
1.81716,57.68786146,11.98133259,57.68786200,11.98133150,15:20:28.227546,0.00872,1.17059,1.17059,-0.08250,0.02593,0.01804,-0.02040,-0.01731,-0.09516,-0.07302,1.03322,1.80758,0.86058,1.99653,2.01237,-0.57917,0.99645,1.77058,-0.64390,1.05635,2.06169,2.06169,A,141950.70
1.82757,57.68786154,11.98133249,57.68786200,11.98133150,15:20:28.237956,0.00891,1.17059,1.17059,-0.08273,0.02530,0.02079,-0.00452,-0.01807,-0.00293,-0.08229,0.99656,1.82128,0.92259,2.00413,2.01959,-0.58532,1.00562,1.77058,-0.64390,1.05635,2.06169,2.06169,A,141950.70
1.83805,57.68786161,11.98133239,57.68786200,11.98133150,15:20:28.248468,0.00920,1.17059,1.17059,-0.08217,0.02505,0.01316,-0.01277,-0.01471,0.02263,-0.01836,0.98985,1.82988,0.97219,2.01059,2.02589,-0.59081,1.01348,1.77058,-0.64390,1.05635,2.06169,2.06169,A,141950.70
1.84817,57.68786169,11.98133230,57.68786200,11.98133150,15:20:28.258586,0.00917,1.17059,1.17059,-0.08235,0.02496,0.02247,-0.01307,-0.01563,0.03074,-0.07241,0.96502,1.84024,1.01187,2.01612,2.03136,-0.59661,1.02205,1.77058,-0.64390,1.05635,2.06169,2.06169,A,141950.70
1.85863,57.68786177,11.98133220,57.68786200,11.98133150,15:20:28.269018,0.00926,1.17059,1.17059,-0.08276,0.02496,0.02568,-0.02682,-0.01868,-0.00982,-0.09284,0.99155,1.85049,1.04361,2.02082,2.03607,-0.60241,1.03069,1.77058,-0.64390,1.05635,2.06169,2.06169,A,141950.70
1.86915,57.68786184,11.98133211,57.68786200,11.98133150,15:20:28.279760,0.00901,1.17059,1.17059,-0.08349,0.02496,0.02644,-0.01842,-0.01990,-0.04715,-0.11297,0.97734,1.86110,1.06901,2.02481,2.04005,-0.60759,1.03816,1.77058,-0.64390,1.05635,2.06169,2.06169,A,141950.70
1.91902,57.68786197,11.98133196,57.68786333,11.98132933,15:20:28.329397,0.04830,9.71120,1.17059,-0.08317,0.02496,0.02889,-0.01032,-0.01975,-0.02007,-0.06039,0.96758,1.87914,1.08933,2.02838,2.04363,-0.61670,1.05345,1.91576,-0.77268,1.20461,2.28600,2.28600,A,141950.90
1.93389,57.68786241,11.98133147,57.68786333,11.98132933,15:20:28.344270,0.00975,9.71120,1.17059,-0.08145,0.02496,0.02690,-0.00635,-0.00509,-0.06722,-0.02153,1.04286,1.92771,1.10558,2.06567,2.08092,-0.64542,1.10191,1.91576,-0.77268,1.20461,2.28600,2.28600,A,141950.90
1.95442,57.68786259,11.98133123,57.68786333,11.98132933,15:20:28.364802,0.01966,9.71120,1.17059,-0.08097,0.02496,0.01193,-0.00177,-0.01303,0.02556,-0.03093,1.04639,1.94624,1.11858,2.09679,2.11203,-0.66024,1.12215,1.91576,-0.77268,1.20461,2.28600,2.28600,A,141950.90
1.99195,57.68786290,11.98133082,57.68786333,11.98132933,15:20:28.402361,0.02011,9.71120,1.17059,-0.08074,0.02496,0.02492,-0.00376,-0.02433,0.03636,-0.08607,0.93354,1.98328,1.12899,2.12361,2.13886,-0.68421,1.15680,1.91576,-0.77268,1.20461,2.28600,2.28600,A,141950.90
2.03803,57.68786310,11.98133054,57.68786417,11.98132867,15:20:28.448407,0.03693,9.71120,1.17059,-0.08071,0.02496,0.01575,-0.03491,-0.02189,0.01897,-0.06576,0.93257,2.00851,1.13731,2.14614,2.16139,-0.70088,1.17838,2.03351,-0.81231,1.29727,1.97489,1.97489,A,141951.00
2.07056,57.68786348,11.98133004,57.68786417,11.98132867,15:20:28.481656,0.02046,9.71120,1.17059,-0.07943,0.02496,0.02064,0.00144,-0.00707,0.01336,-0.02440,1.11215,2.05322,1.14396,2.11907,2.13431,-0.73096,1.22088,2.03351,-0.81231,1.29727,1.97489,1.97489,A,141951.00
2.09485,57.68786372,11.98132972,57.68786417,11.98132867,15:20:28.505241,0.01697,9.71120,1.17059,-0.07866,0.02496,0.03484,-0.03308,-0.00906,0.01781,-0.06002,0.99704,2.08212,1.14929,2.09570,2.11095,-0.74946,1.24754,2.03351,-0.81231,1.29727,1.97489,1.97489,A,141951.00
2.11717,57.68786391,11.98132948,57.68786417,11.98132867,15:20:28.527568,0.01594,9.71120,1.17059,-0.07821,0.02496,0.03118,-0.03751,-0.01242,-0.03239,-0.05917,0.93812,2.10585,1.15355,2.07574,2.09099,-0.76382,1.26873,2.03351,-0.81231,1.29727,1.97489,1.97489,A,141951.00
2.16429,57.68786410,11.98132926,57.68786517,11.98132800,15:20:28.574712,0.04023,9.71120,1.17059,-0.07767,0.02496,0.03912,-0.01735,-0.01333,-0.07222,-0.06576,1.00449,2.12822,1.15696,2.05878,2.07403,-0.77730,1.28947,2.15115,-0.85193,1.40847,1.91312,1.91312,A,141951.10
2.19688,57.68786456,11.98132877,57.68786517,11.98132800,15:20:28.607287,0.02324,9.71120,1.17059,-0.07569,0.02496,0.04599,-0.01979,-0.00127,-0.00012,-0.06442,1.05682,2.17761,1.15969,2.03571,2.05096,-0.80626,1.34123,2.15115,-0.85193,1.40847,1.91312,1.91312,A,141951.10
2.23352,57.68786493,11.98132840,57.68786517,11.98132800,15:20:28.643910,0.02301,9.71120,1.17059,-0.07409,0.02522,0.04049,0.00800,0.00087,-0.01708,-0.04319,0.95343,2.21915,1.16187,2.01588,2.03128,-0.82825,1.38244,2.15115,-0.85193,1.40847,1.91312,1.91312,A,141951.10
2.29545,57.68786523,11.98132811,57.68786617,11.98132717,15:20:28.706156,0.04855,9.71120,1.17059,-0.07325,0.02774,0.03301,-0.04163,0.00682,0.04325,-0.05789,0.92744,2.25546,1.16361,1.99867,2.01561,-0.84536,1.41585,2.27849,-0.90146,1.51966,1.98985,1.98985,A,141951.20
2.32921,57.68786578,11.98132762,57.68786617,11.98132717,15:20:28.740298,0.01848,9.71120,1.17059,-0.07284,0.02997,0.00919,-0.04407,0.01385,0.04892,-0.04288,0.93104,2.31438,1.16501,1.99598,2.01429,-0.87448,1.47624,2.27849,-0.90146,1.51966,1.98985,1.98985,A,141951.20
2.37360,57.68786612,11.98132731,57.68786617,11.98132717,15:20:28.784501,0.02835,9.71120,1.17059,-0.07287,0.03000,-0.00089,-0.03170,0.00010,-0.04185,-0.03880,1.01382,2.35380,1.16613,1.99330,2.01163,-0.89312,1.51481,2.27849,-0.90146,1.51966,1.98985,1.98985,A,141951.20
2.45515,57.68786648,11.98132699,57.68786833,11.98132467,15:20:28.867124,0.06224,9.71120,1.17059,-0.07391,0.03000,-0.02976,-0.00437,-0.00936,-0.04026,-0.02532,1.06616,2.39656,1.16702,1.99111,2.00944,-0.91223,1.55467,2.44277,-1.05006,1.76059,2.12345,2.12345,A,141951.40
2.48577,57.68786720,11.98132632,57.68786833,11.98132467,15:20:28.896650,0.01806,1.33689,1.33689,-0.07847,0.03000,-0.05999,0.01228,-0.01868,-0.06637,-0.05417,1.01608,2.46996,1.20099,2.01010,2.02843,-0.95181,1.63465,2.44277,-1.05006,1.76059,2.12345,2.12345,A,141951.40
2.50967,57.68786749,11.98132603,57.68786833,11.98132467,15:20:28.920060,0.01366,1.33689,1.33689,-0.08008,0.02836,-0.06748,0.00571,-0.03899,-0.04685,-0.02635,1.09556,2.49846,1.22817,2.02520,2.04252,-0.96928,1.66645,2.44277,-1.05006,1.76059,2.12345,2.12345,A,141951.40
2.53820,57.68786774,11.98132576,57.68786833,11.98132467,15:20:28.948893,0.01671,1.33689,1.33689,-0.08110,0.02307,-0.05160,0.00709,-0.04098,0.00641,-0.02678,1.04603,2.52456,1.24992,2.03844,2.05252,-0.98528,1.69460,2.44277,-1.05006,1.76059,2.12345,2.12345,A,141951.40
2.58195,57.68786798,11.98132550,57.68786917,11.98132350,15:20:28.992349,0.03355,1.33689,1.33689,-0.08416,0.01910,-0.02960,0.00663,-0.03334,-0.00409,-0.19081,0.94074,2.55060,1.26731,2.04993,2.06160,-1.00061,1.72102,2.57406,-1.11940,1.85325,2.21324,2.21324,A,141951.50
2.61252,57.68786846,11.98132498,57.68786917,11.98132350,15:20:29.022930,0.01536,1.33689,1.33689,-0.08501,0.01735,-0.00013,0.02664,-0.03013,0.05520,-0.10486,0.98338,2.59765,1.28123,2.07367,2.08426,-1.03156,1.77444,2.57406,-1.11940,1.85325,2.21324,2.21324,A,141951.50
2.64590,57.68786876,11.98132462,57.68786917,11.98132350,15:20:29.056847,0.01789,1.33689,1.33689,-0.08429,0.01735,0.01468,-0.01903,-0.02601,-0.10364,-0.03520,1.03425,2.62956,1.29236,2.09350,2.10409,-1.05270,1.80808,2.57406,-1.11940,1.85325,2.21324,2.21324,A,141951.50
2.67791,57.68786907,11.98132424,57.68786917,11.98132350,15:20:29.088330,0.01773,1.33689,1.33689,-0.08374,0.01735,0.03576,0.00785,-0.02937,0.03825,-0.09083,0.99717,2.66219,1.30126,2.11040,2.12100,-1.07528,1.84294,2.57406,-1.11940,1.85325,2.21324,2.21324,A,141951.50
2.74304,57.68786931,11.98132394,57.68787117,11.98132183,15:20:29.154087,0.05663,1.33689,1.33689,-0.08252,0.01735,0.04889,0.01411,-0.02769,-0.06015,-0.05466,0.98411,2.68933,1.30839,2.12467,2.13527,-1.09340,1.86939,2.72914,-1.21846,2.07564,1.98985,1.98985,A,141951.70
2.77699,57.68787006,11.98132305,57.68787117,11.98132183,15:20:29.187394,0.01888,1.33689,1.33689,-0.07935,0.01735,0.05057,0.00190,-0.03105,-0.02043,-0.08296,1.00278,2.76319,1.31409,2.10408,2.11468,-1.14589,1.95273,2.72914,-1.21846,2.07564,1.98985,1.98985,A,141951.70
2.80793,57.68787036,11.98132272,57.68787117,11.98132183,15:20:29.218339,0.02072,1.33689,1.33689,-0.07824,0.01721,0.04339,-0.00314,-0.03838,-0.03959,-0.04898,0.98985,2.79070,1.31865,2.08582,2.09633,-1.16570,1.98564,2.72914,-1.21846,2.07564,1.98985,1.98985,A,141951.70
2.83414,57.68787067,11.98132239,57.68787117,11.98132183,15:20:29.244535,0.01277,1.33689,1.33689,-0.07688,0.01548,0.04217,-0.00574,-0.04663,0.01982,-0.03593,0.96703,2.82073,1.32230,2.07049,2.07994,-1.18565,2.01999,2.72914,-1.21846,2.07564,1.98985,1.98985,A,141951.70
2.88338,57.68787095,11.98132209,57.68787200,11.98132083,15:20:29.293802,0.03782,1.33689,1.33689,-0.07571,0.01336,0.05439,-0.00406,-0.04617,-0.08662,-0.06856,1.05737,2.84842,1.32521,2.05758,2.06574,-1.20314,2.05116,2.87023,-1.27790,2.16830,2.14113,2.14113,A,141951.80
2.90478,57.68787140,11.98132162,57.68787200,11.98132083,15:20:29.315176,0.01544,1.33689,1.33689,-0.07385,0.01169,0.05622,-0.00162,-0.04281,-0.03263,-0.07412,0.96124,2.89128,1.32755,2.06960,2.07674,-1.23102,2.10174,2.87023,-1.27790,2.16830,2.14113,2.14113,A,141951.80
2.93013,57.68787165,11.98132136,57.68787200,11.98132083,15:20:29.340535,0.01668,1.33689,1.33689,-0.07250,0.01163,0.05744,-0.00635,-0.03334,-0.02483,-0.04544,1.02712,2.91595,1.32942,2.07952,2.08663,-1.24660,2.12896,2.87023,-1.27790,2.16830,2.14113,2.14113,A,141951.80
2.95091,57.68787187,11.98132112,57.68787200,11.98132083,15:20:29.361306,0.01309,1.33689,1.33689,-0.07149,0.01163,0.04874,-0.00146,-0.03441,-0.08052,-0.04801,1.04621,2.93898,1.33091,2.08795,2.09505,-1.26112,2.15377,2.87023,-1.27790,2.16830,2.14113,2.14113,A,141951.80
2.96802,57.68787202,11.98132094,57.68787200,11.98132083,15:20:29.378406,0.00954,1.38911,1.38911,-0.07049,0.01163,0.05515,0.02160,-0.03334,-0.06210,-0.04044,1.01144,2.95785,1.34255,2.09504,2.10214,-1.27140,2.17082,2.87023,-1.27790,2.16830,2.14113,2.14113,A,141951.80
3.01180,57.68787212,11.98132083,57.68787250,11.98131967,15:20:29.422214,0.04062,1.38911,1.38911,-0.06956,0.01163,0.04355,0.02480,-0.03624,-0.02843,-0.01244,0.97765,2.97086,1.35186,2.10101,2.10811,-1.27813,2.18160,2.99385,-1.34724,2.22390,2.46577,2.46577,A,141951.90
3.04477,57.68787271,11.98132014,57.68787250,11.98131967,15:20:29.455180,0.01672,1.38911,1.38911,-0.06804,0.01163,0.03102,-0.00421,-0.04510,-0.07826,-0.05606,1.00272,3.03013,1.35931,2.15535,2.16246,-1.31918,2.24682,2.99385,-1.34724,2.22390,2.46577,2.46577,A,141951.90
3.07089,57.68787291,11.98131984,57.68787250,11.98131967,15:20:29.481316,0.01779,1.38911,1.38911,-0.06701,0.01163,0.03164,0.01411,-0.03884,-0.08290,-0.01861,1.03785,3.05511,1.36527,2.20113,2.20823,-1.33672,2.26969,2.99385,-1.34724,2.22390,2.46577,2.46577,A,141951.90
3.14522,57.68787317,11.98131944,57.68787450,11.98131833,15:20:29.557410,0.06043,1.38911,1.38911,-0.06556,0.01163,0.04019,0.00067,-0.00982,-0.01440,-0.02672,0.98003,3.08929,1.37004,2.24013,2.24723,-1.36045,2.29872,3.13003,-1.42649,2.44629,1.91312,1.91312,A,141952.10
3.17461,57.68787385,11.98131847,57.68787450,11.98131833,15:20:29.585017,0.01592,1.38911,1.38911,-0.06405,0.01166,0.02797,0.01411,-0.02280,-0.03257,-0.06143,0.99442,3.15994,1.37385,2.19084,2.19796,-1.41835,2.37411,3.13003,-1.42649,2.44629,1.91312,1.91312,A,141952.10
3.21244,57.68787416,11.98131809,57.68787450,11.98131833,15:20:29.622859,0.02217,1.38911,1.38911,-0.06363,0.01254,0.02079,-0.01277,-0.02830,-0.02989,-0.05020,1.02364,3.19350,1.37690,2.14840,2.15605,-1.44121,2.40870,3.13003,-1.42649,2.44629,1.91312,1.91312,A,141952.10
3.26821,57.68787448,11.98131772,57.68787533,11.98131700,15:20:29.678606,0.04198,1.38911,1.38911,-0.06284,0.01373,0.02339,-0.00376,-0.01975,-0.03843,-0.03013,0.95739,3.22881,1.37934,2.11227,2.12065,-1.46300,2.44458,3.25219,-1.50574,2.53895,2.27833,2.27833,A,141952.20
3.30041,57.68787506,11.98131707,57.68787533,11.98131700,15:20:29.711173,0.01896,1.38911,1.38911,-0.06181,0.01373,0.01850,-0.00956,-0.02448,-0.07088,-0.03135,1.04206,3.28589,1.38130,2.13670,2.14508,-1.50150,2.50863,3.25219,-1.50574,2.53895,2.27833,2.27833,A,141952.20
3.33313,57.68787534,11.98131674,57.68787533,11.98131700,15:20:29.743538,0.01974,1.38911,1.38911,-0.06140,0.01373,0.01132,-0.00849,-0.03105,-0.01092,-0.02550,1.09086,3.31541,1.38286,2.15709,2.16547,-1.52106,2.54004,3.25219,-1.50574,2.53895,2.27833,2.27833,A,141952.20
3.36014,57.68787560,11.98131642,57.68787533,11.98131700,15:20:29.770542,0.01666,1.38911,1.38911,-0.06169,0.01373,0.00735,-0.00925,-0.02861,-0.04807,-0.05655,0.92433,3.34575,1.38411,2.17441,2.18279,-1.53992,2.56901,3.25219,-1.50574,2.53895,2.27833,2.27833,A,141952.20
3.42961,57.68787582,11.98131616,57.68787750,11.98131533,15:20:29.840022,0.06159,1.38911,1.38911,-0.06246,0.01373,-0.01387,-0.01979,-0.03258,-0.03794,-0.05301,0.92665,3.37037,1.38511,2.18908,2.19747,-1.55590,2.59271,3.41477,-1.60480,2.77987,1.96090,1.96090,A,141952.40
3.46382,57.68787661,11.98131515,57.68787750,11.98131533,15:20:29.874284,0.01781,1.53626,1.53626,-0.06608,0.01373,-0.04762,-0.01796,-0.03533,-0.09266,-0.03068,0.97771,3.44660,1.41534,2.15470,2.16308,-1.61576,2.68137,3.41477,-1.60480,2.77987,1.96090,1.96090,A,141952.40
3.48837,57.68787692,11.98131483,57.68787750,11.98131533,15:20:29.899885,0.01450,1.53626,1.53626,-0.06811,0.01359,-0.06259,-0.00024,-0.04098,-0.05691,-0.04435,0.94965,3.47606,1.43952,2.12477,2.13307,-1.63448,2.71493,3.41477,-1.60480,2.77987,1.96090,1.96090,A,141952.40
3.54880,57.68787725,11.98131450,57.68787867,11.98131483,15:20:29.959222,0.05030,11.88489,1.53626,-0.07032,0.01313,-0.06702,0.01762,-0.04037,-0.01019,-0.04307,0.99851,3.50744,1.45887,2.09943,2.10745,-1.65419,2.75181,3.53191,-1.63452,2.90960,1.79600,1.79600,A,141952.50
3.56703,57.68787780,11.98131398,57.68787867,11.98131483,15:20:29.977641,0.01325,11.88489,1.53626,-0.07412,0.01197,-0.07007,0.00480,-0.05411,-0.05710,-0.07009,1.05188,3.55611,1.47435,2.05349,2.06080,-1.68518,2.81344,3.53191,-1.63452,2.90960,1.79600,1.79600,A,141952.50
3.58248,57.68787801,11.98131386,57.68787867,11.98131483,15:20:29.992872,0.01042,11.88489,1.53626,-0.07617,0.01166,-0.07175,0.00724,-0.05747,-0.03300,-0.09803,0.99265,3.57285,1.48673,2.01400,2.02112,-1.69246,2.83665,3.53191,-1.63452,2.90960,1.79600,1.79600,A,141952.50
3.60788,57.68787826,11.98131371,57.68787867,11.98131483,15:20:30.018298,0.02049,11.88489,1.53626,-0.07798,0.01166,-0.06244,-0.00024,-0.04861,-0.04477,-0.07216,0.94459,3.59400,1.49663,1.98049,1.98761,-1.70146,2.86489,3.53191,-1.63452,2.90960,1.79600,1.79600,A,141952.50
3.63772,57.68787861,11.98131349,57.68787867,11.98131483,15:20:30.048118,0.01740,11.88489,1.53626,-0.07932,0.01166,-0.03388,0.00724,-0.03914,-0.03873,-0.06801,1.04810,3.62510,1.50456,1.95213,1.95925,-1.71427,2.90362,3.53191,-1.63452,2.90960,1.79600,1.79600,A,141952.50
3.67917,57.68787893,11.98131332,57.68787967,11.98131367,15:20:30.089769,0.03129,11.88489,1.53626,-0.08039,0.01166,-0.02838,-0.00757,-0.03548,0.01189,-0.06716,1.03712,3.65315,1.51090,1.92801,1.93513,-1.72476,2.93930,3.67109,-1.70387,3.02080,2.12840,2.12840,A,141952.60
3.70987,57.68787940,11.98131303,57.68787967,11.98131367,15:20:30.120583,0.02326,11.88489,1.53626,-0.08052,0.01158,-0.00685,-0.00620,-0.03319,-0.03209,-0.03508,0.92202,3.69118,1.51597,1.95749,1.96456,-1.74183,2.99087,3.67109,-1.70387,3.02080,2.12840,2.12840,A,141952.60
3.74414,57.68787980,11.98131276,57.68787967,11.98131367,15:20:30.154549,0.02328,11.88489,1.53626,-0.08102,0.01155,-0.01357,-0.00727,-0.04082,-0.03934,-0.04941,1.04889,3.72879,1.52003,1.98251,1.98956,-1.75793,3.03568,3.67109,-1.70387,3.02080,2.12840,2.12840,A,141952.60
3.76652,57.68788011,11.98131254,57.68787967,11.98131367,15:20:30.176908,0.01070,11.88489,1.53626,-0.08077,0.01155,-0.01754,-0.02483,-0.04663,-0.04813,0.00232,1.01681,3.75769,1.52327,2.00370,2.01075,-1.77071,3.06975,3.67109,-1.70387,3.02080,2.12840,2.12840,A,141952.60
3.79943,57.68788024,11.98131246,57.68788083,11.98131283,15:20:30.209826,0.02822,11.88489,1.53626,-0.08100,0.01155,-0.01708,-0.02284,-0.04586,-0.06063,-0.04551,0.99729,3.77309,1.52587,2.02153,2.02858,-1.77575,3.08510,3.79237,-1.75340,3.15052,1.93552,1.93552,A,141952.70
3.82123,57.68788065,11.98131213,57.68788083,11.98131283,15:20:30.231649,0.01520,11.88489,1.53626,-0.08170,0.01155,-0.02059,0.01274,-0.03807,0.02324,-0.04660,0.97277,3.80682,1.52795,2.00801,2.01506,-1.79509,3.12990,3.79237,-1.75340,3.15052,1.93552,1.93552,A,141952.70
3.85383,57.68788097,11.98131189,57.68788083,11.98131283,15:20:30.264248,0.01899,11.88489,1.53626,-0.08225,0.01155,-0.00975,-0.03018,-0.03838,0.00335,-0.06496,0.97203,3.83531,1.52961,1.99644,2.00349,-1.80947,3.16551,3.79237,-1.75340,3.15052,1.93552,1.93552,A,141952.70
3.88753,57.68788136,11.98131159,57.68788083,11.98131283,15:20:30.297922,0.01929,11.88489,1.53626,-0.08308,0.01155,-0.02014,-0.00910,-0.04266,-0.03501,-0.05728,1.08092,3.87438,1.53094,1.98670,1.99375,-1.82706,3.20892,3.79237,-1.75340,3.15052,1.93552,1.93552,A,141952.70
3.95621,57.68788163,11.98131140,57.68788300,11.98130967,15:20:30.366625,0.05631,11.88489,1.53626,-0.08296,0.01155,-0.01754,0.02068,-0.04189,-0.02373,-0.00939,0.96203,3.90162,1.53200,1.97831,1.98536,-1.83834,3.23923,3.93809,-1.94162,3.39145,2.23399,2.23399,A,141952.90
3.98191,57.68788252,11.98131064,57.68788300,11.98130967,15:20:30.392298,0.01871,11.88489,1.53626,-0.08486,0.01155,-0.03052,-0.00238,-0.03487,-0.03556,-0.03581,1.03852,3.97232,1.53285,2.01655,2.02360,-1.88389,3.33861,3.93809,-1.94162,3.39145,2.23399,2.23399,A,141952.90
4.00419,57.68788278,11.98131038,57.68788300,11.98130967,15:20:30.414589,0.01080,1.49204,1.49204,-0.08499,0.01155,-0.02441,-0.00513,-0.03517,-0.07625,-0.02708,1.02602,3.99360,1.52469,2.04838,2.05543,-1.89936,3.36713,3.93809,-1.94162,3.39145,2.23399,2.23399,A,141952.90
4.02802,57.68788302,11.98131012,57.68788300,11.98130967,15:20:30.438421,0.01470,1.49204,1.49204,-0.08567,0.01155,-0.02075,0.02007,-0.03624,-0.02184,-0.06381,0.95520,4.01546,1.51816,2.07543,2.08248,-1.91457,3.39322,3.93809,-1.94162,3.39145,2.23399,2.23399,A,141952.90
4.07027,57.68788326,11.98130985,57.68788367,11.98130867,15:20:30.480673,0.03400,1.49204,1.49204,-0.08608,0.01155,-0.03510,0.00190,-0.03304,0.01110,-0.02373,0.95502,4.03922,1.51294,2.09845,2.10550,-1.93097,3.41993,4.06123,-2.00105,3.46558,2.24663,2.24663,A,141953.00
4.09950,57.68788373,11.98130929,57.68788367,11.98130867,15:20:30.509909,0.01813,1.49204,1.49204,-0.08786,0.01155,-0.03373,0.00525,-0.04021,-0.01739,-0.07668,1.01388,4.08242,1.50876,2.12017,2.12722,-1.96422,3.47242,4.06123,-2.00105,3.46558,2.24663,2.24663,A,141953.00
4.12910,57.68788406,11.98130887,57.68788367,11.98130867,15:20:30.540123,0.01592,1.49204,1.49204,-0.08892,0.01155,-0.03037,0.02740,-0.03197,-0.04154,-0.05954,1.05817,4.11711,1.50541,2.13849,2.14554,-1.98895,3.50888,4.06123,-2.00105,3.46558,2.24663,2.24663,A,141953.00
4.15882,57.68788435,11.98130848,57.68788367,11.98130867,15:20:30.569214,0.01353,1.49204,1.49204,-0.09003,0.01155,-0.01998,0.00846,-0.00662,0.01958,-0.08455,0.94794,4.14828,1.50274,2.15405,2.16110,-2.01236,3.54193,4.06123,-2.00105,3.46558,2.24663,2.24663,A,141953.00
4.21556,57.68788454,11.98130821,57.68788617,11.98130683,15:20:30.625952,0.04663,1.49204,1.49204,-0.09051,0.01155,-0.02655,-0.00513,-0.01303,-0.00665,-0.04429,0.91012,4.17075,1.50060,2.16716,2.17421,-2.02842,3.56293,4.20804,-2.11002,3.74356,1.94438,1.94438,A,141953.20
4.23204,57.68788511,11.98130751,57.68788617,11.98130683,15:20:30.642441,0.01167,1.49204,1.49204,-0.09149,0.01494,-0.03419,0.01747,-0.01929,-0.03392,-0.01299,1.03249,4.21948,1.49889,2.13299,2.14212,-2.06960,3.62580,4.20804,-2.11002,3.74356,1.94438,1.94438,A,141953.20
4.24617,57.68788530,11.98130731,57.68788617,11.98130683,15:20:30.656549,0.00918,1.49204,1.49204,-0.09182,0.01718,-0.02838,0.01427,-0.02250,-0.01574,-0.04910,1.02327,4.23625,1.49752,2.10336,2.11385,-2.08184,3.64757,4.20804,-2.11002,3.74356,1.94438,1.94438,A,141953.20
4.25733,57.68788543,11.98130719,57.68788617,11.98130683,15:20:30.667724,0.01024,1.49204,1.49204,-0.09229,0.01854,-0.02640,-0.00452,-0.02143,0.05838,-0.07155,1.00418,4.24635,1.49642,2.07796,2.08928,-2.08865,3.66133,4.20804,-2.11002,3.74356,1.94438,1.94438,A,141953.20
4.27702,57.68788562,11.98130701,57.68788617,11.98130683,15:20:30.687426,0.01485,1.49204,1.49204,-0.09285,0.02058,-0.01479,-0.03094,-0.01333,0.02983,-0.07686,0.97630,4.26237,1.49555,2.05634,2.06890,-2.09952,3.68261,4.20804,-2.11002,3.74356,1.94438,1.94438,A,141953.20
4.30228,57.68788595,11.98130669,57.68788617,11.98130683,15:20:30.713410,0.01193,1.49204,1.49204,-0.09339,0.02443,-0.00777,-0.00391,0.00102,-0.08107,-0.07692,0.98393,4.29194,1.49485,2.03796,2.05288,-2.11867,3.71990,4.20804,-2.11002,3.74356,1.94438,1.94438,A,141953.20
4.34541,57.68788619,11.98130647,57.68788717,11.98130483,15:20:30.755829,0.03208,1.49204,1.49204,-0.09401,0.02728,-0.01617,0.00861,0.01278,-0.00848,-0.07442,1.00205,4.31450,1.49428,2.02199,2.03866,-2.13145,3.74634,4.33199,-2.22890,3.85476,2.38956,2.38956,A,141953.30
4.36481,57.68788665,11.98130600,57.68788717,11.98130483,15:20:30.775220,0.01282,1.49204,1.49204,-0.09400,0.03028,-0.01189,0.00083,0.00224,0.03044,-0.02635,0.98600,4.35220,1.49384,2.07549,2.09399,-2.15931,3.79725,4.33199,-2.22890,3.85476,2.38956,2.38956,A,141953.30
4.38702,57.68788692,11.98130568,57.68788717,11.98130483,15:20:30.797411,0.01084,1.49204,1.49204,-0.09463,0.03142,-0.01219,-0.01857,0.00087,-0.05459,-0.07960,1.00784,4.37746,1.49348,2.12051,2.13970,-2.17865,3.82763,4.33199,-2.22890,3.85476,2.38956,2.38956,A,141953.30
4.41208,57.68788712,11.98130541,57.68788717,11.98130483,15:20:30.822502,0.01482,1.49204,1.49204,-0.09542,0.03266,-0.01739,0.00373,0.00346,-0.05411,-0.08900,1.00723,4.39658,1.49319,2.15850,2.17845,-2.19438,3.84966,4.33199,-2.22890,3.85476,2.38956,2.38956,A,141953.30
4.43412,57.68788735,11.98130509,57.68788717,11.98130483,15:20:30.845199,0.01221,1.49204,1.49204,-0.09564,0.03478,-0.02823,-0.00849,0.00866,-0.03270,-0.02306,0.96618,4.42238,1.49296,2.19080,2.21205,-2.21372,3.87524,4.33199,-2.22890,3.85476,2.38956,2.38956,A,141953.30
4.47443,57.68788756,11.98130477,57.68788867,11.98130367,15:20:30.884824,0.02962,1.49204,1.49204,-0.09650,0.03603,-0.01952,-0.00941,0.00743,-0.05337,-0.08711,1.02773,4.44605,1.49278,2.21818,2.24019,-2.23280,3.89876,4.46451,-2.29824,4.02155,1.96480,1.96480,A,141953.40
4.49724,57.68788798,11.98130417,57.68788867,11.98130367,15:20:30.907637,0.01359,1.48622,1.48622,-0.09772,0.03651,-0.03037,-0.00238,0.00560,-0.07442,-0.06289,1.01339,4.48511,1.49146,2.17835,2.20065,-2.26808,3.94536,4.46451,-2.29824,4.02155,1.96480,1.96480,A,141953.40
4.51945,57.68788825,11.98130383,57.68788867,11.98130367,15:20:30.929848,0.01082,1.48622,1.48622,-0.09863,0.03651,-0.03877,0.01091,0.00637,-0.03245,-0.05594,0.95081,4.50908,1.49042,2.14393,2.16623,-2.28856,3.97519,4.46451,-2.29824,4.02155,1.96480,1.96480,A,141953.40
4.54526,57.68788849,11.98130354,57.68788867,11.98130367,15:20:30.956176,0.01335,1.48622,1.48622,-0.09977,0.03651,-0.04243,0.00296,0.01018,-0.03526,-0.06734,0.93849,4.53223,1.48958,2.11459,2.13690,-2.30550,4.00180,4.46451,-2.29824,4.02155,1.96480,1.96480,A,141953.40
4.56759,57.68788875,11.98130326,57.68788867,11.98130367,15:20:30.978001,0.01164,1.48622,1.48622,-0.10076,0.03651,-0.05938,-0.00345,0.00392,-0.08064,-0.03087,1.02358,4.55719,1.48890,2.08976,2.11206,-2.32269,4.03041,4.46451,-2.29824,4.02155,1.96480,1.96480,A,141953.40
4.61728,57.68788894,11.98130305,57.68789083,11.98130200,15:20:31.027679,0.04002,1.48622,1.48622,-0.10137,0.03651,-0.04579,0.01381,0.00026,-0.06521,-0.04703,1.07580,4.57721,1.48837,2.06844,2.09074,-2.33474,4.05204,4.60570,-2.39730,4.26247,1.96090,1.96090,A,141953.60
4.64397,57.68788960,11.98130240,57.68789083,11.98130200,15:20:31.054394,0.01535,1.48622,1.48622,-0.10357,0.03651,-0.03266,0.00648,-0.00127,0.02166,-0.08863,0.91640,4.62991,1.48794,2.05111,2.07341,-2.37362,4.12501,4.60570,-2.39730,4.26247,1.96090,1.96090,A,141953.60
4.67036,57.68788994,11.98130209,57.68789083,11.98130200,15:20:31.080783,0.01420,1.48622,1.48622,-0.10446,0.03651,-0.02136,-0.01658,0.01675,-0.04856,-0.09357,1.07531,4.65728,1.48759,2.03530,2.05760,-2.39199,4.16314,4.60570,-2.39730,4.26247,1.96090,1.96090,A,141953.60
4.69492,57.68789025,11.98130182,57.68789083,11.98130200,15:20:31.105327,0.01341,1.48622,1.48622,-0.10510,0.03651,-0.01586,0.00296,0.00835,-0.12267,-0.08442,1.02761,4.68308,1.48732,2.02180,2.04410,-2.40809,4.19804,4.60570,-2.39730,4.26247,1.96090,1.96090,A,141953.60
4.73291,57.68789051,11.98130161,57.68789200,11.98130067,15:20:31.143320,0.02886,1.48622,1.48622,-0.10543,0.03651,-0.01326,0.01824,-0.00066,-0.03404,-0.06411,0.92397,4.70534,1.48710,2.01017,2.03248,-2.42056,4.22666,4.72267,-2.47655,4.39220,2.11919,2.11919,A,141953.70
4.75674,57.68789101,11.98130117,57.68789200,11.98130067,15:20:31.167157,0.01232,1.48622,1.48622,-0.10614,0.03651,-0.01540,-0.00910,-0.00753,-0.03556,-0.07735,1.02748,4.74458,1.48692,2.02476,2.04706,-2.44690,4.28224,4.72267,-2.47655,4.39220,2.11919,2.11919,A,141953.70
4.77903,57.68789129,11.98130092,57.68789200,11.98130067,15:20:31.190249,0.01305,1.48622,1.48622,-0.10627,0.03651,-0.00960,-0.00803,-0.00020,-0.04160,-0.06820,1.08617,4.76690,1.48678,2.03644,2.05874,-2.46166,4.31349,4.72267,-2.47655,4.39220,2.11919,2.11919,A,141953.70
4.80397,57.68789157,11.98130066,57.68789200,11.98130067,15:20:31.214387,0.01341,1.48622,1.48622,-0.10729,0.03651,-0.00761,-0.00712,0.00301,-0.03569,-0.12291,0.98491,4.79085,1.48667,2.04643,2.06873,-2.47687,4.34468,4.72267,-2.47655,4.39220,2.11919,2.11919,A,141953.70
4.82480,57.68789181,11.98130044,57.68789200,11.98130067,15:20:31.235203,0.01293,1.48622,1.48622,-0.10810,0.03651,-0.00838,-0.00605,-0.00936,-0.02294,-0.10388,0.93507,4.81253,1.48658,2.05481,2.07711,-2.48985,4.37096,4.72267,-2.47655,4.39220,2.11919,2.11919,A,141953.70
4.86394,57.68789205,11.98130021,57.68789317,11.98130033,15:20:31.274343,0.02965,1.48622,1.48622,-0.10994,0.03651,-0.00654,-0.00864,-0.01837,0.00195,-0.17879,0.96642,4.83517,1.48651,2.06200,2.08430,-2.50345,4.39774,4.85263,-2.49636,4.52193,1.72235,1.72235,A,141953.80
4.88853,57.68789255,11.98129976,57.68789317,11.98130033,15:20:31.298931,0.01358,1.48622,1.48622,-0.11014,0.03583,-0.01143,0.00159,-0.02280,-0.04862,-0.05661,1.05079,4.87710,1.48645,2.00945,2.03133,-2.53073,4.45296,4.85263,-2.49636,4.52193,1.72235,1.72235,A,141953.80
4.91346,57.68789282,11.98129956,57.68789317,11.98130033,15:20:31.324176,0.01427,1.48622,1.48622,-0.11057,0.03323,-0.00990,0.00632,-0.02891,-0.05807,-0.09455,1.07756,4.89971,1.48640,1.96420,1.98450,-2.54218,4.48295,4.85263,-2.49636,4.52193,1.72235,1.72235,A,141953.80
4.93735,57.68789311,11.98129937,57.68789317,11.98130033,15:20:31.347757,0.01284,1.63970,1.63970,-0.11081,0.02994,-0.01021,0.00159,-0.01669,0.02477,-0.06960,0.98777,4.92591,1.51706,1.92611,1.94440,-2.55361,4.51613,4.85263,-2.49636,4.52193,1.72235,1.72235,A,141953.80
4.97985,57.68789338,11.98129923,57.68789400,11.98129900,15:20:31.390272,0.03053,1.63970,1.63970,-0.11208,0.02844,-0.00899,-0.00879,-0.01746,-0.03642,-0.13328,0.92281,4.94982,1.54159,1.89371,1.91108,-2.56222,4.54569,4.96719,-2.57561,4.61459,2.27833,2.27833,A,141953.90
5.00350,57.68789390,11.98129889,57.68789400,11.98129900,15:20:31.413924,0.01282,1.63970,1.63970,-0.11238,0.02830,-0.01998,0.01075,-0.01883,-0.08961,-0.04435,1.09446,4.99119,1.56121,1.95015,1.96743,-2.58208,4.60336,4.96719,-2.57561,4.61459,2.27833,2.27833,A,141953.90
5.02224,57.68789414,11.98129871,57.68789400,11.98129900,15:20:31.433390,0.01126,1.63970,1.63970,0.00000,0.02830,-0.01846,-0.00101,-0.01471,-0.00787,-0.05588,1.06225,5.01286,1.63970,2.06258,2.07987,-2.57561,4.61459,4.96719,-2.57561,4.61459,2.27833,2.27833,A,141953.90
5.07079,57.68789414,11.98129886,57.68789400,11.98129900,15:20:31.482022,0.04612,1.63970,1.63970,-0.01519,-1.85579,-0.01235,0.01121,-0.01303,-0.04465,-0.07290,1.02504,5.02588,1.63970,1.92683,3.05032,-2.58412,4.62983,4.96719,-2.57561,4.61459,2.27833,2.27833,A,141953.90
