Time,lat_estimated,lon_estimated,latitude,longitude,RealTime,CalculationTime,MeasuredVelocity,FilteredVelocity,Roll,SteeringAngle,RollRate,gy,gz,ax,ay,az,imu_read_timing,v_estimated,yaw_estimated,heading_estimated,x_estimated,y_estimated,GPS_timestamp,x_GPS,y_GPS,theta_GPS,theta_GPS_noUnwrap,status,NMEA timestamp
0.07266,57.68790217,11.98133567,57.68790217,11.98133567,14:03:30.978522,0.07262,0.00000,1.50000,-0.00074,0.01019,-0.00655,-0.00264,0.00344,-0.00805,-0.01421,1.00125,0.00001,0.00000,-0.00592,0.00000,0.00000,0.00000,0.01452,0.00000,0.00000,0.00000,0.00000,A,140330.80
0.08382,57.68790217,11.98133567,57.68790217,11.98133567,14:03:30.989675,0.00574,0.00000,0.00000,-0.00169,0.01019,-0.00166,0.00393,0.00665,0.00494,-0.02422,1.00333,0.07771,0.00000,-0.00592,0.00000,0.00000,0.00000,0.01452,0.00000,0.00000,0.00000,0.00000,A,140330.80
0.09495,57.68790217,11.98133567,57.68790217,11.98133567,14:03:31.000806,0.00648,0.00000,0.00000,-0.00253,0.01019,-0.00365,-0.00111,0.00619,0.01251,-0.02348,0.99741,0.08905,0.00000,-0.00592,0.00000,0.00000,0.00000,0.01452,0.00000,0.00000,0.00000,0.00000,A,140330.80
0.10442,57.68790217,11.98133567,57.68790217,11.98133567,14:03:31.010264,0.00540,0.00000,0.00000,-0.00321,0.01019,0.00429,0.00378,0.00329,0.01732,-0.01952,0.99509,0.09833,0.00000,-0.00592,0.00000,0.00000,0.00000,0.01452,0.00000,0.00000,0.00000,0.00000,A,140330.80
0.11450,57.68790217,11.98133567,57.68790217,11.98133567,14:03:31.020598,0.00509,0.00000,0.00000,-0.00397,0.01019,0.00399,0.00485,0.00145,0.01818,-0.02507,0.99467,0.10890,0.00000,-0.00592,0.00000,0.00000,0.00000,0.01452,0.00000,0.00000,0.00000,0.00000,A,140330.80
0.15741,57.68790217,11.98133567,57.68790217,11.98133567,14:03:31.063282,0.03777,0.00000,1.50000,-0.00475,0.01019,0.00246,0.00347,0.00344,0.02025,-0.02653,0.99924,0.11923,0.00000,-0.00592,0.00000,0.00000,0.00000,0.13553,0.00000,0.00000,0.00000,0.00000,A,140330.90
0.16836,57.68790217,11.98133567,57.68790217,11.98133567,14:03:31.074208,0.00532,0.00000,0.00000,-0.00496,0.01019,0.00857,-0.00264,0.00420,0.02904,-0.01220,1.00211,0.16240,0.00000,-0.00592,0.00000,0.00000,0.00000,0.13553,0.00000,0.00000,0.00000,0.00000,A,140330.90
0.17854,57.68790217,11.98133567,57.68790217,11.98133567,14:03:31.084646,0.00511,0.00000,0.00000,-0.00568,0.01019,0.00979,-0.00111,0.00665,0.03190,-0.02867,1.00101,0.17294,0.00000,-0.00592,0.00000,0.00000,0.00000,0.13553,0.00000,0.00000,0.00000,0.00000,A,140330.90
0.18910,57.68790217,11.98133567,57.68790217,11.98133567,14:03:31.094946,0.00526,0.00000,0.00000,-0.00617,0.01019,0.01590,-0.00050,0.00405,0.03166,-0.01793,0.99851,0.18309,0.00000,-0.00592,0.00000,0.00000,0.00000,0.13553,0.00000,0.00000,0.00000,0.00000,A,140330.90
0.19964,57.68790217,11.98133567,57.68790217,11.98133567,14:03:31.105484,0.00540,0.00000,0.00000,-0.00674,0.01019,0.01712,0.00133,0.00497,0.03422,-0.02483,0.99735,0.19373,0.00000,-0.00592,0.00000,0.00000,0.00000,0.13553,0.00000,0.00000,0.00000,0.00000,A,140330.90
0.20969,57.68790217,11.98133567,57.68790217,11.98133567,14:03:31.115536,0.00506,0.00000,0.00000,-0.00750,0.01019,0.01941,0.00057,0.00436,0.04056,-0.03934,0.99967,0.20409,0.00000,-0.00592,0.00000,0.00000,0.00000,0.13553,0.00000,0.00000,0.00000,0.00000,A,140330.90
0.22028,57.68790217,11.98133567,57.68790217,11.98133567,14:03:31.126133,0.00520,0.00000,0.00000,-0.00807,0.01019,0.02323,-0.00126,0.00191,0.04099,-0.02952,0.99546,0.21437,0.00000,-0.00592,0.00000,0.00000,0.00000,0.13553,0.00000,0.00000,0.00000,0.00000,A,140330.90
0.23055,57.68790217,11.98133567,57.68790217,11.98133567,14:03:31.136649,0.00507,0.00000,0.00000,-0.00848,0.01019,0.02338,0.00057,0.00649,0.05057,-0.02086,1.00107,0.22496,0.00000,-0.00592,0.00000,0.00000,0.00000,0.13553,0.00000,0.00000,0.00000,0.00000,A,140330.90
0.28098,57.68790217,11.98133567,57.68790233,11.98133567,14:03:31.186849,0.04511,0.00000,1.50000,-0.00885,0.01019,0.02888,-0.00462,0.00405,0.04990,-0.02141,0.99991,0.23513,0.00000,-0.00592,0.00000,0.00000,0.00000,0.26153,0.00000,0.01853,1.57080,1.57080,A,140331.10
0.29233,57.68790217,11.98133567,57.68790233,11.98133567,14:03:31.198180,0.00616,0.00000,0.00000,-0.00721,0.01019,0.04782,-0.00630,0.00756,0.04782,-0.02721,0.99503,0.28578,0.00000,0.00978,0.01571,0.00000,0.00019,0.26153,0.00000,0.01853,1.57080,1.57080,A,140331.10
0.30162,57.68790217,11.98133567,57.68790233,11.98133567,14:03:31.207472,0.00505,0.00000,0.00000,-0.00735,0.01019,0.05576,-0.00936,0.01108,0.03898,-0.02269,0.99875,0.29601,0.00000,0.02533,0.03126,0.00000,0.00037,0.26153,0.00000,0.01853,1.57080,1.57080,A,140331.10
0.31295,57.68790217,11.98133567,57.68790233,11.98133567,14:03:31.218793,0.00587,0.00000,0.00000,-0.00739,0.01019,0.06156,-0.00141,0.00833,0.03666,-0.02373,1.00632,0.30708,0.00000,0.04073,0.04665,0.00000,0.00055,0.26153,0.00000,0.01853,1.57080,1.57080,A,140331.10
0.32300,57.68790217,11.98133567,57.68790233,11.98133567,14:03:31.228862,0.00552,0.00000,0.00000,-0.00743,0.01019,0.06721,-0.00126,0.01001,0.04026,-0.02275,1.01199,0.31702,0.00000,0.05597,0.06190,0.00000,0.00073,0.26153,0.00000,0.01853,1.57080,1.57080,A,140331.10
0.33297,57.68790217,11.98133567,57.68790233,11.98133567,14:03:31.238817,0.00510,0.00000,0.00000,-0.00737,0.01019,0.06981,0.00042,0.00665,0.05478,-0.01952,1.01730,0.32713,0.00000,0.07106,0.07698,0.00000,0.00091,0.26153,0.00000,0.01853,1.57080,1.57080,A,140331.10
0.34382,57.68790218,11.98133567,57.68790233,11.98133567,14:03:31.249662,0.00555,0.00000,0.00000,-0.00727,0.01019,0.07286,-0.00355,0.01016,0.05813,-0.02001,1.01541,0.33774,0.00000,0.08600,0.09192,0.00000,0.00108,0.26153,0.00000,0.01853,1.57080,1.57080,A,140331.10
0.35372,57.68790218,11.98133567,57.68790233,11.98133567,14:03:31.259572,0.00506,0.00000,0.00000,-0.00707,0.01019,0.07577,-0.00874,0.00940,0.05685,-0.01501,1.00992,0.34813,0.00000,0.10079,0.10671,0.00000,0.00126,0.26153,0.00000,0.01853,1.57080,1.57080,A,140331.10
0.39603,57.68790218,11.98133567,57.68790233,11.98133550,14:03:31.301905,0.03695,0.00000,1.50000,-0.00671,0.01019,0.08646,-0.00890,0.00985,0.03928,-0.01006,1.00455,0.35837,0.00000,0.11543,0.12135,0.00000,0.00143,0.37546,-0.00991,0.01853,3.14159,3.14159,A,140331.20
0.40717,57.68790218,11.98133566,57.68790233,11.98133550,14:03:31.313036,0.00568,0.00000,0.00000,-0.00327,0.01019,0.10066,-0.00722,0.01337,0.05661,-0.02940,0.98844,0.40126,0.00000,0.14563,0.15155,-0.00010,0.00160,0.37546,-0.00991,0.01853,3.14159,3.14159,A,140331.20
0.41697,57.68790218,11.98133566,57.68790233,11.98133550,14:03:31.322809,0.00508,0.00000,0.00000,-0.00314,0.01019,0.10020,-0.00783,0.01138,0.06076,-0.02830,0.99277,0.41115,0.00000,0.17553,0.18146,-0.00020,0.00177,0.37546,-0.00991,0.01853,3.14159,3.14159,A,140331.20
0.42890,57.68790218,11.98133566,57.68790233,11.98133550,14:03:31.334752,0.00662,0.00000,0.00000,-0.00266,0.01019,0.10341,-0.01745,0.00543,0.03471,-0.01616,0.99521,0.42238,0.00000,0.20513,0.21106,-0.00029,0.00194,0.37546,-0.00991,0.01853,3.14159,3.14159,A,140331.20
0.43775,57.68790219,11.98133566,57.68790233,11.98133550,14:03:31.343591,0.00507,0.00000,0.00000,-0.00215,0.01019,0.10600,-0.01104,0.00649,0.01769,-0.00506,1.00339,0.43214,0.00000,0.23444,0.24036,-0.00039,0.00211,0.37546,-0.00991,0.01853,3.14159,3.14159,A,140331.20
0.44856,57.68790219,11.98133566,57.68790233,11.98133550,14:03:31.354403,0.00548,0.00000,0.00000,-0.00154,0.01019,0.10738,-0.01272,0.00207,0.00622,-0.00275,1.01126,0.44235,0.00000,0.26345,0.26937,-0.00049,0.00227,0.37546,-0.00991,0.01853,3.14159,3.14159,A,140331.20
0.45961,57.68790219,11.98133566,57.68790233,11.98133550,14:03:31.365452,0.00613,0.00000,0.00000,-0.00081,0.01019,0.10936,-0.00264,-0.00175,0.02916,-0.00268,1.01083,0.45364,0.00000,0.29217,0.29810,-0.00058,0.00243,0.37546,-0.00991,0.01853,3.14159,3.14159,A,140331.20
0.46897,57.68790219,11.98133566,57.68790233,11.98133550,14:03:31.374823,0.00511,0.00000,0.00000,-0.00032,0.01019,0.11257,-0.00218,0.00069,0.03751,-0.00677,1.00766,0.46313,0.00000,0.32061,0.32653,-0.00067,0.00259,0.37546,-0.00991,0.01853,3.14159,3.14159,A,140331.20
0.51031,57.68790219,11.98133565,57.68790250,11.98133550,14:03:31.416174,0.03604,0.00000,1.50000,0.00025,0.01019,0.11471,-0.00401,-0.00068,0.02513,-0.01122,1.00760,0.47373,0.00000,0.34876,0.35468,-0.00077,0.00275,0.49085,-0.00991,0.03706,1.57080,1.57080,A,140331.30
0.52216,57.68790219,11.98133565,57.68790250,11.98133550,14:03:31.428013,0.00580,0.00000,0.00000,0.00469,0.01013,0.11456,0.00286,0.00985,0.04154,0.00964,0.99589,0.51597,0.00000,0.36092,0.36681,-0.00086,0.00310,0.49085,-0.00991,0.03706,1.57080,1.57080,A,140331.30
0.53248,57.68790220,11.98133565,57.68790250,11.98133550,14:03:31.438326,0.00555,0.00000,0.00000,0.00531,0.00974,0.11792,-0.00203,0.00634,0.04380,-0.00458,0.99174,0.52654,0.00000,0.37296,0.37862,-0.00095,0.00344,0.49085,-0.00991,0.03706,1.57080,1.57080,A,140331.30
0.54248,57.68790220,11.98133565,57.68790250,11.98133550,14:03:31.448581,0.00510,0.00000,0.00000,0.00586,0.00897,0.11211,-0.00248,0.00298,0.02257,-0.00317,0.99192,0.53687,0.00000,0.38489,0.39010,-0.00104,0.00377,0.49085,-0.00991,0.03706,1.57080,1.57080,A,140331.30
0.55303,57.68790220,11.98133565,57.68790250,11.98133550,14:03:31.458872,0.00512,0.00000,0.00000,0.00641,0.00787,0.10463,-0.00477,0.00054,0.00342,0.00305,0.99033,0.54718,0.00000,0.39670,0.40128,-0.00113,0.00410,0.49085,-0.00991,0.03706,1.57080,1.57080,A,140331.30
0.56398,57.68790221,11.98133565,57.68790250,11.98133550,14:03:31.469836,0.00569,0.00000,0.00000,0.00714,0.00645,0.10906,0.00133,0.00054,0.00464,0.00848,0.98625,0.55802,0.00000,0.40840,0.41216,-0.00121,0.00443,0.49085,-0.00991,0.03706,1.57080,1.57080,A,140331.30
0.57375,57.68790221,11.98133564,57.68790250,11.98133550,14:03:31.479588,0.00505,0.00000,0.00000,0.00783,0.00495,0.10234,0.00301,0.00222,0.04801,0.01598,0.99149,0.56815,0.00000,0.42000,0.42288,-0.00130,0.00476,0.49085,-0.00991,0.03706,1.57080,1.57080,A,140331.30
0.58426,57.68790221,11.98133564,57.68790250,11.98133550,14:03:31.490102,0.00517,0.00000,0.00000,0.00827,0.00334,0.09730,-0.00096,0.00008,0.05398,0.00317,1.00485,0.57836,0.00000,0.43149,0.43343,-0.00139,0.00508,0.49085,-0.00991,0.03706,1.57080,1.57080,A,140331.30
0.62562,57.68790222,11.98133564,57.68790283,11.98133550,14:03:31.531499,0.03614,0.00000,1.50000,0.00886,0.00161,0.09623,-0.00981,0.00283,0.05185,0.01226,1.01284,0.58896,0.00000,0.44287,0.44381,-0.00147,0.00540,0.60622,-0.00991,0.07413,1.57080,1.57080,A,140331.40
0.63686,57.68790222,11.98133564,57.68790283,11.98133550,14:03:31.542708,0.00532,0.00000,0.00000,0.01184,-0.00713,0.08386,0.00057,-0.01015,0.03337,0.00775,0.99265,0.63092,0.00000,0.45419,0.45004,-0.00156,0.00609,0.60622,-0.00991,0.07413,1.57080,1.57080,A,140331.40
0.64744,57.68790223,11.98133564,57.68790283,11.98133550,14:03:31.553288,0.00551,0.00000,0.00000,0.01230,-0.00962,0.08325,-0.00737,-0.01153,0.03904,0.01598,0.98356,0.64142,0.00000,0.46541,0.45982,-0.00164,0.00677,0.60622,-0.00991,0.07413,1.57080,1.57080,A,140331.40
0.65832,57.68790223,11.98133564,57.68790283,11.98133550,14:03:31.564175,0.00600,0.00000,0.00000,0.01275,-0.01200,0.07760,-0.01440,-0.00694,0.02983,0.01586,0.97765,0.65265,0.00000,0.47654,0.46956,-0.00172,0.00744,0.60622,-0.00991,0.07413,1.57080,1.57080,A,140331.40
0.66808,57.68790224,11.98133564,57.68790283,11.98133550,14:03:31.573930,0.00518,0.00000,0.00000,0.01316,-0.01435,0.07286,-0.01241,-0.01214,0.00762,0.02483,0.98100,0.66218,0.00000,0.48756,0.47922,-0.00180,0.00811,0.60622,-0.00991,0.07413,1.57080,1.57080,A,140331.40
0.67839,57.68790225,11.98133563,57.68790283,11.98133550,14:03:31.584234,0.00510,0.00000,0.00000,0.01373,-0.01664,0.07042,-0.00600,-0.00924,-0.00945,0.03331,0.98826,0.67279,0.00000,0.49849,0.48882,-0.00188,0.00877,0.60622,-0.00991,0.07413,1.57080,1.57080,A,140331.40
0.68883,57.68790225,11.98133563,57.68790283,11.98133550,14:03:31.594680,0.00514,0.00000,0.00000,0.01432,-0.01902,0.06920,-0.00080,-0.01534,0.00232,0.03770,0.99930,0.68295,0.00000,0.50933,0.49827,-0.00197,0.00943,0.60622,-0.00991,0.07413,1.57080,1.57080,A,140331.40
0.69968,57.68790226,11.98133563,57.68790283,11.98133550,14:03:31.605535,0.00560,0.00000,0.00000,0.01477,-0.02157,0.06767,0.00301,-0.01534,0.01745,0.02794,0.99869,0.69375,0.00000,0.52007,0.50752,-0.00204,0.01007,0.60622,-0.00991,0.07413,1.57080,1.57080,A,140331.40
0.74681,57.68790226,11.98133563,57.68790317,11.98133533,14:03:31.652692,0.04232,0.00000,1.50000,0.01495,-0.02409,0.06401,0.00576,-0.01565,0.03306,0.01397,0.99558,0.70409,0.00000,0.53071,0.51671,-0.00212,0.01071,0.72368,-0.01981,0.11119,1.83196,1.83196,A,140331.50
0.75766,57.68790227,11.98133563,57.68790317,11.98133533,14:03:31.663505,0.00534,0.00000,0.00000,0.01707,-0.03546,0.04950,-0.02066,-0.01214,0.02971,0.03154,0.99064,0.75200,0.00000,0.54393,0.52331,-0.00230,0.01172,0.72368,-0.01981,0.11119,1.83196,1.83196,A,140331.50
0.76834,57.68790228,11.98133563,57.68790317,11.98133533,14:03:31.674191,0.00577,0.00000,0.00000,0.01707,-0.03798,0.04721,-0.02890,-0.02008,0.01141,0.01604,1.00229,0.76242,0.00000,0.55703,0.53494,-0.00248,0.01271,0.72368,-0.01981,0.11119,1.83196,1.83196,A,140331.50
0.77807,57.68790229,11.98133562,57.68790317,11.98133533,14:03:31.683923,0.00510,0.00000,0.00000,0.01701,-0.04053,0.04812,-0.01867,-0.01916,-0.01379,0.01244,1.01077,0.77246,0.00000,0.57002,0.54644,-0.00265,0.01370,0.72368,-0.01981,0.11119,1.83196,1.83196,A,140331.50
0.78840,57.68790230,11.98133562,57.68790317,11.98133533,14:03:31.694250,0.00521,0.00000,0.00000,0.01710,-0.04305,0.03896,-0.01195,-0.02237,-0.02946,0.02910,1.02449,0.78249,0.00000,0.58289,0.55785,-0.00282,0.01467,0.72368,-0.01981,0.11119,1.83196,1.83196,A,140331.50
0.79905,57.68790231,11.98133562,57.68790317,11.98133533,14:03:31.704910,0.00546,0.00000,0.00000,0.01701,-0.04548,0.03759,0.00011,-0.02558,-0.02220,0.01677,1.02974,0.79307,0.00000,0.59564,0.56918,-0.00299,0.01564,0.72368,-0.01981,0.11119,1.83196,1.83196,A,140331.50
0.80925,57.68790232,11.98133561,57.68790317,11.98133533,14:03:31.715098,0.00525,0.00000,0.00000,0.01682,-0.04761,0.03591,0.01187,-0.02695,0.00689,0.01068,1.01333,0.80362,0.00000,0.60828,0.58059,-0.00316,0.01659,0.72368,-0.01981,0.11119,1.83196,1.83196,A,140331.50
0.81977,57.68790232,11.98133561,57.68790317,11.98133533,14:03:31.725612,0.00537,0.00000,0.00000,0.01704,-0.04939,0.03560,0.00760,-0.02191,0.05039,0.03831,0.97746,0.81386,0.00000,0.62081,0.59207,-0.00332,0.01754,0.72368,-0.01981,0.11119,1.83196,1.83196,A,140331.50
0.86185,57.68790233,11.98133561,57.68790333,11.98133517,14:03:31.767727,0.03724,0.00000,1.50000,0.01730,-0.05083,0.03071,0.00042,-0.02313,0.06320,0.04185,0.95489,0.82454,0.00000,0.63322,0.60364,-0.00349,0.01848,0.84156,-0.02972,0.12973,2.06169,2.06169,A,140331.60
0.87334,57.68790234,11.98133560,57.68790333,11.98133517,14:03:31.779185,0.00523,0.00000,0.00000,0.01833,-0.05610,0.03423,-0.01088,-0.02451,0.03550,0.02037,1.02352,0.86768,0.00000,0.64783,0.61519,-0.00375,0.01959,0.84156,-0.02972,0.12973,2.06169,2.06169,A,140331.60
0.88397,57.68790235,11.98133560,57.68790333,11.98133517,14:03:31.789815,0.00541,0.00000,0.00000,0.01809,-0.05757,0.02629,-0.01287,-0.02832,0.04026,0.01641,1.04188,0.87805,0.00000,0.66230,0.62880,-0.00401,0.02069,0.84156,-0.02972,0.12973,2.06169,2.06169,A,140331.60
0.89378,57.68790236,11.98133559,57.68790333,11.98133517,14:03:31.799632,0.00494,0.00000,0.00000,0.01777,-0.05890,0.02613,-0.01195,-0.02771,0.00531,0.01080,1.04420,0.88819,0.00000,0.67664,0.64236,-0.00427,0.02178,0.84156,-0.02972,0.12973,2.06169,2.06169,A,140331.60
0.90427,57.68790237,11.98133559,57.68790333,11.98133517,14:03:31.810116,0.00518,0.00000,0.00000,0.01776,-0.06014,0.02140,-0.01485,-0.02680,-0.01616,0.03538,1.02395,0.89837,0.00000,0.69084,0.65584,-0.00452,0.02286,0.84156,-0.02972,0.12973,2.06169,2.06169,A,140331.60
0.91458,57.68790238,11.98133559,57.68790333,11.98133517,14:03:31.820668,0.00509,0.00000,0.00000,0.01816,-0.06122,0.02170,-0.00157,-0.02771,-0.00720,0.06063,1.00314,0.90897,0.00000,0.70490,0.66927,-0.00478,0.02393,0.84156,-0.02972,0.12973,2.06169,2.06169,A,140331.60
0.92648,57.68790239,11.98133558,57.68790333,11.98133517,14:03:31.832570,0.00659,0.00000,0.00000,0.01827,-0.06207,0.03224,0.00088,-0.02481,0.03190,0.03422,0.97862,0.91914,0.00000,0.71883,0.68271,-0.00502,0.02499,0.84156,-0.02972,0.12973,2.06169,2.06169,A,140331.60
0.93825,57.68790240,11.98133558,57.68790333,11.98133517,14:03:31.844101,0.00798,0.00000,0.00000,0.01796,-0.06289,0.02812,-0.00752,-0.02558,0.05874,0.00378,0.94971,0.93256,0.00000,0.73263,0.69603,-0.00527,0.02603,0.84156,-0.02972,0.12973,2.06169,2.06169,A,140331.60
0.99057,57.68790241,11.98133557,57.68790417,11.98133467,14:03:31.896652,0.04989,0.00000,1.50000,0.01742,-0.06371,0.02170,-0.00783,-0.03046,0.03630,0.00189,0.95136,0.94013,0.00000,0.74629,0.70921,-0.00552,0.02707,0.97058,-0.05944,0.22239,1.88115,1.88115,A,140331.80
1.00130,57.68790243,11.98133556,57.68790417,11.98133467,14:03:31.907152,0.00522,0.00000,0.00000,0.01836,-0.06889,0.02812,-0.01440,-0.03184,0.05508,0.00909,1.03389,0.99565,0.00000,0.75804,0.71794,-0.00606,0.02902,0.97058,-0.05944,0.22239,1.88115,1.88115,A,140331.80
1.01203,57.68790245,11.98133556,57.68790417,11.98133467,14:03:31.917877,0.00554,0.00000,0.00000,0.01833,-0.06991,0.02338,-0.01867,-0.02939,0.02623,0.03202,1.02004,1.00610,0.00000,0.76967,0.72898,-0.00659,0.03096,0.97058,-0.05944,0.22239,1.88115,1.88115,A,140331.80
1.02286,57.68790246,11.98133555,57.68790417,11.98133467,14:03:31.928724,0.00549,0.00000,0.00000,0.01847,-0.07098,0.03285,-0.02203,-0.03260,-0.00726,0.03630,1.01852,1.01698,0.00000,0.78120,0.73988,-0.00712,0.03287,0.97058,-0.05944,0.22239,1.88115,1.88115,A,140331.80
1.03309,57.68790248,11.98133554,57.68790417,11.98133467,14:03:31.938936,0.00521,0.00000,0.00000,0.01871,-0.07209,0.03927,-0.01653,-0.03184,0.00549,0.03928,0.99839,1.02723,0.00000,0.79262,0.75066,-0.00764,0.03477,0.97058,-0.05944,0.22239,1.88115,1.88115,A,140331.80
1.04365,57.68790250,11.98133553,57.68790417,11.98133467,14:03:31.950504,0.00551,0.00000,0.00000,0.01867,-0.07325,0.03728,-0.00829,-0.03031,0.01470,0.02098,0.97057,1.03767,0.00000,0.80393,0.76129,-0.00816,0.03664,0.97058,-0.05944,0.22239,1.88115,1.88115,A,140331.80
1.05360,57.68790251,11.98133552,57.68790417,11.98133467,14:03:31.959640,0.00507,0.00000,0.00000,0.01861,-0.07435,0.04247,-0.00157,-0.02878,0.02318,0.01604,0.94550,1.04798,0.00000,0.81514,0.77185,-0.00867,0.03850,0.97058,-0.05944,0.22239,1.88115,1.88115,A,140331.80
1.06607,57.68790253,11.98133551,57.68790417,11.98133467,14:03:31.971909,0.00615,0.00000,0.00000,0.01862,-0.07551,0.03713,-0.00676,-0.02894,0.01653,0.01964,0.95422,1.06039,0.00000,0.82624,0.78227,-0.00918,0.04034,0.97058,-0.05944,0.22239,1.88115,1.88115,A,140331.80
1.10720,57.68790255,11.98133550,57.68790450,11.98133450,14:03:32.013074,0.03641,0.00000,1.50000,0.01870,-0.07650,0.03743,-0.00203,-0.03153,-0.00866,0.03019,0.97423,1.07016,0.00000,0.83723,0.79269,-0.00968,0.04216,1.08738,-0.06934,0.25945,1.83196,1.83196,A,140331.90
1.11808,57.68790257,11.98133549,57.68790450,11.98133450,14:03:32.023919,0.00526,0.00000,0.00000,0.02005,-0.08010,0.03942,-0.02279,-0.04436,-0.00567,0.03172,1.05085,1.11241,0.00000,0.84765,0.80101,-0.01028,0.04433,1.08738,-0.06934,0.25945,1.83196,1.83196,A,140331.90
1.12964,57.68790258,11.98133548,57.68790450,11.98133450,14:03:32.035490,0.00643,0.00000,0.00000,0.02020,-0.08120,0.04034,-0.01302,-0.04741,0.02227,0.03428,1.00937,1.12272,0.00000,0.85796,0.81068,-0.01087,0.04648,1.08738,-0.06934,0.25945,1.83196,1.83196,A,140331.90
1.13896,57.68790260,11.98133547,57.68790450,11.98133450,14:03:32.044815,0.00536,0.00000,0.00000,0.02049,-0.08245,0.04232,-0.01302,-0.04772,-0.00458,0.04136,0.98295,1.13310,0.00000,0.86818,0.82017,-0.01145,0.04861,1.08738,-0.06934,0.25945,1.83196,1.83196,A,140331.90
1.14929,57.68790262,11.98133546,57.68790450,11.98133450,14:03:32.055140,0.00529,0.00000,0.00000,0.02053,-0.08361,0.04156,-0.00936,-0.04787,-0.01452,0.02599,0.97643,1.14327,0.00000,0.87831,0.82962,-0.01203,0.05072,1.08738,-0.06934,0.25945,1.83196,1.83196,A,140331.90
1.15994,57.68790264,11.98133545,57.68790450,11.98133450,14:03:32.065787,0.00554,0.00000,0.00000,0.02047,-0.08474,0.04400,-0.00401,-0.04818,0.02007,0.01604,0.95331,1.15387,0.00000,0.88834,0.83899,-0.01261,0.05281,1.08738,-0.06934,0.25945,1.83196,1.83196,A,140331.90
1.16995,57.68790266,11.98133545,57.68790450,11.98133450,14:03:32.075795,0.00515,0.00000,0.00000,0.02068,-0.08567,0.03820,-0.00859,-0.04833,0.01049,0.03861,0.97496,1.16432,0.00000,0.89827,0.84837,-0.01317,0.05488,1.08738,-0.06934,0.25945,1.83196,1.83196,A,140331.90
1.18027,57.68790268,11.98133544,57.68790450,11.98133450,14:03:32.086120,0.00518,0.00000,0.00000,0.02095,-0.08652,0.04018,-0.00676,-0.04482,-0.00061,0.04301,0.99991,1.17438,0.00000,0.90811,0.85772,-0.01373,0.05692,1.08738,-0.06934,0.25945,1.83196,1.83196,A,140331.90
1.22282,57.68790270,11.98133543,57.68790500,11.98133383,14:03:32.128692,0.03732,0.00000,1.50000,0.02115,-0.08731,0.04003,-0.00615,-0.04833,0.02538,0.03910,1.03297,1.18498,0.00000,0.91786,0.86700,-0.01429,0.05895,1.20207,-0.10897,0.31505,2.19000,2.19000,A,140332.00
1.23663,57.68790272,11.98133541,57.68790500,11.98133383,14:03:32.142484,0.00827,0.00000,0.00000,0.02251,-0.09159,0.03927,-0.01577,-0.04864,0.00952,0.02977,0.99717,1.22888,0.00000,0.93111,0.87776,-0.01524,0.06151,1.20207,-0.10897,0.31505,2.19000,2.19000,A,140332.00
1.24411,57.68790274,11.98133539,57.68790500,11.98133383,14:03:32.149953,0.00519,0.00000,0.00000,0.02266,-0.09283,0.03942,-0.00920,-0.05093,-0.00616,0.03819,0.97447,1.23820,0.00000,0.94424,0.89016,-0.01617,0.06404,1.20207,-0.10897,0.31505,2.19000,2.19000,A,140332.00
1.25440,57.68790277,11.98133538,57.68790500,11.98133383,14:03:32.160247,0.00508,0.00000,0.00000,0.02309,-0.09396,0.04660,-0.00035,-0.04711,-0.02324,0.04965,0.98253,1.24879,0.00000,0.95725,0.90250,-0.01710,0.06655,1.20207,-0.10897,0.31505,2.19000,2.19000,A,140332.00
1.26483,57.68790279,11.98133536,57.68790500,11.98133383,14:03:32.170679,0.00512,0.00000,0.00000,0.02337,-0.09479,0.04812,0.01157,-0.04726,-0.00775,0.03965,0.97271,1.25896,0.00000,0.97013,0.91490,-0.01802,0.06904,1.20207,-0.10897,0.31505,2.19000,2.19000,A,140332.00
1.27575,57.68790281,11.98133535,57.68790500,11.98133383,14:03:32.181597,0.00565,0.00000,0.00000,0.02371,-0.09541,0.04812,0.01065,-0.04589,0.04660,0.04172,0.96667,1.26983,0.00000,0.98288,0.92729,-0.01893,0.07150,1.20207,-0.10897,0.31505,2.19000,2.19000,A,140332.00
1.28559,57.68790283,11.98133533,57.68790500,11.98133383,14:03:32.191428,0.00508,0.00000,0.00000,0.02423,-0.09572,0.04614,0.00592,-0.04971,0.06503,0.05618,0.96179,1.27997,0.00000,0.99551,0.93974,-0.01983,0.07393,1.20207,-0.10897,0.31505,2.19000,2.19000,A,140332.00
1.29626,57.68790285,11.98133532,57.68790500,11.98133383,14:03:32.202104,0.00521,0.00000,0.00000,0.02489,-0.09583,0.05042,-0.01317,-0.04787,0.03154,0.06527,0.99973,1.29035,0.00000,1.00802,0.95218,-0.02072,0.07635,1.20207,-0.10897,0.31505,2.19000,2.19000,A,140332.00
1.34209,57.68790287,11.98133530,57.68790550,11.98133333,14:03:32.247966,0.04064,0.00000,1.50000,0.02534,-0.09589,0.04644,-0.02005,-0.05093,0.03733,0.05557,1.02931,1.30092,0.00000,1.02039,0.96452,-0.02161,0.07873,1.31791,-0.13869,0.37065,2.06169,2.06169,A,140332.10
1.35445,57.68790290,11.98133528,57.68790550,11.98133333,14:03:32.260524,0.00526,0.00000,0.00000,0.02690,-0.09617,0.03652,0.00775,-0.06406,0.00488,0.04331,0.94715,1.34883,0.00000,1.03137,0.97533,-0.02278,0.08165,1.31791,-0.13869,0.37065,2.06169,2.06169,A,140332.10
1.36460,57.68790293,11.98133526,57.68790550,11.98133333,14:03:32.270445,0.00518,0.00000,0.00000,0.02739,-0.09626,0.03973,0.01172,-0.05841,0.01147,0.06100,0.94355,1.35874,0.00000,1.04223,0.98615,-0.02394,0.08454,1.31791,-0.13869,0.37065,2.06169,2.06169,A,140332.10
1.37517,57.68790295,11.98133524,57.68790550,11.98133333,14:03:32.281023,0.00535,0.00000,0.00000,0.02782,-0.09643,0.04278,0.00576,-0.05368,0.03898,0.05447,0.94019,1.36931,0.00000,1.05299,0.99680,-0.02508,0.08740,1.31791,-0.13869,0.37065,2.06169,2.06169,A,140332.10
1.38530,57.68790298,11.98133523,57.68790550,11.98133333,14:03:32.291153,0.00508,0.00000,0.00000,0.02790,-0.09680,0.03927,-0.00065,-0.05108,0.04288,0.03739,0.99759,1.37969,0.00000,1.06364,1.00724,-0.02622,0.09024,1.31791,-0.13869,0.37065,2.06169,2.06169,A,140332.10
1.39602,57.68790300,11.98133521,57.68790550,11.98133333,14:03:32.301868,0.00522,0.00000,0.00000,0.02814,-0.09753,0.03331,-0.01134,-0.05245,0.05673,0.05362,1.02632,1.39009,0.00000,1.07419,1.01736,-0.02734,0.09304,1.31791,-0.13869,0.37065,2.06169,2.06169,A,140332.10
1.40630,57.68790303,11.98133519,57.68790550,11.98133333,14:03:32.312151,0.00511,0.00000,0.00000,0.02817,-0.09866,0.02812,-0.01867,-0.05536,0.06442,0.04374,1.04584,1.40070,0.00000,1.08464,1.02714,-0.02846,0.09582,1.31791,-0.13869,0.37065,2.06169,2.06169,A,140332.10
1.41677,57.68790305,11.98133517,57.68790550,11.98133333,14:03:32.322617,0.00534,0.00000,0.00000,0.02810,-0.10019,0.02491,-0.02799,-0.06177,0.02324,0.03971,1.04755,1.41073,0.00000,1.09499,1.03660,-0.02956,0.09856,1.31791,-0.13869,0.37065,2.06169,2.06169,A,140332.10
1.46684,57.68790308,11.98133515,57.68790617,11.98133300,14:03:32.372718,0.04502,0.00000,1.50000,0.02813,-0.10197,0.01712,-0.02402,-0.06406,-0.01732,0.05100,1.02181,1.42132,0.00000,1.10525,1.04582,-0.03065,0.10128,1.44562,-0.15850,0.44478,1.83196,1.83196,A,140332.20
1.47748,57.68790311,11.98133513,57.68790617,11.98133300,14:03:32.383324,0.00526,0.00000,0.00000,0.02783,-0.11004,0.00353,-0.01776,-0.07078,0.08717,0.02556,0.94489,1.47181,0.00000,1.11316,1.04900,-0.03193,0.10472,1.44562,-0.15850,0.44478,1.83196,1.83196,A,140332.20
1.48800,57.68790314,11.98133511,57.68790617,11.98133300,14:03:32.393851,0.00538,0.00000,0.00000,0.02783,-0.11140,-0.00044,-0.02295,-0.07261,0.02080,0.05941,0.99875,1.48207,0.00000,1.12100,1.05605,-0.03319,0.10812,1.44562,-0.15850,0.44478,1.83196,1.83196,A,140332.20
1.49809,57.68790317,11.98133509,57.68790617,11.98133300,14:03:32.403936,0.00508,0.00000,0.00000,0.02747,-0.11284,-0.00334,-0.02386,-0.07933,-0.00854,0.03861,1.03017,1.49248,0.00000,1.12877,1.06297,-0.03445,0.11149,1.44562,-0.15850,0.44478,1.83196,1.83196,A,140332.20
1.50859,57.68790320,11.98133507,57.68790617,11.98133300,14:03:32.414439,0.00535,0.00000,0.00000,0.02708,-0.11454,-0.00838,-0.01806,-0.08850,0.04081,0.03965,1.04688,1.50254,0.00000,1.13647,1.06967,-0.03569,0.11482,1.44562,-0.15850,0.44478,1.83196,1.83196,A,140332.20
1.51905,57.68790323,11.98133505,57.68790617,11.98133300,14:03:32.424911,0.00558,0.00000,0.00000,0.02630,-0.11658,-0.01159,-0.01699,-0.09170,0.08064,0.01470,1.02309,1.51316,0.00000,1.14410,1.07611,-0.03692,0.11812,1.44562,-0.15850,0.44478,1.83196,1.83196,A,140332.20
1.52910,57.68790326,11.98133503,57.68790617,11.98133300,14:03:32.434947,0.00524,0.00000,0.00000,0.02613,-0.11867,-0.02518,-0.01791,-0.09231,0.02739,0.06289,0.99216,1.52327,0.00000,1.15167,1.08245,-0.03813,0.12139,1.44562,-0.15850,0.44478,1.83196,1.83196,A,140332.20
1.54136,57.68790329,11.98133500,57.68790617,11.98133300,14:03:32.447213,0.00710,0.00000,0.00000,0.02570,-0.12088,-0.02564,-0.01287,-0.09369,0.00183,0.04374,0.95819,1.53373,0.00000,1.15918,1.08866,-0.03934,0.12462,1.44562,-0.15850,0.44478,1.83196,1.83196,A,140332.20
1.59390,57.68790332,11.98133498,57.68790700,11.98133200,14:03:32.499776,0.04898,0.00000,1.50000,0.02560,-0.12312,-0.02686,-0.00416,-0.09124,-0.00592,0.06722,0.94788,1.54535,0.00000,1.16663,1.09480,-0.04053,0.12782,1.57299,-0.21794,0.53744,2.14113,2.14113,A,140332.40
1.60473,57.68790335,11.98133495,57.68790700,11.98133200,14:03:32.510578,0.00531,0.00000,0.00000,0.02348,-0.13384,-0.04961,-0.00936,-0.09857,-0.02800,0.09455,1.04963,1.59878,0.00000,1.17715,1.09902,-0.04230,0.13192,1.57299,-0.21794,0.53744,2.14113,2.14113,A,140332.40
1.61518,57.68790339,11.98133493,57.68790700,11.98133200,14:03:32.521030,0.00536,0.00000,0.00000,0.02305,-0.13650,-0.05053,-0.00325,-0.10545,0.00122,0.06210,1.02205,1.60931,0.00000,1.18759,1.10789,-0.04406,0.13597,1.57299,-0.21794,0.53744,2.14113,2.14113,A,140332.40
1.62552,57.68790343,11.98133490,57.68790700,11.98133200,14:03:32.531365,0.00531,0.00000,0.00000,0.02287,-0.13905,-0.04946,0.00042,-0.10606,0.04502,0.07674,1.00058,1.61987,0.00000,1.19794,1.11674,-0.04580,0.13999,1.57299,-0.21794,0.53744,2.14113,2.14113,A,140332.40
1.63598,57.68790346,11.98133487,57.68790700,11.98133200,14:03:32.541826,0.00537,0.00000,0.00000,0.02189,-0.14157,-0.05435,0.00057,-0.10911,0.07399,0.02428,0.96484,1.63007,0.00000,1.20820,1.12551,-0.04752,0.14396,1.57299,-0.21794,0.53744,2.14113,2.14113,A,140332.40
1.66248,57.68790350,11.98133484,57.68790700,11.98133200,14:03:32.579086,0.01539,0.00000,0.00000,0.01990,-0.14502,-0.06565,-0.00630,-0.11186,0.02214,0.03270,0.92751,1.65671,0.00000,1.21837,1.13365,-0.04922,0.14790,1.57299,-0.21794,0.53744,2.14113,2.14113,A,140332.40
1.76119,57.68790353,11.98133481,57.68790783,11.98133167,14:03:32.667079,0.06751,0.00000,1.50000,0.01519,-0.15547,-0.08733,-0.01913,-0.12958,0.00146,0.04056,1.08556,1.70907,0.00000,1.22851,1.13762,-0.05091,0.15179,1.72683,-0.23775,0.63010,1.78144,1.78144,A,140332.50
1.77393,57.68790357,11.98133478,57.68790783,11.98133167,14:03:32.679781,0.00733,0.00000,0.00000,0.01025,-0.16781,-0.07390,-0.01333,-0.12759,-0.00293,0.00152,0.98588,1.76778,0.00000,1.23502,1.13683,-0.05278,0.15658,1.72683,-0.23775,0.63010,1.78144,1.78144,A,140332.50
1.78332,57.68790362,11.98133475,57.68790783,11.98133167,14:03:32.689174,0.00632,0.00000,0.00000,0.00917,-0.16885,-0.08107,-0.01210,-0.12561,0.01159,0.02111,1.03584,1.77739,0.00000,1.24147,1.14267,-0.05463,0.16131,1.72683,-0.23775,0.63010,1.78144,1.78144,A,140332.50
1.79284,57.68790366,11.98133472,57.68790783,11.98133167,14:03:32.698689,0.00561,0.00000,0.00000,0.00769,-0.16984,-0.07664,-0.01455,-0.12683,-0.01348,-0.01068,1.06579,1.78695,0.00000,1.24787,1.14847,-0.05646,0.16600,1.72683,-0.23775,0.63010,1.78144,1.78144,A,140332.50
1.80296,57.68790370,11.98133469,57.68790783,11.98133167,14:03:32.708808,0.00532,0.84102,0.84102,0.00692,-0.17083,-0.08092,-0.00615,-0.12729,0.01318,0.03361,1.05835,1.79711,0.16820,1.25420,1.15422,-0.05827,0.17064,1.72683,-0.23775,0.63010,1.78144,1.78144,A,140332.50
1.81321,57.68790375,11.98133467,57.68790783,11.98133167,14:03:32.719061,0.00529,0.84102,0.84102,0.00597,-0.17171,-0.07649,0.00439,-0.13080,-0.01318,0.01647,1.03798,1.80720,0.30277,1.26026,1.15976,-0.05948,0.17655,1.72683,-0.23775,0.63010,1.78144,1.78144,A,140332.50
1.82370,57.68790382,11.98133465,57.68790783,11.98133167,14:03:32.729546,0.00538,0.84102,0.84102,0.00500,-0.17236,-0.07664,0.00775,-0.12912,0.00067,0.01409,0.94953,1.81780,0.41042,1.26611,1.16522,-0.06026,0.18340,1.72683,-0.23775,0.63010,1.78144,1.78144,A,140332.50
1.87723,57.68790388,11.98133465,57.68790817,11.98133083,14:03:32.783116,0.04851,0.84102,1.50000,0.00502,-0.17267,-0.07252,0.01218,-0.13126,-0.01226,0.07094,0.93476,1.82818,0.49654,1.27176,1.17069,-0.06070,0.19098,1.84512,-0.28728,0.66717,2.49917,2.49917,A,140332.60
1.89756,57.68790417,11.98133480,57.68790817,11.98133083,14:03:32.803437,0.01200,9.59725,1.50000,0.00226,-0.17273,-0.06397,-0.01943,-0.12118,-0.03611,0.07723,1.01785,1.88900,0.69723,1.28058,1.17947,-0.05143,0.22302,1.84512,-0.28728,0.66717,2.49917,2.49917,A,140332.60
1.91545,57.68790430,11.98133483,57.68790817,11.98133083,14:03:32.821301,0.01068,9.59725,1.50000,0.00131,-0.17219,-0.04076,-0.00019,-0.11354,-0.03245,-0.00915,1.02956,1.90865,0.85778,1.29215,1.19136,-0.04969,0.23739,1.84512,-0.28728,0.66717,2.49917,2.49917,A,140332.60
1.93987,57.68790449,11.98133490,57.68790817,11.98133083,14:03:32.845718,0.01475,9.59725,1.50000,0.00054,-0.16599,-0.04412,-0.01989,-0.08544,0.04252,0.02068,0.99936,1.93307,0.98623,1.30244,1.20533,-0.04530,0.25865,1.84512,-0.28728,0.66717,2.49917,2.49917,A,140332.60
2.01206,57.68790468,11.98133497,57.68791000,11.98132950,14:03:32.917937,0.06371,9.59725,1.50000,0.00026,-0.15575,-0.04885,-0.02173,-0.08483,-0.08863,0.05191,0.98143,1.95482,1.08898,1.31265,1.22160,-0.04115,0.27991,1.98244,-0.36653,0.87103,1.94157,1.94157,A,140332.80
2.03720,57.68790540,11.98133537,57.68791000,11.98132950,14:03:32.943093,0.01435,9.59725,1.50000,-0.00219,-0.12190,-0.04076,-0.00035,-0.05215,0.01781,0.04477,1.00375,2.02931,1.17119,1.30904,1.23793,-0.01770,0.35916,1.98244,-0.36653,0.87103,1.94157,1.94157,A,140332.80
2.05792,57.68790565,11.98133544,57.68791000,11.98132950,14:03:32.963768,0.01046,9.59725,1.50000,-0.00239,-0.11338,-0.04412,-0.00248,-0.03825,0.00671,0.06124,1.00314,2.05223,1.23695,1.31343,1.24731,-0.01320,0.38738,1.98244,-0.36653,0.87103,1.94157,1.94157,A,140332.80
2.07649,57.68790586,11.98133549,57.68791000,11.98132950,14:03:32.982347,0.00913,9.59725,1.50000,-0.00231,-0.10761,-0.03755,0.01111,-0.04589,-0.02757,0.05703,0.99814,2.06968,1.28956,1.31845,1.25572,-0.01065,0.41036,1.98244,-0.36653,0.87103,1.94157,1.94157,A,140332.80
2.12349,57.68790599,11.98133549,57.68791067,11.98132900,14:03:33.029365,0.04609,9.59725,1.50000,-0.00248,-0.10461,-0.03541,0.01951,-0.04528,-0.00275,0.02342,0.96612,2.08132,1.33165,1.32424,1.26327,-0.01074,0.42562,2.09938,-0.39625,0.94516,1.95208,1.95208,A,140332.90
2.13716,57.68790656,11.98133573,57.68791067,11.98132900,14:03:33.043007,0.00792,9.59725,1.50000,-0.00544,-0.09046,-0.05420,-0.01317,-0.05169,-0.05417,-0.01013,1.03981,2.13065,1.36532,1.32549,1.27280,0.00386,0.48892,2.09938,-0.39625,0.94516,1.95208,1.95208,A,140332.90
2.15349,57.68790676,11.98133575,57.68791067,11.98132900,14:03:33.059341,0.01378,9.59725,1.50000,-0.00588,-0.08697,-0.05099,0.00683,-0.05337,0.00573,0.03520,1.03749,2.14656,1.39225,1.33085,1.28019,0.00514,0.51066,2.09938,-0.39625,0.94516,1.95208,1.95208,A,140332.90
2.17307,57.68790698,11.98133579,57.68791067,11.98132900,14:03:33.078920,0.01155,9.59725,1.50000,-0.00688,-0.08378,-0.05725,0.00347,-0.04314,0.04081,0.01305,0.98759,2.16526,1.41380,1.33591,1.28712,0.00730,0.53566,2.09938,-0.39625,0.94516,1.95208,1.95208,A,140332.90
2.19296,57.68790723,11.98133583,57.68791067,11.98132900,14:03:33.098814,0.00958,9.59725,1.50000,-0.00740,-0.08151,-0.04595,-0.01592,-0.03367,0.01159,0.03379,0.93647,2.18622,1.43104,1.34081,1.29334,0.00995,0.56267,2.09938,-0.39625,0.94516,1.95208,1.95208,A,140332.90
2.25224,57.68790738,11.98133583,57.68791117,11.98132817,14:03:33.158121,0.05840,9.59725,1.50000,-0.00756,-0.08061,-0.04366,-0.01653,-0.02939,-0.03270,0.03166,0.96331,2.19842,1.44483,1.34645,1.29951,0.00951,0.57923,2.21665,-0.44578,1.00075,2.29855,2.29855,A,140333.00
2.27173,57.68790821,11.98133617,57.68791117,11.98132817,14:03:33.177571,0.00839,9.59725,1.50000,-0.01017,-0.07316,-0.04793,0.00760,-0.03749,0.04404,0.04563,0.97240,2.26571,1.45587,1.34994,1.30734,0.02964,0.67218,2.21665,-0.44578,1.00075,2.29855,2.29855,A,140333.00
2.28444,57.68790837,11.98133615,57.68791117,11.98132817,14:03:33.190286,0.01092,9.59725,1.50000,-0.01035,-0.07073,-0.04992,-0.01195,-0.02802,0.04557,0.03459,0.94117,2.27847,1.46469,1.35886,1.31769,0.02887,0.69024,2.21665,-0.44578,1.00075,2.29855,2.29855,A,140333.00
2.30463,57.68790860,11.98133617,57.68791117,11.98132817,14:03:33.210475,0.01410,9.59725,1.50000,-0.01133,-0.06750,-0.05022,-0.02050,-0.02390,-0.01397,0.00018,0.94818,2.29604,1.47176,1.36727,1.32798,0.02974,0.71505,2.21665,-0.44578,1.00075,2.29855,2.29855,A,140333.00
2.37407,57.68790884,11.98133619,57.68791217,11.98132750,14:03:33.279947,0.06118,9.59725,1.50000,-0.01213,-0.06436,-0.05328,-0.01226,-0.01763,-0.02867,0.02916,1.00424,2.31742,1.47740,1.37553,1.33807,0.03082,0.74149,2.33744,-0.48540,1.11195,1.91312,1.91312,A,140333.10
2.39112,57.68790970,11.98133647,57.68791217,11.98132750,14:03:33.296981,0.01042,9.59725,1.50000,-0.01521,-0.05612,-0.04610,0.00897,-0.01519,0.06435,0.00750,0.96325,2.38519,1.48192,1.37591,1.34325,0.04757,0.83764,2.33744,-0.48540,1.11195,1.91312,1.91312,A,140333.10
2.40838,57.68790991,11.98133646,57.68791217,11.98132750,14:03:33.314241,0.00956,9.59725,1.50000,-0.01596,-0.05440,-0.04183,-0.00783,-0.01244,-0.03477,-0.00262,0.96813,2.40026,1.48554,1.38058,1.34893,0.04696,0.86073,2.33744,-0.48540,1.11195,1.91312,1.91312,A,140333.10
2.41848,57.68791004,11.98133641,57.68791217,11.98132750,14:03:33.324587,0.00841,9.59725,1.50000,-0.01695,-0.05329,-0.04625,0.00072,-0.01519,-0.02294,-0.02214,0.96203,2.41284,1.48843,1.38563,1.35462,0.04435,0.87530,2.33744,-0.48540,1.11195,1.91312,1.91312,A,140333.10
2.43124,57.68791020,11.98133638,57.68791217,11.98132750,14:03:33.337096,0.01010,9.59725,1.50000,-0.01767,-0.05247,-0.05435,0.00637,-0.02084,-0.00573,0.00073,0.97490,2.42533,1.49074,1.39048,1.35995,0.04244,0.89307,2.33744,-0.48540,1.11195,1.91312,1.91312,A,140333.10
2.50584,57.68791048,11.98133640,57.68791367,11.98132617,14:03:33.411709,0.06453,9.59725,1.50000,-0.01856,-0.05120,-0.04641,0.00561,-0.01748,0.00281,0.01196,0.99668,2.44760,1.49260,1.39462,1.36484,0.04348,0.92479,2.47664,-0.56465,1.27874,2.01436,2.01436,A,140333.30
2.52416,57.68791140,11.98133664,57.68791367,11.98132617,14:03:33.430008,0.00754,1.14643,1.14643,-0.02105,-0.04888,-0.03617,0.00958,-0.02298,-0.01806,0.00641,0.96947,2.51736,1.42336,1.39664,1.36820,0.05793,1.02659,2.47664,-0.56465,1.27874,2.01436,2.01436,A,140333.30
2.53245,57.68791150,11.98133657,57.68791367,11.98132617,14:03:33.438296,0.00538,1.14643,1.14643,-0.02103,-0.04862,-0.03037,0.01523,-0.02298,-0.00232,0.02385,0.96648,2.52654,1.36798,1.40272,1.37443,0.05347,1.03775,2.47664,-0.56465,1.27874,2.01436,2.01436,A,140333.30
2.54256,57.68791162,11.98133650,57.68791367,11.98132617,14:03:33.448660,0.00510,1.14643,1.14643,-0.02168,-0.04817,-0.03220,0.01890,-0.01580,-0.02196,-0.01623,0.97149,2.53696,1.32367,1.40864,1.38061,0.04950,1.05124,2.47664,-0.56465,1.27874,2.01436,2.01436,A,140333.30
2.55302,57.68791174,11.98133643,57.68791367,11.98132617,14:03:33.458864,0.00515,1.14643,1.14643,-0.02155,-0.04746,-0.02762,0.01981,-0.01137,-0.00049,0.03026,0.98118,2.54713,1.28822,1.41451,1.38690,0.04544,1.06433,2.47664,-0.56465,1.27874,2.01436,2.01436,A,140333.30
2.56365,57.68791185,11.98133636,57.68791367,11.98132617,14:03:33.469498,0.00538,1.14643,1.14643,-0.02240,-0.04661,-0.02472,0.01523,-0.00862,0.02306,-0.03434,0.99826,2.55773,1.25986,1.42033,1.39321,0.04133,1.07718,2.47664,-0.56465,1.27874,2.01436,2.01436,A,140333.30
2.57375,57.68791196,11.98133629,57.68791367,11.98132617,14:03:33.479595,0.00508,1.14643,1.14643,-0.02255,-0.04571,-0.02075,0.01645,-0.00725,0.02129,0.00769,0.99869,2.56811,1.23718,1.42612,1.39953,0.03710,1.08939,2.47664,-0.56465,1.27874,2.01436,2.01436,A,140333.30
2.62386,57.68791207,11.98133622,57.68791483,11.98132550,14:03:33.529739,0.04478,1.14643,1.50000,-0.02341,-0.04477,-0.01281,0.00760,-0.00420,0.01141,-0.04483,0.99418,2.57837,1.21903,1.43185,1.40580,0.03285,1.10151,2.59543,-0.60428,1.40847,1.86724,1.86724,A,140333.40
2.63961,57.68791267,11.98133629,57.68791483,11.98132550,14:03:33.545450,0.00564,1.14643,1.14643,-0.02389,-0.03863,-0.00777,0.01248,-0.00786,-0.02379,-0.00037,0.98100,2.63365,1.20451,1.43393,1.41145,0.03703,1.16793,2.59543,-0.60428,1.40847,1.86724,1.86724,A,140333.40
2.65109,57.68791279,11.98133621,57.68791483,11.98132550,14:03:33.556946,0.00637,1.14643,1.14643,-0.02419,-0.03668,-0.00930,0.01874,-0.00817,-0.07479,-0.00964,1.01144,2.64519,1.19289,1.43809,1.41676,0.03240,1.18144,2.59543,-0.60428,1.40847,1.86724,1.86724,A,140333.40
2.66052,57.68791289,11.98133613,57.68791483,11.98132550,14:03:33.566367,0.00540,1.14643,1.14643,-0.02359,-0.03490,-0.00044,0.03463,-0.00756,-0.01214,0.04343,1.00089,2.65463,1.18360,1.44230,1.42200,0.02742,1.19263,2.59543,-0.60428,1.40847,1.86724,1.86724,A,140333.40
2.67086,57.68791300,11.98133605,57.68791483,11.98132550,14:03:33.576719,0.00534,1.14643,1.14643,-0.02396,-0.03289,-0.00181,0.02745,-0.00526,-0.01196,-0.01995,1.00601,2.66501,1.17617,1.44644,1.42732,0.02255,1.20444,2.59543,-0.60428,1.40847,1.86724,1.86724,A,140333.40
2.68119,57.68791310,11.98133596,57.68791483,11.98132550,14:03:33.587035,0.00527,1.14643,1.14643,-0.02401,-0.03102,-0.00533,0.01447,-0.00038,0.01159,0.00409,0.98985,2.67519,1.17022,1.45055,1.43251,0.01768,1.21616,2.59543,-0.60428,1.40847,1.86724,1.86724,A,140333.40
2.69173,57.68791321,11.98133588,57.68791483,11.98132550,14:03:33.597579,0.00542,1.14643,1.14643,-0.02435,-0.02921,-0.00120,0.00851,0.00313,0.05545,-0.01775,0.99204,2.68580,1.16546,1.45463,1.43764,0.01281,1.22779,2.59543,-0.60428,1.40847,1.86724,1.86724,A,140333.40
2.75039,57.68791331,11.98133580,57.68791550,11.98132500,14:03:33.656279,0.05367,1.14643,1.50000,-0.02390,-0.02765,-0.00472,-0.00203,0.00772,-0.00720,0.03654,0.99271,2.69619,1.16166,1.45867,1.44259,0.00791,1.23909,2.71326,-0.63400,1.48260,1.95208,1.95208,A,140333.50
2.76841,57.68791399,11.98133585,57.68791550,11.98132500,14:03:33.674253,0.00671,1.14643,1.14643,-0.02328,-0.02035,0.00048,0.00301,0.01856,-0.03587,0.04447,1.00168,2.76245,1.15861,1.46194,1.45010,0.01097,1.31508,2.71326,-0.63400,1.48260,1.95208,1.95208,A,140333.50
2.77792,57.68791409,11.98133576,57.68791550,11.98132500,14:03:33.683759,0.00581,1.14643,1.14643,-0.02300,-0.01927,-0.00029,0.00561,0.01902,0.01610,0.02446,0.98600,2.77138,1.15618,1.46680,1.45559,0.00559,1.32552,2.71326,-0.63400,1.48260,1.95208,1.95208,A,140333.50
2.78793,57.68791418,11.98133567,57.68791550,11.98132500,14:03:33.693769,0.00542,1.14643,1.14643,-0.02303,-0.01792,0.00659,0.01111,0.01825,-0.03026,-0.00055,0.96758,2.78199,1.15423,1.47160,1.46118,0.00023,1.33611,2.71326,-0.63400,1.48260,1.95208,1.95208,A,140333.50
2.79800,57.68791428,11.98133558,57.68791550,11.98132500,14:03:33.703843,0.00510,1.14643,1.14643,-0.02317,-0.01650,-0.00334,0.01523,0.01489,0.02178,-0.00085,1.00778,2.79237,1.15267,1.47635,1.46676,-0.00507,1.34698,2.71326,-0.63400,1.48260,1.95208,1.95208,A,140333.50
2.80839,57.68791438,11.98133549,57.68791550,11.98132500,14:03:33.714240,0.00524,1.14643,1.14643,-0.02333,-0.01514,-0.00304,0.01462,0.01367,-0.01982,-0.00189,0.99820,2.80248,1.15142,1.48106,1.47226,-0.01038,1.35778,2.71326,-0.63400,1.48260,1.95208,1.95208,A,140333.50
2.86755,57.68791448,11.98133540,57.68791650,11.98132433,14:03:33.773439,0.05400,1.14643,1.50000,-0.02310,-0.01384,-0.01082,0.00821,0.01260,-0.00891,0.02855,0.99674,2.81305,1.15042,1.48573,1.47768,-0.01566,1.36868,2.83012,-0.67362,1.59379,1.91312,1.91312,A,140333.60
2.88600,57.68791516,11.98133541,57.68791650,11.98132433,14:03:33.791854,0.00662,1.14643,1.14643,-0.02361,-0.01090,-0.01159,0.03035,0.02436,0.02593,0.02416,1.02584,2.87962,1.14963,1.48917,1.48284,-0.01537,1.44443,2.83012,-0.67362,1.59379,1.91312,1.91312,A,140333.60
2.89513,57.68791524,11.98133531,57.68791650,11.98132433,14:03:33.800983,0.00536,1.14643,1.14643,-0.02349,-0.01090,-0.00013,0.02837,0.02253,0.00811,0.01543,1.03657,2.88928,1.14899,1.49340,1.48706,-0.02124,1.45402,2.83012,-0.67362,1.59379,1.91312,1.91312,A,140333.60
2.90529,57.68791534,11.98133521,57.68791650,11.98132433,14:03:33.811133,0.00512,1.14643,1.14643,-0.02412,-0.01090,-0.00517,0.02516,0.01978,0.02580,-0.03337,1.03651,2.89964,1.14848,1.49757,1.49123,-0.02695,1.46514,2.83012,-0.67362,1.59379,1.91312,1.91312,A,140333.60
2.91612,57.68791544,11.98133512,57.68791650,11.98132433,14:03:33.821971,0.00555,1.14643,1.14643,-0.02434,-0.01090,-0.01113,0.02088,0.02192,-0.00183,-0.00098,1.03450,2.91020,1.14807,1.50169,1.49536,-0.03263,1.47636,2.83012,-0.67362,1.59379,1.91312,1.91312,A,140333.60
2.92607,57.68791554,11.98133502,57.68791650,11.98132433,14:03:33.831916,0.00510,1.14643,1.14643,-0.02468,-0.01090,-0.01815,0.01447,0.01657,0.01653,-0.00488,1.00711,2.92046,1.14774,1.50578,1.49945,-0.03833,1.48680,2.83012,-0.67362,1.59379,1.91312,1.91312,A,140333.60
2.98963,57.68791563,11.98133493,57.68791867,11.98132300,14:03:33.895505,0.05843,1.14643,1.50000,-0.02450,-0.01090,-0.01281,0.01981,0.01642,-0.04551,0.02556,0.98985,2.93051,1.14748,1.50983,1.50349,-0.04402,1.49726,2.95835,-0.75287,1.83472,1.88859,1.88859,A,140333.80
3.00600,57.68791634,11.98133489,57.68791867,11.98132300,14:03:33.911875,0.00664,1.14643,1.14643,-0.02560,-0.01090,-0.02090,0.02775,0.00817,-0.00775,0.02611,1.01046,2.99880,1.14727,1.51297,1.50663,-0.04605,1.57569,2.95835,-0.75287,1.83472,1.88859,1.88859,A,140333.80
3.01640,57.68791645,11.98133478,57.68791867,11.98132300,14:03:33.922243,0.00664,1.14643,1.14643,-0.02594,-0.01090,-0.02212,0.03402,0.01428,0.05167,-0.00183,1.00052,3.01042,1.14710,1.51669,1.51035,-0.05245,1.58861,2.95835,-0.75287,1.83472,1.88859,1.88859,A,140333.80
3.02526,57.68791655,11.98133467,57.68791867,11.98132300,14:03:33.931100,0.00510,1.14643,1.14643,-0.02621,-0.01090,-0.02014,0.02943,0.01230,0.03001,-0.00146,0.99149,3.01961,1.14697,1.52040,1.51406,-0.05897,1.59910,2.95835,-0.75287,1.83472,1.88859,1.88859,A,140333.80
3.03578,57.68791666,11.98133457,57.68791867,11.98132300,14:03:33.941626,0.00540,1.14643,1.14643,-0.02667,-0.01090,-0.01846,0.02409,0.01138,0.02105,-0.01525,1.03926,3.02987,1.14686,1.52405,1.51771,-0.06536,1.61104,2.95835,-0.75287,1.83472,1.88859,1.88859,A,140333.80
3.04599,57.68791676,11.98133446,57.68791867,11.98132300,14:03:33.951839,0.00516,1.14643,1.14643,-0.02725,-0.01090,-0.02075,0.01493,0.01108,0.02062,-0.02202,1.03596,3.04018,1.14678,1.52767,1.52133,-0.07174,1.62262,2.95835,-0.75287,1.83472,1.88859,1.88859,A,140333.80
3.05644,57.68791686,11.98133435,57.68791867,11.98132300,14:03:33.962286,0.00535,1.14643,1.14643,-0.02710,-0.01090,-0.02121,0.00729,0.01459,-0.06521,0.02727,1.01510,3.05053,1.14671,1.53125,1.52492,-0.07808,1.63425,2.95835,-0.75287,1.83472,1.88859,1.88859,A,140333.80
3.10650,57.68791697,11.98133425,57.68791967,11.98132217,14:03:34.013547,0.04501,1.14643,1.50000,-0.02759,-0.01090,-0.02136,0.01080,0.01688,-0.00921,-0.01470,0.97929,3.06096,1.14665,1.53480,1.52846,-0.08440,1.64573,3.07781,-0.80240,1.94591,1.98985,1.98985,A,140333.90
3.12414,57.68791756,11.98133417,57.68791967,11.98132217,14:03:34.029988,0.00714,1.26732,1.26732,-0.02822,-0.01090,-0.00838,0.01798,0.02360,0.01019,-0.00842,0.99918,3.11817,1.17079,1.53882,1.53248,-0.08891,1.71161,3.07781,-0.80240,1.94591,1.98985,1.98985,A,140333.90
3.13271,57.68791765,11.98133406,57.68791967,11.98132217,14:03:34.038560,0.00541,1.26732,1.26732,-0.02883,-0.01090,-0.00777,0.01126,0.02467,0.06332,-0.03270,0.94550,3.12665,1.19009,1.54332,1.53698,-0.09576,1.72133,3.07781,-0.80240,1.94591,1.98985,1.98985,A,140333.90
3.14305,57.68791776,11.98133394,57.68791967,11.98132217,14:03:34.048908,0.00535,1.26732,1.26732,-0.02917,-0.01084,-0.01327,-0.00126,0.02955,-0.01531,-0.01318,1.01565,3.13719,1.20554,1.54776,1.54145,-0.10250,1.73339,3.07781,-0.80240,1.94591,1.98985,1.98985,A,140333.90
3.15341,57.68791787,11.98133383,57.68791967,11.98132217,14:03:34.059256,0.00531,1.26732,1.26732,-0.02927,-0.01073,-0.00731,-0.00462,0.03337,-0.01592,-0.00092,1.03859,3.14737,1.21790,1.55214,1.54591,-0.10920,1.74579,3.07781,-0.80240,1.94591,1.98985,1.98985,A,140333.90
3.16417,57.68791798,11.98133372,57.68791967,11.98132217,14:03:34.070013,0.00567,1.26732,1.26732,-0.02920,-0.01050,-0.01143,-0.00340,0.03536,-0.06417,0.01385,1.04591,3.15826,1.22778,1.55648,1.55038,-0.11587,1.75826,3.07781,-0.80240,1.94591,1.98985,1.98985,A,140333.90
3.17400,57.68791808,11.98133361,57.68791967,11.98132217,14:03:34.079843,0.00511,1.26732,1.26732,-0.02953,-0.01022,-0.00349,0.00149,0.03001,-0.04471,-0.01976,1.03145,3.16839,1.23569,1.56079,1.55485,-0.12253,1.76994,3.07781,-0.80240,1.94591,1.98985,1.98985,A,140333.90
3.22594,57.68791819,11.98133349,57.68792067,11.98132150,14:03:34.131815,0.04679,1.26732,1.50000,-0.02945,-0.00988,-0.00563,0.00668,0.02925,-0.05569,0.00903,0.98332,3.17845,1.24202,1.56504,1.55930,-0.12917,1.78185,3.19552,-0.84203,2.05711,1.91312,1.91312,A,140334.00
3.24415,57.68791884,11.98133339,57.68792067,11.98132150,14:03:34.149999,0.00802,1.26732,1.26732,-0.03006,-0.00560,-0.00563,0.02378,0.02772,-0.01787,-0.01818,1.01638,3.23729,1.24708,1.56796,1.56470,-0.13550,1.85442,3.19552,-0.84203,2.05711,1.91312,1.91312,A,140334.00
3.25198,57.68791893,11.98133327,57.68792067,11.98132150,14:03:34.157820,0.00546,1.26732,1.26732,-0.03057,-0.00475,-0.01586,0.00912,0.02543,-0.00378,-0.02489,1.03108,3.24601,1.25113,1.57140,1.56864,-0.14252,1.86353,3.19552,-0.84203,2.05711,1.91312,1.91312,A,140334.00
3.26217,57.68791904,11.98133315,57.68792067,11.98132150,14:03:34.168011,0.00525,1.26732,1.26732,-0.03050,-0.00388,-0.01250,0.00790,0.02757,-0.08839,0.01348,1.02602,3.25654,1.25437,1.57480,1.57254,-0.14949,1.87589,3.19552,-0.84203,2.05711,1.91312,1.91312,A,140334.00
3.27237,57.68791914,11.98133303,57.68792067,11.98132150,14:03:34.178211,0.00522,1.26732,1.26732,-0.03065,-0.00314,-0.01342,0.01019,0.03123,-0.07119,-0.00098,0.99674,3.26645,1.25696,1.57817,1.57634,-0.15643,1.88779,3.19552,-0.84203,2.05711,1.91312,1.91312,A,140334.00
3.28288,57.68791925,11.98133292,57.68792067,11.98132150,14:03:34.188740,0.00534,1.26732,1.26732,-0.03004,-0.00255,-0.00655,0.02195,0.03276,-0.06326,0.04337,0.96160,3.27703,1.25903,1.58150,1.58002,-0.16335,1.90007,3.19552,-0.84203,2.05711,1.91312,1.91312,A,140334.00
3.29304,57.68791936,11.98133280,57.68792067,11.98132150,14:03:34.198892,0.00510,1.26732,1.26732,-0.03065,-0.00212,-0.00808,0.03142,0.03459,0.00134,-0.03263,0.94538,3.28720,1.26069,1.58481,1.58357,-0.17023,1.91232,3.19552,-0.84203,2.05711,1.91312,1.91312,A,140334.00
3.34430,57.68791947,11.98133269,57.68792167,11.98132083,14:03:34.250170,0.04597,1.26732,1.50000,-0.03052,-0.00178,-0.01296,0.02546,0.03963,-0.03867,0.01702,0.93995,3.29781,1.26202,1.58808,1.58704,-0.17709,1.92452,3.31499,-0.88165,2.16830,1.91312,1.91312,A,140334.10
3.35852,57.68792008,11.98133255,57.68792167,11.98132083,14:03:34.264608,0.00745,1.26732,1.26732,-0.03089,-0.00028,-0.01021,-0.00691,0.04223,0.02928,0.01281,1.03700,3.35213,1.26308,1.59123,1.59107,-0.18520,1.99225,3.31499,-0.88165,2.16830,1.91312,1.91312,A,140334.10
3.36655,57.68792018,11.98133243,57.68792167,11.98132083,14:03:34.272648,0.00507,1.26732,1.26732,-0.03170,-0.00003,-0.01205,-0.00874,0.04360,-0.04117,-0.04874,1.03907,3.36095,1.26393,1.59445,1.59443,-0.19234,2.00276,3.31499,-0.88165,2.16830,1.91312,1.91312,A,140334.10
3.37699,57.68792029,11.98133231,57.68792167,11.98132083,14:03:34.282830,0.00511,1.26732,1.26732,-0.03268,0.00023,-0.01235,-0.00157,0.04208,-0.07326,-0.05990,1.03834,3.37113,1.26461,1.59763,1.59777,-0.19948,2.01495,3.31499,-0.88165,2.16830,1.91312,1.91312,A,140334.10
3.38848,57.68792041,11.98133219,57.68792167,11.98132083,14:03:34.294320,0.00620,1.26732,1.26732,-0.03300,0.00054,-0.03007,0.01141,0.03795,-0.09760,0.00018,1.00351,3.38253,1.26515,1.60079,1.60110,-0.20662,2.02823,3.31499,-0.88165,2.16830,1.91312,1.91312,A,140334.10
3.39773,57.68792050,11.98133207,57.68792167,11.98132083,14:03:34.303574,0.00505,1.26732,1.26732,-0.03364,0.00088,-0.02625,0.01981,0.04040,-0.01610,-0.02696,0.95691,3.39213,1.26559,1.60391,1.60442,-0.21365,2.03902,3.31499,-0.88165,2.16830,1.91312,1.91312,A,140334.10
3.40830,57.68792061,11.98133195,57.68792167,11.98132083,14:03:34.314143,0.00522,1.26732,1.26732,-0.03370,0.00144,-0.02732,0.01951,0.03505,0.00933,0.01110,0.90140,3.40238,1.26593,1.60700,1.60784,-0.22069,2.05094,3.31499,-0.88165,2.16830,1.91312,1.91312,A,140334.10
3.45727,57.68792072,11.98133184,57.68792267,11.98132033,14:03:34.363145,0.04379,1.26732,1.50000,-0.03334,0.00226,-0.02503,0.01416,0.03551,-0.08516,0.03514,0.90585,3.41297,1.26621,1.61006,1.61138,-0.22770,2.06278,3.43004,-0.91137,2.27950,1.83196,1.83196,A,140334.20
3.47771,57.68792138,11.98133167,57.68792267,11.98132033,14:03:34.383563,0.00879,1.26732,1.26732,-0.03473,0.00631,-0.02228,0.02027,0.03826,0.01379,-0.00885,1.01815,3.47108,1.26643,1.61239,1.61606,-0.23744,2.13660,3.43004,-0.91137,2.27950,1.83196,1.83196,A,140334.20
3.48470,57.68792145,11.98133155,57.68792267,11.98132033,14:03:34.390539,0.00519,1.26732,1.26732,-0.03517,0.00631,-0.02915,0.01401,0.04147,-0.01934,-0.01818,1.03017,3.47877,1.26661,1.61458,1.61825,-0.24446,2.14421,3.43004,-0.91137,2.27950,1.83196,1.83196,A,140334.20
3.49527,57.68792156,11.98133143,57.68792267,11.98132033,14:03:34.401124,0.00537,1.26732,1.26732,-0.03531,0.00631,-0.01235,0.01538,0.03994,-0.04557,-0.00354,0.98399,3.48940,1.26675,1.61678,1.62045,-0.25164,2.15627,3.43004,-0.91137,2.27950,1.83196,1.83196,A,140334.20
3.50540,57.68792167,11.98133131,57.68792267,11.98132033,14:03:34.411246,0.00510,1.26732,1.26732,-0.03583,0.00631,-0.02121,0.00653,0.04498,-0.03922,-0.02257,0.94520,3.49977,1.26687,1.61895,1.62262,-0.25877,2.16828,3.43004,-0.91137,2.27950,1.83196,1.83196,A,140334.20
3.51673,57.68792178,11.98133119,57.68792267,11.98132033,14:03:34.422576,0.00573,1.26732,1.26732,-0.03582,0.00631,-0.02014,0.00393,0.04360,-0.03843,0.01086,0.92043,3.51080,1.26696,1.62111,1.62478,-0.26590,2.18098,3.43004,-0.91137,2.27950,1.83196,1.83196,A,140334.20
3.52654,57.68792188,11.98133108,57.68792267,11.98132033,14:03:34.432641,0.00514,1.26732,1.26732,-0.03621,0.00631,-0.01846,0.01019,0.04345,0.02641,-0.01732,0.96691,3.52090,1.26703,1.62323,1.62690,-0.27290,2.19202,3.43004,-0.91137,2.27950,1.83196,1.83196,A,140334.20
3.59373,57.68792199,11.98133096,57.68792450,11.98131933,14:03:34.499624,0.06179,1.26732,1.50000,-0.03655,0.00631,-0.01892,0.01600,0.03627,-0.07387,-0.01354,0.97527,3.53124,1.26709,1.62535,1.62902,-0.27990,2.20387,3.55917,-0.97081,2.48335,1.85449,1.85449,A,140334.40
3.60803,57.68792279,11.98133076,57.68792450,11.98131933,14:03:34.513877,0.00644,1.44794,1.44794,-0.03846,0.00631,-0.02274,-0.01241,0.04269,-0.02538,-0.02605,1.00095,3.60206,1.30326,1.62807,1.63174,-0.29183,2.29282,3.55917,-0.97081,2.48335,1.85449,1.85449,A,140334.40
3.61729,57.68792289,11.98133063,57.68792450,11.98131933,14:03:34.523140,0.00546,1.44794,1.44794,-0.03903,0.00631,-0.01754,-0.00615,0.04437,-0.11572,-0.03178,0.96850,3.61163,1.33220,1.63035,1.63402,-0.29920,2.30433,3.55917,-0.97081,2.48335,1.85449,1.85449,A,140334.40
3.62764,57.68792300,11.98133051,57.68792450,11.98131933,14:03:34.533490,0.00541,1.44794,1.44794,-0.03891,0.00631,-0.02503,0.01248,0.04498,-0.06594,0.01818,1.00729,3.62173,1.35535,1.63262,1.63629,-0.30661,2.31702,3.55917,-0.97081,2.48335,1.85449,1.85449,A,140334.40
3.63844,57.68792313,11.98133038,57.68792450,11.98131933,14:03:34.544284,0.00599,1.44794,1.44794,-0.03913,0.00631,-0.01281,0.03279,0.04330,0.04056,-0.01226,0.99442,3.63279,1.37387,1.63487,1.63854,-0.31404,2.33073,3.55917,-0.97081,2.48335,1.85449,1.85449,A,140334.40
3.64840,57.68792323,11.98133026,57.68792450,11.98131933,14:03:34.554249,0.00541,1.44794,1.44794,-0.03995,0.00631,-0.01495,0.01844,0.04162,-0.04917,-0.05026,0.96069,3.64228,1.38868,1.63708,1.64075,-0.32132,2.34267,3.55917,-0.97081,2.48335,1.85449,1.85449,A,140334.40
3.65895,57.68792335,11.98133014,57.68792450,11.98131933,14:03:34.564802,0.00546,1.44794,1.44794,-0.03991,0.00631,-0.01082,0.02333,0.04192,0.00207,0.00256,0.94605,3.65308,1.40053,1.63929,1.64296,-0.32863,2.35579,3.55917,-0.97081,2.48335,1.85449,1.85449,A,140334.40
3.71143,57.68792347,11.98133002,57.68792533,11.98131850,14:03:34.617321,0.04755,1.44794,1.50000,-0.04066,0.00631,-0.01632,0.00683,0.03795,-0.00055,-0.04337,0.93281,3.66315,1.41002,1.64146,1.64513,-0.33588,2.36851,3.68033,-1.02034,2.57602,2.06169,2.06169,A,140334.50
3.72782,57.68792417,11.98132980,57.68792533,11.98131850,14:03:34.633692,0.00797,1.44794,1.44794,-0.04082,0.00631,-0.00701,0.01019,0.03643,-0.06185,0.00665,1.07092,3.71925,1.41760,1.64605,1.64972,-0.34841,2.44695,3.68033,-1.02034,2.57602,2.06169,2.06169,A,140334.50
3.73642,57.68792428,11.98132968,57.68792533,11.98131850,14:03:34.642268,0.00617,1.44794,1.44794,-0.04086,0.00631,-0.00563,0.02165,0.03566,-0.02775,-0.00714,1.02925,3.73046,1.42367,1.65023,1.65390,-0.35594,2.45844,3.68033,-1.02034,2.57602,2.06169,2.06169,A,140334.50
3.74573,57.68792438,11.98132955,57.68792533,11.98131850,14:03:34.651577,0.00509,1.44794,1.44794,-0.04058,0.00631,-0.00853,0.03111,0.03444,-0.06618,0.01531,1.01199,3.74010,1.42852,1.65436,1.65803,-0.36347,2.47022,3.68033,-1.02034,2.57602,2.06169,2.06169,A,140334.50
3.75645,57.68792450,11.98132942,57.68792533,11.98131850,14:03:34.662295,0.00537,1.44794,1.44794,-0.04056,0.00631,0.00338,0.02714,0.03612,0.06551,-0.00793,0.91903,3.75036,1.43241,1.65846,1.66213,-0.37108,2.48320,3.68033,-1.02034,2.57602,2.06169,2.06169,A,140334.50
3.76659,57.68792461,11.98132930,57.68792533,11.98131850,14:03:34.672819,0.00512,1.44794,1.44794,-0.03975,0.00631,0.00414,0.01447,0.03368,0.06466,0.03941,0.92281,3.76096,1.43551,1.66252,1.66619,-0.37865,2.49593,3.68033,-1.02034,2.57602,2.06169,2.06169,A,140334.50
3.77707,57.68792473,11.98132917,57.68792533,11.98131850,14:03:34.682913,0.00519,1.44794,1.44794,-0.03977,0.00631,0.01300,-0.01134,0.03673,-0.00579,-0.01616,0.93037,3.77113,1.43800,1.66655,1.67022,-0.38620,2.50859,3.68033,-1.02034,2.57602,2.06169,2.06169,A,140334.50
3.82335,57.68792484,11.98132904,57.68792617,11.98131800,14:03:34.730209,0.04107,1.44794,1.50000,-0.03956,0.00631,0.00399,-0.00829,0.04116,-0.07912,0.00348,0.96734,3.78174,1.43999,1.67053,1.67420,-0.39375,2.52133,3.79878,-1.05006,2.66868,1.88115,1.88115,A,140334.60
3.84119,57.68792551,11.98132881,57.68792617,11.98131800,14:03:34.747035,0.00715,1.44794,1.44794,-0.03968,0.00631,0.00323,-0.00004,0.02192,-0.02617,-0.02672,0.99778,3.83479,1.44158,1.67299,1.67666,-0.40781,2.59512,3.79878,-1.05006,2.66868,1.88115,1.88115,A,140334.60
3.84970,57.68792560,11.98132868,57.68792617,11.98131800,14:03:34.755540,0.00511,1.44794,1.44794,-0.03991,0.00631,-0.00609,-0.00126,0.02742,0.01116,-0.01879,1.00333,3.84406,1.44285,1.67509,1.67876,-0.41525,2.60542,3.79878,-1.05006,2.66868,1.88115,1.88115,A,140334.60
3.86026,57.68792571,11.98132855,57.68792617,11.98131800,14:03:34.766108,0.00518,1.44794,1.44794,-0.03954,0.00631,-0.00594,0.00133,0.03154,0.02873,0.02031,0.96752,3.85436,1.44387,1.67718,1.68085,-0.42291,2.61813,3.79878,-1.05006,2.66868,1.88115,1.88115,A,140334.60
3.87055,57.68792583,11.98132842,57.68792617,11.98131800,14:03:34.776663,0.00507,1.44794,1.44794,-0.03888,0.00631,-0.00502,-0.00554,0.03902,0.00000,0.03880,0.97081,3.86494,1.44469,1.67925,1.68292,-0.43052,2.63075,3.79878,-1.05006,2.66868,1.88115,1.88115,A,140334.60
3.88106,57.68792594,11.98132830,57.68792617,11.98131800,14:03:34.786906,0.00519,1.44794,1.44794,-0.03845,0.00631,0.00262,-0.00981,0.04345,0.08449,0.02019,0.99467,3.87514,1.44534,1.68130,1.68497,-0.43806,2.64309,3.79878,-1.05006,2.66868,1.88115,1.88115,A,140334.60
3.89182,57.68792605,11.98132817,57.68792617,11.98131800,14:03:34.797672,0.00556,1.44794,1.44794,-0.03816,0.00631,0.00704,-0.02020,0.05002,-0.04642,0.00830,0.99308,3.88591,1.44586,1.68333,1.68700,-0.44560,2.65571,3.79878,-1.05006,2.66868,1.88115,1.88115,A,140334.60
3.94408,57.68792616,11.98132805,57.68792700,11.98131733,14:03:34.849951,0.04741,1.44794,1.50000,-0.03768,0.00631,0.00582,-0.01302,0.04544,-0.00915,0.02214,0.98314,3.89613,1.44627,1.68534,1.68901,-0.45300,2.66743,3.91311,-1.08968,2.76134,1.97489,1.97489,A,140334.70
3.95860,57.68792685,11.98132779,57.68792700,11.98131733,14:03:34.865172,0.00821,1.44794,1.44794,-0.03780,0.00631,-0.00273,0.00546,0.02146,-0.00994,-0.00390,0.98100,3.95127,1.44661,1.68862,1.69229,-0.46841,2.74454,3.91311,-1.08968,2.76134,1.97489,1.97489,A,140334.70
3.96589,57.68792692,11.98132767,57.68792700,11.98131733,14:03:34.871734,0.00530,1.44794,1.44794,-0.03812,0.00631,-0.00365,0.00133,0.02436,0.01031,-0.02397,0.96661,3.96006,1.44688,1.69148,1.69515,-0.47555,2.75231,3.91311,-1.08968,2.76134,1.97489,1.97489,A,140334.70
3.97629,57.68792703,11.98132754,57.68792700,11.98131733,14:03:34.882136,0.00521,1.44794,1.44794,-0.03757,0.00631,-0.00869,0.00424,0.02345,0.01244,0.03636,0.97978,3.97038,1.44709,1.69435,1.69802,-0.48317,2.76424,3.91311,-1.08968,2.76134,1.97489,1.97489,A,140334.70
3.98659,57.68792713,11.98132741,57.68792700,11.98131733,14:03:34.892684,0.00512,1.44794,1.44794,-0.03823,0.00631,-0.00487,-0.00386,0.03062,0.00500,-0.04343,0.93818,3.98096,1.44726,1.69718,1.70085,-0.49078,2.77630,3.91311,-1.08968,2.76134,1.97489,1.97489,A,140334.70
3.99714,57.68792724,11.98132728,57.68792700,11.98131733,14:03:34.902986,0.00527,1.44794,1.44794,-0.03790,0.00631,-0.01189,-0.00798,0.03307,-0.01989,0.02367,0.97856,3.99113,1.44740,1.69999,1.70366,-0.49833,2.78803,3.91311,-1.08968,2.76134,1.97489,1.97489,A,140334.70
4.00765,57.68792735,11.98132716,57.68792700,11.98131733,14:03:34.913502,0.00539,1.44794,1.44794,-0.03825,0.00631,-0.00502,-0.00890,0.03643,-0.02867,-0.02525,0.99735,4.00173,1.44751,1.70277,1.70644,-0.50584,2.79975,3.91311,-1.08968,2.76134,1.97489,1.97489,A,140334.70
4.05413,57.68792745,11.98132703,57.68792783,11.98131667,14:03:34.960007,0.04147,1.44794,1.50000,-0.03844,0.00628,-0.01098,-0.00416,0.03093,-0.04581,-0.01183,1.06506,4.01225,1.44759,1.70552,1.70917,-0.51332,2.81135,4.02914,-1.12931,2.85400,1.97489,1.97489,A,140334.80
4.06710,57.68792806,11.98132677,57.68792783,11.98131667,14:03:34.972955,0.00739,1.44794,1.44794,-0.03906,0.00484,-0.00838,0.00729,0.01932,-0.06423,-0.02086,0.98192,4.06119,1.44766,1.70855,1.71137,-0.52880,2.87871,4.02914,-1.12931,2.85400,1.97489,1.97489,A,140334.80
4.07554,57.68792814,11.98132665,57.68792783,11.98131667,14:03:34.981382,0.00543,1.44794,1.44794,-0.03866,0.00475,-0.00960,0.01233,0.01978,0.02025,0.02397,0.93824,4.06962,1.44772,1.71123,1.71399,-0.53613,2.88784,4.02914,-1.12931,2.85400,1.97489,1.97489,A,140334.80
4.08557,57.68792824,11.98132652,57.68792783,11.98131667,14:03:34.991414,0.00508,1.44794,1.44794,-0.03829,0.00475,-0.00395,0.00149,0.02589,0.01525,0.01921,0.92574,4.07995,1.44776,1.71389,1.71665,-0.54375,2.89921,4.02914,-1.12931,2.85400,1.97489,1.97489,A,140334.80
4.09626,57.68792835,11.98132639,57.68792783,11.98131667,14:03:35.002100,0.00522,1.44794,1.44794,-0.03797,0.00475,-0.00288,0.00011,0.03200,-0.00531,0.01568,0.91817,4.09034,1.44780,1.71652,1.71929,-0.55140,2.91095,4.02914,-1.12931,2.85400,1.97489,1.97489,A,140334.80
4.10654,57.68792845,11.98132626,57.68792783,11.98131667,14:03:35.012647,0.00510,1.44794,1.44794,-0.03858,0.00475,-0.00105,0.00485,0.03475,0.03605,-0.04429,0.95764,4.10094,1.44783,1.71913,1.72189,-0.55898,2.92246,4.02914,-1.12931,2.85400,1.97489,1.97489,A,140334.80
4.11724,57.68792855,11.98132614,57.68792783,11.98131667,14:03:35.023086,0.00540,1.44794,1.44794,-0.03793,0.00475,-0.00365,0.00057,0.03429,-0.02312,0.03660,0.92763,4.11109,1.44785,1.72171,1.72447,-0.56649,2.93364,4.02914,-1.12931,2.85400,1.97489,1.97489,A,140334.80
4.12768,57.68792865,11.98132601,57.68792783,11.98131667,14:03:35.033522,0.00544,1.44794,1.44794,-0.03767,0.00475,-0.00136,0.01386,0.03429,-0.06332,0.01263,1.02236,4.12175,1.44787,1.72426,1.72703,-0.57395,2.94466,4.02914,-1.12931,2.85400,1.97489,1.97489,A,140334.80
4.18317,57.68792875,11.98132588,57.68792883,11.98131600,14:03:35.089045,0.05054,1.44794,1.50000,-0.03751,0.00475,0.00384,0.02470,0.02513,-0.02043,0.00220,1.04035,4.13268,1.44788,1.72679,1.72956,-0.58148,2.95628,4.14959,-1.16893,2.96520,1.91312,1.91312,A,140334.90
4.19669,57.68792946,11.98132557,57.68792883,11.98131600,14:03:35.102540,0.00580,1.34270,1.34270,-0.03640,0.00475,0.01269,0.00454,0.04024,-0.09681,0.01952,0.97240,4.19030,1.42685,1.72896,1.73172,-0.60001,3.03541,4.14959,-1.16893,2.96520,1.91312,1.91312,A,140334.90
4.20643,57.68792956,11.98132545,57.68792883,11.98131600,14:03:35.112269,0.00513,1.34270,1.34270,-0.03626,0.00475,0.01331,0.01538,0.04299,-0.04965,-0.00427,0.98478,4.20079,1.41002,1.73082,1.73358,-0.60750,3.04580,4.14959,-1.16893,2.96520,1.91312,1.91312,A,140334.90
4.21703,57.68792965,11.98132532,57.68792883,11.98131600,14:03:35.122871,0.00534,1.34270,1.34270,-0.03665,0.00475,0.02461,0.01829,0.04605,-0.04203,-0.04240,0.91415,4.21095,1.39655,1.73266,1.73543,-0.61500,3.05651,4.14959,-1.16893,2.96520,1.91312,1.91312,A,140334.90
4.22833,57.68792975,11.98132519,57.68792883,11.98131600,14:03:35.134192,0.00626,1.34270,1.34270,-0.03614,0.00475,0.02904,0.01294,0.04925,-0.07143,0.00823,0.95849,4.22158,1.38578,1.73449,1.73725,-0.62244,3.06704,4.14959,-1.16893,2.96520,1.91312,1.91312,A,140334.90
4.23774,57.68792983,11.98132507,57.68792883,11.98131600,14:03:35.143584,0.00525,1.34270,1.34270,-0.03594,0.00475,0.03316,0.01844,0.05384,-0.04185,-0.01397,1.00900,4.23211,1.37716,1.73629,1.73905,-0.62964,3.07635,4.14959,-1.16893,2.96520,1.91312,1.91312,A,140334.90
4.24934,57.68792992,11.98132495,57.68792883,11.98131600,14:03:35.155184,0.00631,1.34270,1.34270,-0.03613,0.00475,0.03285,0.02180,0.05124,-0.07729,-0.04032,1.04572,4.24232,1.37027,1.73808,1.74084,-0.63696,3.08655,4.14959,-1.16893,2.96520,1.91312,1.91312,A,140334.90
4.31288,57.68793000,11.98132483,57.68793117,11.98131433,14:03:35.218761,0.05945,1.34270,1.50000,-0.03579,0.00475,0.04064,0.02577,0.05277,0.01177,-0.01122,1.05743,4.25302,1.36476,1.73984,1.74261,-0.64401,3.09545,4.28053,-1.26799,3.22465,1.93552,1.93552,A,140335.10
4.32975,57.68793083,11.98132446,57.68793117,11.98131433,14:03:35.235600,0.00778,1.34270,1.34270,-0.03252,0.01483,0.04553,-0.01180,0.05170,-0.03385,0.00817,0.92531,4.32244,1.36034,1.74209,1.75071,-0.66588,3.18680,4.28053,-1.26799,3.22465,1.93552,1.93552,A,140335.10
4.33778,57.68793090,11.98132434,57.68793117,11.98131433,14:03:35.243626,0.00518,1.34270,1.34270,-0.03116,0.01687,0.05057,-0.00981,0.04880,-0.09614,0.05514,0.93031,4.33216,1.35681,1.74404,1.75385,-0.67342,3.19553,4.28053,-1.26799,3.22465,1.93552,1.93552,A,140335.10
4.34848,57.68793101,11.98132420,57.68793117,11.98131433,14:03:35.254321,0.00537,1.34270,1.34270,-0.03079,0.01865,0.06492,0.00622,0.04009,-0.02977,-0.01446,0.92915,4.34241,1.35399,1.74601,1.75686,-0.68144,3.20701,4.28053,-1.26799,3.22465,1.93552,1.93552,A,140335.10
4.35900,57.68793111,11.98132407,57.68793117,11.98131433,14:03:35.264858,0.00549,1.34270,1.34270,-0.03154,0.02018,0.07042,0.00195,0.04269,-0.05337,-0.09479,0.98289,4.35315,1.35173,1.74797,1.75971,-0.68942,3.21841,4.28053,-1.26799,3.22465,1.93552,1.93552,A,140335.10
4.36901,57.68793121,11.98132394,57.68793117,11.98131433,14:03:35.274848,0.00510,1.34270,1.34270,-0.03077,0.02140,0.05301,0.01126,0.04299,-0.01848,0.01989,1.03676,4.36318,1.34992,1.74992,1.76236,-0.69727,3.22931,4.28053,-1.26799,3.22465,1.93552,1.93552,A,140335.10
4.37971,57.68793131,11.98132380,57.68793117,11.98131433,14:03:35.285557,0.00540,1.34270,1.34270,-0.03069,0.02233,0.05210,0.00378,0.05949,-0.04105,-0.02910,1.05835,4.37380,1.34848,1.75186,1.76484,-0.70518,3.24059,4.28053,-1.26799,3.22465,1.93552,1.93552,A,140335.10
4.43272,57.68793141,11.98132367,57.68793200,11.98131367,14:03:35.338593,0.04802,1.34270,1.50000,-0.02977,0.02293,0.05225,-0.00126,0.06330,-0.03105,0.03117,1.06384,4.38415,1.34732,1.75378,1.76711,-0.71294,3.25127,4.40103,-1.30762,3.31732,1.97489,1.97489,A,140335.20
4.44939,57.68793209,11.98132332,57.68793200,11.98131367,14:03:35.355238,0.00746,1.34270,1.34270,-0.02633,0.02326,0.05775,0.01493,0.05888,-0.02593,0.01049,0.91439,4.44300,1.34640,1.75739,1.77092,-0.73390,3.32746,4.40103,-1.30762,3.31732,1.97489,1.97489,A,140335.20
4.45744,57.68793216,11.98132319,57.68793200,11.98131367,14:03:35.363281,0.00512,1.34270,1.34270,-0.02571,0.02326,0.05179,0.00912,0.05246,-0.01171,0.01800,0.91433,4.45180,1.34566,1.75960,1.77313,-0.74131,3.33557,4.40103,-1.30762,3.31732,1.97489,1.97489,A,140335.20
4.46813,57.68793226,11.98132306,57.68793200,11.98131367,14:03:35.373979,0.00523,1.34270,1.34270,-0.02487,0.02326,0.04064,0.00256,0.05048,-0.02361,0.03636,0.96179,4.46219,1.34506,1.76185,1.77537,-0.74927,3.34659,4.40103,-1.30762,3.31732,1.97489,1.97489,A,140335.20
4.47841,57.68793236,11.98132293,57.68793200,11.98131367,14:03:35.384260,0.00512,1.34270,1.34270,-0.02361,0.02326,0.04370,0.00500,0.04391,0.01549,0.06289,0.99094,4.47277,1.34459,1.76407,1.77760,-0.75715,3.35737,4.40103,-1.30762,3.31732,1.97489,1.97489,A,140335.20
4.48883,57.68793245,11.98132280,57.68793200,11.98131367,14:03:35.394676,0.00515,1.34270,1.34270,-0.02252,0.02326,0.04446,-0.00035,0.05017,-0.11413,0.05661,1.05560,4.48294,1.34421,1.76627,1.77980,-0.76494,3.36787,4.40103,-1.30762,3.31732,1.97489,1.97489,A,140335.20
4.49947,57.68793255,11.98132267,57.68793200,11.98131367,14:03:35.405312,0.00539,1.34270,1.34270,-0.02229,0.02326,0.03346,-0.00340,0.05048,0.02965,0.00445,1.07756,4.49358,1.34391,1.76845,1.78198,-0.77274,3.37854,4.40103,-1.30762,3.31732,1.97489,1.97489,A,140335.20
4.54231,57.68793264,11.98132254,57.68793350,11.98131300,14:03:35.448175,0.03782,1.34270,1.50000,-0.02184,0.02326,0.03224,-0.00218,0.05216,-0.07247,0.02190,1.08287,4.50394,1.34367,1.77060,1.78413,-0.78040,3.38874,4.52151,-1.34724,3.48411,1.80404,1.80404,A,140335.30
4.55330,57.68793314,11.98132224,57.68793350,11.98131300,14:03:35.459140,0.00524,1.34270,1.34270,-0.02131,0.02321,0.02293,0.00485,0.04696,0.04203,-0.01525,0.88694,4.54763,1.34347,1.77193,1.78543,-0.79788,3.44419,4.52151,-1.34724,3.48411,1.80404,1.80404,A,140335.30
4.56401,57.68793325,11.98132211,57.68793350,11.98131300,14:03:35.469858,0.00556,1.34270,1.34270,-0.02085,0.02298,0.00827,-0.01485,0.04422,-0.07613,0.03514,0.91036,4.55807,1.34332,1.77235,1.78571,-0.80581,3.45579,4.52151,-1.34724,3.48411,1.80404,1.80404,A,140335.30
4.57379,57.68793334,11.98132198,57.68793350,11.98131300,14:03:35.479630,0.00493,1.34270,1.34270,-0.02055,0.02250,0.02216,-0.02600,0.03765,0.01342,0.01769,0.90920,4.56818,1.34319,1.77275,1.78583,-0.81350,3.46647,4.52151,-1.34724,3.48411,1.80404,1.80404,A,140335.30
4.58433,57.68793344,11.98132185,57.68793350,11.98131300,14:03:35.490179,0.00522,1.34270,1.34270,-0.02057,0.02182,0.00689,-0.03440,0.03826,-0.08296,0.00793,1.05353,4.57841,1.34309,1.77315,1.78584,-0.82123,3.47763,4.52151,-1.34724,3.48411,1.80404,1.80404,A,140335.30
4.59486,57.68793354,11.98132172,57.68793350,11.98131300,14:03:35.500717,0.00535,1.34270,1.34270,-0.02070,0.02106,0.01056,-0.02295,0.03521,-0.19618,-0.00262,1.12942,4.58901,1.34301,1.77356,1.78580,-0.82891,3.48877,4.52151,-1.34724,3.48411,1.80404,1.80404,A,140335.30
4.60502,57.68793364,11.98132159,57.68793350,11.98131300,14:03:35.510867,0.00512,1.34270,1.34270,-0.02089,0.02038,-0.00059,0.00286,0.03383,-0.07570,0.00067,1.10099,4.59916,1.34295,1.77395,1.78580,-0.83647,3.49958,4.52151,-1.34724,3.48411,1.80404,1.80404,A,140335.30
4.61569,57.68793374,11.98132147,57.68793350,11.98131300,14:03:35.521538,0.00536,1.54031,1.54031,-0.02130,0.01987,0.00597,0.00027,0.03582,-0.04618,-0.02019,1.13051,4.60976,1.38242,1.77433,1.78589,-0.84401,3.51057,4.52151,-1.34724,3.48411,1.80404,1.80404,A,140335.30
4.65951,57.68793384,11.98132134,57.68793433,11.98131183,14:03:35.565383,0.03879,1.54031,1.50000,-0.02185,0.01959,0.00124,0.00118,0.04177,-0.01934,-0.02470,1.04670,4.62020,1.41400,1.77471,1.78610,-0.85148,3.52147,4.63727,-1.41658,3.57677,2.21324,2.21324,A,140335.40
4.66989,57.68793436,11.98132103,57.68793433,11.98131183,14:03:35.575730,0.00510,1.54031,1.54031,-0.02201,0.01942,-0.00502,-0.01042,0.04788,-0.02037,0.01586,0.90774,4.66424,1.43926,1.77999,1.79128,-0.86977,3.57981,4.63727,-1.41658,3.57677,2.21324,2.21324,A,140335.40
4.68054,57.68793446,11.98132090,57.68793433,11.98131183,14:03:35.586379,0.00545,1.54031,1.54031,-0.02218,0.01939,-0.00884,-0.01287,0.04452,-0.05826,0.00695,0.98533,4.67439,1.45947,1.78441,1.79569,-0.87784,3.59139,4.63727,-1.41658,3.57677,2.21324,2.21324,A,140335.40
4.69057,57.68793457,11.98132076,57.68793433,11.98131183,14:03:35.596659,0.00508,1.54031,1.54031,-0.02288,0.01939,-0.02167,-0.00584,0.04238,-0.04691,-0.01867,0.99320,4.68497,1.47564,1.78879,1.80006,-0.88589,3.60291,4.63727,-1.41658,3.57677,2.21324,2.21324,A,140335.40
4.70099,57.68793467,11.98132063,57.68793433,11.98131183,14:03:35.606837,0.00510,1.54031,1.54031,-0.02313,0.01939,-0.02839,0.00271,0.03765,-0.05887,0.01464,1.01809,4.69515,1.48857,1.79313,1.80440,-0.89399,3.61460,4.63727,-1.41658,3.57677,2.21324,2.21324,A,140335.40
4.71168,57.68793478,11.98132049,57.68793433,11.98131183,14:03:35.617524,0.00540,1.54031,1.54031,-0.02336,0.01939,-0.02701,0.00729,0.03505,0.00232,0.01525,0.99332,4.70576,1.49892,1.79743,1.80871,-0.90215,3.62657,4.63727,-1.41658,3.57677,2.21324,2.21324,A,140335.40
4.72181,57.68793489,11.98132035,57.68793433,11.98131183,14:03:35.627659,0.00503,1.54031,1.54031,-0.02353,0.01939,-0.03251,0.00042,0.03887,0.02653,0.02269,1.00717,4.71619,1.50720,1.80169,1.81296,-0.91022,3.63812,4.63727,-1.41658,3.57677,2.21324,2.21324,A,140335.40
4.73231,57.68793499,11.98132022,57.68793433,11.98131183,14:03:35.638154,0.00522,1.54031,1.54031,-0.02306,0.01939,-0.02243,-0.01546,0.04299,0.01531,0.05539,0.95288,4.72636,1.51382,1.80590,1.81717,-0.91829,3.64967,4.63727,-1.41658,3.57677,2.21324,2.21324,A,140335.40
4.78496,57.68793509,11.98132008,57.68793700,11.98130983,14:03:35.690830,0.04747,1.54031,1.50000,-0.02289,0.01939,-0.02396,-0.01485,0.05032,-0.05148,0.03922,0.97466,4.73698,1.51912,1.81008,1.82135,-0.92638,3.66132,4.76456,-1.53546,3.87329,1.95208,1.95208,A,140335.60
4.79696,57.68793580,11.98131965,57.68793700,11.98130983,14:03:35.702802,0.00531,1.54031,1.54031,-0.02363,0.01939,-0.00380,0.00866,0.03948,-0.03922,-0.02477,1.03139,4.79106,1.52335,1.81271,1.82398,-0.95198,3.73966,4.76456,-1.53546,3.87329,1.95208,1.95208,A,140335.60
4.80743,57.68793592,11.98131950,57.68793700,11.98130983,14:03:35.713272,0.00538,1.54031,1.54031,-0.02432,0.01939,-0.01739,-0.00157,0.03566,-0.07320,-0.02312,1.00772,4.80154,1.52674,1.81420,1.82548,-0.96100,3.75330,4.76456,-1.53546,3.87329,1.95208,1.95208,A,140335.60
4.81781,57.68793604,11.98131935,57.68793700,11.98130983,14:03:35.723658,0.00537,1.54031,1.54031,-0.02391,0.01939,-0.01800,-0.01241,0.03750,-0.09504,0.05356,1.05920,4.81191,1.52946,1.81568,1.82696,-0.96992,3.76668,4.76456,-1.53546,3.87329,1.95208,1.95208,A,140335.60
4.82819,57.68793616,11.98131920,57.68793700,11.98130983,14:03:35.734042,0.00520,1.54031,1.54031,-0.02338,0.01939,-0.00533,-0.01165,0.03566,-0.00024,0.04965,1.00046,4.82228,1.53163,1.81715,1.82842,-0.97876,3.77991,4.76456,-1.53546,3.87329,1.95208,1.95208,A,140335.60
4.83890,57.68793628,11.98131905,57.68793700,11.98130983,14:03:35.744758,0.00551,1.54031,1.54031,-0.02287,0.01939,0.01101,-0.02157,0.03856,-0.05954,0.03910,1.02382,4.83304,1.53336,1.81860,1.82988,-0.98768,3.79357,4.76456,-1.53546,3.87329,1.95208,1.95208,A,140335.60
4.84904,57.68793640,11.98131890,57.68793700,11.98130983,14:03:35.754886,0.00526,1.54031,1.54031,-0.02331,0.01939,0.02002,-0.02845,0.03979,-0.01287,-0.03245,1.04310,4.84319,1.53475,1.82004,1.83131,-0.99641,3.80663,4.76456,-1.53546,3.87329,1.95208,1.95208,A,140335.60
4.85971,57.68793652,11.98131876,57.68793700,11.98130983,14:03:35.766096,0.00541,1.54031,1.54031,-0.02370,0.01939,0.02018,-0.02020,0.04040,-0.12920,-0.02916,1.02998,4.85380,1.53586,1.82147,1.83274,-1.00516,3.81992,4.76456,-1.53546,3.87329,1.95208,1.95208,A,140335.60
4.91687,57.68793666,11.98131860,57.68793817,11.98130917,14:03:35.822942,0.05202,1.54031,1.50000,-0.02450,0.01939,0.02461,-0.00874,0.04803,-0.02861,-0.05771,0.93147,4.86603,1.53675,1.82292,1.83420,-1.01447,3.83539,4.88310,-1.57508,4.00302,1.86724,1.86724,A,140335.70
4.93747,57.68793751,11.98131808,57.68793817,11.98130917,14:03:35.843319,0.00854,1.54031,1.54031,-0.02172,0.01939,0.03530,-0.00798,0.04116,-0.05350,0.04593,1.02876,4.93132,1.53746,1.82488,1.83615,-1.04518,3.93016,4.88310,-1.57508,4.00302,1.86724,1.86724,A,140335.70
4.94488,57.68793759,11.98131796,57.68793817,11.98130917,14:03:35.850727,0.00521,1.54031,1.54031,-0.02245,0.01939,0.04064,-0.00218,0.03047,-0.05649,-0.05923,1.06109,4.93899,1.53803,1.82533,1.83660,-1.05263,3.93881,4.88310,-1.57508,4.00302,1.86724,1.86724,A,140335.70
4.95564,57.68793771,11.98131781,57.68793817,11.98130917,14:03:35.861484,0.00557,1.54031,1.54031,-0.02160,0.01939,0.03362,0.00714,0.02833,-0.04770,0.04654,1.01876,4.94955,1.53849,1.82585,1.83713,-1.06126,3.95195,4.88310,-1.57508,4.00302,1.86724,1.86724,A,140335.70
4.96556,57.68793782,11.98131767,57.68793817,11.98130917,14:03:35.871408,0.00510,1.54031,1.54031,-0.02130,0.01939,0.03789,0.00454,0.03322,0.05655,0.00708,0.94196,4.95993,1.53885,1.82636,1.83764,-1.06966,3.96441,4.88310,-1.57508,4.00302,1.86724,1.86724,A,140335.70
4.97640,57.68793794,11.98131753,57.68793817,11.98130917,14:03:35.882247,0.00539,1.54031,1.54031,-0.02057,0.01939,0.03453,-0.00615,0.03276,0.04819,0.03691,0.93580,4.97030,1.53914,1.82688,1.83815,-1.07816,3.97740,4.88310,-1.57508,4.00302,1.86724,1.86724,A,140335.70
5.03161,57.68793805,11.98131739,57.68793933,11.98130800,14:03:35.937497,0.05022,1.54031,1.50000,-0.02051,0.01939,0.03560,-0.01730,0.03490,-0.05112,-0.00543,0.92025,4.98091,1.53938,1.82738,1.83866,-1.08649,3.98994,4.99780,-1.64443,4.13274,2.06169,2.06169,A,140335.80
5.05496,57.68793887,11.98131688,57.68793933,11.98130800,14:03:35.960852,0.01373,1.54031,1.54031,0.00000,0.01579,0.02506,-0.00248,0.03108,-0.01037,0.05130,1.06250,5.04399,1.54031,1.94031,1.94949,-1.64443,4.13274,4.99780,-1.64443,4.13274,2.06169,2.06169,A,140335.80
5.07257,57.68793960,11.98130780,57.68793933,11.98130800,14:03:35.978399,0.00791,1.67833,1.67833,-0.00023,0.03463,0.02415,-0.01394,0.03521,-0.01372,-0.01171,1.02510,5.06631,1.56791,1.94176,1.96190,-1.65631,4.16261,4.99780,-1.64443,4.13274,2.06169,2.06169,A,140335.80
5.08002,57.68793967,11.98130775,57.68793933,11.98130800,14:03:35.985856,0.00496,1.67833,1.67833,0.00015,0.03443,0.02109,-0.01699,0.03795,-0.06289,0.05283,0.99351,5.07437,1.59000,1.94301,1.96304,-1.65938,4.17004,4.99780,-1.64443,4.13274,2.06169,2.06169,A,140335.80
5.09030,57.68793978,11.98130767,57.68793933,11.98130800,14:03:35.996125,0.00484,1.67833,1.67833,-0.00029,0.03431,0.01758,-0.01669,0.03811,-0.01836,-0.00183,0.96124,5.08492,1.60766,1.94440,1.96436,-1.66433,4.18200,4.99780,-1.64443,4.13274,2.06169,2.06169,A,140335.80
5.11778,57.68793988,11.98130758,57.68794050,11.98130717,14:03:36.023810,0.02209,1.67833,1.67833,-0.00049,0.03423,0.01193,-0.01317,0.03811,-0.08955,0.01708,0.92202,5.09499,1.62180,1.94577,1.96568,-1.66917,4.19364,5.11226,-1.69396,4.26247,1.93552,1.93552,A,140335.90
5.13712,57.68794035,11.98130722,57.68794050,11.98130717,14:03:36.042959,0.00744,1.67833,1.67833,-0.00044,0.03366,0.01865,0.02409,0.02833,-0.00110,-0.00146,0.97685,5.13049,1.63310,1.94711,1.96669,-1.69065,4.24527,5.11226,-1.69396,4.26247,1.93552,1.93552,A,140335.90
5.14514,57.68794043,11.98130716,57.68794050,11.98130717,14:03:36.050972,0.00506,1.67833,1.67833,-0.00082,0.03366,0.01468,0.02073,0.02772,-0.05923,0.00458,1.03303,5.13935,1.64215,1.94709,1.96667,-1.69455,4.25470,5.11226,-1.69396,4.26247,1.93552,1.93552,A,140335.90
5.15576,57.68794055,11.98130707,57.68794050,11.98130717,14:03:36.061593,0.00529,1.67833,1.67833,-0.00142,0.03366,0.01697,0.01569,0.02803,0.00378,-0.01623,1.09788,5.15011,1.64939,1.94719,1.96677,-1.69990,4.26758,5.11226,-1.69396,4.26247,1.93552,1.93552,A,140335.90
5.16556,57.68794065,11.98130698,57.68794050,11.98130717,14:03:36.071393,0.00485,1.67833,1.67833,-0.00181,0.03366,0.01193,-0.00645,0.03673,-0.02708,0.00366,1.10258,5.16019,1.65518,1.94726,1.96684,-1.70489,4.27961,5.11226,-1.69396,4.26247,1.93552,1.93552,A,140335.90
5.17605,57.68794077,11.98130690,57.68794050,11.98130717,14:03:36.081885,0.00497,1.67833,1.67833,-0.00197,0.03366,0.01941,-0.00539,0.04055,-0.04490,0.01421,1.10319,5.17039,1.65981,1.94735,1.96693,-1.71009,4.29215,5.11226,-1.69396,4.26247,1.93552,1.93552,A,140335.90
5.18638,57.68794088,11.98130681,57.68794050,11.98130717,14:03:36.092217,0.00490,1.67833,1.67833,-0.00177,0.03366,0.01269,-0.01608,0.04452,-0.01013,0.04264,1.02510,5.18103,1.66351,1.94745,1.96703,-1.71535,4.30482,5.11226,-1.69396,4.26247,1.93552,1.93552,A,140335.90
5.19672,57.68794099,11.98130672,57.68794050,11.98130717,14:03:36.102554,0.00485,1.67833,1.67833,-0.00179,0.03366,0.01667,-0.01577,0.04758,-0.05893,0.02416,0.98680,5.19113,1.66648,1.94753,1.96711,-1.72043,4.31705,5.11226,-1.69396,4.26247,1.93552,1.93552,A,140335.90
5.20740,57.68794110,11.98130663,57.68794050,11.98130717,14:03:36.113234,0.00513,1.67833,1.67833,-0.00210,0.03366,0.02797,-0.00630,0.05155,-0.08552,-0.00165,0.90390,5.20173,1.66885,1.94763,1.96721,-1.72564,4.32957,5.11226,-1.69396,4.26247,1.93552,1.93552,A,140335.90
5.23497,57.68794121,11.98130655,57.68794183,11.98130583,14:03:36.140809,0.02231,1.67833,1.67833,-0.00223,0.03366,0.02491,0.01264,0.04666,-0.05380,0.01122,0.88279,5.21212,1.67074,1.94772,1.96730,-1.73062,4.34156,5.22919,-1.77321,4.41073,2.06169,2.06169,A,140336.00
5.25004,57.68794164,11.98130621,57.68794183,11.98130583,14:03:36.155877,0.00597,1.67833,1.67833,-0.00106,0.03366,0.02170,0.03463,0.04788,0.07954,0.06759,0.99406,5.24464,1.67226,1.95015,1.96973,-1.75068,4.38916,5.22919,-1.77321,4.41073,2.06169,2.06169,A,140336.00
5.26046,57.68794174,11.98130613,57.68794183,11.98130583,14:03:36.166294,0.00600,1.67833,1.67833,-0.00134,0.03366,0.02583,0.01523,0.05200,0.02452,0.00335,1.04755,5.25394,1.67348,1.95143,1.97101,-1.75571,4.40077,5.22919,-1.77321,4.41073,2.06169,2.06169,A,140336.00
5.26969,57.68794185,11.98130604,57.68794183,11.98130583,14:03:36.175524,0.00484,1.67833,1.67833,-0.00149,0.03366,0.02949,-0.00981,0.05445,0.09205,0.00817,1.03621,5.26433,1.67445,1.95270,1.97228,-1.76070,4.41225,5.22919,-1.77321,4.41073,2.06169,2.06169,A,140336.00
5.28005,57.68794196,11.98130595,57.68794183,11.98130583,14:03:36.185885,0.00495,1.67833,1.67833,-0.00117,0.03366,0.02583,-0.02203,0.06010,-0.08510,0.04563,1.12106,5.27441,1.67522,1.95400,1.97358,-1.76620,4.42489,5.22919,-1.77321,4.41073,2.06169,2.06169,A,140336.00
5.29032,57.68794208,11.98130586,57.68794183,11.98130583,14:03:36.196155,0.00483,1.67833,1.67833,-0.00043,0.03369,0.02506,-0.01714,0.05903,-0.06606,0.07302,1.05323,5.28497,1.67585,1.95529,1.97489,-1.77179,4.43770,5.22919,-1.77321,4.41073,2.06169,2.06169,A,140336.00
5.30073,57.68794219,11.98130576,57.68794183,11.98130583,14:03:36.206564,0.00484,1.67833,1.67833,0.00015,0.03386,0.03270,-0.00523,0.06392,-0.04990,0.05551,0.99125,5.29514,1.67634,1.95656,1.97626,-1.77728,4.45024,5.22919,-1.77321,4.41073,2.06169,2.06169,A,140336.00
5.31147,57.68794230,11.98130567,57.68794183,11.98130583,14:03:36.217304,0.00519,1.67833,1.67833,0.00079,0.03431,0.03148,-0.00157,0.06773,-0.04471,0.05606,0.92324,5.30575,1.67674,1.95784,1.97779,-1.78287,4.46296,5.22919,-1.77321,4.41073,2.06169,2.06169,A,140336.00
5.32154,57.68794241,11.98130558,57.68794183,11.98130583,14:03:36.227370,0.00487,1.67833,1.67833,0.00106,0.03505,0.03270,0.01126,0.06697,-0.07125,0.03276,0.88468,5.31618,1.67706,1.95908,1.97947,-1.78822,4.47507,5.22919,-1.77321,4.41073,2.06169,2.06169,A,140336.00
5.34829,57.68794252,11.98130549,57.68794300,11.98130467,14:03:36.254129,0.02121,1.67833,1.67833,0.00157,0.03604,0.03071,0.02394,0.06407,-0.03983,0.04593,0.82850,5.32638,1.67731,1.96032,1.98129,-1.79362,4.48725,5.34365,-1.84255,4.54046,2.06169,2.06169,A,140336.10
5.36290,57.68794290,11.98130517,57.68794300,11.98130467,14:03:36.268753,0.00651,1.67833,1.67833,0.00247,0.03898,0.03560,0.01523,0.05781,-0.03453,0.03331,1.02401,5.35599,1.67752,1.96255,1.98522,-1.81237,4.52974,5.34365,-1.84255,4.54046,2.06169,2.06169,A,140336.10
5.37256,57.68794301,11.98130508,57.68794300,11.98130467,14:03:36.278400,0.00564,1.67833,1.67833,0.00284,0.03966,0.02995,0.01141,0.05017,-0.03465,0.04990,1.09281,5.36693,1.67768,1.96375,1.98682,-1.81791,4.54175,5.34365,-1.84255,4.54046,2.06169,2.06169,A,140336.10
5.38217,57.68794312,11.98130499,57.68794300,11.98130467,14:03:36.288003,0.00486,1.67833,1.67833,0.00248,0.04006,0.02888,0.01187,0.05093,-0.05075,-0.00043,1.11557,5.37679,1.67781,1.96494,1.98824,-1.82339,4.55359,5.34365,-1.84255,4.54046,2.06169,2.06169,A,140336.10
5.39259,57.68794323,11.98130489,57.68794300,11.98130467,14:03:36.298419,0.00488,1.67833,1.67833,0.00299,0.04017,0.02277,0.01645,0.05216,-0.09528,0.06753,1.11404,5.38697,1.67792,1.96616,1.98953,-1.82922,4.56617,5.34365,-1.84255,4.54046,2.06169,2.06169,A,140336.10
5.40342,57.68794335,11.98130479,57.68794300,11.98130467,14:03:36.309255,0.00533,1.67833,1.67833,0.00278,0.04017,0.02354,0.02562,0.05720,-0.04709,0.01360,1.02754,5.39761,1.67800,1.96738,1.99075,-1.83517,4.57898,5.34365,-1.84255,4.54046,2.06169,2.06169,A,140336.10
5.41340,57.68794345,11.98130470,57.68794300,11.98130467,14:03:36.319234,0.00486,1.67833,1.67833,0.00279,0.04017,0.02537,0.02271,0.05903,-0.01854,0.02574,0.93641,5.40802,1.67807,1.96857,1.99193,-1.84080,4.59103,5.34365,-1.84255,4.54046,2.06169,2.06169,A,140336.10
5.42407,57.68794357,11.98130460,57.68794300,11.98130467,14:03:36.329900,0.00495,1.67833,1.67833,0.00359,0.04017,0.02445,0.00653,0.06789,-0.04502,0.07064,0.86553,5.41844,1.67812,1.96976,1.99313,-1.84667,4.60359,5.34365,-1.84255,4.54046,2.06169,2.06169,A,140336.10
5.43437,57.68794368,11.98130450,57.68794300,11.98130467,14:03:36.340201,0.00486,1.67833,1.67833,0.00452,0.04017,0.02506,0.00576,0.07155,-0.08406,0.07875,0.87151,5.42899,1.67816,1.97094,1.99431,-1.85242,4.61585,5.34365,-1.84255,4.54046,2.06169,2.06169,A,140336.10
5.47141,57.68794379,11.98130441,57.68794550,11.98130250,14:03:36.377245,0.03151,1.67833,1.67833,0.00477,0.04017,0.03805,0.01386,0.07247,-0.16958,0.03337,0.89090,5.43918,1.67820,1.97210,1.99547,-1.85805,4.62780,5.46698,-1.97133,4.81845,2.00462,2.00462,A,140336.30
5.48547,57.68794433,11.98130394,57.68794550,11.98130250,14:03:36.391303,0.00615,1.67833,1.67833,0.00566,0.04017,0.01972,0.06792,0.04238,0.01824,0.05899,1.17260,5.48005,1.67822,1.97445,1.99782,-1.88579,4.68856,5.46698,-1.97133,4.81845,2.00462,2.00462,A,140336.30
5.49650,57.68794447,11.98130382,57.68794550,11.98130250,14:03:36.402331,0.00679,1.67833,1.67833,0.00581,0.04017,0.01911,0.04242,0.04162,-0.01421,0.04636,1.11478,5.49083,1.67824,1.97504,1.99841,-1.89281,4.70340,5.46698,-1.97133,4.81845,2.00462,2.00462,A,140336.30
5.50493,57.68794457,11.98130373,57.68794550,11.98130250,14:03:36.410762,0.00482,1.67833,1.67833,0.00622,0.04017,0.01957,0.01661,0.03933,0.06240,0.06521,1.04774,5.49938,1.67826,1.97549,1.99886,-1.89819,4.71462,5.46698,-1.97133,4.81845,2.00462,2.00462,A,140336.30
5.51593,57.68794470,11.98130361,57.68794550,11.98130250,14:03:36.421765,0.00543,1.67833,1.67833,0.00556,0.04017,0.02201,0.00698,0.04803,-0.08253,-0.01238,0.97594,5.51026,1.67828,1.97606,1.99943,-1.90507,4.72914,5.46698,-1.97133,4.81845,2.00462,2.00462,A,140336.30
5.52574,57.68794481,11.98130351,57.68794550,11.98130250,14:03:36.431573,0.00485,1.67833,1.67833,0.00602,0.04017,0.01529,0.00439,0.05002,-0.04703,0.06051,0.88499,5.52039,1.67829,1.97658,1.99995,-1.91128,4.74218,5.46698,-1.97133,4.81845,2.00462,2.00462,A,140336.30
5.53607,57.68794493,11.98130340,57.68794550,11.98130250,14:03:36.441908,0.00496,1.67833,1.67833,0.00597,0.04017,0.01682,0.01004,0.05475,-0.14817,0.02934,0.88249,5.53042,1.67830,1.97711,2.00048,-1.91758,4.75541,5.46698,-1.97133,4.81845,2.00462,2.00462,A,140336.30
5.54637,57.68794505,11.98130330,57.68794550,11.98130250,14:03:36.452205,0.00486,1.67833,1.67833,0.00547,0.04017,0.01850,0.03066,0.05475,-0.04666,0.00171,0.86589,5.54101,1.67830,1.97764,2.00101,-1.92401,4.76889,5.46698,-1.97133,4.81845,2.00462,2.00462,A,140336.30
5.55738,57.68794518,11.98130318,57.68794550,11.98130250,14:03:36.463209,0.00547,1.67833,1.67833,0.00598,0.04017,0.00933,0.03814,0.05765,-0.09553,0.06515,0.87376,5.55186,1.67831,1.97821,2.00158,-1.93086,4.78328,5.46698,-1.97133,4.81845,2.00462,2.00462,A,140336.30
5.58435,57.68794530,11.98130308,57.68794683,11.98130167,14:03:36.490186,0.02206,1.44806,1.44806,0.00591,0.04017,0.00628,0.04150,0.04910,-0.08839,0.03465,0.95819,5.56177,1.63226,1.97871,2.00207,-1.93679,4.79565,5.57888,-2.02086,4.96671,1.89322,1.89322,A,140336.40
5.59659,57.68794567,11.98130276,57.68794683,11.98130167,14:03:36.502424,0.00640,1.44806,1.44806,0.00612,0.04017,0.01361,0.04394,0.02558,0.03489,0.03416,1.10221,5.59096,1.59542,1.97915,2.00251,-1.95592,4.83710,5.57888,-2.02086,4.96671,1.89322,1.89322,A,140336.40
5.60632,57.68794577,11.98130267,57.68794683,11.98130167,14:03:36.512154,0.00574,1.44806,1.44806,0.00660,0.04009,0.00796,0.01920,0.02833,0.00781,0.07491,1.04993,5.60004,1.56595,1.97844,2.00176,-1.96122,4.84849,5.57888,-2.02086,4.96671,1.89322,1.89322,A,140336.40
5.61676,57.68794589,11.98130257,57.68794683,11.98130167,14:03:36.522592,0.00570,1.44806,1.44806,0.00737,0.03969,0.00338,-0.00539,0.02528,-0.12090,0.10089,1.08318,5.61117,1.54237,1.97782,2.00090,-1.96728,4.86156,5.57888,-2.02086,4.96671,1.89322,1.89322,A,140336.40
5.62632,57.68794599,11.98130248,57.68794683,11.98130167,14:03:36.532153,0.00486,1.44806,1.44806,0.00659,0.03907,0.01086,0.00622,0.02345,-0.05453,-0.01409,1.02242,5.62094,1.52351,1.97715,1.99988,-1.97276,4.87340,5.57888,-2.02086,4.96671,1.89322,1.89322,A,140336.40
5.63676,57.68794611,11.98130238,57.68794683,11.98130167,14:03:36.542591,0.00490,1.44806,1.44806,0.00637,0.03816,0.00475,0.00943,0.02314,-0.13237,0.02580,0.96898,5.63115,1.50842,1.97652,1.99872,-1.97851,4.88585,5.57888,-2.02086,4.96671,1.89322,1.89322,A,140336.40
5.64765,57.68794622,11.98130228,57.68794683,11.98130167,14:03:36.553487,0.00540,1.44806,1.44806,0.00773,0.03703,0.00842,0.02317,0.03185,-0.06551,0.11492,0.88139,5.64187,1.49635,1.97590,1.99744,-1.98432,4.89847,5.57888,-2.02086,4.96671,1.89322,1.89322,A,140336.40
5.65793,57.68794633,11.98130219,57.68794683,11.98130167,14:03:36.563767,0.00530,1.44806,1.44806,0.00734,0.03584,0.00903,0.03722,0.03734,-0.08412,0.01202,0.90365,5.65255,1.48669,1.97527,1.99612,-1.98989,4.91060,5.57888,-2.02086,4.96671,1.89322,1.89322,A,140336.40
5.66803,57.68794643,11.98130210,57.68794683,11.98130167,14:03:36.573865,0.00496,1.44806,1.44806,0.00736,0.03465,0.01712,0.04410,0.03994,-0.08034,0.03154,0.88011,5.66238,1.47896,1.97462,1.99477,-1.99507,4.92191,5.57888,-2.02086,4.96671,1.89322,1.89322,A,140336.40
5.67830,57.68794654,11.98130201,57.68794683,11.98130167,14:03:36.584140,0.00484,1.44806,1.44806,0.00824,0.03347,0.01697,0.04669,0.04131,-0.12895,0.08961,0.97911,5.67294,1.47278,1.97399,1.99345,-2.00045,4.93369,5.57888,-2.02086,4.96671,1.89322,1.89322,A,140336.40
5.70523,57.68794664,11.98130192,57.68794783,11.98130067,14:03:36.611063,0.02137,1.44806,1.44806,0.00809,0.03242,0.02506,0.05417,0.03597,-0.04002,0.01824,0.99924,5.68313,1.46784,1.97335,1.99220,-2.00567,4.94519,5.70025,-2.08030,5.07790,2.06169,2.06169,A,140336.50
5.72108,57.68794700,11.98130162,57.68794783,11.98130067,14:03:36.626909,0.00704,1.44806,1.44806,0.00881,0.03001,0.01331,0.01187,0.02329,0.00616,0.06948,1.06665,5.71458,1.46388,1.97526,1.99271,-2.02390,4.98552,5.70025,-2.08030,5.07790,2.06169,2.06169,A,140336.50
5.72925,57.68794709,11.98130154,57.68794783,11.98130067,14:03:36.635088,0.00483,1.44806,1.44806,0.00820,0.02945,0.01834,0.00271,0.01596,-0.06832,-0.00714,1.02620,5.72391,1.46072,1.97620,1.99332,-2.02828,4.99493,5.70025,-2.08030,5.07790,2.06169,2.06169,A,140336.50
5.74004,57.68794720,11.98130145,57.68794783,11.98130067,14:03:36.645867,0.00508,1.44806,1.44806,0.00833,0.02877,0.01544,0.00531,0.00970,-0.10096,0.04178,0.97521,5.73425,1.45819,1.97721,1.99394,-2.03397,5.00727,5.70025,-2.08030,5.07790,2.06169,2.06169,A,140336.50
5.75034,57.68794731,11.98130135,57.68794783,11.98130067,14:03:36.656177,0.00500,1.44806,1.44806,0.00854,0.02795,0.01697,0.02226,0.01092,-0.06539,0.04215,0.90878,5.74498,1.45616,1.97820,1.99445,-2.03949,5.01920,5.70025,-2.08030,5.07790,2.06169,2.06169,A,140336.50
5.76064,57.68794741,11.98130126,57.68794783,11.98130067,14:03:36.666473,0.00491,1.44806,1.44806,0.00877,0.02710,0.01743,0.03081,0.01062,-0.09870,0.04209,0.85022,5.75501,1.45454,1.97916,1.99492,-2.04478,5.03061,5.70025,-2.08030,5.07790,2.06169,2.06169,A,140336.50
5.77124,57.68794751,11.98130117,57.68794783,11.98130067,14:03:36.677077,0.00512,1.44806,1.44806,0.00877,0.02611,0.02430,0.04058,0.00924,-0.03026,0.02385,0.85162,5.76560,1.45324,1.98013,1.99531,-2.05019,5.04229,5.70025,-2.08030,5.07790,2.06169,2.06169,A,140336.50
5.78136,57.68794761,11.98130109,57.68794783,11.98130067,14:03:36.687190,0.00484,1.44806,1.44806,0.00915,0.02526,0.02644,0.03951,0.01382,-0.05014,0.04904,0.94398,5.77600,1.45221,1.98107,1.99575,-2.05543,5.05357,5.70025,-2.08030,5.07790,2.06169,2.06169,A,140336.50
5.79197,57.68794772,11.98130100,57.68794783,11.98130067,14:03:36.697801,0.00493,1.44806,1.44806,0.00879,0.02447,0.03041,0.02959,0.01902,-0.04130,-0.00006,1.01114,5.78633,1.45138,1.98200,1.99623,-2.06075,5.06501,5.70025,-2.08030,5.07790,2.06169,2.06169,A,140336.50
5.81952,57.68794782,11.98130091,57.68794917,11.98129917,14:03:36.725534,0.02209,1.44806,1.44806,0.00889,0.02384,0.02201,0.02271,0.02009,0.02153,0.03812,1.08574,5.79691,1.45071,1.98292,1.99678,-2.06600,5.07629,5.81386,-2.16945,5.22616,2.11221,2.11221,A,140336.60
5.83674,57.68794821,11.98130057,57.68794917,11.98129917,14:03:36.742576,0.00592,1.44806,1.44806,0.00983,0.02240,0.03560,-0.00203,0.01581,-0.04648,0.02800,1.03791,5.83112,1.45018,1.98505,1.99807,-2.08627,5.12019,5.81386,-2.16945,5.22616,2.11221,2.11221,A,140336.60
5.84605,57.68794831,11.98130048,57.68794917,11.98129917,14:03:36.751881,0.00484,1.44806,1.44806,0.00977,0.02206,0.03881,-0.00768,0.01581,-0.06399,0.01525,0.93537,5.84070,1.44976,1.98640,1.99923,-2.09159,5.13110,5.81386,-2.16945,5.22616,2.11221,2.11221,A,140336.60
5.85658,57.68794842,11.98130038,57.68794917,11.98129917,14:03:36.762411,0.00514,1.44806,1.44806,0.00946,0.02172,0.04171,-0.00539,0.01474,-0.09016,-0.00299,0.92293,5.85076,1.44942,1.98776,2.00039,-2.09730,5.14286,5.81386,-2.16945,5.22616,2.11221,2.11221,A,140336.60
5.86816,57.68794853,11.98130028,57.68794917,11.98129917,14:03:36.773995,0.00633,1.44806,1.44806,0.00937,0.02144,0.04293,0.00179,0.01306,-0.09284,0.00592,0.85693,5.86213,1.44915,1.98913,2.00159,-2.10349,5.15562,5.81386,-2.16945,5.22616,2.11221,2.11221,A,140336.60
5.87794,57.68794862,11.98130019,57.68794917,11.98129917,14:03:36.783789,0.00572,1.44806,1.44806,0.00957,0.02113,0.04034,0.01264,0.01199,-0.12523,0.02977,0.89395,5.87169,1.44893,1.99043,2.00271,-2.10841,5.16560,5.81386,-2.16945,5.22616,2.11221,2.11221,A,140336.60
5.88774,57.68794872,11.98130010,57.68794917,11.98129917,14:03:36.793570,0.00512,1.44806,1.44806,0.00965,0.02076,0.04706,0.01722,0.00985,-0.08991,0.01629,0.94806,5.88209,1.44876,1.99173,2.00380,-2.11368,5.17632,5.81386,-2.16945,5.22616,2.11221,2.11221,A,140336.60
5.89788,57.68794882,11.98130001,57.68794917,11.98129917,14:03:36.803710,0.00487,1.44806,1.44806,0.00941,0.02030,0.04538,0.02592,0.01108,-0.01110,-0.00250,1.03181,5.89250,1.44862,1.99303,2.00484,-2.11926,5.18768,5.81386,-2.16945,5.22616,2.11221,2.11221,A,140336.60
5.90816,57.68794892,11.98129992,57.68794917,11.98129917,14:03:36.813991,0.00493,1.44806,1.44806,0.00944,0.01980,0.04354,0.01661,0.00665,-0.06881,0.01873,1.10239,5.90254,1.44851,1.99432,2.00583,-2.12474,5.19879,5.81386,-2.16945,5.22616,2.11221,2.11221,A,140336.60
5.93552,57.68794902,11.98129982,57.68795017,11.98129800,14:03:36.841359,0.02190,1.44806,1.44806,0.00954,0.01926,0.04614,0.01676,0.01169,-0.00512,0.01982,1.08964,5.91311,1.44842,1.99559,2.00679,-2.13033,5.21015,5.93011,-2.23880,5.33736,2.12840,2.12840,A,140336.70
5.95187,57.68794940,11.98129949,57.68795017,11.98129800,14:03:36.857714,0.00669,1.44806,1.44806,0.01075,0.01745,0.04354,0.01294,0.00756,-0.08363,0.03166,1.03230,5.94581,1.44834,1.99756,2.00771,-2.15015,5.25163,5.93011,-2.23880,5.33736,2.12840,2.12840,A,140336.70
5.96050,57.68794948,11.98129941,57.68795017,11.98129800,14:03:36.866338,0.00492,1.44806,1.44806,0.01148,0.01677,0.04415,0.01477,0.00817,-0.04252,0.06374,0.94337,5.95486,1.44829,1.99892,2.00867,-2.15502,5.26102,5.93011,-2.23880,5.33736,2.12840,2.12840,A,140336.70
5.97117,57.68794959,11.98129931,57.68795017,11.98129800,14:03:36.877005,0.00513,1.44806,1.44806,0.01133,0.01589,0.04583,0.00301,0.00344,-0.03532,0.00372,0.90847,5.96554,1.44824,2.00030,2.00954,-2.16110,5.27297,5.93011,-2.23880,5.33736,2.12840,2.12840,A,140336.70
5.98125,57.68794969,11.98129921,57.68795017,11.98129800,14:03:36.887088,0.00482,1.44806,1.44806,0.01099,0.01493,0.04247,-0.00874,0.00405,-0.03611,-0.00586,0.91402,5.97590,1.44821,2.00166,2.01034,-2.16694,5.28440,5.93011,-2.23880,5.33736,2.12840,2.12840,A,140336.70
5.99202,57.68794980,11.98129911,57.68795017,11.98129800,14:03:36.897854,0.00496,1.44806,1.44806,0.01092,0.01382,0.03071,-0.01455,-0.00053,-0.13585,0.01867,0.98576,5.98638,1.44818,2.00301,2.01105,-2.17296,5.29622,5.93011,-2.23880,5.33736,2.12840,2.12840,A,140336.70
6.00231,57.68794990,11.98129901,57.68795017,11.98129800,14:03:36.908141,0.00486,1.44806,1.44806,0.01091,0.01263,0.03743,0.00805,0.00008,-0.13133,0.01800,1.02822,5.99693,1.44815,2.00433,2.01168,-2.17881,5.30765,5.93011,-2.23880,5.33736,2.12840,2.12840,A,140336.70
6.01271,57.68795000,11.98129891,57.68795017,11.98129800,14:03:36.918544,0.00487,1.44806,1.44806,0.01028,0.01139,0.03102,0.01019,-0.00129,-0.04288,-0.01958,1.04810,6.00712,1.44813,2.00564,2.01226,-2.18454,5.31881,5.93011,-2.23880,5.33736,2.12840,2.12840,A,140336.70
6.02355,57.68795010,11.98129881,57.68795017,11.98129800,14:03:36.929383,0.00531,1.44806,1.44806,0.00938,0.01000,0.03133,0.01355,-0.00465,0.04233,-0.04117,1.04401,6.01789,1.44812,2.00693,2.01275,-2.19045,5.33035,5.93011,-2.23880,5.33736,2.12840,2.12840,A,140336.70
6.05010,57.68795020,11.98129872,57.68795133,11.98129717,14:03:36.955935,0.02109,1.54099,1.54099,0.00933,0.00859,0.02216,0.00347,-0.00190,-0.04221,0.02562,1.08019,6.02848,1.46669,2.00821,2.01320,-2.19615,5.34145,6.04577,-2.28833,5.46708,1.93552,1.93552,A,140336.80
6.06059,57.68795051,11.98129844,57.68795133,11.98129717,14:03:36.966419,0.00502,1.54099,1.54099,0.00974,0.00454,0.02201,0.01676,-0.01260,-0.07253,0.02916,0.95142,6.05496,1.48155,2.00772,2.01036,-2.21242,5.37510,6.04577,-2.28833,5.46708,1.93552,1.93552,A,140336.80
6.07108,57.68795062,11.98129834,57.68795133,11.98129717,14:03:36.976918,0.00511,1.54099,1.54099,0.00977,0.00276,0.02216,0.01493,-0.01015,0.03379,0.02501,0.89646,6.06547,1.49344,2.00703,2.00863,-2.21845,5.38725,6.04577,-2.28833,5.46708,1.93552,1.93552,A,140336.80
6.08135,57.68795072,11.98129824,57.68795133,11.98129717,14:03:36.987180,0.00493,1.54099,1.54099,0.00983,0.00095,0.00933,-0.00157,-0.01351,0.04788,0.03550,0.91000,6.07598,1.50295,2.00634,2.00689,-2.22448,5.39943,6.04577,-2.28833,5.46708,1.93552,1.93552,A,140336.80
6.09334,57.68795084,11.98129814,57.68795133,11.98129717,14:03:36.999194,0.00640,1.54099,1.54099,0.00950,-0.00101,0.00872,-0.01485,-0.01534,-0.01708,0.01202,0.92805,6.08624,1.51056,2.00565,2.00506,-2.23067,5.41202,6.04577,-2.28833,5.46708,1.93552,1.93552,A,140336.80
6.10287,57.68795093,11.98129805,57.68795133,11.98129717,14:03:37.008719,0.00553,1.54099,1.54099,0.00995,-0.00305,-0.00059,-0.00951,-0.01702,-0.10705,0.07210,1.02297,6.09683,1.51664,2.00496,2.00318,-2.23594,5.42269,6.04577,-2.28833,5.46708,1.93552,1.93552,A,140336.80
6.11261,57.68795104,11.98129796,57.68795133,11.98129717,14:03:37.018448,0.00487,1.54099,1.54099,0.00988,-0.00505,0.00002,0.00027,-0.02435,-0.07296,0.03812,1.07750,6.10700,1.52151,2.00426,2.00132,-2.24145,5.43394,6.04577,-2.28833,5.46708,1.93552,1.93552,A,140336.80
6.12342,57.68795115,11.98129786,57.68795133,11.98129717,14:03:37.029261,0.00528,1.54099,1.54099,0.00994,-0.00709,0.00032,0.00103,-0.02848,-0.04453,0.04795,1.10556,6.11777,1.52541,2.00355,1.99943,-2.24742,5.44623,6.04577,-2.28833,5.46708,1.93552,1.93552,A,140336.80
6.13336,57.68795125,11.98129776,57.68795133,11.98129717,14:03:37.039188,0.00482,1.54099,1.54099,0.00927,-0.00899,-0.00136,0.00271,-0.03352,-0.00762,-0.00421,1.07403,6.12799,1.52853,2.00285,1.99762,-2.25294,5.45763,6.04577,-2.28833,5.46708,1.93552,1.93552,A,140336.80
6.14475,57.68795137,11.98129766,57.68795133,11.98129717,14:03:37.050581,0.00501,1.54099,1.54099,0.00811,-0.01086,-0.00533,-0.00080,-0.03642,-0.01775,-0.03636,1.02309,6.13915,1.53102,2.00213,1.99582,-2.25917,5.47065,6.04577,-2.28833,5.46708,1.93552,1.93552,A,140336.80
6.18547,57.68795147,11.98129756,57.68795383,11.98129517,14:03:37.091323,0.03534,1.54099,1.54099,0.00738,-0.01236,-0.01098,-0.00768,-0.03764,-0.06015,-0.00378,0.96520,6.14977,1.53301,2.00141,1.99423,-2.26484,5.48249,6.17928,-2.40720,5.74507,1.97489,1.97489,A,140337.00
6.19896,57.68795201,11.98129710,57.68795383,11.98129517,14:03:37.104810,0.00742,1.54099,1.54099,0.00674,-0.01578,-0.01037,-0.01852,-0.02939,-0.05197,0.02111,0.96459,6.19334,1.53461,2.00056,1.99139,-2.29214,5.54254,6.17928,-2.40720,5.74507,1.97489,1.97489,A,140337.00
6.20714,57.68795211,11.98129702,57.68795383,11.98129517,14:03:37.112983,0.00520,1.54099,1.54099,0.00602,-0.01621,-0.00410,-0.00554,-0.03245,-0.02641,-0.01147,1.03236,6.20143,1.53588,2.00027,1.99084,-2.29720,5.55330,6.17928,-2.40720,5.74507,1.97489,1.97489,A,140337.00
6.21719,57.68795223,11.98129691,57.68795383,11.98129517,14:03:37.123022,0.00485,1.54099,1.54099,0.00544,-0.01674,-0.00808,0.00195,-0.03107,-0.13560,0.00098,1.10007,6.21182,1.53691,1.99993,1.99020,-2.30344,5.56674,6.17928,-2.40720,5.74507,1.97489,1.97489,A,140337.00
6.22783,57.68795235,11.98129681,57.68795383,11.98129517,14:03:37.133660,0.00492,1.54099,1.54099,0.00553,-0.01720,-0.00640,0.01768,-0.03413,-0.07039,0.04978,1.12868,6.22219,1.53772,1.99959,1.98959,-2.30979,5.58043,6.17928,-2.40720,5.74507,1.97489,1.97489,A,140337.00
6.23815,57.68795247,11.98129670,57.68795383,11.98129517,14:03:37.143982,0.00485,1.54099,1.54099,0.00592,-0.01745,-0.01205,0.01874,-0.03275,-0.00781,0.07357,1.07543,6.23279,1.53838,1.99925,1.98911,-2.31606,5.59396,6.17928,-2.40720,5.74507,1.97489,1.97489,A,140337.00
6.24858,57.68795259,11.98129660,57.68795383,11.98129517,14:03:37.154410,0.00488,1.54099,1.54099,0.00600,-0.01748,-0.00746,-0.00172,-0.03138,-0.00372,0.04532,1.03383,6.24296,1.53890,1.99892,1.98875,-2.32215,5.60714,6.17928,-2.40720,5.74507,1.97489,1.97489,A,140337.00
6.25929,57.68795271,11.98129649,57.68795383,11.98129517,14:03:37.165127,0.00520,1.54099,1.54099,0.00589,-0.01748,-0.00640,-0.01088,-0.02756,0.05746,0.02861,0.93897,6.25357,1.53932,1.99858,1.98842,-2.32830,5.62044,6.17928,-2.40720,5.74507,1.97489,1.97489,A,140337.00
6.26934,57.68795283,11.98129640,57.68795383,11.98129517,14:03:37.175165,0.00485,1.54099,1.54099,0.00653,-0.01748,-0.00120,-0.03028,-0.02985,-0.05758,0.07338,0.95410,6.26395,1.53965,1.99825,1.98809,-2.33419,5.63319,6.17928,-2.40720,5.74507,1.97489,1.97489,A,140337.00
6.29620,57.68795294,11.98129629,57.68795500,11.98129400,14:03:37.202031,0.02119,1.54099,1.54099,0.00631,-0.01748,-0.00395,-0.02386,-0.02283,-0.08900,0.01915,0.87809,6.27431,1.53992,1.99792,1.98776,-2.34020,5.64622,6.29166,-2.47655,5.87480,2.06169,2.06169,A,140337.10
6.30636,57.68795327,11.98129602,57.68795500,11.98129400,14:03:37.212186,0.00487,1.54099,1.54099,0.00580,-0.01748,-0.00319,-0.00126,-0.02863,-0.04429,0.00567,0.96386,6.30099,1.54013,1.99809,1.98793,-2.35677,5.68283,6.29166,-2.47655,5.87480,2.06169,2.06169,A,140337.10
6.31674,57.68795340,11.98129591,57.68795500,11.98129400,14:03:37.222567,0.00486,1.54099,1.54099,0.00567,-0.01748,0.00521,0.00836,-0.02894,-0.03666,0.02159,1.01595,6.31115,1.54031,1.99864,1.98847,-2.36313,5.69641,6.29166,-2.47655,5.87480,2.06169,2.06169,A,140337.10
6.32757,57.68795352,11.98129580,57.68795500,11.98129400,14:03:37.233404,0.00530,1.54099,1.54099,0.00471,-0.01748,-0.00197,0.01248,-0.02726,-0.13542,-0.03123,1.07750,6.32173,1.54044,1.99917,1.98901,-2.36957,5.71014,6.29166,-2.47655,5.87480,2.06169,2.06169,A,140337.10
6.33759,57.68795364,11.98129570,57.68795500,11.98129400,14:03:37.243420,0.00492,1.54099,1.54099,0.00492,-0.01748,0.00094,0.02119,-0.02802,-0.12511,0.04917,1.07250,6.33222,1.54055,1.99971,1.98954,-2.37574,5.72326,6.29166,-2.47655,5.87480,2.06169,2.06169,A,140337.10
6.34819,57.68795376,11.98129559,57.68795500,11.98129400,14:03:37.254020,0.00511,1.54099,1.54099,0.00457,-0.01748,0.00704,0.02195,-0.02848,0.01421,0.00512,1.07750,6.34239,1.54064,2.00023,1.99007,-2.38194,5.73644,6.29166,-2.47655,5.87480,2.06169,2.06169,A,140337.10
6.35846,57.68795387,11.98129549,57.68795500,11.98129400,14:03:37.264291,0.00499,1.54099,1.54099,0.00517,-0.01748,0.00170,0.00637,-0.01718,0.04581,0.07302,1.02657,6.35310,1.54071,2.00075,1.99059,-2.38816,5.74965,6.29166,-2.47655,5.87480,2.06169,2.06169,A,140337.10
6.36875,57.68795399,11.98129539,57.68795500,11.98129400,14:03:37.274581,0.00488,1.54099,1.54099,0.00431,-0.01748,0.01071,-0.00936,-0.01153,-0.02147,-0.03202,1.03175,6.36314,1.54077,2.00127,1.99111,-2.39417,5.76240,6.29166,-2.47655,5.87480,2.06169,2.06169,A,140337.10
6.37937,57.68795411,11.98129528,57.68795500,11.98129400,14:03:37.285201,0.00511,1.54099,1.54099,0.00453,-0.01748,0.01239,-0.01806,-0.00969,-0.08064,0.03721,0.97960,6.37371,1.54081,2.00178,1.99162,-2.40032,5.77543,6.29166,-2.47655,5.87480,2.06169,2.06169,A,140337.10
6.38948,57.68795422,11.98129518,57.68795500,11.98129400,14:03:37.295315,0.00484,1.54099,1.54099,0.00377,-0.01748,0.00292,-0.01623,-0.01244,-0.05972,-0.01940,0.94965,6.38410,1.54085,2.00229,1.99212,-2.40626,5.78799,6.29166,-2.47655,5.87480,2.06169,2.06169,A,140337.10
6.41782,57.68795436,11.98129506,57.68795633,11.98129233,14:03:37.323653,0.02275,1.54099,1.54099,0.00383,-0.01748,0.00536,-0.01898,-0.01351,-0.10486,0.02873,0.93373,6.39648,1.54088,2.00274,1.99257,-2.41357,5.80361,6.41375,-2.57561,6.02306,2.15983,2.15983,A,140337.20
6.42845,57.68795469,11.98129478,57.68795633,11.98129233,14:03:37.334286,0.00505,1.54099,1.54099,0.00312,-0.01748,0.00933,0.00271,-0.02145,-0.01629,-0.03135,0.96392,6.42279,1.54090,2.00384,1.99368,-2.43047,5.83986,6.41375,-2.57561,6.02306,2.15983,2.15983,A,140337.20
6.43889,57.68795481,11.98129466,57.68795633,11.98129233,14:03:37.344738,0.00510,1.54099,1.54099,0.00322,-0.01748,0.00491,0.00989,-0.02573,-0.11675,0.03575,1.02632,6.43328,1.54092,2.00531,1.99514,-2.43719,5.85339,6.41375,-2.57561,6.02306,2.15983,2.15983,A,140337.20
6.44936,57.68795493,11.98129454,57.68795633,11.98129233,14:03:37.355191,0.00500,1.54099,1.54099,0.00219,-0.01748,0.00094,0.00760,-0.02191,-0.05051,-0.04026,1.04200,6.44398,1.54093,2.00675,1.99659,-2.44417,5.86747,6.41375,-2.57561,6.02306,2.15983,2.15983,A,140337.20
6.45997,57.68795506,11.98129443,57.68795633,11.98129233,14:03:37.365807,0.00506,1.54099,1.54099,0.00235,-0.01748,0.00124,0.00546,-0.02023,-0.07064,0.04172,1.04340,6.45434,1.54094,2.00818,1.99802,-2.45088,5.88092,6.41375,-2.57561,6.02306,2.15983,2.15983,A,140337.20
6.47272,57.68795519,11.98129431,57.68795633,11.98129233,14:03:37.379072,0.00743,1.69380,1.69380,0.00266,-0.01748,-0.00349,-0.00096,-0.01504,-0.01757,0.05405,1.01980,6.46619,1.57151,2.00957,1.99941,-2.45834,5.89601,6.41375,-2.57561,6.02306,2.15983,2.15983,A,140337.20
6.48059,57.68795528,11.98129422,57.68795633,11.98129233,14:03:37.386419,0.00489,1.69380,1.69380,0.00262,-0.01748,-0.00319,-0.01348,-0.01000,0.01580,0.02873,1.01248,6.47496,1.59597,2.01104,2.00088,-2.46329,5.90553,6.41375,-2.57561,6.02306,2.15983,2.15983,A,140337.20
6.49117,57.68795540,11.98129411,57.68795633,11.98129233,14:03:37.397014,0.00509,1.69380,1.69380,0.00216,-0.01748,-0.00304,-0.01638,-0.00908,-0.01781,0.00122,0.93415,6.48556,1.61554,2.01242,2.00226,-2.47005,5.91899,6.41375,-2.57561,6.02306,2.15983,2.15983,A,140337.20
6.50131,57.68795552,11.98129400,57.68795633,11.98129233,14:03:37.407145,0.00484,1.69380,1.69380,0.00260,-0.01748,-0.01617,-0.02585,-0.01351,-0.07119,0.06301,0.91421,6.49595,1.63119,2.01380,2.00363,-2.47670,5.93218,6.41375,-2.57561,6.02306,2.15983,2.15983,A,140337.20
6.51238,57.68795564,11.98129388,57.68795633,11.98129233,14:03:37.418219,0.00527,1.69380,1.69380,0.00345,-0.01748,-0.00670,-0.00981,-0.01366,-0.08418,0.08589,0.94044,6.50675,1.64371,2.01514,2.00497,-2.48379,5.94630,6.41375,-2.57561,6.02306,2.15983,2.15983,A,140337.20
6.54026,57.68795576,11.98129377,57.68795750,11.98129133,14:03:37.446111,0.02276,1.69380,1.69380,0.00437,-0.01748,-0.00395,0.00851,-0.01977,-0.20209,0.09260,0.98338,6.51700,1.65373,2.01648,2.00632,-2.49032,5.95918,6.53418,-2.63505,6.15279,2.00042,2.00042,A,140337.30
6.55763,57.68795622,11.98129336,57.68795750,11.98129133,14:03:37.463460,0.00489,1.69380,1.69380,0.00358,-0.01748,-0.01174,0.02821,-0.02817,0.02855,0.00708,1.08220,6.55225,1.66174,2.01560,2.00543,-2.51469,6.01037,6.53418,-2.63505,6.15279,2.00042,2.00042,A,140337.30
6.56802,57.68795634,11.98129324,57.68795750,11.98129133,14:03:37.473852,0.00493,1.69380,1.69380,0.00359,-0.01748,-0.01449,0.01569,-0.01687,-0.04673,0.04368,1.06262,6.56239,1.66815,2.01534,2.00518,-2.52166,6.02422,6.53418,-2.63505,6.15279,2.00042,2.00042,A,140337.30
6.57831,57.68795647,11.98129312,57.68795750,11.98129133,14:03:37.484141,0.00483,1.69380,1.69380,0.00385,-0.01748,-0.01770,0.01401,-0.02390,-0.02025,0.05844,0.97734,6.57296,1.67328,2.01508,2.00491,-2.52872,6.03827,6.53418,-2.63505,6.15279,2.00042,2.00042,A,140337.30
6.58888,57.68795659,11.98129301,57.68795750,11.98129133,14:03:37.494714,0.00500,1.69380,1.69380,0.00474,-0.01748,-0.01861,-0.00493,-0.00893,0.00488,0.09937,0.96154,6.58316,1.67739,2.01482,2.00466,-2.53565,6.05208,6.53418,-2.63505,6.15279,2.00042,2.00042,A,140337.30
6.59938,57.68795672,11.98129289,57.68795750,11.98129133,14:03:37.505216,0.00511,1.69380,1.69380,0.00439,-0.01748,-0.01235,-0.02890,-0.00450,-0.04362,0.01549,0.94233,6.59374,1.68067,2.01457,2.00440,-2.54254,6.06580,6.53418,-2.63505,6.15279,2.00042,2.00042,A,140337.30
6.60955,57.68795684,11.98129278,57.68795750,11.98129133,14:03:37.515381,0.00487,1.69380,1.69380,0.00352,-0.01748,-0.01128,-0.02203,-0.01153,-0.04148,-0.01842,0.95258,6.60419,1.68329,2.01431,2.00415,-2.54932,6.07933,6.53418,-2.63505,6.15279,2.00042,2.00042,A,140337.30
6.62003,57.68795696,11.98129266,57.68795750,11.98129133,14:03:37.525864,0.00495,1.69380,1.69380,0.00339,-0.01748,-0.02350,-0.01592,-0.01565,-0.16006,0.03684,0.97161,6.61438,1.68539,2.01406,2.00390,-2.55607,6.09279,6.53418,-2.63505,6.15279,2.00042,2.00042,A,140337.30
6.63056,57.68795708,11.98129255,57.68795750,11.98129133,14:03:37.536646,0.00502,1.69380,1.69380,0.00371,-0.01748,-0.02167,0.01233,-0.02176,-0.16293,0.06289,0.94556,6.62519,1.68708,2.01381,2.00364,-2.56298,6.10662,6.53418,-2.63505,6.15279,2.00042,2.00042,A,140337.30
6.66962,57.68795720,11.98129243,57.68795983,11.98128917,14:03:37.575459,0.03368,1.69380,1.69380,0.00290,-0.01748,-0.03022,0.03738,-0.03046,-0.01861,-0.00317,0.94019,6.63521,1.68842,2.01356,2.00340,-2.56959,6.11984,6.66431,-2.76383,6.41224,2.03152,2.03152,A,140337.50
6.68377,57.68795778,11.98129192,57.68795983,11.98128917,14:03:37.589599,0.00689,1.69380,1.69380,0.00194,-0.01748,-0.03220,-0.03135,-0.02649,-0.06472,0.05972,1.05707,6.67805,1.68950,2.01281,2.00265,-2.59998,6.18436,6.66431,-2.76383,6.41224,2.03152,2.03152,A,140337.50
6.69211,57.68795789,11.98129182,57.68795983,11.98128917,14:03:37.597946,0.00498,1.69380,1.69380,0.00219,-0.01748,-0.02961,-0.03471,-0.02588,-0.00067,0.06557,1.05408,6.68645,1.69036,2.01294,2.00278,-2.60600,6.19614,6.66431,-2.76383,6.41224,2.03152,2.03152,A,140337.50
6.70241,57.68795803,11.98129170,57.68795983,11.98128917,14:03:37.608248,0.00488,1.69380,1.69380,0.00184,-0.01748,-0.02762,-0.03150,-0.02390,-0.18867,0.02769,1.07622,6.69704,1.69104,2.01301,2.00285,-2.61353,6.21123,6.66431,-2.76383,6.41224,2.03152,2.03152,A,140337.50
6.71280,57.68795816,11.98129157,57.68795983,11.98128917,14:03:37.618630,0.00487,1.69380,1.69380,0.00143,-0.01748,-0.02197,-0.01027,-0.02832,-0.02318,0.01616,1.01089,6.70721,1.69160,2.01308,2.00292,-2.62103,6.22625,6.66431,-2.76383,6.41224,2.03152,2.03152,A,140337.50
6.72379,57.68795830,11.98129144,57.68795983,11.98128917,14:03:37.629628,0.00547,1.69380,1.69380,0.00131,-0.01748,-0.02991,-0.00401,-0.02955,-0.11291,0.04166,1.00205,6.71788,1.69204,2.01315,2.00298,-2.62853,6.24127,6.66431,-2.76383,6.41224,2.03152,2.03152,A,140337.50
6.73354,57.68795842,11.98129133,57.68795983,11.98128917,14:03:37.639372,0.00482,1.69380,1.69380,0.00020,-0.01748,-0.01877,-0.00050,-0.03107,-0.04490,-0.03087,0.92519,6.72819,1.69239,2.01323,2.00307,-2.63548,6.25511,6.66431,-2.76383,6.41224,2.03152,2.03152,A,140337.50
6.74432,57.68795855,11.98129120,57.68795983,11.98128917,14:03:37.650154,0.00513,1.69380,1.69380,0.00038,-0.01748,-0.01556,-0.00035,-0.03184,-0.02714,0.04514,0.92086,6.73870,1.69267,2.01329,2.00313,-2.64290,6.26998,6.66431,-2.76383,6.41224,2.03152,2.03152,A,140337.50
6.75485,57.68795868,11.98129108,57.68795983,11.98128917,14:03:37.660695,0.00526,1.69380,1.69380,0.00040,-0.01748,-0.00456,-0.00065,-0.02985,-0.06033,0.03093,0.96514,6.74908,1.69290,2.01336,2.00320,-2.64996,6.28407,6.66431,-2.76383,6.41224,2.03152,2.03152,A,140337.50
6.78060,57.68795881,11.98129096,57.68796133,11.98128783,14:03:37.686432,0.02061,1.69380,1.69380,-0.00041,-0.01748,0.00048,-0.01485,-0.02726,-0.00531,-0.02721,1.00461,6.75926,1.69308,2.01343,2.00327,-2.65698,6.29810,6.77625,-2.84308,6.57903,2.01436,2.01436,A,140337.60
6.79101,57.68795916,11.98129065,57.68796133,11.98128783,14:03:37.696846,0.00518,1.69380,1.69380,-0.00073,-0.01748,-0.00777,-0.02967,-0.02252,-0.01348,0.02001,1.05786,6.78536,1.69322,2.01293,2.00277,-2.67577,6.33759,6.77625,-2.84308,6.57903,2.01436,2.01436,A,140337.60
6.80106,57.68795930,11.98129052,57.68796133,11.98128783,14:03:37.706889,0.00484,1.69380,1.69380,-0.00063,-0.01748,-0.00410,-0.02814,-0.01855,-0.15482,0.03678,1.03303,6.79569,1.69334,2.01283,2.00266,-2.68342,6.35298,6.77625,-2.84308,6.57903,2.01436,2.01436,A,140337.60
6.81230,57.68795945,11.98129038,57.68796133,11.98128783,14:03:37.718137,0.00539,1.69380,1.69380,0.00020,-0.01748,0.00720,-0.01012,-0.02023,-0.08967,0.07869,1.02260,6.80663,1.69343,2.01271,2.00255,-2.69144,6.36918,6.77625,-2.84308,6.57903,2.01436,2.01436,A,140337.60
6.82213,57.68795958,11.98129026,57.68796133,11.98128783,14:03:37.727965,0.00483,1.69380,1.69380,0.00073,-0.01748,0.01239,-0.00844,-0.02008,-0.10486,0.05386,0.99204,6.81678,1.69350,2.01263,2.00246,-2.69862,6.38355,6.77625,-2.84308,6.57903,2.01436,2.01436,A,140337.60
6.83258,57.68795971,11.98129014,57.68796133,11.98128783,14:03:37.738414,0.00489,1.69380,1.69380,0.00132,-0.01748,0.02186,0.00240,-0.01519,-0.08967,0.05179,0.98491,6.82697,1.69356,2.01253,2.00237,-2.70595,6.39830,6.77625,-2.84308,6.57903,2.01436,2.01436,A,140337.60
6.84340,57.68795984,11.98129001,57.68796133,11.98128783,14:03:37.749233,0.00532,1.69380,1.69380,0.00123,-0.01748,0.02170,0.00363,-0.01519,0.01812,0.00622,0.97807,6.83774,1.69361,2.01243,2.00226,-2.71345,6.41341,6.77625,-2.84308,6.57903,2.01436,2.01436,A,140337.60
6.85389,57.68795997,11.98128989,57.68796133,11.98128783,14:03:37.759723,0.00542,1.69380,1.69380,0.00129,-0.01748,0.02201,-0.00294,-0.01534,-0.04258,0.01781,0.99820,6.84808,1.69365,2.01234,2.00217,-2.72055,6.42766,6.77625,-2.84308,6.57903,2.01436,2.01436,A,140337.60
6.86395,57.68796010,11.98128978,57.68796133,11.98128783,14:03:37.769783,0.00496,1.69380,1.69380,0.00085,-0.01748,0.02277,-0.00233,-0.01458,-0.01714,-0.01702,1.02065,6.85830,1.69368,2.01226,2.00209,-2.72737,6.44134,6.77625,-2.84308,6.57903,2.01436,2.01436,A,140337.60
6.87425,57.68796022,11.98128966,57.68796133,11.98128783,14:03:37.780079,0.00487,1.69380,1.69380,0.00111,-0.01748,0.02888,-0.00157,-0.01214,-0.06527,0.02641,1.02834,6.86887,1.69370,2.01216,2.00200,-2.73449,6.45566,6.77625,-2.84308,6.57903,2.01436,2.01436,A,140337.60
6.90079,57.68796035,11.98128954,57.68796233,11.98128667,14:03:37.806626,0.02102,1.69380,1.69380,0.00120,-0.01748,0.02445,-0.00279,-0.01321,-0.04294,0.01763,1.01614,6.87904,1.69372,2.01207,2.00191,-2.74143,6.46964,6.89630,-2.91242,6.69023,2.12840,2.12840,A,140337.70
6.91141,57.68796071,11.98128922,57.68796233,11.98128667,14:03:37.817245,0.00521,1.69380,1.69380,0.00202,-0.01748,0.03362,-0.01409,-0.00023,-0.11529,0.02440,1.01888,6.90571,1.69374,2.01271,2.00254,-2.76043,6.50942,6.89630,-2.91242,6.69023,2.12840,2.12840,A,140337.70
6.92311,57.68796084,11.98128909,57.68796233,11.98128667,14:03:37.828984,0.00613,1.69380,1.69380,0.00209,-0.01737,0.04278,-0.00936,-0.00297,0.01043,0.00329,0.95971,6.91664,1.69375,2.01374,2.00364,-2.76813,6.52466,6.89630,-2.91242,6.69023,2.12840,2.12840,A,140337.70
6.93296,57.68796097,11.98128897,57.68796233,11.98128667,14:03:37.838806,0.00576,1.69380,1.69380,0.00188,-0.01714,0.03407,-0.01546,0.00344,-0.08137,-0.00750,0.97142,6.92653,1.69376,2.01478,2.00482,-2.77526,6.53861,6.89630,-2.91242,6.69023,2.12840,2.12840,A,140337.70
6.94290,57.68796109,11.98128886,57.68796233,11.98128667,14:03:37.848751,0.00531,1.69380,1.69380,0.00234,-0.01683,0.03805,-0.01531,0.00420,-0.06344,0.03184,0.95648,6.93708,1.69377,2.01582,2.00604,-2.78208,6.55189,6.89630,-2.91242,6.69023,2.12840,2.12840,A,140337.70
6.95342,57.68796122,11.98128874,57.68796233,11.98128667,14:03:37.859262,0.00543,1.69380,1.69380,0.00198,-0.01640,0.04049,-0.00630,-0.00221,-0.08314,-0.02117,0.97380,6.94727,1.69377,2.01684,2.00730,-2.78931,6.56600,6.89630,-2.91242,6.69023,2.12840,2.12840,A,140337.70
6.96351,57.68796134,11.98128862,57.68796233,11.98128667,14:03:37.869344,0.00513,1.49206,1.49206,0.00230,-0.01592,0.03805,0.00240,-0.00450,-0.11139,0.02593,1.02553,6.95787,1.65343,2.01786,2.00860,-2.79623,6.57945,6.89630,-2.91242,6.69023,2.12840,2.12840,A,140337.70
6.97356,57.68796146,11.98128851,57.68796233,11.98128667,14:03:37.879395,0.00479,1.49206,1.49206,0.00296,-0.01541,0.03591,0.01416,-0.01122,-0.03855,0.05337,1.05377,6.96819,1.62116,2.01886,2.00990,-2.80313,6.59281,6.89630,-2.91242,6.69023,2.12840,2.12840,A,140337.70
6.98411,57.68796158,11.98128839,57.68796233,11.98128667,14:03:37.889951,0.00503,1.49206,1.49206,0.00308,-0.01488,0.03316,0.01477,-0.01092,-0.13316,0.01909,1.08915,6.97839,1.59534,2.01986,2.01121,-2.80995,6.60599,6.89630,-2.91242,6.69023,2.12840,2.12840,A,140337.70
6.99431,57.68796169,11.98128828,57.68796233,11.98128667,14:03:37.900141,0.00484,1.49206,1.49206,0.00376,-0.01425,0.03041,0.02241,-0.01794,0.00927,0.05527,0.99534,6.98895,1.57468,2.02086,2.01257,-2.81665,6.61886,6.89630,-2.91242,6.69023,2.12840,2.12840,A,140337.70
7.02087,57.68796180,11.98128817,57.68796367,11.98128567,14:03:37.926708,0.02101,1.49206,1.49206,0.00432,-0.01360,0.02827,0.00546,-0.01397,0.01635,0.05148,1.00272,6.99915,1.55816,2.02185,2.01394,-2.82321,6.63143,7.01678,-2.97186,6.83849,1.95208,1.95208,A,140337.80
7.03156,57.68796213,11.98128787,57.68796367,11.98128567,14:03:37.937396,0.00525,1.49206,1.49206,0.00588,-0.01224,0.03606,-0.01653,-0.00374,-0.12340,0.06966,0.94312,7.02583,1.54494,2.02078,2.01366,-2.84097,6.66777,7.01678,-2.97186,6.83849,1.95208,1.95208,A,140337.80
7.04183,57.68796225,11.98128776,57.68796367,11.98128567,14:03:37.947663,0.00512,1.49206,1.49206,0.00662,-0.01210,0.04232,-0.00218,-0.00007,-0.03886,0.05246,0.94959,7.03618,1.53436,2.02003,2.01299,-2.84765,6.68081,7.01678,-2.97186,6.83849,1.95208,1.95208,A,140337.80
7.05221,57.68796236,11.98128765,57.68796367,11.98128567,14:03:37.958040,0.00513,1.49206,1.49206,0.00655,-0.01210,0.03957,0.00485,0.00649,-0.11907,0.00384,0.96685,7.04638,1.52590,2.01929,2.01225,-2.85418,6.69355,7.01678,-2.97186,6.83849,1.95208,1.95208,A,140337.80
7.06230,57.68796248,11.98128754,57.68796367,11.98128567,14:03:37.968130,0.00482,1.49206,1.49206,0.00639,-0.01210,0.04110,0.01340,0.00176,-0.02391,-0.00329,0.96465,7.05695,1.51914,2.01855,2.01152,-2.86072,6.70636,7.01678,-2.97186,6.83849,1.95208,1.95208,A,140337.80
7.07275,57.68796259,11.98128743,57.68796367,11.98128567,14:03:37.978585,0.00488,1.49206,1.49206,0.00693,-0.01210,0.02262,0.00286,0.00588,-0.15329,0.05850,1.03645,7.06714,1.51372,2.01783,2.01079,-2.86723,6.71913,7.01678,-2.97186,6.83849,1.95208,1.95208,A,140337.80
7.08345,57.68796271,11.98128732,57.68796367,11.98128567,14:03:37.989286,0.00518,1.49206,1.49206,0.00734,-0.01210,0.03316,0.01432,0.00023,0.00433,0.04148,1.03163,7.07773,1.50939,2.01710,2.01007,-2.87374,6.73193,7.01678,-2.97186,6.83849,1.95208,1.95208,A,140337.80
7.09350,57.68796282,11.98128721,57.68796367,11.98128567,14:03:37.999328,0.00483,1.49206,1.49206,0.00775,-0.01210,0.02445,0.00805,0.00069,-0.04477,0.04996,1.06408,7.08815,1.50592,2.01639,2.00936,-2.87998,6.74419,7.01678,-2.97186,6.83849,1.95208,1.95208,A,140337.80
7.10404,57.68796293,11.98128711,57.68796367,11.98128567,14:03:38.009870,0.00495,1.49206,1.49206,0.00875,-0.01210,0.03362,0.00515,-0.00190,0.04776,0.08272,1.02492,7.09838,1.50315,2.01569,2.00865,-2.88626,6.75655,7.01678,-2.97186,6.83849,1.95208,1.95208,A,140337.80
7.11627,57.68796304,11.98128700,57.68796367,11.98128567,14:03:38.022665,0.00679,1.49206,1.49206,0.00917,-0.01210,0.02949,-0.01195,-0.00420,0.02794,0.04563,0.99997,7.10896,1.50093,2.01499,2.00795,-2.89247,6.76882,7.01678,-2.97186,6.83849,1.95208,1.95208,A,140337.80
