Time,lat_estimated,lon_estimated,latitude,longitude,RealTime,CalculationTime,MeasuredVelocity,Roll,SteeringAngle,RollRate,gy,gz,ax,ay,az,imu_read_timing,v_estimated,yaw_estimated,heading_estimated,x_estimated,y_estimated,GPS_timestamp,x_GPS,y_GPS,theta_GPS,theta_GPS_noUnwrap,status,NMEA timestamp
0.05482,57.68785467,11.98138650,57.68785467,11.98138650,10:58:45.305380,0.05478,0.00000,-0.00129,0.03323,-0.04077,0.00051,-0.00459,0.00720,-0.03788,0.98338,0.00001,0.00000,-0.00987,0.00000,0.00000,0.00000,0.02534,0.00000,0.00000,0.00000,0.00000,A,105845.20
0.06662,57.68785467,11.98138650,57.68785467,11.98138650,10:58:45.317158,0.00569,0.00000,-0.00533,0.02935,-0.04795,-0.00544,-0.01131,0.00775,-0.05887,1.01028,0.06076,0.00000,-0.00969,-0.00098,0.00000,0.00000,0.02534,0.00000,0.00000,0.00000,0.00000,A,105845.20
0.07447,57.68785467,11.98138650,57.68785467,11.98138650,10:58:45.324993,0.00315,0.00000,-0.00666,0.02881,-0.04184,-0.00941,-0.01009,0.00445,-0.04410,0.99314,0.07098,0.00000,-0.00969,-0.00098,0.00000,0.00000,0.02534,0.00000,0.00000,0.00000,0.00000,A,105845.20
0.08509,57.68785467,11.98138650,57.68785467,11.98138650,10:58:45.335620,0.00316,0.00000,-0.00805,0.02839,-0.04551,-0.00407,-0.01162,-0.01019,-0.04551,0.96819,0.08161,0.00000,-0.00969,-0.00098,0.00000,0.00000,0.02534,0.00000,0.00000,0.00000,0.00000,A,105845.20
0.09729,57.68785467,11.98138650,57.68785467,11.98138650,10:58:45.347833,0.00513,0.00000,-0.00971,0.02802,-0.04429,0.00280,-0.01055,-0.02220,-0.06204,0.96874,0.09313,0.00000,-0.00969,-0.00098,0.00000,0.00000,0.02534,0.00000,0.00000,0.00000,0.00000,A,105845.20
0.10588,57.68785467,11.98138650,57.68785467,11.98138650,10:58:45.356409,0.00332,0.00000,-0.01126,0.02774,-0.03894,0.00769,-0.00826,-0.02196,-0.06631,0.96959,0.10239,0.00000,-0.00969,-0.00098,0.00000,0.00000,0.02534,0.00000,0.00000,0.00000,0.00000,A,105845.20
0.11610,57.68785467,11.98138650,57.68785467,11.98138650,10:58:45.366631,0.00315,0.00000,-0.01250,0.02743,-0.04108,0.00265,-0.00398,0.00354,-0.04508,0.98350,0.11241,0.00000,-0.00969,-0.00098,0.00000,0.00000,0.02534,0.00000,0.00000,0.00000,0.00000,A,105845.20
0.14301,57.68785467,11.98138650,57.68785517,11.98138600,10:58:45.393550,0.01966,0.00000,-0.01370,0.02709,-0.03665,0.00540,-0.00490,0.02227,-0.04593,0.99991,0.12301,0.00000,-0.00969,-0.00098,0.00000,0.00000,0.13835,-0.02972,0.05560,2.06169,2.06169,A,105845.30
0.16241,57.68785469,11.98138647,57.68785517,11.98138600,10:58:45.412963,0.00708,0.00000,-0.01569,0.02601,-0.03192,0.00800,-0.00979,0.00305,-0.05575,1.02382,0.15692,0.00000,0.29986,0.30758,-0.00149,0.00278,0.13835,-0.02972,0.05560,2.06169,2.06169,A,105845.30
0.16888,57.68785469,11.98138647,57.68785517,11.98138600,10:58:45.419426,0.00317,0.00000,-0.01693,0.02590,-0.02565,0.01090,-0.00643,0.00878,-0.06417,1.01046,0.16539,0.00000,0.29986,0.30758,-0.00149,0.00278,0.13835,-0.02972,0.05560,2.06169,2.06169,A,105845.30
0.17893,57.68785469,11.98138647,57.68785517,11.98138600,10:58:45.429471,0.00298,0.00000,-0.01821,0.02587,-0.02443,0.00693,-0.00948,0.02855,-0.06478,0.99412,0.17545,0.00000,0.29986,0.30758,-0.00149,0.00278,0.13835,-0.02972,0.05560,2.06169,2.06169,A,105845.30
0.18949,57.68785469,11.98138647,57.68785517,11.98138600,10:58:45.440039,0.00315,0.00000,-0.01928,0.02587,-0.02443,-0.00422,-0.00658,0.02672,-0.05026,0.97935,0.18601,0.00000,0.29986,0.30758,-0.00149,0.00278,0.13835,-0.02972,0.05560,2.06169,2.06169,A,105845.30
0.19990,57.68785469,11.98138647,57.68785517,11.98138600,10:58:45.450456,0.00317,0.00000,-0.02049,0.02587,-0.02199,-0.00483,-0.00688,0.01397,-0.06265,0.97478,0.19619,0.00000,0.29986,0.30758,-0.00149,0.00278,0.13835,-0.02972,0.05560,2.06169,2.06169,A,105845.30
0.21029,57.68785469,11.98138647,57.68785517,11.98138600,10:58:45.461023,0.00316,0.00000,-0.02175,0.02587,-0.01115,-0.00926,-0.00185,0.00592,-0.07363,0.97313,0.20681,0.00000,0.29986,0.30758,-0.00149,0.00278,0.13835,-0.02972,0.05560,2.06169,2.06169,A,105845.30
0.22086,57.68785469,11.98138647,57.68785517,11.98138600,10:58:45.471404,0.00332,0.00000,-0.02299,0.02587,-0.01512,-0.00666,-0.00429,-0.01251,-0.07149,0.97588,0.21737,0.00000,0.29986,0.30758,-0.00149,0.00278,0.13835,-0.02972,0.05560,2.06169,2.06169,A,105845.30
0.23086,57.68785469,11.98138647,57.68785517,11.98138600,10:58:45.481418,0.00298,0.00000,-0.02410,0.02587,-0.01222,-0.00040,-0.00246,-0.01964,-0.06673,0.98137,0.22737,0.00000,0.29986,0.30758,-0.00149,0.00278,0.13835,-0.02972,0.05560,2.06169,2.06169,A,105845.30
0.25681,57.68785469,11.98138647,57.68785567,11.98138600,10:58:45.507376,0.01852,0.00000,-0.02503,0.02587,-0.01115,0.00815,-0.00276,0.00384,-0.05685,0.99046,0.23795,0.00000,0.29986,0.30758,-0.00149,0.00278,0.25291,-0.02972,0.11119,1.57080,1.57080,A,105845.40
0.27373,57.68785474,11.98138645,57.68785567,11.98138600,10:58:45.524269,0.00690,0.00000,-0.02595,0.02587,-0.00947,-0.00727,-0.00673,0.02452,-0.04825,1.00796,0.26668,0.00000,0.48935,0.49702,-0.00290,0.00820,0.25291,-0.02972,0.11119,1.57080,1.57080,A,105845.40
0.28039,57.68785474,11.98138645,57.68785567,11.98138600,10:58:45.530914,0.00316,0.00000,-0.02681,0.02587,-0.00840,-0.01201,-0.00795,0.01568,-0.05722,1.01229,0.27689,0.00000,0.48935,0.49702,-0.00290,0.00820,0.25291,-0.02972,0.11119,1.57080,1.57080,A,105845.40
0.29073,57.68785474,11.98138645,57.68785567,11.98138600,10:58:45.541248,0.00296,0.00000,-0.02769,0.02587,-0.00687,-0.01369,-0.00765,0.01446,-0.06015,1.00662,0.28724,0.00000,0.48935,0.49702,-0.00290,0.00820,0.25291,-0.02972,0.11119,1.57080,1.57080,A,105845.40
0.30130,57.68785474,11.98138645,57.68785567,11.98138600,10:58:45.551825,0.00314,0.00000,-0.02876,0.02587,-0.00718,-0.01292,-0.01055,0.01964,-0.07241,0.98674,0.29781,0.00000,0.48935,0.49702,-0.00290,0.00820,0.25291,-0.02972,0.11119,1.57080,1.57080,A,105845.40
0.31197,57.68785474,11.98138645,57.68785567,11.98138600,10:58:45.562513,0.00342,0.00000,-0.02974,0.02587,-0.00458,-0.00987,-0.00887,0.01501,-0.06734,0.96770,0.30814,0.00000,0.48935,0.49702,-0.00290,0.00820,0.25291,-0.02972,0.11119,1.57080,1.57080,A,105845.40
0.32223,57.68785474,11.98138645,57.68785567,11.98138600,10:58:45.572751,0.00328,0.00000,-0.03061,0.02587,-0.00824,-0.01460,-0.00643,0.00403,-0.05966,0.97649,0.31874,0.00000,0.48935,0.49702,-0.00290,0.00820,0.25291,-0.02972,0.11119,1.57080,1.57080,A,105845.40
0.33251,57.68785474,11.98138645,57.68785567,11.98138600,10:58:45.583040,0.00317,0.00000,-0.03140,0.02587,-0.00901,-0.01048,-0.00108,-0.00817,-0.05569,0.98314,0.32900,0.00000,0.48935,0.49702,-0.00290,0.00820,0.25291,-0.02972,0.11119,1.57080,1.57080,A,105845.40
0.34294,57.68785474,11.98138645,57.68785567,11.98138600,10:58:45.593464,0.00299,0.00000,-0.03215,0.02587,-0.00840,-0.00300,-0.00108,-0.00250,-0.05423,0.99155,0.33945,0.00000,0.48935,0.49702,-0.00290,0.00820,0.25291,-0.02972,0.11119,1.57080,1.57080,A,105845.40
0.36993,57.68785474,11.98138645,57.68785617,11.98138583,10:58:45.620491,0.01959,0.00000,-0.03278,0.02587,-0.00122,0.00097,-0.00352,0.01238,-0.05307,1.01541,0.34998,0.00000,0.48935,0.49702,-0.00290,0.00820,0.36493,-0.03962,0.16679,1.74712,1.74712,A,105845.50
0.38319,57.68785481,11.98138642,57.68785617,11.98138583,10:58:45.634641,0.00676,0.00000,-0.03366,0.02587,-0.00687,0.00280,-0.01147,0.00732,-0.06033,1.04206,0.37726,0.00000,0.67686,0.68454,-0.00473,0.01613,0.36493,-0.03962,0.16679,1.74712,1.74712,A,105845.50
0.38998,57.68785481,11.98138642,57.68785617,11.98138583,10:58:45.640546,0.00315,0.00000,-0.03436,0.02587,-0.00809,0.00021,-0.01452,0.00653,-0.05618,1.03468,0.38649,0.00000,0.67686,0.68454,-0.00473,0.01613,0.36493,-0.03962,0.16679,1.74712,1.74712,A,105845.50
0.40047,57.68785481,11.98138642,57.68785617,11.98138583,10:58:45.650995,0.00324,0.00000,-0.03510,0.02587,-0.00763,0.00342,-0.01681,-0.00207,-0.05807,1.00833,0.39696,0.00000,0.67686,0.68454,-0.00473,0.01613,0.36493,-0.03962,0.16679,1.74712,1.74712,A,105845.50
0.41074,57.68785481,11.98138642,57.68785617,11.98138583,10:58:45.661269,0.00297,0.00000,-0.03595,0.02587,-0.00763,0.00158,-0.01544,0.01793,-0.06405,0.97484,0.40726,0.00000,0.67686,0.68454,-0.00473,0.01613,0.36493,-0.03962,0.16679,1.74712,1.74712,A,105845.50
0.42158,57.68785481,11.98138642,57.68785617,11.98138583,10:58:45.672114,0.00341,0.00000,-0.03684,0.02587,-0.00672,0.00326,-0.01376,0.00756,-0.06673,0.96325,0.41808,0.00000,0.67686,0.68454,-0.00473,0.01613,0.36493,-0.03962,0.16679,1.74712,1.74712,A,105845.50
0.43173,57.68785481,11.98138642,57.68785617,11.98138583,10:58:45.682266,0.00315,0.00000,-0.03757,0.02587,-0.00901,0.00693,-0.00887,-0.02086,-0.05716,0.97393,0.42803,0.00000,0.67686,0.68454,-0.00473,0.01613,0.36493,-0.03962,0.16679,1.74712,1.74712,A,105845.50
0.44214,57.68785481,11.98138642,57.68785617,11.98138583,10:58:45.692666,0.00316,0.00000,-0.03809,0.02587,-0.00748,0.01334,-0.00398,-0.01452,-0.04605,0.99064,0.43864,0.00000,0.67686,0.68454,-0.00473,0.01613,0.36493,-0.03962,0.16679,1.74712,1.74712,A,105845.50
0.45251,57.68785481,11.98138642,57.68785617,11.98138583,10:58:45.703039,0.00314,0.00000,-0.03874,0.02587,-0.00259,0.01685,-0.00429,0.00653,-0.05752,0.98747,0.44901,0.00000,0.67686,0.68454,-0.00473,0.01613,0.36493,-0.03962,0.16679,1.74712,1.74712,A,105845.50
0.46285,57.68785481,11.98138642,57.68785617,11.98138583,10:58:45.713374,0.00297,0.00000,-0.03945,0.02587,-0.00366,0.01395,-0.00459,0.04319,-0.06259,0.99826,0.45936,0.00000,0.67686,0.68454,-0.00473,0.01613,0.36493,-0.03962,0.16679,1.74712,1.74712,A,105845.50
0.48888,57.68785481,11.98138642,57.68785700,11.98138533,10:58:45.739416,0.01860,0.00000,-0.04015,0.02587,-0.00534,0.00219,-0.00398,0.03684,-0.06246,1.00839,0.46993,0.00000,0.67686,0.68454,-0.00473,0.01613,0.48490,-0.06934,0.25945,1.88115,1.88115,A,105845.60
0.50634,57.68785492,11.98138637,57.68785700,11.98138533,10:58:45.756919,0.00830,0.00000,-0.04105,0.02587,-0.00153,-0.00514,-0.01315,0.00604,-0.07570,0.99900,0.49970,0.00000,0.85635,0.86403,-0.00796,0.02830,0.48490,-0.06934,0.25945,1.88115,1.88115,A,105845.60
0.51178,57.68785492,11.98138637,57.68785700,11.98138533,10:58:45.762328,0.00335,0.00000,-0.04179,0.02587,-0.00076,-0.00010,-0.01696,0.02434,-0.06789,0.98564,0.50806,0.00000,0.85635,0.86403,-0.00796,0.02830,0.48490,-0.06934,0.25945,1.88115,1.88115,A,105845.60
0.52186,57.68785492,11.98138637,57.68785700,11.98138533,10:58:45.772385,0.00320,0.00000,-0.04255,0.02587,0.00077,-0.00407,-0.01269,0.01251,-0.07027,0.96856,0.51838,0.00000,0.85635,0.86403,-0.00796,0.02830,0.48490,-0.06934,0.25945,1.88115,1.88115,A,105845.60
0.53229,57.68785492,11.98138637,57.68785700,11.98138533,10:58:45.782823,0.00322,0.00000,-0.04313,0.02587,-0.00244,-0.00453,-0.00734,0.00396,-0.05618,0.96471,0.52878,0.00000,0.85635,0.86403,-0.00796,0.02830,0.48490,-0.06934,0.25945,1.88115,1.88115,A,105845.60
0.54276,57.68785492,11.98138637,57.68785700,11.98138533,10:58:45.793290,0.00301,0.00000,-0.04371,0.02587,-0.00320,-0.00712,-0.00948,-0.02562,-0.05728,0.97063,0.53928,0.00000,0.85635,0.86403,-0.00796,0.02830,0.48490,-0.06934,0.25945,1.88115,1.88115,A,105845.60
0.55331,57.68785492,11.98138637,57.68785700,11.98138533,10:58:45.803831,0.00315,0.00000,-0.04407,0.02587,0.00474,-0.00468,-0.00383,-0.02910,-0.05020,1.00375,0.54982,0.00000,0.85635,0.86403,-0.00796,0.02830,0.48490,-0.06934,0.25945,1.88115,1.88115,A,105845.60
0.56370,57.68785492,11.98138637,57.68785700,11.98138533,10:58:45.814236,0.00315,0.00000,-0.04467,0.02587,0.00245,0.00555,-0.00322,-0.00201,-0.06600,1.02828,0.56001,0.00000,0.85635,0.86403,-0.00796,0.02830,0.48490,-0.06934,0.25945,1.88115,1.88115,A,105845.60
0.57412,57.68785492,11.98138637,57.68785700,11.98138533,10:58:45.824645,0.00317,0.00000,-0.04527,0.02578,0.00550,0.00235,-0.00643,0.01501,-0.07052,1.03401,0.57063,0.00000,0.85635,0.86403,-0.00796,0.02830,0.48490,-0.06934,0.25945,1.88115,1.88115,A,105845.60
0.58449,57.68785492,11.98138637,57.68785700,11.98138533,10:58:45.835018,0.00315,0.00000,-0.04578,0.02564,0.00687,0.00067,-0.00963,0.02556,-0.06368,1.02114,0.58099,0.00000,0.85635,0.86403,-0.00796,0.02830,0.48490,-0.06934,0.25945,1.88115,1.88115,A,105845.60
0.61074,57.68785492,11.98138637,57.68785750,11.98138517,10:58:45.861284,0.01886,0.00000,-0.04635,0.02547,-0.00214,-0.00544,-0.00994,0.00262,-0.06259,1.01425,0.59136,0.00000,0.85635,0.86403,-0.00796,0.02830,0.60661,-0.07925,0.31505,1.74712,1.74712,A,105845.70
0.63200,57.68785505,11.98138631,57.68785750,11.98138517,10:58:45.882576,0.00927,0.00000,-0.04673,0.02465,0.00642,-0.00422,-0.01681,-0.00250,-0.06374,0.97972,0.62567,0.00000,0.98887,0.99619,-0.01153,0.04263,0.60661,-0.07925,0.31505,1.74712,1.74712,A,105845.70
0.63664,57.68785505,11.98138631,57.68785750,11.98138517,10:58:45.887169,0.00334,0.00000,-0.04748,0.02454,0.01023,0.00021,-0.01376,0.01690,-0.07777,0.95691,0.63311,0.00000,0.98887,0.99619,-0.01153,0.04263,0.60661,-0.07925,0.31505,1.74712,1.74712,A,105845.70
0.64683,57.68785505,11.98138631,57.68785750,11.98138517,10:58:45.897353,0.00298,0.00000,-0.04796,0.02451,0.00932,-0.00285,-0.01254,-0.02251,-0.06228,0.96532,0.64334,0.00000,0.98887,0.99619,-0.01153,0.04263,0.60661,-0.07925,0.31505,1.74712,1.74712,A,105845.70
0.65740,57.68785505,11.98138631,57.68785750,11.98138517,10:58:45.907927,0.00315,0.00000,-0.04838,0.02451,0.01207,0.00311,-0.01040,-0.02928,-0.06234,0.98436,0.65391,0.00000,0.98887,0.99619,-0.01153,0.04263,0.60661,-0.07925,0.31505,1.74712,1.74712,A,105845.70
0.66780,57.68785505,11.98138631,57.68785750,11.98138517,10:58:45.918339,0.00315,0.00000,-0.04830,0.02451,0.01573,0.00387,-0.01024,-0.06924,-0.03349,1.03127,0.66410,0.00000,0.98887,0.99619,-0.01153,0.04263,0.60661,-0.07925,0.31505,1.74712,1.74712,A,105845.70
0.67821,57.68785505,11.98138631,57.68785750,11.98138517,10:58:45.928735,0.00317,0.00000,-0.04843,0.02451,0.02138,0.01105,-0.00688,-0.00030,-0.05276,1.04078,0.67472,0.00000,0.98887,0.99619,-0.01153,0.04263,0.60661,-0.07925,0.31505,1.74712,1.74712,A,105845.70
0.68858,57.68785505,11.98138631,57.68785750,11.98138517,10:58:45.939111,0.00314,0.00000,-0.04887,0.02451,0.02306,0.00861,-0.01345,0.02910,-0.07521,1.03145,0.68508,0.00000,0.98887,0.99619,-0.01153,0.04263,0.60661,-0.07925,0.31505,1.74712,1.74712,A,105845.70
0.69886,57.68785505,11.98138631,57.68785750,11.98138517,10:58:45.949389,0.00298,0.00000,-0.04910,0.02451,0.01619,0.00036,-0.01177,0.03172,-0.05514,1.02687,0.69537,0.00000,0.98887,0.99619,-0.01153,0.04263,0.60661,-0.07925,0.31505,1.74712,1.74712,A,105845.70
0.73649,57.68785505,11.98138631,57.68785867,11.98138450,10:58:45.987055,0.03035,0.00000,-0.04927,0.02451,0.01772,-0.00422,-0.01498,-0.03965,-0.05240,1.00906,0.70584,0.00000,0.98887,0.99619,-0.01153,0.04263,0.73154,-0.11887,0.44478,1.86724,1.86724,A,105845.90
0.75198,57.68785523,11.98138622,57.68785867,11.98138450,10:58:46.002533,0.00750,0.00000,-0.04900,0.02451,0.01924,0.00219,-0.00750,-0.00433,-0.05771,0.95361,0.74547,0.00000,1.11953,1.12681,-0.01690,0.06274,0.73154,-0.11887,0.44478,1.86724,1.86724,A,105845.90
0.75809,57.68785523,11.98138622,57.68785867,11.98138450,10:58:46.008622,0.00321,0.00000,-0.04904,0.02451,0.02245,0.00739,-0.01040,-0.02001,-0.04349,0.99149,0.75461,0.00000,1.11953,1.12681,-0.01690,0.06274,0.73154,-0.11887,0.44478,1.86724,1.86724,A,105845.90
0.76845,57.68785523,11.98138622,57.68785867,11.98138450,10:58:46.018984,0.00317,0.00000,-0.04924,0.02451,0.02245,0.00952,-0.00918,-0.02727,-0.05673,1.00363,0.76494,0.00000,1.11953,1.12681,-0.01690,0.06274,0.73154,-0.11887,0.44478,1.86724,1.86724,A,105845.90
0.77881,57.68785523,11.98138622,57.68785867,11.98138450,10:58:46.029326,0.00298,0.00000,-0.04930,0.02451,0.02001,0.00937,-0.01513,-0.02434,-0.04746,1.02632,0.77532,0.00000,1.11953,1.12681,-0.01690,0.06274,0.73154,-0.11887,0.44478,1.86724,1.86724,A,105845.90
0.78936,57.68785523,11.98138622,57.68785867,11.98138450,10:58:46.039889,0.00314,0.00000,-0.04956,0.02451,0.01451,0.01029,-0.01467,0.01842,-0.05642,1.01553,0.78588,0.00000,1.11953,1.12681,-0.01690,0.06274,0.73154,-0.11887,0.44478,1.86724,1.86724,A,105845.90
0.79978,57.68785523,11.98138622,57.68785867,11.98138450,10:58:46.050310,0.00316,0.00000,-0.04963,0.02451,0.01787,0.00555,-0.01315,0.00738,-0.04612,1.01693,0.79607,0.00000,1.11953,1.12681,-0.01690,0.06274,0.73154,-0.11887,0.44478,1.86724,1.86724,A,105845.90
0.81017,57.68785523,11.98138622,57.68785867,11.98138450,10:58:46.060701,0.00315,0.00000,-0.04996,0.02451,0.01680,0.00250,-0.01360,0.01482,-0.06301,1.01156,0.80669,0.00000,1.11953,1.12681,-0.01690,0.06274,0.73154,-0.11887,0.44478,1.86724,1.86724,A,105845.90
0.82047,57.68785523,11.98138622,57.68785867,11.98138450,10:58:46.071003,0.00320,0.00000,-0.05046,0.02451,0.01772,-0.00208,-0.01880,-0.02019,-0.07393,0.99735,0.81695,0.00000,1.11953,1.12681,-0.01690,0.06274,0.73154,-0.11887,0.44478,1.86724,1.86724,A,105845.90
0.83088,57.68785523,11.98138622,57.68785867,11.98138450,10:58:46.081400,0.00301,0.00000,-0.05075,0.02451,0.01818,-0.00468,-0.01666,-0.01080,-0.05990,0.97301,0.82739,0.00000,1.11953,1.12681,-0.01690,0.06274,0.73154,-0.11887,0.44478,1.86724,1.86724,A,105845.90
0.85702,57.68785523,11.98138622,57.68785967,11.98138400,10:58:46.108333,0.01874,0.00000,-0.05118,0.02451,0.01512,0.00235,-0.01116,-0.02898,-0.06667,0.96807,0.83794,0.00000,1.11953,1.12681,-0.01690,0.06274,0.85299,-0.14859,0.55597,1.83196,1.83196,A,105846.00
0.87106,57.68785545,11.98138610,57.68785967,11.98138400,10:58:46.121600,0.00568,0.00000,-0.05109,0.02451,0.01527,0.00494,-0.01208,-0.02227,-0.05167,1.00211,0.86559,0.00000,1.22531,1.23258,-0.02348,0.08740,0.85299,-0.14859,0.55597,1.83196,1.83196,A,105846.00
0.87884,57.68785545,11.98138610,57.68785967,11.98138400,10:58:46.129365,0.00296,0.00000,-0.05105,0.02445,0.01237,0.00678,-0.00918,-0.01562,-0.03575,1.01004,0.87536,0.00000,1.22531,1.23258,-0.02348,0.08740,0.85299,-0.14859,0.55597,1.83196,1.83196,A,105846.00
0.88943,57.68785545,11.98138610,57.68785967,11.98138400,10:58:46.139964,0.00316,0.00000,-0.05124,0.02437,0.01252,0.00219,-0.00933,0.00232,-0.05222,1.01437,0.88595,0.00000,1.22531,1.23258,-0.02348,0.08740,0.85299,-0.14859,0.55597,1.83196,1.83196,A,105846.00
0.89982,57.68785545,11.98138610,57.68785967,11.98138400,10:58:46.150367,0.00315,0.00000,-0.05137,0.02417,0.01130,0.00158,-0.01238,0.01147,-0.04679,1.01059,0.89612,0.00000,1.22531,1.23258,-0.02348,0.08740,0.85299,-0.14859,0.55597,1.83196,1.83196,A,105846.00
0.91038,57.68785545,11.98138610,57.68785967,11.98138400,10:58:46.161097,0.00331,0.00000,-0.05180,0.02392,0.00703,-0.00391,-0.01437,0.00781,-0.06448,1.00107,0.90689,0.00000,1.22531,1.23258,-0.02348,0.08740,0.85299,-0.14859,0.55597,1.83196,1.83196,A,105846.00
0.92068,57.68785545,11.98138610,57.68785967,11.98138400,10:58:46.171208,0.00321,0.00000,-0.05179,0.02363,0.00687,-0.00697,-0.01696,-0.01391,-0.03428,0.98820,0.91718,0.00000,1.22531,1.23258,-0.02348,0.08740,0.85299,-0.14859,0.55597,1.83196,1.83196,A,105846.00
0.93085,57.68785545,11.98138610,57.68785967,11.98138400,10:58:46.181376,0.00297,0.00000,-0.05212,0.02335,0.01146,-0.00834,-0.01467,-0.00945,-0.05905,0.97447,0.92736,0.00000,1.22531,1.23258,-0.02348,0.08740,0.85299,-0.14859,0.55597,1.83196,1.83196,A,105846.00
0.94143,57.68785545,11.98138610,57.68785967,11.98138400,10:58:46.191957,0.00314,0.00000,-0.05254,0.02307,0.00229,-0.00727,-0.01559,-0.02934,-0.06002,0.98741,0.93794,0.00000,1.22531,1.23258,-0.02348,0.08740,0.85299,-0.14859,0.55597,1.83196,1.83196,A,105846.00
0.95183,57.68785545,11.98138610,57.68785967,11.98138400,10:58:46.202363,0.00315,0.00000,-0.05287,0.02284,0.00138,-0.00315,-0.01712,-0.02775,-0.05398,0.99149,0.94814,0.00000,1.22531,1.23258,-0.02348,0.08740,0.85299,-0.14859,0.55597,1.83196,1.83196,A,105846.00
0.97885,57.68785545,11.98138610,57.68786033,11.98138350,10:58:46.229415,0.01978,0.00000,-0.05299,0.02259,0.00489,-0.00346,-0.01559,-0.02416,-0.04355,1.01345,0.95874,0.00000,1.22531,1.23258,-0.02348,0.08740,0.97382,-0.17831,0.63010,1.95208,1.95208,A,105846.10
0.99524,57.68785570,11.98138597,57.68786033,11.98138350,10:58:46.246025,0.00739,0.00000,-0.05341,0.02188,0.00275,0.00403,-0.01681,-0.06076,-0.06679,1.01638,0.98868,0.00000,1.33335,1.33984,-0.03122,0.11454,0.97382,-0.17831,0.63010,1.95208,1.95208,A,105846.10
1.00144,57.68785570,11.98138597,57.68786033,11.98138350,10:58:46.251966,0.00334,0.00000,-0.05380,0.02165,0.00535,0.01380,-0.02185,-0.03495,-0.06222,1.00931,0.99792,0.00000,1.33335,1.33984,-0.03122,0.11454,0.97382,-0.17831,0.63010,1.95208,1.95208,A,105846.10
1.01175,57.68785570,11.98138597,57.68786033,11.98138350,10:58:46.262306,0.00293,0.00000,-0.05403,0.02131,0.00901,0.01915,-0.01971,-0.03404,-0.05441,1.01046,1.00794,0.00000,1.33335,1.33984,-0.03122,0.11454,0.97382,-0.17831,0.63010,1.95208,1.95208,A,105846.10
1.02219,57.68785570,11.98138597,57.68786033,11.98138350,10:58:46.272711,0.00330,0.00000,-0.05406,0.02092,0.00993,0.01945,-0.01987,-0.01135,-0.04240,1.00009,1.01870,0.00000,1.33335,1.33984,-0.03122,0.11454,0.97382,-0.17831,0.63010,1.95208,1.95208,A,105846.10
1.03258,57.68785570,11.98138597,57.68786033,11.98138350,10:58:46.283114,0.00330,0.00000,-0.05457,0.02046,0.00183,0.01151,-0.01712,0.00616,-0.06716,0.98295,1.02907,0.00000,1.33335,1.33984,-0.03122,0.11454,0.97382,-0.17831,0.63010,1.95208,1.95208,A,105846.10
1.04280,57.68785570,11.98138597,57.68786033,11.98138350,10:58:46.293326,0.00297,0.00000,-0.05443,0.01995,0.00474,0.00219,-0.01620,-0.02281,-0.02690,0.99650,1.03931,0.00000,1.33335,1.33984,-0.03122,0.11454,0.97382,-0.17831,0.63010,1.95208,1.95208,A,105846.10
1.05337,57.68785570,11.98138597,57.68786033,11.98138350,10:58:46.303901,0.00314,0.00000,-0.05438,0.01936,0.00947,0.00204,-0.02185,-0.01982,-0.03684,1.00430,1.04988,0.00000,1.33335,1.33984,-0.03122,0.11454,0.97382,-0.17831,0.63010,1.95208,1.95208,A,105846.10
1.06386,57.68785570,11.98138597,57.68786033,11.98138350,10:58:46.314403,0.00324,0.00000,-0.05470,0.01874,0.01268,0.00448,-0.02261,-0.03062,-0.06362,1.00827,1.06009,0.00000,1.33335,1.33984,-0.03122,0.11454,0.97382,-0.17831,0.63010,1.95208,1.95208,A,105846.10
1.08965,57.68785570,11.98138597,57.68786117,11.98138283,10:58:46.340188,0.01863,0.00000,-0.05537,0.01811,0.01268,0.00387,-0.02155,0.00781,-0.08388,0.95361,1.07069,0.00000,1.33335,1.33984,-0.03122,0.11454,1.08567,-0.21794,0.72277,1.97489,1.97489,A,105846.20
1.10482,57.68785597,11.98138582,57.68786117,11.98138283,10:58:46.355357,0.00667,0.00000,-0.05549,0.01721,0.01069,-0.01628,-0.01757,-0.03233,-0.06027,0.97338,1.09904,0.00000,1.42881,1.43392,-0.04056,0.14495,1.08567,-0.21794,0.72277,1.97489,1.97489,A,105846.20
1.11195,57.68785597,11.98138582,57.68786117,11.98138283,10:58:46.362492,0.00357,0.00000,-0.05551,0.01721,0.01283,-0.01308,-0.01895,-0.03867,-0.04398,1.01333,1.10824,0.00000,1.42881,1.43392,-0.04056,0.14495,1.08567,-0.21794,0.72277,1.97489,1.97489,A,105846.20
1.12209,57.68785597,11.98138582,57.68786117,11.98138283,10:58:46.372619,0.00331,0.00000,-0.05595,0.01721,0.02444,-0.01186,-0.02017,0.00220,-0.08253,1.02053,1.11861,0.00000,1.42881,1.43392,-0.04056,0.14495,1.08567,-0.21794,0.72277,1.97489,1.97489,A,105846.20
1.13234,57.68785597,11.98138582,57.68786117,11.98138283,10:58:46.382871,0.00317,0.00000,-0.05617,0.01721,0.01726,-0.01842,-0.01620,0.01415,-0.06234,1.01589,1.12884,0.00000,1.42881,1.43392,-0.04056,0.14495,1.08567,-0.21794,0.72277,1.97489,1.97489,A,105846.20
1.14277,57.68785597,11.98138582,57.68786117,11.98138283,10:58:46.393299,0.00299,0.00000,-0.05638,0.01721,0.01772,-0.02178,-0.01849,-0.01787,-0.06295,1.02492,1.13928,0.00000,1.42881,1.43392,-0.04056,0.14495,1.08567,-0.21794,0.72277,1.97489,1.97489,A,105846.20
1.15332,57.68785597,11.98138582,57.68786117,11.98138283,10:58:46.403846,0.00315,0.00000,-0.05612,0.01721,0.02245,-0.01995,-0.02063,-0.05856,-0.03483,1.04505,1.14984,0.00000,1.42881,1.43392,-0.04056,0.14495,1.08567,-0.21794,0.72277,1.97489,1.97489,A,105846.20
1.16374,57.68785597,11.98138582,57.68786117,11.98138283,10:58:46.414277,0.00317,0.00000,-0.05629,0.01721,0.02367,-0.00407,-0.02261,-0.07814,-0.06381,1.02797,1.16003,0.00000,1.42881,1.43392,-0.04056,0.14495,1.08567,-0.21794,0.72277,1.97489,1.97489,A,105846.20
1.17412,57.68785597,11.98138582,57.68786117,11.98138283,10:58:46.424642,0.00316,0.00000,-0.05594,0.01721,0.02993,0.00143,-0.01925,-0.00506,-0.03257,0.98728,1.17063,0.00000,1.42881,1.43392,-0.04056,0.14495,1.08567,-0.21794,0.72277,1.97489,1.97489,A,105846.20
1.18450,57.68785597,11.98138582,57.68786117,11.98138283,10:58:46.435033,0.00314,0.00000,-0.05616,0.01721,0.02673,-0.00468,-0.02643,0.02422,-0.06551,0.96069,1.18100,0.00000,1.42881,1.43392,-0.04056,0.14495,1.08567,-0.21794,0.72277,1.97489,1.97489,A,105846.20
1.21063,57.68785597,11.98138582,57.68786183,11.98138267,10:58:46.461168,0.01875,0.00000,-0.05592,0.01718,0.02642,-0.01491,-0.01941,0.02092,-0.03520,0.95197,1.19136,0.00000,1.42881,1.43392,-0.04056,0.14495,1.20655,-0.22784,0.79690,1.70364,1.70364,A,105846.30
1.22293,57.68785626,11.98138566,57.68786183,11.98138267,10:58:46.473469,0.00644,0.00000,-0.05563,0.01712,0.03055,-0.00804,-0.02216,-0.03636,-0.06594,0.97319,1.21743,0.00000,1.46927,1.47436,-0.04992,0.17755,1.20655,-0.22784,0.79690,1.70364,1.70364,A,105846.30
1.23027,57.68785626,11.98138566,57.68786183,11.98138267,10:58:46.480789,0.00331,0.00000,-0.05571,0.01712,0.03543,-0.00819,-0.01880,-0.00140,-0.06033,0.97301,1.22677,0.00000,1.46927,1.47436,-0.04992,0.17755,1.20655,-0.22784,0.79690,1.70364,1.70364,A,105846.30
1.24068,57.68785626,11.98138566,57.68786183,11.98138267,10:58:46.491207,0.00331,0.00000,-0.05590,0.01712,0.02734,-0.00941,-0.01895,0.04099,-0.06399,0.97039,1.23718,0.00000,1.46927,1.47436,-0.04992,0.17755,1.20655,-0.22784,0.79690,1.70364,1.70364,A,105846.30
1.25084,57.68785626,11.98138566,57.68786183,11.98138267,10:58:46.501366,0.00296,0.00000,-0.05584,0.01712,0.02917,-0.01842,-0.01345,0.00458,-0.04978,0.99277,1.24736,0.00000,1.46927,1.47436,-0.04992,0.17755,1.20655,-0.22784,0.79690,1.70364,1.70364,A,105846.30
1.26148,57.68785626,11.98138566,57.68786183,11.98138267,10:58:46.512010,0.00321,0.00000,-0.05545,0.01712,0.03207,-0.02148,-0.01131,-0.05765,-0.03221,1.02657,1.25800,0.00000,1.46927,1.47436,-0.04992,0.17755,1.20655,-0.22784,0.79690,1.70364,1.70364,A,105846.30
1.27229,57.68785626,11.98138566,57.68786183,11.98138267,10:58:46.522837,0.00363,0.00000,-0.05524,0.01712,0.03375,-0.00880,-0.00887,-0.05642,-0.04544,1.05353,1.26812,0.00000,1.46927,1.47436,-0.04992,0.17755,1.20655,-0.22784,0.79690,1.70364,1.70364,A,105846.30
1.28220,57.68785626,11.98138566,57.68786183,11.98138267,10:58:46.532731,0.00315,0.00000,-0.05542,0.01712,0.03131,-0.00315,-0.00856,0.01000,-0.06905,1.02334,1.27873,0.00000,1.46927,1.47436,-0.04992,0.17755,1.20655,-0.22784,0.79690,1.70364,1.70364,A,105846.30
1.29259,57.68785626,11.98138566,57.68786183,11.98138267,10:58:46.543115,0.00313,0.00000,-0.05511,0.01712,0.03177,-0.00666,-0.00536,0.04557,-0.03654,1.01583,1.28909,0.00000,1.46927,1.47436,-0.04992,0.17755,1.20655,-0.22784,0.79690,1.70364,1.70364,A,105846.30
1.30286,57.68785626,11.98138566,57.68786183,11.98138267,10:58:46.553379,0.00298,0.00000,-0.05495,0.01712,0.03146,-0.01125,-0.00307,0.02074,-0.04477,1.00638,1.29936,0.00000,1.46927,1.47436,-0.04992,0.17755,1.20655,-0.22784,0.79690,1.70364,1.70364,A,105846.30
1.33997,57.68785626,11.98138566,57.68786383,11.98138150,10:58:46.590517,0.02969,0.00000,-0.05417,0.01712,0.02688,-0.02087,-0.00597,-0.06277,-0.00049,1.00589,1.31012,0.00000,1.46927,1.47436,-0.04992,0.17755,1.33588,-0.29719,1.01929,1.87305,1.87305,A,105846.50
1.35119,57.68785664,11.98138545,57.68786383,11.98138150,10:58:46.601992,0.00564,0.00000,-0.05378,0.01712,0.02780,0.00128,-0.00536,0.10150,-0.06734,0.93074,1.34572,0.00000,1.52908,1.53416,-0.06229,0.21963,1.33588,-0.29719,1.01929,1.87305,1.87305,A,105846.50
1.35892,57.68785664,11.98138545,57.68786383,11.98138150,10:58:46.609443,0.00298,0.00000,-0.05380,0.01721,0.02535,-0.01720,-0.00627,0.02965,-0.04874,0.96618,1.35544,0.00000,1.52908,1.53416,-0.06229,0.21963,1.33588,-0.29719,1.01929,1.87305,1.87305,A,105846.50
1.36948,57.68785664,11.98138545,57.68786383,11.98138150,10:58:46.620003,0.00313,0.00000,-0.05359,0.01766,0.02780,-0.02621,0.00014,-0.04587,-0.03849,1.01724,1.36600,0.00000,1.52908,1.53416,-0.06229,0.21963,1.33588,-0.29719,1.01929,1.87305,1.87305,A,105846.50
1.38043,57.68785664,11.98138545,57.68786383,11.98138150,10:58:46.630957,0.00335,0.00000,-0.05316,0.01862,0.03604,-0.01491,0.00304,-0.03684,-0.03026,1.01602,1.37690,0.00000,1.52908,1.53416,-0.06229,0.21963,1.33588,-0.29719,1.01929,1.87305,1.87305,A,105846.50
1.39066,57.68785664,11.98138545,57.68786383,11.98138150,10:58:46.641190,0.00301,0.00000,-0.05326,0.01995,0.03131,-0.00071,0.00365,0.00390,-0.06179,1.02748,1.38717,0.00000,1.52908,1.53416,-0.06229,0.21963,1.33588,-0.29719,1.01929,1.87305,1.87305,A,105846.50
1.40118,57.68785664,11.98138545,57.68786383,11.98138150,10:58:46.651705,0.00314,0.00000,-0.05353,0.02154,0.03055,0.00754,0.00442,0.00659,-0.07533,1.05506,1.39769,0.00000,1.52908,1.53416,-0.06229,0.21963,1.33588,-0.29719,1.01929,1.87305,1.87305,A,105846.50
1.41177,57.68785664,11.98138545,57.68786383,11.98138150,10:58:46.662317,0.00349,0.00000,-0.05313,0.02315,0.02917,0.00662,-0.00017,-0.00305,-0.02586,1.03102,1.40796,0.00000,1.52908,1.53416,-0.06229,0.21963,1.33588,-0.29719,1.01929,1.87305,1.87305,A,105846.50
1.42170,57.68785664,11.98138545,57.68786383,11.98138150,10:58:46.672225,0.00318,0.00000,-0.05234,0.02457,0.02719,0.01349,-0.00032,-0.00683,0.00195,0.99747,1.41821,0.00000,1.52908,1.53416,-0.06229,0.21963,1.33588,-0.29719,1.01929,1.87305,1.87305,A,105846.50
1.43207,57.68785664,11.98138545,57.68786383,11.98138150,10:58:46.682599,0.00316,0.00000,-0.05192,0.02573,0.02764,0.01273,-0.00337,-0.01757,-0.02147,0.97844,1.42837,0.00000,1.52908,1.53416,-0.06229,0.21963,1.33588,-0.29719,1.01929,1.87305,1.87305,A,105846.50
1.45778,57.68785664,11.98138545,57.68786483,11.98138167,10:58:46.708318,0.01865,0.00000,-0.05189,0.02658,0.02764,0.01426,-0.00246,-0.02989,-0.04666,0.98179,1.43882,0.00000,1.52908,1.53416,-0.06229,0.21963,1.45378,-0.28728,1.13048,1.48194,1.48194,A,105846.60
1.46885,57.68785705,11.98138526,57.68786483,11.98138167,10:58:46.719380,0.00550,0.00000,-0.05189,0.02737,0.02383,0.01685,-0.00215,0.07649,-0.06539,0.95111,1.46307,0.00000,1.52079,1.52891,-0.07354,0.26518,1.45378,-0.28728,1.13048,1.48194,1.48194,A,105846.60
1.47698,57.68785705,11.98138526,57.68786483,11.98138167,10:58:46.727507,0.00317,0.00000,-0.05221,0.02737,0.01802,-0.00346,0.00396,0.04721,-0.06320,0.97033,1.47349,0.00000,1.52079,1.52891,-0.07354,0.26518,1.45378,-0.28728,1.13048,1.48194,1.48194,A,105846.60
1.48702,57.68785705,11.98138526,57.68786483,11.98138167,10:58:46.737538,0.00298,0.00000,-0.05220,0.02737,0.01451,-0.01262,0.00411,-0.03227,-0.04081,1.02327,1.48353,0.00000,1.52079,1.52891,-0.07354,0.26518,1.45378,-0.28728,1.13048,1.48194,1.48194,A,105846.60
1.49759,57.68785705,11.98138526,57.68786483,11.98138167,10:58:46.748112,0.00315,0.00000,-0.05187,0.02737,0.01879,-0.01308,-0.00032,-0.03044,-0.02300,1.04542,1.49411,0.00000,1.52079,1.52891,-0.07354,0.26518,1.45378,-0.28728,1.13048,1.48194,1.48194,A,105846.60
1.50814,57.68785705,11.98138526,57.68786483,11.98138167,10:58:46.758676,0.00331,0.00000,-0.05196,0.02737,0.02352,-0.00865,-0.00001,0.02556,-0.05435,1.02279,1.50463,0.00000,1.52079,1.52891,-0.07354,0.26518,1.45378,-0.28728,1.13048,1.48194,1.48194,A,105846.60
1.51880,57.68785705,11.98138526,57.68786483,11.98138167,10:58:46.769318,0.00308,1.00070,-0.05195,0.02737,0.01695,-0.01308,-0.00047,0.03898,-0.03971,1.00272,1.51531,0.00000,1.52079,1.52891,-0.07354,0.26518,1.45378,-0.28728,1.13048,1.48194,1.48194,A,105846.60
1.52944,57.68785705,11.98138526,57.68786483,11.98138167,10:58:46.779965,0.00333,1.00070,-0.05178,0.02737,0.01894,-0.01659,0.00060,-0.00677,-0.03032,0.99753,1.52594,0.00000,1.52079,1.52891,-0.07354,0.26518,1.45378,-0.28728,1.13048,1.48194,1.48194,A,105846.60
1.53983,57.68785705,11.98138526,57.68786483,11.98138167,10:58:46.790376,0.00332,1.00070,-0.05176,0.02737,0.01237,-0.00743,0.00319,-0.07100,-0.03587,1.01309,1.53612,0.00000,1.52079,1.52891,-0.07354,0.26518,1.45378,-0.28728,1.13048,1.48194,1.48194,A,105846.60
1.55008,57.68785705,11.98138526,57.68786483,11.98138167,10:58:46.800608,0.00318,1.00070,-0.05185,0.02737,0.01604,0.00983,-0.00078,-0.07601,-0.04416,0.96959,1.54659,0.00000,1.52079,1.52891,-0.07354,0.26518,1.45378,-0.28728,1.13048,1.48194,1.48194,A,105846.60
1.57582,57.68785705,11.98138526,57.68786600,11.98138133,10:58:46.826366,0.01851,1.00070,-0.05214,0.02737,0.01451,0.01869,-0.00200,-0.02959,-0.05417,0.94629,1.55696,0.00000,1.52079,1.52891,-0.07354,0.26518,1.57181,-0.30709,1.26021,1.72235,1.72235,A,105846.70
1.58657,57.68785750,11.98138507,57.68786600,11.98138133,10:58:46.837100,0.00520,1.00070,-0.05209,0.02737,-0.00214,0.00387,-0.00887,0.02251,-0.02105,0.94184,1.58110,0.20014,1.54980,1.55793,-0.08521,0.31493,1.57181,-0.30709,1.26021,1.72235,1.72235,A,105846.70
1.59601,57.68785750,11.98138507,57.68786600,11.98138133,10:58:46.846567,0.00412,1.00070,-0.05208,0.02737,0.00199,-0.00880,-0.01360,-0.00116,-0.02885,0.98960,1.59208,0.20014,1.54980,1.55793,-0.08521,0.31493,1.57181,-0.30709,1.26021,1.72235,1.72235,A,105846.70
1.60543,57.68785750,11.98138507,57.68786600,11.98138133,10:58:46.855951,0.00315,1.00070,-0.05234,0.02737,-0.00565,-0.01354,-0.01208,-0.06137,-0.04496,1.05463,1.60195,0.20014,1.54980,1.55793,-0.08521,0.31493,1.57181,-0.30709,1.26021,1.72235,1.72235,A,105846.70
1.61598,57.68785750,11.98138507,57.68786600,11.98138133,10:58:46.866512,0.00330,1.00070,-0.05235,0.02737,-0.00137,0.00036,-0.01360,-0.01348,-0.03129,1.08427,1.61226,0.20014,1.54980,1.55793,-0.08521,0.31493,1.57181,-0.30709,1.26021,1.72235,1.72235,A,105846.70
1.62622,57.68785750,11.98138507,57.68786600,11.98138133,10:58:46.876751,0.00315,1.00070,-0.05279,0.02737,-0.00763,0.00021,-0.01330,0.06484,-0.05630,1.06878,1.62274,0.20014,1.54980,1.55793,-0.08521,0.31493,1.57181,-0.30709,1.26021,1.72235,1.72235,A,105846.70
1.63660,57.68785750,11.98138507,57.68786600,11.98138133,10:58:46.887130,0.00313,1.00070,-0.05292,0.02737,-0.00977,-0.00941,-0.01024,0.03062,-0.03312,1.03999,1.63311,0.20014,1.54980,1.55793,-0.08521,0.31493,1.57181,-0.30709,1.26021,1.72235,1.72235,A,105846.70
1.64685,57.68785750,11.98138507,57.68786600,11.98138133,10:58:46.897376,0.00296,1.00070,-0.05324,0.02737,-0.01023,-0.01262,-0.00368,0.00982,-0.04362,0.98747,1.64337,0.20014,1.54980,1.55793,-0.08521,0.31493,1.57181,-0.30709,1.26021,1.72235,1.72235,A,105846.70
1.65745,57.68785750,11.98138507,57.68786600,11.98138133,10:58:46.907971,0.00316,1.00070,-0.05349,0.02737,-0.00656,-0.01155,-0.00154,-0.06496,-0.03995,0.96087,1.65395,0.20014,1.54980,1.55793,-0.08521,0.31493,1.57181,-0.30709,1.26021,1.72235,1.72235,A,105846.70
1.66785,57.68785750,11.98138507,57.68786600,11.98138133,10:58:46.918388,0.00317,1.00070,-0.05438,0.02737,-0.00855,0.00082,-0.00414,-0.04770,-0.07515,0.89804,1.66415,0.20014,1.54980,1.55793,-0.08521,0.31493,1.57181,-0.30709,1.26021,1.72235,1.72235,A,105846.70
1.69396,57.68785750,11.98138507,57.68786717,11.98138083,10:58:46.944505,0.01888,1.00070,-0.05501,0.02737,-0.01435,0.00448,-0.00123,0.00531,-0.05630,0.89731,1.67474,0.20014,1.54980,1.55793,-0.08521,0.31493,1.68969,-0.33681,1.38994,1.79600,1.79600,A,105846.80
1.70513,57.68785818,11.98138486,57.68786717,11.98138083,10:58:46.955662,0.00534,1.00070,-0.05532,0.02737,-0.01298,0.00235,-0.00963,-0.03489,-0.03361,1.07738,1.69936,0.36025,1.58601,1.59413,-0.09751,0.39082,1.68969,-0.33681,1.38994,1.79600,1.79600,A,105846.80
1.71337,57.68785818,11.98138486,57.68786717,11.98138083,10:58:46.963892,0.00317,1.00070,-0.05578,0.02737,-0.01344,0.00586,-0.01544,-0.02916,-0.05728,1.06866,1.70989,0.36025,1.58601,1.59413,-0.09751,0.39082,1.68969,-0.33681,1.38994,1.79600,1.79600,A,105846.80
1.72491,57.68785818,11.98138486,57.68786717,11.98138083,10:58:46.975450,0.00432,1.00070,-0.05609,0.02737,-0.01939,0.00968,-0.01880,-0.02532,-0.04111,1.06299,1.72106,0.36025,1.58601,1.59413,-0.09751,0.39082,1.68969,-0.33681,1.38994,1.79600,1.79600,A,105846.80
1.73417,57.68785818,11.98138486,57.68786717,11.98138083,10:58:46.984691,0.00318,1.00070,-0.05644,0.02737,-0.01756,0.01426,-0.02246,0.04532,-0.04587,1.01943,1.73068,0.36025,1.58601,1.59413,-0.09751,0.39082,1.68969,-0.33681,1.38994,1.79600,1.79600,A,105846.80
1.74451,57.68785818,11.98138486,57.68786717,11.98138083,10:58:46.995039,0.00313,1.00070,-0.05617,0.02737,-0.02184,0.00112,-0.01987,0.00677,-0.00024,0.98600,1.74102,0.36025,1.58601,1.59413,-0.09751,0.39082,1.68969,-0.33681,1.38994,1.79600,1.79600,A,105846.80
1.75485,57.68785818,11.98138486,57.68786717,11.98138083,10:58:47.005376,0.00296,1.00070,-0.05641,0.02737,-0.01160,-0.00422,-0.01590,-0.02483,-0.04026,0.98576,1.75136,0.36025,1.58601,1.59413,-0.09751,0.39082,1.68969,-0.33681,1.38994,1.79600,1.79600,A,105846.80
1.76549,57.68785818,11.98138486,57.68786717,11.98138083,10:58:47.016020,0.00322,1.00070,-0.05645,0.02737,-0.01222,-0.00300,-0.01147,-0.03349,-0.02696,0.97844,1.76201,0.36025,1.58601,1.59413,-0.09751,0.39082,1.68969,-0.33681,1.38994,1.79600,1.79600,A,105846.80
1.77582,57.68785818,11.98138486,57.68786717,11.98138083,10:58:47.026361,0.00315,1.00070,-0.05705,0.02737,-0.00794,-0.00239,-0.01101,-0.01372,-0.06570,0.96953,1.77212,0.36025,1.58601,1.59413,-0.09751,0.39082,1.68969,-0.33681,1.38994,1.79600,1.79600,A,105846.80
1.78622,57.68785818,11.98138486,57.68786717,11.98138083,10:58:47.036743,0.00315,1.00070,-0.05781,0.02737,-0.01328,-0.00040,-0.00872,-0.01342,-0.07253,0.97283,1.78274,0.36025,1.58601,1.59413,-0.09751,0.39082,1.68969,-0.33681,1.38994,1.79600,1.79600,A,105846.80
1.81368,57.68785818,11.98138486,57.68786817,11.98138000,10:58:47.064219,0.02021,1.00070,-0.05800,0.02737,-0.01481,0.01182,-0.01208,-0.04288,-0.03788,1.01852,1.79310,0.36025,1.58601,1.59413,-0.09751,0.39082,1.80929,-0.38634,1.50113,1.98985,1.98985,A,105846.90
1.83116,57.68785906,11.98138460,57.68786817,11.98138000,10:58:47.081952,0.00659,1.00070,-0.05844,0.02737,-0.01191,0.00784,-0.01941,0.00823,-0.03886,1.00046,1.82569,0.48834,1.64632,1.65444,-0.11294,0.48883,1.80929,-0.38634,1.50113,1.98985,1.98985,A,105846.90
1.83814,57.68785906,11.98138460,57.68786817,11.98138000,10:58:47.088666,0.00316,1.00070,-0.05890,0.02737,-0.01787,-0.00117,-0.01941,0.00079,-0.05307,0.97045,1.83466,0.48834,1.64632,1.65444,-0.11294,0.48883,1.80929,-0.38634,1.50113,1.98985,1.98985,A,105846.90
1.84852,57.68785906,11.98138460,57.68786817,11.98138000,10:58:47.099049,0.00314,1.00070,-0.05949,0.02737,-0.00901,0.00204,-0.02399,0.03190,-0.06777,0.98167,1.84502,0.48834,1.64632,1.65444,-0.11294,0.48883,1.80929,-0.38634,1.50113,1.98985,1.98985,A,105846.90
1.85886,57.68785906,11.98138460,57.68786817,11.98138000,10:58:47.109386,0.00297,1.00070,-0.06023,0.02737,-0.01512,-0.01674,-0.02032,0.03111,-0.07332,0.97313,1.85537,0.48834,1.64632,1.65444,-0.11294,0.48883,1.80929,-0.38634,1.50113,1.98985,1.98985,A,105846.90
1.86941,57.68785906,11.98138460,57.68786817,11.98138000,10:58:47.119928,0.00312,1.00070,-0.06034,0.02737,-0.01603,-0.02224,-0.01819,-0.01135,-0.03337,1.02120,1.86592,0.48834,1.64632,1.65444,-0.11294,0.48883,1.80929,-0.38634,1.50113,1.98985,1.98985,A,105846.90
1.87983,57.68785906,11.98138460,57.68786817,11.98138000,10:58:47.130366,0.00316,1.00070,-0.06093,0.02737,-0.00901,-0.01522,-0.01360,0.00939,-0.07082,1.00924,1.87612,0.48834,1.64632,1.65444,-0.11294,0.48883,1.80929,-0.38634,1.50113,1.98985,1.98985,A,105846.90
1.89023,57.68785906,11.98138460,57.68786817,11.98138000,10:58:47.140751,0.00316,1.00070,-0.06126,0.02737,-0.00748,-0.01445,-0.01284,-0.01006,-0.05557,1.01998,1.88675,0.48834,1.64632,1.65444,-0.11294,0.48883,1.80929,-0.38634,1.50113,1.98985,1.98985,A,105846.90
1.90060,57.68785906,11.98138460,57.68786817,11.98138000,10:58:47.151131,0.00314,1.00070,-0.06093,0.02737,-0.00443,-0.00254,-0.01162,-0.00641,-0.01336,1.01223,1.89711,0.48834,1.64632,1.65444,-0.11294,0.48883,1.80929,-0.38634,1.50113,1.98985,1.98985,A,105846.90
1.93835,57.68785906,11.98138460,57.68787000,11.98137800,10:58:47.188915,0.03046,1.00070,-0.06128,0.02737,-0.00473,-0.00391,-0.00643,-0.04130,-0.05880,1.02047,1.90751,0.48834,1.64632,1.65444,-0.11294,0.48883,1.93337,-0.50522,1.70499,2.09872,2.09872,A,105847.10
1.95275,57.68786010,11.98138419,57.68787000,11.98137800,10:58:47.203287,0.00680,1.00070,-0.06115,0.02737,0.00275,-0.00437,-0.01528,0.04307,-0.03459,0.96569,1.94655,0.59081,1.71419,1.72232,-0.13717,0.60467,1.93337,-0.50522,1.70499,2.09872,2.09872,A,105847.10
1.95918,57.68786010,11.98138419,57.68787000,11.98137800,10:58:47.209920,0.00300,1.00070,-0.06153,0.02737,0.00443,-0.00636,-0.02216,0.01610,-0.06362,0.96850,1.95569,0.59081,1.71419,1.72232,-0.13717,0.60467,1.93337,-0.50522,1.70499,2.09872,2.09872,A,105847.10
1.96974,57.68786010,11.98138419,57.68787000,11.98137800,10:58:47.220265,0.00316,1.00070,-0.06200,0.02737,0.00535,-0.01262,-0.02063,-0.02458,-0.07107,0.96331,1.96625,0.59081,1.71419,1.72232,-0.13717,0.60467,1.93337,-0.50522,1.70499,2.09872,2.09872,A,105847.10
1.98013,57.68786010,11.98138419,57.68787000,11.98137800,10:58:47.230666,0.00316,1.00070,-0.06229,0.02737,0.00397,-0.01323,-0.02170,-0.01690,-0.05679,0.94032,1.97663,0.59081,1.71419,1.72232,-0.13717,0.60467,1.93337,-0.50522,1.70499,2.09872,2.09872,A,105847.10
1.99066,57.68786010,11.98138419,57.68787000,11.98137800,10:58:47.241190,0.00329,1.00070,-0.06237,0.02737,0.01176,-0.01430,-0.01452,-0.00018,-0.04996,0.96313,1.98718,0.59081,1.71419,1.72232,-0.13717,0.60467,1.93337,-0.50522,1.70499,2.09872,2.09872,A,105847.10
2.00094,57.68786010,11.98138419,57.68787000,11.98137800,10:58:47.251466,0.00317,1.00070,-0.06226,0.02737,0.01207,-0.01751,-0.00872,0.02605,-0.03922,0.98039,1.99745,0.59081,1.71419,1.72232,-0.13717,0.60467,1.93337,-0.50522,1.70499,2.09872,2.09872,A,105847.10
2.01528,57.68786010,11.98138419,57.68787000,11.98137800,10:58:47.266074,0.00728,1.00070,-0.06181,0.02737,0.02260,-0.01308,-0.00597,-0.02300,-0.02501,1.04694,2.00764,1.00070,1.85075,1.85887,-0.50522,1.70499,1.93337,-0.50522,1.70499,2.09872,2.09872,A,105847.10
2.02214,57.68786010,11.98138419,57.68787000,11.98137800,10:58:47.272670,0.00375,1.00070,-0.06156,0.00294,0.02596,-0.01002,-0.00582,-0.04416,-0.04447,1.04780,2.01863,1.00070,1.85075,1.85887,-0.50522,1.70499,1.93337,-0.50522,1.70499,2.09872,2.09872,A,105847.10
2.03196,57.68786010,11.98138419,57.68787000,11.98137800,10:58:47.282496,0.00317,1.00070,-0.06107,0.00294,0.02520,0.00036,-0.00230,-0.08796,-0.02599,1.07854,2.02826,1.00070,1.85075,1.85887,-0.50522,1.70499,1.93337,-0.50522,1.70499,2.09872,2.09872,A,105847.10
2.06034,57.68786010,11.98138419,57.68787150,11.98137700,10:58:47.310884,0.02115,1.00070,-0.06122,0.00294,0.02612,0.01472,-0.00185,0.02959,-0.06808,0.99357,2.03911,1.00070,1.85075,1.85887,-0.50522,1.70499,2.05465,-0.56465,1.87178,1.91312,1.91312,A,105847.20
2.07613,57.68787107,11.98137740,57.68787150,11.98137700,10:58:47.327295,0.00794,1.38758,-0.05946,0.00294,0.02902,-0.00437,0.00182,-0.05569,0.01873,0.98552,2.07000,1.07808,1.86255,1.86342,-0.54095,1.82389,2.05465,-0.56465,1.87178,1.91312,1.91312,A,105847.20
2.08159,57.68787107,11.98137740,57.68787150,11.98137700,10:58:47.332106,0.00320,1.38758,-0.05938,0.00294,0.04551,0.00998,0.00365,-0.06021,-0.05771,1.01913,2.07809,1.07808,1.86255,1.86342,-0.54095,1.82389,2.05465,-0.56465,1.87178,1.91312,1.91312,A,105847.20
2.09195,57.68787107,11.98137740,57.68787150,11.98137700,10:58:47.342484,0.00316,1.38758,-0.06019,0.00294,0.04169,0.01548,0.00151,-0.02532,-0.12041,1.00333,2.08825,1.07808,1.86255,1.86342,-0.54095,1.82389,2.05465,-0.56465,1.87178,1.91312,1.91312,A,105847.20
2.10234,57.68787107,11.98137740,57.68787150,11.98137700,10:58:47.352868,0.00317,1.38758,-0.06041,0.00294,0.03833,0.00907,0.00808,0.04990,-0.07710,0.95977,2.09886,1.07808,1.86255,1.86342,-0.54095,1.82389,2.05465,-0.56465,1.87178,1.91312,1.91312,A,105847.20
2.11708,57.68787107,11.98137740,57.68787150,11.98137700,10:58:47.367633,0.00750,12.29662,-0.06041,0.00319,0.03253,0.00739,0.01266,0.03745,-0.01501,0.96587,2.11349,1.07808,1.86255,1.86342,-0.54095,1.82389,2.05465,-0.56465,1.87178,1.91312,1.91312,A,105847.20
2.12669,57.68787107,11.98137740,57.68787150,11.98137700,10:58:47.377226,0.00646,12.29662,-0.06038,0.00370,0.03818,0.00662,0.01633,-0.00714,-0.01049,0.96459,2.12318,1.07808,1.86255,1.86342,-0.54095,1.82389,2.05465,-0.56465,1.87178,1.91312,1.91312,A,105847.20
2.13836,57.68787107,11.98137740,57.68787150,11.98137700,10:58:47.388905,0.00774,12.29662,-0.06021,0.00469,0.04139,0.00647,0.02320,-0.06503,0.00433,1.00235,2.13417,1.07808,1.86255,1.86342,-0.54095,1.82389,2.05465,-0.56465,1.87178,1.91312,1.91312,A,105847.20
2.14721,57.68787107,11.98137740,57.68787150,11.98137700,10:58:47.397982,0.00634,12.29662,-0.06107,0.00571,0.04460,0.01059,0.01404,0.02593,-0.04825,0.99320,2.14369,1.07808,1.86255,1.86342,-0.54095,1.82389,2.05465,-0.56465,1.87178,1.91312,1.91312,A,105847.20
2.17454,57.68787107,11.98137740,57.68787267,11.98137617,10:58:47.425087,0.02327,12.29662,-0.06171,0.00698,0.04475,0.00968,0.01465,0.07558,-0.02550,1.03608,2.15429,1.07808,1.86255,1.86342,-0.54095,1.82389,2.17019,-0.61418,2.00151,1.93552,1.93552,A,105847.30
2.19774,57.68787220,11.98137675,57.68787267,11.98137617,10:58:47.448283,0.01139,12.29662,-0.06262,0.01160,0.04276,-0.01858,0.01266,0.01153,-0.06295,1.04786,2.19119,3.32179,1.87327,1.87671,-0.57977,1.94946,2.17019,-0.61418,2.00151,1.93552,1.93552,A,105847.30
2.21490,57.68787220,11.98137675,57.68787267,11.98137617,10:58:47.465427,0.00724,12.29662,-0.06476,0.01375,0.05651,-0.03889,0.02030,0.02727,-0.06698,0.94904,2.21137,3.32179,1.87327,1.87671,-0.57977,1.94946,2.17019,-0.61418,2.00151,1.93552,1.93552,A,105847.30
2.22445,57.68787220,11.98137675,57.68787267,11.98137617,10:58:47.474993,0.00640,12.29662,-0.06694,0.01460,0.05223,-0.04179,0.02580,-0.01824,-0.01739,0.94593,2.22091,3.32179,1.87327,1.87671,-0.57977,1.94946,2.17019,-0.61418,2.00151,1.93552,1.93552,A,105847.30
2.23609,57.68787220,11.98137675,57.68787267,11.98137617,10:58:47.486628,0.00781,12.29662,-0.06935,0.01547,0.05651,-0.02865,0.02488,-0.05313,-0.02983,0.93415,2.23234,3.32179,1.87327,1.87671,-0.57977,1.94946,2.17019,-0.61418,2.00151,1.93552,1.93552,A,105847.30
2.24495,57.68787220,11.98137675,57.68787267,11.98137617,10:58:47.495487,0.00626,12.29662,-0.07181,0.01598,0.05467,-0.01399,0.03007,-0.10260,-0.02452,0.95813,2.24140,3.32179,1.87327,1.87671,-0.57977,1.94946,2.17019,-0.61418,2.00151,1.93552,1.93552,A,105847.30
2.25717,57.68787220,11.98137675,57.68787267,11.98137617,10:58:47.507726,0.00810,12.29662,-0.07399,0.01641,0.05651,0.00525,0.02595,-0.04593,-0.01299,0.94776,2.25362,3.32179,1.87327,1.87671,-0.57977,1.94946,2.17019,-0.61418,2.00151,1.93552,1.93552,A,105847.30
2.26645,57.68787220,11.98137675,57.68787267,11.98137617,10:58:47.516977,0.00681,12.29662,-0.07643,0.01655,0.05513,0.01747,0.02610,0.00726,-0.02666,0.97728,2.26293,3.32179,1.87327,1.87671,-0.57977,1.94946,2.17019,-0.61418,2.00151,1.93552,1.93552,A,105847.30
2.29534,57.68787220,11.98137675,57.68787383,11.98137500,10:58:47.546107,0.02506,12.29662,-0.07857,0.01655,0.05162,0.01349,0.02305,0.03831,-0.00714,0.96636,2.27322,3.32179,1.87327,1.87671,-0.57977,1.94946,2.28904,-0.68353,2.13124,2.06169,2.06169,A,105847.40
2.31510,57.68787536,11.98137484,57.68787383,11.98137500,10:58:47.565658,0.00973,12.29662,-0.07949,0.01655,0.04612,-0.02209,0.00823,0.00854,-0.02111,1.06939,2.30789,5.11675,1.90420,1.90911,-0.69316,2.30115,2.28904,-0.68353,2.13124,2.06169,2.06169,A,105847.40
2.32269,57.68787536,11.98137484,57.68787383,11.98137500,10:58:47.573219,0.00627,12.29662,-0.08164,0.01655,0.04811,-0.02774,0.00732,0.05996,-0.03434,1.06140,2.31917,5.11675,1.90420,1.90911,-0.69316,2.30115,2.28904,-0.68353,2.13124,2.06169,2.06169,A,105847.40
2.33446,57.68787536,11.98137484,57.68787383,11.98137500,10:58:47.585007,0.00684,12.29662,-0.08398,0.01655,0.04734,-0.02545,0.00885,0.00098,-0.04142,1.02254,2.33090,5.11675,1.90420,1.90911,-0.69316,2.30115,2.28904,-0.68353,2.13124,2.06169,2.06169,A,105847.40
2.34473,57.68787536,11.98137484,57.68787383,11.98137500,10:58:47.595270,0.00671,12.29662,-0.08632,0.01655,0.04734,-0.01644,0.01633,0.00110,-0.02538,0.96917,2.34121,5.11675,1.90420,1.90911,-0.69316,2.30115,2.28904,-0.68353,2.13124,2.06169,2.06169,A,105847.40
2.35471,57.68787536,11.98137484,57.68787383,11.98137500,10:58:47.605624,0.00645,12.29662,-0.08916,0.01655,0.04948,-0.00911,0.01969,-0.06289,-0.05307,0.93849,2.35113,5.11675,1.90420,1.90911,-0.69316,2.30115,2.28904,-0.68353,2.13124,2.06169,2.06169,A,105847.40
2.36561,57.68787536,11.98137484,57.68787383,11.98137500,10:58:47.616153,0.00645,12.29662,-0.09132,0.01655,0.04185,0.00326,0.02076,-0.01732,-0.00390,0.91805,2.36210,5.11675,1.90420,1.90911,-0.69316,2.30115,2.28904,-0.68353,2.13124,2.06169,2.06169,A,105847.40
2.37605,57.68787536,11.98137484,57.68787383,11.98137500,10:58:47.627423,0.00649,12.29662,-0.09304,0.01655,0.03757,0.01441,0.02503,-0.02666,0.02477,0.92610,2.37231,5.11675,1.90420,1.90911,-0.69316,2.30115,2.28904,-0.68353,2.13124,2.06169,2.06169,A,105847.40
2.38681,57.68787536,11.98137484,57.68787383,11.98137500,10:58:47.637353,0.00693,12.29662,-0.09432,0.01655,0.03528,0.01762,0.02228,0.03440,0.04435,0.96246,2.38328,5.11675,1.90420,1.90911,-0.69316,2.30115,2.28904,-0.68353,2.13124,2.06169,2.06169,A,105847.40
2.41461,57.68787536,11.98137484,57.68787483,11.98137367,10:58:47.665153,0.02431,12.29662,-0.09614,0.01655,0.03024,0.00662,0.01862,0.02300,0.00299,1.00851,2.39323,5.11675,1.90420,1.90911,-0.69316,2.30115,2.40888,-0.76278,2.24243,2.19000,2.19000,A,105847.50
2.43035,57.68787998,11.98137172,57.68787483,11.98137367,10:58:47.680897,0.00877,12.29662,-0.09764,0.01655,0.01359,-0.02514,-0.00078,0.00634,0.01055,1.03334,2.42323,6.55273,1.95375,1.95866,-0.87854,2.81521,2.40888,-0.76278,2.24243,2.19000,2.19000,A,105847.50
2.43866,57.68787998,11.98137172,57.68787483,11.98137367,10:58:47.689202,0.00663,12.29662,-0.09961,0.01655,0.01741,-0.01827,-0.00459,0.00592,-0.00909,1.03066,2.43515,6.55273,1.95375,1.95866,-0.87854,2.81521,2.40888,-0.76278,2.24243,2.19000,2.19000,A,105847.50
2.44942,57.68787998,11.98137172,57.68787483,11.98137367,10:58:47.699965,0.00716,12.29662,-0.10191,0.01655,0.02520,-0.01537,0.00487,-0.00616,-0.03556,1.01425,2.44586,6.55273,1.95375,1.95866,-0.87854,2.81521,2.40888,-0.76278,2.24243,2.19000,2.19000,A,105847.50
2.45883,57.68787998,11.98137172,57.68787483,11.98137367,10:58:47.709371,0.00634,12.29662,-0.10429,0.01655,0.01741,-0.00391,0.00640,0.02330,-0.01952,0.95178,2.45533,6.55273,1.95375,1.95866,-0.87854,2.81521,2.40888,-0.76278,2.24243,2.19000,2.19000,A,105847.50
2.47005,57.68787998,11.98137172,57.68787483,11.98137367,10:58:47.720606,0.00716,12.29662,-0.10682,0.01655,0.01176,-0.00193,0.01648,-0.06576,-0.02361,0.92940,2.46592,6.55273,1.95375,1.95866,-0.87854,2.81521,2.40888,-0.76278,2.24243,2.19000,2.19000,A,105847.50
2.48076,57.68787998,11.98137172,57.68787483,11.98137367,10:58:47.731308,0.00747,12.29662,-0.10940,0.01655,0.00993,0.01304,0.01831,-0.05722,-0.03501,0.95319,2.47724,6.55273,1.95375,1.95866,-0.87854,2.81521,2.40888,-0.76278,2.24243,2.19000,2.19000,A,105847.50
2.49106,57.68787998,11.98137172,57.68787483,11.98137367,10:58:47.741592,0.00724,12.29662,-0.11201,0.01655,0.01802,0.02342,0.01388,-0.00482,-0.04532,0.95770,2.48755,6.55273,1.95375,1.95866,-0.87854,2.81521,2.40888,-0.76278,2.24243,2.19000,2.19000,A,105847.50
2.50074,57.68787998,11.98137172,57.68787483,11.98137367,10:58:47.751281,0.00652,12.29662,-0.11402,0.01655,0.00871,0.01747,0.01419,-0.02593,-0.02037,1.03926,2.49722,6.55273,1.95375,1.95866,-0.87854,2.81521,2.40888,-0.76278,2.24243,2.19000,2.19000,A,105847.50
2.53867,57.68787998,11.98137172,57.68787717,11.98137150,10:58:47.789218,0.03405,12.29662,-0.11578,0.01655,0.01115,0.01044,0.00701,0.06985,-0.01793,1.09007,2.50776,6.55273,1.95375,1.95866,-0.87854,2.81521,2.53429,-0.89156,2.50189,2.03152,2.03152,A,105847.70
2.55451,57.68788618,11.98136686,57.68787717,11.98137150,10:58:47.805041,0.00629,12.29662,-0.11838,0.01655,-0.01084,-0.02606,-0.02078,-0.00037,-0.01019,0.95947,2.54902,7.70150,1.97498,1.97989,-1.16728,3.50467,2.53429,-0.89156,2.50189,2.03152,2.03152,A,105847.70
2.56724,57.68788618,11.98136686,57.68787717,11.98137150,10:58:47.818001,0.00877,12.29662,-0.12049,0.01649,-0.01405,-0.01919,-0.01498,-0.02562,0.00695,0.94477,2.56371,7.70150,1.97498,1.97989,-1.16728,3.50467,2.53429,-0.89156,2.50189,2.03152,2.03152,A,105847.70
2.57171,57.68788618,11.98136686,57.68787717,11.98137150,10:58:47.822243,0.00306,1.60122,-0.11956,0.01641,-0.00473,-0.01705,-0.01238,0.01342,-0.02867,0.90158,2.56803,7.70150,1.97498,1.97989,-1.16728,3.50467,2.53429,-0.89156,2.50189,2.03152,2.03152,A,105847.70
2.58221,57.68788618,11.98136686,57.68787717,11.98137150,10:58:47.832746,0.00317,1.60122,-0.11838,0.01604,-0.00656,-0.02789,-0.00276,-0.03831,-0.01092,0.94587,2.57873,7.70150,1.97498,1.97989,-1.16728,3.50467,2.53429,-0.89156,2.50189,2.03152,2.03152,A,105847.70
2.59257,57.68788618,11.98136686,57.68787717,11.98137150,10:58:47.843106,0.00313,1.60122,-0.11728,0.01533,0.00061,-0.01842,0.00014,-0.05948,-0.02245,1.04755,2.58908,7.70150,1.97498,1.97989,-1.16728,3.50467,2.53429,-0.89156,2.50189,2.03152,2.03152,A,105847.70
2.60301,57.68788618,11.98136686,57.68787717,11.98137150,10:58:47.853537,0.00301,1.60122,-0.11642,0.01423,0.00504,-0.01430,-0.00139,-0.03825,-0.04508,1.13796,2.59951,7.70150,1.97498,1.97989,-1.16728,3.50467,2.53429,-0.89156,2.50189,2.03152,2.03152,A,105847.70
2.61383,57.68788618,11.98136686,57.68787717,11.98137150,10:58:47.864361,0.00321,1.60122,-0.11462,0.01281,0.00061,0.00555,-0.00337,-0.01653,0.03080,1.13375,2.61034,7.70150,1.97498,1.97989,-1.16728,3.50467,2.53429,-0.89156,2.50189,2.03152,2.03152,A,105847.70
2.62416,57.68788618,11.98136686,57.68787717,11.98137150,10:58:47.874694,0.00314,1.60122,-0.11392,0.01140,-0.00259,0.00296,-0.00902,0.09418,-0.04435,1.03102,2.62067,7.70150,1.97498,1.97989,-1.16728,3.50467,2.53429,-0.89156,2.50189,2.03152,2.03152,A,105847.70
2.63456,57.68788618,11.98136686,57.68787717,11.98137150,10:58:47.885093,0.00315,1.60122,-0.11298,0.01004,-0.00748,-0.01354,-0.00979,0.05649,-0.02123,0.92787,2.63107,7.70150,1.97498,1.97989,-1.16728,3.50467,2.53429,-0.89156,2.50189,2.03152,2.03152,A,105847.70
2.66223,57.68788618,11.98136686,57.68787850,11.98137017,10:58:47.913186,0.02041,1.60122,-0.11274,0.00882,-0.00550,-0.02835,-0.01101,-0.04185,-0.06234,0.89084,2.64172,7.70150,1.97498,1.97989,-1.16728,3.50467,2.65668,-0.97081,2.65015,2.06169,2.06169,A,105847.80
2.68396,57.68789339,11.98136087,57.68787850,11.98137017,10:58:47.934548,0.00935,1.60122,-0.11272,0.00588,0.00321,0.02464,-0.02506,-0.02117,-0.09906,1.02565,2.67632,6.48145,2.00016,2.00190,-1.52318,4.30549,2.65668,-0.97081,2.65015,2.06169,2.06169,A,105847.80
2.68886,57.68789339,11.98136087,57.68787850,11.98137017,10:58:47.939398,0.00385,1.60122,-0.11237,0.00531,-0.00886,0.03869,-0.02567,-0.03495,-0.05996,0.97045,2.68530,6.48145,2.00016,2.00190,-1.52318,4.30549,2.65668,-0.97081,2.65015,2.06169,2.06169,A,105847.80
2.69879,57.68789339,11.98136087,57.68787850,11.98137017,10:58:47.949310,0.00337,1.60122,-0.11157,0.00447,-0.01573,0.05259,-0.02964,-0.02013,-0.02629,0.99369,2.69528,6.48145,2.00016,2.00190,-1.52318,4.30549,2.65668,-0.97081,2.65015,2.06169,2.06169,A,105847.80
2.70897,57.68789339,11.98136087,57.68787850,11.98137017,10:58:47.959499,0.00316,1.60122,-0.11067,0.00350,-0.01313,0.05992,-0.02888,-0.06118,-0.02043,0.95312,2.70549,6.48145,2.00016,2.00190,-1.52318,4.30549,2.65668,-0.97081,2.65015,2.06169,2.06169,A,105847.80
2.71920,57.68789339,11.98136087,57.68787850,11.98137017,10:58:47.969927,0.00315,1.60122,-0.10904,0.00237,-0.00443,0.04847,-0.03254,0.07735,0.02178,0.95770,2.71556,6.48145,2.00016,2.00190,-1.52318,4.30549,2.65668,-0.97081,2.65015,2.06169,2.06169,A,105847.80
2.72960,57.68789339,11.98136087,57.68787850,11.98137017,10:58:47.980120,0.00316,1.60122,-0.10791,0.00110,0.00306,0.02419,-0.03178,0.09211,-0.01440,0.97380,2.72610,6.48145,2.00016,2.00190,-1.52318,4.30549,2.65668,-0.97081,2.65015,2.06169,2.06169,A,105847.80
2.74006,57.68789339,11.98136087,57.68787850,11.98137017,10:58:47.990591,0.00323,1.60122,-0.10752,-0.00009,0.01039,-0.00865,-0.03162,0.06100,-0.07357,1.08251,2.73628,6.48145,2.00016,2.00190,-1.52318,4.30549,2.65668,-0.97081,2.65015,2.06169,2.06169,A,105847.80
2.75039,57.68789339,11.98136087,57.68787850,11.98137017,10:58:48.000917,0.00316,1.60122,-0.10699,-0.00114,0.00687,-0.02056,-0.03605,0.12773,-0.06100,1.09434,2.74690,6.48145,2.00016,2.00190,-1.52318,4.30549,2.65668,-0.97081,2.65015,2.06169,2.06169,A,105847.80
2.77765,57.68789339,11.98136087,57.68787983,11.98136900,10:58:48.028194,0.02002,1.60122,-0.10635,-0.00193,0.00413,-0.03522,-0.03071,-0.01482,-0.05337,1.14058,2.75720,6.48145,2.00016,2.00190,-1.52318,4.30549,2.77207,-1.04015,2.79841,2.00828,2.00828,A,105847.90
2.79085,57.68789800,11.98135673,57.68787983,11.98136900,10:58:48.041405,0.00746,1.60122,-0.10625,-0.00261,0.00733,-0.00514,-0.02720,0.02031,-0.08516,0.92214,2.78431,5.50540,2.00461,2.00383,-1.76972,4.81865,2.77207,-1.04015,2.79841,2.00828,2.00828,A,105847.90
2.79695,57.68789800,11.98135673,57.68787983,11.98136900,10:58:48.047478,0.00316,1.60122,-0.10471,-0.00261,0.00687,-0.01506,-0.01925,0.05887,0.01068,0.86223,2.79347,5.50540,2.00461,2.00383,-1.76972,4.81865,2.77207,-1.04015,2.79841,2.00828,2.00828,A,105847.90
2.80700,57.68789800,11.98135673,57.68787983,11.98136900,10:58:48.057531,0.00298,1.60122,-0.10321,-0.00261,0.00825,-0.01796,-0.01513,0.05179,0.00817,0.80740,2.80351,5.50540,2.00461,2.00383,-1.76972,4.81865,2.77207,-1.04015,2.79841,2.00828,2.00828,A,105847.90
2.81758,57.68789800,11.98135673,57.68787983,11.98136900,10:58:48.068290,0.00315,1.60122,-0.10168,-0.00261,0.01207,-0.03308,-0.01192,0.02397,0.00958,0.86108,2.81409,5.50540,2.00461,2.00383,-1.76972,4.81865,2.77207,-1.04015,2.79841,2.00828,2.00828,A,105847.90
2.82812,57.68789800,11.98135673,57.68787983,11.98136900,10:58:48.078648,0.00330,1.60122,-0.10043,-0.00261,0.02535,-0.03736,-0.01910,-0.06765,-0.01507,0.98759,2.82461,5.50540,2.00461,2.00383,-1.76972,4.81865,2.77207,-1.04015,2.79841,2.00828,2.00828,A,105847.90
2.83837,57.68789800,11.98135673,57.68787983,11.98136900,10:58:48.088901,0.00316,1.60122,-0.09987,-0.00261,0.02215,-0.02804,-0.02491,-0.05649,-0.06545,1.13814,2.83488,5.50540,2.00461,2.00383,-1.76972,4.81865,2.77207,-1.04015,2.79841,2.00828,2.00828,A,105847.90
2.84869,57.68789800,11.98135673,57.68787983,11.98136900,10:58:48.099214,0.00307,1.60122,-0.09905,-0.00261,0.01879,-0.00498,-0.02903,-0.00579,-0.04447,1.17840,2.84519,5.50540,2.00461,2.00383,-1.76972,4.81865,2.77207,-1.04015,2.79841,2.00828,2.00828,A,105847.90
2.85893,57.68789800,11.98135673,57.68787983,11.98136900,10:58:48.109452,0.00299,1.60122,-0.09813,-0.00261,0.01482,-0.01445,-0.03392,0.17971,-0.03123,1.14802,2.85544,5.50540,2.00461,2.00383,-1.76972,4.81865,2.77207,-1.04015,2.79841,2.00828,2.00828,A,105847.90
2.86949,57.68789800,11.98135673,57.68787983,11.98136900,10:58:48.120017,0.00315,1.60122,-0.09620,-0.00261,0.01069,-0.02911,-0.02628,0.08796,0.05167,1.17517,2.86601,5.50540,2.00461,2.00383,-1.76972,4.81865,2.77207,-1.04015,2.79841,2.00828,2.00828,A,105847.90
2.89675,57.68789800,11.98135673,57.68788150,11.98136783,10:58:48.147293,0.02001,1.60122,-0.09519,-0.00261,0.01970,-0.05645,-0.02323,0.06393,-0.02269,1.05658,2.87618,5.50540,2.00461,2.00383,-1.76972,4.81865,2.89114,-1.10949,2.98373,1.92884,1.92884,A,105848.00
2.91303,57.68790227,11.98135287,57.68788150,11.98136783,10:58:48.163565,0.00637,1.60122,-0.09279,-0.00261,0.04139,-0.04087,-0.01483,-0.08113,0.00213,0.89328,2.90651,4.72457,1.99202,1.99125,-1.99874,5.29371,2.89114,-1.10949,2.98373,1.92884,1.92884,A,105848.00
2.92022,57.68790227,11.98135287,57.68788150,11.98136783,10:58:48.170744,0.00315,1.60122,-0.09168,-0.00261,0.05147,-0.00987,-0.00459,0.01305,-0.02855,0.86596,2.91671,4.72457,1.99202,1.99125,-1.99874,5.29371,2.89114,-1.10949,2.98373,1.92884,1.92884,A,105848.00
2.93062,57.68790227,11.98135287,57.68788150,11.98136783,10:58:48.181136,0.00297,1.60122,-0.09135,-0.00255,0.05284,-0.00117,0.00136,0.06088,-0.07052,0.82509,2.92712,4.72457,1.99202,1.99125,-1.99874,5.29371,2.89114,-1.10949,2.98373,1.92884,1.92884,A,105848.00
2.94127,57.68790227,11.98135287,57.68788150,11.98136783,10:58:48.191788,0.00323,1.60122,-0.09086,-0.00221,0.04505,0.00204,0.01587,0.08833,-0.05819,0.83064,2.93778,4.72457,1.99202,1.99125,-1.99874,5.29371,2.89114,-1.10949,2.98373,1.92884,1.92884,A,105848.00
2.95126,57.68790227,11.98135287,57.68788150,11.98136783,10:58:48.201986,0.00299,1.60122,-0.08951,-0.00145,0.03574,-0.01201,0.02366,-0.00982,-0.00317,0.95630,2.94778,4.72457,1.99202,1.99125,-1.99874,5.29371,2.89114,-1.10949,2.98373,1.92884,1.92884,A,105848.00
2.96183,57.68790227,11.98135287,57.68788150,11.98136783,10:58:48.212357,0.00317,1.60122,-0.08741,-0.00032,0.04353,-0.01858,0.02167,-0.00018,0.04703,1.13076,2.95834,4.72457,1.99202,1.99125,-1.99874,5.29371,2.89114,-1.10949,2.98373,1.92884,1.92884,A,105848.00
2.97232,57.68790227,11.98135287,57.68788150,11.98136783,10:58:48.222851,0.00326,1.60122,-0.08514,0.00090,0.05086,-0.02697,0.01770,0.05386,0.06259,1.24367,2.96871,4.72457,1.99202,1.99125,-1.99874,5.29371,2.89114,-1.10949,2.98373,1.92884,1.92884,A,105848.00
2.98260,57.68790227,11.98135287,57.68788150,11.98136783,10:58:48.233126,0.00296,1.75910,-0.08334,0.00214,0.05620,-0.02423,0.00075,0.11236,0.02202,1.23006,2.97912,4.72457,1.99202,1.99125,-1.99874,5.29371,2.89114,-1.10949,2.98373,1.92884,1.92884,A,105848.00
3.01049,57.68790227,11.98135287,57.68788267,11.98136683,10:58:48.261025,0.02045,1.75910,-0.08246,0.00330,0.05116,-0.02896,-0.00123,0.19069,-0.04398,1.13997,2.98972,4.72457,1.99202,1.99125,-1.99874,5.29371,3.00468,-1.16893,3.11346,2.00042,2.00042,A,105848.10
3.02926,57.68790547,11.98135007,57.68788267,11.98136683,10:58:48.279793,0.00825,1.75910,-0.08134,0.00701,0.04429,-0.04454,0.00274,-0.01208,-0.05655,0.70656,3.02275,4.13147,1.99189,1.99397,-2.16500,5.64934,3.00468,-1.16893,3.11346,2.00042,2.00042,A,105848.10
3.03457,57.68790547,11.98135007,57.68788267,11.98136683,10:58:48.285094,0.00316,1.75910,-0.08032,0.00803,0.05131,-0.04469,0.01312,-0.04410,-0.01305,0.73383,3.03108,4.13147,1.99189,1.99397,-2.16500,5.64934,3.00468,-1.16893,3.11346,2.00042,2.00042,A,105848.10
3.04509,57.68790547,11.98135007,57.68788267,11.98136683,10:58:48.295624,0.00330,1.75910,-0.07915,0.00899,0.06277,-0.05126,0.02641,-0.05289,-0.01921,0.89273,3.04160,4.13147,1.99189,1.99397,-2.16500,5.64934,3.00468,-1.16893,3.11346,2.00042,2.00042,A,105848.10
3.05501,57.68790547,11.98135007,57.68788267,11.98136683,10:58:48.305531,0.00298,1.75910,-0.07770,0.00964,0.06643,-0.03354,0.03099,0.02727,-0.00250,1.06469,3.05153,4.13147,1.99189,1.99397,-2.16500,5.64934,3.00468,-1.16893,3.11346,2.00042,2.00042,A,105848.10
3.06572,57.68790547,11.98135007,57.68788267,11.98136683,10:58:48.316240,0.00330,1.75910,-0.07639,0.01001,0.05620,-0.01018,0.03053,-0.03965,-0.00860,1.27331,3.06223,4.13147,1.99189,1.99397,-2.16500,5.64934,3.00468,-1.16893,3.11346,2.00042,2.00042,A,105848.10
3.07598,57.68790547,11.98135007,57.68788267,11.98136683,10:58:48.326512,0.00316,1.75910,-0.07546,0.01004,0.05529,0.00937,0.02519,0.06094,-0.03465,1.26703,3.07227,4.13147,1.99189,1.99397,-2.16500,5.64934,3.00468,-1.16893,3.11346,2.00042,2.00042,A,105848.10
3.08637,57.68790547,11.98135007,57.68788267,11.98136683,10:58:48.336895,0.00316,1.75910,-0.07483,0.01004,0.04139,0.00525,0.01740,0.16317,-0.04435,1.14009,3.08289,4.13147,1.99189,1.99397,-2.16500,5.64934,3.00468,-1.16893,3.11346,2.00042,2.00042,A,105848.10
3.09668,57.68790547,11.98135007,57.68788267,11.98136683,10:58:48.347206,0.00307,1.75910,-0.07271,0.01004,0.03726,-0.02423,0.01052,0.19941,0.06051,0.92604,3.09319,4.13147,1.99189,1.99397,-2.16500,5.64934,3.00468,-1.16893,3.11346,2.00042,2.00042,A,105848.10
3.13567,57.68790547,11.98135007,57.68788567,11.98136417,10:58:48.386220,0.03177,1.75910,-0.07289,0.01004,0.03772,-0.06470,0.00213,0.18227,-0.06545,0.76091,3.10338,4.13147,1.99189,1.99397,-2.16500,5.64934,3.12961,-1.32743,3.44704,2.01436,2.01436,A,105848.30
3.14941,57.68790823,11.98134762,57.68788567,11.98136417,10:58:48.399947,0.00738,1.75910,-0.07165,0.01004,0.04750,0.00632,0.00258,-0.00732,-0.09016,1.04005,3.14198,3.65700,1.99743,2.00041,-2.31078,5.95587,3.12961,-1.32743,3.44704,2.01436,2.01436,A,105848.30
3.15536,57.68790823,11.98134762,57.68788567,11.98136417,10:58:48.406114,0.00310,1.75910,-0.07215,0.01004,0.04276,0.01685,0.01114,0.16043,-0.11572,1.05579,3.15186,3.65700,1.99743,2.00041,-2.31078,5.95587,3.12961,-1.32743,3.44704,2.01436,2.01436,A,105848.30
3.16581,57.68790823,11.98134762,57.68788567,11.98136417,10:58:48.416334,0.00315,1.75910,-0.07024,0.01004,0.02871,0.00403,0.02076,0.18166,0.06362,1.08208,3.16232,3.65700,1.99743,2.00041,-2.31078,5.95587,3.12961,-1.32743,3.44704,2.01436,2.01436,A,105848.30
3.17621,57.68790823,11.98134762,57.68788567,11.98136417,10:58:48.426734,0.00316,1.75910,-0.06831,0.01004,0.03864,-0.01781,0.02122,-0.03727,0.06326,1.13869,3.17271,3.65700,1.99743,2.00041,-2.31078,5.95587,3.12961,-1.32743,3.44704,2.01436,2.01436,A,105848.30
3.18660,57.68790823,11.98134762,57.68788567,11.98136417,10:58:48.437128,0.00298,1.75910,-0.06618,0.01004,0.04490,-0.01781,0.02091,-0.01787,0.07564,1.13503,3.18312,3.65700,1.99743,2.00041,-2.31078,5.95587,3.12961,-1.32743,3.44704,2.01436,2.01436,A,105848.30
3.19719,57.68790823,11.98134762,57.68788567,11.98136417,10:58:48.447711,0.00317,1.75910,-0.06461,0.01004,0.04215,-0.01888,0.00900,0.07771,0.03520,1.08122,3.19370,3.65700,1.99743,2.00041,-2.31078,5.95587,3.12961,-1.32743,3.44704,2.01436,2.01436,A,105848.30
3.20723,57.68790823,11.98134762,57.68788567,11.98136417,10:58:48.457964,0.00299,1.75910,-0.06429,0.01004,0.03818,-0.04225,0.00594,0.04563,-0.04343,0.98277,3.20374,3.65700,1.99743,2.00041,-2.31078,5.95587,3.12961,-1.32743,3.44704,2.01436,2.01436,A,105848.30
3.21780,57.68790823,11.98134762,57.68788567,11.98136417,10:58:48.468316,0.00314,1.75910,-0.06457,0.01004,0.03146,-0.05507,-0.00459,0.06515,-0.07662,0.94416,3.21431,3.65700,1.99743,2.00041,-2.31078,5.95587,3.12961,-1.32743,3.44704,2.01436,2.01436,A,105848.30
3.22827,57.68790823,11.98134762,57.68788567,11.98136417,10:58:48.478804,0.00323,1.75910,-0.06449,0.01004,0.03329,-0.04759,-0.00215,-0.05289,-0.05545,0.94989,3.22476,3.65700,1.99743,2.00041,-2.31078,5.95587,3.12961,-1.32743,3.44704,2.01436,2.01436,A,105848.30
3.25484,57.68790823,11.98134762,57.68788700,11.98136300,10:58:48.505379,0.01922,1.75910,-0.06422,0.01004,0.02764,-0.01827,-0.00215,-0.14975,-0.03782,0.90963,3.23510,3.65700,1.99743,2.00041,-2.31078,5.95587,3.25019,-1.39677,3.59530,2.00828,2.00828,A,105848.40
3.26819,57.68791048,11.98134555,57.68788700,11.98136300,10:58:48.518715,0.00589,1.75910,-0.06269,0.01004,0.01497,-0.02239,0.01434,0.10516,0.03141,0.88615,3.26242,3.27742,2.00194,2.00492,-2.43395,6.20645,3.25019,-1.39677,3.59530,2.00828,2.00828,A,105848.40
3.27584,57.68791048,11.98134555,57.68788700,11.98136300,10:58:48.526380,0.00332,1.75910,-0.06128,0.01004,0.02108,-0.05477,0.01984,0.06088,0.03867,0.92421,3.27213,3.27742,2.00194,2.00492,-2.43395,6.20645,3.25019,-1.39677,3.59530,2.00828,2.00828,A,105848.40
3.28611,57.68791048,11.98134555,57.68788700,11.98136300,10:58:48.536634,0.00319,1.75910,-0.05939,0.01004,0.02230,-0.06500,0.01205,0.01061,0.07314,1.00443,3.28262,3.27742,2.00194,2.00492,-2.43395,6.20645,3.25019,-1.39677,3.59530,2.00828,2.00828,A,105848.40
3.29648,57.68791048,11.98134555,57.68788700,11.98136300,10:58:48.547003,0.00316,1.75910,-0.05943,0.01004,0.02215,-0.07111,0.01114,0.11291,-0.04874,0.92232,3.29298,3.27742,2.00194,2.00492,-2.43395,6.20645,3.25019,-1.39677,3.59530,2.00828,2.00828,A,105848.40
3.30684,57.68791048,11.98134555,57.68788700,11.98136300,10:58:48.557357,0.00298,1.75910,-0.05944,0.01004,0.00015,-0.08455,-0.00307,-0.05283,-0.03440,0.94788,3.30335,3.27742,2.00194,2.00492,-2.43395,6.20645,3.25019,-1.39677,3.59530,2.00828,2.00828,A,105848.40
3.31742,57.68791048,11.98134555,57.68788700,11.98136300,10:58:48.567941,0.00317,2.19118,-0.05990,0.01004,-0.00534,-0.07554,-0.01101,-0.00287,-0.06588,1.07390,3.31393,3.27742,2.00194,2.00492,-2.43395,6.20645,3.25019,-1.39677,3.59530,2.00828,2.00828,A,105848.40
3.32782,57.68791048,11.98134555,57.68788700,11.98136300,10:58:48.578352,0.00318,2.19118,-0.05934,0.01004,-0.02046,-0.04729,-0.02429,-0.28396,0.01812,1.14247,3.32412,3.27742,2.00194,2.00492,-2.43395,6.20645,3.25019,-1.39677,3.59530,2.00828,2.00828,A,105848.40
3.33822,57.68791048,11.98134555,57.68788700,11.98136300,10:58:48.588746,0.00317,2.19118,-0.05828,0.01004,-0.01145,0.00372,-0.02720,-0.19203,0.05270,1.20914,3.33473,3.27742,2.00194,2.00492,-2.43395,6.20645,3.25019,-1.39677,3.59530,2.00828,2.00828,A,105848.40
3.34859,57.68791048,11.98134555,57.68788700,11.98136300,10:58:48.599118,0.00315,2.19118,-0.05801,0.00987,-0.01328,0.03946,-0.02964,0.09839,-0.00701,1.06732,3.34509,3.27742,2.00194,2.00492,-2.43395,6.20645,3.25019,-1.39677,3.59530,2.00828,2.00828,A,105848.40
3.38166,57.68791048,11.98134555,57.68788817,11.98136183,10:58:48.632201,0.02571,18.29305,-0.06247,0.00908,-0.02428,0.00983,-0.02720,0.14975,0.00903,0.95807,3.35974,3.27742,2.00194,2.00492,-2.43395,6.20645,3.37602,-1.46612,3.72503,2.06169,2.06169,A,105848.50
3.40307,57.68791275,11.98134343,57.68788817,11.98136183,10:58:48.653608,0.00901,18.29305,-0.06542,0.00435,-0.00290,-0.02774,-0.02078,-0.01787,-0.10260,0.98472,3.39613,6.28055,2.01410,2.01539,-2.55975,6.45809,3.37602,-1.46612,3.72503,2.06169,2.06169,A,105848.50
3.41331,57.68791275,11.98134343,57.68788817,11.98136183,10:58:48.663892,0.00852,18.29305,-0.06659,0.00282,-0.01054,0.00876,-0.01681,-0.09168,-0.03715,1.05103,3.40840,6.28055,2.01410,2.01539,-2.55975,6.45809,3.37602,-1.46612,3.72503,2.06169,2.06169,A,105848.50
3.42168,57.68791275,11.98134343,57.68788817,11.98136183,10:58:48.672250,0.00731,18.29305,-0.06791,0.00189,-0.00672,0.02251,-0.02567,0.02251,-0.08418,1.07128,3.41753,6.28055,2.01410,2.01539,-2.55975,6.45809,3.37602,-1.46612,3.72503,2.06169,2.06169,A,105848.50
3.43200,57.68791275,11.98134343,57.68788817,11.98136183,10:58:48.682550,0.00724,18.29305,-0.06855,0.00127,-0.02199,0.01808,-0.02353,0.06246,-0.04014,1.04584,3.42823,6.28055,2.01410,2.01539,-2.55975,6.45809,3.37602,-1.46612,3.72503,2.06169,2.06169,A,105848.50
3.44278,57.68791275,11.98134343,57.68788817,11.98136183,10:58:48.693320,0.00762,18.29305,-0.06835,0.00084,-0.02153,0.00922,-0.02628,-0.13926,0.00384,1.11044,3.43925,6.28055,2.01410,2.01539,-2.55975,6.45809,3.37602,-1.46612,3.72503,2.06169,2.06169,A,105848.50
3.45176,57.68791275,11.98134343,57.68788817,11.98136183,10:58:48.702324,0.00620,18.29305,-0.06742,0.00076,-0.01939,0.01548,-0.03315,-0.07412,0.05045,1.10465,3.44799,6.28055,2.01410,2.01539,-2.55975,6.45809,3.37602,-1.46612,3.72503,2.06169,2.06169,A,105848.50
3.46215,57.68791275,11.98134343,57.68788817,11.98136183,10:58:48.712692,0.00592,18.29305,-0.06607,0.00076,0.00290,0.02312,-0.03346,-0.04355,0.06478,1.02090,3.45864,6.28055,2.01410,2.01539,-2.55975,6.45809,3.37602,-1.46612,3.72503,2.06169,2.06169,A,105848.50
3.47337,57.68791275,11.98134343,57.68788817,11.98136183,10:58:48.724257,0.00674,18.29305,-0.06596,0.00076,0.00229,0.02816,-0.03376,0.15518,-0.01311,0.89194,3.46979,6.28055,2.01410,2.01539,-2.55975,6.45809,3.37602,-1.46612,3.72503,2.06169,2.06169,A,105848.50
3.50039,57.68791275,11.98134343,57.68788967,11.98136017,10:58:48.750933,0.02337,18.29305,-0.06730,0.00076,0.00183,-0.02087,-0.02506,0.04307,-0.08754,0.80538,3.48112,6.28055,2.01410,2.01539,-2.55975,6.45809,3.49600,-1.56518,3.89182,2.10674,2.10674,A,105848.60
3.51756,57.68791700,11.98133945,57.68788967,11.98136017,10:58:48.768133,0.00923,18.29305,-0.06642,0.00062,-0.00275,0.01288,-0.02338,-0.12712,0.03623,1.03072,3.51099,8.68305,2.03034,2.03052,-2.79638,6.93085,3.49600,-1.56518,3.89182,2.10674,2.10674,A,105848.60
3.52525,57.68791700,11.98133945,57.68788967,11.98136017,10:58:48.775777,0.00665,18.29305,-0.06628,0.00036,-0.00336,0.04037,-0.03315,0.04941,-0.02489,1.06256,3.52174,8.68305,2.03034,2.03052,-2.79638,6.93085,3.49600,-1.56518,3.89182,2.10674,2.10674,A,105848.60
3.53424,57.68791700,11.98133945,57.68788967,11.98136017,10:58:48.785551,0.00524,18.29305,-0.06611,0.00005,-0.01557,0.03854,-0.03422,0.18892,-0.02507,1.05518,3.53073,8.68305,2.03034,2.03052,-2.79638,6.93085,3.49600,-1.56518,3.89182,2.10674,2.10674,A,105848.60
3.54637,57.68791700,11.98133945,57.68788967,11.98136017,10:58:48.796897,0.00697,18.29305,-0.06520,-0.00043,-0.01939,0.00464,-0.03773,0.09614,0.02074,1.07250,3.54286,8.68305,2.03034,2.03052,-2.79638,6.93085,3.49600,-1.56518,3.89182,2.10674,2.10674,A,105848.60
3.55677,57.68791700,11.98133945,57.68788967,11.98136017,10:58:48.807715,0.00704,18.29305,-0.06376,-0.00086,-0.01130,-0.01094,-0.04109,0.02245,0.04233,1.12100,3.55325,8.68305,2.03034,2.03052,-2.79638,6.93085,3.49600,-1.56518,3.89182,2.10674,2.10674,A,105848.60
3.56524,57.68791700,11.98133945,57.68788967,11.98136017,10:58:48.816607,0.00527,18.29305,-0.06196,-0.00117,-0.00672,-0.00666,-0.03926,-0.04770,0.05508,1.10197,3.56174,8.68305,2.03034,2.03052,-2.79638,6.93085,3.49600,-1.56518,3.89182,2.10674,2.10674,A,105848.60
3.57751,57.68791700,11.98133945,57.68788967,11.98136017,10:58:48.828037,0.00713,18.29305,-0.06140,-0.00148,-0.00382,-0.00895,-0.04002,0.07314,-0.04343,0.96697,3.57400,8.68305,2.03034,2.03052,-2.79638,6.93085,3.49600,-1.56518,3.89182,2.10674,2.10674,A,105848.60
3.58829,57.68791700,11.98133945,57.68788967,11.98136017,10:58:48.838829,0.00752,18.29305,-0.06074,-0.00165,-0.01328,-0.02117,-0.04002,0.13652,-0.03733,0.84381,3.58475,8.68305,2.03034,2.03052,-2.79638,6.93085,3.49600,-1.56518,3.89182,2.10674,2.10674,A,105848.60
3.62863,57.68791700,11.98133945,57.68789333,11.98135700,10:58:48.879172,0.03747,18.29305,-0.06072,-0.00176,-0.01542,-0.05202,-0.03178,0.02239,-0.07655,0.90268,3.59530,8.68305,2.03034,2.03052,-2.79638,6.93085,3.62298,-1.75340,4.29954,2.00329,2.00329,A,105848.80
3.64585,57.68792424,11.98133252,57.68789333,11.98135700,10:58:48.896394,0.00683,18.29305,-0.05993,-0.00179,-0.01145,0.02495,-0.02720,0.13981,-0.00549,0.99674,3.63987,10.60505,2.02689,2.02636,-3.20820,7.73639,3.62298,-1.75340,4.29954,2.00329,2.00329,A,105848.80
3.65407,57.68792424,11.98133252,57.68789333,11.98135700,10:58:48.904599,0.00465,18.29305,-0.05800,-0.00179,-0.02123,-0.01292,-0.02506,-0.04032,0.05606,1.02815,3.65057,10.60505,2.02689,2.02636,-3.20820,7.73639,3.62298,-1.75340,4.29954,2.00329,2.00329,A,105848.80
3.66450,57.68792424,11.98133252,57.68789333,11.98135700,10:58:48.915036,0.00463,18.29305,-0.05574,-0.00179,-0.00901,-0.01430,-0.02918,0.01318,0.07601,1.06280,3.66097,10.60505,2.02689,2.02636,-3.20820,7.73639,3.62298,-1.75340,4.29954,2.00329,2.00329,A,105848.80
3.67505,57.68792424,11.98133252,57.68789333,11.98135700,10:58:48.925580,0.00473,18.29305,-0.05520,-0.00179,0.00077,-0.00208,-0.02903,-0.15714,-0.05130,1.06841,3.67156,10.60505,2.02689,2.02636,-3.20820,7.73639,3.62298,-1.75340,4.29954,2.00329,2.00329,A,105848.80
3.68400,57.68792424,11.98133252,57.68789333,11.98135700,10:58:48.934522,0.00314,2.23297,-0.05460,-0.00179,-0.00137,0.01792,-0.03651,0.00714,0.00579,1.05219,3.68028,10.60505,2.02689,2.02636,-3.20820,7.73639,3.62298,-1.75340,4.29954,2.00329,2.00329,A,105848.80
3.69440,57.68792424,11.98133252,57.68789333,11.98135700,10:58:48.944932,0.00316,2.23297,-0.05528,-0.00179,-0.01069,0.02846,-0.03621,0.04166,-0.07503,1.04182,3.69092,10.60505,2.02689,2.02636,-3.20820,7.73639,3.62298,-1.75340,4.29954,2.00329,2.00329,A,105848.80
3.70470,57.68792424,11.98133252,57.68789333,11.98135700,10:58:48.955228,0.00305,2.23297,-0.05521,-0.00179,-0.01390,0.03090,-0.03697,0.06338,-0.02043,0.96654,3.70120,10.60505,2.02689,2.02636,-3.20820,7.73639,3.62298,-1.75340,4.29954,2.00329,2.00329,A,105848.80
3.71504,57.68792424,11.98133252,57.68789333,11.98135700,10:58:48.965571,0.00315,2.23297,-0.05488,-0.00179,-0.01573,0.03106,-0.03040,0.07857,-0.00250,0.94715,3.71156,10.60505,2.02689,2.02636,-3.20820,7.73639,3.62298,-1.75340,4.29954,2.00329,2.00329,A,105848.80
3.74073,57.68792424,11.98133252,57.68789483,11.98135550,10:58:48.991272,0.01844,2.23297,-0.05505,-0.00179,-0.01481,0.03045,-0.03071,-0.12603,-0.03306,0.93422,3.72194,10.60505,2.02689,2.02636,-3.20820,7.73639,3.73684,-1.84255,4.46633,2.06169,2.06169,A,105848.90
3.75208,57.68793125,11.98132590,57.68789483,11.98135550,10:58:49.002622,0.00551,2.23297,-0.05484,-0.00179,-0.00886,0.02220,-0.02735,0.17867,-0.00701,1.03480,3.74636,8.93063,2.03065,2.03012,-3.60167,8.51538,3.73684,-1.84255,4.46633,2.06169,2.06169,A,105848.90
3.76014,57.68793125,11.98132590,57.68789483,11.98135550,10:58:49.010661,0.00317,2.23297,-0.05380,-0.00179,-0.00488,0.00815,-0.01895,0.02208,0.04233,1.10398,3.75663,8.93063,2.03065,2.03012,-3.60167,8.51538,3.73684,-1.84255,4.46633,2.06169,2.06169,A,105848.90
3.77054,57.68793125,11.98132590,57.68789483,11.98135550,10:58:49.021064,0.00317,2.23297,-0.05275,-0.00179,0.00046,0.01365,-0.02261,0.01238,0.04233,1.17901,3.76705,8.93063,2.03065,2.03012,-3.60167,8.51538,3.73684,-1.84255,4.46633,2.06169,2.06169,A,105848.90
3.78093,57.68793125,11.98132590,57.68789483,11.98135550,10:58:49.031461,0.00317,2.23297,-0.05332,-0.00179,0.01100,0.02816,-0.01834,0.01519,-0.08497,1.08684,3.77745,8.93063,2.03065,2.03012,-3.60167,8.51538,3.73684,-1.84255,4.46633,2.06169,2.06169,A,105848.90
3.79098,57.68793125,11.98132590,57.68789483,11.98135550,10:58:49.041505,0.00298,2.23297,-0.05305,-0.00179,-0.00397,0.03075,-0.02155,-0.08095,-0.01226,1.00443,3.78749,8.93063,2.03065,2.03012,-3.60167,8.51538,3.73684,-1.84255,4.46633,2.06169,2.06169,A,105848.90
3.80153,57.68793125,11.98132590,57.68789483,11.98135550,10:58:49.052053,0.00314,2.23297,-0.05294,-0.00179,-0.01069,0.04098,-0.02246,0.09790,-0.01543,0.86321,3.79806,8.93063,2.03065,2.03012,-3.60167,8.51538,3.73684,-1.84255,4.46633,2.06169,2.06169,A,105848.90
3.81194,57.68793125,11.98132590,57.68789483,11.98135550,10:58:49.062468,0.00315,2.23297,-0.05258,-0.00179,-0.00611,0.01014,-0.01574,0.05575,-0.00403,0.77604,3.80824,8.93063,2.03065,2.03012,-3.60167,8.51538,3.73684,-1.84255,4.46633,2.06169,2.06169,A,105848.90
3.82233,57.68793125,11.98132590,57.68789483,11.98135550,10:58:49.072863,0.00314,2.23297,-0.05140,-0.00179,0.00107,-0.01674,-0.02124,0.06924,0.03508,0.77452,3.81885,8.93063,2.03065,2.03012,-3.60167,8.51538,3.73684,-1.84255,4.46633,2.06169,2.06169,A,105848.90
3.83269,57.68793125,11.98132590,57.68789483,11.98135550,10:58:49.083214,0.00310,2.23297,-0.05069,-0.00179,0.00718,-0.02468,-0.01742,-0.01732,0.01086,0.93946,3.82919,8.93063,2.03065,2.03012,-3.60167,8.51538,3.73684,-1.84255,4.46633,2.06169,2.06169,A,105848.90
3.85896,57.68793125,11.98132590,57.68789667,11.98135400,10:58:49.109495,0.01906,2.23297,-0.05127,-0.00179,0.01329,-0.01292,-0.01864,-0.10321,-0.08192,1.04896,3.83938,8.93063,2.03065,2.03012,-3.60167,8.51538,3.85454,-1.93171,4.67019,1.98308,1.98308,A,105849.00
3.87006,57.68793748,11.98131994,57.68789667,11.98135400,10:58:49.120586,0.00531,2.23297,-0.05183,-0.00179,-0.00336,0.02724,-0.01559,0.11389,-0.06460,1.02126,3.86431,7.59110,2.02215,2.02162,-3.95605,9.20843,3.85454,-1.93171,4.67019,1.98308,1.98308,A,105849.00
3.87908,57.68793748,11.98131994,57.68789667,11.98135400,10:58:49.129614,0.00394,2.23297,-0.05218,-0.00179,-0.00992,-0.00239,-0.01681,0.06942,-0.04520,0.95502,3.87556,7.59110,2.02215,2.02162,-3.95605,9.20843,3.85454,-1.93171,4.67019,1.98308,1.98308,A,105849.00
3.88914,57.68793748,11.98131994,57.68789667,11.98135400,10:58:49.139664,0.00324,2.23297,-0.05138,-0.00179,-0.01680,-0.02392,-0.01483,0.04075,0.03245,0.99015,3.88565,7.59110,2.02215,2.02162,-3.95605,9.20843,3.85454,-1.93171,4.67019,1.98308,1.98308,A,105849.00
3.89912,57.68793748,11.98131994,57.68789667,11.98135400,10:58:49.149646,0.00299,2.23297,-0.05144,-0.00179,-0.01115,-0.04286,-0.02063,-0.04721,-0.02806,0.99424,3.89563,7.59110,2.02215,2.02162,-3.95605,9.20843,3.85454,-1.93171,4.67019,1.98308,1.98308,A,105849.00
3.90967,57.68793748,11.98131994,57.68789667,11.98135400,10:58:49.160190,0.00315,2.23297,-0.05074,-0.00179,-0.01756,-0.02835,-0.02827,0.03050,0.02916,1.03907,3.90619,7.59110,2.02215,2.02162,-3.95605,9.20843,3.85454,-1.93171,4.67019,1.98308,1.98308,A,105849.00
3.92011,57.68793748,11.98131994,57.68789667,11.98135400,10:58:49.170646,0.00319,2.23297,-0.05067,-0.00179,-0.01588,-0.02728,-0.03056,0.09992,-0.01555,0.99015,3.91660,7.59110,2.02215,2.02162,-3.95605,9.20843,3.85454,-1.93171,4.67019,1.98308,1.98308,A,105849.00
3.93062,57.68793748,11.98131994,57.68789667,11.98135400,10:58:49.181146,0.00330,2.23297,-0.05026,-0.00179,-0.02520,-0.03965,-0.03758,0.03251,0.01537,1.02773,3.92713,7.59110,2.02215,2.02162,-3.95605,9.20843,3.85454,-1.93171,4.67019,1.98308,1.98308,A,105849.00
3.94088,57.68793748,11.98131994,57.68789667,11.98135400,10:58:49.191407,0.00315,2.23297,-0.05068,-0.00179,-0.01664,-0.03705,-0.03560,-0.08583,-0.04703,1.00424,3.93739,7.59110,2.02215,2.02162,-3.95605,9.20843,3.85454,-1.93171,4.67019,1.98308,1.98308,A,105849.00
3.95093,57.68793748,11.98131994,57.68789667,11.98135400,10:58:49.201456,0.00297,2.23297,-0.05057,-0.00179,-0.02459,-0.01109,-0.03483,-0.07625,-0.00775,1.03956,3.94744,7.59110,2.02215,2.02162,-3.95605,9.20843,3.85454,-1.93171,4.67019,1.98308,1.98308,A,105849.00
3.97784,57.68793748,11.98131994,57.68789850,11.98135217,10:58:49.228379,0.01948,2.23297,-0.05196,-0.00179,-0.01328,0.00815,-0.02994,-0.13091,-0.10943,0.96191,3.95803,7.59110,2.02215,2.02162,-3.95605,9.20843,3.97311,-2.04068,4.87404,2.06169,2.06169,A,105849.10
3.99212,57.68794246,11.98131527,57.68789850,11.98135217,10:58:49.243316,0.00673,2.23297,-0.05222,-0.00179,-0.02352,-0.02117,-0.01422,0.02483,-0.00695,0.95166,3.98518,6.51947,2.02691,2.02638,-4.23350,9.76271,3.97311,-2.04068,4.87404,2.06169,2.06169,A,105849.10
3.99984,57.68794246,11.98131527,57.68789850,11.98135217,10:58:49.250377,0.00390,2.23297,-0.05142,-0.00179,-0.02214,-0.02530,-0.01467,-0.15207,0.03855,1.02645,3.99614,6.51947,2.02691,2.02638,-4.23350,9.76271,3.97311,-2.04068,4.87404,2.06169,2.06169,A,105849.10
4.00950,57.68794246,11.98131527,57.68789850,11.98135217,10:58:49.260028,0.00317,2.28090,-0.05125,-0.00179,-0.02275,-0.01842,-0.03040,0.01879,-0.00586,1.06091,4.00601,6.51947,2.02691,2.02638,-4.23350,9.76271,3.97311,-2.04068,4.87404,2.06169,2.06169,A,105849.10
4.02002,57.68794246,11.98131527,57.68789850,11.98135217,10:58:49.270550,0.00329,2.28090,-0.05157,-0.00179,-0.01619,-0.00712,-0.03117,-0.03569,-0.04246,1.02834,4.01631,6.51947,2.02691,2.02638,-4.23350,9.76271,3.97311,-2.04068,4.87404,2.06169,2.06169,A,105849.10
4.03028,57.68794246,11.98131527,57.68789850,11.98135217,10:58:49.280809,0.00315,2.28090,-0.05165,-0.00179,-0.03558,-0.00758,-0.03987,0.07704,-0.01208,1.00119,4.02679,6.51947,2.02691,2.02638,-4.23350,9.76271,3.97311,-2.04068,4.87404,2.06169,2.06169,A,105849.10
4.04069,57.68794246,11.98131527,57.68789850,11.98135217,10:58:49.291214,0.00316,2.28090,-0.05209,-0.00179,-0.03054,-0.01796,-0.04323,-0.06368,-0.03947,0.98100,4.03719,6.51947,2.02691,2.02638,-4.23350,9.76271,3.97311,-2.04068,4.87404,2.06169,2.06169,A,105849.10
4.05086,57.68794246,11.98131527,57.68789850,11.98135217,10:58:49.301376,0.00296,2.28090,-0.05220,-0.00179,-0.02627,-0.01796,-0.04216,-0.07265,-0.02062,0.96898,4.04738,6.51947,2.02691,2.02638,-4.23350,9.76271,3.97311,-2.04068,4.87404,2.06169,2.06169,A,105849.10
4.06144,57.68794246,11.98131527,57.68789850,11.98135217,10:58:49.311969,0.00315,2.28090,-0.05231,-0.00179,-0.02642,-0.00559,-0.03926,-0.07088,-0.02123,1.00424,4.05796,6.51947,2.02691,2.02638,-4.23350,9.76271,3.97311,-2.04068,4.87404,2.06169,2.06169,A,105849.10
4.07185,57.68794246,11.98131527,57.68789850,11.98135217,10:58:49.322378,0.00316,2.28090,-0.05235,-0.00179,-0.01893,0.00112,-0.03346,-0.04154,-0.02227,1.00705,4.06815,6.51947,2.02691,2.02638,-4.23350,9.76271,3.97311,-2.04068,4.87404,2.06169,2.06169,A,105849.10
4.09910,57.68794246,11.98131527,57.68790017,11.98135117,10:58:49.350203,0.02002,2.28090,-0.05217,-0.00179,-0.01985,0.01014,-0.03361,0.08308,-0.00604,0.97710,4.07875,6.51947,2.02691,2.02638,-4.23350,9.76271,4.09364,-2.10011,5.05937,1.88115,1.88115,A,105849.20
4.11630,57.68794645,11.98131147,57.68790017,11.98135117,10:58:49.366827,0.00700,2.28090,-0.05217,-0.00179,-0.03589,-0.00101,-0.03132,-0.10004,0.04343,1.04584,4.10990,5.67176,2.00402,2.00349,-4.45930,10.20611,4.09364,-2.10011,5.05937,1.88115,1.88115,A,105849.20
4.12281,57.68794645,11.98131147,57.68790017,11.98135117,10:58:49.373332,0.00297,2.28090,-0.05252,-0.00179,-0.02901,0.00784,-0.03193,0.07924,-0.03721,0.97996,4.11932,5.67176,2.00402,2.00349,-4.45930,10.20611,4.09364,-2.10011,5.05937,1.88115,1.88115,A,105849.20
4.13337,57.68794645,11.98131147,57.68790017,11.98135117,10:58:49.383904,0.00315,2.28090,-0.05357,-0.00179,-0.02489,-0.00330,-0.03147,0.00098,-0.08168,0.95825,4.12988,5.67176,2.00402,2.00349,-4.45930,10.20611,4.09364,-2.10011,5.05937,1.88115,1.88115,A,105849.20
4.14379,57.68794645,11.98131147,57.68790017,11.98135117,10:58:49.394319,0.00317,2.28090,-0.05319,-0.00179,-0.02352,-0.00972,-0.03483,-0.03666,0.00750,0.96069,4.14008,5.67176,2.00402,2.00349,-4.45930,10.20611,4.09364,-2.10011,5.05937,1.88115,1.88115,A,105849.20
4.15419,57.68794645,11.98131147,57.68790017,11.98135117,10:58:49.404707,0.00317,2.28090,-0.05392,-0.00179,-0.01344,-0.00010,-0.04354,-0.08997,-0.07253,1.00821,4.15070,5.67176,2.00402,2.00349,-4.45930,10.20611,4.09364,-2.10011,5.05937,1.88115,1.88115,A,105849.20
4.16458,57.68794645,11.98131147,57.68790017,11.98135117,10:58:49.415102,0.00315,2.28090,-0.05361,-0.00179,-0.00534,0.01594,-0.03789,0.07869,-0.00982,1.00735,4.16108,5.67176,2.00402,2.00349,-4.45930,10.20611,4.09364,-2.10011,5.05937,1.88115,1.88115,A,105849.20
4.17486,57.68794645,11.98131147,57.68790017,11.98135117,10:58:49.425381,0.00298,2.28090,-0.05445,-0.00179,-0.01222,0.00739,-0.03804,0.03983,-0.08192,1.00674,4.17137,5.67176,2.00402,2.00349,-4.45930,10.20611,4.09364,-2.10011,5.05937,1.88115,1.88115,A,105849.20
4.18549,57.68794645,11.98131147,57.68790017,11.98135117,10:58:49.436012,0.00321,2.28090,-0.05444,-0.00179,-0.01542,-0.02178,-0.03361,0.13975,-0.02202,0.97240,4.18199,5.67176,2.00402,2.00349,-4.45930,10.20611,4.09364,-2.10011,5.05937,1.88115,1.88115,A,105849.20
4.21308,57.68794645,11.98131147,57.68790183,11.98134933,10:58:49.463623,0.02041,2.28090,-0.05408,-0.00179,-0.01619,-0.04698,-0.03010,0.03324,0.00030,0.98308,4.19214,5.67176,2.00402,2.00349,-4.45930,10.20611,4.20713,-2.20908,5.24469,2.10233,2.10233,A,105849.30
4.22933,57.68794900,11.98130924,57.68790183,11.98134933,10:58:49.479900,0.00796,2.28090,-0.05428,-0.00179,0.01619,0.00265,-0.01880,-0.00964,-0.08229,1.05987,4.22118,4.99359,2.01799,2.01746,-4.59206,10.48907,4.20713,-2.20908,5.24469,2.10233,2.10233,A,105849.30
4.23486,57.68794900,11.98130924,57.68790183,11.98134933,10:58:49.485384,0.00298,2.28090,-0.05573,-0.00179,0.00214,0.01701,-0.02827,-0.09321,-0.13389,1.00650,4.23136,4.99359,2.01799,2.01746,-4.59206,10.48907,4.20713,-2.20908,5.24469,2.10233,2.10233,A,105849.30
4.24541,57.68794900,11.98130924,57.68790183,11.98134933,10:58:49.495938,0.00314,2.28090,-0.05489,-0.00179,-0.01222,0.01517,-0.02888,0.16025,0.02696,0.92848,4.24194,4.99359,2.01799,2.01746,-4.59206,10.48907,4.20713,-2.20908,5.24469,2.10233,2.10233,A,105849.30
4.25584,57.68794900,11.98130924,57.68790183,11.98134933,10:58:49.506380,0.00316,2.28090,-0.05422,-0.00179,-0.01359,-0.02071,-0.03208,0.01580,0.01616,0.85485,4.25214,4.99359,2.01799,2.01746,-4.59206,10.48907,4.20713,-2.20908,5.24469,2.10233,2.10233,A,105849.30
4.26639,57.68794900,11.98130924,57.68790183,11.98134933,10:58:49.516917,0.00332,2.28090,-0.05293,-0.00179,-0.00336,-0.04362,-0.03376,-0.10455,0.04886,0.89810,4.26290,4.99359,2.01799,2.01746,-4.59206,10.48907,4.20713,-2.20908,5.24469,2.10233,2.10233,A,105849.30
4.27662,57.68794900,11.98130924,57.68790183,11.98134933,10:58:49.527139,0.00314,2.28090,-0.05253,-0.00179,0.00382,-0.03079,-0.02704,-0.17629,-0.00885,0.99064,4.27312,4.99359,2.01799,2.01746,-4.59206,10.48907,4.20713,-2.20908,5.24469,2.10233,2.10233,A,105849.30
4.28736,57.68794900,11.98130924,57.68790183,11.98134933,10:58:49.538098,0.00348,2.28090,-0.05235,-0.00179,0.01650,0.00448,-0.03590,-0.14780,-0.03440,1.08702,4.28387,4.99359,2.01799,2.01746,-4.59206,10.48907,4.20713,-2.20908,5.24469,2.10233,2.10233,A,105849.30
4.29743,57.68794900,11.98130924,57.68790183,11.98134933,10:58:49.547958,0.00315,2.58665,-0.05250,-0.00179,0.00947,0.02648,-0.03880,0.17184,-0.05228,1.07110,4.29394,4.99359,2.01799,2.01746,-4.59206,10.48907,4.20713,-2.20908,5.24469,2.10233,2.10233,A,105849.30
4.33564,57.68794900,11.98130924,57.68790533,11.98134600,10:58:49.586209,0.03075,2.58665,-0.05275,-0.00179,-0.00214,0.01853,-0.03743,0.02318,-0.05155,1.07903,4.30427,4.99359,2.01799,2.01746,-4.59206,10.48907,4.33070,-2.40721,5.63388,2.04168,2.04168,A,105849.50
4.35425,57.68795152,11.98130686,57.68790533,11.98134600,10:58:49.604791,0.01114,21.05707,-0.05188,-0.00179,0.00031,-0.01598,-0.03117,0.10492,-0.05691,0.87639,4.34732,8.20628,2.02078,2.02024,-4.73337,10.76943,4.33070,-2.40721,5.63388,2.04168,2.04168,A,105849.50
4.36696,57.68795152,11.98130686,57.68790533,11.98134600,10:58:49.617505,0.00555,21.05707,-0.05108,-0.00179,-0.00030,-0.04408,-0.02750,-0.07052,-0.04648,0.99595,4.36307,8.20628,2.02078,2.02024,-4.73337,10.76943,4.33070,-2.40721,5.63388,2.04168,2.04168,A,105849.50
4.37809,57.68795152,11.98130686,57.68790533,11.98134600,10:58:49.628997,0.00622,21.05707,-0.04945,-0.00179,-0.00259,-0.01705,-0.03437,-0.11023,0.02653,1.19188,4.37454,8.20628,2.02078,2.02024,-4.73337,10.76943,4.33070,-2.40721,5.63388,2.04168,2.04168,A,105849.50
4.38842,57.68795152,11.98130686,57.68790533,11.98134600,10:58:49.638985,0.00614,21.05707,-0.04939,-0.00179,0.00519,0.01609,-0.03636,-0.09046,-0.10199,1.19285,4.38396,8.20628,2.02078,2.02024,-4.73337,10.76943,4.33070,-2.40721,5.63388,2.04168,2.04168,A,105849.50
4.39915,57.68795152,11.98130686,57.68790533,11.98134600,10:58:49.649919,0.00647,21.05707,-0.04892,-0.00179,0.00092,0.03625,-0.03865,-0.02556,-0.06686,1.03230,4.39559,8.20628,2.02078,2.02024,-4.73337,10.76943,4.33070,-2.40721,5.63388,2.04168,2.04168,A,105849.50
4.41116,57.68795152,11.98130686,57.68790533,11.98134600,10:58:49.661918,0.00809,21.05707,-0.04760,-0.00179,-0.00168,0.03564,-0.03773,0.08784,-0.01708,0.85388,4.40761,8.20628,2.02078,2.02024,-4.73337,10.76943,4.33070,-2.40721,5.63388,2.04168,2.04168,A,105849.50
4.41987,57.68795152,11.98130686,57.68790533,11.98134600,10:58:49.670803,0.00640,21.05707,-0.04544,-0.00179,-0.01069,0.01304,-0.02964,-0.16507,0.03392,0.82661,4.41614,8.20628,2.02078,2.02024,-4.73337,10.76943,4.33070,-2.40721,5.63388,2.04168,2.04168,A,105849.50
4.43070,57.68795152,11.98130686,57.68790533,11.98134600,10:58:49.681232,0.00636,21.05707,-0.04394,-0.00179,-0.00046,0.02632,-0.03422,0.01696,-0.00671,0.81935,4.42684,8.20628,2.02078,2.02024,-4.73337,10.76943,4.33070,-2.40721,5.63388,2.04168,2.04168,A,105849.50
4.45642,57.68795152,11.98130686,57.68790733,11.98134483,10:58:49.706967,0.02169,21.05707,-0.04229,-0.00179,-0.00259,0.01548,-0.03269,0.05777,0.01196,0.91232,4.43741,8.20628,2.02078,2.02024,-4.73337,10.76943,4.45259,-2.47655,5.85627,1.87305,1.87305,A,105849.60
4.46952,57.68795646,11.98130231,57.68790733,11.98134483,10:58:49.720060,0.00658,21.05707,-0.04148,-0.00179,-0.00840,-0.03324,-0.03376,0.19172,-0.01488,1.14698,4.46374,10.77644,1.99741,1.99688,-5.00385,11.31842,4.45259,-2.47655,5.85627,1.87305,1.87305,A,105849.60
4.47877,57.68795646,11.98130231,57.68790733,11.98134483,10:58:49.729297,0.00543,21.05707,-0.04044,-0.00179,0.00061,-0.03843,-0.03285,0.02769,-0.01488,1.12234,4.47527,10.77644,1.99741,1.99688,-5.00385,11.31842,4.45259,-2.47655,5.85627,1.87305,1.87305,A,105849.60
4.48956,57.68795646,11.98130231,57.68790733,11.98134483,10:58:49.740082,0.00520,21.05707,-0.03961,-0.00179,0.01039,-0.03385,-0.02536,-0.10419,-0.03642,1.15363,4.48606,10.77644,1.99741,1.99688,-5.00385,11.31842,4.45259,-2.47655,5.85627,1.87305,1.87305,A,105849.60
4.50081,57.68795646,11.98130231,57.68790733,11.98134483,10:58:49.751356,0.00607,21.05707,-0.03865,-0.00179,0.00718,-0.00269,-0.02765,-0.02910,-0.02971,0.98253,4.49727,10.77644,1.99741,1.99688,-5.00385,11.31842,4.45259,-2.47655,5.85627,1.87305,1.87305,A,105849.60
4.51181,57.68795646,11.98130231,57.68790733,11.98134483,10:58:49.762347,0.00666,21.05707,-0.03786,-0.00179,-0.00198,0.00311,-0.01590,0.10712,-0.03733,0.88163,4.50809,10.77644,1.99741,1.99688,-5.00385,11.31842,4.45259,-2.47655,5.85627,1.87305,1.87305,A,105849.60
4.52233,57.68795646,11.98130231,57.68790733,11.98134483,10:58:49.772863,0.00654,21.05707,-0.03701,-0.00179,0.00183,-0.00957,-0.00795,0.00116,-0.04063,0.74347,4.51884,10.77644,1.99741,1.99688,-5.00385,11.31842,4.45259,-2.47655,5.85627,1.87305,1.87305,A,105849.60
4.53276,57.68795646,11.98130231,57.68790733,11.98134483,10:58:49.783298,0.00657,21.05707,-0.03530,-0.00179,0.00214,-0.03919,-0.00032,0.08485,0.00531,0.76872,4.52920,10.77644,1.99741,1.99688,-5.00385,11.31842,4.45259,-2.47655,5.85627,1.87305,1.87305,A,105849.60
4.54265,57.68795646,11.98130231,57.68790733,11.98134483,10:58:49.793182,0.00607,21.05707,-0.03284,-0.00179,0.00367,-0.04591,0.00457,-0.14750,0.07216,0.94721,4.53914,10.77644,1.99741,1.99688,-5.00385,11.31842,4.45259,-2.47655,5.85627,1.87305,1.87305,A,105849.60
4.57079,57.68795646,11.98130231,57.68790950,11.98134317,10:58:49.821332,0.02381,21.05707,-0.03246,-0.00179,0.00794,-0.00880,-0.00123,-0.19538,-0.06137,1.09873,4.55049,10.77644,1.99741,1.99688,-5.00385,11.31842,4.56645,-2.57561,6.09719,1.96090,1.96090,A,105849.70
4.59224,57.68796422,11.98129577,57.68790950,11.98134317,10:58:49.842774,0.00892,21.05707,-0.03114,-0.00179,-0.00672,0.01365,-0.00856,0.20112,0.03135,1.08696,4.58645,12.83257,1.99021,1.98967,-5.39273,12.18164,4.56645,-2.57561,6.09719,1.96090,1.96090,A,105849.70
4.60093,57.68796422,11.98129577,57.68790950,11.98134317,10:58:49.851464,0.00740,21.05707,-0.03011,-0.00179,-0.01191,-0.06454,-0.01040,0.05520,-0.00159,1.00138,4.59741,12.83257,1.99021,1.98967,-5.39273,12.18164,4.56645,-2.57561,6.09719,1.96090,1.96090,A,105849.70
4.61173,57.68796422,11.98129577,57.68790950,11.98134317,10:58:49.862303,0.00779,21.05707,-0.02848,-0.00170,-0.00840,-0.08684,-0.01024,-0.08534,0.03312,0.93763,4.60731,12.83257,1.99021,1.98967,-5.39273,12.18164,4.56645,-2.57561,6.09719,1.96090,1.96090,A,105849.70
4.61765,57.68796422,11.98129577,57.68790950,11.98134317,10:58:49.868333,0.00332,2.55507,-0.02798,-0.00151,0.00107,-0.06897,-0.01192,-0.17312,0.02159,0.90378,4.61415,12.83257,1.99021,1.98967,-5.39273,12.18164,4.56645,-2.57561,6.09719,1.96090,1.96090,A,105849.70
4.62789,57.68796422,11.98129577,57.68790950,11.98134317,10:58:49.878420,0.00316,2.55507,-0.02791,-0.00094,0.00413,-0.03675,-0.00750,-0.16427,-0.00458,0.90719,4.62419,12.83257,1.99021,1.98967,-5.39273,12.18164,4.56645,-2.57561,6.09719,1.96090,1.96090,A,105849.70
4.63837,57.68796422,11.98129577,57.68790950,11.98134317,10:58:49.888896,0.00325,2.55507,-0.02879,0.00005,0.01650,0.03381,-0.00261,-0.04111,-0.06600,0.85327,4.63488,12.83257,1.99021,1.98967,-5.39273,12.18164,4.56645,-2.57561,6.09719,1.96090,1.96090,A,105849.70
4.64881,57.68796422,11.98129577,57.68790950,11.98134317,10:58:49.899339,0.00329,2.55507,-0.03014,0.00127,0.01023,0.06359,0.01404,-0.09858,-0.09260,0.88773,4.64531,12.83257,1.99021,1.98967,-5.39273,12.18164,4.56645,-2.57561,6.09719,1.96090,1.96090,A,105849.70
4.65885,57.68796422,11.98129577,57.68790950,11.98134317,10:58:49.909373,0.00296,2.55507,-0.02963,0.00260,0.01130,0.07153,0.01572,0.03282,0.01824,0.95642,4.65537,12.83257,1.99021,1.98967,-5.39273,12.18164,4.56645,-2.57561,6.09719,1.96090,1.96090,A,105849.70
4.68674,57.68796422,11.98129577,57.68791167,11.98134133,10:58:49.937283,0.02046,2.55507,-0.02882,0.00376,0.00687,0.04434,0.02610,0.03324,0.04514,1.07085,4.66600,12.83257,1.99021,1.98967,-5.39273,12.18164,4.68093,-2.68458,6.33811,1.99556,1.99556,A,105849.80
4.70311,57.68797251,11.98128895,57.68791167,11.98134133,10:58:49.953642,0.00828,2.55507,-0.02823,0.00531,0.00031,-0.00590,0.01083,-0.13487,0.03660,1.07695,4.69757,10.77707,1.98883,1.99040,-5.79798,13.10382,4.68093,-2.68458,6.33811,1.99556,1.99556,A,105849.80
4.70856,57.68797251,11.98128895,57.68791167,11.98134133,10:58:49.959087,0.00333,2.55507,-0.02894,0.00531,0.00535,0.02984,-0.00276,-0.00860,-0.05228,0.97149,4.70490,10.77707,1.98883,1.99040,-5.79798,13.10382,4.68093,-2.68458,6.33811,1.99556,1.99556,A,105849.80
4.71906,57.68797251,11.98128895,57.68791167,11.98134133,10:58:49.969590,0.00329,2.55507,-0.03032,0.00531,-0.00580,0.04434,-0.00627,-0.01122,-0.07851,0.84759,4.71556,10.77707,1.98883,1.99040,-5.79798,13.10382,4.68093,-2.68458,6.33811,1.99556,1.99556,A,105849.80
4.72933,57.68797251,11.98128895,57.68791167,11.98134133,10:58:49.979852,0.00316,2.55507,-0.03190,0.00531,-0.02321,0.03335,-0.00734,0.04465,-0.07326,0.76524,4.72583,10.77707,1.98883,1.99040,-5.79798,13.10382,4.68093,-2.68458,6.33811,1.99556,1.99556,A,105849.80
4.73972,57.68797251,11.98128895,57.68791167,11.98134133,10:58:49.990257,0.00315,2.55507,-0.03119,0.00531,-0.04199,-0.00773,-0.00490,-0.00366,0.05423,0.78989,4.73602,10.77707,1.98883,1.99040,-5.79798,13.10382,4.68093,-2.68458,6.33811,1.99556,1.99556,A,105849.80
4.75032,57.68797251,11.98128895,57.68791167,11.98134133,10:58:50.000842,0.00335,2.55507,-0.03004,0.00531,-0.03772,-0.03904,0.00365,-0.21466,0.09400,0.97240,4.74684,10.77707,1.98883,1.99040,-5.79798,13.10382,4.68093,-2.68458,6.33811,1.99556,1.99556,A,105849.80
4.76051,57.68797251,11.98128895,57.68791167,11.98134133,10:58:50.011036,0.00315,2.55507,-0.02863,0.00531,-0.01771,-0.01781,0.00701,-0.00384,0.11346,1.13521,4.75701,10.77707,1.98883,1.99040,-5.79798,13.10382,4.68093,-2.68458,6.33811,1.99556,1.99556,A,105849.80
4.77086,57.68797251,11.98128895,57.68791167,11.98134133,10:58:50.021387,0.00298,2.55507,-0.02835,0.00531,-0.00488,0.00769,0.01388,0.06027,0.02019,1.21042,4.76738,10.77707,1.98883,1.99040,-5.79798,13.10382,4.68093,-2.68458,6.33811,1.99556,1.99556,A,105849.80
4.79870,57.68797251,11.98128895,57.68791367,11.98134000,10:58:50.049242,0.02042,2.55507,-0.03071,0.00531,-0.00916,0.00235,0.01098,0.17141,-0.16781,1.07323,4.77792,10.77707,1.98883,1.99040,-5.79798,13.10382,4.79286,-2.76383,6.56050,1.91312,1.91312,A,105849.90
4.81335,57.68797859,11.98128397,57.68791367,11.98134000,10:58:50.063887,0.00723,2.55507,-0.03203,0.00531,-0.03298,-0.02071,0.00106,-0.12243,-0.02940,0.92006,4.80674,9.13267,1.98201,1.98358,-6.09384,13.77992,4.79286,-2.76383,6.56050,1.91312,1.91312,A,105849.90
4.81970,57.68797859,11.98128397,57.68791367,11.98134000,10:58:50.070231,0.00318,2.55507,-0.03104,0.00537,-0.02627,0.00174,0.00258,-0.22546,0.06612,0.89084,4.81600,9.13267,1.98201,1.98358,-6.09384,13.77992,4.79286,-2.76383,6.56050,1.91312,1.91312,A,105849.90
4.83018,57.68797859,11.98128397,57.68791367,11.98134000,10:58:50.080705,0.00326,2.55507,-0.03172,0.00557,-0.01145,0.03625,0.00930,-0.12535,-0.03764,0.86486,4.82669,9.13267,1.98201,1.98358,-6.09384,13.77992,4.79286,-2.76383,6.56050,1.91312,1.91312,A,105849.90
4.84048,57.68797859,11.98128397,57.68791367,11.98134000,10:58:50.091008,0.00317,2.55507,-0.03218,0.00599,-0.01435,0.03762,0.01740,0.02464,-0.02873,1.00955,4.83698,9.13267,1.98201,1.98358,-6.09384,13.77992,4.79286,-2.76383,6.56050,1.91312,1.91312,A,105849.90
4.85113,57.68797859,11.98128397,57.68791367,11.98134000,10:58:50.101655,0.00303,2.55507,-0.03286,0.00662,-0.01557,0.04236,0.02289,0.09492,-0.04465,1.06927,4.84764,9.13267,1.98201,1.98358,-6.09384,13.77992,4.79286,-2.76383,6.56050,1.91312,1.91312,A,105849.90
4.86164,57.68797859,11.98128397,57.68791367,11.98134000,10:58:50.112160,0.00315,2.55507,-0.03336,0.00732,-0.01909,0.00784,0.01969,0.12322,-0.02891,1.02224,4.85816,9.13267,1.98201,1.98358,-6.09384,13.77992,4.79286,-2.76383,6.56050,1.91312,1.91312,A,105849.90
4.87204,57.68797859,11.98128397,57.68791367,11.98134000,10:58:50.122568,0.00316,2.55507,-0.03311,0.00800,-0.02459,-0.03201,0.02457,-0.02824,0.02641,1.02803,4.86834,9.13267,1.98201,1.98358,-6.09384,13.77992,4.79286,-2.76383,6.56050,1.91312,1.91312,A,105849.90
4.88242,57.68797859,11.98128397,57.68791367,11.98134000,10:58:50.132940,0.00314,2.55507,-0.03323,0.00865,-0.02031,-0.05843,0.01938,-0.06484,-0.00152,1.03218,4.87894,9.13267,1.98201,1.98358,-6.09384,13.77992,4.79286,-2.76383,6.56050,1.91312,1.91312,A,105849.90
4.89291,57.68797859,11.98128397,57.68791367,11.98134000,10:58:50.143438,0.00323,2.55507,-0.03250,0.00933,0.00000,-0.02041,0.01388,-0.11309,0.04776,1.15491,4.88941,9.13267,1.98201,1.98358,-6.09384,13.77992,4.79286,-2.76383,6.56050,1.91312,1.91312,A,105849.90
4.93064,57.68797859,11.98128397,57.68791767,11.98133650,10:58:50.181183,0.03034,2.50206,-0.03352,0.01018,0.01619,0.01288,0.01587,-0.04825,-0.09083,1.05945,4.89977,9.13267,1.98201,1.98358,-6.09384,13.77992,4.92591,-2.97186,7.00528,2.00828,2.00828,A,105850.10
4.94558,57.68798485,11.98127898,57.68791767,11.98133650,10:58:50.196116,0.00534,2.50206,-0.03359,0.01330,0.01039,-0.01949,0.03191,0.13469,-0.03007,0.84515,4.93986,7.80655,1.99026,1.99421,-6.39084,14.47579,4.92591,-2.97186,7.00528,2.00828,2.00828,A,105850.10
4.95478,57.68798485,11.98127898,57.68791767,11.98133650,10:58:50.205313,0.00407,2.50206,-0.03210,0.01352,0.00153,-0.04729,0.01740,-0.01952,0.08406,0.89902,4.95128,7.80655,1.99026,1.99421,-6.39084,14.47579,4.92591,-2.97186,7.00528,2.00828,2.00828,A,105850.10
4.96428,57.68798485,11.98127898,57.68791767,11.98133650,10:58:50.214812,0.00317,2.50206,-0.03149,0.01352,0.01909,-0.03201,0.02580,-0.09644,0.02525,1.00565,4.96078,7.80655,1.99026,1.99421,-6.39084,14.47579,4.92591,-2.97186,7.00528,2.00828,2.00828,A,105850.10
4.97474,57.68798485,11.98127898,57.68791767,11.98133650,10:58:50.225266,0.00306,2.50206,-0.03160,0.01355,0.03284,-0.01491,0.01801,-0.01745,-0.03276,1.00900,4.97125,7.80655,1.99026,1.99421,-6.39084,14.47579,4.92591,-2.97186,7.00528,2.00828,2.00828,A,105850.10
4.98521,57.68798485,11.98127898,57.68791767,11.98133650,10:58:50.235739,0.00313,2.50206,-0.03223,0.01361,0.02856,-0.00391,0.02076,-0.09864,-0.07149,1.08915,4.98173,7.80655,1.99026,1.99421,-6.39084,14.47579,4.92591,-2.97186,7.00528,2.00828,2.00828,A,105850.10
4.99529,57.68798485,11.98127898,57.68791767,11.98133650,10:58:50.246010,0.00298,2.50206,-0.03263,0.01383,0.01909,0.03686,0.03053,-0.10791,-0.05155,1.16089,4.99180,7.80655,1.99026,1.99421,-6.39084,14.47579,4.92591,-2.97186,7.00528,2.00828,2.00828,A,105850.10
5.00587,57.68798485,11.98127898,57.68791767,11.98133650,10:58:50.256396,0.00316,2.50206,-0.03280,0.01414,0.01588,0.03396,0.02900,-0.08272,-0.02910,1.08525,5.00238,7.80655,1.99026,1.99421,-6.39084,14.47579,4.92591,-2.97186,7.00528,2.00828,2.00828,A,105850.10
5.01862,57.68798485,11.98127898,57.68791767,11.98133650,10:58:50.269208,0.00552,2.50206,0.00000,0.01446,0.01222,0.02999,0.02961,0.18410,-0.02190,1.04737,5.01278,7.80655,1.99026,1.99421,-6.39084,14.47579,4.92591,-2.97186,7.00528,2.00828,2.00828,A,105850.10
5.05461,57.68798485,11.98127898,57.68792017,11.98133467,10:58:50.305173,0.03095,2.50206,-0.00108,0.01468,0.00855,-0.03095,0.02839,0.14555,-0.04423,0.91427,5.02352,7.80655,1.99026,1.99421,0.08464,0.00000,5.03954,-3.08083,7.28327,1.94438,1.94438,A,105850.20
5.07630,57.68798927,11.98127531,57.68792017,11.98133467,10:58:50.326846,0.00907,2.50206,-0.00441,0.01471,0.01894,0.04847,0.01480,0.24510,-0.19471,0.77134,5.06784,6.74565,1.99287,1.99724,-6.60909,14.96767,5.03954,-3.08083,7.28327,1.94438,1.94438,A,105850.20
5.08134,57.68798927,11.98127531,57.68792017,11.98133467,10:58:50.331860,0.00401,2.50206,-0.00684,0.01471,-0.01512,-0.00636,0.02183,0.29323,-0.07442,0.60018,5.07698,6.74565,1.99287,1.99724,-6.60909,14.96767,5.03954,-3.08083,7.28327,1.94438,1.94438,A,105850.20
5.09202,57.68798927,11.98127531,57.68792017,11.98133467,10:58:50.342548,0.00417,2.50206,-0.00486,0.01471,-0.02871,-0.07355,0.03664,-0.17702,0.14951,0.84522,5.08734,6.74565,1.99287,1.99724,-6.60909,14.96767,5.03954,-3.08083,7.28327,1.94438,1.94438,A,105850.20
5.10237,57.68798927,11.98127531,57.68792017,11.98133467,10:58:50.352897,0.00412,2.50206,-0.00236,0.01471,0.00672,-0.03705,0.03328,-0.32818,0.21539,1.14942,5.09792,6.74565,1.99287,1.99724,-6.60909,14.96767,5.03954,-3.08083,7.28327,1.94438,1.94438,A,105850.20
5.11292,57.68798927,11.98127531,57.68792017,11.98133467,10:58:50.363458,0.00428,2.50206,-0.00248,0.01471,0.03116,0.05152,0.02228,-0.29317,-0.00604,1.38031,5.10825,6.74565,1.99287,1.99724,-6.60909,14.96767,5.03954,-3.08083,7.28327,1.94438,1.94438,A,105850.20
5.12330,57.68798927,11.98127531,57.68792017,11.98133467,10:58:50.374065,0.00426,2.50206,-0.00344,0.01471,0.03329,0.09153,0.02610,0.06496,-0.07436,1.19170,5.11884,6.74565,1.99287,1.99724,-6.60909,14.96767,5.03954,-3.08083,7.28327,1.94438,1.94438,A,105850.20
5.13354,57.68798927,11.98127531,57.68792017,11.98133467,10:58:50.384080,0.00412,2.50206,-0.00602,0.01471,0.01222,0.07061,0.01007,0.49971,-0.15439,0.99247,5.12908,6.74565,1.99287,1.99724,-6.60909,14.96767,5.03954,-3.08083,7.28327,1.94438,1.94438,A,105850.20
5.16210,57.68798927,11.98127531,57.68792233,11.98133300,10:58:50.413293,0.02223,2.50206,-0.00710,0.01471,0.00046,-0.03751,0.01663,0.39992,-0.03538,0.75548,5.13935,6.74565,1.99287,1.99724,-6.60909,14.96767,5.15474,-3.17989,7.52419,1.96090,1.96090,A,105850.30
5.18033,57.68799124,11.98127367,57.68792233,11.98133300,10:58:50.430869,0.00912,2.76227,-0.00671,0.01471,-0.00840,-0.02682,-0.00948,-0.70498,0.08125,1.21652,5.17282,5.94898,1.99522,1.99959,-6.70612,15.18648,5.15474,-3.17989,7.52419,1.96090,1.96090,A,105850.30
5.18534,57.68799124,11.98127367,57.68792233,11.98133300,10:58:50.435863,0.00401,2.76227,-0.00647,0.01471,0.00290,0.07351,0.00151,-0.09101,0.04953,1.39812,5.18097,5.94898,1.99522,1.99959,-6.70612,15.18648,5.15474,-3.17989,7.52419,1.96090,1.96090,A,105850.30
5.19607,57.68799124,11.98127367,57.68792233,11.98133300,10:58:50.446607,0.00422,2.76227,-0.00518,0.01471,0.00764,0.11872,-0.00017,0.57108,0.10096,0.95056,5.19133,5.94898,1.99522,1.99959,-6.70612,15.18648,5.15474,-3.17989,7.52419,1.96090,1.96090,A,105850.30
5.21167,57.68799124,11.98127367,57.68792233,11.98133300,10:58:50.462219,0.00942,21.99589,-0.01756,0.01471,-0.01054,-0.03446,0.02641,0.29805,-0.15030,0.84217,5.20692,5.94898,1.99522,1.99959,-6.70612,15.18648,5.15474,-3.17989,7.52419,1.96090,1.96090,A,105850.30
5.22163,57.68799124,11.98127367,57.68792233,11.98133300,10:58:50.472207,0.00894,21.99589,-0.02847,0.01471,-0.01619,-0.10700,0.04290,0.09626,-0.04191,0.77732,5.21591,5.94898,1.99522,1.99959,-6.70612,15.18648,5.15474,-3.17989,7.52419,1.96090,1.96090,A,105850.30
5.23072,57.68799124,11.98127367,57.68792233,11.98133300,10:58:50.481247,0.00783,21.99589,-0.03651,0.01471,-0.02199,-0.08516,0.02977,-0.61281,0.04593,1.00565,5.22621,5.94898,1.99522,1.99959,-6.70612,15.18648,5.15474,-3.17989,7.52419,1.96090,1.96090,A,105850.30
5.24142,57.68799124,11.98127367,57.68792233,11.98133300,10:58:50.491967,0.00798,21.99589,-0.04142,0.01471,-0.01038,0.01182,0.02183,-0.26834,0.20795,1.20835,5.23579,5.94898,1.99522,1.99959,-6.70612,15.18648,5.15474,-3.17989,7.52419,1.96090,1.96090,A,105850.30
5.25024,57.68799124,11.98127367,57.68792233,11.98133300,10:58:50.501661,0.00637,21.99589,-0.05179,0.01471,0.00351,0.05091,0.00579,-0.14256,-0.12243,0.88523,5.24559,5.94898,1.99522,1.99959,-6.70612,15.18648,5.15474,-3.17989,7.52419,1.96090,1.96090,A,105850.30
5.28024,57.68799124,11.98127367,57.68792400,11.98133167,10:58:50.530786,0.02598,21.99589,-0.06467,0.01471,0.02047,0.04159,0.00411,0.68222,-0.13902,0.63257,5.25535,5.94898,1.99522,1.99959,-6.70612,15.18648,5.27246,-3.25914,7.70951,1.97489,1.97489,A,105850.40
5.29809,57.68799321,11.98127202,57.68792400,11.98133167,10:58:50.548628,0.00955,21.99589,-0.07133,0.01471,-0.03161,0.02617,0.02870,-0.33703,0.05392,1.33285,5.29082,9.15836,1.99935,2.00372,-6.80462,15.40509,5.27246,-3.25914,7.70951,1.97489,1.97489,A,105850.40
5.30659,57.68799321,11.98127202,57.68792400,11.98133167,10:58:50.557133,0.00749,21.99589,-0.07946,0.01471,-0.02107,0.07596,0.03908,-0.26059,-0.04276,1.06280,5.30123,9.15836,1.99935,2.00372,-6.80462,15.40509,5.27246,-3.25914,7.70951,1.97489,1.97489,A,105850.40
5.31838,57.68799321,11.98127202,57.68792400,11.98133167,10:58:50.568922,0.00868,21.99589,-0.08563,0.01471,-0.00656,0.01227,0.05145,0.49611,0.19520,0.89926,5.31363,9.15836,1.99935,2.00372,-6.80462,15.40509,5.27246,-3.25914,7.70951,1.97489,1.97489,A,105850.40
5.32800,57.68799321,11.98127202,57.68792400,11.98133167,10:58:50.578537,0.00764,21.99589,-0.09311,0.01471,0.00932,-0.06470,0.04931,0.34300,0.04904,0.94623,5.32330,9.15836,1.99935,2.00372,-6.80462,15.40509,5.27246,-3.25914,7.70951,1.97489,1.97489,A,105850.40
5.33970,57.68799321,11.98127202,57.68792400,11.98133167,10:58:50.590262,0.00894,21.99589,-0.10107,0.01471,0.00061,-0.11387,0.03389,-0.25211,0.00903,0.94520,5.33398,9.15836,1.99935,2.00372,-6.80462,15.40509,5.27246,-3.25914,7.70951,1.97489,1.97489,A,105850.40
5.34900,57.68799321,11.98127202,57.68792400,11.98133167,10:58:50.599544,0.00804,21.99589,-0.10963,0.01474,0.01039,-0.04209,0.02977,-0.44030,-0.14183,1.05042,5.34419,9.15836,1.99935,2.00372,-6.80462,15.40509,5.27246,-3.25914,7.70951,1.97489,1.97489,A,105850.40
5.36026,57.68799321,11.98127202,57.68792400,11.98133167,10:58:50.610804,0.00908,21.99589,-0.11974,0.01502,0.00046,0.01670,0.01343,-0.39632,-0.13060,0.86779,5.35544,9.15836,1.99935,2.00372,-6.80462,15.40509,5.27246,-3.25914,7.70951,1.97489,1.97489,A,105850.40
5.36956,57.68799321,11.98127202,57.68792400,11.98133167,10:58:50.620106,0.00829,21.99589,-0.12782,0.01556,-0.03100,0.04465,0.00991,-0.31567,0.03465,0.94532,5.36377,9.15836,1.99935,2.00372,-6.80462,15.40509,5.27246,-3.25914,7.70951,1.97489,1.97489,A,105850.40
5.39699,57.68799321,11.98127202,57.68792600,11.98132967,10:58:50.647539,0.02537,21.99589,-0.13429,0.01661,-0.00824,0.09230,0.02564,0.28322,0.17391,0.97874,5.37480,9.15836,1.99935,2.00372,-6.80462,15.40509,5.39057,-3.37801,7.93190,2.06169,2.06169,A,105850.50
5.41724,57.68799816,11.98126771,57.68792600,11.98132967,10:58:50.667783,0.00875,21.99589,-0.14367,0.02023,-0.01176,-0.08149,0.04657,-0.26187,-0.11651,1.23555,5.41065,11.72586,2.02004,2.02604,-7.06035,15.95548,5.39057,-3.37801,7.93190,2.06169,2.06169,A,105850.50
5.42600,57.68799816,11.98126771,57.68792600,11.98132967,10:58:50.676980,0.00732,21.99589,-0.15281,0.02063,-0.00672,-0.01796,0.03359,-0.16141,-0.05594,1.16010,5.42158,11.72586,2.02004,2.02604,-7.06035,15.95548,5.39057,-3.37801,7.93190,2.06169,2.06169,A,105850.50
5.43795,57.68799816,11.98126771,57.68792600,11.98132967,10:58:50.688488,0.00840,21.99589,-0.16092,0.02068,-0.01680,0.01945,0.03160,-0.12810,0.07436,1.15308,5.43343,11.72586,2.02004,2.02604,-7.06035,15.95548,5.39057,-3.37801,7.93190,2.06169,2.06169,A,105850.50
5.44597,57.68799816,11.98126771,57.68792600,11.98132967,10:58:50.696506,0.00624,21.99589,-0.17118,0.02068,-0.00046,0.04190,0.02839,0.13133,-0.01324,0.95355,5.44156,11.72586,2.02004,2.02604,-7.06035,15.95548,5.39057,-3.37801,7.93190,2.06169,2.06169,A,105850.50
5.45657,57.68799816,11.98126771,57.68792600,11.98132967,10:58:50.707114,0.00661,21.99589,-0.18279,0.02068,-0.01359,0.02159,0.02412,0.18776,-0.05222,0.85369,5.45177,11.72586,2.02004,2.02604,-7.06035,15.95548,5.39057,-3.37801,7.93190,2.06169,2.06169,A,105850.50
5.46721,57.68799816,11.98126771,57.68792600,11.98132967,10:58:50.717976,0.00657,21.99589,-0.19460,0.02068,-0.02565,-0.00269,0.03007,-0.11352,-0.05240,0.83753,5.46189,11.72586,2.02004,2.02604,-7.06035,15.95548,5.39057,-3.37801,7.93190,2.06169,2.06169,A,105850.50
5.47984,57.68799816,11.98126771,57.68792600,11.98132967,10:58:50.730384,0.00881,21.99589,-0.20545,0.02068,-0.04062,-0.02575,0.01984,-0.10516,0.02184,0.88737,5.47508,11.72586,2.02004,2.02604,-7.06035,15.95548,5.39057,-3.37801,7.93190,2.06169,2.06169,A,105850.50
5.48523,57.68799816,11.98126771,57.68792600,11.98132967,10:58:50.735766,0.00400,2.67417,-0.20181,0.02068,-0.03711,-0.02377,0.02457,-0.17019,0.08491,0.99692,5.48085,11.72586,2.02004,2.02604,-7.06035,15.95548,5.39057,-3.37801,7.93190,2.06169,2.06169,A,105850.50
5.54435,57.68799816,11.98126771,57.68793033,11.98132650,10:58:50.794894,0.05260,2.67417,-0.19887,0.02068,-0.02489,0.00784,0.02259,-0.22106,0.04642,1.04438,5.49124,11.72586,2.02004,2.02604,-7.06035,15.95548,5.53753,-3.56623,8.41375,1.94319,1.94319,A,105850.70
5.57650,57.68800884,11.98125777,57.68793033,11.98132650,10:58:50.827117,0.01257,2.67417,-0.19658,0.02068,0.00718,0.01105,0.02717,0.28450,-0.04331,0.90457,5.56912,9.91553,2.03638,2.04252,-7.65148,17.14279,5.53753,-3.56623,8.41375,1.94319,1.94319,A,105850.70
5.59848,57.68800884,11.98125777,57.68793033,11.98132650,10:58:50.849032,0.01110,2.67417,-0.19471,0.02068,0.02169,-0.02194,0.02610,-0.08473,-0.07436,1.00973,5.59396,9.91553,2.03638,2.04252,-7.65148,17.14279,5.53753,-3.56623,8.41375,1.94319,1.94319,A,105850.70
5.62498,57.68800884,11.98125777,57.68793033,11.98132650,10:58:50.875540,0.01408,2.67417,-0.19221,0.02068,0.01909,0.00937,0.02335,0.02818,-0.02129,0.97124,5.61599,9.91553,2.03638,2.04252,-7.65148,17.14279,5.53753,-3.56623,8.41375,1.94319,1.94319,A,105850.70
5.68132,57.68800884,11.98125777,57.68793217,11.98132467,10:58:50.931867,0.04552,2.67417,-0.18979,0.02068,0.01558,-0.00147,0.02992,0.12999,-0.02025,0.93867,5.64110,9.91553,2.03638,2.04252,-7.65148,17.14279,5.66851,-3.67520,8.61761,2.06169,2.06169,A,105850.80
5.71115,57.68801497,11.98125160,57.68793217,11.98132467,10:58:50.963899,0.01295,2.67417,-0.18775,0.01881,0.01008,-0.01094,-0.01773,-0.14927,-0.05270,0.87474,5.70308,8.46725,2.06038,2.06596,-8.01819,17.82511,5.66851,-3.67520,8.61761,2.06169,2.06169,A,105850.80
5.72804,57.68801497,11.98125160,57.68793217,11.98132467,10:58:50.978594,0.00585,2.67417,-0.18528,0.01768,-0.00107,0.05778,0.00487,-0.04160,0.01013,1.06012,5.72324,8.46725,2.06038,2.06596,-8.01819,17.82511,5.66851,-3.67520,8.61761,2.06169,2.06169,A,105850.80
5.73713,57.68801497,11.98125160,57.68793217,11.98132467,10:58:50.987670,0.00420,2.67417,-0.18200,0.01731,0.00321,0.04312,0.01740,0.07643,0.06429,1.03450,5.73272,8.46725,2.06038,2.06596,-8.01819,17.82511,5.66851,-3.67520,8.61761,2.06169,2.06169,A,105850.80
5.74764,57.68801497,11.98125160,57.68793217,11.98132467,10:58:50.998200,0.00432,2.67417,-0.17920,0.01689,0.00458,0.01823,0.01602,0.25772,0.03349,1.01547,5.74296,8.46725,2.06038,2.06596,-8.01819,17.82511,5.66851,-3.67520,8.61761,2.06169,2.06169,A,105850.80
5.75790,57.68801497,11.98125160,57.68793217,11.98132467,10:58:51.008443,0.00418,2.67417,-0.17646,0.01632,0.00489,-0.03201,0.01709,-0.03538,0.03160,1.01919,5.75341,8.46725,2.06038,2.06596,-8.01819,17.82511,5.66851,-3.67520,8.61761,2.06169,2.06169,A,105850.80
5.76835,57.68801497,11.98125160,57.68793217,11.98132467,10:58:51.018900,0.00441,2.54868,-0.17402,0.01564,0.00489,-0.02392,0.00197,-0.06027,0.01372,1.10746,5.76345,8.46725,2.06038,2.06596,-8.01819,17.82511,5.66851,-3.67520,8.61761,2.06169,2.06169,A,105850.80
5.79604,57.68801497,11.98125160,57.68793383,11.98132317,10:58:51.046587,0.02170,2.54868,-0.17290,0.01502,0.00443,-0.00269,-0.00734,-0.19374,-0.07765,1.05231,5.77400,8.46725,2.06038,2.06596,-8.01819,17.82511,5.78902,-3.76436,8.80293,2.01919,2.01919,A,105850.90
5.81203,57.68801710,11.98124893,57.68793383,11.98132317,10:58:51.062591,0.00874,2.54868,-0.17036,0.01446,-0.00763,-0.00758,-0.00352,0.15238,0.03422,0.80880,5.80300,7.28354,2.06557,2.06986,-8.17676,18.06147,5.78902,-3.76436,8.80293,2.01919,2.01919,A,105850.90
5.81774,57.68801710,11.98124893,57.68793383,11.98132317,10:58:51.068279,0.00424,2.54868,-0.16826,0.01446,0.00199,-0.02606,0.00213,-0.17190,-0.00268,0.95953,5.81319,7.28354,2.06557,2.06986,-8.17676,18.06147,5.78902,-3.76436,8.80293,2.01919,2.01919,A,105850.90
5.82830,57.68801710,11.98124893,57.68793383,11.98132317,10:58:51.078840,0.00442,2.54868,-0.16656,0.01446,0.00290,0.02434,0.00060,-0.28999,-0.02806,1.01101,5.82355,7.28354,2.06557,2.06986,-8.17676,18.06147,5.78902,-3.76436,8.80293,2.01919,2.01919,A,105850.90
5.83842,57.68801710,11.98124893,57.68793383,11.98132317,10:58:51.088952,0.00415,2.54868,-0.16452,0.01446,0.00825,0.07473,0.00228,-0.05008,-0.00775,1.06512,5.83393,7.28354,2.06557,2.06986,-8.17676,18.06147,5.78902,-3.76436,8.80293,2.01919,2.01919,A,105850.90
5.84883,57.68801710,11.98124893,57.68793383,11.98132317,10:58:51.099364,0.00417,2.54868,-0.16311,0.01446,-0.01359,0.10512,-0.00261,-0.01208,-0.03800,1.14467,5.84411,7.28354,2.06557,2.06986,-8.17676,18.06147,5.78902,-3.76436,8.80293,2.01919,2.01919,A,105850.90
5.85918,57.68801710,11.98124893,57.68793383,11.98132317,10:58:51.109945,0.00412,2.54868,-0.16149,0.01446,-0.02184,0.07977,0.00258,0.13249,-0.01049,0.98979,5.85471,7.28354,2.06557,2.06986,-8.17676,18.06147,5.78902,-3.76436,8.80293,2.01919,2.01919,A,105850.90
5.86959,57.68801710,11.98124893,57.68793383,11.98132317,10:58:51.120128,0.00414,2.54868,-0.15857,0.01446,-0.03436,0.04694,-0.00414,0.17653,0.08479,0.99101,5.86510,7.28354,2.06557,2.06986,-8.17676,18.06147,5.78902,-3.76436,8.80293,2.01919,2.01919,A,105850.90
5.88008,57.68801710,11.98124893,57.68793383,11.98132317,10:58:51.130618,0.00422,2.54868,-0.15495,0.01446,-0.02749,0.00296,0.00747,-0.05155,0.11828,0.89847,5.87533,7.28354,2.06557,2.06986,-8.17676,18.06147,5.78902,-3.76436,8.80293,2.01919,2.01919,A,105850.90
5.90773,57.68801710,11.98124893,57.68793600,11.98132133,10:58:51.158284,0.02147,2.54868,-0.15071,0.01446,-0.02718,-0.00880,-0.00719,-0.18105,0.16830,0.94770,5.88591,7.28354,2.06557,2.06986,-8.17676,18.06147,5.90083,-3.87332,9.04385,1.99556,1.99556,A,105851.00
5.92552,57.68801918,11.98124629,57.68793600,11.98132133,10:58:51.176068,0.00925,2.54868,-0.15143,0.01446,-0.01909,0.06756,-0.00826,0.05447,-0.12987,1.00345,5.91826,6.33657,2.06360,2.06789,-8.33356,18.29300,5.90083,-3.87332,9.04385,1.99556,1.99556,A,105851.00
5.93062,57.68801918,11.98124629,57.68793600,11.98132133,10:58:51.181146,0.00408,2.54868,-0.15080,0.01446,-0.02932,0.05122,-0.00307,0.06783,-0.06460,0.99015,5.92626,6.33657,2.06360,2.06789,-8.33356,18.29300,5.90083,-3.87332,9.04385,1.99556,1.99556,A,105851.00
5.94109,57.68801918,11.98124629,57.68793600,11.98132133,10:58:51.191630,0.00416,2.54868,-0.15017,0.01446,-0.01787,0.04144,0.01511,-0.16580,-0.06692,0.98942,5.93640,6.33657,2.06360,2.06789,-8.33356,18.29300,5.90083,-3.87332,9.04385,1.99556,1.99556,A,105851.00
5.95166,57.68801918,11.98124629,57.68793600,11.98132133,10:58:51.202220,0.00434,2.54868,-0.14897,0.01446,-0.02275,0.05015,0.02778,-0.05368,-0.02300,0.94495,5.94698,6.33657,2.06360,2.06789,-8.33356,18.29300,5.90083,-3.87332,9.04385,1.99556,1.99556,A,105851.00
5.96187,57.68801918,11.98124629,57.68793600,11.98132133,10:58:51.212398,0.00415,2.54868,-0.14784,0.01446,-0.01451,0.05213,0.03481,0.04166,-0.03483,0.99747,5.95739,6.33657,2.06360,2.06789,-8.33356,18.29300,5.90083,-3.87332,9.04385,1.99556,1.99556,A,105851.00
5.97231,57.68801918,11.98124629,57.68793600,11.98132133,10:58:51.222852,0.00437,2.54868,-0.14682,0.01446,-0.02489,0.02602,0.04092,-0.06417,-0.03379,0.99277,5.96746,6.33657,2.06360,2.06789,-8.33356,18.29300,5.90083,-3.87332,9.04385,1.99556,1.99556,A,105851.00
5.98249,57.68801918,11.98124629,57.68793600,11.98132133,10:58:51.233017,0.00415,2.54868,-0.14524,0.01446,-0.00427,0.02999,0.04122,0.18446,-0.00909,0.99747,5.97800,6.33657,2.06360,2.06789,-8.33356,18.29300,5.90083,-3.87332,9.04385,1.99556,1.99556,A,105851.00
5.99289,57.68801918,11.98124629,57.68793600,11.98132133,10:58:51.243425,0.00416,2.54868,-0.14332,0.01454,-0.01252,0.01823,0.03420,-0.05350,0.02056,1.02791,5.98819,6.33657,2.06360,2.06789,-8.33356,18.29300,5.90083,-3.87332,9.04385,1.99556,1.99556,A,105851.00
6.03200,57.68801918,11.98124629,57.68794067,11.98131617,10:58:51.282542,0.03288,2.54868,-0.14319,0.01499,-0.00947,0.03411,0.02457,-0.08808,-0.09986,1.01040,5.99878,6.33657,2.06360,2.06789,-8.33356,18.29300,6.02532,-4.18042,9.56276,2.10517,2.10517,A,105851.20
6.04601,57.68802089,11.98124407,57.68794067,11.98131617,10:58:51.296549,0.00754,2.76714,-0.14199,0.02034,0.00550,0.01640,0.04107,0.06313,-0.04136,0.96386,6.03937,5.62268,2.07735,2.08339,-8.46565,18.48270,6.02532,-4.18042,9.56276,2.10517,2.10517,A,105851.20
