Time,lat_estimated,lon_estimated,latitude,longitude,RealTime,CalculationTime,MeasuredVelocity,FilteredVelocity,Roll,SteeringAngle,RollRate,gy,gz,ax,ay,az,imu_read_timing,v_estimated,yaw_estimated,heading_estimated,x_estimated,y_estimated,GPS_timestamp,x_GPS,y_GPS,theta_GPS,theta_GPS_noUnwrap,status,NMEA timestamp
0.06518,57.68816217,11.98135033,57.68816217,11.98135033,14:23:20.970735,0.06513,0.00000,1.50000,-0.00081,-0.03300,0.00079,-0.00917,-0.01788,0.02660,-0.02361,1.00217,0.00001,0.00000,0.01919,0.00000,0.00000,0.00000,0.01476,0.00000,0.00000,0.00000,0.00000,A,142320.80
0.08256,57.68816217,11.98135033,57.68816217,11.98135033,14:23:20.988101,0.00773,0.00000,0.00000,-0.00036,-0.03300,0.01529,-0.00337,-0.03621,0.00836,-0.01616,0.99162,0.07644,0.00000,0.01919,-0.00000,0.00000,0.00000,0.01476,0.00000,0.00000,0.00000,0.00000,A,142320.80
0.09047,57.68816217,11.98135033,57.68816217,11.98135033,14:23:20.996018,0.00515,0.00000,0.00000,-0.00150,-0.03300,0.01743,-0.00749,-0.03377,0.00433,-0.05545,1.01992,0.08457,0.00000,0.01919,-0.00000,0.00000,0.00000,0.01476,0.00000,0.00000,0.00000,0.00000,A,142320.80
0.10078,57.68816217,11.98135033,57.68816217,11.98135033,14:23:21.006577,0.00505,0.00000,0.00000,-0.00259,-0.03300,0.01163,-0.01162,-0.03025,-0.01196,-0.05289,1.02571,0.09516,0.00000,0.01919,-0.00000,0.00000,0.00000,0.01476,0.00000,0.00000,0.00000,0.00000,A,142320.80
0.11120,57.68816217,11.98135033,57.68816217,11.98135033,14:23:21.016746,0.00508,0.00000,0.00000,-0.00362,-0.03300,0.01071,-0.00673,-0.02873,-0.02007,-0.04801,1.01937,0.10536,0.00000,0.01919,-0.00000,0.00000,0.00000,0.01476,0.00000,0.00000,0.00000,0.00000,A,142320.80
0.16251,57.68816217,11.98135033,57.68816667,11.98134000,14:23:21.068076,0.04599,0.00000,1.50000,-0.00439,-0.03300,0.00995,-0.00093,-0.02796,-0.01263,-0.03050,0.99131,0.11596,0.00000,0.01919,-0.00000,0.00000,0.00000,0.13323,-0.61418,0.50038,2.45795,2.45795,A,142320.90
0.17898,57.68816239,11.98134982,57.68816667,11.98134000,14:23:21.084534,0.00677,0.00000,0.00000,-0.00441,-0.03708,0.01988,-0.01146,-0.04919,0.01037,-0.04935,1.02456,0.17250,0.00000,0.38824,0.36668,-0.03071,0.02502,0.13323,-0.61418,0.50038,2.45795,2.45795,A,142320.90
0.18774,57.68816261,11.98134933,57.68816667,11.98134000,14:23:21.093293,0.00513,0.00000,0.00000,-0.00514,-0.03835,0.02797,-0.01605,-0.04476,-0.03019,-0.04154,1.03840,0.18212,0.00000,0.70204,0.67974,-0.05988,0.04879,0.13323,-0.61418,0.50038,2.45795,2.45795,A,142320.90
0.19835,57.68816281,11.98134886,57.68816667,11.98134000,14:23:21.103900,0.00517,0.00000,0.00000,-0.00561,-0.03954,0.02217,-0.01345,-0.04476,-0.04557,-0.02129,1.07031,0.19243,0.00000,0.96888,0.94588,-0.08760,0.07137,0.13323,-0.61418,0.50038,2.45795,2.45795,A,142320.90
0.20885,57.68816300,11.98134842,57.68816667,11.98134000,14:23:21.114794,0.00508,0.00000,0.00000,-0.00602,-0.04061,0.02995,-0.00658,-0.04186,-0.00848,-0.02409,1.03682,0.20325,0.00000,1.19578,1.17216,-0.11393,0.09282,0.13323,-0.61418,0.50038,2.45795,2.45795,A,142320.90
0.21922,57.68816318,11.98134800,57.68816667,11.98134000,14:23:21.124768,0.00505,0.00000,0.00000,-0.00675,-0.04158,0.02797,-0.01162,-0.04323,-0.00445,-0.04288,1.01297,0.21340,0.00000,1.38874,1.36455,-0.13894,0.11319,0.13323,-0.61418,0.50038,2.45795,2.45795,A,142320.90
0.22993,57.68816336,11.98134760,57.68816667,11.98134000,14:23:21.135468,0.00536,0.00000,0.00000,-0.00723,-0.04268,0.02721,-0.01513,-0.03926,-0.01458,-0.02653,0.99424,0.22402,0.00000,1.55284,1.52802,-0.16270,0.13255,0.13323,-0.61418,0.50038,2.45795,2.45795,A,142320.90
0.28833,57.68816352,11.98134722,57.68817300,11.98132083,14:23:21.193908,0.05336,0.00000,1.50000,-0.00774,-0.04387,0.03102,-0.01269,-0.04079,-0.03678,-0.02946,0.95892,0.23439,0.00000,1.69244,1.66692,-0.18528,0.15095,0.26122,-1.75339,1.20461,2.58791,2.58791,A,142321.10
0.30457,57.68816400,11.98134590,57.68817300,11.98132083,14:23:21.210119,0.00738,0.00000,0.00000,-0.00640,-0.05143,0.03331,-0.01055,-0.05011,-0.01842,-0.02727,1.07226,0.29734,0.00000,1.83125,1.80133,-0.26368,0.20363,0.26122,-1.75339,1.20461,2.58791,2.58791,A,142321.10
0.31265,57.68816445,11.98134464,57.68817300,11.98132083,14:23:21.218195,0.00505,0.00000,0.00000,-0.00718,-0.05242,0.02858,-0.00673,-0.05240,0.00311,-0.04782,1.06170,0.30706,0.00000,1.94932,1.91882,-0.33817,0.25368,0.26122,-1.75339,1.20461,2.58791,2.58791,A,142321.10
0.32312,57.68816488,11.98134345,57.68817300,11.98132083,14:23:21.228658,0.00511,0.00000,0.00000,-0.00766,-0.05332,0.02751,-0.00474,-0.05499,-0.02123,-0.02812,1.06366,0.31723,0.00000,2.04976,2.01874,-0.40893,0.30122,0.26122,-1.75339,1.20461,2.58791,2.58791,A,142321.10
0.33372,57.68816528,11.98134232,57.68817300,11.98132083,14:23:21.239277,0.00533,0.00000,0.00000,-0.00787,-0.05428,0.03301,-0.00215,-0.05576,0.02464,-0.01409,1.01010,0.32783,0.00000,2.13522,2.10364,-0.47615,0.34639,0.26122,-1.75339,1.20461,2.58791,2.58791,A,142321.10
0.34398,57.68816567,11.98134125,57.68817300,11.98132083,14:23:21.249713,0.00518,0.00000,0.00000,-0.00819,-0.05519,0.03713,-0.00520,-0.05331,0.04880,-0.02220,0.94141,0.33835,0.00000,2.20795,2.17583,-0.54001,0.38930,0.26122,-1.75339,1.20461,2.58791,2.58791,A,142321.10
0.35447,57.68816603,11.98134023,57.68817300,11.98132083,14:23:21.260018,0.00515,0.00000,0.00000,-0.00919,-0.05612,0.03561,-0.01406,-0.05194,0.02239,-0.05960,0.88657,0.34858,0.00000,2.26984,2.23718,-0.60068,0.43007,0.26122,-1.75339,1.20461,2.58791,2.58791,A,142321.10
0.40764,57.68816638,11.98133926,57.68817517,11.98131383,14:23:21.313231,0.04792,0.00000,1.50000,-0.00953,-0.05700,0.03606,-0.02292,-0.05270,-0.02050,-0.02367,0.91378,0.35916,0.00000,2.32253,2.28936,-0.65832,0.46880,0.37560,-2.16945,1.44553,2.61671,2.61671,A,142321.20
0.42671,57.68816682,11.98133799,57.68817517,11.98131383,14:23:21.332251,0.00682,0.00000,0.00000,-0.00771,-0.06116,0.03255,-0.01421,-0.06064,-0.01897,0.01214,1.03011,0.42054,0.00000,2.37199,2.33640,-0.73388,0.51763,0.37560,-2.16945,1.44553,2.61671,2.61671,A,142321.20
0.43539,57.68816724,11.98133678,57.68817517,11.98131383,14:23:21.340930,0.00511,0.00000,0.00000,-0.00802,-0.06139,0.03973,-0.01040,-0.05713,-0.06033,-0.02105,1.00711,0.42953,0.00000,2.41406,2.37833,-0.80565,0.56403,0.37560,-2.16945,1.44553,2.61671,2.61671,A,142321.20
0.44625,57.68816764,11.98133563,57.68817517,11.98131383,14:23:21.351796,0.00556,0.00000,0.00000,-0.00850,-0.06150,0.04232,-0.00200,-0.06187,-0.04362,-0.03812,0.98857,0.44014,0.00000,2.44983,2.41404,-0.87384,0.60810,0.37560,-2.16945,1.44553,2.61671,2.61671,A,142321.20
0.45608,57.68816801,11.98133454,57.68817517,11.98131383,14:23:21.361633,0.00500,0.00000,0.00000,-0.00878,-0.06161,0.03896,-0.00291,-0.05973,0.00671,-0.02172,0.98356,0.45043,0.00000,2.48024,2.44438,-0.93862,0.64998,0.37560,-2.16945,1.44553,2.61671,2.61671,A,142321.20
0.46651,57.68816837,11.98133351,57.68817517,11.98131383,14:23:21.372061,0.00518,0.00000,0.00000,-0.00956,-0.06173,0.03102,-0.01177,-0.06187,0.03404,-0.04923,0.97887,0.46060,0.00000,2.50610,2.47017,-1.00017,0.68975,0.37560,-2.16945,1.44553,2.61671,2.61671,A,142321.20
0.51581,57.68816871,11.98133252,57.68817700,11.98130867,14:23:21.421375,0.04408,0.00000,1.50000,-0.01015,-0.06181,0.02705,-0.01528,-0.06736,-0.00165,-0.03587,0.98326,0.47118,0.00000,2.52809,2.49211,-1.05863,0.72754,0.48738,-2.47654,1.64939,2.55555,2.55555,A,142321.30
0.52989,57.68816912,11.98133133,57.68817700,11.98130867,14:23:21.435431,0.00672,0.00000,0.00000,-0.00975,-0.06184,0.02018,0.00091,-0.05942,-0.00427,-0.02202,1.02925,0.52315,0.00000,2.53761,2.50162,-1.12953,0.77364,0.48738,-2.47654,1.64939,2.55555,2.55555,A,142321.30
0.53883,57.68816952,11.98133020,57.68817700,11.98130867,14:23:21.444375,0.00543,0.00000,0.00000,-0.01006,-0.06184,0.01255,-0.00306,-0.06003,-0.01055,-0.00695,1.00345,0.53268,0.00000,2.54570,2.50971,-1.19688,0.81742,0.48738,-2.47654,1.64939,2.55555,2.55555,A,142321.30
0.54929,57.68816989,11.98132912,57.68817700,11.98130867,14:23:21.454848,0.00549,0.00000,0.00000,-0.01036,-0.06184,0.01102,-0.01085,-0.06309,-0.00433,-0.00647,0.98844,0.54340,0.00000,2.55257,2.51658,-1.26086,0.85902,0.48738,-2.47654,1.64939,2.55555,2.55555,A,142321.30
0.55926,57.68817025,11.98132810,57.68817700,11.98130867,14:23:21.464805,0.00507,0.00000,0.00000,-0.01084,-0.06184,0.01346,-0.00597,-0.06263,-0.04538,-0.01976,0.98582,0.55342,0.00000,2.55842,2.52243,-1.32164,0.89854,0.48738,-2.47654,1.64939,2.55555,2.55555,A,142321.30
0.56997,57.68817059,11.98132713,57.68817700,11.98130867,14:23:21.475514,0.00537,0.00000,0.00000,-0.01132,-0.06184,0.00338,-0.00872,-0.06156,-0.02635,-0.01409,0.98515,0.56403,0.00000,2.56339,2.52740,-1.37939,0.93608,0.48738,-2.47654,1.64939,2.55555,2.55555,A,142321.30
0.58006,57.68817091,11.98132620,57.68817700,11.98130867,14:23:21.485606,0.00507,0.00000,0.00000,-0.01163,-0.06184,0.00185,-0.00856,-0.06217,-0.05734,-0.00177,0.99759,0.57442,0.00000,2.56761,2.53162,-1.43425,0.97175,0.48738,-2.47654,1.64939,2.55555,2.55555,A,142321.30
0.63353,57.68817121,11.98132533,57.68817850,11.98130267,14:23:21.539104,0.04819,0.00000,1.50000,-0.01238,-0.06184,-0.00105,-0.00138,-0.06263,-0.03483,-0.03111,1.02480,0.58459,0.00000,2.57120,2.53521,-1.48636,1.00563,0.60128,-2.83317,1.81618,2.70412,2.70412,A,142321.40
0.65390,57.68817157,11.98132419,57.68817850,11.98130267,14:23:21.559446,0.00739,0.00000,0.00000,-0.01476,-0.06224,-0.02105,0.00610,-0.06859,-0.02867,-0.05075,0.97417,0.64793,0.00000,2.59657,2.56035,-1.55370,1.04616,0.60128,-2.83317,1.81618,2.70412,2.70412,A,142321.40
0.66235,57.68817192,11.98132312,57.68817850,11.98130267,14:23:21.567897,0.00521,0.00000,0.00000,-0.01610,-0.06261,-0.03968,-0.00001,-0.07057,0.00396,-0.04910,0.97130,0.65644,0.00000,2.61817,2.58173,-1.61768,1.08466,0.60128,-2.83317,1.81618,2.70412,2.70412,A,142321.40
0.67260,57.68817225,11.98132209,57.68817850,11.98130267,14:23:21.578146,0.00505,0.00000,0.00000,-0.01661,-0.06314,-0.04411,-0.00138,-0.07424,-0.04142,0.01183,1.03169,0.66700,0.00000,2.63657,2.59982,-1.67845,1.12124,0.60128,-2.83317,1.81618,2.70412,2.70412,A,142321.40
0.68322,57.68817256,11.98132112,57.68817850,11.98130267,14:23:21.588767,0.00528,0.00000,0.00000,-0.01735,-0.06374,-0.04320,-0.00627,-0.07790,0.01452,-0.00622,1.03895,0.67718,0.00000,2.65227,2.61517,-1.73619,1.15598,0.60128,-2.83317,1.81618,2.70412,2.70412,A,142321.40
0.69368,57.68817286,11.98132020,57.68817850,11.98130267,14:23:21.599234,0.00534,0.00000,0.00000,-0.01664,-0.06445,-0.04656,-0.00566,-0.07698,-0.07137,0.09565,1.02266,0.68779,0.00000,2.66567,2.62816,-1.79103,1.18899,0.60128,-2.83317,1.81618,2.70412,2.70412,A,142321.40
0.75069,57.68817314,11.98131932,57.68817933,11.98129850,14:23:21.656280,0.05195,0.00000,1.50000,-0.01819,-0.06521,-0.03128,-0.00627,-0.07637,-0.04630,-0.06698,0.99820,0.69828,0.00000,2.67713,2.63918,-1.84314,1.22035,0.71484,-3.08082,1.90885,2.78356,2.78356,A,142321.50
0.77101,57.68817345,11.98131828,57.68817933,11.98129850,14:23:21.676557,0.01150,7.57834,1.50000,-0.02192,-0.07076,-0.05480,-0.00200,-0.08218,-0.00122,-0.01098,1.00760,0.76437,0.30000,2.69927,2.65809,-1.90503,1.25478,0.71484,-3.08082,1.90885,2.78356,2.78356,A,142321.50
0.78561,57.68817376,11.98131724,57.68817933,11.98129850,14:23:21.691168,0.00928,7.57834,1.50000,-0.02268,-0.07141,-0.06335,-0.00581,-0.08508,-0.05331,0.00335,0.99101,0.77848,0.54000,2.71797,2.67640,-1.96677,1.28903,0.71484,-3.08082,1.90885,2.78356,2.78356,A,142321.50
0.79781,57.68817406,11.98131623,57.68817933,11.98129850,14:23:21.703357,0.01130,7.57834,1.50000,-0.02349,-0.07180,-0.05938,0.00427,-0.08599,-0.06240,-0.00701,0.99826,0.79181,0.73200,2.73379,2.69199,-2.02711,1.32235,0.71484,-3.08082,1.90885,2.78356,2.78356,A,142321.50
0.86208,57.68817437,11.98131515,57.68818050,11.98129483,14:23:21.768275,0.05410,7.57834,1.50000,-0.02550,-0.07192,-0.06687,-0.00566,-0.08737,-0.00830,-0.04978,0.99210,0.81228,0.88560,2.74682,2.70495,-2.09129,1.35722,0.82867,-3.29876,2.03857,2.60467,2.60467,A,142321.60
0.88235,57.68817487,11.98131335,57.68818050,11.98129483,14:23:21.787913,0.01160,7.57834,1.50000,-0.02964,-0.07192,-0.06442,0.01190,-0.07668,-0.00311,-0.01598,1.00992,0.87554,1.00848,2.72890,2.68703,-2.19826,1.41303,0.82867,-3.29876,2.03857,2.60467,2.60467,A,142321.60
0.90237,57.68817523,11.98131215,57.68818050,11.98129483,14:23:21.807923,0.01023,7.57834,1.50000,-0.03090,-0.07192,-0.05434,-0.00459,-0.07179,-0.03056,-0.02166,1.00052,0.89634,1.10678,2.71552,2.67366,-2.26965,1.45231,0.82867,-3.29876,2.03857,2.60467,2.60467,A,142321.60
0.91892,57.68817555,11.98131107,57.68818050,11.98129483,14:23:21.824473,0.00910,7.57834,1.50000,-0.03213,-0.07192,-0.04839,-0.00169,-0.07286,-0.04599,-0.04508,0.99778,0.91218,1.18543,2.70437,2.66250,-2.33396,1.48812,0.82867,-3.29876,2.03857,2.60467,2.60467,A,142321.60
0.98722,57.68817583,11.98131013,57.68818283,11.98128733,14:23:21.892796,0.06717,7.57834,1.50000,-0.03352,-0.07192,-0.05297,-0.00383,-0.07515,-0.05130,-0.07094,0.98680,0.92235,1.24834,2.69523,2.65337,-2.38950,1.51944,0.95235,-3.74453,2.29803,2.61449,2.61449,A,142321.80
1.00885,57.68817657,11.98130763,57.68818283,11.98128733,14:23:21.914700,0.01281,7.57834,1.50000,-0.03632,-0.07192,-0.03617,0.00503,-0.06141,-0.04160,-0.01135,0.99015,1.00290,1.29867,2.68427,2.64240,-2.53820,1.60135,0.95235,-3.74453,2.29803,2.61449,2.61449,A,142321.80
1.02811,57.68817697,11.98130630,57.68818283,11.98128733,14:23:21.933658,0.01077,7.57834,1.50000,-0.03712,-0.07135,-0.02273,0.00961,-0.05331,-0.02495,-0.04233,0.97203,1.02244,1.33894,2.67883,2.63729,-2.61745,1.64651,0.95235,-3.74453,2.29803,2.61449,2.61449,A,142321.80
1.04803,57.68817737,11.98130501,57.68818283,11.98128733,14:23:21.953578,0.01094,7.57834,1.50000,-0.03784,-0.06934,-0.01586,-0.00108,-0.05331,-0.05283,-0.04673,0.99881,1.04162,1.37115,2.67395,2.63359,-2.69393,1.69020,0.95235,-3.74453,2.29803,2.61449,2.61449,A,142321.80
1.11106,57.68817776,11.98130372,57.68818383,11.98128400,14:23:22.016634,0.05155,7.57834,1.50000,-0.03922,-0.06592,-0.01647,-0.00551,-0.05973,-0.03440,-0.08455,0.98570,1.06509,1.39692,2.66932,2.63095,-2.77030,1.73386,1.08153,-3.94266,2.40922,2.63016,2.63016,A,142321.90
1.12915,57.68817838,11.98130168,57.68818383,11.98128400,14:23:22.034699,0.01141,7.57834,1.50000,-0.03985,-0.05794,-0.01021,-0.01146,-0.05484,-0.02001,-0.02324,0.96722,1.12122,1.41754,2.66482,2.63110,-2.89151,1.80269,1.08153,-3.94266,2.40922,2.63016,2.63016,A,142321.90
1.15215,57.68817878,11.98130038,57.68818383,11.98128400,14:23:22.057691,0.01276,7.57834,1.50000,-0.04083,-0.05513,-0.00685,-0.00658,-0.05102,-0.04544,-0.07143,0.97429,1.14648,1.43403,2.66313,2.63105,-2.96927,1.84714,1.08153,-3.94266,2.40922,2.63016,2.63016,A,142321.90
1.17198,57.68817914,11.98129920,57.68818383,11.98128400,14:23:22.077526,0.00951,7.57834,1.50000,-0.04161,-0.05389,-0.00609,-0.00551,-0.05148,-0.06051,-0.06545,1.02901,1.16634,1.44722,2.66183,2.63048,-3.03939,1.88725,1.08153,-3.94266,2.40922,2.63016,2.63016,A,142321.90
1.22758,57.68817943,11.98129826,57.68818500,11.98127917,14:23:22.133151,0.05473,7.57834,1.50000,-0.04158,-0.05361,-0.00349,-0.00306,-0.05637,-0.00567,-0.01653,1.02596,1.17695,1.45778,2.66125,2.63006,-3.09514,1.91929,1.19420,-4.22994,2.53895,2.71743,2.71743,A,142322.00
1.25040,57.68818010,11.98129598,57.68818500,11.98127917,14:23:22.155947,0.01269,7.57834,1.50000,-0.04152,-0.05058,0.01056,-0.00581,-0.05056,-0.02446,-0.06130,0.97197,1.24444,1.46622,2.67031,2.64089,-3.23085,1.99460,1.19420,-4.22994,2.53895,2.71743,2.71743,A,142322.00
1.27399,57.68818048,11.98129469,57.68818500,11.98127917,14:23:22.179538,0.01149,7.57834,1.50000,-0.04161,-0.05015,0.01346,-0.00276,-0.05194,-0.01616,-0.04508,0.96606,1.26804,1.47298,2.68058,2.65140,-3.30709,2.03620,1.19420,-4.22994,2.53895,2.71743,2.71743,A,142322.00
1.34196,57.68818082,11.98129352,57.68818650,11.98127617,14:23:22.247536,0.05553,7.57834,1.50000,-0.04209,-0.05015,0.01713,-0.00215,-0.05011,-0.03288,-0.07753,1.02468,1.28901,1.47838,2.68945,2.66027,-3.37656,2.07379,1.30756,-4.40825,2.70574,2.38956,2.38956,A,142322.10
1.36375,57.68818149,11.98129127,57.68818650,11.98127617,14:23:22.269294,0.00965,7.57834,1.50000,-0.04068,-0.04882,0.03148,-0.01360,-0.05011,0.01848,-0.06783,0.99009,1.35807,1.48271,2.64511,2.61671,-3.51027,2.14828,1.30756,-4.40825,2.70574,2.38956,2.38956,A,142322.10
1.37631,57.68818181,11.98129030,57.68818650,11.98127617,14:23:22.281851,0.01170,7.57834,1.50000,-0.04128,-0.04814,0.02705,-0.01879,-0.05209,0.01165,-0.07698,0.94276,1.37062,1.48616,2.61040,2.58240,-3.56826,2.18374,1.30756,-4.40825,2.70574,2.38956,2.38956,A,142322.10
1.39485,57.68818215,11.98128926,57.68818650,11.98127617,14:23:22.300391,0.01003,7.57834,1.50000,-0.04099,-0.04752,0.02171,-0.00826,-0.05560,-0.09589,-0.02556,0.97655,1.38892,1.48893,2.58055,2.55291,-3.62998,2.22218,1.30756,-4.40825,2.70574,2.38956,2.38956,A,142322.10
1.46120,57.68818252,11.98128819,57.68818800,11.98127267,14:23:22.367445,0.05613,7.57834,1.50000,-0.03960,-0.04735,0.02751,0.02351,-0.05988,-0.02458,0.03312,1.01083,1.41188,1.49115,2.55494,2.52740,-3.69348,2.26277,1.42910,-4.61628,2.87254,2.46577,2.46577,A,142322.20
1.47906,57.68818322,11.98128626,57.68818800,11.98127267,14:23:22.384602,0.00700,1.03802,1.03802,-0.03887,-0.04721,0.01804,-0.00551,-0.05805,-0.02788,-0.03623,0.97594,1.47315,1.40052,2.54260,2.51513,-3.80812,2.34156,1.42910,-4.61628,2.87254,2.46577,2.46577,A,142322.20
1.48749,57.68818351,11.98128546,57.68818800,11.98127267,14:23:22.393036,0.00504,1.03802,1.03802,-0.03903,-0.04721,0.02079,0.00228,-0.05545,-0.01909,-0.03379,0.98503,1.48187,1.32802,2.53487,2.50740,-3.85573,2.37332,1.42910,-4.61628,2.87254,2.46577,2.46577,A,142322.20
1.49820,57.68818379,11.98128467,57.68818800,11.98127267,14:23:22.403743,0.00535,1.03802,1.03802,-0.03885,-0.04721,0.02140,0.00045,-0.05667,-0.06631,-0.01470,1.01663,1.49228,1.27002,2.52822,2.50076,-3.90252,2.40473,1.42910,-4.61628,2.87254,2.46577,2.46577,A,142322.20
1.50865,57.68818406,11.98128394,57.68818800,11.98127267,14:23:22.414194,0.00540,1.03802,1.03802,-0.03868,-0.04721,0.02400,0.00885,-0.05652,-0.00342,-0.01720,0.99460,1.50271,1.22362,2.52260,2.49514,-3.94629,2.43415,1.42910,-4.61628,2.87254,2.46577,2.46577,A,142322.20
1.51927,57.68818431,11.98128324,57.68818800,11.98127267,14:23:22.424814,0.00561,1.03802,1.03802,-0.03965,-0.04721,0.02675,0.00549,-0.05942,0.00738,-0.09357,0.98234,1.51340,1.18650,2.51783,2.49037,-3.98777,2.46209,1.42910,-4.61628,2.87254,2.46577,2.46577,A,142322.20
1.58463,57.68818454,11.98128259,57.68819017,11.98126783,14:23:22.490208,0.06057,1.03802,1.50000,-0.04022,-0.04721,0.01957,-0.00154,-0.05896,-0.01013,-0.06259,0.97637,1.52352,1.15680,2.51381,2.48634,-4.02646,2.48815,1.55278,-4.90356,3.11346,2.44373,2.44373,A,142322.40
1.60391,57.68818525,11.98128081,57.68819017,11.98126783,14:23:22.509447,0.00755,1.03802,1.03802,-0.03880,-0.04707,0.02293,0.00533,-0.05576,-0.09790,-0.02824,0.97142,1.59692,1.13305,2.50454,2.47716,-4.13211,2.56691,1.55278,-4.90356,3.11346,2.44373,2.44373,A,142322.40
1.61203,57.68818554,11.98128007,57.68819017,11.98126783,14:23:22.517575,0.00527,1.03802,1.03802,-0.03851,-0.04676,0.02568,0.02198,-0.05591,-0.06277,-0.00878,1.00192,1.60641,1.11404,2.49925,2.47205,-4.17609,2.59847,1.55278,-4.90356,3.11346,2.44373,2.44373,A,142322.40
1.62259,57.68818582,11.98127934,57.68819017,11.98126783,14:23:22.528140,0.00528,1.03802,1.03802,-0.03884,-0.04599,0.02827,0.02259,-0.05392,-0.04837,-0.05276,1.00857,1.61657,1.09884,2.49461,2.46785,-4.21942,2.62972,1.55278,-4.90356,3.11346,2.44373,2.44373,A,142322.40
1.63277,57.68818608,11.98127865,57.68819017,11.98126783,14:23:22.538578,0.00506,1.03802,1.03802,-0.03891,-0.04477,0.02125,0.02168,-0.05179,0.01726,-0.03129,1.01260,1.62717,1.08667,2.49057,2.46452,-4.26050,2.65940,1.55278,-4.90356,3.11346,2.44373,2.44373,A,142322.40
1.64315,57.68818634,11.98127800,57.68819017,11.98126783,14:23:22.548692,0.00512,1.03802,1.03802,-0.03906,-0.04330,0.01911,0.00900,-0.05133,-0.00451,-0.03501,1.02431,1.63727,1.07694,2.48702,2.46183,-4.29937,2.68750,1.55278,-4.90356,3.11346,2.44373,2.44373,A,142322.40
1.69080,57.68818658,11.98127737,57.68819150,11.98126583,14:23:22.596379,0.04237,1.03802,1.50000,-0.03890,-0.04163,0.00674,-0.00520,-0.05041,-0.07113,-0.00598,1.03401,1.64798,1.06916,2.48386,2.45965,-4.33649,2.71438,1.66516,-5.02243,3.26172,2.24663,2.24663,A,142322.50
1.70603,57.68818711,11.98127615,57.68819150,11.98126583,14:23:22.611569,0.00744,1.03802,1.03802,-0.03791,-0.03682,0.02843,-0.03132,-0.03545,-0.06966,-0.03788,0.97441,1.69816,1.06293,2.44988,2.42847,-4.40930,2.77302,1.66516,-5.02243,3.26172,2.24663,2.24663,A,142322.50
1.71428,57.68818736,11.98127555,57.68819150,11.98126583,14:23:22.619822,0.00546,1.03802,1.03802,-0.03727,-0.03628,0.03255,-0.01696,-0.03316,-0.09504,0.01068,0.97704,1.70834,1.05795,2.42238,2.40128,-4.44469,2.80155,1.66516,-5.02243,3.26172,2.24663,2.24663,A,142322.50
1.72429,57.68818762,11.98127496,57.68819150,11.98126583,14:23:22.629837,0.00507,1.03802,1.03802,-0.03720,-0.03566,0.04263,-0.00077,-0.02766,-0.06301,-0.03361,0.99381,1.71867,1.05396,2.39890,2.37816,-4.47968,2.83014,1.66516,-5.02243,3.26172,2.24663,2.24663,A,142322.50
1.73463,57.68818786,11.98127441,57.68819150,11.98126583,14:23:22.640173,0.00517,1.03802,1.03802,-0.03758,-0.03476,0.04171,0.00411,-0.03086,-0.06130,-0.06344,1.02327,1.72874,1.05077,2.37886,2.35864,-4.51282,2.85746,1.66516,-5.02243,3.26172,2.24663,2.24663,A,142322.50
1.74514,57.68818810,11.98127388,57.68819150,11.98126583,14:23:22.650693,0.00529,1.03802,1.03802,-0.03724,-0.03351,0.03438,0.00931,-0.03361,-0.00543,-0.01116,1.04078,1.73931,1.04822,2.36172,2.34223,-4.54433,2.88367,1.66516,-5.02243,3.26172,2.24663,2.24663,A,142322.50
1.75545,57.68818833,11.98127337,57.68819150,11.98126583,14:23:22.660998,0.00520,1.03802,1.03802,-0.03668,-0.03201,0.04385,0.00289,-0.03377,-0.01208,-0.00061,1.07732,1.74948,1.04618,2.34702,2.32841,-4.57421,2.90871,1.66516,-5.02243,3.26172,2.24663,2.24663,A,142322.50
1.81034,57.68818854,11.98127290,57.68819333,11.98126383,14:23:22.715917,0.04969,1.03802,1.50000,-0.03612,-0.03031,0.04156,-0.00215,-0.03728,0.02916,0.00030,1.04517,1.76009,1.04455,2.33440,2.31677,-4.60241,2.93249,1.77726,-5.14131,3.46558,2.09871,2.09871,A,142322.60
1.82232,57.68818913,11.98127184,57.68819333,11.98126383,14:23:22.727866,0.00734,1.03802,1.03802,-0.03369,-0.02131,0.04568,-0.02200,-0.02842,-0.07521,-0.00964,0.93928,1.81525,1.04324,2.29966,2.28727,-4.66513,2.99785,1.77726,-5.14131,3.46558,2.09871,2.09871,A,142322.60
1.83049,57.68818938,11.98127138,57.68819333,11.98126383,14:23:22.736037,0.00516,1.03802,1.03802,-0.03391,-0.01978,0.04630,-0.00917,-0.02980,-0.04972,-0.04569,0.96618,1.82458,1.04220,2.27115,2.25964,-4.69293,3.02582,1.77726,-5.14131,3.46558,2.09871,2.09871,A,142322.60
1.84159,57.68818964,11.98127090,57.68819333,11.98126383,14:23:22.747136,0.00585,1.03802,1.03802,-0.03328,-0.01834,0.04798,-0.00276,-0.02246,-0.07216,0.00262,1.01480,1.83568,1.04136,2.24674,2.23608,-4.72104,3.05472,1.77726,-5.14131,3.46558,2.09871,2.09871,A,142322.60
1.85121,57.68818988,11.98127047,57.68819333,11.98126383,14:23:22.756749,0.00507,1.03802,1.03802,-0.03271,-0.01707,0.04309,-0.00184,-0.01987,0.01824,0.00708,0.99467,1.84535,1.04069,2.22592,2.21600,-4.74672,3.08122,1.77726,-5.14131,3.46558,2.09871,2.09871,A,142322.60
1.86187,57.68819011,11.98127005,57.68819333,11.98126383,14:23:22.767418,0.00535,1.03802,1.03802,-0.03241,-0.01585,0.04019,-0.00261,-0.02399,-0.05331,-0.01147,1.05548,1.85596,1.04016,2.20811,2.19889,-4.77156,3.10723,1.77726,-5.14131,3.46558,2.09871,2.09871,A,142322.60
1.87196,57.68819033,11.98126966,57.68819333,11.98126383,14:23:22.777502,0.00503,1.03802,1.03802,-0.03200,-0.01480,0.03790,-0.00169,-0.02002,0.00604,-0.00146,1.03669,1.86633,1.03973,2.19289,2.18428,-4.79488,3.13179,1.77726,-5.14131,3.46558,2.09871,2.09871,A,142322.60
1.92409,57.68819054,11.98126929,57.68819517,11.98126183,14:23:22.829902,0.04676,1.03802,1.50000,-0.03109,-0.01378,0.02919,0.00030,-0.02308,-0.05703,0.03947,1.01705,1.87658,1.03939,2.17987,2.17185,-4.81702,3.15532,1.89378,-5.26018,3.66943,2.09871,2.09871,A,142322.70
1.93914,57.68819117,11.98126841,57.68819517,11.98126183,14:23:22.844708,0.00719,1.03802,1.03802,-0.03101,-0.00826,0.02018,-0.00398,-0.02124,0.01732,-0.07003,1.01089,1.93261,1.03912,2.16784,2.16304,-4.86932,3.22499,1.89378,-5.26018,3.66943,2.09871,2.09871,A,142322.70
1.94761,57.68819142,11.98126802,57.68819517,11.98126183,14:23:22.853152,0.00525,1.03802,1.03802,-0.03099,-0.00744,0.01346,-0.00948,-0.02048,-0.00811,-0.00756,1.02126,1.94158,1.03890,2.15808,2.15375,-4.89267,3.25287,1.89378,-5.26018,3.66943,2.09871,2.09871,A,142322.70
1.95811,57.68819167,11.98126763,57.68819517,11.98126183,14:23:22.863657,0.00535,1.03802,1.03802,-0.03058,-0.00662,0.01346,-0.01482,-0.01697,-0.03739,0.01793,1.01717,1.95220,1.03872,2.14971,2.14585,-4.91563,3.28066,1.89378,-5.26018,3.66943,2.09871,2.09871,A,142322.70
1.96821,57.68819191,11.98126726,57.68819517,11.98126183,14:23:22.873756,0.00505,1.03802,1.03802,-0.03041,-0.00600,0.01361,-0.01467,-0.01681,-0.02233,0.00189,0.98643,1.96259,1.03858,2.14254,2.13905,-4.93733,3.30699,1.89378,-5.26018,3.66943,2.09871,2.09871,A,142322.70
1.97870,57.68819213,11.98126692,57.68819517,11.98126183,14:23:22.884244,0.00519,1.03802,1.03802,-0.03043,-0.00558,0.02003,-0.01620,-0.00780,-0.07064,-0.01379,0.97423,1.97278,1.03847,2.13641,2.13317,-4.95794,3.33211,1.89378,-5.26018,3.66943,2.09871,2.09871,A,142322.70
1.98920,57.68819235,11.98126659,57.68819517,11.98126183,14:23:22.894755,0.00530,1.03802,1.03802,-0.03078,-0.00535,0.01422,-0.01360,-0.00948,0.03526,-0.03068,0.93330,1.98335,1.03838,2.13119,2.12808,-4.97753,3.35608,1.89378,-5.26018,3.66943,2.09871,2.09871,A,142322.70
2.04520,57.68819255,11.98126627,57.68819683,11.98125967,14:23:22.951620,0.05090,1.03802,1.50000,-0.03098,-0.00526,0.00476,-0.02139,-0.01162,-0.09467,-0.01616,0.97423,1.99353,1.03831,2.12674,2.12368,-4.99619,3.37901,2.01093,-5.38896,3.85476,2.17808,2.17808,A,142322.80
2.06299,57.68819322,11.98126542,57.68819683,11.98125967,14:23:22.968576,0.00850,1.21970,1.21970,-0.03125,-0.00504,-0.00349,-0.00673,-0.02644,0.06466,-0.00482,0.98100,2.05532,1.07459,2.13464,2.13171,-5.04678,3.45296,2.01093,-5.38896,3.85476,2.17808,2.17808,A,142322.80
2.07109,57.68819346,11.98126506,57.68819683,11.98125967,14:23:22.976627,0.00644,1.21970,1.21970,-0.03117,-0.00501,0.00353,-0.02414,-0.02246,-0.05679,0.00281,0.99918,2.06516,1.10361,2.14156,2.13865,-5.06826,3.48000,2.01093,-5.38896,3.85476,2.17808,2.17808,A,142322.80
2.08234,57.68819370,11.98126471,57.68819683,11.98125967,14:23:22.987879,0.00729,1.21970,1.21970,-0.03182,-0.00501,0.00170,-0.02506,-0.01666,-0.07070,-0.04435,0.97100,2.07632,1.12683,2.14744,2.14453,-5.08943,3.50679,2.01093,-5.38896,3.85476,2.17808,2.17808,A,142322.80
2.09051,57.68819391,11.98126439,57.68819683,11.98125967,14:23:22.996058,0.00518,1.21970,1.21970,-0.03201,-0.00501,0.00063,-0.00887,-0.02170,-0.01555,-0.01330,0.93934,2.08460,1.14540,2.15245,2.14953,-5.10797,3.52970,2.01093,-5.38896,3.85476,2.17808,2.17808,A,142322.80
2.10115,57.68819413,11.98126407,57.68819683,11.98125967,14:23:23.006717,0.00511,1.21970,1.21970,-0.03336,-0.00501,0.00903,-0.01528,-0.02094,0.03697,-0.09010,0.92086,2.09522,1.16026,2.15669,2.15378,-5.12711,3.55375,2.01093,-5.38896,3.85476,2.17808,2.17808,A,142322.80
2.15470,57.68819433,11.98126377,57.68819850,11.98125700,14:23:23.060287,0.04856,1.21970,1.50000,-0.03345,-0.00501,-0.00135,-0.01513,-0.02124,-0.07875,-0.00830,0.98344,2.10537,1.17215,2.16030,2.15739,-5.14528,3.57651,2.12284,-5.54746,4.04008,2.27833,2.27833,A,142322.90
2.16978,57.68819501,11.98126285,57.68819850,11.98125700,14:23:23.075329,0.00751,1.21970,1.21970,-0.03225,-0.00501,0.00873,-0.02857,-0.02078,-0.08302,0.04453,1.01138,2.16381,1.18166,2.17820,2.17529,-5.20000,3.65176,2.12284,-5.54746,4.04008,2.27833,2.27833,A,142322.90
2.17806,57.68819523,11.98126249,57.68819850,11.98125700,14:23:23.083598,0.00537,1.21970,1.21970,-0.03235,-0.00498,0.02950,-0.02551,-0.01361,-0.02727,-0.02385,0.96173,2.17213,1.18927,2.19363,2.19073,-5.22135,3.67692,2.12284,-5.54746,4.04008,2.27833,2.27833,A,142322.90
2.18807,57.68819547,11.98126212,57.68819850,11.98125700,14:23:23.093610,0.00499,1.21970,1.21970,-0.03219,-0.00490,0.02904,-0.02047,-0.01254,-0.05813,-0.01068,0.97039,2.18243,1.19535,2.20672,2.20388,-5.24306,3.70266,2.12284,-5.54746,4.04008,2.27833,2.27833,A,142322.90
2.19855,57.68819569,11.98126177,57.68819850,11.98125700,14:23:23.104090,0.00521,1.21970,1.21970,-0.03315,-0.00467,0.03973,-0.01895,-0.00597,-0.03440,-0.08869,0.96539,2.19262,1.20022,2.21784,2.21512,-5.26393,3.72723,2.12284,-5.54746,4.04008,2.27833,2.27833,A,142322.90
2.20884,57.68819590,11.98126143,57.68819850,11.98125700,14:23:23.114702,0.00510,1.21970,1.21970,-0.03346,-0.00444,0.02278,-0.00978,-0.00414,-0.09913,-0.03983,1.00656,2.20320,1.20412,2.22726,2.22468,-5.28395,3.75064,2.12284,-5.54746,4.04008,2.27833,2.27833,A,142322.90
2.21925,57.68819610,11.98126111,57.68819850,11.98125700,14:23:23.124798,0.00512,1.21970,1.21970,-0.03373,-0.00433,0.03011,-0.00291,-0.00994,-0.05844,-0.03977,0.98430,2.21338,1.20723,2.23527,2.23275,-5.30297,3.77274,2.12284,-5.54746,4.04008,2.27833,2.27833,A,142322.90
2.28661,57.68819629,11.98126080,57.68820100,11.98125167,14:23:23.192199,0.06208,1.21970,1.50000,-0.03360,-0.00433,0.02278,0.00488,-0.01437,-0.01873,-0.01074,0.95343,2.22421,1.20973,2.24207,2.23955,-5.32141,3.79409,2.25255,-5.86446,4.31807,2.42167,2.42167,A,142323.10
2.30354,57.68819710,11.98125949,57.68820100,11.98125167,14:23:23.209087,0.00615,1.21970,1.21970,-0.03082,-0.00433,0.04538,-0.00581,-0.03041,-0.05289,-0.03819,1.04103,2.29786,1.21172,2.26911,2.26659,-5.39957,3.88484,2.25255,-5.86446,4.31807,2.42167,2.42167,A,142323.10
2.31334,57.68819736,11.98125900,57.68820100,11.98125167,14:23:23.218890,0.00556,1.21970,1.21970,-0.03082,-0.00433,0.04630,-0.00505,-0.02369,-0.03080,-0.02904,0.97533,2.30746,1.21332,2.29234,2.28982,-5.42856,3.91338,2.25255,-5.86446,4.31807,2.42167,2.42167,A,142323.10
2.32335,57.68819761,11.98125853,57.68820100,11.98125167,14:23:23.228892,0.00517,1.21970,1.21970,-0.03095,-0.00433,0.04126,-0.01605,-0.02384,-0.01653,-0.03483,0.97179,2.31743,1.21459,2.31209,2.30957,-5.45657,3.94072,2.25255,-5.86446,4.31807,2.42167,2.42167,A,142323.10
2.33412,57.68819784,11.98125807,57.68820100,11.98125167,14:23:23.239658,0.00553,1.21970,1.21970,-0.03040,-0.00433,0.04034,-0.02612,-0.01865,-0.00909,0.00817,0.94526,2.32803,1.21561,2.32887,2.32635,-5.48361,3.96687,2.25255,-5.86446,4.31807,2.42167,2.42167,A,142323.10
2.34406,57.68819806,11.98125764,57.68820100,11.98125167,14:23:23.249602,0.00507,1.21970,1.21970,-0.03044,-0.00433,0.05103,-0.03239,-0.02017,-0.07296,-0.03581,0.96099,2.33842,1.21643,2.34313,2.34061,-5.50911,3.99130,2.25255,-5.86446,4.31807,2.42167,2.42167,A,142323.10
2.40161,57.68819827,11.98125723,57.68820233,11.98125017,14:23:23.307207,0.05228,1.21970,1.50000,-0.02980,-0.00433,0.05607,-0.02612,-0.02857,-0.07485,0.00506,0.93568,2.34860,1.21708,2.35526,2.35274,-5.53364,4.01461,2.36582,-5.95361,4.46633,2.11221,2.11221,A,142323.20
2.41981,57.68819893,11.98125604,57.68820233,11.98125017,14:23:23.325365,0.00740,1.21970,1.21970,-0.02667,-0.00433,0.04309,0.00060,-0.04217,-0.00915,0.03141,1.06030,2.41204,1.21761,2.31894,2.31642,-5.60464,4.08754,2.36582,-5.95361,4.46633,2.11221,2.11221,A,142323.20
2.42786,57.68819915,11.98125566,57.68820233,11.98125017,14:23:23.333403,0.00505,1.21970,1.21970,-0.02671,-0.00433,0.04706,-0.01253,-0.03987,0.00866,-0.03105,1.03096,2.42224,1.21802,2.28828,2.28576,-5.62706,4.11187,2.36582,-5.95361,4.46633,2.11221,2.11221,A,142323.20
2.43879,57.68819937,11.98125527,57.68820233,11.98125017,14:23:23.344331,0.00546,1.21970,1.21970,-0.02662,-0.00433,0.04278,-0.01910,-0.03529,-0.01177,-0.01982,1.01309,2.43277,1.21836,2.26221,2.25970,-5.65004,4.13725,2.36582,-5.95361,4.46633,2.11221,2.11221,A,142323.20
2.44872,57.68819959,11.98125492,57.68820233,11.98125017,14:23:23.354503,0.00515,1.21970,1.21970,-0.02632,-0.00433,0.04278,-0.02674,-0.02644,-0.02532,-0.00458,0.96173,2.44307,1.21863,2.24006,2.23754,-5.67122,4.16099,2.36582,-5.95361,4.46633,2.11221,2.11221,A,142323.20
2.45902,57.68819979,11.98125458,57.68820233,11.98125017,14:23:23.364562,0.00522,1.21970,1.21970,-0.02627,-0.00433,0.04232,-0.02444,-0.02384,-0.04429,-0.01915,0.93861,2.45312,1.21884,2.22123,2.21871,-5.69126,4.18378,2.36582,-5.95361,4.46633,2.11221,2.11221,A,142323.20
2.51423,57.68820000,11.98125425,57.68820367,11.98124783,14:23:23.420139,0.05003,1.21970,1.50000,-0.02629,-0.00433,0.04003,-0.02903,-0.02185,-0.02312,-0.02495,0.91451,2.46450,1.21901,2.20521,2.20270,-5.71092,4.20655,2.48173,-6.09230,4.61459,2.32284,2.32284,A,142323.30
2.52943,57.68820066,11.98125327,57.68820367,11.98124783,14:23:23.434988,0.00686,1.21970,1.21970,-0.02485,-0.00433,0.02889,0.00014,-0.04232,-0.01110,-0.01263,1.09263,2.52353,1.21915,2.22301,2.22050,-5.76894,4.28017,2.48173,-6.09230,4.61459,2.32284,2.32284,A,142323.30
2.53849,57.68820087,11.98125292,57.68820367,11.98124783,14:23:23.444040,0.00536,1.21970,1.21970,-0.02445,-0.00433,0.02980,-0.00505,-0.04247,0.06771,0.01623,1.04822,2.53240,1.21926,2.23834,2.23582,-5.79007,4.30341,2.48173,-6.09230,4.61459,2.32284,2.32284,A,142323.30
2.54946,57.68820108,11.98125256,57.68820367,11.98124783,14:23:23.455010,0.00593,1.21970,1.21970,-0.02442,-0.00433,0.02629,-0.03010,-0.03407,0.02135,-0.01128,1.01730,2.54356,1.21935,2.25136,2.24884,-5.81157,4.32712,2.48173,-6.09230,4.61459,2.32284,2.32284,A,142323.30
2.55915,57.68820127,11.98125222,57.68820367,11.98124783,14:23:23.464696,0.00523,1.49661,1.49661,-0.02399,-0.00433,0.02339,-0.04094,-0.03056,-0.02190,0.01891,0.96002,2.55317,1.27480,2.26243,2.25991,-5.83129,4.34855,2.48173,-6.09230,4.61459,2.32284,2.32284,A,142323.30
2.56971,57.68820147,11.98125189,57.68820367,11.98124783,14:23:23.475254,0.00538,1.49661,1.49661,-0.02480,-0.00433,0.02858,-0.03300,-0.02338,-0.04819,-0.06332,0.92976,2.56380,1.31916,2.27183,2.26931,-5.85089,4.36981,2.48173,-6.09230,4.61459,2.32284,2.32284,A,142323.30
2.58078,57.68820165,11.98125158,57.68820367,11.98124783,14:23:23.486590,0.00605,1.49661,1.49661,-0.02466,-0.00433,0.01957,-0.02612,-0.02399,-0.06893,0.00134,0.96136,2.57424,1.35465,2.27983,2.27731,-5.86975,4.39013,2.48173,-6.09230,4.61459,2.32284,2.32284,A,142323.30
2.63336,57.68820183,11.98125126,57.68820483,11.98124517,14:23:23.538938,0.04721,1.49661,1.50000,-0.02555,-0.00433,0.02201,0.00060,-0.02582,0.00378,-0.06618,0.93391,2.58613,1.38304,2.28662,2.28410,-5.88860,4.41040,2.60335,-6.25080,4.74432,2.45569,2.45569,A,142323.40
2.65144,57.68820249,11.98125013,57.68820483,11.98124517,14:23:23.556982,0.00863,12.07861,1.50000,-0.02626,-0.00433,-0.01372,-0.00810,-0.04369,0.04856,0.01068,1.02083,2.64513,1.40643,2.31210,2.30958,-5.95589,4.48394,2.60335,-6.25080,4.74432,2.45569,2.45569,A,142323.40
2.66379,57.68820270,11.98124972,57.68820483,11.98124517,14:23:23.569337,0.01048,12.07861,1.50000,-0.02738,-0.00433,-0.01571,-0.01727,-0.04507,0.01921,-0.05588,0.98552,2.65809,1.42515,2.33397,2.33145,-5.98012,4.50736,2.60335,-6.25080,4.74432,2.45569,2.45569,A,142323.40
2.68655,57.68820299,11.98124917,57.68820483,11.98124517,14:23:23.592095,0.01311,12.07861,1.50000,-0.02793,-0.00433,-0.02059,-0.00810,-0.03407,-0.08131,-0.00323,0.97210,2.68059,1.44012,2.35251,2.34999,-6.01295,4.53949,2.60335,-6.25080,4.74432,2.45569,2.45569,A,142323.40
2.75048,57.68820324,11.98124868,57.68820600,11.98124350,14:23:23.656052,0.05670,12.07861,1.50000,-0.02829,-0.00433,-0.01662,0.02427,-0.02689,-0.05502,-0.00067,0.99680,2.70023,1.45209,2.36828,2.36577,-6.04173,4.56683,2.71783,-6.34986,4.87404,2.22295,2.22295,A,142323.50
2.77244,57.68820393,11.98124736,57.68820600,11.98124350,14:23:23.677983,0.01051,12.07861,1.50000,-0.02944,-0.00433,-0.01708,0.00778,-0.03239,-0.04618,0.00043,1.02315,2.76677,1.46168,2.34656,2.34404,-6.12057,4.64442,2.71783,-6.34986,4.87404,2.22295,2.22295,A,142323.50
2.79399,57.68820421,11.98124685,57.68820600,11.98124350,14:23:23.699540,0.01003,12.07861,1.50000,-0.02993,-0.00433,-0.02350,0.00808,-0.01895,-0.06942,0.00067,0.97045,2.78797,1.46934,2.32831,2.32579,-6.15087,4.67520,2.71783,-6.34986,4.87404,2.22295,2.22295,A,142323.50
2.81388,57.68820446,11.98124640,57.68820600,11.98124350,14:23:23.719422,0.01065,12.07861,1.50000,-0.02943,-0.00433,-0.01830,0.00931,-0.00353,-0.05112,0.05496,0.96453,2.80702,1.47547,2.31280,2.31028,-6.17752,4.70289,2.71783,-6.34986,4.87404,2.22295,2.22295,A,142323.50
2.88366,57.68820467,11.98124602,57.68820867,11.98123833,14:23:23.789233,0.06169,12.07861,1.50000,-0.02944,-0.00376,-0.00028,-0.00933,0.00930,-0.03440,0.00018,0.98954,2.82453,1.48038,2.29958,2.29739,-6.19988,4.72651,2.85323,-6.65695,5.17056,2.37371,2.37371,A,142323.70
2.90728,57.68820558,11.98124447,57.68820867,11.98123833,14:23:23.812828,0.01230,12.07861,1.50000,-0.03156,-0.00093,-0.01785,0.01587,-0.03010,0.00384,-0.05069,1.01522,2.90135,1.48430,2.31048,2.30993,-6.29215,4.82681,2.85323,-6.65695,5.17056,2.37371,2.37371,A,142323.70
2.92710,57.68820590,11.98124388,57.68820867,11.98123833,14:23:23.832641,0.01181,12.07861,1.50000,-0.03220,-0.00045,-0.02212,-0.01559,-0.01559,0.01251,-0.01421,0.99814,2.92116,1.48744,2.31998,2.31972,-6.32727,4.86252,2.85323,-6.65695,5.17056,2.37371,2.37371,A,142323.70
2.94171,57.68820615,11.98124340,57.68820867,11.98123833,14:23:23.847259,0.00903,12.07861,1.50000,-0.03235,-0.00037,-0.02533,-0.02628,-0.00796,-0.05033,0.01171,0.95532,2.93569,1.48995,2.32807,2.32785,-6.35580,4.89088,2.85323,-6.65695,5.17056,2.37371,2.37371,A,142323.70
2.99650,57.68820637,11.98124298,57.68820967,11.98123700,14:23:23.902077,0.05361,12.07861,1.50000,-0.03301,-0.00037,-0.01433,-0.02047,-0.00719,-0.11059,-0.03209,0.95294,2.94767,1.49196,2.33494,2.33473,-6.38043,4.91500,2.96479,-6.73620,5.28176,2.19000,2.19000,A,142323.80
3.01101,57.68820704,11.98124177,57.68820967,11.98123700,14:23:23.916551,0.00787,12.07861,1.50000,-0.03457,-0.00037,-0.03022,0.01725,-0.02766,-0.03575,0.00878,1.09318,3.00511,1.49357,2.31321,2.31300,-6.45253,4.99003,2.96479,-6.73620,5.28176,2.19000,2.19000,A,142323.80
3.02315,57.68820727,11.98124137,57.68820967,11.98123700,14:23:23.928698,0.00976,12.07861,1.50000,-0.03542,-0.00037,-0.03327,0.00656,-0.02476,0.07094,-0.03483,1.02175,3.01724,1.49486,2.29476,2.29454,-6.47640,5.01518,2.96479,-6.73620,5.28176,2.19000,2.19000,A,142323.80
3.03543,57.68820748,11.98124101,57.68820967,11.98123700,14:23:23.940981,0.01141,12.07861,1.50000,-0.03607,-0.00037,-0.04029,-0.00505,-0.02216,0.00958,-0.01751,0.97289,3.02841,1.49588,2.27907,2.27886,-6.49799,5.03824,2.96479,-6.73620,5.28176,2.19000,2.19000,A,142323.80
3.05732,57.68820778,11.98124049,57.68820967,11.98123700,14:23:23.962874,0.01093,12.07861,1.50000,-0.03654,-0.00008,-0.04671,-0.01818,-0.00414,-0.10230,0.03062,0.90188,3.05138,1.49671,2.26571,2.26566,-6.52877,5.07246,2.96479,-6.73620,5.28176,2.19000,2.19000,A,142323.80
3.11763,57.68820801,11.98124011,57.68821000,11.98123467,14:23:24.023463,0.05482,12.07861,1.50000,-0.03762,0.00014,-0.04457,0.00808,-0.00399,-0.21557,-0.03343,1.02175,3.06646,1.49737,2.25434,2.25442,-6.55122,5.09742,3.08366,-6.87489,5.31882,2.88044,2.88044,A,142323.90
3.13501,57.68820871,11.98123892,57.68821000,11.98123467,14:23:24.040549,0.00641,1.52612,1.52612,-0.04104,0.00170,-0.06442,-0.01666,-0.01361,-0.07241,0.03038,0.99088,3.12908,1.50312,2.34812,2.34910,-6.62206,5.17557,3.08366,-6.87489,5.31882,2.88044,2.88044,A,142323.90
3.14472,57.68820885,11.98123858,57.68821000,11.98123467,14:23:24.050618,0.00588,1.52612,1.52612,-0.04161,0.00255,-0.06488,-0.01986,-0.00674,-0.05990,-0.00567,0.92025,3.13886,1.50772,2.42776,2.42924,-6.64244,5.19058,3.08366,-6.87489,5.31882,2.88044,2.88044,A,142323.90
3.15468,57.68820897,11.98123824,57.68821000,11.98123467,14:23:24.060219,0.00535,1.52612,1.52612,-0.04386,0.00345,-0.07389,-0.01650,-0.00841,-0.04294,-0.09168,0.81813,3.14874,1.51140,2.49538,2.49739,-6.66260,5.20437,3.08366,-6.87489,5.31882,2.88044,2.88044,A,142323.90
3.16719,57.68820910,11.98123787,57.68821000,11.98123467,14:23:24.072729,0.00746,1.52612,1.52612,-0.04527,0.00439,-0.07924,-0.00093,-0.00948,-0.14237,-0.03941,0.91592,3.16075,1.51434,2.55279,2.55535,-6.68463,5.21867,3.08366,-6.87489,5.31882,2.88044,2.88044,A,142323.90
3.17531,57.68820919,11.98123759,57.68821000,11.98123467,14:23:24.080853,0.00519,1.52612,1.52612,-0.04540,0.00490,-0.07786,0.02000,-0.00338,-0.17031,0.02080,0.93519,3.16936,1.51670,2.60154,2.60439,-6.70139,5.22848,3.08366,-6.87489,5.31882,2.88044,2.88044,A,142323.90
3.23138,57.68820928,11.98123726,57.68821067,11.98123267,14:23:24.136949,0.05086,1.52612,1.50000,-0.04578,0.00538,-0.08229,0.05008,-0.00719,-0.09729,0.01921,1.02754,3.17996,1.51858,2.64296,2.64608,-6.72060,5.23928,3.19718,-6.99376,5.39295,2.58400,2.58400,A,142324.00
3.24420,57.68820970,11.98123583,57.68821067,11.98123267,14:23:24.149743,0.00711,1.52612,1.52612,-0.05108,0.00942,-0.06733,-0.01162,-0.01223,-0.09559,-0.11010,1.01797,3.23853,1.52009,2.63363,2.63911,-6.80596,5.28572,3.19718,-6.99376,5.39295,2.58400,2.58400,A,142324.00
3.25318,57.68820979,11.98123553,57.68821067,11.98123267,14:23:24.158738,0.00569,1.52612,1.52612,-0.05132,0.01027,-0.07313,-0.01253,-0.00444,-0.13438,0.00695,1.01705,3.24694,1.52130,2.62536,2.63133,-6.82372,5.29568,3.19718,-6.99376,5.39295,2.58400,2.58400,A,142324.00
3.26287,57.68820989,11.98123522,57.68821067,11.98123267,14:23:24.168418,0.00514,1.52612,1.52612,-0.05216,0.01112,-0.06549,0.00549,-0.00307,-0.13817,-0.03068,0.99790,3.25699,1.52226,2.61828,2.62475,-6.84216,5.30611,3.19718,-6.99376,5.39295,2.58400,2.58400,A,142324.00
3.27361,57.68820998,11.98123491,57.68821067,11.98123267,14:23:24.179163,0.00548,1.52612,1.52612,-0.05328,0.01172,-0.06152,0.02305,-0.00368,-0.00689,-0.04715,0.93330,3.26760,1.52303,2.61222,2.61903,-6.86052,5.31658,3.19718,-6.99376,5.39295,2.58400,2.58400,A,142324.00
3.28368,57.68821007,11.98123461,57.68821067,11.98123267,14:23:24.189222,0.00515,1.52612,1.52612,-0.05421,0.01206,-0.06076,0.02305,-0.00093,-0.03873,-0.03630,0.90689,3.27803,1.52365,2.60705,2.61406,-6.87806,5.32666,3.19718,-6.99376,5.39295,2.58400,2.58400,A,142324.00
3.29528,57.68821016,11.98123434,57.68821067,11.98123267,14:23:24.200830,0.00618,1.52612,1.52612,-0.05521,0.01220,-0.05511,0.02381,-0.00170,-0.03074,-0.04538,0.90683,3.28837,1.52414,2.60265,2.60974,-6.89452,5.33619,3.19718,-6.99376,5.39295,2.58400,2.58400,A,142324.00
3.34907,57.68821023,11.98123409,57.68821200,11.98123067,14:23:24.254905,0.04957,1.52612,1.50000,-0.05500,0.01223,-0.05419,0.02091,0.00105,-0.08839,0.02965,0.97905,3.29895,1.52454,2.59889,2.60600,-6.90892,5.34458,3.31621,-7.11263,5.54121,2.24663,2.24663,A,142324.10
3.36849,57.68821072,11.98123265,57.68821200,11.98123067,14:23:24.274039,0.00902,1.52612,1.52612,-0.05820,0.01226,-0.04488,-0.00627,-0.01407,-0.07344,-0.05069,0.98552,3.36133,1.52486,2.54581,2.55294,-6.99460,5.39922,3.31621,-7.11263,5.54121,2.24663,2.24663,A,142324.10
3.37485,57.68821082,11.98123247,57.68821200,11.98123067,14:23:24.280390,0.00523,1.52612,1.52612,-0.05895,0.01226,-0.04763,-0.00856,-0.00841,-0.10797,-0.04813,0.93928,3.36881,1.52511,2.49993,2.50705,-7.00556,5.40969,3.31621,-7.11263,5.54121,2.24663,2.24663,A,142324.10
3.38534,57.68821094,11.98123221,57.68821200,11.98123067,14:23:24.290895,0.00531,1.52612,1.52612,-0.05928,0.01226,-0.03632,0.00228,-0.00475,-0.16683,-0.01909,0.90036,3.37949,1.52531,2.46098,2.46811,-7.02082,5.42357,3.31621,-7.11263,5.54121,2.24663,2.24663,A,142324.10
3.39551,57.68821106,11.98123197,57.68821200,11.98123067,14:23:24.301052,0.00508,1.52612,1.52612,-0.05993,0.01226,-0.03480,0.01037,-0.00368,-0.05911,-0.04209,0.92049,3.38986,1.52547,2.42788,2.43500,-7.03518,5.43724,3.31621,-7.11263,5.54121,2.24663,2.24663,A,142324.10
3.40633,57.68821119,11.98123174,57.68821200,11.98123067,14:23:24.311880,0.00551,1.52612,1.52612,-0.06069,0.01226,-0.02762,0.01083,-0.00597,-0.02739,-0.05417,0.94562,3.40040,1.52560,2.39974,2.40687,-7.04869,5.45066,3.31621,-7.11263,5.54121,2.24663,2.24663,A,142324.10
3.41650,57.68821130,11.98123154,57.68821200,11.98123067,14:23:24.322044,0.00528,1.52612,1.52612,-0.06144,0.01226,-0.03251,0.00243,0.00044,-0.06155,-0.05594,1.01797,3.41087,1.52571,2.37582,2.38295,-7.06092,5.46336,3.31621,-7.11263,5.54121,2.24663,2.24663,A,142324.10
3.47142,57.68821141,11.98123135,57.68821267,11.98122900,14:23:24.376987,0.04997,1.52612,1.50000,-0.06213,0.01226,-0.02502,0.00381,-0.00261,-0.01171,-0.05856,1.00363,3.42073,1.52579,2.35549,2.36261,-7.07201,5.47531,3.43792,-7.21170,5.61534,2.49917,2.49917,A,142324.20
3.49029,57.68821203,11.98123018,57.68821267,11.98122900,14:23:24.395838,0.00662,1.52612,1.52612,-0.06179,0.01282,0.01148,-0.01146,0.00976,-0.01635,-0.05240,0.98472,3.48364,1.52585,2.37676,2.38422,-7.14172,5.54423,3.43792,-7.21170,5.61534,2.49917,2.49917,A,142324.20
3.49916,57.68821213,11.98122998,57.68821267,11.98122900,14:23:24.404698,0.00509,1.52612,1.52612,-0.06262,0.01330,0.00583,-0.02246,0.00762,-0.05655,-0.08510,0.97746,3.49329,1.52591,2.39407,2.40181,-7.15321,5.55534,3.43792,-7.21170,5.61534,2.49917,2.49917,A,142324.20
3.50985,57.68821223,11.98122978,57.68821267,11.98122900,14:23:24.415392,0.00539,1.52612,1.52612,-0.06268,0.01398,0.00552,-0.01711,0.00838,-0.06539,-0.03331,0.91323,3.50392,1.52595,2.40875,2.41688,-7.16535,5.56676,3.43792,-7.21170,5.61534,2.49917,2.49917,A,142324.20
3.51992,57.68821232,11.98122959,57.68821267,11.98122900,14:23:24.425453,0.00504,1.52612,1.52612,-0.06302,0.01469,0.01804,-0.01162,0.00441,-0.11017,-0.05838,0.91860,3.51428,1.52598,2.42116,2.42970,-7.17666,5.57715,3.43792,-7.21170,5.61534,2.49917,2.49917,A,142324.20
3.53066,57.68821241,11.98122940,57.68821267,11.98122900,14:23:24.436205,0.00522,1.52612,1.52612,-0.06296,0.01537,0.01392,0.00457,0.00579,-0.12285,-0.03117,0.91097,3.52474,1.52601,2.43166,2.44060,-7.18794,5.58728,3.43792,-7.21170,5.61534,2.49917,2.49917,A,142324.20
3.59453,57.68821250,11.98122922,57.68821400,11.98122617,14:23:24.500899,0.05868,1.52612,1.50000,-0.06285,0.01596,0.02797,0.02045,0.00319,-0.08674,-0.04093,0.99765,3.53547,1.52603,2.44055,2.44983,-7.19874,5.59680,3.56352,-7.38010,5.76360,2.41973,2.41973,A,142324.40
3.61099,57.68821313,11.98122781,57.68821400,11.98122617,14:23:24.516531,0.00797,1.51220,1.51220,-0.06041,0.01738,0.03958,-0.00520,0.00777,-0.01055,-0.04081,0.95069,3.60382,1.52327,2.43711,2.44721,-7.28215,5.66672,3.56352,-7.38010,5.76360,2.41973,2.41973,A,142324.40
3.61873,57.68821322,11.98122762,57.68821400,11.98122617,14:23:24.524271,0.00539,1.51220,1.51220,-0.06009,0.01738,0.03454,-0.00749,0.01205,-0.07869,-0.02391,0.96459,3.61280,1.52105,2.43310,2.44320,-7.29339,5.67684,3.56352,-7.38010,5.76360,2.41973,2.41973,A,142324.40
3.62880,57.68821333,11.98122740,57.68821400,11.98122617,14:23:24.534618,0.00506,1.51220,1.51220,-0.05976,0.01738,0.04217,-0.00872,0.01312,-0.05136,-0.03080,0.96105,3.62317,1.51928,2.42974,2.43984,-7.30691,5.68889,3.56352,-7.38010,5.76360,2.41973,2.41973,A,142324.40
3.63943,57.68821343,11.98122718,57.68821400,11.98122617,14:23:24.544974,0.00524,1.51220,1.51220,-0.05929,0.01738,0.03713,-0.01207,0.01449,-0.10480,-0.01885,0.98173,3.63344,1.51786,2.42688,2.43699,-7.31992,5.70053,3.56352,-7.38010,5.76360,2.41973,2.41973,A,142324.40
3.65039,57.68821353,11.98122697,57.68821400,11.98122617,14:23:24.555932,0.00580,1.51220,1.51220,-0.05864,0.01738,0.03927,-0.01681,0.01556,-0.07918,-0.00952,1.01053,3.64432,1.51673,2.42447,2.43457,-7.33255,5.71186,3.56352,-7.38010,5.76360,2.41973,2.41973,A,142324.40
3.66004,57.68821362,11.98122678,57.68821400,11.98122617,14:23:24.565579,0.00504,1.51220,1.51220,-0.05829,0.01738,0.03958,-0.01238,0.01129,-0.00433,-0.02775,1.02645,3.65442,1.51582,2.42239,2.43250,-7.34358,5.72184,3.56352,-7.38010,5.76360,2.41973,2.41973,A,142324.40
3.71715,57.68821371,11.98122659,57.68821433,11.98122400,14:23:24.622731,0.05175,1.51220,1.50000,-0.05769,0.01738,0.04324,-0.01452,0.01235,-0.07253,-0.01446,1.05042,3.66469,1.51510,2.42064,2.43075,-7.35469,5.73189,3.68206,-7.50888,5.80067,2.86135,2.86135,A,142324.50
3.73524,57.68821427,11.98122531,57.68821433,11.98122400,14:23:24.640781,0.00761,1.51220,1.51220,-0.05530,0.01959,0.04156,-0.00673,0.01770,-0.01879,-0.03831,0.97118,3.72937,1.51452,2.48626,2.49765,-7.43071,5.79415,3.68206,-7.50888,5.80067,2.86135,2.86135,A,142324.50
3.74307,57.68821432,11.98122514,57.68821433,11.98122400,14:23:24.648620,0.00514,1.51220,1.51220,-0.05449,0.02015,0.04003,-0.01314,0.01770,-0.01476,0.01281,1.00772,3.73718,1.51405,2.54089,2.55261,-7.44130,5.79949,3.68206,-7.50888,5.80067,2.86135,2.86135,A,142324.50
3.75379,57.68821438,11.98122491,57.68821433,11.98122400,14:23:24.659344,0.00547,1.51220,1.51220,-0.05452,0.02075,0.03667,-0.01207,0.01739,-0.09577,-0.04996,1.06713,3.74778,1.51368,2.58734,2.59941,-7.45492,5.80639,3.68206,-7.50888,5.80067,2.86135,2.86135,A,142324.50
3.76380,57.68821444,11.98122469,57.68821433,11.98122400,14:23:24.669339,0.00507,1.51220,1.51220,-0.05419,0.02111,0.03591,-0.01146,0.00976,-0.06027,-0.02422,1.07702,3.75816,1.51338,2.62680,2.63908,-7.46789,5.81229,3.68206,-7.50888,5.80067,2.86135,2.86135,A,142324.50
3.77445,57.68821449,11.98122447,57.68821433,11.98122400,14:23:24.679989,0.00517,1.51220,1.51220,-0.05360,0.02123,0.03362,-0.00459,0.00961,-0.05014,-0.00275,1.06024,3.76853,1.51315,2.66033,2.67268,-7.48077,5.81766,3.68206,-7.50888,5.80067,2.86135,2.86135,A,142324.50
3.82904,57.68821453,11.98122426,57.68821500,11.98122200,14:23:24.734619,0.04935,1.51220,1.50000,-0.05291,0.02126,0.03652,0.00136,0.00563,-0.02745,0.00238,1.03303,3.77912,1.51296,2.68883,2.70119,-7.49311,5.82235,3.79612,-7.62776,5.87480,2.58400,2.58400,A,142324.60
3.84259,57.68821486,11.98122293,57.68821500,11.98122200,14:23:24.748129,0.00738,1.51220,1.51220,-0.05111,0.02126,0.03011,-0.02154,0.01037,-0.07314,-0.01196,1.01778,3.83661,1.51280,2.67258,2.68494,-7.57232,5.85913,3.79612,-7.62776,5.87480,2.58400,2.58400,A,142324.60
3.85086,57.68821490,11.98122275,57.68821500,11.98122200,14:23:24.756404,0.00542,1.51220,1.51220,-0.05078,0.02126,0.03163,-0.01513,0.01602,-0.08198,-0.01128,1.02950,3.84487,1.51268,2.65758,2.66995,-7.58303,5.86382,3.79612,-7.62776,5.87480,2.58400,2.58400,A,142324.60
3.86114,57.68821495,11.98122254,57.68821500,11.98122200,14:23:24.766701,0.00531,1.51220,1.51220,-0.05065,0.02126,0.02247,0.00030,0.01235,-0.07296,-0.02391,1.06177,3.85529,1.51259,2.64489,2.65725,-7.59588,5.86978,3.79612,-7.62776,5.87480,2.58400,2.58400,A,142324.60
3.87130,57.68821501,11.98122232,57.68821500,11.98122200,14:23:24.776843,0.00507,1.51220,1.51220,-0.05022,0.02126,0.01667,0.00610,0.00640,-0.02708,0.00183,1.04719,3.86547,1.51251,2.63411,2.64647,-7.60843,5.87579,3.79612,-7.62776,5.87480,2.58400,2.58400,A,142324.60
3.88200,57.68821506,11.98122212,57.68821500,11.98122200,14:23:24.787543,0.00537,1.51220,1.51220,-0.05012,0.02126,0.01102,0.00885,0.00380,-0.05087,-0.01720,1.05695,3.87607,1.51244,2.62494,2.63730,-7.62029,5.88163,3.79612,-7.62776,5.87480,2.58400,2.58400,A,142324.60
3.89205,57.68821511,11.98122194,57.68821500,11.98122200,14:23:24.797583,0.00501,1.51220,1.51220,-0.05032,0.02126,0.00445,0.01373,-0.00399,-0.06698,-0.03215,1.01937,3.88644,1.51239,2.61714,2.62950,-7.63111,5.88705,3.79612,-7.62776,5.87480,2.58400,2.58400,A,142324.60
3.94784,57.68821516,11.98122175,57.68821550,11.98122017,14:23:24.853410,0.05051,1.51220,1.50000,-0.04976,0.02126,-0.00380,0.00839,-0.00444,0.07100,0.02367,0.93361,3.89735,1.51236,2.61054,2.62290,-7.64244,5.89290,3.91496,-7.73672,5.93040,2.66980,2.66980,A,142324.70
3.95966,57.68821553,11.98122053,57.68821550,11.98122017,14:23:24.865201,0.00716,1.51220,1.51220,-0.05154,0.02109,-0.01922,0.00243,-0.00933,-0.09546,-0.06429,1.03907,3.95391,1.51232,2.61888,2.63114,-7.71512,5.93357,3.91496,-7.73672,5.93040,2.66980,2.66980,A,142324.70
3.96796,57.68821557,11.98122037,57.68821550,11.98122017,14:23:24.873500,0.00506,1.51220,1.51220,-0.05211,0.02069,-0.02915,0.01557,-0.01636,-0.01043,-0.03928,1.02785,3.96233,1.51230,2.62487,2.63690,-7.72441,5.93801,3.91496,-7.73672,5.93040,2.66980,2.66980,A,142324.70
3.97852,57.68821562,11.98122018,57.68821550,11.98122017,14:23:24.884063,0.00519,1.51220,1.51220,-0.05246,0.02007,-0.03281,0.01129,-0.01987,-0.07064,-0.01921,1.02114,3.97259,1.51228,2.63006,2.64172,-7.73570,5.94353,3.91496,-7.73672,5.93040,2.66980,2.66980,A,142324.70
3.98879,57.68821566,11.98122000,57.68821550,11.98122017,14:23:24.894725,0.00507,1.51220,1.51220,-0.05169,0.01939,-0.02945,0.01450,-0.01987,-0.04240,0.05283,0.97734,3.98317,1.51226,2.63452,2.64579,-7.74648,5.94873,3.91496,-7.73672,5.93040,2.66980,2.66980,A,142324.70
3.99922,57.68821571,11.98121983,57.68821550,11.98122017,14:23:24.904763,0.00509,1.51220,1.51220,-0.05144,0.01885,-0.02243,-0.00093,-0.01513,-0.11621,0.01531,1.00321,3.99336,1.51225,2.63835,2.64931,-7.75662,5.95356,3.91496,-7.73672,5.93040,2.66980,2.66980,A,142324.70
4.01004,57.68821575,11.98121966,57.68821550,11.98122017,14:23:24.915582,0.00537,1.69953,1.69953,-0.05201,0.01851,-0.01693,0.00335,-0.01407,-0.03666,-0.04008,0.95538,4.00411,1.54970,2.64164,2.65240,-7.76671,5.95835,3.91496,-7.73672,5.93040,2.66980,2.66980,A,142324.70
4.06209,57.68821579,11.98121950,57.68821617,11.98121750,14:23:24.967665,0.04697,1.69953,1.50000,-0.05301,0.01840,-0.03098,-0.00383,-0.01055,-0.05136,-0.05893,0.95538,4.01469,1.57967,2.64444,2.65514,-7.77628,5.96284,4.03174,-7.89522,6.00453,2.70412,2.70412,A,142324.80
4.07909,57.68821617,11.98121814,57.68821617,11.98121750,14:23:24.984633,0.00744,1.69953,1.69953,-0.05480,0.01803,-0.03251,0.03481,-0.02155,0.00378,-0.01122,0.95069,4.07315,1.60364,2.65303,2.66352,-7.85741,6.00469,4.03174,-7.89522,6.00453,2.70412,2.70412,A,142324.80
4.08715,57.68821621,11.98121797,57.68821617,11.98121750,14:23:24.992698,0.00510,1.69953,1.69953,-0.05503,0.01803,-0.03449,0.03221,-0.01972,0.04270,-0.01623,1.00272,4.08127,1.62282,2.65925,2.66974,-7.86749,6.00892,4.03174,-7.89522,6.00453,2.70412,2.70412,A,142324.80
4.09781,57.68821626,11.98121774,57.68821617,11.98121750,14:23:25.003353,0.00536,1.69953,1.69953,-0.05564,0.01803,-0.04289,0.00472,-0.01681,0.00775,-0.03007,1.00223,4.09189,1.63816,2.66460,2.67508,-7.88068,6.01473,4.03174,-7.89522,6.00453,2.70412,2.70412,A,142324.80
4.10788,57.68821631,11.98121754,57.68821617,11.98121750,14:23:25.013424,0.00504,1.69953,1.69953,-0.05562,0.01803,-0.04671,-0.00520,-0.01559,-0.01824,0.01257,0.98722,4.10225,1.65044,2.66913,2.67962,-7.89295,6.02003,4.03174,-7.89522,6.00453,2.70412,2.70412,A,142324.80
4.11872,57.68821635,11.98121733,57.68821617,11.98121750,14:23:25.024264,0.00540,1.69953,1.69953,-0.05651,0.01803,-0.03694,-0.01238,-0.01468,-0.09040,-0.05520,1.01681,4.11281,1.66025,2.67300,2.68349,-7.90538,6.02539,4.03174,-7.89522,6.00453,2.70412,2.70412,A,142324.80
4.12984,57.68821640,11.98121714,57.68821617,11.98121750,14:23:25.035391,0.00611,1.69953,1.69953,-0.05651,0.01803,-0.05022,-0.00337,-0.00994,-0.16080,0.01348,1.03590,4.12316,1.66811,2.67628,2.68676,-7.91663,6.03014,4.03174,-7.89522,6.00453,2.70412,2.70412,A,142324.80
4.19224,57.68821643,11.98121698,57.68821717,11.98121350,14:23:25.097824,0.05811,1.69953,1.50000,-0.05727,0.01803,-0.04197,0.02015,-0.01132,-0.03398,-0.04538,1.03413,4.13337,1.67439,2.67905,2.68953,-7.92615,6.03404,4.16178,-8.13297,6.11572,2.70412,2.70412,A,142325.00
4.21110,57.68821691,11.98121512,57.68821717,11.98121350,14:23:25.116643,0.00661,1.69953,1.69953,-0.05961,0.01803,-0.03006,0.00946,0.00625,-0.05520,-0.03623,1.00619,4.20518,1.67942,2.68279,2.69328,-8.03639,6.08663,4.16178,-8.13297,6.11572,2.70412,2.70412,A,142325.00
4.22005,57.68821696,11.98121487,57.68821717,11.98121350,14:23:25.125592,0.00516,1.69953,1.69953,-0.06015,0.01803,-0.03312,0.01053,0.00502,0.00220,-0.03892,0.97490,4.21442,1.68344,2.68458,2.69506,-8.05156,6.09306,4.16178,-8.13297,6.11572,2.70412,2.70412,A,142325.00
4.23227,57.68821704,11.98121456,57.68821717,11.98121350,14:23:25.137813,0.00694,1.69953,1.69953,-0.05983,0.01817,-0.03327,0.00625,0.01037,0.00146,0.02227,1.00052,4.22617,1.68666,2.68615,2.69672,-8.07006,6.10111,4.16178,-8.13297,6.11572,2.70412,2.70412,A,142325.00
4.24123,57.68821709,11.98121433,57.68821717,11.98121350,14:23:25.146782,0.00536,1.69953,1.69953,-0.06054,0.01905,-0.02380,0.00869,0.01327,-0.10346,-0.05655,0.99448,4.23535,1.68923,2.68734,2.69842,-8.08330,6.10665,4.16178,-8.13297,6.11572,2.70412,2.70412,A,142325.00
4.25137,57.68821714,11.98121408,57.68821717,11.98121350,14:23:25.156913,0.00510,1.69953,1.69953,-0.06064,0.02089,-0.02304,0.01373,0.02213,-0.00372,-0.01555,0.98710,4.24550,1.69129,2.68824,2.70039,-8.09824,6.11301,4.16178,-8.13297,6.11572,2.70412,2.70412,A,142325.00
4.30537,57.68821720,11.98121382,57.68821750,11.98121167,14:23:25.211463,0.04887,1.69953,1.50000,-0.06074,0.02377,-0.01922,0.00396,0.02976,-0.04459,-0.01610,1.02907,4.25713,1.69294,2.68880,2.70263,-8.11400,6.11977,4.27442,-8.24194,6.15279,2.81372,2.81372,A,142325.10
4.32478,57.68821758,11.98121226,57.68821750,11.98121167,14:23:25.230584,0.00740,1.69953,1.69953,-0.06029,0.03988,0.00766,0.01175,0.02136,-0.05081,-0.02172,1.02004,4.31851,1.69426,2.70582,2.72902,-8.20671,6.16195,4.27442,-8.24194,6.15279,2.81372,2.81372,A,142325.10
4.33308,57.68821761,11.98121207,57.68821750,11.98121167,14:23:25.238654,0.00507,1.69953,1.69953,-0.06014,0.04127,0.00888,0.00915,0.03175,-0.00579,-0.01562,1.05298,4.32723,1.69531,2.71872,2.74273,-8.21779,6.16557,4.27442,-8.24194,6.15279,2.81372,2.81372,A,142325.10
4.34318,57.68821766,11.98121184,57.68821750,11.98121167,14:23:25.248716,0.00513,1.69953,1.69953,-0.06026,0.04248,0.02385,0.00243,0.03923,-0.04551,-0.04331,1.02108,4.33729,1.69616,2.72970,2.75441,-8.23131,6.17012,4.27442,-8.24194,6.15279,2.81372,2.81372,A,142325.10
4.35382,57.68821769,11.98121162,57.68821750,11.98121167,14:23:25.259357,0.00536,1.69953,1.69953,-0.06040,0.04350,0.02156,0.00045,0.04717,0.00714,-0.04392,1.01205,4.34790,1.69683,2.73896,2.76427,-8.24463,6.17447,4.27442,-8.24194,6.15279,2.81372,2.81372,A,142325.10
4.36390,57.68821773,11.98121141,57.68821750,11.98121167,14:23:25.269446,0.00505,1.69953,1.69953,-0.06008,0.04427,0.02217,-0.01116,0.05405,0.02233,-0.01122,0.94160,4.35827,1.69737,2.74677,2.77252,-8.25696,6.17832,4.27442,-8.24194,6.15279,2.81372,2.81372,A,142325.10
4.41886,57.68821777,11.98121116,57.68821800,11.98120933,14:23:25.324425,0.04953,1.69953,1.50000,-0.05939,0.04494,0.03469,-0.01971,0.06015,-0.08613,0.00030,0.95825,4.37064,1.69780,2.75348,2.77962,-8.27216,6.18322,4.38785,-8.38063,6.20838,2.76032,2.76032,A,142325.20
4.43540,57.68821808,11.98120961,57.68821800,11.98120933,14:23:25.340938,0.00693,1.69953,1.69953,-0.05582,0.04792,0.05195,-0.00215,0.04855,-0.01531,0.02025,0.96282,4.42952,1.69815,2.75355,2.78143,-8.36398,6.21719,4.38785,-8.38063,6.20838,2.76032,2.76032,A,142325.20
4.44393,57.68821811,11.98120943,57.68821800,11.98120933,14:23:25.349478,0.00506,1.69953,1.69953,-0.05473,0.04905,0.05851,-0.01375,0.04977,-0.07412,0.02574,0.97600,4.43830,1.69843,2.75070,2.77923,-8.37502,6.22059,4.38785,-8.38063,6.20838,2.76032,2.76032,A,142325.20
4.45451,57.68821815,11.98120921,57.68821800,11.98120933,14:23:25.360053,0.00518,1.69953,1.69953,-0.05333,0.05072,0.07470,-0.00642,0.05573,-0.11822,0.03087,0.96478,4.44860,1.69865,2.74824,2.77775,-8.38817,6.22486,4.38785,-8.38063,6.20838,2.76032,2.76032,A,142325.20
4.46535,57.68821819,11.98120899,57.68821800,11.98120933,14:23:25.370911,0.00562,1.69953,1.69953,-0.05295,0.05264,0.07394,0.00442,0.05282,-0.05856,-0.03514,0.98070,4.45928,1.69882,2.74601,2.77664,-8.40080,6.22899,4.38785,-8.38063,6.20838,2.76032,2.76032,A,142325.20
4.47526,57.68821822,11.98120880,57.68821800,11.98120933,14:23:25.380807,0.00513,1.69953,1.69953,-0.05297,0.05451,0.08188,0.00274,0.05512,-0.05331,-0.06588,1.01620,4.46937,1.69896,2.74395,2.77566,-8.41234,6.23275,4.38785,-8.38063,6.20838,2.76032,2.76032,A,142325.20
4.48669,57.68821826,11.98120859,57.68821800,11.98120933,14:23:25.392232,0.00539,1.69953,1.69953,-0.05310,0.05644,0.07837,0.00335,0.06138,-0.05844,-0.07576,1.00449,4.48070,1.69908,2.74211,2.77495,-8.42478,6.23691,4.38785,-8.38063,6.20838,2.76032,2.76032,A,142325.20
4.53976,57.68821829,11.98120841,57.68821883,11.98120783,14:23:25.445331,0.04806,1.69953,1.50000,-0.05177,0.05802,0.07119,-0.00016,0.06367,-0.00177,0.03263,1.03389,4.49119,1.69917,2.74038,2.77414,-8.43519,6.24033,4.50877,-8.46978,6.30105,2.33691,2.33691,A,142325.30
4.55574,57.68821861,11.98120696,57.68821883,11.98120783,14:23:25.461284,0.00565,1.48170,1.48170,-0.04638,0.06394,0.09791,0.00106,0.07405,-0.04154,-0.02885,1.02273,4.55004,1.65567,2.67838,2.71559,-8.52172,6.27601,4.50877,-8.46978,6.30105,2.33691,2.33691,A,142325.30
4.56592,57.68821867,11.98120681,57.68821883,11.98120783,14:23:25.471460,0.00542,1.48170,1.48170,-0.04550,0.06487,0.09852,0.00167,0.07314,-0.02300,-0.00921,0.99686,4.55996,1.62088,2.62213,2.65988,-8.53073,6.28252,4.50877,-8.46978,6.30105,2.33691,2.33691,A,142325.30
4.57597,57.68821873,11.98120667,57.68821883,11.98120783,14:23:25.481506,0.00507,1.48170,1.48170,-0.04449,0.06578,0.10647,0.00640,0.07451,-0.03642,-0.00616,0.94391,4.57033,1.59304,2.57425,2.61253,-8.53899,6.28936,4.50877,-8.46978,6.30105,2.33691,2.33691,A,142325.30
4.58670,57.68821879,11.98120654,57.68821883,11.98120783,14:23:25.492240,0.00537,1.48170,1.48170,-0.04283,0.06665,0.10219,0.01358,0.07619,-0.13389,0.03965,0.96972,4.58060,1.57077,2.53349,2.57228,-8.54663,6.29644,4.50877,-8.46978,6.30105,2.33691,2.33691,A,142325.30
4.59811,57.68821885,11.98120643,57.68821883,11.98120783,14:23:25.503660,0.00639,1.48170,1.48170,-0.04164,0.06739,0.10647,0.02442,0.07359,-0.02672,0.00701,0.90506,4.59120,1.55296,2.49876,2.53799,-8.55331,6.30340,4.50877,-8.46978,6.30105,2.33691,2.33691,A,142325.30
4.60725,57.68821891,11.98120635,57.68821883,11.98120783,14:23:25.512798,0.00513,1.48170,1.48170,-0.04036,0.06793,0.10448,0.01267,0.06962,-0.04996,0.01732,0.94776,4.60136,1.53871,2.46911,2.50865,-8.55781,6.30927,4.50877,-8.46978,6.30105,2.33691,2.33691,A,142325.30
4.66264,57.68821897,11.98120625,57.68821950,11.98120583,14:23:25.568218,0.05011,1.48170,1.50000,-0.03880,0.06827,0.10402,0.00564,0.06901,-0.08632,0.03459,1.00070,4.61197,1.52731,2.44398,2.48372,-8.56354,6.31629,4.62957,-8.58866,6.37518,2.58400,2.58400,A,142325.40
4.67728,57.68821944,11.98120516,57.68821950,11.98120583,14:23:25.582847,0.00779,1.48170,1.48170,-0.03372,0.06835,0.09883,0.00992,0.07970,-0.04624,-0.02342,0.94099,4.66885,1.51818,2.46330,2.50309,-8.62858,6.36852,4.62957,-8.58866,6.37518,2.58400,2.58400,A,142325.40
4.68524,57.68821950,11.98120506,57.68821950,11.98120583,14:23:25.590792,0.00535,1.48170,1.48170,-0.03258,0.06835,0.09104,0.00961,0.08489,-0.05240,0.02239,0.90371,4.67936,1.51089,2.47595,2.51574,-8.63436,6.37462,4.62957,-8.58866,6.37518,2.58400,2.58400,A,142325.40
4.69543,57.68821956,11.98120493,57.68821950,11.98120583,14:23:25.600970,0.00513,1.48170,1.48170,-0.03183,0.06835,0.09272,0.01007,0.08016,-0.03751,0.00024,0.91646,4.68954,1.50505,2.48685,2.52664,-8.64210,6.38190,4.62957,-8.58866,6.37518,2.58400,2.58400,A,142325.40
4.70608,57.68821962,11.98120481,57.68821950,11.98120583,14:23:25.611627,0.00539,1.48170,1.48170,-0.03016,0.06835,0.08967,-0.00001,0.08016,-0.06545,0.05984,0.98356,4.70016,1.50038,2.49611,2.53590,-8.64946,6.38865,4.62957,-8.58866,6.37518,2.58400,2.58400,A,142325.40
4.71606,57.68821968,11.98120470,57.68821950,11.98120583,14:23:25.621609,0.00496,1.48170,1.48170,-0.02925,0.06835,0.08677,-0.00306,0.08031,-0.08009,0.01598,1.03974,4.71042,1.49664,2.50395,2.54373,-8.65604,6.39463,4.62957,-8.58866,6.37518,2.58400,2.58400,A,142325.40
4.72657,57.68821973,11.98120459,57.68821950,11.98120583,14:23:25.632116,0.00520,1.48170,1.48170,-0.02818,0.06835,0.08234,-0.00444,0.07451,-0.06649,0.03209,1.08336,4.72065,1.49365,2.51063,2.55041,-8.66260,6.40043,4.62957,-8.58866,6.37518,2.58400,2.58400,A,142325.40
4.78403,57.68821978,11.98120448,57.68822150,11.98120233,14:23:25.689601,0.05226,1.48170,1.50000,-0.02771,0.06835,0.07760,-0.00123,0.06947,-0.01275,-0.00817,1.04755,4.73123,1.49126,2.51631,2.55610,-8.66895,6.40591,4.75929,-8.79668,6.59757,2.32284,2.32284,A,142325.60
4.80064,57.68822029,11.98120316,57.68822150,11.98120233,14:23:25.706191,0.00710,1.48170,1.48170,-0.02442,0.06835,0.06813,-0.01620,0.07329,-0.04532,-0.04337,0.95191,4.79417,1.48935,2.48593,2.52572,-8.74758,6.46339,4.75929,-8.79668,6.59757,2.32284,2.32284,A,142325.60
4.80929,57.68822040,11.98120299,57.68822150,11.98120233,14:23:25.715256,0.00535,1.48170,1.48170,-0.02349,0.06835,0.05637,-0.01238,0.06840,-0.04197,0.04685,0.99997,4.80340,1.48782,2.45601,2.49579,-8.75774,6.47555,4.75929,-8.79668,6.59757,2.32284,2.32284,A,142325.60
4.81966,57.68822052,11.98120279,57.68822150,11.98120233,14:23:25.725207,0.00533,1.48170,1.48170,-0.02303,0.06835,0.04889,-0.01284,0.06733,-0.09614,0.01891,1.05786,4.81358,1.48660,2.43071,2.47050,-8.76941,6.48898,4.75929,-8.79668,6.59757,2.32284,2.32284,A,142325.60
4.83012,57.68822064,11.98120261,57.68822150,11.98120233,14:23:25.735660,0.00538,1.48170,1.48170,-0.02249,0.06835,0.04752,-0.00490,0.05954,-0.10089,0.02464,1.09629,4.82418,1.48562,2.40919,2.44898,-8.78005,6.50178,4.75929,-8.79668,6.59757,2.32284,2.32284,A,142325.60
4.84048,57.68822075,11.98120244,57.68822150,11.98120233,14:23:25.746019,0.00519,1.48170,1.48170,-0.02183,0.06832,0.04507,-0.00215,0.05389,-0.02898,0.03556,1.11709,4.83482,1.48483,2.39092,2.43069,-8.79019,6.51429,4.75929,-8.79668,6.59757,2.32284,2.32284,A,142325.60
4.85078,57.68822086,11.98120229,57.68822150,11.98120233,14:23:25.756324,0.00527,1.48170,1.48170,-0.02192,0.06804,0.04370,-0.01177,0.04336,-0.00085,-0.01434,1.07110,4.84482,1.48421,2.37538,2.41499,-8.79930,6.52602,4.75929,-8.79668,6.59757,2.32284,2.32284,A,142325.60
4.90521,57.68822096,11.98120214,57.68822217,11.98120067,14:23:25.810781,0.04929,1.48170,1.50000,-0.02181,0.06736,0.04706,-0.02612,0.03648,-0.02080,-0.00445,1.04761,4.85538,1.48371,2.36226,2.40146,-8.80810,6.53753,4.87343,-8.89575,6.67170,2.49917,2.49917,A,142325.70
4.92533,57.68822155,11.98120098,57.68822217,11.98120067,14:23:25.830891,0.00659,1.48170,1.48170,-0.02032,0.06116,0.02324,0.00274,0.05084,-0.02891,0.02324,1.01016,4.91874,1.48330,2.38205,2.41765,-8.87723,6.60337,4.87343,-8.89575,6.67170,2.49917,2.49917,A,142325.70
4.93446,57.68822164,11.98120083,57.68822217,11.98120067,14:23:25.839997,0.00517,1.48170,1.48170,-0.01977,0.06028,0.02079,-0.00337,0.04717,-0.06728,0.04679,1.04896,4.92854,1.48298,2.39485,2.42993,-8.88588,6.61362,4.87343,-8.89575,6.67170,2.49917,2.49917,A,142325.70
4.94484,57.68822174,11.98120067,57.68822217,11.98120067,14:23:25.850627,0.00515,1.65847,1.65847,-0.01894,0.05924,0.02125,-0.00245,0.03603,-0.03745,0.07094,1.10837,4.93922,1.51808,2.40590,2.44037,-8.89558,6.62446,4.87343,-8.89575,6.67170,2.49917,2.49917,A,142325.70
4.95516,57.68822183,11.98120051,57.68822217,11.98120067,14:23:25.860707,0.00508,1.65847,1.65847,-0.01916,0.05819,0.01560,-0.00093,0.02442,0.01434,0.00018,1.05042,4.94930,1.54616,2.41536,2.44922,-8.90474,6.63455,4.87343,-8.89575,6.67170,2.49917,2.49917,A,142325.70
4.96586,57.68822192,11.98120036,57.68822217,11.98120067,14:23:25.871407,0.00538,1.65847,1.65847,-0.01902,0.05714,0.01178,-0.00077,0.01984,-0.02251,0.02623,1.01199,4.95994,1.56862,2.42352,2.45677,-8.91404,6.64450,4.87343,-8.89575,6.67170,2.49917,2.49917,A,142325.70
5.01720,57.68822200,11.98120021,57.68822283,11.98119833,14:23:25.922803,0.04632,1.65847,1.50000,-0.01920,0.05624,0.00827,-0.00429,0.01480,-0.05636,0.00726,1.01504,4.97030,1.58659,2.43051,2.46323,-8.92270,6.65367,4.98723,-9.03443,6.74583,2.65072,2.65072,A,142325.80
5.04000,57.68822255,11.98119895,57.68822283,11.98119833,14:23:25.945566,0.01028,1.65847,1.65847,0.00000,0.05143,0.00155,-0.00933,0.02656,-0.12212,0.02184,1.03749,5.03110,1.65847,2.47030,2.50022,-9.03443,6.74583,4.98723,-9.03443,6.74583,2.65072,2.65072,A,142325.80
5.05551,57.68822298,11.98119797,57.68822283,11.98119833,14:23:25.961040,0.00586,1.65847,1.65847,-0.00018,0.08753,-0.00990,0.00931,0.02595,-0.04642,0.05392,1.07055,5.05014,1.65847,2.49079,2.54177,-9.05592,6.76187,4.98723,-9.03443,6.74583,2.65072,2.65072,A,142325.80
5.06485,57.68822303,11.98119782,57.68822283,11.98119833,14:23:25.970615,0.00480,1.65847,1.65847,-0.00106,0.08640,-0.00731,-0.00108,0.02610,-0.02117,-0.00464,1.06067,5.05949,1.65847,2.50804,2.55836,-9.06469,6.76780,4.98723,-9.03443,6.74583,2.65072,2.65072,A,142325.80
5.07525,57.68822309,11.98119766,57.68822283,11.98119833,14:23:25.980775,0.00481,1.65847,1.65847,-0.00141,0.08538,-0.01632,-0.01040,0.02213,0.01049,0.03703,1.00058,5.06986,1.65847,2.52290,2.57262,-9.07450,6.77417,4.98723,-9.03443,6.74583,2.65072,2.65072,A,142325.80
5.08609,57.68822314,11.98119750,57.68822283,11.98119833,14:23:25.991624,0.00526,1.65847,1.65847,-0.00188,0.08450,-0.01861,-0.02796,0.02030,-0.02257,0.03056,0.96953,5.08025,1.65847,2.53559,2.58480,-9.08391,6.78005,4.98723,-9.03443,6.74583,2.65072,2.65072,A,142325.80
5.11239,57.68822319,11.98119736,57.68822350,11.98119800,14:23:26.018859,0.02117,1.65847,1.65847,-0.00217,0.08371,-0.02227,-0.03834,0.01694,-0.07680,0.04362,0.98057,5.09069,1.65847,2.54640,2.59515,-9.09242,6.78518,5.10867,-9.05425,6.81996,1.83196,1.83196,A,142325.90
5.13084,57.68822344,11.98119667,57.68822350,11.98119800,14:23:26.036365,0.00690,1.65847,1.65847,-0.00393,0.08085,-0.02579,-0.00551,0.01037,-0.13267,-0.01214,1.03987,5.12517,1.65847,2.43544,2.48252,-9.13334,6.81296,5.10867,-9.05425,6.81996,1.83196,1.83196,A,142325.90
5.13937,57.68822350,11.98119660,57.68822350,11.98119800,14:23:26.044905,0.00504,1.65847,1.65847,-0.00439,0.08014,-0.03052,0.00808,0.00976,-0.04063,0.03209,1.03773,5.13359,1.65847,2.33857,2.38523,-9.13754,6.81964,5.10867,-9.05425,6.81996,1.83196,1.83196,A,142325.90
5.14998,57.68822358,11.98119650,57.68822350,11.98119800,14:23:26.055513,0.00525,1.65847,1.65847,-0.00525,0.07949,-0.03296,0.00885,0.01449,-0.10821,0.01092,1.00863,5.14432,1.65847,2.25647,2.30276,-9.14317,6.82889,5.10867,-9.05425,6.81996,1.83196,1.83196,A,142325.90
5.15995,57.68822366,11.98119643,57.68822350,11.98119800,14:23:26.065483,0.00482,1.65847,1.65847,-0.00539,0.07907,-0.03877,0.00793,0.01480,-0.04368,0.06002,0.99094,5.15458,1.65847,2.18669,2.23273,-9.14735,6.83805,5.10867,-9.05425,6.81996,1.83196,1.83196,A,142325.90
5.17028,57.68822375,11.98119638,57.68822350,11.98119800,14:23:26.075808,0.00493,1.65847,1.65847,-0.00551,0.07887,-0.03449,-0.00459,0.01556,-0.06344,0.05752,0.95861,5.16462,1.65847,2.12739,2.17332,-9.15070,6.84741,5.10867,-9.05425,6.81996,1.83196,1.83196,A,142325.90
5.18054,57.68822383,11.98119633,57.68822350,11.98119800,14:23:26.086069,0.00479,1.65847,1.65847,-0.00602,0.07876,-0.03174,-0.01024,0.01510,0.00421,0.03117,0.95642,5.17519,1.65847,2.07702,2.12288,-9.15347,6.85708,5.10867,-9.05425,6.81996,1.83196,1.83196,A,142325.90
5.19097,57.68822392,11.98119630,57.68822350,11.98119800,14:23:26.096504,0.00483,1.65847,1.65847,-0.00686,0.07861,-0.02792,-0.02582,0.01556,-0.05771,0.00555,0.98509,5.18539,1.65847,2.03421,2.07998,-9.15548,6.86654,5.10867,-9.05425,6.81996,1.83196,1.83196,A,142325.90
5.20160,57.68822400,11.98119627,57.68822350,11.98119800,14:23:26.107132,0.00506,1.65847,1.65847,-0.00790,0.07833,-0.03526,-0.03208,0.01480,-0.06832,-0.00165,0.96020,5.19596,1.65847,1.99786,2.04347,-9.15701,6.87602,5.10867,-9.05425,6.81996,1.83196,1.83196,A,142325.90
5.22899,57.68822408,11.98119626,57.68822417,11.98119617,14:23:26.135127,0.02206,1.65847,1.65847,-0.00938,0.07799,-0.04121,-0.01681,0.00594,-0.12633,-0.03056,1.02382,5.20638,1.65847,1.96697,2.01238,-9.15788,6.88497,5.22370,-9.16321,6.89409,2.54422,2.54422,A,142326.00
5.24247,57.68822446,11.98119593,57.68822417,11.98119617,14:23:26.148004,0.00612,1.65847,1.65847,-0.01090,0.07757,-0.04259,0.02000,0.00686,-0.05264,0.02324,1.01510,5.23680,1.65847,2.04952,2.09469,-9.17744,6.92624,5.22370,-9.16321,6.89409,2.54422,2.54422,A,142326.00
5.25406,57.68822454,11.98119584,57.68822417,11.98119617,14:23:26.159603,0.00731,1.65847,1.65847,-0.01179,0.07757,-0.03663,0.01297,0.01235,-0.02141,0.00250,1.00003,5.24651,1.65847,2.11768,2.16284,-9.18275,6.93506,5.22370,-9.16321,6.89409,2.54422,2.54422,A,142326.00
5.26222,57.68822459,11.98119576,57.68822417,11.98119617,14:23:26.167746,0.00492,1.65847,1.65847,-0.01248,0.07757,-0.03541,-0.00566,0.02274,-0.08314,0.01452,0.97838,5.25656,1.65847,2.17547,2.22063,-9.18715,6.94100,5.22370,-9.16321,6.89409,2.54422,2.54422,A,142326.00
5.27459,57.68822466,11.98119565,57.68822417,11.98119617,14:23:26.180126,0.00690,1.65847,1.65847,-0.01342,0.07757,-0.03358,-0.01498,0.02335,-0.05215,-0.00195,0.95715,5.26711,1.65847,2.22481,2.26998,-9.19404,6.94930,5.22370,-9.16321,6.89409,2.54422,2.54422,A,142326.00
5.28360,57.68822472,11.98119555,57.68822417,11.98119617,14:23:26.189128,0.00552,1.65847,1.65847,-0.01387,0.07757,-0.02563,-0.02170,0.02686,-0.08577,0.02257,0.98808,5.27733,1.65847,2.26663,2.31180,-9.19980,6.95522,5.22370,-9.16321,6.89409,2.54422,2.54422,A,142326.00
5.29359,57.68822477,11.98119544,57.68822417,11.98119617,14:23:26.199125,0.00511,1.65847,1.65847,-0.01432,0.07757,-0.01876,-0.01330,0.02243,-0.02806,0.01781,0.97100,5.28794,1.65847,2.30225,2.34741,-9.20640,6.96138,5.22370,-9.16321,6.89409,2.54422,2.54422,A,142326.00
5.30373,57.68822483,11.98119532,57.68822417,11.98119617,14:23:26.209259,0.00485,1.65847,1.65847,-0.01572,0.07757,-0.01586,-0.01910,0.02213,-0.00378,-0.04721,0.99216,5.29836,1.65847,2.33257,2.37773,-9.21348,6.96741,5.22370,-9.16321,6.89409,2.54422,2.54422,A,142326.00
5.31467,57.68822488,11.98119519,57.68822417,11.98119617,14:23:26.220207,0.00536,1.65847,1.65847,-0.01665,0.07757,-0.02273,-0.02215,0.01602,-0.04965,-0.01189,0.97112,5.30905,1.65847,2.35839,2.40355,-9.22111,6.97346,5.22370,-9.16321,6.89409,2.54422,2.54422,A,142326.00
5.35440,57.68822492,11.98119508,57.68822517,11.98119400,14:23:26.259930,0.03478,1.65847,1.65847,-0.01769,0.07757,-0.02029,-0.01910,0.01388,-0.10583,-0.02409,1.00711,5.31909,1.65847,2.38025,2.42541,-9.22755,6.97798,5.34991,-9.29199,7.00528,2.42934,2.42934,A,142326.20
5.37331,57.68822537,11.98119409,57.68822517,11.98119400,14:23:26.278849,0.00664,1.83084,1.83084,-0.01810,0.07757,-0.00257,0.00442,-0.00108,-0.01818,0.01586,1.02419,5.36764,1.69294,2.38529,2.43046,-9.28639,7.02775,5.34991,-9.29199,7.00528,2.42934,2.42934,A,142326.20
5.38215,57.68822542,11.98119395,57.68822517,11.98119400,14:23:26.287685,0.00495,1.83084,1.83084,-0.01860,0.07757,0.00308,0.00259,0.00487,-0.02684,-0.00073,1.00979,5.37647,1.72052,2.38579,2.43095,-9.29496,7.03377,5.34991,-9.29199,7.00528,2.42934,2.42934,A,142326.20
5.39282,57.68822549,11.98119377,57.68822517,11.98119400,14:23:26.298585,0.00522,1.83084,1.83084,-0.01893,0.07757,0.01453,0.00136,0.01037,-0.14036,0.00201,1.01370,5.38705,1.74258,2.38639,2.43155,-9.30533,7.04140,5.34991,-9.29199,7.00528,2.42934,2.42934,A,142326.20
5.40289,57.68822555,11.98119362,57.68822517,11.98119400,14:23:26.308429,0.00507,1.83084,1.83084,-0.01936,0.07757,0.01652,0.00640,0.01403,-0.09614,-0.00476,0.97740,5.39712,1.76023,2.38684,2.43201,-9.31457,7.04811,5.34991,-9.29199,7.00528,2.42934,2.42934,A,142326.20
5.41417,57.68822562,11.98119344,57.68822517,11.98119400,14:23:26.319709,0.00596,1.83084,1.83084,-0.01907,0.07757,0.02980,0.00579,0.01831,-0.02318,0.02989,0.95916,5.40846,1.77435,2.38737,2.43254,-9.32508,7.05597,5.34991,-9.29199,7.00528,2.42934,2.42934,A,142326.20
5.42364,57.68822568,11.98119330,57.68822517,11.98119400,14:23:26.329166,0.00503,1.83084,1.83084,-0.01984,0.07757,0.02995,-0.01040,0.02564,-0.05765,-0.03300,0.94324,5.41827,1.78565,2.38768,2.43284,-9.33328,7.06189,5.34991,-9.29199,7.00528,2.42934,2.42934,A,142326.20
5.43405,57.68822573,11.98119316,57.68822517,11.98119400,14:23:26.339578,0.00490,1.83084,1.83084,-0.02009,0.07757,0.04171,-0.01589,0.02732,-0.03019,-0.01049,0.96929,5.42840,1.79469,2.38801,2.43317,-9.34197,7.06827,5.34991,-9.29199,7.00528,2.42934,2.42934,A,142326.20
5.44432,57.68822579,11.98119301,57.68822517,11.98119400,14:23:26.349853,0.00478,1.83084,1.83084,-0.02015,0.07757,0.04049,-0.01467,0.02671,-0.10815,-0.00079,1.04853,5.43898,1.80192,2.38831,2.43348,-9.35052,7.07459,5.34991,-9.29199,7.00528,2.42934,2.42934,A,142326.20
5.47062,57.68822584,11.98119288,57.68822533,11.98119367,14:23:26.376148,0.02068,1.83084,1.83084,-0.02047,0.07757,0.04630,-0.01009,0.01999,-0.03556,-0.02166,1.06024,5.44917,1.80770,2.38856,2.43373,-9.35856,7.08052,5.46653,-9.31181,7.02381,2.38956,2.38956,A,142326.30
5.48817,57.68822613,11.98119224,57.68822533,11.98119367,14:23:26.393702,0.00673,1.83084,1.83084,-0.01887,0.07757,0.04370,-0.00184,0.00457,0.01476,0.04416,0.96917,5.48198,1.81233,2.38513,2.43030,-9.39638,7.11204,5.46653,-9.31181,7.02381,2.38956,2.38956,A,142326.30
5.49664,57.68822615,11.98119217,57.68822533,11.98119367,14:23:26.402170,0.00481,1.83084,1.83084,-0.01818,0.07757,0.04889,-0.01055,0.01006,-0.03886,0.04941,0.97264,5.49128,1.81603,2.37972,2.42488,-9.40090,7.11517,5.46653,-9.31181,7.02381,2.38956,2.38956,A,142326.30
5.50703,57.68822620,11.98119205,57.68822533,11.98119367,14:23:26.412560,0.00480,1.83084,1.83084,-0.01771,0.07757,0.05637,-0.01635,0.00640,-0.06173,0.02806,0.95447,5.50146,1.81899,2.37532,2.42048,-9.40765,7.12037,5.46653,-9.31181,7.02381,2.38956,2.38956,A,142326.30
5.51768,57.68822625,11.98119195,57.68822533,11.98119367,14:23:26.423218,0.00506,1.83084,1.83084,-0.01729,0.07757,0.05576,-0.01543,0.01113,-0.06637,0.02391,0.94648,5.51204,1.82136,2.37158,2.41674,-9.41403,7.12536,5.46653,-9.31181,7.02381,2.38956,2.38956,A,142326.30
5.52779,57.68822629,11.98119185,57.68822533,11.98119367,14:23:26.433322,0.00477,1.83084,1.83084,-0.01780,0.07745,0.05027,-0.00551,0.00701,-0.02452,-0.03160,0.98027,5.52242,1.82326,2.36838,2.41348,-9.41971,7.12985,5.46653,-9.31181,7.02381,2.38956,2.38956,A,142326.30
5.53838,57.68822633,11.98119176,57.68822533,11.98119367,14:23:26.443916,0.00506,1.83084,1.83084,-0.01881,0.07697,0.05118,-0.00352,-0.00368,-0.06027,-0.06679,0.99961,5.53259,1.82477,2.36571,2.41053,-9.42518,7.13423,5.46653,-9.31181,7.02381,2.38956,2.38956,A,142326.30
5.54867,57.68822637,11.98119167,57.68822533,11.98119367,14:23:26.454197,0.00494,1.83084,1.83084,-0.01883,0.07593,0.03484,-0.00322,-0.00353,0.02233,0.00823,0.96776,5.54330,1.82599,2.36355,2.40775,-9.43050,7.13856,5.46653,-9.31181,7.02381,2.38956,2.38956,A,142326.30
5.55897,57.68822640,11.98119159,57.68822533,11.98119367,14:23:26.464499,0.00484,1.83084,1.83084,-0.01891,0.07443,0.03484,-0.00826,-0.00429,-0.05514,0.00500,1.01309,5.55336,1.82696,2.36180,2.40513,-9.43522,7.14243,5.46653,-9.31181,7.02381,2.38956,2.38956,A,142326.30
5.58623,57.68822644,11.98119151,57.68822550,11.98119267,14:23:26.491766,0.02172,1.83084,1.83084,-0.01855,0.07236,0.03454,-0.00123,-0.00964,-0.10681,0.03190,1.00741,5.56395,1.82773,2.36051,2.40263,-9.44008,7.14650,5.58106,-9.37124,7.04235,2.83935,2.83935,A,142326.40
5.59908,57.68822668,11.98119097,57.68822550,11.98119267,14:23:26.504615,0.00691,1.83084,1.83084,-0.01823,0.06548,0.03270,-0.02109,-0.00475,-0.00823,-0.01068,1.00851,5.59344,1.82835,2.42932,2.46743,-9.47214,7.17364,5.58106,-9.37124,7.04235,2.83935,2.83935,A,142326.40
5.60740,57.68822669,11.98119090,57.68822550,11.98119267,14:23:26.512931,0.00484,1.83084,1.83084,-0.01921,0.06316,0.02659,-0.02383,-0.01040,0.02513,-0.04856,0.97728,5.60201,1.82885,2.48589,2.52265,-9.47596,7.17416,5.58106,-9.37124,7.04235,2.83935,2.83935,A,142326.40
5.61801,57.68822670,11.98119079,57.68822550,11.98119267,14:23:26.523546,0.00490,1.83084,1.83084,-0.01980,0.06044,0.01087,-0.02948,-0.01681,-0.06503,-0.01946,1.03529,5.61237,1.82925,2.53436,2.56954,-9.48283,7.17620,5.58106,-9.37124,7.04235,2.83935,2.83935,A,142326.40
5.62833,57.68822672,11.98119067,57.68822550,11.98119267,14:23:26.533857,0.00481,1.83084,1.83084,-0.01978,0.05776,0.00964,-0.02338,-0.02033,-0.06771,0.02214,0.98722,5.62297,1.82957,2.57577,2.60938,-9.48975,7.17755,5.58106,-9.37124,7.04235,2.83935,2.83935,A,142326.40
5.63892,57.68822672,11.98119056,57.68822550,11.98119267,14:23:26.544457,0.00501,1.83084,1.83084,-0.01979,0.05504,0.00735,-0.01696,-0.02628,-0.09504,0.02147,0.98033,5.63314,1.82982,2.61116,2.64318,-9.49641,7.17820,5.58106,-9.37124,7.04235,2.83935,2.83935,A,142326.40
5.64966,57.68822672,11.98119044,57.68822550,11.98119267,14:23:26.555194,0.00536,1.83084,1.83084,-0.01990,0.05238,-0.00089,-0.00169,-0.02888,-0.09363,0.01934,0.99216,5.64391,1.83002,2.64145,2.67193,-9.50324,7.17853,5.58106,-9.37124,7.04235,2.83935,2.83935,A,142326.40
5.65951,57.68822672,11.98119035,57.68822550,11.98119267,14:23:26.565043,0.00480,1.83084,1.83084,-0.02035,0.05006,-0.00257,-0.00184,-0.03881,-0.04965,-0.00354,1.00766,5.65415,1.83019,2.66734,2.69646,-9.50917,7.17808,5.58106,-9.37124,7.04235,2.83935,2.83935,A,142326.40
5.67015,57.68822672,11.98119023,57.68822550,11.98119267,14:23:26.575688,0.00492,1.83084,1.83084,-0.02066,0.04793,-0.01250,0.00136,-0.04079,-0.05996,0.01238,1.01242,5.66450,1.83032,2.68954,2.71743,-9.51573,7.17771,5.58106,-9.37124,7.04235,2.83935,2.83935,A,142326.40
5.68042,57.68822671,11.98119013,57.68822550,11.98119267,14:23:26.585953,0.00480,1.83084,1.83084,-0.02062,0.04621,-0.01510,-0.00704,-0.03896,-0.03562,0.03611,0.99741,5.67506,1.83042,2.70853,2.73541,-9.52196,7.17702,5.58106,-9.37124,7.04235,2.83935,2.83935,A,142326.40
5.70683,57.68822670,11.98119003,57.68822550,11.98119200,14:23:26.612368,0.02082,1.83084,1.83084,-0.02070,0.04491,-0.01220,-0.01253,-0.03896,-0.01031,0.02538,0.94276,5.68524,1.83050,2.72476,2.75088,-9.52786,7.17607,5.70309,-9.41087,7.04235,3.14159,3.14159,A,142326.50
5.71631,57.68822678,11.98118949,57.68822550,11.98119200,14:23:26.621841,0.00484,1.83084,1.83084,-0.02209,0.04312,-0.01006,-0.01146,-0.02689,-0.05033,-0.05520,1.02449,5.71093,1.83057,2.78495,2.81004,-9.55986,7.18497,5.70309,-9.41087,7.04235,3.14159,3.14159,A,142326.50
5.72673,57.68822676,11.98118939,57.68822550,11.98119200,14:23:26.632262,0.00487,1.83084,1.83084,-0.02239,0.04293,-0.02151,-0.01162,-0.02674,-0.03819,0.01543,1.03364,5.72110,1.83062,2.83519,2.86016,-9.56619,7.18258,5.70309,-9.41087,7.04235,3.14159,3.14159,A,142326.50
5.73818,57.68822674,11.98118926,57.68822550,11.98119200,14:23:26.643714,0.00532,1.83084,1.83084,-0.02338,0.04293,-0.01846,-0.00917,-0.02552,-0.05685,-0.03550,1.08629,5.73236,1.83067,2.87794,2.90291,-9.57384,7.18003,5.70309,-9.41087,7.04235,3.14159,3.14159,A,142326.50
5.74819,57.68822671,11.98118916,57.68822550,11.98119200,14:23:26.653716,0.00493,1.83084,1.83084,-0.02402,0.04293,-0.02945,0.00518,-0.03239,-0.04105,-0.00268,1.03718,5.74281,1.83070,2.91422,2.93919,-9.57960,7.17653,5.70309,-9.41087,7.04235,3.14159,3.14159,A,142326.50
5.75839,57.68822667,11.98118907,57.68822550,11.98119200,14:23:26.663921,0.00490,1.83084,1.83084,-0.02448,0.04293,-0.02701,0.00182,-0.03911,-0.09986,0.00573,1.00375,5.75276,1.83073,2.94506,2.97003,-9.58507,7.17267,5.70309,-9.41087,7.04235,3.14159,3.14159,A,142326.50
5.76947,57.68822664,11.98118895,57.68822550,11.98119200,14:23:26.675002,0.00558,1.83084,1.83084,-0.02416,0.04293,-0.01907,0.00992,-0.04476,-0.00586,0.05215,0.95935,5.76380,1.83075,2.97132,2.99629,-9.59181,7.16883,5.70309,-9.41087,7.04235,3.14159,3.14159,A,142326.50
5.77915,57.68822660,11.98118888,57.68822550,11.98119200,14:23:26.684678,0.00487,1.83084,1.83084,-0.02410,0.04293,-0.00899,-0.00032,-0.04339,-0.05508,0.02733,0.90768,5.77351,1.83077,2.99357,3.01854,-9.59639,7.16450,5.70309,-9.41087,7.04235,3.14159,3.14159,A,142326.50
5.79019,57.68822656,11.98118877,57.68822550,11.98119200,14:23:26.695729,0.00552,1.83084,1.83084,-0.02465,0.04293,-0.00196,-0.01253,-0.03942,-0.02324,-0.01324,0.89176,5.78451,1.83078,3.01255,3.03752,-9.60259,7.16031,5.70309,-9.41087,7.04235,3.14159,3.14159,A,142326.50
5.80164,57.68822652,11.98118871,57.68822550,11.98119200,14:23:26.707554,0.00657,1.83084,1.83084,-0.02533,0.04293,-0.01067,-0.01757,-0.03590,-0.07845,-0.01879,0.96002,5.79442,1.83079,3.02862,3.05359,-9.60653,7.15582,5.70309,-9.41087,7.04235,3.14159,3.14159,A,142326.50
5.82788,57.68822648,11.98118864,57.68822567,11.98119100,14:23:26.733418,0.02164,1.83084,1.83084,-0.02598,0.04293,-0.01326,-0.01467,-0.02873,-0.09534,-0.01458,0.96990,5.80585,1.83080,3.04227,3.06724,-9.61032,7.15135,5.82410,-9.47030,7.06088,2.83935,2.83935,A,142326.60
5.84591,57.68822648,11.98118783,57.68822567,11.98119100,14:23:26.751442,0.00619,1.53721,1.53721,-0.02548,0.04293,0.00415,0.01984,-0.01575,-0.01647,0.04002,1.08873,5.84010,1.77208,3.00994,3.03492,-9.65878,7.15096,5.82410,-9.47030,7.06088,2.83935,2.83935,A,142326.60
5.85496,57.68822645,11.98118779,57.68822567,11.98119100,14:23:26.760497,0.00485,1.53721,1.53721,-0.02548,0.04293,0.00583,0.01037,-0.01437,-0.07533,0.01068,1.05036,5.84937,1.72511,2.98101,3.00598,-9.66116,7.14772,5.82410,-9.47030,7.06088,2.83935,2.83935,A,142326.60
5.86562,57.68822643,11.98118771,57.68822567,11.98119100,14:23:26.771152,0.00511,1.53721,1.53721,-0.02571,0.04293,0.01117,-0.00337,-0.01575,-0.07131,-0.00872,0.99589,5.85995,1.68753,2.95648,2.98145,-9.66554,7.14527,5.82410,-9.47030,7.06088,2.83935,2.83935,A,142326.60
5.87571,57.68822641,11.98118766,57.68822567,11.98119100,14:23:26.781238,0.00481,1.53721,1.53721,-0.02587,0.04293,0.00644,-0.00994,-0.02048,-0.01897,-0.00128,0.97978,5.87034,1.65746,2.93561,2.96058,-9.66895,7.14318,5.82410,-9.47030,7.06088,2.83935,2.83935,A,142326.60
5.88622,57.68822639,11.98118760,57.68822567,11.98119100,14:23:26.791755,0.00492,1.53721,1.53721,-0.02631,0.04293,0.00552,-0.00917,-0.01819,-0.07052,-0.01775,0.95044,5.88059,1.63341,2.91787,2.94284,-9.67214,7.14147,5.82410,-9.47030,7.06088,2.83935,2.83935,A,142326.60
5.89717,57.68822638,11.98118754,57.68822567,11.98119100,14:23:26.802719,0.00522,1.53721,1.53721,-0.02639,0.04293,0.00583,-0.01040,-0.01468,-0.07283,0.00451,0.93062,5.89155,1.61417,2.90281,2.92778,-9.67563,7.14017,5.82410,-9.47030,7.06088,2.83935,2.83935,A,142326.60
5.90729,57.68822637,11.98118750,57.68822567,11.98119100,14:23:26.812821,0.00493,1.53721,1.53721,-0.02657,0.04293,0.00613,-0.00444,-0.01636,-0.06978,-0.00213,0.93452,5.90160,1.59878,2.88998,2.91495,-9.67823,7.13900,5.82410,-9.47030,7.06088,2.83935,2.83935,A,142326.60
5.91784,57.68822636,11.98118746,57.68822567,11.98119100,14:23:26.823371,0.00509,1.53721,1.53721,-0.02649,0.04293,0.00903,0.00427,-0.01758,-0.09772,0.01171,0.98387,5.91219,1.58647,2.87907,2.90404,-9.68039,7.13799,5.82410,-9.47030,7.06088,2.83935,2.83935,A,142326.60
5.95605,57.68822635,11.98118744,57.68822633,11.98118917,14:23:26.861585,0.03290,1.53721,1.53721,-0.02601,0.04293,0.00796,0.00106,-0.01651,-0.03495,0.04026,1.02029,5.92261,1.57661,2.86979,2.89476,-9.68214,7.13710,5.95053,-9.57927,7.13501,2.54422,2.54422,A,142326.80
5.97186,57.68822649,11.98118649,57.68822633,11.98118917,14:23:26.877391,0.00592,1.53721,1.53721,-0.02486,0.04293,0.01468,-0.01543,-0.01116,0.02422,0.04849,1.00217,5.96646,1.56873,2.81931,2.84428,-9.73813,7.15240,5.95053,-9.57927,7.13501,2.54422,2.54422,A,142326.80
5.98150,57.68822651,11.98118645,57.68822633,11.98118917,14:23:26.887039,0.00516,1.53721,1.53721,-0.02554,0.04293,0.01514,-0.02215,-0.01101,-0.00458,-0.03794,0.95648,5.97582,1.56243,2.77468,2.79965,-9.74094,7.15483,5.95053,-9.57927,7.13501,2.54422,2.54422,A,142326.80
5.99157,57.68822654,11.98118639,57.68822633,11.98118917,14:23:26.897102,0.00483,1.53721,1.53721,-0.02590,0.04293,0.01881,-0.02261,-0.01284,-0.07216,-0.01964,0.90530,5.98619,1.55739,2.73678,2.76175,-9.74446,7.15797,5.95053,-9.57927,7.13501,2.54422,2.54422,A,142326.80
6.00236,57.68822657,11.98118633,57.68822633,11.98118917,14:23:26.907883,0.00510,1.53721,1.53721,-0.02595,0.04295,0.01942,-0.01360,-0.01376,-0.11828,-0.00195,0.89688,5.99654,1.55335,2.70457,2.72955,-9.74796,7.16151,5.95053,-9.57927,7.13501,2.54422,2.54422,A,142326.80
6.01245,57.68822660,11.98118628,57.68822633,11.98118917,14:23:26.917986,0.00480,1.53721,1.53721,-0.02564,0.04304,0.02079,-0.00169,-0.01468,-0.12377,0.01854,0.90341,6.00711,1.55012,2.67717,2.70221,-9.75081,7.16512,5.95053,-9.57927,7.13501,2.54422,2.54422,A,142326.80
6.02320,57.68822664,11.98118623,57.68822633,11.98118917,14:23:26.928728,0.00515,1.53721,1.53721,-0.02624,0.04312,0.02201,0.01511,-0.01407,-0.07613,-0.03849,0.95550,6.01729,1.54754,2.65388,2.67897,-9.75346,7.16889,5.95053,-9.57927,7.13501,2.54422,2.54422,A,142326.80
6.03364,57.68822667,11.98118620,57.68822633,11.98118917,14:23:26.939176,0.00521,1.53721,1.53721,-0.02619,0.04321,0.01377,0.01221,-0.01513,-0.06771,0.00750,1.01894,6.02789,1.54547,2.63407,2.65920,-9.75565,7.17263,5.95053,-9.57927,7.13501,2.54422,2.54422,A,142326.80
6.04410,57.68822671,11.98118616,57.68822633,11.98118917,14:23:26.949632,0.00509,1.53721,1.53721,-0.02606,0.04326,0.01346,0.00992,-0.02292,0.03050,0.01287,1.01236,6.03849,1.54382,2.61723,2.64240,-9.75782,7.17651,5.95053,-9.57927,7.13501,2.54422,2.54422,A,142326.80
6.07038,57.68822674,11.98118614,57.68822533,11.98119033,14:23:26.975911,0.02105,1.53721,1.53721,-0.02566,0.04329,0.00521,-0.00520,-0.01911,-0.02050,0.03928,1.09501,6.04862,1.54250,2.60290,2.62809,-9.75934,7.18013,6.06606,-9.50993,7.02381,5.26999,-1.01319,A,142326.90
6.07985,57.68822682,11.98118584,57.68822533,11.98119033,14:23:26.985382,0.00480,1.53721,1.53721,-0.02491,0.04329,0.00995,-0.02903,-0.02063,-0.11706,0.04843,1.03102,6.07446,1.54144,3.00036,3.02555,-9.77723,7.18944,6.06606,-9.50993,7.02381,5.26999,-1.01319,A,142326.90
6.09027,57.68822676,11.98118586,57.68822533,11.98119033,14:23:26.995799,0.00494,1.53721,1.53721,-0.02500,0.04329,0.00720,-0.02597,-0.02078,-0.08107,0.00366,1.00711,6.08460,1.54059,3.33744,3.36263,-9.77601,7.18257,6.06606,-9.50993,7.02381,5.26999,-1.01319,A,142326.90
6.10054,57.68822667,11.98118588,57.68822533,11.98119033,14:23:27.006065,0.00481,1.53721,1.53721,-0.02465,0.04329,0.00720,-0.01253,-0.01513,-0.09187,0.03300,0.99314,6.09519,1.53992,3.62397,3.64915,-9.77486,7.17190,6.06606,-9.50993,7.02381,5.26999,-1.01319,A,142326.90
6.11097,57.68822654,11.98118592,57.68822533,11.98119033,14:23:27.016501,0.00485,1.53721,1.53721,-0.02554,0.04329,-0.00135,-0.00383,-0.01269,-0.09443,-0.04056,0.94898,6.10537,1.53938,3.86751,3.89269,-9.77238,7.15851,6.06606,-9.50993,7.02381,5.26999,-1.01319,A,142326.90
6.12160,57.68822641,11.98118598,57.68822533,11.98119033,14:23:27.027132,0.00509,1.53721,1.53721,-0.02535,0.04329,-0.00548,0.01175,-0.01223,-0.08613,0.02977,0.96307,6.11596,1.53894,4.07453,4.09971,-9.76843,7.14321,6.06606,-9.50993,7.02381,5.26999,-1.01319,A,142326.90
6.13174,57.68822626,11.98118608,57.68822533,11.98119033,14:23:27.037267,0.00483,1.53721,1.53721,-0.02536,0.04335,-0.00777,0.02336,-0.00765,-0.10535,0.01867,1.00863,6.12636,1.53860,4.25048,4.27569,-9.76253,7.12724,6.06606,-9.50993,7.02381,5.26999,-1.01319,A,142326.90
6.14446,57.68822610,11.98118619,57.68822533,11.98119033,14:23:27.049998,0.00709,1.53721,1.53721,-0.02411,0.04352,-0.00746,0.02152,-0.00948,-0.05264,0.10858,1.04999,6.13800,1.53832,4.40009,4.42541,-9.75601,7.10899,6.06606,-9.50993,7.02381,5.26999,-1.01319,A,142326.90
6.15271,57.68822598,11.98118635,57.68822533,11.98119033,14:23:27.058455,0.00494,1.53721,1.53721,-0.02388,0.04389,-0.00227,0.00854,-0.00307,-0.03898,0.03508,1.09898,6.14735,1.53810,4.52707,4.55260,-9.74639,7.09563,6.06606,-9.50993,7.02381,5.26999,-1.01319,A,142326.90
6.16306,57.68822584,11.98118652,57.68822533,11.98119033,14:23:27.068586,0.00489,1.53721,1.53721,-0.02352,0.04443,-0.00257,-0.00291,-0.00567,0.01885,0.04416,1.08617,6.15741,1.53792,4.63505,4.66089,-9.73649,7.08008,6.06606,-9.50993,7.02381,5.26999,-1.01319,A,142326.90
6.19117,57.68822570,11.98118670,57.68822467,11.98119083,14:23:27.096703,0.02261,1.53721,1.53721,-0.02394,0.04516,-0.01082,-0.02857,-0.01086,0.00152,-0.00415,1.05133,6.16803,1.53778,4.72678,4.75305,-9.72581,7.06477,6.18539,-9.48021,6.94968,5.09367,-1.18952,A,142327.00
6.20520,57.68822526,11.98118694,57.68822467,11.98119083,14:23:27.110742,0.00590,1.53721,1.53721,-0.02487,0.04856,-0.02304,0.00213,-0.00796,-0.04490,0.00354,0.84759,6.19956,1.53766,4.77909,4.80734,-9.71178,7.01598,6.18539,-9.48021,6.94968,5.09367,-1.18952,A,142327.00
6.21462,57.68822513,11.98118715,57.68822467,11.98119083,14:23:27.120146,0.00493,1.53721,1.53721,-0.02544,0.04992,-0.02777,0.00365,-0.00811,-0.06765,-0.00335,0.87681,6.20896,1.53757,4.82234,4.85138,-9.69915,7.00161,6.18539,-9.48021,6.94968,5.09367,-1.18952,A,142327.00
6.22534,57.68822500,11.98118736,57.68822467,11.98119083,14:23:27.130883,0.00526,1.53721,1.53721,-0.02559,0.05150,-0.02273,0.02137,-0.00261,-0.06155,0.02050,0.84009,6.21971,1.53750,4.85904,4.88900,-9.68644,6.98645,6.18539,-9.48021,6.94968,5.09367,-1.18952,A,142327.00
6.23531,57.68822487,11.98118757,57.68822467,11.98119083,14:23:27.140841,0.00483,1.53721,1.53721,-0.02479,0.05314,-0.02304,0.02778,0.00273,-0.05923,0.08009,0.93836,6.22994,1.53744,4.89008,4.92100,-9.67402,6.97279,6.18539,-9.48021,6.94968,5.09367,-1.18952,A,142327.00
6.24633,57.68822475,11.98118778,57.68822467,11.98119083,14:23:27.151866,0.00517,1.53721,1.53721,-0.02536,0.05481,-0.01479,0.02733,-0.00017,0.02117,-0.01159,1.04420,6.24046,1.53740,4.91636,4.94825,-9.66169,6.95914,6.18539,-9.48021,6.94968,5.09367,-1.18952,A,142327.00
6.25674,57.68822464,11.98118798,57.68822467,11.98119083,14:23:27.162525,0.00519,1.53721,1.53721,-0.02572,0.05643,-0.02075,0.01297,0.00716,0.00708,0.00732,1.10642,6.25137,1.53736,4.93857,4.97140,-9.64966,6.94640,6.18539,-9.48021,6.94968,5.09367,-1.18952,A,142327.00
6.26681,57.68822454,11.98118817,57.68822467,11.98119083,14:23:27.172340,0.00486,1.65552,1.65552,-0.02532,0.05781,-0.02197,0.00686,0.00899,0.00030,0.06564,1.13631,6.26119,1.56099,4.95730,4.99095,-9.63818,6.93521,6.18539,-9.48021,6.94968,5.09367,-1.18952,A,142327.00
6.27745,57.68822443,11.98118837,57.68822467,11.98119083,14:23:27.182989,0.00511,1.65552,1.65552,-0.02514,0.05917,-0.02304,-0.00169,0.01190,-0.01019,0.05252,1.14162,6.27181,1.57990,4.97317,5.00760,-9.62678,6.92369,6.18539,-9.48021,6.94968,5.09367,-1.18952,A,142327.00
6.30366,57.68822434,11.98118855,57.68822433,11.98119200,14:23:27.209188,0.02092,1.65552,1.65552,-0.02526,0.06039,-0.02289,-0.00795,0.01617,-0.07845,0.02849,1.10227,6.28219,1.59502,4.98655,5.02169,-9.61581,6.91300,6.29960,-9.41087,6.91262,5.79231,-0.49088,A,142327.10
6.31593,57.68822399,11.98118893,57.68822433,11.98119200,14:23:27.221456,0.00656,1.65552,1.65552,-0.02635,0.06327,-0.02624,-0.00016,0.02106,-0.00909,-0.00140,0.89505,6.31051,1.60712,5.10378,5.14060,-9.59332,6.87467,6.29960,-9.41087,6.91262,5.79231,-0.49088,A,142327.10
6.32484,57.68822392,11.98118916,57.68822433,11.98119200,14:23:27.230623,0.00508,1.65552,1.65552,-0.02692,0.06407,-0.01769,-0.00841,0.02030,0.03934,-0.00366,0.80422,6.31945,1.61680,5.20200,5.23929,-9.57967,6.86666,6.29960,-9.41087,6.91262,5.79231,-0.49088,A,142327.10
6.33499,57.68822384,11.98118941,57.68822433,11.98119200,14:23:27.240520,0.00483,1.65552,1.65552,-0.02762,0.06475,-0.02105,-0.01681,0.02671,-0.04758,-0.00958,0.84808,6.32941,1.62455,5.28552,5.32320,-9.56493,6.85812,6.29960,-9.41087,6.91262,5.79231,-0.49088,A,142327.10
6.34736,57.68822377,11.98118966,57.68822433,11.98119200,14:23:27.252910,0.00681,1.65552,1.65552,-0.02730,0.06520,-0.00975,-0.01941,0.02992,-0.07771,0.04288,0.88950,6.33999,1.63074,5.35652,5.39446,-9.54962,6.84998,6.29960,-9.41087,6.91262,5.79231,-0.49088,A,142327.10
6.35808,57.68822373,11.98118989,57.68822433,11.98119200,14:23:27.263618,0.00713,1.65552,1.65552,-0.02736,0.06540,-0.01555,-0.00062,0.02136,-0.09400,0.02623,1.03901,6.35042,1.63570,5.41670,5.45476,-9.53616,6.84509,6.29960,-9.41087,6.91262,5.79231,-0.49088,A,142327.10
6.36634,57.68822369,11.98119011,57.68822433,11.98119200,14:23:27.271873,0.00496,1.65552,1.65552,-0.02788,0.06543,-0.01082,0.00442,0.01785,-0.09565,-0.01128,1.10990,6.36068,1.63966,5.46782,5.50590,-9.52337,6.84135,6.29960,-9.41087,6.91262,5.79231,-0.49088,A,142327.10
6.37775,57.68822363,11.98119038,57.68822433,11.98119200,14:23:27.283285,0.00566,1.65552,1.65552,-0.02779,0.06543,-0.01800,0.01816,0.00762,-0.01074,0.04124,1.15089,6.37208,1.64284,5.51152,5.54960,-9.50738,6.83472,6.29960,-9.41087,6.91262,5.79231,-0.49088,A,142327.10
6.38924,57.68822358,11.98119064,57.68822433,11.98119200,14:23:27.294774,0.00674,1.65552,1.65552,-0.02766,0.06543,-0.01372,0.00442,0.01266,-0.01885,0.04026,1.14509,6.38360,1.64537,5.54868,5.58676,-9.49160,6.82873,6.29960,-9.41087,6.91262,5.79231,-0.49088,A,142327.10
6.39801,57.68822355,11.98119085,57.68822433,11.98119200,14:23:27.303543,0.00496,1.65552,1.65552,-0.02799,0.06543,-0.00929,-0.00291,0.01831,0.01952,0.00061,1.07305,6.39232,1.64740,5.58006,5.61814,-9.47925,6.82597,6.29960,-9.41087,6.91262,5.79231,-0.49088,A,142327.10
6.42773,57.68822352,11.98119108,57.68822417,11.98119267,14:23:27.333284,0.02428,1.65552,1.65552,-0.02757,0.06543,-0.00975,-0.01910,0.01999,-0.07424,0.05392,1.01431,6.40292,1.64903,5.60687,5.64495,-9.46536,6.82210,6.42192,-9.37124,6.89409,5.84571,-0.43748,A,142327.20
6.44022,57.68822331,11.98119177,57.68822417,11.98119267,14:23:27.345758,0.00711,1.65552,1.65552,-0.02788,0.06543,0.01239,-0.01910,0.02870,-0.03977,-0.02196,0.88163,6.43331,1.65033,5.63927,5.67735,-9.42462,6.79897,6.42192,-9.37124,6.89409,5.84571,-0.43748,A,142327.20
6.44844,57.68822330,11.98119195,57.68822417,11.98119267,14:23:27.353965,0.00493,1.65552,1.65552,-0.02817,0.06543,0.00705,-0.01467,0.02839,-0.09717,-0.00415,0.91964,6.44308,1.65137,5.66504,5.70312,-9.41363,6.79796,6.42192,-9.37124,6.89409,5.84571,-0.43748,A,142327.20
6.45877,57.68822328,11.98119217,57.68822417,11.98119267,14:23:27.364297,0.00486,1.65552,1.65552,-0.02788,0.06543,0.00659,0.00824,0.02656,-0.10492,0.03276,0.98466,6.45313,1.65220,5.68709,5.72517,-9.40063,6.79563,6.42192,-9.37124,6.89409,5.84571,-0.43748,A,142327.20
6.46948,57.68822326,11.98119239,57.68822417,11.98119267,14:23:27.375012,0.00512,1.65552,1.65552,-0.02866,0.06543,0.01422,0.02442,0.01892,-0.09357,-0.04404,1.00113,6.46382,1.65286,5.70586,5.74394,-9.38763,6.79336,6.42192,-9.37124,6.89409,5.84571,-0.43748,A,142327.20
6.47956,57.68822325,11.98119259,57.68822417,11.98119267,14:23:27.385091,0.00480,1.65552,1.65552,-0.02888,0.06543,0.00537,0.03130,0.01724,-0.05398,-0.00085,0.99101,6.47419,1.65340,5.72179,5.75987,-9.37561,6.79169,6.42192,-9.37124,6.89409,5.84571,-0.43748,A,142327.20
6.49020,57.68822323,11.98119279,57.68822417,11.98119267,14:23:27.395732,0.00491,1.65552,1.65552,-0.02845,0.06543,0.01560,0.02015,0.01602,0.04910,0.03599,1.01449,6.48458,1.65382,5.73536,5.77344,-9.36368,6.79005,6.42192,-9.37124,6.89409,5.84571,-0.43748,A,142327.20
6.50051,57.68822322,11.98119298,57.68822417,11.98119267,14:23:27.406042,0.00482,1.65552,1.65552,-0.02791,0.06543,0.01926,0.00350,0.01312,0.01452,0.03953,0.98924,6.49513,1.65416,5.74688,5.78496,-9.35237,6.78872,6.42192,-9.37124,6.89409,5.84571,-0.43748,A,142327.20
6.51093,57.68822321,11.98119316,57.68822417,11.98119267,14:23:27.416461,0.00485,1.65552,1.65552,-0.02749,0.06543,0.02889,-0.01666,0.01526,-0.01836,0.02690,1.00351,6.50532,1.65443,5.75667,5.79474,-9.34171,6.78768,6.42192,-9.37124,6.89409,5.84571,-0.43748,A,142327.20
6.52159,57.68822320,11.98119334,57.68822417,11.98119267,14:23:27.427126,0.00511,1.65552,1.65552,-0.02709,0.06543,0.03484,-0.02383,0.01495,-0.06686,0.02141,1.01150,6.51593,1.65465,5.76500,5.80308,-9.33126,6.78666,6.42192,-9.37124,6.89409,5.84571,-0.43748,A,142327.20
6.55857,57.68822319,11.98119350,57.68822417,11.98119100,14:23:27.464097,0.03168,1.65552,1.65552,-0.02705,0.06543,0.02553,-0.02353,0.01449,-0.07723,0.00372,1.03737,6.52630,1.65483,5.77206,5.81014,-9.32167,6.78600,6.55484,-9.47030,6.89409,3.14159,3.14159,A,142327.40
6.56814,57.68822302,11.98119419,57.68822417,11.98119100,14:23:27.473672,0.00493,1.65552,1.65552,-0.02613,0.06543,0.02629,0.00365,0.00961,-0.07381,0.01739,1.02742,6.56275,1.65497,5.37455,5.41263,-9.28057,6.76656,6.55484,-9.47030,6.89409,3.14159,3.14159,A,142327.40
6.57838,57.68822299,11.98119417,57.68822417,11.98119100,14:23:27.483906,0.00493,1.65552,1.65552,-0.02623,0.06543,0.02522,0.01938,0.00472,-0.05472,-0.00360,1.03066,6.57272,1.65508,5.03455,5.07263,-9.28178,6.76312,6.55484,-9.47030,6.89409,3.14159,3.14159,A,142327.40
6.58864,57.68822294,11.98119409,57.68822417,11.98119100,14:23:27.494172,0.00480,1.65552,1.65552,-0.02624,0.06543,0.02018,0.01221,0.00243,-0.02294,0.00543,0.97002,6.58329,1.65517,4.74558,4.78366,-9.28649,6.75715,6.55484,-9.47030,6.89409,3.14159,3.14159,A,142327.40
6.59918,57.68822287,11.98119395,57.68822417,11.98119100,14:23:27.504707,0.00494,1.65552,1.65552,-0.02560,0.06543,0.01682,0.00274,-0.00276,0.05295,0.04953,0.95422,6.59347,1.65524,4.49997,4.53805,-9.29470,6.75028,6.55484,-9.47030,6.89409,3.14159,3.14159,A,142327.40
6.60971,57.68822282,11.98119377,57.68822417,11.98119100,14:23:27.515239,0.00508,1.65552,1.65552,-0.02587,0.06543,0.02049,-0.01910,-0.00108,-0.05411,-0.01049,0.96813,6.60406,1.65530,4.29118,4.32926,-9.30579,6.74435,6.55484,-9.47030,6.89409,3.14159,3.14159,A,142327.40
6.61977,57.68822278,11.98119355,57.68822417,11.98119100,14:23:27.525299,0.00474,1.65552,1.65552,-0.02507,0.06543,0.01361,-0.01696,-0.00215,-0.05862,0.06344,0.98814,6.61442,1.65534,4.11369,4.15177,-9.31890,6.73972,6.55484,-9.47030,6.89409,3.14159,3.14159,A,142327.40
6.63031,57.68822275,11.98119330,57.68822417,11.98119100,14:23:27.535843,0.00493,1.65552,1.65552,-0.02542,0.06543,0.01255,-0.00856,-0.00078,-0.13365,-0.01110,1.03541,6.62467,1.65538,3.96285,4.00093,-9.33356,6.73614,6.55484,-9.47030,6.89409,3.14159,3.14159,A,142327.40
6.64077,57.68822272,11.98119303,57.68822417,11.98119100,14:23:27.546626,0.00499,1.65552,1.65552,-0.02549,0.06543,0.00552,0.01236,-0.00887,-0.09083,0.01183,1.01846,6.63538,1.65541,3.83464,3.87272,-9.34930,6.73372,6.55484,-9.47030,6.89409,3.14159,3.14159,A,142327.40
6.65100,57.68822272,11.98119277,57.68822417,11.98119100,14:23:27.556530,0.00482,1.65552,1.65552,-0.02546,0.06540,0.00430,0.02106,-0.01300,-0.02617,0.01982,0.99589,6.64541,1.65543,3.72563,3.76370,-9.36499,6.73309,6.55484,-9.47030,6.89409,3.14159,3.14159,A,142327.40
6.67683,57.68822272,11.98119250,57.68822450,11.98119000,14:23:27.582606,0.02026,1.65552,1.65552,-0.02581,0.06514,-0.01113,0.01282,-0.01361,-0.12011,0.00494,1.01522,6.65600,1.65545,3.63303,3.67094,-9.38124,6.73326,6.67382,-9.52974,6.93115,2.58400,2.58400,A,142327.50
6.68772,57.68822264,11.98119183,57.68822450,11.98119000,14:23:27.593251,0.00497,1.81715,1.81715,-0.02595,0.06342,-0.01708,0.00030,-0.01773,-0.02483,0.04130,0.93794,6.68232,1.68779,3.47204,3.50894,-9.42096,6.72426,6.67382,-9.52974,6.93115,2.58400,2.58400,A,142327.50
6.69821,57.68822269,11.98119153,57.68822450,11.98119000,14:23:27.603743,0.00491,1.81715,1.81715,-0.02630,0.06260,-0.01815,-0.01589,-0.01009,-0.05209,0.01141,0.95758,6.69257,1.71366,3.33403,3.37046,-9.43903,6.72974,6.67382,-9.52974,6.93115,2.58400,2.58400,A,142327.50
6.71022,57.68822275,11.98119120,57.68822450,11.98119000,14:23:27.615749,0.00652,1.81715,1.81715,-0.02616,0.06186,-0.01922,-0.02154,-0.00170,-0.07527,0.04654,1.03981,6.70395,1.73436,3.21687,3.25287,-9.45837,6.73637,6.67382,-9.52974,6.93115,2.58400,2.58400,A,142327.50
6.71894,57.68822282,11.98119095,57.68822450,11.98119000,14:23:27.624467,0.00483,1.81715,1.81715,-0.02644,0.06138,-0.01525,-0.01482,-0.00108,-0.06411,0.01287,1.04706,6.71333,1.75092,3.11711,3.15283,-9.47294,6.74488,6.67382,-9.52974,6.93115,2.58400,2.58400,A,142327.50
6.72964,57.68822291,11.98119067,57.68822450,11.98119000,14:23:27.635168,0.00519,1.81715,1.81715,-0.02679,0.06095,-0.01968,0.00030,0.00060,-0.06082,0.01122,1.04395,6.72392,1.76416,3.03251,3.06798,-9.49003,6.75403,6.67382,-9.52974,6.93115,2.58400,2.58400,A,142327.50
6.73978,57.68822300,11.98119040,57.68822450,11.98119000,14:23:27.645314,0.00495,1.81715,1.81715,-0.02724,0.06064,-0.02273,0.00656,-0.00567,-0.04459,0.00653,1.04334,6.73442,1.77476,2.96061,2.99590,-9.50604,6.76392,6.67382,-9.52974,6.93115,2.58400,2.58400,A,142327.50
6.75014,57.68822309,11.98119015,57.68822450,11.98119000,14:23:27.655672,0.00499,1.81715,1.81715,-0.02747,0.06050,-0.02777,0.01129,-0.00735,-0.03934,0.02300,0.97685,6.74446,1.78324,2.89949,2.93470,-9.52102,6.77430,6.67382,-9.52974,6.93115,2.58400,2.58400,A,142327.50
6.76119,57.68822319,11.98118990,57.68822450,11.98119000,14:23:27.666739,0.00573,1.81715,1.81715,-0.02756,0.06050,-0.03617,0.00747,-0.01254,-0.08662,0.03892,0.95929,6.75510,1.79002,2.84757,2.88278,-9.53563,6.78512,6.67382,-9.52974,6.93115,2.58400,2.58400,A,142327.50
6.77060,57.68822328,11.98118969,57.68822450,11.98119000,14:23:27.676136,0.00491,1.81715,1.81715,-0.02771,0.06050,-0.02930,0.01022,-0.01407,0.02135,0.02855,0.93971,6.76496,1.79545,2.80336,2.83857,-9.54783,6.79573,6.67382,-9.52974,6.93115,2.58400,2.58400,A,142327.50
6.79847,57.68822338,11.98118948,57.68822483,11.98118950,14:23:27.703996,0.02239,1.81715,1.81715,-0.02764,0.06050,-0.02350,0.00060,-0.01422,-0.03453,0.03928,0.92263,6.77552,1.79979,2.76586,2.80107,-9.56077,6.80683,6.79252,-9.55946,6.96822,2.24663,2.24663,A,142327.60
6.81039,57.68822360,11.98118873,57.68822483,11.98118950,14:23:27.715922,0.00654,1.81715,1.81715,-0.02863,0.06050,-0.02212,0.00671,-0.01162,-0.10053,-0.00439,1.03340,6.80469,1.80326,2.68490,2.72011,-9.60489,6.83056,6.79252,-9.55946,6.96822,2.24663,2.24663,A,142327.60
6.81907,57.68822370,11.98118859,57.68822483,11.98118950,14:23:27.724599,0.00482,1.81715,1.81715,-0.02882,0.06050,-0.02472,0.01099,-0.01009,-0.09809,0.02074,1.05030,6.81349,1.80604,2.61444,2.64964,-9.61339,6.84227,6.79252,-9.55946,6.96822,2.24663,2.24663,A,142327.60
6.82990,57.68822382,11.98118841,57.68822483,11.98118950,14:23:27.735425,0.00508,1.81715,1.81715,-0.02910,0.06050,-0.01953,0.01740,-0.00597,-0.12084,0.01440,1.07817,6.82425,1.80826,2.55469,2.58990,-9.62396,6.85568,6.79252,-9.55946,6.96822,2.24663,2.24663,A,142327.60
6.84022,57.68822394,11.98118826,57.68822483,11.98118950,14:23:27.745756,0.00501,1.81715,1.81715,-0.02988,0.06050,-0.01357,0.02992,-0.00261,-0.02208,-0.02818,1.09733,6.83486,1.81004,2.50389,2.53910,-9.63326,6.86901,6.79252,-9.55946,6.96822,2.24663,2.24663,A,142327.60
6.85054,57.68822406,11.98118813,57.68822483,11.98118950,14:23:27.756074,0.00511,1.81715,1.81715,-0.03038,0.06050,-0.01861,0.01648,-0.00368,-0.03062,-0.00458,1.06585,6.84473,1.81146,2.46068,2.49589,-9.64104,6.88186,6.79252,-9.55946,6.96822,2.24663,2.24663,A,142327.60
6.86176,57.68822418,11.98118798,57.68822483,11.98118950,14:23:27.767295,0.00525,1.81715,1.81715,-0.03050,0.06050,-0.02182,-0.00276,-0.00490,-0.00445,0.02580,1.01675,6.85608,1.81260,2.42403,2.45924,-9.64951,6.89564,6.79252,-9.55946,6.96822,2.24663,2.24663,A,142327.60
6.87169,57.68822429,11.98118788,57.68822483,11.98118950,14:23:27.777214,0.00478,1.81715,1.81715,-0.03051,0.06050,-0.01464,-0.01941,-0.01086,-0.00854,0.02599,0.96606,6.86632,1.81351,2.39280,2.42801,-9.65591,6.90812,6.79252,-9.55946,6.96822,2.24663,2.24663,A,142327.60
6.88221,57.68822441,11.98118777,57.68822483,11.98118950,14:23:27.787736,0.00490,1.81715,1.81715,-0.03052,0.06044,-0.01082,-0.02780,-0.01055,-0.01391,0.02294,0.87809,6.87656,1.81424,2.36629,2.40146,-9.66211,6.92067,6.79252,-9.55946,6.96822,2.24663,2.24663,A,142327.60
6.90832,57.68822452,11.98118767,57.68822500,11.98118967,14:23:27.813847,0.02062,1.81715,1.81715,-0.03120,0.06022,-0.00181,-0.02750,-0.01483,-0.04160,-0.02153,0.87742,6.88729,1.81482,2.34379,2.37883,-9.66803,6.93314,6.90424,-9.54955,6.98675,1.07991,1.07991,A,142327.70
6.92040,57.68822482,11.98118723,57.68822500,11.98118967,14:23:27.825931,0.00502,1.81715,1.81715,-0.03122,0.05914,-0.00639,-0.01528,-0.01620,-0.14719,0.02629,0.94276,6.91500,1.81529,2.15114,2.18556,-9.69445,6.96674,6.90424,-9.54955,6.98675,1.07991,1.07991,A,142327.70
6.93266,57.68822495,11.98118719,57.68822500,11.98118967,14:23:27.838192,0.00706,1.81715,1.81715,-0.03019,0.05886,-0.01067,0.00610,-0.01116,-0.07540,0.08997,0.96130,6.92660,1.81566,1.98610,2.02035,-9.69697,6.98156,6.90424,-9.54955,6.98675,1.07991,1.07991,A,142327.70
6.94082,57.68822505,11.98118723,57.68822500,11.98118967,14:23:27.846585,0.00481,1.81715,1.81715,-0.03034,0.05875,-0.00166,0.01908,-0.01055,-0.13859,0.00756,1.03206,6.93547,1.81596,1.84555,1.87973,-9.69440,6.99177,6.90424,-9.54955,6.98675,1.07991,1.07991,A,142327.70
6.95120,57.68822517,11.98118727,57.68822500,11.98118967,14:23:27.856731,0.00481,1.81715,1.81715,-0.03070,0.05875,0.00079,0.03389,-0.00597,-0.01128,-0.01031,1.13600,6.94583,1.81620,1.72625,1.76044,-9.69167,7.00567,6.90424,-9.54955,6.98675,1.07991,1.07991,A,142327.70
6.96188,57.68822529,11.98118735,57.68822500,11.98118967,14:23:27.867417,0.00509,1.81715,1.81715,-0.03033,0.05875,-0.00654,0.01389,-0.00903,0.01745,0.04923,1.11325,6.95623,1.81639,1.62485,1.65904,-9.68737,7.01933,6.90424,-9.54955,6.98675,1.07991,1.07991,A,142327.70
6.97202,57.68822541,11.98118744,57.68822500,11.98118967,14:23:27.877554,0.00484,1.81715,1.81715,-0.03023,0.05875,-0.00105,-0.00077,-0.01345,-0.00152,0.02470,1.11685,6.96666,1.81654,1.53864,1.57283,-9.68175,7.03209,6.90424,-9.54955,6.98675,1.07991,1.07991,A,142327.70
6.98236,57.68822552,11.98118755,57.68822500,11.98118967,14:23:27.887892,0.00494,1.81715,1.81715,-0.03078,0.05875,-0.00242,-0.00948,-0.01269,0.00061,-0.01970,1.06774,6.97670,1.81666,1.46536,1.49954,-9.67517,7.04410,6.90424,-9.54955,6.98675,1.07991,1.07991,A,142327.70
6.99261,57.68822562,11.98118768,57.68822500,11.98118967,14:23:27.898145,0.00480,1.81715,1.81715,-0.03036,0.05875,-0.00181,-0.01253,-0.01834,-0.05466,0.04563,0.99326,6.98725,1.81676,1.40308,1.43727,-9.66785,7.05584,6.90424,-9.54955,6.98675,1.07991,1.07991,A,142327.70
7.00303,57.68822572,11.98118781,57.68822500,11.98118967,14:23:27.908563,0.00482,1.81715,1.81715,-0.03112,0.05875,0.00292,-0.01207,-0.01804,-0.00067,-0.03166,0.91439,6.99744,1.81684,1.35016,1.38434,-9.65996,7.06712,6.90424,-9.54955,6.98675,1.07991,1.07991,A,142327.70
7.03033,57.68822582,11.98118795,57.68822567,11.98118833,14:23:27.935859,0.02173,1.81715,1.81715,-0.03168,0.05875,-0.00196,-0.01589,-0.01345,-0.03721,-0.01379,0.84082,7.00803,1.81690,1.30517,1.33936,-9.65169,7.07766,7.02540,-9.62880,7.06088,2.38956,2.38956,A,142327.80
7.04572,57.68822626,11.98118816,57.68822567,11.98118833,14:23:27.951251,0.00754,1.81715,1.81715,-0.03097,0.05875,0.00613,0.01770,-0.00597,-0.12322,0.05173,1.05414,7.03984,1.81695,1.46505,1.49924,-9.63876,7.12685,7.02540,-9.62880,7.06088,2.38956,2.38956,A,142327.80
7.05369,57.68822632,11.98118819,57.68822567,11.98118833,14:23:27.959223,0.00511,1.81715,1.81715,-0.03111,0.05875,0.00552,0.02519,-0.00322,-0.06289,0.00287,1.10703,7.04802,1.81699,1.59907,1.63325,-9.63753,7.13371,7.02540,-9.62880,7.06088,2.38956,2.38956,A,142327.80
7.06378,57.68822642,11.98118818,57.68822567,11.98118833,14:23:27.969310,0.00480,1.81715,1.81715,-0.03097,0.05875,-0.00318,0.02274,-0.00582,-0.00964,0.03001,1.16907,7.05842,1.81702,1.71317,1.74735,-9.63799,7.14441,7.02540,-9.62880,7.06088,2.38956,2.38956,A,142327.80
7.07424,57.68822651,11.98118814,57.68822567,11.98118833,14:23:27.979770,0.00491,1.81715,1.81715,-0.03128,0.05875,-0.00685,0.01236,-0.01223,0.01769,-0.00201,1.11642,7.06859,1.81705,1.81016,1.84435,-9.64008,7.15450,7.02540,-9.62880,7.06088,2.38956,2.38956,A,142327.80
7.08450,57.68822659,11.98118809,57.68822567,11.98118833,14:23:27.990025,0.00477,1.81715,1.81715,-0.03073,0.05875,-0.00334,-0.00505,-0.01697,0.01549,0.05813,1.07464,7.07914,1.81707,1.89262,1.92680,-9.64348,7.16395,7.02540,-9.62880,7.06088,2.38956,2.38956,A,142327.80
7.09494,57.68822667,11.98118801,57.68822567,11.98118833,14:23:28.000470,0.00482,1.81715,1.81715,-0.03023,0.05875,0.00185,-0.01650,-0.01300,-0.00030,0.04782,0.97588,7.08935,1.81708,1.96270,1.99688,-9.64782,7.17245,7.02540,-9.62880,7.06088,2.38956,2.38956,A,142327.80
7.10560,57.68822674,11.98118793,57.68822567,11.98118833,14:23:28.011133,0.00509,1.81715,1.81715,-0.03011,0.05875,0.00399,-0.03636,-0.00338,-0.08778,0.02196,0.91189,7.09994,1.81710,2.02228,2.05646,-9.65300,7.18038,7.02540,-9.62880,7.06088,2.38956,2.38956,A,142327.80
7.11564,57.68822680,11.98118783,57.68822567,11.98118833,14:23:28.021174,0.00488,1.81715,1.81715,-0.03040,0.05875,0.00644,-0.03559,-0.00338,-0.11572,-0.00323,0.85528,7.11026,1.81711,2.07289,2.10708,-9.65845,7.18702,7.02540,-9.62880,7.06088,2.38956,2.38956,A,142327.80
7.14363,57.68822686,11.98118773,57.68822600,11.98118783,14:23:28.049161,0.02234,1.81715,1.81715,-0.03092,0.05875,0.00033,-0.01879,-0.00322,-0.12279,-0.01391,0.88468,7.12055,1.81712,2.11594,2.15012,-9.66446,7.19332,7.13856,-9.65852,7.09794,2.24663,2.24663,A,142327.90
7.15766,57.68822718,11.98118729,57.68822600,11.98118783,14:23:28.063197,0.00703,1.54120,1.54120,-0.03042,0.05875,0.00262,0.02977,0.00945,-0.06387,0.04020,1.02047,7.15129,1.76193,2.13266,2.16684,-9.69104,7.22963,7.13856,-9.65852,7.09794,2.24663,2.24663,A,142327.90
7.16615,57.68822720,11.98118721,57.68822600,11.98118783,14:23:28.071678,0.00497,1.54120,1.54120,-0.03031,0.05875,0.00674,0.02839,0.00915,-0.01128,0.01592,1.06146,7.16046,1.71779,2.14512,2.17930,-9.69543,7.23191,7.13856,-9.65852,7.09794,2.24663,2.24663,A,142327.90
7.17637,57.68822725,11.98118711,57.68822600,11.98118783,14:23:28.081900,0.00479,1.54120,1.54120,-0.03021,0.05875,0.00873,0.00610,0.00930,0.00262,0.01348,1.12094,7.17102,1.68247,2.15585,2.19003,-9.70148,7.23655,7.13856,-9.65852,7.09794,2.24663,2.24663,A,142327.90
7.18698,57.68822728,11.98118701,57.68822600,11.98118783,14:23:28.092514,0.00495,1.54120,1.54120,-0.02946,0.05875,0.00659,-0.01498,0.01678,-0.02928,0.06326,1.10715,7.18129,1.65421,2.16496,2.19914,-9.70722,7.24069,7.13856,-9.65852,7.09794,2.24663,2.24663,A,142327.90
7.19750,57.68822732,11.98118692,57.68822600,11.98118783,14:23:28.103033,0.00507,1.54120,1.54120,-0.02889,0.05877,0.01117,-0.02994,0.01052,-0.01836,0.04618,1.09538,7.19187,1.63161,2.17269,2.20689,-9.71261,7.24432,7.13856,-9.65852,7.09794,2.24663,2.24663,A,142327.90
7.20759,57.68822734,11.98118684,57.68822600,11.98118783,14:23:28.113118,0.00477,1.54120,1.54120,-0.02833,0.05892,0.01636,-0.04552,0.01342,-0.04526,0.04197,1.05597,7.20224,1.61353,2.17923,2.21351,-9.71758,7.24740,7.13856,-9.65852,7.09794,2.24663,2.24663,A,142327.90
7.21822,57.68822737,11.98118676,57.68822600,11.98118783,14:23:28.123749,0.00490,1.54120,1.54120,-0.02877,0.05940,0.01285,-0.03682,0.02091,-0.09754,-0.02220,0.96478,7.21259,1.59906,2.18476,2.21932,-9.72252,7.25046,7.13856,-9.65852,7.09794,2.24663,2.24663,A,142327.90
7.22874,57.68822740,11.98118667,57.68822600,11.98118783,14:23:28.134515,0.00503,1.54120,1.54120,-0.02885,0.06027,0.00751,-0.01727,0.02152,-0.13298,0.00439,0.93068,7.22338,1.58749,2.18939,2.22447,-9.72735,7.25343,7.13856,-9.65852,7.09794,2.24663,2.24663,A,142327.90
7.26765,57.68822742,11.98118660,57.68822633,11.98118817,14:23:28.173180,0.03354,1.54120,1.54120,-0.02905,0.06138,0.00705,0.00640,0.01648,-0.16183,-0.00220,0.89517,7.23350,1.57823,2.19322,2.22894,-9.73174,7.25588,7.26236,-9.63871,7.13501,1.07991,1.07991,A,142328.10
7.27764,57.68822776,11.98118612,57.68822633,11.98118817,14:23:28.183174,0.00527,1.54120,1.54120,-0.02795,0.06545,0.01926,0.02122,0.01938,0.03916,0.04081,1.02773,7.27194,1.57082,2.02312,2.06122,-9.76054,7.29310,7.26236,-9.63871,7.13501,1.07991,1.07991,A,142328.10
7.28765,57.68822778,11.98118612,57.68822633,11.98118817,14:23:28.193183,0.00482,1.54120,1.54120,-0.02731,0.06636,0.01484,-0.00077,0.02228,-0.05331,0.05075,1.06372,7.28228,1.56490,1.87647,1.91510,-9.76023,7.29603,7.26236,-9.63871,7.13501,1.07991,1.07991,A,142328.10
7.29823,57.68822782,11.98118615,57.68822633,11.98118817,14:23:28.203759,0.00491,1.54120,1.54120,-0.02658,0.06715,0.01499,-0.00551,0.02610,-0.06100,0.05893,1.07439,7.29259,1.56016,1.75178,1.79087,-9.75844,7.29992,7.26236,-9.63871,7.13501,1.07991,1.07991,A,142328.10
7.30849,57.68822785,11.98118621,57.68822633,11.98118817,14:23:28.214022,0.00478,1.54120,1.54120,-0.02658,0.06780,0.01911,0.00457,0.02457,-0.09565,0.00470,1.03816,7.30314,1.55637,1.64574,1.68521,-9.75520,7.30399,7.26236,-9.63871,7.13501,1.07991,1.07991,A,142328.10
7.31897,57.68822789,11.98118628,57.68822633,11.98118817,14:23:28.224501,0.00486,1.54120,1.54120,-0.02645,0.06820,0.01590,0.01144,0.02503,-0.02861,0.01562,0.98515,7.31334,1.55333,1.55557,1.59527,-9.75080,7.30792,7.26236,-9.63871,7.13501,1.07991,1.07991,A,142328.10
7.32981,57.68822793,11.98118637,57.68822633,11.98118817,14:23:28.235340,0.00531,1.54120,1.54120,-0.02637,0.06831,0.01774,0.02305,0.02732,-0.01403,0.01159,0.92110,7.32417,1.55091,1.47895,1.51871,-9.74552,7.31227,7.26236,-9.63871,7.13501,1.07991,1.07991,A,142328.10
7.33973,57.68822796,11.98118647,57.68822633,11.98118817,14:23:28.245259,0.00483,1.54120,1.54120,-0.02620,0.06831,0.01636,0.01373,0.02366,-0.05819,0.01812,0.94086,7.33436,1.54896,1.41376,1.45353,-9.73955,7.31538,7.26236,-9.63871,7.13501,1.07991,1.07991,A,142328.10
7.35033,57.68822799,11.98118658,57.68822633,11.98118817,14:23:28.255859,0.00491,1.54120,1.54120,-0.02636,0.06831,0.01545,0.01633,0.02075,-0.06551,-0.00189,0.97472,7.34470,1.54741,1.35839,1.39815,-9.73303,7.31888,7.26236,-9.63871,7.13501,1.07991,1.07991,A,142328.10
7.36064,57.68822802,11.98118669,57.68822633,11.98118817,14:23:28.266173,0.00483,1.54120,1.54120,-0.02551,0.06831,0.01774,0.01770,0.01495,-0.00775,0.06222,0.99558,7.35528,1.54617,1.31132,1.35109,-9.72616,7.32206,7.26236,-9.63871,7.13501,1.07991,1.07991,A,142328.10
7.38584,57.68822804,11.98118681,57.68822683,11.98118800,14:23:28.291367,0.01962,1.54120,1.54120,-0.02547,0.06831,0.01972,-0.00016,0.01877,-0.02836,0.00830,1.06006,7.36546,1.54517,1.27132,1.31108,-9.71903,7.32507,7.38264,-9.64862,7.19061,1.74712,1.74712,A,142328.20
7.39654,57.68822828,11.98118702,57.68822683,11.98118800,14:23:28.302068,0.00497,1.54120,1.54120,-0.02521,0.06831,0.01881,-0.02948,0.01297,-0.04581,0.00458,1.05445,7.39115,1.54438,1.33857,1.37834,-9.70658,7.35195,7.38264,-9.64862,7.19061,1.74712,1.74712,A,142328.20
7.40798,57.68822834,11.98118712,57.68822683,11.98118800,14:23:28.313511,0.00590,1.54120,1.54120,-0.02441,0.06831,0.02156,-0.01956,0.01235,-0.09083,0.05557,0.98448,7.40258,1.54374,1.39464,1.43441,-9.70097,7.35776,7.38264,-9.64862,7.19061,1.74712,1.74712,A,142328.20
7.41944,57.68822839,11.98118719,57.68822683,11.98118800,14:23:28.324970,0.00697,1.54120,1.54120,-0.02450,0.06831,0.03301,-0.01864,0.02503,-0.04483,-0.00823,0.97307,7.41348,1.54323,1.44230,1.48207,-9.69644,7.36340,7.38264,-9.64862,7.19061,1.74712,1.74712,A,142328.20
7.42795,57.68822839,11.98118725,57.68822683,11.98118800,14:23:28.333484,0.00509,1.54120,1.54120,-0.02461,0.06831,0.03072,-0.01360,0.02778,-0.08211,-0.00378,0.93373,7.42230,1.54283,1.48256,1.52233,-9.69321,7.36419,7.38264,-9.64862,7.19061,1.74712,1.74712,A,142328.20
7.43820,57.68822842,11.98118730,57.68822683,11.98118800,14:23:28.343729,0.00489,1.54120,1.54120,-0.02497,0.06831,0.03240,-0.00383,0.01907,-0.12340,-0.02159,0.89475,7.43258,1.54250,1.51692,1.55669,-9.69039,7.36754,7.38264,-9.64862,7.19061,1.74712,1.74712,A,142328.20
7.44955,57.68822846,11.98118733,57.68822683,11.98118800,14:23:28.355087,0.00585,1.54120,1.54120,-0.02491,0.06831,0.02827,0.00472,0.01617,-0.07277,0.00421,0.93885,7.44324,1.54224,1.54620,1.58596,-9.68812,7.37196,7.38264,-9.64862,7.19061,1.74712,1.74712,A,142328.20
7.45906,57.68822848,11.98118736,57.68822683,11.98118800,14:23:28.364594,0.00496,1.54120,1.54120,-0.02449,0.06831,0.03072,0.00900,0.01220,-0.07399,0.02714,0.98314,7.45348,1.54203,1.57097,1.61074,-9.68631,7.37421,7.38264,-9.64862,7.19061,1.74712,1.74712,A,142328.20
7.46960,57.68822851,11.98118739,57.68822683,11.98118800,14:23:28.375128,0.00509,1.54120,1.54120,-0.02428,0.06831,0.03087,0.01343,0.00487,-0.04288,0.01269,1.00943,7.46394,1.54187,1.59209,1.63185,-9.68493,7.37744,7.38264,-9.64862,7.19061,1.74712,1.74712,A,142328.20
7.47972,57.68822854,11.98118741,57.68822683,11.98118800,14:23:28.385250,0.00482,1.54120,1.54120,-0.02395,0.06831,0.03393,0.01037,0.00121,0.00750,0.01970,1.00321,7.47435,1.54173,1.61003,1.64980,-9.68386,7.38032,7.38264,-9.64862,7.19061,1.74712,1.74712,A,142328.20
7.50562,57.68822857,11.98118742,57.68822667,11.98118767,14:23:28.411942,0.02031,1.54120,1.54120,-0.02357,0.06831,0.03255,-0.00123,-0.00307,-0.04191,0.02470,1.08269,7.48459,1.54163,1.62529,1.66505,-9.68307,7.38319,7.50176,-9.66843,7.17207,3.89363,-2.38956,A,142328.30
7.52180,57.68822884,11.98118737,57.68822667,11.98118767,14:23:28.427340,0.00706,1.54120,1.54120,-0.02290,0.06831,0.04187,-0.01543,0.00136,-0.08058,-0.01897,1.04517,7.51502,1.54154,1.96179,2.00155,-9.68626,7.41404,7.50176,-9.66843,7.17207,3.89363,-2.38956,A,142328.30
