Time,lat_estimated,lon_estimated,latitude,longitude,RealTime,CalculationTime,MeasuredVelocity,FilteredVelocity,Roll,SteeringAngle,RollRate,gy,gz,ax,ay,az,imu_read_timing,v_estimated,yaw_estimated,heading_estimated,x_estimated,y_estimated,GPS_timestamp,x_GPS,y_GPS,theta_GPS,theta_GPS_noUnwrap,status,NMEA timestamp
0.05931,57.68814617,11.97962467,57.68814617,11.97962467,15:09:59.720441,0.05927,0.00000,1.50000,-0.00222,0.02000,-0.00153,0.00085,0.00021,-0.05197,-0.11578,0.99277,0.00001,0.00000,0.00000,0.00000,0.00000,0.00000,0.01497,0.00000,0.00000,0.00000,0.00000,A,150959.60
0.08077,57.68814617,11.97962467,57.68814617,11.97962467,15:09:59.742092,0.00721,0.00000,0.00000,-0.00430,0.00000,0.00152,0.00268,-0.00024,-0.04880,-0.11669,0.99320,0.07483,0.00000,0.00000,0.00000,0.00000,0.00000,0.01497,0.00000,0.00000,0.00000,0.00000,A,150959.60
0.09143,57.68814617,11.97962467,57.68814617,11.97962467,15:09:59.752801,0.00748,0.00000,0.00000,-0.00644,0.00000,-0.00214,-0.00190,0.00388,-0.05203,-0.11352,0.99076,0.08527,0.00000,0.00000,0.00000,0.00000,0.00000,0.01497,0.00000,0.00000,0.00000,0.00000,A,150959.60
0.10014,57.68814617,11.97962467,57.68814617,11.97962467,15:09:59.761218,0.00577,0.00000,0.00000,-0.00852,0.00000,0.00244,0.00253,-0.00070,-0.05264,-0.11480,0.98979,0.09375,0.00000,0.00000,0.00000,0.00000,0.00000,0.01497,0.00000,0.00000,0.00000,0.00000,A,150959.60
0.11009,57.68814617,11.97962467,57.68814617,11.97962467,15:09:59.771172,0.00532,0.00000,0.00000,-0.01060,0.00000,-0.00016,0.00283,0.00037,-0.05045,-0.11529,0.99058,0.10436,0.00000,0.00000,0.00000,0.00000,0.00000,0.01497,0.00000,0.00000,0.00000,0.00000,A,150959.60
0.15132,57.68814617,11.97962467,57.68814617,11.97962700,15:09:59.813457,0.03616,0.00000,1.50000,-0.01265,0.02000,-0.00199,0.00359,0.00037,-0.05081,-0.11480,0.99131,0.11463,0.00000,0.00000,0.00000,0.00000,0.00000,0.13161,0.13869,0.00000,0.00000,0.00000,A,150959.70
0.17044,57.68814617,11.97962478,57.68814617,11.97962700,15:09:59.831530,0.00845,0.00000,0.00000,-0.01464,0.00000,0.00046,0.00176,0.00021,-0.05270,-0.11486,0.99015,0.16460,0.00000,0.00000,0.00000,0.00693,0.00000,0.13161,0.13869,0.00000,0.00000,0.00000,A,150959.70
0.17774,57.68814617,11.97962489,57.68814617,11.97962700,15:09:59.838831,0.00535,0.00000,0.00000,-0.01662,0.00000,-0.00077,0.00359,0.00082,-0.04929,-0.11468,0.99198,0.17201,0.00000,0.00000,0.00000,0.01352,0.00000,0.13161,0.13869,0.00000,0.00000,0.00000,A,150959.70
0.18803,57.68814617,11.97962500,57.68814617,11.97962700,15:09:59.849123,0.00524,0.00000,0.00000,-0.01860,0.00000,-0.00122,-0.00007,0.00220,-0.05087,-0.11608,0.99320,0.18257,0.00000,0.00000,0.00000,0.01978,0.00000,0.13161,0.13869,0.00000,0.00000,0.00000,A,150959.70
0.19895,57.68814617,11.97962510,57.68814617,11.97962700,15:09:59.860040,0.00537,0.00000,0.00000,-0.02051,0.00000,0.00244,0.00191,-0.00223,-0.05240,-0.11627,0.99235,0.19324,0.00000,0.00000,0.00000,0.02573,0.00000,0.13161,0.13869,0.00000,0.00000,0.00000,A,150959.70
0.20965,57.68814617,11.97962519,57.68814617,11.97962700,15:09:59.870737,0.00532,0.00000,0.00000,-0.02244,0.00000,-0.00153,0.00039,-0.00024,-0.05087,-0.11675,0.99253,0.20394,0.00000,0.00000,0.00000,0.03137,0.00000,0.13161,0.13869,0.00000,0.00000,0.00000,A,150959.70
0.21978,57.68814617,11.97962528,57.68814617,11.97962700,15:09:59.880865,0.00504,0.00000,0.00000,-0.02428,0.00000,0.00091,-0.00053,-0.00009,-0.05051,-0.11425,0.99174,0.21433,0.00000,0.00000,0.00000,0.03674,0.00000,0.13161,0.13869,0.00000,0.00000,0.00000,A,150959.70
0.23104,57.68814617,11.97962537,57.68814617,11.97962700,15:09:59.892128,0.00576,0.00000,0.00000,-0.02617,0.00000,-0.00428,-0.00145,-0.00085,-0.04910,-0.11578,0.99326,0.22532,0.00000,0.00000,0.00000,0.04184,0.00000,0.13161,0.13869,0.00000,0.00000,0.00000,A,150959.70
0.27237,57.68814617,11.97962545,57.68814700,11.97962467,15:09:59.933497,0.03668,0.00000,1.50000,-0.02798,0.02000,0.00259,0.00176,0.00250,-0.04990,-0.11688,0.99192,0.23530,0.00000,0.00000,0.00000,0.04668,0.00000,0.25213,0.00000,0.09266,2.55257,2.55257,A,150959.80
0.29528,57.68814621,11.97962541,57.68814700,11.97962467,15:09:59.956778,0.01053,0.00000,0.00000,-0.02977,0.00000,-0.00061,0.00421,0.00067,-0.05215,-0.11370,0.99162,0.28841,0.00000,0.38289,0.38289,0.04435,0.00463,0.25213,0.00000,0.09266,2.55257,2.55257,A,150959.80
0.31562,57.68814625,11.97962538,57.68814700,11.97962467,15:09:59.976710,0.00803,0.00000,0.00000,-0.03149,0.00000,0.00152,0.00008,-0.00070,-0.05094,-0.11474,0.99284,0.30925,0.00000,0.70834,0.70834,0.04213,0.00903,0.25213,0.00000,0.09266,2.55257,2.55257,A,150959.80
0.32348,57.68814629,11.97962534,57.68814700,11.97962467,15:09:59.984567,0.00566,0.00000,0.00000,-0.03322,0.00000,-0.00077,-0.00053,0.00174,-0.05002,-0.11456,0.99186,0.31776,0.00000,0.98497,0.98497,0.04002,0.01322,0.25213,0.00000,0.09266,2.55257,2.55257,A,150959.80
0.33354,57.68814632,11.97962531,57.68814700,11.97962467,15:09:59.994635,0.00533,0.00000,0.00000,-0.03489,0.00000,0.00152,-0.00053,0.00205,-0.05301,-0.11444,0.99436,0.32783,0.00000,1.22011,1.22011,0.03802,0.01719,0.25213,0.00000,0.09266,2.55257,2.55257,A,150959.80
0.34372,57.68814636,11.97962527,57.68814700,11.97962467,15:10:00.004810,0.00511,0.00000,0.00000,-0.03655,0.00000,0.00030,-0.00175,0.00144,-0.05264,-0.11438,0.99204,0.33824,0.00000,1.41998,1.41998,0.03612,0.02096,0.25213,0.00000,0.09266,2.55257,2.55257,A,150959.80
0.38406,57.68814639,11.97962524,57.68814767,11.97962200,15:10:00.045418,0.03487,0.00000,1.50000,-0.03821,0.02000,-0.00061,0.00023,-0.00040,-0.05130,-0.11480,0.98985,0.34861,0.00000,1.58987,1.58987,0.03431,0.02455,0.36483,-0.15850,0.16679,2.70412,2.70412,A,150959.90
0.40407,57.68814645,11.97962508,57.68814767,11.97962200,15:10:00.065152,0.00624,0.00000,0.00000,-0.03978,0.00000,0.00061,-0.00099,0.00098,-0.05258,-0.11322,0.99277,0.39856,0.00000,1.75701,1.75701,0.02467,0.03166,0.36483,-0.15850,0.16679,2.70412,2.70412,A,150959.90
0.41358,57.68814651,11.97962493,57.68814767,11.97962200,15:10:00.074669,0.00535,0.00000,0.00000,-0.04144,0.00000,-0.00397,0.00268,0.00327,-0.05014,-0.11651,0.99259,0.40786,0.00000,1.89907,1.89907,0.01551,0.03842,0.36483,-0.15850,0.16679,2.70412,2.70412,A,150959.90
0.42371,57.68814657,11.97962478,57.68814767,11.97962200,15:10:00.084791,0.00507,0.00000,0.00000,-0.04306,0.00000,-0.00229,0.00054,0.00082,-0.05002,-0.11675,0.99143,0.41823,0.00000,2.01983,2.01983,0.00681,0.04483,0.36483,-0.15850,0.16679,2.70412,2.70412,A,150959.90
0.43438,57.68814662,11.97962464,57.68814767,11.97962200,15:10:00.095468,0.00517,0.00000,0.00000,-0.04457,0.00000,0.00519,-0.00007,-0.00009,-0.05069,-0.11547,0.99131,0.42862,0.00000,2.12247,2.12247,-0.00145,0.05093,0.36483,-0.15850,0.16679,2.70412,2.70412,A,150959.90
0.44559,57.68814668,11.97962451,57.68814767,11.97962200,15:10:00.106683,0.00562,0.00000,0.00000,-0.04608,0.00000,0.00168,-0.00022,0.00220,-0.05240,-0.11511,0.99314,0.43985,0.00000,2.20972,2.20972,-0.00930,0.05673,0.36483,-0.15850,0.16679,2.70412,2.70412,A,150959.90
0.45587,57.68814673,11.97962438,57.68814767,11.97962200,15:10:00.116970,0.00550,0.00000,0.00000,-0.04759,0.00000,0.00290,0.00054,0.00006,-0.05136,-0.11663,0.98997,0.44976,0.00000,2.28388,2.28388,-0.01676,0.06223,0.36483,-0.15850,0.16679,2.70412,2.70412,A,150959.90
0.49552,57.68814677,11.97962427,57.68814967,11.97961167,15:10:00.157122,0.03475,0.00000,1.50000,-0.04911,0.02000,0.00076,0.00146,0.00037,-0.05240,-0.11785,0.99235,0.46037,0.00000,2.34691,2.34691,-0.02385,0.06746,0.47677,-0.77268,0.38918,2.79419,2.79419,A,151000.00
0.51442,57.68814692,11.97962364,57.68814967,11.97961167,15:10:00.175505,0.00756,0.00000,0.00000,-0.05067,0.00000,-0.00184,0.00268,-0.00253,-0.05234,-0.11560,0.98911,0.50861,0.00000,2.41400,2.41400,-0.06129,0.08354,0.47677,-0.77268,0.38918,2.79419,2.79419,A,151000.00
0.52472,57.68814706,11.97962304,57.68814967,11.97961167,15:10:00.185811,0.00736,0.00000,0.00000,-0.05214,0.00000,-0.00458,0.00283,0.00128,-0.05155,-0.11450,0.99229,0.51840,0.00000,2.47103,2.47103,-0.09686,0.09883,0.47677,-0.77268,0.38918,2.79419,2.79419,A,151000.00
0.53281,57.68814719,11.97962247,57.68814967,11.97961167,15:10:00.194153,0.00505,0.00000,0.00000,-0.05357,0.00000,-0.00000,0.00268,0.00113,-0.05075,-0.11572,0.99094,0.52737,0.00000,2.51951,2.51951,-0.13065,0.11334,0.47677,-0.77268,0.38918,2.79419,2.79419,A,151000.00
0.54325,57.68814731,11.97962193,57.68814967,11.97961167,15:10:00.204338,0.00508,0.00000,0.00000,-0.05498,0.00000,-0.00138,0.00085,0.00021,-0.05252,-0.11444,0.99094,0.53755,0.00000,2.56071,2.56071,-0.16275,0.12714,0.47677,-0.77268,0.38918,2.79419,2.79419,A,151000.00
0.55433,57.68814743,11.97962142,57.68814967,11.97961167,15:10:00.215414,0.00575,0.00000,0.00000,-0.05635,0.00000,0.00015,0.00237,-0.00024,-0.05173,-0.11517,0.99271,0.54817,0.00000,2.59573,2.59573,-0.19325,0.14024,0.47677,-0.77268,0.38918,2.79419,2.79419,A,151000.00
0.56401,57.68814754,11.97962093,57.68814967,11.97961167,15:10:00.225094,0.00512,0.00000,0.00000,-0.05769,0.00000,-0.00000,0.00130,0.00037,-0.05051,-0.11444,0.99143,0.55851,0.00000,2.62550,2.62550,-0.22222,0.15268,0.47677,-0.77268,0.38918,2.79419,2.79419,A,151000.00
0.57724,57.68814765,11.97962046,57.68814967,11.97961167,15:10:00.238338,0.00786,0.00000,0.00000,-0.05904,0.00000,-0.00138,0.00100,-0.00299,-0.05020,-0.11462,0.99180,0.57152,0.00000,2.65080,2.65080,-0.24974,0.16451,0.47677,-0.77268,0.38918,2.79419,2.79419,A,151000.00
0.62361,57.68814775,11.97962002,57.68815050,11.97960533,15:10:00.285022,0.04382,0.00000,1.50000,-0.06039,0.02000,-0.00199,0.00023,0.00159,-0.05026,-0.11627,0.99076,0.57954,0.00000,2.67231,2.67231,-0.27589,0.17574,0.60619,-1.14911,0.48184,2.90023,2.90023,A,151000.20
0.64276,57.68814788,11.97961929,57.68815050,11.97960533,15:10:00.303873,0.00779,0.00000,0.00000,-0.06174,0.00000,-0.00138,0.00207,0.00113,-0.05209,-0.11352,0.99131,0.63595,0.00000,2.70650,2.70650,-0.31955,0.19105,0.60619,-1.14911,0.48184,2.90023,2.90023,A,151000.20
0.65055,57.68814802,11.97961859,57.68815050,11.97960533,15:10:00.311640,0.00520,0.00000,0.00000,-0.06300,0.00000,0.00152,0.00161,-0.00131,-0.05246,-0.11511,0.99210,0.64479,0.00000,2.73556,2.73556,-0.36103,0.20559,0.60619,-1.14911,0.48184,2.90023,2.90023,A,151000.20
0.66084,57.68814814,11.97961793,57.68815050,11.97960533,15:10:00.322172,0.00508,0.00000,0.00000,-0.06427,0.00000,-0.00184,-0.00007,-0.00024,-0.05039,-0.11492,0.99247,0.65538,0.00000,2.76026,2.76026,-0.40044,0.21940,0.60619,-1.14911,0.48184,2.90023,2.90023,A,151000.20
0.67148,57.68814826,11.97961730,57.68815050,11.97960533,15:10:00.332567,0.00532,0.00000,0.00000,-0.06551,0.00000,-0.00214,0.00100,-0.00070,-0.05209,-0.11431,0.99357,0.66579,0.00000,2.78126,2.78126,-0.43787,0.23252,0.60619,-1.14911,0.48184,2.90023,2.90023,A,151000.20
0.68291,57.68814837,11.97961670,57.68815050,11.97960533,15:10:00.344002,0.00636,0.00000,0.00000,-0.06678,0.00000,-0.00245,-0.00175,0.00281,-0.05130,-0.11663,0.99265,0.67690,0.00000,2.79910,2.79910,-0.47343,0.24499,0.60619,-1.14911,0.48184,2.90023,2.90023,A,151000.20
0.69216,57.68814848,11.97961613,57.68815050,11.97960533,15:10:00.353249,0.00535,0.00000,0.00000,-0.06800,0.00000,-0.00138,0.00100,-0.00223,-0.04892,-0.11645,0.99497,0.68668,0.00000,2.81427,2.81427,-0.50722,0.25683,0.60619,-1.14911,0.48184,2.90023,2.90023,A,151000.20
0.70255,57.68814858,11.97961559,57.68815050,11.97960533,15:10:00.363641,0.00519,0.00000,0.00000,-0.06925,0.00000,-0.00474,-0.00374,-0.00085,-0.05270,-0.11633,0.98979,0.69678,0.00000,2.82717,2.82717,-0.53931,0.26808,0.60619,-1.14911,0.48184,2.90023,2.90023,A,151000.20
0.74069,57.68814867,11.97961508,57.68815117,11.97960383,15:10:00.401803,0.03293,0.00000,1.50000,-0.07044,0.02000,-0.00336,0.00008,-0.00147,-0.05136,-0.11413,0.99101,0.70739,0.00000,2.83813,2.83813,-0.56980,0.27877,0.72424,-1.23827,0.55597,2.44796,2.44796,A,151000.30
0.76250,57.68814880,11.97961452,57.68815117,11.97960383,15:10:00.423585,0.00874,0.00000,0.00000,-0.07179,0.00000,-0.00474,0.00054,-0.00040,-0.04990,-0.11401,0.99241,0.75666,0.00000,2.77960,2.77960,-0.60322,0.29263,0.72424,-1.23827,0.55597,2.44796,2.44796,A,151000.30
0.76987,57.68814892,11.97961398,57.68815117,11.97960383,15:10:00.430953,0.00571,0.00000,0.00000,-0.07298,0.00000,-0.00550,-0.00297,0.00052,-0.05136,-0.11669,0.99003,0.76378,0.00000,2.72985,2.72985,-0.63498,0.30580,0.72424,-1.23827,0.55597,2.44796,2.44796,A,151000.30
0.77969,57.68814903,11.97961348,57.68815117,11.97960383,15:10:00.442328,0.00507,0.00000,0.00000,-0.07409,0.00000,0.00046,-0.00160,0.00205,-0.04959,-0.11590,0.99198,0.77424,0.00000,2.68757,2.68757,-0.66514,0.31831,0.72424,-1.23827,0.55597,2.44796,2.44796,A,151000.30
0.79152,57.68814914,11.97961299,57.68815117,11.97960383,15:10:00.452612,0.00623,0.00000,0.00000,-0.07513,0.00000,0.00122,-0.00068,-0.00085,-0.05112,-0.11261,0.99277,0.78541,0.00000,2.65163,2.65163,-0.69380,0.33019,0.72424,-1.23827,0.55597,2.44796,2.44796,A,151000.30
0.80252,57.68814924,11.97961254,57.68815117,11.97960383,15:10:00.463604,0.00682,0.00000,0.00000,-0.07620,0.00000,0.00183,0.00253,0.00006,-0.05087,-0.11584,0.99058,0.79628,0.00000,2.62108,2.62108,-0.72102,0.34148,0.72424,-1.23827,0.55597,2.44796,2.44796,A,151000.30
0.81385,57.68814933,11.97961210,57.68815117,11.97960383,15:10:00.474946,0.00776,0.00000,0.00000,-0.07717,0.00000,0.00641,-0.00022,0.00113,-0.05185,-0.11425,0.99198,0.80739,0.00000,2.59511,2.59511,-0.74688,0.35220,0.72424,-1.23827,0.55597,2.44796,2.44796,A,151000.30
0.82269,57.68814943,11.97961169,57.68815117,11.97960383,15:10:00.483780,0.00595,0.00000,0.00000,-0.07817,0.00000,0.00351,-0.00145,0.00006,-0.05179,-0.11413,0.99082,0.81688,0.00000,2.57304,2.57304,-0.77145,0.36239,0.72424,-1.23827,0.55597,2.44796,2.44796,A,151000.30
0.85832,57.68814951,11.97961129,57.68815200,11.97960083,15:10:00.519431,0.03118,0.00000,1.50000,-0.07921,0.02000,0.00091,0.00100,0.00296,-0.05258,-0.11627,0.98905,0.82663,0.00000,2.55427,2.55427,-0.79479,0.37207,0.84258,-1.41658,0.64864,2.66233,2.66233,A,151000.40
0.87497,57.68814964,11.97961077,57.68815200,11.97960083,15:10:00.536054,0.00754,0.00000,0.00000,-0.08004,0.00000,0.00473,-0.00129,-0.00131,-0.05124,-0.11608,0.99137,0.86920,0.00000,2.57048,2.57048,-0.82588,0.38590,0.84258,-1.41658,0.64864,2.66233,2.66233,A,151000.40
0.88366,57.68814976,11.97961027,57.68815200,11.97960083,15:10:00.544743,0.00599,0.00000,0.00000,-0.08105,0.00000,-0.00153,-0.00083,0.00037,-0.05136,-0.11474,0.98997,0.87769,0.00000,2.58426,2.58426,-0.85542,0.39904,0.84258,-1.41658,0.64864,2.66233,2.66233,A,151000.40
0.89356,57.68814987,11.97960980,57.68815200,11.97960083,15:10:00.554657,0.00550,0.00000,0.00000,-0.08204,0.00000,0.00015,-0.00145,-0.00009,-0.05295,-0.11584,0.99265,0.88784,0.00000,2.59597,2.59597,-0.88348,0.41152,0.84258,-1.41658,0.64864,2.66233,2.66233,A,151000.40
0.90353,57.68814997,11.97960935,57.68815200,11.97960083,15:10:00.564614,0.00506,0.00000,0.00000,-0.08306,0.00000,-0.00657,0.00085,-0.00024,-0.05240,-0.11376,0.99119,0.89806,0.00000,2.60593,2.60593,-0.91013,0.42337,0.84258,-1.41658,0.64864,2.66233,2.66233,A,151000.40
0.91504,57.68815008,11.97960893,57.68815200,11.97960083,15:10:00.576123,0.00584,0.00000,0.00000,-0.08405,0.00000,-0.00260,-0.00007,-0.00208,-0.05307,-0.11566,0.99393,0.90931,0.00000,2.61439,2.61439,-0.93545,0.43464,0.84258,-1.41658,0.64864,2.66233,2.66233,A,151000.40
0.92467,57.68815017,11.97960852,57.68815200,11.97960083,15:10:00.585758,0.00507,0.00000,0.00000,-0.08500,0.00000,-0.00184,-0.00114,-0.00116,-0.05106,-0.11468,0.99210,0.91922,0.00000,2.62158,2.62158,-0.95951,0.44534,0.84258,-1.41658,0.64864,2.66233,2.66233,A,151000.40
0.93513,57.68815026,11.97960814,57.68815200,11.97960083,15:10:00.596212,0.00512,0.00000,0.00000,-0.08593,0.00000,0.00137,-0.00190,-0.00070,-0.05197,-0.11645,0.99155,0.92940,0.00000,2.62769,2.62769,-0.98236,0.45550,0.84258,-1.41658,0.64864,2.66233,2.66233,A,151000.40
0.96932,57.68815035,11.97960777,57.68815283,11.97959650,15:10:00.630427,0.02891,0.00000,1.50000,-0.08688,0.02000,-0.00382,-0.00206,-0.00131,-0.05197,-0.11499,0.99210,0.94002,0.00000,2.63289,2.63289,-1.00407,0.46516,0.95748,-1.67414,0.74130,2.79624,2.79624,A,151000.50
0.98912,57.68815047,11.97960721,57.68815283,11.97959650,15:10:00.650221,0.00654,0.00000,0.00000,-0.08778,0.00000,-0.00000,-0.00160,0.00189,-0.05215,-0.11547,0.99186,0.98322,0.00000,2.65739,2.65739,-1.03758,0.47897,0.95748,-1.67414,0.74130,2.79624,2.79624,A,151000.50
0.99857,57.68815059,11.97960667,57.68815283,11.97959650,15:10:00.659653,0.00521,0.00000,0.00000,-0.08867,0.00000,-0.00138,0.00298,0.00388,-0.05063,-0.11450,0.99204,0.99280,0.00000,2.67822,2.67822,-1.06941,0.49208,0.95748,-1.67414,0.74130,2.79624,2.79624,A,151000.50
1.00996,57.68815070,11.97960617,57.68815283,11.97959650,15:10:00.671079,0.00620,0.00000,0.00000,-0.08952,0.00000,-0.00077,-0.00511,-0.00269,-0.05167,-0.11346,0.99277,1.00335,0.00000,2.69592,2.69592,-1.09964,0.50454,0.95748,-1.67414,0.74130,2.79624,2.79624,A,151000.50
1.01959,57.68815081,11.97960568,57.68815283,11.97959650,15:10:00.680675,0.00516,0.00000,0.00000,-0.09037,0.00000,0.00137,0.00191,0.00052,-0.05008,-0.11578,0.99125,1.01408,0.00000,2.71097,2.71097,-1.12837,0.51638,0.95748,-1.67414,0.74130,2.79624,2.79624,A,151000.50
1.03232,57.68815091,11.97960522,57.68815283,11.97959650,15:10:00.693401,0.00698,0.00000,0.00000,-0.09118,0.00000,0.00305,0.00023,0.00037,-0.05228,-0.11486,0.98966,1.02621,0.00000,2.72376,2.72376,-1.15566,0.52763,0.95748,-1.67414,0.74130,2.79624,2.79624,A,151000.50
1.04198,57.68815101,11.97960479,57.68815283,11.97959650,15:10:00.703067,0.00624,0.00000,0.00000,-0.09204,0.00000,0.00091,0.00100,0.00174,-0.05039,-0.11706,0.99235,1.03534,0.00000,2.73463,2.73463,-1.18158,0.53831,0.95748,-1.67414,0.74130,2.79624,2.79624,A,151000.50
1.05124,57.68815110,11.97960437,57.68815283,11.97959650,15:10:00.712323,0.00511,0.00000,0.00000,-0.09286,0.00000,0.00015,-0.00175,-0.00147,-0.05142,-0.11590,0.99247,1.04553,0.00000,2.74387,2.74387,-1.20621,0.54846,0.95748,-1.67414,0.74130,2.79624,2.79624,A,151000.50
1.09232,57.68815119,11.97960398,57.68815300,11.97959433,15:10:00.753444,0.03578,0.00000,1.50000,-0.09369,0.02000,-0.00077,0.00176,-0.00147,-0.05179,-0.11566,0.99284,1.05615,0.00000,2.75173,2.75173,-1.22961,0.55810,1.07262,-1.80292,0.75983,2.99867,2.99867,A,151000.60
1.11126,57.68815128,11.97960350,57.68815300,11.97959433,15:10:00.772351,0.00742,0.00000,0.00000,-0.09435,0.00000,0.00320,0.00069,-0.00253,-0.05319,-0.11645,0.98893,1.10448,0.00000,2.78877,2.78877,-1.25827,0.56819,1.07262,-1.80292,0.75983,2.99867,2.99867,A,151000.60
1.11956,57.68815136,11.97960304,57.68815300,11.97959433,15:10:00.780641,0.00545,0.00000,0.00000,-0.09512,0.00000,0.00275,-0.00022,0.00037,-0.05313,-0.11535,0.99271,1.11408,0.00000,2.82025,2.82025,-1.28550,0.57777,1.07262,-1.80292,0.75983,2.99867,2.99867,A,151000.60
1.12988,57.68815144,11.97960260,57.68815300,11.97959433,15:10:00.790964,0.00537,0.00000,0.00000,-0.09586,0.00000,0.00366,0.00283,0.00098,-0.05209,-0.11499,0.98899,1.12411,0.00000,2.84702,2.84702,-1.31137,0.58687,1.07262,-1.80292,0.75983,2.99867,2.99867,A,151000.60
1.14025,57.68815152,11.97960219,57.68815300,11.97959433,15:10:00.801335,0.00534,0.00000,0.00000,-0.09663,0.00000,-0.00092,-0.00297,-0.00101,-0.05392,-0.11523,0.99137,1.13476,0.00000,2.86976,2.86976,-1.33595,0.59552,1.07262,-1.80292,0.75983,2.99867,2.99867,A,151000.60
1.15054,57.68815160,11.97960180,57.68815300,11.97959433,15:10:00.811629,0.00518,0.00000,0.00000,-0.09739,0.00000,-0.00138,-0.00053,-0.00040,-0.05094,-0.11480,0.99186,1.14478,0.00000,2.88910,2.88910,-1.35930,0.60374,1.07262,-1.80292,0.75983,2.99867,2.99867,A,151000.60
1.16263,57.68815167,11.97960142,57.68815300,11.97959433,15:10:00.823717,0.00641,0.00000,0.00000,-0.09815,0.00000,-0.00168,-0.00343,0.00128,-0.04880,-0.11511,0.99027,1.15608,0.00000,2.90553,2.90553,-1.38148,0.61154,1.07262,-1.80292,0.75983,2.99867,2.99867,A,151000.60
1.17234,57.68815173,11.97960107,57.68815300,11.97959433,15:10:00.833694,0.00573,0.00000,0.00000,-0.09886,0.00000,-0.00016,-0.00114,-0.00116,-0.05203,-0.11352,0.98954,1.16642,0.00000,2.91950,2.91950,-1.40255,0.61896,1.07262,-1.80292,0.75983,2.99867,2.99867,A,151000.60
1.22178,57.68815180,11.97960073,57.68815450,11.97959933,15:10:00.882888,0.04459,0.00000,1.50000,-0.09955,0.02000,0.00168,0.00085,-0.00085,-0.05142,-0.11438,0.99235,1.17661,0.00000,2.93138,2.93138,-1.42257,0.62600,1.20272,-1.50574,0.92662,0.51143,0.51143,A,151000.80
1.25149,57.68815193,11.97960066,57.68815450,11.97959933,15:10:00.912579,0.00965,0.00000,0.00000,-0.10033,0.00000,-0.00107,-0.00083,0.00052,-0.05240,-0.11462,0.98783,1.24568,0.00000,2.56839,2.56839,-1.42673,0.64103,1.20272,-1.50574,0.92662,0.51143,0.51143,A,151000.80
1.25811,57.68815206,11.97960060,57.68815450,11.97959933,15:10:00.919189,0.00549,0.00000,0.00000,-0.10103,0.00000,0.00152,0.00130,-0.00009,-0.04990,-0.11633,0.99119,1.25235,0.00000,2.25984,2.25984,-1.43068,0.65531,1.20272,-1.50574,0.92662,0.51143,0.51143,A,151000.80
1.26816,57.68815218,11.97960053,57.68815450,11.97959933,15:10:00.929242,0.00514,0.00000,0.00000,-0.10168,0.00000,0.00244,-0.00099,-0.00315,-0.05185,-0.11438,0.99143,1.26269,0.00000,1.99758,1.99758,-1.43443,0.66888,1.20272,-1.50574,0.92662,0.51143,0.51143,A,151000.80
1.27860,57.68815230,11.97960047,57.68815450,11.97959933,15:10:00.939680,0.00522,0.00000,0.00000,-0.10238,0.00000,-0.00306,-0.00206,0.00174,-0.05380,-0.11486,0.99302,1.27279,0.00000,1.77466,1.77466,-1.43800,0.68176,1.20272,-1.50574,0.92662,0.51143,0.51143,A,151000.80
1.29156,57.68815241,11.97960042,57.68815450,11.97959933,15:10:00.952648,0.00771,0.00000,0.00000,-0.10307,0.00000,-0.00275,-0.00038,0.00098,-0.05197,-0.11450,0.99149,1.28348,0.00000,1.58518,1.58518,-1.44139,0.69401,1.20272,-1.50574,0.92662,0.51143,0.51143,A,151000.80
1.30208,57.68815251,11.97960036,57.68815450,11.97959933,15:10:00.963190,0.00784,0.00000,0.00000,-0.10374,0.00000,-0.00092,-0.00068,0.00006,-0.05106,-0.11535,0.99192,1.29445,0.00000,1.42411,1.42411,-1.44460,0.70564,1.20272,-1.50574,0.92662,0.51143,0.51143,A,151000.80
1.33608,57.68815261,11.97960031,57.68815500,11.97960133,15:10:00.997190,0.03143,0.00000,1.50000,-0.10440,0.02000,-0.00275,-0.00068,0.00159,-0.04929,-0.11450,0.99162,1.30424,0.00000,1.28721,1.28721,-1.44766,0.71669,1.32158,-1.38686,0.98222,0.43748,0.43748,A,151000.90
1.35363,57.68815273,11.97960036,57.68815500,11.97960133,15:10:01.014715,0.00697,0.00000,0.00000,-0.10500,0.00000,0.00091,0.00298,0.00403,-0.05276,-0.11535,0.99186,1.34785,0.00000,1.15975,1.15975,-1.44462,0.72996,1.32158,-1.38686,0.98222,0.43748,0.43748,A,151000.90
1.36239,57.68815284,11.97960041,57.68815500,11.97960133,15:10:01.023472,0.00519,0.00000,0.00000,-0.10561,0.00000,0.00259,0.00023,-0.00284,-0.05087,-0.11590,0.99363,1.35663,0.00000,1.05141,1.05141,-1.44173,0.74258,1.32158,-1.38686,0.98222,0.43748,0.43748,A,151000.90
1.37430,57.68815295,11.97960046,57.68815500,11.97960133,15:10:01.035382,0.00635,0.00000,0.00000,-0.10622,0.00000,0.00229,0.00390,0.00082,-0.05075,-0.11669,0.99198,1.36846,0.00000,0.95932,0.95932,-1.43899,0.75456,1.32158,-1.38686,0.98222,0.43748,0.43748,A,151000.90
1.38341,57.68815305,11.97960050,57.68815500,11.97960133,15:10:01.044495,0.00506,0.00000,0.00000,-0.10692,0.00000,-0.00626,-0.00297,0.00205,-0.05094,-0.11730,0.99186,1.37772,0.00000,0.88104,0.88104,-1.43638,0.76594,1.32158,-1.38686,0.98222,0.43748,0.43748,A,151000.90
1.39432,57.68815315,11.97960054,57.68815500,11.97960133,15:10:01.055410,0.00557,0.00000,0.00000,-0.10752,0.00000,-0.00061,0.00100,0.00296,-0.05161,-0.11456,0.99064,1.38835,0.00000,0.81451,0.81451,-1.43391,0.77676,1.32158,-1.38686,0.98222,0.43748,0.43748,A,151000.90
1.40409,57.68815324,11.97960058,57.68815500,11.97960133,15:10:01.065175,0.00493,0.00000,0.00000,-0.10812,0.00000,0.00091,-0.00175,0.00052,-0.05161,-0.11682,0.99070,1.39863,0.00000,0.75795,0.75795,-1.43155,0.78703,1.32158,-1.38686,0.98222,0.43748,0.43748,A,151000.90
1.41466,57.68815333,11.97960062,57.68815500,11.97960133,15:10:01.075743,0.00521,0.00000,0.00000,-0.10874,0.00000,-0.00260,-0.00114,-0.00055,-0.05185,-0.11633,0.99308,1.40889,0.00000,0.70988,0.70988,-1.42932,0.79679,1.32158,-1.38686,0.98222,0.43748,0.43748,A,151000.90
1.45341,57.68815342,11.97960065,57.68815600,11.97960333,15:10:01.114518,0.03324,0.00000,1.50000,-0.10931,0.02000,0.00076,-0.00099,-0.00009,-0.04984,-0.11584,0.99229,1.42046,0.00000,0.66902,0.66902,-1.42720,0.80606,1.43761,-1.26799,1.09342,0.75203,0.75203,A,151001.00
1.47238,57.68815354,11.97960079,57.68815600,11.97960333,15:10:01.133469,0.00694,0.00000,0.00000,-0.10996,0.00000,-0.00184,-0.00251,0.00327,-0.05252,-0.11523,0.99216,1.46614,0.00000,0.68147,0.68147,-1.41924,0.82043,1.43761,-1.26799,1.09342,0.75203,0.75203,A,151001.00
1.48116,57.68815367,11.97960092,57.68815600,11.97960333,15:10:01.142257,0.00531,0.00000,0.00000,-0.11049,0.00000,0.00336,0.00253,-0.00085,-0.05264,-0.11627,0.99229,1.47546,0.00000,0.69206,0.69206,-1.41167,0.83408,1.43761,-1.26799,1.09342,0.75203,0.75203,A,151001.00
1.49144,57.68815378,11.97960104,57.68815600,11.97960333,15:10:01.152532,0.00519,0.00000,0.00000,-0.11104,0.00000,0.00076,0.00008,-0.00498,-0.05392,-0.11608,0.99107,1.48576,0.00000,0.70105,0.70105,-1.40449,0.84704,1.43761,-1.26799,1.09342,0.75203,0.75203,A,151001.00
1.50336,57.68815390,11.97960115,57.68815600,11.97960333,15:10:01.164440,0.00671,0.00000,0.00000,-0.11157,0.00000,0.00061,0.00298,-0.00055,-0.05087,-0.11547,0.99369,1.49762,0.00000,0.70870,0.70870,-1.39766,0.85936,1.43761,-1.26799,1.09342,0.75203,0.75203,A,151001.00
1.51208,57.68815400,11.97960126,57.68815600,11.97960333,15:10:01.173162,0.00502,0.00000,0.00000,-0.11209,0.00000,0.00137,-0.00129,0.00144,-0.05118,-0.11480,0.99052,1.50663,0.00000,0.71520,0.71520,-1.39118,0.87107,1.43761,-1.26799,1.09342,0.75203,0.75203,A,151001.00
1.52305,57.68815410,11.97960136,57.68815600,11.97960333,15:10:01.184141,0.00575,0.00000,0.00000,-0.11257,0.00000,0.00244,0.00405,0.00357,-0.04990,-0.11450,0.99131,1.51680,0.00000,0.72073,0.72073,-1.38502,0.88218,1.43761,-1.26799,1.09342,0.75203,0.75203,A,151001.00
1.53271,57.68815420,11.97960146,57.68815600,11.97960333,15:10:01.193797,0.00515,0.00000,0.00000,-0.11309,0.00000,0.00076,-0.00068,-0.00055,-0.05264,-0.11627,0.99216,1.52724,0.00000,0.72542,0.72542,-1.37917,0.89275,1.43761,-1.26799,1.09342,0.75203,0.75203,A,151001.00
1.57175,57.68815429,11.97960156,57.68815700,11.97960250,15:10:01.232887,0.03379,0.00000,1.50000,-0.11360,0.02000,-0.00077,0.00008,-0.00131,-0.05045,-0.11468,0.99229,1.53734,0.00000,0.72941,0.72941,-1.37361,0.90278,1.55511,-1.31752,1.20461,1.98985,1.98985,A,151001.10
1.59093,57.68815442,11.97960160,57.68815700,11.97960250,15:10:01.252019,0.00764,0.00000,0.00000,-0.11417,0.00000,-0.00138,-0.00160,-0.00421,-0.05222,-0.11602,0.99186,1.58502,0.00000,0.91848,0.91848,-1.37081,0.91787,1.55511,-1.31752,1.20461,1.98985,1.98985,A,151001.10
1.59941,57.68815455,11.97960165,57.68815700,11.97960250,15:10:01.260490,0.00587,0.00000,0.00000,-0.11464,0.00000,0.00046,0.00039,-0.00040,-0.05124,-0.11395,0.98899,1.59302,0.00000,1.07919,1.07919,-1.36814,0.93221,1.55511,-1.31752,1.20461,1.98985,1.98985,A,151001.10
1.60928,57.68815467,11.97960169,57.68815700,11.97960250,15:10:01.270372,0.00534,0.00000,0.00000,-0.11509,0.00000,0.00107,-0.00160,-0.00147,-0.05130,-0.11370,0.99229,1.60356,0.00000,1.21579,1.21579,-1.36561,0.94583,1.55511,-1.31752,1.20461,1.98985,1.98985,A,151001.10
1.61942,57.68815479,11.97960173,57.68815700,11.97960250,15:10:01.280507,0.00509,0.00000,0.00000,-0.11556,0.00000,0.00015,-0.00114,-0.00131,-0.05106,-0.11444,0.99101,1.61373,0.00000,1.33190,1.33190,-1.36321,0.95877,1.55511,-1.31752,1.20461,1.98985,1.98985,A,151001.10
1.63104,57.68815490,11.97960177,57.68815700,11.97960250,15:10:01.292126,0.00630,0.00000,0.00000,-0.11603,0.00000,-0.00092,0.00100,-0.00208,-0.05185,-0.11517,0.99259,1.62531,0.00000,1.43059,1.43059,-1.36092,0.97106,1.55511,-1.31752,1.20461,1.98985,1.98985,A,151001.10
1.64013,57.68815500,11.97960181,57.68815700,11.97960250,15:10:01.301214,0.00510,0.00000,0.00000,-0.11656,0.00000,-0.00611,0.00100,0.00082,-0.05179,-0.11596,0.99284,1.63464,0.00000,1.51448,1.51448,-1.35875,0.98274,1.55511,-1.31752,1.20461,1.98985,1.98985,A,151001.10
1.65184,57.68815510,11.97960184,57.68815700,11.97960250,15:10:01.312931,0.00646,0.00000,0.00000,-0.11700,0.00000,0.00214,0.00207,0.00006,-0.05161,-0.11566,0.99271,1.64556,0.00000,1.58578,1.58578,-1.35669,0.99383,1.55511,-1.31752,1.20461,1.98985,1.98985,A,151001.10
1.69136,57.68815520,11.97960187,57.68815700,11.97960617,15:10:01.352487,0.03552,0.00000,1.50000,-0.11742,0.02000,0.00061,-0.00175,-0.00009,-0.05026,-0.11395,0.99082,1.65632,0.00000,1.64639,1.64639,-1.35473,1.00437,1.67280,-1.09958,1.20461,0.00000,0.00000,A,151001.20
1.71011,57.68815529,11.97960209,57.68815700,11.97960617,15:10:01.371191,0.00743,0.00000,0.00000,-0.11779,0.00000,0.00076,-0.00053,0.00052,-0.05289,-0.11291,0.99040,1.70428,0.00000,1.39944,1.39944,-1.34197,1.01438,1.67280,-1.09958,1.20461,0.00000,0.00000,A,151001.20
1.71905,57.68815537,11.97960229,57.68815700,11.97960617,15:10:01.380138,0.00583,0.00000,0.00000,-0.11823,0.00000,-0.00352,0.00085,-0.00299,-0.05185,-0.11334,0.99094,1.71264,0.00000,1.18952,1.18952,-1.32985,1.02389,1.67280,-1.09958,1.20461,0.00000,0.00000,A,151001.20
1.73019,57.68815546,11.97960249,57.68815700,11.97960617,15:10:01.391308,0.00657,0.00000,0.00000,-0.11865,0.00000,0.00076,0.00329,-0.00223,-0.05173,-0.11486,0.98881,1.72325,0.00000,1.01109,1.01109,-1.31834,1.03293,1.67280,-1.09958,1.20461,0.00000,0.00000,A,151001.20
1.74021,57.68815553,11.97960267,57.68815700,11.97960617,15:10:01.401292,0.00619,0.00000,0.00000,-0.11908,0.00000,-0.00214,0.00054,-0.00315,-0.05148,-0.11407,0.99216,1.73372,0.00000,0.85943,0.85943,-1.30740,1.04151,1.67280,-1.09958,1.20461,0.00000,0.00000,A,151001.20
1.74978,57.68815561,11.97960284,57.68815700,11.97960617,15:10:01.410864,0.00536,0.00000,0.00000,-0.11952,0.00000,-0.00031,0.00390,-0.00162,-0.05283,-0.11669,0.99253,1.74402,0.00000,0.73051,0.73051,-1.29701,1.04967,1.67280,-1.09958,1.20461,0.00000,0.00000,A,151001.20
1.76036,57.68815568,11.97960301,57.68815700,11.97960617,15:10:01.421444,0.00555,0.00000,0.00000,-0.11996,0.00000,-0.00138,-0.00206,0.00082,-0.05258,-0.11669,0.99149,1.75488,0.00000,0.62094,0.62094,-1.28714,1.05742,1.67280,-1.09958,1.20461,0.00000,0.00000,A,151001.20
1.77215,57.68815574,11.97960317,57.68815700,11.97960617,15:10:01.433244,0.00662,0.00000,0.00000,-0.12040,0.00000,-0.00367,0.00314,-0.00055,-0.05313,-0.11523,0.99247,1.76503,0.00000,0.52780,0.52780,-1.27776,1.06478,1.67280,-1.09958,1.20461,0.00000,0.00000,A,151001.20
1.82236,57.68815581,11.97960332,57.68815767,11.97961533,15:10:01.483481,0.04643,0.00000,1.50000,-0.12074,0.02000,0.00412,0.00054,-0.00131,-0.05057,-0.11431,0.99143,1.77564,0.00000,0.44863,0.44863,-1.26885,1.07177,1.80344,-0.55475,1.27874,0.13523,0.13523,A,151001.40
1.84015,57.68815590,11.97960392,57.68815767,11.97961533,15:10:01.501575,0.00557,0.00000,0.00000,-0.12118,0.00000,-0.00046,0.00191,-0.00147,-0.05331,-0.11639,0.99070,1.83465,0.00000,0.40162,0.40162,-1.23315,1.08212,1.80344,-0.55475,1.27874,0.13523,0.13523,A,151001.40
1.85032,57.68815599,11.97960449,57.68815767,11.97961533,15:10:01.511410,0.00516,0.00000,0.00000,-0.12152,0.00000,0.00168,0.00085,0.00098,-0.05276,-0.11376,0.99314,1.84456,0.00000,0.36166,0.36166,-1.19923,1.09195,1.80344,-0.55475,1.27874,0.13523,0.13523,A,151001.40
1.86066,57.68815607,11.97960503,57.68815767,11.97961533,15:10:01.521744,0.00510,0.00000,0.00000,-0.12185,0.00000,0.00259,0.00314,0.00006,-0.05246,-0.11389,0.99241,1.85518,0.00000,0.32769,0.32769,-1.16700,1.10129,1.80344,-0.55475,1.27874,0.13523,0.13523,A,151001.40
1.87275,57.68815615,11.97960555,57.68815767,11.97961533,15:10:01.534071,0.00695,0.00000,0.00000,-0.12226,0.00000,-0.00382,0.00161,0.00067,-0.04886,-0.11456,0.99162,1.86637,0.00000,0.29882,0.29882,-1.13639,1.11016,1.80344,-0.55475,1.27874,0.13523,0.13523,A,151001.40
1.88176,57.68815623,11.97960604,57.68815767,11.97961533,15:10:01.542843,0.00556,0.00000,0.00000,-0.12266,0.00000,-0.00275,-0.00038,-0.00085,-0.05203,-0.11511,0.99015,1.87583,0.00000,0.27428,0.27428,-1.10731,1.11859,1.80344,-0.55475,1.27874,0.13523,0.13523,A,151001.40
1.89218,57.68815630,11.97960650,57.68815767,11.97961533,15:10:01.553280,0.00557,0.00000,0.00000,-0.12304,0.00000,-0.00122,0.00069,-0.00101,-0.05161,-0.11614,0.99198,1.88635,0.00000,0.25343,0.25343,-1.07968,1.12660,1.80344,-0.55475,1.27874,0.13523,0.13523,A,151001.40
1.90235,57.68815637,11.97960694,57.68815767,11.97961533,15:10:01.563439,0.00517,0.00000,0.00000,-0.12343,0.00000,-0.00184,0.00146,-0.00360,-0.05209,-0.11572,0.99162,1.89659,0.00000,0.23570,0.23570,-1.05343,1.13420,1.80344,-0.55475,1.27874,0.13523,0.13523,A,151001.40
1.93892,57.68815643,11.97960736,57.68815700,11.97962550,15:10:01.600027,0.03134,0.00000,1.50000,-0.12374,0.02000,0.00030,0.00039,0.00189,-0.05069,-0.11291,0.99210,1.90719,0.00000,0.22063,0.22063,-1.02850,1.14143,1.92397,0.04953,1.20461,-0.12207,-0.12207,A,151001.50
1.95803,57.68815646,11.97960827,57.68815700,11.97962550,15:10:01.619114,0.00637,0.00000,0.00000,-0.12406,0.00000,0.00091,0.00069,0.00128,-0.05136,-0.11614,0.99186,1.95223,0.00000,0.16922,0.16922,-0.97460,1.14459,1.92397,0.04953,1.20461,-0.12207,-0.12207,A,151001.50
1.96717,57.68815649,11.97960913,57.68815700,11.97962550,15:10:01.628259,0.00511,0.00000,0.00000,-0.12439,0.00000,-0.00046,0.00023,-0.00177,-0.05063,-0.11456,0.99271,1.96145,0.00000,0.12553,0.12553,-0.92339,1.14759,1.92397,0.04953,1.20461,-0.12207,-0.12207,A,151001.50
1.97942,57.68815651,11.97960995,57.68815700,11.97962550,15:10:01.640534,0.00683,0.00000,0.00000,-0.12470,0.00000,0.00091,-0.00038,-0.00162,-0.05356,-0.11401,0.99223,1.97221,0.00000,0.08839,0.08839,-0.87475,1.15044,1.92397,0.04953,1.20461,-0.12207,-0.12207,A,151001.50
1.98874,57.68815654,11.97961073,57.68815700,11.97962550,15:10:01.650067,0.00546,0.00000,0.00000,-0.12502,0.00000,0.00030,-0.00160,0.00098,-0.05215,-0.11486,0.99223,1.98327,0.00000,0.05682,0.05682,-0.82853,1.15315,1.92397,0.04953,1.20461,-0.12207,-0.12207,A,151001.50
2.00152,57.68815656,11.97961147,57.68815700,11.97962550,15:10:01.662612,0.00801,0.00000,0.00000,-0.12537,0.00000,-0.00122,0.00161,-0.00009,-0.05222,-0.11590,0.99113,1.99525,0.00000,0.02999,0.02999,-0.78463,1.15572,1.92397,0.04953,1.20461,-0.12207,-0.12207,A,151001.50
2.01246,57.68815658,11.97961217,57.68815700,11.97962550,15:10:01.673585,0.00855,0.00000,0.00000,-0.12572,0.00000,-0.00306,0.00054,0.00082,-0.05051,-0.11517,0.99235,2.00445,0.00000,0.00718,0.00718,-0.74292,1.15817,1.92397,0.04953,1.20461,-0.12207,-0.12207,A,151001.50
2.02048,57.68815660,11.97961283,57.68815700,11.97962550,15:10:01.681558,0.00616,0.00000,0.00000,-0.12608,0.00000,-0.00214,-0.00099,0.00037,-0.05167,-0.11657,0.99088,2.01498,0.00000,-0.01221,-0.01221,-0.70330,1.16049,1.92397,0.04953,1.20461,-0.12207,-0.12207,A,151001.50
2.06304,57.68815662,11.97961347,57.68815700,11.97962533,15:10:01.724149,0.03832,0.00000,1.50000,-0.12646,0.02000,-0.00352,-0.00312,-0.00299,-0.05087,-0.11694,0.99113,2.02690,0.00000,-0.02869,-0.02869,-0.66566,1.16270,2.04415,0.03962,1.20461,-3.14159,3.14159,A,151001.60
2.07947,57.68815664,11.97961406,57.68815700,11.97962533,15:10:01.740547,0.00707,0.00000,0.00000,-0.12703,0.00000,-0.00520,0.00039,0.00174,-0.04874,-0.11663,0.99247,2.07374,0.00000,-0.49562,-0.49562,-0.63039,1.16479,2.04415,0.03962,1.20461,-3.14159,3.14159,A,151001.60
2.08811,57.68815666,11.97961462,57.68815700,11.97962533,15:10:01.749197,0.00530,0.00000,0.00000,-0.12730,0.00000,0.00275,0.00176,-0.00299,-0.05228,-0.11541,0.99204,2.08239,0.00000,-0.89252,-0.89252,-0.59689,1.16678,2.04415,0.03962,1.20461,-3.14159,3.14159,A,151001.60
2.09855,57.68815668,11.97961516,57.68815700,11.97962533,15:10:01.759638,0.00519,0.00000,0.00000,-0.12759,0.00000,0.00107,-0.00038,0.00037,-0.05100,-0.11541,0.99162,2.09277,0.00000,-1.22988,-1.22988,-0.56507,1.16867,2.04415,0.03962,1.20461,-3.14159,3.14159,A,151001.60
2.10986,57.68815669,11.97961567,57.68815700,11.97962533,15:10:01.770966,0.00610,0.00000,0.00000,-0.12787,0.00000,-0.00000,0.00054,-0.00040,-0.04843,-0.11486,0.99082,2.10335,0.00000,-1.51664,-1.51664,-0.53483,1.17047,2.04415,0.03962,1.20461,-3.14159,3.14159,A,151001.60
2.12028,57.68815671,11.97961615,57.68815700,11.97962533,15:10:01.781391,0.00612,0.00000,0.00000,-0.12815,0.00000,0.00244,0.00146,-0.00116,-0.05252,-0.11621,0.99094,2.11355,0.00000,-1.76038,-1.76038,-0.50611,1.17218,2.04415,0.03962,1.20461,-3.14159,3.14159,A,151001.60
2.13119,57.68815672,11.97961661,57.68815700,11.97962533,15:10:01.792283,0.00662,0.00000,0.00000,-0.12849,0.00000,-0.00367,-0.00236,-0.00024,-0.04886,-0.11663,0.99210,2.12468,0.00000,-1.96756,-1.96756,-0.47882,1.17380,2.04415,0.03962,1.20461,-3.14159,3.14159,A,151001.60
2.14169,57.68815674,11.97961705,57.68815700,11.97962533,15:10:01.803068,0.00653,0.00000,0.00000,-0.12874,0.00000,0.00244,0.00039,0.00098,-0.05252,-0.11566,0.99442,2.13558,0.00000,-2.14367,-2.14367,-0.45290,1.17534,2.04415,0.03962,1.20461,-3.14159,3.14159,A,151001.60
2.18311,57.68815675,11.97961746,57.68815717,11.97962583,15:10:01.844246,0.03748,0.00000,1.50000,-0.12897,0.02000,0.00076,-0.00221,-0.00070,-0.05398,-0.11309,0.99131,2.14536,0.00000,-2.29335,-2.29335,-0.42827,1.17680,2.16472,0.06934,1.22314,-5.72559,0.55759,A,151001.70
2.20645,57.68815677,11.97961788,57.68815717,11.97962583,15:10:01.867554,0.01207,0.00000,0.00000,-0.12913,0.00000,0.00183,-0.00068,0.00037,-0.05136,-0.11419,0.99015,2.19755,0.00000,-2.80819,-2.80819,-0.40339,1.17912,2.16472,0.06934,1.22314,-5.72559,0.55759,A,151001.70
2.22644,57.68815679,11.97961828,57.68815717,11.97962583,15:10:01.887522,0.00774,0.00000,0.00000,-0.12943,0.00000,-0.00107,-0.00267,0.00312,-0.05270,-0.11602,0.99247,2.21924,0.00000,-3.24580,-3.24580,-0.37976,1.18132,2.16472,0.06934,1.22314,-5.72559,0.55759,A,151001.70
2.23442,57.68815681,11.97961866,57.68815717,11.97962583,15:10:01.895502,0.00519,0.00000,0.00000,-0.12968,0.00000,-0.00061,0.00054,0.00067,-0.05057,-0.11364,0.99052,2.22865,0.00000,-3.61777,-3.61777,-0.35730,1.18341,2.16472,0.06934,1.22314,-5.72559,0.55759,A,151001.70
2.24572,57.68815683,11.97961901,57.68815717,11.97962583,15:10:01.906803,0.00623,0.00000,0.00000,-0.12990,0.00000,0.00046,-0.00221,-0.00009,-0.05313,-0.11346,0.99168,2.23994,0.00000,-3.93394,-3.93394,-0.33597,1.18540,2.16472,0.06934,1.22314,-5.72559,0.55759,A,151001.70
2.25667,57.68815684,11.97961936,57.68815717,11.97962583,15:10:01.917759,0.00695,0.00000,0.00000,-0.13023,0.00000,-0.00428,0.00237,0.00037,-0.05142,-0.11639,0.98710,2.25064,0.00000,-4.20269,-4.20269,-0.31570,1.18729,2.16472,0.06934,1.22314,-5.72559,0.55759,A,151001.70
2.29875,57.68815686,11.97961968,57.68815767,11.97962483,15:10:01.959869,0.03863,0.00000,1.50000,-0.13044,0.02000,0.00336,-0.00190,0.00021,-0.05026,-0.11468,0.99210,2.25974,0.00000,-4.43113,-4.43113,-0.29645,1.18908,2.27811,0.00991,1.27874,-3.89363,2.38956,A,151001.80
2.31727,57.68815690,11.97961994,57.68815767,11.97962483,15:10:01.978367,0.00897,0.00000,0.00000,-0.13069,0.00000,-0.00031,0.00039,-0.00284,-0.05136,-0.11517,0.99253,2.31147,0.00000,-4.35050,-4.35050,-0.28113,1.19356,2.27811,0.00991,1.27874,-3.89363,2.38956,A,151001.80
2.32463,57.68815694,11.97962018,57.68815767,11.97962483,15:10:01.985710,0.00612,0.00000,0.00000,-0.13093,0.00000,0.00015,0.00130,0.00189,-0.05197,-0.11468,0.99113,2.31805,0.00000,-4.28197,-4.28197,-0.26658,1.19782,2.27811,0.00991,1.27874,-3.89363,2.38956,A,151001.80
2.33430,57.68815698,11.97962041,57.68815767,11.97962483,15:10:01.995384,0.00522,0.00000,0.00000,-0.13113,0.00000,0.00214,-0.00145,-0.00116,-0.05051,-0.11425,0.99137,2.32850,0.00000,-4.22372,-4.22372,-0.25276,1.20187,2.27811,0.00991,1.27874,-3.89363,2.38956,A,151001.80
2.34629,57.68815701,11.97962064,57.68815767,11.97962483,15:10:02.007378,0.00654,0.00000,0.00000,-0.13131,0.00000,0.00534,0.00115,-0.00253,-0.05179,-0.11529,0.99040,2.33942,0.00000,-4.17420,-4.17420,-0.23962,1.20571,2.27811,0.00991,1.27874,-3.89363,2.38956,A,151001.80
2.35577,57.68815704,11.97962085,57.68815767,11.97962483,15:10:02.016855,0.00562,0.00000,0.00000,-0.13152,0.00000,0.00290,-0.00007,0.00067,-0.04941,-0.11596,0.99204,2.35027,0.00000,-4.13212,-4.13212,-0.22715,1.20936,2.27811,0.00991,1.27874,-3.89363,2.38956,A,151001.80
2.36592,57.68815707,11.97962104,57.68815767,11.97962483,15:10:02.026998,0.00536,0.00000,0.00000,-0.13179,0.00000,-0.00046,0.00130,-0.00040,-0.04770,-0.11712,0.99192,2.36014,0.00000,-4.09634,-4.09634,-0.21529,1.21283,2.27811,0.00991,1.27874,-3.89363,2.38956,A,151001.80
2.37625,57.68815710,11.97962123,57.68815767,11.97962483,15:10:02.037328,0.00529,0.00000,0.00000,-0.13201,0.00000,-0.00061,-0.00312,-0.00177,-0.05063,-0.11468,0.99223,2.37076,0.00000,-4.06594,-4.06594,-0.20403,1.21613,2.27811,0.00991,1.27874,-3.89363,2.38956,A,151001.80
2.42952,57.68815713,11.97962141,57.68815750,11.97961583,15:10:02.090641,0.04815,0.00000,1.50000,-0.13224,0.02000,-0.00122,-0.00068,0.00144,-0.05252,-0.11547,0.99290,2.38084,0.00000,-4.04009,-4.04009,-0.19334,1.21926,2.40933,-0.52503,1.26021,-3.10696,-3.10696,A,151002.00
2.44870,57.68815715,11.97962113,57.68815750,11.97961583,15:10:02.109782,0.00894,0.00000,0.00000,-0.13235,0.00000,0.00214,0.00283,0.00220,-0.05167,-0.11627,0.99155,2.44238,0.00000,-3.90012,-3.90012,-0.20992,1.22131,2.40933,-0.52503,1.26021,-3.10696,-3.10696,A,151002.00
2.45561,57.68815717,11.97962087,57.68815750,11.97961583,15:10:02.116690,0.00576,0.00000,0.00000,-0.13261,0.00000,-0.00352,0.00023,-0.00085,-0.04959,-0.11657,0.99192,2.44918,0.00000,-3.78115,-3.78115,-0.22568,1.22325,2.40933,-0.52503,1.26021,-3.10696,-3.10696,A,151002.00
2.46564,57.68815718,11.97962062,57.68815750,11.97961583,15:10:02.126721,0.00538,0.00000,0.00000,-0.13283,0.00000,0.00076,0.00405,-0.00131,-0.04868,-0.11633,0.99046,2.45988,0.00000,-3.68002,-3.68002,-0.24064,1.22510,2.40933,-0.52503,1.26021,-3.10696,-3.10696,A,151002.00
2.47631,57.68815720,11.97962038,57.68815750,11.97961583,15:10:02.137391,0.00577,0.00000,0.00000,-0.13302,0.00000,0.00336,0.00191,0.00067,-0.05161,-0.11621,0.99107,2.47079,0.00000,-3.59406,-3.59406,-0.25486,1.22685,2.40933,-0.52503,1.26021,-3.10696,-3.10696,A,151002.00
2.48694,57.68815722,11.97962015,57.68815750,11.97961583,15:10:02.148025,0.00583,0.00000,0.00000,-0.13320,0.00000,0.00183,-0.00145,-0.00147,-0.05228,-0.11456,0.99143,2.48118,0.00000,-3.52100,-3.52100,-0.26837,1.22852,2.40933,-0.52503,1.26021,-3.10696,-3.10696,A,151002.00
2.49660,57.68815723,11.97961994,57.68815750,11.97961583,15:10:02.157682,0.00509,0.00000,0.00000,-0.13337,0.00000,-0.00000,0.00161,0.00021,-0.05051,-0.11315,0.99277,2.49113,0.00000,-3.45889,-3.45889,-0.28120,1.23011,2.40933,-0.52503,1.26021,-3.10696,-3.10696,A,151002.00
2.50693,57.68815724,11.97961973,57.68815750,11.97961583,15:10:02.168015,0.00518,0.00000,0.00000,-0.13358,0.00000,-0.00153,-0.00435,0.00144,-0.05008,-0.11499,0.99381,2.50120,0.00000,-3.40610,-3.40610,-0.29340,1.23161,2.40933,-0.52503,1.26021,-3.10696,-3.10696,A,151002.00
2.55150,57.68815726,11.97961954,57.68815467,11.97962917,15:10:02.213644,0.03935,0.00000,1.50000,-0.13378,0.02000,0.00152,0.00176,-0.00101,-0.05191,-0.11614,0.99131,2.51177,0.00000,-3.36123,-3.36123,-0.30498,1.23304,2.53262,0.26747,0.94516,-0.37839,-0.37839,A,151002.10
2.57138,57.68815713,11.97962002,57.68815467,11.97962917,15:10:02.232461,0.00663,0.00000,0.00000,-0.13378,0.00000,0.00382,0.00176,-0.00040,-0.05209,-0.11572,0.99174,2.56536,0.00000,-2.91380,-2.91380,-0.27635,1.21865,2.53262,0.26747,0.94516,-0.37839,-0.37839,A,151002.10
2.58010,57.68815700,11.97962047,57.68815467,11.97962917,15:10:02.241181,0.00495,0.00000,0.00000,-0.13393,0.00000,0.00091,-0.00236,0.00082,-0.04996,-0.11285,0.99259,2.57462,0.00000,-2.53349,-2.53349,-0.24916,1.20497,2.53262,0.26747,0.94516,-0.37839,-0.37839,A,151002.10
2.59075,57.68815689,11.97962091,57.68815467,11.97962917,15:10:02.251827,0.00534,0.00000,0.00000,-0.13414,0.00000,-0.00184,-0.00236,0.00357,-0.05270,-0.11462,0.99107,2.58483,0.00000,-2.21023,-2.21023,-0.22333,1.19198,2.53262,0.26747,0.94516,-0.37839,-0.37839,A,151002.10
2.60086,57.68815678,11.97962132,57.68815467,11.97962917,15:10:02.262191,0.00506,0.00000,0.00000,-0.13433,0.00000,0.00091,0.00069,-0.00269,-0.05398,-0.11596,0.99149,2.59541,0.00000,-1.93545,-1.93545,-0.19879,1.17964,2.53262,0.26747,0.94516,-0.37839,-0.37839,A,151002.10
2.61136,57.68815667,11.97962171,57.68815467,11.97962917,15:10:02.272444,0.00509,0.00000,0.00000,-0.13451,0.00000,-0.00245,0.00115,0.00006,-0.05148,-0.11352,0.99259,2.60567,0.00000,-1.70189,-1.70189,-0.17548,1.16792,2.53262,0.26747,0.94516,-0.37839,-0.37839,A,151002.10
2.62362,57.68815657,11.97962209,57.68815467,11.97962917,15:10:02.284704,0.00695,0.00000,0.00000,-0.13468,0.00000,0.00336,0.00115,-0.00299,-0.05197,-0.11627,0.99046,2.61628,0.00000,-1.50337,-1.50337,-0.15333,1.15678,2.53262,0.26747,0.94516,-0.37839,-0.37839,A,151002.10
2.63210,57.68815647,11.97962244,57.68815467,11.97962917,15:10:02.293184,0.00503,0.00000,0.00000,-0.13485,0.00000,-0.00046,0.00207,-0.00131,-0.05234,-0.11407,0.99137,2.62664,0.00000,-1.33462,-1.33462,-0.13229,1.14620,2.53262,0.26747,0.94516,-0.37839,-0.37839,A,151002.10
2.67531,57.68815638,11.97962278,57.68815450,11.97963433,15:10:02.336440,0.03794,0.00000,1.50000,-0.13501,0.02000,0.00305,0.00039,0.00144,-0.05173,-0.11602,0.99271,2.63736,0.00000,-1.19118,-1.19118,-0.11230,1.13615,2.65469,0.57456,0.92662,-0.06028,-0.06028,A,151002.20
2.69463,57.68815629,11.97962335,57.68815450,11.97963433,15:10:02.355723,0.00858,0.00000,0.00000,-0.13535,0.00000,-0.00321,0.00085,-0.00040,-0.05148,-0.11578,0.99082,2.68701,0.00000,-1.02155,-1.02155,-0.07796,1.12567,2.65469,0.57456,0.92662,-0.06028,-0.06028,A,151002.20
2.70162,57.68815620,11.97962390,57.68815450,11.97963433,15:10:02.362708,0.00538,0.00000,0.00000,-0.13558,0.00000,-0.00489,0.00054,-0.00040,-0.05215,-0.11633,0.99271,2.69590,0.00000,-0.87736,-0.87736,-0.04534,1.11572,2.65469,0.57456,0.92662,-0.06028,-0.06028,A,151002.20
2.71244,57.68815612,11.97962443,57.68815450,11.97963433,15:10:02.373527,0.00580,0.00000,0.00000,-0.13576,0.00000,-0.00153,-0.00038,-0.00315,-0.05179,-0.11499,0.99351,2.70623,0.00000,-0.75480,-0.75480,-0.01434,1.10626,2.65469,0.57456,0.92662,-0.06028,-0.06028,A,151002.20
2.72240,57.68815603,11.97962492,57.68815450,11.97963433,15:10:02.383488,0.00518,0.00000,0.00000,-0.13592,0.00000,0.00061,0.00039,0.00067,-0.04984,-0.11578,0.99302,2.71663,0.00000,-0.65062,-0.65062,0.01510,1.09728,2.65469,0.57456,0.92662,-0.06028,-0.06028,A,151002.20
2.73470,57.68815596,11.97962539,57.68815450,11.97963433,15:10:02.395780,0.00722,0.00000,0.00000,-0.13610,0.00000,0.00107,-0.00007,-0.00131,-0.05191,-0.11663,0.99003,2.72846,0.00000,-0.56207,-0.56207,0.04308,1.08875,2.65469,0.57456,0.92662,-0.06028,-0.06028,A,151002.20
2.74313,57.68815589,11.97962584,57.68815450,11.97963433,15:10:02.404214,0.00537,0.00000,0.00000,-0.13624,0.00000,0.00183,0.00023,0.00159,-0.05173,-0.11535,0.99381,2.73720,0.00000,-0.48680,-0.48680,0.06965,1.08064,2.65469,0.57456,0.92662,-0.06028,-0.06028,A,151002.20
2.78924,57.68815582,11.97962626,57.68815433,11.97963883,15:10:02.450355,0.04108,0.00000,1.50000,-0.13639,0.02000,0.00030,-0.00022,-0.00360,-0.05276,-0.11444,0.99192,2.74922,0.00000,-0.42282,-0.42282,0.09490,1.07294,2.76848,0.84202,0.90809,-0.06918,-0.06918,A,151002.30
2.80729,57.68815574,11.97962689,57.68815433,11.97963883,15:10:02.468371,0.00681,0.00000,0.00000,-0.13636,0.00000,0.00366,0.00344,-0.00253,-0.05276,-0.11584,0.99308,2.80154,0.00000,-0.36977,-0.36977,0.13225,1.06470,2.76848,0.84202,0.90809,-0.06918,-0.06918,A,151002.30
2.81595,57.68815567,11.97962749,57.68815433,11.97963883,15:10:02.477026,0.00506,0.00000,0.00000,-0.13653,0.00000,0.00061,0.00023,0.00037,-0.05136,-0.11633,0.99155,2.81047,0.00000,-0.32468,-0.32468,0.16774,1.05687,2.76848,0.84202,0.90809,-0.06918,-0.06918,A,151002.30
2.82654,57.68815560,11.97962806,57.68815433,11.97963883,15:10:02.487624,0.00517,0.00000,0.00000,-0.13669,0.00000,-0.00000,-0.00053,0.00052,-0.04923,-0.11590,0.99162,2.82078,0.00000,-0.28636,-0.28636,0.20146,1.04943,2.76848,0.84202,0.90809,-0.06918,-0.06918,A,151002.30
2.83802,57.68815554,11.97962859,57.68815433,11.97963883,15:10:02.499391,0.00626,0.00000,0.00000,-0.13684,0.00000,0.00198,0.00176,0.00067,-0.05057,-0.11572,0.98924,2.83137,0.00000,-0.25378,-0.25378,0.23348,1.04236,2.76848,0.84202,0.90809,-0.06918,-0.06918,A,151002.30
2.84729,57.68815548,11.97962911,57.68815433,11.97963883,15:10:02.508368,0.00512,0.00000,0.00000,-0.13700,0.00000,-0.00184,-0.00297,0.00250,-0.05112,-0.11511,0.99338,2.84155,0.00000,-0.22609,-0.22609,0.26391,1.03565,2.76848,0.84202,0.90809,-0.06918,-0.06918,A,151002.30
2.86024,57.68815542,11.97962959,57.68815433,11.97963883,15:10:02.521336,0.00742,0.00000,0.00000,-0.13717,0.00000,-0.00229,0.00054,-0.00437,-0.05289,-0.11468,0.99143,2.85369,0.00000,-0.20255,-0.20255,0.29282,1.02927,2.76848,0.84202,0.90809,-0.06918,-0.06918,A,151002.30
2.86839,57.68815537,11.97963006,57.68815433,11.97963883,15:10:02.529475,0.00530,0.00000,0.00000,-0.13730,0.00000,0.00458,0.00421,0.00220,-0.04941,-0.11706,0.98887,2.86290,0.00000,-0.18255,-0.18255,0.32028,1.02321,2.76848,0.84202,0.90809,-0.06918,-0.06918,A,151002.30
2.91929,57.68815532,11.97963049,57.68815517,11.97964633,15:10:02.580395,0.04590,0.00000,1.50000,-0.13741,0.02000,0.00214,0.00283,0.00037,-0.05051,-0.11413,0.99204,2.87307,0.00000,-0.16554,-0.16554,0.34636,1.01746,2.90024,1.28780,1.00075,0.20495,0.20495,A,151002.50
2.93940,57.68815531,11.97963129,57.68815517,11.97964633,15:10:02.600488,0.00688,0.00000,0.00000,-0.13776,0.00000,-0.00367,0.00207,-0.00162,-0.05173,-0.11468,0.99198,2.93368,0.00000,-0.10997,-0.10997,0.39344,1.01662,2.90024,1.28780,1.00075,0.20495,0.20495,A,151002.50
2.94799,57.68815530,11.97963204,57.68815517,11.97964633,15:10:02.609076,0.00507,0.00000,0.00000,-0.13792,0.00000,-0.00229,0.00176,-0.00055,-0.05124,-0.11596,0.99302,2.94250,0.00000,-0.06273,-0.06273,0.43815,1.01583,2.90024,1.28780,1.00075,0.20495,0.20495,A,151002.50
2.96024,57.68815530,11.97963275,57.68815517,11.97964633,15:10:02.621344,0.00688,0.00000,0.00000,-0.13807,0.00000,-0.00290,-0.00206,0.00037,-0.05039,-0.11395,0.99204,2.95277,0.00000,-0.02258,-0.02258,0.48064,1.01507,2.90024,1.28780,1.00075,0.20495,0.20495,A,151002.50
2.97118,57.68815529,11.97963343,57.68815517,11.97964633,15:10:02.632265,0.00741,0.00000,0.00000,-0.13819,0.00000,0.00137,0.00344,0.00235,-0.05069,-0.11541,0.99033,2.96453,0.00000,0.01155,0.01155,0.52099,1.01436,2.90024,1.28780,1.00075,0.20495,0.20495,A,151002.50
2.98071,57.68815528,11.97963408,57.68815517,11.97964633,15:10:02.642185,0.00562,0.00000,0.00000,-0.13832,0.00000,-0.00031,0.00069,-0.00284,-0.05258,-0.11505,0.99204,2.97523,0.00000,0.04056,0.04056,0.55934,1.01368,2.90024,1.28780,1.00075,0.20495,0.20495,A,151002.50
2.99111,57.68815528,11.97963469,57.68815517,11.97964633,15:10:02.652195,0.00565,0.00000,0.00000,-0.13843,0.00000,0.00076,0.00069,0.00159,-0.04996,-0.11462,0.99223,2.98535,0.00000,0.06522,0.06522,0.59576,1.01303,2.90024,1.28780,1.00075,0.20495,0.20495,A,151002.50
3.03377,57.68815527,11.97963527,57.68815733,11.97964483,15:10:02.694891,0.03790,0.00000,1.50000,-0.13856,0.02000,-0.00016,0.00375,-0.00009,-0.05118,-0.11608,0.99265,2.99549,0.00000,0.08618,0.08618,0.63036,1.01242,3.01388,1.19865,1.24168,1.92523,1.92523,A,151002.60
3.05158,57.68815537,11.97963575,57.68815733,11.97964483,15:10:02.712658,0.00695,0.00000,0.00000,-0.13857,0.00000,0.00198,0.00100,0.00067,-0.04953,-0.11395,0.99125,3.04606,0.00000,0.36204,0.36204,0.65877,1.02388,3.01388,1.19865,1.24168,1.92523,1.92523,A,151002.60
3.06132,57.68815547,11.97963620,57.68815733,11.97964483,15:10:02.722667,0.00630,0.00000,0.00000,-0.13868,0.00000,-0.00061,0.00130,-0.00192,-0.05392,-0.11352,0.99143,3.05467,0.00000,0.59651,0.59651,0.68577,1.03477,3.01388,1.19865,1.24168,1.92523,1.92523,A,151002.60
3.07055,57.68815557,11.97963664,57.68815733,11.97964483,15:10:02.731631,0.00517,0.00000,0.00000,-0.13875,0.00000,0.00168,0.00344,-0.00085,-0.05307,-0.11297,0.99265,3.06477,0.00000,0.79582,0.79582,0.71141,1.04512,3.01388,1.19865,1.24168,1.92523,1.92523,A,151002.60
3.08184,57.68815565,11.97963705,57.68815733,11.97964483,15:10:02.742922,0.00624,0.00000,0.00000,-0.13890,0.00000,-0.00077,0.00023,0.00037,-0.04972,-0.11688,0.99094,3.07580,0.00000,0.96523,0.96523,0.73577,1.05494,3.01388,1.19865,1.24168,1.92523,1.92523,A,151002.60
3.09127,57.68815574,11.97963744,57.68815733,11.97964483,15:10:02.752352,0.00527,0.00000,0.00000,-0.13902,0.00000,0.00015,-0.00267,0.00266,-0.05228,-0.11566,0.99247,3.08554,0.00000,1.10923,1.10923,0.75892,1.06428,3.01388,1.19865,1.24168,1.92523,1.92523,A,151002.60
3.10178,57.68815582,11.97963781,57.68815733,11.97964483,15:10:02.762867,0.00539,0.00000,0.00000,-0.13913,0.00000,0.00244,0.00085,0.00021,-0.05124,-0.11627,0.99162,3.09603,0.00000,1.23163,1.23163,0.78090,1.07315,3.01388,1.19865,1.24168,1.92523,1.92523,A,151002.60
3.11186,57.68815589,11.97963816,57.68815733,11.97964483,15:10:02.772942,0.00507,0.00000,0.00000,-0.13926,0.00000,-0.00107,-0.00282,0.00037,-0.05276,-0.11535,0.99277,3.10638,0.00000,1.33567,1.33567,0.80179,1.08158,3.01388,1.19865,1.24168,1.92523,1.92523,A,151002.60
3.15489,57.68815597,11.97963849,57.68815983,11.97964233,15:10:02.816013,0.03755,0.00000,1.50000,-0.13939,0.02000,-0.00077,-0.00129,0.00220,-0.05191,-0.11633,0.99271,3.11676,0.00000,1.42410,1.42410,0.82163,1.08958,3.13413,1.05005,1.51966,2.06168,2.06168,A,151002.70
3.17438,57.68815616,11.97963868,57.68815983,11.97964233,15:10:02.835648,0.00681,0.00000,0.00000,-0.13932,0.00000,0.00382,-0.00129,-0.00070,-0.05392,-0.11566,0.99253,3.16849,0.00000,1.51974,1.51974,0.83305,1.11109,3.13413,1.05005,1.51966,2.06168,2.06168,A,151002.70
3.18326,57.68815634,11.97963887,57.68815983,11.97964233,15:10:02.844341,0.00528,0.00000,0.00000,-0.13943,0.00000,-0.00168,-0.00068,0.00128,-0.05136,-0.11401,0.99088,3.17752,0.00000,1.60103,1.60103,0.84390,1.13151,3.13413,1.05005,1.51966,2.06168,2.06168,A,151002.70
3.19518,57.68815652,11.97963904,57.68815983,11.97964233,15:10:02.856270,0.00680,0.00000,0.00000,-0.13955,0.00000,-0.00031,-0.00297,-0.00085,-0.05185,-0.11578,0.99186,3.18941,0.00000,1.67013,1.67013,0.85421,1.15092,3.13413,1.05005,1.51966,2.06168,2.06168,A,151002.70
3.20553,57.68815668,11.97963920,57.68815983,11.97964233,15:10:02.866627,0.00675,0.00000,0.00000,-0.13970,0.00000,-0.00122,-0.00129,-0.00223,-0.05167,-0.11700,0.99180,3.19837,0.00000,1.72886,1.72886,0.86400,1.16936,3.13413,1.05005,1.51966,2.06168,2.06168,A,151002.70
3.21448,57.68815684,11.97963936,57.68815983,11.97964233,15:10:02.875563,0.00515,0.00000,0.00000,-0.13981,0.00000,-0.00199,0.00085,0.00144,-0.05173,-0.11431,0.98991,3.20873,0.00000,1.77879,1.77879,0.87331,1.18687,3.13413,1.05005,1.51966,2.06168,2.06168,A,151002.70
3.22569,57.68815699,11.97963951,57.68815983,11.97964233,15:10:02.886783,0.00570,0.00000,0.00000,-0.13989,0.00000,0.00015,0.00191,-0.00101,-0.05136,-0.11395,0.99345,3.21992,0.00000,1.82122,1.82122,0.88214,1.20351,3.13413,1.05005,1.51966,2.06168,2.06168,A,151002.70
3.26928,57.68815713,11.97963965,57.68816233,11.97963950,15:10:02.930388,0.03888,0.00000,1.50000,-0.14005,0.02000,-0.00413,0.00085,0.00006,-0.05228,-0.11596,0.99155,3.22979,0.00000,1.85729,1.85729,0.89054,1.21932,3.24903,0.88165,1.79765,2.11547,2.11547,A,151002.80
3.28739,57.68815739,11.97963964,57.68816233,11.97963950,15:10:02.948487,0.00764,0.00000,0.00000,-0.14030,0.00000,-0.00290,0.00146,0.00189,-0.05289,-0.11566,0.99235,3.28147,0.00000,1.89602,1.89602,0.89009,1.24824,3.24903,0.88165,1.79765,2.11547,2.11547,A,151002.80
3.29578,57.68815764,11.97963964,57.68816233,11.97963950,15:10:02.956859,0.00563,0.00000,0.00000,-0.14042,0.00000,0.00061,0.00253,-0.00147,-0.04990,-0.11675,0.99210,3.29029,0.00000,1.92894,1.92894,0.88967,1.27571,3.24903,0.88165,1.79765,2.11547,2.11547,A,151002.80
3.30592,57.68815787,11.97963963,57.68816233,11.97963950,15:10:02.967007,0.00538,0.00000,0.00000,-0.14054,0.00000,-0.00107,-0.00251,0.00006,-0.04996,-0.11596,0.99125,3.30015,0.00000,1.95692,1.95692,0.88927,1.30181,3.24903,0.88165,1.79765,2.11547,2.11547,A,151002.80
3.31606,57.68815810,11.97963962,57.68816233,11.97963950,15:10:02.977143,0.00512,0.00000,0.00000,-0.14068,0.00000,-0.00504,0.00085,0.00082,-0.05161,-0.11523,0.99192,3.31060,0.00000,1.98070,1.98070,0.88889,1.32660,3.24903,0.88165,1.79765,2.11547,2.11547,A,151002.80
3.32681,57.68815831,11.97963962,57.68816233,11.97963950,15:10:02.987890,0.00537,0.00000,0.00000,-0.14080,0.00000,-0.00016,0.00039,0.00006,-0.05124,-0.11639,0.98985,3.32087,0.00000,2.00091,2.00091,0.88853,1.35015,3.24903,0.88165,1.79765,2.11547,2.11547,A,151002.80
3.33716,57.68815851,11.97963961,57.68816233,11.97963950,15:10:02.998252,0.00532,0.00000,0.00000,-0.14091,0.00000,-0.00260,0.00100,-0.00299,-0.05203,-0.11499,0.99418,3.33144,0.00000,2.01810,2.01810,0.88818,1.37253,3.24903,0.88165,1.79765,2.11547,2.11547,A,151002.80
3.34859,57.68815870,11.97963960,57.68816233,11.97963950,15:10:03.009672,0.00636,0.00000,0.00000,-0.14095,0.00000,0.00397,0.00222,-0.00162,-0.05161,-0.11486,0.98905,3.34220,0.00000,2.03270,2.03270,0.88786,1.39378,3.24903,0.88165,1.79765,2.11547,2.11547,A,151002.80
3.38839,57.68815888,11.97963960,57.68816350,11.97963800,15:10:03.049499,0.03575,0.00000,1.50000,-0.14107,0.02000,-0.00260,-0.00175,-0.00024,-0.05100,-0.11523,0.98991,3.35225,0.00000,2.04512,2.04512,0.88755,1.41398,3.36957,0.79249,1.92738,2.17292,2.17292,A,151002.90
3.40701,57.68815911,11.97963952,57.68816350,11.97963800,15:10:03.068088,0.00682,0.00000,0.00000,-0.14117,0.00000,-0.00016,0.00161,0.00266,-0.05234,-0.11560,0.99088,3.40122,0.00000,2.06429,2.06429,0.88279,1.43965,3.36957,0.79249,1.92738,2.17292,2.17292,A,151002.90
3.41603,57.68815933,11.97963944,57.68816350,11.97963800,15:10:03.077126,0.00544,0.00000,0.00000,-0.14125,0.00000,0.00076,-0.00038,-0.00131,-0.05124,-0.11517,0.99192,3.41019,0.00000,2.08058,2.08058,0.87828,1.46403,3.36957,0.79249,1.92738,2.17292,2.17292,A,151002.90
3.42644,57.68815954,11.97963937,57.68816350,11.97963800,15:10:03.087530,0.00528,0.00000,0.00000,-0.14133,0.00000,0.00397,0.00115,-0.00162,-0.05148,-0.11779,0.99284,3.42057,0.00000,2.09443,2.09443,0.87399,1.48720,3.36957,0.79249,1.92738,2.17292,2.17292,A,151002.90
3.43760,57.68815974,11.97963930,57.68816350,11.97963800,15:10:03.098695,0.00603,0.00000,0.00000,-0.14142,0.00000,-0.00229,-0.00038,0.00067,-0.05002,-0.11450,0.99174,3.43185,0.00000,2.10620,2.10620,0.86991,1.50921,3.36957,0.79249,1.92738,2.17292,2.17292,A,151002.90
3.44699,57.68815993,11.97963924,57.68816350,11.97963800,15:10:03.108076,0.00519,0.00000,0.00000,-0.14150,0.00000,0.00030,0.00298,-0.00101,-0.05222,-0.11456,0.98881,3.44125,0.00000,2.11621,2.11621,0.86604,1.53012,3.36957,0.79249,1.92738,2.17292,2.17292,A,151002.90
3.45850,57.68816011,11.97963918,57.68816350,11.97963800,15:10:03.119581,0.00605,0.00000,0.00000,-0.14152,0.00000,0.00519,0.00253,-0.00223,-0.04929,-0.11523,0.99277,3.45260,0.00000,2.12472,2.12472,0.86237,1.54998,3.36957,0.79249,1.92738,2.17292,2.17292,A,151002.90
3.47033,57.68816028,11.97963912,57.68816350,11.97963800,15:10:03.131423,0.00748,0.00000,0.00000,-0.14160,0.00000,0.00061,-0.00099,0.00037,-0.05112,-0.11627,0.99314,3.46241,0.00000,2.13195,2.13195,0.85887,1.56885,3.36957,0.79249,1.92738,2.17292,2.17292,A,151002.90
3.52223,57.68816044,11.97963906,57.68816467,11.97963533,15:10:03.183584,0.04886,0.00000,1.50000,-0.14167,0.02000,-0.00031,0.00039,-0.00162,-0.05295,-0.11431,0.99046,3.47296,0.00000,2.13809,2.13809,0.85555,1.58678,3.50074,0.63399,2.05711,2.45569,2.45569,A,151003.10
3.53988,57.68816065,11.97963887,57.68816467,11.97963533,15:10:03.200965,0.00772,0.00000,0.00000,-0.14169,0.00000,0.00091,-0.00022,0.00006,-0.04990,-0.11468,0.99216,3.53436,0.00000,2.18573,2.18573,0.84448,1.61029,3.50074,0.63399,2.05711,2.45569,2.45569,A,151003.10
3.54765,57.68816085,11.97963870,57.68816467,11.97963533,15:10:03.208728,0.00509,0.00000,0.00000,-0.14178,0.00000,-0.00290,-0.00022,-0.00055,-0.05063,-0.11438,0.98966,3.54216,0.00000,2.22622,2.22622,0.83395,1.63263,3.50074,0.63399,2.05711,2.45569,2.45569,A,151003.10
3.55831,57.68816104,11.97963853,57.68816467,11.97963533,15:10:03.219396,0.00518,0.00000,0.00000,-0.14189,0.00000,-0.00321,-0.00038,0.00205,-0.05094,-0.11541,0.99137,3.55255,0.00000,2.26064,2.26064,0.82395,1.65386,3.50074,0.63399,2.05711,2.45569,2.45569,A,151003.10
3.56862,57.68816122,11.97963837,57.68816467,11.97963533,15:10:03.229697,0.00507,0.00000,0.00000,-0.14197,0.00000,-0.00214,-0.00099,-0.00085,-0.05228,-0.11419,0.99046,3.56315,0.00000,2.28990,2.28990,0.81446,1.67402,3.50074,0.63399,2.05711,2.45569,2.45569,A,151003.10
3.57951,57.68816139,11.97963822,57.68816467,11.97963533,15:10:03.240588,0.00547,0.00000,0.00000,-0.14200,0.00000,0.00183,0.00039,-0.00009,-0.05356,-0.11370,0.99064,3.57380,0.00000,2.31477,2.31477,0.80543,1.69317,3.50074,0.63399,2.05711,2.45569,2.45569,A,151003.10
3.59119,57.68816156,11.97963807,57.68816467,11.97963533,15:10:03.252281,0.00676,0.00000,0.00000,-0.14212,0.00000,-0.00367,0.00008,0.00037,-0.05405,-0.11553,0.99247,3.58406,0.00000,2.33591,2.33591,0.79686,1.71137,3.50074,0.63399,2.05711,2.45569,2.45569,A,151003.10
3.59989,57.68816171,11.97963794,57.68816467,11.97963533,15:10:03.260974,0.00505,0.00000,0.00000,-0.14218,0.00000,-0.00061,-0.00007,0.00006,-0.05246,-0.11468,0.99223,3.59443,0.00000,2.35387,2.35387,0.78872,1.72866,3.50074,0.63399,2.05711,2.45569,2.45569,A,151003.10
3.64127,57.68816186,11.97963781,57.68816533,11.97963417,15:10:03.302697,0.03590,0.00000,1.50000,-0.14226,0.02000,-0.00031,-0.00145,0.00052,-0.05222,-0.11541,0.99113,3.60478,0.00000,2.36914,2.36914,0.78098,1.74508,3.62101,0.56465,2.13124,2.32284,2.32284,A,151003.20
3.66215,57.68816203,11.97963762,57.68816533,11.97963417,15:10:03.323240,0.00743,0.00000,0.00000,-0.14234,0.00000,0.00015,0.00466,-0.00208,-0.05252,-0.11651,0.99046,3.65569,0.00000,2.36220,2.36220,0.77016,1.76439,3.62101,0.56465,2.13124,2.32284,2.32284,A,151003.20
3.67047,57.68816220,11.97963745,57.68816533,11.97963417,15:10:03.331556,0.00521,0.00000,0.00000,-0.14243,0.00000,0.00015,-0.00099,-0.00376,-0.04770,-0.11639,0.99082,3.66469,0.00000,2.35630,2.35630,0.75989,1.78273,3.62101,0.56465,2.13124,2.32284,2.32284,A,151003.20
3.68322,57.68816236,11.97963729,57.68816533,11.97963417,15:10:03.344771,0.00729,0.00000,0.00000,-0.14248,0.00000,0.00198,0.00039,0.00037,-0.04898,-0.11566,0.99082,3.67683,0.00000,2.35128,2.35128,0.75013,1.80016,3.62101,0.56465,2.13124,2.32284,2.32284,A,151003.20
3.69215,57.68816250,11.97963713,57.68816533,11.97963417,15:10:03.353234,0.00550,0.00000,0.00000,-0.14250,0.00000,0.00214,-0.00145,0.00052,-0.05337,-0.11376,0.99271,3.68665,0.00000,2.34701,2.34701,0.74085,1.81671,3.62101,0.56465,2.13124,2.32284,2.32284,A,151003.20
3.70332,57.68816265,11.97963698,57.68816533,11.97963417,15:10:03.364433,0.00642,0.00000,0.00000,-0.14257,0.00000,-0.00046,-0.00007,0.00067,-0.05020,-0.11560,0.99210,3.69660,0.00000,2.34339,2.34339,0.73204,1.83244,3.62101,0.56465,2.13124,2.32284,2.32284,A,151003.20
3.71352,57.68816278,11.97963684,57.68816533,11.97963417,15:10:03.374612,0.00622,0.00000,0.00000,-0.14259,0.00000,0.00244,0.00421,-0.00238,-0.05215,-0.11352,0.99162,3.70692,0.00000,2.34031,2.34031,0.72367,1.84738,3.62101,0.56465,2.13124,2.32284,2.32284,A,151003.20
3.75502,57.68816291,11.97963671,57.68816650,11.97963450,15:10:03.416145,0.03747,0.00000,1.50000,-0.14266,0.02000,0.00107,0.00329,0.00144,-0.05240,-0.11682,0.99137,3.71702,0.00000,2.33769,2.33769,0.71572,1.86157,3.73522,0.58446,2.26096,1.41924,1.41924,A,151003.30
3.77511,57.68816309,11.97963660,57.68816650,11.97963450,15:10:03.436193,0.00866,0.00000,0.00000,-0.14275,0.00000,-0.00061,-0.00236,0.00174,-0.05356,-0.11492,0.99235,3.76931,0.00000,2.19992,2.19992,0.70916,1.88154,3.73522,0.58446,2.26096,1.41924,1.41924,A,151003.30
3.78280,57.68816326,11.97963649,57.68816650,11.97963450,15:10:03.443884,0.00625,0.00000,0.00000,-0.14279,0.00000,0.00534,-0.00129,-0.00192,-0.05215,-0.11590,0.99040,3.77686,0.00000,2.08282,2.08282,0.70292,1.90051,3.73522,0.58446,2.26096,1.41924,1.41924,A,151003.30
3.79210,57.68816342,11.97963639,57.68816650,11.97963450,15:10:03.453179,0.00514,0.00000,0.00000,-0.14285,0.00000,-0.00306,-0.00022,-0.00055,-0.05081,-0.11376,0.99277,3.78662,0.00000,1.98328,1.98328,0.69700,1.91853,3.73522,0.58446,2.26096,1.41924,1.41924,A,151003.30
3.80291,57.68816357,11.97963630,57.68816650,11.97963450,15:10:03.464270,0.00554,0.00000,0.00000,-0.14291,0.00000,-0.00061,0.00283,-0.00192,-0.05106,-0.11468,0.99192,3.79677,0.00000,1.89868,1.89868,0.69137,1.93565,3.73522,0.58446,2.26096,1.41924,1.41924,A,151003.30
3.81282,57.68816372,11.97963621,57.68816650,11.97963450,15:10:03.474159,0.00505,0.00000,0.00000,-0.14303,0.00000,-0.00367,-0.00145,-0.00162,-0.05155,-0.11663,0.99125,3.80737,0.00000,1.82676,1.82676,0.68603,1.95192,3.73522,0.58446,2.26096,1.41924,1.41924,A,151003.30
3.82325,57.68816386,11.97963612,57.68816650,11.97963450,15:10:03.484330,0.00508,0.00000,0.00000,-0.14307,0.00000,0.00168,-0.00038,0.00098,-0.05283,-0.11511,0.99076,3.81755,0.00000,1.76563,1.76563,0.68095,1.96737,3.73522,0.58446,2.26096,1.41924,1.41924,A,151003.30
3.83395,57.68816399,11.97963604,57.68816650,11.97963450,15:10:03.495040,0.00538,0.00000,0.00000,-0.14314,0.00000,-0.00077,0.00008,-0.00147,-0.05252,-0.11584,0.99101,3.82817,0.00000,1.71368,1.71368,0.67613,1.98205,3.73522,0.58446,2.26096,1.41924,1.41924,A,151003.30
3.87548,57.68816412,11.97963597,57.68816783,11.97963517,15:10:03.536837,0.03651,0.00000,1.50000,-0.14326,0.02000,-0.00443,0.00100,-0.00330,-0.05252,-0.11621,0.99229,3.83855,0.00000,1.66951,1.66951,0.67154,1.99600,3.85566,0.62409,2.40922,1.30964,1.30964,A,151003.40
3.89256,57.68816430,11.97963593,57.68816783,11.97963517,15:10:03.553643,0.00819,0.00000,0.00000,-0.14314,0.00000,0.00382,0.00314,-0.00070,-0.05405,-0.11547,0.99168,3.88537,0.00000,1.61553,1.61553,0.66917,2.01666,3.85566,0.62409,2.40922,1.30964,1.30964,A,151003.40
3.89984,57.68816448,11.97963589,57.68816783,11.97963517,15:10:03.560920,0.00506,0.00000,0.00000,-0.14321,0.00000,0.00107,0.00008,0.00098,-0.05276,-0.11706,0.99460,3.89436,0.00000,1.56965,1.56965,0.66692,2.03629,3.85566,0.62409,2.40922,1.30964,1.30964,A,151003.40
3.91052,57.68816465,11.97963585,57.68816783,11.97963517,15:10:03.572518,0.00519,0.00000,0.00000,-0.14323,0.00000,0.00229,0.00023,0.00021,-0.05039,-0.11486,0.99320,3.90474,0.00000,1.53064,1.53064,0.66478,2.05493,3.85566,0.62409,2.40922,1.30964,1.30964,A,151003.40
3.92078,57.68816481,11.97963582,57.68816783,11.97963517,15:10:03.582118,0.00505,0.00000,0.00000,-0.14335,0.00000,-0.00474,0.00039,-0.00116,-0.05362,-0.11651,0.99204,3.91534,0.00000,1.49749,1.49749,0.66274,2.07265,3.85566,0.62409,2.40922,1.30964,1.30964,A,151003.40
3.93153,57.68816496,11.97963578,57.68816783,11.97963517,15:10:03.592614,0.00515,0.00000,0.00000,-0.14350,0.00000,-0.00596,0.00023,0.00220,-0.04959,-0.11736,0.99198,3.92583,0.00000,1.46931,1.46931,0.66081,2.08948,3.85566,0.62409,2.40922,1.30964,1.30964,A,151003.40
3.94361,57.68816510,11.97963575,57.68816783,11.97963517,15:10:03.604711,0.00684,0.00000,0.00000,-0.14354,0.00000,-0.00000,0.00130,0.00052,-0.05258,-0.11499,0.99235,3.93644,0.00000,1.44536,1.44536,0.65897,2.10546,3.85566,0.62409,2.40922,1.30964,1.30964,A,151003.40
3.95226,57.68816524,11.97963572,57.68816783,11.97963517,15:10:03.613345,0.00508,0.00000,0.00000,-0.14361,0.00000,-0.00184,-0.00251,-0.00162,-0.05075,-0.11541,0.99357,3.94678,0.00000,1.42500,1.42500,0.65723,2.12065,3.85566,0.62409,2.40922,1.30964,1.30964,A,151003.40
3.98821,57.68816537,11.97963570,57.68816800,11.97963383,15:10:03.649315,0.03078,0.00000,1.50000,-0.14366,0.02000,0.00046,-0.00129,0.00006,-0.05148,-0.11560,0.99015,3.95686,0.00000,1.40770,1.40770,0.65557,2.13508,3.97530,0.54484,2.42776,2.91187,2.91187,A,151003.50
4.00703,57.68816550,11.97963560,57.68816800,11.97963383,15:10:03.668112,0.00681,0.00000,0.00000,-0.14370,0.00000,0.00046,-0.00206,-0.00131,-0.04862,-0.11621,0.99186,4.00122,0.00000,1.63332,1.63332,0.65003,2.14971,3.97530,0.54484,2.42776,2.91187,2.91187,A,151003.50
4.01569,57.68816562,11.97963551,57.68816800,11.97963383,15:10:03.678054,0.00508,0.00000,0.00000,-0.14378,0.00000,-0.00214,-0.00358,-0.00147,-0.05057,-0.11596,0.98960,4.01020,0.00000,1.82511,1.82511,0.64477,2.16362,3.97530,0.54484,2.42776,2.91187,2.91187,A,151003.50
4.02640,57.68816574,11.97963543,57.68816800,11.97963383,15:10:03.687483,0.00520,0.00000,0.00000,-0.14385,0.00000,-0.00199,-0.00099,-0.00223,-0.05209,-0.11572,0.99198,4.02061,0.00000,1.98812,1.98812,0.63978,2.17682,3.97530,0.54484,2.42776,2.91187,2.91187,A,151003.50
4.03669,57.68816586,11.97963535,57.68816800,11.97963383,15:10:03.697767,0.00509,0.00000,0.00000,-0.14391,0.00000,0.00107,-0.00221,-0.00208,-0.05112,-0.11669,0.99284,4.03121,0.00000,2.12668,2.12668,0.63503,2.18937,3.97530,0.54484,2.42776,2.91187,2.91187,A,151003.50
4.04801,57.68816596,11.97963527,57.68816800,11.97963383,15:10:03.709092,0.00597,0.00000,0.00000,-0.14395,0.00000,-0.00245,0.00268,-0.00101,-0.05203,-0.11328,0.98930,4.04144,0.00000,2.24446,2.24446,0.63052,2.20129,3.97530,0.54484,2.42776,2.91187,2.91187,A,151003.50
4.05783,57.68816607,11.97963520,57.68816800,11.97963383,15:10:03.718912,0.00539,0.00000,0.00000,-0.14392,0.00000,0.00382,-0.00206,-0.00040,-0.05240,-0.11285,0.99070,4.05205,0.00000,2.34457,2.34457,0.62624,2.21261,3.97530,0.54484,2.42776,2.91187,2.91187,A,151003.50
4.06792,57.68816616,11.97963513,57.68816800,11.97963383,15:10:03.729006,0.00508,0.00000,0.00000,-0.14402,0.00000,-0.00229,-0.00297,0.00067,-0.04959,-0.11675,0.98899,4.06244,0.00000,2.42967,2.42967,0.62217,2.22337,3.97530,0.54484,2.42776,2.91187,2.91187,A,151003.50
4.12142,57.68816625,11.97963507,57.68817100,11.97962500,15:10:03.782529,0.04805,0.00000,1.50000,-0.14406,0.02000,-0.00092,0.00023,-0.00055,-0.05130,-0.11505,0.99479,4.07310,0.00000,2.50200,2.50200,0.61830,2.23359,4.10156,0.01981,2.76134,2.57557,2.57557,A,151003.70
4.14069,57.68816649,11.97963457,57.68817100,11.97962500,15:10:03.801777,0.00682,0.00000,0.00000,-0.14425,0.00000,-0.00229,0.00176,0.00220,-0.05179,-0.11608,0.99406,4.13518,0.00000,2.51303,2.51303,0.58838,2.25998,4.10156,0.01981,2.76134,2.57557,2.57557,A,151003.70
4.14984,57.68816672,11.97963409,57.68817100,11.97962500,15:10:03.810927,0.00565,0.00000,0.00000,-0.14430,0.00000,-0.00336,-0.00221,0.00159,-0.05356,-0.11431,0.99162,4.14404,0.00000,2.52241,2.52241,0.55995,2.28504,4.10156,0.01981,2.76134,2.57557,2.57557,A,151003.70
4.15966,57.68816693,11.97963363,57.68817100,11.97962500,15:10:03.820740,0.00507,0.00000,0.00000,-0.14441,0.00000,-0.00611,-0.00083,0.00082,-0.04825,-0.11560,0.99174,4.15417,0.00000,2.53039,2.53039,0.53294,2.30886,4.10156,0.01981,2.76134,2.57557,2.57557,A,151003.70
4.17196,57.68816713,11.97963320,57.68817100,11.97962500,15:10:03.833050,0.00679,0.00000,0.00000,-0.14443,0.00000,0.00122,0.00039,0.00021,-0.05094,-0.11505,0.99302,4.16576,0.00000,2.53717,2.53717,0.50728,2.33148,4.10156,0.01981,2.76134,2.57557,2.57557,A,151003.70
4.18145,57.68816733,11.97963279,57.68817100,11.97962500,15:10:03.842542,0.00588,0.00000,0.00000,-0.14442,0.00000,0.00458,0.00100,0.00113,-0.05344,-0.11553,0.99131,4.17535,0.00000,2.54293,2.54293,0.48291,2.35298,4.10156,0.01981,2.76134,2.57557,2.57557,A,151003.70
4.19217,57.68816751,11.97963240,57.68817100,11.97962500,15:10:03.853253,0.00593,0.00000,0.00000,-0.14442,0.00000,0.00320,0.00085,-0.00513,-0.05179,-0.11480,0.99210,4.18664,0.00000,2.54782,2.54782,0.45976,2.37339,4.10156,0.01981,2.76134,2.57557,2.57557,A,151003.70
4.23243,57.68816769,11.97963203,57.68817317,11.97961917,15:10:03.894016,0.03579,0.00000,1.50000,-0.14446,0.02000,-0.00199,0.00161,0.00021,-0.05081,-0.11425,0.99192,4.19624,0.00000,2.55199,2.55199,0.43776,2.39279,4.21242,-0.32690,3.00226,2.53432,2.53432,A,151003.80
4.25312,57.68816796,11.97963139,57.68817317,11.97961917,15:10:03.914224,0.00666,0.00000,0.00000,-0.14471,0.00000,-0.00443,-0.00053,0.00037,-0.05209,-0.11505,0.99503,4.24739,0.00000,2.54934,2.54934,0.39953,2.42327,4.21242,-0.32690,3.00226,2.53432,2.53432,A,151003.80
4.26200,57.68816822,11.97963078,57.68817317,11.97961917,15:10:03.923085,0.00535,0.00000,0.00000,-0.14472,0.00000,0.00259,0.00146,-0.00055,-0.05136,-0.11547,0.99137,4.25622,0.00000,2.54708,2.54708,0.36320,2.45222,4.21242,-0.32690,3.00226,2.53432,2.53432,A,151003.80
4.27254,57.68816847,11.97963020,57.68817317,11.97961917,15:10:03.933622,0.00516,0.00000,0.00000,-0.14474,0.00000,0.00152,0.00054,0.00159,-0.05057,-0.11578,0.99155,4.26707,0.00000,2.54517,2.54517,0.32870,2.47972,4.21242,-0.32690,3.00226,2.53432,2.53432,A,151003.80
4.28320,57.68816870,11.97962965,57.68817317,11.97961917,15:10:03.944287,0.00549,0.00000,0.00000,-0.14481,0.00000,-0.00336,-0.00297,0.00113,-0.05069,-0.11492,0.98905,4.27748,0.00000,2.54354,2.54354,0.29592,2.50585,4.21242,-0.32690,3.00226,2.53432,2.53432,A,151003.80
4.29459,57.68816893,11.97962912,57.68817317,11.97961917,15:10:03.955672,0.00640,0.00000,0.00000,-0.14493,0.00000,-0.00581,-0.00160,-0.00284,-0.05057,-0.11682,0.99131,4.28879,0.00000,2.54216,2.54216,0.26478,2.53067,4.21242,-0.32690,3.00226,2.53432,2.53432,A,151003.80
4.30366,57.68816914,11.97962862,57.68817317,11.97961917,15:10:03.964739,0.00507,0.00000,0.00000,-0.14493,0.00000,0.00351,0.00069,-0.00131,-0.05161,-0.11529,0.99046,4.29818,0.00000,2.54098,2.54098,0.23519,2.55425,4.21242,-0.32690,3.00226,2.53432,2.53432,A,151003.80
4.34421,57.68816934,11.97962815,57.68817517,11.97961300,15:10:04.005342,0.03442,0.00000,1.50000,-0.14495,0.02000,0.00061,-0.00022,0.00098,-0.04959,-0.11486,0.99058,4.30859,0.00000,2.53998,2.53998,0.20709,2.57665,4.32470,-0.69343,3.22465,2.59623,2.59623,A,151003.90
4.36427,57.68816963,11.97962739,57.68817517,11.97961300,15:10:04.025363,0.00786,0.00000,0.00000,-0.14487,0.00000,0.00168,0.00176,-0.00192,-0.05350,-0.11346,0.98997,4.35774,0.00000,2.54842,2.54842,0.16206,2.60905,4.32470,-0.69343,3.22465,2.59623,2.59623,A,151003.90
4.37189,57.68816991,11.97962667,57.68817517,11.97961300,15:10:04.032972,0.00507,0.00000,0.00000,-0.14492,0.00000,-0.00474,-0.00114,0.00281,-0.05142,-0.11370,0.99296,4.36640,0.00000,2.55559,2.55559,0.11929,2.63983,4.32470,-0.69343,3.22465,2.59623,2.59623,A,151003.90
4.38329,57.68817017,11.97962599,57.68817517,11.97961300,15:10:04.044373,0.00568,0.00000,0.00000,-0.14490,0.00000,0.00275,0.00039,-0.00085,-0.05063,-0.11419,0.99137,4.37757,0.00000,2.56169,2.56169,0.07865,2.66907,4.32470,-0.69343,3.22465,2.59623,2.59623,A,151003.90
4.39434,57.68817042,11.97962534,57.68817517,11.97961300,15:10:04.055427,0.00633,0.00000,0.00000,-0.14492,0.00000,-0.00016,-0.00007,-0.00208,-0.05179,-0.11486,0.99320,4.38792,0.00000,2.56687,2.56687,0.04005,2.69685,4.32470,-0.69343,3.22465,2.59623,2.59623,A,151003.90
4.40534,57.68817066,11.97962472,57.68817517,11.97961300,15:10:04.066439,0.00603,0.00000,0.00000,-0.14498,0.00000,-0.00229,-0.00099,-0.00147,-0.05344,-0.11584,0.99223,4.39959,0.00000,2.57127,2.57127,0.00337,2.72324,4.32470,-0.69343,3.22465,2.59623,2.59623,A,151003.90
4.41562,57.68817088,11.97962414,57.68817517,11.97961300,15:10:04.076701,0.00606,0.00000,0.00000,-0.14502,0.00000,-0.00153,0.00130,-0.00040,-0.04837,-0.11480,0.99088,4.40899,0.00000,2.57501,2.57501,-0.03147,2.74831,4.32470,-0.69343,3.22465,2.59623,2.59623,A,151003.90
4.42529,57.68817110,11.97962358,57.68817517,11.97961300,15:10:04.086382,0.00532,0.00000,0.00000,-0.14508,0.00000,-0.00122,-0.00022,0.00312,-0.05368,-0.11657,0.99253,4.41957,0.00000,2.57820,2.57820,-0.06456,2.77213,4.32470,-0.69343,3.22465,2.59623,2.59623,A,151003.90
4.46718,57.68817130,11.97962305,57.68817733,11.97960350,15:10:04.128300,0.03649,0.00000,1.50000,-0.14508,0.02000,0.00290,-0.00038,-0.00070,-0.05185,-0.11590,0.99271,4.43033,0.00000,2.58090,2.58090,-0.09601,2.79475,4.44631,-1.25808,3.46558,2.73830,2.73830,A,151004.00
4.48652,57.68817160,11.97962207,57.68817733,11.97960350,15:10:04.147600,0.00700,0.00000,0.00000,-0.14518,0.00000,-0.00061,0.00298,-0.00223,-0.04978,-0.11797,0.98966,4.48070,0.00000,2.60451,2.60451,-0.15411,2.82829,4.44631,-1.25808,3.46558,2.73830,2.73830,A,151004.00
4.49711,57.68817189,11.97962115,57.68817733,11.97960350,15:10:04.158225,0.00719,0.00000,0.00000,-0.14521,0.00000,-0.00122,0.00085,0.00037,-0.05106,-0.11468,0.99040,4.48931,0.00000,2.62458,2.62458,-0.20931,2.86016,4.44631,-1.25808,3.46558,2.73830,2.73830,A,151004.00
4.50702,57.68817216,11.97962026,57.68817733,11.97960350,15:10:04.168106,0.00670,0.00000,0.00000,-0.14526,0.00000,-0.00184,0.00237,-0.00223,-0.05136,-0.11553,0.99393,4.50089,0.00000,2.64164,2.64164,-0.26175,2.89043,4.44631,-1.25808,3.46558,2.73830,2.73830,A,151004.00
4.51601,57.68817242,11.97961942,57.68817733,11.97960350,15:10:04.177092,0.00528,0.00000,0.00000,-0.14529,0.00000,-0.00184,-0.00236,-0.00085,-0.05222,-0.11474,0.99174,4.51052,0.00000,2.65614,2.65614,-0.31157,2.91919,4.44631,-1.25808,3.46558,2.73830,2.73830,A,151004.00
4.52676,57.68817267,11.97961863,57.68817733,11.97960350,15:10:04.187840,0.00524,0.00000,0.00000,-0.14533,0.00000,-0.00260,0.00039,-0.00147,-0.05142,-0.11413,0.99223,4.52098,0.00000,2.66846,2.66846,-0.35889,2.94651,4.44631,-1.25808,3.46558,2.73830,2.73830,A,151004.00
4.53791,57.68817290,11.97961787,57.68817733,11.97960350,15:10:04.199017,0.00599,0.00000,0.00000,-0.14533,0.00000,0.00091,-0.00129,0.00144,-0.05222,-0.11462,0.99088,4.53155,0.00000,2.67894,2.67894,-0.40385,2.97246,4.44631,-1.25808,3.46558,2.73830,2.73830,A,151004.00
4.57753,57.68817312,11.97961715,57.68817650,11.97960433,15:10:04.239487,0.03521,0.00000,1.50000,-0.14538,0.02000,-0.00321,-0.00053,-0.00116,-0.05045,-0.11468,0.99216,4.54171,0.00000,2.68784,2.68784,-0.44656,2.99711,4.55789,-1.20855,3.37291,5.20328,-1.07991,A,151004.10
4.59881,57.68817329,11.97961651,57.68817650,11.97960433,15:10:04.259899,0.00809,0.00000,0.00000,-0.14517,0.00000,0.00458,0.00085,-0.00131,-0.05185,-0.11535,0.99259,4.59241,0.00000,3.06516,3.06516,-0.48466,3.01590,4.55789,-1.20855,3.37291,5.20328,-1.07991,A,151004.10
4.60699,57.68817345,11.97961590,57.68817650,11.97960433,15:10:04.268067,0.00572,0.00000,0.00000,-0.14520,0.00000,-0.00000,0.00207,-0.00162,-0.05069,-0.11590,0.99308,4.60123,0.00000,3.38588,3.38588,-0.52086,3.03375,4.55789,-1.20855,3.37291,5.20328,-1.07991,A,151004.10
4.61674,57.68817360,11.97961532,57.68817650,11.97960433,15:10:04.277817,0.00506,0.00000,0.00000,-0.14525,0.00000,-0.00184,0.00176,0.00052,-0.05307,-0.11547,0.99302,4.61129,0.00000,3.65849,3.65849,-0.55524,3.05071,4.55789,-1.20855,3.37291,5.20328,-1.07991,A,151004.10
4.62718,57.68817375,11.97961478,57.68817650,11.97960433,15:10:04.288264,0.00511,0.00000,0.00000,-0.14523,0.00000,0.00290,0.00115,-0.00009,-0.05283,-0.11480,0.99223,4.62146,0.00000,3.89021,3.89021,-0.58791,3.06682,4.55789,-1.20855,3.37291,5.20328,-1.07991,A,151004.10
4.63922,57.68817388,11.97961425,57.68817650,11.97960433,15:10:04.300308,0.00674,0.00000,0.00000,-0.14523,0.00000,0.00259,0.00130,-0.00116,-0.05069,-0.11547,0.99174,4.63348,0.00000,4.08717,4.08717,-0.61894,3.08213,4.55789,-1.20855,3.37291,5.20328,-1.07991,A,151004.10
4.64927,57.68817402,11.97961376,57.68817650,11.97960433,15:10:04.310363,0.00639,0.00000,0.00000,-0.14521,0.00000,0.00275,-0.00099,-0.00070,-0.05197,-0.11383,0.99259,4.64275,0.00000,4.25458,4.25458,-0.64842,3.09667,4.55789,-1.20855,3.37291,5.20328,-1.07991,A,151004.10
4.68998,57.68817414,11.97961329,57.68817517,11.97960500,15:10:04.351096,0.03661,0.00000,1.50000,-0.14529,0.02000,-0.00367,-0.00160,-0.00238,-0.05209,-0.11694,0.99149,4.65278,0.00000,4.39689,4.39689,-0.67643,3.11048,4.66969,-1.16893,3.22465,4.97355,-1.30964,A,151004.20
4.71147,57.68817419,11.97961287,57.68817517,11.97960500,15:10:04.372562,0.01104,0.00000,0.00000,-0.14527,0.00000,0.00137,-0.00297,-0.00009,-0.05142,-0.11651,0.99015,4.70206,0.00000,4.48339,4.48339,-0.70105,3.11619,4.66969,-1.16893,3.22465,4.97355,-1.30964,A,151004.20
4.73209,57.68817424,11.97961248,57.68817517,11.97960500,15:10:04.393176,0.00853,0.00000,0.00000,-0.14533,0.00000,-0.00199,-0.00145,-0.00131,-0.05209,-0.11499,0.99375,4.72491,0.00000,4.55691,4.55691,-0.72445,3.12161,4.66969,-1.16893,3.22465,4.97355,-1.30964,A,151004.20
4.73950,57.68817429,11.97961210,57.68817517,11.97960500,15:10:04.400577,0.00575,0.00000,0.00000,-0.14539,0.00000,-0.00199,-0.00038,-0.00177,-0.05319,-0.11614,0.99052,4.73381,0.00000,4.61941,4.61941,-0.74667,3.12676,4.66969,-1.16893,3.22465,4.97355,-1.30964,A,151004.20
4.75013,57.68817433,11.97961175,57.68817517,11.97960500,15:10:04.411217,0.00598,0.00000,0.00000,-0.14544,0.00000,-0.00382,0.00100,-0.00208,-0.05026,-0.11474,0.99479,4.74433,0.00000,4.67253,4.67253,-0.76778,3.13166,4.66969,-1.16893,3.22465,4.97355,-1.30964,A,151004.20
4.75963,57.68817437,11.97961141,57.68817517,11.97960500,15:10:04.420712,0.00509,0.00000,0.00000,-0.14549,0.00000,-0.00092,0.00207,0.00266,-0.05118,-0.11724,0.99223,4.75414,0.00000,4.71768,4.71768,-0.78784,3.13631,4.66969,-1.16893,3.22465,4.97355,-1.30964,A,151004.20
4.80258,57.68817441,11.97961109,57.68817417,11.97960750,15:10:04.463898,0.03745,0.00000,1.50000,-0.14549,0.02000,0.00030,-0.00129,-0.00177,-0.05142,-0.11419,0.99265,4.76453,0.00000,4.75606,4.75606,-0.80689,3.14072,4.78127,-1.02033,3.11346,5.64076,-0.64243,A,151004.30
4.82151,57.68817440,11.97961091,57.68817417,11.97960750,15:10:04.482601,0.00766,0.00000,0.00000,-0.14545,0.00000,0.00091,-0.00022,-0.00131,-0.05173,-0.11376,0.99192,4.81545,0.00000,4.88877,4.88877,-0.81757,3.13936,4.78127,-1.02033,3.11346,5.64076,-0.64243,A,151004.30
4.82959,57.68817439,11.97961074,57.68817417,11.97960750,15:10:04.490681,0.00533,0.00000,0.00000,-0.14546,0.00000,0.00107,-0.00022,-0.00177,-0.05319,-0.11529,0.99137,4.82388,0.00000,5.00157,5.00157,-0.82770,3.13807,4.78127,-1.02033,3.11346,5.64076,-0.64243,A,151004.30
4.83976,57.68817438,11.97961058,57.68817417,11.97960750,15:10:04.500837,0.00509,0.00000,0.00000,-0.14544,0.00000,0.00275,0.00039,-0.00208,-0.05112,-0.11419,0.99015,4.83425,0.00000,5.09744,5.09744,-0.83734,3.13684,4.78127,-1.02033,3.11346,5.64076,-0.64243,A,151004.30
4.85047,57.68817437,11.97961042,57.68817417,11.97960750,15:10:04.511560,0.00526,0.00000,0.00000,-0.14551,0.00000,-0.00504,-0.00312,0.00113,-0.05155,-0.11529,0.99107,4.84462,0.00000,5.17894,5.17894,-0.84649,3.13567,4.78127,-1.02033,3.11346,5.64076,-0.64243,A,151004.30
4.86351,57.68817436,11.97961028,57.68817417,11.97960750,15:10:04.524608,0.00790,0.00000,0.00000,-0.14553,0.00000,-0.00046,0.00130,0.00189,-0.05313,-0.11492,0.99155,4.85522,0.00000,5.24821,5.24821,-0.85518,3.13456,4.78127,-1.02033,3.11346,5.64076,-0.64243,A,151004.30
4.87113,57.68817435,11.97961014,57.68817417,11.97960750,15:10:04.532212,0.00512,0.00000,0.00000,-0.14552,0.00000,0.00229,0.00100,-0.00147,-0.05130,-0.11456,0.99046,4.86540,0.00000,5.30710,5.30710,-0.86344,3.13350,4.78127,-1.02033,3.11346,5.64076,-0.64243,A,151004.30
4.92190,57.68817434,11.97961001,57.68817350,11.97961583,15:10:04.583525,0.04549,0.00000,1.50000,-0.14558,0.02000,-0.00306,0.00344,-0.00253,-0.05094,-0.11486,0.98899,4.87767,0.00000,5.35715,5.35715,-0.87128,3.13250,4.90483,-0.52503,3.03933,6.13462,-0.14856,A,151004.50
4.94346,57.68817430,11.97961030,57.68817350,11.97961583,15:10:04.604547,0.00749,0.00000,0.00000,-0.14553,0.00000,0.00091,-0.00114,-0.00040,-0.05222,-0.11413,0.99009,4.93748,0.00000,5.47377,5.47377,-0.85397,3.12784,4.90483,-0.52503,3.03933,6.13462,-0.14856,A,151004.50
4.95147,57.68817426,11.97961058,57.68817350,11.97961583,15:10:04.612552,0.00508,0.00000,0.00000,-0.14554,0.00000,0.00137,0.00085,0.00128,-0.05014,-0.11523,0.99052,4.94577,0.00000,5.57290,5.57290,-0.83752,3.12342,4.90483,-0.52503,3.03933,6.13462,-0.14856,A,151004.50
4.96223,57.68817422,11.97961084,57.68817350,11.97961583,15:10:04.623311,0.00545,0.00000,0.00000,-0.14560,0.00000,-0.00260,-0.00007,-0.00085,-0.05301,-0.11590,0.99076,4.95644,0.00000,5.65715,5.65715,-0.82190,3.11921,4.90483,-0.52503,3.03933,6.13462,-0.14856,A,151004.50
4.97266,57.68817418,11.97961109,57.68817350,11.97961583,15:10:04.633741,0.00563,0.00000,0.00000,-0.14562,0.00000,0.00152,-0.00053,-0.00437,-0.05094,-0.11627,0.98887,4.96718,0.00000,5.72878,5.72878,-0.80705,3.11522,4.90483,-0.52503,3.03933,6.13462,-0.14856,A,151004.50
4.98377,57.68817415,11.97961133,57.68817350,11.97961583,15:10:04.644865,0.00634,0.00000,0.00000,-0.14568,0.00000,-0.00122,-0.00465,-0.00040,-0.05124,-0.11706,0.99094,4.97690,0.00000,5.78965,5.78965,-0.79295,3.11142,4.90483,-0.52503,3.03933,6.13462,-0.14856,A,151004.50
4.99324,57.68817412,11.97961155,57.68817350,11.97961583,15:10:04.654340,0.00536,0.00000,0.00000,-0.14568,0.00000,0.00137,0.00176,-0.00147,-0.05063,-0.11523,0.99088,4.98751,0.00000,5.84140,5.84140,-0.77956,3.10782,4.90483,-0.52503,3.03933,6.13462,-0.14856,A,151004.50
5.00336,57.68817409,11.97961177,57.68817350,11.97961583,15:10:04.664439,0.00508,0.00000,0.00000,-0.14568,0.00000,0.00152,0.00069,0.00006,-0.05197,-0.11474,0.99308,4.99767,0.00000,5.88538,5.88538,-0.76683,3.10439,4.90483,-0.52503,3.03933,6.13462,-0.14856,A,151004.50
5.05216,57.68817406,11.97961197,57.68817250,11.97961933,15:10:04.713279,0.04347,0.00000,1.50000,0.00000,0.02000,0.00091,0.00023,-0.00437,-0.05155,-0.11444,0.99162,5.00828,1.50000,1.66642,1.67864,-0.31700,2.92813,5.02544,-0.31700,2.92813,5.79231,-0.49088,A,151004.60
5.07806,57.68817322,11.97961919,57.68817250,11.97961933,15:10:04.739157,0.01370,0.00000,0.00000,-0.00210,-0.14011,0.00198,0.00146,0.00144,-0.04996,-0.11621,0.99418,5.06735,1.20000,2.29950,2.21358,-0.32563,3.00788,5.02544,-0.31700,2.92813,5.79231,-0.49088,A,151004.60
5.10412,57.68817339,11.97961891,57.68817250,11.97961933,15:10:04.765230,0.01175,0.00000,0.00000,-0.00427,-0.14011,0.00076,0.00130,0.00174,-0.05112,-0.11669,0.99406,5.09376,0.96000,2.83306,2.74714,-0.34217,3.02655,5.02544,-0.31700,2.92813,5.79231,-0.49088,A,151004.60
5.12775,57.68817341,11.97961863,57.68817250,11.97961933,15:10:04.788848,0.01171,0.00000,0.00000,-0.00643,-0.14011,-0.00184,0.00314,0.00037,-0.04917,-0.11468,0.99406,5.11727,0.76800,3.28758,3.20166,-0.35903,3.02917,5.02544,-0.31700,2.92813,5.79231,-0.49088,A,151004.60
5.16627,57.68817336,11.97961841,57.68817133,11.97962350,15:10:04.827703,0.02665,0.00000,0.00000,-0.00842,-0.14011,0.00580,0.00146,-0.00192,-0.05045,-0.11553,0.99094,5.14015,0.61440,3.67444,3.58852,-0.37207,3.02321,5.15625,-0.06934,2.79841,5.80066,-0.48253,A,151004.70
5.19281,57.68817316,11.97961830,57.68817133,11.97962350,15:10:04.854115,0.01309,0.00000,0.00000,-0.01055,-0.14011,-0.00168,0.00207,-0.00055,-0.05252,-0.11462,0.99149,5.18250,0.49152,4.00356,3.91764,-0.37814,3.00181,5.15625,-0.06934,2.79841,5.80066,-0.48253,A,151004.70
5.21623,57.68817301,11.97961845,57.68817133,11.97962350,15:10:04.877325,0.01146,0.00000,0.00000,-0.01260,-0.14011,-0.00046,0.00115,-0.00116,-0.05020,-0.11474,0.99058,5.20517,0.39322,4.28490,4.19899,-0.36958,2.98489,5.15625,-0.06934,2.79841,5.80066,-0.48253,A,151004.70
5.23934,57.68817287,11.97961864,57.68817133,11.97962350,15:10:04.900433,0.01172,0.00000,0.00000,-0.01456,-0.14011,0.00107,0.00283,-0.00085,-0.05234,-0.11315,0.99143,5.22877,0.31457,4.52431,4.43839,-0.35819,2.96914,5.15625,-0.06934,2.79841,5.80066,-0.48253,A,151004.70
5.25978,57.68817275,11.97961886,57.68817133,11.97962350,15:10:04.920895,0.01281,0.00000,0.00000,-0.01655,-0.14011,0.00015,0.00176,0.00006,-0.05179,-0.11578,0.99216,5.24861,0.25166,4.72804,4.64212,-0.34517,2.95552,5.15625,-0.06934,2.79841,5.80066,-0.48253,A,151004.70
5.30772,57.68817263,11.97961909,57.68816817,11.97963500,15:10:04.969134,0.03804,0.00000,0.00000,-0.01849,-0.14011,-0.00000,0.00054,0.00464,-0.05240,-0.11444,0.99277,5.27120,0.20133,4.90128,4.81536,-0.33171,2.94295,5.29785,0.61418,2.44629,5.80749,-0.47569,A,151004.90
5.33023,57.68817233,11.97961990,57.68816817,11.97963500,15:10:04.991340,0.01307,0.00000,0.00000,-0.02036,-0.14011,0.00107,-0.00190,0.00021,-0.04978,-0.11505,0.99467,5.31672,0.16106,5.04913,4.96321,-0.28355,2.90974,5.29785,0.61418,2.44629,5.80749,-0.47569,A,151004.90
5.35554,57.68817210,11.97962067,57.68816817,11.97963500,15:10:05.016645,0.01285,0.00000,0.00000,-0.02227,-0.14011,-0.00138,0.00237,-0.00162,-0.05020,-0.11407,0.99454,5.34516,0.12885,5.17537,5.08945,-0.23778,2.88312,5.29785,0.61418,2.44629,5.80749,-0.47569,A,151004.90
5.37849,57.68817188,11.97962140,57.68816817,11.97963500,15:10:05.039600,0.01167,0.00000,0.00000,-0.02417,-0.14011,-0.00092,0.00253,-0.00116,-0.04886,-0.11596,0.99192,5.36808,0.10308,5.28278,5.19686,-0.19424,2.85890,5.29785,0.61418,2.44629,5.80749,-0.47569,A,151004.90
5.42032,57.68817167,11.97962210,57.68816683,11.97964033,15:10:05.081436,0.03031,0.00000,0.00000,-0.02611,-0.14011,-0.00443,-0.00206,0.00067,-0.05161,-0.11505,0.99137,5.39206,0.08246,5.37413,5.28821,-0.15283,2.83638,5.40860,0.93118,2.29803,5.84571,-0.43748,A,151005.00
5.44397,57.68817141,11.97962303,57.68816683,11.97964033,15:10:05.105425,0.01200,0.00000,0.00000,-0.02796,-0.14011,-0.00092,0.00268,-0.00299,-0.05063,-0.11486,0.99162,5.43313,0.06597,5.45741,5.37149,-0.09698,2.80693,5.40860,0.93118,2.29803,5.84571,-0.43748,A,151005.00
5.46475,57.68817117,11.97962391,57.68816683,11.97964033,15:10:05.126843,0.01054,0.00000,0.00000,-0.02972,-0.14011,0.00198,-0.00068,-0.00116,-0.05337,-0.11694,0.99064,5.45528,0.05278,5.52839,5.44248,-0.04480,2.78049,5.40860,0.93118,2.29803,5.84571,-0.43748,A,151005.00
5.48867,57.68817095,11.97962475,57.68816683,11.97964033,15:10:05.149780,0.01083,0.00000,0.00000,-0.03151,-0.14011,-0.00107,0.00069,0.00006,-0.05258,-0.11553,0.99247,5.47828,0.04222,5.58876,5.50284,0.00471,2.75557,5.40860,0.93118,2.29803,5.84571,-0.43748,A,151005.00
5.51135,57.68817074,11.97962554,57.68816683,11.97964033,15:10:05.172446,0.01185,0.00000,0.00000,-0.03331,-0.14011,-0.00367,0.00237,-0.00376,-0.05087,-0.11431,0.99149,5.50175,0.03378,5.64009,5.55417,0.05165,2.73208,5.40860,0.93118,2.29803,5.84571,-0.43748,A,151005.00
5.54943,57.68817054,11.97962628,57.68816683,11.97964000,15:10:05.210542,0.02813,0.00000,0.00000,-0.03501,-0.14011,-0.00031,0.00253,0.00037,-0.05270,-0.11462,0.99302,5.52086,0.02702,5.68376,5.59784,0.09603,2.71001,5.53916,0.91137,2.29803,3.14159,3.14159,A,151005.10
5.57046,57.68817035,11.97962698,57.68816683,11.97964000,15:10:05.231552,0.01093,0.00000,0.00000,-0.03667,-0.14011,0.00030,0.00176,-0.00085,-0.04874,-0.11486,0.99076,5.56010,0.02162,5.31522,5.22930,0.13750,2.68884,5.53916,0.91137,2.29803,3.14159,3.14159,A,151005.10
5.59484,57.68817017,11.97962763,57.68816683,11.97964000,15:10:05.255938,0.01140,0.00000,0.00000,-0.03830,-0.14011,0.00030,0.00085,-0.00315,-0.05270,-0.11456,0.99155,5.58521,0.01729,5.00201,4.91609,0.17642,2.66890,5.53916,0.91137,2.29803,3.14159,3.14159,A,151005.10
5.61894,57.68817000,11.97962825,57.68816683,11.97964000,15:10:05.280225,0.01152,0.00000,0.00000,-0.04000,-0.14011,-0.00214,0.00130,0.00021,-0.05142,-0.11663,0.99296,5.60847,0.01384,4.73579,4.64987,0.21324,2.65002,5.53916,0.91137,2.29803,3.14159,3.14159,A,151005.10
5.63916,57.68816984,11.97962884,57.68816683,11.97964000,15:10:05.300463,0.01177,0.00000,0.00000,-0.04160,-0.14011,0.00061,0.00390,0.00357,-0.05081,-0.11590,0.99131,5.62854,0.01107,4.50952,4.42361,0.24813,2.63218,5.53916,0.91137,2.29803,3.14159,3.14159,A,151005.10
5.67827,57.68816969,11.97962940,57.68816750,11.97964033,15:10:05.339366,0.02875,0.00000,0.00000,-0.04324,-0.14011,-0.00214,-0.00435,0.00037,-0.05173,-0.11614,0.99046,5.65138,0.00885,4.31720,4.23128,0.28123,2.61527,5.66734,0.93118,2.37216,1.30964,1.30964,A,151005.20
5.70258,57.68816957,11.97962994,57.68816750,11.97964033,15:10:05.363689,0.01236,0.00000,0.00000,-0.04499,-0.14011,-0.00428,0.00176,-0.00085,-0.05112,-0.11627,0.98899,5.69210,0.00708,3.87891,3.79299,0.31357,2.60282,5.66734,0.93118,2.37216,1.30964,1.30964,A,151005.20
5.72513,57.68816947,11.97963046,57.68816750,11.97964033,15:10:05.386233,0.01021,0.00000,0.00000,-0.04649,-0.14011,0.00137,0.00039,-0.00269,-0.05197,-0.11584,0.99088,5.71554,0.00567,3.50639,3.42047,0.34434,2.59120,5.66734,0.93118,2.37216,1.30964,1.30964,A,151005.20
5.74313,57.68816937,11.97963095,57.68816750,11.97964033,15:10:05.404231,0.01181,0.00000,0.00000,-0.04802,-0.14011,-0.00046,-0.00053,-0.00299,-0.05033,-0.11651,0.99241,5.73256,0.00453,3.18976,3.10384,0.37360,2.58023,5.66734,0.93118,2.37216,1.30964,1.30964,A,151005.20
5.76668,57.68816928,11.97963142,57.68816750,11.97964033,15:10:05.427773,0.01167,0.00000,0.00000,-0.04950,-0.14011,0.00107,0.00085,-0.00116,-0.05148,-0.11621,0.99052,5.75597,0.00363,2.92062,2.83470,0.40139,2.56983,5.66734,0.93118,2.37216,1.30964,1.30964,A,151005.20
5.81479,57.68816919,11.97963186,57.68816900,11.97964167,15:10:05.475877,0.03746,0.00000,0.00000,-0.05097,-0.14011,-0.00077,0.00054,-0.00101,-0.05167,-0.11480,0.99247,5.77965,0.00290,2.69185,2.60593,0.42781,2.55997,5.80776,1.01043,2.53895,1.12724,1.12724,A,151005.40
5.83527,57.68816918,11.97963235,57.68816900,11.97964167,15:10:05.496662,0.00972,0.00000,0.00000,-0.05245,-0.14011,-0.00031,-0.00022,0.00128,-0.05155,-0.11718,0.99186,5.82702,0.00232,2.47003,2.38411,0.45684,2.55898,5.80776,1.01043,2.53895,1.12724,1.12724,A,151005.40
5.84298,57.68816917,11.97963282,57.68816900,11.97964167,15:10:05.504061,0.00647,0.00000,0.00000,-0.05388,-0.14011,-0.00199,-0.00160,0.00052,-0.05130,-0.11456,0.99009,5.83639,0.00186,2.28150,2.19558,0.48450,2.55799,5.80776,1.01043,2.53895,1.12724,1.12724,A,151005.40
5.85394,57.68816916,11.97963326,57.68816900,11.97964167,15:10:05.515028,0.00704,0.00000,0.00000,-0.05527,-0.14011,0.00290,0.00207,0.00159,-0.05191,-0.11706,0.99094,5.84653,0.00149,2.12124,2.03533,0.51079,2.55705,5.80776,1.01043,2.53895,1.12724,1.12724,A,151005.40
5.86340,57.68816915,11.97963368,57.68816900,11.97964167,15:10:05.524486,0.00605,0.00000,0.00000,-0.05669,-0.14011,-0.00260,0.00115,-0.00238,-0.04917,-0.11651,0.99113,5.85678,0.00119,1.98503,1.89911,0.53577,2.55615,5.80776,1.01043,2.53895,1.12724,1.12724,A,151005.40
5.87420,57.68816915,11.97963408,57.68816900,11.97964167,15:10:05.535287,0.00646,0.00000,0.00000,-0.05807,-0.14011,-0.00000,-0.00190,-0.00147,-0.05142,-0.11675,0.98966,5.86737,0.00095,1.86925,1.78333,0.55950,2.55530,5.80776,1.01043,2.53895,1.12724,1.12724,A,151005.40
5.88482,57.68816914,11.97963446,57.68816900,11.97964167,15:10:05.546140,0.00668,0.00000,0.00000,-0.05939,-0.14011,0.00275,0.00222,0.00128,-0.05087,-0.11651,0.99101,5.87770,0.00076,1.77083,1.68491,0.58204,2.55449,5.80776,1.01043,2.53895,1.12724,1.12724,A,151005.40
5.89937,57.68816913,11.97963482,57.68816900,11.97964167,15:10:05.560469,0.01084,0.00000,0.00000,-0.06070,-0.14011,0.00061,0.00069,-0.00055,-0.05252,-0.11541,0.99192,5.88970,0.00061,1.68718,1.60126,0.60346,2.55372,5.80776,1.01043,2.53895,1.12724,1.12724,A,151005.40
5.94057,57.68816913,11.97963516,57.68816867,11.97964200,15:10:05.601664,0.02977,0.00000,0.00000,-0.06194,-0.14011,0.00107,0.00191,-0.00253,-0.05276,-0.11352,0.99259,5.91180,0.00049,1.61607,1.53016,0.62381,2.55299,5.93039,1.03024,2.50189,-1.07991,-1.07991,A,151005.50
5.95984,57.68816910,11.97963550,57.68816867,11.97964200,15:10:05.620939,0.01119,0.00000,0.00000,-0.06305,-0.14011,0.00382,-0.00007,-0.00024,-0.05173,-0.11413,0.99253,5.95040,0.00039,1.22456,1.13864,0.64413,2.55046,5.93039,1.03024,2.50189,-1.07991,-1.07991,A,151005.50
5.97811,57.68816908,11.97963583,57.68816867,11.97964200,15:10:05.640213,0.01104,0.00000,0.00000,-0.06438,-0.14011,-0.00321,0.00130,0.00174,-0.04972,-0.11614,0.99137,5.96840,0.00031,0.89178,0.80586,0.66344,2.54803,5.93039,1.03024,2.50189,-1.07991,-1.07991,A,151005.50
6.00192,57.68816906,11.97963614,57.68816867,11.97964200,15:10:05.663042,0.01179,0.00000,0.00000,-0.06564,-0.14011,-0.00031,-0.00297,0.00205,-0.05020,-0.11633,0.99387,5.99217,0.00025,0.60891,0.52299,0.68178,2.54573,5.93039,1.03024,2.50189,-1.07991,-1.07991,A,151005.50
6.02665,57.68816904,11.97963643,57.68816867,11.97964200,15:10:05.688319,0.01245,0.00000,0.00000,-0.06682,-0.14011,0.00122,-0.00206,0.00144,-0.05069,-0.11499,0.99216,6.01685,0.00020,0.36848,0.28256,0.69921,2.54354,5.93039,1.03024,2.50189,-1.07991,-1.07991,A,151005.50
6.06402,57.68816902,11.97963671,57.68816717,11.97964333,15:10:05.725131,0.02790,0.00000,0.00000,-0.06811,-0.14011,-0.00336,0.00008,0.00266,-0.05173,-0.11639,0.98979,6.03838,0.00016,0.16411,0.07819,0.71577,2.54146,6.05442,1.10949,2.33509,-1.12724,-1.12724,A,151005.60
6.08552,57.68816893,11.97963704,57.68816717,11.97964333,15:10:05.746616,0.01219,0.00000,0.00000,-0.06931,-0.14011,-0.00000,0.00161,-0.00192,-0.05258,-0.11645,0.99290,6.07530,0.00013,-0.01671,-0.10263,0.73546,2.53114,6.05442,1.10949,2.33509,-1.12724,-1.12724,A,151005.60
6.10807,57.68816884,11.97963736,57.68816717,11.97964333,15:10:05.769174,0.01053,0.00000,0.00000,-0.07038,-0.14011,0.00427,0.00253,0.00159,-0.04929,-0.11590,0.99338,6.09867,0.00010,-0.17040,-0.25632,0.75416,2.52134,6.05442,1.10949,2.33509,-1.12724,-1.12724,A,151005.60
6.13104,57.68816876,11.97963765,57.68816717,11.97964333,15:10:05.792394,0.01173,0.00000,0.00000,-0.07153,-0.14011,0.00015,0.00283,-0.00147,-0.05051,-0.11511,0.98789,6.12066,0.00008,-0.30104,-0.38696,0.77193,2.51203,6.05442,1.10949,2.33509,-1.12724,-1.12724,A,151005.60
6.15089,57.68816868,11.97963794,57.68816717,11.97964333,15:10:05.812564,0.01090,0.00000,0.00000,-0.07272,-0.14011,-0.00199,-0.00190,0.00021,-0.05209,-0.11627,0.98997,6.14123,0.00007,-0.41208,-0.49800,0.78881,2.50318,6.05442,1.10949,2.33509,-1.12724,-1.12724,A,151005.60
6.20064,57.68816860,11.97963821,57.68816383,11.97964933,15:10:05.861747,0.03766,0.00000,0.00000,-0.07379,-0.14011,0.00091,0.00130,0.00037,-0.05283,-0.11419,0.99076,6.16433,0.00005,-0.50647,-0.59238,0.80485,2.49477,6.19092,1.46611,1.96444,-0.80468,-0.80468,A,151005.80
6.22397,57.68816836,11.97963876,57.68816383,11.97964933,15:10:05.885085,0.01160,0.00000,0.00000,-0.07451,-0.14011,0.00779,-0.00053,-0.00009,-0.05276,-0.11566,0.99058,6.21450,0.00004,-0.53831,-0.62423,0.83791,2.46826,6.19092,1.46611,1.96444,-0.80468,-0.80468,A,151005.80
6.24851,57.68816814,11.97963929,57.68816383,11.97964933,15:10:05.909609,0.01262,0.00000,0.00000,-0.07573,-0.14011,-0.00504,-0.00312,0.00174,-0.05203,-0.11621,0.99107,6.23733,0.00003,-0.56538,-0.65130,0.86932,2.44306,6.19092,1.46611,1.96444,-0.80468,-0.80468,A,151005.80
6.26959,57.68816792,11.97963979,57.68816383,11.97964933,15:10:05.930701,0.01187,0.00000,0.00000,-0.07683,-0.14011,-0.00138,-0.00175,-0.00101,-0.05148,-0.11572,0.99369,6.25992,0.00003,-0.58839,-0.67431,0.89916,2.41913,6.19092,1.46611,1.96444,-0.80468,-0.80468,A,151005.80
6.29509,57.68816772,11.97964027,57.68816383,11.97964933,15:10:05.956190,0.01266,0.00000,0.00000,-0.07789,-0.14011,-0.00107,0.00268,-0.00024,-0.05008,-0.11462,0.99473,6.28442,0.00002,-0.60794,-0.69386,0.92751,2.39640,6.19092,1.46611,1.96444,-0.80468,-0.80468,A,151005.80
6.33474,57.68816752,11.97964072,57.68816233,11.97965283,15:10:05.995853,0.02797,0.00000,0.00000,-0.07895,-0.14011,-0.00077,-0.00190,0.00159,-0.05100,-0.11547,0.98960,6.30772,0.00002,-0.62457,-0.71049,0.95444,2.37480,6.32447,1.67414,1.79765,-0.67582,-0.67582,A,151005.90
6.35535,57.68816726,11.97964133,57.68816233,11.97965283,15:10:06.016462,0.01192,0.00000,0.00000,-0.07994,-0.14011,0.00076,0.00085,-0.00085,-0.05075,-0.11541,0.98985,6.34573,0.00001,-0.61937,-0.70529,0.99043,2.34594,6.32447,1.67414,1.79765,-0.67582,-0.67582,A,151005.90
6.37751,57.68816702,11.97964191,57.68816233,11.97965283,15:10:06.039169,0.01113,0.00000,0.00000,-0.08093,-0.14011,0.00030,0.00023,0.00098,-0.05063,-0.11444,0.99143,6.36719,0.00001,-0.61495,-0.70087,1.02461,2.31853,6.32447,1.67414,1.79765,-0.67582,-0.67582,A,151005.90
6.40252,57.68816678,11.97964245,57.68816233,11.97965283,15:10:06.063616,0.01203,0.00000,0.00000,-0.08197,-0.14011,-0.00184,0.00191,0.00128,-0.05203,-0.11590,0.99174,6.39241,0.00001,-0.61119,-0.69711,1.05709,2.29248,6.32447,1.67414,1.79765,-0.67582,-0.67582,A,151005.90
6.42452,57.68816656,11.97964297,57.68816233,11.97965283,15:10:06.085628,0.01126,0.00000,0.00000,-0.08295,-0.14011,-0.00077,0.00130,-0.00040,-0.05100,-0.11444,0.99052,6.41504,0.00001,-0.60800,-0.69392,1.08794,2.26774,6.32447,1.67414,1.79765,-0.67582,-0.67582,A,151005.90
6.46358,57.68816635,11.97964346,57.68816000,11.97965917,15:10:06.124688,0.02797,0.00000,0.00000,-0.08388,-0.14011,-0.00168,-0.00099,-0.00223,-0.05106,-0.11078,0.99119,6.43687,0.00001,-0.60528,-0.69120,1.11725,2.24424,6.45335,2.05058,1.53820,-0.60347,-0.60347,A,151006.00
6.48769,57.68816603,11.97964425,57.68816000,11.97965917,15:10:06.148788,0.01213,0.00000,0.00000,-0.08487,-0.14011,-0.00153,0.00298,0.00006,-0.05100,-0.11395,0.99046,6.47711,0.00000,-0.59212,-0.67804,1.16392,2.20894,6.45335,2.05058,1.53820,-0.60347,-0.60347,A,151006.00
6.50980,57.68816573,11.97964500,57.68816000,11.97965917,15:10:06.170913,0.01139,0.00000,0.00000,-0.08587,-0.14011,-0.00290,0.00008,-0.00009,-0.05033,-0.11541,0.99162,6.50011,0.00000,-0.58094,-0.66686,1.20825,2.17540,6.45335,2.05058,1.53820,-0.60347,-0.60347,A,151006.00
6.53233,57.68816544,11.97964570,57.68816000,11.97965917,15:10:06.193438,0.01154,0.00000,0.00000,-0.08686,-0.14011,-0.00443,-0.00282,-0.00269,-0.05228,-0.11395,0.99192,6.52219,0.00000,-0.57143,-0.65735,1.25037,2.14354,6.45335,2.05058,1.53820,-0.60347,-0.60347,A,151006.00
6.55536,57.68816517,11.97964638,57.68816000,11.97965917,15:10:06.216474,0.01082,0.00000,0.00000,-0.08774,-0.14011,0.00046,0.00039,-0.00024,-0.05124,-0.11468,0.99271,6.54425,0.00000,-0.56335,-0.64927,1.29038,2.11327,6.45335,2.05058,1.53820,-0.60347,-0.60347,A,151006.00
6.60565,57.68816491,11.97964702,57.68815733,11.97966950,15:10:06.266767,0.03859,0.00000,0.00000,-0.08873,-0.14011,-0.00550,-0.00038,-0.00269,-0.04941,-0.11389,0.99229,6.56821,0.00000,-0.55648,-0.64240,1.32839,2.08452,6.59575,2.66476,1.24168,-0.44978,-0.44978,A,151006.20
6.62881,57.68816453,11.97964814,57.68815733,11.97966950,15:10:06.290129,0.01322,0.00000,0.00000,-0.08974,-0.14011,-0.00275,0.00161,0.00006,-0.05185,-0.11505,0.99284,6.61841,0.00000,-0.52759,-0.61351,1.39521,2.04238,6.59575,2.66476,1.24168,-0.44978,-0.44978,A,151006.20
6.65086,57.68816417,11.97964921,57.68815733,11.97966950,15:10:06.311955,0.01056,0.00000,0.00000,-0.09063,-0.14011,-0.00199,-0.00236,0.00189,-0.05039,-0.11486,0.98942,6.64154,0.00000,-0.50303,-0.58895,1.45868,2.00234,6.59575,2.66476,1.24168,-0.44978,-0.44978,A,151006.20
6.67436,57.68816383,11.97965022,57.68815733,11.97966950,15:10:06.336015,0.01232,0.00000,0.00000,-0.09152,-0.14011,-0.00260,0.00130,0.00250,-0.05185,-0.11444,0.99101,6.66409,0.00000,-0.48215,-0.56807,1.51899,1.96431,6.59575,2.66476,1.24168,-0.44978,-0.44978,A,151006.20
6.69373,57.68816351,11.97965119,57.68815733,11.97966950,15:10:06.354822,0.01071,0.00000,0.00000,-0.09234,-0.14011,-0.00031,0.00008,0.00113,-0.05161,-0.11383,0.99241,6.68455,0.00000,-0.46441,-0.55033,1.57628,1.92818,6.59575,2.66476,1.24168,-0.44978,-0.44978,A,151006.20
6.73601,57.68816320,11.97965210,57.68815700,11.97967383,15:10:06.397122,0.02902,0.00000,0.00000,-0.09325,-0.14011,-0.00428,0.00161,-0.00147,-0.05100,-0.11529,0.99314,6.70773,0.00000,-0.44933,-0.53525,1.63070,1.89385,6.72634,2.92232,1.20461,-0.14293,-0.14293,A,151006.30
6.76029,57.68816289,11.97965319,57.68815700,11.97967383,15:10:06.421401,0.01207,0.00000,0.00000,-0.09408,-0.14011,-0.00046,-0.00038,0.00235,-0.05258,-0.11547,0.99155,6.74889,0.00000,-0.39048,-0.47640,1.69528,1.85939,6.72634,2.92232,1.20461,-0.14293,-0.14293,A,151006.30
6.78170,57.68816259,11.97965422,57.68815700,11.97967383,15:10:06.442809,0.01136,0.00000,0.00000,-0.09488,-0.14011,-0.00138,-0.00435,0.00082,-0.05167,-0.11389,0.99345,6.77204,0.00000,-0.34046,-0.42638,1.75663,1.82665,6.72634,2.92232,1.20461,-0.14293,-0.14293,A,151006.30
6.80356,57.68816231,11.97965520,57.68815700,11.97967383,15:10:06.464676,0.01148,0.00000,0.00000,-0.09559,-0.14011,0.00290,0.00161,0.00113,-0.05417,-0.11541,0.99259,6.79412,0.00000,-0.29794,-0.38386,1.81492,1.79555,6.72634,2.92232,1.20461,-0.14293,-0.14293,A,151006.30
6.82637,57.68816205,11.97965613,57.68815700,11.97967383,15:10:06.487464,0.01045,0.00000,0.00000,-0.09637,-0.14011,-0.00031,0.00039,-0.00070,-0.04996,-0.11547,0.99131,6.81669,0.00000,-0.26180,-0.34772,1.87029,1.76600,6.72634,2.92232,1.20461,-0.14293,-0.14293,A,151006.30
6.86659,57.68816180,11.97965702,57.68815683,11.97967800,15:10:06.527709,0.02882,0.00000,0.00000,-0.09722,-0.14011,-0.00458,-0.00145,0.00082,-0.05167,-0.11450,0.99247,6.83867,0.00000,-0.23108,-0.31700,1.92289,1.73793,6.85578,3.16997,1.18608,-0.07469,-0.07469,A,151006.40
6.88954,57.68816155,11.97965807,57.68815683,11.97967800,15:10:06.550636,0.01212,0.00000,0.00000,-0.09807,-0.14011,-0.00214,0.00023,-0.00070,-0.05319,-0.11712,0.99210,6.87915,0.00000,-0.19474,-0.28066,1.98524,1.71034,6.85578,3.16997,1.18608,-0.07469,-0.07469,A,151006.40
6.91470,57.68816131,11.97965906,57.68815683,11.97967800,15:10:06.575819,0.01303,0.00000,0.00000,-0.09871,-0.14011,0.00244,0.00039,-0.00162,-0.05264,-0.11291,0.99186,6.90426,0.00000,-0.16384,-0.24976,2.04448,1.68413,6.85578,3.16997,1.18608,-0.07469,-0.07469,A,151006.40
6.94046,57.68816109,11.97966001,57.68815683,11.97967800,15:10:06.601573,0.01282,0.00000,0.00000,-0.09943,-0.14011,-0.00061,0.00176,0.00082,-0.05386,-0.11425,0.99216,6.93036,0.00000,-0.13758,-0.22350,2.10075,1.65922,6.85578,3.16997,1.18608,-0.07469,-0.07469,A,151006.40
6.98362,57.68816088,11.97966091,57.68815683,11.97968367,15:10:06.644711,0.02946,0.00000,0.00000,-0.10016,-0.14011,-0.00077,-0.00175,0.00098,-0.05130,-0.11480,0.99107,6.95707,0.00000,-0.11526,-0.20118,2.15421,1.63557,6.97396,3.50678,1.18608,0.00000,0.00000,A,151006.50
7.00512,57.68816067,11.97966205,57.68815683,11.97968367,15:10:06.666226,0.01089,0.00000,0.00000,-0.10087,-0.14011,-0.00016,-0.00190,-0.00376,-0.05356,-0.11584,0.99259,6.99540,0.00000,-0.08508,-0.17100,2.22184,1.61309,6.97396,3.50678,1.18608,0.00000,0.00000,A,151006.50
7.02886,57.68816048,11.97966313,57.68815683,11.97968367,15:10:06.690156,0.01175,0.00000,0.00000,-0.10162,-0.14011,-0.00229,0.00161,-0.00147,-0.05094,-0.11553,0.98997,7.01832,0.00000,-0.05943,-0.14535,2.28609,1.59174,6.97396,3.50678,1.18608,0.00000,0.00000,A,151006.50
