Time,lat_estimated,lon_estimated,latitude,longitude,RealTime,CalculationTime,MeasuredVelocity,FilteredVelocity,Roll,SteeringAngle,RollRate,gy,gz,ax,ay,az,imu_read_timing,v_estimated,yaw_estimated,heading_estimated,x_estimated,y_estimated,GPS_timestamp,x_GPS,y_GPS,theta_GPS,theta_GPS_noUnwrap,status,NMEA timestamp
0.05773,57.68857100,11.98063567,57.68857100,11.98063567,16:20:07.882712,0.05769,0.00000,0.00000,-0.00102,0.01271,0.00339,-0.00967,-0.00419,0.04660,-0.03849,0.99247,0.00001,0.00000,-0.00377,0.00000,0.00000,0.00000,0.02438,0.00000,0.00000,0.00000,0.00000,A,162007.80
0.07633,57.68857100,11.98063567,57.68857100,11.98063567,16:20:07.901292,0.00661,0.00000,0.00000,-0.00189,0.01342,0.00202,0.00377,-0.01228,0.03654,-0.03709,0.99747,0.07034,0.00000,-0.00380,0.00018,0.00000,0.00000,0.02438,0.00000,0.00000,0.00000,0.00000,A,162007.80
0.08546,57.68857100,11.98063567,57.68857100,11.98063567,16:20:07.910439,0.00535,0.00000,0.00000,-0.00291,0.01356,0.00278,0.00362,-0.00969,0.05844,-0.04075,0.99223,0.07974,0.00000,-0.00384,0.00019,0.00000,0.00000,0.02438,0.00000,0.00000,0.00000,0.00000,A,162007.80
0.09556,57.68857100,11.98063567,57.68857100,11.98063567,16:20:07.920524,0.00506,0.00000,0.00000,-0.00405,0.01373,0.00186,-0.00280,-0.00877,0.05734,-0.04856,0.99192,0.09011,0.00000,-0.00387,0.00020,0.00000,0.00000,0.02438,0.00000,0.00000,0.00000,0.00000,A,162007.80
0.10641,57.68857100,11.98063567,57.68857100,11.98063567,16:20:07.931376,0.00536,0.00000,0.00000,-0.00503,0.01387,0.00553,-0.00448,-0.01137,0.04178,-0.04172,1.00174,0.10049,0.00000,-0.00391,0.00021,0.00000,0.00000,0.02438,0.00000,0.00000,0.00000,0.00000,A,162007.80
0.11649,57.68857100,11.98063567,57.68857100,11.98063567,16:20:07.941453,0.00505,0.00000,0.00000,-0.00602,0.01407,0.00751,-0.00814,-0.00862,0.05161,-0.04612,1.00979,0.11105,0.00000,-0.00395,0.00023,0.00000,0.00000,0.02438,0.00000,0.00000,0.00000,0.00000,A,162007.80
0.14226,57.68857100,11.98063567,57.68857133,11.98063467,16:20:07.967236,0.02043,0.00000,0.00000,-0.00697,0.01429,0.00522,-0.00417,-0.00907,0.05996,-0.04166,0.99894,0.12124,0.00000,-0.00399,0.00025,0.00000,0.00000,0.13763,-0.05944,0.03706,2.58399,2.58399,A,162007.90
0.16022,57.68857102,11.98063562,57.68857133,11.98063467,16:20:07.985184,0.00681,0.00000,0.00000,-0.00739,0.01523,0.01255,-0.00218,-0.00480,0.03495,-0.03093,0.99613,0.15471,0.00000,0.38353,0.38805,-0.00297,0.00185,0.13763,-0.05944,0.03706,2.58399,2.58399,A,162007.90
0.16914,57.68857103,11.98063557,57.68857133,11.98063467,16:20:07.994120,0.00533,0.00000,0.00000,-0.00801,0.01559,0.01301,0.00102,-0.00678,0.03678,-0.02483,0.99381,0.16344,0.00000,0.71290,0.71753,-0.00580,0.00361,0.13763,-0.05944,0.03706,2.58399,2.58399,A,162007.90
0.17929,57.68857105,11.98063552,57.68857133,11.98063467,16:20:08.004251,0.00507,0.00000,0.00000,-0.00873,0.01593,0.01148,-0.00493,-0.00663,0.03196,-0.03306,1.00424,0.17361,0.00000,0.99286,0.99759,-0.00848,0.00529,0.13763,-0.05944,0.03706,2.58399,2.58399,A,162007.90
0.19011,57.68857106,11.98063548,57.68857133,11.98063467,16:20:08.015082,0.00551,0.00000,0.00000,-0.00955,0.01627,0.00690,-0.00539,-0.00938,0.02599,-0.03697,1.00906,0.18422,0.00000,1.23080,1.23563,-0.01103,0.00688,0.13763,-0.05944,0.03706,2.58399,2.58399,A,162007.90
0.20009,57.68857108,11.98063544,57.68857133,11.98063467,16:20:08.025050,0.00508,0.00000,0.00000,-0.01046,0.01664,0.01240,-0.00814,-0.01091,0.02031,-0.04746,1.00131,0.19461,0.00000,1.43304,1.43798,-0.01345,0.00838,0.13763,-0.05944,0.03706,2.58399,2.58399,A,162007.90
0.21044,57.68857109,11.98063540,57.68857133,11.98063467,16:20:08.035405,0.00521,0.00000,0.00000,-0.01122,0.01695,0.01148,-0.00356,-0.01167,0.01549,-0.03794,1.00235,0.20467,0.00000,1.60493,1.60996,-0.01575,0.00982,0.13763,-0.05944,0.03706,2.58399,2.58399,A,162007.90
0.22094,57.68857110,11.98063537,57.68857133,11.98063467,16:20:08.046068,0.00509,0.00000,0.00000,-0.01203,0.01724,0.00721,0.00056,-0.01106,0.02769,-0.03916,1.00003,0.21527,0.00000,1.75102,1.75614,-0.01793,0.01118,0.13763,-0.05944,0.03706,2.58399,2.58399,A,162007.90
0.23117,57.68857111,11.98063533,57.68857133,11.98063467,16:20:08.056133,0.00515,0.00000,0.00000,-0.01277,0.01752,0.01316,-0.00325,-0.00984,0.02647,-0.03910,0.99454,0.22543,0.00000,1.87519,1.88039,-0.02000,0.01248,0.13763,-0.05944,0.03706,2.58399,2.58399,A,162007.90
0.25649,57.68857112,11.98063530,57.68857200,11.98063467,16:20:08.081455,0.02006,0.00000,0.00000,-0.01353,0.01786,0.00889,-0.00188,-0.00785,0.01934,-0.03825,0.99406,0.23602,0.00000,1.98071,1.98601,-0.02198,0.01370,0.25220,-0.05944,0.11119,1.57080,1.57080,A,162008.00
0.27254,57.68857117,11.98063527,57.68857200,11.98063467,16:20:08.097504,0.00677,0.00000,0.00000,-0.01385,0.01848,0.01087,-0.00600,-0.00785,0.04398,-0.02544,0.99204,0.26704,0.00000,1.91840,1.92389,-0.02385,0.01858,0.25220,-0.05944,0.11119,1.57080,1.57080,A,162008.00
0.28150,57.68857121,11.98063524,57.68857200,11.98063467,16:20:08.106475,0.00534,0.00000,0.00000,-0.01453,0.01851,0.01057,-0.00570,-0.00388,0.02995,-0.03355,0.99534,0.27578,0.00000,1.86544,1.87093,-0.02563,0.02321,0.25220,-0.05944,0.11119,1.57080,1.57080,A,162008.00
0.29165,57.68857125,11.98063521,57.68857200,11.98063467,16:20:08.116613,0.00508,0.00000,0.00000,-0.01515,0.01851,0.01240,-0.01150,-0.01030,0.02031,-0.03318,0.98869,0.28619,0.00000,1.82042,1.82591,-0.02732,0.02761,0.25220,-0.05944,0.11119,1.57080,1.57080,A,162008.00
0.30243,57.68857129,11.98063518,57.68857200,11.98063467,16:20:08.127399,0.00533,0.00000,0.00000,-0.01588,0.01851,0.01423,-0.00570,-0.01457,0.02080,-0.04185,0.98387,0.29654,0.00000,1.78215,1.78764,-0.02893,0.03179,0.25220,-0.05944,0.11119,1.57080,1.57080,A,162008.00
0.31386,57.68857132,11.98063515,57.68857200,11.98063467,16:20:08.138831,0.00636,0.00000,0.00000,-0.01679,0.01851,0.00706,-0.00509,-0.01152,0.00952,-0.04972,0.98966,0.30713,0.00000,1.74962,1.75512,-0.03045,0.03576,0.25220,-0.05944,0.11119,1.57080,1.57080,A,162008.00
0.32300,57.68857136,11.98063513,57.68857200,11.98063467,16:20:08.148149,0.00510,0.00000,0.00000,-0.01768,0.01851,0.00828,0.00286,-0.01259,0.00043,-0.05106,1.00863,0.31730,0.00000,1.72197,1.72747,-0.03190,0.03953,0.25220,-0.05944,0.11119,1.57080,1.57080,A,162008.00
0.33392,57.68857139,11.98063511,57.68857200,11.98063467,16:20:08.158889,0.00563,0.00000,0.00000,-0.01837,0.01851,-0.00272,0.00056,-0.01167,-0.00098,-0.03135,1.02419,0.32791,0.00000,1.69847,1.70397,-0.03328,0.04311,0.25220,-0.05944,0.11119,1.57080,1.57080,A,162008.00
0.34372,57.68857142,11.98063508,57.68857200,11.98063467,16:20:08.168691,0.00504,0.00000,0.00000,-0.01864,0.01854,0.00538,0.00713,-0.00831,0.04508,-0.00897,1.02358,0.33827,0.00000,1.67850,1.68400,-0.03458,0.04652,0.25220,-0.05944,0.11119,1.57080,1.57080,A,162008.00
0.36933,57.68857145,11.98063506,57.68857267,11.98063417,16:20:08.194896,0.02014,0.00000,0.00000,-0.01880,0.01854,0.01164,-0.00371,-0.01091,0.07216,-0.00592,1.01040,0.34861,0.00000,1.66152,1.66702,-0.03583,0.04975,0.36462,-0.08915,0.18532,1.95207,1.95207,A,162008.10
0.38769,57.68857151,11.98063502,57.68857267,11.98063417,16:20:08.212664,0.00641,0.00000,0.00000,-0.01937,0.01854,0.00675,-0.00921,-0.00785,-0.00512,-0.03928,0.98460,0.38081,0.00000,1.70427,1.70978,-0.03849,0.05653,0.36462,-0.08915,0.18532,1.95207,1.95207,A,162008.10
0.39697,57.68857157,11.98063498,57.68857267,11.98063417,16:20:08.221946,0.00529,0.00000,0.00000,-0.02017,0.01854,0.00614,-0.00646,-0.01075,0.01842,-0.04331,0.94532,0.39129,0.00000,1.74062,1.74612,-0.04103,0.06297,0.36462,-0.08915,0.18532,1.95207,1.95207,A,162008.10
0.40715,57.68857162,11.98063494,57.68857267,11.98063417,16:20:08.232115,0.00508,0.00000,0.00000,-0.02104,0.01854,-0.00150,-0.00783,-0.01030,0.02928,-0.04362,0.94227,0.40147,0.00000,1.77151,1.77701,-0.04343,0.06909,0.36462,-0.08915,0.18532,1.95207,1.95207,A,162008.10
0.41782,57.68857167,11.98063490,57.68857267,11.98063417,16:20:08.242786,0.00548,0.00000,0.00000,-0.02171,0.01854,0.00095,-0.00646,-0.01182,-0.00281,-0.03410,0.96502,0.41197,0.00000,1.79777,1.80327,-0.04572,0.07490,0.36462,-0.08915,0.18532,1.95207,1.95207,A,162008.10
0.42776,57.68857172,11.98063486,57.68857267,11.98063417,16:20:08.252730,0.00504,0.00000,0.00000,-0.02221,0.01854,-0.00043,-0.00066,-0.01518,-0.01989,-0.02342,0.99259,0.42231,0.00000,1.82009,1.82559,-0.04789,0.08042,0.36462,-0.08915,0.18532,1.95207,1.95207,A,162008.10
0.43853,57.68857177,11.98063483,57.68857267,11.98063417,16:20:08.263499,0.00520,0.00000,0.00000,-0.02257,0.01854,0.00232,0.00820,-0.01427,0.00494,-0.01690,1.01388,0.43279,0.00000,1.83906,1.84456,-0.04995,0.08567,0.36462,-0.08915,0.18532,1.95207,1.95207,A,162008.10
0.44905,57.68857182,11.98063479,57.68857267,11.98063417,16:20:08.274025,0.00531,0.00000,0.00000,-0.02289,0.01854,0.00492,0.00454,-0.01350,0.01787,-0.01659,1.04688,0.44336,0.00000,1.85519,1.86069,-0.05191,0.09065,0.36462,-0.08915,0.18532,1.95207,1.95207,A,162008.10
0.45921,57.68857186,11.98063476,57.68857267,11.98063417,16:20:08.284175,0.00508,0.00000,0.00000,-0.02349,0.01854,0.00247,0.00209,-0.01137,0.05484,-0.03605,1.06573,0.45353,0.00000,1.86889,1.87440,-0.05378,0.09538,0.36462,-0.08915,0.18532,1.95207,1.95207,A,162008.10
0.48453,57.68857190,11.98063473,57.68857350,11.98063417,16:20:08.309504,0.02001,0.00000,0.00000,-0.02428,0.01854,0.00614,-0.00707,-0.01121,0.06167,-0.05087,1.04377,0.46413,0.00000,1.88054,1.88605,-0.05554,0.09988,0.48082,-0.08915,0.27799,1.57080,1.57080,A,162008.20
0.49998,57.68857198,11.98063470,57.68857350,11.98063417,16:20:08.324948,0.00674,0.00000,0.00000,-0.02492,0.01854,0.00278,-0.01761,-0.00724,0.00348,-0.03959,0.94794,0.49446,0.00000,1.83326,1.83876,-0.05723,0.10879,0.48082,-0.08915,0.27799,1.57080,1.57080,A,162008.20
0.50871,57.68857205,11.98063468,57.68857350,11.98063417,16:20:08.333914,0.00506,0.00000,0.00000,-0.02556,0.01854,0.00919,-0.01074,-0.01014,0.02037,-0.03819,0.92214,0.50326,0.00000,1.79306,1.79857,-0.05882,0.11725,0.48082,-0.08915,0.27799,1.57080,1.57080,A,162008.20
0.51933,57.68857213,11.98063465,57.68857350,11.98063417,16:20:08.344293,0.00529,0.00000,0.00000,-0.02603,0.01854,0.01072,-0.00524,-0.00816,0.02123,-0.03117,0.93245,0.51344,0.00000,1.75890,1.76440,-0.06034,0.12528,0.48082,-0.08915,0.27799,1.57080,1.57080,A,162008.20
0.53004,57.68857220,11.98063463,57.68857350,11.98063417,16:20:08.355009,0.00560,0.00000,0.00000,-0.02639,0.01854,0.00782,-0.00661,-0.01167,0.02172,-0.02330,0.97252,0.52413,0.00000,1.72986,1.73536,-0.06178,0.13292,0.48082,-0.08915,0.27799,1.57080,1.57080,A,162008.20
0.53989,57.68857226,11.98063460,57.68857350,11.98063417,16:20:08.364854,0.00506,0.00000,0.00000,-0.02669,0.01854,0.00919,-0.00814,-0.01427,-0.01488,-0.02233,1.03993,0.53444,0.00000,1.70517,1.71067,-0.06315,0.14017,0.48082,-0.08915,0.27799,1.57080,1.57080,A,162008.20
0.55050,57.68857232,11.98063458,57.68857350,11.98063417,16:20:08.375463,0.00519,0.00000,0.00000,-0.02695,0.01854,0.01362,0.00469,-0.01686,0.02714,-0.02403,1.07183,0.54476,0.00000,1.68419,1.68969,-0.06445,0.14706,0.48082,-0.08915,0.27799,1.57080,1.57080,A,162008.20
0.56102,57.68857238,11.98063456,57.68857350,11.98063417,16:20:08.385997,0.00532,0.00000,0.00000,-0.02736,0.01854,0.01133,-0.00050,-0.01396,0.05923,-0.03257,1.05231,0.55533,0.00000,1.66636,1.67186,-0.06568,0.15361,0.48082,-0.08915,0.27799,1.57080,1.57080,A,162008.20
0.57118,57.68857244,11.98063454,57.68857350,11.98063417,16:20:08.396151,0.00509,0.00000,0.00000,-0.02780,0.01854,0.01576,-0.00829,-0.01579,0.05234,-0.03739,1.04084,0.56550,0.00000,1.65120,1.65670,-0.06686,0.15983,0.48082,-0.08915,0.27799,1.57080,1.57080,A,162008.20
0.59733,57.68857249,11.98063452,57.68857417,11.98063483,16:20:08.422906,0.02084,0.00000,0.00000,-0.02827,0.01854,0.01210,-0.01226,-0.01717,0.02879,-0.03654,0.99729,0.57610,0.00000,1.63831,1.64381,-0.06797,0.16574,0.59263,-0.04953,0.35212,1.07991,1.07991,A,162008.30
0.61725,57.68857257,11.98063454,57.68857417,11.98063483,16:20:08.442225,0.00699,0.00000,0.00000,-0.02807,0.01859,0.02324,-0.00463,-0.00739,0.02647,-0.03611,0.95807,0.61154,0.00000,1.55372,1.55924,-0.06705,0.17505,0.59263,-0.04953,0.35212,1.07991,1.07991,A,162008.30
0.62603,57.68857265,11.98063455,57.68857417,11.98063483,16:20:08.450992,0.00536,0.00000,0.00000,-0.02828,0.01868,0.02126,-0.00554,-0.00342,0.02507,-0.02324,1.00809,0.62026,0.00000,1.48182,1.48737,-0.06617,0.18391,0.59263,-0.04953,0.35212,1.07991,1.07991,A,162008.30
0.63637,57.68857273,11.98063457,57.68857417,11.98063483,16:20:08.461336,0.00530,0.00000,0.00000,-0.02849,0.01885,0.02156,-0.00524,-0.00281,0.02751,-0.02818,1.07775,0.63090,0.00000,1.42070,1.42629,-0.06534,0.19232,0.59263,-0.04953,0.35212,1.07991,1.07991,A,162008.30
0.64662,57.68857280,11.98063458,57.68857417,11.98063483,16:20:08.471587,0.00533,0.00000,0.00000,-0.02842,0.01908,0.02935,-0.00402,-0.00663,0.04740,-0.01299,1.08452,0.64073,0.00000,1.36873,1.37439,-0.06455,0.20031,0.59263,-0.04953,0.35212,1.07991,1.07991,A,162008.30
0.65698,57.68857287,11.98063459,57.68857417,11.98063483,16:20:08.481961,0.00529,0.00000,0.00000,-0.02856,0.01939,0.02599,-0.00753,-0.01182,0.05600,-0.02605,1.06109,0.65130,0.00000,1.32454,1.33030,-0.06380,0.20790,0.59263,-0.04953,0.35212,1.07991,1.07991,A,162008.30
0.66716,57.68857293,11.98063461,57.68857417,11.98063483,16:20:08.492120,0.00506,0.00000,0.00000,-0.02885,0.01978,0.02721,-0.01287,-0.01305,0.06045,-0.03422,0.99363,0.66148,0.00000,1.28697,1.29284,-0.06309,0.21511,0.59263,-0.04953,0.35212,1.07991,1.07991,A,162008.30
0.67784,57.68857300,11.98063462,57.68857417,11.98063483,16:20:08.502800,0.00535,0.00000,0.00000,-0.02928,0.02032,0.03134,-0.01685,-0.01793,0.02318,-0.04605,0.94672,0.67210,0.00000,1.25501,1.26104,-0.06241,0.22196,0.59263,-0.04953,0.35212,1.07991,1.07991,A,162008.30
0.68790,57.68857305,11.98063463,57.68857417,11.98063483,16:20:08.512870,0.00502,0.00000,0.00000,-0.02955,0.02097,0.03302,-0.01501,-0.01473,0.01586,-0.03581,0.92635,0.68245,0.00000,1.22781,1.23403,-0.06176,0.22847,0.59263,-0.04953,0.35212,1.07991,1.07991,A,162008.30
0.71346,57.68857311,11.98063464,57.68857483,11.98063433,16:20:08.538431,0.02015,0.00000,0.00000,-0.02976,0.02179,0.03256,-0.01181,-0.01656,-0.00213,-0.03154,0.92873,0.69275,0.00000,1.20465,1.21112,-0.06115,0.23465,0.70966,-0.07925,0.42625,1.95207,1.95207,A,162008.40
0.73020,57.68857320,11.98063462,57.68857483,11.98063433,16:20:08.555171,0.00708,0.00000,0.00000,-0.02898,0.02420,0.03241,0.00851,-0.00663,0.03001,-0.01519,1.04432,0.72439,0.00000,1.31569,1.32287,-0.06206,0.24423,0.70966,-0.07925,0.42625,1.95207,1.95207,A,162008.40
0.73873,57.68857328,11.98063461,57.68857483,11.98063433,16:20:08.563699,0.00538,0.00000,0.00000,-0.02906,0.02468,0.03332,0.01232,-0.00404,0.04630,-0.02257,1.05499,0.73300,0.00000,1.41005,1.41737,-0.06292,0.25333,0.70966,-0.07925,0.42625,1.95207,1.95207,A,162008.40
0.74905,57.68857336,11.98063459,57.68857483,11.98063433,16:20:08.574032,0.00531,0.00000,0.00000,-0.02884,0.02496,0.03119,0.00347,-0.00373,0.05307,-0.00512,1.09995,0.74337,0.00000,1.49024,1.49765,-0.06373,0.26198,0.70966,-0.07925,0.42625,1.95207,1.95207,A,162008.40
0.75920,57.68857343,11.98063458,57.68857483,11.98063433,16:20:08.584167,0.00506,0.00000,0.00000,-0.02869,0.02502,0.03012,-0.00738,-0.00739,0.06972,-0.00860,1.06909,0.75353,0.00000,1.55840,1.56583,-0.06451,0.27019,0.70966,-0.07925,0.42625,1.95207,1.95207,A,162008.40
0.76988,57.68857350,11.98063457,57.68857483,11.98063433,16:20:08.594845,0.00535,0.00000,0.00000,-0.02874,0.02502,0.02951,-0.01975,-0.01320,0.08369,-0.02123,0.99674,0.76415,0.00000,1.61634,1.62376,-0.06525,0.27799,0.70966,-0.07925,0.42625,1.95207,1.95207,A,162008.40
0.78104,57.68857357,11.98063456,57.68857483,11.98063433,16:20:08.606026,0.00612,0.00000,0.00000,-0.02906,0.02505,0.03561,-0.02494,-0.01366,0.02409,-0.04069,0.94831,0.77444,0.00000,1.66558,1.67302,-0.06595,0.28541,0.70966,-0.07925,0.42625,1.95207,1.95207,A,162008.40
0.79040,57.68857363,11.98063455,57.68857483,11.98063433,16:20:08.615365,0.00520,0.00000,0.00000,-0.02968,0.02513,0.03241,-0.02020,-0.01579,-0.02239,-0.05606,0.91683,0.78464,0.00000,1.70744,1.71490,-0.06661,0.29245,0.70966,-0.07925,0.42625,1.95207,1.95207,A,162008.40
0.80069,57.68857369,11.98063454,57.68857483,11.98063433,16:20:08.625895,0.00510,0.00000,0.00000,-0.03024,0.02533,0.02783,-0.00570,-0.01213,-0.03294,-0.05130,0.92946,0.79524,0.00000,1.74300,1.75052,-0.06724,0.29914,0.70966,-0.07925,0.42625,1.95207,1.95207,A,162008.40
0.83819,57.68857375,11.98063453,57.68857600,11.98063217,16:20:08.663754,0.03220,0.00000,0.00000,-0.03051,0.02556,0.02294,0.00713,-0.01075,-0.01427,-0.03050,0.94288,0.80540,0.00000,1.77322,1.78081,-0.06784,0.30549,0.83323,-0.20803,0.55597,2.35252,2.35252,A,162008.60
0.85563,57.68857386,11.98063441,57.68857600,11.98063217,16:20:08.680600,0.00773,0.00000,0.00000,-0.02963,0.02595,0.02538,-0.00188,-0.00678,0.04727,-0.01653,1.09532,0.85010,0.00000,1.85896,1.86667,-0.07485,0.31802,0.83323,-0.20803,0.55597,2.35252,2.35252,A,162008.60
0.86334,57.68857397,11.98063430,57.68857600,11.98063217,16:20:08.688308,0.00504,0.00000,0.00000,-0.02965,0.02595,0.02279,-0.01074,-0.01213,0.03532,-0.01275,1.07043,0.85788,0.00000,1.93184,1.93955,-0.08151,0.32992,0.83323,-0.20803,0.55597,2.35252,2.35252,A,162008.60
0.87412,57.68857407,11.98063419,57.68857600,11.98063217,16:20:08.699087,0.00542,0.00000,0.00000,-0.03011,0.02595,0.01408,-0.01013,-0.01198,0.01263,-0.03861,0.99528,0.86829,0.00000,1.99379,2.00149,-0.08784,0.34122,0.83323,-0.20803,0.55597,2.35252,2.35252,A,162008.60
0.88416,57.68857417,11.98063409,57.68857600,11.98063217,16:20:08.709124,0.00507,0.00000,0.00000,-0.03038,0.02595,0.01042,-0.01333,-0.01350,0.00140,-0.02233,0.94593,0.87873,0.00000,2.04644,2.05415,-0.09385,0.35196,0.83323,-0.20803,0.55597,2.35252,2.35252,A,162008.60
0.89475,57.68857426,11.98063399,57.68857600,11.98063217,16:20:08.719725,0.00524,0.00000,0.00000,-0.03053,0.02595,0.00568,-0.00539,-0.01625,-0.04898,-0.01269,0.94648,0.88899,0.00000,2.09120,2.09890,-0.09956,0.36216,0.83323,-0.20803,0.55597,2.35252,2.35252,A,162008.60
0.90522,57.68857434,11.98063390,57.68857600,11.98063217,16:20:08.730194,0.00530,0.00000,0.00000,-0.03079,0.02595,0.00751,0.00240,-0.01167,-0.01049,-0.02013,0.93379,0.89954,0.00000,2.12924,2.13695,-0.10498,0.37185,0.83323,-0.20803,0.55597,2.35252,2.35252,A,162008.60
0.91792,57.68857443,11.98063381,57.68857600,11.98063217,16:20:08.742892,0.00761,0.00000,0.00000,-0.03105,0.02595,0.00232,-0.00066,-0.00785,0.00988,-0.01824,0.96356,0.91209,0.00000,2.16158,2.16928,-0.11013,0.38105,0.83323,-0.20803,0.55597,2.35252,2.35252,A,162008.60
0.92789,57.68857451,11.98063373,57.68857600,11.98063217,16:20:08.752860,0.00719,0.00000,0.00000,-0.03104,0.02595,0.01118,0.00377,-0.00938,0.02098,-0.00683,0.99936,0.92237,0.00000,2.18906,2.19677,-0.11503,0.38980,0.83323,-0.20803,0.55597,2.35252,2.35252,A,162008.60
0.95534,57.68857458,11.98063365,57.68857667,11.98063233,16:20:08.781153,0.02299,0.00000,0.00000,-0.03105,0.02595,0.00996,-0.00432,-0.00739,0.00805,-0.00750,1.04157,0.93278,0.00000,2.21243,2.22013,-0.11968,0.39811,0.95194,-0.19812,0.63010,1.43795,1.43795,A,162008.70
0.97052,57.68857468,11.98063359,57.68857667,11.98063233,16:20:08.795484,0.00707,0.00000,0.00000,-0.03137,0.02595,0.00919,-0.00875,-0.01473,0.04044,-0.04105,1.00778,0.96471,0.00000,2.09510,2.10280,-0.12360,0.40971,0.95194,-0.19812,0.63010,1.43795,1.43795,A,162008.70
0.97897,57.68857478,11.98063352,57.68857667,11.98063233,16:20:08.803934,0.00513,0.00000,0.00000,-0.03179,0.02595,0.01072,-0.01425,-0.01656,0.04050,-0.03373,0.98680,0.97324,0.00000,1.99537,2.00308,-0.12732,0.42073,0.95194,-0.19812,0.63010,1.43795,1.43795,A,162008.70
0.98963,57.68857488,11.98063346,57.68857667,11.98063233,16:20:08.814600,0.00540,0.00000,0.00000,-0.03200,0.02601,0.01484,-0.01700,-0.01381,-0.00323,-0.02416,0.96343,0.98387,0.00000,1.91060,1.91832,-0.13086,0.43120,0.95194,-0.19812,0.63010,1.43795,1.43795,A,162008.70
0.99977,57.68857497,11.98063341,57.68857667,11.98063233,16:20:08.824743,0.00515,0.00000,0.00000,-0.03204,0.02612,0.01820,-0.01379,-0.00923,-0.03581,-0.01568,0.96160,0.99430,0.00000,1.83854,1.84630,-0.13423,0.44114,0.95194,-0.19812,0.63010,1.43795,1.43795,A,162008.70
1.01034,57.68857505,11.98063335,57.68857667,11.98063233,16:20:08.835310,0.00517,0.00000,0.00000,-0.03210,0.02632,0.02095,-0.00509,-0.00526,-0.01909,-0.01769,0.95831,1.00460,0.00000,1.77728,1.78509,-0.13742,0.45059,0.95194,-0.19812,0.63010,1.43795,1.43795,A,162008.70
1.02108,57.68857513,11.98063330,57.68857667,11.98063233,16:20:08.846055,0.00551,0.00000,0.00000,-0.03235,0.02658,0.02126,-0.00280,-0.00617,0.02507,-0.03190,0.97155,1.01519,0.00000,1.72520,1.73309,-0.14046,0.45957,0.95194,-0.19812,0.63010,1.43795,1.43795,A,162008.70
1.03103,57.68857521,11.98063326,57.68857667,11.98063233,16:20:08.856000,0.00507,0.00000,0.00000,-0.03241,0.02680,0.02645,-0.00570,-0.00495,0.03251,-0.02281,0.99863,1.02535,0.00000,1.68092,1.68887,-0.14334,0.46809,0.95194,-0.19812,0.63010,1.43795,1.43795,A,162008.70
1.04176,57.68857528,11.98063321,57.68857667,11.98063233,16:20:08.866727,0.00540,0.00000,0.00000,-0.03222,0.02700,0.01897,-0.00585,-0.00281,-0.00140,-0.00177,1.06567,1.03599,0.00000,1.64327,1.65129,-0.14608,0.47619,0.95194,-0.19812,0.63010,1.43795,1.43795,A,162008.70
1.05195,57.68857535,11.98063317,57.68857667,11.98063233,16:20:08.876918,0.00519,0.00000,0.00000,-0.03210,0.02706,0.02004,-0.00157,-0.01091,-0.01769,-0.00714,1.07909,1.04648,0.00000,1.61127,1.61930,-0.14868,0.48389,0.95194,-0.19812,0.63010,1.43795,1.43795,A,162008.70
1.07873,57.68857542,11.98063312,57.68857750,11.98063200,16:20:08.903695,0.02154,0.00000,0.00000,-0.03217,0.02706,0.01851,-0.00295,-0.01305,0.04185,-0.01921,1.00784,1.05738,0.00000,1.58407,1.59210,-0.15115,0.49120,1.07421,-0.21793,0.72277,1.78143,1.78143,A,162008.80
1.09176,57.68857552,11.98063307,57.68857750,11.98063200,16:20:08.916731,0.00621,0.00000,0.00000,-0.03114,0.02706,0.04508,-0.01669,-0.02099,-0.07649,-0.01775,0.98192,1.08626,0.00000,1.61247,1.62050,-0.15449,0.50278,1.07421,-0.21793,0.72277,1.78143,1.78143,A,162008.80
1.10136,57.68857562,11.98063301,57.68857750,11.98063200,16:20:08.926327,0.00534,0.00000,0.00000,-0.03148,0.02706,0.00965,-0.00173,-0.02206,-0.05966,-0.02873,0.99875,1.09565,0.00000,1.63661,1.64464,-0.15766,0.51378,1.07421,-0.21793,0.72277,1.78143,1.78143,A,162008.80
1.11177,57.68857571,11.98063296,57.68857750,11.98063200,16:20:08.936732,0.00536,0.00000,0.00000,-0.03196,0.02706,0.01164,0.01034,-0.01824,-0.02769,-0.04026,1.00357,1.10602,0.00000,1.65713,1.66516,-0.16068,0.52423,1.07421,-0.21793,0.72277,1.78143,1.78143,A,162008.80
1.12233,57.68857580,11.98063292,57.68857750,11.98063200,16:20:08.947300,0.00535,0.00000,0.00000,-0.03248,0.02706,0.00400,0.01278,-0.01243,0.03892,-0.03806,1.00778,1.11642,0.00000,1.67457,1.68260,-0.16354,0.53415,1.07421,-0.21793,0.72277,1.78143,1.78143,A,162008.80
1.13245,57.68857589,11.98063287,57.68857750,11.98063200,16:20:08.957410,0.00507,0.00000,0.00000,-0.03269,0.02706,-0.00119,0.00209,-0.00877,0.06692,-0.01513,1.01772,1.12700,0.00000,1.68939,1.69742,-0.16626,0.54359,1.07421,-0.21793,0.72277,1.78143,1.78143,A,162008.80
1.14290,57.68857597,11.98063283,57.68857750,11.98063200,16:20:08.967870,0.00513,0.00000,0.00000,-0.03272,0.02706,-0.00684,-0.00722,-0.00831,-0.00110,0.00110,1.04469,1.13717,0.00000,1.70199,1.71003,-0.16884,0.55254,1.07421,-0.21793,0.72277,1.78143,1.78143,A,162008.80
1.15352,57.68857605,11.98063278,57.68857750,11.98063200,16:20:08.978487,0.00535,0.00000,0.00000,-0.03274,0.02706,-0.00211,-0.00616,-0.00892,-0.02513,-0.00152,1.02230,1.14780,0.00000,1.71270,1.72074,-0.17130,0.56106,1.07421,-0.21793,0.72277,1.78143,1.78143,A,162008.80
1.16363,57.68857612,11.98063275,57.68857750,11.98063200,16:20:08.988593,0.00506,0.00000,0.00000,-0.03283,0.02706,-0.00104,-0.00203,-0.01732,-0.00500,-0.00628,0.97075,1.15817,0.00000,1.72181,1.72984,-0.17363,0.56914,1.07421,-0.21793,0.72277,1.78143,1.78143,A,162008.80
1.17429,57.68857619,11.98063271,57.68857750,11.98063200,16:20:08.999248,0.00519,0.00000,0.00000,-0.03333,0.02706,-0.00195,0.00133,-0.02038,0.01269,-0.03209,0.93989,1.16853,0.00000,1.72955,1.73758,-0.17584,0.57682,1.07421,-0.21793,0.72277,1.78143,1.78143,A,162008.80
1.19973,57.68857625,11.98063267,57.68857817,11.98063133,16:20:09.024695,0.02023,0.00000,0.00000,-0.03396,0.02706,-0.00990,0.00362,-0.02358,0.02666,-0.03385,0.91396,1.17911,0.00000,1.73613,1.74416,-0.17795,0.58412,1.19640,-0.25756,0.79690,2.06168,2.06168,A,162008.90
1.20981,57.68857635,11.98063261,57.68857817,11.98063133,16:20:09.034784,0.00550,0.00000,0.00000,-0.03447,0.02706,-0.02379,-0.00188,-0.02144,-0.04587,0.00226,1.03236,1.20402,0.00000,1.78375,1.79179,-0.18193,0.59476,1.19640,-0.25756,0.79690,2.06168,2.06168,A,162008.90
1.21967,57.68857644,11.98063254,57.68857817,11.98063133,16:20:09.044637,0.00511,0.00000,0.00000,-0.03459,0.02706,-0.01768,0.00728,-0.02465,-0.01281,0.00024,1.08696,1.21419,0.00000,1.82424,1.83227,-0.18571,0.60487,1.19640,-0.25756,0.79690,2.06168,2.06168,A,162008.90
1.23029,57.68857653,11.98063248,57.68857817,11.98063133,16:20:09.055250,0.00518,0.00000,0.00000,-0.03488,0.02706,-0.02272,0.00927,-0.02740,0.03251,-0.00836,1.10514,1.22454,0.00000,1.85865,1.86668,-0.18930,0.61447,1.19640,-0.25756,0.79690,2.06168,2.06168,A,162008.90
1.24104,57.68857661,11.98063242,57.68857817,11.98063133,16:20:09.066024,0.00534,0.00000,0.00000,-0.03546,0.02706,-0.02547,0.00209,-0.02297,0.08577,-0.02550,1.04859,1.23534,0.00000,1.88790,1.89593,-0.19272,0.62359,1.19640,-0.25756,0.79690,2.06168,2.06168,A,162008.90
1.25121,57.68857669,11.98063237,57.68857817,11.98063133,16:20:09.076168,0.00512,0.00000,0.00000,-0.03599,0.02706,-0.02532,-0.00783,-0.02465,0.03117,-0.02263,0.99942,1.24548,0.00000,1.91276,1.92079,-0.19596,0.63225,1.19640,-0.25756,0.79690,2.06168,2.06168,A,162008.90
1.26190,57.68857676,11.98063232,57.68857817,11.98063133,16:20:09.086864,0.00541,0.00000,0.00000,-0.03653,0.02706,-0.02776,-0.01318,-0.01824,-0.11151,-0.02080,0.98637,1.25617,0.00000,1.93389,1.94193,-0.19904,0.64049,1.19640,-0.25756,0.79690,2.06168,2.06168,A,162008.90
1.27191,57.68857683,11.98063227,57.68857817,11.98063133,16:20:09.096877,0.00503,0.00000,0.00000,-0.03691,0.02706,-0.02608,0.01324,-0.01915,-0.11242,-0.01281,0.95977,1.26645,0.00000,1.95186,1.95989,-0.20196,0.64831,1.19640,-0.25756,0.79690,2.06168,2.06168,A,162008.90
1.28238,57.68857690,11.98063222,57.68857817,11.98063133,16:20:09.107347,0.00518,0.00000,0.00000,-0.03766,0.02706,-0.02898,0.02790,-0.02038,0.00226,-0.03300,0.91146,1.27663,0.00000,1.96712,1.97516,-0.20474,0.65574,1.19640,-0.25756,0.79690,2.06168,2.06168,A,162008.90
1.29267,57.68857696,11.98063218,57.68857817,11.98063133,16:20:09.117888,0.00508,0.00000,0.00000,-0.03849,0.02706,-0.03173,0.02210,-0.01671,0.08180,-0.03660,0.91347,1.28722,0.00000,1.98010,1.98813,-0.20738,0.66279,1.19640,-0.25756,0.79690,2.06168,2.06168,A,162008.90
1.32959,57.68857702,11.98063214,57.68857967,11.98063083,16:20:09.154563,0.03160,0.00000,0.00000,-0.03906,0.02706,-0.04273,0.00499,-0.01992,0.05697,-0.01647,0.99308,1.29738,0.00000,1.99113,1.99917,-0.20989,0.66950,1.32513,-0.28727,0.96369,1.74712,1.74712,A,162009.10
1.34604,57.68857715,11.98063207,57.68857967,11.98063083,16:20:09.171006,0.00700,0.00000,0.00000,-0.04067,0.02706,-0.03693,0.00621,-0.02801,0.06423,-0.01153,0.98838,1.34023,0.00000,1.95333,1.96136,-0.21376,0.68421,1.32513,-0.28727,0.96369,1.74712,1.74712,A,162009.10
1.35447,57.68857728,11.98063201,57.68857967,11.98063083,16:20:09.179439,0.00521,0.00000,0.00000,-0.04117,0.02706,-0.04624,-0.00218,-0.02297,0.07820,-0.01549,0.92012,1.34872,0.00000,1.92119,1.92922,-0.21744,0.69818,1.32513,-0.28727,0.96369,1.74712,1.74712,A,162009.10
1.36495,57.68857740,11.98063195,57.68857967,11.98063083,16:20:09.189938,0.00506,0.00000,0.00000,-0.04197,0.02706,-0.04670,-0.00829,-0.02297,-0.06240,-0.02843,0.91592,1.35928,0.00000,1.89388,1.90191,-0.22093,0.71146,1.32513,-0.28727,0.96369,1.74712,1.74712,A,162009.10
1.37510,57.68857751,11.98063189,57.68857967,11.98063083,16:20:09.200068,0.00505,0.00000,0.00000,-0.04225,0.02706,-0.04227,0.00469,-0.01854,-0.12359,-0.00134,0.94776,1.36945,0.00000,1.87066,1.87869,-0.22425,0.72407,1.32513,-0.28727,0.96369,1.74712,1.74712,A,162009.10
1.38586,57.68857762,11.98063184,57.68857967,11.98063083,16:20:09.210830,0.00541,0.00000,0.00000,-0.04289,0.02706,-0.04074,0.02958,-0.01442,-0.05740,-0.02422,0.95111,1.38013,0.00000,1.85092,1.85895,-0.22740,0.73605,1.32513,-0.28727,0.96369,1.74712,1.74712,A,162009.10
1.39705,57.68857772,11.98063179,57.68857967,11.98063083,16:20:09.222025,0.00620,0.00000,0.00000,-0.04385,0.02706,-0.04471,0.03447,-0.01091,0.08168,-0.04319,0.95922,1.39045,0.00000,1.83415,1.84218,-0.23039,0.74743,1.32513,-0.28727,0.96369,1.74712,1.74712,A,162009.10
1.40639,57.68857782,11.98063174,57.68857967,11.98063083,16:20:09.231357,0.00519,0.00000,0.00000,-0.04473,0.02706,-0.05311,0.01309,-0.00694,0.14658,-0.03575,0.98637,1.40064,0.00000,1.81989,1.82792,-0.23324,0.75825,1.32513,-0.28727,0.96369,1.74712,1.74712,A,162009.10
1.41664,57.68857791,11.98063170,57.68857967,11.98063083,16:20:09.241864,0.00521,0.00000,0.00000,-0.04526,0.02706,-0.05418,-0.01959,-0.00556,0.02800,-0.01135,1.03072,1.41118,0.00000,1.80777,1.81580,-0.23594,0.76852,1.32513,-0.28727,0.96369,1.74712,1.74712,A,162009.10
1.44331,57.68857800,11.98063165,57.68858050,11.98063033,16:20:09.268844,0.02149,0.00000,0.00000,-0.04557,0.02706,-0.05159,-0.01486,-0.01106,-0.12188,-0.00098,1.12673,1.42123,0.00000,1.79747,1.80550,-0.23850,0.77828,1.43855,-0.31699,1.05635,1.88115,1.88115,A,162009.20
1.45857,57.68857812,11.98063159,57.68858050,11.98063033,16:20:09.283530,0.00767,0.00000,0.00000,-0.04814,0.02706,-0.05876,-0.00371,-0.01961,0.13920,-0.06082,0.94471,1.45277,0.00000,1.80881,1.81685,-0.24243,0.79218,1.43855,-0.31699,1.05635,1.88115,1.88115,A,162009.20
1.46636,57.68857824,11.98063153,57.68858050,11.98063033,16:20:09.291326,0.00517,0.00000,0.00000,-0.04873,0.02706,-0.06686,-0.02005,-0.01473,0.02708,-0.02092,0.95642,1.46062,0.00000,1.81846,1.82649,-0.24616,0.80539,1.43855,-0.31699,1.05635,1.88115,1.88115,A,162009.20
1.47664,57.68857836,11.98063147,57.68858050,11.98063033,16:20:09.301860,0.00506,0.00000,0.00000,-0.04867,0.02706,-0.05540,-0.01440,-0.01045,-0.11242,0.02489,1.00162,1.47119,0.00000,1.82666,1.83469,-0.24970,0.81794,1.43855,-0.31699,1.05635,1.88115,1.88115,A,162009.20
1.48707,57.68857846,11.98063141,57.68858050,11.98063033,16:20:09.312037,0.00509,0.00000,0.00000,-0.04925,0.02711,-0.04258,0.00744,-0.00404,-0.12944,-0.02690,0.97954,1.48138,0.00000,1.83362,1.84167,-0.25306,0.82986,1.43855,-0.31699,1.05635,1.88115,1.88115,A,162009.20
1.49775,57.68857856,11.98063136,57.68858050,11.98063033,16:20:09.322712,0.00538,0.00000,0.00000,-0.05039,0.02740,-0.04212,0.02744,0.00452,0.01177,-0.05954,0.91653,1.49200,0.00000,1.83953,1.84766,-0.25626,0.84118,1.43855,-0.31699,1.05635,1.88115,1.88115,A,162009.20
1.50780,57.68857866,11.98063130,57.68858050,11.98063033,16:20:09.332761,0.00503,0.00000,0.00000,-0.05122,0.02791,-0.04258,0.02362,0.00956,0.10699,-0.04124,0.90097,1.50235,0.00000,1.84453,1.85281,-0.25930,0.85194,1.43855,-0.31699,1.05635,1.88115,1.88115,A,162009.20
1.51836,57.68857875,11.98063126,57.68858050,11.98063033,16:20:09.343322,0.00517,0.00000,0.00000,-0.05145,0.02861,-0.04670,0.00316,0.01108,0.03343,-0.00403,0.97521,1.51261,0.00000,1.84875,1.85724,-0.26218,0.86216,1.43855,-0.31699,1.05635,1.88115,1.88115,A,162009.20
1.52865,57.68857884,11.98063121,57.68858050,11.98063033,16:20:09.353870,0.00507,0.00000,0.00000,-0.05165,0.02946,-0.04548,0.00102,0.00406,-0.03538,-0.00220,1.03846,1.52321,0.00000,1.85230,1.86104,-0.26492,0.87187,1.43855,-0.31699,1.05635,1.88115,1.88115,A,162009.20
1.55420,57.68857892,11.98063117,57.68858150,11.98062933,16:20:09.379168,0.02023,0.00000,0.00000,-0.05204,0.03031,-0.04120,0.01110,-0.00205,-0.02184,-0.01958,1.06945,1.53360,0.00000,1.85527,1.86427,-0.26753,0.88109,1.55051,-0.37643,1.16755,2.06168,2.06168,A,162009.30
1.56445,57.68857905,11.98063107,57.68858150,11.98062933,16:20:09.389411,0.00521,0.00000,0.00000,-0.05355,0.03229,-0.04380,0.00102,-0.02068,0.10480,-0.04868,1.00199,1.55896,0.00000,1.88480,1.89438,-0.27297,0.89542,1.55051,-0.37643,1.16755,2.06168,2.06168,A,162009.30
1.57463,57.68857918,11.98063099,57.68858150,11.98062933,16:20:09.399600,0.00516,0.00000,0.00000,-0.05416,0.03306,-0.04212,-0.01181,-0.02435,0.02269,-0.03489,0.98619,1.56891,0.00000,1.90986,1.91967,-0.27814,0.90902,1.55051,-0.37643,1.16755,2.06168,2.06168,A,162009.30
1.58719,57.68857929,11.98063090,57.68858150,11.98062933,16:20:09.412160,0.00732,0.00000,0.00000,-0.05454,0.03388,-0.02898,-0.00142,-0.01564,-0.09071,-0.02434,1.00351,1.58150,0.00000,1.93112,1.94118,-0.28306,0.92195,1.55051,-0.37643,1.16755,2.06168,2.06168,A,162009.30
1.59531,57.68857940,11.98063083,57.68858150,11.98062933,16:20:09.420272,0.00505,0.00000,0.00000,-0.05523,0.03450,-0.02700,0.01278,-0.01045,-0.10132,-0.05502,0.99204,1.58965,0.00000,1.94917,1.95941,-0.28773,0.93423,1.55051,-0.37643,1.16755,2.06168,2.06168,A,162009.30
1.60640,57.68857951,11.98063075,57.68858150,11.98062933,16:20:09.431358,0.00573,0.00000,0.00000,-0.05629,0.03515,-0.02669,0.02729,0.00192,0.00018,-0.07247,0.96465,1.60061,0.00000,1.96448,1.97492,-0.29216,0.94590,1.55051,-0.37643,1.16755,2.06168,2.06168,A,162009.30
1.61629,57.68857961,11.98063068,57.68858150,11.98062933,16:20:09.441253,0.00523,0.00000,0.00000,-0.05719,0.03560,-0.02364,0.02256,0.00467,0.10474,-0.06600,0.95166,1.61085,0.00000,1.97747,1.98804,-0.29637,0.95698,1.55051,-0.37643,1.16755,2.06168,2.06168,A,162009.30
1.62650,57.68857970,11.98063061,57.68858150,11.98062933,16:20:09.451471,0.00521,0.00000,0.00000,-0.05742,0.03583,-0.02700,-0.00218,0.01261,0.08558,-0.02318,0.96502,1.62073,0.00000,1.98851,1.99915,-0.30038,0.96751,1.55051,-0.37643,1.16755,2.06168,2.06168,A,162009.30
1.63730,57.68857979,11.98063055,57.68858150,11.98062933,16:20:09.462276,0.00561,0.00000,0.00000,-0.05734,0.03589,-0.01936,-0.01043,0.00452,-0.04362,-0.00787,1.02706,1.63131,0.00000,1.99788,2.00854,-0.30418,0.97751,1.55051,-0.37643,1.16755,2.06168,2.06168,A,162009.30
1.64716,57.68857988,11.98063049,57.68858150,11.98062933,16:20:09.472117,0.00507,0.00000,0.00000,-0.05766,0.03589,-0.01127,-0.00173,0.00650,-0.10279,-0.04252,1.06787,1.64147,0.00000,2.00586,2.01651,-0.30779,0.98701,1.55051,-0.37643,1.16755,2.06168,2.06168,A,162009.30
1.67249,57.68857996,11.98063043,57.68858250,11.98062933,16:20:09.497463,0.02002,0.00000,0.00000,-0.05838,0.03597,-0.01356,0.02072,-0.00083,-0.03550,-0.06722,1.03072,1.65208,0.00000,2.01263,2.02331,-0.31122,0.99604,1.66893,-0.37643,1.27874,1.57080,1.57080,A,162009.40
1.68434,57.68858008,11.98063038,57.68858250,11.98062933,16:20:09.509306,0.00697,0.00000,0.00000,-0.05890,0.03662,-0.01845,0.00789,-0.00342,-0.00701,-0.03044,0.99704,1.67823,0.00000,1.94472,1.95560,-0.31448,1.01017,1.66893,-0.37643,1.27874,1.57080,1.57080,A,162009.40
1.69308,57.68858021,11.98063032,57.68858250,11.98062933,16:20:09.518054,0.00531,0.00000,0.00000,-0.05879,0.03708,-0.01356,0.00820,-0.00663,-0.05191,-0.01238,1.00632,1.68740,0.00000,1.88698,1.89799,-0.31758,1.02360,1.66893,-0.37643,1.27874,1.57080,1.57080,A,162009.40
1.70324,57.68858032,11.98063027,57.68858250,11.98062933,16:20:09.528205,0.00508,0.00000,0.00000,-0.05896,0.03761,-0.01326,0.01782,-0.00770,-0.04636,-0.03093,1.03474,1.69757,0.00000,1.83788,1.84905,-0.32052,1.03636,1.66893,-0.37643,1.27874,1.57080,1.57080,A,162009.40
1.71408,57.68858043,11.98063023,57.68858250,11.98062933,16:20:09.539046,0.00552,0.00000,0.00000,-0.05932,0.03824,-0.00745,0.02775,-0.00419,0.06679,-0.04508,0.97155,1.70832,0.00000,1.79611,1.80747,-0.32332,1.04848,1.66893,-0.37643,1.27874,1.57080,1.57080,A,162009.40
1.72420,57.68858053,11.98063018,57.68858250,11.98062933,16:20:09.549174,0.00512,0.00000,0.00000,-0.05999,0.03880,-0.01005,0.00545,-0.00388,0.09290,-0.06252,0.93928,1.71873,0.00000,1.76059,1.77211,-0.32597,1.05999,1.66893,-0.37643,1.27874,1.57080,1.57080,A,162009.40
1.73451,57.68858063,11.98063014,57.68858250,11.98062933,16:20:09.559474,0.00520,0.00000,0.00000,-0.06028,0.03934,-0.00776,-0.00646,0.00207,0.05856,-0.03989,0.92653,1.72876,0.00000,1.73037,1.74205,-0.32850,1.07093,1.66893,-0.37643,1.27874,1.57080,1.57080,A,162009.40
1.74503,57.68858072,11.98063010,57.68858250,11.98062933,16:20:09.570006,0.00531,0.00000,0.00000,-0.06017,0.03979,-0.01158,-0.00280,-0.00144,-0.10413,-0.01379,1.01467,1.73936,0.00000,1.70466,1.71647,-0.33089,1.08132,1.66893,-0.37643,1.27874,1.57080,1.57080,A,162009.40
1.75518,57.68858081,11.98063006,57.68858250,11.98062933,16:20:09.580148,0.00507,0.00000,0.00000,-0.06013,0.04019,-0.00745,0.02118,-0.00022,-0.11444,-0.02275,1.06536,1.74951,0.00000,1.68279,1.69472,-0.33317,1.09119,1.66893,-0.37643,1.27874,1.57080,1.57080,A,162009.40
1.76596,57.68858090,11.98063002,57.68858250,11.98062933,16:20:09.590926,0.00545,0.00000,0.00000,-0.06082,0.04050,-0.00195,0.04256,0.00177,0.02946,-0.07357,1.00211,1.76013,0.00000,1.66419,1.67621,-0.33533,1.10057,1.66893,-0.37643,1.27874,1.57080,1.57080,A,162009.40
1.79212,57.68858098,11.98062999,57.68858333,11.98062883,16:20:09.617092,0.02121,0.00000,0.00000,-0.06131,0.04070,-0.00516,0.02347,0.00162,0.13243,-0.05807,0.98960,1.77152,0.00000,1.64836,1.66045,-0.33739,1.10948,1.78887,-0.40615,1.37140,1.88115,1.88115,A,162009.50
1.80217,57.68858110,11.98062993,57.68858333,11.98062883,16:20:09.627131,0.00545,0.00000,0.00000,-0.06068,0.04081,0.01072,-0.00050,-0.00190,-0.09248,-0.00622,1.05902,1.79637,0.00000,1.68146,1.69358,-0.34083,1.12257,1.78887,-0.40615,1.37140,1.88115,1.88115,A,162009.50
1.81244,57.68858121,11.98062988,57.68858333,11.98062883,16:20:09.637412,0.00533,0.00000,0.00000,-0.06098,0.04090,0.01652,0.01461,-0.00220,-0.02330,-0.06118,1.00571,1.80675,0.00000,1.70959,1.72174,-0.34409,1.13501,1.78887,-0.40615,1.37140,1.88115,1.88115,A,162009.50
1.82266,57.68858131,11.98062983,57.68858333,11.98062883,16:20:09.647625,0.00533,0.00000,0.00000,-0.06176,0.04104,0.01912,0.01645,0.00192,0.07039,-0.08997,0.94879,1.81693,0.00000,1.73350,1.74569,-0.34719,1.14683,1.78887,-0.40615,1.37140,1.88115,1.88115,A,162009.50
1.83402,57.68858141,11.98062978,57.68858333,11.98062883,16:20:09.658982,0.00628,0.00000,0.00000,-0.06253,0.04127,0.00568,0.00255,0.00253,0.08046,-0.08119,0.94245,1.82822,0.00000,1.75381,1.76606,-0.35014,1.15806,1.78887,-0.40615,1.37140,1.88115,1.88115,A,162009.50
1.84320,57.68858151,11.98062973,57.68858333,11.98062883,16:20:09.668163,0.00506,0.95027,0.95027,-0.06237,0.04152,0.00767,-0.00860,-0.00190,0.00128,-0.02178,0.98027,1.83754,0.19005,1.77106,1.78339,-0.35294,1.16873,1.78887,-0.40615,1.37140,1.88115,1.88115,A,162009.50
1.85388,57.68858162,11.98062968,57.68858333,11.98062883,16:20:09.678845,0.00534,0.95027,0.95027,-0.06164,0.04186,0.01378,-0.00448,0.00192,-0.08632,0.01116,1.03987,1.84815,0.34210,1.78576,1.79819,-0.35593,1.18039,1.78887,-0.40615,1.37140,1.88115,1.88115,A,162009.50
1.86392,57.68858172,11.98062963,57.68858333,11.98062883,16:20:09.688884,0.00499,0.95027,0.95027,-0.06152,0.04220,0.01775,0.01293,0.00146,-0.06820,-0.03245,1.05341,1.85846,0.46373,1.79828,1.81081,-0.35905,1.19256,1.78887,-0.40615,1.37140,1.88115,1.88115,A,162009.50
1.87437,57.68858184,11.98062957,57.68858333,11.98062883,16:20:09.699340,0.00518,0.95027,0.95027,-0.06151,0.04254,0.02034,0.01996,-0.00052,0.02934,-0.04142,1.02388,1.86862,0.56104,1.80894,1.82158,-0.36228,1.20509,1.78887,-0.40615,1.37140,1.88115,1.88115,A,162009.50
1.88464,57.68858195,11.98062952,57.68858333,11.98062883,16:20:09.709879,0.00505,0.95027,0.95027,-0.06196,0.04282,0.01943,0.00621,0.00116,0.10840,-0.06673,0.94873,1.87919,0.63889,1.81802,1.83074,-0.36560,1.21780,1.78887,-0.40615,1.37140,1.88115,1.88115,A,162009.50
1.90907,57.68858207,11.98062946,57.68858433,11.98062900,16:20:09.734044,0.01907,0.95027,0.95027,-0.06180,0.04299,0.00996,-0.00829,0.00131,0.02324,-0.02281,0.97661,1.88939,0.70116,1.82576,1.83852,-0.36894,1.23042,1.90633,-0.39624,1.48260,1.48194,1.48194,A,162009.60
1.92023,57.68858231,11.98062937,57.68858433,11.98062900,16:20:09.745201,0.00534,0.95027,0.95027,-0.06156,0.04305,0.01316,0.02026,-0.00083,-0.06942,-0.03306,1.00125,1.91452,0.75099,1.77281,1.78559,-0.37437,1.25784,1.90633,-0.39624,1.48260,1.48194,1.48194,A,162009.60
1.93073,57.68858246,11.98062933,57.68858433,11.98062900,16:20:09.755697,0.00553,0.95027,0.95027,-0.06185,0.04305,0.01561,0.02653,0.00162,0.09565,-0.05106,0.90329,1.92464,0.79084,1.72746,1.74025,-0.37670,1.27473,1.90633,-0.39624,1.48260,1.48194,1.48194,A,162009.60
1.94116,57.68858261,11.98062929,57.68858433,11.98062900,16:20:09.766131,0.00555,0.95027,0.95027,-0.06197,0.04305,0.00751,0.00423,0.00223,0.08259,-0.03654,0.91195,1.93545,0.82273,1.68894,1.70172,-0.37874,1.29136,1.90633,-0.39624,1.48260,1.48194,1.48194,A,162009.60
1.95109,57.68858276,11.98062927,57.68858433,11.98062900,16:20:09.776060,0.00509,0.95027,0.95027,-0.06155,0.04305,0.00339,-0.00570,0.00192,-0.03916,-0.00146,0.95983,1.94540,0.84824,1.65620,1.66898,-0.38045,1.30727,1.90633,-0.39624,1.48260,1.48194,1.48194,A,162009.60
1.96304,57.68858291,11.98062924,57.68858433,11.98062900,16:20:09.788006,0.00665,0.95027,0.95027,-0.06102,0.04305,0.00721,0.00621,-0.00205,-0.12456,0.00299,1.04066,1.95730,0.86864,1.62842,1.64121,-0.38202,1.32396,1.90633,-0.39624,1.48260,1.48194,1.48194,A,162009.60
1.97309,57.68858304,11.98062922,57.68858433,11.98062900,16:20:09.798066,0.00549,0.95027,0.95027,-0.06107,0.04305,0.00370,0.02500,-0.00571,0.02580,-0.03263,1.01016,1.96737,0.88497,1.60477,1.61755,-0.38320,1.33850,1.90633,-0.39624,1.48260,1.48194,1.48194,A,162009.60
1.98309,57.68858316,11.98062920,57.68858433,11.98062900,16:20:09.808061,0.00509,0.95027,0.95027,-0.06121,0.04305,0.00141,0.00652,-0.00266,0.11688,-0.03721,0.99729,1.97739,0.89803,1.58467,1.59745,-0.38417,1.35263,1.90633,-0.39624,1.48260,1.48194,1.48194,A,162009.60
1.99634,57.68858330,11.98062919,57.68858433,11.98062900,16:20:09.821348,0.00726,0.95027,0.95027,-0.06117,0.04305,0.00095,-0.01074,-0.00312,0.07729,-0.02470,1.00918,1.98903,0.90848,1.56763,1.58042,-0.38500,1.36734,1.90633,-0.39624,1.48260,1.48194,1.48194,A,162009.60
2.00457,57.68858341,11.98062918,57.68858433,11.98062900,16:20:09.829788,0.00510,0.95027,0.95027,-0.06115,0.04305,-0.00043,-0.02692,-0.00312,-0.03569,-0.02599,1.04426,1.99913,0.91684,1.55311,1.56589,-0.38563,1.38005,1.90633,-0.39624,1.48260,1.48194,1.48194,A,162009.60
2.04439,57.68858353,11.98062917,57.68858600,11.98062767,16:20:09.869383,0.03452,0.95027,0.95027,-0.06153,0.04305,0.01087,0.00347,-0.00098,-0.10620,-0.06204,1.04298,2.00947,0.95027,1.83572,1.84851,-0.47549,1.66792,2.03743,-0.47549,1.66792,1.97488,1.97488,A,162009.80
2.05427,57.68858629,11.98062751,57.68858600,11.98062767,16:20:09.879235,0.00524,0.95027,0.95027,-0.06125,0.01628,0.00385,-0.00402,0.00696,0.04081,-0.01970,0.96087,2.04851,0.95027,1.85705,1.86188,-0.48466,1.70010,2.03743,-0.47549,1.66792,1.97488,1.97488,A,162009.80
2.06451,57.68858634,11.98062748,57.68858600,11.98062767,16:20:09.889468,0.00508,0.95027,0.95027,-0.06071,0.01631,0.01133,0.00056,0.00849,-0.02416,-0.00037,0.98027,2.05906,0.95027,1.87410,1.87894,-0.48640,1.70583,2.03743,-0.47549,1.66792,1.97488,1.97488,A,162009.80
2.07488,57.68858639,11.98062745,57.68858600,11.98062767,16:20:09.899846,0.00522,0.95027,0.95027,-0.06098,0.01636,0.01500,0.00255,0.00788,-0.07143,-0.05722,1.01504,2.06916,0.95027,1.88859,1.89345,-0.48814,1.71110,2.03743,-0.47549,1.66792,1.97488,1.97488,A,162009.80
2.08540,57.68858643,11.98062742,57.68858600,11.98062767,16:20:09.910372,0.00534,0.95027,0.95027,-0.06110,0.01642,0.01530,0.02118,0.00100,-0.05283,-0.04904,1.03236,2.07969,0.95027,1.90090,1.90578,-0.48994,1.71624,2.03743,-0.47549,1.66792,1.97488,1.97488,A,162009.80
2.09596,57.68858648,11.98062739,57.68858600,11.98062767,16:20:09.920926,0.00551,0.95027,0.95027,-0.06126,0.01651,0.00828,0.02026,-0.00037,0.03928,-0.04563,1.00687,2.09048,0.95027,1.91138,1.91627,-0.49190,1.72152,2.03743,-0.47549,1.66792,1.97488,1.97488,A,162009.80
2.10620,57.68858652,11.98062736,57.68858600,11.98062767,16:20:09.931166,0.00517,0.95027,0.95027,-0.06099,0.01662,0.00431,0.01248,-0.00587,0.09986,-0.01305,0.98655,2.10046,0.95027,1.92026,1.92519,-0.49358,1.72580,2.03743,-0.47549,1.66792,1.97488,1.97488,A,162009.80
2.11771,57.68858657,11.98062733,57.68858600,11.98062767,16:20:09.942676,0.00560,0.95027,0.95027,-0.06077,0.01673,0.01408,0.00301,-0.00113,-0.01287,-0.02403,0.96868,2.11191,0.95027,1.92782,1.93279,-0.49562,1.73086,2.03743,-0.47549,1.66792,1.97488,1.97488,A,162009.80
2.12759,57.68858660,11.98062730,57.68858600,11.98062767,16:20:09.952551,0.00508,0.95027,0.95027,-0.06077,0.01685,0.01072,0.01431,0.00131,-0.12096,-0.03672,1.03962,2.12212,0.95027,1.93423,1.93923,-0.49721,1.73457,2.03743,-0.47549,1.66792,1.97488,1.97488,A,162009.80
2.15561,57.68858664,11.98062727,57.68858700,11.98062733,16:20:09.980573,0.02270,0.95027,0.95027,-0.06084,0.01690,0.00751,0.02821,0.00391,-0.03532,-0.03989,1.04103,2.13304,0.95027,1.93969,1.94471,-0.49910,1.73895,2.15155,-0.49530,1.77912,1.74712,1.74712,A,162009.90
2.16575,57.68858684,11.98062714,57.68858700,11.98062733,16:20:09.990711,0.00551,0.95027,0.95027,-0.06037,0.01690,0.01820,-0.00448,0.00482,0.14268,-0.02702,0.93147,2.15994,0.95027,1.91036,1.91538,-0.50699,1.76155,2.15155,-0.49530,1.77912,1.74712,1.74712,A,162009.90
2.17572,57.68858691,11.98062710,57.68858700,11.98062733,16:20:10.000680,0.00508,0.95027,0.95027,-0.06004,0.01690,0.01072,-0.02250,0.00452,-0.10157,-0.01342,1.02651,2.17024,0.95027,1.88522,1.89024,-0.50891,1.76939,2.15155,-0.49530,1.77912,1.74712,1.74712,A,162009.90
2.18635,57.68858698,11.98062707,57.68858700,11.98062733,16:20:10.011310,0.00517,0.95027,0.95027,-0.06016,0.01690,0.01973,0.00881,-0.00327,-0.08821,-0.04996,1.01925,2.18061,0.95027,1.86386,1.86888,-0.51066,1.77723,2.15155,-0.49530,1.77912,1.74712,1.74712,A,162009.90
2.19815,57.68858706,11.98062704,57.68858700,11.98062733,16:20:10.023114,0.00657,0.95027,0.95027,-0.06053,0.01690,0.01103,0.02485,0.00055,-0.02763,-0.06259,1.02199,2.19232,0.95027,1.84572,1.85074,-0.51246,1.78567,2.15155,-0.49530,1.77912,1.74712,1.74712,A,162009.90
2.20706,57.68858711,11.98062703,57.68858700,11.98062733,16:20:10.032018,0.00508,0.95027,0.95027,-0.06067,0.01690,0.00980,0.02744,-0.00006,0.09583,-0.04056,0.94446,2.20137,0.95027,1.83026,1.83528,-0.51332,1.79135,2.15155,-0.49530,1.77912,1.74712,1.74712,A,162009.90
2.21801,57.68858717,11.98062701,57.68858700,11.98062733,16:20:10.042972,0.00563,0.95027,0.95027,-0.06035,0.01690,0.00721,0.00927,0.00009,0.05228,-0.01141,0.95971,2.21214,0.95027,1.81715,1.82216,-0.51450,1.79839,2.15155,-0.49530,1.77912,1.74712,1.74712,A,162009.90
2.22808,57.68858723,11.98062700,57.68858700,11.98062733,16:20:10.053042,0.00524,0.95027,0.95027,-0.05990,0.01690,0.01393,0.01721,0.00421,-0.00433,-0.00756,0.97899,2.22262,0.95027,1.80599,1.81101,-0.51540,1.80470,2.15155,-0.49530,1.77912,1.74712,1.74712,A,162009.90
2.23960,57.68858728,11.98062698,57.68858700,11.98062733,16:20:10.064572,0.00641,0.95027,0.95027,-0.06014,0.01690,0.01194,0.01507,0.00223,-0.04776,-0.05063,0.99241,2.23264,0.95027,1.79651,1.80153,-0.51617,1.81066,2.15155,-0.49530,1.77912,1.74712,1.74712,A,162009.90
2.24867,57.68858733,11.98062697,57.68858700,11.98062733,16:20:10.073888,0.00508,0.95027,0.95027,-0.06034,0.01690,0.01301,0.03126,0.00039,-0.03605,-0.05155,1.02193,2.24322,0.95027,1.78844,1.79346,-0.51664,1.81552,2.15155,-0.49530,1.77912,1.74712,1.74712,A,162009.90
2.27439,57.68858738,11.98062696,57.68858783,11.98062667,16:20:10.099351,0.02040,0.95027,0.95027,-0.06076,0.01690,0.00202,0.02286,-0.00159,0.05508,-0.05832,1.01846,2.25339,0.95027,1.78160,1.78661,-0.51725,1.82111,2.27024,-0.53492,1.87178,1.97488,1.97488,A,162010.00
2.28435,57.68858759,11.98062687,57.68858783,11.98062667,16:20:10.109311,0.00520,0.95027,0.95027,-0.06048,0.01690,0.00889,0.00179,-0.00098,0.02525,-0.02507,1.04298,2.27889,0.95027,1.81013,1.81515,-0.52268,1.84436,2.27024,-0.53492,1.87178,1.97488,1.97488,A,162010.00
2.29495,57.68858766,11.98062683,57.68858783,11.98062667,16:20:10.120634,0.00556,0.95027,0.95027,-0.06038,0.01690,0.00782,0.00240,0.00345,-0.05716,-0.02806,1.05798,2.28883,0.95027,1.83419,1.83921,-0.52507,1.85289,2.27024,-0.53492,1.87178,1.97488,1.97488,A,162010.00
2.30509,57.68858774,11.98062679,57.68858783,11.98062667,16:20:10.130071,0.00532,0.95027,0.95027,-0.06086,0.01690,0.00996,0.01003,0.00467,-0.01092,-0.06649,0.98582,2.29941,0.95027,1.85465,1.85967,-0.52761,1.86126,2.27024,-0.53492,1.87178,1.97488,1.97488,A,162010.00
2.31523,57.68858781,11.98062675,57.68858783,11.98062667,16:20:10.140199,0.00506,0.95027,0.95027,-0.06126,0.01690,0.00202,0.00896,0.00650,0.03422,-0.05124,0.91884,2.30956,0.95027,1.87204,1.87706,-0.53019,1.86923,2.27024,-0.53492,1.87178,1.97488,1.97488,A,162010.00
2.32602,57.68858788,11.98062670,57.68858783,11.98062667,16:20:10.151155,0.00545,0.95027,0.95027,-0.06097,0.01690,-0.00379,0.00530,0.00559,0.07204,-0.00616,0.85485,2.32020,0.95027,1.88682,1.89184,-0.53278,1.87681,2.27024,-0.53492,1.87178,1.97488,1.97488,A,162010.00
2.33592,57.68858794,11.98062666,57.68858783,11.98062667,16:20:10.160887,0.00496,0.95027,0.95027,-0.06019,0.01690,-0.00257,-0.00264,0.01032,0.01189,0.02348,0.90646,2.33046,0.95027,1.89938,1.90440,-0.53521,1.88353,2.27024,-0.53492,1.87178,1.97488,1.97488,A,162010.00
2.34716,57.68858800,11.98062662,57.68858783,11.98062667,16:20:10.172126,0.00593,0.95027,0.95027,-0.05980,0.01690,-0.00073,0.00179,0.00467,-0.05167,-0.00152,0.97014,2.34068,0.95027,1.91007,1.91508,-0.53791,1.89078,2.27024,-0.53492,1.87178,1.97488,1.97488,A,162010.00
2.35696,57.68858806,11.98062658,57.68858783,11.98062667,16:20:10.181939,0.00532,0.95027,0.95027,-0.05976,0.01690,-0.00302,0.01782,0.00360,-0.09772,-0.02312,1.03755,2.35127,0.95027,1.91913,1.92415,-0.54014,1.89647,2.27024,-0.53492,1.87178,1.97488,1.97488,A,162010.00
2.36824,57.68858812,11.98062653,57.68858783,11.98062667,16:20:10.193208,0.00622,0.95027,0.95027,-0.06019,0.01690,-0.01310,0.03890,-0.00159,0.05429,-0.04782,1.03364,2.36277,0.95027,1.92686,1.93188,-0.54292,1.90348,2.27024,-0.53492,1.87178,1.97488,1.97488,A,162010.00
2.39543,57.68858816,11.98062650,57.68858867,11.98062600,16:20:10.220425,0.02301,0.95027,0.95027,-0.06049,0.01690,-0.02165,0.03401,-0.00342,0.08479,-0.03575,1.02626,2.37205,0.95027,1.93341,1.93842,-0.54491,1.90823,2.39023,-0.57455,1.96444,1.97488,1.97488,A,162010.10
2.40718,57.68858839,11.98062633,57.68858867,11.98062600,16:20:10.232144,0.00538,0.95027,0.95027,-0.06118,0.01690,-0.02364,0.01675,0.00024,0.01501,-0.02721,0.97258,2.40134,0.95027,1.93922,1.94423,-0.55523,1.93398,2.39023,-0.57455,1.96444,1.97488,1.97488,A,162010.10
2.41840,57.68858847,11.98062626,57.68858867,11.98062600,16:20:10.243366,0.00624,0.95027,0.95027,-0.06177,0.01693,-0.03066,0.01568,0.00253,0.00744,-0.04551,0.95800,2.41182,0.95027,1.94392,1.94894,-0.55894,1.94250,2.39023,-0.57455,1.96444,1.97488,1.97488,A,162010.10
2.42763,57.68858854,11.98062621,57.68858867,11.98062600,16:20:10.252585,0.00507,1.25028,1.25028,-0.06256,0.01699,-0.03066,0.01080,0.00055,0.05215,-0.05514,0.91988,2.42217,1.01027,1.94790,1.95294,-0.56221,1.94987,2.39023,-0.57455,1.96444,1.97488,1.97488,A,162010.10
2.43844,57.68858861,11.98062614,57.68858867,11.98062600,16:20:10.263654,0.00522,1.25028,1.25028,-0.06333,0.01710,-0.03876,0.01064,0.00498,0.05472,-0.05002,0.93470,2.43269,1.05827,1.95130,1.95638,-0.56596,1.95840,2.39023,-0.57455,1.96444,1.97488,1.97488,A,162010.10
2.45030,57.68858869,11.98062608,57.68858867,11.98062600,16:20:10.275266,0.00668,1.25028,1.25028,-0.06377,0.01727,-0.04502,-0.00295,0.00772,0.03135,-0.02647,0.94947,2.44324,1.09668,1.95419,1.95931,-0.56960,1.96662,2.39023,-0.57455,1.96444,1.97488,1.97488,A,162010.10
2.45912,57.68858874,11.98062603,57.68858867,11.98062600,16:20:10.284086,0.00511,1.25028,1.25028,-0.06426,0.01750,-0.04258,0.00728,0.00620,-0.14134,-0.03855,1.11648,2.45341,1.12740,1.95661,1.96181,-0.57255,1.97310,2.39023,-0.57455,1.96444,1.97488,1.97488,A,162010.10
2.47083,57.68858883,11.98062597,57.68858867,11.98062600,16:20:10.295800,0.00643,1.25028,1.25028,-0.06505,0.01784,-0.04701,0.03508,0.00482,-0.04593,-0.05398,1.12905,2.46506,1.15197,1.95871,1.96400,-0.57658,1.98220,2.39023,-0.57455,1.96444,1.97488,1.97488,A,162010.10
2.47988,57.68858888,11.98062592,57.68858867,11.98062600,16:20:10.304843,0.00508,1.25028,1.25028,-0.06543,0.01812,-0.05815,0.03508,0.00330,0.01409,-0.02397,1.13003,2.47441,1.17163,1.96044,1.96582,-0.57953,1.98867,2.39023,-0.57455,1.96444,1.97488,1.97488,A,162010.10
2.51045,57.68858898,11.98062584,57.68858950,11.98062500,16:20:10.335415,0.02522,10.71224,1.25028,-0.06573,0.01849,-0.05754,0.02607,0.00330,0.16104,-0.00213,0.99741,2.48758,1.18736,1.96197,1.96746,-0.58416,1.99917,2.50641,-0.63398,2.05711,2.14112,2.14112,A,162010.20
2.52226,57.68858926,11.98062560,57.68858950,11.98062500,16:20:10.347221,0.00696,10.71224,1.25028,-0.06781,0.01877,-0.05143,-0.00386,-0.00510,-0.05795,-0.06661,0.91280,2.51646,1.19995,1.98847,1.99404,-0.59846,2.03025,2.50641,-0.63398,2.05711,2.14112,2.14112,A,162010.20
2.53252,57.68858935,11.98062550,57.68858950,11.98062500,16:20:10.357483,0.00698,10.71224,1.25028,-0.06967,0.01877,-0.04853,0.00835,-0.00266,-0.00842,-0.11675,0.93714,2.52705,1.21001,2.01068,2.01625,-0.60421,2.04042,2.50641,-0.63398,2.05711,2.14112,2.14112,A,162010.20
2.54399,57.68858945,11.98062540,57.68858950,11.98062500,16:20:10.368951,0.00806,10.71224,1.25028,-0.07064,0.01880,-0.05311,-0.00096,0.00162,-0.00610,-0.05996,0.98430,2.53849,1.21807,2.02958,2.03516,-0.61049,2.05129,2.50641,-0.63398,2.05711,2.14112,2.14112,A,162010.20
2.55548,57.68858954,11.98062529,57.68858950,11.98062500,16:20:10.380449,0.00915,10.71224,1.25028,-0.07135,0.01880,-0.05586,0.01400,0.00681,0.01812,-0.05014,1.00418,2.54782,1.22451,2.04565,2.05123,-0.61665,2.06153,2.50641,-0.63398,2.05711,2.14112,2.14112,A,162010.20
2.56753,57.68858963,11.98062518,57.68858950,11.98062500,16:20:10.392498,0.01095,10.71224,1.25028,-0.07182,0.01880,-0.04563,0.01828,0.01444,-0.06234,-0.03001,1.11136,2.56202,1.22966,2.05931,2.06489,-0.62304,2.07190,2.50641,-0.63398,2.05711,2.14112,2.14112,A,162010.20
2.57931,57.68858972,11.98062508,57.68858950,11.98062500,16:20:10.404276,0.00685,10.71224,1.25028,-0.07255,0.01880,-0.03983,0.03676,0.01063,0.00854,-0.06191,1.09111,2.57362,1.23379,2.07093,2.07651,-0.62912,2.08145,2.50641,-0.63398,2.05711,2.14112,2.14112,A,162010.20
2.59011,57.68858979,11.98062499,57.68858950,11.98062500,16:20:10.415076,0.00725,10.71224,1.25028,-0.07282,0.01880,-0.03937,0.02118,0.00666,0.10626,-0.02971,1.01748,2.58428,1.23708,2.08077,2.08635,-0.63429,2.08911,2.50641,-0.63398,2.05711,2.14112,2.14112,A,162010.20
2.60117,57.68858986,11.98062491,57.68858950,11.98062500,16:20:10.427234,0.00798,10.71224,1.25028,-0.07297,0.01880,-0.03784,-0.00386,-0.00144,0.09302,-0.02068,0.95447,2.59544,1.23972,2.08915,2.09473,-0.63950,2.09675,2.50641,-0.63398,2.05711,2.14112,2.14112,A,162010.20
2.63660,57.68858992,11.98062483,57.68859200,11.98062283,16:20:10.461947,0.03268,10.71224,1.25028,-0.07307,0.01880,-0.02853,-0.01364,-0.00022,-0.00945,-0.02568,0.96685,2.60565,1.24183,2.09627,2.10185,-0.64432,2.10358,2.63331,-0.76276,2.33509,2.00462,2.00462,A,162010.40
2.64990,57.68859035,11.98062436,57.68859200,11.98062283,16:20:10.474867,0.00793,10.71224,1.25028,-0.07389,0.01942,-0.02593,0.03722,0.00009,-0.03758,-0.02751,0.97637,2.64411,1.24352,2.08231,2.08808,-0.67188,2.15199,2.63331,-0.76276,2.33509,2.00462,2.00462,A,162010.40
2.66465,57.68859056,11.98062416,57.68859200,11.98062283,16:20:10.489890,0.01206,10.71224,1.25028,-0.07351,0.01956,-0.01753,0.04439,0.00742,0.07351,0.00256,0.96752,2.65916,1.24487,2.07003,2.07584,-0.68399,2.17445,2.63331,-0.76276,2.33509,2.00462,2.00462,A,162010.40
2.67804,57.68859073,11.98062398,57.68859200,11.98062283,16:20:10.503006,0.00689,10.71224,1.25028,-0.07400,0.01956,-0.01081,0.02760,0.01017,0.10535,-0.06295,0.99765,2.67226,1.24596,2.05956,2.06537,-0.69440,2.19419,2.63331,-0.76276,2.33509,2.00462,2.00462,A,162010.40
2.68843,57.68859088,11.98062384,57.68859200,11.98062283,16:20:10.513392,0.00700,10.71224,1.25028,-0.07486,0.01956,-0.01646,0.00896,0.00925,0.01982,-0.08869,1.02797,2.68294,1.24682,2.05061,2.05642,-0.70265,2.21020,2.63331,-0.76276,2.33509,2.00462,2.00462,A,162010.40
2.69970,57.68859102,11.98062371,57.68859200,11.98062283,16:20:10.524663,0.00788,10.71224,1.25028,-0.07550,0.01956,-0.02333,-0.00478,0.00391,-0.01586,-0.06954,1.04408,2.69421,1.24751,2.04302,2.04883,-0.71090,2.22637,2.63331,-0.76276,2.33509,2.00462,2.00462,A,162010.40
2.71042,57.68859115,11.98062358,57.68859200,11.98062283,16:20:10.535386,0.00797,10.71224,1.25028,-0.07531,0.01956,-0.01356,-0.00738,-0.00083,0.01562,-0.02092,1.03700,2.70464,1.24807,2.03655,2.04236,-0.71821,2.24091,2.63331,-0.76276,2.33509,2.00462,2.00462,A,162010.40
2.72018,57.68859127,11.98062348,57.68859200,11.98062283,16:20:10.545149,0.00716,10.71224,1.25028,-0.07547,0.01956,-0.01326,-0.00188,-0.00801,0.04782,-0.04569,1.04621,2.71449,1.24851,2.03104,2.03684,-0.72462,2.25382,2.63331,-0.76276,2.33509,2.00462,2.00462,A,162010.40
2.73067,57.68859139,11.98062337,57.68859200,11.98062283,16:20:10.555633,0.00726,10.71224,1.25028,-0.07652,0.01956,-0.00959,-0.00799,-0.00495,0.03331,-0.10608,1.00491,2.72488,1.24886,2.02637,2.03217,-0.73110,2.26699,2.63331,-0.76276,2.33509,2.00462,2.00462,A,162010.40
2.75595,57.68859150,11.98062327,57.68859317,11.98062017,16:20:10.580908,0.02214,10.71224,1.25028,-0.07707,0.01956,-0.01127,-0.00860,-0.00388,-0.01702,-0.07033,0.98393,2.73525,1.24915,2.02239,2.02820,-0.73707,2.27921,2.75253,-0.92126,2.46482,2.45568,2.45568,A,162010.50
2.76863,57.68859183,11.98062288,57.68859317,11.98062017,16:20:10.593837,0.00792,10.71224,1.25028,-0.07682,0.01956,-0.00394,0.00499,0.01001,-0.01610,-0.01879,0.95770,2.76314,1.24937,2.08700,2.09281,-0.75977,2.31590,2.75253,-0.92126,2.46482,2.45568,2.45568,A,162010.50
2.77982,57.68859198,11.98062265,57.68859317,11.98062017,16:20:10.604788,0.00851,10.71224,1.25028,-0.07642,0.01956,0.00461,-0.00402,0.00864,0.00433,-0.02007,1.01821,2.77430,1.24955,2.14161,2.14742,-0.77340,2.33300,2.75253,-0.92126,2.46482,2.45568,2.45568,A,162010.50
2.78865,57.68859210,11.98062245,57.68859317,11.98062017,16:20:10.613936,0.00694,10.71224,1.25028,-0.07589,0.01956,0.00400,0.00041,0.01399,-0.10224,-0.01037,1.06311,2.78317,1.24970,2.18798,2.19379,-0.78536,2.34661,2.75253,-0.92126,2.46482,2.45568,2.45568,A,162010.50
2.79928,57.68859223,11.98062224,57.68859317,11.98062017,16:20:10.624248,0.00718,10.71224,1.25028,-0.07554,0.01956,0.00965,0.01629,0.00055,-0.04331,-0.02727,1.06890,2.79358,1.24981,2.22743,2.23324,-0.79827,2.36104,2.75253,-0.92126,2.46482,2.45568,2.45568,A,162010.50
2.81051,57.68859235,11.98062202,57.68859317,11.98062017,16:20:10.635476,0.00801,10.71224,1.25028,-0.07574,0.01956,0.00996,0.03294,-0.00098,-0.01434,-0.06710,1.07738,2.80436,1.24991,2.26097,2.26677,-0.81083,2.37445,2.75253,-0.92126,2.46482,2.45568,2.45568,A,162010.50
2.82018,57.68859246,11.98062183,57.68859317,11.98062017,16:20:10.645150,0.00715,10.71224,1.25028,-0.07586,0.01956,-0.00195,0.03034,-0.00556,0.04209,-0.04770,0.98722,2.81449,1.24998,2.28945,2.29525,-0.82221,2.38598,2.75253,-0.92126,2.46482,2.45568,2.45568,A,162010.50
2.83074,57.68859256,11.98062164,57.68859317,11.98062017,16:20:10.655700,0.00731,10.71224,1.25028,-0.07573,0.01959,-0.00073,0.01064,-0.00388,0.05923,-0.03099,0.93940,2.82495,1.25004,2.31367,2.31949,-0.83399,2.39763,2.75253,-0.92126,2.46482,2.45568,2.45568,A,162010.50
2.84137,57.68859266,11.98062145,57.68859317,11.98062017,16:20:10.666338,0.00754,10.71224,1.25028,-0.07536,0.01968,0.00950,-0.00768,0.00482,0.06271,-0.02001,0.86291,2.83528,1.25009,2.33426,2.34010,-0.84502,2.40816,2.75253,-0.92126,2.46482,2.45568,2.45568,A,162010.50
2.85222,57.68859275,11.98062126,57.68859317,11.98062017,16:20:10.677182,0.00794,10.71224,1.25028,-0.07531,0.01987,0.01775,-0.01608,0.00253,-0.01006,-0.04416,0.86882,2.84675,1.25013,2.35176,2.35766,-0.85652,2.41894,2.75253,-0.92126,2.46482,2.45568,2.45568,A,162010.50
2.88122,57.68859284,11.98062108,57.68859417,11.98062017,16:20:10.706193,0.02654,10.71224,1.25028,-0.07578,0.02010,0.02615,-0.01929,0.00528,0.02330,-0.08095,0.89072,2.85715,1.25016,2.36662,2.37259,-0.86701,2.42847,2.87717,-0.92126,2.57602,1.57080,1.57080,A,162010.60
2.89248,57.68859311,11.98062064,57.68859417,11.98062017,16:20:10.717443,0.00656,10.71224,1.25028,-0.07544,0.02050,0.01973,0.00224,0.01337,-0.03947,-0.06661,1.15101,2.88699,1.25018,2.24688,2.25296,-0.89340,2.45876,2.87717,-0.92126,2.57602,1.57080,1.57080,A,162010.60
2.90345,57.68859324,11.98062050,57.68859417,11.98062017,16:20:10.728411,0.00713,10.71224,1.25028,-0.07512,0.02050,0.02477,0.01935,0.00666,0.02214,-0.04392,1.12923,2.89795,1.25020,2.14473,2.15082,-0.90166,2.47308,2.87717,-0.92126,2.57602,1.57080,1.57080,A,162010.60
2.91542,57.68859338,11.98062037,57.68859417,11.98062017,16:20:10.740383,0.00871,10.71224,1.25028,-0.07449,0.02050,0.02279,0.01034,0.00467,0.04685,-0.01732,1.03041,2.90991,1.25022,2.05793,2.06402,-0.90927,2.48834,2.87717,-0.92126,2.57602,1.57080,1.57080,A,162010.60
2.92430,57.68859348,11.98062029,57.68859417,11.98062017,16:20:10.749265,0.00725,10.71224,1.25028,-0.07421,0.02050,0.02111,-0.00310,0.00207,0.02672,-0.03355,0.98234,2.91882,1.25023,1.98409,1.99018,-0.91386,2.50015,2.87717,-0.92126,2.57602,1.57080,1.57080,A,162010.60
2.93469,57.68859360,11.98062022,57.68859417,11.98062017,16:20:10.759655,0.00725,10.71224,1.25028,-0.07404,0.02050,0.02676,-0.00967,-0.00129,-0.03745,-0.04368,0.93836,2.92892,1.25024,1.92135,1.92743,-0.91825,2.51297,2.87717,-0.92126,2.57602,1.57080,1.57080,A,162010.60
2.94543,57.68859371,11.98062015,57.68859417,11.98062017,16:20:10.770404,0.00758,10.71224,1.25028,-0.07365,0.02050,0.03134,-0.00050,-0.00556,-0.01757,-0.03105,0.87773,2.93957,1.25025,1.86803,1.87411,-0.92196,2.52567,2.87717,-0.92126,2.57602,1.57080,1.57080,A,162010.60
2.95652,57.68859383,11.98062010,57.68859417,11.98062017,16:20:10.781480,0.00827,10.71224,1.25028,-0.07382,0.02050,0.03332,0.00728,-0.00724,0.04246,-0.06588,0.86785,2.95098,1.25025,1.82272,1.82880,-0.92535,2.53913,2.87717,-0.92126,2.57602,1.57080,1.57080,A,162010.60
2.96711,57.68859394,11.98062006,57.68859417,11.98062017,16:20:10.793400,0.00847,10.71224,1.25028,-0.07386,0.02050,0.02355,0.00469,0.00100,-0.03691,-0.05520,0.93910,2.96135,1.25026,1.78419,1.79027,-0.92774,2.55080,2.87717,-0.92126,2.57602,1.57080,1.57080,A,162010.60
2.99653,57.68859408,11.98062001,57.68859533,11.98061883,16:20:10.821489,0.02598,10.71224,1.25028,-0.07356,0.02050,0.02630,0.01217,0.01292,0.01720,-0.04246,0.96337,2.97570,1.25026,1.75151,1.75760,-0.93060,2.56632,2.99250,-1.00051,2.70574,2.11918,2.11918,A,162010.70
3.00845,57.68859440,11.98061986,57.68859533,11.98061883,16:20:10.833411,0.00622,1.42697,1.42697,-0.07185,0.02050,0.02065,0.01171,0.01444,0.01604,0.04282,1.10148,3.00191,1.28560,1.80623,1.81231,-0.93943,2.60152,2.99250,-1.00051,2.70574,2.11918,2.11918,A,162010.70
3.01831,57.68859453,11.98061977,57.68859533,11.98061883,16:20:10.843274,0.00532,1.42697,1.42697,-0.07074,0.02050,0.02966,0.00560,0.00360,-0.00189,0.01873,1.17761,3.01251,1.31388,1.85242,1.85850,-0.94475,2.61595,2.99250,-1.00051,2.70574,2.11918,2.11918,A,162010.70
3.02996,57.68859466,11.98061967,57.68859533,11.98061883,16:20:10.854928,0.00657,1.42697,1.42697,-0.07021,0.02050,0.02905,0.00454,-0.00342,0.02580,-0.02422,1.14332,3.02303,1.33650,1.89170,1.89778,-0.95053,2.63054,2.99250,-1.00051,2.70574,2.11918,2.11918,A,162010.70
3.03929,57.68859477,11.98061958,57.68859533,11.98061883,16:20:10.864277,0.00551,1.42697,1.42697,-0.06987,0.02050,0.02294,0.00576,-0.00174,0.02098,-0.02983,1.05798,3.03319,1.35459,1.92505,1.93114,-0.95586,2.64266,2.99250,-1.00051,2.70574,2.11918,2.11918,A,162010.70
3.04969,57.68859489,11.98061948,57.68859533,11.98061883,16:20:10.874654,0.00552,1.42697,1.42697,-0.07035,0.02050,0.02095,-0.00188,-0.00587,0.03300,-0.07277,0.89402,3.04390,1.36907,1.95345,1.95953,-0.96203,2.65626,2.99250,-1.00051,2.70574,2.11918,2.11918,A,162010.70
3.05967,57.68859500,11.98061938,57.68859533,11.98061883,16:20:10.884635,0.00510,1.42697,1.42697,-0.07035,0.02050,0.01958,-0.01807,0.00223,0.03099,-0.04008,0.82991,3.05418,1.38065,1.97757,1.98366,-0.96800,2.66861,2.99250,-1.00051,2.70574,2.11918,2.11918,A,162010.70
3.07035,57.68859511,11.98061928,57.68859533,11.98061883,16:20:10.896179,0.00524,1.42697,1.42697,-0.07116,0.02050,0.02324,-0.03242,0.00681,0.00836,-0.08009,0.76842,3.06457,1.38991,1.99809,2.00417,-0.97415,2.68079,2.99250,-1.00051,2.70574,2.11918,2.11918,A,162010.70
3.08121,57.68859522,11.98061917,57.68859533,11.98061883,16:20:10.906178,0.00555,1.42697,1.42697,-0.07092,0.02050,0.02263,-0.02952,0.01612,-0.03111,-0.03038,0.84363,3.07546,1.39732,2.01554,2.02162,-0.98036,2.69261,2.99250,-1.00051,2.70574,2.11918,2.11918,A,162010.70
3.09115,57.68859531,11.98061908,57.68859533,11.98061883,16:20:10.916112,0.00510,1.42697,1.42697,-0.07069,0.02050,0.02553,-0.01715,0.01597,-0.07710,-0.03691,0.97807,3.08546,1.40325,2.03035,2.03644,-0.98612,2.70309,2.99250,-1.00051,2.70574,2.11918,2.11918,A,162010.70
3.12821,57.68859540,11.98061898,57.68859783,11.98061633,16:20:10.953175,0.03175,1.42697,1.42697,-0.07052,0.02050,0.03302,0.00744,0.01903,-0.02769,-0.05155,1.08379,3.09609,1.40800,2.04296,2.04904,-0.99201,2.71352,3.12384,-1.14910,2.98373,2.06168,2.06168,A,162010.90
3.13835,57.68859589,11.98061849,57.68859783,11.98061633,16:20:10.963309,0.00532,1.42697,1.42697,-0.06920,0.02050,0.02706,0.00988,0.00253,0.05771,-0.01342,1.05011,3.13255,1.41179,2.04562,2.05171,-1.02105,2.76789,3.12384,-1.14910,2.98373,2.06168,2.06168,A,162010.90
3.14855,57.68859608,11.98061829,57.68859783,11.98061633,16:20:10.973520,0.00512,1.42697,1.42697,-0.06835,0.02052,0.02844,-0.00722,0.00024,-0.03404,0.00256,1.03255,3.14308,1.41483,2.04731,2.05340,-1.03268,2.78871,3.12384,-1.14910,2.98373,2.06168,2.06168,A,162010.90
3.15896,57.68859626,11.98061811,57.68859783,11.98061633,16:20:10.983929,0.00514,1.42697,1.42697,-0.06760,0.02061,0.03775,-0.00127,-0.00113,-0.01092,-0.00903,0.99570,3.15325,1.41726,2.04873,2.05485,-1.04374,2.80845,3.12384,-1.14910,2.98373,2.06168,2.06168,A,162010.90
3.16964,57.68859643,11.98061793,57.68859783,11.98061633,16:20:10.994599,0.00541,1.42697,1.42697,-0.06788,0.02084,0.04081,-0.01119,0.00299,0.10089,-0.07003,0.88023,3.16388,1.41920,2.04994,2.05613,-1.05441,2.82749,3.12384,-1.14910,2.98373,2.06168,2.06168,A,162010.90
3.17977,57.68859659,11.98061776,57.68859783,11.98061633,16:20:11.005111,0.00531,1.42697,1.42697,-0.06827,0.02115,0.04493,-0.03425,0.00879,0.08619,-0.07405,0.83228,3.17425,1.42075,2.05095,2.05723,-1.06439,2.84525,3.12384,-1.14910,2.98373,2.06168,2.06168,A,162010.90
3.19021,57.68859674,11.98061760,57.68859783,11.98061633,16:20:11.015175,0.00530,1.42697,1.42697,-0.06768,0.02154,0.04340,-0.03914,0.01292,-0.10254,-0.02092,0.94245,3.18443,1.42200,2.05180,2.05819,-1.07390,2.86215,3.12384,-1.14910,2.98373,2.06168,2.06168,A,162010.90
3.20045,57.68859689,11.98061745,57.68859783,11.98061633,16:20:11.025406,0.00514,1.42697,1.42697,-0.06728,0.02188,0.04508,-0.00875,0.01597,-0.04807,-0.03605,0.95654,3.19499,1.42299,2.05251,2.05900,-1.08302,2.87834,3.12384,-1.14910,2.98373,2.06168,2.06168,A,162010.90
3.21084,57.68859702,11.98061730,57.68859783,11.98061633,16:20:11.035802,0.00530,1.42697,1.42697,-0.06752,0.02205,0.04126,-0.01333,0.02345,0.03245,-0.06875,0.91970,3.20501,1.42379,2.05310,2.05965,-1.09157,2.89349,3.12384,-1.14910,2.98373,2.06168,2.06168,A,162010.90
3.22204,57.68859716,11.98061716,57.68859783,11.98061633,16:20:11.047016,0.00585,1.42697,1.42697,-0.06697,0.02208,0.02935,-0.01700,0.02116,0.03861,-0.01677,0.99186,3.21592,1.42442,2.05362,2.06017,-1.10002,2.90849,3.12384,-1.14910,2.98373,2.06168,2.06168,A,162010.90
3.24811,57.68859728,11.98061703,57.68859917,11.98061550,16:20:11.073078,0.02152,1.42697,1.42697,-0.06603,0.02208,0.03027,-0.02983,0.02376,-0.03453,0.00988,1.04139,3.22661,1.42493,2.05405,2.06061,-1.10796,2.92254,3.24402,-1.19863,3.13199,1.89321,1.89321,A,162011.00
3.25823,57.68859764,11.98061669,57.68859917,11.98061550,16:20:11.083195,0.00533,1.42697,1.42697,-0.06530,0.02208,0.03149,-0.01440,0.00162,-0.07448,-0.03941,1.09812,3.25241,1.42534,2.02953,2.03609,-1.12779,2.96170,3.24402,-1.19863,3.13199,1.89321,1.89321,A,162011.00
3.26842,57.68859780,11.98061655,57.68859917,11.98061550,16:20:11.093381,0.00513,1.42697,1.42697,-0.06502,0.02208,0.02462,-0.00921,-0.00510,0.00695,-0.03001,1.03724,3.26295,1.42567,2.00831,2.01486,-1.13645,2.98042,3.24402,-1.19863,3.13199,1.89321,1.89321,A,162011.00
3.27871,57.68859796,11.98061641,57.68859917,11.98061550,16:20:11.103676,0.00519,1.42697,1.42697,-0.06514,0.02208,0.01255,-0.02372,-0.01305,0.11541,-0.04569,0.98552,3.27297,1.42593,1.99026,1.99682,-1.14436,2.99809,3.24402,-1.19863,3.13199,1.89321,1.89321,A,162011.00
3.29008,57.68859812,11.98061628,57.68859917,11.98061550,16:20:11.115047,0.00589,1.42697,1.42697,-0.06461,0.02208,0.01637,-0.03700,-0.00953,-0.01269,-0.00610,0.96984,3.28392,1.42614,1.97494,1.98149,-1.15206,3.01578,3.24402,-1.19863,3.13199,1.89321,1.89321,A,162011.00
3.29969,57.68859826,11.98061617,57.68859917,11.98061550,16:20:11.124653,0.00510,1.42697,1.42697,-0.06403,0.02208,0.02783,-0.03639,-0.00159,-0.05124,-0.00952,0.98057,3.29422,1.42630,1.96189,1.96844,-1.15864,3.03135,3.24402,-1.19863,3.13199,1.89321,1.89321,A,162011.00
3.31037,57.68859840,11.98061606,57.68859917,11.98061550,16:20:11.135533,0.00523,1.42697,1.42697,-0.06415,0.02208,0.02615,-0.02387,0.00498,-0.10803,-0.05722,1.04944,3.30460,1.42644,1.95082,1.95737,-1.16516,3.04713,3.24402,-1.19863,3.13199,1.89321,1.89321,A,162011.00
3.32168,57.68859854,11.98061596,57.68859917,11.98061550,16:20:11.146651,0.00615,1.42697,1.42697,-0.06470,0.02208,0.02508,-0.00096,0.01017,0.01354,-0.08595,1.02754,3.31517,1.42654,1.94140,1.94795,-1.17117,3.06203,3.24402,-1.19863,3.13199,1.89321,1.89321,A,162011.00
3.33108,57.68859865,11.98061588,57.68859917,11.98061550,16:20:11.156044,0.00515,1.42697,1.42697,-0.06547,0.02208,0.02783,0.00408,0.01261,0.01623,-0.10218,1.02218,3.32536,1.42663,1.93337,1.93992,-1.17623,3.07484,3.24402,-1.19863,3.13199,1.89321,1.89321,A,162011.00
3.34205,57.68859878,11.98061579,57.68859917,11.98061550,16:20:11.167010,0.00572,1.42697,1.42697,-0.06518,0.02208,0.02141,0.00209,0.01643,0.10760,-0.02519,0.96429,3.33599,1.42670,1.92657,1.93313,-1.18156,3.08858,3.24402,-1.19863,3.13199,1.89321,1.89321,A,162011.00
3.36732,57.68859889,11.98061571,57.68860067,11.98061417,16:20:11.192280,0.02059,1.42697,1.42697,-0.06473,0.02208,0.01316,-0.00310,0.01276,-0.00458,-0.00860,1.00260,3.34635,1.42675,1.92078,1.92734,-1.18626,3.10090,3.36382,-1.27787,3.29878,2.01435,2.01435,A,162011.10
3.37792,57.68859925,11.98061544,57.68860067,11.98061417,16:20:11.202882,0.00559,1.42697,1.42697,-0.06438,0.02208,0.00950,-0.00066,-0.00571,-0.03209,-0.02324,1.03145,3.37210,1.42680,1.93442,1.94098,-1.20219,3.14126,3.36382,-1.27787,3.29878,2.01435,2.01435,A,162011.10
3.38783,57.68859941,11.98061531,57.68860067,11.98061417,16:20:11.212792,0.00510,1.42697,1.42697,-0.06425,0.02208,0.00385,-0.00936,-0.00739,0.07899,-0.02227,0.94843,3.38235,1.42683,1.94563,1.95218,-1.20997,3.15943,3.36382,-1.27787,3.29878,2.01435,2.01435,A,162011.10
3.39856,57.68859957,11.98061518,57.68860067,11.98061417,16:20:11.223528,0.00537,1.42697,1.42697,-0.06379,0.02208,-0.00318,-0.02570,-0.01534,0.12840,0.00415,0.91805,3.39264,1.42686,1.95516,1.96171,-1.21765,3.17710,3.36382,-1.27787,3.29878,2.01435,2.01435,A,162011.10
3.40897,57.68859972,11.98061506,57.68860067,11.98061417,16:20:11.233946,0.00538,1.42697,1.42697,-0.06366,0.02208,-0.01310,-0.03487,-0.01305,-0.02037,-0.01128,0.99186,3.40324,1.42688,1.96326,1.96982,-1.22500,3.19370,3.36382,-1.27787,3.29878,2.01435,2.01435,A,162011.10
3.41911,57.68859986,11.98061494,57.68860067,11.98061417,16:20:11.244078,0.00513,1.42697,1.42697,-0.06394,0.02208,-0.01463,-0.03074,-0.01534,-0.02977,-0.03843,1.02047,3.41341,1.42690,1.97015,1.97670,-1.23205,3.20942,3.36382,-1.27787,3.29878,2.01435,2.01435,A,162011.10
3.43165,57.68860002,11.98061480,57.68860067,11.98061417,16:20:11.256613,0.00727,1.42697,1.42697,-0.06514,0.02208,-0.02059,-0.01119,-0.00724,-0.00049,-0.09156,0.99723,3.42613,1.42691,1.97606,1.98261,-1.24009,3.22725,3.36382,-1.27787,3.29878,2.01435,2.01435,A,162011.10
3.43981,57.68860013,11.98061471,57.68860067,11.98061417,16:20:11.264779,0.00504,1.42697,1.42697,-0.06561,0.02208,-0.02288,-0.00753,-0.00205,0.06069,-0.04862,1.00046,3.43436,1.42693,1.98097,1.98753,-1.24546,3.23879,3.36382,-1.27787,3.29878,2.01435,2.01435,A,162011.10
3.45036,57.68860025,11.98061461,57.68860067,11.98061417,16:20:11.275326,0.00517,1.42697,1.42697,-0.06618,0.02208,-0.02456,-0.00677,-0.00068,0.10315,-0.05215,1.00107,3.44462,1.42693,1.98520,1.99176,-1.25174,3.25233,3.36382,-1.27787,3.29878,2.01435,2.01435,A,162011.10
3.46068,57.68860036,11.98061450,57.68860067,11.98061417,16:20:11.286031,0.00509,1.42697,1.42697,-0.06609,0.02208,-0.02837,-0.01868,0.00482,-0.04764,-0.00610,1.05707,3.45522,1.42694,1.98880,1.99536,-1.25779,3.26523,3.36382,-1.27787,3.29878,2.01435,2.01435,A,162011.10
3.48680,57.68860047,11.98061441,57.68860217,11.98061350,16:20:11.311769,0.02081,1.57338,1.57338,-0.06637,0.02208,-0.03082,-0.00448,0.00452,-0.13493,-0.03056,1.05914,3.46541,1.45623,1.99186,1.99841,-1.26348,3.27729,3.48224,-1.31750,3.46558,1.80404,1.80404,A,162011.20
3.49669,57.68860083,11.98061413,57.68860217,11.98061350,16:20:11.321908,0.00519,1.57338,1.57338,-0.06825,0.02208,-0.04899,0.02286,-0.01473,0.02769,-0.06924,0.95380,3.49121,1.47966,1.96330,1.96985,-1.27985,3.31669,3.48224,-1.31750,3.46558,1.80404,1.80404,A,162011.20
3.50706,57.68860099,11.98061403,57.68860217,11.98061350,16:20:11.332023,0.00516,1.57338,1.57338,-0.06897,0.02208,-0.06396,0.00805,-0.02007,0.09437,-0.03422,0.91915,3.50130,1.49840,1.93863,1.94519,-1.28626,3.33487,3.48224,-1.31750,3.46558,1.80404,1.80404,A,162011.20
3.51784,57.68860115,11.98061392,57.68860217,11.98061350,16:20:11.342810,0.00555,1.57338,1.57338,-0.06939,0.02208,-0.06503,0.00041,-0.02694,-0.03379,-0.01501,0.97466,3.51192,1.51340,1.91768,1.92424,-1.29228,3.35274,3.48224,-1.31750,3.46558,1.80404,1.80404,A,162011.20
3.53042,57.68860132,11.98061382,57.68860217,11.98061350,16:20:11.355387,0.00773,1.57338,1.57338,-0.07032,0.02208,-0.07022,-0.00478,-0.02358,-0.01824,-0.04124,0.96966,3.52352,1.52539,1.89990,1.90645,-1.29821,3.37105,3.48224,-1.31750,3.46558,1.80404,1.80404,A,162011.20
3.53838,57.68860143,11.98061376,57.68860217,11.98061350,16:20:11.363345,0.00520,1.57338,1.57338,-0.07117,0.02208,-0.06991,-0.00157,-0.02480,-0.08162,-0.04886,1.00284,3.53263,1.53499,1.88469,1.89124,-1.30200,3.38388,3.48224,-1.31750,3.46558,1.80404,1.80404,A,162011.20
3.54868,57.68860157,11.98061368,57.68860217,11.98061350,16:20:11.373890,0.00510,1.57338,1.57338,-0.07188,0.02208,-0.07144,0.00392,-0.01915,-0.00183,-0.03251,0.98600,3.54322,1.54267,1.87183,1.87839,-1.30670,3.39978,3.48224,-1.31750,3.46558,1.80404,1.80404,A,162011.20
3.55917,57.68860171,11.98061361,57.68860217,11.98061350,16:20:11.384134,0.00519,1.57338,1.57338,-0.07238,0.02208,-0.07633,-0.00753,-0.01014,-0.00287,-0.01897,1.02346,3.55340,1.54881,1.86090,1.86746,-1.31096,3.41480,3.48224,-1.31750,3.46558,1.80404,1.80404,A,162011.20
3.56993,57.68860184,11.98061354,57.68860217,11.98061350,16:20:11.394893,0.00555,1.57338,1.57338,-0.07273,0.02208,-0.07251,0.00224,0.00085,-0.01543,-0.00921,1.02059,3.56417,1.55372,1.85162,1.85817,-1.31503,3.42957,3.48224,-1.31750,3.46558,1.80404,1.80404,A,162011.20
3.57982,57.68860196,11.98061348,57.68860217,11.98061350,16:20:11.404791,0.00505,1.57338,1.57338,-0.07305,0.02208,-0.06732,0.00957,0.00772,0.00415,-0.01354,1.03108,3.57437,1.55765,1.84372,1.85027,-1.31856,3.44289,3.48224,-1.31750,3.46558,1.80404,1.80404,A,162011.20
3.60637,57.68860208,11.98061342,57.68860333,11.98061283,16:20:11.431336,0.02118,1.57338,1.57338,-0.07373,0.02208,-0.06625,0.01706,0.00467,0.00104,-0.03739,0.98808,3.58463,1.56080,1.83701,1.84356,-1.32197,3.45609,3.60154,-1.35712,3.59530,1.86724,1.86724,A,162011.30
3.61636,57.68860246,11.98061323,57.68860333,11.98061283,16:20:11.441322,0.00518,1.57338,1.57338,-0.07530,0.02208,-0.06503,0.02790,-0.00846,0.07741,-0.02861,0.96026,3.61089,1.56332,1.84121,1.84776,-1.33340,3.49764,3.60154,-1.35712,3.59530,1.86724,1.86724,A,162011.30
3.62790,57.68860262,11.98061315,57.68860333,11.98061283,16:20:11.452865,0.00649,1.57338,1.57338,-0.07556,0.02208,-0.05770,0.01309,-0.01641,-0.01958,-0.01580,1.00973,3.62185,1.56533,1.84438,1.85093,-1.33833,3.51569,3.60154,-1.35712,3.59530,1.86724,1.86724,A,162011.30
3.63765,57.68860275,11.98061308,57.68860333,11.98061283,16:20:11.462612,0.00599,1.57338,1.57338,-0.07635,0.02208,-0.05663,0.01920,-0.02083,0.07180,-0.05014,0.92543,3.63186,1.56694,1.84703,1.85358,-1.34243,3.53065,3.60154,-1.35712,3.59530,1.86724,1.86724,A,162011.30
3.64734,57.68860288,11.98061301,57.68860333,11.98061283,16:20:11.472306,0.00529,1.57338,1.57338,-0.07758,0.02208,-0.05220,0.00301,-0.01595,0.09851,-0.07613,0.85668,3.64186,1.56823,1.84929,1.85584,-1.34646,3.54522,3.60154,-1.35712,3.59530,1.86724,1.86724,A,162011.30
3.65784,57.68860301,11.98061294,57.68860333,11.98061283,16:20:11.482800,0.00539,1.57338,1.57338,-0.07847,0.02208,-0.05327,-0.00356,-0.01137,0.06954,-0.05703,0.88230,3.65206,1.56926,1.85122,1.85778,-1.35052,3.55977,3.60154,-1.35712,3.59530,1.86724,1.86724,A,162011.30
3.66813,57.68860314,11.98061288,57.68860333,11.98061283,16:20:11.493085,0.00528,1.57338,1.57338,-0.07908,0.02208,-0.05739,-0.01196,-0.00327,-0.02959,-0.03983,0.93178,3.66264,1.57008,1.85287,1.85943,-1.35444,3.57370,3.60154,-1.35712,3.59530,1.86724,1.86724,A,162011.30
3.67839,57.68860325,11.98061282,57.68860333,11.98061283,16:20:11.503353,0.00519,1.57338,1.57338,-0.07916,0.02208,-0.04426,0.00438,0.00635,-0.08876,-0.02001,1.02144,3.67264,1.57074,1.85426,1.86082,-1.35805,3.58651,3.60154,-1.35712,3.59530,1.86724,1.86724,A,162011.30
3.68902,57.68860337,11.98061276,57.68860333,11.98061283,16:20:11.513996,0.00543,1.57338,1.57338,-0.07959,0.02208,-0.03555,0.03737,0.01460,-0.08638,-0.05106,1.07891,3.68331,1.57127,1.85546,1.86201,-1.36169,3.59928,3.60154,-1.35712,3.59530,1.86724,1.86724,A,162011.30
3.69909,57.68860347,11.98061270,57.68860333,11.98061283,16:20:11.524052,0.00510,1.57338,1.57338,-0.08045,0.02208,-0.04349,0.05264,0.01796,-0.00586,-0.07723,1.06067,3.69340,1.57169,1.85647,1.86302,-1.36502,3.61097,3.60154,-1.35712,3.59530,1.86724,1.86724,A,162011.30
3.73588,57.68860358,11.98061264,57.68860583,11.98061017,16:20:11.560850,0.03150,1.57338,1.57338,-0.08104,0.02208,-0.04838,0.05875,0.01521,0.07619,-0.05124,1.01693,3.70401,1.57203,1.85733,1.86389,-1.36833,3.62250,3.73149,-1.51562,3.87329,2.08898,2.08898,A,162011.50
3.74663,57.68860413,11.98061227,57.68860583,11.98061017,16:20:11.571589,0.00616,1.57338,1.57338,-0.08170,0.02208,-0.04746,0.00576,-0.01747,-0.03489,0.02586,1.09251,3.74040,1.57230,1.89202,1.89858,-1.39051,3.68411,3.73149,-1.51562,3.87329,2.08898,2.08898,A,162011.50
3.75593,57.68860431,11.98061211,57.68860583,11.98061017,16:20:11.580899,0.00508,1.57338,1.57338,-0.08224,0.02208,-0.04074,0.01095,-0.01717,-0.06435,-0.06283,1.13442,3.75046,1.57251,1.92078,1.92734,-1.40039,3.70425,3.73149,-1.51562,3.87329,2.08898,2.08898,A,162011.50
3.76640,57.68860449,11.98061193,57.68860583,11.98061017,16:20:11.591368,0.00521,1.57338,1.57338,-0.08325,0.02208,-0.04135,0.02561,-0.01167,0.04752,-0.09370,1.08647,3.76063,1.57269,1.94526,1.95181,-1.41053,3.72445,3.73149,-1.51562,3.87329,2.08898,2.08898,A,162011.50
3.77668,57.68860467,11.98061177,57.68860583,11.98061017,16:20:11.601889,0.00509,1.57338,1.57338,-0.08423,0.02208,-0.04380,0.03294,-0.00404,0.05350,-0.08259,0.99845,3.77122,1.57282,1.96606,1.97262,-1.42051,3.74370,3.73149,-1.51562,3.87329,2.08898,2.08898,A,162011.50
3.78723,57.68860483,11.98061160,57.68860583,11.98061017,16:20:11.612200,0.00524,1.57338,1.57338,-0.08452,0.02208,-0.04197,0.02637,0.01353,-0.06832,-0.03751,0.94928,3.78139,1.57294,1.98374,1.99030,-1.43018,3.76172,3.73149,-1.51562,3.87329,2.08898,2.08898,A,162011.50
3.79844,57.68860499,11.98061144,57.68860583,11.98061017,16:20:11.623407,0.00605,1.57338,1.57338,-0.08370,0.02208,-0.03372,0.04088,0.02758,-0.05911,0.02861,0.95508,3.79203,1.57302,1.99879,2.00534,-1.43988,3.77948,3.73149,-1.51562,3.87329,2.08898,2.08898,A,162011.50
3.81029,57.68860515,11.98061127,57.68860583,11.98061017,16:20:11.635256,0.00751,1.57338,1.57338,-0.08431,0.02208,-0.02089,0.04607,0.03307,-0.11431,-0.06917,0.96850,3.80443,1.57309,2.01159,2.01815,-1.44977,3.79733,3.73149,-1.51562,3.87329,2.08898,2.08898,A,162011.50
3.81844,57.68860526,11.98061115,57.68860583,11.98061017,16:20:11.643405,0.00519,1.57338,1.57338,-0.08454,0.02211,-0.01463,0.06211,0.03338,0.04947,-0.05179,0.93092,3.81270,1.57315,2.02238,2.02895,-1.45702,3.80937,3.73149,-1.51562,3.87329,2.08898,2.08898,A,162011.50
3.82923,57.68860539,11.98061101,57.68860583,11.98061017,16:20:11.654224,0.00508,1.57338,1.57338,-0.08483,0.02214,-0.00776,0.02653,0.03567,0.24083,-0.05441,0.88487,3.82327,1.57320,2.03162,2.03819,-1.46559,3.82400,3.73149,-1.51562,3.87329,2.08898,2.08898,A,162011.50
3.86097,57.68860553,11.98061086,57.68860717,11.98060883,16:20:11.685952,0.02693,1.57338,1.57338,-0.08506,0.02225,-0.01356,-0.01119,0.02055,-0.03337,-0.05960,1.08647,3.83463,1.57323,2.03949,2.04610,-1.47455,3.83926,3.85739,-1.59487,4.02155,2.06168,2.06168,A,162011.60
3.87220,57.68860597,11.98061041,57.68860717,11.98060883,16:20:11.697157,0.00525,1.88011,1.88011,-0.08631,0.02375,-0.01845,0.06471,0.00116,0.11663,-0.09193,1.00772,3.86669,1.63461,2.04258,2.04963,-1.50127,3.88860,3.85739,-1.59487,4.02155,2.06168,2.06168,A,162011.60
3.88281,57.68860614,11.98061023,57.68860717,11.98060883,16:20:11.707776,0.00534,1.88011,1.88011,-0.08651,0.02480,-0.02639,0.02683,0.00391,0.23326,-0.03904,0.91994,3.87703,1.68371,2.04460,2.05196,-1.51205,3.90701,3.85739,-1.59487,4.02155,2.06168,2.06168,A,162011.60
3.89320,57.68860630,11.98061005,57.68860717,11.98060883,16:20:11.718168,0.00533,1.88011,1.88011,-0.08575,0.02604,-0.01570,-0.01364,0.01124,0.09229,0.01354,0.85803,3.88751,1.72299,2.04628,2.05401,-1.52241,3.92465,3.85739,-1.59487,4.02155,2.06168,2.06168,A,162011.60
3.90435,57.68860646,11.98060987,57.68860717,11.98060883,16:20:11.729314,0.00608,1.88011,1.88011,-0.08538,0.02720,-0.00241,-0.03639,0.02193,-0.07046,-0.01659,0.87132,3.89788,1.75441,2.04769,2.05577,-1.53300,3.94278,3.85739,-1.59487,4.02155,2.06168,2.06168,A,162011.60
3.91758,57.68860663,11.98060969,57.68860717,11.98060883,16:20:11.742552,0.00891,1.88011,1.88011,-0.08614,0.02831,0.01576,0.01187,0.02238,-0.19746,-0.10773,0.99149,3.90958,1.77955,2.04890,2.05731,-1.54390,3.96151,3.85739,-1.59487,4.02155,2.06168,2.06168,A,162011.60
3.92418,57.68860672,11.98060958,57.68860717,11.98060883,16:20:11.749147,0.00532,1.88011,1.88011,-0.08683,0.02887,0.01836,0.04470,0.02712,-0.07973,-0.10022,0.97344,3.91871,1.79966,2.04972,2.05830,-1.55029,3.97179,3.85739,-1.59487,4.02155,2.06168,2.06168,A,162011.60
3.93572,57.68860685,11.98060944,57.68860717,11.98060883,16:20:11.760690,0.00651,1.88011,1.88011,-0.08692,0.02927,0.00690,0.04959,0.03384,0.11181,-0.05655,0.98472,3.92865,1.81575,2.05054,2.05923,-1.55905,3.98660,3.85739,-1.59487,4.02155,2.06168,2.06168,A,162011.60
3.94651,57.68860697,11.98060931,57.68860717,11.98060883,16:20:11.771480,0.00708,1.88011,1.88011,-0.08637,0.02935,0.00522,0.02973,0.03521,0.06051,-0.01446,1.05079,3.93931,1.82863,2.05121,2.05992,-1.56677,3.99949,3.85739,-1.59487,4.02155,2.06168,2.06168,A,162011.60
3.97526,57.68860710,11.98060916,57.68860850,11.98060900,16:20:11.800976,0.02543,1.88011,1.88011,-0.08589,0.02935,0.00079,0.01095,0.03262,-0.16507,-0.01763,1.10739,3.95140,1.83892,2.05183,2.06055,-1.57522,4.01384,3.97085,-1.58496,4.16981,1.50408,1.50408,A,162011.70
3.98753,57.68860755,11.98060878,57.68860850,11.98060900,16:20:11.812496,0.00524,1.88011,1.88011,-0.08516,0.02958,0.01836,0.03279,0.01658,0.21765,-0.03404,1.00601,3.98202,1.84716,1.96950,1.97828,-1.59824,4.06391,3.97085,-1.58496,4.16981,1.50408,1.50408,A,162011.70
3.99805,57.68860772,11.98060869,57.68860850,11.98060900,16:20:11.823020,0.00537,1.88011,1.88011,-0.08555,0.02998,0.01515,-0.00493,0.01307,0.18940,-0.07241,0.90603,3.99230,1.85375,1.89871,1.90761,-1.60346,4.08284,3.97085,-1.58496,4.16981,1.50408,1.50408,A,162011.70
4.00977,57.68860790,11.98060861,57.68860850,11.98060900,16:20:11.834738,0.00670,1.88011,1.88011,-0.08592,0.03080,0.01912,-0.02922,0.02574,-0.04319,-0.06838,0.82850,4.00397,1.85902,1.83856,1.84770,-1.60813,4.10316,3.97085,-1.58496,4.16981,1.50408,1.50408,A,162011.70
4.01852,57.68860803,11.98060858,57.68860850,11.98060900,16:20:11.843488,0.00521,1.88011,1.88011,-0.08569,0.03170,0.02752,-0.02387,0.03002,-0.19550,-0.04209,0.93159,4.01277,1.86324,1.78727,1.79669,-1.61020,4.11787,3.97085,-1.58496,4.16981,1.50408,1.50408,A,162011.70
4.02907,57.68860819,11.98060854,57.68860850,11.98060900,16:20:11.854036,0.00536,1.88011,1.88011,-0.08537,0.03292,0.03424,0.00515,0.03918,-0.25669,-0.04666,1.00253,4.02337,1.86661,1.74372,1.75349,-1.61233,4.13520,3.97085,-1.58496,4.16981,1.50408,1.50408,A,162011.70
4.04072,57.68860836,11.98060851,57.68860850,11.98060900,16:20:11.865931,0.00617,1.88011,1.88011,-0.08541,0.03422,0.04325,0.04577,0.04392,-0.01616,-0.08186,1.01943,4.03522,1.86931,1.70673,1.71689,-1.61421,4.15453,3.97085,-1.58496,4.16981,1.50408,1.50408,A,162011.70
4.05029,57.68860849,11.98060850,57.68860850,11.98060900,16:20:11.875250,0.00520,1.88011,1.88011,-0.08494,0.03513,0.04508,0.03157,0.04392,0.14933,-0.03959,0.99686,4.04452,1.87147,1.67514,1.68557,-1.61469,4.16847,3.97085,-1.58496,4.16981,1.50408,1.50408,A,162011.70
4.06056,57.68860862,11.98060850,57.68860850,11.98060900,16:20:11.885754,0.00508,1.88011,1.88011,-0.08423,0.03589,0.04310,0.00957,0.04850,0.07430,-0.02690,1.04737,4.05512,1.87320,1.64832,1.65898,-1.61494,4.18359,3.97085,-1.58496,4.16981,1.50408,1.50408,A,162011.70
4.08712,57.68860875,11.98060850,57.68861033,11.98060800,16:20:11.912094,0.02124,1.88011,1.88011,-0.08341,0.03640,0.04982,-0.00066,0.03827,-0.12499,-0.02391,1.09946,4.06529,1.87458,1.62550,1.63631,-1.61476,4.19782,4.08273,-1.64440,4.37367,1.85449,1.85449,A,162011.80
4.09743,57.68860922,11.98060843,57.68861033,11.98060800,16:20:11.922403,0.00549,1.88011,1.88011,-0.08236,0.03705,0.04279,0.05096,0.02177,0.09321,-0.04056,0.92598,4.09166,1.87569,1.65948,1.67048,-1.61905,4.24952,4.08273,-1.64440,4.37367,1.85449,1.85449,A,162011.80
4.10741,57.68860941,11.98060838,57.68861033,11.98060800,16:20:11.932366,0.00507,1.88011,1.88011,-0.08170,0.03734,0.05165,0.02576,0.02361,0.24888,-0.02416,0.84253,4.10194,1.87657,1.68753,1.69861,-1.62183,4.27079,4.08273,-1.64440,4.37367,1.85449,1.85449,A,162011.80
4.11828,57.68860959,11.98060833,57.68861033,11.98060800,16:20:11.943245,0.00555,1.88011,1.88011,-0.08136,0.03776,0.05027,-0.03624,0.02972,0.09119,-0.04032,0.84095,4.11235,1.87728,1.71136,1.72257,-1.62492,4.29120,4.08273,-1.64440,4.37367,1.85449,1.85449,A,162011.80
4.12821,57.68860976,11.98060827,57.68861033,11.98060800,16:20:11.953178,0.00509,1.88011,1.88011,-0.08089,0.03824,0.06112,-0.04052,0.03460,-0.21478,-0.04715,0.96575,4.12275,1.87785,1.73157,1.74293,-1.62810,4.30973,4.08273,-1.64440,4.37367,1.85449,1.85449,A,162011.80
4.13931,57.68860992,11.98060822,57.68861033,11.98060800,16:20:11.964278,0.00596,1.88011,1.88011,-0.08070,0.03867,0.06570,-0.00478,0.03689,-0.31421,-0.07436,1.07427,4.13281,1.87830,1.74875,1.76023,-1.63144,4.32748,4.08273,-1.64440,4.37367,1.85449,1.85449,A,162011.80
4.14928,57.68861006,11.98060816,57.68861033,11.98060800,16:20:11.974248,0.00538,1.88011,1.88011,-0.08041,0.03906,0.07333,0.05768,0.03689,-0.13316,-0.07942,1.11307,4.14357,1.87866,1.76332,1.77492,-1.63477,4.34376,4.08273,-1.64440,4.37367,1.85449,1.85449,A,162011.80
4.15938,57.68861021,11.98060810,57.68861033,11.98060800,16:20:11.984341,0.00509,1.88011,1.88011,-0.08016,0.03940,0.07135,0.07448,0.03842,0.19014,-0.06509,0.95343,4.15391,1.87895,1.77573,1.78743,-1.63835,4.36024,4.08273,-1.64440,4.37367,1.85449,1.85449,A,162011.80
4.17010,57.68861035,11.98060804,57.68861033,11.98060800,16:20:11.995066,0.00541,1.88011,1.88011,-0.07915,0.03960,0.06921,0.02225,0.04896,0.20832,-0.01482,0.93281,4.16432,1.87918,1.78628,1.79804,-1.64196,4.37595,4.08273,-1.64440,4.37367,1.85449,1.85449,A,162011.80
4.18018,57.68861048,11.98060798,57.68861033,11.98060800,16:20:12.005147,0.00510,1.88011,1.88011,-0.07815,0.03963,0.06723,-0.01043,0.04621,0.07131,-0.01409,0.97643,4.17473,1.87937,1.79522,1.80699,-1.64543,4.39032,4.08273,-1.64440,4.37367,1.85449,1.85449,A,162011.80
4.20605,57.68861061,11.98060792,57.68861183,11.98060733,16:20:12.031017,0.02074,1.88011,1.88011,-0.07730,0.03963,0.07120,-0.02723,0.04743,-0.14384,-0.03276,1.13417,4.18520,1.87952,1.80285,1.81462,-1.64902,4.40460,4.20261,-1.68402,4.54046,1.80404,1.80404,A,162011.90
4.21716,57.68861105,11.98060772,57.68861183,11.98060733,16:20:12.042129,0.00565,1.88011,1.88011,-0.07473,0.03963,0.07227,0.00286,0.02849,0.17775,0.01342,1.00131,4.21141,1.87964,1.80265,1.81442,-1.66107,4.45281,4.20261,-1.68402,4.54046,1.80404,1.80404,A,162011.90
4.22715,57.68861122,11.98060764,57.68861183,11.98060733,16:20:12.052116,0.00524,1.88011,1.88011,-0.07416,0.03963,0.08128,-0.03181,0.02865,0.18184,-0.04233,0.91555,4.22147,1.87973,1.80158,1.81335,-1.66586,4.47185,4.20261,-1.68402,4.54046,1.80404,1.80404,A,162011.90
4.23769,57.68861138,11.98060756,57.68861183,11.98060733,16:20:12.062660,0.00538,1.88011,1.88011,-0.07470,0.03963,0.08647,-0.05151,0.03491,-0.07601,-0.11712,0.92854,4.23194,1.87981,1.80067,1.81244,-1.67041,4.48997,4.20261,-1.68402,4.54046,1.80404,1.80404,A,162011.90
4.24797,57.68861153,11.98060749,57.68861183,11.98060733,16:20:12.072929,0.00541,1.88011,1.88011,-0.07452,0.03963,0.07196,-0.01150,0.03521,-0.29280,-0.06649,0.96624,4.24248,1.87987,1.79990,1.81167,-1.67471,4.50721,4.20261,-1.68402,4.54046,1.80404,1.80404,A,162011.90
4.25830,57.68861168,11.98060742,57.68861183,11.98060733,16:20:12.083263,0.00520,1.88011,1.88011,-0.07393,0.03963,0.07196,0.03523,0.04697,-0.23455,-0.03215,0.86010,4.25255,1.87992,1.79924,1.81101,-1.67871,4.52324,4.20261,-1.68402,4.54046,1.80404,1.80404,A,162011.90
4.26857,57.68861182,11.98060736,57.68861183,11.98060733,16:20:12.093772,0.00508,1.88011,1.88011,-0.07446,0.03963,0.06555,0.06272,0.03888,0.02440,-0.08497,0.78373,4.26312,1.87996,1.79869,1.81045,-1.68259,4.53888,4.20261,-1.68402,4.54046,1.80404,1.80404,A,162011.90
4.27998,57.68861195,11.98060730,57.68861183,11.98060733,16:20:12.104955,0.00609,1.88011,1.88011,-0.07364,0.03963,0.06219,0.03569,0.04422,0.19550,-0.01019,0.74408,4.27330,1.87999,1.79821,1.80998,-1.68623,4.55354,4.20261,-1.68402,4.54046,1.80404,1.80404,A,162011.90
4.28969,57.68861207,11.98060724,57.68861183,11.98060733,16:20:12.114654,0.00540,1.72287,1.72287,-0.07199,0.03963,0.06264,-0.01975,0.03643,0.13597,0.03129,0.88304,4.28394,1.84856,1.79777,1.80954,-1.68941,4.56640,4.20261,-1.68402,4.54046,1.80404,1.80404,A,162011.90
4.29975,57.68861218,11.98060719,57.68861183,11.98060733,16:20:12.124722,0.00507,1.72287,1.72287,-0.07012,0.03963,0.06860,-0.03303,0.02742,-0.02037,0.05148,1.10319,4.29429,1.82342,1.79742,1.80919,-1.69259,4.57928,4.20261,-1.68402,4.54046,1.80404,1.80404,A,162011.90
4.33650,57.68861229,11.98060714,57.68861533,11.98060433,16:20:12.161461,0.03131,1.72287,1.72287,-0.06943,0.03963,0.06127,-0.03196,0.02055,-0.30103,-0.03520,1.32437,4.30463,1.80331,1.79713,1.80889,-1.69567,4.59175,4.33319,-1.86233,4.92964,2.00042,2.00042,A,162012.10
4.34801,57.68861298,11.98060675,57.68861533,11.98060433,16:20:12.172973,0.00659,1.72287,1.72287,-0.06612,0.03963,0.04646,-0.05457,0.03582,0.01299,0.07314,0.94587,4.34250,1.78722,1.82784,1.83961,-1.71848,4.66829,4.33319,-1.86233,4.92964,2.00042,2.00042,A,162012.10
4.35715,57.68861321,11.98060658,57.68861533,11.98060433,16:20:12.182129,0.00533,1.72287,1.72287,-0.06529,0.03963,0.05776,-0.07152,0.03353,-0.13627,-0.00268,0.95209,4.35146,1.77435,1.85236,1.86412,-1.72889,4.69307,4.33319,-1.86233,4.92964,2.00042,2.00042,A,162012.10
4.36896,57.68861345,11.98060639,57.68861533,11.98060433,16:20:12.193949,0.00651,1.72287,1.72287,-0.06504,0.03963,0.06158,-0.04372,0.04270,-0.17910,-0.04575,0.91103,4.36249,1.76405,1.87331,1.88508,-1.74010,4.71991,4.33319,-1.86233,4.92964,2.00042,2.00042,A,162012.10
4.37798,57.68861364,11.98060622,57.68861533,11.98060433,16:20:12.202940,0.00536,1.72287,1.72287,-0.06457,0.03963,0.05974,-0.02234,0.04025,-0.19660,-0.02672,0.89841,4.37223,1.75582,1.89100,1.90277,-1.74995,4.74190,4.33319,-1.86233,4.92964,2.00042,2.00042,A,162012.10
4.38810,57.68861385,11.98060605,57.68861533,11.98060433,16:20:12.213064,0.00509,1.72287,1.72287,-0.06425,0.03963,0.05241,0.00957,0.03934,-0.00183,-0.03270,0.90201,4.38264,1.74923,1.90610,1.91787,-1.76011,4.76446,4.33319,-1.86233,4.92964,2.00042,2.00042,A,162012.10
4.39846,57.68861404,11.98060589,57.68861533,11.98060433,16:20:12.223431,0.00523,1.72287,1.72287,-0.06363,0.03963,0.04737,0.00362,0.04163,0.07759,-0.01025,0.88541,4.39269,1.74395,1.91893,1.93070,-1.76990,4.78566,4.33319,-1.86233,4.92964,2.00042,2.00042,A,162012.10
4.40895,57.68861422,11.98060573,57.68861533,11.98060433,16:20:12.233940,0.00510,1.72287,1.72287,-0.06227,0.03963,0.03729,-0.00585,0.04071,0.04502,0.04258,1.00473,4.40327,1.73974,1.92984,1.94161,-1.77948,4.80604,4.33319,-1.86233,4.92964,2.00042,2.00042,A,162012.10
4.41915,57.68861439,11.98060557,57.68861533,11.98060433,16:20:12.244306,0.00512,1.72287,1.72287,-0.06198,0.03963,0.03195,-0.00906,0.03445,-0.04685,-0.02440,1.04993,4.41346,1.73636,1.93911,1.95088,-1.78866,4.82517,4.33319,-1.86233,4.92964,2.00042,2.00042,A,162012.10
4.42982,57.68861456,11.98060542,57.68861533,11.98060433,16:20:12.254778,0.00539,1.72287,1.72287,-0.06173,0.03963,0.01897,-0.02188,0.02422,-0.07832,-0.01989,1.10062,4.42406,1.73366,1.94700,1.95877,-1.79761,4.84358,4.33319,-1.86233,4.92964,2.00042,2.00042,A,162012.10
4.45771,57.68861471,11.98060528,57.68861683,11.98060300,16:20:12.282681,0.02289,1.72287,1.72287,-0.06089,0.03963,0.00935,-0.01898,0.01124,-0.00372,0.03227,1.13423,4.43444,1.73150,1.95369,1.96546,-1.80603,4.86056,4.45362,-1.94158,5.09643,2.01435,2.01435,A,162012.20
4.47063,57.68861521,11.98060486,57.68861683,11.98060300,16:20:12.295605,0.00717,1.72287,1.72287,-0.06072,0.03963,0.02050,-0.06113,0.00406,-0.13115,-0.04709,0.96618,4.46480,1.72978,1.96255,1.97432,-1.83091,4.91581,4.45362,-1.94158,5.09643,2.01435,2.01435,A,162012.20
4.47899,57.68861538,11.98060470,57.68861683,11.98060300,16:20:12.303955,0.00513,1.72287,1.72287,-0.06124,0.03963,0.01866,-0.03380,0.00971,-0.24528,-0.06320,0.97832,4.47329,1.72839,1.96890,1.98066,-1.84055,4.93446,4.45362,-1.94158,5.09643,2.01435,2.01435,A,162012.20
4.48964,57.68861557,11.98060452,57.68861683,11.98060300,16:20:12.314606,0.00538,1.72287,1.72287,-0.06268,0.03963,0.01316,0.00408,0.01490,-0.15921,-0.10882,0.87596,4.48391,1.72729,1.97441,1.98617,-1.85124,4.95553,4.45362,-1.94158,5.09643,2.01435,2.01435,A,162012.20
4.49970,57.68861574,11.98060435,57.68861683,11.98060300,16:20:12.324670,0.00504,1.72287,1.72287,-0.06424,0.03960,-0.00516,0.00881,0.02162,0.05295,-0.09864,0.82088,4.49425,1.72640,1.97908,1.99084,-1.86125,4.97504,4.45362,-1.94158,5.09643,2.01435,2.01435,A,162012.20
4.51039,57.68861591,11.98060419,57.68861683,11.98060300,16:20:12.335354,0.00520,1.72287,1.72287,-0.06468,0.03946,-0.01448,-0.01654,0.03109,0.06710,-0.03148,0.79404,4.50463,1.72570,1.98307,1.99478,-1.87103,4.99402,4.45362,-1.94158,5.09643,2.01435,2.01435,A,162012.20
4.52113,57.68861607,11.98060403,57.68861683,11.98060300,16:20:12.346108,0.00554,1.72287,1.72287,-0.06371,0.03915,-0.00654,-0.06144,0.03323,0.08522,0.04288,0.92098,4.51522,1.72513,1.98647,1.99809,-1.88031,5.01188,4.45362,-1.94158,5.09643,2.01435,2.01435,A,162012.20
4.53111,57.68861622,11.98060389,57.68861683,11.98060300,16:20:12.356069,0.00512,1.72287,1.72287,-0.06274,0.03869,0.00003,-0.05625,0.03033,-0.18306,0.04605,1.11709,4.52540,1.72468,1.98936,2.00085,-1.88894,5.02833,4.45362,-1.94158,5.09643,2.01435,2.01435,A,162012.20
4.62971,57.68861658,11.98060356,57.68861833,11.98060117,16:20:12.454687,0.09333,1.72287,1.72287,-0.06298,0.03773,0.00645,0.03202,0.00772,0.07698,-0.05697,1.13747,4.55223,1.72432,1.99271,2.00392,-1.90854,5.06874,4.60579,-2.05054,5.26323,2.14949,2.14949,A,162012.30
4.67734,57.68861809,11.98060221,57.68861833,11.98060117,16:20:12.502334,0.03026,1.72287,1.72287,-0.06153,0.03742,0.01332,0.02576,0.02712,0.00701,-0.02422,1.00534,4.66445,1.72403,2.01991,2.03102,-1.98839,5.23579,4.60579,-2.05054,5.26323,2.14949,2.14949,A,162012.30
4.69987,57.68861843,11.98060185,57.68861833,11.98060117,16:20:12.524837,0.00883,1.90351,1.90351,-0.06178,0.03742,0.01118,-0.01272,0.00635,-0.09357,-0.05063,0.90792,4.69432,1.75992,2.03893,2.05004,-2.00968,5.27383,4.60579,-2.05054,5.26323,2.14949,2.14949,A,162012.30
4.73543,57.68861851,11.98060174,57.68862150,11.98059783,16:20:12.560428,0.03395,1.90351,1.90351,-0.06220,0.03742,0.00370,-0.00493,0.00284,-0.14439,-0.04599,0.95111,4.70256,1.78864,2.05418,2.06529,-2.01667,5.28283,4.73060,-2.24866,5.61534,2.08330,2.08330,A,162012.50
4.75298,57.68861923,11.98060097,57.68862150,11.98059783,16:20:12.577955,0.00794,1.90351,1.90351,-0.06182,0.03742,0.01118,-0.00921,0.01032,0.00988,-0.02928,1.09538,4.74666,1.81161,2.05908,2.07019,-2.06243,5.36280,4.73060,-2.24866,5.61534,2.08330,2.08330,A,162012.50
4.76054,57.68861942,11.98060073,57.68862150,11.98059783,16:20:12.585506,0.00511,1.90351,1.90351,-0.06207,0.03731,0.01103,-0.01058,0.01047,-0.03398,-0.04868,1.12984,4.75508,1.82999,2.06137,2.07245,-2.07672,5.38456,4.73060,-2.24866,5.61534,2.08330,2.08330,A,162012.50
4.77096,57.68861964,11.98060046,57.68862150,11.98059783,16:20:12.595925,0.00514,1.90351,1.90351,-0.06176,0.03700,0.00354,-0.00478,0.01231,-0.03788,-0.00262,1.09873,4.76525,1.84470,2.06346,2.07444,-2.09233,5.40889,4.73060,-2.24866,5.61534,2.08330,2.08330,A,162012.50
4.78162,57.68861986,11.98060021,57.68862150,11.98059783,16:20:12.606587,0.00540,1.90351,1.90351,-0.06216,0.03652,0.00828,-0.00493,0.00223,0.04837,-0.05411,1.04090,4.77588,1.85646,2.06526,2.07611,-2.10744,5.43244,4.73060,-2.24866,5.61534,2.08330,2.08330,A,162012.50
4.79183,57.68862005,11.98059997,57.68862150,11.98059783,16:20:12.616800,0.00528,1.90351,1.90351,-0.06206,0.03603,0.01286,-0.00860,0.00772,0.03215,-0.02135,0.99973,4.78634,1.86587,2.06681,2.07751,-2.12169,5.45458,4.73060,-2.24866,5.61534,2.08330,2.08330,A,162012.50
4.80229,57.68862024,11.98059974,57.68862150,11.98059783,16:20:12.627258,0.00519,1.90351,1.90351,-0.06202,0.03572,0.02202,-0.02448,0.01169,-0.01739,-0.02898,0.93123,4.79655,1.87340,2.06813,2.07874,-2.13527,5.47565,4.73060,-2.24866,5.61534,2.08330,2.08330,A,162012.50
4.81302,57.68862043,11.98059952,57.68862150,11.98059783,16:20:12.638000,0.00552,1.90351,1.90351,-0.06197,0.03558,0.02294,-0.02799,0.01704,-0.05508,-0.02769,0.89280,4.80715,1.87942,2.06927,2.07984,-2.14847,5.49617,4.73060,-2.24866,5.61534,2.08330,2.08330,A,162012.50
4.82315,57.68862060,11.98059931,57.68862150,11.98059783,16:20:12.648118,0.00524,1.90351,1.90351,-0.06191,0.03558,0.02813,-0.02570,0.02193,-0.00805,-0.02989,0.90585,4.81749,1.88424,2.07024,2.08080,-2.16096,5.51553,4.73060,-2.24866,5.61534,2.08330,2.08330,A,162012.50
4.85130,57.68862077,11.98059911,57.68862333,11.98059650,16:20:12.676276,0.02299,1.90351,1.90351,-0.06186,0.03558,0.03103,-0.02860,0.01918,-0.01909,-0.03483,0.94507,4.82794,1.88809,2.07106,2.08162,-2.17276,5.53377,4.84503,-2.32791,5.81920,1.94156,1.94156,A,162012.60
4.86669,57.68862132,11.98059853,57.68862333,11.98059650,16:20:12.691658,0.00711,1.90351,1.90351,-0.06032,0.03558,0.02309,-0.02005,0.00971,-0.09431,0.03593,1.10495,4.86046,1.89118,2.05164,2.06220,-2.20721,5.59568,4.84503,-2.32791,5.81920,1.94156,1.94156,A,162012.60
4.87509,57.68862152,11.98059834,57.68862333,11.98059650,16:20:12.700054,0.00512,1.90351,1.90351,-0.05989,0.03558,0.02844,-0.00264,0.00559,-0.07180,-0.00744,1.09422,4.86940,1.89364,2.03387,2.04444,-2.21869,5.61702,4.84503,-2.32791,5.81920,1.94156,1.94156,A,162012.60
4.88574,57.68862173,11.98059813,57.68862333,11.98059650,16:20:12.710706,0.00537,1.90351,1.90351,-0.05951,0.03558,0.02050,0.00179,0.00589,0.07771,-0.00549,0.97008,4.88000,1.89562,2.01889,2.02946,-2.23121,5.64090,4.84503,-2.32791,5.81920,1.94156,1.94156,A,162012.60
4.89583,57.68862193,11.98059793,57.68862333,11.98059650,16:20:12.720795,0.00506,1.90351,1.90351,-0.05854,0.03558,0.01301,-0.01746,0.00666,0.07838,0.03678,0.92940,4.89038,1.89720,2.00614,2.01671,-2.24268,5.66325,4.84503,-2.32791,5.81920,1.94156,1.94156,A,162012.60
4.90651,57.68862213,11.98059775,57.68862333,11.98059650,16:20:12.731481,0.00520,1.90351,1.90351,-0.05763,0.03558,0.00919,-0.03929,0.01063,-0.10852,0.03782,0.98881,4.90077,1.89846,1.99532,2.00589,-2.25365,5.68510,4.84503,-2.32791,5.81920,1.94156,1.94156,A,162012.60
4.91703,57.68862231,11.98059758,57.68862333,11.98059650,16:20:12.742003,0.00532,1.90351,1.90351,-0.05631,0.03558,0.01683,-0.02692,0.01704,-0.23638,0.06399,1.05658,4.91133,1.89947,1.98612,1.99669,-2.26384,5.70572,4.84503,-2.32791,5.81920,1.94156,1.94156,A,162012.60
4.92719,57.68862249,11.98059742,57.68862333,11.98059650,16:20:12.752152,0.00509,1.90351,1.90351,-0.05570,0.03558,0.02599,0.00560,0.01383,-0.15860,0.00897,1.17151,4.92152,1.90028,1.97831,1.98887,-2.27346,5.72555,4.84503,-2.32791,5.81920,1.94156,1.94156,A,162012.60
4.93786,57.68862266,11.98059726,57.68862333,11.98059650,16:20:12.762825,0.00536,1.90351,1.90351,-0.05675,0.03558,0.03348,0.03416,0.01841,0.04282,-0.10718,0.99869,4.93212,1.90092,1.97166,1.98223,-2.28251,5.74447,4.84503,-2.32791,5.81920,1.94156,1.94156,A,162012.60
4.96594,57.68862282,11.98059712,57.68862500,11.98059600,16:20:12.790916,0.02304,1.90351,1.90351,-0.05722,0.03558,0.02202,0.02347,0.01780,0.13170,-0.05569,0.93379,4.94259,1.90144,1.96602,1.97658,-2.29104,5.76254,4.95956,-2.35763,6.00453,1.72980,1.72980,A,162012.70
4.97931,57.68862337,11.98059671,57.68862500,11.98059600,16:20:12.804279,0.00718,1.90351,1.90351,-0.05718,0.03558,0.01637,-0.00020,0.01154,-0.16037,-0.04307,0.95703,4.97358,1.90186,1.93053,1.94110,-2.31519,5.82310,4.95956,-2.35763,6.00453,1.72980,1.72980,A,162012.70
4.98764,57.68862355,11.98059661,57.68862500,11.98059600,16:20:12.812604,0.00511,1.90351,1.90351,-0.05704,0.03558,0.01148,0.00469,0.00757,-0.10279,-0.01147,0.97704,4.98217,1.90219,1.89918,1.90975,-2.32160,5.84323,4.95956,-2.35763,6.00453,1.72980,1.72980,A,162012.70
4.99898,57.68862377,11.98059648,57.68862500,11.98059600,16:20:12.823943,0.00591,1.90351,1.90351,-0.05675,0.03558,0.01210,-0.00417,0.00207,0.06265,-0.00567,1.07689,4.99327,1.90245,1.87268,1.88325,-2.32901,5.86721,4.95956,-2.35763,6.00453,1.72980,1.72980,A,162012.70
5.00857,57.68862395,11.98059638,57.68862500,11.98059600,16:20:12.833905,0.00511,2.22431,2.22431,-0.05653,0.03558,0.01652,-0.01486,0.00345,0.08400,-0.00775,1.08653,5.00310,1.96682,1.85008,1.86064,-2.33479,5.88752,4.95956,-2.35763,6.00453,1.72980,1.72980,A,162012.70
5.02193,57.68862414,11.98059629,57.68862500,11.98059600,16:20:12.846927,0.00807,2.22431,2.22431,0.00000,0.03558,0.02645,-0.02433,0.00498,-0.11993,-0.00982,1.12222,5.01327,2.01832,1.83090,1.84147,-2.34040,5.90838,4.95956,-2.35763,6.00453,1.72980,1.72980,A,162012.70
5.03465,57.68862432,11.98059620,57.68862500,11.98059600,16:20:12.859618,0.01059,2.22431,2.22431,-0.00114,0.03558,0.02508,0.00851,0.00268,-0.17037,-0.05344,1.11148,5.02378,2.05952,1.81463,1.82519,0.02230,0.00000,4.95956,-2.35763,6.00453,1.72980,1.72980,A,162012.70
5.05455,57.68862468,11.98059603,57.68862500,11.98059600,16:20:12.880351,0.01132,2.22431,2.22431,-0.00237,0.03527,0.00782,0.01874,0.00742,-0.02971,-0.04215,0.90707,5.04499,2.09247,1.80142,1.81190,-2.35565,5.96894,4.95956,-2.35763,6.00453,1.72980,1.72980,A,162012.70
5.09117,57.68862500,11.98059589,57.68862683,11.98059417,16:20:12.916149,0.02812,2.22431,2.22431,-0.00216,0.03408,0.01332,-0.03746,0.00696,-0.02617,0.03764,0.90951,5.06486,2.11884,1.79018,1.80030,-2.36419,6.00505,5.08176,-2.46660,6.20838,2.06168,2.06168,A,162012.80
5.10762,57.68862565,11.98059556,57.68862683,11.98059417,16:20:12.933332,0.01003,2.22431,2.22431,-0.00331,0.03128,0.01210,0.02393,-0.00174,-0.05258,-0.06350,1.03834,5.09818,2.13993,1.83127,1.84055,-2.38363,6.07649,5.08176,-2.46660,6.20838,2.06168,2.06168,A,162012.80
5.12735,57.68862604,11.98059532,57.68862683,11.98059417,16:20:12.953046,0.00990,2.22431,2.22431,-0.00392,0.02981,0.00278,0.01477,-0.00526,0.07369,-0.00201,0.93232,5.11877,2.15681,1.86548,1.87432,-2.39795,6.11986,5.08176,-2.46660,6.20838,2.06168,2.06168,A,162012.80
5.13847,57.68862624,11.98059517,57.68862683,11.98059417,16:20:12.963441,0.00843,2.22431,2.22431,-0.00385,0.02916,0.00415,0.00163,-0.00358,-0.09772,0.03904,0.92982,5.12948,2.17031,1.89406,1.90272,-2.40696,6.14209,5.08176,-2.46660,6.20838,2.06168,2.06168,A,162012.80
5.15197,57.68862643,11.98059501,57.68862683,11.98059417,16:20:12.976972,0.01154,2.22431,2.22431,-0.00432,0.02862,0.00721,0.01034,-0.00190,-0.21563,0.00384,0.95434,5.14086,2.18111,1.91839,1.92689,-2.41623,6.16367,5.08176,-2.46660,6.20838,2.06168,2.06168,A,162012.80
5.16993,57.68862673,11.98059477,57.68862683,11.98059417,16:20:12.994901,0.00987,2.22431,2.22431,-0.00581,0.02794,0.00385,0.03661,-0.01075,0.00683,-0.05929,0.91604,5.15976,2.18975,1.93943,1.94772,-2.43048,6.19743,5.08176,-2.46660,6.20838,2.06168,2.06168,A,162012.80
5.18239,57.68862690,11.98059463,57.68862683,11.98059417,16:20:13.007615,0.01156,2.22431,2.22431,-0.00678,0.02777,-0.00684,0.01568,-0.00587,0.00872,-0.02037,0.96307,5.17230,2.19666,1.95696,1.96521,-2.43931,6.21574,5.08176,-2.46660,6.20838,2.06168,2.06168,A,162012.80
5.22224,57.68862727,11.98059431,57.68862817,11.98059350,16:20:13.047217,0.02723,2.22431,2.22431,-0.00735,0.02777,0.00324,0.02362,0.00360,-0.07521,-0.00836,1.10544,5.19576,2.20219,1.97245,1.98069,-2.45781,6.25654,5.21260,-2.50622,6.35664,1.83195,1.83195,A,162012.90
5.24004,57.68862788,11.98059382,57.68862817,11.98059350,16:20:13.065782,0.01053,2.22431,2.22431,-0.00866,0.02777,-0.01081,-0.03288,-0.00739,-0.03093,-0.02647,0.98362,5.23050,2.20661,1.95169,1.95993,-2.48748,6.32425,5.21260,-2.50622,6.35664,1.83195,1.83195,A,162012.90
5.25978,57.68862821,11.98059356,57.68862817,11.98059350,16:20:13.085497,0.01056,2.22431,2.22431,-0.00894,0.02777,-0.00409,0.00362,-0.01488,-0.18910,0.02196,1.04767,5.25050,2.21015,1.93336,1.94160,-2.50289,6.36117,5.21260,-2.50622,6.35664,1.83195,1.83195,A,162012.90
5.27748,57.68862847,11.98059336,57.68862817,11.98059350,16:20:13.102482,0.01146,2.22431,2.22431,-0.01075,0.02777,0.00415,0.03783,-0.00404,0.06612,-0.08485,0.93434,5.26746,2.21298,1.91763,1.92587,-2.51458,6.39058,5.21260,-2.50622,6.35664,1.83195,1.83195,A,162012.90
5.29123,57.68862870,11.98059319,57.68862817,11.98059350,16:20:13.116198,0.00775,2.22431,2.22431,-0.01161,0.02777,-0.00394,0.00392,0.01017,-0.00451,-0.01848,0.92775,5.28319,2.21525,1.90421,1.91245,-2.52435,6.41637,5.21260,-2.50622,6.35664,1.83195,1.83195,A,162012.90
5.30262,57.68862882,11.98059311,57.68862817,11.98059350,16:20:13.127596,0.00875,2.22431,2.22431,-0.01166,0.02777,0.00110,-0.00554,0.01704,-0.02818,0.02757,1.00687,5.29329,2.21706,1.89253,1.90077,-2.52930,6.42984,5.21260,-2.50622,6.35664,1.83195,1.83195,A,162012.90
5.31246,57.68862894,11.98059303,57.68862817,11.98059350,16:20:13.137434,0.00844,2.22431,2.22431,-0.01197,0.02777,-0.00409,0.00805,0.01185,-0.14506,0.01372,1.04999,5.30372,2.21851,1.88261,1.89085,-2.53388,6.44294,5.21260,-2.50622,6.35664,1.83195,1.83195,A,162012.90
5.35055,57.68862907,11.98059295,57.68863100,11.98059150,16:20:13.175524,0.03620,2.22431,2.22431,-0.01245,0.02777,-0.00715,0.02286,0.01307,-0.10962,0.00396,1.07159,5.31479,2.21967,1.87422,1.88247,-2.53875,6.45748,5.34251,-2.62509,6.67170,1.93159,1.93159,A,162013.10
5.37042,57.68862996,11.98059240,57.68863100,11.98059150,16:20:13.195392,0.01028,2.22431,2.22431,-0.01424,0.02777,-0.03082,0.04730,-0.00068,-0.07521,0.00641,0.86388,5.36116,2.22060,1.88370,1.89194,-2.57152,6.55650,5.34251,-2.62509,6.67170,1.93159,1.93159,A,162013.10
5.39243,57.68863039,11.98059213,57.68863100,11.98059150,16:20:13.217399,0.00923,2.22431,2.22431,-0.01466,0.02777,-0.03021,0.02622,-0.00358,0.03880,0.04362,0.93757,5.38375,2.22134,1.89063,1.89887,-2.58786,6.60333,5.34251,-2.62509,6.67170,1.93159,1.93159,A,162013.10
5.40537,57.68863060,11.98059198,57.68863100,11.98059150,16:20:13.230365,0.01099,2.22431,2.22431,-0.01529,0.02777,-0.02104,0.02790,-0.00098,-0.03245,0.00311,0.99881,5.39577,2.22193,1.89601,1.90426,-2.59651,6.62668,5.34251,-2.62509,6.67170,1.93159,1.93159,A,162013.10
5.42721,57.68863097,11.98059172,57.68863100,11.98059150,16:20:13.252191,0.01012,1.82603,1.82603,-0.01685,0.02777,-0.01845,0.07051,0.01124,-0.15348,-0.06076,1.12185,5.41785,2.14275,1.90107,1.90932,-2.61178,6.66891,5.34251,-2.62509,6.67170,1.93159,1.93159,A,162013.10
5.46639,57.68863130,11.98059150,57.68863267,11.98059083,16:20:13.291679,0.02867,1.82603,1.82603,-0.01841,0.02777,-0.04013,0.06425,0.02284,0.13749,-0.02409,0.91329,5.43853,2.07941,1.90529,1.91353,-2.62521,6.70530,5.45637,-2.66472,6.85702,1.78143,1.78143,A,162013.20
5.48349,57.68863191,11.98059111,57.68863267,11.98059083,16:20:13.308481,0.01157,1.82603,1.82603,-0.01883,0.02777,-0.00898,0.03294,0.00589,-0.12914,0.01366,1.08562,5.47308,2.02873,1.88690,1.89515,-2.64840,6.77233,5.45637,-2.66472,6.85702,1.78143,1.78143,A,162013.20
5.50444,57.68863228,11.98059088,57.68863267,11.98059083,16:20:13.330705,0.00920,1.82603,1.82603,-0.02111,0.02777,-0.00822,0.05860,0.00436,0.11895,-0.11053,0.92543,5.49578,1.98819,1.87074,1.87899,-2.66181,6.81404,5.45637,-2.66472,6.85702,1.78143,1.78143,A,162013.20
5.51564,57.68863244,11.98059079,57.68863267,11.98059083,16:20:13.340615,0.00861,1.82603,1.82603,-0.02194,0.02777,-0.02196,0.02194,0.01704,-0.05002,-0.01903,0.91561,5.50671,1.95576,1.85649,1.86474,-2.66705,6.83218,5.45637,-2.66472,6.85702,1.78143,1.78143,A,162013.20
5.52733,57.68863261,11.98059071,57.68863267,11.98059083,16:20:13.352307,0.01013,1.82603,1.82603,-0.02173,0.02783,-0.01081,0.01538,0.02422,-0.02684,0.03855,0.96563,5.51873,1.92981,1.84442,1.85268,-2.67232,6.85121,5.45637,-2.66472,6.85702,1.78143,1.78143,A,162013.20
5.54987,57.68863291,11.98059055,57.68863267,11.98059083,16:20:13.374845,0.01201,1.82603,1.82603,-0.02158,0.02802,0.02294,-0.00448,0.02834,0.05081,-0.00311,1.03901,5.53914,1.90906,1.83450,1.84282,-2.68142,6.88426,5.45637,-2.66472,6.85702,1.78143,1.78143,A,162013.20
5.58694,57.68863318,11.98059042,57.68863450,11.98059000,16:20:13.411915,0.02879,1.82603,1.82603,-0.02185,0.02870,0.03943,-0.02066,0.03201,-0.03367,-0.05600,1.04261,5.55952,1.89245,1.82601,1.83453,-2.68941,6.91451,5.57725,-2.71425,7.06088,1.80914,1.80914,A,162013.30
5.60798,57.68863381,11.98059011,57.68863450,11.98059000,16:20:13.432959,0.01147,1.82603,1.82603,-0.01992,0.03199,0.04157,0.04470,0.03445,0.06106,0.03788,0.87334,5.59832,1.87917,1.82357,1.83307,-2.70749,6.98421,5.57725,-2.71425,7.06088,1.80914,1.80914,A,162013.30
5.64318,57.68863430,11.98058988,57.68863450,11.98059000,16:20:13.468151,0.02065,1.82603,1.82603,-0.01853,0.03354,0.05134,-0.00524,0.02437,-0.17281,0.00518,1.18846,5.63010,1.86854,1.82129,1.83125,-2.72152,7.03904,5.57725,-2.71425,7.06088,1.80914,1.80914,A,162013.30
5.66494,57.68863461,11.98058974,57.68863450,11.98059000,16:20:13.489939,0.01135,1.82603,1.82603,-0.01931,0.03354,0.04111,0.04149,0.01857,0.08833,-0.09126,0.96221,5.65449,1.86004,1.81890,1.82886,-2.72986,7.07279,5.57725,-2.71425,7.06088,1.80914,1.80914,A,162013.30
5.70118,57.68863489,11.98058961,57.68863600,11.98058883,16:20:13.526844,0.02644,1.82603,1.82603,-0.01869,0.03354,0.03500,-0.00463,0.02910,-0.07302,0.01318,0.81222,5.67557,1.85324,1.81684,1.82680,-2.73741,7.10376,5.69235,-2.78359,7.22767,1.96480,1.96480,A,162013.40
5.72561,57.68863549,11.98058930,57.68863600,11.98058883,16:20:13.550584,0.01181,1.82603,1.82603,-0.01769,0.03354,0.04493,-0.00554,0.01964,0.03038,-0.02306,1.01327,5.71337,1.84780,1.83928,1.84924,-2.75578,7.17131,5.69235,-2.78359,7.22767,1.96480,1.96480,A,162013.40
5.74582,57.68863580,11.98058913,57.68863600,11.98058883,16:20:13.570801,0.01008,1.82603,1.82603,-0.01720,0.03354,0.05134,-0.01562,0.02406,-0.07979,-0.02635,1.10532,5.73695,1.84344,1.85752,1.86748,-2.76624,7.20587,5.69235,-2.78359,7.22767,1.96480,1.96480,A,162013.40
5.76589,57.68863608,11.98058896,57.68863600,11.98058883,16:20:13.591630,0.00878,1.82603,1.82603,-0.01715,0.03354,0.05348,-0.00112,0.03140,-0.05819,-0.04856,1.10617,5.75670,1.83996,1.87296,1.88292,-2.77616,7.23656,5.69235,-2.78359,7.22767,1.96480,1.96480,A,162013.40
5.78007,57.68863623,11.98058886,57.68863600,11.98058883,16:20:13.605042,0.01065,1.96267,1.96267,-0.01662,0.03354,0.05226,-0.00570,0.03231,0.08979,0.01897,0.98985,5.76885,1.86450,1.88573,1.89569,-2.78194,7.25286,5.69235,-2.78359,7.22767,1.96480,1.96480,A,162013.40
5.81240,57.68863644,11.98058872,57.68863783,11.98058733,16:20:13.637372,0.02637,1.96267,1.96267,-0.01626,0.03354,0.06249,-0.03242,0.02788,-0.01623,-0.01732,0.95312,5.78557,1.88414,1.89682,1.90678,-2.79042,7.27654,5.80426,-2.87274,7.43153,1.98307,1.98307,A,162013.50
5.82821,57.68863697,11.98058835,57.68863783,11.98058733,16:20:13.653185,0.01000,1.96267,1.96267,-0.01486,0.03354,0.06555,0.00392,0.02895,0.04331,-0.02287,0.90866,5.81954,1.89984,1.90974,1.91970,-2.81237,7.33537,5.80426,-2.87274,7.43153,1.98307,1.98307,A,162013.50
5.84361,57.68863717,11.98058819,57.68863783,11.98058733,16:20:13.668583,0.01141,1.96267,1.96267,-0.01429,0.03354,0.06219,-0.01517,0.02804,0.11462,0.01452,0.96563,5.83194,1.91241,1.91977,1.92973,-2.82192,7.35814,5.80426,-2.87274,7.43153,1.98307,1.98307,A,162013.50
5.87156,57.68863762,11.98058786,57.68863783,11.98058733,16:20:13.696538,0.01367,1.96267,1.96267,-0.01278,0.03354,0.06738,0.00484,0.01872,-0.02166,-0.00945,1.08025,5.86287,1.92246,1.92912,1.93908,-2.84172,7.40780,5.80426,-2.87274,7.43153,1.98307,1.98307,A,162013.50
5.88924,57.68863786,11.98058766,57.68863783,11.98058733,16:20:13.714939,0.01082,1.96267,1.96267,-0.01261,0.03354,0.05547,-0.03196,0.02116,0.12267,-0.02013,0.99704,5.87974,1.93050,1.93647,1.94643,-2.85316,7.43461,5.80426,-2.87274,7.43153,1.98307,1.98307,A,162013.50
5.90740,57.68863810,11.98058747,57.68863783,11.98058733,16:20:13.732377,0.01046,1.96267,1.96267,-0.01100,0.03354,0.05715,-0.09213,0.02620,0.00244,0.06271,0.89786,5.89811,1.93693,1.94276,1.95272,-2.86472,7.46128,5.80426,-2.87274,7.43153,1.98307,1.98307,A,162013.50
5.95295,57.68863831,11.98058730,57.68864033,11.98058517,16:20:13.777941,0.03951,1.96267,1.96267,-0.01128,0.03354,0.07364,-0.07915,0.02987,-0.18251,-0.06716,1.00546,5.91452,1.94208,1.94803,1.95799,-2.87487,7.48408,5.94217,-3.00152,7.70951,2.00462,2.00462,A,162013.70
5.97586,57.68863918,11.98058660,57.68864033,11.98058517,16:20:13.802257,0.01148,1.96267,1.96267,-0.00840,0.03354,0.05608,-0.02876,0.01047,-0.08192,0.02702,0.88932,5.96719,1.94620,1.95757,1.96753,-2.91629,7.58139,5.94217,-3.00152,7.70951,2.00462,2.00462,A,162013.70
5.99729,57.68863953,11.98058630,57.68864033,11.98058517,16:20:13.822268,0.01023,1.96267,1.96267,-0.00818,0.03354,0.03989,-0.04433,-0.00785,0.07509,-0.00427,0.97350,5.98772,1.94949,1.96408,1.97404,-2.93391,7.61969,5.94217,-3.00152,7.70951,2.00462,2.00462,A,162013.70
6.01993,57.68863988,11.98058599,57.68864033,11.98058517,16:20:13.844908,0.01104,1.96267,1.96267,-0.00794,0.03315,0.03439,-0.03196,-0.01152,-0.07521,-0.00317,1.15119,6.01048,1.95213,1.96974,1.97958,-2.95236,7.65949,5.94217,-3.00152,7.70951,2.00462,2.00462,A,162013.70
6.04267,57.68864023,11.98058569,57.68864033,11.98058517,16:20:13.867643,0.01205,1.96267,1.96267,-0.00838,0.03088,0.02523,0.01477,-0.00877,-0.01714,-0.03385,1.00815,6.03314,1.95424,1.97464,1.98381,-2.97020,7.69751,5.94217,-3.00152,7.70951,2.00462,2.00462,A,162013.70
6.09632,57.68864074,11.98058525,57.68864183,11.98058433,16:20:13.921800,0.04011,1.96267,1.96267,-0.00837,0.02613,0.00446,-0.06755,-0.00022,-0.07832,0.02233,0.94745,6.06508,1.95592,1.97954,1.98729,-2.99659,7.75475,6.08625,-3.05105,7.87631,1.85946,1.85946,A,162013.80
6.12005,57.68864139,11.98058471,57.68864183,11.98058433,16:20:13.945332,0.01147,2.20808,2.20808,-0.00889,0.02143,0.00186,0.01141,-0.02175,0.17068,-0.00854,1.00394,6.11008,2.00635,1.96212,1.96848,-3.02859,7.82701,6.08625,-3.05105,7.87631,1.85946,1.85946,A,162013.80
6.13894,57.68864168,11.98058448,57.68864183,11.98058433,16:20:13.964231,0.01111,2.20808,2.20808,-0.00796,0.02120,0.01408,-0.03303,-0.01534,0.02489,0.06496,0.83637,6.12892,2.04670,1.94634,1.95264,-3.04228,7.85939,6.08625,-3.05105,7.87631,1.85946,1.85946,A,162013.80
6.16167,57.68864203,11.98058422,57.68864183,11.98058433,16:20:13.986653,0.01130,2.20808,2.20808,-0.00873,0.02120,0.02844,-0.02570,-0.01060,0.02721,-0.05161,0.85510,6.15196,2.07897,1.93307,1.93937,-3.05793,7.89812,6.08625,-3.05105,7.87631,1.85946,1.85946,A,162013.80
6.17826,57.68864226,11.98058405,57.68864183,11.98058433,16:20:14.003231,0.01041,2.20808,2.20808,-0.00937,0.02120,0.02141,-0.02524,-0.00694,-0.01043,-0.03392,0.98545,6.16857,2.10480,1.92158,1.92787,-3.06784,7.92359,6.08625,-3.05105,7.87631,1.85946,1.85946,A,162013.80
6.21378,57.68864250,11.98058388,57.68864333,11.98058367,16:20:14.038779,0.02649,2.20808,2.20808,-0.00865,0.02120,0.01744,-0.00463,0.00070,-0.10590,0.06765,1.21884,6.18729,2.12545,1.91187,1.91816,-3.07810,7.95098,6.20402,-3.09067,8.04310,1.80404,1.80404,A,162013.90
6.23123,57.68864309,11.98058350,57.68864333,11.98058367,16:20:14.056202,0.01091,2.20808,2.20808,-0.00852,0.02120,0.00400,-0.03364,-0.00327,0.00866,0.03026,0.94526,6.22095,2.14198,1.89586,1.90216,-3.10064,8.01609,6.20402,-3.09067,8.04310,1.80404,1.80404,A,162013.90
6.25168,57.68864343,11.98058329,57.68864333,11.98058367,16:20:14.076997,0.01102,2.20808,2.20808,-0.00847,0.02120,-0.00241,-0.03853,-0.01396,-0.17519,0.03691,0.95636,6.24210,2.15520,1.88182,1.88811,-3.11277,8.05417,6.20402,-3.09067,8.04310,1.80404,1.80404,A,162013.90
6.27739,57.68864379,11.98058309,57.68864333,11.98058367,16:20:14.102370,0.01428,2.20808,2.20808,-0.01029,0.02120,-0.02089,0.00515,-0.02740,-0.05014,-0.05441,0.93684,6.26458,2.16577,1.86994,1.87624,-3.12488,8.09385,6.20402,-3.09067,8.04310,1.80404,1.80404,A,162013.90
6.30418,57.68864404,11.98058296,57.68864333,11.98058367,16:20:14.129159,0.02211,2.20808,2.20808,-0.01137,0.02120,-0.04746,0.00133,-0.02679,-0.07296,0.01867,1.03633,6.28407,2.17424,1.85967,1.86596,-3.13279,8.12180,6.20402,-3.09067,8.04310,1.80404,1.80404,A,162013.90
6.35461,57.68864446,11.98058274,57.68864617,11.98058217,16:20:14.179591,0.03886,2.20808,2.20808,-0.01310,0.02018,-0.03738,-0.00616,-0.02221,0.03751,-0.00616,1.06036,6.31718,2.18100,1.85133,1.85732,-3.14592,8.16799,6.34452,-3.17983,8.35815,1.84657,1.84657,A,162014.10
6.37014,57.68864529,11.98058229,57.68864617,11.98058217,16:20:14.196267,0.00884,2.20808,2.20808,-0.01481,0.01837,-0.03158,0.02210,-0.02053,-0.11578,0.00378,0.94044,6.36126,2.18642,1.85123,1.85669,-3.17221,8.26096,6.34452,-3.17983,8.35815,1.84657,1.84657,A,162014.10
6.38125,57.68864550,11.98058220,57.68864617,11.98058217,16:20:14.206233,0.00859,2.20808,2.20808,-0.01656,0.01837,-0.02746,0.03157,-0.01671,-0.03495,-0.07168,0.98448,6.37233,2.19075,1.85000,1.85545,-3.17787,8.28378,6.34452,-3.17983,8.35815,1.84657,1.84657,A,162014.10
6.39409,57.68864568,11.98058212,57.68864617,11.98058217,16:20:14.219069,0.01121,2.20808,2.20808,-0.01809,0.01837,-0.03082,0.03248,-0.02038,0.09675,-0.05966,1.00558,6.38249,2.19422,1.84892,1.85437,-3.18268,8.30362,6.34452,-3.17983,8.35815,1.84657,1.84657,A,162014.10
6.41393,57.68864603,11.98058194,57.68864617,11.98058217,16:20:14.238920,0.01167,2.20808,2.20808,-0.01817,0.01837,-0.02089,-0.02188,-0.00526,-0.09412,0.04825,1.08574,6.40413,2.19699,1.84832,1.85377,-3.19323,8.34301,6.34452,-3.17983,8.35815,1.84657,1.84657,A,162014.10
6.43602,57.68864641,11.98058175,57.68864617,11.98058217,16:20:14.260997,0.01131,2.20808,2.20808,-0.01838,0.01837,0.01576,-0.01532,-0.01213,-0.05215,-0.01830,1.07140,6.42674,2.19921,1.84788,1.85334,-3.20452,8.38490,6.34452,-3.17983,8.35815,1.84657,1.84657,A,162014.10
