Time,lat_estimated,lon_estimated,latitude,longitude,RealTime,CalculationTime,MeasuredVelocity,FilteredVelocity,Roll,SteeringAngle,RollRate,gy,gz,ax,ay,az,imu_read_timing,v_estimated,yaw_estimated,heading_estimated,x_estimated,y_estimated,GPS_timestamp,x_GPS,y_GPS,theta_GPS,theta_GPS_noUnwrap,status,NMEA timestamp
0.04900,57.68782333,11.98130433,57.68782333,11.98130433,15:13:01.735424,0.04895,0.00000,0.00000,-0.00199,0.00000,-0.00299,-0.00058,0.00022,-0.06338,-0.09974,0.99674,0.00001,0.00000,0.00000,0.00000,0.00000,0.00000,0.01447,0.00000,0.00000,0.00000,0.00000,A,141224.20
0.06484,57.68782333,11.98130433,57.68782333,11.98130433,15:13:01.751235,0.00759,0.00000,0.00000,-0.00410,0.00000,-0.00299,0.00003,-0.00023,-0.06002,-0.10010,0.99790,0.05836,0.00000,0.00000,0.00000,0.00000,0.00000,0.01447,0.00000,0.00000,0.00000,0.00000,A,141224.20
0.07289,57.68782333,11.98130433,57.68782333,11.98130433,15:13:01.759274,0.00522,0.00000,0.00000,-0.00600,0.00000,-0.00116,0.00431,0.00175,-0.05844,-0.09900,0.99692,0.06721,0.00000,0.00000,0.00000,0.00000,0.00000,0.01447,0.00000,0.00000,0.00000,0.00000,A,141224.20
0.08315,57.68782333,11.98130433,57.68782333,11.98130433,15:13:01.769788,0.00509,0.00000,0.00000,-0.00792,0.00000,-0.00284,-0.00165,-0.00161,-0.05978,-0.10065,0.99839,0.07780,0.00000,0.00000,0.00000,0.00000,0.00000,0.01447,0.00000,0.00000,0.00000,0.00000,A,141224.20
0.09357,57.68782333,11.98130433,57.68782333,11.98130433,15:13:01.779958,0.00510,0.00000,0.00000,-0.00978,0.00000,-0.00315,0.00156,0.00053,-0.05850,-0.09888,0.99674,0.08798,0.00000,0.00000,0.00000,0.00000,0.00000,0.01447,0.00000,0.00000,0.00000,0.00000,A,141224.20
0.10427,57.68782333,11.98130433,57.68782333,11.98130433,15:13:01.790659,0.00541,0.00000,0.00000,-0.01165,0.00000,-0.00437,0.00385,0.00160,-0.06069,-0.10016,0.99772,0.09860,0.00000,0.00000,0.00000,0.00000,0.00000,0.01447,0.00000,0.00000,0.00000,0.00000,A,141224.20
0.13969,57.68782333,11.98130433,57.68782333,11.98130450,15:13:01.826087,0.03042,0.00000,0.00000,-0.01347,0.00000,-0.00238,-0.00287,0.00190,-0.06002,-0.10059,0.99704,0.10980,0.00000,0.00000,0.00000,0.00000,0.00000,0.13626,0.00991,0.00000,0.00000,0.00000,A,141224.40
0.15497,57.68782333,11.98130434,57.68782333,11.98130450,15:13:01.841358,0.00685,0.00000,0.00000,-0.01535,0.00000,-0.00299,-0.00119,-0.00191,-0.06124,-0.09998,0.99894,0.14953,0.00000,0.00000,0.00000,0.00050,0.00000,0.13626,0.00991,0.00000,0.00000,0.00000,A,141224.40
0.16402,57.68782333,11.98130435,57.68782333,11.98130450,15:13:01.850416,0.00550,0.00000,0.00000,-0.01712,0.00000,-0.00360,-0.00195,0.00068,-0.06283,-0.10010,0.99729,0.15827,0.00000,0.00000,0.00000,0.00097,0.00000,0.13626,0.00991,0.00000,0.00000,0.00000,A,141224.40
0.17405,57.68782333,11.98130436,57.68782333,11.98130450,15:13:01.860446,0.00513,0.00000,0.00000,-0.01885,0.00000,-0.00559,-0.00226,-0.00176,-0.06350,-0.09736,0.99814,0.16869,0.00000,0.00000,0.00000,0.00141,0.00000,0.13626,0.00991,0.00000,0.00000,0.00000,A,141224.40
0.18468,57.68782333,11.98130436,57.68782333,11.98130450,15:13:01.871075,0.00519,0.00000,0.00000,-0.02054,0.00000,-0.00406,-0.00119,0.00053,-0.06271,-0.09790,0.99643,0.17902,0.00000,0.00000,0.00000,0.00184,0.00000,0.13626,0.00991,0.00000,0.00000,0.00000,A,141224.40
0.19499,57.68782333,11.98130437,57.68782333,11.98130450,15:13:01.881385,0.00510,0.00000,0.00000,-0.02222,0.00000,-0.00284,-0.00042,-0.00237,-0.06289,-0.09937,0.99704,0.18964,0.00000,0.00000,0.00000,0.00224,0.00000,0.13626,0.00991,0.00000,0.00000,0.00000,A,141224.40
0.20546,57.68782333,11.98130438,57.68782333,11.98130450,15:13:01.891849,0.00516,0.00000,0.00000,-0.02384,0.00000,0.00174,-0.00348,0.00206,-0.06167,-0.09986,0.99643,0.19981,0.00000,0.00000,0.00000,0.00262,0.00000,0.13626,0.00991,0.00000,0.00000,0.00000,A,141224.40
0.21631,57.68782333,11.98130438,57.68782333,11.98130450,15:13:01.902705,0.00561,0.00000,0.00000,-0.02548,0.00000,-0.00299,-0.00027,0.00068,-0.06332,-0.10004,0.99772,0.21062,0.00000,0.00000,0.00000,0.00299,0.00000,0.13626,0.00991,0.00000,0.00000,0.00000,A,141224.40
0.22618,57.68782333,11.98130439,57.68782333,11.98130450,15:13:01.912572,0.00508,0.00000,0.00000,-0.02708,0.00000,-0.00284,0.00156,-0.00100,-0.06210,-0.09925,0.99668,0.22081,0.00000,0.00000,0.00000,0.00333,0.00000,0.13626,0.00991,0.00000,0.00000,0.00000,A,141224.40
0.25143,57.68782333,11.98130439,57.68782333,11.98130500,15:13:01.937836,0.01947,0.00000,0.00000,-0.02865,0.00000,-0.00131,-0.00226,-0.00100,-0.06118,-0.10016,0.99796,0.23153,0.00000,0.00000,0.00000,0.00366,0.00000,0.24759,0.03962,0.00000,0.00000,0.00000,A,141224.50
0.26642,57.68782333,11.98130443,57.68782333,11.98130500,15:13:01.952817,0.00728,0.00000,0.00000,-0.03025,0.00000,-0.00253,-0.00149,0.00053,-0.05941,-0.09955,0.99930,0.26099,0.00000,0.00000,0.00000,0.00546,0.00000,0.24759,0.03962,0.00000,0.00000,0.00000,A,141224.50
0.27465,57.68782333,11.98130445,57.68782333,11.98130500,15:13:01.961037,0.00510,0.00000,0.00000,-0.03182,0.00000,-0.00406,0.00309,0.00084,-0.05954,-0.10163,0.99741,0.26929,0.00000,0.00000,0.00000,0.00717,0.00000,0.24759,0.03962,0.00000,0.00000,0.00000,A,141224.50
0.28498,57.68782333,11.98130448,57.68782333,11.98130500,15:13:01.971370,0.00520,0.00000,0.00000,-0.03332,0.00000,-0.00085,0.00202,0.00145,-0.05789,-0.10016,0.99704,0.27934,0.00000,0.00000,0.00000,0.00879,0.00000,0.24759,0.03962,0.00000,0.00000,0.00000,A,141224.50
0.29583,57.68782333,11.98130451,57.68782333,11.98130500,15:13:01.982248,0.00565,0.00000,0.00000,-0.03474,0.00000,0.00235,-0.00058,-0.00084,-0.06002,-0.09864,0.99918,0.28992,0.00000,0.00000,0.00000,0.01033,0.00000,0.24759,0.03962,0.00000,0.00000,0.00000,A,141224.50
0.30568,57.68782333,11.98130453,57.68782333,11.98130500,15:13:01.992071,0.00510,0.00000,0.00000,-0.03613,0.00000,0.00388,0.00141,0.00084,-0.05880,-0.09870,0.99845,0.30009,0.00000,0.00000,0.00000,0.01180,0.00000,0.24759,0.03962,0.00000,0.00000,0.00000,A,141224.50
0.31724,57.68782333,11.98130456,57.68782333,11.98130500,15:13:02.003633,0.00626,0.00000,0.00000,-0.03757,0.00000,-0.00162,0.00095,0.00099,-0.05789,-0.09992,0.99784,0.31155,0.00000,0.00000,0.00000,0.01319,0.00000,0.24759,0.03962,0.00000,0.00000,0.00000,A,141224.50
0.32640,57.68782333,11.98130458,57.68782333,11.98130500,15:13:02.012785,0.00502,0.00000,0.00000,-0.03897,0.00000,0.00082,0.00370,0.00282,-0.05630,-0.10016,0.99741,0.32103,0.00000,0.00000,0.00000,0.01451,0.00000,0.24759,0.03962,0.00000,0.00000,0.00000,A,141224.50
0.33709,57.68782333,11.98130460,57.68782333,11.98130500,15:13:02.023483,0.00541,0.00000,0.00000,-0.04034,0.00000,0.00052,-0.00501,0.00251,-0.06173,-0.09949,0.99686,0.33142,0.00000,0.00000,0.00000,0.01577,0.00000,0.24759,0.03962,0.00000,0.00000,0.00000,A,141224.50
0.34718,57.68782333,11.98130462,57.68782333,11.98130500,15:13:02.033958,0.00510,0.00000,0.00000,-0.04170,0.00000,0.00037,0.00202,-0.00039,-0.06076,-0.10071,0.99833,0.34182,0.00000,0.00000,0.00000,0.01696,0.00000,0.24759,0.03962,0.00000,0.00000,0.00000,A,141224.50
0.37338,57.68782333,11.98130464,57.68782317,11.98130517,15:13:02.059801,0.02090,0.00000,0.00000,-0.04305,0.00000,-0.00192,0.00110,-0.00069,-0.06137,-0.09931,0.99741,0.35199,0.00000,0.00000,0.00000,0.01809,0.00000,0.36835,0.04953,-0.01853,-1.07991,-1.07991,A,141224.60
0.39014,57.68782333,11.98130466,57.68782317,11.98130517,15:13:02.076559,0.00765,0.00000,0.00000,-0.04442,0.00000,-0.00131,0.00126,0.00007,-0.06130,-0.10041,0.99802,0.38394,0.00000,-0.16199,-0.16199,0.01966,-0.00093,0.36835,0.04953,-0.01853,-1.07991,-1.07991,A,141224.60
0.39799,57.68782332,11.98130469,57.68782317,11.98130517,15:13:02.084380,0.00509,0.00000,0.00000,-0.04569,0.00000,-0.00009,-0.00180,0.00022,-0.06161,-0.09797,0.99778,0.39262,0.00000,-0.29967,-0.29967,0.02116,-0.00181,0.36835,0.04953,-0.01853,-1.07991,-1.07991,A,141224.60
0.40868,57.68782331,11.98130471,57.68782317,11.98130517,15:13:02.095075,0.00521,0.00000,0.00000,-0.04690,0.00000,0.00418,-0.00333,0.00236,-0.06210,-0.09809,0.99833,0.40301,0.00000,-0.41671,-0.41671,0.02258,-0.00264,0.36835,0.04953,-0.01853,-1.07991,-1.07991,A,141224.60
0.41951,57.68782330,11.98130474,57.68782317,11.98130517,15:13:02.105916,0.00563,0.00000,0.00000,-0.04813,0.00000,0.00128,-0.00149,-0.00252,-0.06045,-0.09894,0.99808,0.41362,0.00000,-0.51619,-0.51619,0.02392,-0.00344,0.36835,0.04953,-0.01853,-1.07991,-1.07991,A,141224.60
0.42933,57.68782330,11.98130476,57.68782317,11.98130517,15:13:02.115726,0.00522,0.00000,0.00000,-0.04939,0.00000,-0.00085,-0.00088,0.00328,-0.05972,-0.10071,0.99778,0.42370,0.00000,-0.60075,-0.60075,0.02520,-0.00419,0.36835,0.04953,-0.01853,-1.07991,-1.07991,A,141224.60
0.44011,57.68782329,11.98130478,57.68782317,11.98130517,15:13:02.126506,0.00559,0.00000,0.00000,-0.05059,0.00000,0.00098,0.00110,-0.00329,-0.06051,-0.09870,0.99692,0.43443,0.00000,-0.67262,-0.67262,0.02642,-0.00491,0.36835,0.04953,-0.01853,-1.07991,-1.07991,A,141224.60
0.45003,57.68782328,11.98130480,57.68782317,11.98130517,15:13:02.136425,0.00510,0.00000,0.00000,-0.05176,0.00000,0.00159,-0.00119,0.00007,-0.06088,-0.09839,0.99747,0.44465,0.00000,-0.73371,-0.73371,0.02758,-0.00559,0.36835,0.04953,-0.01853,-1.07991,-1.07991,A,141224.60
0.46072,57.68782328,11.98130482,57.68782317,11.98130517,15:13:02.147107,0.00521,0.00000,0.00000,-0.05293,0.00000,0.00006,-0.00287,0.00160,-0.05752,-0.09943,0.99930,0.45504,0.00000,-0.78564,-0.78564,0.02867,-0.00624,0.36835,0.04953,-0.01853,-1.07991,-1.07991,A,141224.60
0.48563,57.68782327,11.98130483,57.68782317,11.98130500,15:13:02.172029,0.01974,0.00000,0.00000,-0.05403,0.00000,0.00663,0.00019,0.00251,-0.06002,-0.10010,1.00003,0.46579,0.00000,-0.82978,-0.82978,0.02972,-0.00685,0.48181,0.03962,-0.01853,3.14159,3.14159,A,141224.70
0.50101,57.68782327,11.98130484,57.68782317,11.98130500,15:13:02.187413,0.00745,0.00000,0.00000,-0.05506,0.00000,0.00266,0.00080,0.00374,-0.06021,-0.09638,0.99790,0.49495,0.00000,-0.23408,-0.23408,0.03021,-0.00744,0.48181,0.03962,-0.01853,3.14159,3.14159,A,141224.70
0.50907,57.68782326,11.98130485,57.68782317,11.98130500,15:13:02.195464,0.00525,0.00000,0.00000,-0.05615,0.00000,0.00449,-0.00317,0.00022,-0.05887,-0.09937,0.99784,0.50341,0.00000,0.27227,0.27227,0.03068,-0.00799,0.48181,0.03962,-0.01853,3.14159,3.14159,A,141224.70
0.51957,57.68782326,11.98130486,57.68782317,11.98130500,15:13:02.206122,0.00535,0.00000,0.00000,-0.05724,0.00000,-0.00070,0.00080,-0.00283,-0.06320,-0.09736,0.99778,0.51397,0.00000,0.70267,0.70267,0.03113,-0.00852,0.48181,0.03962,-0.01853,3.14159,3.14159,A,141224.70
0.52971,57.68782325,11.98130486,57.68782317,11.98130500,15:13:02.216100,0.00509,0.00000,0.00000,-0.05833,0.00000,-0.00055,0.00141,0.00160,-0.06246,-0.09827,0.99711,0.52413,0.00000,1.06851,1.06851,0.03156,-0.00902,0.48181,0.03962,-0.01853,3.14159,3.14159,A,141224.70
0.54054,57.68782325,11.98130487,57.68782317,11.98130500,15:13:02.226929,0.00550,0.00000,0.00000,-0.05936,0.00000,0.00602,-0.00241,-0.00237,-0.06338,-0.10010,0.99650,0.53475,0.00000,1.37947,1.37947,0.03196,-0.00949,0.48181,0.03962,-0.01853,3.14159,3.14159,A,141224.70
0.55042,57.68782324,11.98130488,57.68782317,11.98130500,15:13:02.236820,0.00499,0.00000,0.00000,-0.06039,0.00000,0.00327,0.00232,0.00007,-0.06265,-0.09937,1.00028,0.54505,0.00000,1.64379,1.64379,0.03234,-0.00995,0.48181,0.03962,-0.01853,3.14159,3.14159,A,141224.70
0.56090,57.68782324,11.98130488,57.68782317,11.98130500,15:13:02.247290,0.00520,0.00000,0.00000,-0.06143,0.00000,0.00144,0.00248,-0.00314,-0.06027,-0.09967,0.99601,0.55524,0.00000,1.86846,1.86846,0.03271,-0.01038,0.48181,0.03962,-0.01853,3.14159,3.14159,A,141224.70
0.57117,57.68782324,11.98130489,57.68782317,11.98130500,15:13:02.257799,0.00507,0.00000,0.00000,-0.06244,0.00000,0.00235,-0.00195,-0.00207,-0.06045,-0.09937,0.99796,0.56581,0.00000,2.05943,2.05943,0.03305,-0.01078,0.48181,0.03962,-0.01853,3.14159,3.14159,A,141224.70
0.58167,57.68782323,11.98130489,57.68782317,11.98130500,15:13:02.268061,0.00517,0.00000,0.00000,-0.06340,0.00000,0.00602,-0.00103,-0.00115,-0.06008,-0.09949,0.99930,0.57600,0.00000,2.22176,2.22176,0.03338,-0.01117,0.48181,0.03962,-0.01853,3.14159,3.14159,A,141224.70
0.60938,57.68782323,11.98130490,57.68782317,11.98130533,15:13:02.295772,0.02147,0.00000,0.00000,-0.06437,0.00000,0.00113,0.00156,0.00084,-0.05813,-0.09742,0.99692,0.58759,0.00000,2.35973,2.35973,0.03369,-0.01154,0.60588,0.05944,-0.01853,0.00000,0.00000,A,141224.80
0.62031,57.68782323,11.98130492,57.68782317,11.98130533,15:13:02.306694,0.00569,0.00000,0.00000,-0.06543,0.00000,-0.00284,0.00095,-0.00084,-0.06118,-0.09931,0.99625,0.61446,0.00000,2.00577,2.00577,0.03498,-0.01189,0.60588,0.05944,-0.01853,0.00000,0.00000,A,141224.80
0.63011,57.68782322,11.98130494,57.68782317,11.98130533,15:13:02.316498,0.00509,0.00000,0.00000,-0.06642,0.00000,-0.00055,-0.00042,-0.00115,-0.06033,-0.09955,0.99772,0.62474,0.00000,1.70491,1.70491,0.03620,-0.01222,0.60588,0.05944,-0.01853,0.00000,0.00000,A,141224.80
0.64074,57.68782322,11.98130496,57.68782317,11.98130533,15:13:02.327133,0.00530,0.00000,0.00000,-0.06735,0.00000,0.00098,0.00065,0.00251,-0.06301,-0.09833,0.99784,0.63504,0.00000,1.44917,1.44917,0.03736,-0.01254,0.60588,0.05944,-0.01853,0.00000,0.00000,A,141224.80
0.65639,57.68782322,11.98130498,57.68782317,11.98130533,15:13:02.342788,0.01055,0.00000,0.00000,-0.06831,0.00000,-0.00192,0.00263,0.00007,-0.05911,-0.09870,1.00113,0.64771,0.00000,1.23179,1.23179,0.03847,-0.01284,0.60588,0.05944,-0.01853,0.00000,0.00000,A,141224.80
0.66870,57.68782322,11.98130500,57.68782317,11.98130533,15:13:02.355098,0.00553,0.00000,0.00000,-0.06930,0.00000,-0.00253,-0.00256,0.00038,-0.06057,-0.10077,0.99778,0.66299,0.00000,1.04703,1.04703,0.03952,-0.01312,0.60588,0.05944,-0.01853,0.00000,0.00000,A,141224.80
0.67866,57.68782321,11.98130501,57.68782317,11.98130533,15:13:02.365052,0.00508,0.00000,0.00000,-0.07025,0.00000,-0.00269,-0.00119,-0.00100,-0.06185,-0.09992,0.99912,0.67331,0.00000,0.88997,0.88997,0.04051,-0.01339,0.60588,0.05944,-0.01853,0.00000,0.00000,A,141224.80
0.68900,57.68782321,11.98130503,57.68782317,11.98130533,15:13:02.375388,0.00518,0.00000,0.00000,-0.07112,0.00000,0.00128,-0.00119,-0.00100,-0.06130,-0.09803,0.99747,0.68335,0.00000,0.75648,0.75648,0.04146,-0.01365,0.60588,0.05944,-0.01853,0.00000,0.00000,A,141224.80
0.70122,57.68782321,11.98130505,57.68782317,11.98130533,15:13:02.387617,0.00700,0.00000,0.00000,-0.07196,0.00000,0.00434,0.00034,0.00007,-0.06063,-0.09906,0.99735,0.69396,0.00000,0.64300,0.64300,0.04236,-0.01389,0.60588,0.05944,-0.01853,0.00000,0.00000,A,141224.80
0.73388,57.68782321,11.98130506,57.68782333,11.98130533,15:13:02.420280,0.02926,0.00000,0.00000,-0.07287,0.00000,-0.00284,0.00462,-0.00146,-0.05923,-0.09967,0.99631,0.70413,0.00000,0.54655,0.54655,0.04321,-0.01412,0.73079,0.05944,0.00000,1.57080,1.57080,A,141225.00
0.75108,57.68782321,11.98130507,57.68782333,11.98130533,15:13:02.437722,0.00991,0.00000,0.00000,-0.07370,0.00000,0.00144,-0.00210,-0.00268,-0.06063,-0.10126,0.99875,0.74530,0.00000,0.70019,0.70019,0.04402,-0.01342,0.73079,0.05944,0.00000,1.57080,1.57080,A,141225.00
0.75729,57.68782322,11.98130509,57.68782333,11.98130533,15:13:02.443674,0.00506,0.00000,0.00000,-0.07457,0.00000,-0.00177,0.00248,-0.00146,-0.05899,-0.09974,0.99875,0.75167,0.00000,0.83078,0.83078,0.04479,-0.01275,0.73079,0.05944,0.00000,1.57080,1.57080,A,141225.00
0.76801,57.68782322,11.98130510,57.68782333,11.98130533,15:13:02.454410,0.00539,0.00000,0.00000,-0.07548,0.00000,-0.00345,-0.00073,-0.00283,-0.06191,-0.10218,0.99637,0.76238,0.00000,0.94178,0.94178,0.04553,-0.01211,0.73079,0.05944,0.00000,1.57080,1.57080,A,141225.00
0.77812,57.68782323,11.98130511,57.68782333,11.98130533,15:13:02.464503,0.00510,0.00000,0.00000,-0.07637,0.00000,-0.00544,0.00019,-0.00069,-0.05984,-0.09980,0.99869,0.77274,0.00000,1.03614,1.03614,0.04622,-0.01150,0.73079,0.05944,0.00000,1.57080,1.57080,A,141225.00
0.78891,57.68782324,11.98130512,57.68782333,11.98130533,15:13:02.475302,0.00524,0.00000,0.00000,-0.07725,0.00000,-0.00620,-0.00042,-0.00130,-0.06167,-0.09961,0.99717,0.78324,0.00000,1.11633,1.11633,0.04688,-0.01093,0.73079,0.05944,0.00000,1.57080,1.57080,A,141225.00
0.79916,57.68782324,11.98130513,57.68782333,11.98130533,15:13:02.485797,0.00508,0.00000,0.00000,-0.07807,0.00000,-0.00147,-0.00088,0.00007,-0.06076,-0.10004,0.99741,0.79379,0.00000,1.18450,1.18450,0.04751,-0.01038,0.73079,0.05944,0.00000,1.57080,1.57080,A,141225.00
0.80957,57.68782324,11.98130514,57.68782333,11.98130533,15:13:02.495974,0.00510,0.00000,0.00000,-0.07889,0.00000,-0.00635,0.00126,-0.00023,-0.05844,-0.09778,0.99894,0.80397,0.00000,1.24245,1.24245,0.04811,-0.00986,0.73079,0.05944,0.00000,1.57080,1.57080,A,141225.00
0.82042,57.68782325,11.98130515,57.68782333,11.98130533,15:13:02.506813,0.00555,0.00000,0.00000,-0.07965,0.00000,-0.00070,-0.00210,-0.00084,-0.06015,-0.09784,0.99747,0.81476,0.00000,1.29170,1.29170,0.04867,-0.00937,0.73079,0.05944,0.00000,1.57080,1.57080,A,141225.00
0.83036,57.68782325,11.98130516,57.68782333,11.98130533,15:13:02.516751,0.00508,0.00000,0.00000,-0.08040,0.00000,0.00266,-0.00027,-0.00100,-0.05941,-0.09992,0.99686,0.82499,0.00000,1.33356,1.33356,0.04921,-0.00890,0.73079,0.05944,0.00000,1.57080,1.57080,A,141225.00
0.85819,57.68782326,11.98130517,57.68782333,11.98130533,15:13:02.544581,0.02242,0.00000,0.00000,-0.08117,0.00000,0.00220,-0.00058,0.00053,-0.05850,-0.10242,0.99680,0.83581,0.00000,1.36915,1.36915,0.04972,-0.00846,0.85485,0.05944,0.00000,0.00000,0.00000,A,141225.10
0.86849,57.68782326,11.98130518,57.68782333,11.98130533,15:13:02.554878,0.00546,0.00000,0.00000,-0.08189,0.00000,0.00098,0.00171,0.00084,-0.06246,-0.09949,0.99723,0.86278,0.00000,1.16378,1.16378,0.05021,-0.00803,0.85485,0.05944,0.00000,0.00000,0.00000,A,141225.10
0.87840,57.68782326,11.98130519,57.68782333,11.98130533,15:13:02.564790,0.00497,0.00000,0.00000,-0.08260,0.00000,-0.00009,-0.00073,0.00007,-0.06130,-0.09864,0.99894,0.87305,0.00000,0.98921,0.98921,0.05067,-0.00763,0.85485,0.05944,0.00000,0.00000,0.00000,A,141225.10
0.88927,57.68782327,11.98130519,57.68782333,11.98130533,15:13:02.575670,0.00557,0.00000,0.00000,-0.08328,0.00000,0.00235,0.00217,0.00267,-0.06350,-0.09870,0.99851,0.88362,0.00000,0.84083,0.84083,0.05111,-0.00725,0.85485,0.05944,0.00000,0.00000,0.00000,A,141225.10
0.89964,57.68782327,11.98130520,57.68782333,11.98130533,15:13:02.586056,0.00510,0.00000,0.00000,-0.08395,0.00000,0.00373,0.00141,0.00084,-0.06399,-0.09906,0.99900,0.89384,0.00000,0.71470,0.71470,0.05152,-0.00689,0.85485,0.05944,0.00000,0.00000,0.00000,A,141225.10
0.90967,57.68782327,11.98130521,57.68782333,11.98130533,15:13:02.596067,0.00517,0.00000,0.00000,-0.08459,0.00000,0.00693,0.00171,-0.00146,-0.06332,-0.10035,0.99656,0.90402,0.00000,0.60750,0.60750,0.05192,-0.00654,0.85485,0.05944,0.00000,0.00000,0.00000,A,141225.10
0.92058,57.68782328,11.98130521,57.68782333,11.98130533,15:13:02.606978,0.00556,0.00000,0.00000,-0.08526,0.00000,0.00434,0.00095,-0.00298,-0.06350,-0.10120,0.99772,0.91476,0.00000,0.51637,0.51637,0.05230,-0.00622,0.85485,0.05944,0.00000,0.00000,0.00000,A,141225.10
0.93042,57.68782328,11.98130522,57.68782333,11.98130533,15:13:02.616817,0.00500,0.00000,0.00000,-0.08588,0.00000,0.00556,0.00065,-0.00497,-0.06496,-0.09919,0.99711,0.92505,0.00000,0.43892,0.43892,0.05265,-0.00591,0.85485,0.05944,0.00000,0.00000,0.00000,A,141225.10
0.94215,57.68782328,11.98130522,57.68782333,11.98130533,15:13:02.628563,0.00647,0.00000,0.00000,-0.08650,0.00000,0.00373,-0.00271,0.00053,-0.06277,-0.09882,0.99826,0.93523,0.00000,0.37308,0.37308,0.05299,-0.00561,0.85485,0.05944,0.00000,0.00000,0.00000,A,141225.10
0.95118,57.68782329,11.98130523,57.68782333,11.98130533,15:13:02.637819,0.00509,0.00000,0.00000,-0.08709,0.00000,0.00632,-0.00424,-0.00100,-0.06124,-0.09882,0.99759,0.94584,0.00000,0.31712,0.31712,0.05331,-0.00533,0.85485,0.05944,0.00000,0.00000,0.00000,A,141225.10
0.97570,57.68782329,11.98130524,57.68782333,11.98130550,15:13:02.662109,0.01921,0.00000,0.00000,-0.08773,0.00000,0.00235,-0.00149,0.00038,-0.05783,-0.10022,0.99436,0.95599,0.00000,0.26955,0.26955,0.05362,-0.00506,0.97220,0.06934,0.00000,0.00000,0.00000,A,141225.20
0.98581,57.68782329,11.98130525,57.68782333,11.98130550,15:13:02.672206,0.00519,0.00000,0.00000,-0.08822,0.00000,0.00648,-0.00119,0.00129,-0.05911,-0.09943,0.99772,0.98020,0.00000,0.22912,0.22912,0.05441,-0.00481,0.97220,0.06934,0.00000,0.00000,0.00000,A,141225.20
0.99639,57.68782329,11.98130526,57.68782333,11.98130550,15:13:02.682783,0.00537,0.00000,0.00000,-0.08884,0.00000,0.00342,0.00019,0.00114,-0.05777,-0.10108,0.99686,0.99074,0.00000,0.19475,0.19475,0.05515,-0.00457,0.97220,0.06934,0.00000,0.00000,0.00000,A,141225.20
1.00649,57.68782329,11.98130527,57.68782333,11.98130550,15:13:02.692883,0.00506,0.00000,0.00000,-0.08944,0.00000,0.00281,0.00217,0.00175,-0.05917,-0.09974,0.99613,1.00110,0.00000,0.16554,0.16554,0.05586,-0.00434,0.97220,0.06934,0.00000,0.00000,0.00000,A,141225.20
1.01708,57.68782330,11.98130528,57.68782333,11.98130550,15:13:02.703469,0.00537,0.00000,0.00000,-0.09004,0.00000,0.00250,-0.00363,-0.00023,-0.05801,-0.09986,0.99985,1.01126,0.00000,0.14071,0.14071,0.05654,-0.00412,0.97220,0.06934,0.00000,0.00000,0.00000,A,141225.20
1.02763,57.68782330,11.98130530,57.68782333,11.98130550,15:13:02.714036,0.00553,0.00000,0.00000,-0.09056,0.00000,0.00846,0.00232,0.00145,-0.05868,-0.09998,0.99772,1.02200,0.00000,0.11960,0.11960,0.05718,-0.00392,0.97220,0.06934,0.00000,0.00000,0.00000,A,141225.20
1.03888,57.68782330,11.98130531,57.68782333,11.98130550,15:13:02.725271,0.00638,0.00000,0.00000,-0.09111,0.00000,0.00205,-0.00027,-0.00039,-0.06033,-0.09754,0.99631,1.03343,0.00000,0.10166,0.10166,0.05779,-0.00372,0.97220,0.06934,0.00000,0.00000,0.00000,A,141225.20
1.04932,57.68782330,11.98130532,57.68782333,11.98130550,15:13:02.735708,0.00642,0.00000,0.00000,-0.09165,0.00000,0.00510,0.00324,0.00206,-0.06088,-0.09919,0.99704,1.04365,0.00000,0.08641,0.08641,0.05836,-0.00354,0.97220,0.06934,0.00000,0.00000,0.00000,A,141225.20
1.05837,57.68782330,11.98130532,57.68782333,11.98130550,15:13:02.744758,0.00507,0.00000,0.00000,-0.09223,0.00000,-0.00131,-0.00363,-0.00100,-0.05844,-0.09870,0.99930,1.05302,0.00000,0.07345,0.07345,0.05891,-0.00336,0.97220,0.06934,0.00000,0.00000,0.00000,A,141225.20
1.06898,57.68782330,11.98130533,57.68782333,11.98130550,15:13:02.755373,0.00519,0.00000,0.00000,-0.09282,0.00000,-0.00162,-0.00287,0.00053,-0.06063,-0.09925,0.99820,1.06334,0.00000,0.06243,0.06243,0.05943,-0.00319,0.97220,0.06934,0.00000,0.00000,0.00000,A,141225.20
1.09377,57.68782331,11.98130534,57.68782350,11.98130567,15:13:02.780161,0.01957,0.00000,0.00000,-0.09339,0.00000,0.00220,0.00034,-0.00039,-0.06198,-0.10102,0.99601,1.07395,0.00000,0.05307,0.05307,0.05993,-0.00303,1.08996,0.07925,0.01853,1.07991,1.07991,A,141225.30
1.10411,57.68782332,11.98130536,57.68782350,11.98130567,15:13:02.790501,0.00550,0.00000,0.00000,-0.09393,0.00000,0.00113,0.00171,-0.00176,-0.06381,-0.10047,0.99820,1.09843,0.00000,0.20709,0.20709,0.06090,-0.00195,1.08996,0.07925,0.01853,1.07991,1.07991,A,141225.30
1.11509,57.68782332,11.98130537,57.68782350,11.98130567,15:13:02.801748,0.00608,0.00000,0.00000,-0.09446,0.00000,0.00113,0.00324,0.00099,-0.06015,-0.09906,0.99833,1.10970,0.00000,0.33802,0.33802,0.06181,-0.00093,1.08996,0.07925,0.01853,1.07991,1.07991,A,141225.30
1.12503,57.68782333,11.98130539,57.68782350,11.98130567,15:13:02.811416,0.00537,0.00000,0.00000,-0.09496,0.00000,0.00342,-0.00241,0.00343,-0.06155,-0.09925,0.99778,1.11919,0.00000,0.44930,0.44930,0.06269,0.00004,1.08996,0.07925,0.01853,1.07991,1.07991,A,141225.30
1.13570,57.68782334,11.98130540,57.68782350,11.98130567,15:13:02.822104,0.00565,0.00000,0.00000,-0.09546,0.00000,0.00006,-0.00302,0.00099,-0.06265,-0.09717,0.99753,1.12978,0.00000,0.54389,0.54389,0.06351,0.00097,1.08996,0.07925,0.01853,1.07991,1.07991,A,141225.30
1.14571,57.68782335,11.98130542,57.68782350,11.98130567,15:13:02.832102,0.00526,0.00000,0.00000,-0.09599,0.00000,-0.00284,0.00202,-0.00008,-0.06124,-0.09736,0.99747,1.13997,0.00000,0.62429,0.62429,0.06430,0.00185,1.08996,0.07925,0.01853,1.07991,1.07991,A,141225.30
1.15626,57.68782336,11.98130543,57.68782350,11.98130567,15:13:02.842649,0.00540,0.00000,0.00000,-0.09653,0.00000,-0.00208,-0.00302,-0.00176,-0.06124,-0.10010,0.99833,1.15058,0.00000,0.69263,0.69263,0.06505,0.00268,1.08996,0.07925,0.01853,1.07991,1.07991,A,141225.30
1.16632,57.68782336,11.98130544,57.68782350,11.98130567,15:13:02.852713,0.00507,0.00000,0.00000,-0.09704,0.00000,-0.00009,0.00217,-0.00039,-0.06118,-0.09937,0.99747,1.16096,0.00000,0.75073,0.75073,0.06576,0.00347,1.08996,0.07925,0.01853,1.07991,1.07991,A,141225.30
1.17685,57.68782337,11.98130545,57.68782350,11.98130567,15:13:02.863238,0.00518,0.00000,0.00000,-0.09756,0.00000,-0.00238,-0.00271,0.00236,-0.05941,-0.09900,0.99863,1.17120,0.00000,0.80010,0.80010,0.06643,0.00423,1.08996,0.07925,0.01853,1.07991,1.07991,A,141225.30
1.18716,57.68782338,11.98130546,57.68782350,11.98130567,15:13:02.873797,0.00510,0.00000,0.00000,-0.09807,0.00000,-0.00131,-0.00012,-0.00115,-0.06173,-0.09949,0.99820,1.18180,0.00000,0.84207,0.84207,0.06707,0.00494,1.08996,0.07925,0.01853,1.07991,1.07991,A,141225.30
1.21221,57.68782338,11.98130547,57.68782333,11.98130600,15:13:02.898601,0.01974,0.00000,0.00000,-0.09858,0.00000,-0.00269,0.00171,-0.00023,-0.05819,-0.09919,0.99875,1.19197,0.00000,0.87775,0.87775,0.06768,0.00562,1.20832,0.09906,0.00000,-0.75203,-0.75203,A,141225.40
1.22363,57.68782338,11.98130550,57.68782333,11.98130600,15:13:02.910031,0.00561,0.00000,0.00000,-0.09918,0.00000,-0.00376,-0.00088,0.00145,-0.05649,-0.10138,0.99753,1.21783,0.00000,0.63328,0.63328,0.06925,0.00534,1.20832,0.09906,0.00000,-0.75203,-0.75203,A,141225.40
1.23353,57.68782338,11.98130552,57.68782333,11.98130600,15:13:02.919921,0.00512,0.00000,0.00000,-0.09973,0.00000,-0.00498,0.00187,0.00190,-0.05887,-0.10108,0.99704,1.22792,0.00000,0.42548,0.42548,0.07074,0.00507,1.20832,0.09906,0.00000,-0.75203,-0.75203,A,141225.40
1.24422,57.68782338,11.98130555,57.68782333,11.98130600,15:13:02.930611,0.00541,0.00000,0.00000,-0.10014,0.00000,0.00174,0.00553,0.00358,-0.05917,-0.09784,0.99936,1.23855,0.00000,0.24886,0.24886,0.07216,0.00482,1.20832,0.09906,0.00000,-0.75203,-0.75203,A,141225.40
1.25435,57.68782337,11.98130557,57.68782333,11.98130600,15:13:02.940741,0.00518,0.00000,0.00000,-0.10061,0.00000,-0.00360,0.00095,0.00419,-0.05758,-0.09790,0.99808,1.24896,0.00000,0.09872,0.09872,0.07350,0.00458,1.20832,0.09906,0.00000,-0.75203,-0.75203,A,141225.40
1.26485,57.68782337,11.98130559,57.68782333,11.98130600,15:13:02.951243,0.00519,0.00000,0.00000,-0.10108,0.00000,-0.00208,0.00141,-0.00069,-0.05856,-0.09980,0.99808,1.25921,0.00000,-0.02889,-0.02889,0.07478,0.00435,1.20832,0.09906,0.00000,-0.75203,-0.75203,A,141225.40
1.27517,57.68782337,11.98130561,57.68782333,11.98130600,15:13:02.961802,0.00511,0.00000,0.00000,-0.10155,0.00000,-0.00376,0.00278,-0.00436,-0.06326,-0.09870,0.99747,1.26980,0.00000,-0.13736,-0.13736,0.07599,0.00413,1.20832,0.09906,0.00000,-0.75203,-0.75203,A,141225.40
1.28583,57.68782337,11.98130563,57.68782333,11.98130600,15:13:02.972225,0.00537,0.00000,0.00000,-0.10200,0.00000,-0.00147,0.00294,0.00145,-0.06277,-0.09882,0.99631,1.27998,0.00000,-0.22956,-0.22956,0.07715,0.00393,1.20832,0.09906,0.00000,-0.75203,-0.75203,A,141225.40
1.29683,57.68782337,11.98130565,57.68782333,11.98130600,15:13:02.983229,0.00568,0.00000,0.00000,-0.10245,0.00000,-0.00315,-0.00119,0.00389,-0.06240,-0.09882,0.99698,1.29091,0.00000,-0.30793,-0.30793,0.07824,0.00373,1.20832,0.09906,0.00000,-0.75203,-0.75203,A,141225.40
1.30665,57.68782337,11.98130567,57.68782333,11.98130600,15:13:02.993044,0.00510,0.00000,0.00000,-0.10291,0.00000,-0.00131,0.00019,0.00084,-0.06387,-0.10126,0.99784,1.30129,0.00000,-0.37455,-0.37455,0.07928,0.00354,1.20832,0.09906,0.00000,-0.75203,-0.75203,A,141225.40
1.34053,57.68782336,11.98130568,57.68782317,11.98130650,15:13:03.026920,0.02875,0.00000,0.00000,-0.10333,0.00000,-0.00162,-0.00134,0.00251,-0.06118,-0.09864,0.99503,1.31151,0.00000,-0.43117,-0.43117,0.08027,0.00337,1.33780,0.12878,-0.01853,-0.55759,-0.55759,A,141225.60
1.35203,57.68782335,11.98130572,57.68782317,11.98130650,15:13:03.038430,0.00556,0.00000,0.00000,-0.10357,0.00000,0.00495,-0.00027,0.00206,-0.06301,-0.09955,0.99668,1.34636,0.00000,-0.45013,-0.45013,0.08270,0.00227,1.33780,0.12878,-0.01853,-0.55759,-0.55759,A,141225.60
1.36434,57.68782334,11.98130576,57.68782317,11.98130650,15:13:03.050728,0.00677,0.00000,0.00000,-0.10400,0.00000,0.00021,-0.00226,0.00099,-0.06252,-0.10120,0.99723,1.35860,0.00000,-0.46625,-0.46625,0.08500,0.00123,1.33780,0.12878,-0.01853,-0.55759,-0.55759,A,141225.60
1.37309,57.68782334,11.98130580,57.68782317,11.98130650,15:13:03.059478,0.00529,0.00000,0.00000,-0.10441,0.00000,-0.00253,0.00080,-0.00390,-0.06179,-0.09876,0.99802,1.36735,0.00000,-0.47995,-0.47995,0.08719,0.00024,1.33780,0.12878,-0.01853,-0.55759,-0.55759,A,141225.60
1.38355,57.68782333,11.98130584,57.68782317,11.98130650,15:13:03.069951,0.00535,0.00000,0.00000,-0.10481,0.00000,0.00021,-0.00226,-0.00039,-0.06106,-0.10028,0.99723,1.37795,0.00000,-0.49160,-0.49160,0.08927,-0.00070,1.33780,0.12878,-0.01853,-0.55759,-0.55759,A,141225.60
1.39370,57.68782332,11.98130587,57.68782317,11.98130650,15:13:03.080092,0.00510,0.00000,0.00000,-0.10521,0.00000,0.00052,-0.00027,0.00190,-0.06002,-0.10053,0.99692,1.38811,0.00000,-0.50150,-0.50150,0.09125,-0.00159,1.33780,0.12878,-0.01853,-0.55759,-0.55759,A,141225.60
1.40438,57.68782331,11.98130590,57.68782317,11.98130650,15:13:03.090770,0.00537,0.00000,0.00000,-0.10563,0.00000,-0.00360,-0.00103,-0.00344,-0.05819,-0.09949,0.99778,1.39873,0.00000,-0.50991,-0.50991,0.09312,-0.00244,1.33780,0.12878,-0.01853,-0.55759,-0.55759,A,141225.60
1.41440,57.68782330,11.98130593,57.68782317,11.98130650,15:13:03.100794,0.00500,0.00000,0.00000,-0.10600,0.00000,-0.00070,-0.00165,-0.00008,-0.05862,-0.09931,0.99753,1.40904,0.00000,-0.51706,-0.51706,0.09491,-0.00324,1.33780,0.12878,-0.01853,-0.55759,-0.55759,A,141225.60
1.42496,57.68782330,11.98130596,57.68782317,11.98130650,15:13:03.111361,0.00529,0.00000,0.00000,-0.10638,0.00000,0.00113,-0.00241,0.00007,-0.05874,-0.10059,0.99820,1.41931,0.00000,-0.52314,-0.52314,0.09660,-0.00400,1.33780,0.12878,-0.01853,-0.55759,-0.55759,A,141225.60
1.43562,57.68782329,11.98130599,57.68782317,11.98130650,15:13:03.122022,0.00554,0.00000,0.00000,-0.10666,0.00000,0.00724,0.00019,0.00190,-0.05856,-0.09913,0.99814,1.42982,0.00000,-0.52831,-0.52831,0.09821,-0.00473,1.33780,0.12878,-0.01853,-0.55759,-0.55759,A,141225.60
1.46154,57.68782328,11.98130601,57.68782300,11.98130650,15:13:03.147935,0.02106,0.00000,0.00000,-0.10702,0.00000,0.00128,0.00080,0.00282,-0.05929,-0.10108,0.99887,1.44133,0.00000,-0.53270,-0.53270,0.09974,-0.00542,1.45812,0.12878,-0.03706,-1.57080,-1.57080,A,141225.70
1.47674,57.68782327,11.98130604,57.68782300,11.98130650,15:13:03.163125,0.00668,0.00000,0.00000,-0.10732,0.00000,0.00205,-0.00073,0.00053,-0.05850,-0.09980,0.99729,1.47104,0.00000,-0.68842,-0.68842,0.10119,-0.00700,1.45812,0.12878,-0.03706,-1.57080,-1.57080,A,141225.70
1.48556,57.68782326,11.98130606,57.68782300,11.98130650,15:13:03.171952,0.00510,0.00000,0.00000,-0.10762,0.00000,0.00189,-0.00134,0.00221,-0.06124,-0.09736,0.99796,1.47997,0.00000,-0.82077,-0.82077,0.10257,-0.00851,1.45812,0.12878,-0.03706,-1.57080,-1.57080,A,141225.70
1.49625,57.68782324,11.98130608,57.68782300,11.98130650,15:13:03.182642,0.00539,0.00000,0.00000,-0.10798,0.00000,-0.00040,-0.00134,0.00328,-0.06008,-0.10022,0.99802,1.49059,0.00000,-0.93328,-0.93328,0.10388,-0.00993,1.45812,0.12878,-0.03706,-1.57080,-1.57080,A,141225.70
1.50779,57.68782323,11.98130610,57.68782300,11.98130650,15:13:03.194191,0.00653,0.00000,0.00000,-0.10829,0.00000,0.00021,-0.00241,-0.00420,-0.06259,-0.09803,0.99991,1.50095,0.00000,-1.02890,-1.02890,0.10513,-0.01129,1.45812,0.12878,-0.03706,-1.57080,-1.57080,A,141225.70
1.51709,57.68782322,11.98130612,57.68782300,11.98130650,15:13:03.203481,0.00543,0.00000,0.00000,-0.10856,0.00000,0.00373,-0.00088,0.00007,-0.05960,-0.09803,0.99814,1.51143,0.00000,-1.11019,-1.11019,0.10631,-0.01258,1.45812,0.12878,-0.03706,-1.57080,-1.57080,A,141225.70
1.52753,57.68782321,11.98130614,57.68782300,11.98130650,15:13:03.213932,0.00554,0.00000,0.00000,-0.10892,0.00000,-0.00131,-0.00149,-0.00161,-0.06332,-0.09992,0.99643,1.52188,0.00000,-1.17928,-1.17928,0.10743,-0.01380,1.45812,0.12878,-0.03706,-1.57080,-1.57080,A,141225.70
1.53772,57.68782320,11.98130616,57.68782300,11.98130650,15:13:03.224118,0.00534,0.00000,0.00000,-0.10924,0.00000,-0.00040,-0.00256,-0.00008,-0.06356,-0.09949,0.99839,1.53189,0.00000,-1.23801,-1.23801,0.10850,-0.01497,1.45812,0.12878,-0.03706,-1.57080,-1.57080,A,141225.70
1.54821,57.68782319,11.98130618,57.68782300,11.98130650,15:13:03.234603,0.00542,0.00000,0.00000,-0.10955,0.00000,0.00021,0.00232,0.00160,-0.06069,-0.09906,0.99723,1.54252,0.00000,-1.28793,-1.28793,0.10951,-0.01607,1.45812,0.12878,-0.03706,-1.57080,-1.57080,A,141225.70
1.57465,57.68782318,11.98130619,57.68782300,11.98130700,15:13:03.261036,0.02119,0.00000,0.00000,-0.10987,0.00000,-0.00009,0.00232,-0.00298,-0.06082,-0.09974,0.99759,1.55325,0.00000,-1.33036,-1.33036,0.11048,-0.01712,1.57198,0.15850,-0.03706,0.00000,0.00000,A,141225.80
1.58505,57.68782317,11.98130623,57.68782300,11.98130700,15:13:03.271444,0.00528,0.00000,0.00000,-0.11017,0.00000,-0.00024,-0.00271,0.00114,-0.05984,-0.09778,0.99735,1.57935,0.00000,-1.13080,-1.13080,0.11288,-0.01812,1.57198,0.15850,-0.03706,0.00000,0.00000,A,141225.80
1.59550,57.68782316,11.98130627,57.68782300,11.98130700,15:13:03.281901,0.00533,0.00000,0.00000,-0.11050,0.00000,-0.00177,0.00263,-0.00023,-0.06100,-0.10047,0.99845,1.58991,0.00000,-0.96118,-0.96118,0.11516,-0.01907,1.57198,0.15850,-0.03706,0.00000,0.00000,A,141225.80
1.60566,57.68782315,11.98130631,57.68782300,11.98130700,15:13:03.292048,0.00509,0.00000,0.00000,-0.11079,0.00000,-0.00009,-0.00027,-0.00298,-0.05746,-0.09839,0.99717,1.60008,0.00000,-0.81700,-0.81700,0.11733,-0.01997,1.57198,0.15850,-0.03706,0.00000,0.00000,A,141225.80
1.61746,57.68782315,11.98130634,57.68782300,11.98130700,15:13:03.303850,0.00605,0.00000,0.00000,-0.11111,0.00000,-0.00391,-0.00348,-0.00023,-0.05813,-0.09845,1.00040,1.61142,0.00000,-0.69445,-0.69445,0.11938,-0.02082,1.57198,0.15850,-0.03706,0.00000,0.00000,A,141225.80
1.62690,57.68782314,11.98130637,57.68782300,11.98130700,15:13:03.313284,0.00509,0.00000,0.00000,-0.11142,0.00000,-0.00330,0.00110,-0.00176,-0.05734,-0.09858,0.99625,1.62153,0.00000,-0.59029,-0.59029,0.12134,-0.02163,1.57198,0.15850,-0.03706,0.00000,0.00000,A,141225.80
1.63750,57.68782313,11.98130641,57.68782300,11.98130700,15:13:03.323890,0.00546,0.00000,0.00000,-0.11172,0.00000,-0.00085,0.00003,0.00038,-0.05752,-0.09949,0.99772,1.63158,0.00000,-0.50174,-0.50174,0.12320,-0.02240,1.57198,0.15850,-0.03706,0.00000,0.00000,A,141225.80
1.64780,57.68782313,11.98130644,57.68782300,11.98130700,15:13:03.334195,0.00536,0.00000,0.00000,-0.11196,0.00000,0.00159,-0.00042,-0.00084,-0.06069,-0.09797,0.99717,1.64220,0.00000,-0.42648,-0.42648,0.12496,-0.02314,1.57198,0.15850,-0.03706,0.00000,0.00000,A,141225.80
1.65879,57.68782312,11.98130646,57.68782300,11.98130700,15:13:03.345192,0.00595,0.00000,0.00000,-0.11229,0.00000,-0.00498,-0.00012,0.00358,-0.06124,-0.09943,0.99741,1.65255,0.00000,-0.36251,-0.36251,0.12664,-0.02383,1.57198,0.15850,-0.03706,0.00000,0.00000,A,141225.80
1.66862,57.68782311,11.98130649,57.68782300,11.98130700,15:13:03.355015,0.00519,0.00000,0.00000,-0.11259,0.00000,-0.00253,-0.00165,-0.00023,-0.06143,-0.09937,0.99772,1.66296,0.00000,-0.30813,-0.30813,0.12823,-0.02450,1.57198,0.15850,-0.03706,0.00000,0.00000,A,141225.80
1.69241,57.68782311,11.98130652,57.68782300,11.98130683,15:13:03.378798,0.01858,0.00000,0.00000,-0.11292,0.00000,-0.00574,-0.00058,0.00099,-0.06246,-0.09949,0.99674,1.67358,0.00000,-0.26191,-0.26191,0.12975,-0.02512,1.68947,0.14859,-0.03706,3.14159,3.14159,A,141225.90
1.70246,57.68782310,11.98130653,57.68782300,11.98130683,15:13:03.388846,0.00511,0.00000,0.00000,-0.11310,0.00000,0.00281,0.00400,-0.00115,-0.06356,-0.09858,0.99741,1.69708,0.00000,0.24861,0.24861,0.13069,-0.02572,1.68947,0.14859,-0.03706,3.14159,3.14159,A,141225.90
1.71615,57.68782310,11.98130655,57.68782300,11.98130683,15:13:03.402573,0.00848,0.00000,0.00000,-0.11352,0.00000,-0.00452,0.00324,0.00022,-0.06106,-0.10583,0.99460,1.70919,0.00000,0.68256,0.68256,0.13158,-0.02629,1.68947,0.14859,-0.03706,3.14159,3.14159,A,141225.90
1.72356,57.68782309,11.98130656,57.68782300,11.98130683,15:13:03.409964,0.00549,0.00000,0.00000,-0.11374,0.00000,-0.00055,0.00080,-0.00222,-0.06252,-0.09705,0.99741,1.71795,0.00000,1.05141,1.05141,0.13243,-0.02683,1.68947,0.14859,-0.03706,3.14159,3.14159,A,141225.90
1.73367,57.68782309,11.98130658,57.68782300,11.98130683,15:13:03.420061,0.00519,0.00000,0.00000,-0.11402,0.00000,-0.00009,0.00385,-0.00283,-0.06045,-0.10077,0.99686,1.72799,0.00000,1.36494,1.36494,0.13324,-0.02734,1.68947,0.14859,-0.03706,3.14159,3.14159,A,141225.90
1.74428,57.68782308,11.98130659,57.68782300,11.98130683,15:13:03.430670,0.00539,0.00000,0.00000,-0.11428,0.00000,0.00082,-0.00241,-0.00008,-0.06143,-0.10083,0.99802,1.73860,0.00000,1.63144,1.63144,0.13401,-0.02783,1.68947,0.14859,-0.03706,3.14159,3.14159,A,141225.90
1.75452,57.68782308,11.98130660,57.68782300,11.98130683,15:13:03.440914,0.00523,0.00000,0.00000,-0.11451,0.00000,-0.00085,-0.00119,-0.00359,-0.05813,-0.09833,0.99729,1.74915,0.00000,1.85796,1.85796,0.13474,-0.02829,1.68947,0.14859,-0.03706,3.14159,3.14159,A,141225.90
1.76497,57.68782307,11.98130661,57.68782300,11.98130683,15:13:03.451357,0.00529,0.00000,0.00000,-0.11474,0.00000,-0.00253,0.00034,-0.00008,-0.05819,-0.09711,0.99698,1.75924,0.00000,2.05051,2.05051,0.13543,-0.02873,1.68947,0.14859,-0.03706,3.14159,3.14159,A,141225.90
1.77544,57.68782307,11.98130662,57.68782300,11.98130683,15:13:03.461842,0.00534,0.00000,0.00000,-0.11501,0.00000,-0.00299,-0.00302,-0.00039,-0.06252,-0.09943,0.99643,1.76984,0.00000,2.21417,2.21417,0.13609,-0.02914,1.68947,0.14859,-0.03706,3.14159,3.14159,A,141225.90
1.78558,57.68782307,11.98130663,57.68782300,11.98130683,15:13:03.471972,0.00508,0.00000,0.00000,-0.11528,0.00000,-0.00269,-0.00317,-0.00039,-0.06130,-0.09974,0.99753,1.78000,0.00000,2.35328,2.35328,0.13671,-0.02954,1.68947,0.14859,-0.03706,3.14159,3.14159,A,141225.90
1.81029,57.68782306,11.98130664,57.68782333,11.98130667,15:13:03.496683,0.01939,0.00000,0.00000,-0.11551,0.00000,0.00128,0.00049,-0.00069,-0.06143,-0.10065,0.99759,1.79063,0.00000,2.47153,2.47153,0.13731,-0.02992,1.80657,0.13869,0.00000,1.83196,1.83196,A,141226.00
1.82306,57.68782308,11.98130664,57.68782333,11.98130667,15:13:03.509698,0.00770,0.00000,0.00000,-0.11571,0.00000,-0.00101,-0.00027,0.00068,-0.05911,-0.09638,0.99869,1.81704,0.00000,2.37559,2.37559,0.13738,-0.02842,1.80657,0.13869,0.00000,1.83196,1.83196,A,141226.00
1.83235,57.68782309,11.98130665,57.68782333,11.98130667,15:13:03.518746,0.00680,0.00000,0.00000,-0.11588,0.00000,0.00113,0.00171,-0.00375,-0.05679,-0.09656,0.99735,1.82660,0.00000,2.29405,2.29405,0.13744,-0.02700,1.80657,0.13869,0.00000,1.83196,1.83196,A,141226.00
1.84120,57.68782310,11.98130665,57.68782333,11.98130667,15:13:03.527596,0.00542,0.00000,0.00000,-0.11611,0.00000,-0.00192,0.00187,0.00328,-0.05661,-0.09894,0.99729,1.83557,0.00000,2.22473,2.22473,0.13751,-0.02565,1.80657,0.13869,0.00000,1.83196,1.83196,A,141226.00
1.85150,57.68782311,11.98130665,57.68782333,11.98130667,15:13:03.537902,0.00532,0.00000,0.00000,-0.11632,0.00000,-0.00024,0.00003,0.00328,-0.06094,-0.09919,0.99869,1.84591,0.00000,2.16582,2.16582,0.13756,-0.02437,1.80657,0.13869,0.00000,1.83196,1.83196,A,141226.00
1.86202,57.68782313,11.98130665,57.68782333,11.98130667,15:13:03.548429,0.00544,0.00000,0.00000,-0.11652,0.00000,0.00266,-0.00042,-0.00008,-0.05765,-0.10035,0.99826,1.85608,0.00000,2.11574,2.11574,0.13762,-0.02315,1.80657,0.13869,0.00000,1.83196,1.83196,A,141226.00
1.87246,57.68782314,11.98130665,57.68782333,11.98130667,15:13:03.558846,0.00547,0.00000,0.00000,-0.11667,0.00000,0.00663,0.00034,0.00313,-0.06027,-0.09937,0.99375,1.86672,0.00000,2.07317,2.07317,0.13767,-0.02199,1.80657,0.13869,0.00000,1.83196,1.83196,A,141226.00
1.88242,57.68782315,11.98130665,57.68782333,11.98130667,15:13:03.568811,0.00504,0.00000,0.00000,-0.11681,0.00000,0.00678,0.00232,0.00221,-0.05935,-0.09998,0.99784,1.87705,0.00000,2.03699,2.03699,0.13772,-0.02089,1.80657,0.13869,0.00000,1.83196,1.83196,A,141226.00
1.89287,57.68782315,11.98130665,57.68782333,11.98130667,15:13:03.579261,0.00519,0.00000,0.00000,-0.11698,0.00000,0.00556,0.00141,-0.00023,-0.06063,-0.10022,0.99631,1.88723,0.00000,2.00624,2.00624,0.13777,-0.01985,1.80657,0.13869,0.00000,1.83196,1.83196,A,141226.00
1.90357,57.68782316,11.98130665,57.68782333,11.98130667,15:13:03.589971,0.00548,0.00000,0.00000,-0.11720,0.00000,0.00037,-0.00119,0.00099,-0.06027,-0.10077,0.99735,1.89796,0.00000,1.98009,1.98009,0.13782,-0.01885,1.80657,0.13869,0.00000,1.83196,1.83196,A,141226.00
1.94128,57.68782317,11.98130665,57.68782350,11.98130650,15:13:03.627667,0.03279,0.00000,0.00000,-0.11737,0.00000,0.00189,0.00065,0.00450,-0.06185,-0.09882,0.99784,1.90799,0.00000,1.95787,1.95787,0.13786,-0.01791,1.93788,0.12878,0.01853,2.06169,2.06169,A,141226.20
1.95164,57.68782319,11.98130665,57.68782350,11.98130650,15:13:03.638042,0.00545,0.00000,0.00000,-0.11753,0.00000,0.00128,0.00126,0.00022,-0.06216,-0.10053,0.99747,1.94600,0.00000,1.97345,1.97345,0.13741,-0.01609,1.93788,0.12878,0.01853,2.06169,2.06169,A,141226.20
1.96169,57.68782320,11.98130664,57.68782350,11.98130650,15:13:03.648084,0.00510,0.00000,0.00000,-0.11773,0.00000,0.00082,-0.00027,0.00007,-0.06289,-0.10053,0.99790,1.95610,0.00000,1.98668,1.98668,0.13698,-0.01436,1.93788,0.12878,0.01853,2.06169,2.06169,A,141226.20
1.97237,57.68782322,11.98130663,57.68782350,11.98130650,15:13:03.658763,0.00538,0.00000,0.00000,-0.11782,0.00000,0.00464,0.00095,-0.00252,-0.06332,-0.09559,0.99875,1.96672,0.00000,1.99793,1.99793,0.13657,-0.01271,1.93788,0.12878,0.01853,2.06169,2.06169,A,141226.20
1.98293,57.68782323,11.98130662,57.68782350,11.98130650,15:13:03.669323,0.00554,0.00000,0.00000,-0.11800,0.00000,0.00052,0.00309,0.00145,-0.06228,-0.09913,0.99741,1.97702,0.00000,2.00750,2.00750,0.13618,-0.01115,1.93788,0.12878,0.01853,2.06169,2.06169,A,141226.20
1.99291,57.68782325,11.98130662,57.68782350,11.98130650,15:13:03.679303,0.00523,0.00000,0.00000,-0.11818,0.00000,-0.00116,-0.00287,0.00297,-0.06027,-0.09833,0.99942,1.98723,0.00000,2.01562,2.01562,0.13581,-0.00967,1.93788,0.12878,0.01853,2.06169,2.06169,A,141226.20
2.00319,57.68782326,11.98130661,57.68782350,11.98130650,15:13:03.689822,0.00511,0.00000,0.00000,-0.11837,0.00000,-0.00116,-0.00424,0.00175,-0.05948,-0.09894,0.99765,1.99781,0.00000,2.02253,2.02253,0.13546,-0.00826,1.93788,0.12878,0.01853,2.06169,2.06169,A,141226.20
2.01510,57.68782327,11.98130661,57.68782350,11.98130650,15:13:03.701838,0.00662,0.00000,0.00000,-0.11854,0.00000,-0.00223,0.00187,-0.00023,-0.06057,-0.09717,0.99826,2.00800,0.00000,2.02841,2.02841,0.13512,-0.00692,1.93788,0.12878,0.01853,2.06169,2.06169,A,141226.20
2.02778,57.68782328,11.98130660,57.68782350,11.98130650,15:13:03.714184,0.00891,0.00000,0.00000,-0.11871,0.00000,-0.00009,0.00385,-0.00375,-0.06008,-0.09882,0.99643,2.01861,0.00000,2.03340,2.03340,0.13481,-0.00565,1.93788,0.12878,0.01853,2.06169,2.06169,A,141226.20
2.03602,57.68782329,11.98130660,57.68782350,11.98130650,15:13:03.722419,0.00693,0.00000,0.00000,-0.11889,0.00000,-0.00131,0.00263,-0.00466,-0.06008,-0.09851,0.99643,2.02947,0.00000,2.03764,2.03764,0.13450,-0.00444,1.93788,0.12878,0.01853,2.06169,2.06169,A,141226.20
2.05953,57.68782330,11.98130659,57.68782333,11.98130700,15:13:03.745936,0.01990,0.00000,0.00000,-0.11906,0.00000,0.00006,-0.00149,-0.00359,-0.05765,-0.09876,0.99619,2.03918,0.00000,2.04125,2.04125,0.13422,-0.00329,2.05515,0.15850,0.00000,-0.55759,-0.55759,A,141226.30
2.07183,57.68782331,11.98130661,57.68782333,11.98130700,15:13:03.758221,0.00734,0.00000,0.00000,-0.11928,0.00000,-0.00208,0.00278,-0.00023,-0.05655,-0.09967,0.99851,2.06601,0.00000,1.65142,1.65142,0.13543,-0.00312,2.05515,0.15850,0.00000,-0.55759,-0.55759,A,141226.30
2.08039,57.68782331,11.98130663,57.68782333,11.98130700,15:13:03.766777,0.00549,0.00000,0.00000,-0.11948,0.00000,0.00006,0.00232,0.00114,-0.05716,-0.10126,0.99778,2.07463,0.00000,1.32007,1.32007,0.13659,-0.00297,2.05515,0.15850,0.00000,-0.55759,-0.55759,A,141226.30
2.09053,57.68782331,11.98130665,57.68782333,11.98130700,15:13:03.776915,0.00524,0.00000,0.00000,-0.11962,0.00000,-0.00055,0.00003,0.00221,-0.05703,-0.09778,0.99833,2.08506,0.00000,1.03842,1.03842,0.13768,-0.00282,2.05515,0.15850,0.00000,-0.55759,-0.55759,A,141226.30
2.10109,57.68782331,11.98130667,57.68782333,11.98130700,15:13:03.787485,0.00542,0.00000,0.00000,-0.11982,0.00000,-0.00284,0.00049,-0.00008,-0.05899,-0.09967,0.99790,2.09522,0.00000,0.79902,0.79902,0.13872,-0.00268,2.05515,0.15850,0.00000,-0.55759,-0.55759,A,141226.30
2.11149,57.68782331,11.98130668,57.68782333,11.98130700,15:13:03.797890,0.00542,0.00000,0.00000,-0.12001,0.00000,-0.00452,0.00003,0.00267,-0.05941,-0.09858,0.99918,2.10581,0.00000,0.59553,0.59553,0.13971,-0.00254,2.05515,0.15850,0.00000,-0.55759,-0.55759,A,141226.30
2.12166,57.68782331,11.98130670,57.68782333,11.98130700,15:13:03.808247,0.00518,0.00000,0.00000,-0.12018,0.00000,-0.00238,0.00217,-0.00161,-0.06265,-0.09882,0.99790,2.11598,0.00000,0.42256,0.42256,0.14065,-0.00242,2.05515,0.15850,0.00000,-0.55759,-0.55759,A,141226.30
2.13512,57.68782331,11.98130671,57.68782333,11.98130700,15:13:03.821760,0.00825,0.00000,0.00000,-0.12036,0.00000,-0.00253,0.00019,0.00282,-0.06368,-0.09858,0.99814,2.12915,0.00000,0.27554,0.27554,0.14154,-0.00230,2.05515,0.15850,0.00000,-0.55759,-0.55759,A,141226.30
2.14349,57.68782331,11.98130673,57.68782333,11.98130700,15:13:03.829889,0.00627,0.00000,0.00000,-0.12051,0.00000,-0.00299,0.00324,-0.00100,-0.06631,-0.09790,0.99741,2.13779,0.00000,0.15057,0.15057,0.14239,-0.00218,2.05515,0.15850,0.00000,-0.55759,-0.55759,A,141226.30
2.15294,57.68782331,11.98130674,57.68782333,11.98130700,15:13:03.839324,0.00527,0.00000,0.00000,-0.12075,0.00000,-0.00589,0.00110,-0.00008,-0.06728,-0.10144,0.99741,2.14719,0.00000,0.04434,0.04434,0.14320,-0.00207,2.05515,0.15850,0.00000,-0.55759,-0.55759,A,141226.30
2.17843,57.68782332,11.98130676,57.68782317,11.98130733,15:13:03.864820,0.02037,0.00000,0.00000,-0.12096,0.00000,-0.00498,-0.00073,0.00175,-0.06277,-0.10059,0.99802,2.15780,0.00000,-0.04595,-0.04595,0.14396,-0.00197,2.17385,0.17831,-0.01853,-0.75203,-0.75203,A,141226.40
2.18883,57.68782331,11.98130678,57.68782317,11.98130733,15:13:03.875216,0.00541,0.00000,0.00000,-0.12132,0.00000,-0.00391,-0.00027,-0.00283,-0.06100,-0.10730,0.99589,2.18301,0.00000,-0.15186,-0.15186,0.14568,-0.00280,2.17385,0.17831,-0.01853,-0.75203,-0.75203,A,141226.40
2.19911,57.68782330,11.98130681,57.68782317,11.98130733,15:13:03.885755,0.00528,0.00000,0.00000,-0.12137,0.00000,-0.00009,0.00156,-0.00100,-0.06088,-0.09351,0.99790,2.19364,0.00000,-0.24188,-0.24188,0.14731,-0.00358,2.17385,0.17831,-0.01853,-0.75203,-0.75203,A,141226.40
2.20930,57.68782329,11.98130684,57.68782317,11.98130733,15:13:03.895693,0.00525,0.00000,0.00000,-0.12149,0.00000,0.00128,0.00019,-0.00084,-0.05703,-0.09955,1.00046,2.20361,0.00000,-0.31841,-0.31841,0.14886,-0.00433,2.17385,0.17831,-0.01853,-0.75203,-0.75203,A,141226.40
2.22017,57.68782329,11.98130686,57.68782317,11.98130733,15:13:03.906565,0.00572,0.00000,0.00000,-0.12159,0.00000,0.00113,0.00156,-0.00008,-0.05746,-0.09815,0.99948,2.21421,0.00000,-0.38345,-0.38345,0.15033,-0.00504,2.17385,0.17831,-0.01853,-0.75203,-0.75203,A,141226.40
2.23370,57.68782328,11.98130689,57.68782317,11.98130733,15:13:03.920107,0.00884,0.00000,0.00000,-0.12175,0.00000,0.00021,0.00248,-0.00482,-0.05783,-0.10089,0.99711,2.22458,0.00000,-0.43874,-0.43874,0.15173,-0.00572,2.17385,0.17831,-0.01853,-0.75203,-0.75203,A,141226.40
2.24080,57.68782328,11.98130691,57.68782317,11.98130733,15:13:03.927180,0.00573,0.00000,0.00000,-0.12193,0.00000,-0.00406,-0.00119,-0.00252,-0.05734,-0.10004,0.99479,2.23501,0.00000,-0.48573,-0.48573,0.15306,-0.00636,2.17385,0.17831,-0.01853,-0.75203,-0.75203,A,141226.40
2.25063,57.68782327,11.98130693,57.68782317,11.98130733,15:13:03.937021,0.00517,0.00000,0.00000,-0.12214,0.00000,-0.00131,-0.00302,-0.00039,-0.05880,-0.10309,0.99381,2.24518,0.00000,-0.52568,-0.52568,0.15432,-0.00697,2.17385,0.17831,-0.01853,-0.75203,-0.75203,A,141226.40
2.26098,57.68782327,11.98130695,57.68782317,11.98130733,15:13:03.947366,0.00528,0.00000,0.00000,-0.12226,0.00000,0.00296,-0.00103,-0.00283,-0.06015,-0.10102,0.99631,2.25525,0.00000,-0.55963,-0.55963,0.15552,-0.00754,2.17385,0.17831,-0.01853,-0.75203,-0.75203,A,141226.40
2.27180,57.68782326,11.98130697,57.68782317,11.98130733,15:13:03.958207,0.00570,0.00000,0.00000,-0.12227,0.00000,0.00403,0.00034,0.00175,-0.06063,-0.09510,0.99814,2.26583,0.00000,-0.58849,-0.58849,0.15666,-0.00809,2.17385,0.17831,-0.01853,-0.75203,-0.75203,A,141226.40
2.29614,57.68782326,11.98130699,57.68782317,11.98130733,15:13:03.982537,0.01964,0.00000,0.00000,-0.12237,0.00000,-0.00055,0.00080,0.00114,-0.05935,-0.09736,0.99778,2.27657,0.00000,-0.61302,-0.61302,0.15774,-0.00862,2.29245,0.17831,-0.01853,0.00000,0.00000,A,141226.50
2.30945,57.68782325,11.98130700,57.68782317,11.98130733,15:13:03.995842,0.00800,0.00000,0.00000,-0.12237,0.00000,0.00495,0.00171,-0.00115,-0.05935,-0.09931,0.99643,2.30266,0.00000,-0.52107,-0.52107,0.15877,-0.00911,2.29245,0.17831,-0.01853,0.00000,0.00000,A,141226.50
2.31708,57.68782325,11.98130702,57.68782317,11.98130733,15:13:04.003464,0.00546,0.00000,0.00000,-0.12249,0.00000,0.00174,-0.00058,-0.00161,-0.06155,-0.10022,0.99619,2.31131,0.00000,-0.44291,-0.44291,0.15975,-0.00958,2.29245,0.17831,-0.01853,0.00000,0.00000,A,141226.50
2.32742,57.68782324,11.98130704,57.68782317,11.98130733,15:13:04.013829,0.00518,0.00000,0.00000,-0.12265,0.00000,-0.00177,0.00171,0.00206,-0.05923,-0.10138,0.99820,2.32174,0.00000,-0.37647,-0.37647,0.16068,-0.01003,2.29245,0.17831,-0.01853,0.00000,0.00000,A,141226.50
2.33791,57.68782324,11.98130705,57.68782317,11.98130733,15:13:04.024309,0.00549,0.00000,0.00000,-0.12277,0.00000,-0.00085,0.00263,0.00389,-0.06216,-0.09870,0.99753,2.33192,0.00000,-0.32000,-0.32000,0.16156,-0.01045,2.29245,0.17831,-0.01853,0.00000,0.00000,A,141226.50
2.34860,57.68782324,11.98130707,57.68782317,11.98130733,15:13:04.034997,0.00578,0.00000,0.00000,-0.12289,0.00000,0.00098,0.00095,0.00145,-0.06143,-0.10022,0.99759,2.34282,0.00000,-0.27200,-0.27200,0.16240,-0.01086,2.29245,0.17831,-0.01853,0.00000,0.00000,A,141226.50
2.35840,57.68782323,11.98130708,57.68782317,11.98130733,15:13:04.044795,0.00518,0.00000,0.00000,-0.12297,0.00000,0.00128,0.00324,0.00084,-0.06350,-0.09858,0.99961,2.35294,0.00000,-0.23120,-0.23120,0.16319,-0.01124,2.29245,0.17831,-0.01853,0.00000,0.00000,A,141226.50
2.36895,57.68782323,11.98130709,57.68782317,11.98130733,15:13:04.055343,0.00528,0.00000,0.00000,-0.12307,0.00000,0.00159,0.00126,0.00068,-0.06307,-0.09955,1.00028,2.36320,0.00000,-0.19652,-0.19652,0.16395,-0.01161,2.29245,0.17831,-0.01853,0.00000,0.00000,A,141226.50
2.37949,57.68782323,11.98130710,57.68782317,11.98130733,15:13:04.065895,0.00543,0.00000,0.00000,-0.12315,0.00000,0.00418,-0.00073,-0.00222,-0.06405,-0.10071,0.99967,2.37380,0.00000,-0.16704,-0.16704,0.16467,-0.01195,2.29245,0.17831,-0.01853,0.00000,0.00000,A,141226.50
2.38967,57.68782322,11.98130712,57.68782317,11.98130733,15:13:04.076063,0.00520,0.00000,0.00000,-0.12321,0.00000,0.00602,0.00110,-0.00130,-0.06442,-0.10028,0.99595,2.38399,0.00000,-0.14199,-0.14199,0.16535,-0.01228,2.29245,0.17831,-0.01853,0.00000,0.00000,A,141226.50
2.41759,57.68782322,11.98130713,57.68782350,11.98130733,15:13:04.103977,0.02272,0.00000,0.00000,-0.12328,0.00000,0.00357,-0.00073,-0.00329,-0.06576,-0.09882,0.99698,2.39466,0.00000,-0.12069,-0.12069,0.16600,-0.01259,2.41222,0.17831,0.01853,1.57080,1.57080,A,141226.60
2.42832,57.68782323,11.98130714,57.68782350,11.98130733,15:13:04.114713,0.00564,0.00000,0.00000,-0.12339,0.00000,-0.00040,-0.00348,-0.00207,-0.06228,-0.09894,0.99826,2.42251,0.00000,0.13303,0.13303,0.16661,-0.01104,2.41222,0.17831,0.01853,1.57080,1.57080,A,141226.60
2.43858,57.68782325,11.98130715,57.68782350,11.98130733,15:13:04.124969,0.00549,0.00000,0.00000,-0.12349,0.00000,-0.00116,-0.00455,0.00038,-0.06039,-0.09803,0.99741,2.43280,0.00000,0.34870,0.34870,0.16720,-0.00956,2.41222,0.17831,0.01853,1.57080,1.57080,A,141226.60
2.44985,57.68782326,11.98130716,57.68782350,11.98130733,15:13:04.136230,0.00588,0.00000,0.00000,-0.12358,0.00000,0.00312,-0.00012,-0.00329,-0.06008,-0.10108,0.99595,2.44414,0.00000,0.53201,0.53201,0.16775,-0.00816,2.41222,0.17831,0.01853,1.57080,1.57080,A,141226.60
2.45982,57.68782327,11.98130716,57.68782350,11.98130733,15:13:04.146216,0.00546,0.00000,0.00000,-0.12362,0.00000,0.00403,0.00202,-0.00161,-0.06057,-0.09766,0.99674,2.45411,0.00000,0.68783,0.68783,0.16828,-0.00682,2.41222,0.17831,0.01853,1.57080,1.57080,A,141226.60
2.46996,57.68782328,11.98130717,57.68782350,11.98130733,15:13:04.156353,0.00520,0.00000,0.00000,-0.12375,0.00000,-0.00055,-0.00119,-0.00008,-0.05862,-0.10041,0.99711,2.46448,0.00000,0.82028,0.82028,0.16878,-0.00555,2.41222,0.17831,0.01853,1.57080,1.57080,A,141226.60
2.48087,57.68782329,11.98130718,57.68782350,11.98130733,15:13:04.167259,0.00570,0.00000,0.00000,-0.12386,0.00000,0.00174,-0.00302,0.00450,-0.05746,-0.10150,0.99711,2.47493,0.00000,0.93285,0.93285,0.16926,-0.00435,2.41222,0.17831,0.01853,1.57080,1.57080,A,141226.60
2.49075,57.68782330,11.98130719,57.68782350,11.98130733,15:13:04.177142,0.00519,0.00000,0.00000,-0.12397,0.00000,-0.00024,-0.00073,0.00084,-0.05423,-0.09974,0.99863,2.48529,0.00000,1.02855,1.02855,0.16971,-0.00320,2.41222,0.17831,0.01853,1.57080,1.57080,A,141226.60
2.50109,57.68782331,11.98130720,57.68782350,11.98130733,15:13:04.187483,0.00529,0.00000,0.00000,-0.12411,0.00000,-0.00299,-0.00287,0.00282,-0.05313,-0.10035,0.99906,2.49536,0.00000,1.10988,1.10988,0.17014,-0.00212,2.41222,0.17831,0.01853,1.57080,1.57080,A,141226.60
2.51166,57.68782332,11.98130720,57.68782350,11.98130733,15:13:04.198057,0.00544,0.00000,0.00000,-0.12413,0.00000,0.00556,0.00095,-0.00054,-0.05594,-0.09870,1.00052,2.50596,0.00000,1.17902,1.17902,0.17055,-0.00109,2.41222,0.17831,0.01853,1.57080,1.57080,A,141226.60
2.54801,57.68782333,11.98130721,57.68782317,11.98130733,15:13:04.234404,0.03053,0.00000,0.00000,-0.12422,0.00000,-0.00162,-0.00012,0.00084,-0.05691,-0.09797,0.99802,2.51735,0.00000,1.23779,1.23779,0.17094,-0.00010,2.54339,0.17831,-0.01853,-1.57080,-1.57080,A,141226.80
2.55955,57.68782332,11.98130722,57.68782317,11.98130733,15:13:04.245952,0.00596,0.00000,0.00000,-0.12441,0.00000,-0.00315,-0.00394,-0.00084,-0.06161,-0.09833,0.99820,2.55343,0.00000,0.81650,0.81650,0.17131,-0.00103,2.54339,0.17831,-0.01853,-1.57080,-1.57080,A,141226.80
2.56918,57.68782332,11.98130722,57.68782317,11.98130733,15:13:04.255570,0.00536,0.00000,0.00000,-0.12454,0.00000,-0.00330,-0.00210,0.00297,-0.06185,-0.10016,0.99894,2.56337,0.00000,0.45840,0.45840,0.17166,-0.00190,2.54339,0.17831,-0.01853,-1.57080,-1.57080,A,141226.80
2.57965,57.68782331,11.98130723,57.68782317,11.98130733,15:13:04.266366,0.00543,0.00000,0.00000,-0.12460,0.00000,-0.00055,-0.00042,0.00129,-0.06179,-0.09699,0.99717,2.57395,0.00000,0.15402,0.15402,0.17199,-0.00273,2.54339,0.17831,-0.01853,-1.57080,-1.57080,A,141226.80
2.58980,57.68782330,11.98130723,57.68782317,11.98130733,15:13:04.276183,0.00517,0.00000,0.00000,-0.12470,0.00000,-0.00024,-0.00058,0.00160,-0.06356,-0.10004,0.99985,2.58413,0.00000,-0.10470,-0.10470,0.17231,-0.00352,2.54339,0.17831,-0.01853,-1.57080,-1.57080,A,141226.80
2.60058,57.68782329,11.98130724,57.68782317,11.98130733,15:13:04.286969,0.00556,0.00000,0.00000,-0.12478,0.00000,-0.00299,-0.00256,0.00053,-0.06442,-0.09736,0.99759,2.59473,0.00000,-0.32461,-0.32461,0.17261,-0.00427,2.54339,0.17831,-0.01853,-1.57080,-1.57080,A,141226.80
2.61050,57.68782329,11.98130724,57.68782317,11.98130733,15:13:04.296886,0.00507,0.00000,0.00000,-0.12491,0.00000,-0.00284,0.00462,0.00267,-0.06521,-0.10059,0.99796,2.60504,0.00000,-0.51154,-0.51154,0.17289,-0.00499,2.54339,0.17831,-0.01853,-1.57080,-1.57080,A,141226.80
2.62126,57.68782328,11.98130725,57.68782317,11.98130733,15:13:04.307652,0.00546,0.00000,0.00000,-0.12505,0.00000,-0.00253,0.00278,-0.00207,-0.06344,-0.10102,0.99643,2.61536,0.00000,-0.67043,-0.67043,0.17316,-0.00566,2.54339,0.17831,-0.01853,-1.57080,-1.57080,A,141226.80
2.63168,57.68782328,11.98130725,57.68782317,11.98130733,15:13:04.318078,0.00547,0.00000,0.00000,-0.12519,0.00000,-0.00483,0.00324,-0.00161,-0.06521,-0.10004,0.99881,2.62596,0.00000,-0.80548,-0.80548,0.17342,-0.00631,2.54339,0.17831,-0.01853,-1.57080,-1.57080,A,141226.80
2.64204,57.68782327,11.98130726,57.68782317,11.98130733,15:13:04.328427,0.00542,0.00000,0.00000,-0.12529,0.00000,-0.00131,0.00003,-0.00084,-0.06442,-0.10035,0.99845,2.63655,0.00000,-0.92028,-0.92028,0.17366,-0.00692,2.54339,0.17831,-0.01853,-1.57080,-1.57080,A,141226.80
2.66695,57.68782327,11.98130726,57.68782300,11.98130783,15:13:04.353334,0.01945,0.00000,0.00000,-0.12545,0.00000,-0.00391,0.00263,-0.00130,-0.06313,-0.10181,0.99485,2.64710,0.00000,-1.01786,-1.01786,0.17390,-0.00750,2.66345,0.20803,-0.03706,-0.55759,-0.55759,A,141226.90
2.67837,57.68782325,11.98130729,57.68782300,11.98130783,15:13:04.364757,0.00532,0.00000,0.00000,-0.12567,0.00000,-0.00406,0.00385,-0.00268,-0.06277,-0.10218,0.99839,2.67286,0.00000,-0.94882,-0.94882,0.17560,-0.00898,2.66345,0.20803,-0.03706,-0.55759,-0.55759,A,141226.90
2.68891,57.68782324,11.98130732,57.68782300,11.98130783,15:13:04.375302,0.00528,0.00000,0.00000,-0.12573,0.00000,0.00189,0.00141,-0.00222,-0.05868,-0.09961,0.99473,2.68317,0.00000,-0.89013,-0.89013,0.17723,-0.01038,2.66345,0.20803,-0.03706,-0.55759,-0.55759,A,141226.90
2.69945,57.68782323,11.98130734,57.68782300,11.98130783,15:13:04.385857,0.00543,0.00000,0.00000,-0.12581,0.00000,0.00021,-0.00546,-0.00023,-0.05911,-0.10004,0.99698,2.69377,0.00000,-0.84025,-0.84025,0.17877,-0.01172,2.66345,0.20803,-0.03706,-0.55759,-0.55759,A,141226.90
2.70965,57.68782322,11.98130737,57.68782300,11.98130783,15:13:04.396040,0.00522,0.00000,0.00000,-0.12591,0.00000,-0.00070,0.00309,-0.00191,-0.05661,-0.10071,0.99753,2.70395,0.00000,-0.79785,-0.79785,0.18023,-0.01298,2.66345,0.20803,-0.03706,-0.55759,-0.55759,A,141226.90
2.72066,57.68782321,11.98130739,57.68782300,11.98130783,15:13:04.407048,0.00584,0.00000,0.00000,-0.12603,0.00000,-0.00391,-0.00256,0.00129,-0.05453,-0.10028,0.99808,2.71470,0.00000,-0.76181,-0.76181,0.18162,-0.01419,2.66345,0.20803,-0.03706,-0.55759,-0.55759,A,141226.90
2.73087,57.68782320,11.98130741,57.68782300,11.98130783,15:13:04.417262,0.00574,0.00000,0.00000,-0.12615,0.00000,-0.00116,-0.00317,0.00068,-0.05557,-0.10205,0.99601,2.72537,0.00000,-0.73118,-0.73118,0.18294,-0.01533,2.66345,0.20803,-0.03706,-0.55759,-0.55759,A,141226.90
2.74120,57.68782319,11.98130743,57.68782300,11.98130783,15:13:04.427588,0.00553,0.00000,0.00000,-0.12617,0.00000,0.00281,0.00232,0.00160,-0.05905,-0.09790,0.99674,2.73522,0.00000,-0.70514,-0.70514,0.18419,-0.01642,2.66345,0.20803,-0.03706,-0.55759,-0.55759,A,141226.90
2.75150,57.68782318,11.98130745,57.68782300,11.98130783,15:13:04.437902,0.00543,0.00000,0.00000,-0.12619,0.00000,0.00144,-0.00058,-0.00069,-0.05661,-0.09790,0.99674,2.74582,0.00000,-0.68301,-0.68301,0.18539,-0.01745,2.66345,0.20803,-0.03706,-0.55759,-0.55759,A,141226.90
2.76184,57.68782317,11.98130747,57.68782300,11.98130783,15:13:04.448223,0.00537,0.00000,0.00000,-0.12626,0.00000,-0.00147,-0.00073,0.00084,-0.05929,-0.09882,0.99735,2.75598,0.00000,-0.66420,-0.66420,0.18652,-0.01843,2.66345,0.20803,-0.03706,-0.55759,-0.55759,A,141226.90
2.78801,57.68782316,11.98130749,57.68782283,11.98130767,15:13:04.474711,0.02113,0.00000,0.00000,-0.12630,0.00000,0.00327,-0.00195,-0.00023,-0.05960,-0.10022,0.99790,2.76664,0.00000,-0.64821,-0.64821,0.18759,-0.01936,2.78257,0.19812,-0.05560,-2.06169,-2.06169,A,141227.00
2.80208,57.68782314,11.98130750,57.68782283,11.98130767,15:13:04.488465,0.00726,0.00000,0.00000,-0.12627,0.00000,0.00266,0.00141,0.00114,-0.06021,-0.09803,0.99753,2.79655,0.00000,-0.86023,-0.86023,0.18812,-0.02117,2.78257,0.19812,-0.05560,-2.06169,-2.06169,A,141227.00
2.81037,57.68782313,11.98130751,57.68782283,11.98130767,15:13:04.496764,0.00516,0.00000,0.00000,-0.12630,0.00000,0.00357,-0.00073,-0.00069,-0.05935,-0.09900,0.99662,2.80492,0.00000,-1.04045,-1.04045,0.18862,-0.02290,2.78257,0.19812,-0.05560,-2.06169,-2.06169,A,141227.00
2.82101,57.68782311,11.98130751,57.68782283,11.98130767,15:13:04.507405,0.00531,0.00000,0.00000,-0.12635,0.00000,-0.00085,0.00156,0.00068,-0.06228,-0.09790,0.99765,2.81527,0.00000,-1.19363,-1.19363,0.18910,-0.02453,2.78257,0.19812,-0.05560,-2.06169,-2.06169,A,141227.00
2.83166,57.68782310,11.98130752,57.68782283,11.98130767,15:13:04.518063,0.00555,0.00000,0.00000,-0.12635,0.00000,0.00296,-0.00012,0.00068,-0.06167,-0.09742,0.99753,2.82585,0.00000,-1.32384,-1.32384,0.18955,-0.02608,2.78257,0.19812,-0.05560,-2.06169,-2.06169,A,141227.00
2.84192,57.68782309,11.98130753,57.68782283,11.98130767,15:13:04.528309,0.00541,0.00000,0.00000,-0.12634,0.00000,0.00434,-0.00073,0.00099,-0.06161,-0.09766,0.99735,2.83644,0.00000,-1.43452,-1.43452,0.18998,-0.02756,2.78257,0.19812,-0.05560,-2.06169,-2.06169,A,141227.00
2.85239,57.68782307,11.98130754,57.68782283,11.98130767,15:13:04.538781,0.00547,0.00000,0.00000,-0.12643,0.00000,-0.00147,-0.00012,0.00068,-0.06246,-0.10059,0.99625,2.84665,0.00000,-1.52859,-1.52859,0.19038,-0.02896,2.78257,0.19812,-0.05560,-2.06169,-2.06169,A,141227.00
2.86246,57.68782306,11.98130754,57.68782283,11.98130767,15:13:04.548851,0.00515,0.00000,0.00000,-0.12651,0.00000,0.00037,0.00156,0.00221,-0.06106,-0.10041,0.99650,2.85702,0.00000,-1.60856,-1.60856,0.19077,-0.03029,2.78257,0.19812,-0.05560,-2.06169,-2.06169,A,141227.00
2.87296,57.68782305,11.98130755,57.68782283,11.98130767,15:13:04.559347,0.00527,0.00000,0.00000,-0.12653,0.00000,0.00174,0.00202,0.00251,-0.05874,-0.09815,0.99863,2.86722,0.00000,-1.67653,-1.67653,0.19114,-0.03156,2.78257,0.19812,-0.05560,-2.06169,-2.06169,A,141227.00
2.89862,57.68782304,11.98130756,57.68782300,11.98130750,15:13:04.585005,0.02053,0.00000,0.00000,-0.12657,0.00000,0.00281,-0.00333,0.00084,-0.06057,-0.10016,0.99759,2.87782,0.00000,-1.73430,-1.73430,0.19149,-0.03276,2.89432,0.18822,-0.03706,-4.22150,2.06169,A,141227.10
2.91244,57.68782304,11.98130755,57.68782300,11.98130750,15:13:04.598830,0.00573,0.00000,0.00000,-0.12662,0.00000,-0.00009,0.00126,-0.00283,-0.06204,-0.09845,0.99881,2.90666,0.00000,-2.10738,-2.10738,0.19132,-0.03298,2.89432,0.18822,-0.03706,-4.22150,2.06169,A,141227.10
2.92253,57.68782303,11.98130755,57.68782300,11.98130750,15:13:04.608922,0.00541,0.00000,0.00000,-0.12668,0.00000,-0.00177,0.00065,-0.00023,-0.06320,-0.09864,0.99741,2.91682,0.00000,-2.42450,-2.42450,0.19117,-0.03318,2.89432,0.18822,-0.03706,-4.22150,2.06169,A,141227.10
2.93293,57.68782303,11.98130755,57.68782300,11.98130750,15:13:04.619311,0.00527,0.00000,0.00000,-0.12670,0.00000,0.00327,-0.00042,-0.00023,-0.06344,-0.09931,0.99833,2.92719,0.00000,-2.69405,-2.69405,0.19102,-0.03337,2.89432,0.18822,-0.03706,-4.22150,2.06169,A,141227.10
2.94398,57.68782303,11.98130754,57.68782300,11.98130750,15:13:04.630371,0.00592,0.00000,0.00000,-0.12678,0.00000,-0.00269,0.00110,-0.00008,-0.06454,-0.09925,0.99918,2.93820,0.00000,-2.92317,-2.92317,0.19088,-0.03356,2.89432,0.18822,-0.03706,-4.22150,2.06169,A,141227.10
2.95419,57.68782303,11.98130754,57.68782300,11.98130750,15:13:04.640577,0.00573,0.00000,0.00000,-0.12684,0.00000,-0.00131,0.00049,0.00145,-0.06381,-0.09858,0.99839,2.94796,0.00000,-3.11792,-3.11792,0.19075,-0.03373,2.89432,0.18822,-0.03706,-4.22150,2.06169,A,141227.10
2.96434,57.68782303,11.98130754,57.68782300,11.98130750,15:13:04.650726,0.00548,0.00000,0.00000,-0.12686,0.00000,-0.00238,-0.00195,-0.00023,-0.06484,-0.09565,0.99717,2.95857,0.00000,-3.28345,-3.28345,0.19062,-0.03390,2.89432,0.18822,-0.03706,-4.22150,2.06169,A,141227.10
2.97442,57.68782303,11.98130754,57.68782300,11.98130750,15:13:04.660812,0.00517,0.00000,0.00000,-0.12695,0.00000,-0.00284,0.00294,0.00068,-0.06277,-0.09955,0.99765,2.96896,0.00000,-3.42416,-3.42416,0.19050,-0.03406,2.89432,0.18822,-0.03706,-4.22150,2.06169,A,141227.10
2.98502,57.68782303,11.98130754,57.68782300,11.98130750,15:13:04.671415,0.00535,0.00000,0.00000,-0.12703,0.00000,-0.00315,-0.00103,-0.00283,-0.06179,-0.09949,0.99686,2.97921,0.00000,-3.54376,-3.54376,0.19039,-0.03421,2.89432,0.18822,-0.03706,-4.22150,2.06169,A,141227.10
3.00969,57.68782302,11.98130753,57.68782300,11.98130767,15:13:04.696079,0.01965,0.00000,0.00000,-0.12712,0.00000,-0.00085,-0.00058,-0.00023,-0.06118,-0.10120,0.99729,2.99013,0.00000,-3.64542,-3.64542,0.19028,-0.03435,3.00603,0.19812,-0.03706,-6.28319,0.00000,A,141227.20
3.02032,57.68782302,11.98130754,57.68782300,11.98130767,15:13:04.706704,0.00563,0.00000,0.00000,-0.12728,0.00000,-0.00406,0.00202,-0.00191,-0.05649,-0.10041,0.99778,3.01450,0.00000,-4.04109,-4.04109,0.19067,-0.03449,3.00603,0.19812,-0.03706,-6.28319,0.00000,A,141227.20
3.03028,57.68782302,11.98130755,57.68782300,11.98130767,15:13:04.716671,0.00518,0.00000,0.00000,-0.12735,0.00000,-0.00085,-0.00058,0.00084,-0.05746,-0.10004,0.99833,3.02481,0.00000,-4.37740,-4.37740,0.19104,-0.03462,3.00603,0.19812,-0.03706,-6.28319,0.00000,A,141227.20
3.04111,57.68782302,11.98130755,57.68782300,11.98130767,15:13:04.727506,0.00547,0.00000,0.00000,-0.12742,0.00000,0.00052,0.00431,0.00206,-0.05777,-0.10144,0.99741,3.03517,0.00000,-4.66327,-4.66327,0.19140,-0.03474,3.00603,0.19812,-0.03706,-6.28319,0.00000,A,141227.20
3.05291,57.68782302,11.98130756,57.68782300,11.98130767,15:13:04.739339,0.00686,0.00000,0.00000,-0.12747,0.00000,-0.00009,-0.00165,0.00022,-0.05703,-0.09961,0.99814,3.04579,0.00000,-4.90626,-4.90626,0.19173,-0.03486,3.00603,0.19812,-0.03706,-6.28319,0.00000,A,141227.20
3.06284,57.68782302,11.98130756,57.68782300,11.98130767,15:13:04.749240,0.00640,0.00000,0.00000,-0.12752,0.00000,-0.00360,0.00065,-0.00207,-0.06039,-0.09705,0.99778,3.05733,0.00000,-5.11280,-5.11280,0.19205,-0.03497,3.00603,0.19812,-0.03706,-6.28319,0.00000,A,141227.20
3.07234,57.68782302,11.98130757,57.68782300,11.98130767,15:13:04.758735,0.00549,0.00000,0.00000,-0.12758,0.00000,-0.00528,0.00171,0.00053,-0.06198,-0.09748,1.00064,3.06657,0.00000,-5.28835,-5.28835,0.19236,-0.03507,3.00603,0.19812,-0.03706,-6.28319,0.00000,A,141227.20
3.08243,57.68782302,11.98130757,57.68782300,11.98130767,15:13:04.768816,0.00518,0.00000,0.00000,-0.12768,0.00000,-0.00421,0.00126,-0.00115,-0.06149,-0.10010,0.99643,3.07696,0.00000,-5.43758,-5.43758,0.19265,-0.03517,3.00603,0.19812,-0.03706,-6.28319,0.00000,A,141227.20
3.09311,57.68782302,11.98130758,57.68782300,11.98130767,15:13:04.779504,0.00545,0.00000,0.00000,-0.12775,0.00000,-0.00498,0.00278,-0.00146,-0.06228,-0.09821,0.99582,3.08720,0.00000,-5.56442,-5.56442,0.19292,-0.03527,3.00603,0.19812,-0.03706,-6.28319,0.00000,A,141227.20
3.10348,57.68782302,11.98130758,57.68782300,11.98130767,15:13:04.789883,0.00542,0.00000,0.00000,-0.12780,0.00000,0.00281,0.00339,-0.00420,-0.06515,-0.10193,0.99723,3.09779,0.00000,-5.67223,-5.67223,0.19318,-0.03536,3.00603,0.19812,-0.03706,-6.28319,0.00000,A,141227.20
3.18224,57.68782301,11.98130759,57.68782317,11.98130783,15:13:04.868631,0.07377,0.00000,0.00000,-0.12787,0.00000,-0.00452,-0.00409,0.00038,-0.06283,-0.09766,0.99570,3.10799,0.00000,-5.76388,-5.76388,0.19343,-0.03544,3.17248,0.20803,-0.01853,-5.20328,1.07991,A,141227.40
3.20510,57.68782302,11.98130760,57.68782317,11.98130783,15:13:04.891492,0.00747,0.00000,0.00000,-0.12766,0.00000,0.00418,0.00538,-0.00069,-0.06283,-0.10773,0.99363,3.19879,0.00000,-5.67979,-5.67979,0.19416,-0.03460,3.17248,0.20803,-0.01853,-5.20328,1.07991,A,141227.40
3.21317,57.68782303,11.98130761,57.68782317,11.98130783,15:13:04.899556,0.00531,0.00000,0.00000,-0.12775,0.00000,0.00770,0.00110,0.00053,-0.06570,-0.10669,0.99418,3.20741,0.00000,-5.60831,-5.60831,0.19485,-0.03379,3.17248,0.20803,-0.01853,-5.20328,1.07991,A,141227.40
3.22388,57.68782304,11.98130762,57.68782317,11.98130783,15:13:04.910276,0.00561,0.00000,0.00000,-0.12773,0.00000,0.00312,-0.00042,0.00053,-0.05911,-0.09766,0.99741,3.21814,0.00000,-5.54756,-5.54756,0.19551,-0.03303,3.17248,0.20803,-0.01853,-5.20328,1.07991,A,141227.40
3.23622,57.68782304,11.98130763,57.68782317,11.98130783,15:13:04.922615,0.00755,0.00000,0.00000,-0.12788,0.00000,-0.00208,0.00232,-0.00008,-0.05984,-0.10455,0.99698,3.23040,0.00000,-5.49591,-5.49591,0.19614,-0.03230,3.17248,0.20803,-0.01853,-5.20328,1.07991,A,141227.40
3.24499,57.68782305,11.98130764,57.68782317,11.98130783,15:13:04.931382,0.00591,0.00000,0.00000,-0.12784,0.00000,0.00037,-0.00134,0.00297,-0.06204,-0.09479,0.99704,3.23921,0.00000,-5.45202,-5.45202,0.19673,-0.03162,3.17248,0.20803,-0.01853,-5.20328,1.07991,A,141227.40
3.25464,57.68782305,11.98130765,57.68782317,11.98130783,15:13:04.941028,0.00516,0.00000,0.00000,-0.12783,0.00000,0.00434,0.00126,0.00022,-0.05606,-0.09833,0.99778,3.24919,0.00000,-5.41471,-5.41471,0.19730,-0.03096,3.17248,0.20803,-0.01853,-5.20328,1.07991,A,141227.40
3.26510,57.68782306,11.98130766,57.68782317,11.98130783,15:13:04.951496,0.00538,0.00000,0.00000,-0.12778,0.00000,0.00602,0.00095,0.00053,-0.05606,-0.09748,0.99802,3.25929,0.00000,-5.38299,-5.38299,0.19783,-0.03034,3.17248,0.20803,-0.01853,-5.20328,1.07991,A,141227.40
3.29145,57.68782307,11.98130767,57.68782283,11.98130767,15:13:04.978259,0.02133,0.00000,0.00000,-0.12780,0.00000,0.00388,-0.00088,0.00129,-0.05765,-0.10077,0.99662,3.26987,0.00000,-5.35604,-5.35604,0.19834,-0.02975,3.28588,0.19812,-0.05560,-8.11514,-1.83196,A,141227.50
3.31196,57.68782305,11.98130767,57.68782283,11.98130767,15:13:04.998361,0.00828,0.00000,0.00000,-0.12777,0.00000,0.00189,0.00217,-0.00176,-0.06496,-0.09870,0.99680,3.30333,0.00000,-5.76990,-5.76990,0.19833,-0.03104,3.28588,0.19812,-0.05560,-8.11514,-1.83196,A,141227.50
3.31970,57.68782304,11.98130767,57.68782283,11.98130767,15:13:05.006098,0.00561,0.00000,0.00000,-0.12776,0.00000,0.00724,0.00202,-0.00130,-0.06417,-0.10163,0.99802,3.31398,0.00000,-6.12169,-6.12169,0.19832,-0.03227,3.28588,0.19812,-0.05560,-8.11514,-1.83196,A,141227.50
3.32967,57.68782303,11.98130767,57.68782283,11.98130767,15:13:05.016057,0.00519,0.00000,0.00000,-0.12773,0.00000,0.00296,-0.00103,0.00221,-0.06191,-0.09620,0.99851,3.32399,0.00000,-6.42071,-6.42071,0.19831,-0.03344,3.28588,0.19812,-0.05560,-8.11514,-1.83196,A,141227.50
3.34063,57.68782302,11.98130767,57.68782283,11.98130767,15:13:05.027020,0.00575,0.00000,0.00000,-0.12776,0.00000,0.00266,0.00003,-0.00100,-0.06191,-0.10077,0.99863,3.33461,0.00000,-6.67487,-6.67487,0.19830,-0.03454,3.28588,0.19812,-0.05560,-8.11514,-1.83196,A,141227.50
3.35046,57.68782301,11.98130767,57.68782283,11.98130767,15:13:05.036849,0.00518,0.00000,0.00000,-0.12780,0.00000,-0.00085,0.00171,-0.00252,-0.05948,-0.09913,0.99869,3.34500,0.00000,-6.89091,-6.89091,0.19829,-0.03560,3.28588,0.19812,-0.05560,-8.11514,-1.83196,A,141227.50
3.36094,57.68782300,11.98130767,57.68782283,11.98130767,15:13:05.047329,0.00526,0.00000,0.00000,-0.12781,0.00000,0.00052,0.00034,-0.00100,-0.06173,-0.09784,0.99692,3.35521,0.00000,-7.07455,-7.07455,0.19828,-0.03660,3.28588,0.19812,-0.05560,-8.11514,-1.83196,A,141227.50
3.37211,57.68782300,11.98130767,57.68782283,11.98130767,15:13:05.058506,0.00566,0.00000,0.00000,-0.12778,0.00000,0.00357,-0.00027,-0.00268,-0.06100,-0.09760,0.99967,3.36632,0.00000,-7.23064,-7.23064,0.19828,-0.03755,3.28588,0.19812,-0.05560,-8.11514,-1.83196,A,141227.50
3.38256,57.68782299,11.98130767,57.68782283,11.98130767,15:13:05.068946,0.00570,0.00000,0.00000,-0.12780,0.00000,-0.00040,0.00675,-0.00375,-0.05923,-0.09784,0.99887,3.37706,0.00000,-7.36331,-7.36331,0.19827,-0.03845,3.28588,0.19812,-0.05560,-8.11514,-1.83196,A,141227.50
3.41235,57.68782298,11.98130767,57.68782283,11.98130783,15:13:05.098742,0.02487,0.00000,0.00000,-0.12788,0.00000,-0.00391,0.00294,-0.00222,-0.05966,-0.09913,0.99826,3.38907,0.00000,-7.47609,-7.47609,0.19826,-0.03931,3.40711,0.20803,-0.05560,-6.28319,0.00000,A,141227.60
3.43022,57.68782297,11.98130768,57.68782283,11.98130783,15:13:05.116613,0.00665,0.00000,0.00000,-0.12815,0.00000,-0.00742,0.00049,-0.00069,-0.06265,-0.09772,0.99735,3.42389,0.00000,-7.29715,-7.29715,0.19875,-0.04012,3.40711,0.20803,-0.05560,-6.28319,0.00000,A,141227.60
3.43916,57.68782297,11.98130769,57.68782283,11.98130783,15:13:05.125798,0.00519,0.00000,0.00000,-0.12822,0.00000,-0.00085,0.00034,0.00358,-0.05862,-0.10083,0.99778,3.43373,0.00000,-7.14506,-7.14506,0.19921,-0.04090,3.40711,0.20803,-0.05560,-6.28319,0.00000,A,141227.60
3.44961,57.68782296,11.98130769,57.68782283,11.98130783,15:13:05.135999,0.00523,0.00000,0.00000,-0.12833,0.00000,-0.00742,0.00187,-0.00252,-0.06374,-0.09955,0.99784,3.44388,0.00000,-7.01578,-7.01578,0.19965,-0.04163,3.40711,0.20803,-0.05560,-6.28319,0.00000,A,141227.60
3.46044,57.68782295,11.98130770,57.68782283,11.98130783,15:13:05.146840,0.00567,0.00000,0.00000,-0.12846,0.00000,-0.00742,-0.00119,-0.00069,-0.06076,-0.10083,0.99473,3.45451,0.00000,-6.90589,-6.90589,0.20007,-0.04233,3.40711,0.20803,-0.05560,-6.28319,0.00000,A,141227.60
3.47035,57.68782295,11.98130771,57.68782283,11.98130783,15:13:05.156736,0.00517,0.00000,0.00000,-0.12859,0.00000,-0.01032,-0.00119,-0.00191,-0.05887,-0.09913,0.99656,3.46487,0.00000,-6.81248,-6.81248,0.20047,-0.04299,3.40711,0.20803,-0.05560,-6.28319,0.00000,A,141227.60
3.48098,57.68782294,11.98130771,57.68782283,11.98130783,15:13:05.167368,0.00530,0.00000,0.00000,-0.12865,0.00000,-0.00437,0.00309,-0.00054,-0.05801,-0.09827,0.99802,3.47522,0.00000,-6.73309,-6.73309,0.20085,-0.04362,3.40711,0.20803,-0.05560,-6.28319,0.00000,A,141227.60
3.49150,57.68782294,11.98130772,57.68782283,11.98130783,15:13:05.177902,0.00542,0.00000,0.00000,-0.12869,0.00000,-0.00024,-0.00042,0.00068,-0.05716,-0.10041,0.99735,3.48581,0.00000,-6.66560,-6.66560,0.20121,-0.04422,3.40711,0.20803,-0.05560,-6.28319,0.00000,A,141227.60
3.50167,57.68782293,11.98130772,57.68782283,11.98130783,15:13:05.188061,0.00519,0.00000,0.00000,-0.12872,0.00000,-0.00360,0.00187,0.00114,-0.05514,-0.09675,0.99741,3.49598,0.00000,-6.60824,-6.60824,0.20155,-0.04479,3.40711,0.20803,-0.05560,-6.28319,0.00000,A,141227.60
3.53737,57.68782293,11.98130773,57.68782233,11.98130833,15:13:05.223760,0.03050,0.00000,0.00000,-0.12876,0.00000,-0.00024,0.00324,0.00053,-0.05691,-0.09992,0.99698,3.50660,0.00000,-6.55948,-6.55948,0.20187,-0.04533,3.53307,0.23775,-0.11119,-7.36309,-1.07991,A,141227.80
3.54833,57.68782290,11.98130776,57.68782233,11.98130833,15:13:05.234728,0.00569,0.00000,0.00000,-0.12876,0.00000,0.00067,0.00217,-0.00130,-0.05710,-0.09955,0.99662,3.54249,0.00000,-6.68002,-6.68002,0.20367,-0.04862,3.53307,0.23775,-0.11119,-7.36309,-1.07991,A,141227.80
3.55824,57.68782287,11.98130779,57.68782233,11.98130833,15:13:05.244629,0.00519,0.00000,0.00000,-0.12878,0.00000,-0.00253,-0.00058,-0.00084,-0.06295,-0.09736,0.99674,3.55277,0.00000,-6.78248,-6.78248,0.20537,-0.05175,3.53307,0.23775,-0.11119,-7.36309,-1.07991,A,141227.80
3.56904,57.68782284,11.98130782,57.68782233,11.98130833,15:13:05.255436,0.00546,0.00000,0.00000,-0.12873,0.00000,0.00205,0.00202,0.00022,-0.06301,-0.09546,0.99790,3.56312,0.00000,-6.86957,-6.86957,0.20699,-0.05472,3.53307,0.23775,-0.11119,-7.36309,-1.07991,A,141227.80
3.57918,57.68782282,11.98130784,57.68782233,11.98130833,15:13:05.265826,0.00519,0.00000,0.00000,-0.12880,0.00000,-0.00024,0.00416,0.00251,-0.06252,-0.10224,0.99698,3.57372,0.00000,-6.94360,-6.94360,0.20853,-0.05755,3.53307,0.23775,-0.11119,-7.36309,-1.07991,A,141227.80
3.58969,57.68782279,11.98130787,57.68782233,11.98130833,15:13:05.276075,0.00523,0.00000,0.00000,-0.12885,0.00000,0.00174,0.00156,0.00084,-0.06515,-0.10199,0.99704,3.58398,0.00000,-7.00653,-7.00653,0.20999,-0.06023,3.53307,0.23775,-0.11119,-7.36309,-1.07991,A,141227.80
3.60032,57.68782277,11.98130789,57.68782233,11.98130833,15:13:05.286716,0.00547,0.00000,0.00000,-0.12892,0.00000,0.00021,-0.00210,0.00251,-0.06954,-0.10260,0.99662,3.59458,0.00000,-7.06001,-7.06001,0.21138,-0.06278,3.53307,0.23775,-0.11119,-7.36309,-1.07991,A,141227.80
3.61042,57.68782275,11.98130791,57.68782233,11.98130833,15:13:05.296813,0.00518,0.00000,0.00000,-0.12891,0.00000,-0.00116,0.00034,-0.00130,-0.07070,-0.09681,0.99869,3.60496,0.00000,-7.10547,-7.10547,0.21270,-0.06520,3.53307,0.23775,-0.11119,-7.36309,-1.07991,A,141227.80
3.62147,57.68782273,11.98130793,57.68782233,11.98130833,15:13:05.307859,0.00581,0.00000,0.00000,-0.12887,0.00000,0.00281,0.00110,-0.00084,-0.06429,-0.09705,0.99613,3.61561,0.00000,-7.14412,-7.14412,0.21395,-0.06750,3.53307,0.23775,-0.11119,-7.36309,-1.07991,A,141227.80
3.63149,57.68782271,11.98130795,57.68782233,11.98130833,15:13:05.317893,0.00543,0.00000,0.00000,-0.12890,0.00000,0.00067,0.00110,-0.00191,-0.06332,-0.09992,0.99692,3.62578,0.00000,-7.17696,-7.17696,0.21514,-0.06968,3.53307,0.23775,-0.11119,-7.36309,-1.07991,A,141227.80
3.65783,57.68782269,11.98130797,57.68782233,11.98130850,15:13:05.344230,0.02136,0.00000,0.00000,-0.12892,0.00000,0.00174,0.00126,-0.00023,-0.06198,-0.10022,0.99808,3.63599,0.00000,-7.20488,-7.20488,0.21627,-0.07176,3.65230,0.24766,-0.11119,-6.28319,0.00000,A,141227.90
3.67145,57.68782267,11.98130800,57.68782233,11.98130850,15:13:05.357851,0.00640,0.00000,0.00000,-0.12879,0.00000,0.00556,-0.00119,0.00007,-0.05746,-0.09992,0.99906,3.66489,0.00000,-7.06663,-7.06663,0.21784,-0.07373,3.65230,0.24766,-0.11119,-6.28319,0.00000,A,141227.90
3.68183,57.68782265,11.98130802,57.68782233,11.98130850,15:13:05.368225,0.00568,0.00000,0.00000,-0.12875,0.00000,0.00571,0.00034,-0.00054,-0.05569,-0.09937,0.99778,3.67614,0.00000,-6.94911,-6.94911,0.21933,-0.07560,3.65230,0.24766,-0.11119,-6.28319,0.00000,A,141227.90
3.69203,57.68782264,11.98130805,57.68782233,11.98130850,15:13:05.378418,0.00547,0.00000,0.00000,-0.12873,0.00000,0.00434,0.00324,-0.00298,-0.05691,-0.09949,0.99619,3.68630,0.00000,-6.84922,-6.84922,0.22075,-0.07738,3.65230,0.24766,-0.11119,-6.28319,0.00000,A,141227.90
3.70213,57.68782262,11.98130807,57.68782233,11.98130850,15:13:05.388523,0.00518,0.00000,0.00000,-0.12875,0.00000,0.00373,-0.00027,-0.00039,-0.06057,-0.10120,0.99680,3.69669,0.00000,-6.76432,-6.76432,0.22209,-0.07907,3.65230,0.24766,-0.11119,-6.28319,0.00000,A,141227.90
3.71301,57.68782261,11.98130809,57.68782233,11.98130850,15:13:05.399393,0.00550,0.00000,0.00000,-0.12876,0.00000,-0.00055,-0.00088,-0.00191,-0.06161,-0.09827,0.99839,3.70706,0.00000,-6.69215,-6.69215,0.22337,-0.08068,3.65230,0.24766,-0.11119,-6.28319,0.00000,A,141227.90
3.72352,57.68782259,11.98130811,57.68782233,11.98130850,15:13:05.409927,0.00561,0.00000,0.00000,-0.12877,0.00000,0.00189,-0.00012,-0.00283,-0.05728,-0.09931,0.99894,3.71782,0.00000,-6.63080,-6.63080,0.22458,-0.08221,3.65230,0.24766,-0.11119,-6.28319,0.00000,A,141227.90
3.73440,57.68782258,11.98130813,57.68782233,11.98130850,15:13:05.420798,0.00608,0.00000,0.00000,-0.12879,0.00000,-0.00085,0.00263,0.00038,-0.05478,-0.09888,0.99863,3.72782,0.00000,-6.57866,-6.57866,0.22574,-0.08366,3.65230,0.24766,-0.11119,-6.28319,0.00000,A,141227.90
3.74444,57.68782257,11.98130815,57.68782233,11.98130850,15:13:05.430828,0.00572,0.00000,0.00000,-0.12882,0.00000,0.00342,-0.00042,-0.00100,-0.05887,-0.10230,0.99784,3.73867,0.00000,-6.53434,-6.53434,0.22683,-0.08503,3.65230,0.24766,-0.11119,-6.28319,0.00000,A,141227.90
3.76904,57.68782256,11.98130817,57.68782250,11.98130817,15:13:05.455431,0.01992,0.00000,0.00000,-0.12881,0.00000,0.00006,0.00095,0.00145,-0.05758,-0.09675,0.99753,3.74890,0.00000,-6.49667,-6.49667,0.22787,-0.08634,3.76471,0.22784,-0.09266,-3.89362,2.38956,A,141228.00
3.78057,57.68782255,11.98130817,57.68782250,11.98130817,15:13:05.466963,0.00563,0.00000,0.00000,-0.12867,0.00000,0.00709,0.00278,-0.00069,-0.05691,-0.10053,0.99643,3.77477,0.00000,-6.10621,-6.10621,0.22787,-0.08666,3.76471,0.22784,-0.09266,-3.89362,2.38956,A,141228.00
3.79172,57.68782255,11.98130817,57.68782250,11.98130817,15:13:05.478118,0.00638,0.00000,0.00000,-0.12872,0.00000,-0.00345,-0.00180,0.00114,-0.05923,-0.09864,0.99729,3.78601,0.00000,-5.77432,-5.77432,0.22787,-0.08696,3.76471,0.22784,-0.09266,-3.89362,2.38956,A,141228.00
3.80100,57.68782255,11.98130817,57.68782250,11.98130817,15:13:05.487393,0.00542,0.00000,0.00000,-0.12878,0.00000,-0.00406,0.00110,0.00221,-0.06417,-0.09906,0.99845,3.79520,0.00000,-5.49222,-5.49222,0.22787,-0.08724,3.76471,0.22784,-0.09266,-3.89362,2.38956,A,141228.00
3.81152,57.68782255,11.98130817,57.68782250,11.98130817,15:13:05.497926,0.00548,0.00000,0.00000,-0.12879,0.00000,-0.00116,0.00294,0.00038,-0.06301,-0.09760,0.99857,3.80578,0.00000,-5.25243,-5.25243,0.22787,-0.08751,3.76471,0.22784,-0.09266,-3.89362,2.38956,A,141228.00
3.82164,57.68782254,11.98130817,57.68782250,11.98130817,15:13:05.508035,0.00521,0.00000,0.00000,-0.12883,0.00000,-0.00070,-0.00333,0.00099,-0.06612,-0.09998,0.99729,3.81595,0.00000,-5.04861,-5.04861,0.22787,-0.08777,3.76471,0.22784,-0.09266,-3.89362,2.38956,A,141228.00
3.83250,57.68782254,11.98130817,57.68782250,11.98130817,15:13:05.518894,0.00567,0.00000,0.00000,-0.12888,0.00000,-0.00208,-0.00027,0.00114,-0.06503,-0.09955,0.99704,3.82657,0.00000,-4.87536,-4.87536,0.22787,-0.08802,3.76471,0.22784,-0.09266,-3.89362,2.38956,A,141228.00
3.84278,57.68782254,11.98130817,57.68782250,11.98130817,15:13:05.529165,0.00554,0.00000,0.00000,-0.12896,0.00000,-0.00299,-0.00042,-0.00146,-0.06789,-0.10089,0.99735,3.83696,0.00000,-4.72810,-4.72810,0.22786,-0.08825,3.76471,0.22784,-0.09266,-3.89362,2.38956,A,141228.00
3.85295,57.68782254,11.98130817,57.68782250,11.98130817,15:13:05.539348,0.00528,0.00000,0.00000,-0.12898,0.00000,0.00159,-0.00134,0.00206,-0.06771,-0.10035,0.99741,3.84721,0.00000,-4.60293,-4.60293,0.22786,-0.08847,3.76471,0.22784,-0.09266,-3.89362,2.38956,A,141228.00
3.86349,57.68782254,11.98130817,57.68782250,11.98130817,15:13:05.549884,0.00541,0.00000,0.00000,-0.12903,0.00000,-0.00528,0.00034,0.00190,-0.06295,-0.09766,0.99723,3.85781,0.00000,-4.49653,-4.49653,0.22786,-0.08868,3.76471,0.22784,-0.09266,-3.89362,2.38956,A,141228.00
3.89002,57.68782253,11.98130817,57.68782233,11.98130850,15:13:05.576423,0.02154,0.00000,0.00000,-0.12902,0.00000,0.00113,0.00263,0.00190,-0.06277,-0.09845,1.00064,3.86799,0.00000,-4.40610,-4.40610,0.22786,-0.08888,3.88445,0.24766,-0.11119,-0.75203,-0.75203,A,141228.10
3.90652,57.68782252,11.98130818,57.68782233,11.98130850,15:13:05.592908,0.00703,0.00000,0.00000,-0.12961,0.00000,-0.00635,0.00309,-0.00252,-0.05813,-0.12346,0.99552,3.90102,0.00000,-3.85799,-3.85799,0.22885,-0.08999,3.88445,0.24766,-0.11119,-0.75203,-0.75203,A,141228.10
3.91554,57.68782251,11.98130820,57.68782233,11.98130850,15:13:05.601938,0.00564,0.00000,0.00000,-0.12951,0.00000,-0.00895,0.00294,-0.00298,-0.05581,-0.08693,0.99900,3.90963,0.00000,-3.39209,-3.39209,0.22979,-0.09105,3.88445,0.24766,-0.11119,-0.75203,-0.75203,A,141228.10
3.92572,57.68782251,11.98130821,57.68782233,11.98130850,15:13:05.612110,0.00536,0.00000,0.00000,-0.12957,0.00000,-0.00666,0.00232,-0.00084,-0.05203,-0.09760,0.99613,3.92003,0.00000,-2.99608,-2.99608,0.23068,-0.09206,3.88445,0.24766,-0.11119,-0.75203,-0.75203,A,141228.10
3.93642,57.68782250,11.98130823,57.68782233,11.98130850,15:13:05.622820,0.00566,0.00000,0.00000,-0.12960,0.00000,0.00052,0.00034,-0.00176,-0.06295,-0.10102,0.99961,3.93050,0.00000,-2.65948,-2.65948,0.23153,-0.09302,3.88445,0.24766,-0.11119,-0.75203,-0.75203,A,141228.10
3.94650,57.68782249,11.98130824,57.68782233,11.98130850,15:13:05.632895,0.00534,0.00000,0.00000,-0.12965,0.00000,0.00098,-0.00378,-0.00054,-0.05923,-0.10266,0.99576,3.94105,0.00000,-2.37336,-2.37336,0.23234,-0.09393,3.88445,0.24766,-0.11119,-0.75203,-0.75203,A,141228.10
3.95768,57.68782248,11.98130826,57.68782233,11.98130850,15:13:05.644072,0.00602,0.00000,0.00000,-0.12964,0.00000,-0.00085,0.00126,0.00160,-0.05880,-0.09742,0.99741,3.95196,0.00000,-2.13016,-2.13016,0.23311,-0.09479,3.88445,0.24766,-0.11119,-0.75203,-0.75203,A,141228.10
3.96750,57.68782247,11.98130827,57.68782233,11.98130850,15:13:05.653896,0.00543,0.00000,0.00000,-0.12970,0.00000,0.00021,0.00187,-0.00008,-0.05789,-0.10236,0.99814,3.96181,0.00000,-1.92344,-1.92344,0.23383,-0.09561,3.88445,0.24766,-0.11119,-0.75203,-0.75203,A,141228.10
3.97768,57.68782247,11.98130828,57.68782233,11.98130850,15:13:05.664074,0.00522,0.00000,0.00000,-0.12965,0.00000,-0.00101,-0.00088,0.00465,-0.05874,-0.09461,0.99540,3.97198,0.00000,-1.74773,-1.74773,0.23452,-0.09639,3.88445,0.24766,-0.11119,-0.75203,-0.75203,A,141228.10
4.00347,57.68782246,11.98130829,57.68782217,11.98130867,15:13:05.689868,0.02060,0.00000,0.00000,-0.12964,0.00000,0.00388,0.00400,-0.00115,-0.05667,-0.10028,0.99711,3.98260,0.00000,-1.59837,-1.59837,0.23518,-0.09713,3.99875,0.25756,-0.12973,-1.07991,-1.07991,A,141228.20
4.01900,57.68782245,11.98130831,57.68782217,11.98130867,15:13:05.705384,0.00719,0.00000,0.00000,-0.12985,0.00000,-0.00437,0.00156,-0.00191,-0.06021,-0.10419,0.99729,4.01348,0.00000,-1.52060,-1.52060,0.23630,-0.09876,3.99875,0.25756,-0.12973,-1.07991,-1.07991,A,141228.20
4.02766,57.68782243,11.98130833,57.68782217,11.98130867,15:13:05.714058,0.00545,0.00000,0.00000,-0.12985,0.00000,-0.00101,0.00141,-0.00146,-0.06130,-0.09766,0.99570,4.02196,0.00000,-1.45450,-1.45450,0.23736,-0.10031,3.99875,0.25756,-0.12973,-1.07991,-1.07991,A,141228.20
4.03780,57.68782242,11.98130834,57.68782217,11.98130867,15:13:05.724188,0.00519,0.00000,0.00000,-0.12986,0.00000,0.00495,0.00202,0.00007,-0.06289,-0.10272,0.99589,4.03212,0.00000,-1.39831,-1.39831,0.23837,-0.10178,3.99875,0.25756,-0.12973,-1.07991,-1.07991,A,141228.20
4.04849,57.68782241,11.98130836,57.68782217,11.98130867,15:13:05.734875,0.00547,0.00000,0.00000,-0.12988,0.00000,0.00403,-0.00119,-0.00115,-0.06271,-0.10309,0.99674,4.04274,0.00000,-1.35055,-1.35055,0.23933,-0.10318,3.99875,0.25756,-0.12973,-1.07991,-1.07991,A,141228.20
4.05849,57.68782239,11.98130838,57.68782217,11.98130867,15:13:05.744881,0.00507,0.00000,0.00000,-0.12982,0.00000,0.00312,0.00309,0.00160,-0.06283,-0.09675,0.99637,4.05303,0.00000,-1.30995,-1.30995,0.24024,-0.10450,3.99875,0.25756,-0.12973,-1.07991,-1.07991,A,141228.20
4.06896,57.68782238,11.98130839,57.68782217,11.98130867,15:13:05.755347,0.00527,0.00000,0.00000,-0.12984,0.00000,-0.00116,0.00034,-0.00329,-0.06338,-0.09931,1.00107,4.06322,0.00000,-1.27545,-1.27545,0.24111,-0.10576,3.99875,0.25756,-0.12973,-1.07991,-1.07991,A,141228.20
4.07951,57.68782237,11.98130840,57.68782217,11.98130867,15:13:05.765914,0.00542,0.00000,0.00000,-0.12975,0.00000,0.00220,-0.00195,-0.00115,-0.06576,-0.09479,1.00290,4.07382,0.00000,-1.24612,-1.24612,0.24193,-0.10696,3.99875,0.25756,-0.12973,-1.07991,-1.07991,A,141228.20
4.08970,57.68782236,11.98130842,57.68782217,11.98130867,15:13:05.776096,0.00521,0.00000,0.00000,-0.12971,0.00000,0.00113,-0.00088,-0.00298,-0.06435,-0.09681,0.99936,4.08401,0.00000,-1.22118,-1.22118,0.24271,-0.10810,3.99875,0.25756,-0.12973,-1.07991,-1.07991,A,141228.20
4.11548,57.68782235,11.98130843,57.68782183,11.98130867,15:13:05.801879,0.02059,0.00000,0.00000,-0.12972,0.00000,-0.00024,-0.00012,-0.00207,-0.06509,-0.09955,0.99948,4.09476,0.00000,-1.19999,-1.19999,0.24346,-0.10918,4.11075,0.25756,-0.16679,-1.57080,-1.57080,A,141228.30
4.13319,57.68782233,11.98130844,57.68782183,11.98130867,15:13:05.819582,0.00752,0.00000,0.00000,-0.12982,0.00000,-0.00177,0.00171,0.00129,-0.05960,-0.10150,0.99692,4.12741,0.00000,-1.25561,-1.25561,0.24416,-0.11206,4.11075,0.25756,-0.16679,-1.57080,-1.57080,A,141228.30
4.14121,57.68782230,11.98130845,57.68782183,11.98130867,15:13:05.827598,0.00531,0.00000,0.00000,-0.12988,0.00000,0.00128,0.00324,0.00084,-0.05453,-0.10370,0.99601,4.13546,0.00000,-1.30289,-1.30289,0.24483,-0.11480,4.11075,0.25756,-0.16679,-1.57080,-1.57080,A,141228.30
4.15177,57.68782228,11.98130846,57.68782183,11.98130867,15:13:05.838170,0.00547,0.00000,0.00000,-0.12987,0.00000,0.00144,0.00080,0.00190,-0.05484,-0.09919,0.99930,4.14606,0.00000,-1.34308,-1.34308,0.24547,-0.11740,4.11075,0.25756,-0.16679,-1.57080,-1.57080,A,141228.30
4.16186,57.68782226,11.98130847,57.68782183,11.98130867,15:13:05.848256,0.00516,0.00000,0.00000,-0.12994,0.00000,-0.00819,-0.00058,-0.00146,-0.05301,-0.09827,1.00064,4.15620,0.00000,-1.37723,-1.37723,0.24607,-0.11987,4.11075,0.25756,-0.16679,-1.57080,-1.57080,A,141228.30
4.17258,57.68782223,11.98130848,57.68782183,11.98130867,15:13:05.858972,0.00548,0.00000,0.00000,-0.12994,0.00000,-0.00070,-0.00103,0.00221,-0.05270,-0.09821,0.99887,4.16682,0.00000,-1.40627,-1.40627,0.24665,-0.12221,4.11075,0.25756,-0.16679,-1.57080,-1.57080,A,141228.30
4.18361,57.68782221,11.98130849,57.68782183,11.98130867,15:13:05.870012,0.00569,0.00000,0.00000,-0.12993,0.00000,0.00403,-0.00165,-0.00054,-0.05447,-0.10126,0.99735,4.17780,0.00000,-1.43095,-1.43095,0.24719,-0.12444,4.11075,0.25756,-0.16679,-1.57080,-1.57080,A,141228.30
4.19353,57.68782220,11.98130850,57.68782183,11.98130867,15:13:05.879921,0.00522,0.00000,0.00000,-0.12985,0.00000,0.00480,-0.00027,-0.00100,-0.05929,-0.09638,0.99790,4.18783,0.00000,-1.45193,-1.45193,0.24771,-0.12656,4.11075,0.25756,-0.16679,-1.57080,-1.57080,A,141228.30
4.20421,57.68782218,11.98130851,57.68782183,11.98130867,15:13:05.890598,0.00549,0.00000,0.00000,-0.12987,0.00000,-0.00284,-0.00119,0.00007,-0.06082,-0.09815,0.99747,4.19847,0.00000,-1.46976,-1.46976,0.24820,-0.12857,4.11075,0.25756,-0.16679,-1.57080,-1.57080,A,141228.30
4.24065,57.68782216,11.98130852,57.68782200,11.98130850,15:13:05.927054,0.03153,0.00000,0.00000,-0.12999,0.00000,-0.00742,-0.00271,0.00313,-0.06582,-0.10169,0.99698,4.20898,0.00000,-1.48491,-1.48491,0.24867,-0.13048,4.23471,0.24766,-0.14826,-4.22150,2.06169,A,141228.50
4.25839,57.68782215,11.98130852,57.68782200,11.98130850,15:13:05.944781,0.00722,0.00000,0.00000,-0.12994,0.00000,0.00037,0.00278,0.00022,-0.06545,-0.09729,0.99875,4.25286,0.00000,-1.89540,-1.89540,0.24862,-0.13137,4.23471,0.24766,-0.14826,-4.22150,2.06169,A,141228.50
4.26687,57.68782214,11.98130852,57.68782200,11.98130850,15:13:05.953258,0.00528,0.00000,0.00000,-0.12996,0.00000,-0.00727,0.00156,0.00374,-0.06594,-0.09589,0.99784,4.26140,0.00000,-2.24431,-2.24431,0.24857,-0.13222,4.23471,0.24766,-0.14826,-4.22150,2.06169,A,141228.50
4.27712,57.68782214,11.98130851,57.68782200,11.98130850,15:13:05.963516,0.00530,0.00000,0.00000,-0.13002,0.00000,-0.00284,0.00202,-0.00207,-0.06033,-0.10102,0.99497,4.27137,0.00000,-2.54089,-2.54089,0.24853,-0.13302,4.23471,0.24766,-0.14826,-4.22150,2.06169,A,141228.50
4.28781,57.68782213,11.98130851,57.68782200,11.98130850,15:13:05.974221,0.00559,0.00000,0.00000,-0.13011,0.00000,-0.00177,0.00156,0.00068,-0.05978,-0.10340,0.99662,4.28196,0.00000,-2.79298,-2.79298,0.24848,-0.13378,4.23471,0.24766,-0.14826,-4.22150,2.06169,A,141228.50
4.29783,57.68782212,11.98130851,57.68782200,11.98130850,15:13:05.984213,0.00520,0.00000,0.00000,-0.13015,0.00000,-0.00269,0.00217,0.00053,-0.06039,-0.09986,0.99497,4.29214,0.00000,-3.00726,-3.00726,0.24844,-0.13451,4.23471,0.24766,-0.14826,-4.22150,2.06169,A,141228.50
4.30852,57.68782212,11.98130851,57.68782200,11.98130850,15:13:05.994906,0.00548,0.00000,0.00000,-0.13021,0.00000,-0.00391,0.00278,-0.00130,-0.05826,-0.09986,0.99528,4.30276,0.00000,-3.18940,-3.18940,0.24840,-0.13519,4.23471,0.24766,-0.14826,-4.22150,2.06169,A,141228.50
4.31880,57.68782211,11.98130851,57.68782200,11.98130850,15:13:06.005183,0.00537,0.00000,0.00000,-0.13023,0.00000,-0.00299,0.00232,0.00145,-0.05771,-0.09827,0.99802,4.31335,0.00000,-3.34421,-3.34421,0.24836,-0.13585,4.23471,0.24766,-0.14826,-4.22150,2.06169,A,141228.50
4.32901,57.68782211,11.98130851,57.68782200,11.98130850,15:13:06.015399,0.00531,0.00000,0.00000,-0.13030,0.00000,-0.00880,-0.00180,0.00160,-0.05386,-0.09882,0.99924,4.32325,0.00000,-3.47580,-3.47580,0.24833,-0.13647,4.23471,0.24766,-0.14826,-4.22150,2.06169,A,141228.50
4.35593,57.68782210,11.98130851,57.68782183,11.98130867,15:13:06.042349,0.02183,0.00000,0.00000,-0.13029,0.00000,0.00037,-0.00088,0.00160,-0.05838,-0.09833,0.99650,4.33384,0.00000,-3.58766,-3.58766,0.24830,-0.13706,4.35000,0.25756,-0.16679,-1.07991,-1.07991,A,141228.60
4.37410,57.68782209,11.98130852,57.68782183,11.98130867,15:13:06.060494,0.00796,0.00000,0.00000,-0.13025,0.00000,0.00174,-0.00180,-0.00314,-0.06185,-0.10089,0.99814,4.36857,0.00000,-3.21150,-3.21150,0.24876,-0.13854,4.35000,0.25756,-0.16679,-1.07991,-1.07991,A,141228.60
4.38175,57.68782207,11.98130853,57.68782183,11.98130867,15:13:06.068136,0.00521,0.00000,0.00000,-0.13022,0.00000,0.00266,0.00110,-0.00298,-0.06161,-0.09827,0.99881,4.37605,0.00000,-2.89176,-2.89176,0.24920,-0.13996,4.35000,0.25756,-0.16679,-1.07991,-1.07991,A,141228.60
4.39252,57.68782206,11.98130853,57.68782183,11.98130867,15:13:06.078910,0.00557,0.00000,0.00000,-0.13018,0.00000,0.00189,0.00095,0.00114,-0.06167,-0.09772,0.99723,4.38666,0.00000,-2.61998,-2.61998,0.24962,-0.14130,4.35000,0.25756,-0.16679,-1.07991,-1.07991,A,141228.60
4.40250,57.68782205,11.98130854,57.68782183,11.98130867,15:13:06.088890,0.00516,0.00000,0.00000,-0.13015,0.00000,0.00357,-0.00607,-0.00023,-0.06155,-0.09949,0.99765,4.39704,0.00000,-2.38897,-2.38897,0.25001,-0.14257,4.35000,0.25756,-0.16679,-1.07991,-1.07991,A,141228.60
4.41297,57.68782204,11.98130855,57.68782183,11.98130867,15:13:06.099355,0.00529,0.00000,0.00000,-0.13015,0.00000,0.00128,-0.00088,-0.00054,-0.06246,-0.10004,0.99698,4.40722,0.00000,-2.19261,-2.19261,0.25039,-0.14378,4.35000,0.25756,-0.16679,-1.07991,-1.07991,A,141228.60
4.42392,57.68782203,11.98130855,57.68782183,11.98130867,15:13:06.110309,0.00583,0.00000,0.00000,-0.13012,0.00000,0.00480,-0.00501,0.00404,-0.06527,-0.10010,0.99473,4.41805,0.00000,-2.02570,-2.02570,0.25075,-0.14493,4.35000,0.25756,-0.16679,-1.07991,-1.07991,A,141228.60
4.43614,57.68782202,11.98130856,57.68782183,11.98130867,15:13:06.122529,0.00732,0.00000,0.00000,-0.13001,0.00000,0.00907,0.00126,0.00297,-0.06429,-0.09888,0.99418,4.42994,0.00000,-1.88383,-1.88383,0.25109,-0.14603,4.35000,0.25756,-0.16679,-1.07991,-1.07991,A,141228.60
4.44682,57.68782201,11.98130856,57.68782183,11.98130867,15:13:06.133209,0.00743,0.00000,0.00000,-0.12997,0.00000,0.00495,-0.00271,0.00358,-0.06338,-0.09955,0.99723,4.44130,0.00000,-1.76325,-1.76325,0.25141,-0.14706,4.35000,0.25756,-0.16679,-1.07991,-1.07991,A,141228.60
4.47301,57.68782200,11.98130857,57.68782167,11.98130900,15:13:06.159408,0.02322,0.00000,0.00000,-0.12990,0.00000,0.00388,-0.00241,0.00404,-0.06576,-0.09717,0.99851,4.45098,0.00000,-1.66074,-1.66074,0.25172,-0.14805,4.46748,0.27737,-0.18532,-0.75203,-0.75203,A,141228.70
4.49007,57.68782199,11.98130859,57.68782167,11.98130900,15:13:06.176463,0.00733,0.00000,0.00000,-0.12971,0.00000,0.00754,0.00126,0.00129,-0.06118,-0.10248,0.99741,4.48380,0.00000,-1.52444,-1.52444,0.25300,-0.14992,4.46748,0.27737,-0.18532,-0.75203,-0.75203,A,141228.70
4.49831,57.68782197,11.98130861,57.68782167,11.98130900,15:13:06.184704,0.00517,0.00000,0.00000,-0.12967,0.00000,0.00373,-0.00409,-0.00252,-0.05783,-0.09790,0.99723,4.49284,0.00000,-1.40858,-1.40858,0.25422,-0.15169,4.46748,0.27737,-0.18532,-0.75203,-0.75203,A,141228.70
4.50895,57.68782195,11.98130863,57.68782167,11.98130900,15:13:06.195343,0.00529,0.00000,0.00000,-0.12969,0.00000,-0.00192,-0.00226,-0.00191,-0.05813,-0.09864,0.99997,4.50321,0.00000,-1.31009,-1.31009,0.25538,-0.15337,4.46748,0.27737,-0.18532,-0.75203,-0.75203,A,141228.70
4.51957,57.68782194,11.98130865,57.68782167,11.98130900,15:13:06.205973,0.00550,0.00000,0.00000,-0.12967,0.00000,-0.00009,-0.00302,-0.00237,-0.05795,-0.09790,0.99979,4.51381,0.00000,-1.22639,-1.22639,0.25648,-0.15497,4.46748,0.27737,-0.18532,-0.75203,-0.75203,A,141228.70
4.52989,57.68782193,11.98130867,57.68782167,11.98130900,15:13:06.216283,0.00543,0.00000,0.00000,-0.12968,0.00000,0.00021,0.00110,-0.00420,-0.05966,-0.09925,0.99912,4.52397,0.00000,-1.15523,-1.15523,0.25752,-0.15648,4.46748,0.27737,-0.18532,-0.75203,-0.75203,A,141228.70
4.54037,57.68782191,11.98130868,57.68782167,11.98130900,15:13:06.226754,0.00550,0.00000,0.00000,-0.12969,0.00000,0.00098,0.00278,0.00129,-0.05588,-0.10028,0.99839,4.53459,0.00000,-1.09475,-1.09475,0.25852,-0.15793,4.46748,0.27737,-0.18532,-0.75203,-0.75203,A,141228.70
4.55043,57.68782190,11.98130870,57.68782167,11.98130900,15:13:06.236819,0.00515,0.00000,0.00000,-0.12964,0.00000,0.00403,-0.00119,-0.00069,-0.05765,-0.09784,0.99723,4.54498,0.00000,-1.04334,-1.04334,0.25946,-0.15930,4.46748,0.27737,-0.18532,-0.75203,-0.75203,A,141228.70
4.56095,57.68782189,11.98130871,57.68782167,11.98130900,15:13:06.247342,0.00528,0.00000,0.00000,-0.12964,0.00000,0.00434,-0.00226,-0.00268,-0.05777,-0.10126,0.99729,4.55520,0.00000,-0.99965,-0.99965,0.26036,-0.16060,4.46748,0.27737,-0.18532,-0.75203,-0.75203,A,141228.70
4.58757,57.68782188,11.98130873,57.68782200,11.98130883,15:13:06.273969,0.02149,0.00000,0.00000,-0.12958,0.00000,0.00312,0.00126,0.00007,-0.05990,-0.09717,0.99839,4.56580,0.00000,-0.96250,-0.96250,0.26121,-0.16183,4.58185,0.26747,-0.14826,1.83196,1.83196,A,141228.80
4.60747,57.68782188,11.98130873,57.68782200,11.98130883,15:13:06.293873,0.00978,0.00000,0.00000,-0.12964,0.00000,-0.00147,-0.00042,0.00099,-0.06191,-0.09876,0.99735,4.60117,0.00000,-0.54334,-0.54334,0.26152,-0.16115,4.58185,0.26747,-0.14826,1.83196,1.83196,A,141228.80
4.61354,57.68782189,11.98130874,57.68782200,11.98130883,15:13:06.299927,0.00516,0.00000,0.00000,-0.12962,0.00000,-0.00360,-0.00058,-0.00023,-0.06362,-0.09595,0.99845,4.60784,0.00000,-0.18704,-0.18704,0.26182,-0.16051,4.58185,0.26747,-0.14826,1.83196,1.83196,A,141228.80
4.62443,57.68782190,11.98130874,57.68782200,11.98130883,15:13:06.310820,0.00565,0.00000,0.00000,-0.12970,0.00000,-0.00467,0.00080,0.00374,-0.06387,-0.10077,0.99765,4.61866,0.00000,0.11581,0.11581,0.26210,-0.15990,4.58185,0.26747,-0.14826,1.83196,1.83196,A,141228.80
4.63434,57.68782190,11.98130875,57.68782200,11.98130883,15:13:06.320724,0.00515,0.00000,0.00000,-0.12976,0.00000,-0.00315,0.00049,0.00267,-0.06204,-0.10016,0.99735,4.62888,0.00000,0.37323,0.37323,0.26237,-0.15932,4.58185,0.26747,-0.14826,1.83196,1.83196,A,141228.80
4.64539,57.68782191,11.98130875,57.68782200,11.98130883,15:13:06.331785,0.00560,0.00000,0.00000,-0.12981,0.00000,-0.00299,-0.00058,0.00313,-0.06179,-0.09980,0.99650,4.63934,0.00000,0.59204,0.59204,0.26262,-0.15876,4.58185,0.26747,-0.14826,1.83196,1.83196,A,141228.80
4.65564,57.68782191,11.98130876,57.68782200,11.98130883,15:13:06.342044,0.00545,0.00000,0.00000,-0.12980,0.00000,-0.00009,0.00034,-0.00314,-0.05923,-0.09833,0.99729,4.64994,0.00000,0.77803,0.77803,0.26287,-0.15824,4.58185,0.26747,-0.14826,1.83196,1.83196,A,141228.80
4.66578,57.68782191,11.98130876,57.68782200,11.98130883,15:13:06.352172,0.00519,0.00000,0.00000,-0.12980,0.00000,0.00006,0.00202,0.00190,-0.06106,-0.09882,1.00003,4.66011,0.00000,0.93612,0.93612,0.26310,-0.15774,4.58185,0.26747,-0.14826,1.83196,1.83196,A,141228.80
4.67647,57.68782192,11.98130876,57.68782200,11.98130883,15:13:06.362861,0.00548,0.00000,0.00000,-0.12979,0.00000,-0.00162,-0.00180,-0.00237,-0.05935,-0.09723,0.99796,4.67071,0.00000,1.07049,1.07049,0.26331,-0.15726,4.58185,0.26747,-0.14826,1.83196,1.83196,A,141228.80
4.70152,57.68782192,11.98130877,57.68782217,11.98130917,15:13:06.387916,0.02013,0.00000,0.00000,-0.12982,0.00000,-0.00253,-0.00134,-0.00390,-0.06130,-0.09851,0.99717,4.68105,0.00000,1.18471,1.18471,0.26352,-0.15681,4.69691,0.28728,-0.12973,0.75203,0.75203,A,141228.90
4.72024,57.68782194,11.98130879,57.68782217,11.98130917,15:13:06.406635,0.00861,0.00000,0.00000,-0.12981,0.00000,0.00052,0.00202,-0.00161,-0.06015,-0.09955,0.99723,4.71422,0.00000,1.11981,1.11981,0.26471,-0.15546,4.69691,0.28728,-0.12973,0.75203,0.75203,A,141228.90
4.72809,57.68782195,11.98130881,57.68782217,11.98130917,15:13:06.414485,0.00605,0.00000,0.00000,-0.12982,0.00000,-0.00055,0.00385,-0.00084,-0.06063,-0.09882,0.99735,4.72177,0.00000,1.06464,1.06464,0.26584,-0.15417,4.69691,0.28728,-0.12973,0.75203,0.75203,A,141228.90
4.73767,57.68782196,11.98130882,57.68782217,11.98130917,15:13:06.424062,0.00524,0.00000,0.00000,-0.12984,0.00000,-0.00085,0.00278,0.00190,-0.05856,-0.09937,0.99369,4.73195,0.00000,1.01775,1.01775,0.26691,-0.15295,4.69691,0.28728,-0.12973,0.75203,0.75203,A,141228.90
4.74860,57.68782197,11.98130884,57.68782217,11.98130917,15:13:06.434986,0.00576,0.00000,0.00000,-0.12985,0.00000,-0.00055,0.00232,0.00007,-0.06069,-0.09882,0.99820,4.74283,0.00000,0.97789,0.97789,0.26793,-0.15179,4.69691,0.28728,-0.12973,0.75203,0.75203,A,141228.90
4.75842,57.68782198,11.98130886,57.68782217,11.98130917,15:13:06.444807,0.00518,0.00000,0.00000,-0.12989,0.00000,-0.00223,0.00156,0.00129,-0.06112,-0.09961,0.99564,4.75297,0.00000,0.94401,0.94401,0.26890,-0.15069,4.69691,0.28728,-0.12973,0.75203,0.75203,A,141228.90
4.76897,57.68782199,11.98130887,57.68782217,11.98130917,15:13:06.455357,0.00530,0.00000,0.00000,-0.12990,0.00000,-0.00070,0.00171,0.00129,-0.06027,-0.09931,0.99881,4.76321,0.00000,0.91522,0.91522,0.26982,-0.14964,4.69691,0.28728,-0.12973,0.75203,0.75203,A,141228.90
4.77961,57.68782200,11.98130889,57.68782217,11.98130917,15:13:06.466013,0.00555,0.00000,0.00000,-0.12995,0.00000,-0.00238,0.00019,0.00068,-0.06313,-0.10071,0.99680,4.77392,0.00000,0.89074,0.89074,0.27069,-0.14864,4.69691,0.28728,-0.12973,0.75203,0.75203,A,141228.90
4.78969,57.68782201,11.98130890,57.68782217,11.98130917,15:13:06.476072,0.00521,0.00000,0.00000,-0.12999,0.00000,-0.00131,-0.00409,0.00190,-0.06015,-0.10035,0.99406,4.78399,0.00000,0.86993,0.86993,0.27152,-0.14770,4.69691,0.28728,-0.12973,0.75203,0.75203,A,141228.90
4.81681,57.68782201,11.98130891,57.68782150,11.98130933,15:13:06.503210,0.02193,0.00000,0.00000,-0.13006,0.00000,-0.00315,-0.00103,0.00084,-0.06234,-0.10108,0.99723,4.79461,0.00000,0.85225,0.85225,0.27231,-0.14680,4.81064,0.29719,-0.20386,-1.43795,-1.43795,A,141229.00
4.83278,57.68782199,11.98130894,57.68782150,11.98130933,15:13:06.519165,0.00714,0.00000,0.00000,-0.13004,0.00000,0.00052,0.00141,-0.00176,-0.06094,-0.09913,0.99955,4.82612,0.00000,0.50872,0.50872,0.27355,-0.14965,4.81064,0.29719,-0.20386,-1.43795,-1.43795,A,141229.00
4.84117,57.68782196,11.98130896,57.68782150,11.98130933,15:13:06.527557,0.00530,0.00000,0.00000,-0.13007,0.00000,-0.00223,-0.00165,-0.00130,-0.06076,-0.09974,0.99936,4.83542,0.00000,0.21672,0.21672,0.27473,-0.15236,4.81064,0.29719,-0.20386,-1.43795,-1.43795,A,141229.00
4.85172,57.68782194,11.98130897,57.68782150,11.98130933,15:13:06.538115,0.00543,0.00000,0.00000,-0.13000,0.00000,0.00571,-0.00134,-0.00650,-0.06137,-0.09815,0.99735,4.84603,0.00000,-0.03148,-0.03148,0.27585,-0.15494,4.81064,0.29719,-0.20386,-1.43795,-1.43795,A,141229.00
4.86188,57.68782192,11.98130899,57.68782150,11.98130933,15:13:06.548271,0.00519,0.00000,0.00000,-0.12999,0.00000,0.00098,-0.00012,0.00068,-0.06179,-0.09894,0.99753,4.85620,0.00000,-0.24245,-0.24245,0.27692,-0.15738,4.81064,0.29719,-0.20386,-1.43795,-1.43795,A,141229.00
4.87258,57.68782190,11.98130901,57.68782150,11.98130933,15:13:06.558973,0.00548,0.00000,0.00000,-0.12993,0.00000,0.00174,0.00370,0.00221,-0.06265,-0.09620,0.99759,4.86683,0.00000,-0.42178,-0.42178,0.27793,-0.15971,4.81064,0.29719,-0.20386,-1.43795,-1.43795,A,141229.00
4.88267,57.68782188,11.98130903,57.68782150,11.98130933,15:13:06.569068,0.00517,0.00000,0.00000,-0.12992,0.00000,0.00082,0.00126,-0.00023,-0.06350,-0.09858,0.99759,4.87722,0.00000,-0.57420,-0.57420,0.27890,-0.16191,4.81064,0.29719,-0.20386,-1.43795,-1.43795,A,141229.00
4.89304,57.68782186,11.98130904,57.68782150,11.98130933,15:13:06.579440,0.00531,0.00000,0.00000,-0.12989,0.00000,0.00113,0.00263,-0.00451,-0.06454,-0.09778,0.99735,4.88730,0.00000,-0.70377,-0.70377,0.27981,-0.16401,4.81064,0.29719,-0.20386,-1.43795,-1.43795,A,141229.00
4.90370,57.68782184,11.98130906,57.68782150,11.98130933,15:13:06.590098,0.00556,0.00000,0.00000,-0.12986,0.00000,0.00159,0.00095,-0.00008,-0.06484,-0.09790,0.99613,4.89790,0.00000,-0.81389,-0.81389,0.28068,-0.16600,4.81064,0.29719,-0.20386,-1.43795,-1.43795,A,141229.00
4.93911,57.68782182,11.98130907,57.68782117,11.98130983,15:13:06.625762,0.03058,0.00000,0.00000,-0.12984,0.00000,0.00189,0.00065,0.00007,-0.06191,-0.09900,0.99967,4.90804,0.00000,-0.90750,-0.90750,0.28151,-0.16790,4.93483,0.32690,-0.24092,-0.89496,-0.89496,A,141229.20
4.94983,57.68782179,11.98130911,57.68782117,11.98130983,15:13:06.636218,0.00553,0.00000,0.00000,-0.12988,0.00000,0.00006,0.00217,-0.00130,-0.05948,-0.10132,0.99650,4.94413,0.00000,-0.90562,-0.90562,0.28378,-0.17155,4.93483,0.32690,-0.24092,-0.89496,-0.89496,A,141229.20
4.96020,57.68782176,11.98130914,57.68782117,11.98130983,15:13:06.646588,0.00549,0.00000,0.00000,-0.12988,0.00000,0.00205,0.00171,-0.00039,-0.05923,-0.10004,0.99643,4.95444,0.00000,-0.90402,-0.90402,0.28593,-0.17502,4.93483,0.32690,-0.24092,-0.89496,-0.89496,A,141229.20
4.97027,57.68782173,11.98130918,57.68782117,11.98130983,15:13:06.656653,0.00516,0.00000,0.00000,-0.12987,0.00000,0.00082,-0.00119,-0.00023,-0.06088,-0.09882,0.99833,4.96481,0.00000,-0.90266,-0.90266,0.28798,-0.17831,4.93483,0.32690,-0.24092,-0.89496,-0.89496,A,141229.20
4.98096,57.68782170,11.98130921,57.68782117,11.98130983,15:13:06.667348,0.00529,0.00000,0.00000,-0.12990,0.00000,-0.00024,0.00080,-0.00314,-0.06063,-0.10047,0.99729,4.97521,0.00000,-0.90151,-0.90151,0.28993,-0.18144,4.93483,0.32690,-0.24092,-0.89496,-0.89496,A,141229.20
4.99155,57.68782167,11.98130924,57.68782117,11.98130983,15:13:06.677959,0.00549,0.00000,0.00000,-0.12993,0.00000,0.00006,0.00294,-0.00039,-0.05893,-0.10083,0.99802,4.98580,0.00000,-0.90052,-0.90052,0.29178,-0.18442,4.93483,0.32690,-0.24092,-0.89496,-0.89496,A,141229.20
5.00169,57.68782165,11.98130927,57.68782117,11.98130983,15:13:06.688075,0.00522,0.00000,0.00000,-0.12993,0.00000,-0.00192,0.00019,-0.00100,-0.05832,-0.09821,0.99845,4.99599,0.00000,-0.89969,-0.89969,0.29353,-0.18724,4.93483,0.32690,-0.24092,-0.89496,-0.89496,A,141229.20
5.02631,57.68782163,11.98130930,57.68782117,11.98130983,15:13:06.712730,0.01942,0.00000,0.00000,-0.12993,0.00000,-0.00024,-0.00149,0.00145,-0.05960,-0.09858,0.99772,5.00657,0.00000,-0.89898,-0.89898,0.29520,-0.18993,4.93483,0.32690,-0.24092,-0.89496,-0.89496,A,141229.20
5.05258,57.68782160,11.98130933,57.68782133,11.98130983,15:13:06.738998,0.02155,0.00000,0.00000,0.00000,0.00000,0.00327,-0.00058,-0.00161,-0.06094,-0.09833,0.99894,5.03091,0.00000,-0.89838,-0.89838,0.29679,-0.19248,5.04718,0.32690,-0.22239,1.57080,1.57080,A,141229.30
5.09027,57.68782159,11.98130935,57.68782133,11.98130983,15:13:06.776637,0.03258,0.00000,0.00000,-0.00194,0.00000,0.00174,-0.00103,0.00236,-0.06149,-0.10120,0.99765,5.05827,0.00000,-0.52800,-0.52800,0.29829,-0.19397,5.04718,0.32690,-0.22239,1.57080,1.57080,A,141229.30
