Time,lat_estimated,lon_estimated,latitude,longitude,RealTime,CalculationTime,MeasuredVelocity,FilteredVelocity,Roll,SteeringAngle,RollRate,gy,gz,ax,ay,az,imu_read_timing,v_estimated,yaw_estimated,heading_estimated,x_estimated,y_estimated,GPS_timestamp,x_GPS,y_GPS,theta_GPS,theta_GPS_noUnwrap,status,NMEA timestamp
0.10635,57.68796183,11.98124750,57.68796183,11.98124750,10:14:51.311957,0.05563,0.00000,0.00000,-0.00254,-0.01772,-0.02425,0.00415,-0.07463,0.06753,-0.01659,1.10739,0.05373,0.00000,0.01030,0.00000,0.00000,0.00000,0.06971,0.00000,0.00000,0.00000,0.00000,A,091452.00
0.13058,57.68796183,11.98124750,57.68796183,11.98124750,10:14:51.336163,0.01343,0.00000,0.00000,-0.00589,-0.01772,-0.04150,-0.00379,-0.07081,-0.01677,-0.02556,0.99180,0.11825,0.00000,0.01030,0.00000,0.00000,0.00000,0.06971,0.00000,0.00000,0.00000,0.00000,A,091452.00
0.15900,57.68796183,11.98124750,57.68796183,11.98124750,10:14:51.364590,0.01459,0.00000,0.00000,-0.00841,-0.01772,-0.07006,0.02049,-0.09494,0.09833,-0.01574,1.02724,0.14737,0.00000,0.01030,0.00000,0.00000,0.00000,0.06971,0.00000,0.00000,0.00000,0.00000,A,091452.00
0.18835,57.68796183,11.98124750,57.68796183,11.98124750,10:14:51.393933,0.01665,0.00000,0.00000,-0.00980,-0.01772,-0.05601,0.02309,-0.09311,0.00549,0.01690,1.03352,0.17263,0.00000,0.01030,0.00000,0.00000,0.00000,0.06971,0.00000,0.00000,0.00000,0.00000,A,091452.00
0.22374,57.68796183,11.98124750,57.68796183,11.98124750,10:14:51.429328,0.02189,0.00000,0.00000,-0.01193,-0.01772,-0.05464,-0.02334,-0.07158,0.08296,-0.01074,0.97716,0.20497,0.00000,0.01030,0.00000,0.00000,0.00000,0.06971,0.00000,0.00000,0.00000,0.00000,A,091452.00
0.25720,57.68796183,11.98124750,57.68796183,11.98124750,10:14:51.462803,0.01991,0.48610,0.48610,-0.01364,-0.01772,-0.04593,0.01591,-0.06715,-0.01873,-0.00512,1.01736,0.23698,0.09722,0.01030,0.00000,0.00000,0.00000,0.06971,0.00000,0.00000,0.00000,0.00000,A,091452.00
0.28231,57.68796183,11.98124755,57.68796183,11.98124750,10:14:51.487883,0.01337,0.48610,0.48610,-0.01529,-0.01769,-0.03631,0.02340,-0.07524,0.12365,-0.02013,0.94300,0.26996,0.17500,0.01026,-0.00003,0.00285,0.00000,0.06971,0.00000,0.00000,0.00000,0.00000,A,091452.00
0.30027,57.68796183,11.98124759,57.68796183,11.98124750,10:14:51.505840,0.01091,0.48610,0.48610,-0.01659,-0.01664,-0.03631,0.00797,-0.07310,0.07686,-0.03044,0.95611,0.28907,0.23722,0.01014,0.00046,0.00539,-0.00000,0.06971,0.00000,0.00000,0.00000,0.00000,A,091452.00
0.31964,57.68796183,11.98124765,57.68796183,11.98124750,10:14:51.525215,0.01124,0.48610,0.48610,-0.01713,-0.01376,-0.02440,-0.00211,-0.06669,0.05094,0.00238,1.03791,0.30817,0.28699,0.00977,0.00177,0.00900,0.00000,0.06971,0.00000,0.00000,0.00000,0.00000,A,091452.00
0.33904,57.68796183,11.98124773,57.68796183,11.98124750,10:14:51.544616,0.01102,0.48610,0.48610,-0.01858,-0.01027,-0.01172,-0.01341,-0.06913,0.08699,-0.07430,0.99674,0.32781,0.32682,0.00915,0.00317,0.01337,0.00001,0.06971,0.00000,0.00000,0.00000,0.00000,A,091452.00
0.35811,57.68796183,11.98124780,57.68796183,11.98124750,10:14:51.563689,0.01127,0.48610,0.48610,-0.02021,-0.00759,-0.01203,-0.02700,-0.08227,-0.02568,-0.08815,0.99906,0.34635,0.35867,0.00839,0.00398,0.01793,0.00003,0.06971,0.00000,0.00000,0.00000,0.00000,A,091452.00
0.37614,57.68796183,11.98124788,57.68796183,11.98124750,10:14:51.581715,0.01090,0.48610,0.48610,-0.01974,-0.00532,0.00217,-0.00684,-0.07326,-0.09022,0.03538,1.06799,0.36496,0.38416,0.00756,0.00447,0.02283,0.00005,0.06971,0.00000,0.00000,0.00000,0.00000,A,091452.00
0.39427,57.68796183,11.98124797,57.68796183,11.98124750,10:14:51.599848,0.01077,0.48610,0.48610,-0.01957,-0.00283,0.02600,0.02630,-0.06684,0.06374,-0.01440,0.96484,0.38320,0.40455,0.00665,0.00501,0.02765,0.00007,0.06971,0.00000,0.00000,0.00000,0.00000,A,091452.00
0.41234,57.68796183,11.98124805,57.68796183,11.98124750,10:14:51.617920,0.01088,0.48610,0.48610,-0.02051,0.00040,0.03119,0.00461,-0.05646,0.04727,-0.08564,0.90420,0.40114,0.42086,0.00561,0.00584,0.03249,0.00010,0.06971,0.00000,0.00000,0.00000,0.00000,A,091452.00
0.43090,57.68796183,11.98124813,57.68796183,11.98124750,10:14:51.636473,0.01103,0.48610,0.48610,-0.01943,0.00410,0.03928,-0.00577,-0.05310,0.05234,0.02672,0.96740,0.41981,0.43391,0.00441,0.00680,0.03756,0.00013,0.06971,0.00000,0.00000,0.00000,0.00000,A,091452.00
0.44893,57.68796183,11.98124821,57.68796183,11.98124750,10:14:51.654499,0.01084,0.48610,0.48610,-0.01946,0.00750,0.05165,-0.02303,-0.05310,0.01806,-0.06320,1.11118,0.43758,0.44435,0.00311,0.00748,0.04234,0.00017,0.06971,0.00000,0.00000,0.00000,0.00000,A,091452.00
0.46917,57.68796184,11.98124829,57.68796183,11.98124750,10:14:51.674753,0.01289,0.48610,0.48610,-0.02020,0.01067,0.03837,-0.01677,-0.06287,0.06143,-0.10260,1.13320,0.45603,0.45270,0.00176,0.00796,0.04720,0.00022,0.06971,0.00000,0.00000,0.00000,0.00000,A,091452.00
0.50039,57.68796184,11.98124846,57.68796183,11.98124750,10:14:51.705996,0.01634,0.48610,0.48610,-0.01812,0.01642,0.04020,-0.04899,-0.07035,-0.05270,0.05880,0.85906,0.48450,0.45938,0.00016,0.00971,0.05686,0.00030,0.06971,0.00000,0.00000,0.00000,0.00000,A,091452.00
0.52722,57.68796184,11.98124860,57.68796183,11.98124750,10:14:51.732801,0.01536,0.48610,0.48610,-0.01729,0.02293,0.08494,0.02935,-0.05249,-0.10303,-0.09126,0.99668,0.51204,0.46472,-0.00172,0.01161,0.06522,0.00039,0.06971,0.00000,0.00000,0.00000,0.00000,A,091452.00
0.55252,57.68796184,11.98124872,57.68796183,11.98124750,10:14:51.758096,0.01440,0.48610,0.48610,-0.01704,0.02844,0.04234,0.05150,-0.04500,0.15951,-0.05014,1.02840,0.53821,0.46900,-0.00375,0.01279,0.07265,0.00050,0.06971,0.00000,0.00000,0.00000,0.00000,A,091452.00
0.58196,57.68796184,11.98124887,57.68796183,11.98124750,10:14:51.788423,0.01525,0.48610,0.48610,-0.01399,0.03396,0.07685,-0.00027,-0.04592,-0.00384,0.06582,1.14454,0.56873,0.47242,-0.00588,0.01387,0.08122,0.00063,0.06971,0.00000,0.00000,0.00000,0.00000,A,091452.00
0.61338,57.68796184,11.98124900,57.68796183,11.98124750,10:14:51.818965,0.01860,0.48610,0.48610,-0.01482,0.03843,0.05959,-0.01600,-0.05157,0.12438,-0.12822,0.83357,0.59654,0.47516,-0.00803,0.01433,0.08937,0.00077,0.06971,0.00000,0.00000,0.00000,0.00000,A,091452.00
0.64358,57.68796184,11.98124915,57.68796183,11.98124750,10:14:51.850146,0.01608,0.48610,0.48610,-0.01283,0.04172,0.04432,-0.00593,-0.05478,-0.01897,0.04343,0.91659,0.62967,0.47735,-0.01007,0.01420,0.09824,0.00092,0.06971,0.00000,0.00000,0.00000,0.00000,A,091452.00
0.67631,57.68796184,11.98124928,57.68796183,11.98124750,10:14:51.881912,0.01922,0.48610,0.48610,-0.01263,0.04548,0.04600,0.00140,-0.05264,0.21405,-0.07674,1.13985,0.66041,0.47910,-0.01211,0.01435,0.10602,0.00105,0.06971,0.00000,0.00000,0.00000,0.00000,A,091452.00
0.70309,57.68796184,11.98124941,57.68796183,11.98124750,10:14:51.908665,0.01632,0.48610,0.48610,-0.01144,0.04828,0.02615,-0.06014,-0.05187,-0.07637,0.04496,1.03432,0.68918,0.48050,-0.01405,0.01404,0.11361,0.00119,0.06971,0.00000,0.00000,0.00000,0.00000,A,091452.00
0.73445,57.68796184,11.98124950,57.68796183,11.98124750,10:14:51.940049,0.01792,0.48610,0.48610,-0.01083,0.05055,0.05364,0.01988,-0.03859,0.03660,-0.03782,0.89963,0.71666,0.48162,-0.01594,0.01347,0.11904,0.00128,0.06971,0.00000,0.00000,0.00000,0.00000,A,091452.00
0.75948,57.68796185,11.98124962,57.68796183,11.98124750,10:14:51.965063,0.01490,0.48610,0.48610,-0.01017,0.05284,0.02783,-0.00593,-0.04088,0.01348,0.00354,0.97759,0.74694,0.48252,-0.01765,0.01309,0.12596,0.00139,0.06971,0.00000,0.00000,0.00000,0.00000,A,091452.00
0.78829,57.68796185,11.98124973,57.68796183,11.98124750,10:14:51.993865,0.01540,0.48610,0.48610,-0.00976,0.05448,0.04432,0.03409,-0.05096,0.14555,-0.04685,1.09086,0.77640,0.48323,-0.01924,0.01247,0.13244,0.00149,0.06971,0.00000,0.00000,0.00000,0.00000,A,091452.00
0.81747,57.68796185,11.98124981,57.68796183,11.98124750,10:14:52.023259,0.01698,0.48610,0.48610,-0.00962,0.05661,0.02355,-0.03937,-0.06287,0.09687,-0.01385,0.96898,0.80171,0.48381,-0.02081,0.01213,0.13710,0.00156,0.06971,0.00000,0.00000,0.00000,0.00000,A,091452.00
0.84712,57.68796185,11.98124990,57.68796183,11.98124750,10:14:52.052714,0.01640,0.48610,0.48610,-0.00828,0.06091,0.05104,-0.03723,-0.04470,-0.10199,0.00451,1.05872,0.83192,0.48427,-0.02245,0.01300,0.14289,0.00163,0.06971,0.00000,0.00000,0.00000,0.00000,A,091452.00
0.88060,57.68796185,11.98125001,57.68796183,11.98124750,10:14:52.086201,0.01805,0.48610,0.48610,-0.00711,0.06563,0.05104,0.00492,-0.03095,0.01659,-0.01171,0.89133,0.86445,0.48463,-0.02417,0.01403,0.14938,0.00173,0.06971,0.00000,0.00000,0.00000,0.00000,A,091452.00
0.91145,57.68796185,11.98125012,57.68796183,11.98124750,10:14:52.117320,0.01886,0.48610,0.48610,-0.00423,0.07011,0.09044,0.06326,-0.02881,-0.00366,0.02251,1.09489,0.89653,0.48493,-0.02595,0.01486,0.15577,0.00184,0.06971,0.00000,0.00000,0.00000,0.00000,A,091452.00
0.94143,57.68796185,11.98125022,57.68796183,11.98124750,10:14:52.147011,0.01590,0.48610,0.48610,-0.00251,0.07608,0.07884,-0.04991,-0.04607,0.18800,-0.01952,1.05542,0.92646,0.48516,-0.02797,0.01633,0.16152,0.00195,0.06971,0.00000,0.00000,0.00000,0.00000,A,091452.00
0.97076,57.68796185,11.98125029,57.68796183,11.98124750,10:14:52.176342,0.01464,0.48610,0.48610,0.00065,0.08095,0.10739,-0.03387,-0.03721,-0.12944,0.01690,0.92903,0.95708,0.48535,-0.03011,0.01703,0.16578,0.00205,0.06971,0.00000,0.00000,0.00000,0.00000,A,091452.00
0.99932,57.68796185,11.98125036,57.68796183,11.98124750,10:14:52.205617,0.01555,0.48610,0.48610,0.00318,0.08612,0.11900,0.02782,-0.01339,0.15354,-0.02001,0.88432,0.98503,0.48550,-0.03232,0.01784,0.17018,0.00216,0.06971,0.00000,0.00000,0.00000,0.00000,A,091452.00
1.02917,57.68796185,11.98125042,57.68796183,11.98124750,10:14:52.234746,0.01660,0.48610,0.48610,0.00809,0.09272,0.13397,-0.07175,0.00432,-0.01177,0.10785,1.02657,1.01374,0.48562,-0.03477,0.01925,0.17363,0.00227,0.06971,0.00000,0.00000,0.00000,0.00000,A,091452.00
1.07080,57.68796213,11.98125026,57.68796733,11.98124117,10:14:52.276399,0.02831,0.48610,0.48610,0.01052,0.09733,0.13168,0.03164,-0.01599,-0.04063,-0.05929,1.21945,1.04204,0.48572,0.28163,0.33834,0.16424,0.03308,1.05974,-0.37643,0.61157,2.12255,2.12255,A,091453.00
1.09556,57.68796243,11.98124999,57.68796733,11.98124117,10:14:52.301133,0.01275,0.48610,0.48610,0.01885,0.10288,0.16436,-0.01784,-0.01568,-0.03099,0.10931,0.85650,1.08520,0.48579,0.54965,0.60961,0.14808,0.06584,1.05974,-0.37643,0.61157,2.12255,2.12255,A,091453.00
1.11878,57.68796272,11.98124967,57.68796733,11.98124117,10:14:52.324985,0.01216,0.48610,0.48610,0.02051,0.10829,0.16527,-0.00333,-0.00194,-0.05618,-0.07021,0.93580,1.10651,0.48586,0.77683,0.83996,0.12918,0.09824,1.05974,-0.37643,0.61157,2.12255,2.12255,A,091453.00
1.14625,57.68796303,11.98124938,57.68796733,11.98124117,10:14:52.351828,0.01514,0.48610,0.48610,0.02343,0.11284,0.12587,-0.02288,-0.00728,0.15213,0.02037,1.15900,1.13369,0.48590,0.96980,1.03560,0.11166,0.13255,1.05974,-0.37643,0.61157,2.12255,2.12255,A,091453.00
1.17241,57.68796333,11.98124906,57.68796733,11.98124117,10:14:52.378001,0.01529,0.48610,0.48610,0.02788,0.11545,0.14114,-0.01494,-0.01232,-0.15775,0.12938,1.14735,1.15893,0.48594,1.13360,1.20093,0.09300,0.16619,1.05974,-0.37643,0.61157,2.12255,2.12255,A,091453.00
1.20038,57.68796363,11.98124874,57.68796733,11.98124117,10:14:52.405973,0.01624,0.48610,0.48610,0.03014,0.11740,0.12373,0.01683,-0.00453,0.14347,-0.01928,0.86205,1.18703,0.48598,1.27273,1.34120,0.07376,0.19938,1.05974,-0.37643,0.61157,2.12255,2.12255,A,091453.00
1.22886,57.68796392,11.98124841,57.68796733,11.98124117,10:14:52.434437,0.01426,0.48610,0.48610,0.03372,0.11958,0.11457,-0.00562,0.00646,-0.03587,0.07064,0.98491,1.21684,0.48600,1.39089,1.46064,0.05412,0.23227,1.05974,-0.37643,0.61157,2.12255,2.12255,A,091453.00
1.25166,57.68796417,11.98124806,57.68796733,11.98124117,10:14:52.457234,0.01315,0.00000,0.00000,0.03490,0.11989,0.09227,0.00751,-0.00911,0.08839,0.00854,0.99332,1.23808,0.38880,1.49098,1.56092,0.03357,0.26010,1.05974,-0.37643,0.61157,2.12255,2.12255,A,091453.00
1.27892,57.68796441,11.98124772,57.68796733,11.98124117,10:14:52.484520,0.01506,0.00000,0.00000,0.03689,0.11989,0.04906,-0.00104,-0.02713,-0.05880,0.11438,1.08196,1.26503,0.31104,1.57607,1.64600,0.01316,0.28667,1.05974,-0.37643,0.61157,2.12255,2.12255,A,091453.00
1.30686,57.68796462,11.98124738,57.68796733,11.98124117,10:14:52.512444,0.01529,0.00000,0.00000,0.03766,0.11989,0.04692,0.03821,-0.02469,-0.00427,0.02708,1.01083,1.29294,0.24883,1.64824,1.71818,-0.00688,0.31027,1.05974,-0.37643,0.61157,2.12255,2.12255,A,091453.00
1.33539,57.68796482,11.98124706,57.68796733,11.98124117,10:14:52.540972,0.01557,0.00000,0.00000,0.03772,0.11935,0.00141,0.00324,-0.02362,0.05014,0.06484,1.02468,1.32147,0.19907,1.70953,1.77915,-0.02628,0.33156,1.05974,-0.37643,0.61157,2.12255,2.12255,A,091453.00
1.36286,57.68796498,11.98124675,57.68796733,11.98124117,10:14:52.568440,0.01576,0.00000,0.00000,0.03676,0.11301,-0.01768,-0.02135,-0.03309,0.00677,0.02910,0.97179,1.34823,0.15925,1.76206,1.82796,-0.04481,0.35040,1.05974,-0.37643,0.61157,2.12255,2.12255,A,091453.00
1.38511,57.68796513,11.98124646,57.68796733,11.98124117,10:14:52.590694,0.01516,0.00000,0.00000,0.03578,0.10421,-0.04761,-0.00058,-0.04073,0.02458,0.05972,0.91854,1.37032,0.12740,1.80726,1.86800,-0.06208,0.36608,1.05974,-0.37643,0.61157,2.12255,2.12255,A,091453.00
1.41246,57.68796526,11.98124618,57.68796733,11.98124117,10:14:52.618042,0.01635,0.00000,0.00000,0.03363,0.09518,-0.06426,0.02248,-0.03783,-0.03331,0.02769,0.99186,1.39665,0.10192,1.84646,1.90192,-0.07861,0.38101,1.05974,-0.37643,0.61157,2.12255,2.12255,A,091453.00
1.44401,57.68796539,11.98124591,57.68796733,11.98124117,10:14:52.649588,0.01597,0.00000,0.00000,0.03007,0.08604,-0.09160,0.00263,-0.07478,0.02525,0.02281,1.15510,1.42969,0.08154,1.88059,1.93070,-0.09450,0.39544,1.05974,-0.37643,0.61157,2.12255,2.12255,A,091453.00
1.46904,57.68796550,11.98124566,57.68796733,11.98124117,10:14:52.674608,0.01454,0.00000,0.00000,0.02714,0.07953,-0.10946,0.00812,-0.07631,0.07985,0.04959,0.95758,1.45644,0.06523,1.91005,1.95636,-0.10923,0.40792,1.05974,-0.37643,0.61157,2.12255,2.12255,A,091453.00
1.49879,57.68796561,11.98124543,57.68796733,11.98124117,10:14:52.704367,0.01589,0.00000,0.00000,0.02372,0.07308,-0.11206,0.00034,-0.05676,-0.01519,0.02263,0.81978,1.48422,0.05218,1.93564,1.97819,-0.12317,0.41954,1.05974,-0.37643,0.61157,2.12255,2.12255,A,091453.00
1.53288,57.68796570,11.98124521,57.68796733,11.98124117,10:14:52.738472,0.02120,0.00000,0.00000,0.01874,0.06592,-0.13130,0.02874,-0.07341,0.02434,-0.01940,1.05384,1.51497,0.04175,1.95800,1.99637,-0.13640,0.43045,1.05974,-0.37643,0.61157,2.12255,2.12255,A,091453.00
1.56146,57.68796580,11.98124500,57.68796733,11.98124117,10:14:52.767744,0.01599,0.00000,0.00000,0.01517,0.05992,-0.14184,0.05486,-0.09296,0.08095,0.11462,1.08202,1.54722,0.03340,1.97752,2.01238,-0.14888,0.44057,1.05974,-0.37643,0.61157,2.12255,2.12255,A,091453.00
1.59101,57.68796588,11.98124480,57.68796733,11.98124117,10:14:52.796587,0.01705,0.00000,0.00000,0.01199,0.05785,-0.11924,-0.00516,-0.07432,0.03758,0.03776,0.95685,1.57423,0.02672,1.99426,2.02792,-0.16060,0.44984,1.05974,-0.37643,0.61157,2.12255,2.12255,A,091453.00
1.62411,57.68796596,11.98124461,57.68796733,11.98124117,10:14:52.830061,0.01950,0.00000,0.00000,0.00731,0.05771,-0.12183,-0.06335,-0.04653,-0.01141,-0.00543,0.96667,1.60795,0.02137,2.00850,2.04208,-0.17173,0.45862,1.05974,-0.37643,0.61157,2.12255,2.12255,A,091453.00
1.65429,57.68796603,11.98124443,57.68796733,11.98124117,10:14:52.859865,0.01547,0.00000,0.00000,0.00295,0.05779,-0.11145,0.03439,-0.07356,0.07399,-0.01531,0.86333,1.64088,0.01710,2.02059,2.05422,-0.18226,0.46684,1.05974,-0.37643,0.61157,2.12255,2.12255,A,091453.00
1.67982,57.68796610,11.98124427,57.68796733,11.98124117,10:14:52.885406,0.01389,0.00000,0.00000,-0.00012,0.06142,-0.11786,0.02126,-0.07142,-0.06759,0.01793,0.95807,1.66623,0.01368,2.03054,2.06628,-0.19214,0.47441,1.05974,-0.37643,0.61157,2.12255,2.12255,A,091453.00
1.70939,57.68796616,11.98124411,57.68796733,11.98124117,10:14:52.914964,0.01747,0.00000,0.00000,-0.00358,0.07308,-0.11481,-0.01494,-0.04348,0.04666,0.01665,1.26075,1.69530,0.01094,2.03798,2.08052,-0.20152,0.48157,1.05974,-0.37643,0.61157,2.12255,2.12255,A,091453.00
1.73889,57.68796622,11.98124396,57.68796733,11.98124117,10:14:52.944466,0.01685,0.00000,0.00000,-0.00607,0.08327,-0.09022,0.00507,-0.02148,-0.19014,0.02434,1.03554,1.72376,0.00876,2.04340,2.09190,-0.21041,0.48832,1.05974,-0.37643,0.61157,2.12255,2.12255,A,091453.00
1.76930,57.68796628,11.98124382,57.68796733,11.98124117,10:14:52.974879,0.01623,0.00000,0.00000,-0.00644,0.09263,-0.05632,0.03561,0.02586,0.14445,0.08784,0.82460,1.75427,0.00700,2.04720,2.10116,-0.21882,0.49469,1.05974,-0.37643,0.61157,2.12255,2.12255,A,091453.00
1.79634,57.68796634,11.98124368,57.68796733,11.98124117,10:14:53.002709,0.01442,0.00000,0.00000,-0.00814,0.10415,-0.02883,-0.08809,0.03365,0.11444,-0.03221,0.81722,1.78369,0.00560,2.04941,2.11011,-0.22680,0.50069,1.05974,-0.37643,0.61157,2.12255,2.12255,A,091453.00
1.82561,57.68796639,11.98124356,57.68796733,11.98124117,10:14:53.031382,0.01509,0.00000,0.00000,-0.01068,0.11417,-0.07632,-0.05266,-0.01400,-0.27261,-0.01220,1.25282,1.81228,0.00448,2.05040,2.11698,-0.23435,0.50636,1.05974,-0.37643,0.61157,2.12255,2.12255,A,091453.00
1.85572,57.68796644,11.98124344,57.68796733,11.98124117,10:14:53.061303,0.01595,0.00000,0.00000,-0.01353,0.12207,-0.05983,0.03958,-0.01843,0.24235,-0.07076,1.08861,1.84054,0.00359,2.05055,2.12177,-0.24152,0.51172,1.05974,-0.37643,0.61157,2.12255,2.12255,A,091453.00
1.88299,57.68796648,11.98124332,57.68796733,11.98124117,10:14:53.088588,0.01432,0.00000,0.00000,-0.01444,0.13348,-0.08045,0.01362,0.01456,-0.00659,0.08924,0.87944,1.86907,0.00287,2.04967,2.12759,-0.24831,0.51679,1.05974,-0.37643,0.61157,2.12255,2.12255,A,091453.00
1.91510,57.68796652,11.98124321,57.68796733,11.98124117,10:14:53.120683,0.01887,0.00000,0.00000,-0.01523,0.14231,-0.01951,-0.03693,0.05732,0.00604,-0.00543,0.96179,1.89795,0.00230,2.04814,2.13126,-0.25476,0.52159,1.05974,-0.37643,0.61157,2.12255,2.12255,A,091453.00
1.94458,57.68796657,11.98124311,57.68796733,11.98124117,10:14:53.150163,0.01739,0.00000,0.00000,-0.01827,0.14833,-0.09404,0.00751,0.03380,-0.09906,-0.00817,1.22055,1.92816,0.00184,2.04631,2.13298,-0.26087,0.52614,1.05974,-0.37643,0.61157,2.12255,2.12255,A,091453.00
1.97401,57.68796660,11.98124301,57.68796733,11.98124117,10:14:53.179600,0.01555,0.00000,0.00000,-0.01986,0.15077,-0.06243,0.02233,-0.00805,0.06338,0.03318,0.99216,1.96057,0.00147,2.04454,2.13265,-0.26668,0.53045,1.05974,-0.37643,0.61157,2.12255,2.12255,A,091453.00
1.99998,57.68796664,11.98124292,57.68796733,11.98124117,10:14:53.205556,0.01490,0.00000,0.00000,-0.02266,0.15082,-0.06792,-0.02608,0.00952,0.01165,-0.06478,0.92568,1.98570,0.00118,2.04302,2.13116,-0.27218,0.53454,1.05974,-0.37643,0.61157,2.12255,2.12255,A,091453.00
2.03036,57.68796668,11.98124283,57.68796733,11.98124117,10:14:53.235935,0.01619,0.00000,0.00000,-0.02486,0.15082,-0.07480,-0.02089,0.04021,0.04666,-0.00665,0.88962,2.01374,0.00094,2.04173,2.12987,-0.27741,0.53842,1.05974,-0.37643,0.61157,2.12255,2.12255,A,091453.00
2.06902,57.68796714,11.98124234,57.68797600,11.98123300,10:14:53.274616,0.02710,0.00000,0.00000,-0.02622,0.15082,-0.05250,-0.01310,0.03059,-0.05417,0.00732,0.98960,2.04224,0.00075,2.02786,2.11601,-0.30665,0.59029,2.05791,-0.86184,1.57526,2.03739,2.03739,A,091454.00
2.08874,57.68796758,11.98124187,57.68797600,11.98123300,10:14:53.294310,0.01017,0.00000,0.00000,-0.02870,0.15082,-0.04349,-0.00837,0.02067,0.11974,-0.06374,1.03255,2.07908,0.00060,2.01607,2.10422,-0.33442,0.63955,2.05791,-0.86184,1.57526,2.03739,2.03739,A,091454.00
2.11873,57.68796801,11.98124143,57.68797600,11.98123300,10:14:53.324315,0.01674,0.00000,0.00000,-0.02933,0.15082,-0.04273,-0.02196,0.03472,-0.10876,0.02428,1.08946,2.10352,0.00048,2.00605,2.09419,-0.36079,0.68634,2.05791,-0.86184,1.57526,2.03739,2.03739,A,091454.00
2.14982,57.68796841,11.98124101,57.68797600,11.98123300,10:14:53.355402,0.01834,0.00000,0.00000,-0.03018,0.15142,0.00187,0.02523,0.06297,0.03209,-0.05356,0.81935,2.13401,0.00039,1.99748,2.08597,-0.38585,0.73080,2.05791,-0.86184,1.57526,2.03739,2.03739,A,091454.00
2.17736,57.68796879,11.98124061,57.68797600,11.98123300,10:14:53.382943,0.01544,0.00000,0.00000,-0.03005,0.15671,-0.00302,-0.03265,0.04541,-0.00964,0.00903,0.95495,2.16477,0.00031,1.98972,2.08135,-0.40966,0.77303,2.05791,-0.86184,1.57526,2.03739,2.03739,A,091454.00
2.19709,57.68796915,11.98124023,57.68797600,11.98123300,10:14:53.402668,0.01197,0.00000,0.00000,-0.03019,0.16223,0.01928,-0.04044,0.03869,-0.10522,-0.04544,1.12844,2.18488,0.00025,1.98264,2.07753,-0.43227,0.81315,2.05791,-0.86184,1.57526,2.03739,2.03739,A,091454.00
2.22759,57.68796949,11.98123987,57.68797600,11.98123300,10:14:53.433170,0.01847,0.00000,0.00000,-0.02989,0.16682,0.02203,0.01316,0.04159,0.18727,-0.02769,1.17218,2.21127,0.00020,1.97622,2.07381,-0.45375,0.85126,2.05791,-0.86184,1.57526,2.03739,2.03739,A,091454.00
2.25737,57.68796981,11.98123952,57.68797600,11.98123300,10:14:53.462950,0.01614,0.00000,0.00000,-0.02760,0.17004,0.04677,-0.01234,0.05671,0.02470,0.04288,0.84845,2.24279,0.00016,1.97047,2.06998,-0.47416,0.88746,2.05791,-0.86184,1.57526,2.03739,2.03739,A,091454.00
2.28776,57.68797012,11.98123920,57.68797600,11.98123300,10:14:53.493345,0.01691,0.00000,0.00000,-0.02633,0.17265,0.05196,-0.09297,0.06465,-0.09022,-0.02092,1.08854,2.27241,0.00013,1.96535,2.06640,-0.49354,0.92186,2.05791,-0.86184,1.57526,2.03739,2.03739,A,091454.00
2.31665,57.68797042,11.98123889,57.68797600,11.98123300,10:14:53.522230,0.01632,0.00000,0.00000,-0.02645,0.17468,0.05455,-0.00806,0.06358,0.07637,-0.11175,0.95794,2.30209,0.00010,1.96082,2.06308,-0.51196,0.95453,2.05791,-0.86184,1.57526,2.03739,2.03739,A,091454.00
2.34365,57.68797070,11.98123859,57.68797600,11.98123300,10:14:53.549227,0.01680,0.00000,0.00000,-0.02390,0.17491,0.04096,0.04997,0.05014,-0.12243,0.09199,0.98484,2.33002,0.00008,1.95694,2.05934,-0.52945,0.98557,2.05791,-0.86184,1.57526,2.03739,2.03739,A,091454.00
2.37488,57.68797096,11.98123831,57.68797600,11.98123300,10:14:53.580455,0.01844,0.00000,0.00000,-0.02199,0.17567,0.06524,-0.02349,0.06969,0.14579,0.00878,1.01205,2.35788,0.00006,1.95358,2.05643,-0.54607,1.01506,2.05791,-0.86184,1.57526,2.03739,2.03739,A,091454.00
2.40143,57.68797121,11.98123805,57.68797600,11.98123300,10:14:53.607002,0.01597,0.00000,0.00000,-0.02209,0.17587,0.04188,-0.03341,0.06877,0.03013,-0.08345,0.94263,2.38847,0.00005,1.95071,2.05368,-0.56186,1.04307,2.05791,-0.86184,1.57526,2.03739,2.03739,A,091454.00
2.43281,57.68797145,11.98123779,57.68797600,11.98123300,10:14:53.638383,0.01623,0.00000,0.00000,-0.02031,0.17587,0.05119,-0.04105,0.04449,0.10596,0.02794,1.00345,2.41629,0.00004,1.94827,2.05124,-0.57686,1.06968,2.05791,-0.86184,1.57526,2.03739,2.03739,A,091454.00
2.46203,57.68797168,11.98123755,57.68797600,11.98123300,10:14:53.667610,0.01839,0.00000,0.00000,-0.01999,0.17587,0.04173,-0.01463,0.04143,-0.18703,-0.06069,1.02669,2.44716,0.00003,1.94619,2.04916,-0.59111,1.09496,2.05791,-0.86184,1.57526,2.03739,2.03739,A,091454.00
2.49262,57.68797190,11.98123733,57.68797600,11.98123300,10:14:53.698200,0.01650,0.00000,0.00000,-0.01938,0.17579,0.03287,0.04707,0.02952,0.19575,-0.02208,0.93464,2.47895,0.00003,1.94443,2.04735,-0.60465,1.11897,2.05791,-0.86184,1.57526,2.03739,2.03739,A,091454.00
2.51992,57.68797210,11.98123711,57.68797600,11.98123300,10:14:53.725503,0.01624,0.00000,0.00000,-0.01804,0.17338,0.02691,-0.00165,0.00600,-0.06393,0.05215,1.05707,2.50445,0.00002,1.94315,2.04464,-0.61751,1.14179,2.05791,-0.86184,1.57526,2.03739,2.03739,A,091454.00
2.54545,57.68797230,11.98123691,57.68797600,11.98123300,10:14:53.751238,0.01402,0.00000,0.00000,-0.01795,0.16866,0.03806,0.03134,0.01837,0.22186,-0.05045,0.89383,2.53213,0.00002,1.94249,2.04118,-0.62972,1.16346,2.05791,-0.86184,1.57526,2.03739,2.03739,A,091454.00
2.57891,57.68797248,11.98123671,57.68797600,11.98123300,10:14:53.784491,0.01842,0.00000,0.00000,-0.01734,0.16271,0.01943,-0.05250,0.03288,-0.04154,0.00933,0.97948,2.56193,0.00001,1.94245,2.03762,-0.64133,1.18405,2.05791,-0.86184,1.57526,2.03739,2.03739,A,091454.00
2.60396,57.68797266,11.98123652,57.68797600,11.98123300,10:14:53.809539,0.01607,0.00000,0.00000,-0.01646,0.15660,0.01179,-0.03067,0.01486,-0.11804,0.05033,1.10398,2.58767,0.00001,1.94296,2.03451,-0.65236,1.20361,2.05791,-0.86184,1.57526,2.03739,2.03739,A,091454.00
2.63784,57.68797282,11.98123635,57.68797600,11.98123300,10:14:53.843446,0.01992,0.00000,0.00000,-0.01741,0.14913,0.00034,0.04753,0.00219,-0.01293,-0.06204,1.10666,2.62141,0.00001,1.94405,2.03119,-0.66283,1.22220,2.05791,-0.86184,1.57526,2.03739,2.03739,A,091454.00
2.66689,57.68797298,11.98123618,57.68797600,11.98123300,10:14:53.872473,0.01546,0.00000,0.00000,-0.01535,0.14596,0.01515,0.02844,0.01624,0.15884,0.08961,0.78885,2.65295,0.00001,1.94526,2.03053,-0.67278,1.23985,2.05791,-0.86184,1.57526,2.03739,2.03739,A,091454.00
2.69237,57.68797313,11.98123602,57.68797600,11.98123300,10:14:53.897950,0.01397,0.00000,0.00000,-0.01538,0.14559,0.01958,-0.05693,0.02509,-0.01464,-0.02519,0.93653,2.67966,0.00001,1.94632,2.03138,-0.68223,1.25662,2.05791,-0.86184,1.57526,2.03739,2.03739,A,091454.00
2.71998,57.68797328,11.98123587,57.68797600,11.98123300,10:14:53.925579,0.01712,0.00000,0.00000,-0.01529,0.14488,0.00523,0.01042,-0.01828,-0.12066,0.00708,1.09477,2.70446,0.00000,1.94729,2.03192,-0.69121,1.27255,2.05791,-0.86184,1.57526,2.03739,2.03739,A,091454.00
2.74441,57.68797341,11.98123573,57.68797600,11.98123300,10:14:53.951291,0.01612,0.00000,0.00000,-0.01589,0.14358,0.01225,0.03088,-0.03416,0.02550,-0.05325,1.06170,2.72897,0.00000,1.94822,2.03209,-0.69974,1.28769,2.05791,-0.86184,1.57526,2.03739,2.03739,A,091454.00
2.77057,57.68797354,11.98123559,57.68797600,11.98123300,10:14:53.976150,0.01622,0.00000,0.00000,-0.01364,0.14349,0.01653,-0.00608,0.02189,-0.07332,0.11389,0.87419,2.75568,0.00000,1.94903,2.03285,-0.70785,1.30207,2.05791,-0.86184,1.57526,2.03739,2.03739,A,091454.00
2.79974,57.68797367,11.98123546,57.68797600,11.98123300,10:14:54.005316,0.01651,0.00000,0.00000,-0.01191,0.14341,0.07166,-0.03021,0.03823,0.02617,-0.01446,1.01846,2.78553,0.00000,1.94972,2.03348,-0.71555,1.31573,2.05791,-0.86184,1.57526,2.03739,2.03739,A,091454.00
2.82772,57.68797378,11.98123534,57.68797600,11.98123300,10:14:54.033299,0.01482,0.00000,0.00000,-0.01199,0.14310,0.01943,0.00599,-0.00316,-0.07954,-0.03331,1.11953,2.81452,0.00000,1.95033,2.03392,-0.72286,1.32870,2.05791,-0.86184,1.57526,2.03739,2.03739,A,091454.00
2.85226,57.68797389,11.98123522,57.68797600,11.98123300,10:14:54.057844,0.01539,0.00000,0.00000,-0.00918,0.14310,0.03898,0.00156,0.00249,0.08528,0.15396,1.08153,2.83740,0.00000,1.95085,2.03444,-0.72981,1.34103,2.05791,-0.86184,1.57526,2.03739,2.03739,A,091454.00
2.88488,57.68797400,11.98123511,57.68797600,11.98123300,10:14:54.090472,0.01848,0.00000,0.00000,-0.00804,0.14310,0.03959,-0.07663,0.02036,0.03392,0.01098,0.83716,2.86769,0.00000,1.95129,2.03488,-0.73641,1.35274,2.05791,-0.86184,1.57526,2.03739,2.03739,A,091454.00
2.91050,57.68797410,11.98123500,57.68797600,11.98123300,10:14:54.116092,0.01445,0.00000,0.00000,-0.00684,0.14310,0.02951,0.03317,0.01303,-0.16714,0.03819,0.96276,2.89710,0.00000,1.95167,2.03526,-0.74268,1.36387,2.05791,-0.86184,1.57526,2.03739,2.03739,A,091454.00
2.93663,57.68797419,11.98123490,57.68797600,11.98123300,10:14:54.142204,0.01508,0.00000,0.00000,-0.00585,0.14310,0.02004,0.06768,0.00188,0.09187,0.04648,0.89682,2.92129,0.00000,1.95199,2.03558,-0.74864,1.37444,2.05791,-0.86184,1.57526,2.03739,2.03739,A,091454.00
2.96829,57.68797428,11.98123481,57.68797600,11.98123300,10:14:54.173894,0.01824,0.00000,0.00000,-0.00519,0.14310,0.02065,-0.01753,0.01517,-0.03922,0.02403,1.18700,2.95236,0.00000,1.95226,2.03585,-0.75430,1.38448,2.05791,-0.86184,1.57526,2.03739,2.03739,A,091454.00
2.99588,57.68797437,11.98123472,57.68797600,11.98123300,10:14:54.201461,0.01544,0.00000,0.00000,-0.00552,0.14310,0.00843,-0.02074,0.02586,0.06911,-0.02086,1.11685,2.98163,0.00000,1.95250,2.03608,-0.75968,1.39402,2.05791,-0.86184,1.57526,2.03739,2.03739,A,091454.00
3.02289,57.68797445,11.98123463,57.68797600,11.98123300,10:14:54.229490,0.01653,0.00000,0.00000,-0.00502,0.14310,0.01088,0.02019,0.01685,-0.09638,0.02959,0.86626,3.00756,0.00000,1.95269,2.03628,-0.76479,1.40308,2.05791,-0.86184,1.57526,2.03739,2.03739,A,091454.00
3.06517,57.68797507,11.98123403,57.68798683,11.98122267,10:14:54.271593,0.02795,0.00000,0.00000,-0.00459,0.14310,-0.00439,0.02645,0.00035,0.01086,0.04178,0.73755,3.03801,0.00000,1.95360,2.03718,-0.80035,1.47192,3.05435,-1.47602,2.77987,2.04230,2.04230,A,091455.00
3.09016,57.68797566,11.98123347,57.68798683,11.98122267,10:14:54.295744,0.01352,0.00000,0.00000,-0.00482,0.14310,0.01790,0.03882,0.00539,0.14115,-0.04563,1.10312,3.07739,0.00000,1.95436,2.03795,-0.83413,1.53732,3.05435,-1.47602,2.77987,2.04230,2.04230,A,091455.00
3.11099,57.68797622,11.98123293,57.68798683,11.98122267,10:14:54.317339,0.01161,0.00000,0.00000,-0.00523,0.14310,0.00339,-0.03662,0.01059,0.01440,-0.01244,1.01351,3.09981,0.00000,1.95502,2.03860,-0.86623,1.59945,3.05435,-1.47602,2.77987,2.04230,2.04230,A,091455.00
3.13597,57.68797675,11.98123241,57.68798683,11.98122267,10:14:54.341556,0.01375,0.00000,0.00000,-0.00432,0.14310,0.01210,-0.04517,0.01471,-0.11230,0.05667,0.92110,3.12305,0.00000,1.95557,2.03916,-0.89672,1.65847,3.05435,-1.47602,2.77987,2.04230,2.04230,A,091455.00
3.16235,57.68797725,11.98123193,57.68798683,11.98122267,10:14:54.368586,0.01228,0.00000,0.00000,-0.00464,0.14310,0.03669,0.05272,0.00952,0.06045,-0.07088,1.07165,3.14991,0.00000,1.95604,2.03963,-0.92568,1.71454,3.05435,-1.47602,2.77987,2.04230,2.04230,A,091455.00
3.18435,57.68797773,11.98123146,57.68798683,11.98122267,10:14:54.389918,0.01397,0.00000,0.00000,-0.00444,0.14310,0.00492,0.06936,-0.00973,-0.05832,0.02812,1.07116,3.17249,0.00000,1.95644,2.04003,-0.95320,1.76780,3.05435,-1.47602,2.77987,2.04230,2.04230,A,091455.00
3.20527,57.68797819,11.98123102,57.68798683,11.98122267,10:14:54.410854,0.01270,0.00000,0.00000,-0.00402,0.14310,0.01561,0.02844,-0.01996,0.16702,0.02348,0.87492,3.19328,0.00000,1.95678,2.04037,-0.97934,1.81841,3.05435,-1.47602,2.77987,2.04230,2.04230,A,091455.00
3.22706,57.68797862,11.98123061,57.68798683,11.98122267,10:14:54.432635,0.01199,0.00000,0.00000,-0.00313,0.14310,0.02630,-0.05663,0.01685,-0.02684,0.04636,1.08915,3.21488,0.00000,1.95707,2.04066,-1.00417,1.86648,3.05435,-1.47602,2.77987,2.04230,2.04230,A,091455.00
3.25085,57.68797903,11.98123021,57.68798683,11.98122267,10:14:54.456439,0.01442,0.00000,0.00000,-0.00376,0.14310,0.02676,-0.00959,0.02830,-0.09412,-0.05728,0.98826,3.23620,0.00000,1.95732,2.04091,-1.02777,1.91215,3.05435,-1.47602,2.77987,2.04230,2.04230,A,091455.00
3.27568,57.68797942,11.98122983,57.68798683,11.98122267,10:14:54.481276,0.01527,0.00000,0.00000,-0.00131,0.14298,0.00706,0.04951,-0.01324,-0.02355,0.15921,0.91531,3.26205,0.00000,1.95754,2.04106,-1.05018,1.95554,3.05435,-1.47602,2.77987,2.04230,2.04230,A,091455.00
3.30048,57.68797979,11.98122947,57.68798683,11.98122267,10:14:54.506823,0.01540,0.00000,0.00000,-0.00120,0.14298,0.01699,-0.00547,-0.01538,0.15988,0.00390,0.90872,3.28566,0.00000,1.95773,2.04124,-1.07147,1.99675,3.05435,-1.47602,2.77987,2.04230,2.04230,A,091455.00
3.33106,57.68798014,11.98122913,57.68798683,11.98122267,10:14:54.536636,0.01664,0.00000,0.00000,-0.00165,0.14290,-0.00485,-0.08351,0.01395,-0.04575,0.00281,1.04523,3.31524,0.00000,1.95789,2.04136,-1.09170,2.03591,3.05435,-1.47602,2.77987,2.04230,2.04230,A,091455.00
3.36060,57.68798048,11.98122881,57.68798683,11.98122267,10:14:54.566481,0.01914,0.00000,0.00000,-0.00207,0.14089,-0.00913,0.02798,-0.00072,-0.06210,0.01263,1.17529,3.34200,0.00000,1.95821,2.04049,-1.11091,2.07311,3.05435,-1.47602,2.77987,2.04230,2.04230,A,091455.00
3.39384,57.68798080,11.98122850,57.68798683,11.98122267,10:14:54.599424,0.01910,0.00000,0.00000,-0.00146,0.13840,-0.01493,0.00278,-0.00041,-0.13200,0.08808,0.89999,3.37725,0.00000,1.95870,2.03952,-1.12917,2.10845,3.05435,-1.47602,2.77987,2.04230,2.04230,A,091455.00
3.42540,57.68798110,11.98122821,57.68798683,11.98122267,10:14:54.630995,0.01828,0.00000,0.00000,-0.00207,0.13834,-0.02959,0.03027,0.02738,-0.01110,0.05337,1.18328,3.40944,0.00000,1.95912,2.03991,-1.14651,2.14202,3.05435,-1.47602,2.77987,2.04230,2.04230,A,091455.00
3.45691,57.68798138,11.98122793,57.68798683,11.98122267,10:14:54.662486,0.01637,0.00000,0.00000,-0.00256,0.13834,-0.05082,-0.01646,0.01853,-0.04581,0.08686,0.89633,3.44134,0.00000,1.95948,2.04027,-1.16299,2.17391,3.05435,-1.47602,2.77987,2.04230,2.04230,A,091455.00
3.48215,57.68798166,11.98122767,57.68798683,11.98122267,10:14:54.687731,0.01435,0.00000,0.00000,-0.00407,0.13834,-0.03219,0.00492,-0.00301,-0.08741,-0.01775,0.90073,3.46920,0.00000,1.95979,2.04057,-1.17864,2.20421,3.05435,-1.47602,2.77987,2.04230,2.04230,A,091455.00
3.50858,57.68798192,11.98122742,57.68798683,11.98122267,10:14:54.714161,0.01503,0.00000,0.00000,-0.00609,0.13834,-0.05464,0.03867,-0.00010,-0.00238,-0.02733,1.10032,3.49413,0.00000,1.96005,2.04083,-1.19351,2.23299,3.05435,-1.47602,2.77987,2.04230,2.04230,A,091455.00
3.53322,57.68798216,11.98122718,57.68798683,11.98122267,10:14:54.738792,0.01378,0.00000,0.00000,-0.00668,0.13834,-0.08518,0.04050,0.00432,-0.04630,0.12938,1.05890,3.51958,0.00000,1.96027,2.04105,-1.20763,2.26034,3.05435,-1.47602,2.77987,2.04230,2.04230,A,091455.00
3.55931,57.68798239,11.98122696,57.68798683,11.98122267,10:14:54.764891,0.01477,0.00000,0.00000,-0.00596,0.13834,-0.03814,-0.04670,0.02540,0.04105,0.12535,0.97716,3.54427,0.00000,1.96045,2.04124,-1.22105,2.28631,3.05435,-1.47602,2.77987,2.04230,2.04230,A,091455.00
3.58750,57.68798262,11.98122674,57.68798683,11.98122267,10:14:54.793092,0.01699,0.00000,0.00000,-0.01066,0.13834,-0.05922,-0.07251,0.02250,-0.08369,-0.18227,0.95014,3.57138,0.00000,1.96061,2.04140,-1.23380,2.31099,3.05435,-1.47602,2.77987,2.04230,2.04230,A,091455.00
3.61520,57.68798283,11.98122654,57.68798683,11.98122267,10:14:54.820784,0.01560,0.00000,0.00000,-0.01224,0.13684,-0.08625,0.03393,-0.04057,0.05051,0.07601,0.93592,3.60183,0.00000,1.96088,2.04078,-1.24591,2.33443,3.05435,-1.47602,2.77987,2.04230,2.04230,A,091455.00
3.64109,57.68798303,11.98122634,57.68798683,11.98122267,10:14:54.846685,0.01611,0.00000,0.00000,-0.01328,0.13582,-0.05128,0.06493,-0.02607,-0.07344,0.03068,1.03743,3.62740,0.00000,1.96120,2.04050,-1.25742,2.35671,3.05435,-1.47602,2.77987,2.04230,2.04230,A,091455.00
3.66926,57.68798322,11.98122616,57.68798683,11.98122267,10:14:54.874832,0.01719,0.00000,0.00000,-0.01596,0.13582,-0.05998,0.03149,0.02235,0.13493,-0.07393,1.11600,3.65313,0.00000,1.96147,2.04077,-1.26835,2.37787,3.05435,-1.47602,2.77987,2.04230,2.04230,A,091455.00
3.69394,57.68798340,11.98122599,57.68798683,11.98122267,10:14:54.899520,0.01319,0.00000,0.00000,-0.01769,0.13438,-0.05662,-0.00837,0.00768,0.18269,0.00409,0.97338,3.68296,0.00000,1.96183,2.04028,-1.27873,2.39797,3.05435,-1.47602,2.77987,2.04230,2.04230,A,091455.00
3.72222,57.68798357,11.98122582,57.68798683,11.98122267,10:14:54.927797,0.01695,0.00000,0.00000,-0.01979,0.13186,-0.06945,-0.05770,-0.01171,-0.10187,-0.02135,0.88023,3.70694,0.00000,1.96235,2.03932,-1.28860,2.41706,3.05435,-1.47602,2.77987,2.04230,2.04230,A,091455.00
3.75015,57.68798373,11.98122566,57.68798683,11.98122267,10:14:54.955735,0.01520,0.00000,0.00000,-0.02212,0.13115,-0.04807,-0.00195,-0.02225,-0.02379,-0.05142,0.90073,3.73653,0.00000,1.96286,2.03941,-1.29797,2.43520,3.05435,-1.47602,2.77987,2.04230,2.04230,A,091455.00
3.77528,57.68798389,11.98122551,57.68798683,11.98122267,10:14:54.980873,0.01631,0.00000,0.00000,-0.02302,0.13115,-0.04257,0.04081,-0.01034,-0.02385,0.00427,1.09983,3.75851,0.00000,1.96329,2.03985,-1.30687,2.45244,3.05435,-1.47602,2.77987,2.04230,2.04230,A,091455.00
3.80420,57.68798404,11.98122537,57.68798683,11.98122267,10:14:55.009794,0.01559,0.00000,0.00000,-0.02440,0.13115,-0.03967,0.03210,0.00020,0.13505,-0.00927,0.97557,3.78953,0.00000,1.96366,2.04022,-1.31533,2.46881,3.05435,-1.47602,2.77987,2.04230,2.04230,A,091455.00
3.83550,57.68798418,11.98122524,57.68798683,11.98122267,10:14:55.041087,0.01871,0.00000,0.00000,-0.02516,0.13115,-0.03402,-0.02104,0.02387,-0.11804,0.01177,0.93318,3.81780,0.00000,1.96397,2.04053,-1.32336,2.48436,3.05435,-1.47602,2.77987,2.04230,2.04230,A,091455.00
3.85791,57.68798431,11.98122511,57.68798683,11.98122267,10:14:55.063502,0.01409,0.00000,0.00000,-0.02809,0.13115,-0.04486,-0.02440,0.00723,0.02129,-0.10590,0.90847,3.84483,0.00000,1.96424,2.04079,-1.33099,2.49914,3.05435,-1.47602,2.77987,2.04230,2.04230,A,091455.00
3.88957,57.68798443,11.98122498,57.68798683,11.98122267,10:14:55.095332,0.01711,0.00000,0.00000,-0.02830,0.13115,-0.02791,0.06768,-0.01034,0.01732,0.03672,1.12826,3.87219,0.00000,1.96447,2.04102,-1.33825,2.51317,3.05435,-1.47602,2.77987,2.04230,2.04230,A,091455.00
3.91568,57.68798455,11.98122487,57.68798683,11.98122267,10:14:55.121258,0.01489,0.00000,0.00000,-0.03044,0.13115,-0.03738,-0.03662,-0.00911,0.18715,-0.06008,0.84802,3.90307,0.00000,1.96466,2.04121,-1.34513,2.52651,3.05435,-1.47602,2.77987,2.04230,2.04230,A,091455.00
3.94311,57.68798467,11.98122476,57.68798683,11.98122267,10:14:55.148710,0.01622,0.00000,0.00000,-0.02988,0.13115,-0.02761,-0.08534,0.02418,-0.21582,0.09388,1.26361,3.92645,0.00000,1.96482,2.04138,-1.35168,2.53918,3.05435,-1.47602,2.77987,2.04230,2.04230,A,091455.00
3.97159,57.68798478,11.98122465,57.68798683,11.98122267,10:14:55.177172,0.01693,0.00000,0.00000,-0.03403,0.13115,0.01027,0.06570,0.01211,0.19489,-0.28176,0.89914,3.95776,0.00000,1.96496,2.04151,-1.35790,2.55121,3.05435,-1.47602,2.77987,2.04230,2.04230,A,091455.00
4.00515,57.68798488,11.98122455,57.68798683,11.98122267,10:14:55.210736,0.01697,0.00000,0.00000,-0.03143,0.13186,-0.02303,-0.00226,-0.00148,0.00372,0.17239,0.80008,3.98946,0.00000,1.96502,2.04199,-1.36380,2.56264,3.05435,-1.47602,2.77987,2.04230,2.04230,A,091455.00
4.04344,57.68798551,11.98122398,57.68799750,11.98121300,10:14:55.249019,0.02883,0.00000,0.00000,-0.03077,0.13500,0.03959,-0.05525,0.02173,0.07241,-0.03099,0.94410,4.01644,0.00000,1.96173,2.04054,-1.39814,2.63281,4.03183,-2.05058,3.96595,2.02190,2.02190,A,091456.00
4.07464,57.68798611,11.98122343,57.68799750,11.98121300,10:14:55.280238,0.01549,0.00000,0.00000,-0.02702,0.13761,0.01134,0.00110,0.02250,-0.05276,0.21716,1.01907,4.06151,0.00000,1.95870,2.03905,-1.43076,2.69947,4.03183,-2.05058,3.96595,2.02190,2.02190,A,091456.00
4.09963,57.68798668,11.98122291,57.68799750,11.98121300,10:14:55.305207,0.01336,0.00000,0.00000,-0.02780,0.13761,0.05807,0.04126,0.02403,0.12493,-0.11651,0.77653,4.08629,0.00000,1.95613,2.03648,-1.46175,2.76279,4.03183,-2.05058,3.96595,2.02190,2.02190,A,091456.00
4.12309,57.68798722,11.98122241,57.68799750,11.98121300,10:14:55.328671,0.01195,0.00000,0.00000,-0.02735,0.13761,0.03577,-0.05586,0.02173,0.06283,-0.03221,0.98057,4.11166,0.00000,1.95394,2.03429,-1.49119,2.82295,4.03183,-2.05058,3.96595,2.02190,2.02190,A,091456.00
4.15050,57.68798773,11.98122194,57.68799750,11.98121300,10:14:55.356077,0.01729,0.00000,0.00000,-0.02559,0.13761,0.05287,0.02279,0.01349,-0.13719,0.04362,1.17266,4.13405,0.00000,1.95208,2.03243,-1.51916,2.88010,4.03183,-2.05058,3.96595,2.02190,2.02190,A,091456.00
4.18103,57.68798822,11.98122149,57.68799750,11.98121300,10:14:55.386610,0.01705,0.00000,0.00000,-0.02516,0.13761,0.03806,-0.01264,-0.00698,0.00927,-0.04831,1.00107,4.16423,0.00000,1.95050,2.03085,-1.54573,2.93439,4.03183,-2.05058,3.96595,2.02190,2.02190,A,091456.00
4.20899,57.68798869,11.98122107,57.68799750,11.98121300,10:14:55.414569,0.01521,0.00000,0.00000,-0.02347,0.13761,0.05761,-0.01203,0.01837,-0.09406,-0.00622,1.09654,4.19546,0.00000,1.94916,2.02951,-1.57098,2.98597,4.03183,-2.05058,3.96595,2.02190,2.02190,A,091456.00
4.23340,57.68798913,11.98122067,57.68799750,11.98121300,10:14:55.438975,0.01334,0.00000,0.00000,-0.02268,0.13761,0.05684,-0.00959,0.01761,0.07448,-0.04227,1.02718,4.22087,0.00000,1.94802,2.02837,-1.59496,3.03497,4.03183,-2.05058,3.96595,2.02190,2.02190,A,091456.00
4.26314,57.68798955,11.98122028,57.68799750,11.98121300,10:14:55.468711,0.01576,0.00000,0.00000,-0.02053,0.13761,0.07700,0.04340,0.02036,0.03739,0.00512,0.82667,4.24834,0.00000,1.94705,2.02740,-1.61774,3.08152,4.03183,-2.05058,3.96595,2.02190,2.02190,A,091456.00
4.28873,57.68798994,11.98121992,57.68799750,11.98121300,10:14:55.494318,0.01366,0.00000,0.00000,-0.01941,0.13761,0.07746,-0.02624,0.00921,0.04002,-0.04868,0.86980,4.27486,0.00000,1.94622,2.02657,-1.63938,3.12574,4.03183,-2.05058,3.96595,2.02190,2.02190,A,091456.00
4.31014,57.68799032,11.98121957,57.68799750,11.98121300,10:14:55.515736,0.01271,0.00000,0.00000,-0.01905,0.13761,0.06372,-0.04319,0.01181,-0.08589,-0.07777,1.14082,4.29803,0.00000,1.94552,2.02587,-1.65994,3.16775,4.03183,-2.05058,3.96595,2.02190,2.02190,A,091456.00
4.33641,57.68799068,11.98121924,57.68799750,11.98121300,10:14:55.541996,0.01665,0.00000,0.00000,-0.01756,0.13761,0.05807,0.01881,0.01303,0.00329,0.01763,1.09446,4.32139,0.00000,1.94493,2.02528,-1.67947,3.20766,4.03183,-2.05058,3.96595,2.02190,2.02190,A,091456.00
4.35979,57.68799102,11.98121893,57.68799750,11.98121300,10:14:55.565365,0.01531,0.00000,0.00000,-0.01590,0.13761,0.06295,0.03485,0.01318,-0.05838,0.01726,1.03352,4.34584,0.00000,1.94442,2.02477,-1.69803,3.24558,4.03183,-2.05058,3.96595,2.02190,2.02190,A,091456.00
4.38103,57.68799135,11.98121863,57.68799750,11.98121300,10:14:55.586604,0.01206,0.00000,0.00000,-0.01443,0.13761,0.05211,0.00415,0.01501,0.09400,0.02269,0.88950,4.36959,0.00000,1.94399,2.02434,-1.71565,3.28159,4.03183,-2.05058,3.96595,2.02190,2.02190,A,091456.00
4.39932,57.68799165,11.98121835,57.68799750,11.98121300,10:14:55.604897,0.01092,0.00000,0.00000,-0.01369,0.13761,0.04005,-0.05510,0.01303,0.01940,0.00885,0.82820,4.38819,0.00000,1.94362,2.02397,-1.73240,3.31581,4.03183,-2.05058,3.96595,2.02190,2.02190,A,091456.00
4.41820,57.68799195,11.98121809,57.68799750,11.98121300,10:14:55.623776,0.01069,0.00000,0.00000,-0.01435,0.13761,0.02218,-0.06991,0.00814,-0.06289,-0.05539,0.90920,4.40724,0.00000,1.94331,2.02366,-1.74831,3.34832,4.03183,-2.05058,3.96595,2.02190,2.02190,A,091456.00
4.43661,57.68799222,11.98121783,57.68799750,11.98121300,10:14:55.642184,0.01124,0.00000,0.00000,-0.01514,0.13749,0.00568,-0.03616,-0.01079,-0.21271,-0.05752,1.16388,4.42506,0.00000,1.94306,2.02334,-1.76342,3.37920,4.03183,-2.05058,3.96595,2.02190,2.02190,A,091456.00
4.45489,57.68799249,11.98121759,57.68799750,11.98121300,10:14:55.660456,0.01091,0.00000,0.00000,-0.01507,0.13619,-0.00821,0.01637,-0.03263,0.01976,0.02641,1.09977,4.44375,0.00000,1.94296,2.02247,-1.77778,3.40854,4.03183,-2.05058,3.96595,2.02190,2.02190,A,091456.00
4.47314,57.68799274,11.98121736,57.68799750,11.98121300,10:14:55.678715,0.01058,0.00000,0.00000,-0.01434,0.13384,-0.00607,0.02996,-0.02576,-0.07302,0.07662,1.16382,4.46209,0.00000,1.94308,2.02121,-1.79142,3.43641,4.03183,-2.05058,3.96595,2.02190,2.02190,A,091456.00
4.49166,57.68799298,11.98121714,57.68799750,11.98121300,10:14:55.697225,0.01127,0.00000,0.00000,-0.01456,0.13206,0.00355,0.05806,-0.00499,0.11895,-0.00842,0.93873,4.48038,0.00000,1.94334,2.02042,-1.80438,3.46289,4.03183,-2.05058,3.96595,2.02190,2.02190,A,091456.00
4.50949,57.68799320,11.98121694,57.68799750,11.98121300,10:14:55.715374,0.01056,0.00000,0.00000,-0.01517,0.13098,-0.01142,-0.02914,0.01013,0.05356,-0.01476,0.87578,4.49843,0.00000,1.94365,2.02011,-1.81669,3.48804,4.03183,-2.05058,3.96595,2.02190,2.02190,A,091456.00
4.52799,57.68799342,11.98121674,57.68799750,11.98121300,10:14:55.733561,0.01107,0.00000,0.00000,-0.01493,0.12920,-0.00607,0.00385,0.00875,-0.32794,0.03648,1.10605,4.51667,0.00000,1.94408,2.01949,-1.82838,3.51194,4.03183,-2.05058,3.96595,2.02190,2.02190,A,091456.00
4.54655,57.68799362,11.98121655,57.68799750,11.98121300,10:14:55.752120,0.01106,0.00000,0.00000,-0.01772,0.12634,-0.01508,0.07257,-0.01583,0.16470,-0.14469,0.90634,4.53538,0.00000,1.94469,2.01842,-1.83949,3.53464,4.03183,-2.05058,3.96595,2.02190,2.02190,A,091456.00
4.56999,57.68799382,11.98121637,57.68799750,11.98121300,10:14:55.775576,0.01642,0.00000,0.00000,-0.01713,0.12422,-0.04089,0.01759,-0.03615,0.04587,0.09272,0.98009,4.55321,0.00000,1.94540,2.01788,-1.85005,3.55620,4.03183,-2.05058,3.96595,2.02190,2.02190,A,091456.00
4.58927,57.68799400,11.98121621,57.68799750,11.98121300,10:14:55.794848,0.01201,0.00000,0.00000,-0.01799,0.12317,-0.01753,-0.01432,-0.02286,-0.04941,-0.02123,0.95142,4.57700,0.00000,1.94610,2.01796,-1.86007,3.57669,4.03183,-2.05058,3.96595,2.02190,2.02190,A,091456.00
4.61958,57.68799417,11.98121604,57.68799750,11.98121300,10:14:55.825155,0.01526,0.00000,0.00000,-0.01943,0.12300,-0.04074,-0.03448,-0.01385,0.05136,-0.01385,1.06164,4.60557,0.00000,1.94670,2.01847,-1.86960,3.59615,4.03183,-2.05058,3.96595,2.02190,2.02190,A,091456.00
4.64697,57.68799434,11.98121589,57.68799750,11.98121300,10:14:55.852554,0.01479,0.00000,0.00000,-0.02032,0.12040,-0.02990,0.03225,-0.02943,-0.02129,-0.00018,0.92805,4.63326,0.00000,1.94745,2.01768,-1.87865,3.61464,4.03183,-2.05058,3.96595,2.02190,2.02190,A,091456.00
4.67920,57.68799450,11.98121575,57.68799750,11.98121300,10:14:55.885129,0.01974,0.00000,0.00000,-0.02154,0.11760,-0.03433,0.00614,-0.02423,-0.00183,-0.00927,1.06597,4.66365,0.00000,1.94833,2.01692,-1.88724,3.63221,4.03183,-2.05058,3.96595,2.02190,2.02190,A,091456.00
4.70932,57.68799465,11.98121561,57.68799750,11.98121300,10:14:55.914904,0.01802,0.00000,0.00000,-0.02294,0.11723,-0.04349,-0.02379,-0.03431,-0.12035,-0.00512,1.05310,4.69352,0.00000,1.94911,2.01748,-1.89541,3.64890,4.03183,-2.05058,3.96595,2.02190,2.02190,A,091456.00
4.73949,57.68799479,11.98121548,57.68799750,11.98121300,10:14:55.945075,0.01717,0.00000,0.00000,-0.02473,0.11700,-0.04059,0.04203,-0.04745,0.12700,-0.03178,0.89585,4.72431,0.00000,1.94979,2.01803,-1.90317,3.66475,4.03183,-2.05058,3.96595,2.02190,2.02190,A,091456.00
4.76903,57.68799493,11.98121536,57.68799750,11.98121300,10:14:55.974625,0.01805,0.00000,0.00000,-0.02660,0.11700,-0.04150,-0.03601,-0.02484,-0.03105,-0.04776,0.99046,4.75247,0.00000,1.95037,2.01861,-1.91054,3.67981,4.03183,-2.05058,3.96595,2.02190,2.02190,A,091456.00
4.79678,57.68799506,11.98121524,57.68799750,11.98121300,10:14:56.002362,0.01673,0.00000,0.00000,-0.02607,0.11700,-0.00226,-0.00379,-0.00331,0.07710,0.03983,1.05262,4.78034,0.00000,1.95086,2.01911,-1.91754,3.69412,4.03183,-2.05058,3.96595,2.02190,2.02190,A,091456.00
4.82531,57.68799518,11.98121513,57.68799750,11.98121300,10:14:56.030879,0.01501,0.00000,0.00000,-0.02809,0.11700,0.00034,0.05684,-0.01950,-0.08485,-0.12682,0.91884,4.81187,0.00000,1.95128,2.01952,-1.92419,3.70771,4.03183,-2.05058,3.96595,2.02190,2.02190,A,091456.00
4.84877,57.68799529,11.98121502,57.68799750,11.98121300,10:14:56.054339,0.01304,0.00000,0.00000,-0.02577,0.11700,0.01912,0.03653,-0.01858,0.04862,0.10102,0.83796,4.83695,0.00000,1.95164,2.01988,-1.93051,3.72062,4.03183,-2.05058,3.96595,2.02190,2.02190,A,091456.00
4.87309,57.68799540,11.98121492,57.68799750,11.98121300,10:14:56.078664,0.01471,0.00000,0.00000,-0.02588,0.11731,0.03165,-0.04991,0.01028,0.05490,-0.05264,0.94788,4.85937,0.00000,1.95192,2.02034,-1.93651,3.73289,4.03183,-2.05058,3.96595,2.02190,2.02190,A,091456.00
4.89895,57.68799551,11.98121482,57.68799750,11.98121300,10:14:56.104524,0.01470,0.00000,0.00000,-0.02486,0.11961,0.01699,-0.04273,0.02204,-0.05344,0.04453,1.15857,4.88468,0.00000,1.95195,2.02172,-1.94222,3.74454,4.03183,-2.05058,3.96595,2.02190,2.02190,A,091456.00
4.92989,57.68799561,11.98121473,57.68799750,11.98121300,10:14:56.135473,0.01691,0.00000,0.00000,-0.02360,0.12317,0.02416,-0.04273,0.00127,0.00616,0.04233,1.07769,4.91271,0.00000,1.95166,2.02352,-1.94764,3.75561,4.03183,-2.05058,3.96595,2.02190,2.02190,A,091456.00
4.95431,57.68799570,11.98121465,57.68799750,11.98121300,10:14:56.159884,0.01434,0.00000,0.00000,-0.02182,0.12668,0.04478,-0.00119,0.00723,-0.13164,0.03154,0.85565,4.94096,0.00000,1.95111,2.02503,-1.95278,3.76613,4.03183,-2.05058,3.96595,2.02190,2.02190,A,091456.00
4.97807,57.68799579,11.98121456,57.68799750,11.98121300,10:14:56.183652,0.01500,0.00000,0.00000,-0.02118,0.13025,0.03608,0.03195,0.01914,0.03831,-0.00775,0.84741,4.96403,0.00000,1.95032,2.02635,-1.95767,3.77612,4.03183,-2.05058,3.96595,2.02190,2.02190,A,091456.00
5.00143,57.68799588,11.98121448,57.68799750,11.98121300,10:14:56.207540,0.01493,0.00000,0.00000,-0.01970,0.13314,0.03638,0.05577,0.02112,-0.00781,0.05362,1.19096,4.98796,0.00000,1.94940,2.02712,-1.96232,3.78561,4.03183,-2.05058,3.96595,2.02190,2.02190,A,091456.00
5.04620,57.68799652,11.98121388,57.68800867,11.98120233,10:14:56.251780,0.03234,0.00000,3.50000,0.00000,0.13546,0.02523,-0.02944,0.01120,0.11901,-0.00354,1.02504,5.01801,3.50000,1.96769,2.04677,-2.68457,5.20763,5.03441,-2.68457,5.20763,2.04288,2.04288,A,091457.00
5.06804,57.68800929,11.98120173,57.68800867,11.98120233,10:14:56.273607,0.01188,0.00000,3.50000,-0.00011,0.04407,0.00294,-0.04029,0.01960,-0.10425,0.05429,1.01760,5.05885,3.50000,1.98340,2.00903,-2.72045,5.27722,5.03441,-2.68457,5.20763,2.04288,2.04288,A,091457.00
5.09083,57.68800981,11.98120128,57.68800867,11.98120233,10:14:56.296418,0.01192,0.00000,3.50000,-0.00180,0.04407,0.00920,0.01225,0.01975,0.08808,-0.03093,0.74841,5.08042,3.50000,1.99078,2.01641,-2.74710,5.33444,5.03441,-2.68457,5.20763,2.04288,2.04288,A,091457.00
5.11725,57.68801035,11.98120080,57.68800867,11.98120233,10:14:56.322825,0.01536,0.00000,3.50000,-0.00235,0.04407,-0.01615,0.00232,0.00936,-0.19294,0.05819,1.06658,5.10511,3.50000,1.99727,2.02291,-2.77572,5.39457,5.03441,-2.68457,5.20763,2.04288,2.04288,A,091457.00
5.14236,57.68801085,11.98120034,57.68800867,11.98120233,10:14:56.348250,0.01385,0.00000,3.50000,-0.00372,0.04407,-0.00882,0.03821,0.01211,-0.02550,-0.01769,1.13899,5.12916,3.50000,2.00277,2.02840,-2.80301,5.45079,5.03441,-2.68457,5.20763,2.04288,2.04288,A,091457.00
5.16716,57.68801142,11.98119982,57.68800867,11.98120233,10:14:56.373471,0.01241,0.00000,3.50000,-0.00443,0.04407,-0.03097,-0.00195,0.00387,-0.02342,0.07241,1.01107,5.15540,3.50000,2.00782,2.03345,-2.83414,5.51387,5.03441,-2.68457,5.20763,2.04288,2.04288,A,091457.00
5.19212,57.68801189,11.98119937,57.68800867,11.98120233,10:14:56.397689,0.01340,0.00000,3.50000,-0.00450,0.04407,-0.02303,-0.02334,0.01120,-0.15970,0.10035,1.04377,5.18049,3.50000,2.01183,2.03747,-2.86047,5.56635,5.03441,-2.68457,5.20763,2.04288,2.04288,A,091457.00
5.22007,57.68801237,11.98119892,57.68800867,11.98120233,10:14:56.425645,0.01741,0.00000,3.50000,-0.00472,0.04407,0.01561,-0.00104,0.02326,-0.03111,0.02629,0.90127,5.20639,3.50000,2.01538,2.04102,-2.88759,5.61970,5.03441,-2.68457,5.20763,2.04288,2.04288,A,091457.00
5.24692,57.68801284,11.98119847,57.68800867,11.98120233,10:14:56.452496,0.01870,0.00000,3.50000,-0.00764,0.04407,-0.01493,0.01790,0.01043,0.02464,-0.08577,0.87175,5.23270,3.50000,2.01844,2.04407,-2.91409,5.67121,5.03441,-2.68457,5.20763,2.04288,2.04288,A,091457.00
5.27506,57.68801329,11.98119803,57.68800867,11.98120233,10:14:56.480644,0.01854,0.00000,3.50000,-0.00813,0.04407,0.00034,-0.05815,-0.00285,-0.08089,0.02812,1.00979,5.25886,3.50000,2.02110,2.04673,-2.94035,5.72172,5.03441,-2.68457,5.20763,2.04288,2.04288,A,091457.00
5.30201,57.68801380,11.98119753,57.68800867,11.98120233,10:14:56.507589,0.01467,0.00000,3.50000,-0.00928,0.04421,0.00385,0.00293,0.02800,0.02397,-0.02995,1.11593,5.28801,3.50000,2.02367,2.04939,-2.96979,5.77793,5.03441,-2.68457,5.20763,2.04288,2.04288,A,091457.00
5.33254,57.68801427,11.98119707,57.68800867,11.98120233,10:14:56.538116,0.01630,0.00000,3.50000,-0.00814,0.04429,0.00538,0.02767,0.03472,0.01867,0.12633,1.00619,5.31842,3.50000,2.02582,2.05158,-2.99742,5.83017,5.03441,-2.68457,5.20763,2.04288,2.04288,A,091457.00
5.36012,57.68801467,11.98119666,57.68800867,11.98120233,10:14:56.565694,0.01508,0.00000,3.50000,-0.01023,0.04492,0.02936,-0.01600,0.02372,-0.06417,-0.11200,0.86535,5.34815,3.50000,2.02743,2.05356,-3.02168,5.87554,5.03441,-2.68457,5.20763,2.04288,2.04288,A,091457.00
5.39038,57.68801505,11.98119628,57.68800867,11.98120233,10:14:56.595961,0.01900,0.00000,3.50000,-0.01190,0.04633,-0.01249,-0.02471,0.02097,0.05685,-0.02928,1.02492,5.37548,3.50000,2.02868,2.05563,-3.04433,5.91752,5.03441,-2.68457,5.20763,2.04288,2.04288,A,091457.00
5.42129,57.68801544,11.98119589,57.68800867,11.98120233,10:14:56.626867,0.02001,0.00000,3.50000,-0.01237,0.04681,0.00065,0.03195,0.00478,-0.19117,0.02409,1.19975,5.40557,3.50000,2.02993,2.05716,-3.06773,5.96058,5.03441,-2.68457,5.20763,2.04288,2.04288,A,091457.00
5.45141,57.68801596,11.98119536,57.68800867,11.98120233,10:14:56.656981,0.01604,0.00000,3.50000,-0.01382,0.04698,-0.00898,-0.03555,0.02204,0.10242,-0.00952,0.90140,5.44014,3.50000,2.03171,2.05904,-3.09910,6.01851,5.03441,-2.68457,5.20763,2.04288,2.04288,A,091457.00
5.47430,57.68801608,11.98119523,57.68800867,11.98120233,10:14:56.679876,0.01461,0.00000,3.50000,-0.01509,0.04710,0.01775,-0.02929,0.05044,-0.10888,-0.05179,1.01687,5.46049,3.50000,2.03149,2.05889,-3.10680,6.03149,5.03441,-2.68457,5.20763,2.04288,2.04288,A,091457.00
5.50435,57.68801641,11.98119488,57.68800867,11.98120233,10:14:56.709920,0.01580,0.00000,3.50000,-0.01659,0.04710,-0.01921,0.00797,0.04082,0.01665,-0.01043,1.10105,5.48985,3.50000,2.03235,2.05975,-3.12733,6.06871,5.03441,-2.68457,5.20763,2.04288,2.04288,A,091457.00
5.53061,57.68801670,11.98119458,57.68800867,11.98120233,10:14:56.736180,0.01560,0.00000,3.50000,-0.01651,0.04710,-0.01493,-0.00165,0.00570,-0.12395,0.08674,0.95514,5.51758,3.50000,2.03294,2.06033,-3.14514,6.10075,5.03441,-2.68457,5.20763,2.04288,2.04288,A,091457.00
5.55455,57.68801686,11.98119441,57.68800867,11.98120233,10:14:56.761184,0.01367,0.00000,3.50000,-0.01792,0.04710,0.01149,0.04157,0.01013,0.08345,-0.06338,1.06561,5.54160,3.50000,2.03290,2.06030,-3.15530,6.11838,5.03441,-2.68457,5.20763,2.04288,2.04288,A,091457.00
5.58408,57.68801710,11.98119416,57.68800867,11.98120233,10:14:56.789655,0.01881,0.00000,3.50000,-0.01860,0.04710,0.00049,-0.02440,0.01257,0.09168,0.01299,0.89450,5.56866,3.50000,2.03331,2.06071,-3.17048,6.14551,5.03441,-2.68457,5.20763,2.04288,2.04288,A,091457.00
5.61291,57.68801736,11.98119388,57.68800867,11.98120233,10:14:56.818780,0.01706,0.00000,3.50000,-0.01933,0.04710,-0.00439,-0.02150,0.01624,-0.21728,0.00939,1.12710,5.59770,3.50000,2.03380,2.06120,-3.18681,6.17481,5.03441,-2.68457,5.20763,2.04288,2.04288,A,091457.00
5.64015,57.68801762,11.98119361,57.68800867,11.98120233,10:14:56.846386,0.01542,0.00000,3.50000,-0.02052,0.04710,0.01775,-0.00974,0.01257,0.25571,-0.06387,1.02541,5.62738,3.50000,2.03426,2.06166,-3.20294,6.20369,5.03441,-2.68457,5.20763,2.04288,2.04288,A,091457.00
5.66401,57.68801777,11.98119345,57.68800867,11.98120233,10:14:56.869573,0.01415,0.00000,3.50000,-0.02155,0.04710,-0.00898,0.01118,0.01379,-0.18147,-0.00488,1.04841,5.65137,3.50000,2.03421,2.06161,-3.21253,6.22032,5.03441,-2.68457,5.20763,2.04288,2.04288,A,091457.00
5.68936,57.68801785,11.98119336,57.68800867,11.98120233,10:14:56.894940,0.01708,0.00000,3.50000,-0.02167,0.04710,-0.01906,0.04081,0.00600,0.09327,0.07058,0.92372,5.67499,3.50000,2.03387,2.06127,-3.21786,6.22906,5.03441,-2.68457,5.20763,2.04288,2.04288,A,091457.00
5.71409,57.68801808,11.98119313,57.68800867,11.98120233,10:14:56.919665,0.01403,0.00000,3.50000,-0.02259,0.04710,-0.00669,-0.00287,0.01669,0.04459,0.00390,0.94367,5.70118,3.50000,2.03427,2.06167,-3.23186,6.25414,5.03441,-2.68457,5.20763,2.04288,2.04288,A,091457.00
5.74044,57.68801816,11.98119304,57.68800867,11.98120233,10:14:56.946012,0.01697,0.00000,3.50000,-0.02464,0.04710,-0.03509,-0.04380,0.01807,-0.03642,-0.03080,0.96783,5.72413,3.50000,2.03400,2.06140,-3.23720,6.26299,5.03441,-2.68457,5.20763,2.04288,2.04288,A,091457.00
5.76594,57.68801833,11.98119285,57.68800867,11.98120233,10:14:56.972199,0.01482,0.00000,3.50000,-0.02582,0.04710,-0.04578,-0.02608,0.00112,0.02666,0.05466,1.08415,5.75236,3.50000,2.03421,2.06161,-3.24802,6.28221,5.03441,-2.68457,5.20763,2.04288,2.04288,A,091457.00
5.79695,57.68801845,11.98119272,57.68800867,11.98120233,10:14:57.002538,0.02029,0.00000,3.50000,-0.02820,0.04710,-0.05082,-0.03998,-0.01507,-0.11175,-0.03080,1.03554,5.77755,3.50000,2.03419,2.06159,-3.25567,6.29551,5.03441,-2.68457,5.20763,2.04288,2.04288,A,091457.00
5.82806,57.68801870,11.98119247,57.68800867,11.98120233,10:14:57.033654,0.02222,0.00000,3.50000,-0.03047,0.04710,-0.03219,0.05867,0.00463,-0.00634,-0.03306,0.93629,5.80971,3.50000,2.03480,2.06220,-3.27102,6.32327,5.03441,-2.68457,5.20763,2.04288,2.04288,A,091457.00
5.85612,57.68801899,11.98119217,57.68800867,11.98120233,10:14:57.061703,0.01656,0.00000,3.50000,-0.03198,0.04710,-0.03173,0.04585,0.01563,0.11877,0.00293,1.10758,5.84136,3.50000,2.03556,2.06296,-3.28877,6.35544,5.03441,-2.68457,5.20763,2.04288,2.04288,A,091457.00
5.88157,57.68801908,11.98119207,57.68800867,11.98120233,10:14:57.088029,0.01394,0.00000,3.50000,-0.03365,0.04710,-0.03158,0.01561,0.01043,0.10766,-0.01574,1.04127,5.86915,3.50000,2.03535,2.06275,-3.29465,6.36536,5.03441,-2.68457,5.20763,2.04288,2.04288,A,091457.00
5.91006,57.68801923,11.98119191,57.68800867,11.98120233,10:14:57.115636,0.01834,0.00000,3.50000,-0.03520,0.04710,-0.04242,-0.05510,0.00417,0.02763,0.01800,0.84290,5.89666,3.50000,2.03548,2.06287,-3.30419,6.38220,5.03441,-2.68457,5.20763,2.04288,2.04288,A,091457.00
5.93902,57.68801936,11.98119177,57.68800867,11.98120233,10:14:57.144599,0.01789,0.00000,3.50000,-0.03638,0.04710,-0.01432,0.02813,0.00936,-0.14902,-0.01586,1.00199,5.92364,3.50000,2.03551,2.06291,-3.31227,6.39634,5.03441,-2.68457,5.20763,2.04288,2.04288,A,091457.00
5.96940,57.68801957,11.98119155,57.68800867,11.98120233,10:14:57.174987,0.01656,0.00000,3.50000,-0.03797,0.04710,-0.03524,0.04875,-0.01018,0.26084,0.00482,0.96636,5.95510,3.50000,2.03598,2.06337,-3.32562,6.42035,5.03441,-2.68457,5.20763,2.04288,2.04288,A,091457.00
5.99339,57.68801952,11.98119160,57.68800867,11.98120233,10:14:57.198963,0.01665,0.00000,3.50000,-0.03789,0.04710,-0.01508,0.01515,0.00402,-0.05685,0.06387,1.10434,5.97799,3.50000,2.03516,2.06256,-3.32268,6.41395,5.03441,-2.68457,5.20763,2.04288,2.04288,A,091457.00
6.02521,57.68801973,11.98119137,57.68800867,11.98120233,10:14:57.230782,0.01873,0.00000,3.50000,-0.03935,0.04710,-0.03280,-0.02410,0.02723,0.12596,0.00891,0.88816,6.00890,3.50000,2.03571,2.06311,-3.33593,6.43795,5.03441,-2.68457,5.20763,2.04288,2.04288,A,091457.00
6.06778,57.68802083,11.98119031,57.68802017,11.98119183,10:14:57.273364,0.03081,0.00000,3.50000,-0.03996,0.04710,-0.00852,0.03485,0.01333,-0.05502,0.00976,1.01522,6.04030,3.50000,2.03496,2.06236,-3.39893,6.56036,6.05572,-3.30866,6.48637,2.02484,2.02484,A,091458.00
6.08877,57.68802142,11.98118977,57.68802017,11.98119183,10:14:57.294335,0.01115,0.00000,3.50000,-0.04216,0.04710,-0.02822,0.01622,0.00310,0.04813,-0.04319,1.02181,6.07959,3.50000,2.03221,2.05961,-3.43145,6.62583,6.05572,-3.30866,6.48637,2.02484,2.02484,A,091458.00
6.10540,57.68802175,11.98118948,57.68802017,11.98119183,10:14:57.310959,0.00957,0.00000,3.50000,-0.04342,0.04710,-0.00928,0.00079,0.01288,0.03080,-0.03440,0.90378,6.09642,3.50000,2.02882,2.05622,-3.44869,6.66282,6.05572,-3.30866,6.48637,2.02484,2.02484,A,091458.00
6.12301,57.68802192,11.98118935,57.68802017,11.98119183,10:14:57.329191,0.01654,0.00000,3.50000,-0.04426,0.04710,-0.00684,0.00247,0.02616,-0.08699,-0.01708,0.93659,6.10761,3.50000,2.02526,2.05265,-3.45624,6.68158,6.05572,-3.30866,6.48637,2.02484,2.02484,A,091458.00
6.14927,57.68802250,11.98118882,57.68802017,11.98119183,10:14:57.354843,0.01749,0.00000,3.50000,-0.04352,0.04710,0.00950,-0.00180,0.03334,0.03538,0.05978,1.02700,6.13618,3.50000,2.02415,2.05155,-3.48761,6.74592,6.05572,-3.30866,6.48637,2.02484,2.02484,A,091458.00
6.18085,57.68802319,11.98118819,57.68802017,11.98119183,10:14:57.386426,0.01830,0.00000,3.50000,-0.04527,0.04710,-0.00745,0.01958,0.00326,0.12566,-0.08064,1.06079,6.16640,3.50000,2.02384,2.05124,-3.52538,6.82251,6.05572,-3.30866,6.48637,2.02484,2.02484,A,091458.00
6.20824,57.68802378,11.98118764,57.68802017,11.98119183,10:14:57.413812,0.01538,0.00000,3.50000,-0.04560,0.04710,-0.01066,-0.03998,-0.00438,0.02483,0.02763,0.98033,6.19708,3.50000,2.02330,2.05070,-3.55767,6.88845,6.05572,-3.30866,6.48637,2.02484,2.02484,A,091458.00
6.22623,57.68802405,11.98118742,57.68802017,11.98119183,10:14:57.431796,0.01094,0.00000,3.50000,-0.04723,0.04710,0.00507,-0.05571,-0.00820,0.05691,-0.07021,0.86724,6.21588,3.50000,2.02146,2.04886,-3.57087,6.91763,6.05572,-3.30866,6.48637,2.02484,2.02484,A,091458.00
6.24519,57.68802431,11.98118720,57.68802017,11.98119183,10:14:57.450750,0.01105,0.00000,3.50000,-0.04861,0.04710,-0.00256,-0.02181,0.00326,-0.17806,-0.06588,1.01998,6.23502,3.50000,2.01995,2.04734,-3.58396,6.94663,6.05572,-3.30866,6.48637,2.02484,2.02484,A,091458.00
6.26432,57.68802455,11.98118699,57.68802017,11.98119183,10:14:57.469892,0.01153,0.00000,3.50000,-0.04948,0.04710,0.00477,0.05562,0.00814,-0.03263,-0.03916,0.99040,6.25360,3.50000,2.01865,2.04605,-3.59624,6.97406,6.05572,-3.30866,6.48637,2.02484,2.02484,A,091458.00
6.29254,57.68802495,11.98118664,57.68802017,11.98119183,10:14:57.498778,0.01676,0.00000,3.50000,-0.05019,0.04710,0.01805,0.05547,-0.00652,0.04002,-0.05710,1.03249,6.27880,3.50000,2.01829,2.04569,-3.61712,7.01820,6.05572,-3.30866,6.48637,2.02484,2.02484,A,091458.00
6.31828,57.68802540,11.98118624,57.68802017,11.98119183,10:14:57.523848,0.01331,0.00000,3.50000,-0.05091,0.04710,0.00126,-0.06289,-0.00178,0.02013,-0.04349,1.19810,6.30724,3.50000,2.01835,2.04575,-3.64141,7.06884,6.05572,-3.30866,6.48637,2.02484,2.02484,A,091458.00
6.34717,57.68802577,11.98118592,57.68802017,11.98119183,10:14:57.552750,0.01788,0.00000,3.50000,-0.05093,0.04710,0.00874,-0.02792,0.00707,0.01257,0.00793,0.96032,6.33214,3.50000,2.01807,2.04546,-3.66036,7.10894,6.05572,-3.30866,6.48637,2.02484,2.02484,A,091458.00
6.36601,57.68802602,11.98118570,57.68802017,11.98119183,10:14:57.571580,0.01150,0.00000,3.50000,-0.05034,0.04710,0.01515,-0.00287,0.00799,-0.04575,0.03928,0.84265,6.35540,3.50000,2.01741,2.04481,-3.67315,7.13691,6.05572,-3.30866,6.48637,2.02484,2.02484,A,091458.00
6.38487,57.68802619,11.98118556,57.68802017,11.98119183,10:14:57.590434,0.01108,0.00000,3.50000,-0.05039,0.04704,0.02126,-0.01662,0.00845,-0.12249,-0.00122,0.88932,6.37437,3.50000,2.01654,2.04390,-3.68131,7.15582,6.05572,-3.30866,6.48637,2.02484,2.02484,A,091458.00
6.40315,57.68802632,11.98118546,57.68802017,11.98119183,10:14:57.608715,0.01117,0.00000,3.50000,-0.05060,0.04704,0.03424,0.01927,0.00814,-0.21490,-0.04276,1.12551,6.39256,3.50000,2.01565,2.04301,-3.68724,7.17032,6.05572,-3.30866,6.48637,2.02484,2.02484,A,091458.00
6.42137,57.68802645,11.98118536,57.68802017,11.98119183,10:14:57.626932,0.01082,0.00000,3.50000,-0.05120,0.04704,0.03653,0.03821,0.00341,0.15457,-0.07088,1.06970,6.41123,3.50000,2.01495,2.04231,-3.69345,7.18535,6.05572,-3.30866,6.48637,2.02484,2.02484,A,091458.00
6.44787,57.68802663,11.98118522,57.68802017,11.98119183,10:14:57.654411,0.01939,0.00000,3.50000,-0.05063,0.04704,0.03058,-0.02196,0.00173,-0.08869,0.01775,1.05591,6.43137,3.50000,2.01456,2.04193,-3.70195,7.20481,6.05572,-3.30866,6.48637,2.02484,2.02484,A,091458.00
6.47714,57.68802714,11.98118475,57.68802017,11.98119183,10:14:57.682718,0.01791,0.00000,3.50000,-0.05214,0.04704,0.06005,-0.02761,0.01395,-0.08473,-0.19422,0.93348,6.46367,3.50000,2.01582,2.04318,-3.72966,7.26189,6.05572,-3.30866,6.48637,2.02484,2.02484,A,091458.00
6.50433,57.68802737,11.98118455,57.68802017,11.98119183,10:14:57.709908,0.01672,0.00000,3.50000,-0.05206,0.04704,0.03073,0.02233,0.01639,0.04593,-0.02367,0.99747,6.48840,3.50000,2.01572,2.04309,-3.74160,7.28767,6.05572,-3.30866,6.48637,2.02484,2.02484,A,091458.00
6.52415,57.68802757,11.98118438,57.68802017,11.98119183,10:14:57.729717,0.01118,0.00000,3.50000,-0.04968,0.04704,0.06311,0.01576,0.01379,0.08028,0.07381,0.98515,6.51368,3.50000,2.01555,2.04291,-3.75178,7.30992,6.05572,-3.30866,6.48637,2.02484,2.02484,A,091458.00
6.54333,57.68802765,11.98118432,57.68802017,11.98119183,10:14:57.748896,0.01129,0.00000,3.50000,-0.04917,0.04704,0.07761,-0.04685,0.00784,0.14323,-0.03276,0.92476,6.53267,3.50000,2.01490,2.04226,-3.75524,7.31890,6.05572,-3.30866,6.48637,2.02484,2.02484,A,091458.00
6.56193,57.68802771,11.98118428,57.68802017,11.98119183,10:14:57.768206,0.01171,0.00000,3.50000,-0.05042,0.04704,0.06341,-0.07663,0.01028,-0.02117,-0.13298,0.97545,6.55088,3.50000,2.01425,2.04162,-3.75732,7.32516,6.05572,-3.30866,6.48637,2.02484,2.02484,A,091458.00
6.59025,57.68802798,11.98118405,57.68802017,11.98119183,10:14:57.795834,0.01670,0.00000,3.50000,-0.04804,0.04704,0.05654,0.01148,0.00967,-0.04075,0.08863,1.12149,6.57681,3.50000,2.01467,2.04204,-3.77131,7.35477,6.05572,-3.30866,6.48637,2.02484,2.02484,A,091458.00
6.61878,57.68802831,11.98118375,57.68802017,11.98119183,10:14:57.824354,0.01520,0.00000,3.50000,-0.04515,0.04704,0.07074,-0.01860,-0.00285,-0.10699,0.08076,0.93324,6.60575,3.50000,2.01541,2.04277,-3.78925,7.39197,6.05572,-3.30866,6.48637,2.02484,2.02484,A,091458.00
6.64320,57.68802848,11.98118360,57.68802017,11.98119183,10:14:57.848768,0.01603,0.00000,3.50000,-0.04390,0.04704,0.07517,0.02202,0.00891,-0.07283,-0.00518,1.04517,6.62870,3.50000,2.01537,2.04274,-3.79819,7.41127,6.05572,-3.30866,6.48637,2.02484,2.02484,A,091458.00
6.66400,57.68802863,11.98118347,57.68802017,11.98119183,10:14:57.869569,0.01109,0.00000,3.50000,-0.04318,0.04704,0.08036,-0.03265,0.01914,0.21356,-0.04477,0.91042,6.65351,3.50000,2.01525,2.04261,-3.80555,7.42739,6.05572,-3.30866,6.48637,2.02484,2.02484,A,091458.00
6.68327,57.68802866,11.98118346,57.68802017,11.98119183,10:14:57.888834,0.01123,0.00000,3.50000,-0.04234,0.04704,0.05761,-0.04640,0.00799,-0.21643,0.00756,1.12844,6.67273,3.50000,2.01467,2.04203,-3.80659,7.43108,6.05572,-3.30866,6.48637,2.02484,2.02484,A,091458.00
6.70121,57.68802867,11.98118346,57.68802017,11.98119183,10:14:57.906777,0.01089,0.00000,3.50000,-0.04145,0.04704,0.05135,0.00614,-0.00026,0.00464,0.02989,0.91836,6.69099,3.50000,2.01406,2.04143,-3.80617,7.43188,6.05572,-3.30866,6.48637,2.02484,2.02484,A,091458.00
6.72714,57.68802871,11.98118344,57.68802017,11.98119183,10:14:57.932718,0.01869,0.00000,3.50000,-0.03966,0.04704,0.05043,-0.02899,0.00295,0.09235,0.08632,0.88859,6.70901,3.50000,2.01370,2.04106,-3.80761,7.43633,6.05572,-3.30866,6.48637,2.02484,2.02484,A,091458.00
6.75495,57.68802900,11.98118318,57.68802017,11.98119183,10:14:57.961199,0.01845,0.00000,3.50000,-0.03920,0.04704,0.04020,-0.00195,0.01104,0.01726,-0.01677,0.93226,6.74113,3.50000,2.01455,2.04191,-3.82327,7.46871,6.05572,-3.30866,6.48637,2.02484,2.02484,A,091458.00
6.78210,57.68802926,11.98118294,57.68802017,11.98119183,10:14:57.987677,0.01784,0.00000,3.50000,-0.03856,0.04704,0.03440,-0.00272,0.00509,0.03837,0.01061,1.04999,6.76945,3.50000,2.01517,2.04253,-3.83697,7.49702,6.05572,-3.30866,6.48637,2.02484,2.02484,A,091458.00
6.80533,57.68802941,11.98118280,57.68802017,11.98119183,10:14:58.010899,0.01321,0.00000,3.50000,-0.03890,0.04704,0.03669,-0.01081,-0.00407,-0.05569,-0.06350,1.13021,6.79519,3.50000,2.01531,2.04268,-3.84529,7.51458,6.05572,-3.30866,6.48637,2.02484,2.02484,A,091458.00
6.82379,57.68802938,11.98118284,57.68802017,11.98119183,10:14:58.029348,0.01146,0.00000,3.50000,-0.04015,0.04693,0.01653,-0.00333,-0.01309,0.02580,-0.07021,1.00168,6.81318,3.50000,2.01462,2.04192,-3.84295,7.51114,6.05572,-3.30866,6.48637,2.02484,2.02484,A,091458.00
6.84343,57.68802939,11.98118285,57.68802017,11.98119183,10:14:58.048992,0.01137,0.00000,3.50000,-0.03943,0.04574,-0.00607,-0.04227,-0.01950,-0.00964,0.08192,0.87157,6.83274,3.50000,2.01427,2.04088,-3.84249,7.51145,6.05572,-3.30866,6.48637,2.02484,2.02484,A,091458.00
6.86110,57.68802936,11.98118289,57.68802017,11.98119183,10:14:58.066665,0.01071,0.00000,3.50000,-0.03819,0.04359,0.00263,-0.00241,-0.00927,-0.22698,0.11017,1.01839,6.85102,3.50000,2.01397,2.03933,-3.84026,7.50834,6.05572,-3.30866,6.48637,2.02484,2.02484,A,091458.00
6.89096,57.68802953,11.98118273,57.68802017,11.98119183,10:14:58.096545,0.01735,0.00000,3.50000,-0.03903,0.04084,0.02279,0.00232,-0.00041,0.08882,-0.06143,0.95349,6.87664,3.50000,2.01473,2.03849,-3.84952,7.52806,6.05572,-3.30866,6.48637,2.02484,2.02484,A,091458.00
6.91702,57.68802970,11.98118259,57.68802017,11.98119183,10:14:58.122603,0.01614,0.00000,3.50000,-0.03894,0.03934,-0.00745,-0.00455,-0.00301,-0.07546,0.04465,1.10325,6.90292,3.50000,2.01534,2.03822,-3.85826,7.54683,6.05572,-3.30866,6.48637,2.02484,2.02484,A,091458.00
6.94478,57.68802981,11.98118249,57.68802017,11.98119183,10:14:58.150368,0.01827,0.00000,3.50000,-0.03939,0.03829,0.00294,0.02492,-0.01919,0.18306,-0.00982,0.99625,6.92800,3.50000,2.01567,2.03794,-3.86379,7.55920,6.05572,-3.30866,6.48637,2.02484,2.02484,A,091458.00
6.96367,57.68802990,11.98118242,57.68802017,11.98119183,10:14:58.169237,0.01106,0.00000,3.50000,-0.03976,0.03716,-0.02364,-0.02471,-0.02103,-0.05588,0.03758,1.01120,6.95324,3.50000,2.01591,2.03753,-3.86799,7.56891,6.05572,-3.30866,6.48637,2.02484,2.02484,A,091458.00
6.98296,57.68802987,11.98118246,57.68802017,11.98119183,10:14:58.188530,0.01120,0.00000,3.50000,-0.04036,0.03620,-0.01508,-0.02196,-0.01812,0.02812,0.00762,0.82240,6.97246,3.50000,2.01575,2.03680,-3.86576,7.56586,6.05572,-3.30866,6.48637,2.02484,2.02484,A,091458.00
7.00354,57.68802984,11.98118251,57.68802017,11.98119183,10:14:58.209112,0.01331,0.00000,3.50000,-0.04076,0.03501,-0.00516,-0.00929,-0.01706,0.01421,0.00128,0.94337,6.99127,3.50000,2.01563,2.03599,-3.86293,7.56164,6.05572,-3.30866,6.48637,2.02484,2.02484,A,091458.00
7.02671,57.68802995,11.98118241,57.68802017,11.98119183,10:14:58.232279,0.01478,0.00000,3.50000,-0.04104,0.03286,-0.01157,0.01545,-0.01706,-0.00970,0.01434,1.04292,7.01264,3.50000,2.01617,2.03528,-3.86865,7.57449,6.05572,-3.30866,6.48637,2.02484,2.02484,A,091458.00
7.06527,57.68803093,11.98118153,57.68803183,11.98118133,10:14:58.270849,0.02915,0.00000,3.50000,-0.04139,0.03088,-0.00974,0.02538,-0.03187,0.01470,0.00378,1.14290,7.03688,3.50000,2.01674,2.03469,-3.92099,7.68302,7.05403,-3.93275,7.78364,2.01919,2.01919,A,091459.00
7.08494,57.68803149,11.98118104,57.68803183,11.98118133,10:14:58.291595,0.00981,0.00000,3.50000,-0.04210,0.03003,-0.02242,-0.04930,-0.01553,0.01958,0.02416,0.95733,7.07587,3.50000,2.01602,2.03349,-3.95021,7.74528,7.05403,-3.93275,7.78364,2.01919,2.01919,A,091459.00
7.09843,57.68803178,11.98118080,57.68803183,11.98118133,10:14:58.303999,0.01149,0.00000,3.50000,-0.04227,0.02960,-0.02440,-0.03662,-0.01324,-0.12035,0.02086,1.02199,7.08806,3.50000,2.01472,2.03194,-3.96470,7.77800,7.05403,-3.93275,7.78364,2.01919,2.01919,A,091459.00
7.11627,57.68803225,11.98118039,57.68803183,11.98118133,10:14:58.321833,0.00982,0.00000,3.50000,-0.04260,0.02856,-0.01967,-0.00043,-0.02240,0.04447,0.01494,0.94385,7.10714,3.50000,2.01422,2.03083,-3.98864,7.82967,7.05403,-3.93275,7.78364,2.01919,2.01919,A,091459.00
7.12955,57.68803253,11.98118016,57.68803183,11.98118133,10:14:58.335380,0.01244,0.00000,3.50000,-0.04353,0.02808,-0.01402,0.00675,-0.02668,0.05087,-0.03880,0.99589,7.12044,3.50000,2.01336,2.02969,-4.00277,7.86153,7.05403,-3.93275,7.78364,2.01919,2.01919,A,091459.00
7.14684,57.68803290,11.98117984,57.68803183,11.98118133,10:14:58.352404,0.01012,0.00000,3.50000,-0.04380,0.02796,-0.01738,0.00400,-0.01935,-0.02623,0.01037,1.00619,7.13726,3.50000,2.01289,2.02915,-4.02136,7.90234,7.05403,-3.93275,7.78364,2.01919,2.01919,A,091459.00
7.16999,57.68803337,11.98117944,57.68803183,11.98118133,10:14:58.375566,0.01393,0.00000,3.50000,-0.04357,0.02796,-0.01356,0.00812,-0.01522,-0.06161,0.04282,1.05878,7.15688,3.50000,2.01280,2.02906,-4.04543,7.95417,7.05403,-3.93275,7.78364,2.01919,2.01919,A,091459.00
7.18806,57.68803378,11.98117908,57.68803183,11.98118133,10:14:58.393632,0.01112,0.00000,3.50000,-0.04448,0.02796,-0.01417,-0.01585,-0.01415,0.15323,-0.02904,0.94959,7.17752,3.50000,2.01264,2.02890,-4.06663,8.00005,7.05403,-3.93275,7.78364,2.01919,2.01919,A,091459.00
7.20931,57.68803421,11.98117871,57.68803183,11.98118133,10:14:58.414874,0.01116,0.00000,3.50000,-0.04437,0.02796,-0.01631,-0.01524,-0.01996,-0.08345,0.04002,1.03389,7.19913,3.50000,2.01259,2.02886,-4.08869,8.04755,7.05403,-3.93275,7.78364,2.01919,2.01919,A,091459.00
7.22835,57.68803452,11.98117844,57.68803183,11.98118133,10:14:58.433917,0.01186,0.00000,3.50000,-0.04418,0.02796,-0.00852,0.01851,-0.03248,0.09504,0.03111,0.89792,7.21706,3.50000,2.01231,2.02857,-4.10459,8.08241,7.05403,-3.93275,7.78364,2.01919,2.01919,A,091459.00
7.24664,57.68803483,11.98117818,57.68803183,11.98118133,10:14:58.452213,0.01117,0.00000,3.50000,-0.04463,0.02796,-0.01142,0.00186,-0.02484,0.02873,-0.00500,0.94995,7.23605,3.50000,2.01211,2.02837,-4.12043,8.11707,7.05403,-3.93275,7.78364,2.01919,2.01919,A,091459.00
7.26499,57.68803512,11.98117793,57.68803183,11.98118133,10:14:58.470551,0.01143,0.00000,3.50000,-0.04445,0.02796,-0.00653,0.01729,-0.00942,-0.07668,0.02800,1.03950,7.25439,3.50000,2.01192,2.02818,-4.13515,8.14933,7.05403,-3.93275,7.78364,2.01919,2.01919,A,091459.00
7.28332,57.68803540,11.98117769,57.68803183,11.98118133,10:14:58.488879,0.01112,0.00000,3.50000,-0.04447,0.02796,-0.00149,0.03042,0.00173,-0.07259,0.00665,1.13588,7.27282,3.50000,2.01175,2.02802,-4.14908,8.17992,7.05403,-3.93275,7.78364,2.01919,2.01919,A,091459.00
7.30331,57.68803568,11.98117745,57.68803183,11.98118133,10:14:58.508892,0.01225,0.00000,3.50000,-0.04469,0.02796,0.00049,0.01484,0.01150,0.16537,-0.00390,0.92025,7.29209,3.50000,2.01168,2.02794,-4.16359,8.21159,7.05403,-3.93275,7.78364,2.01919,2.01919,A,091459.00
7.32116,57.68803594,11.98117723,57.68803183,11.98118133,10:14:58.526727,0.01079,0.00000,3.50000,-0.04500,0.02808,-0.00791,-0.02960,0.00738,-0.03111,-0.00049,0.94038,7.31104,3.50000,2.01157,2.02790,-4.17674,8.24038,7.05403,-3.93275,7.78364,2.01919,2.01919,A,091459.00
7.34040,57.68803620,11.98117700,57.68803183,11.98118133,10:14:58.545973,0.01115,0.00000,3.50000,-0.04459,0.02924,-0.02822,-0.03784,-0.00316,-0.13878,0.07430,1.05316,7.32993,3.50000,2.01143,2.02843,-4.19006,8.26943,7.05403,-3.93275,7.78364,2.01919,2.01919,A,091459.00
7.35883,57.68803642,11.98117682,57.68803183,11.98118133,10:14:58.564401,0.01110,0.00000,3.50000,-0.04452,0.03161,-0.02196,0.02080,-0.01278,0.03910,0.04325,0.98143,7.34834,3.50000,2.01107,2.02946,-4.20126,8.29401,7.05403,-3.93275,7.78364,2.01919,2.01919,A,091459.00
7.37743,57.68803665,11.98117662,57.68803183,11.98118133,10:14:58.583002,0.01097,0.00000,3.50000,-0.04546,0.03459,-0.02852,0.00828,-0.00072,-0.02202,-0.01208,0.99973,7.36733,3.50000,2.01066,2.03077,-4.21273,8.31890,7.05403,-3.93275,7.78364,2.01919,2.01919,A,091459.00
7.39670,57.68803687,11.98117643,57.68803183,11.98118133,10:14:58.602271,0.01122,0.00000,3.50000,-0.04597,0.03708,-0.03204,0.01591,0.01883,-0.08241,0.02239,1.01376,7.38626,3.50000,2.01026,2.03182,-4.22438,8.34391,7.05403,-3.93275,7.78364,2.01919,2.01919,A,091459.00
7.41497,57.68803705,11.98117627,57.68803183,11.98118133,10:14:58.620539,0.01122,0.00000,3.50000,-0.04545,0.03863,-0.01218,-0.00363,0.03517,0.01610,0.06600,0.96160,7.40439,3.50000,2.00978,2.03225,-4.23367,8.36397,7.05403,-3.93275,7.78364,2.01919,2.01919,A,091459.00
7.43335,57.68803723,11.98117611,57.68803183,11.98118133,10:14:58.638915,0.01115,0.00000,3.50000,-0.04653,0.03945,0.01867,0.01713,0.05335,-0.00384,-0.06710,0.93086,7.42296,3.50000,2.00940,2.03235,-4.24310,8.38416,7.05403,-3.93275,7.78364,2.01919,2.01919,A,091459.00
7.45176,57.68803741,11.98117596,57.68803183,11.98118133,10:14:58.657327,0.01131,0.00000,3.50000,-0.04762,0.04005,0.00996,0.01713,0.03120,0.08052,-0.05765,0.91732,7.44126,3.50000,2.00908,2.03238,-4.25238,8.40400,7.05403,-3.93275,7.78364,2.01919,2.01919,A,091459.00
7.47009,57.68803757,11.98117582,57.68803183,11.98118133,10:14:58.675663,0.01126,0.00000,3.50000,-0.04649,0.04118,0.02019,0.00767,0.01624,-0.02910,0.06966,0.97228,7.45951,3.50000,2.00869,2.03265,-4.26049,8.42140,7.05403,-3.93275,7.78364,2.01919,2.01919,A,091459.00
7.48826,57.68803772,11.98117569,57.68803183,11.98118133,10:14:58.693831,0.01113,0.00000,3.50000,-0.04701,0.04333,0.03012,0.00660,0.01227,-0.06789,-0.06021,1.12868,7.47771,3.50000,2.00823,2.03344,-4.26842,8.43838,7.05403,-3.93275,7.78364,2.01919,2.01919,A,091459.00
7.50655,57.68803786,11.98117556,57.68803183,11.98118133,10:14:58.712124,0.01113,0.00000,3.50000,-0.04780,0.04571,0.01424,0.02263,0.00356,0.08082,-0.05453,1.09044,7.49602,3.50000,2.00771,2.03430,-4.27578,8.45405,7.05403,-3.93275,7.78364,2.01919,2.01919,A,091459.00
7.52497,57.68803800,11.98117544,57.68803183,11.98118133,10:14:58.730532,0.01143,0.00000,3.50000,-0.04610,0.04741,0.02981,-0.00089,0.02097,0.00756,0.10047,0.95142,7.51426,3.50000,2.00725,2.03483,-4.28311,8.46950,7.05403,-3.93275,7.78364,2.01919,2.01919,A,091459.00
7.54358,57.68803813,11.98117532,57.68803183,11.98118133,10:14:58.749151,0.01137,0.00000,3.50000,-0.04565,0.04814,0.05196,-0.03296,0.03242,0.01586,0.00098,0.87572,7.53278,3.50000,2.00685,2.03486,-4.29003,8.48405,7.05403,-3.93275,7.78364,2.01919,2.01919,A,091459.00
7.56142,57.68803826,11.98117521,57.68803183,11.98118133,10:14:58.766979,0.01076,0.00000,3.50000,-0.04449,0.04817,0.06158,-0.04181,0.04250,-0.17672,0.02934,1.07982,7.55134,3.50000,2.00655,2.03458,-4.29670,8.49805,7.05403,-3.93275,7.78364,2.01919,2.01919,A,091459.00
7.58053,57.68803840,11.98117509,57.68803183,11.98118133,10:14:58.786093,0.01132,0.00000,3.50000,-0.04471,0.04817,0.07288,0.03348,0.02906,0.11425,-0.07320,0.97978,7.57004,3.50000,2.00639,2.03441,-4.30407,8.51343,7.05403,-3.93275,7.78364,2.01919,2.01919,A,091459.00
7.59886,57.68803850,11.98117499,57.68803183,11.98118133,10:14:58.804420,0.01108,0.00000,3.50000,-0.04473,0.04817,0.04570,0.02355,0.00692,0.03209,-0.02159,0.92818,7.58836,3.50000,2.00614,2.03416,-4.30972,8.52539,7.05403,-3.93275,7.78364,2.01919,2.01919,A,091459.00
7.61683,57.68803861,11.98117490,57.68803183,11.98118133,10:14:58.822390,0.01089,0.00000,3.50000,-0.04353,0.04840,0.04478,0.00492,0.00356,-0.01000,0.05594,0.98698,7.60646,3.50000,2.00590,2.03405,-4.31503,8.53665,7.05403,-3.93275,7.78364,2.01919,2.01919,A,091459.00
7.63523,57.68803870,11.98117482,57.68803183,11.98118133,10:14:58.840801,0.01120,0.00000,3.50000,-0.04258,0.04944,0.06005,-0.02120,0.00952,0.03953,0.02129,1.08501,7.62467,3.50000,2.00561,2.03438,-4.32003,8.54728,7.05403,-3.93275,7.78364,2.01919,2.01919,A,091459.00
7.65341,57.68803880,11.98117473,57.68803183,11.98118133,10:14:58.858967,0.01102,0.00000,3.50000,-0.04170,0.05061,0.05975,-0.03632,0.02677,0.03355,0.01696,1.07220,7.64327,3.50000,2.00534,2.03479,-4.32525,8.55826,7.05403,-3.93275,7.78364,2.01919,2.01919,A,091459.00
7.67173,57.68803888,11.98117466,57.68803183,11.98118133,10:14:58.877300,0.01132,0.00000,3.50000,-0.04198,0.05083,0.04845,-0.01585,0.02968,-0.10547,-0.05033,1.11044,7.66097,3.50000,2.00507,2.03464,-4.32930,8.56685,7.05403,-3.93275,7.78364,2.01919,2.01919,A,091459.00
7.68946,57.68803896,11.98117459,57.68803183,11.98118133,10:14:58.895221,0.01068,0.00000,3.50000,-0.04092,0.05083,0.05165,0.01973,0.02830,-0.00195,0.04380,0.83735,7.67939,3.50000,2.00491,2.03448,-4.33383,8.57637,7.05403,-3.93275,7.78364,2.01919,2.01919,A,091459.00
7.71175,57.68803914,11.98117443,57.68803183,11.98118133,10:14:58.917314,0.01267,0.00000,3.50000,-0.04016,0.05083,0.06815,-0.01936,0.03716,0.03910,0.00092,0.82228,7.70098,3.50000,2.00523,2.03480,-4.34332,8.59582,7.05403,-3.93275,7.78364,2.01919,2.01919,A,091459.00
7.72947,57.68803921,11.98117437,57.68803183,11.98118133,10:14:58.935224,0.01063,0.00000,3.50000,-0.04040,0.05083,0.05135,-0.01662,0.01853,-0.08607,-0.04142,0.99351,7.71937,3.50000,2.00501,2.03459,-4.34688,8.60336,7.05403,-3.93275,7.78364,2.01919,2.01919,A,091459.00
7.74907,57.68803931,11.98117427,57.68803183,11.98118133,10:14:58.954630,0.01155,0.00000,3.50000,-0.04002,0.05083,0.05791,0.00354,0.00448,0.01775,-0.01842,1.11715,7.73850,3.50000,2.00505,2.03462,-4.35269,8.61538,7.05403,-3.93275,7.78364,2.01919,2.01919,A,091459.00
7.76723,57.68803937,11.98117422,57.68803183,11.98118133,10:14:58.972798,0.01112,0.00000,3.50000,-0.04000,0.05083,0.05226,-0.00470,0.00692,-0.01629,-0.03477,1.12521,7.75676,3.50000,2.00484,2.03441,-4.35550,8.62138,7.05403,-3.93275,7.78364,2.01919,2.01919,A,091459.00
7.78583,57.68803943,11.98117416,57.68803183,11.98118133,10:14:58.991408,0.01091,0.00000,3.50000,-0.03859,0.05083,0.03378,-0.00486,0.00814,-0.02184,0.09004,1.02212,7.77538,3.50000,2.00474,2.03431,-4.35902,8.62882,7.05403,-3.93275,7.78364,2.01919,2.01919,A,091459.00
7.80347,57.68803947,11.98117413,57.68803183,11.98118133,10:14:59.009047,0.01132,0.00000,3.50000,-0.03768,0.05083,0.03256,-0.00761,0.01593,0.01006,0.06143,0.93818,7.79264,3.50000,2.00451,2.03408,-4.36076,8.63268,7.05403,-3.93275,7.78364,2.01919,2.01919,A,091459.00
7.82081,57.68803952,11.98117409,57.68803183,11.98118133,10:14:59.026369,0.01066,0.00000,3.50000,-0.03641,0.05083,0.04157,-0.01264,0.01883,0.00976,0.07296,0.95312,7.81073,3.50000,2.00439,2.03396,-4.36319,8.63793,7.05403,-3.93275,7.78364,2.01919,2.01919,A,091459.00
7.83848,57.68803954,11.98117407,57.68803183,11.98118133,10:14:59.044058,0.01139,0.00000,3.50000,-0.03652,0.05083,0.04524,-0.01020,0.02403,-0.01141,-0.01507,0.95038,7.82793,3.50000,2.00420,2.03377,-4.36455,8.64104,7.05403,-3.93275,7.78364,2.01919,2.01919,A,091459.00
7.85598,57.68803959,11.98117403,57.68803183,11.98118133,10:14:59.061544,0.01065,0.00000,3.50000,-0.03686,0.05083,0.01760,-0.00165,0.00662,0.00701,-0.00275,0.98613,7.84589,3.50000,2.00413,2.03371,-4.36692,8.64617,7.05403,-3.93275,7.78364,2.01919,2.01919,A,091459.00
7.87340,57.68803962,11.98117401,57.68803183,11.98118133,10:14:59.078964,0.01085,0.00000,3.50000,-0.03588,0.05083,0.01332,0.00079,-0.01247,-0.14933,0.09394,1.10014,7.86306,3.50000,2.00400,2.03357,-4.36824,8.64918,7.05403,-3.93275,7.78364,2.01919,2.01919,A,091459.00
7.89145,57.68803965,11.98117398,57.68803183,11.98118133,10:14:59.097017,0.01091,0.00000,3.50000,-0.03577,0.05083,0.03577,0.00889,-0.01400,0.05905,0.00781,0.94086,7.88122,3.50000,2.00391,2.03348,-4.36979,8.65267,7.05403,-3.93275,7.78364,2.01919,2.01919,A,091459.00
7.90804,57.68803966,11.98117397,57.68803183,11.98118133,10:14:59.113608,0.01057,0.00000,3.50000,-0.03686,0.05077,0.03210,-0.00272,-0.00117,-0.00335,-0.06594,0.98460,7.89799,3.50000,2.00374,2.03329,-4.37024,8.65392,7.05403,-3.93275,7.78364,2.01919,2.01919,A,091459.00
7.92538,57.68803969,11.98117395,57.68803183,11.98118133,10:14:59.130956,0.01089,0.00000,3.50000,-0.03665,0.05035,0.02844,0.00095,0.01196,0.06698,0.02257,0.97185,7.91512,3.50000,2.00372,2.03301,-4.37151,8.65682,7.05403,-3.93275,7.78364,2.01919,2.01919,A,091459.00
7.94765,57.68803977,11.98117387,57.68803183,11.98118133,10:14:59.153216,0.01457,0.00000,3.50000,-0.03587,0.04930,0.04249,-0.04197,0.02128,-0.01555,0.03398,1.07006,7.93480,3.50000,2.00407,2.03275,-4.37612,8.66645,7.05403,-3.93275,7.78364,2.01919,2.01919,A,091459.00
7.96751,57.68803982,11.98117383,57.68803183,11.98118133,10:14:59.173082,0.01289,0.00000,3.50000,-0.03542,0.04741,0.04570,-0.01188,0.00738,-0.02818,-0.00043,1.10813,7.95580,3.50000,2.00434,2.03192,-4.37876,8.67213,7.05403,-3.93275,7.78364,2.01919,2.01919,A,091459.00
7.98446,57.68803983,11.98117383,57.68803183,11.98118133,10:14:59.190025,0.01041,0.00000,3.50000,-0.03517,0.04599,0.04692,-0.01005,-0.00194,0.02562,-0.00146,0.94038,7.97446,3.50000,2.00442,2.03117,-4.37895,8.67299,7.05403,-3.93275,7.78364,2.01919,2.01919,A,091459.00
8.00484,57.68803987,11.98117380,57.68803183,11.98118133,10:14:59.210416,0.01327,0.00000,3.50000,-0.03396,0.04551,0.04768,0.00476,-0.00973,-0.07143,0.05856,0.93580,7.99263,3.50000,2.00459,2.03107,-4.38058,8.67679,7.05403,-3.93275,7.78364,2.01919,2.01919,A,091459.00
8.02451,57.68803997,11.98117371,57.68803183,11.98118133,10:14:59.230069,0.01311,0.00000,3.50000,-0.03228,0.04551,0.06524,0.04096,-0.00087,0.02898,0.06015,0.89798,8.01296,3.50000,2.00501,2.03149,-4.38583,8.68789,7.05403,-3.93275,7.78364,2.01919,2.01919,A,091459.00
8.05589,57.68804096,11.98117277,57.68804400,11.98116967,10:14:59.261450,0.02450,0.00000,3.50000,-0.03154,0.04551,0.06433,0.00996,0.00677,0.11425,0.00744,1.01803,8.03196,3.50000,2.01044,2.03691,-4.44154,8.79836,8.04876,-4.62618,9.13652,2.04444,2.04444,A,091500.00
8.07265,57.68804149,11.98117226,57.68804400,11.98116967,10:14:59.278214,0.01059,0.00000,3.50000,-0.02972,0.04551,0.06036,-0.02578,-0.00056,0.00372,0.03599,1.12307,8.06319,3.50000,2.01323,2.03971,-4.47192,8.85729,8.04876,-4.62618,9.13652,2.04444,2.04444,A,091500.00
8.08858,57.68804199,11.98117177,57.68804400,11.98116967,10:14:59.294145,0.00916,0.00000,3.50000,-0.02944,0.04551,0.06219,-0.03876,-0.00896,0.10297,-0.00714,0.97588,8.07994,3.50000,2.01562,2.04210,-4.50106,8.91356,8.04876,-4.62618,9.13652,2.04444,2.04444,A,091500.00
8.09949,57.68804232,11.98117146,57.68804400,11.98116967,10:14:59.305063,0.00986,0.00000,3.50000,-0.02960,0.04545,0.05257,-0.04426,-0.01064,0.00000,-0.00250,0.97069,8.09008,3.50000,2.01696,2.04340,-4.51985,8.94930,8.04876,-4.62618,9.13652,2.04444,2.04444,A,091500.00
8.11092,57.68804269,11.98117109,57.68804400,11.98116967,10:14:59.316482,0.01061,0.00000,3.50000,-0.02881,0.04517,0.05028,-0.02975,-0.01522,-0.08180,0.05392,0.88920,8.10183,3.50000,2.01841,2.04469,-4.54151,8.99063,8.04876,-4.62618,9.13652,2.04444,2.04444,A,091500.00
8.12364,57.68804304,11.98117074,57.68804400,11.98116967,10:14:59.329198,0.00810,0.00000,3.50000,-0.02823,0.04463,0.05379,0.00003,-0.01736,-0.02757,0.03233,0.90573,8.11577,3.50000,2.01970,2.04566,-4.56231,9.03022,8.04876,-4.62618,9.13652,2.04444,2.04444,A,091500.00
8.13456,57.68804333,11.98117046,57.68804400,11.98116967,10:14:59.340126,0.00847,0.00000,3.50000,-0.02749,0.04427,0.05578,0.00919,-0.01202,-0.04972,0.05136,0.93952,8.12646,3.50000,2.02060,2.04635,-4.57932,9.06241,8.04876,-4.62618,9.13652,2.04444,2.04444,A,091500.00
8.14709,57.68804360,11.98117019,57.68804400,11.98116967,10:14:59.352668,0.01060,0.00000,3.50000,-0.02718,0.04404,0.04997,0.01164,-0.00667,0.04093,0.02891,0.93940,8.13714,3.50000,2.02132,2.04694,-4.59479,9.09160,8.04876,-4.62618,9.13652,2.04444,2.04444,A,091500.00
8.16111,57.68804397,11.98116982,57.68804400,11.98116967,10:14:59.366661,0.00931,0.00000,3.50000,-0.02642,0.04398,0.04722,0.00095,-0.00026,-0.00915,0.04685,1.03816,8.15207,3.50000,2.02248,2.04807,-4.61690,9.13368,8.04876,-4.62618,9.13652,2.04444,2.04444,A,091500.00
8.17173,57.68804420,11.98116960,57.68804400,11.98116967,10:14:59.377292,0.00958,0.00000,3.50000,-0.02591,0.04398,0.04402,-0.01066,0.00096,0.04941,0.04740,1.11343,8.16237,3.50000,2.02289,2.04848,-4.63013,9.15852,8.04876,-4.62618,9.13652,2.04444,2.04444,A,091500.00
8.18256,57.68804442,11.98116938,57.68804400,11.98116967,10:14:59.388129,0.01003,0.00000,3.50000,-0.02491,0.04395,0.03363,-0.00302,0.00188,-0.06112,0.09296,1.14460,8.17299,3.50000,2.02327,2.04884,-4.64311,9.18286,8.04876,-4.62618,9.13652,2.04444,2.04444,A,091500.00
8.19618,57.68804472,11.98116909,57.68804400,11.98116967,10:14:59.401739,0.00901,0.00000,3.50000,-0.02452,0.04384,0.04157,0.01057,-0.00575,0.14463,0.03019,1.03682,8.18737,3.50000,2.02399,2.04950,-4.66071,9.21615,8.04876,-4.62618,9.13652,2.04444,2.04444,A,091500.00
8.20722,57.68804492,11.98116888,57.68804400,11.98116967,10:14:59.412784,0.00984,0.00000,3.50000,-0.02443,0.04364,0.03317,-0.01738,-0.00667,0.13261,0.02867,0.92720,8.19799,3.50000,2.02429,2.04968,-4.67300,9.23918,8.04876,-4.62618,9.13652,2.04444,2.04444,A,091500.00
8.21798,57.68804510,11.98116870,57.68804400,11.98116967,10:14:59.423540,0.00995,0.00000,3.50000,-0.02472,0.04336,0.02645,-0.03738,-0.01263,0.04984,0.01122,0.88767,8.20848,3.50000,2.02448,2.04971,-4.68361,9.25900,8.04876,-4.62618,9.13652,2.04444,2.04444,A,091500.00
8.22919,57.68804530,11.98116850,57.68804400,11.98116967,10:14:59.434746,0.01039,0.00000,3.50000,-0.02458,0.04296,0.01836,-0.03509,-0.01110,-0.09937,0.03898,1.03480,8.22018,3.50000,2.02481,2.04981,-4.69556,9.28141,8.04876,-4.62618,9.13652,2.04444,2.04444,A,091500.00
8.24323,57.68804556,11.98116825,57.68804400,11.98116967,10:14:59.448787,0.00924,0.00000,3.50000,-0.02434,0.04234,0.01057,-0.01463,-0.01247,-0.06582,0.04917,0.97496,8.23406,3.50000,2.02539,2.05002,-4.71041,9.30943,8.04876,-4.62618,9.13652,2.04444,2.04444,A,091500.00
8.25448,57.68804573,11.98116808,57.68804400,11.98116967,10:14:59.460043,0.01045,0.00000,3.50000,-0.02358,0.04189,0.00171,0.00706,-0.01935,0.04355,0.08967,0.94513,8.24527,3.50000,2.02564,2.05000,-4.72074,9.32877,8.04876,-4.62618,9.13652,2.04444,2.04444,A,091500.00
8.26816,57.68804596,11.98116785,57.68804400,11.98116967,10:14:59.473716,0.00906,0.00000,3.50000,-0.02312,0.04149,-0.00042,0.00950,-0.02240,0.00159,0.07601,1.05188,8.25933,3.50000,2.02614,2.05027,-4.73440,9.35456,8.04876,-4.62618,9.13652,2.04444,2.04444,A,091500.00
8.27911,57.68804610,11.98116770,57.68804400,11.98116967,10:14:59.484662,0.00979,0.00000,3.50000,-0.02385,0.04141,0.00660,0.02355,-0.01263,0.00342,-0.00854,0.98326,8.26990,3.50000,2.02625,2.05033,-4.74296,9.37053,8.04876,-4.62618,9.13652,2.04444,2.04444,A,091500.00
8.28949,57.68804623,11.98116758,57.68804400,11.98116967,10:14:59.495253,0.00958,0.00000,3.50000,-0.02397,0.04141,0.00339,0.01988,-0.01706,-0.05289,0.03312,0.97155,8.28055,3.50000,2.02629,2.05037,-4.75032,9.38421,8.04876,-4.62618,9.13652,2.04444,2.04444,A,091500.00
8.29993,57.68804634,11.98116747,57.68804400,11.98116967,10:14:59.505481,0.00941,0.00000,3.50000,-0.02347,0.04141,-0.00119,0.01881,-0.00178,0.01446,0.07363,0.90945,8.29101,3.50000,2.02630,2.05038,-4.75700,9.39659,8.04876,-4.62618,9.13652,2.04444,2.04444,A,091500.00
8.31148,57.68804644,11.98116736,57.68804400,11.98116967,10:14:59.517038,0.01076,0.00000,3.50000,-0.02279,0.04141,-0.00317,0.00935,0.00463,0.08497,0.08699,0.91933,8.30113,3.50000,2.02630,2.05039,-4.76328,9.40825,8.04876,-4.62618,9.13652,2.04444,2.04444,A,091500.00
8.32659,57.68804667,11.98116713,57.68804400,11.98116967,10:14:59.532154,0.00990,0.00000,3.50000,-0.02365,0.04141,-0.00974,-0.02425,0.01028,0.04605,-0.00439,1.03822,8.31737,3.50000,2.02684,2.05092,-4.77686,9.43396,8.04876,-4.62618,9.13652,2.04444,2.04444,A,091500.00
8.33721,57.68804678,11.98116703,57.68804400,11.98116967,10:14:59.542770,0.00979,0.00000,3.50000,-0.02392,0.04141,-0.01997,-0.04533,0.01074,-0.12529,0.03922,1.14485,8.32824,3.50000,2.02681,2.05090,-4.78292,9.44517,8.04876,-4.62618,9.13652,2.04444,2.04444,A,091500.00
8.34808,57.68804687,11.98116694,57.68804400,11.98116967,10:14:59.554135,0.00983,0.00000,3.50000,-0.02348,0.04141,-0.02135,-0.00333,0.00478,-0.00110,0.08991,1.06274,8.33895,3.50000,2.02677,2.05085,-4.78830,9.45514,8.04876,-4.62618,9.13652,2.04444,2.04444,A,091500.00
8.35911,57.68804696,11.98116684,57.68804400,11.98116967,10:14:59.564672,0.00970,0.00000,3.50000,-0.02292,0.04141,-0.02745,0.01805,-0.00453,-0.10016,0.10644,1.10636,8.34992,3.50000,2.02679,2.05087,-4.79423,9.46616,8.04876,-4.62618,9.13652,2.04444,2.04444,A,091500.00
8.36929,57.68804704,11.98116676,57.68804400,11.98116967,10:14:59.574845,0.00935,0.00000,3.50000,-0.02267,0.04141,-0.03280,0.03928,-0.01354,0.04819,0.08156,0.95459,8.36041,3.50000,2.02673,2.05081,-4.79882,9.47463,8.04876,-4.62618,9.13652,2.04444,2.04444,A,091500.00
8.38208,57.68804711,11.98116669,57.68804400,11.98116967,10:14:59.587653,0.01175,0.00000,3.50000,-0.02235,0.04141,-0.03540,0.03027,-0.02347,0.04240,0.08503,0.89920,8.37095,3.50000,2.02668,2.05077,-4.80324,9.48280,8.04876,-4.62618,9.13652,2.04444,2.04444,A,091500.00
8.39817,57.68804739,11.98116641,57.68804400,11.98116967,10:14:59.603738,0.00940,0.00000,3.50000,-0.02316,0.04141,-0.03265,-0.00195,-0.01476,-0.07210,0.03013,0.95782,8.38903,3.50000,2.02748,2.05157,-4.81945,9.51362,8.04876,-4.62618,9.13652,2.04444,2.04444,A,091500.00
8.40823,57.68804744,11.98116636,57.68804400,11.98116967,10:14:59.613785,0.00924,0.00000,3.50000,-0.02460,0.04141,-0.04181,-0.01478,-0.00514,0.05813,-0.01995,0.93452,8.39940,3.50000,2.02730,2.05139,-4.82255,9.51924,8.04876,-4.62618,9.13652,2.04444,2.04444,A,091500.00
8.41878,57.68804750,11.98116630,57.68804400,11.98116967,10:14:59.624337,0.00976,0.00000,3.50000,-0.02509,0.04141,-0.04884,-0.03601,0.00417,0.00049,0.04240,0.97923,8.40952,3.50000,2.02719,2.05128,-4.82610,9.52573,8.04876,-4.62618,9.13652,2.04444,2.04444,A,091500.00
8.42924,57.68804756,11.98116625,57.68804400,11.98116967,10:14:59.634800,0.00964,0.00000,3.50000,-0.02496,0.04141,-0.04334,-0.02868,0.01837,-0.06265,0.08333,1.06122,8.42031,3.50000,2.02710,2.05119,-4.82950,9.53198,8.04876,-4.62618,9.13652,2.04444,2.04444,A,091500.00
8.43967,57.68804760,11.98116620,57.68804400,11.98116967,10:14:59.645221,0.00938,0.00000,3.50000,-0.02616,0.04141,-0.04868,-0.01142,0.01303,-0.06442,-0.01263,1.15101,8.43052,3.50000,2.02698,2.05107,-4.83216,9.53682,8.04876,-4.62618,9.13652,2.04444,2.04444,A,091500.00
8.45023,57.68804765,11.98116615,57.68804400,11.98116967,10:14:59.655798,0.00977,0.00000,3.50000,-0.02677,0.04141,-0.04716,0.01378,0.00860,0.00964,0.03099,1.10331,8.44090,3.50000,2.02691,2.05100,-4.83510,9.54222,8.04876,-4.62618,9.13652,2.04444,2.04444,A,091500.00
8.46026,57.68804769,11.98116611,57.68804400,11.98116967,10:14:59.665818,0.00921,0.00000,3.50000,-0.02708,0.04141,-0.05525,-0.00073,0.00005,0.03831,0.05813,1.04493,8.45139,3.50000,2.02682,2.05091,-4.83739,9.54639,8.04876,-4.62618,9.13652,2.04444,2.04444,A,091500.00
8.47110,57.68804774,11.98116606,57.68804400,11.98116967,10:14:59.676660,0.00984,0.00000,3.50000,-0.02700,0.04141,-0.05036,-0.00058,-0.00407,0.11560,0.07558,0.90140,8.46170,3.50000,2.02680,2.05088,-4.84040,9.55195,8.04876,-4.62618,9.13652,2.04444,2.04444,A,091500.00
8.48129,57.68804778,11.98116602,57.68804400,11.98116967,10:14:59.686850,0.00937,0.00000,3.50000,-0.02690,0.04141,-0.05158,-0.01631,-0.00438,-0.07893,0.08095,0.94855,8.47242,3.50000,2.02676,2.05084,-4.84297,9.55668,8.04876,-4.62618,9.13652,2.04444,2.04444,A,091500.00
8.49219,57.68804782,11.98116597,57.68804400,11.98116967,10:14:59.697750,0.00967,0.00000,3.50000,-0.02781,0.04141,-0.04914,-0.00226,-0.00331,0.00793,0.01501,0.93385,8.48302,3.50000,2.02675,2.05083,-4.84572,9.56177,8.04876,-4.62618,9.13652,2.04444,2.04444,A,091500.00
8.50262,57.68804786,11.98116593,57.68804400,11.98116967,10:14:59.708187,0.00964,0.00000,3.50000,-0.02862,0.04141,-0.05021,0.00171,-0.00239,0.01464,0.02050,0.96691,8.49342,3.50000,2.02671,2.05080,-4.84798,9.56594,8.04876,-4.62618,9.13652,2.04444,2.04444,A,091500.00
8.51306,57.68804790,11.98116590,57.68804400,11.98116967,10:14:59.718618,0.00963,0.00000,3.50000,-0.02927,0.04141,-0.05601,0.00308,0.00417,-0.01068,0.03385,0.98661,8.50408,3.50000,2.02668,2.05077,-4.85010,9.56984,8.04876,-4.62618,9.13652,2.04444,2.04444,A,091500.00
8.52359,57.68804793,11.98116587,57.68804400,11.98116967,10:14:59.729147,0.00946,0.00000,3.50000,-0.03023,0.04141,-0.05021,0.01484,0.00326,0.08680,0.00659,1.03572,8.51440,3.50000,2.02663,2.05072,-4.85183,9.57300,8.04876,-4.62618,9.13652,2.04444,2.04444,A,091500.00
8.53418,57.68804796,11.98116584,57.68804400,11.98116967,10:14:59.739748,0.00980,0.00000,3.50000,-0.03123,0.04141,-0.05097,0.00919,0.00600,-0.07369,0.00110,1.11441,8.52498,3.50000,2.02661,2.05069,-4.85367,9.57639,8.04876,-4.62618,9.13652,2.04444,2.04444,A,091500.00
8.54433,57.68804798,11.98116581,57.68804400,11.98116967,10:14:59.749892,0.00934,0.00000,3.50000,-0.03165,0.04141,-0.04960,0.02569,0.00371,-0.08644,0.04148,1.11197,8.53547,3.50000,2.02658,2.05066,-4.85531,9.57939,8.04876,-4.62618,9.13652,2.04444,2.04444,A,091500.00
8.55503,57.68804801,11.98116578,57.68804400,11.98116967,10:14:59.760588,0.00966,0.00000,3.50000,-0.03248,0.04141,-0.04059,0.03653,-0.00530,0.03178,0.00641,1.02968,8.54581,3.50000,2.02657,2.05066,-4.85710,9.58270,8.04876,-4.62618,9.13652,2.04444,2.04444,A,091500.00
8.56524,57.68804804,11.98116576,57.68804400,11.98116967,10:14:59.770796,0.00940,0.00000,3.50000,-0.03319,0.04141,-0.04349,0.01775,-0.00774,0.12328,0.01970,0.89298,8.55630,3.50000,2.02655,2.05063,-4.85855,9.58537,8.04876,-4.62618,9.13652,2.04444,2.04444,A,091500.00
8.57592,57.68804806,11.98116573,57.68804400,11.98116967,10:14:59.781481,0.00964,0.00000,3.50000,-0.03438,0.04141,-0.04975,-0.02410,-0.00591,0.07784,-0.00720,0.91189,8.56651,3.50000,2.02654,2.05063,-4.86015,9.58833,8.04876,-4.62618,9.13652,2.04444,2.04444,A,091500.00
8.58629,57.68804808,11.98116571,57.68804400,11.98116967,10:14:59.791849,0.00957,0.00000,3.50000,-0.03471,0.04141,-0.04486,-0.04365,-0.00499,0.00982,0.04130,0.91707,8.57712,3.50000,2.02651,2.05059,-4.86129,9.59041,8.04876,-4.62618,9.13652,2.04444,2.04444,A,091500.00
8.59640,57.68804810,11.98116569,57.68804400,11.98116967,10:14:59.801957,0.00931,0.00000,3.50000,-0.03490,0.04141,-0.03967,-0.04991,-0.00163,-0.02629,0.04660,0.93885,8.58754,3.50000,2.02648,2.05057,-4.86236,9.59236,8.04876,-4.62618,9.13652,2.04444,2.04444,A,091500.00
8.60743,57.68804813,11.98116566,57.68804400,11.98116967,10:14:59.812993,0.00954,0.00000,3.50000,-0.03514,0.04141,-0.03066,-0.03357,0.00677,-0.08912,0.03727,1.01656,8.59823,3.50000,2.02652,2.05061,-4.86425,9.59590,8.04876,-4.62618,9.13652,2.04444,2.04444,A,091500.00
8.61856,57.68804815,11.98116564,57.68804400,11.98116967,10:14:59.824124,0.01030,0.00000,3.50000,-0.03622,0.04141,-0.02990,-0.01035,0.01150,-0.03593,-0.01915,0.98942,8.60872,3.50000,2.02650,2.05059,-4.86535,9.59791,8.04876,-4.62618,9.13652,2.04444,2.04444,A,091500.00
8.63232,57.68804826,11.98116553,57.68804400,11.98116967,10:14:59.837880,0.00914,0.00000,3.50000,-0.03705,0.04141,-0.02425,0.00522,0.01288,-0.01488,-0.00220,1.02937,8.62343,3.50000,2.02687,2.05096,-4.87189,9.61039,8.04876,-4.62618,9.13652,2.04444,2.04444,A,091500.00
8.64337,57.68804829,11.98116550,57.68804400,11.98116967,10:14:59.848930,0.00997,0.00000,3.50000,-0.03698,0.04141,-0.01111,0.01393,0.01746,-0.03959,0.04221,1.10325,8.63389,3.50000,2.02688,2.05097,-4.87371,9.61379,8.04876,-4.62618,9.13652,2.04444,2.04444,A,091500.00
8.65440,57.68804831,11.98116549,57.68804400,11.98116967,10:14:59.859972,0.01023,0.00000,3.50000,-0.03670,0.04141,-0.00623,0.04065,0.02586,-0.05728,0.05398,1.10666,8.64480,3.50000,2.02683,2.05091,-4.87459,9.61538,8.04876,-4.62618,9.13652,2.04444,2.04444,A,091500.00
8.66900,57.68804844,11.98116536,57.68804400,11.98116967,10:14:59.874556,0.00923,0.00000,3.50000,-0.03715,0.04183,0.00278,0.03546,0.02830,0.16061,-0.00055,0.96356,8.66000,3.50000,2.02721,2.05154,-4.88212,9.62973,8.04876,-4.62618,9.13652,2.04444,2.04444,A,091500.00
8.67966,57.68804844,11.98116535,57.68804400,11.98116967,10:14:59.885216,0.00962,0.00000,3.50000,-0.03705,0.04279,-0.00287,0.00446,0.03594,0.13048,0.03995,0.89334,8.67049,3.50000,2.02699,2.05188,-4.88253,9.63040,8.04876,-4.62618,9.13652,2.04444,2.04444,A,091500.00
8.69059,57.68804844,11.98116535,57.68804400,11.98116967,10:14:59.896157,0.01010,0.00000,3.50000,-0.03606,0.04438,0.00065,-0.02364,0.03578,-0.01781,0.09467,0.92561,8.68091,3.50000,2.02667,2.05248,-4.88266,9.63052,8.04876,-4.62618,9.13652,2.04444,2.04444,A,091500.00
8.70424,57.68804855,11.98116524,57.68804400,11.98116967,10:14:59.909798,0.00900,0.00000,3.50000,-0.03542,0.04707,0.02126,-0.02868,0.03548,-0.06893,0.05813,0.95056,8.69538,3.50000,2.02666,2.05404,-4.88900,9.64247,8.04876,-4.62618,9.13652,2.04444,2.04444,A,091500.00
8.71512,57.68804856,11.98116523,57.68804400,11.98116967,10:14:59.920681,0.00967,0.00000,3.50000,-0.03616,0.04902,0.01744,-0.03341,0.02525,0.06594,-0.02098,0.98857,8.70589,3.50000,2.02614,2.05466,-4.88977,9.64369,8.04876,-4.62618,9.13652,2.04444,2.04444,A,091500.00
8.72547,57.68804856,11.98116523,57.68804400,11.98116967,10:14:59.931021,0.00954,0.00000,3.50000,-0.03630,0.05063,0.01118,-0.03555,0.02021,-0.01629,0.02275,1.00760,8.71636,3.50000,2.02554,2.05500,-4.88963,9.64315,8.04876,-4.62618,9.13652,2.04444,2.04444,A,091500.00
8.73669,57.68804857,11.98116522,57.68804400,11.98116967,10:14:59.942247,0.01020,0.00000,3.50000,-0.03603,0.05194,0.01928,-0.02608,0.01990,-0.00976,0.04508,1.00626,8.72738,3.50000,2.02504,2.05526,-4.89060,9.64469,8.04876,-4.62618,9.13652,2.04444,2.04444,A,091500.00
8.75103,57.68804866,11.98116513,57.68804400,11.98116967,10:14:59.956585,0.00975,0.00000,3.50000,-0.03640,0.05315,0.01943,0.00308,0.01853,-0.04185,-0.00079,1.02077,8.74147,3.50000,2.02493,2.05586,-4.89607,9.65481,8.04876,-4.62618,9.13652,2.04444,2.04444,A,091500.00
8.76195,57.68804866,11.98116513,57.68804400,11.98116967,10:14:59.967510,0.01011,0.00000,3.50000,-0.03673,0.05389,0.02645,0.00950,0.02433,-0.00945,-0.00043,1.05152,8.75230,3.50000,2.02434,2.05569,-4.89590,9.65417,8.04876,-4.62618,9.13652,2.04444,2.04444,A,091500.00
8.77620,57.68804875,11.98116503,57.68804400,11.98116967,10:14:59.981767,0.00958,0.00000,3.50000,-0.03541,0.05479,0.03837,0.01683,0.03472,0.00598,0.09607,1.03535,8.76710,3.50000,2.02431,2.05619,-4.90167,9.66484,8.04876,-4.62618,9.13652,2.04444,2.04444,A,091500.00
8.78680,57.68804874,11.98116504,57.68804400,11.98116967,10:14:59.992359,0.00977,0.00000,3.50000,-0.03462,0.05542,0.04845,0.01790,0.04220,-0.00647,0.06564,1.02657,8.77753,3.50000,2.02373,2.05597,-4.90142,9.66406,8.04876,-4.62618,9.13652,2.04444,2.04444,A,091500.00
8.79715,57.68804873,11.98116505,57.68804400,11.98116967,10:15:00.002704,0.00955,0.00000,3.50000,-0.03435,0.05593,0.05578,0.00828,0.04983,0.00945,0.02477,1.05957,8.78806,3.50000,2.02316,2.05571,-4.90077,9.66254,8.04876,-4.62618,9.13652,2.04444,2.04444,A,091500.00
8.80819,57.68804873,11.98116505,57.68804400,11.98116967,10:15:00.013754,0.00998,0.00000,3.50000,-0.03490,0.05624,0.05471,0.00751,0.04724,0.00872,-0.02721,1.01138,8.79847,3.50000,2.02271,2.05544,-4.90059,9.66197,8.04876,-4.62618,9.13652,2.04444,2.04444,A,091500.00
8.81888,57.68804872,11.98116506,57.68804400,11.98116967,10:15:00.024442,0.00987,0.00000,3.50000,-0.03456,0.05635,0.04447,0.00293,0.04143,0.00671,0.03764,0.99064,8.80948,3.50000,2.02231,2.05510,-4.90024,9.66109,8.04876,-4.62618,9.13652,2.04444,2.04444,A,091500.00
8.83006,57.68804872,11.98116506,57.68804400,11.98116967,10:15:00.035634,0.01037,0.00000,3.50000,-0.03470,0.05635,0.04264,0.00018,0.03288,0.08162,0.01177,0.92220,8.82037,3.50000,2.02200,2.05479,-4.90022,9.66086,8.04876,-4.62618,9.13652,2.04444,2.04444,A,091500.00
8.84422,57.68804882,11.98116495,57.68804400,11.98116967,10:15:00.049778,0.00926,0.00000,3.50000,-0.03355,0.05635,0.03791,-0.01662,0.02036,-0.11438,0.08772,1.02120,8.83532,3.50000,2.02233,2.05512,-4.90644,9.67255,8.04876,-4.62618,9.13652,2.04444,2.04444,A,091500.00
8.85490,57.68804881,11.98116496,57.68804400,11.98116967,10:15:00.060458,0.00985,0.00000,3.50000,-0.03257,0.05635,0.04234,-0.00241,0.01303,0.05368,0.08272,0.93208,8.84565,3.50000,2.02202,2.05481,-4.90611,9.67175,8.04876,-4.62618,9.13652,2.04444,2.04444,A,091500.00
8.86628,57.68804880,11.98116497,57.68804400,11.98116967,10:15:00.071854,0.01059,0.00000,3.50000,-0.03220,0.05635,0.04081,-0.01524,0.01333,0.01153,0.04715,0.93891,8.85616,3.50000,2.02169,2.05448,-4.90518,9.66984,8.04876,-4.62618,9.13652,2.04444,2.04444,A,091500.00
8.88764,57.68804907,11.98116470,57.68804400,11.98116967,10:15:00.093203,0.01658,0.00000,3.50000,-0.03200,0.05635,0.03669,-0.00608,0.01700,-0.10547,0.00842,1.08800,8.87739,3.50000,2.02303,2.05582,-4.92138,9.70058,8.04876,-4.62618,9.13652,2.04444,2.04444,A,091500.00
8.90510,57.68804922,11.98116455,57.68804400,11.98116967,10:15:00.110669,0.01125,0.00000,3.50000,-0.03071,0.05635,0.04111,0.00858,0.02784,0.02056,0.09235,1.09855,8.89474,3.50000,2.02354,2.05633,-4.93022,9.71715,8.04876,-4.62618,9.13652,2.04444,2.04444,A,091500.00
8.92371,57.68804942,11.98116436,57.68804400,11.98116967,10:15:00.129273,0.01093,0.00000,3.50000,-0.02961,0.05635,0.05562,0.00339,0.03670,-0.09748,0.05636,1.09446,8.91342,3.50000,2.02427,2.05706,-4.94170,9.73868,8.04876,-4.62618,9.13652,2.04444,2.04444,A,091500.00
8.94214,57.68804956,11.98116421,57.68804400,11.98116967,10:15:00.147726,0.01163,0.00000,3.50000,-0.02987,0.05635,0.04829,0.01958,0.03334,0.01580,-0.01244,0.88523,8.93123,3.50000,2.02467,2.05746,-4.95038,9.75483,8.04876,-4.62618,9.13652,2.04444,2.04444,A,091500.00
8.95941,57.68804972,11.98116405,57.68804400,11.98116967,10:15:00.166001,0.01084,0.00000,3.50000,-0.02889,0.05635,0.03317,-0.00883,0.01883,0.05661,0.07558,0.87023,8.94931,3.50000,2.02514,2.05793,-4.95996,9.77268,8.04876,-4.62618,9.13652,2.04444,2.04444,A,091500.00
8.97870,57.68804989,11.98116388,57.68804400,11.98116967,10:15:00.184266,0.01098,0.00000,3.50000,-0.02863,0.05635,0.03821,-0.01738,-0.00301,0.03550,0.02464,0.94251,8.96842,3.50000,2.02563,2.05842,-4.97012,9.79155,8.04876,-4.62618,9.13652,2.04444,2.04444,A,091500.00
8.99666,57.68804999,11.98116378,57.68804400,11.98116967,10:15:00.202238,0.01175,0.00000,3.50000,-0.02899,0.05612,0.01637,-0.02150,-0.01660,-0.14201,0.00817,1.06042,8.98537,3.50000,2.02573,2.05839,-4.97619,9.80267,8.04876,-4.62618,9.13652,2.04444,2.04444,A,091500.00
9.01512,57.68805012,11.98116365,57.68804400,11.98116967,10:15:00.220687,0.01204,0.00000,3.50000,-0.02882,0.05482,0.01317,0.01347,-0.01400,-0.04630,0.04654,1.09422,9.00371,3.50000,2.02612,2.05802,-4.98408,9.81725,8.04876,-4.62618,9.13652,2.04444,2.04444,A,091500.00
9.04845,57.68805128,11.98116255,57.68805650,11.98115833,10:15:00.254017,0.02705,0.00000,3.50000,-0.02835,0.05230,0.02416,-0.00501,-0.00316,0.09345,0.05118,1.02273,9.02196,3.50000,2.02546,2.05589,-5.04932,9.94603,9.04005,-5.29980,10.52645,2.02208,2.02208,A,091501.00
9.06485,57.68805196,11.98116192,57.68805650,11.98115833,10:15:00.270743,0.01019,0.00000,3.50000,-0.02698,0.04687,0.03272,-0.02608,0.01746,-0.02367,0.06149,0.97313,9.05623,3.50000,2.02301,2.05027,-5.08639,10.02163,9.04005,-5.29980,10.52645,2.02208,2.02208,A,091501.00
9.08150,57.68805258,11.98116136,57.68805650,11.98115833,10:15:00.287272,0.00945,0.00000,3.50000,-0.02704,0.04427,0.03363,-0.00867,0.00570,0.05075,0.00360,0.97002,9.07286,3.50000,2.02080,2.04655,-5.11978,10.09056,9.04005,-5.29980,10.52645,2.02208,2.02208,A,091501.00
9.09206,57.68805300,11.98116099,57.68805650,11.98115833,10:15:00.297625,0.00953,0.00000,3.50000,-0.02729,0.04265,0.02508,-0.00409,-0.00575,0.03630,0.00531,1.04487,9.08338,3.50000,2.01824,2.04305,-5.14161,10.13725,9.04005,-5.29980,10.52645,2.02208,2.02208,A,091501.00
9.10319,57.68805341,11.98116064,57.68805650,11.98115833,10:15:00.308752,0.01029,0.00000,3.50000,-0.02753,0.04124,0.01057,-0.01188,-0.01782,0.00232,0.01543,1.03407,9.09402,3.50000,2.01619,2.04018,-5.16287,10.18286,9.04005,-5.29980,10.52645,2.02208,2.02208,A,091501.00
9.11894,57.68805393,11.98116017,57.68805650,11.98115833,10:15:00.324505,0.00950,0.00000,3.50000,-0.02723,0.03985,0.00966,-0.00287,-0.03049,-0.02684,0.04758,1.06183,9.10996,3.50000,2.01507,2.03825,-5.19054,10.24109,9.04005,-5.29980,10.52645,2.02208,2.02208,A,091501.00
9.13146,57.68805430,11.98115985,57.68805650,11.98115833,10:15:00.337029,0.01170,0.00000,3.50000,-0.02638,0.03943,0.00996,0.00064,-0.02271,-0.03715,0.09107,1.07750,9.12097,3.50000,2.01361,2.03654,-5.20938,10.28187,9.04005,-5.29980,10.52645,2.02208,2.02208,A,091501.00
9.14821,57.68805483,11.98115938,57.68805650,11.98115833,10:15:00.353773,0.01072,0.00000,3.50000,-0.02548,0.03923,0.00859,-0.00684,-0.01339,-0.03062,0.09168,1.06878,9.13796,3.50000,2.01307,2.03589,-5.23758,10.34120,9.04005,-5.29980,10.52645,2.02208,2.02208,A,091501.00
9.16471,57.68805532,11.98115895,57.68805650,11.98115833,10:15:00.370277,0.01036,0.00000,3.50000,-0.02557,0.03860,0.00202,0.00415,-0.01293,0.01702,0.03074,0.93763,9.15488,3.50000,2.01257,2.03503,-5.26297,10.39486,9.04005,-5.29980,10.52645,2.02208,2.02208,A,091501.00
9.18064,57.68805578,11.98115855,57.68805650,11.98115833,10:15:00.386202,0.01133,0.00000,3.50000,-0.02488,0.03679,0.00065,-0.02792,-0.01767,-0.04801,0.07668,0.87913,9.17164,3.50000,2.01229,2.03369,-5.28715,10.44605,9.04005,-5.29980,10.52645,2.02208,2.02208,A,091501.00
9.19462,57.68805613,11.98115824,57.68805650,11.98115833,10:15:00.400183,0.00940,0.00000,3.50000,-0.02361,0.03450,0.00630,-0.02349,-0.01354,-0.00695,0.11303,0.98576,9.18542,3.50000,2.01187,2.03194,-5.30539,10.48536,9.04005,-5.29980,10.52645,2.02208,2.02208,A,091501.00
9.20481,57.68805638,11.98115803,57.68805650,11.98115833,10:15:00.410367,0.00937,0.00000,3.50000,-0.02327,0.03275,0.00477,-0.01112,-0.01736,-0.03599,0.05398,0.99991,9.19590,3.50000,2.01130,2.03035,-5.31764,10.51262,9.04005,-5.29980,10.52645,2.02208,2.02208,A,091501.00
9.21543,57.68805661,11.98115784,57.68805650,11.98115833,10:15:00.420993,0.00981,0.00000,3.50000,-0.02360,0.03108,-0.00470,-0.00577,-0.02057,-0.04227,0.01226,1.08915,9.20624,3.50000,2.01093,2.02901,-5.32930,10.53868,9.04005,-5.29980,10.52645,2.02208,2.02208,A,091501.00
9.22561,57.68805683,11.98115765,57.68805650,11.98115833,10:15:00.431363,0.00935,0.00000,3.50000,-0.02377,0.02966,-0.02165,0.00522,-0.02591,-0.01037,0.03520,1.08854,9.21671,3.50000,2.01070,2.02795,-5.34025,10.56326,9.04005,-5.29980,10.52645,2.02208,2.02208,A,091501.00
9.23651,57.68805704,11.98115748,57.68805650,11.98115833,10:15:00.442078,0.00989,0.00000,3.50000,-0.02375,0.02847,-0.02807,0.00828,-0.03294,-0.07546,0.05283,1.10136,9.22708,3.50000,2.01056,2.02712,-5.35048,10.58632,9.04005,-5.29980,10.52645,2.02208,2.02208,A,091501.00
9.24751,57.68805727,11.98115729,57.68805650,11.98115833,10:15:00.453074,0.01016,0.00000,3.50000,-0.02351,0.02734,-0.03494,0.01118,-0.03385,0.00476,0.07540,1.13332,9.23814,3.50000,2.01060,2.02650,-5.36188,10.61173,9.04005,-5.29980,10.52645,2.02208,2.02208,A,091501.00
9.26158,57.68805756,11.98115703,57.68805650,11.98115833,10:15:00.467344,0.00946,0.00000,3.50000,-0.02299,0.02581,-0.03372,-0.00623,-0.03737,0.07472,0.09089,0.94709,9.25263,3.50000,2.01096,2.02597,-5.37706,10.64477,9.04005,-5.29980,10.52645,2.02208,2.02208,A,091501.00
9.27309,57.68805774,11.98115689,57.68805650,11.98115833,10:15:00.478683,0.01023,0.00000,3.50000,-0.02366,0.02462,-0.02333,-0.02166,-0.04454,0.09687,0.00067,0.88834,9.26307,3.50000,2.01104,2.02536,-5.38546,10.66391,9.04005,-5.29980,10.52645,2.02208,2.02208,A,091501.00
9.28710,57.68805803,11.98115664,57.68805650,11.98115833,10:15:00.492662,0.00923,0.00000,3.50000,-0.02384,0.02261,-0.02623,-0.01952,-0.03920,-0.05423,0.03697,0.96362,9.27791,3.50000,2.01157,2.02472,-5.40062,10.69682,9.04005,-5.29980,10.52645,2.02208,2.02208,A,091501.00
9.29746,57.68805819,11.98115651,57.68805650,11.98115833,10:15:00.503016,0.00956,0.00000,3.50000,-0.02418,0.02111,-0.02868,-0.01341,-0.03798,-0.07851,0.01958,0.99729,9.28853,3.50000,2.01181,2.02409,-5.40811,10.71398,9.04005,-5.29980,10.52645,2.02208,2.02208,A,091501.00
9.30827,57.68805833,11.98115639,57.68805650,11.98115833,10:15:00.513826,0.00958,0.00000,3.50000,-0.02528,0.01970,-0.03738,0.00553,-0.03492,-0.00213,-0.02653,1.00205,9.29915,3.50000,2.01210,2.02355,-5.41519,10.73025,9.04005,-5.29980,10.52645,2.02208,2.02208,A,091501.00
9.31877,57.68805848,11.98115627,57.68805650,11.98115833,10:15:00.524324,0.00968,0.00000,3.50000,-0.02616,0.01851,-0.03891,0.00935,-0.04027,0.02891,-0.01464,1.02834,9.30956,3.50000,2.01244,2.02320,-5.42236,10.74666,9.04005,-5.29980,10.52645,2.02208,2.02208,A,091501.00
9.32891,57.68805861,11.98115617,57.68805650,11.98115833,10:15:00.534469,0.00934,0.00000,3.50000,-0.02619,0.01758,-0.04303,-0.00806,-0.03660,0.00220,0.04520,1.05878,9.32002,3.50000,2.01275,2.02297,-5.42851,10.76091,9.04005,-5.29980,10.52645,2.02208,2.02208,A,091501.00
9.34281,57.68805881,11.98115600,57.68805650,11.98115833,10:15:00.548374,0.01200,0.00000,3.50000,-0.02596,0.01670,-0.02700,-0.00944,-0.03508,0.02678,0.05466,1.02535,9.33285,3.50000,2.01321,2.02293,-5.43865,10.78331,9.04005,-5.29980,10.52645,2.02208,2.02208,A,091501.00
9.35678,57.68805903,11.98115581,57.68805650,11.98115833,10:15:00.562340,0.00914,0.00000,3.50000,-0.02640,0.01602,-0.02898,-0.01295,-0.03447,-0.07381,0.01366,1.00870,9.34785,3.50000,2.01369,2.02301,-5.44996,10.80806,9.04005,-5.29980,10.52645,2.02208,2.02208,A,091501.00
9.36737,57.68805913,11.98115573,57.68805650,11.98115833,10:15:00.572930,0.00949,0.00000,3.50000,-0.02694,0.01562,-0.02868,-0.00699,-0.03599,-0.07375,-0.00299,1.04084,9.35814,3.50000,2.01394,2.02302,-5.45481,10.81942,9.04005,-5.29980,10.52645,2.02208,2.02208,A,091501.00
9.37876,57.68805926,11.98115562,57.68805650,11.98115833,10:15:00.584322,0.01059,0.00000,3.50000,-0.02737,0.01520,-0.03524,0.00767,-0.03767,-0.03794,0.00988,0.98240,9.36898,3.50000,2.01423,2.02306,-5.46111,10.83368,9.04005,-5.29980,10.52645,2.02208,2.02208,A,091501.00
9.39253,57.68805945,11.98115546,57.68805650,11.98115833,10:15:00.598086,0.00914,0.00000,3.50000,-0.02779,0.01477,-0.03265,0.01240,-0.04760,0.07192,0.01574,0.92263,9.38364,3.50000,2.01459,2.02318,-5.47054,10.85433,9.04005,-5.29980,10.52645,2.02208,2.02208,A,091501.00
9.40328,57.68805953,11.98115539,57.68805650,11.98115833,10:15:00.608843,0.00968,0.00000,3.50000,-0.02697,0.01472,-0.03158,0.00308,-0.04393,0.01311,0.08369,0.94300,9.39403,3.50000,2.01476,2.02331,-5.47448,10.86362,9.04005,-5.29980,10.52645,2.02208,2.02208,A,091501.00
9.41389,57.68805961,11.98115533,57.68805650,11.98115833,10:15:00.619451,0.00979,0.00000,3.50000,-0.02703,0.01472,-0.01585,0.00293,-0.04531,-0.07436,0.01989,0.98320,9.40474,3.50000,2.01490,2.02346,-5.47839,10.87276,9.04005,-5.29980,10.52645,2.02208,2.02208,A,091501.00
9.42424,57.68805969,11.98115527,57.68805650,11.98115833,10:15:00.629801,0.00955,0.00000,3.50000,-0.02741,0.01472,-0.01356,0.01072,-0.04241,-0.03660,-0.00287,0.97923,9.41538,3.50000,2.01502,2.02358,-5.48191,10.88106,9.04005,-5.29980,10.52645,2.02208,2.02208,A,091501.00
9.43600,57.68805978,11.98115519,57.68805650,11.98115833,10:15:00.641559,0.01096,0.00000,3.50000,-0.02803,0.01472,-0.01478,0.00812,-0.03767,0.07192,-0.01739,0.94703,9.42588,3.50000,2.01516,2.02371,-5.48651,10.89148,9.04005,-5.29980,10.52645,2.02208,2.02208,A,091501.00
9.45457,57.68805995,11.98115505,57.68805650,11.98115833,10:15:00.660136,0.01396,0.00000,3.50000,-0.02808,0.01472,-0.02501,-0.00241,-0.03355,0.06686,0.03251,0.99223,9.44078,3.50000,2.01538,2.02394,-5.49524,10.91035,9.04005,-5.29980,10.52645,2.02208,2.02208,A,091501.00
9.47119,57.68806017,11.98115486,57.68805650,11.98115833,10:15:00.676758,0.01059,0.00000,3.50000,-0.02821,0.01472,-0.01096,-0.01402,-0.02683,0.02385,0.01714,0.97588,9.46105,3.50000,2.01565,2.02421,-5.50643,10.93422,9.04005,-5.29980,10.52645,2.02208,2.02208,A,091501.00
9.48893,57.68806042,11.98115464,57.68805650,11.98115833,10:15:00.694487,0.01039,0.00000,3.50000,-0.02832,0.01472,-0.01508,-0.01555,-0.03095,-0.04093,0.02178,0.98277,9.47916,3.50000,2.01595,2.02450,-5.51951,10.96187,9.04005,-5.29980,10.52645,2.02208,2.02208,A,091501.00
9.50606,57.68806062,11.98115445,57.68805650,11.98115833,10:15:00.711625,0.01064,0.00000,3.50000,-0.02839,0.01472,-0.01921,-0.00287,-0.04103,0.02641,0.02782,0.98667,9.49589,3.50000,2.01615,2.02471,-5.53033,10.98481,9.04005,-5.29980,10.52645,2.02208,2.02208,A,091501.00
9.52326,57.68806082,11.98115428,57.68805650,11.98115833,10:15:00.728831,0.01060,0.00000,3.50000,-0.02834,0.01472,-0.02272,0.00690,-0.04500,-0.00207,0.04203,1.05896,9.51315,3.50000,2.01633,2.02489,-5.54088,11.00715,9.04005,-5.29980,10.52645,2.02208,2.02208,A,091501.00
9.53999,57.68806101,11.98115411,57.68805650,11.98115833,10:15:00.745551,0.01060,0.00000,3.50000,-0.02803,0.01472,-0.01738,0.00599,-0.03996,0.03148,0.05008,0.97862,9.52989,3.50000,2.01648,2.02504,-5.55070,11.02792,9.04005,-5.29980,10.52645,2.02208,2.02208,A,091501.00
9.55784,57.68806121,11.98115393,57.68805650,11.98115833,10:15:00.763414,0.01116,0.00000,3.50000,-0.02783,0.01472,-0.01646,-0.01723,-0.02820,0.04185,0.04197,0.92482,9.54785,3.50000,2.01664,2.02520,-5.56137,11.05040,9.04005,-5.29980,10.52645,2.02208,2.02208,A,091501.00
9.57512,57.68806137,11.98115379,57.68805650,11.98115833,10:15:00.780691,0.01112,0.00000,3.50000,-0.02744,0.01472,-0.01570,-0.02166,-0.01110,-0.03855,0.05453,0.99009,9.56452,3.50000,2.01673,2.02529,-5.56958,11.06778,9.04005,-5.29980,10.52645,2.02208,2.02208,A,091501.00
9.59253,57.68806156,11.98115363,57.68805650,11.98115833,10:15:00.798099,0.01078,0.00000,3.50000,-0.02731,0.01472,-0.01295,-0.00348,-0.00392,0.01372,0.03794,1.07415,9.58249,3.50000,2.01686,2.02542,-5.57964,11.08890,9.04005,-5.29980,10.52645,2.02208,2.02208,A,091501.00
9.60902,57.68806171,11.98115349,57.68805650,11.98115833,10:15:00.814583,0.01011,0.00000,3.50000,-0.02694,0.01472,-0.02089,-0.00913,-0.01156,0.03508,0.06246,1.06140,9.59936,3.50000,2.01693,2.02549,-5.58740,11.10528,9.04005,-5.29980,10.52645,2.02208,2.02208,A,091501.00
9.64340,57.68806185,11.98115337,57.68805650,11.98115833,10:15:00.848979,0.02799,0.00000,3.50000,-0.02622,0.01511,-0.01722,0.00110,-0.00896,-0.08357,0.08326,1.04273,9.61607,3.50000,2.01695,2.02574,-5.59486,11.12102,9.04005,-5.29980,10.52645,2.02208,2.02208,A,091501.00
9.69564,57.68806269,11.98115260,57.68805650,11.98115833,10:15:00.901214,0.03614,0.00000,3.50000,-0.02848,0.02216,-0.03631,-0.02654,-0.01904,-0.00354,0.00293,0.91506,9.67105,3.50000,2.01740,2.03029,-5.64039,11.21452,9.04005,-5.29980,10.52645,2.02208,2.02208,A,091501.00
9.75703,57.68806391,11.98115147,57.68805650,11.98115833,10:15:00.962616,0.05014,0.00000,3.50000,-0.02951,0.02604,-0.02532,0.02676,-0.01141,0.09052,0.03800,0.99753,9.72140,3.50000,2.01911,2.03425,-5.70761,11.35039,9.04005,-5.29980,10.52645,2.02208,2.02208,A,091501.00
9.79458,57.68806462,11.98115080,57.68805650,11.98115833,10:15:01.000150,0.01780,0.00000,3.50000,-0.03082,0.02621,-0.02562,-0.02334,-0.01293,0.04148,0.03593,1.00711,9.78182,3.50000,2.02000,2.03524,-5.74745,11.42970,9.04005,-5.29980,10.52645,2.02208,2.02208,A,091501.00
9.81487,57.68806472,11.98115071,57.68805650,11.98115833,10:15:01.020439,0.01122,0.00000,3.50000,-0.03166,0.02624,-0.03372,-0.01158,-0.02026,-0.04288,0.01452,0.96221,9.80428,3.50000,2.01929,2.03455,-5.75300,11.44029,9.04005,-5.29980,10.52645,2.02208,2.02208,A,091501.00
9.83479,57.68806477,11.98115065,57.68805650,11.98115833,10:15:01.040365,0.01171,0.00000,3.50000,-0.03150,0.02646,-0.03234,0.01057,-0.00866,0.00695,0.06917,0.93403,9.82385,3.50000,2.01859,2.03398,-5.75634,11.44658,9.04005,-5.29980,10.52645,2.02208,2.02208,A,091501.00
9.85289,57.68806479,11.98115063,57.68805650,11.98115833,10:15:01.058454,0.01109,0.00000,3.50000,-0.03266,0.02652,-0.02715,0.00843,-0.00453,0.02489,-0.02409,0.99704,9.84228,3.50000,2.01790,2.03332,-5.75740,11.44841,9.04005,-5.29980,10.52645,2.02208,2.02208,A,091501.00
9.87709,57.68806485,11.98115058,57.68805650,11.98115833,10:15:01.082685,0.01699,0.00000,3.50000,-0.03305,0.02652,-0.03097,0.02049,0.00188,-0.08180,0.03050,1.05445,9.86069,3.50000,2.01742,2.03285,-5.76068,11.45479,9.04005,-5.29980,10.52645,2.02208,2.02208,A,091501.00
9.90818,57.68806519,11.98115026,57.68805650,11.98115833,10:15:01.113754,0.01604,0.00000,3.50000,-0.03409,0.02652,-0.03341,-0.00302,-0.00713,0.05215,0.02227,1.01894,9.89390,3.50000,2.01776,2.03318,-5.77973,11.49289,9.04005,-5.29980,10.52645,2.02208,2.02208,A,091501.00
9.94080,57.68806544,11.98115002,57.68805650,11.98115833,10:15:01.147204,0.02363,0.00000,3.50000,-0.03414,0.02652,-0.03524,-0.02074,-0.00469,-0.03666,0.08009,1.00229,9.92220,3.50000,2.01785,2.03327,-5.79366,11.52067,9.04005,-5.29980,10.52645,2.02208,2.02208,A,091501.00
9.96357,57.68806576,11.98114972,57.68805650,11.98115833,10:15:01.169130,0.01120,0.00000,3.50000,-0.03532,0.02652,-0.01050,0.02080,0.01196,0.04593,-0.03995,0.99082,9.95304,3.50000,2.01814,2.03357,-5.81165,11.55657,9.04005,-5.29980,10.52645,2.02208,2.02208,A,091501.00
9.98267,57.68806574,11.98114974,57.68805650,11.98115833,10:15:01.188241,0.01195,0.00000,3.50000,-0.03579,0.02652,-0.01600,0.00828,0.00738,0.05563,0.00586,0.95008,9.97137,3.50000,2.01755,2.03297,-5.81048,11.55402,9.04005,-5.29980,10.52645,2.02208,2.02208,A,091501.00
10.00069,57.68806573,11.98114975,57.68805650,11.98115833,10:15:01.206262,0.01111,0.00000,3.50000,-0.03508,0.02666,-0.01340,-0.01066,0.00081,-0.11816,0.08162,1.03560,9.99020,3.50000,2.01706,2.03256,-5.80993,11.55279,9.04005,-5.29980,10.52645,2.02208,2.02208,A,091501.00
