Time,lat_estimated,lon_estimated,latitude,longitude,RealTime,CalculationTime,MeasuredVelocity,Roll,SteeringAngle,RollRate,gy,gz,ax,ay,az,imu_read_timing,v_estimated,yaw_estimated,heading_estimated,x_estimated,y_estimated,GPS_timestamp,x_GPS,y_GPS,theta_GPS,theta_GPS_noUnwrap,status,NMEA timestamp
0.04817,57.68785950,11.98138700,57.68785950,11.98138700,16:05:49.481883,0.04812,0.00000,-0.00121,0.06275,-0.03347,0.00292,0.00643,-0.02214,-0.03800,1.01748,0.00001,0.00000,-0.01865,0.00000,0.00000,0.00000,0.01529,0.00000,0.00000,0.00000,0.00000,A,160549.30
0.06522,57.68785950,11.98138700,57.68785950,11.98138700,16:05:49.498698,0.00729,0.00000,-0.00465,0.06275,-0.04416,0.00078,0.00826,-0.03660,-0.03819,0.99558,0.05915,0.00000,-0.01865,0.00000,0.00000,0.00000,0.01529,0.00000,0.00000,0.00000,0.00000,A,160549.30
0.07149,57.68785950,11.98138700,57.68785950,11.98138700,16:05:49.504949,0.00316,0.00000,-0.00604,0.06275,-0.04019,0.00490,0.00582,-0.01812,-0.05313,1.00345,0.06804,0.00000,-0.01865,0.00000,0.00000,0.00000,0.01529,0.00000,0.00000,0.00000,0.00000,A,160549.30
0.08175,57.68785950,11.98138700,57.68785950,11.98138700,16:05:49.515222,0.00303,0.00000,-0.00761,0.06275,-0.04049,0.00078,0.00780,0.02245,-0.06234,1.00003,0.07831,0.00000,-0.01865,0.00000,0.00000,0.00000,0.01529,0.00000,0.00000,0.00000,0.00000,A,160549.30
0.09196,57.68785950,11.98138700,57.68785950,11.98138700,16:05:49.525429,0.00299,0.00000,-0.00910,0.06275,-0.04584,-0.00136,0.00643,0.01708,-0.05539,0.99759,0.08852,0.00000,-0.01865,0.00000,0.00000,0.00000,0.01529,0.00000,0.00000,0.00000,0.00000,A,160549.30
0.10252,57.68785950,11.98138700,57.68785950,11.98138700,16:05:49.535978,0.00315,0.00000,-0.01052,0.06275,-0.03973,0.00032,0.00322,-0.01354,-0.05496,1.00040,0.09909,0.00000,-0.01865,0.00000,0.00000,0.00000,0.01529,0.00000,0.00000,0.00000,0.00000,A,160549.30
0.11291,57.68785950,11.98138700,57.68785950,11.98138700,16:05:49.546385,0.00315,0.00000,-0.01191,0.06275,-0.04187,0.00368,0.00124,-0.02989,-0.05478,1.00497,0.10927,0.00000,-0.01865,0.00000,0.00000,0.00000,0.01529,0.00000,0.00000,0.00000,0.00000,A,160549.30
0.15129,57.68785950,11.98138700,57.68785983,11.98138600,16:05:49.585151,0.03113,0.00000,-0.01346,0.06275,-0.04126,0.00368,-0.00167,-0.00628,-0.06533,0.99869,0.11994,0.00000,-0.01865,0.00000,0.00000,0.00000,0.14619,-0.05944,0.03706,2.58400,2.58400,A,160549.50
0.17087,57.68785952,11.98138695,57.68785983,11.98138600,16:05:49.604344,0.00690,0.00000,-0.01596,0.06275,-0.02751,0.00185,0.01101,-0.01958,-0.07765,1.00388,0.16520,0.00000,0.36895,0.38760,-0.00297,0.00185,0.14619,-0.05944,0.03706,2.58400,2.58400,A,160549.50
0.17753,57.68785952,11.98138695,57.68785983,11.98138600,16:05:49.610994,0.00317,0.00000,-0.01743,0.06275,-0.02950,0.00383,0.01468,-0.00689,-0.07546,0.99723,0.17407,0.00000,0.36895,0.38760,-0.00297,0.00185,0.14619,-0.05944,0.03706,2.58400,2.58400,A,160549.50
0.18786,57.68785952,11.98138695,57.68785983,11.98138600,16:05:49.621322,0.00296,0.00000,-0.01861,0.06275,-0.03133,0.00017,0.01040,0.00549,-0.05417,0.99967,0.18442,0.00000,0.36895,0.38760,-0.00297,0.00185,0.14619,-0.05944,0.03706,2.58400,2.58400,A,160549.50
0.19845,57.68785952,11.98138695,57.68785983,11.98138600,16:05:49.631908,0.00316,0.00000,-0.01974,0.06275,-0.03775,0.00215,0.00628,0.01647,-0.04612,0.99991,0.19502,0.00000,0.36895,0.38760,-0.00297,0.00185,0.14619,-0.05944,0.03706,2.58400,2.58400,A,160549.50
0.20884,57.68785952,11.98138695,57.68785983,11.98138600,16:05:49.642330,0.00316,0.00000,-0.02068,0.06275,-0.02522,0.00154,-0.00167,0.00049,-0.04557,1.00900,0.20519,0.00000,0.36895,0.38760,-0.00297,0.00185,0.14619,-0.05944,0.03706,2.58400,2.58400,A,160549.50
0.21924,57.68785952,11.98138695,57.68785983,11.98138600,16:05:49.652705,0.00316,0.00000,-0.02200,0.06269,-0.02874,0.00047,-0.00319,-0.01629,-0.06765,1.00327,0.21580,0.00000,0.36895,0.38760,-0.00297,0.00185,0.14619,-0.05944,0.03706,2.58400,2.58400,A,160549.50
0.22956,57.68785952,11.98138695,57.68785983,11.98138600,16:05:49.663032,0.00317,0.00000,-0.02344,0.06261,-0.02858,0.00460,-0.00823,-0.02098,-0.07753,0.99735,0.22610,0.00000,0.36895,0.38760,-0.00297,0.00185,0.14619,-0.05944,0.03706,2.58400,2.58400,A,160549.50
0.23999,57.68785952,11.98138695,57.68785983,11.98138600,16:05:49.673453,0.00300,0.00000,-0.02463,0.06246,-0.02965,0.00276,-0.01174,-0.00189,-0.06112,0.99369,0.23655,0.00000,0.36895,0.38760,-0.00297,0.00185,0.14619,-0.05944,0.03706,2.58400,2.58400,A,160549.50
0.26807,57.68785952,11.98138695,57.68786033,11.98138567,16:05:49.701570,0.02069,0.00000,-0.02577,0.06229,-0.03148,0.00170,-0.00457,0.00689,-0.05697,0.98649,0.24711,0.00000,0.36895,0.38760,-0.00297,0.00185,0.26363,-0.07925,0.09266,1.91312,1.91312,A,160549.60
0.28276,57.68785956,11.98138689,57.68786033,11.98138567,16:05:49.716236,0.00692,0.00000,-0.02712,0.06187,-0.01484,-0.00518,0.01177,-0.01549,-0.06557,1.00089,0.27708,0.00000,0.59782,0.61621,-0.00679,0.00639,0.26363,-0.07925,0.09266,1.91312,1.91312,A,160549.60
0.28942,57.68785956,11.98138689,57.68786033,11.98138567,16:05:49.722887,0.00318,0.00000,-0.02827,0.06173,-0.00751,-0.00289,0.00902,-0.00183,-0.07906,1.00217,0.28596,0.00000,0.59782,0.61621,-0.00679,0.00639,0.26363,-0.07925,0.09266,1.91312,1.91312,A,160549.60
0.29976,57.68785956,11.98138689,57.68786033,11.98138567,16:05:49.733224,0.00297,0.00000,-0.02936,0.06150,-0.01438,-0.00426,0.00994,-0.00122,-0.06966,0.99534,0.29632,0.00000,0.59782,0.61621,-0.00679,0.00639,0.26363,-0.07925,0.09266,1.91312,1.91312,A,160549.60
0.31033,57.68785956,11.98138689,57.68786033,11.98138567,16:05:49.743799,0.00316,0.00000,-0.03037,0.06130,-0.01270,-0.00961,0.00780,0.00073,-0.06606,0.98789,0.30690,0.00000,0.59782,0.61621,-0.00679,0.00639,0.26363,-0.07925,0.09266,1.91312,1.91312,A,160549.60
0.32113,57.68785956,11.98138689,57.68786033,11.98138567,16:05:49.754607,0.00356,0.00000,-0.03114,0.06113,-0.01270,-0.00915,0.00307,-0.00945,-0.05167,0.99674,0.31745,0.00000,0.59782,0.61621,-0.00679,0.00639,0.26363,-0.07925,0.09266,1.91312,1.91312,A,160549.60
0.33114,57.68785956,11.98138689,57.68786033,11.98138567,16:05:49.764608,0.00317,0.00000,-0.03205,0.06099,-0.01407,-0.00838,0.00276,-0.02007,-0.06137,0.99216,0.32770,0.00000,0.59782,0.61621,-0.00679,0.00639,0.26363,-0.07925,0.09266,1.91312,1.91312,A,160549.60
0.34247,57.68785956,11.98138689,57.68786033,11.98138567,16:05:49.775933,0.00314,0.00000,-0.03311,0.06091,-0.00888,-0.00594,-0.00228,0.00024,-0.07338,0.97923,0.33904,0.00000,0.59782,0.61621,-0.00679,0.00639,0.26363,-0.07925,0.09266,1.91312,1.91312,A,160549.60
0.35290,57.68785956,11.98138689,57.68786033,11.98138567,16:05:49.786382,0.00319,0.00000,-0.03406,0.06085,-0.00873,-0.00884,-0.00167,0.00305,-0.06905,0.99412,0.34922,0.00000,0.59782,0.61621,-0.00679,0.00639,0.26363,-0.07925,0.09266,1.91312,1.91312,A,160549.60
0.36327,57.68785956,11.98138689,57.68786033,11.98138567,16:05:49.796733,0.00316,0.00000,-0.03482,0.06085,-0.00537,-0.00930,-0.00411,-0.00073,-0.06045,1.00540,0.35984,0.00000,0.59782,0.61621,-0.00679,0.00639,0.26363,-0.07925,0.09266,1.91312,1.91312,A,160549.60
0.38998,57.68785956,11.98138689,57.68786083,11.98138533,16:05:49.823468,0.01947,0.00000,-0.03561,0.06079,-0.00247,-0.01098,-0.00014,-0.01702,-0.06728,1.03120,0.37021,0.00000,0.59782,0.61621,-0.00679,0.00639,0.38509,-0.09906,0.14826,1.91312,1.91312,A,160549.70
0.40646,57.68785962,11.98138681,57.68786083,11.98138533,16:05:49.839938,0.00732,0.00000,-0.03645,0.06043,0.00318,-0.00533,0.00429,-0.02336,-0.07796,1.01553,0.40037,0.00000,0.79242,0.81038,-0.01140,0.01349,0.38509,-0.09906,0.14826,1.91312,1.91312,A,160549.70
0.41246,57.68785962,11.98138681,57.68786083,11.98138533,16:05:49.846218,0.00294,0.00000,-0.03731,0.06026,0.00624,-0.00044,0.00307,-0.00037,-0.07576,0.99119,0.40903,0.00000,0.79242,0.81038,-0.01140,0.01349,0.38509,-0.09906,0.14826,1.91312,1.91312,A,160549.70
0.42323,57.68785962,11.98138681,57.68786083,11.98138533,16:05:49.856700,0.00330,0.00000,-0.03789,0.06003,0.01540,-0.00304,0.00460,-0.01885,-0.06448,0.98161,0.41980,0.00000,0.79242,0.81038,-0.01140,0.01349,0.38509,-0.09906,0.14826,1.91312,1.91312,A,160549.70
0.43349,57.68785962,11.98138681,57.68786083,11.98138533,16:05:49.866962,0.00317,0.00000,-0.03875,0.05980,0.01509,0.00170,0.01070,-0.03367,-0.08320,0.98326,0.43004,0.00000,0.79242,0.81038,-0.01140,0.01349,0.38509,-0.09906,0.14826,1.91312,1.91312,A,160549.70
0.44384,57.68785962,11.98138681,57.68786083,11.98138533,16:05:49.877308,0.00298,0.00000,-0.03916,0.05955,0.01738,0.00964,0.00429,-0.02312,-0.05661,0.99387,0.44041,0.00000,0.79242,0.81038,-0.01140,0.01349,0.38509,-0.09906,0.14826,1.91312,1.91312,A,160549.70
0.45465,57.68785962,11.98138681,57.68786083,11.98138533,16:05:49.888124,0.00340,0.00000,-0.03970,0.05929,0.01479,0.00765,0.00353,0.00268,-0.06423,0.99253,0.45119,0.00000,0.79242,0.81038,-0.01140,0.01349,0.38509,-0.09906,0.14826,1.91312,1.91312,A,160549.70
0.46494,57.68785962,11.98138681,57.68786083,11.98138533,16:05:49.898430,0.00327,0.00000,-0.04011,0.05907,0.01906,0.00597,0.00292,0.01769,-0.05868,1.00077,0.46117,0.00000,0.79242,0.81038,-0.01140,0.01349,0.38509,-0.09906,0.14826,1.91312,1.91312,A,160549.70
0.47523,57.68785962,11.98138681,57.68786083,11.98138533,16:05:49.908700,0.00317,0.00000,-0.04054,0.05881,0.02365,0.00139,-0.00105,0.02800,-0.06448,1.00278,0.47180,0.00000,0.79242,0.81038,-0.01140,0.01349,0.38509,-0.09906,0.14826,1.91312,1.91312,A,160549.70
0.50161,57.68785962,11.98138681,57.68786117,11.98138483,16:05:49.935481,0.01915,0.00000,-0.04097,0.05856,0.02197,-0.00212,-0.00411,0.02050,-0.06277,0.99149,0.48215,0.00000,0.79242,0.81038,-0.01140,0.01349,0.49728,-0.12878,0.18532,2.24663,2.24663,A,160549.80
0.52002,57.68785970,11.98138671,57.68786117,11.98138483,16:05:49.953493,0.00677,0.00000,-0.04065,0.05802,0.03098,-0.00609,-0.00151,-0.00793,-0.06277,0.97374,0.51458,0.00000,1.00797,1.02521,-0.01727,0.02208,0.49728,-0.12878,0.18532,2.24663,2.24663,A,160549.80
0.52685,57.68785970,11.98138671,57.68786117,11.98138483,16:05:49.960315,0.00320,0.00000,-0.04139,0.05796,0.03159,-0.00686,0.00078,0.00262,-0.08528,0.97521,0.52341,0.00000,1.00797,1.02521,-0.01727,0.02208,0.49728,-0.12878,0.18532,2.24663,2.24663,A,160549.80
0.53726,57.68785970,11.98138671,57.68786117,11.98138483,16:05:49.970737,0.00322,0.00000,-0.04174,0.05794,0.03479,-0.00930,0.00444,0.00939,-0.06679,0.98826,0.53381,0.00000,1.00797,1.02521,-0.01727,0.02208,0.49728,-0.12878,0.18532,2.24663,2.24663,A,160549.80
0.54759,57.68785970,11.98138671,57.68786117,11.98138483,16:05:49.981064,0.00315,0.00000,-0.04217,0.05788,0.03693,-0.00991,0.00582,0.01598,-0.07424,0.99277,0.54416,0.00000,1.00797,1.02521,-0.01727,0.02208,0.49728,-0.12878,0.18532,2.24663,2.24663,A,160549.80
0.55791,57.68785970,11.98138671,57.68786117,11.98138483,16:05:49.991381,0.00324,0.00000,-0.04229,0.05777,0.03586,-0.01403,0.00811,-0.00366,-0.05417,1.01736,0.55446,0.00000,1.00797,1.02521,-0.01727,0.02208,0.49728,-0.12878,0.18532,2.24663,2.24663,A,160549.80
0.56793,57.68785970,11.98138671,57.68786117,11.98138483,16:05:50.001396,0.00298,0.00000,-0.04248,0.05760,0.04228,-0.01129,0.00628,-0.01696,-0.06271,1.01327,0.56449,0.00000,1.00797,1.02521,-0.01727,0.02208,0.49728,-0.12878,0.18532,2.24663,2.24663,A,160549.80
0.57851,57.68785970,11.98138671,57.68786117,11.98138483,16:05:50.011975,0.00316,0.00000,-0.04247,0.05737,0.03724,-0.01144,0.00215,-0.00537,-0.04666,1.00772,0.57507,0.00000,1.00797,1.02521,-0.01727,0.02208,0.49728,-0.12878,0.18532,2.24663,2.24663,A,160549.80
0.58890,57.68785970,11.98138671,57.68786117,11.98138483,16:05:50.022380,0.00316,0.00000,-0.04264,0.05714,0.03678,-0.00976,0.00261,-0.00726,-0.05819,1.00595,0.58526,0.00000,1.00797,1.02521,-0.01727,0.02208,0.49728,-0.12878,0.18532,2.24663,2.24663,A,160549.80
0.61448,57.68785970,11.98138671,57.68786150,11.98138383,16:05:50.047957,0.01834,0.00000,-0.04274,0.05692,0.03968,-0.00426,0.00017,-0.01482,-0.05606,1.00302,0.59587,0.00000,1.00797,1.02521,-0.01727,0.02208,0.61074,-0.18822,0.22239,2.58400,2.58400,A,160549.90
0.62734,57.68785979,11.98138657,57.68786150,11.98138383,16:05:50.060817,0.00717,0.00000,-0.04211,0.05661,0.03938,-0.00579,0.00139,-0.01787,-0.04581,1.00821,0.62130,0.00000,1.24185,1.25867,-0.02582,0.03209,0.61074,-0.18822,0.22239,2.58400,2.58400,A,160549.90
0.63373,57.68785979,11.98138657,57.68786150,11.98138383,16:05:50.067191,0.00316,0.00000,-0.04210,0.05652,0.04121,0.00261,-0.00044,-0.02117,-0.04544,1.02382,0.63028,0.00000,1.24185,1.25867,-0.02582,0.03209,0.61074,-0.18822,0.22239,2.58400,2.58400,A,160549.90
0.64394,57.68785979,11.98138657,57.68786150,11.98138383,16:05:50.077408,0.00300,0.00000,-0.04216,0.05644,0.03876,0.00185,-0.00075,-0.02641,-0.05276,1.02657,0.64051,0.00000,1.24185,1.25867,-0.02582,0.03209,0.61074,-0.18822,0.22239,2.58400,2.58400,A,160549.90
0.65472,57.68785979,11.98138657,57.68786150,11.98138383,16:05:50.088209,0.00338,0.00000,-0.04231,0.05635,0.04060,0.00521,0.00032,0.00128,-0.06094,1.02193,0.65105,0.00000,1.24185,1.25867,-0.02582,0.03209,0.61074,-0.18822,0.22239,2.58400,2.58400,A,160549.90
0.66498,57.68785979,11.98138657,57.68786150,11.98138383,16:05:50.098465,0.00325,0.00000,-0.04252,0.05627,0.04151,0.00765,0.00063,-0.00732,-0.06332,1.00260,0.66126,0.00000,1.24185,1.25867,-0.02582,0.03209,0.61074,-0.18822,0.22239,2.58400,2.58400,A,160549.90
0.67610,57.68785979,11.98138657,57.68786150,11.98138383,16:05:50.109586,0.00397,0.00000,-0.04257,0.05618,0.03922,0.00063,0.00200,-0.00799,-0.05283,0.97765,0.67261,0.00000,1.24185,1.25867,-0.02582,0.03209,0.61074,-0.18822,0.22239,2.58400,2.58400,A,160549.90
0.68568,57.68785979,11.98138657,57.68786150,11.98138383,16:05:50.119151,0.00315,0.00000,-0.04271,0.05618,0.03938,0.00338,0.00108,-0.02525,-0.05398,0.97496,0.68224,0.00000,1.24185,1.25867,-0.02582,0.03209,0.61074,-0.18822,0.22239,2.58400,2.58400,A,160549.90
0.69592,57.68785979,11.98138657,57.68786150,11.98138383,16:05:50.129393,0.00298,0.00000,-0.04276,0.05618,0.04029,0.00735,-0.00182,-0.03050,-0.05173,0.98491,0.69248,0.00000,1.24185,1.25867,-0.02582,0.03209,0.61074,-0.18822,0.22239,2.58400,2.58400,A,160549.90
0.70650,57.68785979,11.98138657,57.68786150,11.98138383,16:05:50.139962,0.00316,0.00000,-0.04286,0.05618,0.03434,0.00933,0.00139,-0.01720,-0.05191,1.00284,0.70307,0.00000,1.24185,1.25867,-0.02582,0.03209,0.61074,-0.18822,0.22239,2.58400,2.58400,A,160549.90
0.74580,57.68785979,11.98138657,57.68786250,11.98138283,16:05:50.179883,0.03207,0.00000,-0.04278,0.05618,0.03983,0.00826,0.00689,0.02031,-0.04386,1.00302,0.71326,0.00000,1.24185,1.25867,-0.02582,0.03209,0.74105,-0.24765,0.33358,2.06169,2.06169,A,160550.10
0.76509,57.68785992,11.98138638,57.68786250,11.98138283,16:05:50.198574,0.00641,0.00000,-0.04137,0.05618,0.03785,0.00154,0.00169,-0.03373,-0.04215,1.00327,0.75941,0.00000,1.36232,1.37901,-0.03691,0.04717,0.74105,-0.24765,0.33358,2.06169,2.06169,A,160550.10
0.77192,57.68785992,11.98138638,57.68786250,11.98138283,16:05:50.205390,0.00298,0.00000,-0.04136,0.05618,0.04289,0.00551,-0.00044,-0.04819,-0.04666,1.02559,0.76849,0.00000,1.36232,1.37901,-0.03691,0.04717,0.74105,-0.24765,0.33358,2.06169,2.06169,A,160550.10
0.78250,57.68785992,11.98138638,57.68786250,11.98138283,16:05:50.215958,0.00316,0.00000,-0.04132,0.05615,0.03495,0.01468,-0.00151,-0.00024,-0.04227,1.01571,0.77906,0.00000,1.36232,1.37901,-0.03691,0.04717,0.74105,-0.24765,0.33358,2.06169,2.06169,A,160550.10
0.79302,57.68785992,11.98138638,57.68786250,11.98138283,16:05:50.226512,0.00329,0.00000,-0.04147,0.05615,0.03418,0.00765,-0.00136,0.02562,-0.05258,0.98924,0.78924,0.00000,1.36232,1.37901,-0.03691,0.04717,0.74105,-0.24765,0.33358,2.06169,2.06169,A,160550.10
0.80329,57.68785992,11.98138638,57.68786250,11.98138283,16:05:50.236758,0.00317,0.00000,-0.04155,0.05615,0.03892,0.00276,-0.00014,-0.01147,-0.05209,0.98021,0.79985,0.00000,1.36232,1.37901,-0.03691,0.04717,0.74105,-0.24765,0.33358,2.06169,2.06169,A,160550.10
0.81366,57.68785992,11.98138638,57.68786250,11.98138283,16:05:50.247129,0.00313,0.00000,-0.04165,0.05615,0.03067,-0.00044,0.00246,-0.04160,-0.04782,0.98899,0.81021,0.00000,1.36232,1.37901,-0.03691,0.04717,0.74105,-0.24765,0.33358,2.06169,2.06169,A,160550.10
0.82391,57.68785992,11.98138638,57.68786250,11.98138283,16:05:50.257377,0.00297,0.00000,-0.04165,0.05615,0.03235,0.00139,0.00154,-0.04898,-0.04197,0.99826,0.82048,0.00000,1.36232,1.37901,-0.03691,0.04717,0.74105,-0.24765,0.33358,2.06169,2.06169,A,160550.10
0.83472,57.68785992,11.98138638,57.68786250,11.98138283,16:05:50.268193,0.00339,0.00000,-0.04159,0.05615,0.03602,0.00735,0.00124,-0.00396,-0.04160,0.98936,0.83127,0.00000,1.36232,1.37901,-0.03691,0.04717,0.74105,-0.24765,0.33358,2.06169,2.06169,A,160550.10
0.86125,57.68785992,11.98138638,57.68786300,11.98138250,16:05:50.295319,0.01952,0.00000,-0.04180,0.05615,0.02869,0.00261,0.00292,0.02318,-0.05264,0.98814,0.84124,0.00000,1.36232,1.37901,-0.03691,0.04717,0.85642,-0.26747,0.38918,1.91312,1.91312,A,160550.20
0.87882,57.68786008,11.98138619,57.68786300,11.98138250,16:05:50.312303,0.00698,0.00000,-0.04134,0.05615,0.02334,-0.00563,0.00154,-0.05136,-0.04008,1.01595,0.87316,0.00000,1.44244,1.45912,-0.04844,0.06427,0.85642,-0.26747,0.38918,1.91312,1.91312,A,160550.20
0.88543,57.68786008,11.98138619,57.68786300,11.98138250,16:05:50.318896,0.00318,0.00000,-0.04154,0.05615,0.02930,0.00338,0.00108,-0.07198,-0.05124,1.01839,0.88198,0.00000,1.44244,1.45912,-0.04844,0.06427,0.85642,-0.26747,0.38918,1.91312,1.91312,A,160550.20
0.89577,57.68786008,11.98138619,57.68786300,11.98138250,16:05:50.329245,0.00299,0.00000,-0.04167,0.05615,0.02777,0.00826,-0.00075,-0.01403,-0.04892,1.01498,0.89233,0.00000,1.44244,1.45912,-0.04844,0.06427,0.85642,-0.26747,0.38918,1.91312,1.91312,A,160550.20
0.90634,57.68786008,11.98138619,57.68786300,11.98138250,16:05:50.339804,0.00315,0.00000,-0.04190,0.05615,0.02151,0.01055,-0.00243,0.02690,-0.05118,0.99967,0.90291,0.00000,1.44244,1.45912,-0.04844,0.06427,0.85642,-0.26747,0.38918,1.91312,1.91312,A,160550.20
0.91673,57.68786008,11.98138619,57.68786300,11.98138250,16:05:50.350213,0.00316,0.00000,-0.04191,0.05612,0.01570,-0.00075,0.00078,-0.01641,-0.03251,1.01242,0.91309,0.00000,1.44244,1.45912,-0.04844,0.06427,0.85642,-0.26747,0.38918,1.91312,1.91312,A,160550.20
0.92807,57.68786008,11.98138619,57.68786300,11.98138250,16:05:50.361539,0.00334,0.00000,-0.04214,0.05607,0.01418,0.00536,-0.00548,-0.03337,-0.04679,1.00095,0.92463,0.00000,1.44244,1.45912,-0.04844,0.06427,0.85642,-0.26747,0.38918,1.91312,1.91312,A,160550.20
0.93829,57.68786008,11.98138619,57.68786300,11.98138250,16:05:50.371748,0.00317,0.00000,-0.04234,0.05593,0.01861,0.00460,-0.00655,-0.04691,-0.04679,0.99204,0.93486,0.00000,1.44244,1.45912,-0.04844,0.06427,0.85642,-0.26747,0.38918,1.91312,1.91312,A,160550.20
0.94834,57.68786008,11.98138619,57.68786300,11.98138250,16:05:50.382014,0.00299,0.00000,-0.04270,0.05573,0.01464,0.01376,-0.00335,-0.02342,-0.05276,0.96795,0.94491,0.00000,1.44244,1.45912,-0.04844,0.06427,0.85642,-0.26747,0.38918,1.91312,1.91312,A,160550.20
0.97468,57.68786008,11.98138619,57.68786367,11.98138167,16:05:50.408598,0.01903,0.00000,-0.04297,0.05539,0.00517,0.00887,-0.00350,0.00275,-0.04160,0.95971,0.95557,0.00000,1.44244,1.45912,-0.04844,0.06427,0.97059,-0.31700,0.46331,2.15984,2.15984,A,160550.30
0.99143,57.68786026,11.98138596,57.68786367,11.98138167,16:05:50.424895,0.00667,0.00000,-0.04310,0.05389,0.01326,0.00383,-0.00258,-0.02214,-0.05746,0.99833,0.98598,0.00000,1.54765,1.56366,-0.06186,0.08422,0.97059,-0.31700,0.46331,2.15984,2.15984,A,160550.30
0.99834,57.68786026,11.98138596,57.68786367,11.98138167,16:05:50.431812,0.00319,0.00000,-0.04350,0.05332,0.00593,0.00628,0.00017,0.00018,-0.05112,0.98314,0.99490,0.00000,1.54765,1.56366,-0.06186,0.08422,0.97059,-0.31700,0.46331,2.15984,2.15984,A,160550.30
1.00869,57.68786026,11.98138596,57.68786367,11.98138167,16:05:50.442173,0.00293,0.00000,-0.04362,0.05264,0.00746,0.00918,-0.00365,-0.00647,-0.03447,0.97496,1.00506,0.00000,1.54765,1.56366,-0.06186,0.08422,0.97059,-0.31700,0.46331,2.15984,2.15984,A,160550.30
1.01911,57.68786026,11.98138596,57.68786367,11.98138167,16:05:50.452574,0.00316,0.00000,-0.04367,0.05196,0.00547,0.00704,-0.00273,-0.00396,-0.02916,0.97887,1.01568,0.00000,1.54765,1.56366,-0.06186,0.08422,0.97059,-0.31700,0.46331,2.15984,2.15984,A,160550.30
1.02954,57.68786026,11.98138596,57.68786367,11.98138167,16:05:50.463010,0.00336,0.00000,-0.04367,0.05134,0.00547,0.00002,-0.00365,0.00964,-0.02605,0.98692,1.02606,0.00000,1.54765,1.56366,-0.06186,0.08422,0.97059,-0.31700,0.46331,2.15984,2.15984,A,160550.30
1.03981,57.68786026,11.98138596,57.68786367,11.98138167,16:05:50.473271,0.00300,0.00000,-0.04393,0.05069,0.00761,-0.00747,-0.00777,-0.02141,-0.04502,0.99381,1.03637,0.00000,1.54765,1.56366,-0.06186,0.08422,0.97059,-0.31700,0.46331,2.15984,2.15984,A,160550.30
1.05035,57.68786026,11.98138596,57.68786367,11.98138167,16:05:50.484643,0.00314,0.00000,-0.04418,0.05010,0.00822,-0.00686,-0.01083,-0.03355,-0.04587,1.00839,1.04692,0.00000,1.54765,1.56366,-0.06186,0.08422,0.97059,-0.31700,0.46331,2.15984,2.15984,A,160550.30
1.06077,57.68786026,11.98138596,57.68786367,11.98138167,16:05:50.494251,0.00317,0.00000,-0.04441,0.04956,0.00563,0.00261,-0.01251,-0.06478,-0.04410,1.05030,1.05712,0.00000,1.54765,1.56366,-0.06186,0.08422,0.97059,-0.31700,0.46331,2.15984,2.15984,A,160550.30
1.08715,57.68786026,11.98138596,57.68786450,11.98138133,16:05:50.520650,0.01915,0.00000,-0.04476,0.04902,0.00104,0.01666,-0.01434,-0.01751,-0.04947,1.03859,1.06774,0.00000,1.54765,1.56366,-0.06186,0.08422,1.08263,-0.33681,0.55597,1.78144,1.78144,A,160550.40
1.10325,57.68786047,11.98138573,57.68786450,11.98138133,16:05:50.536731,0.00700,0.00000,-0.04490,0.04758,0.00517,-0.01419,-0.00945,-0.01348,-0.04093,0.95563,1.09774,0.00000,1.58060,1.59473,-0.07561,0.10781,1.08263,-0.33681,0.55597,1.78144,1.78144,A,160550.40
1.10975,57.68786047,11.98138573,57.68786450,11.98138133,16:05:50.543221,0.00311,0.00000,-0.04489,0.04707,0.00135,-0.01632,-0.00808,-0.02635,-0.02348,0.97142,1.10631,0.00000,1.58060,1.59473,-0.07561,0.10781,1.08263,-0.33681,0.55597,1.78144,1.78144,A,160550.40
1.11992,57.68786047,11.98138573,57.68786450,11.98138133,16:05:50.553387,0.00297,0.00000,-0.04540,0.04642,0.00364,-0.01480,-0.00991,-0.01946,-0.05807,0.96124,1.11648,0.00000,1.58060,1.59473,-0.07561,0.10781,1.08263,-0.33681,0.55597,1.78144,1.78144,A,160550.40
1.13066,57.68786047,11.98138573,57.68786450,11.98138133,16:05:50.564118,0.00331,0.00000,-0.04599,0.04568,0.00181,-0.01602,-0.00518,0.00701,-0.06283,0.96313,1.12722,0.00000,1.58060,1.59473,-0.07561,0.10781,1.08263,-0.33681,0.55597,1.78144,1.78144,A,160550.40
1.14088,57.68786047,11.98138573,57.68786450,11.98138133,16:05:50.574366,0.00314,0.00000,-0.04665,0.04492,0.00135,-0.01724,-0.00777,0.03953,-0.06795,0.97374,1.13723,0.00000,1.58060,1.59473,-0.07561,0.10781,1.08263,-0.33681,0.55597,1.78144,1.78144,A,160550.40
1.15131,57.68786047,11.98138573,57.68786450,11.98138133,16:05:50.584773,0.00318,0.00000,-0.04706,0.04407,-0.00537,-0.02671,-0.00441,-0.01757,-0.04856,0.99076,1.14789,0.00000,1.58060,1.59473,-0.07561,0.10781,1.08263,-0.33681,0.55597,1.78144,1.78144,A,160550.40
1.16168,57.68786047,11.98138573,57.68786450,11.98138133,16:05:50.595151,0.00314,0.00000,-0.04707,0.04327,-0.00247,-0.01846,-0.00518,-0.06600,-0.02586,1.02571,1.15823,0.00000,1.58060,1.59473,-0.07561,0.10781,1.08263,-0.33681,0.55597,1.78144,1.78144,A,160550.40
1.17199,57.68786047,11.98138573,57.68786450,11.98138133,16:05:50.605453,0.00299,0.00000,-0.04689,0.04257,0.00013,-0.00686,-0.00808,-0.06362,-0.01452,1.02700,1.16855,0.00000,1.58060,1.59473,-0.07561,0.10781,1.08263,-0.33681,0.55597,1.78144,1.78144,A,160550.40
1.18252,57.68786047,11.98138573,57.68786450,11.98138133,16:05:50.615982,0.00314,0.00000,-0.04681,0.04200,-0.00155,0.00521,-0.00915,-0.02050,-0.02037,1.04072,1.17908,0.00000,1.58060,1.59473,-0.07561,0.10781,1.08263,-0.33681,0.55597,1.78144,1.78144,A,160550.40
1.20793,57.68786047,11.98138573,57.68786500,11.98138067,16:05:50.641410,0.01815,0.00000,-0.04713,0.04163,0.00639,0.00399,-0.00808,-0.00982,-0.05258,1.02352,1.18930,0.00000,1.58060,1.59473,-0.07561,0.10781,1.20428,-0.37644,0.61157,2.19000,2.19000,A,160550.50
1.21916,57.68786070,11.98138547,57.68786500,11.98138067,16:05:50.652635,0.00602,0.00000,-0.04745,0.04144,-0.00140,0.00444,-0.01113,-0.04752,-0.04502,1.00443,1.21352,0.00000,1.67016,1.68247,-0.09065,0.13300,1.20428,-0.37644,0.61157,2.19000,2.19000,A,160550.50
1.22691,57.68786070,11.98138547,57.68786500,11.98138067,16:05:50.660372,0.00336,0.00000,-0.04749,0.04144,0.00563,0.00582,-0.01251,-0.06350,-0.03379,1.01846,1.22346,0.00000,1.67016,1.68247,-0.09065,0.13300,1.20428,-0.37644,0.61157,2.19000,2.19000,A,160550.50
1.23722,57.68786070,11.98138547,57.68786500,11.98138067,16:05:50.670694,0.00317,0.00000,-0.04784,0.04144,-0.00003,0.01208,-0.00961,-0.02403,-0.05002,1.00894,1.23376,0.00000,1.67016,1.68247,-0.09065,0.13300,1.20428,-0.37644,0.61157,2.19000,2.19000,A,160550.50
1.25038,57.68786070,11.98138547,57.68786500,11.98138067,16:05:50.683863,0.00594,0.00000,-0.04787,0.04144,0.00486,0.00261,-0.00793,0.01934,-0.03306,0.99887,1.24692,0.00000,1.67016,1.68247,-0.09065,0.13300,1.20428,-0.37644,0.61157,2.19000,2.19000,A,160550.50
1.26074,57.68786070,11.98138547,57.68786500,11.98138067,16:05:50.694238,0.00558,0.00000,-0.04832,0.04144,0.00685,-0.00579,-0.00823,0.01854,-0.05948,0.96917,1.25678,0.00000,1.67016,1.68247,-0.09065,0.13300,1.20428,-0.37644,0.61157,2.19000,2.19000,A,160550.50
1.26848,57.68786070,11.98138547,57.68786500,11.98138067,16:05:50.702169,0.00291,0.00000,-0.04851,0.04144,0.00318,-0.00212,-0.00808,-0.00512,-0.04020,0.96423,1.26506,0.00000,1.67016,1.68247,-0.09065,0.13300,1.20428,-0.37644,0.61157,2.19000,2.19000,A,160550.50
1.27920,57.68786070,11.98138547,57.68786500,11.98138067,16:05:50.712663,0.00324,0.00000,-0.04872,0.04144,0.00486,-0.00793,-0.00945,-0.02696,-0.04380,0.96892,1.27577,0.00000,1.67016,1.68247,-0.09065,0.13300,1.20428,-0.37644,0.61157,2.19000,2.19000,A,160550.50
1.28951,57.68786070,11.98138547,57.68786500,11.98138067,16:05:50.722978,0.00316,0.00000,-0.04888,0.04144,0.00028,-0.00548,-0.00839,-0.03501,-0.03745,0.97283,1.28605,0.00000,1.67016,1.68247,-0.09065,0.13300,1.20428,-0.37644,0.61157,2.19000,2.19000,A,160550.50
1.29985,57.68786070,11.98138547,57.68786500,11.98138067,16:05:50.733315,0.00296,0.00000,-0.04890,0.04144,-0.00033,-0.01006,-0.00747,0.00366,-0.02843,0.99088,1.29642,0.00000,1.67016,1.68247,-0.09065,0.13300,1.20428,-0.37644,0.61157,2.19000,2.19000,A,160550.50
1.33888,57.68786070,11.98138547,57.68786633,11.98137900,16:05:50.772360,0.03160,0.00000,-0.04882,0.04144,-0.00109,-0.01495,-0.00579,0.01171,-0.02166,1.00717,1.30700,0.00000,1.67016,1.68247,-0.09065,0.13300,1.33441,-0.47550,0.75983,2.15984,2.15984,A,160550.70
1.35341,57.68786098,11.98138515,57.68786633,11.98137900,16:05:50.786884,0.00713,0.00000,-0.04892,0.04144,0.00929,-0.00258,-0.01495,-0.01592,-0.05941,0.99845,1.34769,0.00000,1.74177,1.75407,-0.10989,0.16434,1.33441,-0.47550,0.75983,2.15984,2.15984,A,160550.70
1.35999,57.68786098,11.98138515,57.68786633,11.98137900,16:05:50.793463,0.00318,0.00000,-0.04914,0.04144,0.00181,-0.00289,-0.00823,0.00171,-0.04215,0.96526,1.35656,0.00000,1.74177,1.75407,-0.10989,0.16434,1.33441,-0.47550,0.75983,2.15984,2.15984,A,160550.70
1.37036,57.68786098,11.98138515,57.68786633,11.98137900,16:05:50.803826,0.00315,0.00000,-0.04948,0.04144,0.00059,-0.00869,-0.00854,0.00512,-0.04892,0.95752,1.36693,0.00000,1.74177,1.75407,-0.10989,0.16434,1.33441,-0.47550,0.75983,2.15984,2.15984,A,160550.70
1.38074,57.68786098,11.98138515,57.68786633,11.98137900,16:05:50.814224,0.00314,0.00000,-0.04945,0.04144,0.00471,-0.01022,-0.00472,-0.00006,-0.02861,0.96130,1.37710,0.00000,1.74177,1.75407,-0.10989,0.16434,1.33441,-0.47550,0.75983,2.15984,2.15984,A,160550.70
1.39117,57.68786098,11.98138515,57.68786633,11.98137900,16:05:50.824628,0.00317,0.00000,-0.04965,0.04144,0.00944,-0.01449,-0.00701,-0.06484,-0.04831,0.99668,1.38774,0.00000,1.74177,1.75407,-0.10989,0.16434,1.33441,-0.47550,0.75983,2.15984,2.15984,A,160550.70
1.40156,57.68786098,11.98138515,57.68786633,11.98137900,16:05:50.835027,0.00317,0.00000,-0.05006,0.04144,0.00196,-0.00518,-0.00518,-0.03995,-0.05734,1.00089,1.39811,0.00000,1.74177,1.75407,-0.10989,0.16434,1.33441,-0.47550,0.75983,2.15984,2.15984,A,160550.70
1.41191,57.68786098,11.98138515,57.68786633,11.98137900,16:05:50.845374,0.00298,0.00000,-0.05021,0.04144,-0.00033,-0.00121,-0.00732,-0.02550,-0.03953,1.01748,1.40846,0.00000,1.74177,1.75407,-0.10989,0.16434,1.33441,-0.47550,0.75983,2.15984,2.15984,A,160550.70
1.42247,57.68786098,11.98138515,57.68786633,11.98137900,16:05:50.855949,0.00314,0.00000,-0.05045,0.04144,-0.00369,0.00108,-0.00564,0.00281,-0.04264,1.00449,1.41903,0.00000,1.74177,1.75407,-0.10989,0.16434,1.33441,-0.47550,0.75983,2.15984,2.15984,A,160550.70
1.43287,57.68786098,11.98138515,57.68786633,11.98137900,16:05:50.866350,0.00315,0.00000,-0.05027,0.04144,-0.00033,-0.00166,-0.00701,0.00976,-0.01739,1.00516,1.42923,0.00000,1.74177,1.75407,-0.10989,0.16434,1.33441,-0.47550,0.75983,2.15984,2.15984,A,160550.70
1.45987,57.68786098,11.98138515,57.68786717,11.98137833,16:05:50.894135,0.01975,0.00000,-0.05022,0.04144,0.00227,-0.00121,-0.00487,-0.00762,-0.02800,1.00809,1.43987,0.00000,1.74177,1.75407,-0.10989,0.16434,1.45477,-0.51512,0.85249,1.97489,1.97489,A,160550.80
1.47817,57.68786129,11.98138481,57.68786717,11.98137833,16:05:50.911647,0.00759,0.90725,-0.05033,0.04144,0.01021,-0.00961,-0.00548,0.01006,-0.05466,0.99570,1.47243,0.18145,1.77489,1.78719,-0.13016,0.19875,1.45477,-0.51512,0.85249,1.97489,1.97489,A,160550.80
1.48392,57.68786129,11.98138481,57.68786717,11.98137833,16:05:50.917383,0.00298,0.90725,-0.05073,0.04144,0.00639,-0.00625,-0.00548,0.01238,-0.05594,0.99058,1.48048,0.18145,1.77489,1.78719,-0.13016,0.19875,1.45477,-0.51512,0.85249,1.97489,1.97489,A,160550.80
1.49450,57.68786129,11.98138481,57.68786717,11.98137833,16:05:50.927966,0.00317,0.90725,-0.05093,0.04144,0.00960,-0.00808,-0.00136,-0.00976,-0.04666,0.99223,1.49107,0.18145,1.77489,1.78719,-0.13016,0.19875,1.45477,-0.51512,0.85249,1.97489,1.97489,A,160550.80
1.50489,57.68786129,11.98138481,57.68786717,11.98137833,16:05:50.938366,0.00316,0.90725,-0.05112,0.04144,0.01525,-0.00869,0.00108,-0.01690,-0.04898,0.99308,1.50125,0.18145,1.77489,1.78719,-0.13016,0.19875,1.45477,-0.51512,0.85249,1.97489,1.97489,A,160550.80
1.51529,57.68786129,11.98138481,57.68786717,11.98137833,16:05:50.948759,0.00317,0.90725,-0.05118,0.04144,0.01616,0.00047,0.00093,-0.05087,-0.04252,0.99454,1.51186,0.18145,1.77489,1.78719,-0.13016,0.19875,1.45477,-0.51512,0.85249,1.97489,1.97489,A,160550.80
1.52563,57.68786129,11.98138481,57.68786717,11.98137833,16:05:50.959094,0.00317,0.90725,-0.05142,0.04144,0.02044,0.00903,-0.00014,-0.01543,-0.05459,0.96069,1.52218,0.18145,1.77489,1.78719,-0.13016,0.19875,1.45477,-0.51512,0.85249,1.97489,1.97489,A,160550.80
1.53592,57.68786129,11.98138481,57.68786717,11.98137833,16:05:50.969383,0.00298,0.90725,-0.05158,0.04144,0.02258,0.01178,0.00231,0.00171,-0.05100,0.95587,1.53249,0.18145,1.77489,1.78719,-0.13016,0.19875,1.45477,-0.51512,0.85249,1.97489,1.97489,A,160550.80
1.54650,57.68786129,11.98138481,57.68786717,11.98137833,16:05:50.979961,0.00316,0.90725,-0.05166,0.04144,0.02181,0.00215,0.00307,0.05850,-0.04532,0.94818,1.54306,0.18145,1.77489,1.78719,-0.13016,0.19875,1.45477,-0.51512,0.85249,1.97489,1.97489,A,160550.80
1.57212,57.68786129,11.98138481,57.68786800,11.98137733,16:05:51.005597,0.01839,0.90725,-0.05143,0.04144,0.02746,-0.01022,0.00276,0.01006,-0.03148,1.02321,1.55323,0.18145,1.77489,1.78719,-0.13016,0.19875,1.56844,-0.57456,0.94516,2.14113,2.14113,A,160550.90
1.58646,57.68786178,11.98138437,57.68786800,11.98137733,16:05:51.019945,0.00659,0.90725,-0.05100,0.04158,0.03632,-0.00731,0.00566,-0.00677,-0.06564,1.03578,1.58016,0.32661,1.82859,1.84094,-0.15629,0.25385,1.56844,-0.57456,0.94516,2.14113,2.14113,A,160550.90
1.59345,57.68786178,11.98138437,57.68786800,11.98137733,16:05:51.026915,0.00318,0.90725,-0.05109,0.04197,0.03709,-0.00625,0.00796,0.02275,-0.05703,1.00693,1.59000,0.32661,1.82859,1.84094,-0.15629,0.25385,1.56844,-0.57456,0.94516,2.14113,2.14113,A,160550.90
1.60379,57.68786178,11.98138437,57.68786800,11.98137733,16:05:51.037248,0.00298,0.90725,-0.05094,0.04268,0.03541,-0.00609,0.01101,-0.04978,-0.04178,1.01876,1.60035,0.32661,1.82859,1.84094,-0.15629,0.25385,1.56844,-0.57456,0.94516,2.14113,2.14113,A,160550.90
1.61437,57.68786178,11.98138437,57.68786800,11.98137733,16:05:51.047840,0.00316,0.90725,-0.05081,0.04359,0.03938,-0.00029,0.01574,-0.05996,-0.04526,0.99192,1.61094,0.32661,1.82859,1.84094,-0.15629,0.25385,1.56844,-0.57456,0.94516,2.14113,2.14113,A,160550.90
1.62478,57.68786178,11.98138437,57.68786800,11.98137733,16:05:51.058259,0.00317,0.90725,-0.05023,0.04455,0.03938,0.01315,0.01605,-0.04776,-0.01391,0.97594,1.62113,0.32661,1.82859,1.84094,-0.15629,0.25385,1.56844,-0.57456,0.94516,2.14113,2.14113,A,160550.90
1.63520,57.68786178,11.98138437,57.68786800,11.98137733,16:05:51.068664,0.00319,0.90725,-0.04991,0.04551,0.04442,0.01819,0.01162,0.01574,-0.03355,0.94312,1.63176,0.32661,1.82859,1.84094,-0.15629,0.25385,1.56844,-0.57456,0.94516,2.14113,2.14113,A,160550.90
1.64556,57.68786178,11.98138437,57.68786800,11.98137733,16:05:51.079030,0.00315,0.90725,-0.04950,0.04633,0.04243,0.00948,0.00826,0.02397,-0.02562,0.95697,1.64211,0.32661,1.82859,1.84094,-0.15629,0.25385,1.56844,-0.57456,0.94516,2.14113,2.14113,A,160550.90
1.65602,57.68786178,11.98138437,57.68786800,11.98137733,16:05:51.089489,0.00299,0.90725,-0.04897,0.04695,0.04151,0.00154,0.00521,-0.01299,-0.01830,0.99704,1.65259,0.32661,1.82859,1.84094,-0.15629,0.25385,1.56844,-0.57456,0.94516,2.14113,2.14113,A,160550.90
1.66659,57.68786178,11.98138437,57.68786800,11.98137733,16:05:51.100051,0.00316,0.90725,-0.04837,0.04738,0.04151,0.00506,0.00643,-0.00268,-0.01348,1.02901,1.66316,0.32661,1.82859,1.84094,-0.15629,0.25385,1.56844,-0.57456,0.94516,2.14113,2.14113,A,160550.90
1.69361,57.68786178,11.98138437,57.68786883,11.98137667,16:05:51.127874,0.01979,0.90725,-0.04815,0.04769,0.03724,-0.00029,0.00750,-0.00311,-0.03934,1.03261,1.67497,0.32661,1.82859,1.84094,-0.15629,0.25385,1.69022,-0.61418,1.03782,1.97489,1.97489,A,160551.00
1.70766,57.68786246,11.98138382,57.68786883,11.98137667,16:05:51.141132,0.00736,0.90725,-0.04742,0.04840,0.04930,-0.01495,0.01483,-0.01311,-0.06326,1.00168,1.70214,0.44274,1.84964,1.86401,-0.18906,0.32873,1.69022,-0.61418,1.03782,1.97489,1.97489,A,160551.00
1.71375,57.68786246,11.98138382,57.68786883,11.98137667,16:05:51.147220,0.00306,0.90725,-0.04687,0.04879,0.05159,-0.01495,0.01406,-0.04026,-0.01354,0.99887,1.71031,0.44274,1.84964,1.86401,-0.18906,0.32873,1.69022,-0.61418,1.03782,1.97489,1.97489,A,160551.00
1.72392,57.68786246,11.98138382,57.68786883,11.98137667,16:05:51.157388,0.00297,0.90725,-0.04661,0.04930,0.05602,-0.00915,0.01376,-0.04959,-0.04246,0.99082,1.72049,0.44274,1.84964,1.86401,-0.18906,0.32873,1.69022,-0.61418,1.03782,1.97489,1.97489,A,160551.00
1.73449,57.68786246,11.98138382,57.68786883,11.98137667,16:05:51.167955,0.00315,0.90725,-0.04654,0.04998,0.05327,-0.00380,0.01880,-0.03501,-0.05252,0.97368,1.73106,0.44274,1.84964,1.86401,-0.18906,0.32873,1.69022,-0.61418,1.03782,1.97489,1.97489,A,160551.00
1.74490,57.68786246,11.98138382,57.68786883,11.98137667,16:05:51.178387,0.00316,0.90725,-0.04572,0.05066,0.04442,-0.00151,0.01269,-0.04746,0.00305,0.98716,1.74126,0.44274,1.84964,1.86401,-0.18906,0.32873,1.69022,-0.61418,1.03782,1.97489,1.97489,A,160551.00
1.75531,57.68786246,11.98138382,57.68786883,11.98137667,16:05:51.188772,0.00317,0.90725,-0.04520,0.05134,0.04762,0.01055,0.01330,-0.00573,-0.01879,0.96490,1.75187,0.44274,1.84964,1.86401,-0.18906,0.32873,1.69022,-0.61418,1.03782,1.97489,1.97489,A,160551.00
1.76570,57.68786246,11.98138382,57.68786883,11.98137667,16:05:51.199170,0.00316,0.90725,-0.04466,0.05188,0.05404,0.00948,0.00918,-0.00128,-0.02019,0.97094,1.76225,0.44274,1.84964,1.86401,-0.18906,0.32873,1.69022,-0.61418,1.03782,1.97489,1.97489,A,160551.00
1.77591,57.68786246,11.98138382,57.68786883,11.98137667,16:05:51.209377,0.00297,0.90725,-0.04449,0.05222,0.05159,0.00948,0.00887,0.01000,-0.04331,0.99448,1.77247,0.44274,1.84964,1.86401,-0.18906,0.32873,1.69022,-0.61418,1.03782,1.97489,1.97489,A,160551.00
1.78649,57.68786246,11.98138382,57.68786883,11.98137667,16:05:51.219951,0.00316,0.90725,-0.04398,0.05233,0.04487,0.00215,0.00902,-0.01647,-0.01677,0.98985,1.78306,0.44274,1.84964,1.86401,-0.18906,0.32873,1.69022,-0.61418,1.03782,1.97489,1.97489,A,160551.00
1.81293,57.68786246,11.98138382,57.68786950,11.98137600,16:05:51.247029,0.01920,0.90725,-0.04352,0.05233,0.04564,-0.00166,0.00841,0.02684,-0.01848,0.99528,1.79324,0.44274,1.84964,1.86401,-0.18906,0.32873,1.80816,-0.65381,1.11195,2.06169,2.06169,A,160551.10
1.83245,57.68786325,11.98138318,57.68786950,11.98137600,16:05:51.266172,0.00687,0.90725,-0.04246,0.05233,0.04640,-0.00059,0.00902,0.00451,-0.05155,1.01175,1.82703,0.53564,1.88116,1.89671,-0.22725,0.41742,1.80816,-0.65381,1.11195,2.06169,2.06169,A,160551.10
1.83929,57.68786325,11.98138318,57.68786950,11.98137600,16:05:51.272752,0.00330,0.90725,-0.04266,0.05233,0.04610,-0.00487,0.01086,-0.00323,-0.05801,1.00217,1.83586,0.53564,1.88116,1.89671,-0.22725,0.41742,1.80816,-0.65381,1.11195,2.06169,2.06169,A,160551.10
1.84954,57.68786325,11.98138318,57.68786950,11.98137600,16:05:51.283008,0.00316,0.90725,-0.04274,0.05233,0.04258,-0.00502,0.00780,0.02641,-0.05142,0.99168,1.84608,0.53564,1.88116,1.89671,-0.22725,0.41742,1.80816,-0.65381,1.11195,2.06169,2.06169,A,160551.10
1.86014,57.68786325,11.98138318,57.68786950,11.98137600,16:05:51.293610,0.00322,0.90725,-0.04215,0.05233,0.04044,-0.00991,0.01101,0.00256,-0.00683,0.97447,1.85670,0.53564,1.88116,1.89671,-0.22725,0.41742,1.80816,-0.65381,1.11195,2.06169,2.06169,A,160551.10
1.87047,57.68786325,11.98138318,57.68786950,11.98137600,16:05:51.303932,0.00315,0.90725,-0.04182,0.05233,0.04365,-0.01373,0.01070,0.01458,-0.02324,0.95892,1.86703,0.53564,1.88116,1.89671,-0.22725,0.41742,1.80816,-0.65381,1.11195,2.06169,2.06169,A,160551.10
1.88088,57.68786325,11.98138318,57.68786950,11.98137600,16:05:51.314367,0.00317,0.90725,-0.04142,0.05233,0.04533,-0.01953,0.00765,-0.03209,-0.02037,0.99210,1.87722,0.53564,1.88116,1.89671,-0.22725,0.41742,1.80816,-0.65381,1.11195,2.06169,2.06169,A,160551.10
1.89129,57.68786325,11.98138318,57.68786950,11.98137600,16:05:51.324754,0.00318,0.90725,-0.04112,0.05233,0.04106,-0.02396,0.01040,-0.05478,-0.02684,1.03352,1.88785,0.53564,1.88116,1.89671,-0.22725,0.41742,1.80816,-0.65381,1.11195,2.06169,2.06169,A,160551.10
1.90164,57.68786325,11.98138318,57.68786950,11.98137600,16:05:51.335114,0.00314,0.90725,-0.04051,0.05233,0.04106,-0.00930,0.00887,-0.02306,-0.00366,1.07207,1.89820,0.53564,1.88116,1.89671,-0.22725,0.41742,1.80816,-0.65381,1.11195,2.06169,2.06169,A,160551.10
1.92910,57.68786325,11.98138318,57.68787067,11.98137517,16:05:51.362634,0.02004,0.90725,-0.04060,0.05233,0.04274,-0.00059,0.00628,-0.00494,-0.05313,1.03499,1.90863,0.53564,1.88116,1.89671,-0.22725,0.41742,1.92353,-0.70334,1.24168,1.93552,1.93552,A,160551.20
1.94283,57.68786409,11.98138248,57.68787067,11.98137517,16:05:51.376302,0.00707,0.90725,-0.03953,0.05233,0.03418,0.01376,0.00566,0.00012,-0.00756,0.96356,1.93713,0.60996,1.88934,1.90489,-0.26870,0.51083,1.92353,-0.70334,1.24168,1.93552,1.93552,A,160551.20
1.94933,57.68786409,11.98138248,57.68787067,11.98137517,16:05:51.382798,0.00318,0.90725,-0.03888,0.05233,0.03296,0.00704,0.00353,0.02733,0.00915,0.92293,1.94587,0.60996,1.88934,1.90489,-0.26870,0.51083,1.92353,-0.70334,1.24168,1.93552,1.93552,A,160551.20
1.95992,57.68786409,11.98138248,57.68787067,11.98137517,16:05:51.393390,0.00319,0.90725,-0.03840,0.05233,0.03479,-0.00899,0.00353,0.02001,-0.00598,0.95935,1.95647,0.60996,1.88934,1.90489,-0.26870,0.51083,1.92353,-0.70334,1.24168,1.93552,1.93552,A,160551.20
1.97228,57.68786409,11.98138248,57.68787067,11.98137517,16:05:51.405969,0.00516,0.90725,-0.03822,0.05233,0.03464,-0.01617,0.00566,0.00476,-0.02898,0.98314,1.96882,0.60996,1.88934,1.90489,-0.26870,0.51083,1.92353,-0.70334,1.24168,1.93552,1.93552,A,160551.20
1.98036,57.68786409,11.98138248,57.68787067,11.98137517,16:05:51.414021,0.00301,0.90725,-0.03833,0.05233,0.02853,-0.01403,0.00276,0.00116,-0.03678,1.01040,1.97693,0.60996,1.88934,1.90489,-0.26870,0.51083,1.92353,-0.70334,1.24168,1.93552,1.93552,A,160551.20
1.99092,57.68786409,11.98138248,57.68787067,11.98137517,16:05:51.424385,0.00318,0.90725,-0.03826,0.05233,0.02930,-0.00823,0.00475,-0.04014,-0.03074,1.04743,1.98749,0.60996,1.88934,1.90489,-0.26870,0.51083,1.92353,-0.70334,1.24168,1.93552,1.93552,A,160551.20
2.00132,57.68786409,11.98138248,57.68787067,11.98137517,16:05:51.434781,0.00318,0.90725,-0.03812,0.05233,0.02471,0.00444,0.00582,-0.02849,-0.02202,1.04688,1.99786,0.60996,1.88934,1.90489,-0.26870,0.51083,1.92353,-0.70334,1.24168,1.93552,1.93552,A,160551.20
2.01795,57.68786409,11.98138248,57.68787067,11.98137517,16:05:51.451506,0.00924,0.90725,-0.03787,0.05233,0.02212,0.01223,0.00780,-0.01562,-0.01238,1.03865,2.00825,0.90725,2.07063,2.08618,-0.70334,1.24168,1.92353,-0.70334,1.24168,1.93552,1.93552,A,160551.20
2.02368,57.68786409,11.98138248,57.68787067,11.98137517,16:05:51.457148,0.00400,0.90725,-0.03739,0.00006,0.01815,0.00536,0.00780,0.01196,0.00122,1.01522,2.02021,0.90725,2.07063,2.08618,-0.70334,1.24168,1.92353,-0.70334,1.24168,1.93552,1.93552,A,160551.20
2.06107,57.68786409,11.98138248,57.68787233,11.98137333,16:05:51.494554,0.03099,0.90725,-0.03685,0.00006,0.02090,-0.00044,0.00673,0.03410,0.00604,0.98320,2.02999,0.90725,2.07063,2.08618,-0.70334,1.24168,2.05626,-0.81231,1.42700,2.10233,2.10233,A,160551.40
2.07776,57.68787165,11.98137413,57.68787233,11.98137333,16:05:51.511230,0.00764,1.27117,-0.03671,0.00006,0.00028,-0.01098,-0.00044,-0.01543,-0.00647,0.93251,2.07207,0.98003,2.08028,2.08030,-0.76522,1.35057,2.05626,-0.81231,1.42700,2.10233,2.10233,A,160551.40
2.08367,57.68787165,11.98137413,57.68787233,11.98137333,16:05:51.517134,0.00299,1.27117,-0.03694,0.00006,0.00104,-0.00319,-0.00503,-0.06594,-0.03471,1.09355,2.08024,0.98003,2.08028,2.08030,-0.76522,1.35057,2.05626,-0.81231,1.42700,2.10233,2.10233,A,160551.40
2.09440,57.68787165,11.98137413,57.68787233,11.98137333,16:05:51.527868,0.00332,1.27117,-0.03702,0.00006,-0.00216,0.01178,-0.00564,0.02159,-0.01970,1.00845,2.09096,0.98003,2.08028,2.08030,-0.76522,1.35057,2.05626,-0.81231,1.42700,2.10233,2.10233,A,160551.40
2.10436,57.68787165,11.98137413,57.68787233,11.98137333,16:05:51.538033,0.00306,1.27117,-0.03688,0.00006,-0.00568,0.01529,-0.00548,0.01818,-0.00366,1.04054,2.10092,0.98003,2.08028,2.08030,-0.76522,1.35057,2.05626,-0.81231,1.42700,2.10233,2.10233,A,160551.40
2.11836,57.68787165,11.98137413,57.68787233,11.98137333,16:05:51.551825,0.00666,11.43283,-0.03698,-0.00025,-0.01423,0.00979,-0.01297,0.06033,-0.01269,1.00668,2.11491,0.98003,2.08028,2.08030,-0.76522,1.35057,2.05626,-0.81231,1.42700,2.10233,2.10233,A,160551.40
2.12918,57.68787165,11.98137413,57.68787233,11.98137333,16:05:51.562658,0.00640,11.43283,-0.03683,-0.00087,-0.01453,-0.01083,-0.00991,0.00183,-0.00598,0.99631,2.12542,0.98003,2.08028,2.08030,-0.76522,1.35057,2.05626,-0.81231,1.42700,2.10233,2.10233,A,160551.40
2.13924,57.68787165,11.98137413,57.68787233,11.98137333,16:05:51.572727,0.00624,11.43283,-0.03663,-0.00169,-0.01667,-0.01923,-0.01159,0.02403,-0.01086,1.00296,2.13543,0.98003,2.08028,2.08030,-0.76522,1.35057,2.05626,-0.81231,1.42700,2.10233,2.10233,A,160551.40
2.15049,57.68787165,11.98137413,57.68787233,11.98137333,16:05:51.583977,0.00708,11.43283,-0.03618,-0.00291,-0.01469,-0.02457,-0.01144,0.00152,-0.00854,0.97771,2.14699,0.98003,2.08028,2.08030,-0.76522,1.35057,2.05626,-0.81231,1.42700,2.10233,2.10233,A,160551.40
2.17860,57.68787165,11.98137413,57.68787333,11.98137233,16:05:51.612112,0.02480,11.43283,-0.03616,-0.00399,-0.01621,-0.01953,-0.00884,0.01318,-0.04886,0.97368,2.15630,0.98003,2.08028,2.08030,-0.76522,1.35057,2.17290,-0.87175,1.53820,2.06169,2.06169,A,160551.50
2.19888,57.68787260,11.98137313,57.68787333,11.98137233,16:05:51.632351,0.00918,11.43283,-0.03595,-0.00628,-0.02477,0.00276,0.00612,-0.00988,-0.01318,0.99448,2.19321,3.07059,2.07778,2.07592,-0.82461,1.45672,2.17290,-0.87175,1.53820,2.06169,2.06169,A,160551.50
2.20686,57.68787260,11.98137313,57.68787333,11.98137233,16:05:51.640325,0.00701,11.43283,-0.03476,-0.00656,-0.02538,0.00444,0.00124,0.08278,0.00689,1.00613,2.20340,3.07059,2.07778,2.07592,-0.82461,1.45672,2.17290,-0.87175,1.53820,2.06169,2.06169,A,160551.50
2.21707,57.68787260,11.98137313,57.68787333,11.98137233,16:05:51.650545,0.00682,11.43283,-0.03361,-0.00673,-0.02095,-0.01602,-0.00961,0.06582,0.00256,1.03127,2.21338,3.07059,2.07778,2.07592,-0.82461,1.45672,2.17290,-0.87175,1.53820,2.06169,2.06169,A,160551.50
2.22760,57.68787260,11.98137313,57.68787333,11.98137233,16:05:51.661067,0.00681,11.43283,-0.03300,-0.00679,-0.02202,-0.02808,-0.01648,0.00445,-0.03172,1.04688,2.22415,3.07059,2.07778,2.07592,-0.82461,1.45672,2.17290,-0.87175,1.53820,2.06169,2.06169,A,160551.50
2.23803,57.68787260,11.98137313,57.68787333,11.98137233,16:05:51.671516,0.00684,11.43283,-0.03242,-0.00679,-0.02324,-0.02304,-0.01999,0.03739,-0.03245,1.06189,2.23453,3.07059,2.07778,2.07592,-0.82461,1.45672,2.17290,-0.87175,1.53820,2.06169,2.06169,A,160551.50
2.24823,57.68787260,11.98137313,57.68787333,11.98137233,16:05:51.681938,0.00665,11.43283,-0.03228,-0.00679,-0.02370,-0.01755,-0.01663,-0.03867,-0.06283,1.05939,2.24477,3.07059,2.07778,2.07592,-0.82461,1.45672,2.17290,-0.87175,1.53820,2.06169,2.06169,A,160551.50
2.26141,57.68787260,11.98137313,57.68787333,11.98137233,16:05:51.694889,0.00942,11.43283,-0.03163,-0.00679,-0.01407,-0.00014,-0.01190,-0.00250,-0.03385,0.98387,2.25788,3.07059,2.07778,2.07592,-0.82461,1.45672,2.17290,-0.87175,1.53820,2.06169,2.06169,A,160551.50
2.26939,57.68787260,11.98137313,57.68787333,11.98137233,16:05:51.702884,0.00697,11.43283,-0.03088,-0.00679,-0.01346,-0.00121,-0.00686,-0.03587,-0.03154,0.99113,2.26583,3.07059,2.07778,2.07592,-0.82461,1.45672,2.17290,-0.87175,1.53820,2.06169,2.06169,A,160551.50
2.29679,57.68787260,11.98137313,57.68787433,11.98137167,16:05:51.730276,0.02384,11.43283,-0.02992,-0.00679,-0.00812,0.01697,-0.00121,0.00994,-0.02281,0.91433,2.27608,3.07059,2.07778,2.07592,-0.82461,1.45672,2.29102,-0.91137,1.64939,1.91312,1.91312,A,160551.60
2.31792,57.68787537,11.98137028,57.68787433,11.98137167,16:05:51.751390,0.00819,11.43283,-0.02933,-0.00679,-0.00583,-0.00350,0.00292,0.01976,-0.03343,0.98619,2.31213,4.74304,2.05163,2.04962,-0.99392,1.76468,2.29102,-0.91137,1.64939,1.91312,1.91312,A,160551.60
2.32712,57.68787537,11.98137028,57.68787433,11.98137167,16:05:51.760594,0.00700,11.43283,-0.02840,-0.00679,-0.00430,-0.00166,-0.00625,0.02556,-0.01775,1.05768,2.32366,4.74304,2.05163,2.04962,-0.99392,1.76468,2.29102,-0.91137,1.64939,1.91312,1.91312,A,160551.60
2.33707,57.68787537,11.98137028,57.68787433,11.98137167,16:05:51.770542,0.00655,11.43283,-0.02780,-0.00679,-0.01423,-0.00594,-0.01785,-0.00476,-0.03227,1.07061,2.33339,4.74304,2.05163,2.04962,-0.99392,1.76468,2.29102,-0.91137,1.64939,1.91312,1.91312,A,160551.60
2.34756,57.68787537,11.98137028,57.68787433,11.98137167,16:05:51.781036,0.00663,11.43283,-0.02673,-0.00679,-0.01270,0.01055,-0.02305,-0.01531,-0.00018,1.05713,2.34411,4.74304,2.05163,2.04962,-0.99392,1.76468,2.29102,-0.91137,1.64939,1.91312,1.91312,A,160551.60
2.35876,57.68787537,11.98137028,57.68787433,11.98137167,16:05:51.792236,0.00742,11.43283,-0.02590,-0.00679,-0.01545,0.00597,-0.02534,0.05929,-0.01714,0.97978,2.35528,4.74304,2.05163,2.04962,-0.99392,1.76468,2.29102,-0.91137,1.64939,1.91312,1.91312,A,160551.60
2.36809,57.68787537,11.98137028,57.68787433,11.98137167,16:05:51.802147,0.00636,11.43283,-0.02504,-0.00679,-0.01301,-0.00899,-0.01801,0.03288,-0.02043,0.94873,2.36465,4.74304,2.05163,2.04962,-0.99392,1.76468,2.29102,-0.91137,1.64939,1.91312,1.91312,A,160551.60
2.37895,57.68787537,11.98137028,57.68787433,11.98137167,16:05:51.812422,0.00682,11.43283,-0.02430,-0.00679,-0.00506,-0.01663,-0.01113,0.03916,-0.03148,0.94385,2.37550,4.74304,2.05163,2.04962,-0.99392,1.76468,2.29102,-0.91137,1.64939,1.91312,1.91312,A,160551.60
2.38925,57.68787537,11.98137028,57.68787433,11.98137167,16:05:51.822725,0.00673,11.43283,-0.02431,-0.00679,0.00181,-0.02564,-0.00487,-0.03294,-0.08211,0.95563,2.38577,4.74304,2.05163,2.04962,-0.99392,1.76468,2.29102,-0.91137,1.64939,1.91312,1.91312,A,160551.60
2.41689,57.68787537,11.98137028,57.68787517,11.98137033,16:05:51.850383,0.02396,11.43283,-0.02387,-0.00679,0.00150,-0.02610,0.00231,-0.02043,-0.05319,0.99351,2.39603,4.74304,2.05163,2.04962,-0.99392,1.76468,2.41104,-0.99062,1.74205,2.27833,2.27833,A,160551.70
2.43327,57.68787942,11.98136633,57.68787517,11.98137033,16:05:51.866747,0.00992,11.43283,-0.02328,-0.00679,-0.00461,-0.00304,0.00337,0.04124,-0.03068,1.01785,2.42728,6.08100,2.08312,2.08110,-1.22830,2.21536,2.41104,-0.99062,1.74205,2.27833,2.27833,A,160551.70
2.44126,57.68787942,11.98136633,57.68787517,11.98137033,16:05:51.874730,0.00700,11.43283,-0.02281,-0.00679,-0.00797,-0.01388,0.00429,0.02385,-0.04343,0.97094,2.43779,6.08100,2.08312,2.08110,-1.22830,2.21536,2.41104,-0.99062,1.74205,2.27833,2.27833,A,160551.70
2.45159,57.68787942,11.98136633,57.68787517,11.98137033,16:05:51.885067,0.00679,11.43283,-0.02182,-0.00679,-0.00262,-0.01907,-0.00212,0.02043,-0.01702,0.91561,2.44810,6.08100,2.08312,2.08110,-1.22830,2.21536,2.41104,-0.99062,1.74205,2.27833,2.27833,A,160551.70
2.46249,57.68787942,11.98136633,57.68787517,11.98137033,16:05:51.895983,0.00729,11.43283,-0.02117,-0.00679,-0.00445,-0.01862,-0.00854,-0.04703,-0.03593,0.92171,2.45820,6.08100,2.08312,2.08110,-1.22830,2.21536,2.41104,-0.99062,1.74205,2.27833,2.27833,A,160551.70
2.47140,57.68787942,11.98136633,57.68787517,11.98137033,16:05:51.904915,0.00580,11.43283,-0.02078,-0.00679,-0.00277,-0.00991,-0.01449,-0.03508,-0.05136,0.94727,2.46720,6.08100,2.08312,2.08110,-1.22830,2.21536,2.41104,-0.99062,1.74205,2.27833,2.27833,A,160551.70
2.48275,57.68787942,11.98136633,57.68787517,11.98137033,16:05:51.916220,0.00676,11.43283,-0.02064,-0.00679,-0.00461,0.00017,-0.01251,-0.01269,-0.06496,0.97100,2.47931,6.08100,2.08312,2.08110,-1.22830,2.21536,2.41104,-0.99062,1.74205,2.27833,2.27833,A,160551.70
2.49319,57.68787942,11.98136633,57.68787517,11.98137033,16:05:51.926668,0.00680,11.43283,-0.02028,-0.00679,-0.00720,0.00964,-0.01129,0.04056,-0.04843,0.99265,2.48951,6.08100,2.08312,2.08110,-1.22830,2.21536,2.41104,-0.99062,1.74205,2.27833,2.27833,A,160551.70
2.50336,57.68787942,11.98136633,57.68787517,11.98137033,16:05:51.936832,0.00644,11.43283,-0.02039,-0.00679,-0.01270,-0.00197,-0.00808,0.01891,-0.07515,1.06189,2.49990,6.08100,2.08312,2.08110,-1.22830,2.21536,2.41104,-0.99062,1.74205,2.27833,2.27833,A,160551.70
2.54439,57.68787942,11.98136633,57.68787750,11.98136817,16:05:51.978201,0.03707,11.43283,-0.01992,-0.00679,-0.00568,0.00368,-0.00319,-0.00982,-0.03934,1.06646,2.51078,6.08100,2.08312,2.08110,-1.22830,2.21536,2.53881,-1.11940,2.00151,2.03152,2.03152,A,160551.90
2.56170,57.68788504,11.98136044,57.68787750,11.98136817,16:05:51.995173,0.01055,11.43283,-0.01900,-0.00679,-0.00308,0.00063,-0.01480,0.02708,-0.00817,0.96886,2.55574,7.15136,2.07164,2.06962,-1.57865,2.84029,2.53881,-1.11940,2.00151,2.03152,2.03152,A,160551.90
2.57425,57.68788504,11.98136044,57.68787750,11.98136817,16:05:52.007722,0.00683,11.43283,-0.01834,-0.00679,-0.00537,0.01147,-0.01098,-0.03392,-0.02983,0.92293,2.57079,7.15136,2.07164,2.06962,-1.57865,2.84029,2.53881,-1.11940,2.00151,2.03152,2.03152,A,160551.90
2.58444,57.68788504,11.98136044,57.68787750,11.98136817,16:05:52.018153,0.00662,11.43283,-0.01793,-0.00679,0.00578,0.02537,-0.00869,-0.03581,-0.05466,0.89633,2.58098,7.15136,2.07164,2.06962,-1.57865,2.84029,2.53881,-1.11940,2.00151,2.03152,2.03152,A,160551.90
2.59145,57.68788504,11.98136044,57.68787750,11.98136817,16:05:52.024911,0.00323,1.52688,-0.01797,-0.00679,0.00135,0.01941,-0.00518,0.03995,-0.00146,0.91018,2.58801,7.15136,2.07164,2.06962,-1.57865,2.84029,2.53881,-1.11940,2.00151,2.03152,2.03152,A,160551.90
2.60176,57.68788504,11.98136044,57.68787750,11.98136817,16:05:52.035228,0.00314,1.52688,-0.01759,-0.00679,-0.00415,0.00948,0.00231,0.07308,0.02934,0.97307,2.59831,7.15136,2.07164,2.06962,-1.57865,2.84029,2.53881,-1.11940,2.00151,2.03152,2.03152,A,160551.90
2.61194,57.68788504,11.98136044,57.68787750,11.98136817,16:05:52.045407,0.00299,1.52688,-0.01714,-0.00679,0.00303,-0.01892,0.00292,0.00183,0.03160,1.04365,2.60851,7.15136,2.07164,2.06962,-1.57865,2.84029,2.53881,-1.11940,2.00151,2.03152,2.03152,A,160551.90
2.62250,57.68788504,11.98136044,57.68787750,11.98136817,16:05:52.055961,0.00315,1.52688,-0.01681,-0.00679,0.00700,-0.01388,0.00658,-0.01623,0.02202,1.11264,2.61906,7.15136,2.07164,2.06962,-1.57865,2.84029,2.53881,-1.11940,2.00151,2.03152,2.03152,A,160551.90
2.63310,57.68788504,11.98136044,57.68787750,11.98136817,16:05:52.066573,0.00336,1.52688,-0.01719,-0.00679,0.01143,-0.01006,0.00231,0.00079,-0.03379,1.10288,2.62942,7.15136,2.07164,2.06962,-1.57865,2.84029,2.53881,-1.11940,2.00151,2.03152,2.03152,A,160551.90
2.66105,57.68788504,11.98136044,57.68787850,11.98136683,16:05:52.094557,0.02108,1.52688,-0.01748,-0.00679,0.01708,0.00506,0.00032,0.02275,-0.02995,1.05255,2.63976,7.15136,2.07164,2.06962,-1.57865,2.84029,2.65478,-1.19865,2.11270,2.19000,2.19000,A,160552.00
2.67443,57.68789060,11.98135477,57.68787850,11.98136683,16:05:52.107901,0.00747,1.52688,-0.01726,-0.00679,0.00776,0.01147,0.00902,-0.04660,0.00262,0.89023,2.66769,6.02647,2.08556,2.08355,-1.91592,3.45789,2.65478,-1.19865,2.11270,2.19000,2.19000,A,160552.00
2.68020,57.68789060,11.98135477,57.68787850,11.98136683,16:05:52.113663,0.00301,1.52688,-0.01749,-0.00679,0.01173,0.01269,0.01238,-0.01519,-0.01897,0.92141,2.67675,6.02647,2.08556,2.08355,-1.91592,3.45789,2.65478,-1.19865,2.11270,2.19000,2.19000,A,160552.00
2.69074,57.68789060,11.98135477,57.68787850,11.98136683,16:05:52.124215,0.00316,1.52688,-0.01785,-0.00679,0.00975,0.00979,0.01422,-0.05642,-0.02800,0.98503,2.68731,6.02647,2.08556,2.08355,-1.91592,3.45789,2.65478,-1.19865,2.11270,2.19000,2.19000,A,160552.00
2.70113,57.68789060,11.98135477,57.68787850,11.98136683,16:05:52.134595,0.00316,1.52688,-0.01772,-0.00679,0.01723,0.01559,0.01040,0.00311,-0.00061,1.05341,2.69748,6.02647,2.08556,2.08355,-1.91592,3.45789,2.65478,-1.19865,2.11270,2.19000,2.19000,A,160552.00
2.71153,57.68789060,11.98135477,57.68787850,11.98136683,16:05:52.144989,0.00315,1.52688,-0.01828,-0.00679,0.01357,0.01483,0.00994,0.04788,-0.04959,1.10325,2.70810,6.02647,2.08556,2.08355,-1.91592,3.45789,2.65478,-1.19865,2.11270,2.19000,2.19000,A,160552.00
2.72217,57.68789060,11.98135477,57.68787850,11.98136683,16:05:52.155627,0.00317,1.52688,-0.01898,-0.00679,0.02197,0.00078,0.00292,0.05752,-0.06625,1.09684,2.71873,6.02647,2.08556,2.08355,-1.91592,3.45789,2.65478,-1.19865,2.11270,2.19000,2.19000,A,160552.00
2.73222,57.68789060,11.98135477,57.68787850,11.98136683,16:05:52.165879,0.00300,1.52688,-0.01892,-0.00679,0.01555,-0.00640,0.00047,0.05319,-0.00579,1.04853,2.72879,6.02647,2.08556,2.08355,-1.91592,3.45789,2.65478,-1.19865,2.11270,2.19000,2.19000,A,160552.00
2.74279,57.68789060,11.98135477,57.68787850,11.98136683,16:05:52.176256,0.00318,1.52688,-0.01939,-0.00679,0.02823,-0.01602,0.00521,-0.04307,-0.05130,1.01126,2.73936,6.02647,2.08556,2.08355,-1.91592,3.45789,2.65478,-1.19865,2.11270,2.19000,2.19000,A,160552.00
2.75318,57.68789060,11.98135477,57.68787850,11.98136683,16:05:52.186645,0.00316,1.52688,-0.02009,-0.00676,0.02197,-0.01617,0.00261,0.01928,-0.05710,0.94019,2.74971,6.02647,2.08556,2.08355,-1.91592,3.45789,2.65478,-1.19865,2.11270,2.19000,2.19000,A,160552.00
2.78184,57.68789060,11.98135477,57.68787967,11.98136533,16:05:52.215325,0.02143,1.52688,-0.02004,-0.00651,0.02517,-0.02671,0.01132,0.03812,-0.01519,0.93580,2.76130,6.02647,2.08556,2.08355,-1.91592,3.45789,2.77694,-1.28781,2.24243,2.17292,2.17292,A,160552.10
2.79914,57.68789557,11.98134949,57.68787967,11.98136533,16:05:52.232616,0.00709,1.52688,-0.01937,-0.00515,0.02609,-0.03877,0.02109,-0.08863,-0.01153,1.04822,2.79352,5.12655,2.09499,2.09346,-2.22977,4.01038,2.77694,-1.28781,2.24243,2.17292,2.17292,A,160552.10
2.80563,57.68789557,11.98134949,57.68787967,11.98136533,16:05:52.239104,0.00317,1.52688,-0.01898,-0.00501,0.02899,-0.00655,0.01574,-0.13853,0.01263,1.17815,2.80218,5.12655,2.09499,2.09346,-2.22977,4.01038,2.77694,-1.28781,2.24243,2.17292,2.17292,A,160552.10
2.81594,57.68789557,11.98134949,57.68787967,11.98136533,16:05:52.249402,0.00300,1.52688,-0.01947,-0.00498,0.03663,0.01300,0.01605,0.00128,-0.06002,1.06494,2.81250,5.12655,2.09499,2.09346,-2.22977,4.01038,2.77694,-1.28781,2.24243,2.17292,2.17292,A,160552.10
2.82665,57.68789557,11.98134949,57.68787967,11.98136533,16:05:52.260121,0.00331,1.52688,-0.01976,-0.00498,0.02563,-0.00059,0.00933,0.09766,-0.03495,0.93678,2.82320,5.12655,2.09499,2.09346,-2.22977,4.01038,2.77694,-1.28781,2.24243,2.17292,2.17292,A,160552.10
2.83710,57.68789557,11.98134949,57.68787967,11.98136533,16:05:52.270566,0.00336,1.52688,-0.02041,-0.00498,0.02349,-0.02243,0.00414,0.07405,-0.05155,0.87791,2.83343,5.12655,2.09499,2.09346,-2.22977,4.01038,2.77694,-1.28781,2.24243,2.17292,2.17292,A,160552.10
2.84729,57.68789557,11.98134949,57.68787967,11.98136533,16:05:52.280760,0.00315,1.52688,-0.01966,-0.00498,0.01906,-0.04717,0.00628,-0.08186,0.03270,0.89322,2.84386,5.12655,2.09499,2.09346,-2.22977,4.01038,2.77694,-1.28781,2.24243,2.17292,2.17292,A,160552.10
2.85794,57.68789557,11.98134949,57.68787967,11.98136533,16:05:52.291408,0.00318,1.52688,-0.01941,-0.00498,0.03449,-0.03053,0.00307,-0.10285,-0.00720,0.94770,2.85450,5.12655,2.09499,2.09346,-2.22977,4.01038,2.77694,-1.28781,2.24243,2.17292,2.17292,A,160552.10
2.86802,57.68789557,11.98134949,57.68787967,11.98136533,16:05:52.301484,0.00302,1.52688,-0.02036,-0.00498,0.02563,-0.00029,0.00124,-0.15030,-0.07930,0.99387,2.86457,5.12655,2.09499,2.09346,-2.22977,4.01038,2.77694,-1.28781,2.24243,2.17292,2.17292,A,160552.10
2.89624,57.68789557,11.98134949,57.68788117,11.98136433,16:05:52.329963,0.02084,1.52688,-0.02066,-0.00498,0.02380,0.03346,0.00734,-0.04142,-0.03703,1.00985,2.87527,5.12655,2.09499,2.09346,-2.22977,4.01038,2.89021,-1.34724,2.40922,1.91312,1.91312,A,160552.20
2.91300,57.68789909,11.98134566,57.68788117,11.98136433,16:05:52.346478,0.00751,1.52688,-0.02026,-0.00498,0.02304,0.02705,0.01361,-0.01757,-0.02208,0.97295,2.90732,4.40662,2.06564,2.06417,-2.45742,4.40207,2.89021,-1.34724,2.40922,1.91312,1.91312,A,160552.20
2.91909,57.68789909,11.98134566,57.68788117,11.98136433,16:05:52.352550,0.00319,1.52688,-0.01958,-0.00498,0.02074,0.01132,0.01345,-0.05606,0.03501,1.02651,2.91564,4.40662,2.06564,2.06417,-2.45742,4.40207,2.89021,-1.34724,2.40922,1.91312,1.91312,A,160552.20
2.92945,57.68789909,11.98134566,57.68788117,11.98136433,16:05:52.362919,0.00317,1.52688,-0.01993,-0.00498,0.02594,0.00032,0.01009,-0.07308,-0.04453,1.09056,2.92601,4.40662,2.06564,2.06417,-2.45742,4.40207,2.89021,-1.34724,2.40922,1.91312,1.91312,A,160552.20
2.93980,57.68789909,11.98134566,57.68788117,11.98136433,16:05:52.373262,0.00297,1.52688,-0.01970,-0.00498,0.01800,-0.00640,0.00673,0.08839,0.00415,1.11319,2.93637,4.40662,2.06564,2.06417,-2.45742,4.40207,2.89021,-1.34724,2.40922,1.91312,1.91312,A,160552.20
2.95039,57.68789909,11.98134566,57.68788117,11.98136433,16:05:52.383858,0.00317,1.52688,-0.01973,-0.00498,0.02639,-0.02931,0.00063,0.10461,-0.02306,1.14046,2.94695,4.40662,2.06564,2.06417,-2.45742,4.40207,2.89021,-1.34724,2.40922,1.91312,1.91312,A,160552.20
2.96082,57.68789909,11.98134566,57.68788117,11.98136433,16:05:52.394305,0.00320,1.52688,-0.01983,-0.00498,0.01800,-0.04213,-0.00197,-0.00055,-0.01934,1.07641,2.95712,4.40662,2.06564,2.06417,-2.45742,4.40207,2.89021,-1.34724,2.40922,1.91312,1.91312,A,160552.20
2.97120,57.68789909,11.98134566,57.68788117,11.98136433,16:05:52.404662,0.00319,1.52688,-0.01969,-0.00492,0.02395,-0.03389,0.00551,-0.07997,-0.00781,0.99796,2.96776,4.40662,2.06564,2.06417,-2.45742,4.40207,2.89021,-1.34724,2.40922,1.91312,1.91312,A,160552.20
2.98157,57.68789909,11.98134566,57.68788117,11.98136433,16:05:52.415035,0.00315,1.52688,-0.02035,-0.00458,0.03006,-0.01098,0.01590,-0.09772,-0.05697,0.89408,2.97811,4.40662,2.06564,2.06417,-2.45742,4.40207,2.89021,-1.34724,2.40922,1.91312,1.91312,A,160552.20
3.00955,57.68789909,11.98134566,57.68788233,11.98136283,16:05:52.443024,0.02060,1.52688,-0.02026,-0.00390,0.03541,-0.00304,0.02613,-0.08613,-0.01574,0.84692,2.98849,4.40662,2.06564,2.06417,-2.45742,4.40207,3.00341,-1.43640,2.53895,2.17292,2.17292,A,160552.30
3.02747,57.68790199,11.98134275,57.68788233,11.98136283,16:05:52.460927,0.00737,1.52688,-0.01898,-0.00130,0.03709,-0.03419,0.03483,-0.06863,0.00433,1.07110,3.02200,3.83067,2.07987,2.07949,-2.63010,4.72499,3.00341,-1.43640,2.53895,2.17292,2.17292,A,160552.30
3.03377,57.68790199,11.98134275,57.68788233,11.98136283,16:05:52.467242,0.00328,1.68227,-0.01798,-0.00093,0.02838,-0.02121,0.02582,-0.08754,0.06210,1.15589,3.03031,3.83067,2.07987,2.07949,-2.63010,4.72499,3.00341,-1.43640,2.53895,2.17292,2.17292,A,160552.30
3.04392,57.68790199,11.98134275,57.68788233,11.98136283,16:05:52.477383,0.00298,1.68227,-0.01750,-0.00073,0.02945,-0.00640,0.01712,-0.06198,0.01702,1.11673,3.04048,3.83067,2.07987,2.07949,-2.63010,4.72499,3.00341,-1.43640,2.53895,2.17292,2.17292,A,160552.30
3.05449,57.68790199,11.98134275,57.68788233,11.98136283,16:05:52.487957,0.00314,1.68227,-0.01822,-0.00070,0.01723,-0.00319,0.00414,0.01903,-0.05722,1.00992,3.05106,3.83067,2.07987,2.07949,-2.63010,4.72499,3.00341,-1.43640,2.53895,2.17292,2.17292,A,160552.30
3.06513,57.68790199,11.98134275,57.68788233,11.98136283,16:05:52.498600,0.00321,1.68227,-0.01826,-0.00070,0.01922,-0.01846,0.00414,-0.00671,-0.01391,1.01480,3.06146,3.83067,2.07987,2.07949,-2.63010,4.72499,3.00341,-1.43640,2.53895,2.17292,2.17292,A,160552.30
3.07626,57.68790199,11.98134275,57.68788233,11.98136283,16:05:52.509977,0.00394,1.68227,-0.01837,-0.00070,0.00746,-0.04931,0.00460,0.00037,-0.00976,0.97935,3.07276,3.83067,2.07987,2.07949,-2.63010,4.72499,3.00341,-1.43640,2.53895,2.17292,2.17292,A,160552.30
3.08575,57.68790199,11.98134275,57.68788233,11.98136283,16:05:52.519220,0.00303,1.68227,-0.01748,-0.00070,0.00929,-0.05909,0.01116,-0.00665,0.05313,0.94684,3.08231,3.83067,2.07987,2.07949,-2.63010,4.72499,3.00341,-1.43640,2.53895,2.17292,2.17292,A,160552.30
3.09595,57.68790199,11.98134275,57.68788233,11.98136283,16:05:52.529418,0.00297,1.68227,-0.01759,-0.00070,0.01402,-0.05359,0.01819,-0.08241,-0.01293,0.97203,3.09251,3.83067,2.07987,2.07949,-2.63010,4.72499,3.00341,-1.43640,2.53895,2.17292,2.17292,A,160552.30
3.12447,57.68790199,11.98134275,57.68788367,11.98136150,16:05:52.558178,0.02109,1.68227,-0.01702,-0.00070,0.01372,-0.03603,0.02170,-0.13444,0.03062,0.97722,3.10310,3.83067,2.07987,2.07949,-2.63010,4.72499,3.11835,-1.51565,2.68721,2.06169,2.06169,A,160552.40
3.14231,57.68790430,11.98134033,57.68788367,11.98136150,16:05:52.575788,0.00748,1.68227,-0.01728,-0.00070,0.00608,-0.01541,0.02720,-0.05618,-0.02501,0.94111,3.13658,3.40099,2.07674,2.07653,-2.77417,4.98137,3.11835,-1.51565,2.68721,2.06169,2.06169,A,160552.40
3.14806,57.68790430,11.98134033,57.68788367,11.98136150,16:05:52.581527,0.00300,1.68227,-0.01616,-0.00070,-0.00613,-0.02091,0.02063,-0.01757,0.07991,0.97978,3.14462,3.40099,2.07674,2.07653,-2.77417,4.98137,3.11835,-1.51565,2.68721,2.06169,2.06169,A,160552.40
3.15861,57.68790430,11.98134033,57.68788367,11.98136150,16:05:52.592079,0.00316,1.68227,-0.01558,-0.00070,0.01036,-0.03205,0.01315,-0.03812,0.03672,1.00345,3.15518,3.40099,2.07674,2.07653,-2.77417,4.98137,3.11835,-1.51565,2.68721,2.06169,2.06169,A,160552.40
3.16903,57.68790430,11.98134033,57.68788367,11.98136150,16:05:52.602499,0.00317,1.68227,-0.01540,-0.00070,-0.00247,-0.03755,0.01055,-0.02611,0.01970,1.05554,3.16537,3.40099,2.07674,2.07653,-2.77417,4.98137,3.11835,-1.51565,2.68721,2.06169,2.06169,A,160552.40
3.17940,57.68790430,11.98134033,57.68788367,11.98136150,16:05:52.612864,0.00315,1.68227,-0.01560,-0.00070,0.00700,-0.03068,0.00475,-0.02580,-0.01415,1.08952,3.17597,3.40099,2.07674,2.07653,-2.77417,4.98137,3.11835,-1.51565,2.68721,2.06169,2.06169,A,160552.40
3.18982,57.68790430,11.98134033,57.68788367,11.98136150,16:05:52.623291,0.00317,1.68227,-0.01618,-0.00070,0.00074,-0.01434,0.00383,-0.01879,-0.03733,1.11252,3.18638,3.40099,2.07674,2.07653,-2.77417,4.98137,3.11835,-1.51565,2.68721,2.06169,2.06169,A,160552.40
3.19992,57.68790430,11.98134033,57.68788367,11.98136150,16:05:52.633385,0.00298,1.68227,-0.01679,-0.00070,-0.00109,0.00399,-0.00228,0.00195,-0.03642,1.02980,3.19649,3.40099,2.07674,2.07653,-2.77417,4.98137,3.11835,-1.51565,2.68721,2.06169,2.06169,A,160552.40
3.21050,57.68790430,11.98134033,57.68788367,11.98136150,16:05:52.643969,0.00316,1.68227,-0.01709,-0.00070,-0.00323,-0.01312,-0.00075,0.04227,-0.01244,0.90969,3.20706,3.40099,2.07674,2.07653,-2.77417,4.98137,3.11835,-1.51565,2.68721,2.06169,2.06169,A,160552.40
3.25106,57.68790430,11.98134033,57.68788633,11.98135867,16:05:52.684546,0.03332,1.68227,-0.01638,-0.00070,-0.00629,-0.03037,-0.00167,0.00805,0.04624,0.83771,3.21728,3.40099,2.07674,2.07653,-2.77417,4.98137,3.24522,-1.68405,2.98373,2.08731,2.08731,A,160552.60
3.26957,57.68790658,11.98133795,57.68788633,11.98135867,16:05:52.703053,0.00805,1.68227,-0.01591,-0.00070,0.00807,-0.02976,0.00185,0.02080,0.01287,1.10739,3.26380,3.05725,2.07812,2.07792,-2.91547,5.23508,3.24522,-1.68405,2.98373,2.08731,2.08731,A,160552.60
3.27512,57.68790658,11.98133795,57.68788633,11.98135867,16:05:52.708587,0.00320,1.68227,-0.01574,-0.00070,0.01754,-0.02274,-0.00243,-0.03135,0.00830,1.18584,3.27169,3.05725,2.07812,2.07792,-2.91547,5.23508,3.24522,-1.68405,2.98373,2.08731,2.08731,A,160552.60
3.28550,57.68790658,11.98133795,57.68788633,11.98135867,16:05:52.718968,0.00318,1.68227,-0.01536,-0.00070,0.01051,-0.01709,-0.00228,-0.05112,0.02568,1.10868,3.28205,3.05725,2.07812,2.07792,-2.91547,5.23508,3.24522,-1.68405,2.98373,2.08731,2.08731,A,160552.60
3.29583,57.68790658,11.98133795,57.68788633,11.98135867,16:05:52.729295,0.00298,1.68227,-0.01471,-0.00073,0.01968,-0.02396,-0.00319,-0.00927,0.03526,0.98692,3.29240,3.05725,2.07812,2.07792,-2.91547,5.23508,3.24522,-1.68405,2.98373,2.08731,2.08731,A,160552.60
3.30641,57.68790658,11.98133795,57.68788633,11.98135867,16:05:52.739868,0.00316,1.68227,-0.01574,-0.00101,0.01738,-0.03251,-0.01113,0.05844,-0.06698,0.89463,3.30296,3.05725,2.07812,2.07792,-2.91547,5.23508,3.24522,-1.68405,2.98373,2.08731,2.08731,A,160552.60
3.31682,57.68790658,11.98133795,57.68788633,11.98135867,16:05:52.750290,0.00318,1.68227,-0.01649,-0.00167,0.01036,-0.05863,-0.01831,0.06722,-0.04307,0.82429,3.31317,3.05725,2.07812,2.07792,-2.91547,5.23508,3.24522,-1.68405,2.98373,2.08731,2.08731,A,160552.60
3.32733,57.68790658,11.98133795,57.68788633,11.98135867,16:05:52.760793,0.00319,1.68227,-0.01657,-0.00285,0.01051,-0.06214,-0.01572,-0.13536,-0.00750,0.85851,3.32389,3.05725,2.07812,2.07792,-2.91547,5.23508,3.24522,-1.68405,2.98373,2.08731,2.08731,A,160552.60
3.33771,57.68790658,11.98133795,57.68788633,11.98135867,16:05:52.771173,0.00318,1.68227,-0.01632,-0.00438,0.00837,-0.04427,-0.01816,-0.12804,0.01403,0.97942,3.33426,3.05725,2.07812,2.07792,-2.91547,5.23508,3.24522,-1.68405,2.98373,2.08731,2.08731,A,160552.60
3.36607,57.68790658,11.98133795,57.68788733,11.98135700,16:05:52.799550,0.02106,1.68227,-0.01687,-0.00619,0.01082,-0.00884,-0.02106,-0.07906,-0.04349,1.06774,3.34456,3.05725,2.07812,2.07792,-2.91547,5.23508,3.35949,-1.78312,3.09493,2.29855,2.29855,A,160552.70
3.37882,57.68790806,11.98133636,57.68788733,11.98135700,16:05:52.812293,0.00719,1.68227,-0.01688,-0.01078,-0.00629,-0.02335,-0.01969,0.03080,0.01458,1.13600,3.37311,2.78225,2.11149,2.10829,-3.01000,5.40011,3.35949,-1.78312,3.09493,2.29855,2.29855,A,160552.70
3.38520,57.68790806,11.98133636,57.68788733,11.98135700,16:05:52.818673,0.00317,1.68227,-0.01656,-0.01205,-0.00277,-0.03435,-0.02824,-0.05575,0.02684,1.11276,3.38173,2.78225,2.11149,2.10829,-3.01000,5.40011,3.35949,-1.78312,3.09493,2.29855,2.29855,A,160552.70
3.39559,57.68790806,11.98133636,57.68788733,11.98135700,16:05:52.829059,0.00317,1.68227,-0.01606,-0.01330,-0.00064,-0.02885,-0.02274,-0.06265,0.03642,1.03322,3.39215,2.78225,2.11149,2.10829,-3.01000,5.40011,3.35949,-1.78312,3.09493,2.29855,2.29855,A,160552.70
3.40599,57.68790806,11.98133636,57.68788733,11.98135700,16:05:52.839458,0.00317,1.94967,-0.01578,-0.01429,0.00501,-0.02442,-0.02824,-0.00598,0.01482,0.96063,3.40256,2.78225,2.11149,2.10829,-3.01000,5.40011,3.35949,-1.78312,3.09493,2.29855,2.29855,A,160552.70
3.41611,57.68790806,11.98133636,57.68788733,11.98135700,16:05:52.849579,0.00301,1.94967,-0.01677,-0.01505,0.00425,-0.03099,-0.02488,-0.06594,-0.06564,0.94623,3.41267,2.78225,2.11149,2.10829,-3.01000,5.40011,3.35949,-1.78312,3.09493,2.29855,2.29855,A,160552.70
3.42684,57.68790806,11.98133636,57.68788733,11.98135700,16:05:52.860301,0.00334,1.94967,-0.01729,-0.01551,0.00593,-0.03099,-0.02274,-0.11871,-0.03867,0.97258,3.42340,2.78225,2.11149,2.10829,-3.01000,5.40011,3.35949,-1.78312,3.09493,2.29855,2.29855,A,160552.70
3.43707,57.68790806,11.98133636,57.68788733,11.98135700,16:05:52.870534,0.00318,1.94967,-0.01730,-0.01565,0.00624,0.00368,-0.01984,-0.09626,-0.00592,1.06238,3.43341,2.78225,2.11149,2.10829,-3.01000,5.40011,3.35949,-1.78312,3.09493,2.29855,2.29855,A,160552.70
3.45189,57.68790806,11.98133636,57.68788733,11.98135700,16:05:52.886095,0.00750,15.76799,-0.01152,-0.01565,0.01845,0.03285,-0.01236,-0.02489,-0.01989,0.99162,3.44808,2.78225,2.11149,2.10829,-3.01000,5.40011,3.35949,-1.78312,3.09493,2.29855,2.29855,A,160552.70
3.47849,57.68790806,11.98133636,57.68788867,11.98135600,16:05:52.911971,0.02370,15.76799,-0.00706,-0.01565,0.01784,0.02598,-0.01068,0.09467,-0.04520,0.96850,3.45836,2.78225,2.11149,2.10829,-3.01000,5.40011,3.47368,-1.84255,3.24319,1.95208,1.95208,A,160552.80
3.49426,57.68790939,11.98133478,57.68788867,11.98135600,16:05:52.927732,0.00814,15.76799,-0.00095,-0.01565,0.02517,-0.06199,-0.00884,-0.07418,0.04788,0.99003,3.48757,5.37940,2.08566,2.08101,-3.10367,5.54737,3.47368,-1.84255,3.24319,1.95208,1.95208,A,160552.80
3.50339,57.68790939,11.98133478,57.68788867,11.98135600,16:05:52.936869,0.00671,15.76799,0.00425,-0.01565,0.03006,-0.05909,-0.01251,-0.06832,0.02355,1.02090,3.49992,5.37940,2.08566,2.08101,-3.10367,5.54737,3.47368,-1.84255,3.24319,1.95208,1.95208,A,160552.80
3.51399,57.68790939,11.98133478,57.68788867,11.98135600,16:05:52.947470,0.00691,15.76799,0.00824,-0.01565,0.03892,-0.03984,-0.01358,0.01324,-0.06015,1.03547,3.51048,5.37940,2.08566,2.08101,-3.10367,5.54737,3.47368,-1.84255,3.24319,1.95208,1.95208,A,160552.80
3.52391,57.68790939,11.98133478,57.68788867,11.98135600,16:05:52.957384,0.00660,15.76799,0.01259,-0.01565,0.03724,-0.03755,-0.00945,0.13408,-0.05569,0.94178,3.52046,5.37940,2.08566,2.08101,-3.10367,5.54737,3.47368,-1.84255,3.24319,1.95208,1.95208,A,160552.80
3.53455,57.68790939,11.98133478,57.68788867,11.98135600,16:05:52.968024,0.00684,15.76799,0.01782,-0.01565,0.03632,-0.06916,-0.00151,0.08296,-0.02745,0.84204,3.53108,5.37940,2.08566,2.08101,-3.10367,5.54737,3.47368,-1.84255,3.24319,1.95208,1.95208,A,160552.80
3.54494,57.68790939,11.98133478,57.68788867,11.98135600,16:05:52.978418,0.00683,15.76799,0.02363,-0.01565,0.03266,-0.08581,0.00780,-0.06405,0.01940,0.84686,3.54127,5.37940,2.08566,2.08101,-3.10367,5.54737,3.47368,-1.84255,3.24319,1.95208,1.95208,A,160552.80
3.55522,57.68790939,11.98133478,57.68788867,11.98135600,16:05:52.988688,0.00654,15.76799,0.02894,-0.01565,0.04839,-0.08169,0.00673,-0.10827,0.01934,0.94867,3.55176,5.37940,2.08566,2.08101,-3.10367,5.54737,3.47368,-1.84255,3.24319,1.95208,1.95208,A,160552.80
3.56614,57.68790939,11.98133478,57.68788867,11.98135600,16:05:52.999616,0.00708,15.76799,0.03314,-0.01559,0.05694,-0.03007,0.00444,-0.22369,0.01958,1.21536,3.56268,5.37940,2.08566,2.08101,-3.10367,5.54737,3.47368,-1.84255,3.24319,1.95208,1.95208,A,160552.80
3.59351,57.68790939,11.98133478,57.68789000,11.98135450,16:05:53.026992,0.02416,15.76799,0.03679,-0.01536,0.06702,0.00887,0.01208,-0.03758,-0.02532,1.20280,3.57258,5.37940,2.08566,2.08101,-3.10367,5.54737,3.58759,-1.93171,3.39145,2.11221,2.11221,A,160552.90
3.60941,57.68791295,11.98133102,57.68789000,11.98135450,16:05:53.042878,0.00813,15.76799,0.04145,-0.01364,0.04151,-0.03083,0.00902,-0.07765,-0.00464,1.01010,3.60363,7.45712,2.08286,2.07882,-3.32710,5.94351,3.58759,-1.93171,3.39145,2.11221,2.11221,A,160552.90
3.61870,57.68791295,11.98133102,57.68789000,11.98135450,16:05:53.052172,0.00703,15.76799,0.04654,-0.01296,0.05159,-0.03618,0.00872,-0.01251,0.06887,0.93531,3.61522,7.45712,2.08286,2.07882,-3.32710,5.94351,3.58759,-1.93171,3.39145,2.11221,2.11221,A,160552.90
3.62905,57.68791295,11.98133102,57.68789000,11.98135450,16:05:53.062528,0.00697,15.76799,0.05074,-0.01259,0.05801,-0.03236,0.00154,-0.09967,0.01903,0.92982,3.62534,7.45712,2.08286,2.07882,-3.32710,5.94351,3.58759,-1.93171,3.39145,2.11221,2.11221,A,160552.90
3.63945,57.68791295,11.98133102,57.68789000,11.98135450,16:05:53.072924,0.00698,15.76799,0.05468,-0.01239,0.06030,-0.02396,0.00673,0.03758,-0.01318,0.86467,3.63598,7.45712,2.08286,2.07882,-3.32710,5.94351,3.58759,-1.93171,3.39145,2.11221,2.11221,A,160552.90
3.64983,57.68791295,11.98133102,57.68789000,11.98135450,16:05:53.083301,0.00696,15.76799,0.05796,-0.01239,0.05205,-0.02976,-0.00060,0.03934,-0.03007,0.91854,3.64635,7.45712,2.08286,2.07882,-3.32710,5.94351,3.58759,-1.93171,3.39145,2.11221,2.11221,A,160552.90
3.65989,57.68791295,11.98133102,57.68789000,11.98135450,16:05:53.093362,0.00674,15.76799,0.06104,-0.01239,0.05144,-0.02182,0.00414,-0.07594,-0.01397,1.01290,3.65643,7.45712,2.08286,2.07882,-3.32710,5.94351,3.58759,-1.93171,3.39145,2.11221,2.11221,A,160552.90
3.67065,57.68791295,11.98133102,57.68789000,11.98135450,16:05:53.104120,0.00691,15.76799,0.06403,-0.01239,0.04228,0.00185,-0.00182,-0.12548,-0.00396,1.04737,3.66719,7.45712,2.08286,2.07882,-3.32710,5.94351,3.58759,-1.93171,3.39145,2.11221,2.11221,A,160552.90
3.68106,57.68791295,11.98133102,57.68789000,11.98135450,16:05:53.114535,0.00691,15.76799,0.06651,-0.01239,0.03861,0.03896,-0.01098,-0.06722,-0.02098,1.10422,3.67737,7.45712,2.08286,2.07882,-3.32710,5.94351,3.58759,-1.93171,3.39145,2.11221,2.11221,A,160552.90
3.70875,57.68791295,11.98133102,57.68789150,11.98135333,16:05:53.142255,0.02404,15.76799,0.06895,-0.01239,0.03143,0.03239,-0.01098,-0.07723,-0.01269,1.11337,3.68703,7.45712,2.08286,2.07882,-3.32710,5.94351,3.70280,-2.00105,3.55824,1.96480,1.96480,A,160553.00
3.72829,57.68791838,11.98132537,57.68789150,11.98135333,16:05:53.161979,0.00879,15.76799,0.07244,-0.01239,0.02945,-0.05756,-0.01419,-0.09046,-0.03520,0.91787,3.72259,9.11929,2.05648,2.05281,-3.66332,6.54722,3.70280,-2.00105,3.55824,1.96480,1.96480,A,160553.00
3.73684,57.68791838,11.98132537,57.68789150,11.98135333,16:05:53.170335,0.00716,15.76799,0.07516,-0.01239,0.01296,-0.03572,-0.01541,-0.22045,0.00616,1.03090,3.73316,9.11929,2.05648,2.05281,-3.66332,6.54722,3.70280,-2.00105,3.55824,1.96480,1.96480,A,160553.00
3.74685,57.68791838,11.98132537,57.68789150,11.98135333,16:05:53.180318,0.00677,15.76799,0.07786,-0.01239,0.01769,0.01498,-0.01938,-0.16403,-0.01043,0.97399,3.74340,9.11929,2.05648,2.05281,-3.66332,6.54722,3.70280,-2.00105,3.55824,1.96480,1.96480,A,160553.00
3.75725,57.68791838,11.98132537,57.68789150,11.98135333,16:05:53.190725,0.00677,15.76799,0.08105,-0.01239,0.00960,0.04644,-0.01785,-0.10687,0.04593,1.02169,3.75374,9.11929,2.05648,2.05281,-3.66332,6.54722,3.70280,-2.00105,3.55824,1.96480,1.96480,A,160553.00
3.76790,57.68791838,11.98132537,57.68789150,11.98135333,16:05:53.201388,0.00696,15.76799,0.08516,-0.01239,0.00975,0.06294,-0.01587,0.12115,0.07015,0.89768,3.76437,9.11929,2.05648,2.05281,-3.66332,6.54722,3.70280,-2.00105,3.55824,1.96480,1.96480,A,160553.00
3.77811,57.68791838,11.98132537,57.68789150,11.98135333,16:05:53.211576,0.00677,15.76799,0.08788,-0.01239,0.00379,0.03239,-0.01678,0.08272,0.01110,0.97673,3.77465,9.11929,2.05648,2.05281,-3.66332,6.54722,3.70280,-2.00105,3.55824,1.96480,1.96480,A,160553.00
3.78837,57.68791838,11.98132537,57.68789150,11.98135333,16:05:53.222072,0.00663,15.76799,0.09046,-0.01251,-0.00476,0.01575,-0.02259,-0.07009,0.01531,1.00607,3.78492,9.11929,2.05648,2.05281,-3.66332,6.54722,3.70280,-2.00105,3.55824,1.96480,1.96480,A,160553.00
3.79880,57.68791838,11.98132537,57.68789150,11.98135333,16:05:53.232286,0.00667,15.76799,0.09274,-0.01282,-0.01316,0.00811,-0.02579,-0.06100,0.01873,1.08458,3.79527,9.11929,2.05648,2.05281,-3.66332,6.54722,3.70280,-2.00105,3.55824,1.96480,1.96480,A,160553.00
3.82712,57.68791838,11.98132537,57.68789300,11.98135183,16:05:53.260747,0.02459,15.76799,0.09555,-0.01364,-0.01988,0.00735,-0.04030,-0.04014,0.03806,1.05011,3.80600,9.11929,2.05648,2.05281,-3.66332,6.54722,3.82083,-2.09021,3.72503,2.06169,2.06169,A,160553.10
3.84704,57.68792512,11.98131885,57.68789300,11.98135183,16:05:53.280521,0.00736,1.91360,0.09351,-0.01655,-0.01133,-0.00793,-0.03328,-0.09235,0.00073,0.95270,3.84068,7.67815,2.04783,2.04291,-4.05050,7.29653,3.82083,-2.09021,3.72503,2.06169,2.06169,A,160553.10
3.85324,57.68792512,11.98131885,57.68789300,11.98135183,16:05:53.286709,0.00316,1.91360,0.09136,-0.01689,-0.01392,0.00735,-0.02213,-0.10376,-0.02556,0.96783,3.84978,7.67815,2.04783,2.04291,-4.05050,7.29653,3.82083,-2.09021,3.72503,2.06169,2.06169,A,160553.10
3.86363,57.68792512,11.98131885,57.68789300,11.98135183,16:05:53.297096,0.00316,1.91360,0.08919,-0.01698,-0.01896,0.02644,-0.02381,-0.07668,-0.02306,0.92952,3.86020,7.67815,2.04783,2.04291,-4.05050,7.29653,3.82083,-2.09021,3.72503,2.06169,2.06169,A,160553.10
3.87406,57.68792512,11.98131885,57.68789300,11.98135183,16:05:53.307525,0.00318,1.91360,0.08714,-0.01698,-0.02018,0.02949,-0.01495,-0.03947,-0.01824,0.99643,3.87062,7.67815,2.04783,2.04291,-4.05050,7.29653,3.82083,-2.09021,3.72503,2.06169,2.06169,A,160553.10
3.88410,57.68792512,11.98131885,57.68789300,11.98135183,16:05:53.317570,0.00300,1.91360,0.08702,-0.01698,-0.01637,0.02308,-0.01052,0.07845,0.10376,0.97923,3.88067,7.67815,2.04783,2.04291,-4.05050,7.29653,3.82083,-2.09021,3.72503,2.06169,2.06169,A,160553.10
3.89466,57.68792512,11.98131885,57.68789300,11.98135183,16:05:53.328123,0.00315,1.91360,0.08538,-0.01698,-0.00812,0.00200,-0.01083,0.02568,-0.00122,1.01797,3.89123,7.67815,2.04783,2.04291,-4.05050,7.29653,3.82083,-2.09021,3.72503,2.06169,2.06169,A,160553.10
3.90508,57.68792512,11.98131885,57.68789300,11.98135183,16:05:53.338548,0.00318,1.91360,0.08392,-0.01698,0.00028,-0.00854,-0.01098,-0.06124,0.00458,1.07037,3.90142,7.67815,2.04783,2.04291,-4.05050,7.29653,3.82083,-2.09021,3.72503,2.06169,2.06169,A,160553.10
3.91545,57.68792512,11.98131885,57.68789300,11.98135183,16:05:53.348919,0.00315,1.91360,0.08233,-0.01698,-0.00125,-0.01434,-0.01052,-0.06588,-0.00586,1.03889,3.91201,7.67815,2.04783,2.04291,-4.05050,7.29653,3.82083,-2.09021,3.72503,2.06169,2.06169,A,160553.10
3.95438,57.68792512,11.98131885,57.68789600,11.98134917,16:05:53.387861,0.03168,1.91360,0.08136,-0.01698,0.00181,-0.00334,-0.00930,-0.00396,0.03300,1.01669,3.92245,7.67815,2.04783,2.04291,-4.05050,7.29653,3.94816,-2.24871,4.05861,2.01436,2.01436,A,160553.30
3.96815,57.68793063,11.98131371,57.68789600,11.98134917,16:05:53.401626,0.00705,1.91360,0.08136,-0.01610,0.00624,0.01956,0.01742,-0.06753,0.07698,0.95959,3.96272,6.52524,2.03175,2.02697,-4.35618,7.90968,3.94816,-2.24871,4.05861,2.01436,2.01436,A,160553.30
3.97471,57.68793063,11.98131371,57.68789600,11.98134917,16:05:53.408170,0.00320,1.91360,0.08045,-0.01517,0.02212,0.03682,0.02033,-0.08223,0.02367,0.97368,3.97127,6.52524,2.03175,2.02697,-4.35618,7.90968,3.94816,-2.24871,4.05861,2.01436,2.01436,A,160553.30
3.98507,57.68793063,11.98131371,57.68789600,11.98134917,16:05:53.418542,0.00317,1.91360,0.07901,-0.01392,0.01448,0.02247,0.01727,0.01879,-0.00811,0.99119,3.98141,6.52524,2.03175,2.02697,-4.35618,7.90968,3.94816,-2.24871,4.05861,2.01436,2.01436,A,160553.30
3.99546,57.68793063,11.98131371,57.68789600,11.98134917,16:05:53.428923,0.00317,1.91360,0.07763,-0.01262,0.01005,0.01254,0.01513,0.01293,-0.00348,0.99839,3.99203,6.52524,2.03175,2.02697,-4.35618,7.90968,3.94816,-2.24871,4.05861,2.01436,2.01436,A,160553.30
4.00576,57.68793063,11.98131371,57.68789600,11.98134917,16:05:53.439231,0.00307,1.91360,0.07666,-0.01157,-0.00018,-0.00273,0.00628,0.01000,0.03184,1.02950,4.00231,6.52524,2.03175,2.02697,-4.35618,7.90968,3.94816,-2.24871,4.05861,2.01436,2.01436,A,160553.30
4.01678,57.68793063,11.98131371,57.68789600,11.98134917,16:05:53.450269,0.00338,1.91360,0.07577,-0.01075,0.00089,-0.01281,-0.00564,-0.12328,0.03581,1.03602,4.01307,6.52524,2.03175,2.02697,-4.35618,7.90968,3.94816,-2.24871,4.05861,2.01436,2.01436,A,160553.30
4.02697,57.68793063,11.98131371,57.68789600,11.98134917,16:05:53.460431,0.00316,1.91360,0.07452,-0.01024,0.00135,0.00032,-0.00671,-0.12444,0.01000,1.06616,4.02353,6.52524,2.03175,2.02697,-4.35618,7.90968,3.94816,-2.24871,4.05861,2.01436,2.01436,A,160553.30
4.03740,57.68793063,11.98131371,57.68789600,11.98134917,16:05:53.470868,0.00320,1.91360,0.07315,-0.00996,-0.01270,0.01254,-0.01190,-0.03160,0.00970,1.03072,4.03394,6.52524,2.03175,2.02697,-4.35618,7.90968,3.94816,-2.24871,4.05861,2.01436,2.01436,A,160553.30
4.04775,57.68793063,11.98131371,57.68789600,11.98134917,16:05:53.481213,0.00298,1.91360,0.07167,-0.00990,-0.01621,0.02185,-0.00426,-0.01519,0.00342,0.96679,4.04432,6.52524,2.03175,2.02697,-4.35618,7.90968,3.94816,-2.24871,4.05861,2.01436,2.01436,A,160553.30
4.07626,57.68793063,11.98131371,57.68789733,11.98134767,16:05:53.509978,0.02109,1.91360,0.07030,-0.00990,-0.01743,0.01132,0.00337,-0.00610,0.00866,0.89768,4.05490,6.52524,2.03175,2.02697,-4.35618,7.90968,4.07003,-2.33786,4.20687,2.11221,2.11221,A,160553.40
4.09326,57.68793512,11.98130976,57.68789733,11.98134767,16:05:53.526736,0.00639,1.91360,0.06859,-0.00990,-0.02874,0.00719,0.00612,-0.16336,0.04056,1.11752,4.08753,5.60291,2.03423,2.03129,-4.59111,8.40897,4.07003,-2.33786,4.20687,2.11221,2.11221,A,160553.40
4.10010,57.68793512,11.98130976,57.68789733,11.98134767,16:05:53.533563,0.00300,1.91360,0.06722,-0.00990,-0.03484,0.02659,0.00261,-0.05453,0.01848,1.13253,4.09666,5.60291,2.03423,2.03129,-4.59111,8.40897,4.07003,-2.33786,4.20687,2.11221,2.11221,A,160553.40
4.11065,57.68793512,11.98130976,57.68789733,11.98134767,16:05:53.544116,0.00315,1.91360,0.06546,-0.00990,-0.03775,0.02796,-0.00655,0.00323,-0.00586,1.08122,4.10722,5.60291,2.03423,2.03129,-4.59111,8.40897,4.07003,-2.33786,4.20687,2.11221,2.11221,A,160553.40
4.12109,57.68793512,11.98130976,57.68789733,11.98134767,16:05:53.554561,0.00320,1.91360,0.06368,-0.00990,-0.05577,0.01605,-0.01663,-0.02153,0.00177,1.04103,4.11741,5.60291,2.03423,2.03129,-4.59111,8.40897,4.07003,-2.33786,4.20687,2.11221,2.11221,A,160553.40
4.13152,57.68793512,11.98130976,57.68789733,11.98134767,16:05:53.564981,0.00324,1.91360,0.06149,-0.00990,-0.06798,0.00246,-0.02656,-0.07613,-0.01677,0.98728,4.12809,5.60291,2.03423,2.03129,-4.59111,8.40897,4.07003,-2.33786,4.20687,2.11221,2.11221,A,160553.40
4.14176,57.68793512,11.98130976,57.68789733,11.98134767,16:05:53.575234,0.00308,1.91360,0.06038,-0.00990,-0.07394,0.00154,-0.02213,-0.08705,0.05283,0.95800,4.13832,5.60291,2.03423,2.03129,-4.59111,8.40897,4.07003,-2.33786,4.20687,2.11221,2.11221,A,160553.40
4.15196,57.68793512,11.98130976,57.68789733,11.98134767,16:05:53.585426,0.00301,1.91360,0.05958,-0.00990,-0.06432,0.00170,-0.01984,-0.10529,0.06167,0.91262,4.14851,5.60291,2.03423,2.03129,-4.59111,8.40897,4.07003,-2.33786,4.20687,2.11221,2.11221,A,160553.40
4.16251,57.68793512,11.98130976,57.68789733,11.98134767,16:05:53.595979,0.00316,1.91360,0.05802,-0.00990,-0.05699,0.00689,-0.01602,-0.05045,0.01159,0.91610,4.15908,5.60291,2.03423,2.03129,-4.59111,8.40897,4.07003,-2.33786,4.20687,2.11221,2.11221,A,160553.40
4.18874,57.68793512,11.98130976,57.68789883,11.98134650,16:05:53.622231,0.01899,1.91360,0.05623,-0.00990,-0.05241,-0.00090,-0.00900,-0.06789,-0.00750,0.91402,4.16927,5.60291,2.03423,2.03129,-4.59111,8.40897,4.18410,-2.40721,4.37367,1.96480,1.96480,A,160553.50
4.20354,57.68793792,11.98130732,57.68789883,11.98134650,16:05:53.637012,0.00799,1.91360,0.05355,-0.00990,-0.05210,0.02155,-0.00365,-0.15366,-0.01019,1.03523,4.19706,4.86505,2.01963,2.01669,-4.73603,8.71948,4.18410,-2.40721,4.37367,1.96480,1.96480,A,160553.50
4.20914,57.68793792,11.98130732,57.68789883,11.98134650,16:05:53.642609,0.00319,1.91360,0.05218,-0.00990,-0.03851,0.03697,-0.00930,-0.05984,0.00183,1.03236,4.20548,4.86505,2.01963,2.01669,-4.73603,8.71948,4.18410,-2.40721,4.37367,1.96480,1.96480,A,160553.50
4.21950,57.68793792,11.98130732,57.68789883,11.98134650,16:05:53.652968,0.00315,1.91360,0.05017,-0.00990,-0.04447,0.02002,-0.01373,0.03983,-0.03544,1.06494,4.21607,4.86505,2.01963,2.01669,-4.73603,8.71948,4.18410,-2.40721,4.37367,1.96480,1.96480,A,160553.50
4.22992,57.68793792,11.98130732,57.68789883,11.98134650,16:05:53.663383,0.00316,1.91360,0.04871,-0.00990,-0.02599,0.00231,-0.01220,0.11224,-0.01165,1.04383,4.22647,4.86505,2.01963,2.01669,-4.73603,8.71948,4.18410,-2.40721,4.37367,1.96480,1.96480,A,160553.50
4.24009,57.68793792,11.98130732,57.68789883,11.98134650,16:05:53.673555,0.00302,1.81486,0.04758,-0.00990,-0.02843,-0.02304,-0.00900,-0.03605,0.01141,1.03688,4.23665,4.86505,2.01963,2.01669,-4.73603,8.71948,4.18410,-2.40721,4.37367,1.96480,1.96480,A,160553.50
4.25064,57.68793792,11.98130732,57.68789883,11.98134650,16:05:53.684100,0.00317,1.81486,0.04609,-0.00990,-0.00751,-0.01556,-0.00839,-0.08064,-0.02873,0.99924,4.24720,4.86505,2.01963,2.01669,-4.73603,8.71948,4.18410,-2.40721,4.37367,1.96480,1.96480,A,160553.50
4.26103,57.68793792,11.98130732,57.68789883,11.98134650,16:05:53.694503,0.00317,1.81486,0.04479,-0.00990,-0.01010,-0.00609,-0.00228,-0.06124,-0.01476,0.94709,4.25737,4.86505,2.01963,2.01669,-4.73603,8.71948,4.18410,-2.40721,4.37367,1.96480,1.96480,A,160553.50
4.27144,57.68793792,11.98130732,57.68789883,11.98134650,16:05:53.704911,0.00318,1.81486,0.04352,-0.00990,-0.00354,-0.00609,0.00353,-0.07418,-0.01739,0.88901,4.26800,4.86505,2.01963,2.01669,-4.73603,8.71948,4.18410,-2.40721,4.37367,1.96480,1.96480,A,160553.50
4.28176,57.68793792,11.98130732,57.68789883,11.98134650,16:05:53.715228,0.00310,1.81486,0.04184,-0.00990,-0.00140,-0.01632,0.00719,0.03221,-0.04508,0.90774,4.27831,4.86505,2.01963,2.01669,-4.73603,8.71948,4.18410,-2.40721,4.37367,1.96480,1.96480,A,160553.50
4.30959,57.68793792,11.98130732,57.68790033,11.98134500,16:05:53.743095,0.02064,1.81486,0.04062,-0.00990,0.00700,-0.03037,0.01636,0.01372,-0.02525,0.96545,4.28849,4.86505,2.01963,2.01669,-4.73603,8.71948,4.30337,-2.49636,4.54046,2.06169,2.06169,A,160553.60
4.32481,57.68794051,11.98130520,57.68790033,11.98134500,16:05:53.758295,0.00774,1.81486,0.03937,-0.00990,0.00578,0.00292,0.01101,-0.07936,-0.03880,1.07366,4.31914,4.25501,2.02192,2.01898,-4.86170,9.00771,4.30337,-2.49636,4.54046,2.06169,2.06169,A,160553.60
4.33065,57.68794051,11.98130520,57.68790033,11.98134500,16:05:53.764115,0.00318,1.81486,0.03869,-0.00990,-0.00430,0.00780,0.00429,-0.00988,0.01458,1.00497,4.32722,4.25501,2.02192,2.01898,-4.86170,9.00771,4.30337,-2.49636,4.54046,2.06169,2.06169,A,160553.60
4.34103,57.68794051,11.98130520,57.68790033,11.98134500,16:05:53.774502,0.00316,1.81486,0.03707,-0.00990,-0.00736,-0.00365,-0.00273,0.02239,-0.04386,0.94465,4.33737,4.25501,2.02192,2.01898,-4.86170,9.00771,4.30337,-2.49636,4.54046,2.06169,2.06169,A,160553.60
4.35144,57.68794051,11.98130520,57.68790033,11.98134500,16:05:53.784910,0.00318,1.81486,0.03579,-0.00990,-0.01163,-0.01587,-0.01251,-0.02074,-0.02037,0.91701,4.34800,4.25501,2.02192,2.01898,-4.86170,9.00771,4.30337,-2.49636,4.54046,2.06169,2.06169,A,160553.60
4.36190,57.68794051,11.98130520,57.68790033,11.98134500,16:05:53.795365,0.00317,1.81486,0.03542,-0.00990,-0.02477,-0.02152,-0.02091,-0.06978,0.04343,0.94337,4.35846,4.25501,2.02192,2.01898,-4.86170,9.00771,4.30337,-2.49636,4.54046,2.06169,2.06169,A,160553.60
4.37197,57.68794051,11.98130520,57.68790033,11.98134500,16:05:53.805427,0.00299,1.81486,0.03463,-0.00990,-0.01362,-0.01174,-0.02427,-0.05283,0.00952,0.97447,4.36853,4.25501,2.02192,2.01898,-4.86170,9.00771,4.30337,-2.49636,4.54046,2.06169,2.06169,A,160553.60
4.38254,57.68794051,11.98130520,57.68790033,11.98134500,16:05:53.816002,0.00315,1.81486,0.03252,-0.00990,-0.01056,-0.00945,-0.02167,-0.01098,-0.07887,0.98167,4.37910,4.25501,2.02192,2.01898,-4.86170,9.00771,4.30337,-2.49636,4.54046,2.06169,2.06169,A,160553.60
4.39293,57.68794051,11.98130520,57.68790033,11.98134500,16:05:53.826404,0.00316,1.81486,0.03162,-0.00990,-0.01591,-0.00808,-0.01892,-0.04294,0.00140,0.98277,4.38930,4.25501,2.02192,2.01898,-4.86170,9.00771,4.30337,-2.49636,4.54046,2.06169,2.06169,A,160553.60
4.40336,57.68794051,11.98130520,57.68790033,11.98134500,16:05:53.836821,0.00318,1.81486,0.03081,-0.00990,-0.01178,0.00063,-0.01465,-0.03672,0.00433,1.02541,4.39991,4.25501,2.02192,2.01898,-4.86170,9.00771,4.30337,-2.49636,4.54046,2.06169,2.06169,A,160553.60
4.44261,57.68794051,11.98130520,57.68790317,11.98134267,16:05:53.876094,0.03204,1.81486,0.02888,-0.00990,-0.00904,0.00139,-0.00151,-0.05374,-0.07527,1.02334,4.41028,4.25501,2.02192,2.01898,-4.86170,9.00771,4.43638,-2.63505,4.85551,1.98547,1.98547,A,160553.80
4.45999,57.68794302,11.98130314,57.68790317,11.98134267,16:05:53.893463,0.00680,1.81486,0.02868,-0.00990,0.01143,-0.01510,0.00398,0.00634,0.00000,0.99284,4.45459,3.76698,2.01252,2.00958,-4.98441,9.28686,4.43638,-2.63505,4.85551,1.98547,1.98547,A,160553.80
4.46703,57.68794302,11.98130314,57.68790317,11.98134267,16:05:53.900500,0.00345,1.81486,0.02744,-0.00990,0.01357,-0.02259,0.00414,-0.02647,-0.04386,1.01010,4.46357,3.76698,2.01252,2.00958,-4.98441,9.28686,4.43638,-2.63505,4.85551,1.98547,1.98547,A,160553.80
4.47715,57.68794302,11.98130314,57.68790317,11.98134267,16:05:53.910623,0.00318,1.81486,0.02675,-0.00987,0.02105,-0.01892,0.00719,-0.02105,-0.01482,1.02517,4.47350,3.76698,2.01252,2.00958,-4.98441,9.28686,4.43638,-2.63505,4.85551,1.98547,1.98547,A,160553.80
4.48756,57.68794302,11.98130314,57.68790317,11.98134267,16:05:53.921014,0.00318,1.81486,0.02574,-0.00956,0.01952,-0.01724,0.01162,-0.01336,-0.03611,1.01577,4.48411,3.76698,2.01252,2.00958,-4.98441,9.28686,4.43638,-2.63505,4.85551,1.98547,1.98547,A,160553.80
4.49835,57.68794302,11.98130314,57.68790317,11.98134267,16:05:53.931820,0.00319,1.81486,0.02516,-0.00874,0.02258,-0.01831,0.01971,-0.00976,-0.01013,0.98924,4.49491,3.76698,2.01252,2.00958,-4.98441,9.28686,4.43638,-2.63505,4.85551,1.98547,1.98547,A,160553.80
4.50874,57.68794302,11.98130314,57.68790317,11.98134267,16:05:53.942218,0.00318,1.81486,0.02454,-0.00744,0.02441,-0.00395,0.02399,-0.06869,-0.01293,0.94581,4.50509,3.76698,2.01252,2.00958,-4.98441,9.28686,4.43638,-2.63505,4.85551,1.98547,1.98547,A,160553.80
4.51913,57.68794302,11.98130314,57.68790317,11.98134267,16:05:53.952597,0.00317,1.81486,0.02447,-0.00583,0.02578,0.00948,0.02567,-0.10047,0.02129,1.00961,4.51570,3.76698,2.01252,2.00958,-4.98441,9.28686,4.43638,-2.63505,4.85551,1.98547,1.98547,A,160553.80
4.53155,57.68794302,11.98130314,57.68790317,11.98134267,16:05:53.965026,0.00519,1.81486,0.02362,-0.00410,0.02869,0.02796,0.01987,0.00720,-0.03575,1.00674,4.52807,3.76698,2.01252,2.00958,-4.98441,9.28686,4.43638,-2.63505,4.85551,1.98547,1.98547,A,160553.80
4.55960,57.68794302,11.98130314,57.68790450,11.98134117,16:05:53.993078,0.02270,1.81486,0.02290,-0.00300,0.01723,0.02216,0.01513,0.08772,-0.01397,1.00461,4.53643,3.76698,2.01252,2.00958,-4.98441,9.28686,4.55361,-2.72420,5.00377,2.11221,2.11221,A,160553.90
4.57834,57.68794445,11.98130209,57.68790450,11.98134117,16:05:54.011815,0.00726,1.81486,0.02273,-0.00101,0.01357,-0.03587,0.00780,-0.09077,0.00104,1.03206,4.57166,3.37656,2.02418,2.02388,-5.04665,9.44613,4.55361,-2.72420,5.00377,2.11221,2.11221,A,160553.90
4.58432,57.68794445,11.98130209,57.68790450,11.98134117,16:05:54.017986,0.00302,1.81486,0.02172,-0.00099,0.01555,-0.02793,0.00734,-0.10583,-0.03538,1.06902,4.58088,3.37656,2.02418,2.02388,-5.04665,9.44613,4.55361,-2.72420,5.00377,2.11221,2.11221,A,160553.90
4.59487,57.68794445,11.98130209,57.68790450,11.98134117,16:05:54.028332,0.00317,1.81486,0.02100,-0.00099,0.01922,-0.00518,0.01330,-0.02208,-0.01964,1.01919,4.59143,3.37656,2.02418,2.02388,-5.04665,9.44613,4.55361,-2.72420,5.00377,2.11221,2.11221,A,160553.90
4.60527,57.68794445,11.98130209,57.68790450,11.98134117,16:05:54.038736,0.00317,1.81486,0.02073,-0.00099,0.01326,-0.00212,0.01773,0.01189,0.01427,0.96112,4.60181,3.37656,2.02418,2.02388,-5.04665,9.44613,4.55361,-2.72420,5.00377,2.11221,2.11221,A,160553.90
4.61564,57.68794445,11.98130209,57.68790450,11.98134117,16:05:54.049114,0.00297,1.94427,0.02058,-0.00099,0.01754,-0.00609,0.02888,-0.06936,0.01861,0.95343,4.61221,3.37656,2.02418,2.02388,-5.04665,9.44613,4.55361,-2.72420,5.00377,2.11221,2.11221,A,160553.90
4.62627,57.68794445,11.98130209,57.68790450,11.98134117,16:05:54.059736,0.00320,1.94427,0.01979,-0.00099,0.02288,-0.00930,0.03071,-0.04050,-0.02422,0.89225,4.62283,3.37656,2.02418,2.02388,-5.04665,9.44613,4.55361,-2.72420,5.00377,2.11221,2.11221,A,160553.90
4.63631,57.68794445,11.98130209,57.68790450,11.98134117,16:05:54.069985,0.00300,1.94427,0.01954,-0.00099,0.02044,-0.00609,0.03025,-0.12718,0.01043,0.99107,4.63287,3.37656,2.02418,2.02388,-5.04665,9.44613,4.55361,-2.72420,5.00377,2.11221,2.11221,A,160553.90
4.64698,57.68794445,11.98130209,57.68790450,11.98134117,16:05:54.080441,0.00328,1.94427,0.01946,-0.00099,0.01479,0.00108,0.02124,-0.04325,0.02464,1.01492,4.64354,3.37656,2.02418,2.02388,-5.04665,9.44613,4.55361,-2.72420,5.00377,2.11221,2.11221,A,160553.90
4.67570,57.68794445,11.98130209,57.68790583,11.98133967,16:05:54.109215,0.02160,1.94427,0.02016,-0.00099,0.01265,0.00002,0.01116,0.04166,0.08028,1.03224,4.65435,3.37656,2.02418,2.02388,-5.04665,9.44613,4.66950,-2.81336,5.15203,2.11221,2.11221,A,160554.00
4.69450,57.68794545,11.98130130,57.68790583,11.98133967,16:05:54.127965,0.00942,15.61710,0.01942,-0.00099,0.00746,-0.01907,-0.01602,-0.07351,-0.05002,1.00693,4.68780,5.82467,2.03713,2.03684,-5.09379,9.55760,4.66950,-2.81336,5.15203,2.11221,2.11221,A,160554.00
4.70284,57.68794545,11.98130130,57.68790583,11.98133967,16:05:54.136347,0.00710,15.61710,0.01966,-0.00099,-0.00170,-0.00945,-0.01434,-0.10840,0.03398,0.94605,4.69869,5.82467,2.03713,2.03684,-5.09379,9.55760,4.66950,-2.81336,5.15203,2.11221,2.11221,A,160554.00
4.71193,57.68794545,11.98130130,57.68790583,11.98133967,16:05:54.145396,0.00579,15.61710,0.02019,-0.00099,0.00165,-0.00869,-0.00472,-0.06173,0.04904,0.93361,4.70848,5.82467,2.03713,2.03684,-5.09379,9.55760,4.66950,-2.81336,5.15203,2.11221,2.11221,A,160554.00
4.72160,57.68794545,11.98130130,57.68790583,11.98133967,16:05:54.155069,0.00518,15.61710,0.02049,-0.00099,0.00379,-0.00563,0.00536,-0.02550,0.03471,0.94544,4.71813,5.82467,2.03713,2.03684,-5.09379,9.55760,4.66950,-2.81336,5.15203,2.11221,2.11221,A,160554.00
4.73373,57.68794545,11.98130130,57.68790583,11.98133967,16:05:54.167848,0.00691,15.61710,0.02011,-0.00099,0.01815,-0.00457,0.01834,-0.03105,-0.01915,1.01632,4.73011,5.82467,2.03713,2.03684,-5.09379,9.55760,4.66950,-2.81336,5.15203,2.11221,2.11221,A,160554.00
4.74380,57.68794545,11.98130130,57.68790583,11.98133967,16:05:54.177278,0.00676,15.61710,0.01985,-0.00099,0.00379,-0.00273,0.02033,-0.10803,0.00061,1.04340,4.74033,5.82467,2.03713,2.03684,-5.09379,9.55760,4.66950,-2.81336,5.15203,2.11221,2.11221,A,160554.00
4.75437,57.68794545,11.98130130,57.68790583,11.98133967,16:05:54.187860,0.00693,15.61710,0.01985,-0.00113,-0.00415,0.00261,0.01193,-0.07832,0.02105,1.02571,4.75088,5.82467,2.03713,2.03684,-5.09379,9.55760,4.66950,-2.81336,5.15203,2.11221,2.11221,A,160554.00
4.76476,57.68794545,11.98130130,57.68790583,11.98133967,16:05:54.198248,0.00692,15.61710,0.01984,-0.00164,-0.01438,0.00399,-0.00686,0.00226,0.01354,0.97661,4.76106,5.82467,2.03713,2.03684,-5.09379,9.55760,4.66950,-2.81336,5.15203,2.11221,2.11221,A,160554.00
4.79139,57.68794545,11.98130130,57.68790717,11.98133817,16:05:54.224866,0.02315,15.61710,0.01975,-0.00257,-0.01759,-0.01297,-0.02152,-0.10443,-0.00836,0.98808,4.77160,5.82467,2.03713,2.03684,-5.09379,9.55760,4.78657,-2.90252,5.30029,2.11221,2.11221,A,160554.10
4.81018,57.68794856,11.98129842,57.68790717,11.98133817,16:05:54.243655,0.00873,15.61710,0.01996,-0.00631,-0.02874,0.00322,-0.02809,-0.08326,-0.02098,0.97838,4.80372,7.78315,2.04817,2.04630,-5.26481,9.90256,4.78657,-2.90252,5.30029,2.11221,2.11221,A,160554.10
4.81700,57.68794856,11.98129842,57.68790717,11.98133817,16:05:54.250464,0.00533,15.61710,0.02158,-0.00716,-0.04111,0.00735,-0.02152,-0.04331,0.01995,0.98161,4.81332,7.78315,2.04817,2.04630,-5.26481,9.90256,4.78657,-2.90252,5.30029,2.11221,2.11221,A,160554.10
4.82890,57.68794856,11.98129842,57.68790717,11.98133817,16:05:54.262393,0.00653,15.61710,0.02254,-0.00784,-0.03668,0.00063,-0.00930,-0.03715,-0.03483,0.97691,4.82519,7.78315,2.04817,2.04630,-5.26481,9.90256,4.78657,-2.90252,5.30029,2.11221,2.11221,A,160554.10
4.83963,57.68794856,11.98129842,57.68790717,11.98133817,16:05:54.273101,0.00670,15.61710,0.02381,-0.00835,-0.03210,-0.00579,-0.00564,0.05923,-0.02538,1.00388,4.83616,7.78315,2.04817,2.04630,-5.26481,9.90256,4.78657,-2.90252,5.30029,2.11221,2.11221,A,160554.10
4.85022,57.68794856,11.98129842,57.68790717,11.98133817,16:05:54.283743,0.00627,15.61710,0.02526,-0.00866,-0.02370,-0.01113,-0.00350,-0.01854,-0.02739,1.00144,4.84612,7.78315,2.04817,2.04630,-5.26481,9.90256,4.78657,-2.90252,5.30029,2.11221,2.11221,A,160554.10
4.85996,57.68794856,11.98129842,57.68790717,11.98133817,16:05:54.293429,0.00617,15.61710,0.02698,-0.00885,-0.02904,-0.00869,-0.00716,0.03263,-0.01037,0.97984,4.85648,7.78315,2.04817,2.04630,-5.26481,9.90256,4.78657,-2.90252,5.30029,2.11221,2.11221,A,160554.10
4.87124,57.68794856,11.98129842,57.68790717,11.98133817,16:05:54.304712,0.00706,15.61710,0.02865,-0.00891,-0.03362,-0.01373,-0.01068,-0.08217,-0.00628,0.99186,4.86779,7.78315,2.04817,2.04630,-5.26481,9.90256,4.78657,-2.90252,5.30029,2.11221,2.11221,A,160554.10
4.88149,57.68794856,11.98129842,57.68790717,11.98133817,16:05:54.314967,0.00691,15.61710,0.03020,-0.00891,-0.04065,-0.00365,-0.01495,-0.12621,-0.01244,0.97942,4.87802,7.78315,2.04817,2.04630,-5.26481,9.90256,4.78657,-2.90252,5.30029,2.11221,2.11221,A,160554.10
4.90742,57.68794856,11.98129842,57.68790883,11.98133717,16:05:54.340903,0.02249,15.61710,0.03193,-0.00891,-0.04385,0.01025,-0.01770,-0.09022,0.00982,1.02693,4.88730,7.78315,2.04817,2.04630,-5.26481,9.90256,4.90338,-2.96195,5.48562,1.88115,1.88115,A,160554.20
4.92553,57.68795317,11.98129400,57.68790883,11.98133717,16:05:54.359053,0.00801,15.61710,0.03295,-0.00891,-0.03362,0.01284,-0.01465,0.04996,0.00677,1.03480,4.91818,9.34994,2.01926,2.01661,-5.52748,10.41546,4.90338,-2.96195,5.48562,1.88115,1.88115,A,160554.20
4.93497,57.68795317,11.98129400,57.68790883,11.98133717,16:05:54.368438,0.00705,15.61710,0.03402,-0.00891,-0.04401,-0.02136,-0.00869,-0.02257,-0.03215,0.96307,4.93150,9.34994,2.01926,2.01661,-5.52748,10.41546,4.90338,-2.96195,5.48562,1.88115,1.88115,A,160554.20
4.94530,57.68795317,11.98129400,57.68790883,11.98133717,16:05:54.378775,0.00698,15.61710,0.03599,-0.00891,-0.04049,-0.03771,-0.00197,-0.08863,0.01318,0.94263,4.94182,9.34994,2.01926,2.01661,-5.52748,10.41546,4.90338,-2.96195,5.48562,1.88115,1.88115,A,160554.20
4.95564,57.68795317,11.98129400,57.68790883,11.98133717,16:05:54.389119,0.00679,15.61710,0.03727,-0.00891,-0.03240,-0.04229,-0.00136,-0.11090,-0.03117,0.96624,4.95215,9.34994,2.01926,2.01661,-5.52748,10.41546,4.90338,-2.96195,5.48562,1.88115,1.88115,A,160554.20
4.96623,57.68795317,11.98129400,57.68790883,11.98133717,16:05:54.399704,0.00698,15.61710,0.03864,-0.00891,-0.03072,-0.02075,-0.00365,-0.07759,-0.01684,1.00699,4.96277,9.34994,2.01926,2.01661,-5.52748,10.41546,4.90338,-2.96195,5.48562,1.88115,1.88115,A,160554.20
4.97627,57.68795317,11.98129400,57.68790883,11.98133717,16:05:54.409975,0.00662,15.61710,0.03921,-0.00891,-0.02996,0.00322,0.00001,-0.09321,-0.07277,1.00235,4.97278,9.34994,2.01926,2.01661,-5.52748,10.41546,4.90338,-2.96195,5.48562,1.88115,1.88115,A,160554.20
4.98716,57.68795317,11.98129400,57.68790883,11.98133717,16:05:54.420680,0.00711,15.61710,0.04016,-0.00891,-0.02629,0.03422,-0.00716,-0.11309,-0.05374,0.97612,4.98216,9.34994,2.01926,2.01661,-5.52748,10.41546,4.90338,-2.96195,5.48562,1.88115,1.88115,A,160554.20
4.99701,57.68795317,11.98129400,57.68790883,11.98133717,16:05:54.430487,0.00656,15.61710,0.04159,-0.00891,-0.04416,0.06141,-0.00503,-0.09668,-0.01464,0.92470,4.99333,9.34994,2.01926,2.01661,-5.52748,10.41546,4.90338,-2.96195,5.48562,1.88115,1.88115,A,160554.20
5.02599,57.68795317,11.98129400,57.68791000,11.98133583,16:05:54.459484,0.02497,15.61710,0.04408,-0.00891,-0.05073,0.06416,0.00001,-0.04288,0.05466,0.91378,5.00395,9.34994,2.01926,2.01661,-5.52748,10.41546,5.01897,-3.04120,5.61534,2.11919,2.11919,A,160554.30
5.04627,57.68795950,11.98128850,57.68791000,11.98133583,16:05:54.480492,0.01073,15.61710,0.00000,-0.00891,-0.06294,-0.04855,-0.01602,-0.06771,0.02355,1.17498,5.03890,10.60337,2.02702,2.02438,-5.85445,11.11975,5.01897,-3.04120,5.61534,2.11919,2.11919,A,160554.30
5.07272,57.68795950,11.98128850,57.68791000,11.98133583,16:05:54.506246,0.01307,1.81818,-0.00365,-0.00891,-0.06997,-0.00625,-0.02534,-0.07216,-0.12969,1.04963,5.06109,10.60337,2.02702,2.02438,0.05446,0.00000,5.01897,-3.04120,5.61534,2.11919,2.11919,A,160554.30
5.08914,57.68795950,11.98128850,57.68791000,11.98133583,16:05:54.522625,0.00601,1.81818,-0.00560,-0.00902,-0.08906,-0.00426,-0.02473,-0.10224,0.01690,0.89316,5.08403,10.60337,2.02702,2.02438,0.05446,0.00000,5.01897,-3.04120,5.61534,2.11919,2.11919,A,160554.30
5.09763,57.68795950,11.98128850,57.68791000,11.98133583,16:05:54.531101,0.00411,1.81818,-0.00469,-0.00919,-0.07867,0.00551,-0.01755,-0.13030,0.10638,0.88474,5.09306,10.60337,2.02702,2.02438,0.05446,0.00000,5.01897,-3.04120,5.61534,2.11919,2.11919,A,160554.30
5.10796,57.68795950,11.98128850,57.68791000,11.98133583,16:05:54.541434,0.00418,1.81818,-0.00489,-0.00942,-0.06478,0.02216,-0.01388,-0.04996,0.04117,0.91762,5.10357,10.60337,2.02702,2.02438,0.05446,0.00000,5.01897,-3.04120,5.61534,2.11919,2.11919,A,160554.30
5.11834,57.68795950,11.98128850,57.68791000,11.98133583,16:05:54.551815,0.00416,1.81818,-0.00573,-0.00973,-0.06615,0.02140,-0.00839,-0.01354,0.00195,0.96465,5.11394,10.60337,2.02702,2.02438,0.05446,0.00000,5.01897,-3.04120,5.61534,2.11919,2.11919,A,160554.30
5.15986,57.68795950,11.98128850,57.68791283,11.98133367,16:05:54.593337,0.03544,1.81818,-0.00789,-0.01013,-0.06523,0.01391,-0.00915,-0.00708,-0.08613,0.97606,5.12418,10.60337,2.02702,2.02438,0.05446,0.00000,5.15095,-3.16998,5.93040,1.95883,1.95883,A,160554.50
5.18007,57.68796799,11.98128089,57.68791283,11.98133367,16:05:54.613553,0.00875,1.81818,-0.01240,-0.01188,-0.05027,0.00231,-0.02076,0.03849,-0.12377,0.95904,5.17344,8.84634,2.00758,2.00405,-6.30688,12.06372,5.15095,-3.16998,5.93040,1.95883,1.95883,A,160554.50
5.18548,57.68796799,11.98128089,57.68791283,11.98133367,16:05:54.618949,0.00412,1.81818,-0.01374,-0.01191,-0.06035,-0.01632,-0.02076,0.02532,-0.05398,0.98893,5.18088,8.84634,2.00758,2.00405,-6.30688,12.06372,5.15095,-3.16998,5.93040,1.95883,1.95883,A,160554.50
5.19594,57.68796799,11.98128089,57.68791283,11.98133367,16:05:54.629418,0.00419,1.81818,-0.01582,-0.01191,-0.05271,-0.02854,-0.02137,0.00067,-0.09858,1.00199,5.19152,8.84634,2.00758,2.00405,-6.30688,12.06372,5.15095,-3.16998,5.93040,1.95883,1.95883,A,160554.50
5.20635,57.68796799,11.98128089,57.68791283,11.98133367,16:05:54.639827,0.00421,1.81818,-0.01760,-0.01191,-0.05195,-0.02075,-0.02503,-0.12566,-0.07997,0.97838,5.20191,8.84634,2.00758,2.00405,-6.30688,12.06372,5.15095,-3.16998,5.93040,1.95883,1.95883,A,160554.50
5.21690,57.68796799,11.98128089,57.68791283,11.98133367,16:05:54.650381,0.00421,1.81818,-0.01851,-0.01191,-0.02614,0.00918,-0.02228,-0.07454,-0.03886,0.89627,5.21225,8.84634,2.00758,2.00405,-6.30688,12.06372,5.15095,-3.16998,5.93040,1.95883,1.95883,A,160554.50
5.22831,57.68796799,11.98128089,57.68791283,11.98133367,16:05:54.662013,0.00490,1.81818,-0.01961,-0.01191,-0.01896,0.02964,-0.01373,-0.01476,-0.05325,0.88218,5.22386,8.84634,2.00758,2.00405,-6.30688,12.06372,5.15095,-3.16998,5.93040,1.95883,1.95883,A,160554.50
5.23787,57.68796799,11.98128089,57.68791283,11.98133367,16:05:54.671337,0.00407,1.81818,-0.01994,-0.01191,-0.01346,0.02124,0.00001,0.00720,-0.01452,0.93836,5.23333,8.84634,2.00758,2.00405,-6.30688,12.06372,5.15095,-3.16998,5.93040,1.95883,1.95883,A,160554.50
5.25159,57.68796799,11.98128089,57.68791283,11.98133367,16:05:54.685064,0.00739,1.81818,-0.02070,-0.01191,-0.00323,0.00292,0.00948,0.00836,-0.04972,0.98155,5.24713,8.84634,2.00758,2.00405,-6.30688,12.06372,5.15095,-3.16998,5.93040,1.95883,1.95883,A,160554.50
5.27647,57.68796799,11.98128089,57.68791400,11.98133217,16:05:54.710099,0.02189,1.81818,-0.02063,-0.01191,-0.00583,-0.00319,0.01956,-0.05319,0.00500,1.02992,5.25438,8.84634,2.00758,2.00405,-6.30688,12.06372,5.26974,-3.25914,6.06012,2.17292,2.17292,A,160554.60
5.29477,57.68797301,11.98127677,57.68791400,11.98133217,16:05:54.728242,0.00800,1.81818,-0.02173,-0.01191,0.00257,-0.02931,0.00689,0.05106,-0.08400,1.02309,5.28805,7.44070,2.02372,2.02019,-6.55162,12.62208,5.26974,-3.25914,6.06012,2.17292,2.17292,A,160554.60
5.30117,57.68797301,11.98127677,57.68791400,11.98133217,16:05:54.734642,0.00417,1.81818,-0.02236,-0.01191,-0.00384,-0.03832,-0.00304,-0.04685,-0.04233,0.94477,5.29657,7.44070,2.02372,2.02019,-6.55162,12.62208,5.26974,-3.25914,6.06012,2.17292,2.17292,A,160554.60
5.31152,57.68797301,11.98127677,57.68791400,11.98133217,16:05:54.744990,0.00413,1.81818,-0.02262,-0.01191,0.00211,-0.02915,-0.00991,-0.06503,-0.02111,0.89231,5.30712,7.44070,2.02372,2.02019,-6.55162,12.62208,5.26974,-3.25914,6.06012,2.17292,2.17292,A,160554.60
5.32255,57.68797301,11.98127677,57.68791400,11.98133217,16:05:54.756027,0.00454,1.81818,-0.02263,-0.01191,0.00227,-0.01877,-0.02320,-0.16159,-0.00653,0.83527,5.31811,7.44070,2.02372,2.02019,-6.55162,12.62208,5.26974,-3.25914,6.06012,2.17292,2.17292,A,160554.60
5.33381,57.68797301,11.98127677,57.68791400,11.98133217,16:05:54.767285,0.00541,1.81818,-0.02217,-0.01191,0.00532,0.02338,-0.01678,-0.21551,0.01861,0.87864,5.32915,7.44070,2.02372,2.02019,-6.55162,12.62208,5.26974,-3.25914,6.06012,2.17292,2.17292,A,160554.60
5.34288,57.68797301,11.98127677,57.68791400,11.98133217,16:05:54.776353,0.00408,1.81818,-0.02278,-0.01191,0.00685,0.07607,-0.01205,-0.10797,-0.04325,0.86693,5.33854,7.44070,2.02372,2.02019,-6.55162,12.62208,5.26974,-3.25914,6.06012,2.17292,2.17292,A,160554.60
5.35327,57.68797301,11.98127677,57.68791400,11.98133217,16:05:54.786743,0.00426,1.81818,-0.02277,-0.01191,0.00456,0.08966,-0.00411,0.01684,-0.00732,0.92738,5.34858,7.44070,2.02372,2.02019,-6.55162,12.62208,5.26974,-3.25914,6.06012,2.17292,2.17292,A,160554.60
5.36355,57.68797301,11.98127677,57.68791400,11.98133217,16:05:54.797024,0.00415,1.81818,-0.02343,-0.01191,0.00303,0.08019,0.00582,0.06320,-0.05411,1.05597,5.35913,7.44070,2.02372,2.02019,-6.55162,12.62208,5.26974,-3.25914,6.06012,2.17292,2.17292,A,160554.60
5.39085,57.68797301,11.98127677,57.68791517,11.98133067,16:05:54.824331,0.02105,1.81818,-0.02311,-0.01191,-0.00827,0.02781,0.01361,0.07716,0.02489,1.15430,5.36933,7.44070,2.02372,2.02019,-6.55162,12.62208,5.38474,-3.34830,6.18985,2.17292,2.17292,A,160554.70
5.40705,57.68797640,11.98127380,57.68791517,11.98133067,16:05:54.840916,0.00702,1.81818,-0.02257,-0.01191,0.00868,-0.05511,-0.00273,-0.04599,0.01598,1.16431,5.39984,6.31620,2.03909,2.03555,-6.72816,12.99858,5.38474,-3.34830,6.18985,2.17292,2.17292,A,160554.70
5.41446,57.68797640,11.98127380,57.68791517,11.98133067,16:05:54.847935,0.00404,1.81818,-0.02402,-0.01191,0.02334,-0.03679,-0.00869,-0.02733,-0.11352,0.95990,5.41013,6.31620,2.03909,2.03555,-6.72816,12.99858,5.38474,-3.34830,6.18985,2.17292,2.17292,A,160554.70
5.42529,57.68797640,11.98127380,57.68791517,11.98133067,16:05:54.858762,0.00436,1.81818,-0.02569,-0.01177,0.00944,-0.01388,-0.01327,-0.15287,-0.10962,0.87468,5.42061,6.31620,2.03909,2.03555,-6.72816,12.99858,5.38474,-3.34830,6.18985,2.17292,2.17292,A,160554.70
5.43563,57.68797640,11.98127380,57.68791517,11.98133067,16:05:54.869094,0.00431,1.81818,-0.02782,-0.01126,0.00654,0.01880,0.00169,-0.14176,-0.12352,0.78769,5.43119,6.31620,2.03909,2.03555,-6.72816,12.99858,5.38474,-3.34830,6.18985,2.17292,2.17292,A,160554.70
5.44589,57.68797640,11.98127380,57.68791517,11.98133067,16:05:54.879368,0.00418,1.81818,-0.02696,-0.01050,-0.00003,0.01743,0.01590,-0.02043,0.03581,0.75884,5.44125,6.31620,2.03909,2.03555,-6.72816,12.99858,5.38474,-3.34830,6.18985,2.17292,2.17292,A,160554.70
5.45627,57.68797640,11.98127380,57.68791517,11.98133067,16:05:54.889970,0.00417,1.81818,-0.02554,-0.00956,0.00120,0.00536,0.02567,0.06570,0.06972,0.82191,5.45184,6.31620,2.03909,2.03555,-6.72816,12.99858,5.38474,-3.34830,6.18985,2.17292,2.17292,A,160554.70
5.46652,57.68797640,11.98127380,57.68791517,11.98133067,16:05:54.899994,0.00421,1.81818,-0.02491,-0.00877,0.00669,-0.01907,0.02811,-0.00616,0.03026,1.00199,5.46208,6.31620,2.03909,2.03555,-6.72816,12.99858,5.38474,-3.34830,6.18985,2.17292,2.17292,A,160554.70
5.47706,57.68797640,11.98127380,57.68791517,11.98133067,16:05:54.910537,0.00423,1.81818,-0.02341,-0.00818,0.01204,-0.01464,0.02521,0.04355,0.10858,1.25904,5.47239,6.31620,2.03909,2.03555,-6.72816,12.99858,5.38474,-3.34830,6.18985,2.17292,2.17292,A,160554.70
5.50561,57.68797640,11.98127380,57.68791667,11.98132967,16:05:54.939098,0.02238,1.81818,-0.02340,-0.00784,0.01265,-0.01984,0.01376,-0.03379,-0.01598,1.30528,5.48295,6.31620,2.03909,2.03555,-6.72816,12.99858,5.49853,-3.40773,6.35664,1.91312,1.91312,A,160554.80
5.52422,57.68797898,11.98127138,57.68791667,11.98132967,16:05:54.957962,0.00816,1.67693,-0.02330,-0.00778,-0.02446,-0.00762,-0.00365,-0.03154,0.04770,0.82521,5.51778,5.38835,2.01380,2.01149,-6.87238,13.28525,5.49853,-3.40773,6.35664,1.91312,1.91312,A,160554.80
5.53032,57.68797898,11.98127138,57.68791667,11.98132967,16:05:54.963790,0.00408,1.67693,-0.02327,-0.00775,-0.00888,0.00108,0.00108,-0.03764,0.00134,0.69363,5.52599,5.38835,2.01380,2.01149,-6.87238,13.28525,5.49853,-3.40773,6.35664,1.91312,1.91312,A,160554.80
5.54101,57.68797898,11.98127138,57.68791667,11.98132967,16:05:54.974481,0.00423,1.67693,-0.02276,-0.00767,-0.01331,-0.00212,-0.00075,-0.05331,0.02922,0.75524,5.53633,5.38835,2.01380,2.01149,-6.87238,13.28525,5.49853,-3.40773,6.35664,1.91312,1.91312,A,160554.80
5.55141,57.68797898,11.98127138,57.68791667,11.98132967,16:05:54.984887,0.00425,1.67693,-0.02290,-0.00744,-0.01301,0.00246,0.00582,-0.05112,-0.00360,0.80599,5.54698,5.38835,2.01380,2.01149,-6.87238,13.28525,5.49853,-3.40773,6.35664,1.91312,1.91312,A,160554.80
5.56176,57.68797898,11.98127138,57.68791667,11.98132967,16:05:54.995237,0.00421,1.67693,-0.02273,-0.00713,-0.01514,0.00704,0.01330,-0.06399,0.01751,0.97240,5.55708,5.38835,2.01380,2.01149,-6.87238,13.28525,5.49853,-3.40773,6.35664,1.91312,1.91312,A,160554.80
5.57346,57.68797898,11.98127138,57.68791667,11.98132967,16:05:55.006937,0.00546,1.67693,-0.02331,-0.00670,-0.00476,0.01941,0.02170,0.02068,-0.04331,1.12582,5.56874,5.38835,2.01380,2.01149,-6.87238,13.28525,5.49853,-3.40773,6.35664,1.91312,1.91312,A,160554.80
5.58247,57.68797898,11.98127138,57.68791667,11.98132967,16:05:55.015945,0.00407,1.67693,-0.02350,-0.00639,-0.01194,0.01926,0.02537,0.00866,-0.01153,1.25934,5.57813,5.38835,2.01380,2.01149,-6.87238,13.28525,5.49853,-3.40773,6.35664,1.91312,1.91312,A,160554.80
5.59322,57.68797898,11.98127138,57.68791667,11.98132967,16:05:55.026699,0.00431,1.67693,-0.02391,-0.00614,-0.01392,0.01911,0.02124,0.01135,-0.02702,1.28539,5.58846,5.38835,2.01380,2.01149,-6.87238,13.28525,5.49853,-3.40773,6.35664,1.91312,1.91312,A,160554.80
5.62152,57.68797898,11.98127138,57.68791800,11.98132850,16:05:55.055007,0.02221,1.67693,-0.02440,-0.00602,-0.02522,0.02201,0.01590,-0.06332,-0.02464,1.25928,5.59905,5.38835,2.01380,2.01149,-6.87238,13.28525,5.61417,-3.47708,6.50490,2.00828,2.00828,A,160554.90
5.64043,57.68798068,11.98127004,57.68791800,11.98132850,16:05:55.074122,0.00754,1.67693,-0.02464,-0.00577,-0.03744,-0.02045,0.00383,-0.04630,0.04447,0.69900,5.63350,4.64606,2.00952,2.00780,-6.95184,13.47467,5.61417,-3.47708,6.50490,2.00828,2.00828,A,160554.90
5.64737,57.68798068,11.98127004,57.68791800,11.98132850,16:05:55.080831,0.00409,1.67693,-0.02594,-0.00543,-0.02477,-0.02931,0.00536,-0.03312,-0.05307,0.68997,5.64302,4.64606,2.00952,2.00780,-6.95184,13.47467,5.61417,-3.47708,6.50490,2.00828,2.00828,A,160554.90
5.65787,57.68798068,11.98127004,57.68791800,11.98132850,16:05:55.091341,0.00420,1.67693,-0.02769,-0.00489,-0.02568,-0.02595,0.00582,-0.09723,-0.08613,0.80947,5.65319,4.64606,2.00952,2.00780,-6.95184,13.47467,5.61417,-3.47708,6.50490,2.00828,2.00828,A,160554.90
5.66823,57.68798068,11.98127004,57.68791800,11.98132850,16:05:55.102245,0.00417,1.67693,-0.02893,-0.00413,-0.02874,-0.01556,0.01254,-0.12993,-0.06600,0.93354,5.66379,4.64606,2.00952,2.00780,-6.95184,13.47467,5.61417,-3.47708,6.50490,2.00828,2.00828,A,160554.90
5.67862,57.68798068,11.98127004,57.68791800,11.98132850,16:05:55.112862,0.00416,1.67693,-0.02986,-0.00331,-0.02049,0.01804,0.01101,-0.10803,-0.06399,1.13210,5.67417,4.64606,2.00952,2.00780,-6.95184,13.47467,5.61417,-3.47708,6.50490,2.00828,2.00828,A,160554.90
5.68923,57.68798068,11.98127004,57.68791800,11.98132850,16:05:55.122711,0.00431,1.67693,-0.03015,-0.00249,-0.02400,0.03896,0.01636,0.01921,-0.01488,1.22549,5.68447,4.64606,2.00952,2.00780,-6.95184,13.47467,5.61417,-3.47708,6.50490,2.00828,2.00828,A,160554.90
5.69947,57.68798068,11.98127004,57.68791800,11.98132850,16:05:55.132937,0.00416,1.67693,-0.02910,-0.00181,-0.02660,0.03254,0.02109,0.12291,0.09986,1.26002,5.69505,4.64606,2.00952,2.00780,-6.95184,13.47467,5.61417,-3.47708,6.50490,2.00828,2.00828,A,160554.90
5.70992,57.68798068,11.98127004,57.68791800,11.98132850,16:05:55.143393,0.00421,1.67693,-0.02968,-0.00133,-0.00949,0.00628,0.02552,-0.03288,-0.04935,1.20249,5.70523,4.64606,2.00952,2.00780,-6.95184,13.47467,5.61417,-3.47708,6.50490,2.00828,2.00828,A,160554.90
5.75127,57.68798068,11.98127004,57.68792083,11.98132600,16:05:55.184757,0.03517,1.67693,-0.03097,-0.00110,-0.01621,0.01086,0.01987,0.02855,-0.08552,1.02651,5.71641,4.64606,2.00952,2.00780,-6.95184,13.47467,5.74407,-3.62567,6.81996,2.01150,2.01150,A,160555.10
5.76919,57.68798226,11.98126884,57.68792083,11.98132600,16:05:55.202665,0.00847,1.67693,-0.03169,-0.00107,-0.00919,-0.00289,0.00734,-0.09455,-0.02824,0.94648,5.76265,4.05224,2.00722,2.00690,-7.02288,13.65004,5.74407,-3.62567,6.81996,2.01150,2.01150,A,160555.10
5.77509,57.68798226,11.98126884,57.68792083,11.98132600,16:05:55.208554,0.00418,1.67693,-0.03299,-0.00107,-0.00736,0.01315,0.01009,-0.06405,-0.09424,1.00229,5.77076,4.05224,2.00722,2.00690,-7.02288,13.65004,5.74407,-3.62567,6.81996,2.01150,2.01150,A,160555.10
5.78540,57.68798226,11.98126884,57.68792083,11.98132600,16:05:55.218881,0.00427,1.67693,-0.03409,-0.00107,-0.02538,0.03071,0.01269,-0.00958,-0.07070,1.02029,5.78071,4.05224,2.00722,2.00690,-7.02288,13.65004,5.74407,-3.62567,6.81996,2.01150,2.01150,A,160555.10
5.79571,57.68798226,11.98126884,57.68792083,11.98132600,16:05:55.229171,0.00418,1.67693,-0.03509,-0.00107,-0.03240,0.02262,0.02277,0.04398,-0.05905,1.03139,5.79128,4.05224,2.00722,2.00690,-7.02288,13.65004,5.74407,-3.62567,6.81996,2.01150,2.01150,A,160555.10
5.80611,57.68798226,11.98126884,57.68792083,11.98132600,16:05:55.239585,0.00419,1.67693,-0.03597,-0.00107,-0.04309,0.00154,0.02918,-0.02489,-0.04612,1.04133,5.80146,4.05224,2.00722,2.00690,-7.02288,13.65004,5.74407,-3.62567,6.81996,2.01150,2.01150,A,160555.10
5.81646,57.68798226,11.98126884,57.68792083,11.98132600,16:05:55.250165,0.00415,1.67693,-0.03567,-0.00107,-0.03622,-0.01770,0.02689,0.03306,0.03019,1.01272,5.81204,4.05224,2.00722,2.00690,-7.02288,13.65004,5.74407,-3.62567,6.81996,2.01150,2.01150,A,160555.10
5.82706,57.68798226,11.98126884,57.68792083,11.98132600,16:05:55.260529,0.00436,1.67693,-0.03604,-0.00107,-0.02996,-0.01190,0.01712,-0.09193,-0.02007,1.08257,5.82262,4.05224,2.00722,2.00690,-7.02288,13.65004,5.74407,-3.62567,6.81996,2.01150,2.01150,A,160555.10
5.83725,57.68798226,11.98126884,57.68792083,11.98132600,16:05:55.270725,0.00426,1.67693,-0.03628,-0.00107,-0.02721,-0.00227,0.00826,0.01055,-0.01434,1.05304,5.83255,4.05224,2.00722,2.00690,-7.02288,13.65004,5.74407,-3.62567,6.81996,2.01150,2.01150,A,160555.10
5.86528,57.68798226,11.98126884,57.68792233,11.98132500,16:05:55.298769,0.02191,1.67693,-0.03726,-0.00107,-0.03271,-0.00258,0.00307,-0.00244,-0.05972,1.01717,5.84310,4.05224,2.00722,2.00690,-7.02288,13.65004,5.85795,-3.68511,6.98675,1.91312,1.91312,A,160555.20
5.88507,57.68798284,11.98126853,57.68792233,11.98132500,16:05:55.318552,0.00839,1.67693,-0.03843,-0.00034,-0.02293,0.04140,0.01559,0.00744,-0.03758,0.92195,5.87858,3.57718,1.99273,1.99263,-7.04151,13.71494,5.85795,-3.68511,6.98675,1.91312,1.91312,A,160555.20
5.89157,57.68798284,11.98126853,57.68792233,11.98132500,16:05:55.325046,0.00450,1.67693,-0.03846,0.00003,-0.02996,0.02521,0.02857,0.16330,-0.00171,0.83954,5.88724,3.57718,1.99273,1.99263,-7.04151,13.71494,5.85795,-3.68511,6.98675,1.91312,1.91312,A,160555.20
5.90157,57.68798284,11.98126853,57.68792233,11.98132500,16:05:55.335045,0.00427,1.85932,-0.03873,0.00049,-0.02263,-0.01663,0.03193,0.14933,-0.01610,0.76567,5.89685,3.57718,1.99273,1.99263,-7.04151,13.71494,5.85795,-3.68511,6.98675,1.91312,1.91312,A,160555.20
5.91187,57.68798284,11.98126853,57.68792233,11.98132500,16:05:55.345327,0.00417,1.85932,-0.03881,0.00091,-0.01637,-0.06412,0.03438,0.06429,-0.00915,0.80721,5.90744,3.57718,1.99273,1.99263,-7.04151,13.71494,5.85795,-3.68511,6.98675,1.91312,1.91312,A,160555.20
5.92224,57.68798284,11.98126853,57.68792233,11.98132500,16:05:55.355708,0.00415,1.85932,-0.03904,0.00122,-0.01163,-0.06642,0.02918,-0.24613,-0.02519,1.00784,5.91780,3.57718,1.99273,1.99263,-7.04151,13.71494,5.85795,-3.68511,6.98675,1.91312,1.91312,A,160555.20
5.93291,57.68798284,11.98126853,57.68792233,11.98132500,16:05:55.366387,0.00444,1.85932,-0.04036,0.00150,-0.00919,-0.02121,0.02201,-0.25650,-0.12029,1.21207,5.92825,3.57718,1.99273,1.99263,-7.04151,13.71494,5.85795,-3.68511,6.98675,1.91312,1.91312,A,160555.20
5.94834,57.68798284,11.98126853,57.68792233,11.98132500,16:05:55.382046,0.00948,15.22818,-0.04133,0.00190,-0.02309,0.07607,0.01712,-0.08668,-0.03221,1.30278,5.94389,3.57718,1.99273,1.99263,-7.04151,13.71494,5.85795,-3.68511,6.98675,1.91312,1.91312,A,160555.20
5.95776,57.68798284,11.98126853,57.68792233,11.98132500,16:05:55.391232,0.00793,15.22818,-0.04246,0.00218,-0.02446,0.08034,0.01941,0.19654,-0.04203,1.06238,5.95316,3.57718,1.99273,1.99263,-7.04151,13.71494,5.85795,-3.68511,6.98675,1.91312,1.91312,A,160555.20
5.98570,57.68798284,11.98126853,57.68792350,11.98132350,16:05:55.419178,0.02547,15.22818,-0.04273,0.00247,-0.01973,0.03942,0.02369,0.14536,0.02745,0.88840,5.96354,3.57718,1.99273,1.99263,-7.04151,13.71494,5.97893,-3.77426,7.11648,2.17292,2.17292,A,160555.30
6.00719,57.68798323,11.98126846,57.68792350,11.98132350,16:05:55.440663,0.00981,15.22818,-0.04569,0.00261,-0.04355,-0.10154,0.01681,-0.02031,-0.01677,0.61701,6.00068,5.90738,2.01953,2.02031,-7.04551,13.75795,5.97893,-3.77426,7.11648,2.17292,2.17292,A,160555.30
6.01606,57.68798323,11.98126846,57.68792350,11.98132350,16:05:55.449523,0.00785,15.22818,-0.04662,0.00261,-0.04202,-0.08688,0.01574,-0.24912,-0.00360,1.00247,6.01171,5.90738,2.01953,2.02031,-7.04551,13.75795,5.97893,-3.77426,7.11648,2.17292,2.17292,A,160555.30
