Time,lat_estimated,lon_estimated,latitude,longitude,RealTime,CalculationTime,MeasuredVelocity,FilteredVelocity,Roll,SteeringAngle,RollRate,gy,gz,ax,ay,az,imu_read_timing,v_estimated,yaw_estimated,heading_estimated,x_estimated,y_estimated,GPS_timestamp,x_GPS,y_GPS,theta_GPS,theta_GPS_noUnwrap,status,NMEA timestamp
0.05043,57.68783300,11.98137833,57.68783300,11.98137833,18:25:02.690770,0.05038,0.00000,0.00000,-0.00043,0.01780,0.01142,0.00424,0.00677,0.00329,-0.01525,1.01791,0.00001,0.00000,-0.00528,0.00000,0.00000,0.00000,0.01656,0.00000,0.00000,0.00000,0.00000,A,172432.20
0.06098,57.68783300,11.98137833,57.68783300,11.98137833,18:25:02.701544,0.00558,0.00000,0.00000,0.00011,0.01780,0.01814,0.00470,0.00295,0.00110,-0.00823,0.96917,0.05438,0.00000,-0.00528,0.00000,0.00000,0.00000,0.01656,0.00000,0.00000,0.00000,0.00000,A,172432.20
0.06991,57.68783300,11.98137833,57.68783300,11.98137833,18:25:02.710254,0.00427,0.00000,0.00000,-0.00010,0.01780,0.01997,-0.00064,0.00218,0.04349,-0.00579,0.97222,0.06435,0.00000,-0.00528,0.00000,0.00000,0.00000,0.01656,0.00000,0.00000,0.00000,0.00000,A,172432.20
0.07919,57.68783300,11.98137833,57.68783300,11.98137833,18:25:02.719504,0.00316,0.00000,0.00000,-0.00045,0.01780,0.01707,-0.00461,0.00188,0.02666,-0.01379,0.98320,0.07492,0.00000,-0.00528,0.00000,0.00000,0.00000,0.01656,0.00000,0.00000,0.00000,0.00000,A,172432.20
0.08958,57.68783300,11.98137833,57.68783300,11.98137833,18:25:02.729909,0.00318,0.00000,0.00000,-0.00068,0.01780,0.02624,-0.01133,0.00417,-0.00933,-0.01196,1.00156,0.08509,0.00000,-0.00528,0.00000,0.00000,0.00000,0.01656,0.00000,0.00000,0.00000,0.00000,A,172432.20
0.10047,57.68783300,11.98137833,57.68783300,11.98137833,18:25:02.740794,0.00367,0.00000,0.00000,-0.00098,0.01780,0.02013,-0.00629,0.00127,-0.04447,-0.01525,1.02419,0.09619,0.00000,-0.00528,0.00000,0.00000,0.00000,0.01656,0.00000,0.00000,0.00000,0.00000,A,172432.20
0.11047,57.68783300,11.98137833,57.68783300,11.98137833,18:25:02.750782,0.00326,0.00000,0.00000,-0.00129,0.01780,0.02563,0.00516,0.00432,-0.04209,-0.01787,1.02748,0.10618,0.00000,-0.00528,0.00000,0.00000,0.00000,0.01656,0.00000,0.00000,0.00000,0.00000,A,172432.20
0.14707,57.68783300,11.98137833,57.68783400,11.98137733,18:25:02.787411,0.02950,0.00000,0.00000,-0.00147,0.01780,0.01799,0.00837,0.00722,0.01196,-0.00384,1.01736,0.11628,0.00000,-0.00528,0.00000,0.00000,0.00000,0.14337,-0.05944,0.11119,2.06169,2.06169,A,172432.40
0.15775,57.68783305,11.98137828,57.68783400,11.98137733,18:25:02.798075,0.00557,0.00000,0.00000,-0.00112,0.01775,0.02471,-0.01622,0.00279,-0.04404,-0.01421,1.00717,0.15127,0.00000,0.30397,0.30924,-0.00297,0.00556,0.14337,-0.05944,0.11119,2.06169,2.06169,A,172432.40
0.16571,57.68783305,11.98137828,57.68783400,11.98137733,18:25:02.806033,0.00313,0.00000,0.00000,-0.00122,0.01766,0.02608,-0.01439,0.00142,-0.05173,-0.00384,0.99631,0.16122,0.00000,0.30397,0.30924,-0.00297,0.00556,0.14337,-0.05944,0.11119,2.06169,2.06169,A,172432.40
0.17611,57.68783305,11.98137828,57.68783400,11.98137733,18:25:02.816420,0.00314,0.00000,0.00000,-0.00148,0.01749,0.02639,0.00012,-0.00225,-0.02178,-0.01531,0.96752,0.17184,0.00000,0.30397,0.30924,-0.00297,0.00556,0.14337,-0.05944,0.11119,2.06169,2.06169,A,172432.40
0.18654,57.68783305,11.98137828,57.68783400,11.98137733,18:25:02.826878,0.00318,0.00000,0.00000,-0.00148,0.01726,0.02165,-0.00354,-0.00347,0.00464,0.00506,0.97344,0.18211,0.00000,0.30397,0.30924,-0.00297,0.00556,0.14337,-0.05944,0.11119,2.06169,2.06169,A,172432.40
0.19658,57.68783305,11.98137828,57.68783400,11.98137733,18:25:02.836896,0.00297,0.00000,0.00000,-0.00159,0.01707,0.01997,-0.01011,-0.00179,-0.02080,-0.00110,0.99924,0.19230,0.00000,0.30397,0.30924,-0.00297,0.00556,0.14337,-0.05944,0.11119,2.06169,2.06169,A,172432.40
0.20755,57.68783305,11.98137828,57.68783400,11.98137733,18:25:02.847870,0.00330,0.00000,0.00000,-0.00172,0.01692,0.02211,-0.00095,0.00249,-0.05148,-0.00518,1.02559,0.20328,0.00000,0.30397,0.30924,-0.00297,0.00556,0.14337,-0.05944,0.11119,2.06169,2.06169,A,172432.40
0.21778,57.68783305,11.98137828,57.68783400,11.98137733,18:25:02.858103,0.00315,0.00000,0.00000,-0.00190,0.01684,0.02501,0.00150,0.00234,-0.03062,-0.00994,1.03145,0.21330,0.00000,0.30397,0.30924,-0.00297,0.00556,0.14337,-0.05944,0.11119,2.06169,2.06169,A,172432.40
0.22819,57.68783305,11.98137828,57.68783400,11.98137733,18:25:02.868507,0.00315,0.00000,0.00000,-0.00183,0.01678,0.02593,0.00256,0.00646,-0.01653,0.00622,1.02346,0.22392,0.00000,0.30397,0.30924,-0.00297,0.00556,0.14337,-0.05944,0.11119,2.06169,2.06169,A,172432.40
0.23874,57.68783305,11.98137828,57.68783400,11.98137733,18:25:02.879056,0.00329,0.00000,0.00000,-0.00168,0.01673,0.02868,-0.00049,0.00570,0.01921,0.00964,1.00260,0.23446,0.00000,0.30397,0.30924,-0.00297,0.00556,0.14337,-0.05944,0.11119,2.06169,2.06169,A,172432.40
0.26418,57.68783305,11.98137828,57.68783467,11.98137650,18:25:02.904516,0.01851,0.00000,0.00000,-0.00165,0.01664,0.02837,-0.00431,0.00799,-0.01000,0.00275,0.99497,0.24439,0.00000,0.30397,0.30924,-0.00297,0.00556,0.26047,-0.10897,0.18532,2.15984,2.15984,A,172432.50
0.27470,57.68783313,11.98137819,57.68783467,11.98137650,18:25:02.915872,0.00559,0.00000,0.00000,-0.00139,0.01633,0.03036,0.00867,0.00768,-0.05350,-0.01068,0.98875,0.26800,0.00000,0.58162,0.58647,-0.00827,0.01455,0.26047,-0.10897,0.18532,2.15984,2.15984,A,172432.50
0.28342,57.68783313,11.98137819,57.68783467,11.98137650,18:25:02.923735,0.00391,0.00000,0.00000,-0.00150,0.01613,0.02165,0.01325,0.00432,-0.01244,-0.00342,0.97960,0.27913,0.00000,0.58162,0.58647,-0.00827,0.01455,0.26047,-0.10897,0.18532,2.15984,2.15984,A,172432.50
0.29274,57.68783313,11.98137819,57.68783467,11.98137650,18:25:02.933048,0.00300,0.00000,0.00000,-0.00171,0.01596,0.02654,0.00928,0.00524,0.02647,-0.01037,0.96783,0.28846,0.00000,0.58162,0.58647,-0.00827,0.01455,0.26047,-0.10897,0.18532,2.15984,2.15984,A,172432.50
0.30325,57.68783313,11.98137819,57.68783467,11.98137650,18:25:02.943565,0.00312,0.00000,0.00000,-0.00161,0.01579,0.01784,-0.00034,0.00432,0.02556,0.01336,0.97185,0.29898,0.00000,0.58162,0.58647,-0.00827,0.01455,0.26047,-0.10897,0.18532,2.15984,2.15984,A,172432.50
0.31382,57.68783313,11.98137819,57.68783467,11.98137650,18:25:02.954142,0.00330,0.00000,0.00000,-0.00180,0.01568,0.02257,-0.01194,-0.00011,-0.00500,-0.00823,0.98356,0.30920,0.00000,0.58162,0.58647,-0.00827,0.01455,0.26047,-0.10897,0.18532,2.15984,2.15984,A,172432.50
0.32421,57.68783313,11.98137819,57.68783467,11.98137650,18:25:02.964516,0.00328,0.00000,0.00000,-0.00203,0.01557,0.02059,-0.01286,0.00127,-0.04776,-0.01025,0.99192,0.31993,0.00000,0.58162,0.58647,-0.00827,0.01455,0.26047,-0.10897,0.18532,2.15984,2.15984,A,172432.50
0.33450,57.68783313,11.98137819,57.68783467,11.98137650,18:25:02.974821,0.00318,0.00000,0.00000,-0.00229,0.01554,0.02471,-0.00706,-0.00209,-0.01501,-0.01470,0.98173,0.33022,0.00000,0.58162,0.58647,-0.00827,0.01455,0.26047,-0.10897,0.18532,2.15984,2.15984,A,172432.50
0.34453,57.68783313,11.98137819,57.68783467,11.98137650,18:25:02.984845,0.00295,0.00000,0.00000,-0.00241,0.01551,0.01692,-0.00461,0.00264,0.00281,-0.00079,0.98076,0.34027,0.00000,0.58162,0.58647,-0.00827,0.01455,0.26047,-0.10897,0.18532,2.15984,2.15984,A,172432.50
0.35513,57.68783313,11.98137819,57.68783467,11.98137650,18:25:02.995444,0.00314,0.00000,0.00000,-0.00258,0.01545,0.01677,-0.01011,0.00127,0.02220,-0.00409,0.97984,0.35086,0.00000,0.58162,0.58647,-0.00827,0.01455,0.26047,-0.10897,0.18532,2.15984,2.15984,A,172432.50
0.38045,57.68783313,11.98137819,57.68783517,11.98137633,18:25:03.020777,0.01807,0.00000,0.00000,-0.00268,0.01534,0.01646,-0.01393,0.00295,-0.01854,0.00061,1.00394,0.36104,0.00000,0.58162,0.58647,-0.00827,0.01455,0.37677,-0.11887,0.24092,1.74712,1.74712,A,172432.60
0.39111,57.68783323,11.98137810,57.68783517,11.98137633,18:25:03.031432,0.00547,0.00000,0.00000,-0.00253,0.01472,0.01570,-0.00629,0.00524,-0.03001,0.00415,1.01455,0.38460,0.00000,0.75579,0.76016,-0.01380,0.02587,0.37677,-0.11887,0.24092,1.74712,1.74712,A,172432.60
0.39919,57.68783323,11.98137810,57.68783517,11.98137633,18:25:03.039502,0.00315,0.00000,0.00000,-0.00245,0.01429,0.01524,0.00104,0.00478,-0.02550,0.01421,1.01955,0.39492,0.00000,0.75579,0.76016,-0.01380,0.02587,0.37677,-0.11887,0.24092,1.74712,1.74712,A,172432.60
0.40956,57.68783323,11.98137810,57.68783517,11.98137633,18:25:03.049884,0.00313,0.00000,0.00000,-0.00266,0.01378,0.01295,-0.00431,0.00386,0.01434,-0.00409,0.99643,0.40509,0.00000,0.75579,0.76016,-0.01380,0.02587,0.37677,-0.11887,0.24092,1.74712,1.74712,A,172432.60
0.41996,57.68783323,11.98137810,57.68783517,11.98137633,18:25:03.060273,0.00313,0.00000,0.00000,-0.00287,0.01319,0.00852,-0.00813,0.00173,-0.02220,-0.00140,1.00863,0.41569,0.00000,0.75579,0.76016,-0.01380,0.02587,0.37677,-0.11887,0.24092,1.74712,1.74712,A,172432.60
0.43097,57.68783323,11.98137810,57.68783517,11.98137633,18:25:03.071294,0.00344,0.00000,0.00000,-0.00301,0.01257,0.00944,-0.00354,0.00096,-0.05472,0.00201,1.03346,0.42654,0.00000,0.75579,0.76016,-0.01380,0.02587,0.37677,-0.11887,0.24092,1.74712,1.74712,A,172432.60
0.44076,57.68783323,11.98137810,57.68783517,11.98137633,18:25:03.081069,0.00300,0.00000,0.00000,-0.00297,0.01200,0.00638,0.00852,0.00188,-0.07582,0.01714,1.04420,0.43649,0.00000,0.75579,0.76016,-0.01380,0.02587,0.37677,-0.11887,0.24092,1.74712,1.74712,A,172432.60
0.45146,57.68783323,11.98137810,57.68783517,11.98137633,18:25:03.091778,0.00330,0.00000,0.00000,-0.00319,0.01143,0.00669,0.01509,-0.00301,-0.00030,-0.00122,1.01998,0.44719,0.00000,0.75579,0.76016,-0.01380,0.02587,0.37677,-0.11887,0.24092,1.74712,1.74712,A,172432.60
0.46184,57.68783323,11.98137810,57.68783517,11.98137633,18:25:03.102168,0.00329,0.00000,0.00000,-0.00330,0.01095,0.00302,0.01081,-0.00331,0.01562,0.00866,1.00473,0.45722,0.00000,0.75579,0.76016,-0.01380,0.02587,0.37677,-0.11887,0.24092,1.74712,1.74712,A,172432.60
0.47209,57.68783323,11.98137810,57.68783517,11.98137633,18:25:03.112413,0.00315,0.00000,0.00000,-0.00342,0.01044,0.00226,0.00363,-0.00301,0.01098,0.00793,0.97283,0.46782,0.00000,0.75579,0.76016,-0.01380,0.02587,0.37677,-0.11887,0.24092,1.74712,1.74712,A,172432.60
0.49795,57.68783323,11.98137810,57.68783567,11.98137550,18:25:03.138287,0.01862,0.00000,0.00000,-0.00360,0.01002,0.00119,-0.00370,-0.00102,-0.03867,0.00464,0.96679,0.47812,0.00000,0.75579,0.76016,-0.01380,0.02587,0.49419,-0.16841,0.29652,2.29855,2.29855,A,172432.70
0.50824,57.68783335,11.98137797,57.68783567,11.98137550,18:25:03.148567,0.00514,0.00000,0.00000,-0.00384,0.00911,0.00257,0.00867,-0.00270,-0.03520,-0.00293,0.99985,0.50201,0.00000,0.98680,0.98951,-0.02153,0.03940,0.49419,-0.16841,0.29652,2.29855,2.29855,A,172432.70
0.51704,57.68783335,11.98137797,57.68783567,11.98137550,18:25:03.157584,0.00310,0.00000,0.00000,-0.00410,0.00877,0.00577,0.01264,0.00020,0.01787,-0.00366,0.99631,0.51275,0.00000,0.98680,0.98951,-0.02153,0.03940,0.49419,-0.16841,0.29652,2.29855,2.29855,A,172432.70
0.52747,57.68783335,11.98137797,57.68783567,11.98137550,18:25:03.167786,0.00314,0.00000,0.00000,-0.00455,0.00846,0.00318,0.00256,-0.00255,0.02172,-0.01580,1.00229,0.52320,0.00000,0.98680,0.98951,-0.02153,0.03940,0.49419,-0.16841,0.29652,2.29855,2.29855,A,172432.70
0.53787,57.68783335,11.98137797,57.68783567,11.98137550,18:25:03.178186,0.00314,0.00000,0.00000,-0.00482,0.00818,0.00440,0.00165,-0.00148,-0.01257,-0.00409,1.00418,0.53358,0.00000,0.98680,0.98951,-0.02153,0.03940,0.49419,-0.16841,0.29652,2.29855,2.29855,A,172432.70
0.54824,57.68783335,11.98137797,57.68783567,11.98137550,18:25:03.188565,0.00295,0.00000,0.00000,-0.00533,0.00787,0.00287,-0.00522,-0.00408,-0.05472,-0.02013,0.99704,0.54398,0.00000,0.98680,0.98951,-0.02153,0.03940,0.49419,-0.16841,0.29652,2.29855,2.29855,A,172432.70
0.55885,57.68783335,11.98137797,57.68783567,11.98137550,18:25:03.199164,0.00315,0.00000,0.00000,-0.00551,0.00761,-0.00003,0.00027,-0.00225,-0.06320,0.00390,1.02559,0.55458,0.00000,0.98680,0.98951,-0.02153,0.03940,0.49419,-0.16841,0.29652,2.29855,2.29855,A,172432.70
0.56889,57.68783335,11.98137797,57.68783567,11.98137550,18:25:03.209433,0.00296,0.00000,0.00000,-0.00559,0.00742,0.00425,0.00883,-0.00148,-0.02946,0.00775,1.01785,0.56462,0.00000,0.98680,0.98951,-0.02153,0.03940,0.49419,-0.16841,0.29652,2.29855,2.29855,A,172432.70
0.57947,57.68783335,11.98137797,57.68783567,11.98137550,18:25:03.219780,0.00314,0.00000,0.00000,-0.00540,0.00722,0.00623,0.00944,-0.00209,0.00470,0.02355,1.00528,0.57520,0.00000,0.98680,0.98951,-0.02153,0.03940,0.49419,-0.16841,0.29652,2.29855,2.29855,A,172432.70
0.59005,57.68783335,11.98137797,57.68783567,11.98137550,18:25:03.230372,0.00332,0.00000,0.00000,-0.00580,0.00708,0.01005,0.00348,-0.00102,0.01690,-0.01763,0.98680,0.58576,0.00000,0.98680,0.98951,-0.02153,0.03940,0.49419,-0.16841,0.29652,2.29855,2.29855,A,172432.70
0.61663,57.68783335,11.98137797,57.68783633,11.98137483,18:25:03.256968,0.01934,0.00000,0.00000,-0.00607,0.00693,0.00119,0.00318,-0.00591,-0.03129,-0.00360,0.97368,0.59597,0.00000,0.98680,0.98951,-0.02153,0.03940,0.61166,-0.20803,0.37065,2.06169,2.06169,A,172432.80
0.63067,57.68783350,11.98137781,57.68783633,11.98137483,18:25:03.270990,0.00568,0.00000,0.00000,-0.00577,0.00688,0.00883,0.01112,-0.00560,-0.01818,0.01867,0.98301,0.62395,0.00000,1.14773,1.14977,-0.03086,0.05596,0.61166,-0.20803,0.37065,2.06169,2.06169,A,172432.80
0.63839,57.68783350,11.98137781,57.68783633,11.98137483,18:25:03.278711,0.00302,0.00000,0.00000,-0.00597,0.00688,0.01158,0.00409,-0.00438,0.01110,-0.00531,0.98204,0.63412,0.00000,1.14773,1.14977,-0.03086,0.05596,0.61166,-0.20803,0.37065,2.06169,2.06169,A,172432.80
0.64856,57.68783350,11.98137781,57.68783633,11.98137483,18:25:03.288872,0.00295,0.00000,0.00000,-0.00609,0.00688,0.01066,0.00226,-0.00499,0.04782,-0.00055,0.98930,0.64429,0.00000,1.14773,1.14977,-0.03086,0.05596,0.61166,-0.20803,0.37065,2.06169,2.06169,A,172432.80
0.67937,57.68783350,11.98137781,57.68783633,11.98137483,18:25:03.319722,0.01362,0.00000,0.00000,-0.00583,0.00688,0.00928,-0.01164,-0.00102,-0.05112,0.01440,1.03279,0.67498,0.00000,1.14773,1.14977,-0.03086,0.05596,0.61166,-0.20803,0.37065,2.06169,2.06169,A,172432.80
0.75251,57.68783350,11.98137781,57.68783767,11.98137383,18:25:03.392861,0.05445,0.00000,0.00000,-0.00558,0.00674,0.01982,-0.00583,-0.00072,-0.02001,-0.01318,0.99162,0.70947,0.00000,1.14773,1.14977,-0.03086,0.05596,0.74700,-0.26747,0.51891,1.95208,1.95208,A,172433.00
0.76982,57.68783371,11.98137762,57.68783767,11.98137383,18:25:03.410142,0.01139,0.00000,0.00000,-0.00448,0.00594,0.01723,0.00012,-0.00652,0.01861,0.02879,0.99521,0.76280,0.00000,1.26812,1.26988,-0.04269,0.07911,0.74700,-0.26747,0.51891,1.95208,1.95208,A,172433.00
0.78501,57.68783371,11.98137762,57.68783767,11.98137383,18:25:03.425549,0.00485,0.00000,0.00000,-0.00453,0.00569,0.01677,-0.00400,-0.00118,-0.03934,-0.00641,0.98521,0.78073,0.00000,1.26812,1.26988,-0.04269,0.07911,0.74700,-0.26747,0.51891,1.95208,1.95208,A,172433.00
0.79372,57.68783371,11.98137762,57.68783767,11.98137383,18:25:03.434041,0.00316,0.00000,0.00000,-0.00496,0.00552,0.01356,-0.00110,-0.00728,-0.04050,-0.02007,0.99021,0.78924,0.00000,1.26812,1.26988,-0.04269,0.07911,0.74700,-0.26747,0.51891,1.95208,1.95208,A,172433.00
0.80407,57.68783371,11.98137762,57.68783767,11.98137383,18:25:03.444388,0.00311,0.00000,0.00000,-0.00521,0.00535,0.01188,0.00211,-0.00484,-0.00348,-0.00817,0.97240,0.79981,0.00000,1.26812,1.26988,-0.04269,0.07911,0.74700,-0.26747,0.51891,1.95208,1.95208,A,172433.00
0.81438,57.68783371,11.98137762,57.68783767,11.98137383,18:25:03.454688,0.00302,0.00000,0.00000,-0.00529,0.00515,0.01662,0.00027,-0.00530,0.02580,-0.00061,0.97588,0.81010,0.00000,1.26812,1.26988,-0.04269,0.07911,0.74700,-0.26747,0.51891,1.95208,1.95208,A,172433.00
0.82458,57.68783371,11.98137762,57.68783767,11.98137383,18:25:03.464896,0.00300,0.00000,0.00000,-0.00532,0.00501,0.01402,-0.00736,-0.00225,0.00299,0.00390,0.97588,0.82031,0.00000,1.26812,1.26988,-0.04269,0.07911,0.74700,-0.26747,0.51891,1.95208,1.95208,A,172433.00
0.83510,57.68783371,11.98137762,57.68783767,11.98137383,18:25:03.475412,0.00312,0.00000,0.00000,-0.00520,0.00490,0.01081,-0.01576,-0.00454,-0.00945,0.01623,0.99930,0.83084,0.00000,1.26812,1.26988,-0.04269,0.07911,0.74700,-0.26747,0.51891,1.95208,1.95208,A,172433.00
0.84551,57.68783371,11.98137762,57.68783767,11.98137383,18:25:03.485835,0.00314,0.00000,0.00000,-0.00523,0.00484,0.01264,-0.00889,-0.00362,-0.02672,0.00537,1.00870,0.84104,0.00000,1.26812,1.26988,-0.04269,0.07911,0.74700,-0.26747,0.51891,1.95208,1.95208,A,172433.00
0.87274,57.68783371,11.98137762,57.68783850,11.98137317,18:25:03.513092,0.01996,0.00000,0.00000,-0.00515,0.00478,0.01112,-0.01011,-0.00454,-0.03373,0.01348,1.01547,0.85167,0.00000,1.26812,1.26988,-0.04269,0.07911,0.86742,-0.30709,0.61157,1.97489,1.97489,A,172433.10
0.88975,57.68783395,11.98137739,57.68783850,11.98137317,18:25:03.530081,0.00747,0.00000,0.00000,-0.00497,0.00467,0.00531,-0.01882,-0.00286,0.01690,0.01739,0.99576,0.88301,0.00000,1.37392,1.37531,-0.05591,0.10573,0.86742,-0.30709,0.61157,1.97489,1.97489,A,172433.10
0.89583,57.68783395,11.98137739,57.68783850,11.98137317,18:25:03.536137,0.00315,0.00000,0.00000,-0.00524,0.00461,0.00379,-0.02218,-0.00652,-0.02580,-0.00439,0.98722,0.89156,0.00000,1.37392,1.37531,-0.05591,0.10573,0.86742,-0.30709,0.61157,1.97489,1.97489,A,172433.10
0.90622,57.68783395,11.98137739,57.68783850,11.98137317,18:25:03.546537,0.00314,0.00000,0.00000,-0.00544,0.00456,0.00455,-0.01637,-0.00637,-0.04410,-0.00024,1.00101,0.90194,0.00000,1.37392,1.37531,-0.05591,0.10573,0.86742,-0.30709,0.61157,1.97489,1.97489,A,172433.10
0.91684,57.68783395,11.98137739,57.68783850,11.98137317,18:25:03.557348,0.00302,0.00000,0.00000,-0.00577,0.00453,0.00486,-0.00965,-0.00683,-0.03776,-0.00994,0.99308,0.91257,0.00000,1.37392,1.37531,-0.05591,0.10573,0.86742,-0.30709,0.61157,1.97489,1.97489,A,172433.10
0.92736,57.68783395,11.98137739,57.68783850,11.98137317,18:25:03.567671,0.00315,0.00000,0.00000,-0.00563,0.00453,-0.00171,-0.00660,-0.00713,0.01025,0.02544,0.98448,0.92309,0.00000,1.37392,1.37531,-0.05591,0.10573,0.86742,-0.30709,0.61157,1.97489,1.97489,A,172433.10
0.93776,57.68783395,11.98137739,57.68783850,11.98137317,18:25:03.578083,0.00315,0.00000,0.00000,-0.00567,0.00453,0.00027,-0.00965,-0.00377,-0.00586,0.01208,0.97978,0.93328,0.00000,1.37392,1.37531,-0.05591,0.10573,0.86742,-0.30709,0.61157,1.97489,1.97489,A,172433.10
0.94813,57.68783395,11.98137739,57.68783850,11.98137317,18:25:03.588448,0.00312,0.00000,0.00000,-0.00564,0.00453,-0.00049,-0.00981,-0.00087,-0.05380,0.01793,1.02266,0.94387,0.00000,1.37392,1.37531,-0.05591,0.10573,0.86742,-0.30709,0.61157,1.97489,1.97489,A,172433.10
0.95889,57.68783395,11.98137739,57.68783850,11.98137317,18:25:03.599206,0.00314,0.00000,0.00000,-0.00559,0.00453,-0.00110,0.00379,-0.00148,-0.08467,0.02086,1.03974,0.95462,0.00000,1.37392,1.37531,-0.05591,0.10573,0.86742,-0.30709,0.61157,1.97489,1.97489,A,172433.10
0.98499,57.68783395,11.98137739,57.68783933,11.98137267,18:25:03.625539,0.01885,0.00000,0.00000,-0.00570,0.00453,-0.00232,0.01616,-0.00438,-0.05228,0.00970,1.03688,0.96483,0.00000,1.37392,1.37531,-0.05591,0.10573,0.98059,-0.33681,0.70423,1.88115,1.88115,A,172433.20
1.00493,57.68783422,11.98137716,57.68783933,11.98137267,18:25:03.645496,0.00873,0.00000,0.00000,-0.00605,0.00422,-0.01087,0.00974,-0.00530,0.01592,0.01507,1.00089,0.99715,0.00000,1.44982,1.45107,-0.06995,0.13566,0.98059,-0.33681,0.70423,1.88115,1.88115,A,172433.20
1.00955,57.68783422,11.98137716,57.68783933,11.98137267,18:25:03.649868,0.00317,0.00000,0.00000,-0.00624,0.00413,-0.00919,-0.00156,-0.00942,-0.01116,0.00708,0.99930,1.00506,0.00000,1.44982,1.45107,-0.06995,0.13566,0.98059,-0.33681,0.70423,1.88115,1.88115,A,172433.20
1.01996,57.68783422,11.98137716,57.68783933,11.98137267,18:25:03.660280,0.00319,0.00000,0.00000,-0.00647,0.00405,-0.01011,-0.00583,-0.01080,-0.04050,0.00671,0.98454,1.01570,0.00000,1.44982,1.45107,-0.06995,0.13566,0.98059,-0.33681,0.70423,1.88115,1.88115,A,172433.20
1.03032,57.68783422,11.98137716,57.68783933,11.98137267,18:25:03.670804,0.00315,0.00000,0.00000,-0.00682,0.00405,-0.01622,-0.00003,-0.01217,-0.02952,0.00220,0.96935,1.02605,0.00000,1.44982,1.45107,-0.06995,0.13566,0.98059,-0.33681,0.70423,1.88115,1.88115,A,172433.20
1.04069,57.68783422,11.98137716,57.68783933,11.98137267,18:25:03.681003,0.00300,0.00000,0.00000,-0.00732,0.00405,-0.01668,-0.00049,-0.00973,-0.00049,-0.00732,0.94007,1.03642,0.00000,1.44982,1.45107,-0.06995,0.13566,0.98059,-0.33681,0.70423,1.88115,1.88115,A,172433.20
1.05122,57.68783422,11.98137716,57.68783933,11.98137267,18:25:03.691542,0.00314,0.00000,0.00000,-0.00776,0.00405,-0.02447,-0.00507,-0.00683,0.00250,0.00134,0.95099,1.04696,0.00000,1.44982,1.45107,-0.06995,0.13566,0.98059,-0.33681,0.70423,1.88115,1.88115,A,172433.20
1.06164,57.68783422,11.98137716,57.68783933,11.98137267,18:25:03.701959,0.00316,0.00000,0.00000,-0.00798,0.00405,-0.01973,-0.00919,-0.00179,-0.00342,0.01086,0.96112,1.05715,0.00000,1.44982,1.45107,-0.06995,0.13566,0.98059,-0.33681,0.70423,1.88115,1.88115,A,172433.20
1.07205,57.68783422,11.98137716,57.68783933,11.98137267,18:25:03.712362,0.00318,0.00000,0.00000,-0.00841,0.00405,-0.01958,-0.01454,0.00066,-0.03880,-0.00183,0.99393,1.06777,0.00000,1.44982,1.45107,-0.06995,0.13566,0.98059,-0.33681,0.70423,1.88115,1.88115,A,172433.20
1.09788,57.68783422,11.98137716,57.68784017,11.98137200,18:25:03.738217,0.01862,0.00000,0.00000,-0.00844,0.00399,-0.02324,-0.00950,-0.00194,-0.04038,0.02727,1.01931,1.07818,0.00000,1.44982,1.45107,-0.06995,0.13566,1.09409,-0.37644,0.79690,1.97489,1.97489,A,172433.30
1.11496,57.68783452,11.98137690,57.68784017,11.98137200,18:25:03.755286,0.00692,0.00000,0.00000,-0.00942,0.00357,-0.03012,-0.00278,-0.00652,0.01049,0.00708,1.01577,1.10844,0.00000,1.52842,1.52948,-0.08528,0.16872,1.09409,-0.37644,0.79690,1.97489,1.97489,A,172433.30
1.12182,57.68783452,11.98137690,57.68784017,11.98137200,18:25:03.762141,0.00338,0.00000,0.00000,-0.00952,0.00345,-0.03913,-0.00599,-0.00835,-0.04325,0.02855,1.02053,1.11751,0.00000,1.52842,1.52948,-0.08528,0.16872,1.09409,-0.37644,0.79690,1.97489,1.97489,A,172433.30
1.13405,57.68783452,11.98137690,57.68784017,11.98137200,18:25:03.774395,0.00463,0.00000,0.00000,-0.00972,0.00340,-0.03974,-0.00217,-0.00820,-0.03239,0.02574,1.00723,1.12819,0.00000,1.52842,1.52948,-0.08528,0.16872,1.09409,-0.37644,0.79690,1.97489,1.97489,A,172433.30
1.14299,57.68783452,11.98137690,57.68784017,11.98137200,18:25:03.783308,0.00318,0.00000,0.00000,-0.01013,0.00340,-0.03806,0.00241,-0.00790,-0.00647,0.01055,0.97984,1.13873,0.00000,1.52842,1.52948,-0.08528,0.16872,1.09409,-0.37644,0.79690,1.97489,1.97489,A,172433.30
1.15472,57.68783452,11.98137690,57.68784017,11.98137200,18:25:03.795039,0.00450,0.00000,0.00000,-0.01079,0.00340,-0.03531,-0.00232,-0.00942,0.02178,-0.00567,0.96831,1.15042,0.00000,1.52842,1.52948,-0.08528,0.16872,1.09409,-0.37644,0.79690,1.97489,1.97489,A,172433.30
1.16422,57.68783452,11.98137690,57.68784017,11.98137200,18:25:03.804533,0.00361,0.00000,0.00000,-0.01124,0.00340,-0.03974,-0.01072,-0.00515,0.01464,0.00494,0.96441,1.15994,0.00000,1.52842,1.52948,-0.08528,0.16872,1.09409,-0.37644,0.79690,1.97489,1.97489,A,172433.30
1.17424,57.68783452,11.98137690,57.68784017,11.98137200,18:25:03.814554,0.00322,0.00000,0.00000,-0.01203,0.00340,-0.04279,-0.01133,-0.00576,-0.04215,-0.01482,0.96654,1.16994,0.00000,1.52842,1.52948,-0.08528,0.16872,1.09409,-0.37644,0.79690,1.97489,1.97489,A,172433.30
1.18452,57.68783452,11.98137690,57.68784017,11.98137200,18:25:03.824834,0.00297,0.00000,0.00000,-0.01260,0.00340,-0.04264,-0.00568,-0.00225,-0.02788,0.00037,0.98247,1.18025,0.00000,1.52842,1.52948,-0.08528,0.16872,1.09409,-0.37644,0.79690,1.97489,1.97489,A,172433.30
1.21049,57.68783452,11.98137690,57.68784067,11.98137100,18:25:03.850817,0.01854,0.00000,0.00000,-0.01344,0.00340,-0.04447,0.00684,-0.00744,-0.02898,-0.01653,0.98911,1.19082,0.00000,1.52842,1.52948,-0.08528,0.16872,1.20678,-0.43587,0.85249,2.38956,2.38956,A,172433.40
1.22378,57.68783482,11.98137660,57.68784067,11.98137100,18:25:03.864114,0.00749,0.00000,0.00000,-0.01487,0.00340,-0.04753,-0.01087,-0.00499,-0.00427,-0.00970,1.02620,1.21598,0.00000,1.65744,1.65845,-0.10281,0.20291,1.20678,-0.43587,0.85249,2.38956,2.38956,A,172433.40
1.23001,57.68783482,11.98137660,57.68784067,11.98137100,18:25:03.870331,0.00332,0.00000,0.00000,-0.01520,0.00340,-0.05699,-0.01118,-0.00408,-0.00927,0.02080,1.02596,1.22558,0.00000,1.65744,1.65845,-0.10281,0.20291,1.20678,-0.43587,0.85249,2.38956,2.38956,A,172433.40
1.24024,57.68783482,11.98137660,57.68784067,11.98137100,18:25:03.880554,0.00315,0.00000,0.00000,-0.01588,0.00340,-0.04661,-0.00690,-0.00927,-0.02800,-0.00842,1.03816,1.23596,0.00000,1.65744,1.65845,-0.10281,0.20291,1.20678,-0.43587,0.85249,2.38956,2.38956,A,172433.40
1.25067,57.68783482,11.98137660,57.68784067,11.98137100,18:25:03.890980,0.00318,0.00000,0.00000,-0.01673,0.00340,-0.05257,-0.00828,-0.00835,-0.00348,-0.01604,1.01888,1.24639,0.00000,1.65744,1.65845,-0.10281,0.20291,1.20678,-0.43587,0.85249,2.38956,2.38956,A,172433.40
1.26075,57.68783482,11.98137660,57.68784067,11.98137100,18:25:03.901060,0.00302,0.00000,0.00000,-0.01734,0.00340,-0.06051,-0.00767,-0.00484,-0.02653,0.00415,1.01059,1.25647,0.00000,1.65744,1.65845,-0.10281,0.20291,1.20678,-0.43587,0.85249,2.38956,2.38956,A,172433.40
1.27137,57.68783482,11.98137660,57.68784067,11.98137100,18:25:03.911686,0.00324,0.00000,0.00000,-0.01782,0.00340,-0.05470,-0.00156,-0.00866,-0.05441,0.00939,0.99747,1.26710,0.00000,1.65744,1.65845,-0.10281,0.20291,1.20678,-0.43587,0.85249,2.38956,2.38956,A,172433.40
1.28169,57.68783482,11.98137660,57.68784067,11.98137100,18:25:03.922015,0.00317,0.00000,0.00000,-0.01851,0.00340,-0.05501,0.00256,-0.00912,-0.02641,-0.00592,0.96947,1.27721,0.00000,1.65744,1.65845,-0.10281,0.20291,1.20678,-0.43587,0.85249,2.38956,2.38956,A,172433.40
1.29223,57.68783482,11.98137660,57.68784067,11.98137100,18:25:03.932544,0.00331,0.00000,0.00000,-0.01934,0.00337,-0.05608,0.00654,-0.00988,0.01110,-0.01232,0.93312,1.28795,0.00000,1.65744,1.65845,-0.10281,0.20291,1.20678,-0.43587,0.85249,2.38956,2.38956,A,172433.40
1.30240,57.68783482,11.98137660,57.68784067,11.98137100,18:25:03.942713,0.00308,0.00000,0.00000,-0.02027,0.00337,-0.05883,0.00150,-0.00851,-0.00531,-0.02025,0.95996,1.29812,0.00000,1.65744,1.65845,-0.10281,0.20291,1.20678,-0.43587,0.85249,2.38956,2.38956,A,172433.40
1.33966,57.68783482,11.98137660,57.68784217,11.98136950,18:25:03.980000,0.02996,0.00000,0.00000,-0.02109,0.00337,-0.06295,0.00150,-0.00973,-0.05661,-0.01153,1.00290,1.30842,0.00000,1.65744,1.65845,-0.10281,0.20291,1.33562,-0.52503,1.01929,2.06169,2.06169,A,172433.60
1.35879,57.68783519,11.98137625,57.68784217,11.98136950,18:25:03.999111,0.00734,0.00000,0.00000,-0.02402,0.00328,-0.07135,0.01234,-0.00163,-0.08040,0.01055,1.05945,1.35222,0.00000,1.71793,1.71891,-0.12392,0.24373,1.33562,-0.52503,1.01929,2.06169,2.06169,A,172433.60
1.36470,57.68783519,11.98137625,57.68784217,11.98136950,18:25:04.005020,0.00302,0.00000,0.00000,-0.02433,0.00325,-0.06967,0.01967,-0.00454,-0.07954,0.01470,1.04725,1.36042,0.00000,1.71793,1.71891,-0.12392,0.24373,1.33562,-0.52503,1.01929,2.06169,2.06169,A,172433.60
1.37523,57.68783519,11.98137625,57.68784217,11.98136950,18:25:04.015547,0.00316,0.00000,0.00000,-0.02454,0.00323,-0.07227,0.02562,-0.00545,-0.01958,0.03294,1.00699,1.37097,0.00000,1.71793,1.71891,-0.12392,0.24373,1.33562,-0.52503,1.01929,2.06169,2.06169,A,172433.60
1.38571,57.68783519,11.98137625,57.68784217,11.98136950,18:25:04.026035,0.00318,0.00000,0.00000,-0.02533,0.00323,-0.06188,0.01967,-0.00790,0.02135,-0.01397,0.97106,1.38121,0.00000,1.71793,1.71891,-0.12392,0.24373,1.33562,-0.52503,1.01929,2.06169,2.06169,A,172433.60
1.39609,57.68783519,11.98137625,57.68784217,11.98136950,18:25:04.036405,0.00316,0.00000,0.00000,-0.02679,0.00323,-0.06738,0.01341,-0.00637,0.00567,-0.05380,0.97606,1.39181,0.00000,1.71793,1.71891,-0.12392,0.24373,1.33562,-0.52503,1.01929,2.06169,2.06169,A,172433.60
1.40639,57.68783519,11.98137625,57.68784217,11.98136950,18:25:04.046708,0.00307,0.00000,0.00000,-0.02792,0.00323,-0.06830,0.01203,-0.00927,-0.03916,-0.03489,0.99162,1.40211,0.00000,1.71793,1.71891,-0.12392,0.24373,1.33562,-0.52503,1.01929,2.06169,2.06169,A,172433.60
1.41657,57.68783519,11.98137625,57.68784217,11.98136950,18:25:04.056884,0.00299,0.00000,0.00000,-0.02892,0.00323,-0.06478,0.01219,-0.00454,-0.02611,-0.02977,0.99826,1.41229,0.00000,1.71793,1.71891,-0.12392,0.24373,1.33562,-0.52503,1.01929,2.06169,2.06169,A,172433.60
1.42714,57.68783519,11.98137625,57.68784217,11.98136950,18:25:04.067461,0.00316,0.00000,0.00000,-0.02957,0.00323,-0.06814,0.00989,-0.00393,0.00055,-0.00390,0.99595,1.42287,0.00000,1.71793,1.71891,-0.12392,0.24373,1.33562,-0.52503,1.01929,2.06169,2.06169,A,172433.60
1.45296,57.68783519,11.98137625,57.68784300,11.98136867,18:25:04.093948,0.01858,0.00000,0.00000,-0.03003,0.00323,-0.06509,-0.00003,-0.00331,0.01366,0.00421,0.99503,1.43305,0.00000,1.71793,1.71891,-0.12392,0.24373,1.44880,-0.57456,1.11195,2.06169,2.06169,A,172433.70
1.47155,57.68783558,11.98137587,57.68784300,11.98136867,18:25:04.111893,0.00724,0.00000,0.00000,-0.03152,0.00323,-0.04966,-0.00660,0.00890,-0.07521,-0.01031,1.02761,1.46331,0.00000,1.76935,1.77031,-0.14645,0.28714,1.44880,-0.57456,1.11195,2.06169,2.06169,A,172433.70
1.47788,57.68783558,11.98137587,57.68784300,11.98136867,18:25:04.118190,0.00317,0.00000,0.00000,-0.03238,0.00323,-0.04676,0.00516,0.00753,-0.00909,-0.03556,0.98454,1.47359,0.00000,1.76935,1.77031,-0.14645,0.28714,1.44880,-0.57456,1.11195,2.06169,2.06169,A,172433.70
1.48825,57.68783558,11.98137587,57.68784300,11.98136867,18:25:04.128562,0.00314,0.00000,0.00000,-0.03379,0.00323,-0.04630,0.00226,0.00264,0.01360,-0.07082,0.95898,1.48397,0.00000,1.76935,1.77031,-0.14645,0.28714,1.44880,-0.57456,1.11195,2.06169,2.06169,A,172433.70
1.49869,57.68783558,11.98137587,57.68784300,11.98136867,18:25:04.139010,0.00318,0.00000,0.00000,-0.03480,0.00323,-0.05959,-0.00125,0.00478,-0.01800,-0.03770,0.96404,1.49442,0.00000,1.76935,1.77031,-0.14645,0.28714,1.44880,-0.57456,1.11195,2.06169,2.06169,A,172433.70
1.50874,57.68783558,11.98137587,57.68784300,11.98136867,18:25:04.149064,0.00301,0.00000,0.00000,-0.03531,0.00323,-0.05562,0.00333,-0.00087,-0.04880,-0.01037,0.95245,1.50446,0.00000,1.76935,1.77031,-0.14645,0.28714,1.44880,-0.57456,1.11195,2.06169,2.06169,A,172433.70
1.51929,57.68783558,11.98137587,57.68784300,11.98136867,18:25:04.159601,0.00316,0.00000,0.00000,-0.03554,0.00323,-0.04615,0.00730,0.00264,-0.03642,0.00220,0.95434,1.51502,0.00000,1.76935,1.77031,-0.14645,0.28714,1.44880,-0.57456,1.11195,2.06169,2.06169,A,172433.70
1.52980,57.68783558,11.98137587,57.68784300,11.98136867,18:25:04.170130,0.00328,0.00000,0.00000,-0.03610,0.00323,-0.04936,0.00928,0.00646,-0.02751,-0.01769,0.96264,1.52532,0.00000,1.76935,1.77031,-0.14645,0.28714,1.44880,-0.57456,1.11195,2.06169,2.06169,A,172433.70
1.54009,57.68783558,11.98137587,57.68784300,11.98136867,18:25:04.180406,0.00317,0.00000,0.00000,-0.03657,0.00323,-0.04126,0.00776,0.01119,0.00933,-0.01830,1.00510,1.53581,0.00000,1.76935,1.77031,-0.14645,0.28714,1.44880,-0.57456,1.11195,2.06169,2.06169,A,172433.70
1.56703,57.68783558,11.98137587,57.68784383,11.98136750,18:25:04.207366,0.01972,0.00000,0.00000,-0.03701,0.00323,-0.04188,0.00440,0.01257,-0.00714,-0.01745,1.04414,1.54610,0.00000,1.76935,1.77031,-0.14645,0.28714,1.56222,-0.64390,1.20461,2.21324,2.21324,A,172433.80
1.58309,57.68783599,11.98137545,57.68784383,11.98136750,18:25:04.223422,0.00688,0.00000,0.00000,-0.03832,0.00351,-0.03668,0.00684,0.01776,0.00927,-0.03471,1.05408,1.57525,0.00000,1.83578,1.83682,-0.17132,0.33301,1.56222,-0.64390,1.20461,2.21324,2.21324,A,172433.80
1.58978,57.68783599,11.98137545,57.68784383,11.98136750,18:25:04.230276,0.00317,0.00000,0.00000,-0.03909,0.00385,-0.03714,0.00088,0.01883,0.00653,-0.04416,1.00357,1.58529,0.00000,1.83578,1.83682,-0.17132,0.33301,1.56222,-0.64390,1.20461,2.21324,2.21324,A,172433.80
1.60017,57.68783599,11.98137545,57.68784383,11.98136750,18:25:04.240487,0.00316,0.00000,0.00000,-0.03962,0.00433,-0.04203,-0.00568,0.01547,-0.02172,-0.02385,0.97161,1.59589,0.00000,1.83578,1.83682,-0.17132,0.33301,1.56222,-0.64390,1.20461,2.21324,2.21324,A,172433.80
1.61077,57.68783599,11.98137545,57.68784383,11.98136750,18:25:04.251084,0.00316,0.00000,0.00000,-0.03998,0.00492,-0.04050,-0.00843,0.00799,0.00860,-0.01354,0.93043,1.60650,0.00000,1.83578,1.83682,-0.17132,0.33301,1.56222,-0.64390,1.20461,2.21324,2.21324,A,172433.80
1.62086,57.68783599,11.98137545,57.68784383,11.98136750,18:25:04.261707,0.00302,0.00000,0.00000,-0.04045,0.00555,-0.03195,-0.01271,0.00402,-0.01519,-0.02617,0.90695,1.61658,0.00000,1.83578,1.83682,-0.17132,0.33301,1.56222,-0.64390,1.20461,2.21324,2.21324,A,172433.80
1.63140,57.68783599,11.98137545,57.68784383,11.98136750,18:25:04.271718,0.00316,0.00000,0.00000,-0.04107,0.00620,-0.03256,-0.00919,0.00356,-0.00354,-0.03477,0.90786,1.62713,0.00000,1.83578,1.83682,-0.17132,0.33301,1.56222,-0.64390,1.20461,2.21324,2.21324,A,172433.80
1.64244,57.68783599,11.98137545,57.68784383,11.98136750,18:25:04.282760,0.00380,0.00000,0.00000,-0.04166,0.00685,-0.03088,-0.00293,0.00936,-0.07271,-0.03672,0.99021,1.63814,0.00000,1.83578,1.83682,-0.17132,0.33301,1.56222,-0.64390,1.20461,2.21324,2.21324,A,172433.80
1.65219,57.68783599,11.98137545,57.68784383,11.98136750,18:25:04.292509,0.00317,0.00000,0.00000,-0.04222,0.00742,-0.02966,0.01203,0.00753,-0.03276,-0.03941,1.01498,1.64792,0.00000,1.83578,1.83682,-0.17132,0.33301,1.56222,-0.64390,1.20461,2.21324,2.21324,A,172433.80
1.67799,57.68783599,11.98137545,57.68784483,11.98136667,18:25:04.318318,0.01855,0.00000,0.00000,-0.04260,0.00790,-0.03164,0.01402,0.01608,-0.01739,-0.02666,1.06902,1.65836,0.00000,1.83578,1.83682,-0.17132,0.33301,1.67423,-0.69343,1.31581,1.98985,1.98985,A,172433.90
1.69163,57.68783644,11.98137501,57.68784483,11.98136667,18:25:04.331960,0.00762,0.00000,0.00000,-0.04297,0.00835,-0.01759,0.01264,0.01975,0.01928,-0.01739,1.04029,1.68388,0.00000,1.85852,1.86100,-0.19743,0.38215,1.67423,-0.69343,1.31581,1.98985,1.98985,A,172433.90
1.69757,57.68783644,11.98137501,57.68784483,11.98136667,18:25:04.337892,0.00317,0.00000,0.00000,-0.04331,0.00835,-0.01820,-0.00003,0.02127,0.03160,-0.03416,1.00680,1.69308,0.00000,1.85852,1.86100,-0.19743,0.38215,1.67423,-0.69343,1.31581,1.98985,1.98985,A,172433.90
1.70796,57.68783644,11.98137501,57.68784483,11.98136667,18:25:04.348275,0.00315,0.00000,0.00000,-0.04347,0.00835,-0.01393,-0.00919,0.01562,-0.02269,-0.02269,1.00186,1.70369,0.00000,1.85852,1.86100,-0.19743,0.38215,1.67423,-0.69343,1.31581,1.98985,1.98985,A,172433.90
1.71837,57.68783644,11.98137501,57.68784483,11.98136667,18:25:04.358687,0.00317,0.00000,0.00000,-0.04378,0.00835,-0.01133,-0.00492,0.01532,-0.00701,-0.03477,0.96911,1.71408,0.00000,1.85852,1.86100,-0.19743,0.38215,1.67423,-0.69343,1.31581,1.98985,1.98985,A,172433.90
1.72876,57.68783644,11.98137501,57.68784483,11.98136667,18:25:04.369076,0.00317,0.00000,0.00000,-0.04397,0.00835,-0.01164,-0.00874,0.01089,-0.05276,-0.02611,0.96600,1.72448,0.00000,1.85852,1.86100,-0.19743,0.38215,1.67423,-0.69343,1.31581,1.98985,1.98985,A,172433.90
1.73898,57.68783644,11.98137501,57.68784483,11.98136667,18:25:04.380079,0.00315,0.00000,0.00000,-0.04435,0.00843,-0.01026,0.00012,0.01654,-0.06503,-0.03947,0.95209,1.73471,0.00000,1.85852,1.86100,-0.19743,0.38215,1.67423,-0.69343,1.31581,1.98985,1.98985,A,172433.90
1.74934,57.68783644,11.98137501,57.68784483,11.98136667,18:25:04.389668,0.00311,0.00000,0.00000,-0.04468,0.00863,-0.00690,0.01188,0.01501,-0.02501,-0.04081,1.00369,1.74487,0.00000,1.85852,1.86100,-0.19743,0.38215,1.67423,-0.69343,1.31581,1.98985,1.98985,A,172433.90
1.75976,57.68783644,11.98137501,57.68784483,11.98136667,18:25:04.400076,0.00314,0.00000,0.00000,-0.04466,0.00897,-0.00293,0.01936,0.02143,-0.00378,-0.02031,0.99881,1.75549,0.00000,1.85852,1.86100,-0.19743,0.38215,1.67423,-0.69343,1.31581,1.98985,1.98985,A,172433.90
1.77016,57.68783644,11.98137501,57.68784483,11.98136667,18:25:04.410487,0.00314,0.00000,0.00000,-0.04476,0.00942,-0.00919,0.01157,0.02463,-0.04520,-0.02428,0.99674,1.76588,0.00000,1.85852,1.86100,-0.19743,0.38215,1.67423,-0.69343,1.31581,1.98985,1.98985,A,172433.90
1.79756,57.68783644,11.98137501,57.68784567,11.98136550,18:25:04.438473,0.02001,0.00000,0.00000,-0.04430,0.00988,-0.00110,0.01295,0.02097,-0.01793,0.00787,0.99332,1.77625,0.00000,1.85852,1.86100,-0.19743,0.38215,1.79307,-0.76278,1.40847,2.21324,2.21324,A,172434.00
1.81560,57.68783690,11.98137454,57.68784567,11.98136550,18:25:04.455926,0.00698,0.00000,0.00000,-0.04476,0.01053,0.00226,-0.02447,0.01333,0.00177,-0.05948,1.01205,1.80915,0.00000,1.91126,1.91438,-0.22570,0.43347,1.79307,-0.76278,1.40847,2.21324,2.21324,A,172434.00
1.82243,57.68783690,11.98137454,57.68784567,11.98136550,18:25:04.462743,0.00335,0.00000,0.00000,-0.04503,0.01053,0.00745,-0.02874,0.01455,-0.05746,-0.04727,1.02596,1.81812,0.00000,1.91126,1.91438,-0.22570,0.43347,1.79307,-0.76278,1.40847,2.21324,2.21324,A,172434.00
1.83265,57.68783690,11.98137454,57.68784567,11.98136550,18:25:04.472969,0.00297,0.00000,0.00000,-0.04574,0.01053,0.00715,-0.01515,0.01150,-0.02647,-0.07948,1.04218,1.82839,0.00000,1.91126,1.91438,-0.22570,0.43347,1.79307,-0.76278,1.40847,2.21324,2.21324,A,172434.00
1.84320,57.68783690,11.98137454,57.68784567,11.98136550,18:25:04.483510,0.00312,0.00000,0.00000,-0.04594,0.01053,0.00593,-0.00645,0.01043,-0.10028,-0.04435,1.05316,1.83893,0.00000,1.91126,1.91438,-0.22570,0.43347,1.79307,-0.76278,1.40847,2.21324,2.21324,A,172434.00
1.85376,57.68783690,11.98137454,57.68784567,11.98136550,18:25:04.494082,0.00328,0.00000,0.00000,-0.04631,0.01053,0.01432,0.00883,0.01211,-0.05887,-0.06100,1.02431,1.84913,0.00000,1.91126,1.91438,-0.22570,0.43347,1.79307,-0.76278,1.40847,2.21324,2.21324,A,172434.00
1.86401,57.68783690,11.98137454,57.68784567,11.98136550,18:25:04.504325,0.00314,0.00000,0.00000,-0.04601,0.01053,0.01158,0.01707,0.01791,0.01006,-0.01324,0.99381,1.85974,0.00000,1.91126,1.91438,-0.22570,0.43347,1.79307,-0.76278,1.40847,2.21324,2.21324,A,172434.00
1.87439,57.68783690,11.98137454,57.68784567,11.98136550,18:25:04.514702,0.00312,0.00000,0.00000,-0.04565,0.01053,0.02120,0.01035,0.01914,0.00543,-0.01549,0.99308,1.87011,0.00000,1.91126,1.91438,-0.22570,0.43347,1.79307,-0.76278,1.40847,2.21324,2.21324,A,172434.00
1.88453,57.68783690,11.98137454,57.68784567,11.98136550,18:25:04.524844,0.00296,0.00000,0.00000,-0.04511,0.01053,0.02395,0.00211,0.02494,0.00598,-0.00403,0.99326,1.88027,0.00000,1.91126,1.91438,-0.22570,0.43347,1.79307,-0.76278,1.40847,2.21324,2.21324,A,172434.00
1.91138,57.68783690,11.98137454,57.68784683,11.98136433,18:25:04.551734,0.01940,0.00000,0.00000,-0.04472,0.01053,0.02929,-0.00293,0.02097,0.00494,-0.01806,0.97008,1.89084,0.00000,1.91126,1.91438,-0.22570,0.43347,1.90653,-0.83212,1.53820,2.06169,2.06169,A,172434.10
1.92564,57.68783740,11.98137403,57.68784683,11.98136433,18:25:04.565973,0.00647,0.00000,0.00000,-0.04439,0.01053,0.02807,-0.00461,0.01318,-0.01769,-0.05295,0.97502,1.91918,0.00000,1.93335,1.93648,-0.25602,0.48870,1.90653,-0.83212,1.53820,2.06169,2.06169,A,172434.10
1.93245,57.68783740,11.98137403,57.68784683,11.98136433,18:25:04.572774,0.00300,0.00000,0.00000,-0.04486,0.01053,0.03067,-0.00003,0.01074,-0.03447,-0.07027,0.96868,1.92818,0.00000,1.93335,1.93648,-0.25602,0.48870,1.90653,-0.83212,1.53820,2.06169,2.06169,A,172434.10
1.94298,57.68783740,11.98137403,57.68784683,11.98136433,18:25:04.583290,0.00313,0.00000,0.00000,-0.04465,0.01053,0.02074,0.00318,0.01486,-0.02391,-0.02367,0.98088,1.93871,0.00000,1.93335,1.93648,-0.25602,0.48870,1.90653,-0.83212,1.53820,2.06169,2.06169,A,172434.10
1.95358,57.68783740,11.98137403,57.68784683,11.98136433,18:25:04.593928,0.00334,0.00000,0.00000,-0.04412,0.01053,0.02303,-0.00080,0.00936,-0.00421,-0.00342,0.98033,1.94890,0.00000,1.93335,1.93648,-0.25602,0.48870,1.90653,-0.83212,1.53820,2.06169,2.06169,A,172434.10
1.96379,57.68783740,11.98137403,57.68784683,11.98136433,18:25:04.604103,0.00315,0.00000,0.00000,-0.04320,0.01053,0.03067,-0.00354,0.01150,-0.00720,0.01708,1.03913,1.95953,0.00000,1.93335,1.93648,-0.25602,0.48870,1.90653,-0.83212,1.53820,2.06169,2.06169,A,172434.10
1.97497,57.68783740,11.98137403,57.68784683,11.98136433,18:25:04.615292,0.00393,0.00000,0.00000,-0.04322,0.01053,0.03341,-0.01149,0.00860,-0.01220,-0.04898,1.02144,1.97069,0.00000,1.93335,1.93648,-0.25602,0.48870,1.90653,-0.83212,1.53820,2.06169,2.06169,A,172434.10
1.98452,57.68783740,11.98137403,57.68784683,11.98136433,18:25:04.624833,0.00296,0.00000,0.00000,-0.04279,0.01053,0.03418,-0.01210,0.01180,-0.05307,-0.01568,1.04066,1.98026,0.00000,1.93335,1.93648,-0.25602,0.48870,1.90653,-0.83212,1.53820,2.06169,2.06169,A,172434.10
1.99495,57.68783740,11.98137403,57.68784683,11.98136433,18:25:04.635271,0.00317,0.00000,0.00000,-0.04285,0.01053,0.03021,-0.00477,0.01089,0.00982,-0.04697,1.01162,1.99068,0.00000,1.93335,1.93648,-0.25602,0.48870,1.90653,-0.83212,1.53820,2.06169,2.06169,A,172434.10
2.00509,57.68783740,11.98137403,57.68784683,11.98136433,18:25:04.645775,0.00292,0.00000,0.00000,-0.04234,0.01053,0.02792,0.00012,0.00967,-0.03202,-0.00653,0.99875,2.00084,0.00000,1.93335,1.93648,-0.25602,0.48870,1.90653,-0.83212,1.53820,2.06169,2.06169,A,172434.10
2.05006,57.68783740,11.98137403,57.68784883,11.98136233,18:25:04.690465,0.03749,0.00000,0.00000,-0.04249,0.01053,0.03112,0.00394,0.01211,-0.00634,-0.05014,0.95160,2.01143,0.00000,2.06293,2.06605,-0.95100,1.76059,2.03859,-0.95100,1.76059,2.06169,2.06169,A,172434.30
2.06412,57.68784883,11.98136233,57.68784883,11.98136233,18:25:04.704455,0.00732,0.00000,0.00000,-0.04156,0.00220,0.02731,-0.00003,0.00722,0.03135,-0.04063,1.00333,2.05666,0.00000,2.06264,2.06330,-0.95100,1.76059,2.03859,-0.95100,1.76059,2.06169,2.06169,A,172434.30
2.07058,57.68784883,11.98136233,57.68784883,11.98136233,18:25:04.710891,0.00316,0.00000,0.00000,-0.04116,0.00220,0.01906,-0.00843,0.00478,-0.04215,-0.00598,1.05140,2.06630,0.00000,2.06264,2.06330,-0.95100,1.76059,2.03859,-0.95100,1.76059,2.06169,2.06169,A,172434.30
2.08063,57.68784883,11.98136233,57.68784883,11.98136233,18:25:04.720949,0.00299,0.00000,0.00000,-0.04105,0.00220,0.01997,-0.00431,0.00463,-0.00744,-0.02836,1.07878,2.07636,0.00000,2.06264,2.06330,-0.95100,1.76059,2.03859,-0.95100,1.76059,2.06169,2.06169,A,172434.30
2.09118,57.68784883,11.98136233,57.68784883,11.98136233,18:25:04.731685,0.00314,0.00000,0.00000,-0.04110,0.00220,0.00837,-0.00675,0.00173,-0.07155,-0.03178,1.09312,2.08692,0.00000,2.06264,2.06330,-0.95100,1.76059,2.03859,-0.95100,1.76059,2.06169,2.06169,A,172434.30
2.10160,57.68784883,11.98136233,57.68784883,11.98136233,18:25:04.741922,0.00316,0.00000,0.00000,-0.04126,0.00220,0.00990,0.00531,-0.00576,-0.00793,-0.03916,1.03724,2.09710,0.00000,2.06264,2.06330,-0.95100,1.76059,2.03859,-0.95100,1.76059,2.06169,2.06169,A,172434.30
2.11198,57.68784883,11.98136233,57.68784883,11.98136233,18:25:04.752297,0.00315,0.00000,0.00000,-0.04174,0.00220,0.00837,0.00150,-0.00362,0.01958,-0.05765,0.99711,2.10771,0.00000,2.06264,2.06330,-0.95100,1.76059,2.03859,-0.95100,1.76059,2.06169,2.06169,A,172434.30
2.12239,57.68784883,11.98136233,57.68784883,11.98136233,18:25:04.762711,0.00304,0.00000,0.00000,-0.04122,0.00220,0.00104,-0.00751,-0.00041,-0.01720,0.01269,0.93885,2.11812,0.00000,2.06264,2.06330,-0.95100,1.76059,2.03859,-0.95100,1.76059,2.06169,2.06169,A,172434.30
2.13258,57.68784883,11.98136233,57.68784883,11.98136233,18:25:04.772886,0.00297,0.00000,0.00000,-0.04088,0.00220,0.00562,-0.01393,0.00493,-0.02037,-0.00116,0.91500,2.12830,0.00000,2.06264,2.06330,-0.95100,1.76059,2.03859,-0.95100,1.76059,2.06169,2.06169,A,172434.30
2.15987,57.68784883,11.98136233,57.68785017,11.98136150,18:25:04.800240,0.01987,0.00000,0.00000,-0.04093,0.00220,-0.00034,-0.02248,0.00295,-0.01434,-0.02117,0.90274,2.13888,0.00000,2.06264,2.06330,-0.95100,1.76059,2.15450,-1.00053,1.90885,1.89322,1.89322,A,172434.40
2.18189,57.68784890,11.98136229,57.68785017,11.98136150,18:25:04.822622,0.00986,0.00000,0.00000,-0.04062,0.00220,-0.00736,-0.00736,0.00325,-0.05838,0.02007,1.10380,2.17376,0.00000,2.03713,2.03779,-0.95347,1.76800,2.15450,-1.00053,1.90885,1.89322,1.89322,A,172434.40
2.18645,57.68784890,11.98136229,57.68785017,11.98136150,18:25:04.826754,0.00311,0.00000,0.00000,-0.04105,0.00215,-0.01148,-0.00614,-0.00026,-0.05051,-0.04703,1.11526,2.18216,0.00000,2.03713,2.03779,-0.95347,1.76800,2.15450,-1.00053,1.90885,1.89322,1.89322,A,172434.40
2.19835,57.68784890,11.98136229,57.68785017,11.98136150,18:25:04.838673,0.00376,0.00000,0.00000,-0.04145,0.00186,-0.01210,0.00883,-0.00591,-0.02385,-0.03928,1.05487,2.19405,0.00000,2.03713,2.03779,-0.95347,1.76800,2.15450,-1.00053,1.90885,1.89322,1.89322,A,172434.40
2.20817,57.68784890,11.98136229,57.68785017,11.98136150,18:25:04.848477,0.00318,0.00000,0.00000,-0.04115,0.00147,-0.02248,0.00638,-0.01126,-0.01098,0.01397,1.00406,2.20389,0.00000,2.03713,2.03779,-0.95347,1.76800,2.15450,-1.00053,1.90885,1.89322,1.89322,A,172434.40
2.21856,57.68784890,11.98136229,57.68785017,11.98136150,18:25:04.858872,0.00317,0.00000,0.00000,-0.04139,0.00090,-0.02080,0.00684,-0.01156,-0.00201,-0.02001,0.92232,2.21428,0.00000,2.03713,2.03779,-0.95347,1.76800,2.15450,-1.00053,1.90885,1.89322,1.89322,A,172434.40
2.22876,57.68784890,11.98136229,57.68785017,11.98136150,18:25:04.869079,0.00315,0.00000,0.00000,-0.04159,0.00034,-0.02935,-0.00339,-0.01614,-0.04599,-0.01257,0.89591,2.22448,0.00000,2.03713,2.03779,-0.95347,1.76800,2.15450,-1.00053,1.90885,1.89322,1.89322,A,172434.40
2.23916,57.68784890,11.98136229,57.68785017,11.98136150,18:25:04.879472,0.00315,0.00000,0.00000,-0.04096,-0.00026,-0.02798,-0.00034,-0.01110,-0.02739,0.03587,0.89298,2.23489,0.00000,2.03713,2.03779,-0.95347,1.76800,2.15450,-1.00053,1.90885,1.89322,1.89322,A,172434.40
2.24973,57.68784890,11.98136229,57.68785017,11.98136150,18:25:04.890051,0.00322,0.00000,0.00000,-0.04114,-0.00080,-0.02920,-0.00400,-0.00805,0.02068,-0.01043,0.89670,2.24522,0.00000,2.03713,2.03779,-0.95347,1.76800,2.15450,-1.00053,1.90885,1.89322,1.89322,A,172434.40
2.27703,57.68784890,11.98136229,57.68785133,11.98136067,18:25:04.917903,0.02012,0.00000,0.00000,-0.04185,-0.00133,-0.03057,-0.00492,-0.00301,-0.02507,-0.04386,0.94038,2.25581,0.00000,2.03713,2.03779,-0.95347,1.76800,2.27155,-1.05006,2.03857,1.93552,1.93552,A,172434.50
2.29187,57.68784902,11.98136221,57.68785133,11.98136067,18:25:04.932419,0.00714,0.00000,0.00000,-0.04251,-0.00283,-0.02951,0.00012,-0.00011,-0.02263,-0.00744,1.11234,2.28560,0.00000,2.02202,2.02118,-0.95830,1.78153,2.27155,-1.05006,2.03857,1.93552,1.93552,A,172434.50
2.29839,57.68784902,11.98136221,57.68785133,11.98136067,18:25:04.938709,0.00308,0.00000,0.00000,-0.04216,-0.00326,-0.03607,0.00195,0.00020,0.00152,0.02440,1.10123,2.29411,0.00000,2.02202,2.02118,-0.95830,1.78153,2.27155,-1.05006,2.03857,1.93552,1.93552,A,172434.50
2.30858,57.68784902,11.98136221,57.68785133,11.98136067,18:25:04.948892,0.00300,0.00000,0.00000,-0.04288,-0.00371,-0.03180,-0.00003,-0.00683,-0.00262,-0.05142,1.06225,2.30431,0.00000,2.02202,2.02118,-0.95830,1.78153,2.27155,-1.05006,2.03857,1.93552,1.93552,A,172434.50
2.31939,57.68784902,11.98136221,57.68785133,11.98136067,18:25:04.959705,0.00341,0.00000,0.00000,-0.04362,-0.00405,-0.03638,0.00989,-0.01003,-0.04343,-0.04673,1.03108,2.31493,0.00000,2.02202,2.02118,-0.95830,1.78153,2.27155,-1.05006,2.03857,1.93552,1.93552,A,172434.50
2.32973,57.68784902,11.98136221,57.68785133,11.98136067,18:25:04.970046,0.00336,0.00000,0.00000,-0.04449,-0.00416,-0.03989,0.01249,-0.00805,-0.01885,-0.05331,0.98838,2.32522,0.00000,2.02202,2.02118,-0.95830,1.78153,2.27155,-1.05006,2.03857,1.93552,1.93552,A,172434.50
2.33995,57.68784902,11.98136221,57.68785133,11.98136067,18:25:04.980266,0.00318,0.00000,0.00000,-0.04518,-0.00416,-0.03989,0.02303,-0.01110,-0.02220,-0.03922,0.93446,2.33567,0.00000,2.02202,2.02118,-0.95830,1.78153,2.27155,-1.05006,2.03857,1.93552,1.93552,A,172434.50
2.35034,57.68784902,11.98136221,57.68785133,11.98136067,18:25:04.990651,0.00318,0.00000,0.00000,-0.04607,-0.00416,-0.03775,0.01249,-0.00622,-0.00268,-0.05203,0.90188,2.34605,0.00000,2.02202,2.02118,-0.95830,1.78153,2.27155,-1.05006,2.03857,1.93552,1.93552,A,172434.50
2.36056,57.68784902,11.98136221,57.68785133,11.98136067,18:25:05.000876,0.00299,0.00000,0.00000,-0.04677,-0.00416,-0.03775,0.01295,-0.00591,0.00647,-0.04154,0.88560,2.35629,0.00000,2.02202,2.02118,-0.95830,1.78153,2.27155,-1.05006,2.03857,1.93552,1.93552,A,172434.50
2.37112,57.68784902,11.98136221,57.68785133,11.98136067,18:25:05.011438,0.00315,0.00000,0.00000,-0.04731,-0.00416,-0.03088,-0.00064,-0.00515,0.04544,-0.03727,0.93263,2.36685,0.00000,2.02202,2.02118,-0.95830,1.78153,2.27155,-1.05006,2.03857,1.93552,1.93552,A,172434.50
2.39825,57.68784902,11.98136221,57.68785233,11.98135917,18:25:05.038582,0.01989,0.00000,0.00000,-0.04792,-0.00416,-0.03134,-0.00919,-0.00408,0.01690,-0.04660,1.01541,2.37705,0.00000,2.02202,2.02118,-0.95830,1.78153,2.39298,-1.13921,2.14977,2.24663,2.24663,A,172434.60
2.41227,57.68784919,11.98136206,57.68785233,11.98135917,18:25:05.052589,0.00774,0.00000,0.00000,-0.04900,-0.00416,-0.02279,-0.00293,-0.01095,0.00433,-0.05990,1.07665,2.40600,0.00000,2.05589,2.05466,-0.96735,1.79994,2.39298,-1.13921,2.14977,2.24663,2.24663,A,172434.60
2.41809,57.68784919,11.98136206,57.68785233,11.98135917,18:25:05.058404,0.00316,0.00000,0.00000,-0.04971,-0.00416,-0.02431,-0.00309,-0.00759,0.00805,-0.06490,1.02620,2.41380,0.00000,2.05589,2.05466,-0.96735,1.79994,2.39298,-1.13921,2.14977,2.24663,2.24663,A,172434.60
2.42851,57.68784919,11.98136206,57.68785233,11.98135917,18:25:05.068823,0.00303,0.00000,0.00000,-0.05061,-0.00416,-0.02523,0.00302,-0.00790,-0.03636,-0.07119,0.99534,2.42422,0.00000,2.05589,2.05466,-0.96735,1.79994,2.39298,-1.13921,2.14977,2.24663,2.24663,A,172434.60
2.43912,57.68784919,11.98136206,57.68785233,11.98135917,18:25:05.079439,0.00325,0.00000,0.00000,-0.05087,-0.00416,-0.02920,0.00791,-0.00942,-0.05545,-0.02434,0.92970,2.43485,0.00000,2.05589,2.05466,-0.96735,1.79994,2.39298,-1.13921,2.14977,2.24663,2.24663,A,172434.60
2.44944,57.68784919,11.98136206,57.68785233,11.98135917,18:25:05.089765,0.00318,0.00000,0.00000,-0.05077,-0.00416,-0.02217,0.01845,-0.00560,-0.03636,-0.00799,0.89060,2.44495,0.00000,2.05589,2.05466,-0.96735,1.79994,2.39298,-1.13921,2.14977,2.24663,2.24663,A,172434.60
2.45994,57.68784919,11.98136206,57.68785233,11.98135917,18:25:05.100261,0.00318,0.00000,0.00000,-0.05025,-0.00416,-0.01637,0.01723,0.00157,-0.00732,0.01519,0.90823,2.45566,0.00000,2.05589,2.05466,-0.96735,1.79994,2.39298,-1.13921,2.14977,2.24663,2.24663,A,172434.60
2.47032,57.68784919,11.98136206,57.68785233,11.98135917,18:25:05.110633,0.00316,0.00000,0.00000,-0.04999,-0.00416,-0.01042,0.00944,0.00157,-0.01989,-0.00494,0.96081,2.46604,0.00000,2.05589,2.05466,-0.96735,1.79994,2.39298,-1.13921,2.14977,2.24663,2.24663,A,172434.60
2.48054,57.68784919,11.98136206,57.68785233,11.98135917,18:25:05.120858,0.00297,0.00000,0.00000,-0.05011,-0.00416,-0.00522,0.00486,0.00967,0.00842,-0.03410,1.02876,2.47627,0.00000,2.05589,2.05466,-0.96735,1.79994,2.39298,-1.13921,2.14977,2.24663,2.24663,A,172434.60
2.49113,57.68784919,11.98136206,57.68785233,11.98135917,18:25:05.131441,0.00316,0.00000,0.00000,-0.05037,-0.00416,-0.00797,-0.00675,0.00906,0.02721,-0.04410,1.07024,2.48685,0.00000,2.05589,2.05466,-0.96735,1.79994,2.39298,-1.13921,2.14977,2.24663,2.24663,A,172434.60
2.51757,57.68784919,11.98136206,57.68785367,11.98135833,18:25:05.157905,0.01920,0.00000,0.00000,-0.05024,-0.00416,-0.00553,-0.01973,0.01150,0.00165,-0.01812,1.08800,2.49705,0.00000,2.05589,2.05466,-0.96735,1.79994,2.51283,-1.18874,2.29803,1.89322,1.89322,A,172434.70
2.52897,57.68784941,11.98136187,57.68785367,11.98135833,18:25:05.169542,0.00636,0.00000,0.00000,-0.05046,-0.00416,-0.00049,-0.02813,0.00188,-0.04008,-0.04557,1.05164,2.52175,0.00000,2.03168,2.03044,-0.97842,1.82484,2.51283,-1.18874,2.29803,1.89322,1.89322,A,172434.70
2.53618,57.68784941,11.98136187,57.68785367,11.98135833,18:25:05.176496,0.00318,0.00000,0.00000,-0.05033,-0.00416,-0.00079,-0.02492,-0.00148,-0.03459,-0.01989,1.00369,2.53191,0.00000,2.03168,2.03044,-0.97842,1.82484,2.51283,-1.18874,2.29803,1.89322,1.89322,A,172434.70
2.54684,57.68784941,11.98136187,57.68785367,11.98135833,18:25:05.187161,0.00321,0.00000,0.00000,-0.05093,-0.00416,0.00226,-0.02004,-0.00148,-0.03678,-0.06643,0.93232,2.54256,0.00000,2.03168,2.03044,-0.97842,1.82484,2.51283,-1.18874,2.29803,1.89322,1.89322,A,172434.70
2.55704,57.68784941,11.98136187,57.68785367,11.98135833,18:25:05.197538,0.00318,0.00000,0.00000,-0.05071,-0.00416,-0.00034,-0.01729,0.00279,0.00378,-0.01366,0.89798,2.55258,0.00000,2.03168,2.03044,-0.97842,1.82484,2.51283,-1.18874,2.29803,1.89322,1.89322,A,172434.70
2.56760,57.68784941,11.98136187,57.68785367,11.98135833,18:25:05.207913,0.00334,0.00000,0.00000,-0.05094,-0.00416,0.00195,-0.03027,0.01501,-0.03312,-0.04252,0.92073,2.56332,0.00000,2.03168,2.03044,-0.97842,1.82484,2.51283,-1.18874,2.29803,1.89322,1.89322,A,172434.70
2.57784,57.68784941,11.98136187,57.68785367,11.98135833,18:25:05.218153,0.00318,0.00000,0.00000,-0.05051,-0.00416,0.00669,-0.02920,0.01440,-0.06198,-0.00543,0.99107,2.57354,0.00000,2.03168,2.03044,-0.97842,1.82484,2.51283,-1.18874,2.29803,1.89322,1.89322,A,172434.70
2.58821,57.68784941,11.98136187,57.68785367,11.98135833,18:25:05.228531,0.00316,0.00000,0.00000,-0.05016,-0.00416,0.01249,-0.03180,0.01761,-0.07997,-0.01543,1.04749,2.58395,0.00000,2.03168,2.03044,-0.97842,1.82484,2.51283,-1.18874,2.29803,1.89322,1.89322,A,172434.70
2.59865,57.68784941,11.98136187,57.68785367,11.98135833,18:25:05.238963,0.00320,0.00000,0.00000,-0.04978,-0.00416,0.01249,-0.02355,0.01700,-0.02251,-0.01385,1.12185,2.59437,0.00000,2.03168,2.03044,-0.97842,1.82484,2.51283,-1.18874,2.29803,1.89322,1.89322,A,172434.70
2.60870,57.68784941,11.98136187,57.68785367,11.98135833,18:25:05.249005,0.00301,0.00000,0.00000,-0.04977,-0.00416,0.01723,-0.02554,0.01119,0.02355,-0.04398,1.11496,2.60441,0.00000,2.03168,2.03044,-0.97842,1.82484,2.51283,-1.18874,2.29803,1.89322,1.89322,A,172434.70
2.64627,57.68784941,11.98136187,57.68785600,11.98135567,18:25:05.286619,0.03019,0.00000,0.00000,-0.05015,-0.00416,0.01509,-0.02477,0.00906,0.01263,-0.06814,1.04639,2.61500,0.00000,2.03168,2.03044,-0.97842,1.82484,2.64182,-1.34724,2.55748,2.11919,2.11919,A,172434.90
2.65655,57.68784974,11.98136156,57.68785600,11.98135567,18:25:05.296869,0.00520,0.00000,0.00000,-0.04991,-0.00416,0.01509,-0.01118,0.00539,-0.07363,-0.04172,0.86894,2.65031,0.00000,2.04499,2.04375,-0.99686,1.86148,2.64182,-1.34724,2.55748,2.11919,2.11919,A,172434.90
2.66459,57.68784974,11.98136156,57.68785600,11.98135567,18:25:05.304901,0.00299,0.00000,0.00000,-0.04928,-0.00411,0.01723,0.00470,0.00921,-0.08638,0.00195,0.93092,2.66032,0.00000,2.04499,2.04375,-0.99686,1.86148,2.64182,-1.34724,2.55748,2.11919,2.11919,A,172434.90
2.67516,57.68784974,11.98136156,57.68785600,11.98135567,18:25:05.315468,0.00316,0.00000,0.00000,-0.04881,-0.00399,0.01845,0.02349,0.01547,-0.06368,-0.00970,0.96654,2.67088,0.00000,2.04499,2.04375,-0.99686,1.86148,2.64182,-1.34724,2.55748,2.11919,2.11919,A,172434.90
2.68558,57.68784974,11.98136156,57.68785600,11.98135567,18:25:05.325905,0.00319,0.00000,0.00000,-0.04826,-0.00380,0.01203,0.03066,0.02036,-0.02757,0.00104,0.98118,2.68109,0.00000,2.04499,2.04375,-0.99686,1.86148,2.64182,-1.34724,2.55748,2.11919,2.11919,A,172434.90
2.69618,57.68784974,11.98136156,57.68785600,11.98135567,18:25:05.336498,0.00339,0.00000,0.00000,-0.04781,-0.00360,0.00990,0.04273,0.02204,-0.05520,-0.00427,1.03108,2.69190,0.00000,2.04499,2.04375,-0.99686,1.86148,2.64182,-1.34724,2.55748,2.11919,2.11919,A,172434.90
2.70637,57.68784974,11.98136156,57.68785600,11.98135567,18:25:05.346697,0.00318,0.00000,0.00000,-0.04728,-0.00354,0.00119,0.04578,0.02494,-0.05167,0.00823,1.04164,2.70209,0.00000,2.04499,2.04375,-0.99686,1.86148,2.64182,-1.34724,2.55748,2.11919,2.11919,A,172434.90
2.71656,57.68784974,11.98136156,57.68785600,11.98135567,18:25:05.356871,0.00298,0.00000,0.00000,-0.04658,-0.00354,0.00257,0.04426,0.01761,0.03721,0.01885,1.01821,2.71229,0.00000,2.04499,2.04375,-0.99686,1.86148,2.64182,-1.34724,2.55748,2.11919,2.11919,A,172434.90
2.72773,57.68784974,11.98136156,57.68785600,11.98135567,18:25:05.368051,0.00339,0.00000,0.00000,-0.04570,-0.00354,0.00425,0.01234,0.01593,0.08906,0.03032,1.00784,2.72345,0.00000,2.04499,2.04375,-0.99686,1.86148,2.64182,-1.34724,2.55748,2.11919,2.11919,A,172434.90
2.73864,57.68784974,11.98136156,57.68785600,11.98135567,18:25:05.378972,0.00380,0.00000,0.00000,-0.04513,-0.00354,0.01356,-0.01775,0.00661,0.01702,0.00354,1.04639,2.73431,0.00000,2.04499,2.04375,-0.99686,1.86148,2.64182,-1.34724,2.55748,2.11919,2.11919,A,172434.90
2.76408,57.68784974,11.98136156,57.68785733,11.98135450,18:25:05.404418,0.01868,0.00000,0.00000,-0.04564,-0.00354,0.01249,-0.03775,0.00295,0.03758,-0.06783,1.02334,2.74409,0.00000,2.04499,2.04375,-0.99686,1.86148,2.76004,-1.41659,2.70574,2.00828,2.00828,A,172435.00
2.77534,57.68785012,11.98136121,57.68785733,11.98135450,18:25:05.415674,0.00602,0.00000,0.00000,-0.04681,-0.00354,0.00608,-0.00950,-0.00530,-0.05392,-0.11956,1.06189,2.76808,0.00000,2.03964,2.03859,-1.01784,1.90369,2.76004,-1.41659,2.70574,2.00828,2.00828,A,172435.00
2.78291,57.68785012,11.98136121,57.68785733,11.98135450,18:25:05.423220,0.00319,0.00000,0.00000,-0.04652,-0.00354,-0.00034,-0.00034,0.00066,-0.03593,-0.00598,1.00589,2.77863,0.00000,2.03964,2.03859,-1.01784,1.90369,2.76004,-1.41659,2.70574,2.00828,2.00828,A,172435.00
2.79292,57.68785012,11.98136121,57.68785733,11.98135450,18:25:05.433570,0.00297,0.00000,0.00000,-0.04644,-0.00351,0.00593,0.00669,0.01150,-0.00250,-0.02214,0.93043,2.78865,0.00000,2.03964,2.03859,-1.01784,1.90369,2.76004,-1.41659,2.70574,2.00828,2.00828,A,172435.00
2.80427,57.68785012,11.98136121,57.68785733,11.98135450,18:25:05.444587,0.00393,0.00000,0.00000,-0.04570,-0.00351,0.01402,-0.01118,0.02280,-0.00964,0.01196,0.90463,2.79999,0.00000,2.03964,2.03859,-1.01784,1.90369,2.76004,-1.41659,2.70574,2.00828,2.00828,A,172435.00
2.81390,57.68785012,11.98136121,57.68785733,11.98135450,18:25:05.454210,0.00316,0.00000,0.00000,-0.04549,-0.00351,0.01875,-0.01439,0.02860,-0.00982,-0.02019,0.89493,2.80961,0.00000,2.03964,2.03859,-1.01784,1.90369,2.76004,-1.41659,2.70574,2.00828,2.00828,A,172435.00
2.82447,57.68785012,11.98136121,57.68785733,11.98135450,18:25:05.464779,0.00300,0.00000,0.00000,-0.04485,-0.00351,0.01539,-0.02813,0.02952,0.00543,0.00683,0.93714,2.82020,0.00000,2.03964,2.03859,-1.01784,1.90369,2.76004,-1.41659,2.70574,2.00828,2.00828,A,172435.00
2.83503,57.68785012,11.98136121,57.68785733,11.98135450,18:25:05.475341,0.00317,0.00000,0.00000,-0.04471,-0.00351,0.01646,-0.03684,0.02540,-0.01970,-0.02580,0.99839,2.83076,0.00000,2.03964,2.03859,-1.01784,1.90369,2.76004,-1.41659,2.70574,2.00828,2.00828,A,172435.00
2.84539,57.68785012,11.98136121,57.68785733,11.98135450,18:25:05.485719,0.00314,0.00000,0.00000,-0.04456,-0.00351,0.01768,-0.03959,0.01562,-0.03148,-0.02684,1.05335,2.84091,0.00000,2.03964,2.03859,-1.01784,1.90369,2.76004,-1.41659,2.70574,2.00828,2.00828,A,172435.00
2.85580,57.68785012,11.98136121,57.68785733,11.98135450,18:25:05.496104,0.00315,0.00000,0.00000,-0.04405,-0.00351,0.01906,-0.03470,0.00554,-0.05197,-0.00305,1.12722,2.85153,0.00000,2.03964,2.03859,-1.01784,1.90369,2.76004,-1.41659,2.70574,2.00828,2.00828,A,172435.00
2.88162,57.68785012,11.98136121,57.68785833,11.98135283,18:25:05.521946,0.01831,0.00000,0.00000,-0.04394,-0.00351,0.00623,-0.02874,-0.00133,-0.01281,-0.02306,1.13924,2.86241,0.00000,2.03964,2.03859,-1.01784,1.90369,2.87811,-1.51565,2.81694,2.29855,2.29855,A,172435.10
2.89186,57.68785053,11.98136079,57.68785833,11.98135283,18:25:05.532175,0.00516,0.00000,0.00000,-0.04406,-0.00351,0.00409,-0.01653,-0.00652,-0.06051,-0.03703,0.99875,2.88563,0.00000,2.07864,2.07759,-1.04274,1.94935,2.87811,-1.51565,2.81694,2.29855,2.29855,A,172435.10
2.90040,57.68785053,11.98136079,57.68785833,11.98135283,18:25:05.540712,0.00329,0.00000,0.00000,-0.04341,-0.00351,0.00562,-0.00858,-0.00087,0.00830,0.01562,0.92500,2.89612,0.00000,2.07864,2.07759,-1.04274,1.94935,2.87811,-1.51565,2.81694,2.29855,2.29855,A,172435.10
2.91067,57.68785053,11.98136079,57.68785833,11.98135283,18:25:05.550987,0.00317,0.00000,0.00000,-0.04362,-0.00351,0.00837,-0.01286,0.01791,-0.01665,-0.03825,0.91049,2.90640,0.00000,2.07864,2.07759,-1.04274,1.94935,2.87811,-1.51565,2.81694,2.29855,2.29855,A,172435.10
2.92089,57.68785053,11.98136079,57.68785833,11.98135283,18:25:05.561415,0.00315,0.00000,0.00000,-0.04337,-0.00351,0.01555,-0.01744,0.02723,0.00238,-0.01476,0.89572,2.91659,0.00000,2.07864,2.07759,-1.04274,1.94935,2.87811,-1.51565,2.81694,2.29855,2.29855,A,172435.10
2.93144,57.68785053,11.98136079,57.68785833,11.98135283,18:25:05.571750,0.00330,0.00000,0.00000,-0.04411,-0.00351,0.01616,-0.01179,0.03380,-0.03965,-0.07857,0.94269,2.92716,0.00000,2.07864,2.07759,-1.04274,1.94935,2.87811,-1.51565,2.81694,2.29855,2.29855,A,172435.10
2.94168,57.68785053,11.98136079,57.68785833,11.98135283,18:25:05.581993,0.00315,0.00000,0.00000,-0.04417,-0.00351,0.00531,-0.01775,0.03257,-0.02068,-0.03044,1.00607,2.93719,0.00000,2.07864,2.07759,-1.04274,1.94935,2.87811,-1.51565,2.81694,2.29855,2.29855,A,172435.10
2.95214,57.68785053,11.98136079,57.68785833,11.98135283,18:25:05.592455,0.00322,0.00000,0.00000,-0.04388,-0.00351,0.00852,-0.02019,0.02769,0.00140,-0.01055,1.05530,2.94786,0.00000,2.07864,2.07759,-1.04274,1.94935,2.87811,-1.51565,2.81694,2.29855,2.29855,A,172435.10
2.96238,57.68785053,11.98136079,57.68785833,11.98135283,18:25:05.602693,0.00306,0.00000,0.00000,-0.04364,-0.00351,0.00760,-0.02538,0.02081,0.04160,-0.01305,1.08177,2.95811,0.00000,2.07864,2.07759,-1.04274,1.94935,2.87811,-1.51565,2.81694,2.29855,2.29855,A,172435.10
2.97352,57.68785053,11.98136079,57.68785833,11.98135283,18:25:05.613848,0.00393,0.00000,0.00000,-0.04347,-0.00351,0.01555,-0.03271,0.01104,0.04069,-0.02330,1.05847,2.96902,0.00000,2.07864,2.07759,-1.04274,1.94935,2.87811,-1.51565,2.81694,2.29855,2.29855,A,172435.10
2.99839,57.68785053,11.98136079,57.68785983,11.98135183,18:25:05.638720,0.01842,0.00000,0.00000,-0.04263,-0.00351,0.00577,-0.04004,0.00524,-0.02586,0.02971,1.00089,2.97887,0.00000,2.07864,2.07759,-1.04274,1.94935,2.99487,-1.57509,2.98373,1.91312,1.91312,A,172435.20
3.00873,57.68785100,11.98136034,57.68785983,11.98135183,18:25:05.649040,0.00530,0.00000,0.00000,-0.04243,-0.00348,0.00776,-0.01790,0.00524,-0.05819,-0.01970,0.96124,3.00251,0.00000,2.05396,2.05293,-1.06935,2.00107,2.99487,-1.57509,2.98373,1.91312,1.91312,A,172435.20
3.01665,57.68785100,11.98136034,57.68785983,11.98135183,18:25:05.656953,0.00298,0.00000,0.00000,-0.04203,-0.00334,0.01020,-0.02034,0.01394,0.02068,-0.00116,0.95331,3.01238,0.00000,2.05396,2.05293,-1.06935,2.00107,2.99487,-1.57509,2.98373,1.91312,1.91312,A,172435.20
3.02720,57.68785100,11.98136034,57.68785983,11.98135183,18:25:05.667513,0.00314,0.00000,0.00000,-0.04243,-0.00306,0.01448,-0.02050,0.01868,0.07631,-0.05246,0.91402,3.02292,0.00000,2.05396,2.05293,-1.06935,2.00107,2.99487,-1.57509,2.98373,1.91312,1.91312,A,172435.20
3.03760,57.68785100,11.98136034,57.68785983,11.98135183,18:25:05.677913,0.00314,0.00000,0.00000,-0.04270,-0.00281,0.01387,-0.03760,0.02967,0.04154,-0.04496,0.92080,3.03311,0.00000,2.05396,2.05293,-1.06935,2.00107,2.99487,-1.57509,2.98373,1.91312,1.91312,A,172435.20
3.04796,57.68785100,11.98136034,57.68785983,11.98135183,18:25:05.688278,0.00311,0.00000,0.00000,-0.04303,-0.00264,0.01264,-0.05012,0.03013,-0.03922,-0.05008,0.94782,3.04370,0.00000,2.05396,2.05293,-1.06935,2.00107,2.99487,-1.57509,2.98373,1.91312,1.91312,A,172435.20
3.05856,57.68785100,11.98136034,57.68785983,11.98135183,18:25:05.698876,0.00332,0.00000,0.00000,-0.04312,-0.00261,0.00898,-0.04310,0.02738,-0.06917,-0.03404,1.00650,3.05426,0.00000,2.05396,2.05293,-1.06935,2.00107,2.99487,-1.57509,2.98373,1.91312,1.91312,A,172435.20
3.06854,57.68785100,11.98136034,57.68785983,11.98135183,18:25:05.708847,0.00296,0.00000,0.00000,-0.04294,-0.00261,-0.00309,-0.02966,0.02173,-0.12096,-0.00915,1.08775,3.06427,0.00000,2.05396,2.05293,-1.06935,2.00107,2.99487,-1.57509,2.98373,1.91312,1.91312,A,172435.20
3.07919,57.68785100,11.98136034,57.68785983,11.98135183,18:25:05.719503,0.00322,0.00000,0.00000,-0.04294,-0.00261,0.00638,-0.01240,0.01562,-0.03257,-0.02910,1.09727,3.07492,0.00000,2.05396,2.05293,-1.06935,2.00107,2.99487,-1.57509,2.98373,1.91312,1.91312,A,172435.20
3.08951,57.68785100,11.98136034,57.68785983,11.98135183,18:25:05.729839,0.00315,0.00000,0.00000,-0.04244,-0.00261,-0.00049,-0.02172,0.01425,0.01165,0.01311,1.07390,3.08502,0.00000,2.05396,2.05293,-1.06935,2.00107,2.99487,-1.57509,2.98373,1.91312,1.91312,A,172435.20
3.11701,57.68785100,11.98136034,57.68786100,11.98135067,18:25:05.757583,0.02024,0.00000,0.00000,-0.04230,-0.00261,-0.00507,-0.02966,0.00951,0.03776,-0.00860,1.00070,3.09565,0.00000,2.05396,2.05293,-1.06935,2.00107,3.11152,-1.64443,3.11346,2.06169,2.06169,A,172435.30
3.12855,57.68785150,11.98135986,57.68786100,11.98135067,18:25:05.768874,0.00525,0.00000,0.00000,-0.04208,-0.00261,-0.00446,-0.01607,0.00799,-0.08436,0.00122,0.89822,3.12231,0.00000,2.05524,2.05446,-1.09811,2.05669,3.11152,-1.64443,3.11346,2.06169,2.06169,A,172435.30
3.13663,57.68785150,11.98135986,57.68786100,11.98135067,18:25:05.776941,0.00298,0.00000,0.00000,-0.04208,-0.00258,-0.00278,-0.01683,0.00677,-0.07027,-0.01763,0.89914,3.13235,0.00000,2.05524,2.05446,-1.09811,2.05669,3.11152,-1.64443,3.11346,2.06169,2.06169,A,172435.30
3.14718,57.68785150,11.98135986,57.68786100,11.98135067,18:25:05.787496,0.00314,0.00000,0.00000,-0.04195,-0.00255,0.00073,-0.01072,0.01654,0.02409,-0.01128,0.87992,3.14291,0.00000,2.05524,2.05446,-1.09811,2.05669,3.11152,-1.64443,3.11346,2.06169,2.06169,A,172435.30
3.15771,57.68785150,11.98135986,57.68786100,11.98135067,18:25:05.798217,0.00328,0.00000,0.00000,-0.04228,-0.00255,-0.00156,-0.02569,0.01318,-0.01165,-0.03867,0.92183,3.15309,0.00000,2.05524,2.05446,-1.09811,2.05669,3.11152,-1.64443,3.11346,2.06169,2.06169,A,172435.30
3.16798,57.68785150,11.98135986,57.68786100,11.98135067,18:25:05.808294,0.00315,0.00000,0.00000,-0.04281,-0.00255,-0.00507,-0.03210,0.02081,-0.05374,-0.05337,1.01077,3.16371,0.00000,2.05524,2.05446,-1.09811,2.05669,3.11152,-1.64443,3.11346,2.06169,2.06169,A,172435.30
3.17837,57.68785150,11.98135986,57.68786100,11.98135067,18:25:05.818686,0.00314,0.00000,0.00000,-0.04303,-0.00255,-0.00736,-0.02386,0.02265,-0.02117,-0.03398,1.08556,3.17409,0.00000,2.05524,2.05446,-1.09811,2.05669,3.11152,-1.64443,3.11346,2.06169,2.06169,A,172435.30
3.18854,57.68785150,11.98135986,57.68786100,11.98135067,18:25:05.828848,0.00296,0.00000,0.00000,-0.04252,-0.00255,0.00501,-0.02004,0.02127,0.00994,0.00964,1.11490,3.18427,0.00000,2.05524,2.05446,-1.09811,2.05669,3.11152,-1.64443,3.11346,2.06169,2.06169,A,172435.30
3.19912,57.68785150,11.98135986,57.68786100,11.98135067,18:25:05.839425,0.00313,0.00000,0.00000,-0.04241,-0.00255,-0.00202,-0.02935,0.01852,0.04862,-0.01446,1.12289,3.19484,0.00000,2.05524,2.05446,-1.09811,2.05669,3.11152,-1.64443,3.11346,2.06169,2.06169,A,172435.30
3.20951,57.68785150,11.98135986,57.68786100,11.98135067,18:25:05.849835,0.00314,0.00000,0.00000,-0.04215,-0.00255,0.01158,-0.03134,0.01730,-0.04502,-0.01251,1.07927,3.20503,0.00000,2.05524,2.05446,-1.09811,2.05669,3.11152,-1.64443,3.11346,2.06169,2.06169,A,172435.30
3.25060,57.68785150,11.98135986,57.68786367,11.98134817,18:25:05.890929,0.03383,0.00000,0.00000,-0.04281,-0.00255,0.01341,-0.02599,0.01348,-0.07125,-0.07814,1.03981,3.21564,0.00000,2.05524,2.05446,-1.09811,2.05669,3.24685,-1.79302,3.40998,2.03534,2.03534,A,172435.50
3.26274,57.68785210,11.98135927,57.68786367,11.98134817,18:25:05.903075,0.00711,0.00000,0.00000,-0.04154,-0.00167,0.01432,-0.02935,0.02173,-0.05337,0.02373,0.90219,3.25479,0.00000,2.05233,2.05183,-1.13285,2.12435,3.24685,-1.79302,3.40998,2.03534,2.03534,A,172435.50
3.26884,57.68785210,11.98135927,57.68786367,11.98134817,18:25:05.909344,0.00297,0.00000,0.00000,-0.04075,-0.00119,0.01295,-0.02966,0.02952,-0.08040,0.02300,0.94989,3.26458,0.00000,2.05233,2.05183,-1.13285,2.12435,3.24685,-1.79302,3.40998,2.03534,2.03534,A,172435.50
3.27965,57.68785210,11.98135927,57.68786367,11.98134817,18:25:05.919967,0.00339,0.00000,0.00000,-0.04007,-0.00080,0.02211,-0.01897,0.02738,-0.17544,0.01068,1.12929,3.27538,0.00000,2.05233,2.05183,-1.13285,2.12435,3.24685,-1.79302,3.40998,2.03534,2.03534,A,172435.50
3.29280,57.68785210,11.98135927,57.68786367,11.98134817,18:25:05.933827,0.00534,0.00000,0.00000,-0.04035,-0.00057,0.02150,0.01829,0.02524,-0.14445,-0.06429,1.19908,3.28698,0.00000,2.05233,2.05183,-1.13285,2.12435,3.24685,-1.79302,3.40998,2.03534,2.03534,A,172435.50
3.30069,57.68785210,11.98135927,57.68786367,11.98134817,18:25:05.941008,0.00300,0.00000,0.00000,-0.04060,-0.00054,0.02120,0.03861,0.01975,0.02733,-0.05758,1.16803,3.29642,0.00000,2.05233,2.05183,-1.13285,2.12435,3.24685,-1.79302,3.40998,2.03534,2.03534,A,172435.50
3.31122,57.68785210,11.98135927,57.68786367,11.98134817,18:25:05.951532,0.00313,0.00000,0.00000,-0.04105,-0.00054,0.01234,0.02608,0.02265,0.08686,-0.06118,1.04548,3.30695,0.00000,2.05233,2.05183,-1.13285,2.12435,3.24685,-1.79302,3.40998,2.03534,2.03534,A,172435.50
3.32177,57.68785210,11.98135927,57.68786367,11.98134817,18:25:05.962098,0.00329,0.00000,0.00000,-0.04117,-0.00054,0.00715,-0.00232,0.01562,0.06057,-0.03026,0.92921,3.31729,0.00000,2.05233,2.05183,-1.13285,2.12435,3.24685,-1.79302,3.40998,2.03534,2.03534,A,172435.50
3.33216,57.68785210,11.98135927,57.68786367,11.98134817,18:25:05.972470,0.00327,0.00000,0.00000,-0.03962,-0.00054,0.01020,-0.03577,0.02020,0.05063,0.06265,0.82362,3.32789,0.00000,2.05233,2.05183,-1.13285,2.12435,3.24685,-1.79302,3.40998,2.03534,2.03534,A,172435.50
3.34278,57.68785210,11.98135927,57.68786367,11.98134817,18:25:05.983096,0.00318,0.00000,0.00000,-0.03851,-0.00054,0.02440,-0.05638,0.01929,-0.02007,0.03129,0.80935,3.33851,0.00000,2.05233,2.05183,-1.13285,2.12435,3.24685,-1.79302,3.40998,2.03534,2.03534,A,172435.50
3.36989,57.68785210,11.98135927,57.68786517,11.98134667,18:25:06.010814,0.02006,0.00000,0.00000,-0.03924,-0.00054,0.03067,-0.05089,0.01379,-0.13969,-0.07674,0.88718,3.34853,0.00000,2.05233,2.05183,-1.13285,2.12435,3.36441,-1.88218,3.57677,2.06169,2.06169,A,172435.60
3.38769,57.68785276,11.98135864,57.68786517,11.98134667,18:25:06.028009,0.00612,0.00000,0.00000,-0.03929,-0.00054,-0.00232,-0.01454,0.02066,0.14195,-0.01549,0.93031,3.38124,0.00000,2.05376,2.05360,-1.17032,2.19698,3.36441,-1.88218,3.57677,2.06169,2.06169,A,172435.60
3.39512,57.68785276,11.98135864,57.68786517,11.98134667,18:25:06.035430,0.00315,0.00000,0.00000,-0.03833,-0.00054,-0.00507,-0.04936,0.02173,0.06076,0.04563,0.93781,3.39085,0.00000,2.05376,2.05360,-1.17032,2.19698,3.36441,-1.88218,3.57677,2.06169,2.06169,A,172435.60
3.40553,57.68785276,11.98135864,57.68786517,11.98134667,18:25:06.045855,0.00317,0.00000,0.00000,-0.03718,-0.00054,0.00425,-0.07089,0.01944,-0.09010,0.05661,0.99558,3.40104,0.00000,2.05376,2.05360,-1.17032,2.19698,3.36441,-1.88218,3.57677,2.06169,2.06169,A,172435.60
3.41591,57.68785276,11.98135864,57.68786517,11.98134667,18:25:06.056221,0.00316,0.00000,0.00000,-0.03634,-0.00054,0.01692,-0.06494,0.02066,-0.14780,0.03038,1.09245,3.41164,0.00000,2.05376,2.05360,-1.17032,2.19698,3.36441,-1.88218,3.57677,2.06169,2.06169,A,172435.60
3.42655,57.68785276,11.98135864,57.68786517,11.98134667,18:25:06.066876,0.00335,0.00000,0.00000,-0.03611,-0.00054,0.01692,-0.03073,0.01135,-0.09607,-0.01311,1.13021,3.42224,0.00000,2.05376,2.05360,-1.17032,2.19698,3.36441,-1.88218,3.57677,2.06169,2.06169,A,172435.60
3.43656,57.68785276,11.98135864,57.68786517,11.98134667,18:25:06.076871,0.00298,0.00000,0.00000,-0.03621,-0.00054,0.01051,-0.00156,0.01455,-0.06082,-0.03361,1.17413,3.43229,0.00000,2.05376,2.05360,-1.17032,2.19698,3.36441,-1.88218,3.57677,2.06169,2.06169,A,172435.60
3.44711,57.68785276,11.98135864,57.68786517,11.98134667,18:25:06.087421,0.00314,0.00000,0.00000,-0.03694,-0.00054,-0.00538,-0.00645,0.00417,0.11157,-0.06582,1.09355,3.44284,0.00000,2.05376,2.05360,-1.17032,2.19698,3.36441,-1.88218,3.57677,2.06169,2.06169,A,172435.60
3.45753,57.68785276,11.98135864,57.68786517,11.98134667,18:25:06.097853,0.00316,0.00000,0.00000,-0.03697,-0.00054,-0.00858,-0.01851,0.00860,0.05258,-0.01244,1.01406,3.45305,0.00000,2.05376,2.05360,-1.17032,2.19698,3.36441,-1.88218,3.57677,2.06169,2.06169,A,172435.60
3.48553,57.68785276,11.98135864,57.68786633,11.98134533,18:25:06.125869,0.02077,0.00000,0.00000,-0.03718,-0.00054,-0.00904,-0.02508,0.00936,-0.09778,-0.02257,0.97630,3.46366,0.00000,2.05376,2.05360,-1.17032,2.19698,3.47939,-1.96143,3.70650,2.11919,2.11919,A,172435.70
3.50033,57.68785344,11.98135798,57.68786633,11.98134533,18:25:06.140667,0.00750,0.00000,0.00000,-0.03788,-0.00054,0.01020,-0.00232,0.00585,0.01104,-0.07863,0.94422,3.49322,0.00000,2.06359,2.06343,-1.20987,2.27245,3.47939,-1.96143,3.70650,2.11919,2.11919,A,172435.70
3.50639,57.68785344,11.98135798,57.68786633,11.98134533,18:25:06.146701,0.00315,0.00000,0.00000,-0.03836,-0.00054,0.00562,-0.00568,0.01165,0.11102,-0.04636,0.89798,3.50210,0.00000,2.06359,2.06343,-1.20987,2.27245,3.47939,-1.96143,3.70650,2.11919,2.11919,A,172435.70
3.51654,57.68785344,11.98135798,57.68786633,11.98134533,18:25:06.156848,0.00297,0.00000,0.00000,-0.03984,-0.00054,-0.00156,-0.01973,0.01318,0.05441,-0.11041,0.95239,3.51227,0.00000,2.06359,2.06343,-1.20987,2.27245,3.47939,-1.96143,3.70650,2.11919,2.11919,A,172435.70
3.52711,57.68785344,11.98135798,57.68786633,11.98134533,18:25:06.167416,0.00314,0.00000,0.00000,-0.04090,-0.00054,-0.00232,-0.01851,0.01471,-0.09241,-0.08869,1.01034,3.52285,0.00000,2.06359,2.06343,-1.20987,2.27245,3.47939,-1.96143,3.70650,2.11919,2.11919,A,172435.70
3.53752,57.68785344,11.98135798,57.68786633,11.98134533,18:25:06.177848,0.00315,0.00000,0.00000,-0.04070,-0.00054,-0.00492,-0.00049,0.01715,-0.20905,-0.00342,1.12118,3.53305,0.00000,2.06359,2.06343,-1.20987,2.27245,3.47939,-1.96143,3.70650,2.11919,2.11919,A,172435.70
3.54792,57.68785344,11.98135798,57.68786633,11.98134533,18:25:06.188226,0.00315,0.00000,0.00000,-0.04007,-0.00054,0.00593,0.04395,0.01898,-0.15805,0.02105,1.16382,3.54365,0.00000,2.06359,2.06343,-1.20987,2.27245,3.47939,-1.96143,3.70650,2.11919,2.11919,A,172435.70
3.55831,57.68785344,11.98135798,57.68786633,11.98134533,18:25:06.198623,0.00315,0.00000,0.00000,-0.03897,-0.00054,0.01173,0.04303,0.01898,0.14628,0.04929,1.07433,3.55404,0.00000,2.06359,2.06343,-1.20987,2.27245,3.47939,-1.96143,3.70650,2.11919,2.11919,A,172435.70
3.56853,57.68785344,11.98135798,57.68786633,11.98134533,18:25:06.208837,0.00296,0.00000,0.00000,-0.03780,-0.00054,0.01997,0.00760,0.01914,0.19294,0.04898,1.04755,3.56427,0.00000,2.06359,2.06343,-1.20987,2.27245,3.47939,-1.96143,3.70650,2.11919,2.11919,A,172435.70
3.57916,57.68785344,11.98135798,57.68786633,11.98134533,18:25:06.219473,0.00313,0.00000,0.00000,-0.03802,-0.00051,0.01371,-0.02263,0.02112,-0.01623,-0.04172,1.02065,3.57490,0.00000,2.06359,2.06343,-1.20987,2.27245,3.47939,-1.96143,3.70650,2.11919,2.11919,A,172435.70
3.60566,57.68785344,11.98135798,57.68786817,11.98134383,18:25:06.245997,0.01925,0.00000,0.00000,-0.03845,-0.00037,0.00363,-0.01485,0.01807,-0.21509,-0.04648,0.96972,3.58509,0.00000,2.06359,2.06343,-1.20987,2.27245,3.60122,-2.05058,3.91035,1.98308,1.98308,A,172435.80
3.61588,57.68785417,11.98135727,57.68786817,11.98134383,18:25:06.256197,0.00519,0.00000,0.00000,-0.03816,0.00068,0.00058,0.01234,0.02402,-0.05703,0.00067,0.87675,3.60963,0.00000,2.05149,2.05169,-1.25191,2.35435,3.60122,-2.05058,3.91035,1.98308,1.98308,A,172435.80
3.62422,57.68785417,11.98135727,57.68786817,11.98134383,18:25:06.264534,0.00314,0.00000,0.00000,-0.03749,0.00141,0.01020,0.01906,0.02845,0.04435,0.01818,0.87413,3.61996,0.00000,2.05149,2.05169,-1.25191,2.35435,3.60122,-2.05058,3.91035,1.98308,1.98308,A,172435.80
3.63466,57.68785417,11.98135727,57.68786817,11.98134383,18:25:06.274968,0.00318,0.00000,0.00000,-0.03701,0.00215,0.01799,0.00928,0.03395,0.00342,0.00287,0.95465,3.63038,0.00000,2.05149,2.05169,-1.25191,2.35435,3.60122,-2.05058,3.91035,1.98308,1.98308,A,172435.80
3.64469,57.68785417,11.98135727,57.68786817,11.98134383,18:25:06.285003,0.00298,0.00000,0.00000,-0.03741,0.00274,0.01891,0.01723,0.02769,-0.07759,-0.05722,1.04658,3.64041,0.00000,2.05149,2.05169,-1.25191,2.35435,3.60122,-2.05058,3.91035,1.98308,1.98308,A,172435.80
3.65524,57.68785417,11.98135727,57.68786817,11.98134383,18:25:06.295554,0.00314,0.00000,0.00000,-0.03663,0.00314,0.01203,0.01936,0.03303,-0.13957,0.02995,1.11600,3.65097,0.00000,2.05149,2.05169,-1.25191,2.35435,3.60122,-2.05058,3.91035,1.98308,1.98308,A,172435.80
3.66648,57.68785417,11.98135727,57.68786817,11.98134383,18:25:06.306820,0.00399,0.00000,0.00000,-0.03624,0.00334,0.01509,0.03189,0.02616,-0.03489,0.00018,1.14351,3.66118,0.00000,2.05149,2.05169,-1.25191,2.35435,3.60122,-2.05058,3.91035,1.98308,1.98308,A,172435.80
3.67602,57.68785417,11.98135727,57.68786817,11.98134383,18:25:06.316335,0.00313,0.00000,0.00000,-0.03615,0.00336,0.01891,0.02394,0.02372,0.04154,-0.02489,1.11801,3.67176,0.00000,2.05149,2.05169,-1.25191,2.35435,3.60122,-2.05058,3.91035,1.98308,1.98308,A,172435.80
3.68646,57.68785417,11.98135727,57.68786817,11.98134383,18:25:06.326781,0.00321,0.00000,0.00000,-0.03578,0.00336,0.02639,0.00928,0.01578,0.06082,-0.00860,1.06677,3.68217,0.00000,2.05149,2.05169,-1.25191,2.35435,3.60122,-2.05058,3.91035,1.98308,1.98308,A,172435.80
3.69673,57.68785417,11.98135727,57.68786817,11.98134383,18:25:06.337052,0.00313,0.00000,0.00000,-0.03575,0.00336,0.02410,-0.00858,0.01807,-0.04831,-0.02824,0.98009,3.69230,0.00000,2.05149,2.05169,-1.25191,2.35435,3.60122,-2.05058,3.91035,1.98308,1.98308,A,172435.80
3.72239,57.68785417,11.98135727,57.68786950,11.98134267,18:25:06.362716,0.01839,0.00000,0.00000,-0.03560,0.00336,0.03128,-0.01087,0.01623,-0.14262,-0.02562,0.97191,3.70291,0.00000,2.05149,2.05169,-1.25191,2.35435,3.71890,-2.11993,4.05861,2.00828,2.00828,A,172435.90
3.73280,57.68785494,11.98135654,57.68786950,11.98134267,18:25:06.373112,0.00520,0.00000,0.00000,-0.03481,0.00336,0.02746,0.00837,0.02387,0.00018,-0.00433,0.89951,3.72655,0.00000,2.04486,2.04586,-1.29531,2.43956,3.71890,-2.11993,4.05861,2.00828,2.00828,A,172435.90
3.74081,57.68785494,11.98135654,57.68786950,11.98134267,18:25:06.381117,0.00298,0.00000,0.00000,-0.03447,0.00336,0.03632,-0.00064,0.02692,0.01684,-0.01391,0.92665,3.73653,0.00000,2.04486,2.04586,-1.29531,2.43956,3.71890,-2.11993,4.05861,2.00828,2.00828,A,172435.90
3.75237,57.68785494,11.98135654,57.68786950,11.98134267,18:25:06.392682,0.00414,0.00000,0.00000,-0.03352,0.00336,0.04823,-0.01561,0.02860,-0.05106,0.01379,1.01278,3.74808,0.00000,2.04486,2.04586,-1.29531,2.43956,3.71890,-2.11993,4.05861,2.00828,2.00828,A,172435.90
3.76198,57.68785494,11.98135654,57.68786950,11.98134267,18:25:06.402288,0.00336,0.00000,0.00000,-0.03334,0.00336,0.05647,-0.00645,0.03380,-0.07259,-0.03849,1.05628,3.75769,0.00000,2.04486,2.04586,-1.29531,2.43956,3.71890,-2.11993,4.05861,2.00828,2.00828,A,172435.90
3.77216,57.68785494,11.98135654,57.68786950,11.98134267,18:25:06.412477,0.00315,0.00000,0.00000,-0.03289,0.00336,0.05464,0.00104,0.03578,-0.09553,-0.02111,1.12789,3.76789,0.00000,2.04486,2.04586,-1.29531,2.43956,3.71890,-2.11993,4.05861,2.00828,2.00828,A,172435.90
3.78283,57.68785494,11.98135654,57.68786950,11.98134267,18:25:06.423137,0.00321,0.00000,0.00000,-0.03254,0.00336,0.05968,0.01387,0.03089,-0.10419,-0.03361,1.11307,3.77854,0.00000,2.04486,2.04586,-1.29531,2.43956,3.71890,-2.11993,4.05861,2.00828,2.00828,A,172435.90
3.79285,57.68785494,11.98135654,57.68786950,11.98134267,18:25:06.433364,0.00301,0.00000,0.00000,-0.03191,0.00336,0.05724,0.01356,0.02005,0.06594,-0.00720,1.01620,3.78858,0.00000,2.04486,2.04586,-1.29531,2.43956,3.71890,-2.11993,4.05861,2.00828,2.00828,A,172435.90
3.80341,57.68785494,11.98135654,57.68786950,11.98134267,18:25:06.443724,0.00317,0.00000,0.00000,-0.03120,0.00336,0.06365,-0.00889,0.01929,0.03514,-0.00762,0.99631,3.79914,0.00000,2.04486,2.04586,-1.29531,2.43956,3.71890,-2.11993,4.05861,2.00828,2.00828,A,172435.90
3.81381,57.68785494,11.98135654,57.68786950,11.98134267,18:25:06.454130,0.00317,0.00000,0.00000,-0.03112,0.00336,0.06533,-0.02202,0.01455,0.03788,-0.04465,0.91653,3.80932,0.00000,2.04486,2.04586,-1.29531,2.43956,3.71890,-2.11993,4.05861,2.00828,2.00828,A,172435.90
3.85227,57.68785494,11.98135654,57.68787217,11.98133967,18:25:06.492603,0.03124,0.00000,0.00000,-0.03079,0.00336,0.06060,-0.04524,0.01058,-0.00506,-0.02617,0.84101,3.82011,0.00000,2.04486,2.04586,-1.29531,2.43956,3.84868,-2.29824,4.35513,2.11221,2.11221,A,172436.10
3.86285,57.68785580,11.98135570,57.68787217,11.98133967,18:25:06.503169,0.00547,0.00000,0.00000,-0.02883,0.00336,0.07022,0.00821,0.01089,-0.14829,-0.04978,1.08531,3.85631,0.00000,2.05481,2.05581,-1.34546,2.53534,3.84868,-2.29824,4.35513,2.11221,2.11221,A,172436.10
3.87095,57.68785580,11.98135570,57.68787217,11.98133967,18:25:06.511264,0.00318,0.00000,0.00000,-0.02790,0.00336,0.06243,0.03677,0.01440,-0.04673,0.01379,1.16724,3.86668,0.00000,2.05481,2.05581,-1.34546,2.53534,3.84868,-2.29824,4.35513,2.11221,2.11221,A,172436.10
3.88147,57.68785580,11.98135570,57.68787217,11.98133967,18:25:06.521807,0.00329,0.00000,0.00000,-0.02778,0.00336,0.05876,0.04670,0.00799,0.02995,-0.04416,1.15064,3.87686,0.00000,2.05481,2.05581,-1.34546,2.53534,3.84868,-2.29824,4.35513,2.11221,2.11221,A,172436.10
3.89176,57.68785580,11.98135570,57.68787217,11.98133967,18:25:06.532067,0.00319,0.00000,0.00000,-0.02683,0.00336,0.05495,0.02807,0.00799,-0.00293,0.02037,1.09532,3.88748,0.00000,2.05481,2.05581,-1.34546,2.53534,3.84868,-2.29824,4.35513,2.11221,2.11221,A,172436.10
3.90221,57.68785580,11.98135570,57.68787217,11.98133967,18:25:06.542527,0.00318,0.00000,0.00000,-0.02506,0.00328,0.04670,-0.00156,-0.00240,0.01196,0.08113,1.01126,3.89791,0.00000,2.05481,2.05581,-1.34546,2.53534,3.84868,-2.29824,4.35513,2.11221,2.11221,A,172436.10
3.91255,57.68785580,11.98135570,57.68787217,11.98133967,18:25:06.552860,0.00298,0.00000,0.00000,-0.02365,0.00297,0.05082,-0.03378,-0.00316,0.01183,0.05136,0.91988,3.90827,0.00000,2.05481,2.05581,-1.34546,2.53534,3.84868,-2.29824,4.35513,2.11221,2.11221,A,172436.10
3.92327,57.68785580,11.98135570,57.68787217,11.98133967,18:25:06.563582,0.00330,0.00000,0.00000,-0.02411,0.00232,0.06258,-0.04432,-0.01538,-0.00610,-0.07015,0.89969,3.91898,0.00000,2.05481,2.05581,-1.34546,2.53534,3.84868,-2.29824,4.35513,2.11221,2.11221,A,172436.10
3.93353,57.68785580,11.98135570,57.68787217,11.98133967,18:25:06.573858,0.00317,0.00000,0.00000,-0.02513,0.00144,0.05311,-0.04035,-0.01675,-0.11980,-0.09485,0.89493,3.92905,0.00000,2.05481,2.05581,-1.34546,2.53534,3.84868,-2.29824,4.35513,2.11221,2.11221,A,172436.10
3.94459,57.68785580,11.98135570,57.68787217,11.98133967,18:25:06.584904,0.00383,0.00000,0.00000,-0.02509,0.00036,0.04166,-0.00874,-0.01523,-0.13310,-0.03099,0.95355,3.94030,0.00000,2.05481,2.05581,-1.34546,2.53534,3.84868,-2.29824,4.35513,2.11221,2.11221,A,172436.10
3.96940,57.68785580,11.98135570,57.68787367,11.98133867,18:25:06.609740,0.01825,0.00000,0.00000,-0.02497,-0.00046,0.03769,0.01555,-0.01294,-0.09656,-0.01909,0.95886,3.95002,0.00000,2.05481,2.05581,-1.34546,2.53534,3.96589,-2.35768,4.52193,1.91312,1.91312,A,172436.20
3.97992,57.68785669,11.98135485,57.68787367,11.98133867,18:25:06.620247,0.00531,0.00000,0.00000,-0.02367,-0.00184,0.04304,0.03555,0.00554,-0.04612,0.01665,1.04383,3.97369,0.00000,2.03364,2.03309,-1.39607,2.63467,3.96589,-2.35768,4.52193,1.91312,1.91312,A,172436.20
3.98824,57.68785669,11.98135485,57.68787367,11.98133867,18:25:06.628552,0.00323,0.00000,0.00000,-0.02241,-0.00224,0.04334,0.02028,0.00936,-0.07808,0.05771,1.11154,3.98397,0.00000,2.03364,2.03309,-1.39607,2.63467,3.96589,-2.35768,4.52193,1.91312,1.91312,A,172436.20
3.99871,57.68785669,11.98135485,57.68787367,11.98133867,18:25:06.639024,0.00330,0.00000,0.00000,-0.02165,-0.00261,0.04181,0.01616,0.00356,-0.01580,0.02324,1.11264,3.99444,0.00000,2.03364,2.03309,-1.39607,2.63467,3.96589,-2.35768,4.52193,1.91312,1.91312,A,172436.20
4.00862,57.68785669,11.98135485,57.68787367,11.98133867,18:25:06.648929,0.00299,0.00000,0.00000,-0.02140,-0.00300,0.03402,0.00776,0.00234,0.02532,-0.00653,1.06512,4.00435,0.00000,2.03364,2.03309,-1.39607,2.63467,3.96589,-2.35768,4.52193,1.91312,1.91312,A,172436.20
4.01918,57.68785669,11.98135485,57.68787367,11.98133867,18:25:06.659492,0.00315,0.00000,0.00000,-0.02135,-0.00346,0.03112,-0.00446,-0.00606,-0.01647,-0.01885,1.00138,4.01490,0.00000,2.03364,2.03309,-1.39607,2.63467,3.96589,-2.35768,4.52193,1.91312,1.91312,A,172436.20
4.02957,57.68785669,11.98135485,57.68787367,11.98133867,18:25:06.670033,0.00315,0.00000,0.00000,-0.02073,-0.00382,0.02349,-0.00583,-0.01141,-0.04502,0.02324,0.92330,4.02508,0.00000,2.03364,2.03309,-1.39607,2.63467,3.96589,-2.35768,4.52193,1.91312,1.91312,A,172436.20
4.03995,57.68785669,11.98135485,57.68787367,11.98133867,18:25:06.680265,0.00313,0.00000,0.00000,-0.01996,-0.00414,0.01921,-0.00125,-0.01736,-0.12505,0.03398,0.88694,4.03569,0.00000,2.03364,2.03309,-1.39607,2.63467,3.96589,-2.35768,4.52193,1.91312,1.91312,A,172436.20
4.05036,57.68785669,11.98135485,57.68787367,11.98133867,18:25:06.690676,0.00314,0.00000,0.00000,-0.02027,-0.00422,0.01173,0.00302,-0.01706,-0.09681,-0.02373,0.85571,4.04609,0.00000,2.03364,2.03309,-1.39607,2.63467,3.96589,-2.35768,4.52193,1.91312,1.91312,A,172436.20
4.06071,57.68785669,11.98135485,57.68787367,11.98133867,18:25:06.701019,0.00312,0.00000,0.00000,-0.02022,-0.00422,0.01035,0.00989,-0.02027,-0.02129,-0.00226,0.89536,4.05643,0.00000,2.03364,2.03309,-1.39607,2.63467,3.96589,-2.35768,4.52193,1.91312,1.91312,A,172436.20
4.08623,57.68785669,11.98135485,57.68787500,11.98133767,18:25:06.726550,0.01824,0.00000,0.00000,-0.01989,-0.00422,0.01417,0.01906,-0.01660,-0.09010,0.01208,0.95050,4.06685,0.00000,2.03364,2.03309,-1.39607,2.63467,4.08266,-2.41711,4.67019,1.95208,1.95208,A,172436.30
4.09639,57.68785761,11.98135399,57.68787500,11.98133767,18:25:06.736706,0.00512,0.00000,0.00000,-0.02005,-0.00422,0.01616,0.01891,-0.01187,-0.02220,-0.03733,1.10953,4.09014,0.00000,2.02159,2.02034,-1.44712,2.73644,4.08266,-2.41711,4.67019,1.95208,1.95208,A,172436.30
4.10463,57.68785761,11.98135399,57.68787500,11.98133767,18:25:06.744941,0.00299,0.00000,0.00000,-0.01992,-0.00422,0.01280,0.01341,-0.01156,0.00128,0.00079,1.10258,4.10036,0.00000,2.02159,2.02034,-1.44712,2.73644,4.08266,-2.41711,4.67019,1.95208,1.95208,A,172436.30
4.11773,57.68785761,11.98135399,57.68787500,11.98133767,18:25:06.758049,0.00569,0.00000,0.00000,-0.02007,-0.00425,0.01188,0.00577,-0.01064,0.04093,-0.01964,1.05390,4.11326,0.00000,2.02159,2.02034,-1.44712,2.73644,4.08266,-2.41711,4.67019,1.95208,1.95208,A,172436.30
4.12559,57.68785761,11.98135399,57.68787500,11.98133767,18:25:06.765912,0.00317,0.00000,0.00000,-0.02041,-0.00428,0.00699,-0.00813,-0.00759,0.01269,-0.02623,1.01791,4.12111,0.00000,2.02159,2.02034,-1.44712,2.73644,4.08266,-2.41711,4.67019,1.95208,1.95208,A,172436.30
4.13597,57.68785761,11.98135399,57.68787500,11.98133767,18:25:06.776285,0.00315,0.00000,0.00000,-0.02022,-0.00439,0.00837,-0.01576,-0.00606,0.05337,0.00750,0.95471,4.13171,0.00000,2.02159,2.02034,-1.44712,2.73644,4.08266,-2.41711,4.67019,1.95208,1.95208,A,172436.30
4.14635,57.68785761,11.98135399,57.68787500,11.98133767,18:25:06.786654,0.00313,0.00000,0.00000,-0.01996,-0.00464,0.00547,-0.02355,-0.00484,-0.01464,0.01275,0.88206,4.14208,0.00000,2.02159,2.02034,-1.44712,2.73644,4.08266,-2.41711,4.67019,1.95208,1.95208,A,172436.30
4.15661,57.68785761,11.98135399,57.68787500,11.98133767,18:25:06.796917,0.00298,0.00000,0.00000,-0.01928,-0.00507,0.00562,-0.02554,-0.01126,-0.08168,0.03880,0.91158,4.15234,0.00000,2.02159,2.02034,-1.44712,2.73644,4.08266,-2.41711,4.67019,1.95208,1.95208,A,172436.30
4.16718,57.68785761,11.98135399,57.68787500,11.98133767,18:25:06.807487,0.00315,0.00000,0.00000,-0.01935,-0.00558,0.00715,-0.01026,-0.01248,-0.03227,-0.00732,0.91622,4.16291,0.00000,2.02159,2.02034,-1.44712,2.73644,4.08266,-2.41711,4.67019,1.95208,1.95208,A,172436.30
4.17769,57.68785761,11.98135399,57.68787500,11.98133767,18:25:06.818007,0.00327,0.00000,0.00000,-0.01963,-0.00598,0.00379,-0.00614,-0.01202,-0.08473,-0.01842,0.93983,4.17307,0.00000,2.02159,2.02034,-1.44712,2.73644,4.08266,-2.41711,4.67019,1.95208,1.95208,A,172436.30
4.20312,57.68785761,11.98135399,57.68787600,11.98133600,18:25:06.843443,0.01831,0.00000,0.00000,-0.01983,-0.00626,-0.00125,0.00073,-0.01156,-0.01732,-0.01074,0.96978,4.18370,0.00000,2.02159,2.02034,-1.44712,2.73644,4.19962,-2.51618,4.78138,2.29855,2.29855,A,172436.40
4.21369,57.68785853,11.98135309,57.68787600,11.98133600,18:25:06.854026,0.00554,0.00000,0.00000,-0.01994,-0.00629,0.00440,0.00333,-0.00423,-0.00921,-0.01409,1.11667,4.20712,0.00000,2.06342,2.06155,-1.50057,2.83869,4.19962,-2.51618,4.78138,2.29855,2.29855,A,172436.40
4.22187,57.68785853,11.98135309,57.68787600,11.98133600,18:25:06.862184,0.00331,0.00000,0.00000,-0.01958,-0.00629,-0.00599,-0.00385,-0.00148,0.06252,0.03221,1.10855,4.21758,0.00000,2.06342,2.06155,-1.50057,2.83869,4.19962,-2.51618,4.78138,2.29855,2.29855,A,172436.40
4.23223,57.68785853,11.98135309,57.68787600,11.98133600,18:25:06.872544,0.00323,0.00000,0.00000,-0.01938,-0.00629,-0.00660,-0.01897,0.00020,-0.00964,0.02074,1.06042,4.22795,0.00000,2.06342,2.06155,-1.50057,2.83869,4.19962,-2.51618,4.78138,2.29855,2.29855,A,172436.40
4.24255,57.68785853,11.98135309,57.68787600,11.98133600,18:25:06.882870,0.00314,0.00000,0.00000,-0.01936,-0.00629,-0.00217,-0.02630,-0.00331,-0.01915,0.00433,0.99948,4.23827,0.00000,2.06342,2.06155,-1.50057,2.83869,4.19962,-2.51618,4.78138,2.29855,2.29855,A,172436.40
4.25263,57.68785853,11.98135309,57.68787600,11.98133600,18:25:06.892948,0.00302,0.00000,0.00000,-0.01952,-0.00629,-0.00950,-0.02951,-0.00102,-0.08186,-0.00250,0.93641,4.24836,0.00000,2.06342,2.06155,-1.50057,2.83869,4.19962,-2.51618,4.78138,2.29855,2.29855,A,172436.40
4.26333,57.68785853,11.98135309,57.68787600,11.98133600,18:25:06.903654,0.00332,0.00000,0.00000,-0.01924,-0.00629,-0.01500,-0.01729,-0.00790,-0.07991,0.02769,0.89938,4.25906,0.00000,2.06342,2.06155,-1.50057,2.83869,4.19962,-2.51618,4.78138,2.29855,2.29855,A,172436.40
4.27370,57.68785853,11.98135309,57.68787600,11.98133600,18:25:06.914031,0.00344,0.00000,0.00000,-0.01926,-0.00629,-0.02019,-0.01271,-0.01294,-0.05697,0.01177,0.86663,4.26920,0.00000,2.06342,2.06155,-1.50057,2.83869,4.19962,-2.51618,4.78138,2.29855,2.29855,A,172436.40
4.28384,57.68785853,11.98135309,57.68787600,11.98133600,18:25:06.924156,0.00318,0.00000,0.00000,-0.01986,-0.00631,-0.02034,-0.00507,-0.01400,-0.03697,-0.02196,0.91347,4.27958,0.00000,2.06342,2.06155,-1.50057,2.83869,4.19962,-2.51618,4.78138,2.29855,2.29855,A,172436.40
4.29419,57.68785853,11.98135309,57.68787600,11.98133600,18:25:06.934511,0.00314,0.00000,0.00000,-0.02003,-0.00640,-0.02615,-0.00202,-0.01019,-0.00183,0.00714,0.94410,4.28991,0.00000,2.06342,2.06155,-1.50057,2.83869,4.19962,-2.51618,4.78138,2.29855,2.29855,A,172436.40
4.32035,57.68785853,11.98135309,57.68787767,11.98133533,18:25:06.960678,0.01878,0.00000,0.00000,-0.02057,-0.00660,-0.03332,-0.00339,-0.01416,-0.03983,-0.01257,1.00028,4.30028,0.00000,2.06342,2.06155,-1.50057,2.83869,4.31677,-2.55580,4.96671,1.78144,1.78144,A,172436.50
4.33352,57.68785949,11.98135220,57.68787767,11.98133533,18:25:06.973860,0.00597,0.00000,0.00000,-0.02158,-0.00779,-0.04035,0.00195,-0.01782,-0.01226,0.00329,1.06567,4.32661,0.00000,2.02147,2.01915,-1.55333,2.94509,4.31677,-2.55580,4.96671,1.78144,1.78144,A,172436.50
4.34074,57.68785949,11.98135220,57.68787767,11.98133533,18:25:06.981049,0.00296,0.00000,0.00000,-0.02220,-0.00849,-0.04371,-0.00813,-0.01889,0.04831,-0.01458,1.07171,4.33647,0.00000,2.02147,2.01915,-1.55333,2.94509,4.31677,-2.55580,4.96671,1.78144,1.78144,A,172436.50
4.35186,57.68785949,11.98135220,57.68787767,11.98133533,18:25:06.992175,0.00368,0.00000,0.00000,-0.02295,-0.00926,-0.04997,-0.02431,-0.01706,0.02599,-0.01531,1.02785,4.34756,0.00000,2.02147,2.01915,-1.55333,2.94509,4.31677,-2.55580,4.96671,1.78144,1.78144,A,172436.50
4.36187,57.68785949,11.98135220,57.68787767,11.98133533,18:25:07.003564,0.00330,0.00000,0.00000,-0.02368,-0.00991,-0.05104,-0.02828,-0.02088,-0.00561,-0.01726,1.00467,4.35757,0.00000,2.02147,2.01915,-1.55333,2.94509,4.31677,-2.55580,4.96671,1.78144,1.78144,A,172436.50
4.37434,57.68785949,11.98135220,57.68787767,11.98133533,18:25:07.014655,0.00552,0.00000,0.00000,-0.02492,-0.01045,-0.05409,-0.01546,-0.02469,-0.10980,-0.04032,0.98954,4.37001,0.00000,2.02147,2.01915,-1.55333,2.94509,4.31677,-2.55580,4.96671,1.78144,1.78144,A,172436.50
4.38235,57.68785949,11.98135220,57.68787767,11.98133533,18:25:07.022663,0.00314,0.00000,0.00000,-0.02546,-0.01067,-0.05501,0.00104,-0.01767,-0.09772,-0.01092,0.98375,4.37807,0.00000,2.02147,2.01915,-1.55333,2.94509,4.31677,-2.55580,4.96671,1.78144,1.78144,A,172436.50
4.39470,57.68785949,11.98135220,57.68787767,11.98133533,18:25:07.035022,0.00512,0.00000,0.00000,-0.02589,-0.01076,-0.05715,0.01585,-0.01599,0.03324,0.01269,0.96484,4.39040,0.00000,2.02147,2.01915,-1.55333,2.94509,4.31677,-2.55580,4.96671,1.78144,1.78144,A,172436.50
4.40314,57.68785949,11.98135220,57.68787767,11.98133533,18:25:07.043456,0.00316,0.00000,0.00000,-0.02607,-0.01076,-0.05593,0.01967,-0.01691,0.04136,0.01324,0.91396,4.39887,0.00000,2.02147,2.01915,-1.55333,2.94509,4.31677,-2.55580,4.96671,1.78144,1.78144,A,172436.50
4.41352,57.68785949,11.98135220,57.68787767,11.98133533,18:25:07.053844,0.00315,0.00000,0.00000,-0.02652,-0.01076,-0.05470,-0.00339,-0.01385,-0.02867,0.00098,0.97313,4.40905,0.00000,2.02147,2.01915,-1.55333,2.94509,4.31677,-2.55580,4.96671,1.78144,1.78144,A,172436.50
4.45284,57.68785949,11.98135220,57.68788000,11.98133233,18:25:07.094234,0.03207,0.00000,0.00000,-0.02735,-0.01084,-0.05409,-0.00400,-0.02195,0.01061,-0.02172,0.96026,4.41964,0.00000,2.02147,2.01915,-1.55333,2.94509,4.44782,-2.73411,5.22616,2.17292,2.17292,A,172436.70
4.47021,57.68786051,11.98135121,57.68788000,11.98133233,18:25:07.110535,0.00634,0.00000,0.00000,-0.02969,-0.01226,-0.04859,0.00348,-0.02943,0.00561,-0.02348,1.06585,4.46368,0.00000,2.04473,2.04109,-1.61237,3.05915,4.44782,-2.73411,5.22616,2.17292,2.17292,A,172436.70
4.47743,57.68786051,11.98135121,57.68788000,11.98133233,18:25:07.117753,0.00315,0.00000,0.00000,-0.03042,-0.01248,-0.05012,-0.00141,-0.02653,-0.03544,-0.02763,1.02273,4.47294,0.00000,2.04473,2.04109,-1.61237,3.05915,4.44782,-2.73411,5.22616,2.17292,2.17292,A,172436.70
4.48796,57.68786051,11.98135121,57.68788000,11.98133233,18:25:07.128269,0.00329,0.00000,0.00000,-0.03112,-0.01257,-0.04523,-0.00125,-0.02332,-0.04221,-0.02379,0.99198,4.48369,0.00000,2.04473,2.04109,-1.61237,3.05915,4.44782,-2.73411,5.22616,2.17292,2.17292,A,172436.70
4.49835,57.68786051,11.98135121,57.68788000,11.98133233,18:25:07.138847,0.00328,0.00000,0.00000,-0.03138,-0.01257,-0.04096,0.00104,-0.01798,0.00543,0.00018,0.94050,4.49406,0.00000,2.04473,2.04109,-1.61237,3.05915,4.44782,-2.73411,5.22616,2.17292,2.17292,A,172436.70
4.50853,57.68786051,11.98135121,57.68788000,11.98133233,18:25:07.148844,0.00296,0.00000,0.00000,-0.03227,-0.01257,-0.02920,-0.00385,-0.01324,0.00464,-0.04374,0.87639,4.50426,0.00000,2.04473,2.04109,-1.61237,3.05915,4.44782,-2.73411,5.22616,2.17292,2.17292,A,172436.70
4.51910,57.68786051,11.98135121,57.68788000,11.98133233,18:25:07.159420,0.00313,0.00000,0.00000,-0.03279,-0.01257,-0.02966,-0.01301,-0.01431,0.01867,-0.02196,0.87236,4.51483,0.00000,2.04473,2.04109,-1.61237,3.05915,4.44782,-2.73411,5.22616,2.17292,2.17292,A,172436.70
4.52963,57.68786051,11.98135121,57.68788000,11.98133233,18:25:07.169974,0.00327,0.00000,0.00000,-0.03314,-0.01257,-0.02309,-0.01485,-0.00408,0.00146,-0.01824,0.90500,4.52501,0.00000,2.04473,2.04109,-1.61237,3.05915,4.44782,-2.73411,5.22616,2.17292,2.17292,A,172436.70
4.53992,57.68786051,11.98135121,57.68788000,11.98133233,18:25:07.180235,0.00316,0.00000,0.00000,-0.03354,-0.01257,-0.03012,-0.00767,-0.00377,-0.10968,-0.01739,1.00833,4.53565,0.00000,2.04473,2.04109,-1.61237,3.05915,4.44782,-2.73411,5.22616,2.17292,2.17292,A,172436.70
4.56752,57.68786051,11.98135121,57.68788133,11.98133117,18:25:07.208486,0.02038,0.00000,0.00000,-0.03402,-0.01257,-0.02508,0.01188,-0.00484,-0.05435,-0.02891,1.04847,4.54601,0.00000,2.04473,2.04109,-1.61237,3.05915,4.56206,-2.80346,5.37442,2.00828,2.00828,A,172436.80
4.58477,57.68786155,11.98135020,57.68788133,11.98133117,18:25:07.225092,0.00720,0.00000,0.00000,-0.03422,-0.01257,-0.00614,-0.01775,0.00111,0.03361,-0.01458,1.10190,4.57852,0.00000,2.03982,2.03609,-1.67193,3.17491,4.56206,-2.80346,5.37442,2.00828,2.00828,A,172436.80
4.59113,57.68786155,11.98135020,57.68788133,11.98133117,18:25:07.231442,0.00315,0.00000,0.00000,-0.03459,-0.01257,0.00333,-0.01653,-0.00866,0.00104,-0.04105,1.03785,4.58685,0.00000,2.03982,2.03609,-1.67193,3.17491,4.56206,-2.80346,5.37442,2.00828,2.00828,A,172436.80
4.60168,57.68786155,11.98135020,57.68788133,11.98133117,18:25:07.241999,0.00331,0.00000,0.00000,-0.03533,-0.01257,-0.00507,-0.01744,-0.00667,-0.02745,-0.05771,0.96642,4.59718,0.00000,2.03982,2.03609,-1.67193,3.17491,4.56206,-2.80346,5.37442,2.00828,2.00828,A,172436.80
4.61191,57.68786155,11.98135020,57.68788133,11.98133117,18:25:07.252222,0.00315,0.00000,0.00000,-0.03608,-0.01257,-0.00522,-0.01729,-0.00820,-0.05893,-0.05618,0.92281,4.60764,0.00000,2.03982,2.03609,-1.67193,3.17491,4.56206,-2.80346,5.37442,2.00828,2.00828,A,172436.80
4.62238,57.68786155,11.98135020,57.68788133,11.98133117,18:25:07.262700,0.00322,0.00000,0.00000,-0.03594,-0.01257,-0.00339,0.00012,-0.00652,-0.10114,-0.00287,0.86315,4.61809,0.00000,2.03982,2.03609,-1.67193,3.17491,4.56206,-2.80346,5.37442,2.00828,2.00828,A,172436.80
4.63242,57.68786155,11.98135020,57.68788133,11.98133117,18:25:07.272720,0.00300,0.00000,0.00000,-0.03634,-0.01257,-0.00110,0.01234,-0.00301,-0.14317,-0.03520,0.86821,4.62814,0.00000,2.03982,2.03609,-1.67193,3.17491,4.56206,-2.80346,5.37442,2.00828,2.00828,A,172436.80
4.64297,57.68786155,11.98135020,57.68788133,11.98133117,18:25:07.283275,0.00315,0.00000,0.00000,-0.03650,-0.01257,0.01005,0.03204,0.00386,-0.07692,-0.03038,0.91646,4.63869,0.00000,2.03982,2.03609,-1.67193,3.17491,4.56206,-2.80346,5.37442,2.00828,2.00828,A,172436.80
4.65367,57.68786155,11.98135020,57.68788133,11.98133117,18:25:07.294003,0.00345,0.00000,0.00000,-0.03636,-0.01257,0.00425,0.02776,0.01104,-0.01580,-0.00921,1.00546,4.64888,0.00000,2.03982,2.03609,-1.67193,3.17491,4.56206,-2.80346,5.37442,2.00828,2.00828,A,172436.80
4.68135,57.68786155,11.98135020,57.68788267,11.98132983,18:25:07.321694,0.02073,0.00000,0.00000,-0.03622,-0.01257,0.00104,0.02364,0.01104,0.00653,-0.00738,1.07519,4.65963,0.00000,2.03982,2.03609,-1.67193,3.17491,4.67540,-2.88271,5.52268,2.06169,2.06169,A,172436.90
4.69818,57.68786261,11.98134919,57.68788267,11.98132983,18:25:07.338512,0.00759,0.00000,0.00000,-0.03602,-0.01257,0.00150,-0.02218,-0.00393,-0.02495,-0.00470,1.05481,4.69163,0.00000,2.04366,2.03993,-1.73247,3.29230,4.67540,-2.88271,5.52268,2.06169,2.06169,A,172436.90
4.70414,57.68786261,11.98134919,57.68788267,11.98132983,18:25:07.344451,0.00315,0.00000,0.00000,-0.03629,-0.01257,0.00684,-0.03210,-0.01462,-0.08229,-0.03776,1.01882,4.69986,0.00000,2.04366,2.03993,-1.73247,3.29230,4.67540,-2.88271,5.52268,2.06169,2.06169,A,172436.90
4.71453,57.68786261,11.98134919,57.68788267,11.98132983,18:25:07.354846,0.00315,0.00000,0.00000,-0.03602,-0.01257,0.00333,-0.00629,-0.01462,-0.11950,0.00024,0.92342,4.71026,0.00000,2.04366,2.03993,-1.73247,3.29230,4.67540,-2.88271,5.52268,2.06169,2.06169,A,172436.90
4.72459,57.68786261,11.98134919,57.68788267,11.98132983,18:25:07.364910,0.00298,0.00000,0.00000,-0.03657,-0.01257,0.00226,0.00898,-0.01095,-0.07533,-0.04538,0.85912,4.72032,0.00000,2.04366,2.03993,-1.73247,3.29230,4.67540,-2.88271,5.52268,2.06169,2.06169,A,172436.90
4.73514,57.68786261,11.98134919,57.68788267,11.98132983,18:25:07.375611,0.00313,0.00000,0.00000,-0.03642,-0.01257,0.00593,0.01509,-0.00499,-0.07052,-0.00836,0.83936,4.73087,0.00000,2.04366,2.03993,-1.73247,3.29230,4.67540,-2.88271,5.52268,2.06169,2.06169,A,172436.90
4.74754,57.68786261,11.98134919,57.68788267,11.98132983,18:25:07.387869,0.00514,0.00000,0.00000,-0.03720,-0.01257,0.00638,0.00195,0.00539,0.03093,-0.06564,0.90957,4.74325,0.00000,2.04366,2.03993,-1.73247,3.29230,4.67540,-2.88271,5.52268,2.06169,2.06169,A,172436.90
4.75594,57.68786261,11.98134919,57.68788267,11.98132983,18:25:07.396246,0.00314,0.00000,0.00000,-0.03640,-0.01257,0.00516,-0.00049,0.00142,-0.00579,0.03410,1.00473,4.75167,0.00000,2.04366,2.03993,-1.73247,3.29230,4.67540,-2.88271,5.52268,2.06169,2.06169,A,172436.90
4.76636,57.68786261,11.98134919,57.68788267,11.98132983,18:25:07.406680,0.00316,0.00000,0.00000,-0.03655,-0.01257,0.01020,-0.00889,0.00188,-0.05771,-0.03636,1.13344,4.76208,0.00000,2.04366,2.03993,-1.73247,3.29230,4.67540,-2.88271,5.52268,2.06169,2.06169,A,172436.90
4.79472,57.68786261,11.98134919,57.68788400,11.98132850,18:25:07.435059,0.02115,0.00000,0.00000,-0.03664,-0.01257,0.00547,-0.00614,-0.00591,-0.03812,-0.02983,1.17254,4.77227,0.00000,2.04366,2.03993,-1.73247,3.29230,4.78844,-2.96196,5.67094,2.06169,2.06169,A,172437.00
4.80831,57.68786368,11.98134815,57.68788400,11.98132850,18:25:07.448630,0.00671,0.00000,0.00000,-0.03715,-0.01257,-0.00400,-0.01469,-0.02256,-0.04105,-0.04032,0.96862,4.80206,0.00000,2.04692,2.04319,-1.79394,3.41123,4.78844,-2.96196,5.67094,2.06169,2.06169,A,172437.00
4.81514,57.68786368,11.98134815,57.68788400,11.98132850,18:25:07.455458,0.00315,0.00000,0.00000,-0.03782,-0.01257,-0.00278,-0.01622,-0.01996,-0.03794,-0.05142,0.87181,4.81088,0.00000,2.04692,2.04319,-1.79394,3.41123,4.78844,-2.96196,5.67094,2.06169,2.06169,A,172437.00
4.82572,57.68786368,11.98134815,57.68788400,11.98132850,18:25:07.466041,0.00333,0.00000,0.00000,-0.03786,-0.01257,-0.00171,-0.02034,-0.01736,-0.07613,-0.01513,0.81026,4.82123,0.00000,2.04692,2.04319,-1.79394,3.41123,4.78844,-2.96196,5.67094,2.06169,2.06169,A,172437.00
4.83593,57.68786368,11.98134815,57.68788400,11.98132850,18:25:07.476240,0.00314,0.00000,0.00000,-0.03708,-0.01257,0.00470,-0.01973,-0.00942,-0.14756,0.02721,0.85064,4.83165,0.00000,2.04692,2.04319,-1.79394,3.41123,4.78844,-2.96196,5.67094,2.06169,2.06169,A,172437.00
4.84634,57.68786368,11.98134815,57.68788400,11.98132850,18:25:07.486653,0.00316,0.00000,0.00000,-0.03673,-0.01257,0.01203,-0.00263,-0.00148,-0.03495,-0.00085,0.95349,4.84206,0.00000,2.04692,2.04319,-1.79394,3.41123,4.78844,-2.96196,5.67094,2.06169,2.06169,A,172437.00
4.85766,57.68786368,11.98134815,57.68788400,11.98132850,18:25:07.497992,0.00407,0.00000,0.00000,-0.03683,-0.01257,0.02211,0.01524,0.00447,-0.05203,-0.04185,1.09306,4.85317,0.00000,2.04692,2.04319,-1.79394,3.41123,4.78844,-2.96196,5.67094,2.06169,2.06169,A,172437.00
4.86719,57.68786368,11.98134815,57.68788400,11.98132850,18:25:07.507506,0.00320,0.00000,0.00000,-0.03709,-0.01257,0.01738,0.02853,0.00738,0.04477,-0.04984,1.12759,4.86291,0.00000,2.04692,2.04319,-1.79394,3.41123,4.78844,-2.96196,5.67094,2.06169,2.06169,A,172437.00
4.87789,57.68786368,11.98134815,57.68788400,11.98132850,18:25:07.518239,0.00350,0.00000,0.00000,-0.03683,-0.01254,0.01646,0.03326,0.01425,0.01366,-0.01080,1.12429,4.87305,0.00000,2.04692,2.04319,-1.79394,3.41123,4.78844,-2.96196,5.67094,2.06169,2.06169,A,172437.00
4.88799,57.68786368,11.98134815,57.68788400,11.98132850,18:25:07.528305,0.00320,0.00000,0.00000,-0.03621,-0.01246,0.02257,0.01845,0.01700,0.02721,0.01013,1.07232,4.88372,0.00000,2.04692,2.04319,-1.79394,3.41123,4.78844,-2.96196,5.67094,2.06169,2.06169,A,172437.00
4.91606,57.68786368,11.98134815,57.68788533,11.98132717,18:25:07.556396,0.02088,0.00000,0.00000,-0.03518,-0.01234,0.02379,-0.00171,0.01303,-0.03721,0.03709,0.98930,4.89405,0.00000,2.04692,2.04319,-1.79394,3.41123,4.90996,-3.04121,5.81920,2.06169,2.06169,A,172437.10
4.93263,57.68786476,11.98134710,57.68788533,11.98132717,18:25:07.572951,0.00642,0.00000,0.00000,-0.03426,-0.01147,0.03601,-0.02844,0.00066,-0.02397,-0.02574,0.89042,4.92614,0.00000,2.04965,2.04625,-1.85630,3.53163,4.90996,-3.04121,5.81920,2.06169,2.06169,A,172437.10
4.93979,57.68786476,11.98134710,57.68788533,11.98132717,18:25:07.580103,0.00319,0.00000,0.00000,-0.03401,-0.01098,0.02960,-0.01439,0.00127,-0.11980,-0.01336,0.89267,4.93552,0.00000,2.04965,2.04625,-1.85630,3.53163,4.90996,-3.04121,5.81920,2.06169,2.06169,A,172437.10
4.95022,57.68786476,11.98134710,57.68788533,11.98132717,18:25:07.590542,0.00322,0.00000,0.00000,-0.03376,-0.01045,0.02807,0.03036,0.00279,-0.01470,-0.01458,0.96923,4.94594,0.00000,2.04965,2.04625,-1.85630,3.53163,4.90996,-3.04121,5.81920,2.06169,2.06169,A,172437.10
4.96047,57.68786476,11.98134710,57.68788533,11.98132717,18:25:07.600794,0.00310,0.00000,0.00000,-0.03426,-0.00991,0.02532,0.03738,0.00814,-0.06930,-0.06076,0.95697,4.95618,0.00000,2.04965,2.04625,-1.85630,3.53163,4.90996,-3.04121,5.81920,2.06169,2.06169,A,172437.10
4.97092,57.68786476,11.98134710,57.68788533,11.98132717,18:25:07.611230,0.00315,0.00000,0.00000,-0.03325,-0.00954,0.01723,0.04334,0.01012,-0.11986,0.04136,0.98064,4.96665,0.00000,2.04965,2.04625,-1.85630,3.53163,4.90996,-3.04121,5.81920,2.06169,2.06169,A,172437.10
4.98132,57.68786476,11.98134710,57.68788533,11.98132717,18:25:07.621648,0.00294,0.00000,0.00000,-0.03252,-0.00937,0.02929,0.04029,0.00738,-0.00964,0.01720,1.00186,4.97685,0.00000,2.04965,2.04625,-1.85630,3.53163,4.90996,-3.04121,5.81920,2.06169,2.06169,A,172437.10
4.99174,57.68786476,11.98134710,57.68788533,11.98132717,18:25:07.632046,0.00318,0.00000,0.00000,-0.03146,-0.00937,0.02486,0.01173,0.00677,0.06076,0.04551,1.09330,4.98747,0.00000,2.04965,2.04625,-1.85630,3.53163,4.90996,-3.04121,5.81920,2.06169,2.06169,A,172437.10
5.00227,57.68786476,11.98134710,57.68788533,11.98132717,18:25:07.642584,0.00331,0.00000,0.00000,-0.03110,-0.00937,0.03402,-0.01683,0.00310,0.04233,-0.01116,1.13869,4.99799,0.00000,2.04965,2.04625,-1.85630,3.53163,4.90996,-3.04121,5.81920,2.06169,2.06169,A,172437.10
5.04304,57.68786476,11.98134710,57.68788800,11.98132483,18:25:07.683401,0.03354,0.00000,0.00000,0.00000,-0.00937,0.02303,-0.03393,-0.00286,0.00268,-0.04782,1.11959,5.00820,0.00000,2.04965,2.04625,-1.85630,3.53163,5.03508,-3.17989,6.11572,2.00828,2.00828,A,172437.30
5.05990,57.68786592,11.98134599,57.68788800,11.98132483,18:25:07.700238,0.01175,0.00000,0.00000,-0.00016,-0.00937,0.02395,-0.01179,0.00035,-0.03886,-0.04502,0.84454,5.04874,0.00000,2.04386,2.04108,0.03632,0.00000,5.03508,-3.17989,6.11572,2.00828,2.00828,A,172437.30
5.07021,57.68786592,11.98134599,57.68788800,11.98132483,18:25:07.710535,0.00521,0.00000,0.00000,-0.00049,-0.00937,0.02578,0.00333,0.00768,-0.08656,-0.02684,0.95008,5.06471,0.00000,2.04386,2.04108,0.03632,0.00000,5.03508,-3.17989,6.11572,2.00828,2.00828,A,172437.30
5.08085,57.68786592,11.98134599,57.68788800,11.98132483,18:25:07.721927,0.00546,0.00000,0.00000,-0.00056,-0.00937,0.01677,0.00669,0.01257,-0.04008,0.00366,0.98942,5.07562,0.00000,2.04386,2.04108,0.03632,0.00000,5.03508,-3.17989,6.11572,2.00828,2.00828,A,172437.30
5.09104,57.68786592,11.98134599,57.68788800,11.98132483,18:25:07.731360,0.00542,0.00000,0.00000,-0.00013,-0.00937,0.01173,0.01341,0.01700,0.00506,0.04459,1.06878,5.08579,0.00000,2.04386,2.04108,0.03632,0.00000,5.03508,-3.17989,6.11572,2.00828,2.00828,A,172437.30
5.10175,57.68786592,11.98134599,57.68788800,11.98132483,18:25:07.742078,0.00574,0.00000,0.00000,-0.00041,-0.00937,0.01891,0.00883,0.01058,0.00140,-0.01141,1.05384,5.09625,0.00000,2.04386,2.04108,0.03632,0.00000,5.03508,-3.17989,6.11572,2.00828,2.00828,A,172437.30
5.11177,57.68786592,11.98134599,57.68788800,11.98132483,18:25:07.752090,0.00537,0.00000,0.00000,0.00034,-0.00937,0.01371,-0.00431,0.00707,-0.01043,0.06582,1.07195,5.10654,0.00000,2.04386,2.04108,0.03632,0.00000,5.03508,-3.17989,6.11572,2.00828,2.00828,A,172437.30
5.12263,57.68786592,11.98134599,57.68788800,11.98132483,18:25:07.762953,0.00584,0.00000,0.00000,0.00015,-0.00937,0.01402,-0.01698,0.00509,0.03849,-0.00116,0.99424,5.11717,0.00000,2.04386,2.04108,0.03632,0.00000,5.03508,-3.17989,6.11572,2.00828,2.00828,A,172437.30
5.13265,57.68786592,11.98134599,57.68788800,11.98132483,18:25:07.772967,0.00548,0.00000,0.00000,0.00029,-0.00937,0.01005,-0.02156,-0.00423,-0.08089,0.02446,1.01602,5.12742,0.00000,2.04386,2.04108,0.03632,0.00000,5.03508,-3.17989,6.11572,2.00828,2.00828,A,172437.30
5.15777,57.68786592,11.98134599,57.68788950,11.98132333,18:25:07.798099,0.02016,0.00000,0.00000,-0.00034,-0.00937,0.00959,-0.01454,-0.01171,-0.00586,-0.02721,0.97838,5.13785,0.00000,2.04386,2.04108,0.03632,0.00000,5.15352,-3.26905,6.28251,2.06169,2.06169,A,172437.40
5.17308,57.68786710,11.98134486,57.68788950,11.98132333,18:25:07.813706,0.01030,0.00000,0.00000,-0.00151,-0.00937,0.00593,-0.00629,-0.01920,0.05508,-0.06222,0.93428,5.16260,0.00000,2.04695,2.04417,-1.98981,3.79192,5.15352,-3.26905,6.28251,2.06169,2.06169,A,172437.40
5.18334,57.68786710,11.98134486,57.68788950,11.98132333,18:25:07.823661,0.00502,0.00000,0.00000,-0.00150,-0.00937,-0.00079,-0.01561,-0.01003,-0.08510,0.02031,0.97118,5.17810,0.00000,2.04695,2.04417,-1.98981,3.79192,5.15352,-3.26905,6.28251,2.06169,2.06169,A,172437.40
5.19509,57.68786710,11.98134486,57.68788950,11.98132333,18:25:07.835413,0.00639,0.00000,0.00000,-0.00196,-0.00937,-0.00186,-0.00889,0.00111,-0.04465,-0.00952,0.97246,5.18983,0.00000,2.04695,2.04417,-1.98981,3.79192,5.15352,-3.26905,6.28251,2.06169,2.06169,A,172437.40
5.20457,57.68786710,11.98134486,57.68788950,11.98132333,18:25:07.844882,0.00547,0.00000,0.00000,-0.00173,-0.00937,0.00180,-0.01821,0.00096,-0.05441,0.03404,1.02785,5.19941,0.00000,2.04695,2.04417,-1.98981,3.79192,5.15352,-3.26905,6.28251,2.06169,2.06169,A,172437.40
5.21945,57.68786710,11.98134486,57.68788950,11.98132333,18:25:07.859771,0.00940,0.00000,0.00000,-0.00194,-0.00937,0.00531,-0.01790,0.00554,-0.03782,0.00079,1.03047,5.21401,0.00000,2.04695,2.04417,-1.98981,3.79192,5.15352,-3.26905,6.28251,2.06169,2.06169,A,172437.40
5.22874,57.68786710,11.98134486,57.68788950,11.98132333,18:25:07.869068,0.00829,0.00000,0.00000,-0.00233,-0.00937,0.00180,-0.02447,0.00967,-0.21673,-0.00866,1.09416,5.22265,0.00000,2.04695,2.04417,-1.98981,3.79192,5.15352,-3.26905,6.28251,2.06169,2.06169,A,172437.40
5.23861,57.68786710,11.98134486,57.68788950,11.98132333,18:25:07.878934,0.00796,0.00000,0.00000,-0.00337,-0.00937,0.00165,0.00852,0.00020,-0.12822,-0.05606,1.07122,5.23309,0.00000,2.04695,2.04417,-1.98981,3.79192,5.15352,-3.26905,6.28251,2.06169,2.06169,A,172437.40
5.24892,57.68786710,11.98134486,57.68788950,11.98132333,18:25:07.889622,0.00788,0.00000,0.00000,-0.00438,-0.00937,-0.00415,0.02272,-0.00927,-0.04691,-0.04526,0.96923,5.24264,0.00000,2.04695,2.04417,-1.98981,3.79192,5.15352,-3.26905,6.28251,2.06169,2.06169,A,172437.40
5.27956,57.68786710,11.98134486,57.68789083,11.98132217,18:25:07.920271,0.02813,0.00000,0.00000,-0.00574,-0.00937,-0.00721,0.00654,-0.01584,0.00561,-0.06008,0.86968,5.25401,0.00000,2.04695,2.04417,-1.98981,3.79192,5.26995,-3.33839,6.43077,2.00828,2.00828,A,172437.50
5.29815,57.68786829,11.98134372,57.68789083,11.98132217,18:25:07.938471,0.00981,0.00000,0.00000,-0.00659,-0.00985,-0.00202,-0.00095,-0.02973,0.04099,-0.03385,0.93647,5.29088,0.00000,2.04159,2.03867,-2.05724,3.92386,5.26995,-3.33839,6.43077,2.00828,2.00828,A,172437.50
5.30731,57.68786829,11.98134372,57.68789083,11.98132217,18:25:07.947636,0.00814,0.00000,0.00000,-0.00872,-0.01008,-0.00064,-0.00522,-0.03050,0.13383,-0.12901,1.00833,5.30213,0.00000,2.04159,2.03867,-2.05724,3.92386,5.26995,-3.33839,6.43077,2.00828,2.00828,A,172437.50
5.31738,57.68786829,11.98134372,57.68789083,11.98132217,18:25:07.957724,0.00782,0.00000,0.00000,-0.00979,-0.01028,-0.01423,-0.01668,-0.02653,-0.01714,-0.05228,1.04944,5.31190,0.00000,2.04159,2.03867,-2.05724,3.92386,5.26995,-3.33839,6.43077,2.00828,2.00828,A,172437.50
5.32781,57.68786829,11.98134372,57.68789083,11.98132217,18:25:07.968128,0.00786,0.00000,0.00000,-0.01069,-0.01042,-0.01118,0.00424,-0.02332,-0.13505,-0.04581,1.11307,5.32256,0.00000,2.04159,2.03867,-2.05724,3.92386,5.26995,-3.33839,6.43077,2.00828,2.00828,A,172437.50
5.33807,57.68786829,11.98134372,57.68789083,11.98132217,18:25:07.978394,0.00760,0.00000,0.00000,-0.01129,-0.01050,-0.00782,0.02715,-0.02363,-0.10041,-0.02678,1.08470,5.33253,0.00000,2.04159,2.03867,-2.05724,3.92386,5.26995,-3.33839,6.43077,2.00828,2.00828,A,172437.50
5.34883,57.68786829,11.98134372,57.68789083,11.98132217,18:25:07.989388,0.00798,0.00000,0.00000,-0.01063,-0.01050,-0.00385,0.02792,-0.01202,0.00439,0.05844,1.02456,5.34320,0.00000,2.04159,2.03867,-2.05724,3.92386,5.26995,-3.33839,6.43077,2.00828,2.00828,A,172437.50
5.35919,57.68786829,11.98134372,57.68789083,11.98132217,18:25:07.999525,0.00794,0.00000,0.00000,-0.01151,-0.01050,0.00913,0.01402,-0.01660,0.06527,-0.05252,0.97277,5.35195,0.00000,2.04159,2.03867,-2.05724,3.92386,5.26995,-3.33839,6.43077,2.00828,2.00828,A,172437.50
5.36964,57.68786829,11.98134372,57.68789083,11.98132217,18:25:08.009968,0.00808,0.00000,0.00000,-0.01147,-0.01050,0.00425,-0.01591,-0.01370,0.01037,0.00854,0.95398,5.36412,0.00000,2.04159,2.03867,-2.05724,3.92386,5.26995,-3.33839,6.43077,2.00828,2.00828,A,172437.50
5.40447,57.68786829,11.98134372,57.68789233,11.98132083,18:25:08.045707,0.03251,0.00000,0.00000,-0.01195,-0.01050,0.01417,-0.02248,-0.01171,0.02196,-0.03032,0.93483,5.37459,0.00000,2.04159,2.03867,-2.05724,3.92386,5.39341,-3.41764,6.59757,2.01436,2.01436,A,172437.60
5.42885,57.68786949,11.98134258,57.68789233,11.98132083,18:25:08.069435,0.01130,0.00000,0.00000,-0.01164,-0.01050,0.01555,-0.00492,-0.00560,0.04447,-0.01824,1.05024,5.42132,0.00000,2.03797,2.03486,-2.12526,4.05755,5.39341,-3.41764,6.59757,2.01436,2.01436,A,172437.60
5.45233,57.68786949,11.98134258,57.68789233,11.98132083,18:25:08.092818,0.01088,0.00000,0.00000,-0.01077,-0.01050,0.02517,0.01661,-0.00163,-0.03745,0.02891,1.04475,5.44510,0.00000,2.03797,2.03486,-2.12526,4.05755,5.39341,-3.41764,6.59757,2.01436,2.01436,A,172437.60
5.47198,57.68786949,11.98134258,57.68789233,11.98132083,18:25:08.112309,0.00799,0.00000,0.00000,-0.01068,-0.01050,0.03143,-0.00171,-0.00667,0.07027,-0.02666,0.96807,5.46634,0.00000,2.03797,2.03486,-2.12526,4.05755,5.39341,-3.41764,6.59757,2.01436,2.01436,A,172437.60
5.48211,57.68786949,11.98134258,57.68789233,11.98132083,18:25:08.122439,0.00799,0.00000,0.00000,-0.01021,-0.01050,0.03708,-0.00278,-0.00499,-0.00695,0.01641,0.95892,5.47657,0.00000,2.03797,2.03486,-2.12526,4.05755,5.39341,-3.41764,6.59757,2.01436,2.01436,A,172437.60
5.49230,57.68786949,11.98134258,57.68789233,11.98132083,18:25:08.132631,0.00779,0.00000,0.00000,-0.01019,-0.01050,0.03036,0.00104,-0.01034,-0.02916,-0.00787,0.99924,5.48645,0.00000,2.03797,2.03486,-2.12526,4.05755,5.39341,-3.41764,6.59757,2.01436,2.01436,A,172437.60
5.52284,57.68786949,11.98134258,57.68789350,11.98131967,18:25:08.163635,0.02794,0.00000,0.00000,-0.01007,-0.01050,0.03632,0.00883,0.00096,-0.11065,-0.00512,1.00467,5.49667,0.00000,2.03797,2.03486,-2.12526,4.05755,5.51334,-3.48698,6.72729,2.06169,2.06169,A,172437.70
5.54611,57.68787069,11.98134143,57.68789350,11.98131967,18:25:08.186440,0.01052,0.00000,0.00000,-0.00808,-0.01050,0.05983,-0.02355,0.00982,-0.04709,-0.02251,1.01827,5.53873,0.00000,2.04200,2.03888,-2.19335,4.19103,5.51334,-3.48698,6.72729,2.06169,2.06169,A,172437.70
5.56156,57.68787069,11.98134143,57.68789350,11.98131967,18:25:08.201892,0.00896,0.00000,0.00000,-0.00788,-0.01050,0.05189,-0.00278,0.00722,-0.00628,-0.02873,0.92561,5.55567,0.00000,2.04200,2.03888,-2.19335,4.19103,5.51334,-3.48698,6.72729,2.06169,2.06169,A,172437.70
5.57046,57.68787069,11.98134143,57.68789350,11.98131967,18:25:08.210784,0.00767,0.00000,0.00000,-0.00834,-0.01050,0.05067,-0.00645,0.00738,0.01751,-0.04392,0.90158,5.56506,0.00000,2.04200,2.03888,-2.19335,4.19103,5.51334,-3.48698,6.72729,2.06169,2.06169,A,172437.70
5.58067,57.68787069,11.98134143,57.68789350,11.98131967,18:25:08.220996,0.00763,0.00000,0.00000,-0.00759,-0.01050,0.05464,-0.00385,0.00005,-0.04349,0.02348,0.93184,5.57543,0.00000,2.04200,2.03888,-2.19335,4.19103,5.51334,-3.48698,6.72729,2.06169,2.06169,A,172437.70
5.59117,57.68787069,11.98134143,57.68789350,11.98131967,18:25:08.231492,0.00774,0.00000,0.00000,-0.00635,-0.01050,0.05525,-0.00018,-0.00072,-0.03928,0.05478,0.93513,5.58592,0.00000,2.04200,2.03888,-2.19335,4.19103,5.51334,-3.48698,6.72729,2.06169,2.06169,A,172437.70
5.60153,57.68787069,11.98134143,57.68789350,11.98131967,18:25:08.241864,0.00788,0.00000,0.00000,-0.00596,-0.01050,0.05770,-0.00385,-0.00377,-0.04752,0.00268,0.95611,5.59592,0.00000,2.04200,2.03888,-2.19335,4.19103,5.51334,-3.48698,6.72729,2.06169,2.06169,A,172437.70
5.61190,57.68787069,11.98134143,57.68789350,11.98131967,18:25:08.252217,0.00786,0.00000,0.00000,-0.00634,-0.01050,0.05220,-0.00583,-0.00728,-0.02714,-0.05008,1.06170,5.60666,0.00000,2.04200,2.03888,-2.19335,4.19103,5.51334,-3.48698,6.72729,2.06169,2.06169,A,172437.70
5.65285,57.68787069,11.98134143,57.68789633,11.98131717,18:25:08.293330,0.03842,0.00000,0.00000,-0.00615,-0.01050,0.03845,-0.00400,-0.00591,0.05118,0.00171,1.02962,5.61688,0.00000,2.04200,2.03888,-2.19335,4.19103,5.64401,-3.63558,7.04235,2.01150,2.01150,A,172437.90
5.67534,57.68787197,11.98134022,57.68789633,11.98131717,18:25:08.315662,0.01043,0.00000,0.00000,-0.00429,-0.01050,0.05311,0.00852,-0.00988,-0.04990,-0.03977,1.00461,5.66805,0.00000,2.03789,2.03477,-2.26546,4.33360,5.64401,-3.63558,7.04235,2.01150,2.01150,A,172437.90
5.69419,57.68787197,11.98134022,57.68789633,11.98131717,18:25:08.334514,0.00824,0.00000,0.00000,-0.00402,-0.01050,0.02868,0.00043,-0.00499,-0.00579,-0.00390,0.91378,5.68865,0.00000,2.03789,2.03477,-2.26546,4.33360,5.64401,-3.63558,7.04235,2.01150,2.01150,A,172437.90
5.70441,57.68787197,11.98134022,57.68789633,11.98131717,18:25:08.344745,0.00808,0.00000,0.00000,-0.00296,-0.01050,0.02899,0.00440,-0.00652,-0.06527,0.06405,0.94709,5.69915,0.00000,2.03789,2.03477,-2.26546,4.33360,5.64401,-3.63558,7.04235,2.01150,2.01150,A,172437.90
5.71473,57.68787197,11.98134022,57.68789633,11.98131717,18:25:08.355061,0.00801,0.00000,0.00000,-0.00266,-0.01050,0.03021,0.00394,-0.00896,-0.06740,0.02220,1.03194,5.70762,0.00000,2.03789,2.03477,-2.26546,4.33360,5.64401,-3.63558,7.04235,2.01150,2.01150,A,172437.90
5.72508,57.68787197,11.98134022,57.68789633,11.98131717,18:25:08.365625,0.00779,0.00000,0.00000,-0.00200,-0.01050,0.03387,0.00898,-0.01156,-0.01867,0.04130,1.05987,5.71803,0.00000,2.03789,2.03477,-2.26546,4.33360,5.64401,-3.63558,7.04235,2.01150,2.01150,A,172437.90
5.73709,57.68787197,11.98134022,57.68789633,11.98131717,18:25:08.377765,0.00941,0.00000,0.00000,-0.00213,-0.01050,0.02486,-0.00248,-0.01263,0.03941,-0.01257,1.06475,5.73181,0.00000,2.03789,2.03477,-2.26546,4.33360,5.64401,-3.63558,7.04235,2.01150,2.01150,A,172437.90
5.76390,57.68787197,11.98134022,57.68789767,11.98131583,18:25:08.404237,0.02542,0.00000,0.00000,-0.00251,-0.01050,0.01814,-0.01393,-0.02042,0.10888,-0.01677,1.01669,5.74048,0.00000,2.03789,2.03477,-2.26546,4.33360,5.75642,-3.71483,7.19061,2.06169,2.06169,A,172438.00
5.78349,57.68787326,11.98133900,57.68789767,11.98131583,18:25:08.423811,0.00955,0.00000,0.00000,-0.00238,-0.01050,0.01051,0.00333,-0.02928,-0.13280,0.00238,0.97594,5.77552,0.00000,2.04193,2.03881,-2.33793,4.47645,5.75642,-3.71483,7.19061,2.06169,2.06169,A,172438.00
