Time,lat_estimated,lon_estimated,latitude,longitude,RealTime,CalculationTime,MeasuredVelocity,FilteredVelocity,Roll,SteeringAngle,RollRate,gy,gz,ax,ay,az,imu_read_timing,v_estimated,yaw_estimated,heading_estimated,x_estimated,y_estimated,GPS_timestamp,x_GPS,y_GPS,theta_GPS,theta_GPS_noUnwrap,status,NMEA timestamp
0.05042,57.68768617,11.98133333,57.68768617,11.98133333,17:19:47.306656,0.05037,0.00000,0.00000,-0.00039,-0.05094,0.04348,-0.01608,-0.01700,0.00037,-0.02263,0.96276,0.00001,0.00000,0.01513,0.00000,0.00000,0.00000,0.01571,0.00000,0.00000,0.00000,0.00000,A,151040.60
0.06130,57.68768617,11.98133333,57.68768617,11.98133333,17:19:47.317549,0.00624,0.00000,0.00000,0.00131,-0.05086,0.04378,-0.00936,-0.01441,-0.01555,-0.01354,1.00851,0.05477,0.00000,0.01513,0.00002,0.00000,0.00000,0.01571,0.00000,0.00000,0.00000,0.00000,A,151040.60
0.07060,57.68768617,11.98133333,57.68768617,11.98133333,17:19:47.326830,0.00530,0.00000,0.00000,0.00116,-0.05086,0.04073,-0.00493,-0.01975,-0.01519,-0.00396,1.00851,0.06469,0.00000,0.01513,0.00002,0.00000,0.00000,0.01571,0.00000,0.00000,0.00000,0.00000,A,151040.60
0.08113,57.68768617,11.98133333,57.68768617,11.98133333,17:19:47.337383,0.00544,0.00000,0.00000,0.00105,-0.05086,0.04607,-0.00737,-0.01853,-0.00671,-0.00653,0.99723,0.07517,0.00000,0.01512,0.00002,0.00000,0.00000,0.01571,0.00000,0.00000,0.00000,0.00000,A,151040.60
0.09313,57.68768617,11.98133333,57.68768617,11.98133333,17:19:47.349394,0.00705,0.00000,0.00000,0.00066,-0.05086,0.04959,-0.00722,-0.01945,0.01824,-0.02684,0.98869,0.08533,0.00000,0.01512,0.00001,0.00000,0.00000,0.01571,0.00000,0.00000,0.00000,0.00000,A,151040.60
0.10184,57.68768617,11.98133333,57.68768617,11.98133333,17:19:47.358073,0.00536,0.00000,0.00000,-0.00003,-0.05086,0.05172,-0.01165,-0.02051,0.01598,-0.04959,0.98350,0.09595,0.00000,0.01512,0.00001,0.00000,0.00000,0.01571,0.00000,0.00000,0.00000,0.00000,A,151040.60
0.11199,57.68768617,11.98133333,57.68768617,11.98133333,17:19:47.368230,0.00511,0.00000,0.00000,-0.00083,-0.05086,0.04821,-0.01119,-0.01868,0.01251,-0.05380,0.98265,0.10636,0.00000,0.01512,0.00001,0.00000,0.00000,0.01571,0.00000,0.00000,0.00000,0.00000,A,151040.60
0.13942,57.68768617,11.98133333,57.68768750,11.98133317,17:19:47.395672,0.02219,0.00000,0.00000,-0.00139,-0.05086,0.04592,-0.01547,-0.01777,0.00921,-0.03764,0.97234,0.11672,0.00000,0.01512,0.00001,0.00000,0.00000,0.13459,-0.00991,0.14826,1.63751,1.63751,A,151040.70
0.15379,57.68768623,11.98133332,57.68768750,11.98133317,17:19:47.410052,0.00728,0.00000,0.00000,-0.00050,-0.05086,0.04882,0.00118,-0.01334,-0.01488,-0.01110,1.05304,0.14780,0.00000,0.26074,0.24563,-0.00050,0.00741,0.13459,-0.00991,0.14826,1.63751,1.63751,A,151040.70
0.16240,57.68768630,11.98133332,57.68768750,11.98133317,17:19:47.418634,0.00534,0.00000,0.00000,-0.00077,-0.05086,0.04394,-0.00432,-0.01609,0.02251,-0.01232,1.03218,0.15650,0.00000,0.46952,0.45442,-0.00097,0.01446,0.13459,-0.00991,0.14826,1.63751,1.63751,A,151040.70
0.17312,57.68768636,11.98133331,57.68768750,11.98133317,17:19:47.429365,0.00566,0.00000,0.00000,-0.00122,-0.05086,0.04485,-0.00676,-0.01960,0.05386,-0.03099,0.98936,0.16725,0.00000,0.64699,0.63188,-0.00141,0.02115,0.13459,-0.00991,0.14826,1.63751,1.63751,A,151040.70
0.18314,57.68768641,11.98133330,57.68768750,11.98133317,17:19:47.439376,0.00529,0.00000,0.00000,-0.00178,-0.05086,0.04058,-0.01730,-0.01868,0.01592,-0.03318,0.97399,0.17710,0.00000,0.79783,0.78273,-0.00184,0.02750,0.13459,-0.00991,0.14826,1.63751,1.63751,A,151040.70
0.19395,57.68768647,11.98133330,57.68768750,11.98133317,17:19:47.450191,0.00571,0.00000,0.00000,-0.00186,-0.05086,0.03829,-0.02005,-0.02281,-0.05941,-0.00287,0.97502,0.18785,0.00000,0.92605,0.91094,-0.00224,0.03354,0.13459,-0.00991,0.14826,1.63751,1.63751,A,151040.70
0.21011,57.68768652,11.98133329,57.68768750,11.98133317,17:19:47.466352,0.01147,5.90769,0.00000,-0.00177,-0.05086,0.03798,-0.00539,-0.02678,-0.03788,-0.00366,0.99296,0.20348,0.00000,1.03504,1.01993,-0.00262,0.03928,0.13459,-0.00991,0.14826,1.63751,1.63751,A,151040.70
0.23016,57.68768657,11.98133328,57.68768750,11.98133317,17:19:47.486400,0.01146,5.90769,0.00000,-0.00214,-0.05086,0.03874,-0.00004,-0.02800,0.01257,-0.04551,1.01974,0.22303,0.00000,1.12767,1.11257,-0.00299,0.04472,0.13459,-0.00991,0.14826,1.63751,1.63751,A,151040.70
0.28319,57.68768662,11.98133328,57.68768900,11.98133233,17:19:47.539431,0.04186,5.90769,0.00000,-0.00199,-0.05086,0.03722,-0.00523,-0.01914,0.01641,-0.01116,1.00833,0.24339,0.00000,1.20642,1.19131,-0.00333,0.04990,0.27984,-0.05944,0.31505,1.85947,1.85947,A,151040.90
0.30446,57.68768673,11.98133323,57.68768900,11.98133233,17:19:47.560695,0.01121,5.90769,0.00000,-0.00099,-0.05086,0.04042,-0.01562,-0.02678,0.03599,-0.04849,0.95075,0.29879,0.00000,1.30664,1.29153,-0.00614,0.06316,0.27984,-0.05944,0.31505,1.85947,1.85947,A,151040.90
0.32299,57.68768685,11.98133319,57.68768900,11.98133233,17:19:47.579223,0.00952,5.90769,0.00000,-0.00098,-0.05086,0.03126,-0.03288,-0.02555,0.02855,-0.00622,0.90841,0.31708,0.00000,1.39183,1.37672,-0.00880,0.07575,0.27984,-0.05944,0.31505,1.85947,1.85947,A,151040.90
0.33423,57.68768696,11.98133314,57.68768900,11.98133233,17:19:47.590464,0.01037,5.90769,0.00000,-0.00101,-0.05086,0.02851,-0.04433,-0.02693,0.00140,0.00726,0.94288,0.32822,0.00000,1.46424,1.44913,-0.01134,0.08772,0.27984,-0.05944,0.31505,1.85947,1.85947,A,151040.90
0.35142,57.68768706,11.98133310,57.68768900,11.98133233,17:19:47.607659,0.01092,5.90769,0.00000,-0.00090,-0.05086,0.03355,-0.03059,-0.02968,-0.01330,-0.00159,1.08275,0.34576,0.00000,1.52579,1.51068,-0.01374,0.09909,0.27984,-0.05944,0.31505,1.85947,1.85947,A,151040.90
0.37103,57.68768715,11.98133306,57.68768900,11.98133233,17:19:47.627263,0.01289,5.90769,0.00000,-0.00114,-0.05086,0.02805,-0.01883,-0.03059,0.06015,-0.02269,1.08556,0.36496,0.00000,1.57811,1.56300,-0.01603,0.10988,0.27984,-0.05944,0.31505,1.85947,1.85947,A,151040.90
0.40840,57.68768725,11.98133303,57.68768983,11.98133200,17:19:47.664643,0.02719,5.90769,0.00000,-0.00115,-0.05086,0.01232,-0.03929,-0.02464,-0.03654,0.01385,1.02309,0.38422,0.00000,1.62258,1.60747,-0.01820,0.12014,0.40344,-0.07925,0.40771,1.78144,1.78144,A,151041.00
0.42786,57.68768738,11.98133298,57.68768983,11.98133200,17:19:47.684093,0.01131,5.90769,0.00000,-0.00123,-0.05086,0.02301,-0.00737,-0.02998,0.01970,-0.03154,0.96959,0.42217,0.00000,1.64867,1.63357,-0.02125,0.13452,0.40344,-0.07925,0.40771,1.78144,1.78144,A,151041.00
0.44937,57.68768750,11.98133293,57.68768983,11.98133200,17:19:47.705611,0.01194,5.90769,0.00000,-0.00158,-0.05086,0.00469,-0.01715,-0.03273,-0.02080,-0.00030,1.03468,0.44344,0.00000,1.67085,1.65575,-0.02415,0.14818,0.40344,-0.07925,0.40771,1.78144,1.78144,A,151041.00
0.47033,57.68768762,11.98133288,57.68768983,11.98133200,17:19:47.726559,0.01102,5.90769,0.00000,-0.00179,-0.05086,0.00652,-0.00600,-0.03976,-0.00073,0.00726,1.04103,0.46428,0.00000,1.68971,1.67460,-0.02690,0.16116,0.40344,-0.07925,0.40771,1.78144,1.78144,A,151041.00
0.49126,57.68768773,11.98133284,57.68768983,11.98133200,17:19:47.747491,0.00943,5.90769,0.00000,-0.00242,-0.05086,0.00912,-0.01287,-0.04220,0.01568,-0.02525,0.98204,0.48539,0.00000,1.70573,1.69063,-0.02952,0.17348,0.40344,-0.07925,0.40771,1.78144,1.78144,A,151041.00
0.50243,57.68768783,11.98133279,57.68768983,11.98133200,17:19:47.758665,0.01030,5.90769,0.00000,-0.00312,-0.05086,0.00347,-0.01562,-0.03731,-0.01726,-0.01915,0.97155,0.49576,0.00000,1.71936,1.70425,-0.03201,0.18520,0.40344,-0.07925,0.40771,1.78144,1.78144,A,151041.00
0.54200,57.68768793,11.98133276,57.68769033,11.98133150,17:19:47.798247,0.02871,5.90769,0.00000,-0.00354,-0.05097,0.00209,-0.00157,-0.03395,-0.03977,-0.00372,0.99637,0.51909,0.00000,1.73094,1.71580,-0.03437,0.19632,0.53700,-0.10897,0.46331,2.06169,2.06169,A,151041.10
0.56671,57.68768805,11.98133269,57.68769033,11.98133150,17:19:47.822946,0.01477,5.90769,0.00000,-0.00383,-0.05185,0.00163,0.00149,-0.03563,-0.05368,0.00470,1.06207,0.56070,0.00000,1.78286,1.76746,-0.03810,0.20967,0.53700,-0.10897,0.46331,2.06169,2.06169,A,151041.10
0.59128,57.68768817,11.98133263,57.68769033,11.98133150,17:19:47.847518,0.01316,5.90769,0.00000,-0.00464,-0.05205,0.00362,-0.00508,-0.03792,0.11334,-0.03117,0.93964,0.58542,0.00000,1.82700,1.81154,-0.04164,0.22235,0.53700,-0.10897,0.46331,2.06169,2.06169,A,151041.10
0.61358,57.68768827,11.98133258,57.68769033,11.98133150,17:19:47.869824,0.01236,5.90769,0.00000,-0.00490,-0.05205,0.00835,-0.03104,-0.03670,-0.06106,-0.00268,0.98552,0.60761,0.00000,1.86453,1.84907,-0.04501,0.23440,0.53700,-0.10897,0.46331,2.06169,2.06169,A,151041.10
0.63043,57.68768838,11.98133252,57.68769033,11.98133150,17:19:47.886676,0.00888,5.90769,0.00000,-0.00549,-0.05205,0.01523,-0.00111,-0.03289,-0.03215,-0.02904,0.99698,0.62398,0.00000,1.89642,1.88096,-0.04821,0.24585,0.53700,-0.10897,0.46331,2.06169,2.06169,A,151041.10
0.67001,57.68768848,11.98133247,57.68769100,11.98133033,17:19:47.926760,0.03806,5.90769,0.00000,-0.00687,-0.05205,0.00774,-0.00432,-0.02983,0.07942,-0.07155,0.97679,0.63716,0.00000,1.92353,1.90807,-0.05125,0.25672,0.66551,-0.17831,0.53744,2.32285,2.32285,A,151041.30
0.68858,57.68768860,11.98133236,57.68769100,11.98133033,17:19:47.945078,0.01054,5.90769,0.00000,-0.00668,-0.05205,0.02454,-0.00523,-0.04281,0.01885,-0.03727,1.00101,0.68287,0.00000,1.98575,1.97029,-0.05760,0.27076,0.66551,-0.17831,0.53744,2.32285,2.32285,A,151041.30
0.70514,57.68768872,11.98133226,57.68769100,11.98133033,17:19:47.961389,0.00997,5.90769,0.00000,-0.00743,-0.05205,0.01385,-0.00783,-0.04358,0.01482,-0.03983,1.00583,0.69857,0.00000,2.03863,2.02317,-0.06363,0.28409,0.66551,-0.17831,0.53744,2.32285,2.32285,A,151041.30
0.71649,57.68768884,11.98133217,57.68769100,11.98133033,17:19:47.973099,0.01046,5.90769,0.00000,-0.00753,-0.05205,0.00713,-0.00478,-0.04785,-0.03727,0.01196,1.02681,0.71083,0.00000,2.08358,2.06812,-0.06937,0.29676,0.66551,-0.17831,0.53744,2.32285,2.32285,A,151041.30
0.73521,57.68768894,11.98133207,57.68769100,11.98133033,17:19:47.991473,0.01077,5.90769,0.00000,-0.00782,-0.05205,0.01889,0.00973,-0.04190,0.02373,-0.01580,0.95617,0.72733,0.00000,2.12179,2.10633,-0.07482,0.30879,0.66551,-0.17831,0.53744,2.32285,2.32285,A,151041.30
0.75545,57.68768905,11.98133199,57.68769100,11.98133033,17:19:48.011691,0.01036,5.90769,0.00000,-0.00804,-0.05205,0.01996,-0.00264,-0.03502,0.02836,-0.02050,0.98911,0.74976,0.00000,2.15427,2.13881,-0.07999,0.32023,0.66551,-0.17831,0.53744,2.32285,2.32285,A,151041.30
0.79138,57.68768914,11.98133190,57.68769200,11.98132983,17:19:48.047615,0.02719,5.90769,0.00000,-0.00814,-0.05205,0.03004,-0.01577,-0.03197,0.00555,-0.02123,1.00394,0.76880,0.00000,2.18187,2.16641,-0.08491,0.33109,0.78795,-0.20803,0.64864,1.83196,1.83196,A,151041.40
0.80850,57.68768929,11.98133180,57.68769200,11.98132983,17:19:48.064977,0.00907,5.90769,0.00000,-0.00800,-0.05222,0.02286,-0.01241,-0.04495,0.01251,-0.01568,1.02907,0.80050,0.00000,2.13171,2.11620,-0.09106,0.34696,0.78795,-0.20803,0.64864,1.83196,1.83196,A,151041.40
0.82050,57.68768942,11.98133170,57.68769200,11.98132983,17:19:48.077100,0.01083,5.90769,0.00000,-0.00822,-0.05227,0.03019,-0.00478,-0.04785,0.00439,-0.01995,1.01797,0.81482,0.00000,2.08908,2.07355,-0.09691,0.36205,0.78795,-0.20803,0.64864,1.83196,1.83196,A,151041.40
0.83613,57.68768955,11.98133161,57.68769200,11.98132983,17:19:48.092367,0.00975,5.90769,0.00000,-0.00831,-0.05227,0.02576,-0.00386,-0.04403,-0.01281,-0.00848,1.02346,0.82978,0.00000,2.05284,2.03731,-0.10247,0.37638,0.78795,-0.20803,0.64864,1.83196,1.83196,A,151041.40
0.84837,57.68768967,11.98133152,57.68769200,11.98132983,17:19:48.104618,0.01109,5.90769,0.00000,-0.00850,-0.05227,0.03050,0.00255,-0.04464,-0.00769,-0.01440,0.99149,0.84206,0.00000,2.02204,2.00651,-0.10775,0.38999,0.78795,-0.20803,0.64864,1.83196,1.83196,A,151041.40
0.86923,57.68768979,11.98133144,57.68769200,11.98132983,17:19:48.125475,0.01336,5.90769,0.00000,-0.00846,-0.05227,0.03340,-0.00279,-0.03350,0.01531,-0.02086,0.97966,0.86332,0.00000,1.99586,1.98033,-0.11276,0.40292,0.78795,-0.20803,0.64864,1.83196,1.83196,A,151041.40
0.90839,57.68768990,11.98133136,57.68769300,11.98132933,17:19:48.165148,0.02853,5.90769,0.00000,-0.00795,-0.05227,0.03538,-0.01058,-0.03670,-0.00945,0.00073,1.00851,0.88724,0.00000,1.97360,1.95807,-0.11752,0.41521,0.90425,-0.23775,0.75983,1.83196,1.83196,A,151041.50
0.92842,57.68769006,11.98133125,57.68769300,11.98132933,17:19:48.184655,0.00907,5.90769,0.00000,-0.00709,-0.05227,0.04134,-0.00875,-0.03762,0.01836,-0.01537,0.99796,0.92276,0.00000,1.95468,1.93916,-0.12353,0.43244,0.90425,-0.23775,0.75983,1.83196,1.83196,A,151041.50
0.93952,57.68769020,11.98133116,57.68769300,11.98132933,17:19:48.195762,0.00994,5.90769,0.00000,-0.00691,-0.05227,0.03783,-0.00814,-0.03808,-0.02220,0.00811,0.98222,0.93378,0.00000,1.93860,1.92308,-0.12925,0.44881,0.90425,-0.23775,0.75983,1.83196,1.83196,A,151041.50
0.95064,57.68769034,11.98133107,57.68769300,11.98132933,17:19:48.207078,0.01025,5.90769,0.00000,-0.00677,-0.05227,0.03538,-0.00920,-0.04113,-0.01555,0.00872,1.00668,0.94470,0.00000,1.92494,1.90941,-0.13467,0.46436,0.90425,-0.23775,0.75983,1.83196,1.83196,A,151041.50
0.96977,57.68769048,11.98133098,57.68769300,11.98132933,17:19:48.226012,0.01235,5.90769,0.00000,-0.00636,-0.05227,0.04256,-0.00249,-0.03548,0.00805,0.00305,1.00436,0.96203,0.00000,1.91332,1.89779,-0.13982,0.47913,0.90425,-0.23775,0.75983,1.83196,1.83196,A,151041.50
0.98293,57.68769060,11.98133090,57.68769300,11.98132933,17:19:48.239168,0.00713,0.94774,0.94774,-0.00605,-0.05227,0.03752,-0.00523,-0.02968,0.04557,0.00421,0.95977,0.97700,0.18955,1.90344,1.88792,-0.14472,0.49317,0.90425,-0.23775,0.75983,1.83196,1.83196,A,151041.50
0.99127,57.68769073,11.98133081,57.68769300,11.98132933,17:19:48.247503,0.00507,0.94774,0.94774,-0.00616,-0.05227,0.03569,-0.00798,-0.02739,0.01482,-0.00628,0.97649,0.98564,0.34119,1.89500,1.87947,-0.14974,0.50762,0.90425,-0.23775,0.75983,1.83196,1.83196,A,151041.50
1.00200,57.68769087,11.98133073,57.68769300,11.98132933,17:19:48.258237,0.00540,0.94774,0.94774,-0.00621,-0.05227,0.03263,0.00042,-0.02891,-0.04972,-0.00518,0.99101,0.99606,0.46250,1.88775,1.87223,-0.15499,0.52290,0.90425,-0.23775,0.75983,1.83196,1.83196,A,151041.50
1.02934,57.68769101,11.98133064,57.68769400,11.98132867,17:19:48.285594,0.02235,0.94774,0.94774,-0.00585,-0.05227,0.02928,0.00820,-0.03166,-0.02611,0.02470,0.98491,1.00647,0.55954,1.88156,1.86603,-0.16021,0.53822,1.02374,-0.27738,0.87103,1.91312,1.91312,A,151041.60
1.04322,57.68769129,11.98133046,57.68769400,11.98132867,17:19:48.299454,0.00736,0.94774,0.94774,-0.00524,-0.05227,0.02317,0.00637,-0.03792,-0.00073,0.01562,1.04627,1.03731,0.63718,1.88796,1.87243,-0.17060,0.56976,1.02374,-0.27738,0.87103,1.91312,1.91312,A,151041.60
1.05164,57.68769146,11.98133035,57.68769400,11.98132867,17:19:48.307872,0.00538,0.94774,0.94774,-0.00523,-0.05227,0.01828,0.00805,-0.04006,0.01348,0.01342,1.04621,1.04573,0.69929,1.89390,1.87837,-0.17708,0.58850,1.02374,-0.27738,0.87103,1.91312,1.91312,A,151041.60
1.06216,57.68769163,11.98133024,57.68769400,11.98132867,17:19:48.318401,0.00533,0.94774,0.94774,-0.00552,-0.05227,0.01981,0.00591,-0.03869,0.04569,-0.01165,1.01394,1.05625,0.74898,1.89887,1.88334,-0.18379,0.60797,1.02374,-0.27738,0.87103,1.91312,1.91312,A,151041.60
1.07234,57.68769180,11.98133013,57.68769400,11.98132867,17:19:48.328572,0.00511,0.94774,0.94774,-0.00557,-0.05227,0.01263,-0.01226,-0.03487,0.01696,0.00939,0.98271,1.06670,0.78873,1.90308,1.88755,-0.19031,0.62679,1.02374,-0.27738,0.87103,1.91312,1.91312,A,151041.60
1.08266,57.68769197,11.98133003,57.68769400,11.98132867,17:19:48.338899,0.00520,0.94774,0.94774,-0.00584,-0.05227,0.01629,-0.01592,-0.03609,0.00329,-0.00701,0.97441,1.07677,0.82053,1.90665,1.89112,-0.19658,0.64488,1.02374,-0.27738,0.87103,1.91312,1.91312,A,151041.60
1.09319,57.68769212,11.98132992,57.68769400,11.98132867,17:19:48.349427,0.00533,0.94774,0.94774,-0.00607,-0.05227,0.01660,-0.01088,-0.03334,0.00836,-0.00579,0.98179,1.08733,0.84597,1.90967,1.89414,-0.20271,0.66248,1.02374,-0.27738,0.87103,1.91312,1.91312,A,151041.60
1.10333,57.68769228,11.98132982,57.68769400,11.98132867,17:19:48.359563,0.00507,0.94774,0.94774,-0.00633,-0.05227,0.02424,-0.01318,-0.02953,-0.04734,-0.01305,1.00870,1.09771,0.86633,1.91222,1.89669,-0.20864,0.67946,1.02374,-0.27738,0.87103,1.91312,1.91312,A,151041.60
1.11403,57.68769242,11.98132973,57.68769400,11.98132867,17:19:48.370270,0.00520,0.94774,0.94774,-0.00659,-0.05225,0.02362,0.00347,-0.02403,-0.04874,-0.01263,1.02047,1.10811,0.88261,1.91438,1.89886,-0.21434,0.69575,1.02374,-0.27738,0.87103,1.91312,1.91312,A,151041.60
1.14103,57.68769256,11.98132963,57.68769533,11.98132800,17:19:48.397291,0.02180,0.94774,0.94774,-0.00692,-0.05219,0.02469,0.01431,-0.02632,-0.03672,-0.01940,1.01480,1.11881,0.89563,1.91621,1.90071,-0.21982,0.71134,1.13618,-0.31700,1.01929,1.83196,1.83196,A,151041.70
1.15851,57.68769293,11.98132941,57.68769533,11.98132800,17:19:48.414746,0.00666,0.94774,0.94774,-0.00600,-0.05160,0.02317,0.00714,-0.02326,-0.00494,0.03093,1.01425,1.15254,0.90605,1.90471,1.88939,-0.23348,0.75244,1.13618,-0.31700,1.01929,1.83196,1.83196,A,151041.70
1.16730,57.68769311,11.98132930,57.68769533,11.98132800,17:19:48.423532,0.00505,0.94774,0.94774,-0.00607,-0.05126,0.02485,-0.00142,-0.02601,0.06222,0.00110,0.98503,1.16168,0.91439,1.89583,1.88060,-0.23955,0.77153,1.13618,-0.31700,1.01929,1.83196,1.83196,A,151041.70
1.17806,57.68769328,11.98132920,57.68769533,11.98132800,17:19:48.434301,0.00524,0.94774,0.94774,-0.00611,-0.05072,0.02500,-0.01134,-0.02953,0.02166,0.00152,0.99338,1.17213,0.92106,1.88819,1.87313,-0.24572,0.79107,1.13618,-0.31700,1.01929,1.83196,1.83196,A,151041.70
1.18832,57.68769345,11.98132910,57.68769533,11.98132800,17:19:48.444557,0.00511,0.94774,0.94774,-0.00623,-0.05007,0.02683,-0.01043,-0.03731,-0.01970,-0.00525,1.01388,1.18272,0.92640,1.88168,1.86681,-0.25149,0.80958,1.13618,-0.31700,1.01929,1.83196,1.83196,A,151041.70
1.19865,57.68769360,11.98132901,57.68769533,11.98132800,17:19:48.454883,0.00520,0.94774,0.94774,-0.00642,-0.04933,0.02729,-0.00508,-0.03395,-0.04520,-0.00970,0.96490,1.19275,0.93066,1.87612,1.86147,-0.25688,0.82701,1.13618,-0.31700,1.01929,1.83196,1.83196,A,151041.70
1.20928,57.68769376,11.98132892,57.68769533,11.98132800,17:19:48.465520,0.00557,0.94774,0.94774,-0.00679,-0.04845,0.02225,-0.00019,-0.02846,-0.00482,-0.01848,0.94727,1.20332,0.93408,1.87135,1.85696,-0.26205,0.84383,1.13618,-0.31700,1.01929,1.83196,1.83196,A,151041.70
1.21921,57.68769390,11.98132884,57.68769533,11.98132800,17:19:48.475449,0.00511,0.94774,0.94774,-0.00740,-0.04758,0.02103,0.00439,-0.02449,-0.03465,-0.03306,0.97112,1.21336,0.93681,1.86727,1.85314,-0.26691,0.85979,1.13618,-0.31700,1.01929,1.83196,1.83196,A,151041.70
1.22989,57.68769404,11.98132876,57.68769533,11.98132800,17:19:48.486134,0.00539,0.94774,0.94774,-0.00740,-0.04670,0.02103,0.01172,-0.02433,-0.02074,0.00567,0.99259,1.22398,0.93900,1.86375,1.84988,-0.27155,0.87511,1.13618,-0.31700,1.01929,1.83196,1.83196,A,151041.70
1.26845,57.68769417,11.98132869,57.68769800,11.98132700,17:19:48.524876,0.03353,0.94774,0.94774,-0.00691,-0.04599,0.02637,0.01187,-0.02693,0.04124,0.03270,0.95922,1.23452,0.94074,1.86075,1.84709,-0.27590,0.88958,1.26368,-0.37644,1.31581,1.76862,1.76862,A,151041.90
1.28596,57.68769469,11.98132843,57.68769800,11.98132700,17:19:48.542205,0.00779,0.94774,0.94774,-0.00632,-0.04466,0.02637,0.00271,-0.02433,-0.02653,-0.01720,1.06945,1.27883,0.94214,1.84749,1.83422,-0.29130,0.94747,1.26368,-0.37644,1.31581,1.76862,1.76862,A,151041.90
1.29386,57.68769490,11.98132834,57.68769800,11.98132700,17:19:48.550091,0.00546,0.94774,0.94774,-0.00631,-0.04460,0.02683,0.00897,-0.02693,0.03080,0.00634,1.03432,1.28792,0.94326,1.83745,1.82421,-0.29691,0.97092,1.26368,-0.37644,1.31581,1.76862,1.76862,A,151041.90
1.30384,57.68769512,11.98132824,57.68769800,11.98132700,17:19:48.560075,0.00504,0.94774,0.94774,-0.00641,-0.04449,0.02485,0.00408,-0.02830,0.05734,-0.00213,0.98387,1.29821,0.94416,1.82884,1.81563,-0.30273,0.99527,1.26368,-0.37644,1.31581,1.76862,1.76862,A,151041.90
1.31430,57.68769533,11.98132815,57.68769800,11.98132700,17:19:48.570534,0.00519,0.94774,0.94774,-0.00620,-0.04438,0.02301,-0.00417,-0.02846,0.02641,0.01915,0.96715,1.30838,0.94487,1.82152,1.80834,-0.30823,1.01858,1.26368,-0.37644,1.31581,1.76862,1.76862,A,151041.90
1.32500,57.68769553,11.98132806,57.68769800,11.98132700,17:19:48.581243,0.00550,0.94774,0.94774,-0.00620,-0.04429,0.02393,-0.00905,-0.02617,-0.05649,0.00403,0.93788,1.31912,0.94545,1.81527,1.80212,-0.31347,1.04099,1.26368,-0.37644,1.31581,1.76862,1.76862,A,151041.90
1.33519,57.68769572,11.98132798,57.68769800,11.98132700,17:19:48.591427,0.00529,0.94774,0.94774,-0.00633,-0.04427,0.02317,-0.00432,-0.02494,0.03148,-0.00268,0.90658,1.32916,0.94590,1.80998,1.79683,-0.31831,1.06193,1.26368,-0.37644,1.31581,1.76862,1.76862,A,151041.90
1.34621,57.68769590,11.98132790,57.68769800,11.98132700,17:19:48.602445,0.00591,0.94774,0.94774,-0.00659,-0.04427,0.02286,-0.01562,-0.02586,0.01269,-0.01202,0.91726,1.34025,0.94627,1.80546,1.79231,-0.32301,1.08242,1.26368,-0.37644,1.31581,1.76862,1.76862,A,151041.90
1.35607,57.68769607,11.98132783,57.68769800,11.98132700,17:19:48.612309,0.00537,0.94774,0.94774,-0.00669,-0.04427,0.01904,-0.01501,-0.02296,0.01531,0.00207,0.96807,1.35015,0.94656,1.80165,1.78851,-0.32722,1.10092,1.26368,-0.37644,1.31581,1.76862,1.76862,A,151041.90
1.38157,57.68769623,11.98132776,57.68769933,11.98132617,17:19:48.637801,0.02047,0.94774,0.94774,-0.00656,-0.04427,0.02072,-0.00752,-0.02403,-0.07466,0.01659,1.06225,1.36055,0.94680,1.79840,1.78525,-0.33130,1.11897,1.37782,-0.42597,1.46407,1.89322,1.89322,A,151042.00
1.40088,57.68769664,11.98132758,57.68769933,11.98132617,17:19:48.657129,0.00854,0.94774,0.94774,-0.00654,-0.04427,0.00896,-0.00096,-0.02555,0.01281,0.00244,1.06597,1.39493,0.94699,1.81354,1.80040,-0.34222,1.16463,1.37782,-0.42597,1.46407,1.89322,1.89322,A,151042.00
1.40787,57.68769682,11.98132749,57.68769933,11.98132617,17:19:48.664110,0.00515,0.94774,0.94774,-0.00642,-0.04427,0.01034,0.00622,-0.02998,0.01153,0.02422,1.00796,1.40225,0.94714,1.82729,1.81414,-0.34752,1.18438,1.37782,-0.42597,1.46407,1.89322,1.89322,A,151042.00
1.41828,57.68769701,11.98132739,57.68769933,11.98132617,17:19:48.674515,0.00517,0.94774,0.94774,-0.00636,-0.04427,0.01324,0.00240,-0.03182,0.02739,0.01598,0.95221,1.41240,0.94726,1.83888,1.82573,-0.35326,1.20565,1.37782,-0.42597,1.46407,1.89322,1.89322,A,151042.00
1.42861,57.68769719,11.98132730,57.68769933,11.98132617,17:19:48.685081,0.00510,0.94774,0.94774,-0.00635,-0.04427,0.00881,-0.00218,-0.03166,-0.00976,0.01476,0.93824,1.42300,0.94735,1.84872,1.83558,-0.35883,1.22601,1.37782,-0.42597,1.46407,1.89322,1.89322,A,151042.00
1.43896,57.68769736,11.98132721,57.68769933,11.98132617,17:19:48.695189,0.00522,0.94774,0.94774,-0.00661,-0.04427,0.00408,-0.00982,-0.02891,0.00561,0.00030,0.91439,1.43309,0.94743,1.85710,1.84395,-0.36414,1.24513,1.37782,-0.42597,1.46407,1.89322,1.89322,A,151042.00
1.44952,57.68769753,11.98132712,57.68769933,11.98132617,17:19:48.705758,0.00539,0.94774,0.94774,-0.00739,-0.04427,0.00011,-0.00982,-0.03518,-0.00342,-0.02885,0.93757,1.44361,0.94749,1.86421,1.85107,-0.36930,1.26343,1.37782,-0.42597,1.46407,1.89322,1.89322,A,151042.00
1.45961,57.68769768,11.98132704,57.68769933,11.98132617,17:19:48.715852,0.00509,0.94774,0.94774,-0.00757,-0.04427,-0.00142,-0.00600,-0.03136,-0.01177,0.00915,0.99290,1.45398,0.94754,1.87027,1.85712,-0.37420,1.28064,1.37782,-0.42597,1.46407,1.89322,1.89322,A,151042.00
1.47028,57.68769783,11.98132696,57.68769933,11.98132617,17:19:48.726518,0.00522,0.94774,0.94774,-0.00758,-0.04427,-0.00142,-0.00386,-0.03182,-0.00427,0.02147,1.04688,1.46436,0.94758,1.87540,1.86226,-0.37897,1.29722,1.37782,-0.42597,1.46407,1.89322,1.89322,A,151042.00
1.49623,57.68769797,11.98132688,57.68770100,11.98132583,17:19:48.752474,0.02076,0.94774,0.94774,-0.00788,-0.04427,-0.00371,0.00118,-0.02571,-0.00464,0.00323,1.06939,1.47494,0.94761,1.87977,1.86663,-0.38351,1.31288,1.49180,-0.44578,1.64939,1.67730,1.67730,A,151042.10
1.51343,57.68769836,11.98132669,57.68770100,11.98132583,17:19:48.769674,0.00727,0.94774,0.94774,-0.00831,-0.04427,-0.01623,-0.01318,-0.03411,-0.01372,0.02617,1.02395,1.50710,0.94764,1.85038,1.83724,-0.39460,1.35589,1.49180,-0.44578,1.64939,1.67730,1.67730,A,151042.10
1.52202,57.68769854,11.98132663,57.68770100,11.98132583,17:19:48.778254,0.00540,0.94774,0.94774,-0.00810,-0.04427,-0.02234,-0.01318,-0.03579,-0.04544,0.04593,0.99204,1.51608,0.94766,1.82618,1.81303,-0.39871,1.37624,1.49180,-0.44578,1.64939,1.67730,1.67730,A,151042.10
1.53213,57.68769873,11.98132656,57.68770100,11.98132583,17:19:48.788362,0.00511,0.94774,0.94774,-0.00830,-0.04427,-0.01471,-0.00752,-0.03670,-0.01873,0.01537,0.94391,1.52649,0.94767,1.80555,1.79240,-0.40286,1.39715,1.49180,-0.44578,1.64939,1.67730,1.67730,A,151042.10
1.54248,57.68769891,11.98132649,57.68770100,11.98132583,17:19:48.798713,0.00522,0.94774,0.94774,-0.00857,-0.04427,-0.01364,-0.00126,-0.04098,-0.00939,0.00952,0.93336,1.53658,0.94768,1.78801,1.77487,-0.40664,1.41704,1.49180,-0.44578,1.64939,1.67730,1.67730,A,151042.10
1.55336,57.68769908,11.98132643,57.68770100,11.98132583,17:19:48.809601,0.00570,0.94774,0.94774,-0.00902,-0.04427,-0.01807,-0.00111,-0.03640,-0.01982,0.00171,0.97832,1.54730,0.94770,1.77310,1.75995,-0.41018,1.43629,1.49180,-0.44578,1.64939,1.67730,1.67730,A,151042.10
1.56328,57.68769924,11.98132638,57.68770100,11.98132583,17:19:48.819521,0.00523,0.94774,0.94774,-0.00932,-0.04427,-0.00921,0.00561,-0.03121,-0.04471,0.00464,1.01053,1.55765,0.94770,1.76043,1.74729,-0.41334,1.45415,1.49180,-0.44578,1.64939,1.67730,1.67730,A,151042.10
1.57382,57.68769940,11.98132633,57.68770100,11.98132583,17:19:48.830053,0.00537,0.94774,0.94774,-0.00957,-0.04427,-0.01058,0.01019,-0.02510,-0.05020,0.00915,1.01943,1.56792,0.94771,1.74966,1.73651,-0.41630,1.47142,1.49180,-0.44578,1.64939,1.67730,1.67730,A,151042.10
1.58452,57.68769955,11.98132628,57.68770100,11.98132583,17:19:48.841017,0.00567,0.94774,0.94774,-0.00956,-0.04418,-0.00585,0.01569,-0.02219,-0.03587,0.02312,1.02657,1.57822,0.94772,1.74048,1.72736,-0.41910,1.48821,1.49180,-0.44578,1.64939,1.67730,1.67730,A,151042.10
1.60932,57.68769968,11.98132624,57.68770250,11.98132567,17:19:48.865566,0.02021,1.19998,1.19998,-0.00961,-0.04387,-0.00096,0.02195,-0.02021,0.01671,0.01403,1.01974,1.58840,0.99817,1.73271,1.71968,-0.42151,1.50314,1.60550,-0.45569,1.81618,1.63012,1.63012,A,151042.20
1.62444,57.68770005,11.98132615,57.68770250,11.98132567,17:19:48.881703,0.00865,1.19998,1.19998,-0.00989,-0.04118,0.00759,-0.01486,-0.01166,0.00988,-0.01671,1.01717,1.61672,1.03853,1.71826,1.70603,-0.42692,1.54342,1.60550,-0.45569,1.81618,1.63012,1.63012,A,151042.20
1.63155,57.68770023,11.98132611,57.68770250,11.98132567,17:19:48.887784,0.00512,1.19998,1.19998,-0.00988,-0.03982,0.00621,-0.01730,-0.01502,0.02891,0.01226,0.95123,1.62592,1.07082,1.70658,1.69475,-0.42930,1.56399,1.60550,-0.45569,1.81618,1.63012,1.63012,A,151042.20
1.64264,57.68770042,11.98132607,57.68770250,11.98132567,17:19:48.898874,0.00565,1.19998,1.19998,-0.01042,-0.03804,0.01538,-0.01547,-0.01945,0.01769,-0.02800,0.91347,1.63627,1.09665,1.69652,1.68522,-0.43169,1.58524,1.60550,-0.45569,1.81618,1.63012,1.63012,A,151042.20
1.65296,57.68770060,11.98132603,57.68770250,11.98132567,17:19:48.909199,0.00557,1.19998,1.19998,-0.01050,-0.03614,0.01981,-0.00844,-0.01868,-0.03428,-0.00268,0.90646,1.64687,1.11732,1.68791,1.67718,-0.43385,1.60514,1.60550,-0.45569,1.81618,1.63012,1.63012,A,151042.20
1.66518,57.68770079,11.98132600,57.68770250,11.98132567,17:19:48.921422,0.00739,1.19998,1.19998,-0.01088,-0.03442,0.01920,0.00087,-0.01853,-0.00799,-0.02257,0.93348,1.65876,1.13385,1.68046,1.67024,-0.43606,1.62615,1.60550,-0.45569,1.81618,1.63012,1.63012,A,151042.20
1.67360,57.68770094,11.98132597,57.68770250,11.98132567,17:19:48.929835,0.00542,1.19998,1.19998,-0.01111,-0.03283,0.01797,0.00882,-0.01654,-0.00262,-0.00958,0.97533,1.66767,1.14707,1.67417,1.66443,-0.43775,1.64269,1.60550,-0.45569,1.81618,1.63012,1.63012,A,151042.20
1.68414,57.68770110,11.98132594,57.68770250,11.98132567,17:19:48.940378,0.00521,1.19998,1.19998,-0.01079,-0.03156,0.01416,0.00973,-0.01364,-0.02269,0.02812,1.03682,1.67851,1.15765,1.66871,1.65935,-0.43953,1.66086,1.60550,-0.45569,1.81618,1.63012,1.63012,A,151042.20
1.69441,57.68770125,11.98132591,57.68770250,11.98132567,17:19:48.950641,0.00523,1.19998,1.19998,-0.01047,-0.03068,0.01019,0.00790,-0.01425,0.06191,0.03392,1.06866,1.68849,1.16612,1.66406,1.65495,-0.44114,1.67759,1.60550,-0.45569,1.81618,1.63012,1.63012,A,151042.20
1.70494,57.68770140,11.98132589,57.68770250,11.98132567,17:19:48.961182,0.00535,1.19998,1.19998,-0.01005,-0.03009,0.01339,-0.00829,-0.00708,0.04227,0.03941,1.10075,1.69907,1.17289,1.66007,1.65114,-0.44266,1.69389,1.60550,-0.45569,1.81618,1.63012,1.63012,A,151042.20
1.73135,57.68770154,11.98132586,57.68770417,11.98132433,17:19:48.987602,0.02137,1.19998,1.19998,-0.01003,-0.02980,0.01553,-0.02020,-0.01074,-0.01000,0.00964,1.13704,1.70924,1.17831,1.65667,1.64782,-0.44408,1.70965,1.72664,-0.53494,2.00151,1.97489,1.97489,A,151042.30
1.74854,57.68770198,11.98132574,57.68770417,11.98132433,17:19:49.005026,0.00767,1.19998,1.19998,-0.01013,-0.02977,0.01187,-0.02860,-0.02143,-0.03727,-0.01421,0.92970,1.74207,1.18264,1.70489,1.69605,-0.45127,1.75851,1.72664,-0.53494,2.00151,1.97489,1.97489,A,151042.30
1.75638,57.68770215,11.98132566,57.68770417,11.98132433,17:19:49.012614,0.00512,1.19998,1.19998,-0.01095,-0.02977,0.01629,-0.01898,-0.02342,-0.00915,-0.04215,0.90195,1.75075,1.18611,1.74655,1.73771,-0.45631,1.77743,1.72664,-0.53494,2.00151,1.97489,1.97489,A,151042.30
1.76682,57.68770234,11.98132556,57.68770417,11.98132433,17:19:49.023064,0.00516,1.19998,1.19998,-0.01140,-0.02977,0.00545,-0.00982,-0.02494,-0.01452,-0.01635,0.91268,1.76093,1.18888,1.78190,1.77306,-0.46181,1.79794,1.72664,-0.53494,2.00151,1.97489,1.97489,A,151042.30
1.77745,57.68770251,11.98132547,57.68770417,11.98132433,17:19:49.033685,0.00539,1.19998,1.19998,-0.01153,-0.02977,-0.00081,0.00515,-0.02510,-0.06533,0.00799,1.00815,1.77157,1.19110,1.81194,1.80310,-0.46741,1.81761,1.72664,-0.53494,2.00151,1.97489,1.97489,A,151042.30
1.78782,57.68770268,11.98132538,57.68770417,11.98132433,17:19:49.044058,0.00536,1.19998,1.19998,-0.01142,-0.02977,0.00438,0.01844,-0.02387,0.00921,0.02050,1.00327,1.78193,1.19288,1.83748,1.82864,-0.47295,1.83596,1.72664,-0.53494,2.00151,1.97489,1.97489,A,151042.30
1.79867,57.68770284,11.98132528,57.68770417,11.98132433,17:19:49.054897,0.00565,1.19998,1.19998,-0.01156,-0.02977,0.00683,0.00378,-0.02479,0.07259,0.00238,1.06982,1.79276,1.19430,1.85917,1.85033,-0.47859,1.85387,1.72664,-0.53494,2.00151,1.97489,1.97489,A,151042.30
1.80851,57.68770298,11.98132519,57.68770417,11.98132433,17:19:49.064996,0.00510,1.19998,1.19998,-0.01143,-0.02977,0.00469,-0.01043,-0.02479,0.06350,0.02294,1.05457,1.80288,1.19543,1.87763,1.86879,-0.48393,1.87004,1.72664,-0.53494,2.00151,1.97489,1.97489,A,151042.30
1.81894,57.68770313,11.98132510,57.68770417,11.98132433,17:19:49.075171,0.00514,1.19998,1.19998,-0.01128,-0.02977,0.00423,-0.01822,-0.02418,-0.00671,0.02452,1.06469,1.81306,1.19634,1.89332,1.88448,-0.48927,1.88570,1.72664,-0.53494,2.00151,1.97489,1.97489,A,151042.30
1.84570,57.68770326,11.98132501,57.68770617,11.98132350,17:19:49.101962,0.02139,1.19998,1.19998,-0.01099,-0.02977,0.01110,-0.01486,-0.02708,0.01409,0.02739,0.99595,1.82378,1.19707,1.90664,1.89780,-0.49460,1.90088,1.84122,-0.58447,2.22390,1.78994,1.78994,A,151042.40
1.86104,57.68770369,11.98132476,57.68770617,11.98132350,17:19:49.117289,0.00747,1.19998,1.19998,-0.01147,-0.02977,0.00286,0.00622,-0.03105,-0.05880,-0.02037,0.94013,1.85486,1.19765,1.88966,1.88082,-0.50964,1.94811,1.84122,-0.58447,2.22390,1.78994,1.78994,A,151042.40
1.86933,57.68770387,11.98132466,57.68770617,11.98132350,17:19:49.125570,0.00536,1.19998,1.19998,-0.01144,-0.02977,-0.00203,0.01966,-0.02922,-0.02867,0.01763,0.93361,1.86346,1.19812,1.87585,1.86701,-0.51563,1.96894,1.84122,-0.58447,2.22390,1.78994,1.78994,A,151042.40
1.87947,57.68770407,11.98132455,57.68770617,11.98132350,17:19:49.135703,0.00511,1.19998,1.19998,-0.01185,-0.02977,-0.00295,0.02577,-0.02769,0.00592,-0.00897,0.90731,1.87384,1.19849,1.86406,1.85522,-0.52186,1.99082,1.84122,-0.58447,2.22390,1.78994,1.78994,A,151042.40
1.89012,57.68770426,11.98132445,57.68770617,11.98132350,17:19:49.146360,0.00519,1.19998,1.19998,-0.01206,-0.02977,-0.00509,0.01783,-0.02907,0.03477,0.00506,0.96124,1.88421,1.19879,1.85403,1.84519,-0.52773,2.01184,1.84122,-0.58447,2.22390,1.78994,1.78994,A,151042.40
1.90047,57.68770444,11.98132436,57.68770617,11.98132350,17:19:49.156942,0.00514,1.19998,1.19998,-0.01251,-0.02977,-0.00738,0.00927,-0.02708,0.10626,-0.00988,0.99875,1.89483,1.19902,1.84550,1.83667,-0.53320,2.03180,1.84122,-0.58447,2.22390,1.78994,1.78994,A,151042.40
1.91089,57.68770461,11.98132428,57.68770617,11.98132350,17:19:49.167125,0.00516,1.19998,1.19998,-0.01249,-0.02977,-0.01349,-0.01547,-0.03243,0.08619,0.02684,1.04554,1.90501,1.19921,1.83826,1.82942,-0.53827,2.05059,1.84122,-0.58447,2.22390,1.78994,1.78994,A,151042.40
1.92155,57.68770477,11.98132420,57.68770617,11.98132350,17:19:49.177785,0.00542,1.19998,1.19998,-0.01270,-0.02977,-0.01425,-0.02784,-0.04144,0.04557,0.01238,1.08836,1.91563,1.19937,1.83210,1.82326,-0.54308,2.06871,1.84122,-0.58447,2.22390,1.78994,1.78994,A,151042.40
1.93161,57.68770492,11.98132412,57.68770617,11.98132350,17:19:49.187849,0.00508,1.19998,1.19998,-0.01264,-0.02977,-0.00661,-0.03059,-0.04770,-0.03904,0.02635,1.12856,1.92599,1.19949,1.82688,1.81804,-0.54750,2.08559,1.84122,-0.58447,2.22390,1.78994,1.78994,A,151042.40
1.96818,57.68770507,11.98132405,57.68770933,11.98132167,17:19:49.224410,0.03110,1.19998,1.19998,-0.01223,-0.02977,-0.00341,-0.01577,-0.04464,-0.05453,0.05063,1.12399,1.93636,1.19959,1.82242,1.81359,-0.55174,2.10198,1.96495,-0.69344,2.57602,1.87092,1.87092,A,151042.60
1.97833,57.68770562,11.98132378,57.68770933,11.98132167,17:19:49.234564,0.00532,1.19998,1.19998,-0.01259,-0.02977,-0.00295,0.00072,-0.02082,0.02977,-0.00250,0.84479,1.97235,1.19966,1.83008,1.82124,-0.56812,2.16320,1.96495,-0.69344,2.57602,1.87092,1.87092,A,151042.60
1.98850,57.68770589,11.98132363,57.68770933,11.98132167,17:19:49.245004,0.00508,1.19998,1.19998,-0.01187,-0.02977,-0.00081,-0.00233,-0.01334,-0.03459,0.05301,0.84247,1.98288,1.19973,1.83730,1.82846,-0.57675,2.19311,1.96495,-0.69344,2.57602,1.87092,1.87092,A,151042.60
1.99897,57.68770615,11.98132349,57.68770933,11.98132167,17:19:49.255200,0.00515,1.19998,1.19998,-0.01161,-0.02977,0.00652,-0.00035,-0.01502,-0.00317,0.02422,0.86577,1.99308,1.19978,1.84344,1.83460,-0.58503,2.22152,1.96495,-0.69344,2.57602,1.87092,1.87092,A,151042.60
2.00963,57.68770639,11.98132336,57.68770933,11.98132167,17:19:49.265860,0.00541,1.19998,1.19998,-0.01159,-0.02977,0.01324,-0.00646,-0.01945,-0.02989,0.00775,0.97210,2.00370,1.19982,1.84865,1.83981,-0.59299,2.24866,1.96495,-0.69344,2.57602,1.87092,1.87092,A,151042.60
2.02241,57.68770662,11.98132323,57.68770933,11.98132167,17:19:49.278678,0.00780,1.19998,1.19998,-0.01211,-0.02977,0.01156,-0.00417,-0.02311,0.01360,-0.02800,1.06384,2.01406,1.19998,1.84259,1.83375,-0.69344,2.57602,1.96495,-0.69344,2.57602,1.87092,1.87092,A,151042.60
2.03036,57.68770942,11.98132162,57.68770933,11.98132167,17:19:49.286603,0.00519,1.19998,1.19998,-0.01252,0.01512,0.00087,0.00301,-0.02357,-0.06801,-0.00915,1.21390,2.02449,1.19998,1.84593,1.85042,-0.69600,2.58552,1.96495,-0.69344,2.57602,1.87092,1.87092,A,151042.60
2.04243,57.68770950,11.98132158,57.68770933,11.98132167,17:19:49.298663,0.00674,1.19998,1.19998,-0.01284,0.01512,0.00240,0.01554,-0.02525,0.03831,-0.00311,1.11154,2.03563,1.19998,1.84913,1.85362,-0.69874,2.59503,1.96495,-0.69344,2.57602,1.87092,1.87092,A,151042.60
2.05139,57.68770956,11.98132154,57.68770933,11.98132167,17:19:49.307629,0.00531,1.19998,1.19998,-0.01250,0.01512,-0.00295,0.00087,-0.02555,0.03410,0.04557,1.01632,2.04535,1.19998,1.85182,1.85631,-0.70069,2.60173,1.96495,-0.69344,2.57602,1.87092,1.87092,A,151042.60
2.06203,57.68770964,11.98132150,57.68770933,11.98132167,17:19:49.318265,0.00555,1.55402,1.55402,-0.01195,0.01512,0.00255,-0.01562,-0.01792,-0.00628,0.05337,0.93617,2.05596,1.27079,1.85414,1.85863,-0.70314,2.61002,1.96495,-0.69344,2.57602,1.87092,1.87092,A,151042.60
2.08904,57.68770971,11.98132147,57.68771017,11.98132083,17:19:49.345286,0.02216,1.55402,1.55402,-0.01155,0.01512,0.00683,-0.01638,-0.01609,-0.06564,0.04032,0.90744,2.06623,1.32743,1.85610,1.86059,-0.70541,2.61763,2.08333,-0.74297,2.66868,2.06169,2.06169,A,151042.70
2.10434,57.68771006,11.98132125,57.68771017,11.98132083,17:19:49.360568,0.00675,1.55402,1.55402,-0.01199,0.01602,0.01110,0.00469,0.00148,-0.01379,-0.02861,0.98051,2.09790,1.37275,1.88669,1.89145,-0.71805,2.65628,2.08333,-0.74297,2.66868,2.06169,2.06169,A,151042.70
2.11386,57.68771014,11.98132118,57.68771017,11.98132083,17:19:49.370102,0.00587,1.55402,1.55402,-0.01231,0.01684,0.01248,0.01019,0.00468,-0.02117,-0.00689,1.01675,2.10789,1.40900,1.91232,1.91732,-0.72235,2.66609,2.08333,-0.74297,2.66868,2.06169,2.06169,A,151042.70
2.12350,57.68771023,11.98132110,57.68771017,11.98132083,17:19:49.379725,0.00511,1.55402,1.55402,-0.01238,0.01789,0.00423,0.00714,0.00346,-0.02745,0.01555,1.06006,2.11786,1.43801,1.93407,1.93938,-0.72695,2.67609,2.08333,-0.74297,2.66868,2.06169,2.06169,A,151042.70
2.13421,57.68771033,11.98132102,57.68771017,11.98132083,17:19:49.390449,0.00523,1.55402,1.55402,-0.01223,0.01911,0.00347,0.00805,0.00377,-0.02653,0.03233,1.06622,2.12829,1.46121,1.95254,1.95821,-0.73200,2.68671,2.08333,-0.74297,2.66868,2.06169,2.06169,A,151042.70
2.14452,57.68771042,11.98132093,57.68771017,11.98132083,17:19:49.401007,0.00513,1.55402,1.55402,-0.01125,0.02027,0.00866,-0.00325,-0.00249,0.04166,0.08388,1.01693,2.13890,1.47977,1.96819,1.97421,-0.73702,2.69679,2.08333,-0.74297,2.66868,2.06169,2.06169,A,151042.70
2.15508,57.68771051,11.98132085,57.68771017,11.98132083,17:19:49.411314,0.00529,1.55402,1.55402,-0.01128,0.02126,0.00988,-0.02325,-0.00433,0.04526,0.01586,0.97075,2.14922,1.49462,1.98147,1.98778,-0.74202,2.70640,2.08333,-0.74297,2.66868,2.06169,2.06169,A,151042.70
2.16546,57.68771059,11.98132077,57.68771017,11.98132083,17:19:49.421698,0.00542,1.55402,1.55402,-0.01117,0.02205,0.00866,-0.02891,-0.00753,-0.05209,0.02574,0.98869,2.15956,1.50650,1.99272,1.99927,-0.74685,2.71531,2.08333,-0.74297,2.66868,2.06169,2.06169,A,151042.70
2.17583,57.68771067,11.98132069,57.68771017,11.98132083,17:19:49.432059,0.00539,1.55402,1.55402,-0.01172,0.02270,0.00560,-0.01730,-0.00982,-0.10651,-0.01549,0.97576,2.17016,1.51600,2.00228,2.00902,-0.75174,2.72412,2.08333,-0.74297,2.66868,2.06169,2.06169,A,151042.70
2.20245,57.68771074,11.98132061,57.68771333,11.98132017,17:19:49.458695,0.02146,1.55402,1.55402,-0.01203,0.02330,-0.00188,0.00988,-0.00616,-0.09504,0.00525,0.98558,2.18028,1.52361,2.01037,2.01729,-0.75637,2.73216,2.19765,-0.78259,3.02080,1.68286,1.68286,A,151042.80
2.21239,57.68771115,11.98132033,57.68771333,11.98132017,17:19:49.468623,0.00522,1.55402,1.55402,-0.01221,0.02417,-0.01165,0.01554,0.00423,0.07375,0.03068,0.93397,2.20674,1.52969,1.96084,1.96802,-0.77293,2.77843,2.19765,-0.78259,3.02080,1.68286,1.68286,A,151042.80
2.22265,57.68771136,11.98132024,57.68771333,11.98132017,17:19:49.478889,0.00524,1.55402,1.55402,-0.01219,0.02423,-0.01486,-0.00569,0.00850,0.04294,0.03331,0.93964,2.21674,1.53455,1.91830,1.92549,-0.77801,2.80152,2.19765,-0.78259,3.02080,1.68286,1.68286,A,151042.80
2.23313,57.68771156,11.98132017,57.68771333,11.98132017,17:19:49.489376,0.00532,1.55402,1.55402,-0.01173,0.02423,-0.00982,-0.01272,0.00590,-0.10425,0.06167,1.00882,2.22730,1.53845,1.88215,1.88934,-0.78254,2.82409,2.19765,-0.78259,3.02080,1.68286,1.68286,A,151042.80
2.24581,57.68771179,11.98132008,57.68771333,11.98132017,17:19:49.502044,0.00759,1.55402,1.55402,-0.01152,0.02423,-0.00539,0.00347,-0.00341,-0.06844,0.04465,1.05225,2.23925,1.54156,1.85149,1.85868,-0.78746,2.84883,2.19765,-0.78259,3.02080,1.68286,1.68286,A,151042.80
2.25416,57.68771194,11.98132004,57.68771333,11.98132017,17:19:49.510392,0.00554,1.55402,1.55402,-0.01191,0.02423,-0.01043,0.00591,-0.00799,-0.00226,0.00506,1.07342,2.24824,1.54405,1.82530,1.83249,-0.78983,2.86626,2.19765,-0.78259,3.02080,1.68286,1.68286,A,151042.80
2.26425,57.68771212,11.98132000,57.68771333,11.98132017,17:19:49.520479,0.00513,1.55402,1.55402,-0.01259,0.02434,-0.01455,0.00423,-0.00814,0.01482,-0.01135,1.04115,2.25863,1.54605,1.80309,1.81032,-0.79262,2.88575,2.19765,-0.78259,3.02080,1.68286,1.68286,A,151042.80
2.27457,57.68771229,11.98131996,57.68771333,11.98132017,17:19:49.530804,0.00522,1.55402,1.55402,-0.01347,0.02460,-0.02662,0.00194,-0.00708,0.03849,-0.01751,1.00321,2.26867,1.54764,1.78420,1.79150,-0.79499,2.90427,2.19765,-0.78259,3.02080,1.68286,1.68286,A,151042.80
2.28510,57.68771245,11.98131992,57.68771333,11.98132017,17:19:49.541343,0.00535,1.55402,1.55402,-0.01367,0.02499,-0.03090,0.00225,-0.00005,-0.04612,0.03038,0.96880,2.27925,1.54892,1.76814,1.77556,-0.79712,2.92233,2.19765,-0.78259,3.02080,1.68286,1.68286,A,151042.80
2.29525,57.68771260,11.98131989,57.68771333,11.98132017,17:19:49.551482,0.00510,1.55402,1.55402,-0.01323,0.02536,-0.03884,-0.00554,0.00087,-0.05392,0.07143,0.91341,2.28940,1.54994,1.75447,1.76200,-0.79895,2.93958,2.19765,-0.78259,3.02080,1.68286,1.68286,A,151042.80
2.32179,57.68771275,11.98131986,57.68771567,11.98131950,17:19:49.578025,0.02124,1.55402,1.55402,-0.01323,0.02565,-0.03288,0.00072,0.00087,-0.02037,0.04465,0.95014,2.30000,1.55075,1.74285,1.75046,-0.80054,2.95606,2.31731,-0.82222,3.28025,1.72235,1.72235,A,151042.90
2.33329,57.68771323,11.98131973,57.68771567,11.98131950,17:19:49.589530,0.00652,1.55402,1.55402,-0.01461,0.02596,-0.02387,-0.00890,0.00056,0.03447,-0.02556,0.99485,2.32736,1.55141,1.73940,1.74711,-0.80828,3.00894,2.31731,-0.82222,3.28025,1.72235,1.72235,A,151042.90
2.34272,57.68771345,11.98131969,57.68771567,11.98131950,17:19:49.598954,0.00573,1.55402,1.55402,-0.01533,0.02598,-0.02998,-0.00646,0.00560,-0.10224,-0.00799,1.02370,2.33678,1.55193,1.73592,1.74364,-0.81094,3.03352,2.31731,-0.82222,3.28025,1.72235,1.72235,A,151042.90
2.35249,57.68771366,11.98131965,57.68771567,11.98131950,17:19:49.608977,0.00511,1.55402,1.55402,-0.01608,0.02598,-0.03868,0.00943,0.00117,-0.08717,-0.00317,0.98820,2.34689,1.55235,1.73298,1.74070,-0.81354,3.05750,2.31731,-0.82222,3.28025,1.72235,1.72235,A,151042.90
2.36407,57.68771387,11.98131960,57.68771567,11.98131950,17:19:49.620317,0.00628,1.55402,1.55402,-0.01681,0.02601,-0.04495,0.01095,0.00010,-0.02208,0.00226,1.01480,2.35706,1.55268,1.73049,1.73821,-0.81606,3.08083,2.31731,-0.82222,3.28025,1.72235,1.72235,A,151042.90
2.37488,57.68771406,11.98131957,57.68771567,11.98131950,17:19:49.631125,0.00669,1.55402,1.55402,-0.01687,0.02607,-0.04342,0.00714,-0.00494,0.01385,0.04648,1.01687,2.36769,1.55295,1.72835,1.73609,-0.81823,3.10179,2.31731,-0.82222,3.28025,1.72235,1.72235,A,151042.90
2.38365,57.68771424,11.98131953,57.68771567,11.98131950,17:19:49.639888,0.00506,1.55402,1.55402,-0.01670,0.02618,-0.04220,0.00561,-0.00448,0.03550,0.06344,1.06384,2.37803,1.55316,1.72651,1.73428,-0.82021,3.12142,2.31731,-0.82222,3.28025,1.72235,1.72235,A,151042.90
2.39436,57.68771442,11.98131950,57.68771567,11.98131950,17:19:49.650589,0.00526,1.55402,1.55402,-0.01698,0.02647,-0.03425,0.00637,-0.00830,-0.07503,0.02641,1.09739,2.38839,1.55333,1.72498,1.73284,-0.82237,3.14185,2.31731,-0.82222,3.28025,1.72235,1.72235,A,151042.90
2.40460,57.68771460,11.98131946,57.68771567,11.98131950,17:19:49.661073,0.00510,1.55402,1.55402,-0.01787,0.02692,-0.03868,0.02424,-0.00998,-0.00811,-0.01305,1.02828,2.39898,1.55347,1.72366,1.73165,-0.82438,3.16109,2.31731,-0.82222,3.28025,1.72235,1.72235,A,151042.90
2.41592,57.68771477,11.98131943,57.68771567,11.98131950,17:19:49.672155,0.00517,1.55402,1.55402,-0.01954,0.02760,-0.04189,0.02302,-0.00066,0.04117,-0.05691,0.93958,2.41027,1.55358,1.72254,1.73073,-0.82652,3.18089,2.31731,-0.82222,3.28025,1.72235,1.72235,A,151042.90
2.44447,57.68771493,11.98131940,57.68771767,11.98131833,17:19:49.701443,0.02336,1.55402,1.55402,-0.02050,0.02836,-0.04953,0.00423,0.00499,0.11303,-0.01141,0.87413,2.42042,1.55367,1.72153,1.72995,-0.82826,3.19799,2.43915,-0.89156,3.50264,1.87305,1.87305,A,151043.00
2.46241,57.68771551,11.98131921,57.68771767,11.98131833,17:19:49.718641,0.00724,1.55402,1.55402,-0.02159,0.03077,-0.03028,-0.01073,0.00300,-0.11834,0.01787,1.13881,2.45644,1.55374,1.74404,1.75317,-0.83932,3.26241,2.43915,-0.89156,3.50264,1.87305,1.87305,A,151043.00
2.47198,57.68771572,11.98131913,57.68771767,11.98131833,17:19:49.728210,0.00610,1.55402,1.55402,-0.02249,0.03125,-0.03105,0.02180,0.00972,-0.17702,-0.03099,1.22427,2.46629,1.55379,1.76229,1.77157,-0.84400,3.28566,2.43915,-0.89156,3.50264,1.87305,1.87305,A,151043.00
2.48170,57.68771591,11.98131906,57.68771767,11.98131833,17:19:49.737932,0.00542,1.55402,1.55402,-0.02374,0.03182,-0.03960,0.04837,0.01171,-0.07472,-0.05155,1.17254,2.47577,1.55384,1.77777,1.78722,-0.84863,3.30757,2.43915,-0.89156,3.50264,1.87305,1.87305,A,151043.00
2.49291,57.68771611,11.98131897,57.68771767,11.98131833,17:19:49.749160,0.00618,1.55402,1.55402,-0.02405,0.03232,-0.04678,0.04699,0.01415,0.02202,0.02733,1.10489,2.48626,1.55387,1.79095,1.80055,-0.85344,3.32944,2.43915,-0.89156,3.50264,1.87305,1.87305,A,151043.00
2.50229,57.68771628,11.98131890,57.68771767,11.98131833,17:19:49.758523,0.00519,1.55402,1.55402,-0.02373,0.03275,-0.05365,0.02470,0.01705,0.02605,0.06985,0.98192,2.49639,1.55390,1.80210,1.81182,-0.85790,3.34899,2.43915,-0.89156,3.50264,1.87305,1.87305,A,151043.00
2.51259,57.68771646,11.98131882,57.68771767,11.98131833,17:19:49.769068,0.00509,1.55402,1.55402,-0.02335,0.03317,-0.05151,-0.00432,0.01843,-0.03154,0.06948,0.90841,2.50698,1.55393,1.81160,1.82145,-0.86259,3.36891,2.43915,-0.89156,3.50264,1.87305,1.87305,A,151043.00
2.52301,57.68771663,11.98131874,57.68771767,11.98131833,17:19:49.779244,0.00511,1.55402,1.55402,-0.02275,0.03363,-0.04220,-0.01745,0.01507,-0.15250,0.07771,0.92458,2.51716,1.55395,1.81966,1.82964,-0.86711,3.38760,2.43915,-0.89156,3.50264,1.87305,1.87305,A,151043.00
2.53369,57.68771679,11.98131867,57.68771767,11.98131833,17:19:49.789920,0.00538,1.55402,1.55402,-0.02333,0.03416,-0.03181,-0.00157,0.01033,-0.08510,-0.00061,0.99570,2.52780,1.55396,1.82650,1.83664,-0.87159,3.40564,2.43915,-0.89156,3.50264,1.87305,1.87305,A,151043.00
2.57294,57.68771694,11.98131860,57.68772300,11.98131683,17:19:49.829176,0.03422,1.55402,1.55402,-0.02472,0.03490,-0.03166,0.00561,0.00316,0.01580,-0.05789,1.02553,2.53817,1.55397,1.83227,1.84263,-0.87581,3.42233,2.56885,-0.98072,4.09568,1.72002,1.72002,A,151043.20
2.58293,57.68771772,11.98131826,57.68772300,11.98131683,17:19:49.839162,0.00524,1.43643,1.43643,-0.02628,0.03968,-0.05548,0.00866,0.01904,-0.05887,0.04709,0.91122,2.57702,1.53046,1.81522,1.82701,-0.89574,3.50868,2.56885,-0.98072,4.09568,1.72002,1.72002,A,151043.20
2.59349,57.68771809,11.98131814,57.68772300,11.98131683,17:19:49.849728,0.00540,1.43643,1.43643,-0.02572,0.04090,-0.04937,0.00149,0.02454,-0.08680,0.07930,0.93415,2.58758,1.51166,1.79952,1.81167,-0.90312,3.54999,2.56885,-0.98072,4.09568,1.72002,1.72002,A,151043.20
2.60536,57.68771844,11.98131802,57.68772300,11.98131683,17:19:49.863257,0.00688,1.43643,1.43643,-0.02535,0.04186,-0.03303,0.00362,0.02087,0.01397,0.06051,1.00589,2.59807,1.49661,1.78614,1.79857,-0.90989,3.58903,2.56885,-0.98072,4.09568,1.72002,1.72002,A,151043.20
2.61415,57.68771876,11.98131793,57.68772300,11.98131683,17:19:49.870391,0.00532,1.43643,1.43643,-0.02622,0.04257,-0.02616,-0.01104,0.01812,-0.01055,-0.02946,1.06061,2.60819,1.48458,1.77467,1.78731,-0.91574,3.62432,2.56885,-0.98072,4.09568,1.72002,1.72002,A,151043.20
2.62437,57.68771908,11.98131783,57.68772300,11.98131683,17:19:49.880605,0.00513,1.43643,1.43643,-0.02798,0.04308,-0.03425,-0.01226,0.01369,-0.01684,-0.09101,1.11734,2.61875,1.47495,1.76497,1.77776,-0.92155,3.65951,2.56885,-0.98072,4.09568,1.72002,1.72002,A,151043.20
2.63469,57.68771938,11.98131774,57.68772300,11.98131683,17:19:49.890920,0.00522,1.43643,1.43643,-0.02951,0.04359,-0.04815,-0.00249,0.01965,-0.17849,-0.06905,1.14369,2.62878,1.46725,1.75669,1.76964,-0.92688,3.69262,2.56885,-0.98072,4.09568,1.72002,1.72002,A,151043.20
2.64545,57.68771966,11.98131765,57.68772300,11.98131683,17:19:49.901684,0.00557,1.43643,1.43643,-0.03048,0.04430,-0.05044,0.01966,0.02026,-0.00793,-0.02050,1.02425,2.63953,1.46108,1.74965,1.76280,-0.93196,3.72464,2.56885,-0.98072,4.09568,1.72002,1.72002,A,151043.20
2.65534,57.68771993,11.98131758,57.68772300,11.98131683,17:19:49.911574,0.00507,1.43643,1.43643,-0.03057,0.04517,-0.04204,0.01080,0.03187,0.07033,0.02965,0.95062,2.64972,1.45615,1.74360,1.75702,-0.93655,3.75426,2.56885,-0.98072,4.09568,1.72002,1.72002,A,151043.20
2.66609,57.68772019,11.98131750,57.68772300,11.98131683,17:19:49.922325,0.00524,1.43643,1.43643,-0.03035,0.04636,-0.03059,-0.01409,0.03828,-0.01928,0.04154,0.90597,2.66014,1.45221,1.73844,1.75221,-0.94097,3.78306,2.56885,-0.98072,4.09568,1.72002,1.72002,A,151043.20
2.69291,57.68772043,11.98131743,57.68772583,11.98131567,17:19:49.949163,0.02166,1.43643,1.43643,-0.02965,0.04778,-0.01791,-0.01806,0.04363,-0.06094,0.06271,0.90109,2.67074,1.44905,1.73399,1.74818,-0.94507,3.81020,2.68764,-1.05006,4.41073,1.78744,1.78744,A,151043.30
2.70294,57.68772100,11.98131724,57.68772583,11.98131567,17:19:49.959181,0.00526,1.43643,1.43643,-0.03147,0.05120,-0.01608,0.02149,0.04454,-0.12731,-0.07887,0.95239,2.69703,1.44653,1.74104,1.75625,-0.95626,3.87341,2.68764,-1.05006,4.41073,1.78744,1.78744,A,151043.30
2.71416,57.68772135,11.98131713,57.68772583,11.98131567,17:19:49.970397,0.00623,1.43643,1.43643,-0.03260,0.05236,-0.02769,0.04791,0.04240,-0.08656,-0.04374,0.95514,2.70816,1.44451,1.74619,1.76175,-0.96325,3.91254,2.68764,-1.05006,4.41073,1.78744,1.78744,A,151043.30
2.72363,57.68772167,11.98131702,57.68772583,11.98131567,17:19:49.979863,0.00528,1.43643,1.43643,-0.03315,0.05316,-0.03975,0.05402,0.03828,0.00073,-0.00305,1.02419,2.71797,1.44290,1.75046,1.76625,-0.96959,3.94777,2.68764,-1.05006,4.41073,1.78744,1.78744,A,151043.30
2.73427,57.68772198,11.98131691,57.68772583,11.98131567,17:19:49.990503,0.00523,1.43643,1.43643,-0.03322,0.05375,-0.04189,0.03539,0.03355,0.05838,0.03263,1.05115,2.72835,1.44160,1.75412,1.77009,-0.97589,3.98243,2.68764,-1.05006,4.41073,1.78744,1.78744,A,151043.30
2.74453,57.68772228,11.98131681,57.68772583,11.98131567,17:19:50.001016,0.00509,1.43643,1.43643,-0.03358,0.05403,-0.03929,0.00683,0.03095,0.00396,0.01128,1.09269,2.73893,1.44057,1.75723,1.77328,-0.98191,4.01525,2.68764,-1.05006,4.41073,1.78744,1.78744,A,151043.30
2.75554,57.68772257,11.98131671,57.68772583,11.98131567,17:19:50.011772,0.00527,1.43643,1.43643,-0.03372,0.05406,-0.04311,-0.01440,0.02469,0.04124,0.03056,1.08726,2.74988,1.43974,1.75991,1.77597,-0.98784,4.04734,2.68764,-1.05006,4.41073,1.78744,1.78744,A,151043.30
2.76611,57.68772283,11.98131662,57.68772583,11.98131567,17:19:50.022339,0.00522,1.43643,1.43643,-0.03351,0.05406,-0.04006,-0.03792,0.01721,0.05679,0.05234,1.09599,2.76019,1.43908,1.76214,1.77820,-0.99332,4.07689,2.68764,-1.05006,4.41073,1.78744,1.78744,A,151043.30
2.77640,57.68772308,11.98131653,57.68772583,11.98131567,17:19:50.032637,0.00511,1.43643,1.43643,-0.03454,0.05406,-0.03716,-0.05487,0.01324,0.06527,-0.03721,1.03541,2.77077,1.43855,1.76404,1.78010,-0.99855,4.10495,2.68764,-1.05006,4.41073,1.78744,1.78744,A,151043.30
2.78669,57.68772332,11.98131645,57.68772583,11.98131567,17:19:50.042921,0.00517,1.43643,1.43643,-0.03607,0.05406,-0.03609,-0.05777,0.01889,-0.07283,-0.06930,0.96465,2.78082,1.43813,1.76564,1.78170,-1.00347,4.13127,2.68764,-1.05006,4.41073,1.78744,1.78744,A,151043.30
2.81395,57.68772356,11.98131637,57.68772683,11.98131533,17:19:50.070186,0.02158,1.43643,1.43643,-0.03768,0.05406,-0.03884,-0.02448,0.02973,-0.16940,-0.06820,0.93013,2.79196,1.43779,1.76705,1.78311,-1.00840,4.15740,2.80907,-1.06988,4.52193,1.74712,1.74712,A,151043.40
2.82622,57.68772403,11.98131619,57.68772683,11.98131533,17:19:50.082452,0.00639,1.43643,1.43643,-0.03918,0.05415,-0.03090,0.03249,0.04836,0.06320,-0.02940,0.79257,2.82022,1.43752,1.76323,1.77931,-1.01900,4.21052,2.80907,-1.06988,4.52193,1.74712,1.74712,A,151043.40
2.83539,57.68772426,11.98131611,57.68772683,11.98131533,17:19:50.091629,0.00516,1.43643,1.43643,-0.03921,0.05415,-0.03563,0.00927,0.05309,0.08564,0.02080,0.91665,2.82973,1.43730,1.75885,1.77493,-1.02363,4.23594,2.80907,-1.06988,4.52193,1.74712,1.74712,A,151043.40
2.84605,57.68772449,11.98131603,57.68772683,11.98131533,17:19:50.102287,0.00523,1.43643,1.43643,-0.03934,0.05415,-0.02265,-0.00875,0.05233,0.06130,0.00872,1.02462,2.84011,1.43713,1.75519,1.77128,-1.02831,4.26168,2.80907,-1.06988,4.52193,1.74712,1.74712,A,151043.40
2.86120,57.68772476,11.98131594,57.68772683,11.98131533,17:19:50.117446,0.00951,1.43643,1.43643,-0.03932,0.05415,-0.02631,-0.02768,0.04317,-0.07283,0.03239,1.22543,2.85459,1.43699,1.75232,1.76840,-1.03375,4.29127,2.80907,-1.06988,4.52193,1.74712,1.74712,A,151043.40
2.86747,57.68772492,11.98131589,57.68772683,11.98131533,17:19:50.123697,0.00511,1.43643,1.43643,-0.03955,0.05415,-0.02311,-0.00554,0.03462,-0.11779,-0.00604,1.21799,2.86183,1.43688,1.74941,1.76550,-1.03682,4.30910,2.80907,-1.06988,4.52193,1.74712,1.74712,A,151043.40
2.87815,57.68772512,11.98131582,57.68772683,11.98131533,17:19:50.134384,0.00521,1.43643,1.43643,-0.03997,0.05420,-0.02723,0.00775,0.03019,0.02721,-0.01098,1.15815,2.87223,1.43679,1.74717,1.76327,-1.04074,4.33126,2.80907,-1.06988,4.52193,1.74712,1.74712,A,151043.40
2.88845,57.68772531,11.98131576,57.68772683,11.98131533,17:19:50.144684,0.00511,1.43643,1.43643,-0.04050,0.05426,-0.03975,0.00912,0.02881,0.06533,-0.00689,1.03560,2.88282,1.43672,1.74526,1.76138,-1.04442,4.35220,2.80907,-1.06988,4.52193,1.74712,1.74712,A,151043.40
2.89888,57.68772548,11.98131570,57.68772683,11.98131533,17:19:50.155116,0.00515,1.43643,1.43643,-0.04066,0.05426,-0.03639,-0.01501,0.03141,0.07222,0.01360,0.89835,2.89300,1.43666,1.74363,1.75975,-1.04786,4.37192,2.80907,-1.06988,4.52193,1.74712,1.74712,A,151043.40
2.92790,57.68772566,11.98131565,57.68772883,11.98131400,17:19:50.184140,0.02378,1.43643,1.43643,-0.04050,0.05426,-0.04296,-0.02936,0.03278,-0.04063,0.03599,0.83405,2.90377,1.43662,1.74227,1.75838,-1.05120,4.39111,2.92359,-1.14913,4.74432,1.91312,1.91312,A,151043.50
2.93831,57.68772613,11.98131545,57.68772883,11.98131400,17:19:50.194551,0.00552,1.43643,1.43643,-0.04084,0.05426,-0.01822,-0.00065,0.03019,0.00140,0.01202,1.03505,2.93215,1.43658,1.76707,1.78319,-1.06279,4.44402,2.92359,-1.14913,4.74432,1.91312,1.91312,A,151043.50
2.94840,57.68772637,11.98131534,57.68772883,11.98131400,17:19:50.204634,0.00521,1.43643,1.43643,-0.04202,0.05426,-0.01623,-0.00264,0.02698,0.03312,-0.07265,1.06335,2.94268,1.43655,1.78707,1.80319,-1.06953,4.47026,2.92359,-1.14913,4.74432,1.91312,1.91312,A,151043.50
2.95920,57.68772659,11.98131523,57.68772883,11.98131400,17:19:50.215444,0.00568,1.43643,1.43643,-0.04269,0.05426,-0.02845,-0.00646,0.02759,0.00671,-0.03257,1.17754,2.95315,1.43653,1.80408,1.82020,-1.07620,4.49537,2.92359,-1.14913,4.74432,1.91312,1.91312,A,151043.50
2.96932,57.68772680,11.98131512,57.68772883,11.98131400,17:19:50.225560,0.00540,1.43643,1.43643,-0.04247,0.05426,-0.02433,-0.00859,0.03843,0.05771,0.03056,1.06902,2.96344,1.43651,1.81852,1.83464,-1.08263,4.51874,2.92359,-1.14913,4.74432,1.91312,1.91312,A,151043.50
2.97941,57.68772701,11.98131501,57.68772883,11.98131400,17:19:50.235647,0.00509,1.43643,1.43643,-0.04160,0.05426,-0.01501,-0.01730,0.03614,0.04203,0.06582,0.98454,2.97377,1.43649,1.83081,1.84693,-1.08900,4.54129,2.92359,-1.14913,4.74432,1.91312,1.91312,A,151043.50
2.99118,57.68772720,11.98131491,57.68772883,11.98131400,17:19:50.247415,0.00620,1.43643,1.43643,-0.04197,0.05426,-0.00081,-0.02264,0.03507,-0.09107,-0.02550,1.03541,2.98429,1.43648,1.84127,1.85738,-1.09525,4.56289,2.92359,-1.14913,4.74432,1.91312,1.91312,A,151043.50
3.00049,57.68772737,11.98131481,57.68772883,11.98131400,17:19:50.256974,0.00512,1.43643,1.43643,-0.04227,0.05426,0.00438,-0.00126,0.03156,-0.01726,-0.02263,0.94129,2.99486,1.43647,1.85008,1.86620,-1.10086,4.58184,2.92359,-1.14913,4.74432,1.91312,1.91312,A,151043.50
3.01093,57.68772754,11.98131472,57.68772883,11.98131400,17:19:50.267163,0.00515,1.43643,1.43643,-0.04255,0.05426,0.00683,-0.00722,0.03477,0.02916,-0.02312,0.96246,3.00505,1.43646,1.85763,1.87375,-1.10660,4.60091,2.92359,-1.14913,4.74432,1.91312,1.91312,A,151043.50
3.04169,57.68772771,11.98131462,57.68772967,11.98131300,17:19:50.297926,0.02551,1.43643,1.43643,-0.04255,0.05426,0.00713,-0.00691,0.03126,0.05581,-0.00634,0.98015,3.01566,1.43646,1.86405,1.88017,-1.11221,4.61924,3.03740,-1.20856,4.83698,2.14113,2.14113,A,151043.60
3.05188,57.68772808,11.98131437,57.68772967,11.98131300,17:19:50.308110,0.00539,1.59361,1.59361,-0.04249,0.05474,0.01217,-0.00203,0.04592,-0.04191,-0.01763,0.94257,3.04601,1.46789,1.90462,1.92088,-1.12691,4.66104,3.03740,-1.20856,4.83698,2.14113,2.14113,A,151043.60
3.06277,57.68772827,11.98131423,57.68772967,11.98131300,17:19:50.319004,0.00573,1.59361,1.59361,-0.04255,0.05536,0.01385,-0.00676,0.05600,-0.01494,-0.00945,0.87980,3.05684,1.49303,1.93818,1.95462,-1.13521,4.68138,3.03740,-1.20856,4.83698,2.14113,2.14113,A,151043.60
3.07253,57.68772843,11.98131410,57.68772967,11.98131300,17:19:50.329019,0.00510,1.59361,1.59361,-0.04210,0.05613,0.02424,-0.01104,0.04973,0.06234,0.01470,0.95691,3.06693,1.51315,1.96663,1.98331,-1.14313,4.69968,3.03740,-1.20856,4.83698,2.14113,2.14113,A,151043.60
3.08297,57.68772859,11.98131396,57.68772967,11.98131300,17:19:50.339199,0.00513,1.59361,1.59361,-0.04099,0.05695,0.02928,-0.02020,0.04821,-0.06161,0.05905,1.06573,3.07709,1.52924,1.99082,2.00774,-1.15124,4.71760,3.03740,-1.20856,4.83698,2.14113,2.14113,A,151043.60
3.09382,57.68772875,11.98131383,57.68772967,11.98131300,17:19:50.350047,0.00558,1.59361,1.59361,-0.04049,0.05785,0.04103,-0.01791,0.04576,0.01507,0.00775,1.07177,3.08771,1.54212,2.01137,2.02856,-1.15938,4.73487,3.03740,-1.20856,4.83698,2.14113,2.14113,A,151043.60
3.10370,57.68772889,11.98131370,57.68772967,11.98131300,17:19:50.359933,0.00507,1.59361,1.59361,-0.04014,0.05873,0.04317,-0.01867,0.04576,0.01446,-0.00372,1.07378,3.09807,1.55242,2.02878,2.04623,-1.16709,4.75063,3.03740,-1.20856,4.83698,2.14113,2.14113,A,151043.60
3.11643,57.68772904,11.98131355,57.68772967,11.98131300,17:19:50.372670,0.00725,1.59361,1.59361,-0.04041,0.05955,0.04592,-0.01669,0.04668,0.01946,-0.05057,1.04432,3.10933,1.56066,2.04367,2.06137,-1.17575,4.76775,3.03740,-1.20856,4.83698,2.14113,2.14113,A,151043.60
3.12492,57.68772915,11.98131345,57.68772967,11.98131300,17:19:50.381165,0.00534,1.59361,1.59361,-0.04099,0.06015,0.04103,-0.02448,0.04072,0.04331,-0.06027,0.99473,3.11905,1.56725,2.05608,2.07395,-1.18193,4.77970,3.03740,-1.20856,4.83698,2.14113,2.14113,A,151043.60
3.13508,57.68772928,11.98131332,57.68772967,11.98131300,17:19:50.391312,0.00510,1.59361,1.59361,-0.04174,0.06049,0.04607,-0.02784,0.03782,0.01708,-0.07912,1.02016,3.12923,1.57252,2.06675,2.08473,-1.18927,4.79349,3.03740,-1.20856,4.83698,2.14113,2.14113,A,151043.60
3.17252,57.68772940,11.98131320,57.68773083,11.98131083,17:19:50.429007,0.03214,1.59361,1.59361,-0.04087,0.06063,0.04439,-0.02723,0.03828,-0.07344,0.02910,0.97679,3.13986,1.57674,2.07585,2.09386,-1.19657,4.80687,3.16814,-1.33734,4.96671,2.35253,2.35253,A,151043.80
3.18281,57.68772988,11.98131264,57.68773083,11.98131083,17:19:50.439049,0.00527,1.59361,1.59361,-0.03949,0.06063,0.06516,-0.01256,0.04851,-0.01311,-0.06155,0.98753,3.17688,1.58011,2.11724,2.13526,-1.22976,4.86022,3.16814,-1.33734,4.96671,2.35253,2.35253,A,151043.80
3.19333,57.68773002,11.98131244,57.68773083,11.98131083,17:19:50.449573,0.00539,1.59361,1.59361,-0.03962,0.06063,0.06822,-0.00417,0.04683,-0.03221,-0.05344,1.04005,3.18743,1.58281,2.15046,2.16848,-1.24194,4.87628,3.16814,-1.33734,4.96671,2.35253,2.35253,A,151043.80
3.20345,57.68773015,11.98131224,57.68773083,11.98131083,17:19:50.459682,0.00511,1.59361,1.59361,-0.03915,0.06063,0.05829,-0.00310,0.04332,-0.01281,-0.00390,1.01846,3.19781,1.58497,2.17870,2.19671,-1.25379,4.89120,3.16814,-1.33734,4.96671,2.35253,2.35253,A,151043.80
3.21412,57.68773028,11.98131204,57.68773083,11.98131083,17:19:50.470354,0.00520,1.59361,1.59361,-0.03842,0.06063,0.06135,-0.00646,0.04592,-0.05356,0.01244,1.03456,3.20820,1.58670,2.20271,2.22073,-1.26553,4.90545,3.16814,-1.33734,4.96671,2.35253,2.35253,A,151043.80
3.22443,57.68773040,11.98131185,57.68773083,11.98131083,17:19:50.480668,0.00512,1.59361,1.59361,-0.03755,0.06063,0.05921,0.00087,0.04332,-0.07454,0.02379,1.08153,3.21880,1.58808,2.22312,2.24113,-1.27690,4.91874,3.16814,-1.33734,4.96671,2.35253,2.35253,A,151043.80
3.23522,57.68773052,11.98131166,57.68773083,11.98131083,17:19:50.491459,0.00551,1.59361,1.59361,-0.03686,0.06063,0.05982,0.00515,0.03843,0.01952,0.01177,1.01394,3.22935,1.58919,2.24050,2.25851,-1.28831,4.93172,3.16814,-1.33734,4.96671,2.35253,2.35253,A,151043.80
3.24592,57.68773062,11.98131148,57.68773083,11.98131083,17:19:50.502157,0.00553,1.59361,1.59361,-0.03639,0.06063,0.04668,0.00820,0.03584,-0.04362,0.00683,0.96240,3.23998,1.59007,2.25525,2.27326,-1.29901,4.94350,3.16814,-1.33734,4.96671,2.35253,2.35253,A,151043.80
3.25826,57.68773074,11.98131128,57.68773083,11.98131083,17:19:50.514498,0.00656,1.59361,1.59361,-0.03554,0.06063,0.04562,0.00805,0.03400,-0.11029,0.02733,0.94715,3.25227,1.59078,2.26790,2.28592,-1.31088,4.95643,3.16814,-1.33734,4.96671,2.35253,2.35253,A,151043.80
3.26725,57.68773082,11.98131114,57.68773083,11.98131083,17:19:50.523485,0.00516,1.59361,1.59361,-0.03557,0.06063,0.03798,0.01324,0.02484,0.03190,-0.01330,0.91110,3.26141,1.59135,2.27843,2.29645,-1.31933,4.96515,3.16814,-1.33734,4.96671,2.35253,2.35253,A,151043.80
3.29363,57.68773092,11.98131096,57.68773183,11.98130983,17:19:50.549866,0.02114,1.59361,1.59361,-0.03545,0.06063,0.03004,0.00546,0.03171,-0.01623,-0.00427,0.93800,3.27298,1.59180,2.28756,2.30558,-1.32984,4.97606,3.29012,-1.39678,5.07790,2.06169,2.06169,A,151043.90
3.30541,57.68773121,11.98131049,57.68773183,11.98130983,17:19:50.561651,0.00624,1.59361,1.59361,-0.03445,0.06063,0.01431,-0.02478,0.03202,-0.09534,0.05557,1.12258,3.29907,1.59216,2.25278,2.27080,-1.35753,5.00809,3.29012,-1.39678,5.07790,2.06169,2.06169,A,151043.90
3.31469,57.68773131,11.98131034,57.68773183,11.98130983,17:19:50.570929,0.00524,1.59361,1.59361,-0.03399,0.06063,0.00820,-0.00615,0.03736,-0.19300,0.04099,1.22695,3.30877,1.59245,2.22196,2.23997,-1.36654,5.01994,3.29012,-1.39678,5.07790,2.06169,2.06169,A,151043.90
3.32524,57.68773143,11.98131018,57.68773183,11.98130983,17:19:50.581482,0.00539,1.59361,1.59361,-0.03446,0.06063,0.00698,0.02714,0.03889,-0.12956,-0.03270,1.19273,3.31936,1.59269,2.19585,2.21387,-1.37603,5.03293,3.29012,-1.39678,5.07790,2.06169,2.06169,A,151043.90
3.33722,57.68773155,11.98131003,57.68773183,11.98130983,17:19:50.593462,0.00695,1.59361,1.59361,-0.03512,0.06063,-0.00845,0.04364,0.03355,0.04349,-0.03080,1.05994,3.33023,1.59287,2.17371,2.19172,-1.38530,5.04616,3.29012,-1.39678,5.07790,2.06169,2.06169,A,151043.90
3.34713,57.68773165,11.98130989,57.68773183,11.98130983,17:19:50.603369,0.00629,1.59361,1.59361,-0.03504,0.06063,-0.01257,0.02500,0.03446,0.12005,0.02269,0.86608,3.34124,1.59302,2.15483,2.17284,-1.39320,5.05800,3.29012,-1.39678,5.07790,2.06169,2.06169,A,151043.90
3.35796,57.68773176,11.98130977,57.68773183,11.98130983,17:19:50.614192,0.00671,1.59361,1.59361,-0.03214,0.06063,-0.02250,-0.00462,0.03691,0.02050,0.17861,0.79398,3.35198,1.59314,2.13881,2.15682,-1.40083,5.06984,3.29012,-1.39678,5.07790,2.06169,2.06169,A,151043.90
3.36924,57.68773187,11.98130964,57.68773183,11.98130983,17:19:50.625482,0.00776,1.59361,1.59361,-0.03071,0.06063,0.00362,-0.02417,0.04378,-0.07253,0.08625,0.79404,3.36321,1.59323,2.12522,2.14323,-1.40826,5.08173,3.29012,-1.39678,5.07790,2.06169,2.06169,A,151043.90
3.37724,57.68773194,11.98130956,57.68773183,11.98130983,17:19:50.633479,0.00537,1.59361,1.59361,-0.03015,0.06063,-0.00600,-0.03715,0.04363,-0.07729,0.04959,0.86852,3.37137,1.59331,2.11346,2.13148,-1.41287,5.08958,3.29012,-1.39678,5.07790,2.06169,2.06169,A,151043.90
3.38736,57.68773203,11.98130946,57.68773183,11.98130983,17:19:50.643591,0.00509,1.59361,1.59361,-0.03157,0.06063,-0.01410,-0.03120,0.04592,-0.17214,-0.06814,0.96813,3.38172,1.59337,2.10364,2.12165,-1.41896,5.09998,3.29012,-1.39678,5.07790,2.06169,2.06169,A,151043.90
3.41386,57.68773212,11.98130936,57.68773350,11.98130883,17:19:50.670089,0.02102,1.59361,1.59361,-0.03314,0.06063,-0.04265,-0.00646,0.03446,-0.03013,-0.06686,1.05493,3.39214,1.59342,2.09529,2.11330,-1.42468,5.10999,3.40942,-1.45622,5.26323,1.88115,1.88115,A,151044.00
3.42596,57.68773248,11.98130901,57.68773350,11.98130883,17:19:50.682203,0.00652,1.87088,1.87088,-0.03322,0.06046,-0.06327,0.02409,0.01476,-0.10962,0.13585,1.12460,3.41901,1.64891,2.06234,2.08030,-1.44563,5.14980,3.40942,-1.45622,5.26323,1.88115,1.88115,A,151044.00
3.43499,57.68773262,11.98130891,57.68773350,11.98130883,17:19:50.691226,0.00515,1.87088,1.87088,-0.03318,0.06009,-0.05350,0.03264,0.00820,-0.01397,0.05685,1.06250,3.42911,1.69331,2.03303,2.05088,-1.45156,5.16512,3.40942,-1.45622,5.26323,1.88115,1.88115,A,151044.00
3.44547,57.68773277,11.98130880,57.68773350,11.98130883,17:19:50.701710,0.00540,1.87088,1.87088,-0.03411,0.05947,-0.05212,0.01920,0.00636,-0.03148,-0.01086,1.02358,3.43959,1.72882,2.00826,2.02593,-1.45805,5.18206,3.40942,-1.45622,5.26323,1.88115,1.88115,A,151044.00
3.45572,57.68773292,11.98130870,57.68773350,11.98130883,17:19:50.711946,0.00524,1.87088,1.87088,-0.03602,0.05867,-0.06694,-0.00447,0.01217,0.04038,-0.06002,0.93074,3.45009,1.75723,1.98726,2.00469,-1.46407,5.19859,3.40942,-1.45622,5.26323,1.88115,1.88115,A,151044.00
3.46924,57.68773306,11.98130861,57.68773350,11.98130883,17:19:50.725502,0.00810,1.87088,1.87088,-0.03712,0.05774,-0.08664,-0.02661,0.01079,-0.01397,-0.00140,0.97929,3.46045,1.77996,1.96945,1.98661,-1.46968,5.21480,3.40942,-1.45622,5.26323,1.88115,1.88115,A,151044.00
3.47663,57.68773318,11.98130854,57.68773350,11.98130883,17:19:50.733103,0.00510,1.87088,1.87088,-0.03789,0.05689,-0.08221,-0.02723,0.01278,-0.13030,0.01684,0.99607,3.47101,1.79815,1.95422,1.97112,-1.47368,5.22778,3.40942,-1.45622,5.26323,1.88115,1.88115,A,151044.00
3.48704,57.68773332,11.98130846,57.68773350,11.98130883,17:19:50.743273,0.00512,1.87088,1.87088,-0.03849,0.05621,-0.07885,-0.00478,0.01430,-0.00604,0.02281,0.92586,3.48120,1.81269,1.94142,1.95812,-1.47840,5.24277,3.40942,-1.45622,5.26323,1.88115,1.88115,A,151044.00
3.49779,57.68773345,11.98130838,57.68773350,11.98130883,17:19:50.754024,0.00546,1.87088,1.87088,-0.03971,0.05579,-0.06801,0.01798,0.02057,-0.14347,-0.02135,0.94233,3.49182,1.82433,1.93058,1.94715,-1.48289,5.25752,3.40942,-1.45622,5.26323,1.88115,1.88115,A,151044.00
3.50798,57.68773357,11.98130832,57.68773350,11.98130883,17:19:50.764209,0.00525,1.87088,1.87088,-0.04156,0.05562,-0.06342,0.04028,0.02179,-0.12548,-0.06557,0.93153,3.50233,1.83364,1.92135,1.93787,-1.48689,5.27132,3.40942,-1.45622,5.26323,1.88115,1.88115,A,151044.00
3.53407,57.68773369,11.98130826,57.68773483,11.98130783,17:19:50.790310,0.02096,1.87088,1.87088,-0.04269,0.05562,-0.08404,0.04455,0.02240,-0.07161,-0.01287,0.98454,3.51239,1.84109,1.91349,1.93002,-1.49052,5.28434,3.52960,-1.51566,5.41149,1.95208,1.95208,A,151044.10
3.54429,57.68773410,11.98130798,57.68773483,11.98130783,17:19:50.800523,0.00540,1.87088,1.87088,-0.04444,0.05562,-0.08404,0.00561,0.03400,0.04618,0.03642,1.13344,3.53866,1.84705,1.91873,1.93525,-1.50665,5.33030,3.52960,-1.51566,5.41149,1.95208,1.95208,A,151044.10
3.55443,57.68773426,11.98130789,57.68773483,11.98130783,17:19:50.810659,0.00521,1.87088,1.87088,-0.04496,0.05562,-0.09549,-0.02264,0.03049,0.04447,0.03178,1.09507,3.54853,1.85182,1.92190,1.93842,-1.51215,5.34759,3.52960,-1.51566,5.41149,1.95208,1.95208,A,151044.10
3.56511,57.68773441,11.98130780,57.68773483,11.98130783,17:19:50.821361,0.00550,1.87088,1.87088,-0.04516,0.05562,-0.09565,-0.04861,0.02240,-0.05380,0.05801,1.03865,3.55910,1.85563,1.92463,1.94115,-1.51771,5.36476,3.52960,-1.51566,5.41149,1.95208,1.95208,A,151044.10
3.57576,57.68773457,11.98130770,57.68773483,11.98130783,17:19:50.831996,0.00577,1.87088,1.87088,-0.04514,0.05562,-0.08435,-0.03257,0.01812,-0.21295,0.06808,1.06219,3.57012,1.85868,1.92700,1.94353,-1.52348,5.38224,3.52960,-1.51566,5.41149,1.95208,1.95208,A,151044.10
3.58577,57.68773470,11.98130762,57.68773483,11.98130783,17:19:50.842002,0.00538,1.87088,1.87088,-0.04566,0.05562,-0.08404,-0.00630,0.01079,-0.22539,0.02208,0.99595,3.57986,1.86112,1.92893,1.94545,-1.52820,5.39677,3.52960,-1.51566,5.41149,1.95208,1.95208,A,151044.10
3.59586,57.68773483,11.98130754,57.68773483,11.98130783,17:19:50.852086,0.00507,1.87088,1.87088,-0.04768,0.05562,-0.08206,0.02668,0.00988,-0.16989,-0.07137,0.94904,3.59023,1.86307,1.93059,1.94711,-1.53294,5.41115,3.52960,-1.51566,5.41149,1.95208,1.95208,A,151044.10
3.60647,57.68773495,11.98130747,57.68773483,11.98130783,17:19:50.862703,0.00537,1.87088,1.87088,-0.05006,0.05562,-0.08862,0.04425,0.00774,0.02251,-0.08150,0.84223,3.60039,1.86464,1.93201,1.94853,-1.53752,5.42493,3.52960,-1.51566,5.41149,1.95208,1.95208,A,151044.10
3.61660,57.68773507,11.98130739,57.68773483,11.98130783,17:19:50.873081,0.00511,1.87088,1.87088,-0.05137,0.05562,-0.08725,0.04241,0.01751,0.00500,-0.02074,0.83942,3.61098,1.86589,1.93321,1.94973,-1.54187,5.43800,3.52960,-1.51566,5.41149,1.95208,1.95208,A,151044.10
3.62717,57.68773518,11.98130732,57.68773483,11.98130783,17:19:50.883403,0.00527,1.87088,1.87088,-0.05302,0.05562,-0.08740,0.02241,0.02438,0.01403,-0.04368,0.84064,3.62117,1.86688,1.93424,1.95076,-1.54607,5.45051,3.52960,-1.51566,5.41149,1.95208,1.95208,A,151044.10
3.65361,57.68773529,11.98130725,57.68773567,11.98130700,17:19:50.909843,0.02131,1.87088,1.87088,-0.05339,0.05562,-0.09427,-0.00722,0.03080,-0.10815,0.03569,0.95715,3.63178,1.86768,1.93512,1.95164,-1.55011,5.46247,3.64900,-1.56519,5.50415,2.06169,2.06169,A,151044.20
3.66379,57.68773567,11.98130697,57.68773567,11.98130700,17:19:50.920023,0.00534,1.87088,1.87088,-0.05509,0.05562,-0.04998,-0.00508,0.02072,0.05612,-0.04221,1.19316,3.65812,1.86832,1.95358,1.97011,-1.56686,5.50452,3.64900,-1.56519,5.50415,2.06169,2.06169,A,151044.20
3.67568,57.68773581,11.98130686,57.68773567,11.98130700,17:19:50.931913,0.00647,1.87088,1.87088,-0.05683,0.05562,-0.04113,-0.00951,0.01873,0.11254,-0.10773,1.13527,3.66939,1.86884,1.96810,1.98462,-1.57344,5.52029,3.64900,-1.56519,5.50415,2.06169,2.06169,A,151044.20
3.68495,57.68773591,11.98130678,57.68773567,11.98130700,17:19:50.941200,0.00534,1.87088,1.87088,-0.05766,0.05562,-0.03517,-0.02509,0.01751,0.05813,-0.04301,1.02858,3.67910,1.86925,1.98025,1.99677,-1.57822,5.53131,3.64900,-1.56519,5.50415,2.06169,2.06169,A,151044.20
3.69510,57.68773602,11.98130669,57.68773567,11.98130700,17:19:50.951339,0.00509,1.87088,1.87088,-0.05833,0.05562,-0.02983,-0.02997,0.02988,-0.11962,-0.03209,0.95611,3.68927,1.86957,1.99068,2.00720,-1.58386,5.54381,3.64900,-1.56519,5.50415,2.06169,2.06169,A,151044.20
3.70579,57.68773613,11.98130659,57.68773567,11.98130700,17:19:50.962025,0.00539,1.87088,1.87088,-0.05919,0.05562,-0.01257,-0.01287,0.03981,-0.12975,-0.04813,0.85803,3.69988,1.86984,1.99955,2.01607,-1.58939,5.55569,3.64900,-1.56519,5.50415,2.06169,2.06169,A,151044.20
3.71585,57.68773623,11.98130651,57.68773567,11.98130700,17:19:50.972083,0.00505,1.87088,1.87088,-0.05970,0.05562,0.00454,-0.00691,0.05264,-0.14201,-0.03611,0.82112,3.71023,1.87004,2.00706,2.02358,-1.59451,5.56637,3.64900,-1.56519,5.50415,2.06169,2.06169,A,151044.20
3.72631,57.68773632,11.98130642,57.68773567,11.98130700,17:19:50.982548,0.00521,1.87088,1.87088,-0.06027,0.05562,0.01324,-0.00019,0.05050,-0.01104,-0.04935,0.87633,3.72040,1.87021,2.01345,2.02997,-1.59956,5.57665,3.64900,-1.56519,5.50415,2.06169,2.06169,A,151044.20
3.73662,57.68773641,11.98130634,57.68773567,11.98130700,17:19:50.993102,0.00511,1.87088,1.87088,-0.06101,0.05565,0.01813,-0.00294,0.05951,0.00805,-0.07015,0.95319,3.73099,1.87035,2.01890,2.03543,-1.60455,5.58659,3.64900,-1.56519,5.50415,2.06169,2.06169,A,151044.20
3.74791,57.68773651,11.98130624,57.68773567,11.98130700,17:19:51.004146,0.00599,1.87088,1.87088,-0.06084,0.05565,0.02439,0.00790,0.05554,-0.08150,-0.02348,1.12246,3.74225,1.87045,2.02360,2.04013,-1.61012,5.59751,3.64900,-1.56519,5.50415,2.06169,2.06169,A,151044.20
3.78424,57.68773658,11.98130618,57.68773983,11.98130483,17:19:51.040474,0.03193,1.87088,1.87088,-0.06078,0.05565,0.01813,0.02119,0.04622,-0.05368,-0.02666,1.16833,3.75191,1.87054,2.02747,2.04400,-1.61417,5.60526,3.77979,-1.69397,5.96746,1.84191,1.84191,A,151044.40
3.79505,57.68773724,11.98130563,57.68773983,11.98130483,17:19:51.051292,0.00565,1.87088,1.87088,-0.05950,0.05565,0.01752,-0.03975,0.02011,0.05594,0.02940,0.96105,3.78911,1.87061,2.00000,2.01653,-1.64661,5.67894,3.77979,-1.69397,5.96746,1.84191,1.84191,A,151044.40
3.80516,57.68773748,11.98130549,57.68773983,11.98130483,17:19:51.061402,0.00536,1.87088,1.87088,-0.05972,0.05565,0.03095,-0.04937,0.01950,-0.01793,-0.04307,0.94373,3.79929,1.87066,1.97446,1.99099,-1.65517,5.70632,3.77979,-1.69397,5.96746,1.84191,1.84191,A,151044.40
3.81528,57.68773773,11.98130535,57.68773983,11.98130483,17:19:51.071509,0.00508,1.87088,1.87088,-0.06012,0.05565,0.03141,-0.02891,0.01446,-0.10047,-0.05569,0.95050,3.80965,1.87071,1.95279,1.96932,-1.66332,5.73328,3.77979,-1.69397,5.96746,1.84191,1.84191,A,151044.40
3.82617,57.68773796,11.98130522,57.68773983,11.98130483,17:19:51.082407,0.00557,1.87088,1.87088,-0.06059,0.05565,0.02683,0.00882,0.01766,-0.10614,-0.05618,0.93080,3.82006,1.87074,1.93437,1.95091,-1.67080,5.75911,3.77979,-1.69397,5.96746,1.84191,1.84191,A,151044.40
3.83828,57.68773820,11.98130509,57.68773983,11.98130483,17:19:51.094511,0.00654,1.87088,1.87088,-0.06171,0.05565,0.02424,0.04119,0.02774,-0.04612,-0.10699,1.00083,3.83229,1.87077,1.91883,1.93536,-1.67853,5.78598,3.77979,-1.69397,5.96746,1.84191,1.84191,A,151044.40
3.84778,57.68773840,11.98130500,57.68773983,11.98130483,17:19:51.104014,0.00577,1.87088,1.87088,-0.06239,0.05565,0.02439,0.03890,0.03507,0.01659,-0.07015,0.94538,3.84210,1.87079,1.90543,1.92197,-1.68417,5.80781,3.77979,-1.69397,5.96746,1.84191,1.84191,A,151044.40
3.85803,57.68773859,11.98130491,57.68773983,11.98130483,17:19:51.114268,0.00521,1.87088,1.87088,-0.06258,0.05565,0.02286,0.02989,0.03584,0.03294,-0.04282,1.01541,3.85211,1.87081,1.89409,1.91062,-1.68966,5.82945,3.77979,-1.69397,5.96746,1.84191,1.84191,A,151044.40
3.86833,57.68773878,11.98130482,57.68773983,11.98130483,17:19:51.124566,0.00512,1.87088,1.87088,-0.06175,0.05565,0.01782,0.00591,0.03278,0.07222,0.02885,1.01321,3.86272,1.87083,1.88447,1.90100,-1.69492,5.85062,3.77979,-1.69397,5.96746,1.84191,1.84191,A,151044.40
3.87880,57.68773896,11.98130474,57.68773983,11.98130483,17:19:51.135033,0.00536,1.87088,1.87088,-0.06104,0.05565,0.02347,-0.01913,0.02576,-0.04380,0.01854,1.07262,3.87275,1.87084,1.87627,1.89280,-1.69963,5.87032,3.77979,-1.69397,5.96746,1.84191,1.84191,A,151044.40
3.90557,57.68773913,11.98130466,57.68774100,11.98130350,17:19:51.161802,0.02172,1.87088,1.87088,-0.06047,0.05565,0.03248,-0.01608,0.01812,-0.02007,0.00092,1.08781,3.88336,1.87085,1.86932,1.88585,-1.70407,5.88935,3.90109,-1.77322,6.09719,2.11919,2.11919,A,151044.50
3.91558,57.68773960,11.98130438,57.68774100,11.98130350,17:19:51.171815,0.00520,1.54568,1.54568,-0.06070,0.05562,0.01599,0.00805,0.00407,0.05563,-0.05832,0.96282,3.90992,1.80581,1.90632,1.92285,-1.72117,5.94160,3.90109,-1.77322,6.09719,2.11919,2.11919,A,151044.50
3.92614,57.68773979,11.98130425,57.68774100,11.98130350,17:19:51.182374,0.00521,1.54568,1.54568,-0.06059,0.05539,0.00179,-0.00340,0.00423,-0.04020,-0.00994,0.94032,3.92022,1.75379,1.93645,1.95290,-1.72879,5.96302,3.90109,-1.77322,6.09719,2.11919,2.11919,A,151044.50
3.93859,57.68773998,11.98130411,57.68774100,11.98130350,17:19:51.194830,0.00726,1.54568,1.54568,-0.06022,0.05485,0.00484,0.00149,0.00621,-0.01848,0.00384,0.90750,3.93153,1.71217,1.96211,1.97841,-1.73675,5.98401,3.90109,-1.77322,6.09719,2.11919,2.11919,A,151044.50
3.94681,57.68774012,11.98130402,57.68774100,11.98130350,17:19:51.203042,0.00521,1.54568,1.54568,-0.05930,0.05403,0.00621,-0.00752,0.01308,-0.06826,0.03721,0.92177,3.94092,1.67887,1.98372,1.99977,-1.74256,5.99892,3.90109,-1.77322,6.09719,2.11919,2.11919,A,151044.50
3.95740,57.68774027,11.98130389,57.68774100,11.98130350,17:19:51.213639,0.00541,1.54568,1.54568,-0.05841,0.05284,0.01431,0.00500,0.00407,0.05807,0.03105,0.95093,3.95149,1.65223,2.00228,2.01798,-1.74974,6.01618,3.90109,-1.77322,6.09719,2.11919,2.11919,A,151044.50
3.96750,57.68774041,11.98130378,57.68774100,11.98130350,17:19:51.223733,0.00512,1.54568,1.54568,-0.05822,0.05151,0.02256,-0.00493,0.01262,0.09815,-0.01861,0.97887,3.96187,1.63092,2.01809,2.03339,-1.75658,6.03203,3.90109,-1.77322,6.09719,2.11919,2.11919,A,151044.50
3.97815,57.68774055,11.98130367,57.68774100,11.98130350,17:19:51.234384,0.00522,1.54568,1.54568,-0.05830,0.05004,0.01171,-0.01455,0.00865,-0.04673,-0.03355,1.09208,3.97222,1.61387,2.03158,2.04645,-1.76332,6.04714,3.90109,-1.77322,6.09719,2.11919,2.11919,A,151044.50
3.98843,57.68774068,11.98130356,57.68774100,11.98130350,17:19:51.244663,0.00510,1.54568,1.54568,-0.05879,0.04871,0.01187,-0.00142,0.01415,-0.06978,-0.06173,1.05506,3.98281,1.60024,2.04309,2.05756,-1.76978,6.06123,3.90109,-1.77322,6.09719,2.11919,2.11919,A,151044.50
3.99889,57.68774079,11.98130345,57.68774100,11.98130350,17:19:51.255118,0.00516,1.54568,1.54568,-0.05878,0.04758,0.00728,0.00882,0.01064,-0.16604,-0.02403,1.06768,3.99300,1.58933,2.05289,2.06702,-1.77592,6.07431,3.90109,-1.77322,6.09719,2.11919,2.11919,A,151044.50
4.02526,57.68774091,11.98130335,57.68774300,11.98130250,17:19:51.281507,0.02114,1.54568,1.54568,-0.05852,0.04673,0.01507,0.02974,0.00346,0.07448,-0.01061,0.99107,4.00363,1.58060,2.06126,2.07514,-1.78196,6.08685,4.02080,-1.83266,6.31958,1.83196,1.83196,A,151044.60
4.03721,57.68774130,11.98130302,57.68774300,11.98130250,17:19:51.293459,0.00696,1.54568,1.54568,-0.05733,0.04602,0.03294,-0.00111,0.00774,-0.09656,0.00464,1.03017,4.02999,1.57361,2.02620,2.03987,-1.80204,6.13027,4.02080,-1.83266,6.31958,1.83196,1.83196,A,151044.60
4.04811,57.68774147,11.98130290,57.68774300,11.98130250,17:19:51.304352,0.00761,1.54568,1.54568,-0.05707,0.04602,0.03477,0.01340,0.00560,-0.10504,-0.02300,1.00772,4.04029,1.56803,1.99543,2.00910,-1.80862,6.14970,4.02080,-1.83266,6.31958,1.83196,1.83196,A,151044.60
4.05586,57.68774162,11.98130282,57.68774300,11.98130250,17:19:51.312092,0.00510,1.54568,1.54568,-0.05706,0.04602,0.04317,0.03447,0.01415,0.03977,-0.04331,0.98899,4.05023,1.56356,1.96920,1.98287,-1.81360,6.16626,4.02080,-1.83266,6.31958,1.83196,1.83196,A,151044.60
4.06644,57.68774179,11.98130272,57.68774300,11.98130250,17:19:51.322676,0.00534,1.54568,1.54568,-0.05681,0.04602,0.03767,0.01508,0.02362,0.01043,-0.02385,0.97765,4.06040,1.55998,1.94703,1.96070,-1.81953,6.18530,4.02080,-1.83266,6.31958,1.83196,1.83196,A,151044.60
4.07660,57.68774196,11.98130263,57.68774300,11.98130250,17:19:51.333066,0.00510,1.54568,1.54568,-0.05624,0.04602,0.03599,0.00225,0.02835,0.06808,-0.00226,0.90359,4.07097,1.55712,1.92819,1.94185,-1.82490,6.20349,4.02080,-1.83266,6.31958,1.83196,1.83196,A,151044.60
4.08706,57.68774211,11.98130255,57.68774300,11.98130250,17:19:51.343298,0.00533,1.54568,1.54568,-0.05574,0.04602,0.03523,-0.03822,0.03171,0.01482,-0.00409,0.89609,4.08117,1.55484,1.91217,1.92584,-1.82980,6.22089,4.02080,-1.83266,6.31958,1.83196,1.83196,A,151044.60
4.09756,57.68774226,11.98130247,57.68774300,11.98130250,17:19:51.353801,0.00543,1.54568,1.54568,-0.05403,0.04602,0.04562,-0.04448,0.03416,-0.22356,0.07283,1.08098,4.09164,1.55300,1.89855,1.91222,-1.83426,6.23748,4.02080,-1.83266,6.31958,1.83196,1.83196,A,151044.60
4.10763,57.68774240,11.98130241,57.68774300,11.98130250,17:19:51.363867,0.00510,1.54568,1.54568,-0.05275,0.04608,0.06135,-0.01531,0.04072,-0.13878,0.03184,1.08818,4.10200,1.55154,1.88697,1.90066,-1.83827,6.25308,4.02080,-1.83266,6.31958,1.83196,1.83196,A,151044.60
4.11844,57.68774254,11.98130234,57.68774300,11.98130250,17:19:51.374671,0.00536,1.54568,1.54568,-0.05250,0.04633,0.06364,0.00714,0.04072,0.02068,-0.04233,1.07842,4.11237,1.55037,1.87713,1.89089,-1.84208,6.26835,4.02080,-1.83266,6.31958,1.83196,1.83196,A,151044.60
4.14634,57.68774267,11.98130228,57.68774550,11.98130133,17:19:51.402577,0.02286,1.54568,1.54568,-0.05253,0.04679,0.06287,0.00652,0.04439,0.06161,-0.05844,1.01272,4.12297,1.54943,1.86874,1.88263,-1.84548,6.28261,4.14101,-1.90200,6.59757,1.81526,1.81526,A,151044.70
4.15825,57.68774316,11.98130203,57.68774550,11.98130133,17:19:51.414480,0.00537,1.54568,1.54568,-0.05027,0.04834,0.04439,-0.01394,0.03034,-0.15372,0.05234,0.96356,4.15229,1.54868,1.86011,1.87447,-1.86074,6.33692,4.14101,-1.90200,6.59757,1.81526,1.81526,A,151044.70
4.17014,57.68774338,11.98130193,57.68774550,11.98130133,17:19:51.426386,0.00686,1.54568,1.54568,-0.04880,0.04860,0.04180,-0.00508,0.02973,-0.06600,0.06124,1.00857,4.16277,1.54808,1.85171,1.86614,-1.86649,6.36171,4.14101,-1.90200,6.59757,1.81526,1.81526,A,151044.70
4.17975,57.68774357,11.98130185,57.68774550,11.98130133,17:19:51.435985,0.00624,1.54568,1.54568,-0.04826,0.04866,0.05096,-0.00600,0.02225,0.06570,-0.00433,0.95227,4.17282,1.54760,1.84445,1.85890,-1.87107,6.38271,4.14101,-1.90200,6.59757,1.81526,1.81526,A,151044.70
4.18969,57.68774376,11.98130177,57.68774550,11.98130133,17:19:51.445925,0.00579,1.54568,1.54568,-0.04820,0.04866,0.05188,-0.01226,0.02469,0.02617,-0.04258,1.04072,4.18375,1.54722,1.83837,1.85282,-1.87590,6.40455,4.14101,-1.90200,6.59757,1.81526,1.81526,A,151044.70
4.19940,57.68774395,11.98130170,57.68774550,11.98130133,17:19:51.455636,0.00510,1.54568,1.54568,-0.04819,0.04866,0.04821,-0.01180,0.02988,-0.09565,-0.03837,1.01083,4.19376,1.54691,1.83319,1.84765,-1.88044,6.42537,4.14101,-1.90200,6.59757,1.81526,1.81526,A,151044.70
4.21008,57.68774414,11.98130162,57.68774550,11.98130133,17:19:51.466311,0.00520,1.54568,1.54568,-0.04747,0.04866,0.03554,0.00607,0.02851,-0.18404,0.01702,1.03157,4.20417,1.54667,1.82884,1.84329,-1.88497,6.44614,4.14101,-1.90200,6.59757,1.81526,1.81526,A,151044.70
4.22055,57.68774432,11.98130155,57.68774550,11.98130133,17:19:51.477051,0.00527,1.54568,1.54568,-0.04737,0.04866,0.02958,0.02241,0.02912,-0.02495,-0.02013,0.99296,4.21492,1.54647,1.82514,1.83959,-1.88926,6.46599,4.14101,-1.90200,6.59757,1.81526,1.81526,A,151044.70
4.23084,57.68774448,11.98130148,57.68774550,11.98130133,17:19:51.487068,0.00516,1.54568,1.54568,-0.04686,0.04866,0.03141,0.00118,0.03034,-0.01421,0.00732,1.05713,4.22494,1.54631,1.82197,1.83642,-1.89311,6.48423,4.14101,-1.90200,6.59757,1.81526,1.81526,A,151044.70
4.27614,57.68774466,11.98130141,57.68774983,11.98129917,17:19:51.532380,0.04007,1.54568,1.54568,-0.04586,0.04866,0.02485,-0.01318,0.01950,0.07363,0.04355,1.05353,4.23674,1.54619,1.81937,1.83382,-1.89731,6.50371,4.27209,-2.03078,7.07941,1.83196,1.83196,A,151044.90
4.28711,57.68774542,11.98130104,57.68774983,11.98129917,17:19:51.543346,0.00606,1.54568,1.54568,-0.04585,0.04866,-0.00218,0.01569,-0.00112,-0.04362,0.00250,0.94788,4.28040,1.54609,1.82142,1.83587,-1.91923,6.58914,4.27209,-2.03078,7.07941,1.83196,1.83196,A,151044.90
4.29803,57.68774576,11.98130089,57.68774983,11.98129917,17:19:51.554267,0.00658,1.54568,1.54568,-0.04526,0.04866,-0.00829,0.01294,0.00117,0.00451,0.04056,0.97136,4.29204,1.54600,1.82135,1.83580,-1.92819,6.62611,4.27209,-2.03078,7.07941,1.83196,1.83196,A,151044.90
4.30697,57.68774605,11.98130076,57.68774983,11.98129917,17:19:51.563206,0.00513,1.54568,1.54568,-0.04504,0.04866,-0.00417,-0.00187,0.00407,0.03922,0.01318,1.01150,4.30110,1.54594,1.82118,1.83563,-1.93598,6.65858,4.27209,-2.03078,7.07941,1.83196,1.83196,A,151044.90
4.31827,57.68774636,11.98130062,57.68774983,11.98129917,17:19:51.574510,0.00603,1.54568,1.54568,-0.04527,0.04854,-0.00188,-0.01424,0.00132,-0.06722,-0.01842,1.02883,4.31232,1.54589,1.82117,1.83559,-1.94426,6.69266,4.27209,-2.03078,7.07941,1.83196,1.83196,A,151044.90
4.32836,57.68774663,11.98130050,57.68774983,11.98129917,17:19:51.584592,0.00571,1.73278,1.73278,-0.04487,0.04815,-0.00310,0.00759,0.00178,-0.23753,0.02995,1.16437,4.32270,1.58327,1.82112,1.83542,-1.95177,6.72373,4.27209,-2.03078,7.07941,1.83196,1.83196,A,151044.90
4.33830,57.68774690,11.98130038,57.68774983,11.98129917,17:19:51.594537,0.00519,1.73278,1.73278,-0.04545,0.04738,-0.00188,0.04318,-0.00662,0.00549,-0.03800,0.98558,4.33240,1.61317,1.82110,1.83518,-1.95881,6.75294,4.27209,-2.03078,7.07941,1.83196,1.83196,A,151044.90
4.34956,57.68774717,11.98130026,57.68774983,11.98129917,17:19:51.606231,0.00561,1.73278,1.73278,-0.04650,0.04648,-0.01089,0.02852,-0.00769,0.00909,-0.06185,0.96667,4.34359,1.63709,1.82120,1.83501,-1.96607,6.78277,4.27209,-2.03078,7.07941,1.83196,1.83196,A,151044.90
4.36010,57.68774742,11.98130014,57.68774983,11.98129917,17:19:51.616333,0.00560,1.73278,1.73278,-0.04634,0.04568,-0.01257,0.02577,-0.00249,0.05094,0.01598,0.92671,4.35445,1.65623,1.82130,1.83487,-1.97285,6.81071,4.27209,-2.03078,7.07941,1.83196,1.83196,A,151044.90
4.37024,57.68774765,11.98130004,57.68774983,11.98129917,17:19:51.626473,0.00520,1.73278,1.73278,-0.04576,0.04515,-0.02066,-0.00203,-0.00097,-0.07576,0.04587,0.92189,4.36433,1.67154,1.82136,1.83477,-1.97906,6.83640,4.27209,-2.03078,7.07941,1.83196,1.83196,A,151044.90
4.39651,57.68774788,11.98129993,57.68775100,11.98129800,17:19:51.652995,0.02108,1.73278,1.73278,-0.04534,0.04483,-0.01333,-0.00417,0.00285,-0.01251,0.03276,0.93946,4.37499,1.68379,1.82146,1.83477,-1.98520,6.86171,4.39206,-2.10013,7.20914,2.06169,2.06169,A,151045.00
4.40680,57.68774837,11.98129967,57.68775100,11.98129800,17:19:51.663031,0.00528,1.73278,1.73278,-0.04656,0.04478,-0.01975,-0.05166,0.00865,-0.06405,-0.04843,0.97667,4.40086,1.69359,1.85691,1.87021,-2.00100,6.91627,4.39206,-2.10013,7.20914,2.06169,2.06169,A,151045.00
4.41733,57.68774861,11.98129952,57.68775100,11.98129800,17:19:51.673560,0.00540,1.73278,1.73278,-0.04667,0.04478,-0.02066,-0.05197,0.00942,-0.07137,0.00317,1.00314,4.41143,1.70142,1.88613,1.89943,-2.00998,6.94394,4.39206,-2.10013,7.20914,2.06169,2.06169,A,151045.00
4.42741,57.68774885,11.98129937,57.68775100,11.98129800,17:19:51.683644,0.00509,1.73278,1.73278,-0.04665,0.04478,-0.01700,-0.01211,0.00896,-0.28298,0.00848,1.14686,4.42179,1.70769,1.91096,1.92426,-2.01883,6.96995,4.39206,-2.10013,7.20914,2.06169,2.06169,A,151045.00
4.43797,57.68774907,11.98129922,57.68775100,11.98129800,17:19:51.694207,0.00544,1.73278,1.73278,-0.04696,0.04478,-0.01165,0.03982,0.01003,-0.12218,-0.02050,1.13600,4.43202,1.71271,1.93208,1.94538,-2.02764,6.99476,4.39206,-2.10013,7.20914,2.06169,2.06169,A,151045.00
4.44977,57.68774929,11.98129907,57.68775100,11.98129800,17:19:51.706518,0.00674,1.73278,1.73278,-0.04717,0.04478,-0.02051,0.07067,0.01690,-0.00525,-0.00366,1.05853,4.44334,1.71673,1.95007,1.96337,-2.03675,7.01943,4.39206,-2.10013,7.20914,2.06169,2.06169,A,151045.00
4.45866,57.68774948,11.98129894,57.68775100,11.98129800,17:19:51.714896,0.00540,1.73278,1.73278,-0.04736,0.04478,-0.02769,0.05799,0.01492,0.14542,0.00122,0.89926,4.45257,1.71994,1.96526,1.97856,-2.04453,7.04006,4.39206,-2.10013,7.20914,2.06169,2.06169,A,151045.00
4.46903,57.68774967,11.98129880,57.68775100,11.98129800,17:19:51.725276,0.00538,1.73278,1.73278,-0.04731,0.04478,-0.03914,0.00530,0.01858,0.03178,0.02446,0.89267,4.46316,1.72250,1.97824,1.99154,-2.05283,7.06129,4.39206,-2.10013,7.20914,2.06169,2.06169,A,151045.00
4.47923,57.68774985,11.98129866,57.68775100,11.98129800,17:19:51.735462,0.00517,1.73278,1.73278,-0.04640,0.04478,-0.04189,-0.01806,0.01492,-0.11468,0.07875,0.92555,4.47331,1.72456,1.98928,2.00258,-2.06096,7.08156,4.39206,-2.10013,7.20914,2.06169,2.06169,A,151045.00
4.49002,57.68775003,11.98129853,57.68775100,11.98129800,17:19:51.746254,0.00556,1.73278,1.73278,-0.04612,0.04478,-0.03120,-0.03593,0.01232,-0.17836,0.03727,1.00601,4.48406,1.72620,1.99867,2.01196,-2.06886,7.10084,4.39206,-2.10013,7.20914,2.06169,2.06169,A,151045.00
4.51556,57.68775018,11.98129840,57.68775283,11.98129650,17:19:51.771797,0.02070,1.73278,1.73278,-0.04630,0.04478,-0.03823,-0.00126,-0.00188,-0.17971,0.01043,1.10868,4.49422,1.72752,2.00661,2.01991,-2.07605,7.11817,4.51114,-2.18928,7.41300,1.98308,1.98308,A,151045.10
4.52581,57.68775063,11.98129802,57.68775283,11.98129650,17:19:51.782053,0.00560,1.73278,1.73278,-0.04797,0.04478,-0.05533,0.03585,-0.01334,-0.09833,-0.02239,1.02407,4.51986,1.72857,2.00252,2.01581,-2.09870,7.16817,4.51114,-2.18928,7.41300,1.98308,1.98308,A,151045.10
4.53584,57.68775085,11.98129785,57.68775283,11.98129650,17:19:51.792074,0.00523,1.73278,1.73278,-0.04822,0.04478,-0.06571,0.04272,-0.00433,-0.16141,0.02239,0.95861,4.53021,1.72941,1.99810,2.01140,-2.10905,7.19262,4.51114,-2.18928,7.41300,1.98308,1.98308,A,151045.10
4.54644,57.68775106,11.98129768,57.68775283,11.98129650,17:19:51.802674,0.00534,1.73278,1.73278,-0.04795,0.04478,-0.05976,0.05478,-0.00143,-0.12816,0.04837,0.88749,4.54052,1.73009,1.99436,2.00766,-2.11903,7.21628,4.51114,-2.18928,7.41300,1.98308,1.98308,A,151045.10
4.55757,57.68775127,11.98129752,57.68775283,11.98129650,17:19:51.813805,0.00558,1.73278,1.73278,-0.04812,0.04478,-0.04876,0.03264,0.00911,0.00976,0.01830,0.85546,4.55161,1.73062,1.99122,2.00452,-2.12881,7.23954,4.51114,-2.18928,7.41300,1.98308,1.98308,A,151045.10
4.56747,57.68775146,11.98129737,57.68775283,11.98129650,17:19:51.823707,0.00509,1.73278,1.73278,-0.04871,0.04478,-0.05121,0.01324,0.01430,0.03569,-0.00909,0.94971,4.56185,1.73105,1.98849,2.00179,-2.13746,7.26035,4.51114,-2.18928,7.41300,1.98308,1.98308,A,151045.10
4.57814,57.68775164,11.98129723,57.68775283,11.98129650,17:19:51.834370,0.00521,1.73278,1.73278,-0.04972,0.04478,-0.04647,-0.00493,0.01614,-0.00055,-0.04276,1.01791,4.57222,1.73140,1.98620,1.99950,-2.14594,7.28081,4.51114,-2.18928,7.41300,1.98308,1.98308,A,151045.10
4.58887,57.68775182,11.98129709,57.68775283,11.98129650,17:19:51.845127,0.00529,1.73278,1.73278,-0.05115,0.04478,-0.05930,0.00271,0.00667,-0.12639,-0.06954,1.12917,4.58299,1.73168,1.98426,1.99756,-2.15405,7.30042,4.51114,-2.18928,7.41300,1.98308,1.98308,A,151045.10
4.59888,57.68775198,11.98129697,57.68775283,11.98129650,17:19:51.855111,0.00514,1.73278,1.73278,-0.05227,0.04478,-0.06999,0.02256,-0.00234,-0.21820,-0.04416,1.14345,4.59299,1.73190,1.98258,1.99588,-2.16139,7.31832,4.51114,-2.18928,7.41300,1.98308,1.98308,A,151045.10
4.60959,57.68775214,11.98129685,57.68775283,11.98129650,17:19:51.865830,0.00546,1.73278,1.73278,-0.05298,0.04472,-0.07457,0.05188,-0.00799,-0.13396,-0.00470,1.04914,4.60366,1.73207,1.98118,1.99447,-2.16864,7.33597,4.51114,-2.18928,7.41300,1.98308,1.98308,A,151045.10
4.63511,57.68775229,11.98129674,57.68775467,11.98129550,17:19:51.891342,0.02057,1.73278,1.73278,-0.05373,0.04464,-0.07182,0.05982,-0.00952,-0.00769,-0.00933,0.90188,4.61402,1.73221,1.97998,1.99323,-2.17526,7.35222,4.63087,-2.24872,7.61685,1.85450,1.85450,A,151045.20
4.64566,57.68775273,11.98129641,57.68775467,11.98129550,17:19:51.901889,0.00576,1.73278,1.73278,-0.05569,0.04441,-0.05411,0.01034,-0.00860,-0.06313,-0.04563,0.91049,4.63947,1.73233,1.96060,1.97379,-2.19489,7.40096,4.63087,-2.24872,7.61685,1.85450,1.85450,A,151045.20
4.65764,57.68775296,11.98129625,57.68775467,11.98129550,17:19:51.913877,0.00657,1.73278,1.73278,-0.05661,0.04432,-0.05793,-0.00065,-0.01150,-0.15110,-0.02843,1.02004,4.65164,1.73242,1.94330,1.95646,-2.20393,7.42665,4.63087,-2.24872,7.61685,1.85450,1.85450,A,151045.20
4.66651,57.68775314,11.98129614,57.68775467,11.98129550,17:19:51.922746,0.00521,1.73278,1.73278,-0.05805,0.04432,-0.05609,0.01920,-0.00921,-0.06985,-0.08076,1.03798,4.66061,1.73249,1.92841,1.94157,-2.21040,7.44656,4.63087,-2.24872,7.61685,1.85450,1.85450,A,151045.20
4.67713,57.68775333,11.98129603,57.68775467,11.98129550,17:19:51.933385,0.00538,1.73278,1.73278,-0.05926,0.04432,-0.05823,0.02241,-0.00814,-0.00732,-0.06137,1.09239,4.67128,1.73255,1.91586,1.92902,-2.21745,7.46828,4.63087,-2.24872,7.61685,1.85450,1.85450,A,151045.20
4.68726,57.68775352,11.98129592,57.68775467,11.98129550,17:19:51.943499,0.00511,1.73278,1.73278,-0.05963,0.04432,-0.05991,0.01722,0.00148,-0.06771,-0.00183,1.06963,4.68142,1.73259,1.90519,1.91835,-2.22394,7.48888,4.63087,-2.24872,7.61685,1.85450,1.85450,A,151045.20
4.69794,57.68775369,11.98129582,57.68775467,11.98129550,17:19:51.954173,0.00539,1.73278,1.73278,-0.06000,0.04432,-0.04846,0.02516,0.00361,-0.12011,-0.00878,1.03456,4.69201,1.73263,1.89612,1.90929,-2.22999,7.50857,4.63087,-2.24872,7.61685,1.85450,1.85450,A,151045.20
4.70803,57.68775386,11.98129572,57.68775467,11.98129550,17:19:51.964268,0.00508,1.73278,1.73278,-0.06077,0.04432,-0.04067,0.03921,0.01064,-0.18233,-0.04197,1.02035,4.70241,1.73266,1.88840,1.90156,-2.23547,7.52689,4.63087,-2.24872,7.61685,1.85450,1.85450,A,151045.20
4.71840,57.68775401,11.98129564,57.68775467,11.98129550,17:19:51.974636,0.00522,1.84896,1.84896,-0.06111,0.04432,-0.03929,0.05814,0.01308,-0.00024,-0.01025,0.91146,4.71249,1.75592,1.88184,1.89500,-2.24057,7.54429,4.63087,-2.24872,7.61685,1.85450,1.85450,A,151045.20
4.72891,57.68775417,11.98129555,57.68775467,11.98129550,17:19:51.985152,0.00533,1.84896,1.84896,-0.06196,0.04418,-0.04617,0.03661,0.00636,0.06551,-0.03794,0.93330,4.72306,1.77453,1.87628,1.88940,-2.24549,7.56134,4.63087,-2.24872,7.61685,1.85450,1.85450,A,151045.20
4.75562,57.68775432,11.98129548,57.68775550,11.98129383,17:19:52.011860,0.02164,1.84896,1.84896,-0.06256,0.04384,-0.04632,0.01370,0.00300,0.04898,-0.02391,0.92220,4.73325,1.78942,1.87158,1.88460,-2.25019,7.57790,4.75048,-2.34778,7.70951,2.38956,2.38956,A,151045.30
4.76708,57.68775475,11.98129517,57.68775550,11.98129383,17:19:52.023317,0.00657,1.84896,1.84896,-0.06377,0.04220,-0.04479,0.01386,-0.01410,-0.07960,-0.02105,1.08519,4.76078,1.80133,1.94896,1.96149,-2.26847,7.62576,4.75048,-2.34778,7.70951,2.38956,2.38956,A,151045.30
4.77601,57.68775489,11.98129502,57.68775550,11.98129383,17:19:52.032241,0.00510,1.84896,1.84896,-0.06457,0.04149,-0.05411,0.02393,-0.01257,-0.06277,-0.04240,1.06042,4.77038,1.81085,2.01362,2.02594,-2.27710,7.64126,4.75048,-2.34778,7.70951,2.38956,2.38956,A,151045.30
4.78633,57.68775503,11.98129486,57.68775550,11.98129383,17:19:52.042569,0.00519,1.84896,1.84896,-0.06548,0.04090,-0.05655,0.03447,-0.01685,0.01769,-0.04337,0.97795,4.78043,1.81848,2.06867,2.08082,-2.28687,7.65743,4.75048,-2.34778,7.70951,2.38956,2.38956,A,151045.30
4.79741,57.68775517,11.98129469,57.68775550,11.98129383,17:19:52.053651,0.00587,1.84896,1.84896,-0.06585,0.04048,-0.05502,0.02119,-0.01593,-0.00872,-0.00653,0.88602,4.79103,1.82457,2.11550,2.12752,-2.29711,7.67290,4.75048,-2.34778,7.70951,2.38956,2.38956,A,151045.30
4.80705,57.68775529,11.98129452,57.68775550,11.98129383,17:19:52.063284,0.00511,1.84896,1.84896,-0.06653,0.04025,-0.04724,0.02455,-0.00937,-0.07796,-0.03166,0.90731,4.80120,1.82945,2.15527,2.16722,-2.30698,7.68652,4.75048,-2.34778,7.70951,2.38956,2.38956,A,151045.30
4.81773,57.68775541,11.98129434,57.68775550,11.98129383,17:19:52.073956,0.00538,1.84896,1.84896,-0.06726,0.04022,-0.03349,0.02806,-0.00692,-0.14390,-0.04654,0.96362,4.81182,1.83335,2.18912,2.20106,-2.31743,7.70005,4.75048,-2.34778,7.70951,2.38956,2.38956,A,151045.30
4.82783,57.68775552,11.98129417,57.68775550,11.98129383,17:19:52.084062,0.00509,1.84896,1.84896,-0.06848,0.04022,-0.03273,0.04761,-0.00204,-0.05100,-0.08522,1.01943,4.82221,1.83648,2.21787,2.22981,-2.32748,7.71222,4.75048,-2.34778,7.70951,2.38956,2.38956,A,151045.30
4.83919,57.68775563,11.98129400,57.68775550,11.98129383,17:19:52.095427,0.00586,1.84896,1.84896,-0.06932,0.04022,-0.03456,0.04134,0.00178,0.05783,-0.05929,1.02578,4.83266,1.83897,2.24233,2.25427,-2.33777,7.72406,4.75048,-2.34778,7.70951,2.38956,2.38956,A,151045.30
4.84924,57.68775572,11.98129384,57.68775550,11.98129383,17:19:52.105479,0.00537,1.84896,1.84896,-0.06957,0.04022,-0.03273,0.02088,0.00621,0.06655,-0.02092,1.03127,4.84339,1.84097,2.26309,2.27503,-2.34716,7.73425,4.75048,-2.34778,7.70951,2.38956,2.38956,A,151045.30
4.91650,57.68775581,11.98129368,57.68775883,11.98129183,17:19:52.172911,0.06223,1.84896,1.84896,-0.06966,0.04022,-0.03013,-0.00539,0.01033,0.04435,-0.01189,0.99180,4.85373,1.84257,2.28076,2.29270,-2.35688,7.74442,4.90508,-2.46666,8.08016,1.88115,1.88115,A,151045.50
4.95404,57.68775706,11.98129179,57.68775883,11.98129183,17:19:52.210279,0.01565,1.84896,1.84896,-0.06573,0.04118,0.03615,0.01691,0.04271,0.05252,0.01257,0.97978,4.94791,1.84385,2.22431,2.23654,-2.46947,7.88285,4.90508,-2.46666,8.08016,1.88115,1.88115,A,151045.50
5.00275,57.68775773,11.98129094,57.68775883,11.98129183,17:19:52.258982,0.02228,1.84896,1.84896,-0.06475,0.04495,0.03951,0.02424,0.01736,0.01897,-0.07399,0.90384,4.99681,1.84487,2.17359,2.18694,-2.51983,7.95701,4.90508,-2.46666,8.08016,1.88115,1.88115,A,151045.50
5.04398,57.68775803,11.98129065,57.68776033,11.98129100,17:19:52.301196,0.02814,1.84896,1.84896,0.00000,0.04885,0.03737,0.00469,0.03202,0.01220,-0.01013,0.91714,5.01857,1.84569,2.12882,2.14333,-2.53713,7.99136,5.03653,-2.51619,8.24696,1.85947,1.85947,A,151045.60
5.06701,57.68775856,11.98129017,57.68776033,11.98129100,17:19:52.323248,0.01584,1.84896,1.84896,0.00048,0.05335,0.05218,0.01355,0.04469,-0.06765,-0.04044,1.07403,5.05229,1.84635,2.08822,2.10407,0.05632,0.00000,5.03653,-2.51619,8.24696,1.85947,1.85947,A,151045.60
5.08267,57.68775890,11.98128993,57.68776033,11.98129100,17:19:52.338925,0.01102,1.84896,1.84896,0.00086,0.05528,0.05478,0.01386,0.05401,-0.08473,0.00116,1.05292,5.07227,1.84687,2.05286,2.06928,-2.57968,8.08781,5.03653,-2.51619,8.24696,1.85947,1.85947,A,151045.60
5.10196,57.68775921,11.98128974,57.68776033,11.98129100,17:19:52.358209,0.01048,1.84896,1.84896,0.00191,0.05700,0.06180,-0.00585,0.05325,0.03873,0.03733,0.93409,5.09201,1.84729,2.02266,2.03960,-2.59084,8.12210,5.03653,-2.51619,8.24696,1.85947,1.85947,A,151045.60
5.12515,57.68775955,11.98128954,57.68776033,11.98129100,17:19:52.381975,0.01027,1.84896,1.84896,0.00277,0.05938,0.07906,-0.00951,0.04928,-0.13841,-0.01068,0.92958,5.11529,1.84762,1.99719,2.01484,-2.60318,8.16008,5.03653,-2.51619,8.24696,1.85947,1.85947,A,151045.60
5.17394,57.68775989,11.98128934,57.68776383,11.98128933,17:19:52.430181,0.03758,1.84896,1.84896,0.00242,0.06156,0.05768,0.01798,0.04393,-0.11187,-0.05929,1.03279,5.13805,1.84789,1.97558,1.99387,-2.61464,8.19764,5.16621,-2.61525,8.63614,1.82004,1.82004,A,151045.80
5.19534,57.68776076,11.98128878,57.68776383,11.98128933,17:19:52.451577,0.01077,1.84896,1.84896,0.00381,0.06306,0.05035,-0.00798,0.04286,-0.07997,-0.01434,0.99021,5.18637,1.84811,1.95356,1.97230,-2.64828,8.29423,5.16621,-2.61525,8.63614,1.82004,1.82004,A,151045.80
5.21527,57.68776114,11.98128863,57.68776383,11.98128933,17:19:52.472068,0.01120,1.52714,1.52714,0.00354,0.06306,0.04058,-0.00035,0.03492,-0.09742,-0.01562,0.97020,5.20374,1.78391,1.93211,1.95085,-2.65718,8.33616,5.16621,-2.61525,8.63614,1.82004,1.82004,A,151045.80
5.23330,57.68776150,11.98128849,57.68776383,11.98128933,17:19:52.490254,0.01084,1.52714,1.52714,0.00332,0.06306,0.03172,0.00332,0.03049,-0.12206,-0.01031,1.02870,5.22416,1.73256,1.91394,1.93268,-2.66550,8.37723,5.16621,-2.61525,8.63614,1.82004,1.82004,A,151045.80
5.25473,57.68776189,11.98128834,57.68776383,11.98128933,17:19:52.512935,0.00961,1.52714,1.52714,0.00325,0.06303,0.01370,0.00836,0.02225,-0.02782,0.02287,0.96410,5.24568,1.69147,1.89869,1.91742,-2.67428,8.42001,5.16621,-2.61525,8.63614,1.82004,1.82004,A,151045.80
5.26993,57.68776215,11.98128828,57.68776383,11.98128933,17:19:52.526184,0.01189,1.52714,1.52714,0.00277,0.06255,0.01141,-0.00478,0.00881,-0.06021,0.00445,0.99887,5.25976,1.65861,1.88513,1.90372,-2.67805,8.44944,5.16621,-2.61525,8.63614,1.82004,1.82004,A,151045.80
5.30441,57.68776244,11.98128820,57.68776633,11.98128817,17:19:52.560659,0.02757,1.52714,1.52714,0.00216,0.06009,0.00942,-0.01272,-0.00417,-0.01647,-0.00494,0.98704,5.27762,1.63231,1.87392,1.89178,-2.68282,8.48164,5.29558,-2.68459,8.91413,1.81526,1.81526,A,151045.90
5.32719,57.68776315,11.98128787,57.68776633,11.98128817,17:19:52.583429,0.01178,1.52714,1.52714,0.00153,0.05307,0.01324,-0.00554,0.02377,-0.09632,-0.03398,1.01065,5.31837,1.61128,1.86573,1.88149,-2.70195,8.56054,5.29558,-2.68459,8.91413,1.81526,1.81526,A,151045.90
5.34857,57.68776354,11.98128775,57.68776633,11.98128817,17:19:52.605472,0.01299,1.52714,1.52714,0.00064,0.05089,0.02317,0.01187,0.02347,-0.12847,-0.03928,0.89280,5.33764,1.59445,1.85704,1.87216,-2.70923,8.60359,5.29558,-2.68459,8.91413,1.81526,1.81526,A,151045.90
5.37030,57.68776395,11.98128762,57.68776633,11.98128817,17:19:52.627086,0.01275,1.52714,1.52714,0.00031,0.04993,0.01736,0.01004,0.01385,0.00226,-0.00378,0.87242,5.36010,1.58099,1.84985,1.86468,-2.71727,8.64894,5.29558,-2.68459,8.91413,1.81526,1.81526,A,151045.90
5.38661,57.68776426,11.98128753,57.68776633,11.98128817,17:19:52.642858,0.00945,1.52714,1.52714,0.00108,0.04990,0.00683,-0.00936,0.00209,-0.03184,0.08680,1.01791,5.37779,1.57022,1.84337,1.85819,-2.72222,8.68397,5.29558,-2.68459,8.91413,1.81526,1.81526,A,151045.90
5.39898,57.68776448,11.98128750,57.68776633,11.98128817,17:19:52.655242,0.01069,1.52714,1.52714,0.00142,0.04990,0.01920,-0.01241,-0.00066,-0.03550,0.05551,1.10197,5.38865,1.56160,1.83748,1.85230,-2.72416,8.70840,5.29558,-2.68459,8.91413,1.81526,1.81526,A,151045.90
5.43636,57.68776482,11.98128740,57.68776767,11.98128750,17:19:52.692603,0.02789,1.52714,1.52714,0.00067,0.04990,0.02989,0.00943,0.01140,0.01080,-0.05161,1.06292,5.40929,1.55471,1.83305,1.84788,-2.72989,8.74535,5.42715,-2.72422,9.06239,1.83196,1.83196,A,151046.00
5.45734,57.68776541,11.98128717,57.68776767,11.98128750,17:19:52.713617,0.01090,1.52714,1.52714,0.00162,0.04990,0.03599,-0.03822,0.03935,0.06350,0.01446,0.89475,5.44747,1.54919,1.83282,1.84764,-2.74402,8.81186,5.42715,-2.72422,9.06239,1.83196,1.83196,A,151046.00
5.47687,57.68776575,11.98128706,57.68776767,11.98128750,17:19:52.733122,0.01035,1.52714,1.52714,0.00129,0.04990,0.03370,-0.05334,0.03095,-0.11157,-0.02056,0.92641,5.46739,1.54478,1.83152,1.84635,-2.75013,8.84937,5.42715,-2.72422,9.06239,1.83196,1.83196,A,151046.00
5.49392,57.68776603,11.98128699,57.68776767,11.98128750,17:19:52.750168,0.01123,1.52714,1.52714,0.00087,0.04990,0.02821,-0.01806,0.02194,-0.19520,-0.01653,0.99942,5.48412,1.54125,1.83022,1.84504,-2.75450,8.88007,5.42715,-2.72422,9.06239,1.83196,1.83196,A,151046.00
5.51519,57.68776633,11.98128690,57.68776767,11.98128750,17:19:52.771443,0.01201,1.52714,1.52714,0.00049,0.04990,0.01523,0.02210,0.02759,-0.07716,-0.00275,1.01626,5.50381,1.53843,1.82930,1.84413,-2.75995,8.91395,5.42715,-2.72422,9.06239,1.83196,1.83196,A,151046.00
5.55530,57.68776667,11.98128679,57.68776900,11.98128650,17:19:52.811542,0.02881,1.52714,1.52714,0.00079,0.04990,0.00056,0.00607,0.03721,-0.09241,0.06387,1.06549,5.52791,1.53617,1.82874,1.84356,-2.76649,8.95105,5.54532,-2.78366,9.21065,1.95208,1.95208,A,151046.10
5.57766,57.68776724,11.98128654,57.68776900,11.98128650,17:19:52.833935,0.01134,1.52714,1.52714,-0.00104,0.04990,-0.02906,-0.01501,0.00697,-0.09925,-0.00634,0.95044,5.56593,1.53436,1.84715,1.86197,-2.78146,9.01449,5.54532,-2.78366,9.21065,1.95208,1.95208,A,151046.10
5.59470,57.68776751,11.98128643,57.68776900,11.98128650,17:19:52.850946,0.01096,1.52714,1.52714,-0.00291,0.04990,-0.04968,-0.01577,-0.00677,-0.10803,-0.01879,0.89572,5.58501,1.53292,1.86156,1.87638,-2.78785,9.04525,5.54532,-2.78366,9.21065,1.95208,1.95208,A,151046.10
5.61500,57.68776783,11.98128629,57.68776900,11.98128650,17:19:52.871246,0.01055,1.52714,1.52714,-0.00417,0.04990,-0.04876,-0.00142,-0.00097,-0.06905,0.02147,0.92104,5.60621,1.53176,1.87405,1.88887,-2.79602,9.08009,5.54532,-2.78366,9.21065,1.95208,1.95208,A,151046.10
5.63900,57.68776814,11.98128614,57.68776900,11.98128650,17:19:52.895238,0.01055,1.52714,1.52714,-0.00581,0.04967,-0.04495,0.02180,0.00514,-0.06124,-0.00659,1.11136,5.62895,1.53084,1.88479,1.89954,-2.80493,9.11554,5.54532,-2.78366,9.21065,1.95208,1.95208,A,151046.10
5.69021,57.68776846,11.98128598,57.68777183,11.98128433,17:19:52.946787,0.03887,1.64863,1.64863,-0.00744,0.04809,-0.04220,0.03447,0.00377,-0.05417,-0.00616,1.09477,5.65330,1.55440,1.89405,1.90834,-2.81433,9.15099,5.68183,-2.91244,9.52570,1.95883,1.95883,A,151046.30
5.71067,57.68776921,11.98128552,57.68777183,11.98128433,17:19:52.966919,0.00944,1.64863,1.64863,-0.00970,0.04625,-0.02524,-0.01241,0.01140,-0.00110,-0.03178,0.92080,5.70187,1.57324,1.90438,1.91811,-2.84168,9.23367,5.68183,-2.91244,9.52570,1.95883,1.95883,A,151046.30
5.72267,57.68776945,11.98128539,57.68777183,11.98128433,17:19:52.978919,0.01026,1.64863,1.64863,-0.01112,0.04625,-0.03044,-0.02264,0.00850,-0.07052,-0.03825,0.96679,5.71288,1.58832,1.91100,1.92474,-2.84989,9.26117,5.68183,-2.91244,9.52570,1.95883,1.95883,A,151046.30
5.74294,57.68776982,11.98128516,57.68777183,11.98128433,17:19:52.999173,0.01047,1.64863,1.64863,-0.01262,0.04614,-0.03761,-0.01058,0.00010,-0.12962,-0.01873,1.06829,5.73410,1.60038,1.91721,1.93092,-2.86302,9.30148,5.68183,-2.91244,9.52570,1.95883,1.95883,A,151046.30
5.76485,57.68777016,11.98128495,57.68777183,11.98128433,17:19:53.021121,0.01074,1.64863,1.64863,-0.01358,0.04540,-0.02906,0.02897,0.00499,-0.00683,0.00482,1.03859,5.75493,1.61003,1.92252,1.93601,-2.87566,9.33970,5.68183,-2.91244,9.52570,1.95883,1.95883,A,151046.30
5.80342,57.68777048,11.98128475,57.68777317,11.98128350,17:19:53.059687,0.02920,1.64863,1.64863,-0.01495,0.04362,-0.03471,0.00546,-0.00188,-0.01238,-0.01586,0.95044,5.77526,1.61775,1.92706,1.94002,-2.88750,9.37514,5.79368,-2.96197,9.67396,1.89322,1.89322,A,151046.40
5.82090,57.68777104,11.98128438,57.68777317,11.98128350,17:19:53.077808,0.01034,1.64863,1.64863,-0.01693,0.03963,-0.03471,0.00515,-0.02051,-0.02532,-0.02470,1.06323,5.81182,1.62393,1.92205,1.93382,-2.90975,9.43796,5.79368,-2.96197,9.67396,1.89322,1.89322,A,151046.40
5.84219,57.68777139,11.98128417,57.68777317,11.98128350,17:19:53.098440,0.01147,1.64863,1.64863,-0.01855,0.03813,-0.03700,0.02256,-0.01761,-0.07033,-0.03953,1.08897,5.83221,1.62887,1.91694,1.92827,-2.92238,9.47613,5.79368,-2.96197,9.67396,1.89322,1.89322,A,151046.40
5.86415,57.68777173,11.98128396,57.68777317,11.98128350,17:19:53.120416,0.01066,1.64863,1.64863,-0.01935,0.03748,-0.02906,0.05020,-0.01074,-0.07253,0.00872,1.03041,5.85330,1.63282,1.91264,1.92377,-2.93474,9.51383,5.79368,-2.96197,9.67396,1.89322,1.89322,A,151046.40
5.88425,57.68777205,11.98128376,57.68777317,11.98128350,17:19:53.140494,0.01001,1.64863,1.64863,-0.02005,0.03736,-0.00432,0.02332,-0.00479,0.15616,-0.01647,0.88944,5.87539,1.63598,1.90896,1.92006,-2.94623,9.54932,5.79368,-2.96197,9.67396,1.89322,1.89322,A,151046.40
5.91984,57.68777232,11.98128360,57.68777517,11.98128183,17:19:53.176076,0.02641,1.64863,1.64863,-0.02126,0.03733,-0.00203,-0.04555,-0.00631,0.06155,-0.05649,0.97069,5.89407,1.63851,1.90574,1.91683,-2.95599,9.58018,5.91094,-3.06103,9.89635,1.98986,1.98986,A,151046.50
5.93476,57.68777286,11.98128325,57.68777517,11.98128183,17:19:53.191726,0.01039,1.64863,1.64863,-0.02206,0.03733,0.00957,-0.01195,-0.01135,-0.06557,-0.06155,1.10941,5.92597,1.64054,1.91812,1.92921,-2.97712,9.64004,5.91094,-3.06103,9.89635,1.98986,1.98986,A,151046.50
5.95631,57.68777322,11.98128300,57.68777517,11.98128183,17:19:53.212576,0.01057,1.64863,1.64863,-0.02323,0.03733,0.00805,0.02210,-0.00265,0.04221,-0.07619,1.06012,5.94661,1.64215,1.92811,1.93920,-2.99159,9.68028,5.91094,-3.06103,9.89635,1.98986,1.98986,A,151046.50
5.97547,57.68777355,11.98128278,57.68777517,11.98128183,17:19:53.232266,0.01001,1.64863,1.64863,-0.02290,0.03733,0.01125,0.04318,0.00255,0.04020,0.02361,0.93086,5.96594,1.64345,1.93654,1.94762,-3.00478,9.71626,5.91094,-3.06103,9.89635,1.98986,1.98986,A,151046.50
5.99619,57.68777388,11.98128255,57.68777517,11.98128183,17:19:53.252451,0.01082,1.64863,1.64863,-0.02312,0.03733,0.03034,0.00866,0.01033,0.07174,-0.03422,0.90548,5.98672,1.64449,1.94377,1.95486,-3.01848,9.75278,5.91094,-3.06103,9.89635,1.98986,1.98986,A,151046.50
6.03562,57.68777421,11.98128231,57.68777617,11.98128050,17:19:53.291887,0.02820,1.64863,1.64863,-0.02285,0.03733,0.03034,-0.02203,0.00484,-0.02946,-0.01043,1.02138,6.00906,1.64531,1.95000,1.96109,-3.03262,9.78969,6.02623,-3.14028,10.00754,2.19000,2.19000,A,151046.60
6.05561,57.68777476,11.98128187,57.68777617,11.98128050,17:19:53.312407,0.01189,1.64863,1.64863,-0.02173,0.03813,0.03813,-0.01241,0.03003,-0.07863,-0.00061,1.08019,6.04581,1.64598,1.98596,1.99728,-3.05865,9.85075,6.02623,-3.14028,10.00754,2.19000,2.19000,A,151046.60
6.07793,57.68777508,11.98128159,57.68777617,11.98128050,17:19:53.334190,0.01151,1.76991,1.76991,-0.02025,0.04116,0.05539,0.00897,0.04500,-0.00695,0.04178,1.03163,6.06749,1.67076,2.01569,2.02791,-3.07536,9.88640,6.02623,-3.14028,10.00754,2.19000,2.19000,A,151046.60
6.09774,57.68777536,11.98128133,57.68777617,11.98128050,17:19:53.354629,0.01110,1.76991,1.76991,-0.02098,0.04492,0.04684,-0.01287,0.03767,-0.01318,-0.09132,1.02114,6.08797,1.69059,2.04078,2.05412,-3.09101,9.91767,6.02623,-3.14028,10.00754,2.19000,2.19000,A,151046.60
6.11759,57.68777563,11.98128107,57.68777617,11.98128050,17:19:53.374373,0.01107,1.76991,1.76991,-0.02024,0.04823,0.02546,-0.02432,0.02713,-0.05978,0.03855,0.94495,6.10780,1.70646,2.06206,2.07638,-3.10668,9.94733,6.02623,-3.14028,10.00754,2.19000,2.19000,A,151046.60
6.15382,57.68777586,11.98128082,57.68777800,11.98127950,17:19:53.410058,0.02820,1.76991,1.76991,-0.01942,0.05078,0.03172,-0.01012,0.02958,-0.03666,0.03886,0.95044,6.12646,1.71915,2.08004,2.09513,-3.12137,9.97383,6.14444,-3.19972,10.21140,1.85450,1.85450,A,151046.70
6.17688,57.68777646,11.98128022,57.68777800,11.98127950,17:19:53.433132,0.01185,1.76991,1.76991,-0.01976,0.05350,0.00606,0.02042,0.03721,-0.00030,-0.01415,1.05207,6.16780,1.72930,2.04645,2.06234,-3.15692,10.04042,6.14444,-3.19972,10.21140,1.85450,1.85450,A,151046.70
6.20133,57.68777681,11.98127991,57.68777800,11.98127950,17:19:53.457595,0.01247,1.76991,1.76991,-0.01994,0.05350,-0.00371,-0.02829,0.02499,0.00067,0.01976,0.98680,6.19083,1.73742,2.01678,2.03267,-3.17527,10.07923,6.14444,-3.19972,10.21140,1.85450,1.85450,A,151046.70
6.22262,57.68777713,11.98127965,57.68777800,11.98127950,17:19:53.478871,0.01166,1.76991,1.76991,-0.02042,0.05350,0.00789,-0.04265,0.02133,-0.10413,-0.01690,0.99741,6.21204,1.74392,1.99145,2.00734,-3.19076,10.11451,6.14444,-3.19972,10.21140,1.85450,1.85450,A,151046.70
6.24009,57.68777738,11.98127946,57.68777800,11.98127950,17:19:53.496337,0.01043,1.76991,1.76991,-0.02144,0.05350,-0.00127,0.00225,0.02438,-0.17190,-0.03959,0.97069,6.23026,1.74912,1.96967,1.98556,-3.20223,10.14297,6.14444,-3.19972,10.21140,1.85450,1.85450,A,151046.70
6.28530,57.68777763,11.98127928,57.68778200,11.98127700,17:19:53.541553,0.03823,1.76991,1.76991,-0.02207,0.05350,-0.02173,0.04058,0.03584,-0.10547,0.00860,0.97155,6.24851,1.75328,1.95114,1.96703,-3.21253,10.17008,6.27628,-3.34831,10.65618,1.89322,1.89322,A,151046.90
6.30309,57.68777843,11.98127871,57.68778200,11.98127700,17:19:53.559354,0.01122,1.76991,1.76991,-0.02384,0.05350,-0.03120,-0.02295,-0.00097,-0.00360,-0.00433,1.05194,6.29290,1.75660,1.94315,1.95904,-3.24649,10.25933,6.27628,-3.34831,10.65618,1.89322,1.89322,A,151046.90
6.32508,57.68777890,11.98127840,57.68778200,11.98127700,17:19:53.582003,0.00983,1.76991,1.76991,-0.02599,0.05350,-0.03456,-0.01455,-0.00952,0.04886,-0.06118,0.90670,6.31598,1.75926,1.93481,1.95070,-3.26484,10.31159,6.27628,-3.34831,10.65618,1.89322,1.89322,A,151046.90
6.33614,57.68777918,11.98127824,57.68778200,11.98127700,17:19:53.592388,0.00939,1.76991,1.76991,-0.02704,0.05350,-0.04250,-0.03181,-0.00479,-0.06350,-0.01915,0.94105,6.32624,1.76139,1.92683,1.94272,-3.27447,10.34248,6.27628,-3.34831,10.65618,1.89322,1.89322,A,151046.90
6.34766,57.68777946,11.98127808,57.68778200,11.98127700,17:19:53.603907,0.00862,1.76991,1.76991,-0.02799,0.05350,-0.03288,-0.01180,0.01354,-0.09376,-0.01586,0.94294,6.33884,1.76310,1.92014,1.93603,-3.28429,10.37388,6.27628,-3.34831,10.65618,1.89322,1.89322,A,151046.90
6.35917,57.68777972,11.98127793,57.68778200,11.98127700,17:19:53.615413,0.00943,1.76991,1.76991,-0.02852,0.05350,-0.02555,-0.00997,0.02698,-0.11309,0.00055,1.05603,6.34985,1.76446,1.91442,1.93031,-3.29322,10.40297,6.27628,-3.34831,10.65618,1.89322,1.89322,A,151046.90
6.37071,57.68777996,11.98127779,57.68778200,11.98127700,17:19:53.626953,0.00968,1.76991,1.76991,-0.02935,0.05350,-0.01623,0.00546,0.03202,0.07942,-0.02818,1.04664,6.36091,1.76555,1.90949,1.92538,-3.30108,10.42921,6.27628,-3.34831,10.65618,1.89322,1.89322,A,151046.90
6.40256,57.68778020,11.98127766,57.68778333,11.98127533,17:19:53.658807,0.03015,1.76991,1.76991,-0.03054,0.05350,-0.00967,-0.01654,0.03935,0.03148,-0.05832,1.03913,6.37284,1.76642,1.90539,1.92129,-3.30920,10.45612,6.39218,-3.44738,10.80444,2.15984,2.15984,A,151047.00
6.42169,57.68778088,11.98127719,57.68778333,11.98127533,17:19:53.677940,0.01062,1.76991,1.76991,-0.03180,0.05350,-0.02769,0.00546,0.01079,-0.08625,0.00226,0.97203,6.41161,1.76712,1.94387,1.95976,-3.33723,10.53132,6.39218,-3.44738,10.80444,2.15984,2.15984,A,151047.00
6.44239,57.68778122,11.98127693,57.68778333,11.98127533,17:19:53.698641,0.01317,1.76991,1.76991,-0.03294,0.05350,-0.03502,0.00943,0.00804,0.07168,-0.01812,0.93891,6.42987,1.76768,1.97501,1.99090,-3.35255,10.56891,6.39218,-3.44738,10.80444,2.15984,2.15984,A,151047.00
6.46199,57.68778160,11.98127662,57.68778333,11.98127533,17:19:53.718230,0.01036,1.76991,1.76991,-0.03338,0.05350,-0.03716,-0.00371,0.01476,-0.23278,0.04044,1.08452,6.45249,1.76812,2.00184,2.01773,-3.37118,10.61176,6.39218,-3.44738,10.80444,2.15984,2.15984,A,151047.00
6.48516,57.68778196,11.98127631,57.68778333,11.98127533,17:19:53.741430,0.01288,1.76991,1.76991,-0.03517,0.05350,-0.03441,0.02119,0.01675,0.10236,-0.05472,0.97002,6.47450,1.76848,2.02462,2.04051,-3.38943,10.65153,6.39218,-3.44738,10.80444,2.15984,2.15984,A,151047.00
6.52348,57.68778230,11.98127600,57.68778533,11.98127467,17:19:53.779722,0.02759,1.76991,1.76991,-0.03709,0.05318,-0.04983,-0.01318,0.01675,-0.13243,-0.04008,0.95495,6.49742,1.76877,2.04401,2.05981,-3.40760,10.68928,6.51530,-3.48700,11.02683,1.74712,1.74712,A,151047.10
6.54437,57.68778290,11.98127549,57.68778533,11.98127467,17:19:53.801290,0.01076,1.58445,1.58445,-0.03891,0.05197,-0.04632,-0.01302,0.00804,-0.06295,-0.00659,0.95825,6.53302,1.73190,1.99961,2.01505,-3.43808,10.75596,6.51530,-3.48700,11.02683,1.74712,1.74712,A,151047.10
6.56462,57.68778329,11.98127521,57.68778533,11.98127467,17:19:53.821727,0.01093,1.58445,1.58445,-0.04053,0.05163,-0.05090,-0.00035,0.01033,-0.22265,-0.03410,1.08202,6.55551,1.70241,1.96085,1.97619,-3.45482,10.79955,6.51530,-3.48700,11.02683,1.74712,1.74712,A,151047.10
6.58774,57.68778366,11.98127496,57.68778533,11.98127467,17:19:53.844004,0.01149,1.58445,1.58445,-0.04272,0.05120,-0.06571,0.05112,0.01094,-0.06789,-0.05045,1.07275,6.57828,1.67882,1.92791,1.94312,-3.46946,10.84127,6.51530,-3.48700,11.02683,1.74712,1.74712,A,151047.10
6.60929,57.68778401,11.98127476,57.68778533,11.98127467,17:19:53.866083,0.01097,1.58445,1.58445,-0.04319,0.05004,-0.07091,-0.01394,0.01308,-0.06179,0.06527,0.96081,6.59958,1.65995,1.89986,1.91472,-3.48162,10.87944,6.51530,-3.48700,11.02683,1.74712,1.74712,A,151047.10
6.65048,57.68778437,11.98127456,57.68778700,11.98127300,17:19:53.907639,0.02754,1.58445,1.58445,-0.04491,0.04809,-0.05640,-0.00111,0.00087,-0.18306,-0.02275,0.87419,6.62353,1.64485,1.87622,1.89050,-3.49351,10.91926,6.64083,-3.58606,11.21216,2.06169,2.06169,A,151047.20
6.66913,57.68778495,11.98127420,57.68778700,11.98127300,17:19:53.925397,0.01149,1.58445,1.58445,-0.04754,0.04583,-0.06785,0.07845,-0.00448,-0.06185,-0.02013,1.04450,6.65937,1.63277,1.90407,1.91768,-3.51473,10.98403,6.64083,-3.58606,11.21216,2.06169,2.06169,A,151047.20
6.68935,57.68778530,11.98127397,57.68778700,11.98127300,17:19:53.945592,0.00989,1.58445,1.58445,-0.04955,0.04498,-0.05151,0.02897,-0.00097,0.08851,-0.07338,1.03871,6.68024,1.62311,1.92680,1.94016,-3.52821,11.02284,6.64083,-3.58606,11.21216,2.06169,2.06169,A,151047.20
6.70059,57.68778550,11.98127384,57.68778700,11.98127300,17:19:53.957056,0.00952,1.58445,1.58445,-0.05056,0.04458,-0.04052,-0.01027,-0.00830,0.17037,-0.04441,0.97521,6.69163,1.61538,1.94558,1.95882,-3.53627,11.04565,6.64083,-3.58606,11.21216,2.06169,2.06169,A,151047.20
6.71260,57.68778570,11.98127371,57.68778700,11.98127300,17:19:53.969057,0.01005,1.58445,1.58445,-0.05168,0.04424,-0.02738,-0.06266,-0.00738,0.02952,-0.06100,0.95788,6.70307,1.60919,1.96154,1.97468,-3.54413,11.06712,6.64083,-3.58606,11.21216,2.06169,2.06169,A,151047.20
6.72992,57.68778596,11.98127351,57.68778700,11.98127300,17:19:53.986160,0.01013,1.58445,1.58445,-0.05430,0.04390,-0.01578,-0.03746,-0.00204,-0.24833,-0.17239,1.02163,6.72085,1.60424,1.97549,1.98853,-3.55582,11.09683,6.64083,-3.58606,11.21216,2.06169,2.06169,A,151047.20
6.77568,57.68778619,11.98127334,57.68779117,11.98127133,17:19:54.031927,0.03867,1.58445,1.58445,-0.05625,0.04387,-0.01929,0.02928,0.00652,-0.07576,-0.11639,0.94147,6.73664,1.60029,1.98721,2.00024,-3.56580,11.12166,6.76669,-3.68513,11.67547,1.78144,1.78144,A,151047.40
6.79694,57.68778702,11.98127274,57.68779117,11.98127133,17:19:54.053197,0.01083,1.58445,1.58445,-0.05756,0.03900,-0.02555,0.00362,-0.01441,-0.09199,-0.02507,1.13911,6.78615,1.59712,1.95720,1.96878,-3.60177,11.21487,6.76669,-3.68513,11.67547,1.78144,1.78144,A,151047.40
6.81629,57.68778746,11.98127249,57.68779117,11.98127133,17:19:54.073473,0.01059,1.58445,1.58445,-0.05957,0.03527,-0.04327,0.00622,-0.03426,0.09693,-0.09906,1.04578,6.80678,1.59459,1.93013,1.94060,-3.61653,11.26309,6.76669,-3.68513,11.67547,1.78144,1.78144,A,151047.40
6.84001,57.68778790,11.98127224,57.68779117,11.98127133,17:19:54.096258,0.01228,1.58445,1.58445,-0.06127,0.03230,-0.05640,-0.01669,-0.02754,-0.11932,-0.04770,0.91836,6.82898,1.59256,1.90728,1.91687,-3.63111,11.31249,6.76669,-3.68513,11.67547,1.78144,1.78144,A,151047.40
6.85920,57.68778828,11.98127205,57.68779117,11.98127133,17:19:54.115456,0.01152,1.58445,1.58445,-0.06235,0.03111,-0.03425,0.01386,-0.01914,-0.13463,-0.04825,0.96118,6.84880,1.59094,1.88768,1.89692,-3.64231,11.35421,6.76669,-3.68513,11.67547,1.78144,1.78144,A,151047.40
6.89851,57.68778867,11.98127186,57.68779283,11.98127000,17:19:54.155068,0.02813,1.58445,1.58445,-0.06265,0.03088,-0.02219,0.03661,-0.00402,-0.05161,-0.01110,0.96282,6.87161,1.58964,1.87112,1.88029,-3.65390,11.39821,6.88872,-3.76438,11.86079,1.97489,1.97489,A,151047.50
6.92045,57.68778935,11.98127149,57.68779283,11.98127000,17:19:54.176897,0.01107,1.58445,1.58445,-0.06214,0.03091,-0.01303,0.04608,0.01721,0.01452,0.04233,1.01083,6.90980,1.58860,1.88668,1.89586,-3.67600,11.47318,6.88872,-3.76438,11.86079,1.97489,1.97489,A,151047.50
6.94124,57.68778978,11.98127125,57.68779283,11.98127000,17:19:54.197485,0.01004,1.58445,1.58445,-0.06162,0.03142,0.01507,-0.01027,0.02087,0.05911,-0.01379,1.15632,6.93200,1.58777,1.89927,1.90860,-3.69005,11.52112,6.88872,-3.76438,11.86079,1.97489,1.97489,A,151047.50
6.96246,57.68779015,11.98127104,57.68779283,11.98127000,17:19:54.218709,0.01223,1.58445,1.58445,-0.06145,0.03377,0.02378,0.02317,0.02438,-0.03965,-0.04801,1.11959,6.95138,1.58711,1.90978,1.91981,-3.70239,11.56267,6.88872,-3.76438,11.86079,1.97489,1.97489,A,151047.50
6.97944,57.68779049,11.98127085,57.68779283,11.98127000,17:19:54.235696,0.01115,1.62552,1.62552,-0.06197,0.03779,-0.00264,0.05448,0.02866,-0.05600,-0.04740,0.90439,6.96929,1.59479,1.91854,1.92976,-3.71390,11.60067,6.88872,-3.76438,11.86079,1.97489,1.97489,A,151047.50
