Time,lat_estimated,lon_estimated,latitude,longitude,RealTime,CalculationTime,MeasuredVelocity,FilteredVelocity,Roll,SteeringAngle,RollRate,gy,gz,ax,ay,az,imu_read_timing,v_estimated,yaw_estimated,heading_estimated,x_estimated,y_estimated,GPS_timestamp,x_GPS,y_GPS,theta_GPS,theta_GPS_noUnwrap,status,NMEA timestamp
0.08222,57.68793417,11.98132350,57.68793417,11.98132350,16:42:59.419320,0.08218,0.00000,1.50000,-0.00036,-0.00583,0.00226,-0.01150,-0.00864,-0.01360,0.00567,1.00668,0.00001,0.00000,0.00339,0.00000,0.00000,0.00000,0.02496,0.00000,0.00000,0.00000,0.00000,A,164259.30
0.10080,57.68793417,11.98132350,57.68793417,11.98132350,16:42:59.438143,0.00826,0.00000,0.00000,0.00075,-0.00583,0.01585,-0.01715,0.00007,-0.00207,0.00628,1.04328,0.09514,0.00000,0.00339,0.00000,0.00000,0.00000,0.02496,0.00000,0.00000,0.00000,0.00000,A,164259.30
0.10799,57.68793417,11.98132350,57.68793417,11.98132350,16:42:59.445292,0.00505,0.00000,0.00000,0.00036,-0.00583,0.01386,-0.01684,-0.00069,-0.02043,-0.00092,1.04652,0.10254,0.00000,0.00339,0.00000,0.00000,0.00000,0.02496,0.00000,0.00000,0.00000,0.00000,A,164259.30
0.11870,57.68793417,11.98132350,57.68793417,11.98132350,16:42:59.455776,0.00533,0.00000,0.00000,0.00007,-0.00583,0.01081,-0.02204,-0.00665,-0.03300,0.00506,1.03450,0.11295,0.00000,0.00339,0.00000,0.00000,0.00000,0.02496,0.00000,0.00000,0.00000,0.00000,A,164259.30
0.17237,57.68793417,11.98132350,57.68793333,11.98132517,16:42:59.509496,0.04860,0.00000,1.50000,-0.00012,-0.00583,0.01310,-0.02402,-0.00680,-0.04740,0.00921,0.99942,0.12339,0.00000,0.00339,0.00000,0.00000,0.00000,0.14075,0.09906,-0.09266,-0.75203,-0.75203,A,164259.40
0.19008,57.68793413,11.98132358,57.68793333,11.98132517,16:42:59.527185,0.00707,0.00000,0.00000,0.00064,-0.00583,0.02196,-0.01593,-0.00757,-0.00781,-0.00628,1.03486,0.18429,0.00000,-0.10941,-0.11281,0.00495,-0.00463,0.14075,0.09906,-0.09266,-0.75203,-0.75203,A,164259.40
0.19855,57.68793409,11.98132366,57.68793333,11.98132517,16:42:59.535625,0.00517,0.00000,0.00000,0.00026,-0.00583,0.01570,-0.02082,-0.00451,-0.01757,-0.00256,1.05219,0.19280,0.00000,-0.20530,-0.20869,0.00966,-0.00903,0.14075,0.09906,-0.09266,-0.75203,-0.75203,A,164259.40
0.20925,57.68793405,11.98132374,57.68793333,11.98132517,16:42:59.546346,0.00549,0.00000,0.00000,0.00015,-0.00583,0.01218,-0.02540,-0.00558,-0.04947,0.01684,1.05225,0.20338,0.00000,-0.28680,-0.29019,0.01413,-0.01322,0.14075,0.09906,-0.09266,-0.75203,-0.75203,A,164259.40
0.21923,57.68793401,11.98132381,57.68793333,11.98132517,16:42:59.556313,0.00511,0.00000,0.00000,0.00003,-0.00583,0.01753,-0.02082,-0.00421,-0.07131,0.01171,1.02352,0.21353,0.00000,-0.35608,-0.35947,0.01838,-0.01719,0.14075,0.09906,-0.09266,-0.75203,-0.75203,A,164259.40
0.22987,57.68793398,11.98132388,57.68793333,11.98132517,16:42:59.566953,0.00535,0.00000,0.00000,-0.00003,-0.00583,0.01417,-0.01394,-0.00741,-0.06759,0.01684,0.98112,0.22411,0.00000,-0.41496,-0.41835,0.02241,-0.02096,0.14075,0.09906,-0.09266,-0.75203,-0.75203,A,164259.40
0.24022,57.68793395,11.98132394,57.68793333,11.98132517,16:42:59.577299,0.00530,0.00000,0.00000,-0.00015,-0.00583,0.01783,-0.00539,-0.00528,-0.05155,0.00994,0.94696,0.23476,0.00000,-0.46501,-0.46840,0.02624,-0.02455,0.14075,0.09906,-0.09266,-0.75203,-0.75203,A,164259.40
0.29683,57.68793392,11.98132400,57.68793383,11.98132583,16:42:59.634464,0.05146,0.00000,1.50000,-0.00015,-0.00583,0.01951,-0.00921,-0.00772,-0.04673,0.01751,0.93544,0.24479,0.00000,-0.50756,-0.51095,0.02988,-0.02795,0.26087,0.13869,-0.03706,0.95159,0.95159,A,164259.50
0.31471,57.68793391,11.98132409,57.68793383,11.98132583,16:42:59.651791,0.00660,0.00000,0.00000,0.00060,-0.00583,0.01356,-0.01898,-0.00222,-0.07107,0.02483,1.03968,0.30874,0.00000,-0.28818,-0.29157,0.03532,-0.02841,0.26087,0.13869,-0.03706,0.95159,0.95159,A,164259.50
0.32355,57.68793391,11.98132418,57.68793383,11.98132583,16:42:59.660633,0.00504,0.00000,0.00000,0.00041,-0.00583,0.01127,-0.00921,-0.00299,-0.07771,0.01263,1.01858,0.31810,0.00000,-0.10170,-0.10509,0.04049,-0.02884,0.26087,0.13869,-0.03706,0.95159,0.95159,A,164259.50
0.33840,57.68793390,11.98132426,57.68793383,11.98132583,16:42:59.675489,0.00931,3.85297,0.00000,0.00040,-0.00575,0.01967,-0.00677,-0.00222,-0.03447,0.01214,0.98423,0.33227,0.00000,0.05679,0.05345,0.04540,-0.02925,0.26087,0.13869,-0.03706,0.95159,0.95159,A,164259.50
0.34857,57.68793390,11.98132434,57.68793383,11.98132583,16:42:59.685651,0.00897,3.85297,0.00000,0.00043,-0.00558,0.01218,-0.01181,-0.00222,-0.01183,0.02422,0.96288,0.34241,0.00000,0.19150,0.18826,0.05007,-0.02964,0.26087,0.13869,-0.03706,0.95159,0.95159,A,164259.50
0.35887,57.68793390,11.98132442,57.68793383,11.98132583,16:42:59.695956,0.00913,3.85297,0.00000,0.00038,-0.00529,0.00989,-0.02341,-0.00482,-0.01251,0.02031,0.95136,0.35309,0.00000,0.30597,0.30290,0.05450,-0.03001,0.26087,0.13869,-0.03706,0.95159,0.95159,A,164259.50
0.41147,57.68793389,11.98132449,57.68793400,11.98132517,16:42:59.749588,0.05149,3.85297,1.50000,0.00018,-0.00495,0.00944,-0.02845,-0.00253,-0.03764,0.01165,0.95197,0.36284,0.00000,0.40325,0.40037,0.05871,-0.03037,0.37974,0.09906,-0.01853,2.70412,2.70412,A,164259.60
0.43322,57.68793390,11.98132452,57.68793400,11.98132517,16:42:59.770323,0.00944,3.85297,1.50000,0.00028,-0.00391,0.00272,-0.00631,-0.00925,-0.03190,0.02672,1.02858,0.42747,0.30000,0.74872,0.74645,0.06072,-0.02977,0.37974,0.09906,-0.01853,2.70412,2.70412,A,164259.60
0.44370,57.68793392,11.98132458,57.68793400,11.98132517,16:42:59.780782,0.00959,3.85297,1.50000,0.00025,-0.00391,0.00165,-0.01043,-0.00283,-0.04435,0.02861,1.02407,0.43712,0.54000,1.04236,1.04009,0.06429,-0.02769,0.37974,0.09906,-0.01853,2.70412,2.70412,A,164259.60
0.45399,57.68793395,11.98132464,57.68793400,11.98132517,16:42:59.791076,0.00942,3.85297,1.50000,0.00012,-0.00391,-0.00156,-0.00936,-0.00344,-0.02123,0.02306,1.00827,0.44740,0.73200,1.29196,1.28968,0.06796,-0.02394,0.37974,0.09906,-0.01853,2.70412,2.70412,A,164259.60
0.46382,57.68793400,11.98132470,57.68793400,11.98132517,16:42:59.800901,0.00896,3.85297,1.50000,-0.00025,-0.00391,0.00378,-0.01730,-0.00467,0.00043,0.00299,0.98503,0.45828,0.88560,1.50410,1.50183,0.07106,-0.01831,0.37974,0.09906,-0.01853,2.70412,2.70412,A,164259.60
0.47438,57.68793406,11.98132473,57.68793400,11.98132517,16:42:59.811455,0.00919,3.85297,1.50000,-0.00071,-0.00391,-0.00309,-0.01990,-0.00741,-0.02196,0.00128,0.96923,0.46791,1.00848,1.68443,1.68215,0.07291,-0.01175,0.37974,0.09906,-0.01853,2.70412,2.70412,A,164259.60
0.52021,57.68793411,11.98132474,57.68793317,11.98132617,16:42:59.857321,0.04496,3.85297,1.50000,-0.00112,-0.00391,-0.00110,-0.01929,-0.00573,-0.05051,0.00299,0.95996,0.47676,1.10678,1.83770,1.83543,0.07357,-0.00626,0.49523,0.15850,-0.11119,-1.00047,-1.00047,A,164259.70
0.53673,57.68793453,11.98132457,57.68793317,11.98132617,16:42:59.874020,0.00843,3.85297,1.50000,-0.00144,-0.00391,-0.00156,-0.01379,-0.00451,-0.03062,0.01391,1.03316,0.53096,1.18543,1.41215,1.40988,0.06373,0.04047,0.49523,0.15850,-0.11119,-1.00047,-1.00047,A,164259.70
0.54762,57.68793456,11.98132468,57.68793317,11.98132617,16:42:59.884700,0.00911,3.85297,1.50000,-0.00151,-0.00391,-0.00003,-0.00860,-0.00207,-0.05667,0.02562,1.04170,0.54208,1.24834,1.05057,1.04830,0.07016,0.04328,0.49523,0.15850,-0.11119,-1.00047,-1.00047,A,164259.70
0.55945,57.68793456,11.98132483,57.68793317,11.98132617,16:42:59.896536,0.01073,3.85297,1.50000,-0.00162,-0.00391,0.00149,-0.00799,-0.00207,-0.05118,0.02092,1.02962,0.55122,1.29867,0.74323,0.74096,0.07912,0.04346,0.49523,0.15850,-0.11119,-1.00047,-1.00047,A,164259.70
0.58243,57.68793464,11.98132522,57.68793317,11.98132617,16:42:59.919508,0.01156,3.85297,1.50000,-0.00201,-0.00391,0.00378,-0.00524,-0.00329,-0.00756,-0.00342,0.97704,0.57659,1.33894,0.48194,0.47966,0.10212,0.05313,0.49523,0.15850,-0.11119,-1.00047,-1.00047,A,164259.70
0.65945,57.68793466,11.98132558,57.68793317,11.98132800,16:42:59.996556,0.06756,3.85297,1.50000,-0.00233,-0.00388,-0.00278,-0.01440,-0.00222,-0.04758,0.01049,0.96636,0.59526,1.37115,0.25985,0.25760,0.12363,0.05464,0.62610,0.26747,-0.11119,0.00000,0.00000,A,164259.90
0.68171,57.68793481,11.98132733,57.68793317,11.98132800,16:43:00.018794,0.01001,3.85297,1.50000,-0.00300,-0.00368,-0.00400,-0.00783,-0.00741,-0.02519,0.00451,0.98393,0.67591,1.39692,0.22089,0.21875,0.22745,0.07180,0.62610,0.26747,-0.11119,0.00000,0.00000,A,164259.90
0.69972,57.68793477,11.98132771,57.68793317,11.98132800,16:43:00.036806,0.00930,3.85297,1.50000,-0.00342,-0.00362,-0.00950,-0.01272,-0.00711,-0.02898,0.01019,0.97637,0.69416,1.41754,0.18801,0.18591,0.25045,0.06732,0.62610,0.26747,-0.11119,0.00000,0.00000,A,164259.90
0.71008,57.68793471,11.98132790,57.68793317,11.98132800,16:43:00.047167,0.00947,3.85297,1.50000,-0.00375,-0.00362,-0.00965,-0.00646,-0.00909,-0.04532,0.01061,0.98552,0.70320,1.43403,0.16010,0.15799,0.26126,0.06027,0.62610,0.26747,-0.11119,0.00000,0.00000,A,164259.90
0.72002,57.68793465,11.98132808,57.68793317,11.98132800,16:43:00.057475,0.00907,3.85297,1.50000,-0.00395,-0.00362,-0.00828,-0.00539,-0.01245,-0.04697,0.01946,0.99753,0.71432,1.44722,0.13637,0.13426,0.27229,0.05340,0.62610,0.26747,-0.11119,0.00000,0.00000,A,164259.90
0.77402,57.68793459,11.98132827,57.68793317,11.98132883,16:43:00.111149,0.05241,3.85297,1.50000,-0.00432,-0.00362,-0.00507,0.00026,-0.00971,-0.02635,0.00561,1.00058,0.72422,1.45778,0.11620,0.11409,0.28357,0.04673,0.74140,0.31700,-0.11119,0.00000,0.00000,A,164300.00
0.79450,57.68793460,11.98132973,57.68793317,11.98132883,16:43:00.131584,0.00899,3.85297,1.50000,-0.00561,-0.00359,-0.01240,-0.01028,-0.01001,-0.01025,-0.00781,0.99515,0.78870,1.46622,0.09884,0.09675,0.37030,0.04858,0.74140,0.31700,-0.11119,0.00000,0.00000,A,164300.00
0.80472,57.68793454,11.98132988,57.68793317,11.98132883,16:43:00.141797,0.00899,3.85297,1.50000,-0.00621,-0.00359,-0.01637,-0.01226,-0.01383,-0.03154,-0.00366,0.99930,0.79923,1.47298,0.08429,0.08220,0.37934,0.04173,0.74140,0.31700,-0.11119,0.00000,0.00000,A,164300.00
0.81508,57.68793448,11.98133002,57.68793317,11.98132883,16:43:00.152179,0.00905,3.85297,1.50000,-0.00664,-0.00359,-0.01973,-0.00890,-0.01184,-0.04868,0.00854,0.99735,0.80915,1.47838,0.07193,0.06984,0.38757,0.03502,0.74140,0.31700,-0.11119,0.00000,0.00000,A,164300.00
0.82485,57.68793442,11.98133015,57.68793317,11.98132883,16:43:00.162194,0.00888,3.85297,1.50000,-0.00691,-0.00359,-0.01210,-0.00799,-0.01184,-0.04514,0.01354,0.98588,0.81937,1.48271,0.06142,0.05933,0.39548,0.02851,0.74140,0.31700,-0.11119,0.00000,0.00000,A,164300.00
0.83499,57.68793437,11.98133028,57.68793317,11.98132883,16:43:00.172073,0.00880,3.85297,1.50000,-0.00710,-0.00359,-0.01103,-0.00218,-0.00787,-0.02617,0.01769,0.98082,0.82920,1.48616,0.05249,0.05040,0.40288,0.02219,0.74140,0.31700,-0.11119,0.00000,0.00000,A,164300.00
0.89231,57.68793431,11.98133041,57.68793267,11.98133017,16:43:00.229425,0.05590,3.85297,1.50000,-0.00745,-0.00359,-0.00187,-0.00157,-0.00635,-0.02214,0.00165,0.99375,0.83989,1.48893,0.04490,0.04281,0.41074,0.01614,0.85602,0.39625,-0.16679,-0.61177,-0.61177,A,164300.10
0.91032,57.68793426,11.98133188,57.68793267,11.98133017,16:43:00.247409,0.00945,3.85297,1.50000,-0.00772,-0.00359,0.00180,-0.00967,-0.00665,-0.00531,-0.00262,0.99576,0.90427,1.49115,-0.05354,-0.05563,0.49810,0.01076,0.85602,0.39625,-0.16679,-0.61177,-0.61177,A,164300.10
0.92006,57.68793418,11.98133198,57.68793267,11.98133017,16:43:00.257143,0.00886,3.85297,1.50000,-0.00805,-0.00359,0.00852,-0.00799,-0.01413,-0.02629,-0.00500,0.99393,0.91457,1.49292,-0.13699,-0.13908,0.50427,0.00126,0.85602,0.39625,-0.16679,-0.61177,-0.61177,A,164300.10
0.93077,57.68793409,11.98133210,57.68793267,11.98133017,16:43:00.267853,0.00891,3.85297,1.50000,-0.00832,-0.00359,-0.00034,-0.01257,-0.01184,-0.04758,0.00427,0.99216,0.92495,1.49433,-0.20793,-0.21002,0.51096,-0.00884,0.85602,0.39625,-0.16679,-0.61177,-0.61177,A,164300.10
0.94176,57.68793399,11.98133221,57.68793267,11.98133017,16:43:00.278843,0.00969,3.85297,1.50000,-0.00858,-0.00359,0.00211,-0.00753,-0.00986,-0.03019,0.00317,0.97411,0.93597,1.49547,-0.26822,-0.27031,0.51760,-0.01937,0.85602,0.39625,-0.16679,-0.61177,-0.61177,A,164300.10
0.95170,57.68793390,11.98133229,57.68793267,11.98133017,16:43:00.288782,0.00905,3.85297,1.50000,-0.00883,-0.00359,0.00867,-0.00677,-0.01230,-0.00281,-0.00012,0.96752,0.94612,1.49637,-0.31947,-0.32156,0.52264,-0.02982,0.85602,0.39625,-0.16679,-0.61177,-0.61177,A,164300.10
1.00965,57.68793380,11.98133237,57.68793133,11.98133267,16:43:00.346761,0.05683,3.85297,1.50000,-0.00915,-0.00359,0.00546,-0.00661,-0.01413,-0.00781,-0.00299,0.97929,0.95595,1.49710,-0.36304,-0.36513,0.52709,-0.04026,0.97212,0.54484,-0.31505,-0.78428,-0.78428,A,164300.20
1.03019,57.68793338,11.98133386,57.68793133,11.98133267,16:43:00.367273,0.00994,3.85297,1.50000,-0.00895,-0.00359,0.00516,-0.01119,-0.01520,-0.02617,0.01098,0.99942,1.02427,1.49768,-0.42617,-0.42826,0.61598,-0.08764,0.97212,0.54484,-0.31505,-0.78428,-0.78428,A,164300.20
1.04028,57.68793323,11.98133398,57.68793133,11.98133267,16:43:00.377365,0.00922,3.85297,1.50000,-0.00887,-0.00359,0.01035,-0.01562,-0.01719,-0.03928,0.02013,0.99948,1.03448,1.49814,-0.47961,-0.48170,0.62279,-0.10374,0.97212,0.54484,-0.31505,-0.78428,-0.78428,A,164300.20
1.05044,57.68793309,11.98133408,57.68793133,11.98133267,16:43:00.387518,0.00899,3.85297,1.50000,-0.00878,-0.00359,0.01386,-0.01562,-0.00864,-0.03276,0.01836,0.99924,1.04459,1.49851,-0.52503,-0.52712,0.62901,-0.11960,0.97212,0.54484,-0.31505,-0.78428,-0.78428,A,164300.20
1.06064,57.68793295,11.98133419,57.68793133,11.98133267,16:43:00.397724,0.00898,3.85297,1.50000,-0.00885,-0.00359,0.02150,-0.01532,-0.00741,-0.01751,0.00189,0.98338,1.05512,1.49881,-0.56363,-0.56572,0.63514,-0.13538,0.97212,0.54484,-0.31505,-0.78428,-0.78428,A,164300.20
1.07035,57.68793282,11.98133426,57.68793133,11.98133267,16:43:00.408121,0.00856,3.85297,1.50000,-0.00916,-0.00359,0.02089,-0.01349,-0.00741,-0.01861,-0.01098,0.99119,1.06414,1.49905,-0.59645,-0.59854,0.63929,-0.14987,0.97212,0.54484,-0.31505,-0.78428,-0.78428,A,164300.20
1.12725,57.68793268,11.98133435,57.68793050,11.98133433,16:43:00.464380,0.05528,3.85297,1.50000,-0.00934,-0.00359,0.01707,-0.01715,-0.00176,-0.03989,-0.00305,0.99924,1.07519,1.49924,-0.62434,-0.62643,0.64465,-0.16501,1.09135,0.64390,-0.40771,-0.75203,-0.75203,A,164300.30
1.14863,57.68793208,11.98133561,57.68793050,11.98133433,16:43:00.485716,0.01048,3.85297,1.50000,-0.00785,-0.00359,0.02119,-0.02372,-0.01474,-0.01800,0.02824,1.01943,1.14200,1.49939,-0.64344,-0.64553,0.72004,-0.23173,1.09135,0.64390,-0.40771,-0.75203,-0.75203,A,164300.30
1.16844,57.68793186,11.98133590,57.68793050,11.98133433,16:43:00.505525,0.00942,3.85297,1.50000,-0.00762,-0.00359,0.01906,-0.01883,-0.00589,-0.03434,0.01226,1.01803,1.16290,1.49951,-0.65949,-0.66158,0.73673,-0.25596,1.09135,0.64390,-0.40771,-0.75203,-0.75203,A,164300.30
1.17863,57.68793173,11.98133597,57.68793050,11.98133433,16:43:00.515708,0.00904,3.85297,1.50000,-0.00763,-0.00357,0.02150,-0.01150,-0.00329,-0.03532,0.00805,1.00522,1.17281,1.49961,-0.67309,-0.67517,0.74119,-0.27064,1.09135,0.64390,-0.40771,-0.75203,-0.75203,A,164300.30
1.18878,57.68793161,11.98133603,57.68793050,11.98133433,16:43:00.526119,0.00898,3.85297,1.50000,-0.00770,-0.00351,0.01738,-0.01013,0.00114,-0.04008,0.00708,0.97942,1.18259,1.49969,-0.68466,-0.68670,0.74488,-0.28434,1.09135,0.64390,-0.40771,-0.75203,-0.75203,A,164300.30
1.25271,57.68793150,11.98133608,57.68793133,11.98133783,16:43:00.589817,0.06278,3.85297,1.50000,-0.00746,-0.00345,0.02394,-0.00264,0.00053,-0.05289,0.02227,0.95721,1.19221,1.49975,-0.69449,-0.69650,0.74773,-0.29698,1.21986,0.85193,-0.31505,0.41905,0.41905,A,164300.50
1.27057,57.68793091,11.98133746,57.68793133,11.98133783,16:43:00.607648,0.00733,3.85297,1.50000,-0.00660,-0.00314,0.01554,-0.00738,-0.01001,-0.03770,0.00689,1.02559,1.26477,1.49980,-0.52745,-0.52928,0.82950,-0.36192,1.21986,0.85193,-0.31505,0.41905,0.41905,A,164300.50
1.28290,57.68793087,11.98133769,57.68793133,11.98133783,16:43:00.619987,0.00943,3.85297,1.50000,-0.00650,-0.00272,0.01906,-0.00432,-0.01077,-0.01751,0.01537,1.00430,1.27711,1.49984,-0.38528,-0.38686,0.84325,-0.36696,1.21986,0.85193,-0.31505,0.41905,0.41905,A,164300.50
1.29339,57.68793085,11.98133788,57.68793133,11.98133783,16:43:00.630491,0.00963,3.85297,1.50000,-0.00643,-0.00226,0.01829,-0.00921,-0.00741,-0.01281,0.01543,0.97301,1.28759,1.49987,-0.26446,-0.26577,0.85477,-0.36888,1.21986,0.85193,-0.31505,0.41905,0.41905,A,164300.50
1.30368,57.68793085,11.98133805,57.68793133,11.98133783,16:43:00.640756,0.00914,3.85297,1.50000,-0.00650,-0.00181,0.02287,-0.01257,-0.00405,-0.00592,0.00714,0.96349,1.29612,1.49990,-0.16179,-0.16285,0.86497,-0.36901,1.21986,0.85193,-0.31505,0.41905,0.41905,A,164300.50
1.31426,57.68793086,11.98133823,57.68793133,11.98133783,16:43:00.651347,0.00950,3.85297,1.50000,-0.00655,-0.00119,0.01600,-0.01425,-0.00696,-0.03251,0.00836,0.97246,1.30795,1.49992,-0.07458,-0.07527,0.87559,-0.36816,1.21986,0.85193,-0.31505,0.41905,0.41905,A,164300.50
1.36848,57.68793087,11.98133840,57.68793067,11.98133867,16:43:00.706522,0.05334,3.85297,1.50000,-0.00640,-0.00079,0.02058,-0.01211,-0.00680,-0.07259,0.02001,0.98972,1.31844,1.49993,-0.00048,-0.00094,0.88584,-0.36637,1.33447,0.90146,-0.38918,-0.98176,-0.98176,A,164300.60
1.38814,57.68793086,11.98133991,57.68793067,11.98133867,16:43:00.725214,0.00806,0.00000,0.00000,-0.00516,-0.00054,0.01783,-0.01364,0.00007,-0.04032,0.03196,1.00418,1.38265,1.19995,-0.14768,-0.14799,0.97557,-0.36759,1.33447,0.90146,-0.38918,-0.98176,-0.98176,A,164300.60
1.39552,57.68793084,11.98133996,57.68793067,11.98133867,16:43:00.732590,0.00503,0.00000,0.00000,-0.00502,-0.00054,0.01341,-0.00722,-0.00176,-0.02281,0.02904,0.99711,1.39005,0.95996,-0.27274,-0.27306,0.97820,-0.36962,1.33447,0.90146,-0.38918,-0.98176,-0.98176,A,164300.60
1.40640,57.68793081,11.98134002,57.68793067,11.98133867,16:43:00.743478,0.00551,0.00000,0.00000,-0.00489,-0.00054,0.01661,-0.01104,-0.00451,-0.00634,0.02306,0.97917,1.40049,0.76797,-0.37905,-0.37937,0.98197,-0.37273,1.33447,0.90146,-0.38918,-0.98176,-0.98176,A,164300.60
1.41653,57.68793079,11.98134005,57.68793067,11.98133867,16:43:00.753609,0.00524,0.00000,0.00000,-0.00489,-0.00054,0.01402,-0.00967,-0.00833,-0.02501,0.01580,0.96892,1.41107,0.61437,-0.46942,-0.46973,0.98363,-0.37581,1.33447,0.90146,-0.38918,-0.98176,-0.98176,A,164300.60
1.42669,57.68793076,11.98134005,57.68793067,11.98133867,16:43:00.763770,0.00517,0.00000,0.00000,-0.00515,-0.00051,0.01142,-0.00432,-0.00635,-0.04764,0.00134,0.97698,1.42096,0.49150,-0.54622,-0.54652,0.98375,-0.37863,1.33447,0.90146,-0.38918,-0.98176,-0.98176,A,164300.60
1.47143,57.68793074,11.98134004,57.68793117,11.98133783,16:43:00.808525,0.03951,0.00000,1.50000,-0.00515,-0.00042,0.00882,-0.00295,-0.00528,-0.06265,0.01989,0.99491,1.43153,0.39320,-0.61152,-0.61177,0.98304,-0.38123,1.44883,0.85193,-0.33358,2.29855,2.29855,A,164300.70
1.48168,57.68793068,11.98134014,57.68793117,11.98133783,16:43:00.818761,0.00548,0.00000,0.00000,-0.00510,-0.00017,0.00424,-0.01975,-0.00604,-0.05862,0.01800,1.03663,1.47589,0.31456,-0.17500,-0.17510,0.98916,-0.38774,1.44883,0.85193,-0.33358,2.29855,2.29855,A,164300.70
1.49167,57.68793070,11.98134007,57.68793117,11.98133783,16:43:00.828747,0.00507,0.00000,0.00000,-0.00510,-0.00017,0.00195,-0.01058,-0.00390,-0.07326,0.02501,1.01803,1.48621,0.25165,0.19605,0.19595,0.98473,-0.38546,1.44883,0.85193,-0.33358,2.29855,2.29855,A,164300.70
1.50234,57.68793073,11.98133999,57.68793117,11.98133783,16:43:00.839425,0.00517,0.00000,0.00000,-0.00509,-0.00017,-0.00034,-0.00173,-0.00589,-0.05020,0.02708,1.00400,1.49659,0.20132,0.51144,0.51134,0.98011,-0.38247,1.44883,0.85193,-0.33358,2.29855,2.29855,A,164300.70
1.51264,57.68793076,11.98133991,57.68793117,11.98133783,16:43:00.849723,0.00509,0.00000,0.00000,-0.00517,-0.00017,0.00027,0.00438,-0.00650,-0.02757,0.02019,0.99491,1.50718,0.16105,0.77952,0.77942,0.97513,-0.37922,1.44883,0.85193,-0.33358,2.29855,2.29855,A,164300.70
1.52331,57.68793078,11.98133982,57.68793117,11.98133783,16:43:00.860388,0.00535,0.00000,0.00000,-0.00562,-0.00017,-0.00507,0.00316,-0.00344,-0.01342,-0.00043,0.97490,1.51735,0.12884,1.00739,1.00729,0.96988,-0.37604,1.44883,0.85193,-0.33358,2.29855,2.29855,A,164300.70
1.53452,57.68793081,11.98133973,57.68793117,11.98133783,16:43:00.871606,0.00617,0.00000,0.00000,-0.00572,-0.00017,-0.01057,0.00209,-0.00696,-0.01891,0.02525,0.97033,1.52796,0.10307,1.20108,1.20098,0.96453,-0.37305,1.44883,0.85193,-0.33358,2.29855,2.29855,A,164300.70
1.54406,57.68793084,11.98133964,57.68793117,11.98133783,16:43:00.881135,0.00530,0.00000,0.00000,-0.00561,-0.00017,-0.01301,-0.00524,-0.00375,-0.01873,0.04020,0.96142,1.53859,0.08246,1.36571,1.36561,0.95918,-0.37036,1.44883,0.85193,-0.33358,2.29855,2.29855,A,164300.70
1.59947,57.68793086,11.98133955,57.68793117,11.98133700,16:43:00.936587,0.05009,0.00000,1.50000,-0.00533,-0.00017,-0.01546,-0.00432,-0.00528,-0.03959,0.05398,0.98588,1.54880,0.06597,1.50565,1.50556,0.95395,-0.36788,1.56499,0.80240,-0.33358,3.14159,3.14159,A,164300.80
1.61426,57.68793091,11.98133943,57.68793117,11.98133700,16:43:00.951344,0.00698,0.00000,0.00000,-0.00715,-0.00014,-0.02905,-0.00188,-0.00696,-0.00256,0.01806,0.98423,1.60832,0.05277,1.75106,1.75097,0.94661,-0.36257,1.56499,0.80240,-0.33358,3.14159,3.14159,A,164300.80
1.62274,57.68793092,11.98133930,57.68793117,11.98133700,16:43:00.959815,0.00523,0.00000,0.00000,-0.00726,-0.00011,-0.02630,-0.00585,-0.00497,-0.03587,0.03026,0.97771,1.61694,0.04222,1.95965,1.95958,0.93934,-0.36080,1.56499,0.80240,-0.33358,3.14159,3.14159,A,164300.80
1.63322,57.68793094,11.98133919,57.68793117,11.98133700,16:43:00.970311,0.00531,0.00000,0.00000,-0.00774,-0.00006,-0.02431,-0.00402,-0.00604,-0.01653,0.00878,0.96160,1.62753,0.03378,2.13694,2.13691,0.93236,-0.35913,1.56499,0.80240,-0.33358,3.14159,3.14159,A,164300.80
1.64401,57.68793095,11.98133907,57.68793117,11.98133700,16:43:00.981090,0.00587,0.00000,0.00000,-0.00813,0.00003,-0.03195,-0.00570,-0.00222,-0.02141,0.01995,0.98735,1.63853,0.02702,2.28764,2.28765,0.92571,-0.35760,1.56499,0.80240,-0.33358,3.14159,3.14159,A,164300.80
1.65432,57.68793096,11.98133897,57.68793117,11.98133700,16:43:00.991398,0.00577,0.00000,0.00000,-0.00854,0.00014,-0.02676,-0.00295,-0.00436,-0.01976,0.01336,1.00016,1.64854,0.02162,2.41572,2.41580,0.91940,-0.35624,1.56499,0.80240,-0.33358,3.14159,3.14159,A,164300.80
1.66397,57.68793097,11.98133887,57.68793117,11.98133700,16:43:01.001048,0.00502,0.00000,0.00000,-0.00868,0.00028,-0.03730,-0.00310,-0.00894,-0.02916,0.03922,1.02889,1.65852,0.01729,2.52458,2.52474,0.91343,-0.35500,1.56499,0.80240,-0.33358,3.14159,3.14159,A,164300.80
1.71940,57.68793098,11.98133877,57.68793200,11.98133700,16:43:01.056508,0.05002,0.00000,1.50000,-0.00890,0.00045,-0.03287,-0.00280,-0.00635,-0.02696,0.03080,1.02486,1.66880,0.01383,2.61709,2.61735,0.90776,-0.35385,1.68716,0.80240,-0.24092,1.57080,1.57080,A,164300.90
1.73809,57.68793104,11.98133867,57.68793200,11.98133700,16:43:01.075174,0.00646,0.00000,0.00000,-0.01055,0.00164,-0.02829,-0.01058,-0.00451,-0.06301,0.02922,0.98558,1.73229,0.01107,2.46000,2.46096,0.90180,-0.34780,1.68716,0.80240,-0.24092,1.57080,1.57080,A,164300.90
1.74715,57.68793109,11.98133859,57.68793200,11.98133700,16:43:01.084232,0.00511,0.00000,0.00000,-0.01109,0.00175,-0.02431,0.00194,-0.00833,0.01696,-0.00061,0.97295,1.74143,0.00885,2.32647,2.32749,0.89677,-0.34241,1.68716,0.80240,-0.24092,1.57080,1.57080,A,164300.90
1.75778,57.68793113,11.98133851,57.68793200,11.98133700,16:43:01.094861,0.00534,0.00000,0.00000,-0.01151,0.00192,-0.03226,-0.00829,-0.00360,0.01555,0.01464,0.99223,1.75205,0.00708,2.21295,2.21407,0.89200,-0.33728,1.68716,0.80240,-0.24092,1.57080,1.57080,A,164300.90
1.76788,57.68793118,11.98133843,57.68793200,11.98133700,16:43:01.104966,0.00505,0.00000,0.00000,-0.01177,0.00218,-0.02340,-0.01013,-0.00085,-0.08936,0.01848,1.02035,1.76241,0.00567,2.11644,2.11770,0.88749,-0.33242,1.68716,0.80240,-0.24092,1.57080,1.57080,A,164300.90
1.77942,57.68793122,11.98133836,57.68793200,11.98133700,16:43:01.116518,0.00592,0.00000,0.00000,-0.01166,0.00249,-0.02859,0.00347,0.00144,-0.10254,0.04856,1.03865,1.77293,0.00453,2.03437,2.03582,0.88321,-0.32780,1.68716,0.80240,-0.24092,1.57080,1.57080,A,164300.90
1.83037,57.68793126,11.98133829,57.68793183,11.98133717,16:43:01.167476,0.04647,0.00000,1.50000,-0.01219,0.00286,-0.02126,0.01278,-0.00131,-0.00281,-0.00140,1.01736,1.78351,0.00363,1.96459,1.96625,0.87915,-0.32343,1.79952,0.81230,-0.25945,-1.07991,-1.07991,A,164301.00
1.84832,57.68793129,11.98133823,57.68793183,11.98133717,16:43:01.185407,0.00802,0.00000,0.00000,-0.01341,0.00487,-0.01515,0.00148,-0.00436,-0.01543,-0.00433,0.95770,1.84140,0.00290,1.50749,1.51032,0.87573,-0.32005,1.79952,0.81230,-0.25945,-1.07991,-1.07991,A,164301.00
1.85577,57.68793132,11.98133818,57.68793183,11.98133717,16:43:01.192851,0.00506,0.00000,0.00000,-0.01365,0.00521,-0.01149,-0.00692,0.00083,-0.02373,0.00787,0.96002,1.85030,0.00232,1.11893,1.12195,0.87256,-0.31700,1.79952,0.81230,-0.25945,-1.07991,-1.07991,A,164301.00
1.86688,57.68793134,11.98133813,57.68793183,11.98133717,16:43:01.203959,0.00563,0.00000,0.00000,-0.01385,0.00569,-0.01088,-0.00020,-0.00192,-0.10096,0.01165,0.99479,1.86111,0.00186,0.78860,0.79191,0.86956,-0.31411,1.79952,0.81230,-0.25945,-1.07991,-1.07991,A,164301.00
1.87675,57.68793137,11.98133808,57.68793183,11.98133717,16:43:01.214057,0.00509,0.00000,0.00000,-0.01407,0.00628,-0.00492,0.00881,-0.00008,-0.03812,0.00598,0.98381,1.87129,0.00149,0.50778,0.51143,0.86671,-0.31136,1.79952,0.81230,-0.25945,-1.07991,-1.07991,A,164301.00
1.88717,57.68793139,11.98133804,57.68793183,11.98133717,16:43:01.224244,0.00511,0.00000,0.00000,-0.01479,0.00693,-0.00095,0.00774,0.00175,0.05295,-0.02910,0.95001,1.88145,0.00119,0.26902,0.27305,0.86400,-0.30876,1.79952,0.81230,-0.25945,-1.07991,-1.07991,A,164301.00
1.89797,57.68793141,11.98133799,57.68793183,11.98133717,16:43:01.235050,0.00552,0.00000,0.00000,-0.01524,0.00770,-0.00599,-0.00753,0.00099,0.02355,-0.00915,0.96404,1.89207,0.00095,0.06601,0.07049,0.86142,-0.30629,1.79952,0.81230,-0.25945,-1.07991,-1.07991,A,164301.00
1.96043,57.68793143,11.98133795,57.68793217,11.98133750,16:43:01.297559,0.05758,0.00000,1.50000,-0.01527,0.00843,-0.01240,-0.01196,0.00251,-0.09882,0.02294,1.02230,1.90244,0.00076,-0.10661,-0.10171,0.85897,-0.30395,1.92877,0.83212,-0.22239,1.07991,1.07991,A,164301.20
1.97780,57.68793147,11.98133793,57.68793217,11.98133750,16:43:01.314882,0.00704,0.00000,0.00000,-0.01470,0.01387,0.00928,0.00973,0.01213,-0.07936,0.01159,0.96459,1.97201,0.00061,0.07016,0.07822,0.85768,-0.29988,1.92877,0.83212,-0.22239,1.07991,1.07991,A,164301.20
1.98648,57.68793150,11.98133791,57.68793217,11.98133750,16:43:01.323555,0.00518,0.00000,0.00000,-0.01526,0.01463,0.00546,0.01156,0.01442,0.00482,-0.02318,0.95105,1.98072,0.00049,0.22034,0.22885,0.85640,-0.29600,1.92877,0.83212,-0.22239,1.07991,1.07991,A,164301.20
1.99675,57.68793154,11.98133789,57.68793217,11.98133750,16:43:01.334054,0.00505,0.00000,0.00000,-0.01582,0.01551,0.00608,0.00454,0.01045,0.05398,-0.02446,0.94648,1.99130,0.00039,0.34792,0.35694,0.85519,-0.29232,1.92877,0.83212,-0.22239,1.07991,1.07991,A,164301.20
2.00722,57.68793157,11.98133787,57.68793217,11.98133750,16:43:01.344303,0.00513,0.00000,0.00000,-0.01599,0.01627,0.00256,-0.01608,0.01076,0.02324,0.00232,0.97515,2.00152,0.00031,0.45630,0.46577,0.85404,-0.28882,1.92877,0.83212,-0.22239,1.07991,1.07991,A,164301.20
2.02022,57.68793160,11.98133785,57.68793217,11.98133750,16:43:01.357348,0.00773,0.00000,0.00000,-0.01599,0.01698,0.00302,-0.02341,0.00862,-0.05569,0.01354,1.00912,2.01232,0.00025,0.54836,0.55824,0.85295,-0.28550,1.92877,0.83212,-0.22239,1.07991,1.07991,A,164301.20
2.02794,57.68793163,11.98133783,57.68793217,11.98133750,16:43:01.365016,0.00513,0.00000,0.00000,-0.01555,0.01760,0.00241,-0.01654,0.00893,-0.08686,0.04380,1.03407,2.02244,0.00020,0.62656,0.63680,0.85191,-0.28234,1.92877,0.83212,-0.22239,1.07991,1.07991,A,164301.20
2.08331,57.68793165,11.98133782,57.68793350,11.98133717,16:43:01.420408,0.04995,0.00000,1.50000,-0.01527,0.01828,0.01173,-0.00615,0.00770,-0.06509,0.02818,1.04731,2.03276,0.00016,0.69297,0.70360,0.85092,-0.27935,2.04929,0.81230,-0.07413,1.70364,1.70364,A,164301.30
2.09760,57.68793175,11.98133778,57.68793350,11.98133717,16:43:01.434678,0.00704,0.00000,0.00000,-0.01458,0.02428,0.01432,-0.00157,0.01229,-0.01830,0.00604,0.95904,2.09181,0.00013,0.84245,0.85657,0.84900,-0.26908,2.04929,0.81230,-0.07413,1.70364,1.70364,A,164301.30
2.10629,57.68793183,11.98133775,57.68793350,11.98133717,16:43:01.443371,0.00516,0.00000,0.00000,-0.01492,0.02522,0.00424,-0.00157,0.01687,0.02672,-0.00848,0.94166,2.10053,0.00010,0.96943,0.98409,0.84716,-0.25933,2.04929,0.81230,-0.07413,1.70364,1.70364,A,164301.30
2.11662,57.68793192,11.98133772,57.68793350,11.98133717,16:43:01.453700,0.00509,0.00000,0.00000,-0.01482,0.02618,0.00592,-0.01486,0.01519,0.01482,0.01836,0.96478,2.11115,0.00008,1.07728,1.09250,0.84542,-0.25007,2.04929,0.81230,-0.07413,1.70364,1.70364,A,164301.30
2.12711,57.68793200,11.98133770,57.68793350,11.98133717,16:43:01.464188,0.00535,0.00000,0.00000,-0.01453,0.02700,0.00867,-0.01852,0.01320,-0.03727,0.02965,0.97911,2.12121,0.00007,1.16888,1.18458,0.84376,-0.24127,2.04929,0.81230,-0.07413,1.70364,1.70364,A,164301.30
2.13747,57.68793207,11.98133767,57.68793350,11.98133717,16:43:01.474545,0.00531,0.00000,0.00000,-0.01404,0.02779,0.01402,-0.01211,0.01458,-0.05984,0.03983,1.02358,2.13179,0.00005,1.24667,1.26283,0.84219,-0.23292,2.04929,0.81230,-0.07413,1.70364,1.70364,A,164301.30
2.14760,57.68793214,11.98133764,57.68793350,11.98133717,16:43:01.484676,0.00510,0.00000,0.00000,-0.01401,0.02861,0.00974,-0.00906,0.01824,-0.06564,0.01336,1.04469,2.14211,0.00004,1.31272,1.32936,0.84070,-0.22498,2.04929,0.81230,-0.07413,1.70364,1.70364,A,164301.30
2.20446,57.68793221,11.98133762,57.68793417,11.98133600,16:43:01.542438,0.05157,0.00000,1.50000,-0.01394,0.02958,0.00577,-0.00280,0.02603,0.00665,0.01891,1.03712,2.15249,0.00003,1.36877,1.38598,0.83928,-0.21743,2.16864,0.74296,0.00000,2.32284,2.32284,A,164301.40
2.22266,57.68793231,11.98133754,57.68793417,11.98133600,16:43:01.559736,0.00640,0.94891,0.94891,-0.01380,0.03354,0.00317,-0.02616,0.01641,0.07064,0.01537,1.00522,2.21684,0.18981,1.50896,1.52847,0.83446,-0.20656,2.16864,0.74296,0.00000,2.32284,2.32284,A,164301.40
2.23174,57.68793241,11.98133746,57.68793417,11.98133600,16:43:01.568814,0.00508,0.94891,0.94891,-0.01379,0.03377,0.00562,-0.03914,0.02053,0.00262,0.01696,0.98674,2.22626,0.34163,1.62813,1.64777,0.82994,-0.19491,2.16864,0.74296,0.00000,2.32284,2.32284,A,164301.40
2.24269,57.68793253,11.98133739,57.68793417,11.98133600,16:43:01.579777,0.00547,0.94891,0.94891,-0.01408,0.03399,0.00714,-0.03548,0.02175,-0.10053,-0.00415,0.98545,2.23663,0.46308,1.72944,1.74922,0.82538,-0.18238,2.16864,0.74296,0.00000,2.32284,2.32284,A,164301.40
2.25270,57.68793264,11.98133731,57.68793417,11.98133600,16:43:01.589776,0.00508,0.94891,0.94891,-0.01448,0.03413,0.00455,-0.01623,0.02114,-0.08674,-0.01013,0.99589,2.24723,0.56025,1.81558,1.83543,0.82060,-0.16959,2.16864,0.74296,0.00000,2.32284,2.32284,A,164301.40
2.26311,57.68793276,11.98133722,57.68793417,11.98133600,16:43:01.600188,0.00510,0.94891,0.94891,-0.01440,0.03419,0.00592,-0.00890,0.02618,-0.02757,0.02056,1.00016,2.25740,0.63798,1.88880,1.90869,0.81554,-0.15679,2.16864,0.74296,0.00000,2.32284,2.32284,A,164301.40
2.31483,57.68793287,11.98133713,57.68793433,11.98133550,16:43:01.651938,0.04643,0.94891,1.50000,-0.01414,0.03419,0.00760,-0.01043,0.02588,0.03812,0.03196,1.01687,2.26802,0.70017,1.95106,1.97095,0.81018,-0.14402,2.28414,0.71324,0.01853,2.58400,2.58400,A,164301.50
2.33333,57.68793326,11.98133680,57.68793433,11.98133550,16:43:01.670421,0.00706,0.94891,0.94891,-0.01354,0.03419,0.01096,0.00713,0.01076,-0.01287,0.01659,0.98381,2.32755,0.74992,2.04404,2.06392,0.79044,-0.10067,2.28414,0.71324,0.01853,2.58400,2.58400,A,164301.50
2.34202,57.68793335,11.98133669,57.68793433,11.98133550,16:43:01.679100,0.00535,0.94891,0.94891,-0.01375,0.03422,0.00592,0.00499,0.01213,0.02507,0.00287,0.95837,2.33628,0.78971,2.12218,2.14208,0.78425,-0.09037,2.28414,0.71324,0.01853,2.58400,2.58400,A,164301.50
2.35217,57.68793345,11.98133658,57.68793433,11.98133550,16:43:01.689239,0.00509,0.94891,0.94891,-0.01353,0.03439,0.00776,-0.00554,0.01748,0.03508,0.02763,0.94489,2.34668,0.82155,2.18862,2.20862,0.77730,-0.07965,2.28414,0.71324,0.01853,2.58400,2.58400,A,164301.50
2.36253,57.68793354,11.98133646,57.68793433,11.98133550,16:43:01.699602,0.00515,0.94891,0.94891,-0.01317,0.03476,0.01295,-0.02005,0.02511,-0.02373,0.03428,0.95532,2.35678,0.84702,2.24507,2.26528,0.77023,-0.06951,2.28414,0.71324,0.01853,2.58400,2.58400,A,164301.50
2.37287,57.68793363,11.98133634,57.68793433,11.98133550,16:43:01.710193,0.00510,0.94891,0.94891,-0.01288,0.03524,0.01539,-0.01914,0.02924,-0.05362,0.02843,0.98167,2.36740,0.86740,2.29302,2.31352,0.76296,-0.05981,2.28414,0.71324,0.01853,2.58400,2.58400,A,164301.50
2.38329,57.68793371,11.98133622,57.68793433,11.98133550,16:43:01.720364,0.00511,0.94891,0.94891,-0.01305,0.03563,0.01982,-0.01410,0.03138,-0.03276,-0.00311,0.99674,2.37756,0.88370,2.33375,2.35447,0.75580,-0.05080,2.28414,0.71324,0.01853,2.58400,2.58400,A,164301.50
2.43507,57.68793379,11.98133609,57.68793467,11.98133517,16:43:01.772169,0.04629,0.94891,1.50000,-0.01331,0.03592,0.01203,-0.01440,0.03015,0.00915,-0.00579,1.02279,2.38838,0.89674,2.36836,2.38925,0.74846,-0.04210,2.40449,0.69343,0.05560,2.06168,2.06168,A,164301.60
2.45202,57.68793413,11.98133546,57.68793467,11.98133517,16:43:01.789100,0.00714,0.94891,0.94891,-0.01190,0.03623,0.01600,-0.00799,0.02618,-0.02989,0.05222,0.96892,2.44650,0.90718,2.32053,2.34160,0.71081,-0.00456,2.40449,0.69343,0.05560,2.06168,2.06168,A,164301.60
2.46036,57.68793419,11.98133538,57.68793467,11.98133517,16:43:01.797442,0.00508,0.94891,0.94891,-0.01212,0.03645,0.01402,-0.01226,0.03046,0.04910,-0.00061,0.95130,2.45489,0.91552,2.27868,2.29989,0.70599,0.00253,2.40449,0.69343,0.05560,2.06168,2.06168,A,164301.60
2.47078,57.68793426,11.98133529,57.68793467,11.98133517,16:43:01.807860,0.00526,0.94891,0.94891,-0.01225,0.03677,0.00989,-0.01868,0.02817,0.04904,0.00695,0.95026,2.46496,0.92220,2.24313,2.26451,0.70056,0.01056,2.40449,0.69343,0.05560,2.06168,2.06168,A,164301.60
2.48140,57.68793433,11.98133520,57.68793467,11.98133517,16:43:01.818485,0.00548,0.94891,0.94891,-0.01214,0.03716,0.00699,-0.03074,0.02695,-0.02989,0.02373,0.99168,2.47554,0.92754,2.21288,2.23450,0.69545,0.01852,2.40449,0.69343,0.05560,2.06168,2.06168,A,164301.60
2.49215,57.68793440,11.98133512,57.68793467,11.98133517,16:43:01.829263,0.00584,0.94891,0.94891,-0.01172,0.03756,0.00638,-0.02188,0.02511,-0.09833,0.04709,1.03041,2.48571,0.93182,2.18715,2.20899,0.69068,0.02634,2.40449,0.69343,0.05560,2.06168,2.06168,A,164301.60
2.50296,57.68793448,11.98133504,57.68793467,11.98133517,16:43:01.840039,0.00624,0.94891,0.94891,-0.01110,0.03795,0.01142,-0.01272,0.02359,-0.02037,0.05758,1.04554,2.49705,0.93523,2.16526,2.18733,0.68588,0.03446,2.40449,0.69343,0.05560,2.06168,2.06168,A,164301.60
2.56711,57.68793454,11.98133498,57.68793633,11.98133533,16:43:01.904215,0.05987,0.94891,1.50000,-0.01081,0.03832,0.00699,-0.00906,0.02405,0.03392,0.03892,1.04200,2.50686,0.93797,2.14658,2.16887,0.68234,0.04105,2.53276,0.70334,0.24092,1.51739,1.51739,A,164301.80
2.58620,57.68793510,11.98133439,57.68793633,11.98133533,16:43:01.923280,0.00694,0.94891,0.94891,-0.01101,0.03937,0.00440,-0.02967,0.02786,-0.03636,-0.01068,0.98558,2.58032,0.94016,2.05067,2.07357,0.64742,0.10384,2.53276,0.70334,0.24092,1.51739,1.51739,A,164301.80
2.59475,57.68793521,11.98133439,57.68793633,11.98133533,16:43:01.931826,0.00526,0.94891,0.94891,-0.01145,0.03937,0.00104,-0.02265,0.02786,-0.07052,-0.00762,1.01900,2.58892,0.94191,1.96742,1.99032,0.64745,0.11573,2.53276,0.70334,0.24092,1.51739,1.51739,A,164301.80
2.60524,57.68793533,11.98133439,57.68793633,11.98133533,16:43:01.942324,0.00534,0.94891,0.94891,-0.01120,0.03937,-0.00385,-0.00447,0.02450,-0.07046,0.04349,1.03322,2.59952,0.94331,1.89671,1.91961,0.64715,0.12893,2.53276,0.70334,0.24092,1.51739,1.51739,A,164301.80
2.61578,57.68793544,11.98133439,57.68793633,11.98133533,16:43:01.952862,0.00549,0.94891,0.94891,-0.01107,0.03937,-0.00248,0.00545,0.02374,-0.02391,0.03428,1.03615,2.61011,0.94443,1.83662,1.85952,0.64725,0.14196,2.53276,0.70334,0.24092,1.51739,1.51739,A,164301.80
2.62687,57.68793555,11.98133440,57.68793633,11.98133533,16:43:01.963946,0.00618,0.94891,0.94891,-0.01061,0.03937,0.00226,-0.00112,0.02298,0.01525,0.05435,1.04322,2.62028,0.94532,1.78553,1.80843,0.64796,0.15397,2.53276,0.70334,0.24092,1.51739,1.51739,A,164301.80
2.68085,57.68793565,11.98133442,57.68793750,11.98133617,16:43:02.018164,0.04976,0.94891,1.50000,-0.01095,0.03937,0.00470,-0.01089,0.02725,0.01861,-0.00195,1.03066,2.63061,0.94604,1.74208,1.76498,0.64915,0.16484,2.64694,0.75287,0.37065,1.20607,1.20607,A,164301.90
2.69675,57.68793621,11.98133434,57.68793750,11.98133617,16:43:02.034059,0.00675,0.94891,0.94891,-0.01082,0.03937,0.00394,-0.02112,0.02908,0.00518,0.01549,0.97484,2.69125,0.94662,1.65986,1.68276,0.64412,0.22705,2.64694,0.75287,0.37065,1.20607,1.20607,A,164301.90
2.70577,57.68793633,11.98133442,57.68793750,11.98133617,16:43:02.042842,0.00537,0.94891,0.94891,-0.01138,0.03937,-0.00049,-0.02418,0.02832,-0.03135,-0.01391,0.99521,2.70002,0.94707,1.58855,1.61145,0.64886,0.24046,2.64694,0.75287,0.37065,1.20607,1.20607,A,164301.90
2.71601,57.68793646,11.98133450,57.68793750,11.98133617,16:43:02.053084,0.00521,0.94891,0.94891,-0.01119,0.03937,-0.00935,-0.02524,0.02374,-0.03697,0.04185,0.99979,2.71052,0.94744,1.52798,1.55088,0.65375,0.25459,2.64694,0.75287,0.37065,1.20607,1.20607,A,164301.90
2.72686,57.68793658,11.98133458,57.68793750,11.98133617,16:43:02.063931,0.00553,0.94891,0.94891,-0.01127,0.03937,-0.00049,-0.01807,0.02114,-0.03331,0.01848,1.01754,2.72082,0.94773,1.47649,1.49939,0.65886,0.26806,2.64694,0.75287,0.37065,1.20607,1.20607,A,164301.90
2.73932,57.68793670,11.98133467,57.68793750,11.98133617,16:43:02.076399,0.00753,0.94891,0.94891,-0.01152,0.03937,-0.00049,-0.01074,0.01946,-0.00098,0.00665,1.01583,2.73293,0.94797,1.43277,1.45567,0.66419,0.28202,2.64694,0.75287,0.37065,1.20607,1.20607,A,164301.90
2.79565,57.68793681,11.98133476,57.68793917,11.98133517,16:43:02.132756,0.05346,0.94891,1.50000,-0.01190,0.03937,0.00073,-0.01333,0.01656,0.02775,-0.00323,1.01492,2.74343,0.94816,1.39554,1.41844,0.66944,0.29351,2.76400,0.69343,0.55597,1.88115,1.88115,A,164302.00
2.81126,57.68793739,11.98133492,57.68793917,11.98133517,16:43:02.148346,0.00769,1.27111,1.27111,-0.01211,0.03824,-0.00003,-0.02692,-0.00176,0.01257,0.01013,0.99589,2.80489,1.01275,1.46665,1.48889,0.67855,0.35814,2.76400,0.69343,0.55597,1.88115,1.88115,A,164302.00
2.81925,57.68793753,11.98133494,57.68793917,11.98133517,16:43:02.156319,0.00528,1.27111,1.27111,-0.01221,0.03730,-0.00141,-0.03242,-0.00283,-0.02812,0.01848,1.00205,2.81353,1.06442,1.52574,1.54744,0.67976,0.37379,2.76400,0.69343,0.55597,1.88115,1.88115,A,164302.00
2.82978,57.68793769,11.98133495,57.68793917,11.98133517,16:43:02.166859,0.00541,1.27111,1.27111,-0.01184,0.03597,0.00440,-0.02738,0.00358,-0.05996,0.04441,0.97874,2.82401,1.10576,1.57616,1.59708,0.68065,0.39147,2.76400,0.69343,0.55597,1.88115,1.88115,A,164302.00
2.84036,57.68793784,11.98133496,57.68793917,11.98133517,16:43:02.177439,0.00559,1.27111,1.27111,-0.01144,0.03464,0.01249,-0.01929,0.00694,-0.02300,0.04105,0.97075,2.83488,1.13883,1.61915,1.63930,0.68104,0.40896,2.76400,0.69343,0.55597,1.88115,1.88115,A,164302.00
2.85565,57.68793803,11.98133495,57.68793917,11.98133517,16:43:02.192734,0.01034,10.67405,1.27111,-0.01180,0.03311,0.01631,-0.01990,0.01045,0.01031,-0.01470,0.96764,2.84923,1.16529,1.65593,1.67519,0.68073,0.42991,2.76400,0.69343,0.55597,1.88115,1.88115,A,164302.00
2.90749,57.68793828,11.98133493,57.68794133,11.98133350,16:43:02.244591,0.04303,10.67405,1.50000,-0.01139,0.03130,0.01646,-0.01807,0.01106,-0.04081,0.02702,1.02010,2.87134,1.18645,1.68753,1.70574,0.67912,0.45761,2.88794,0.59437,0.79690,1.96090,1.96090,A,164302.10
2.92130,57.68793885,11.98133475,57.68794133,11.98133350,16:43:02.258415,0.00790,10.67405,1.50000,-0.01071,0.02924,0.02349,-0.01303,-0.00344,-0.00281,0.00390,0.98747,2.91486,1.24916,1.72713,1.74414,0.66856,0.52118,2.88794,0.59437,0.79690,1.96090,1.96090,A,164302.10
2.93130,57.68793907,11.98133466,57.68794133,11.98133350,16:43:02.268376,0.00738,10.67405,1.50000,-0.01023,0.02924,0.02287,-0.01074,-0.00421,-0.02653,0.04136,0.98966,2.92555,1.29933,1.75989,1.77689,0.66303,0.54538,2.88794,0.59437,0.79690,1.96090,1.96090,A,164302.10
2.94264,57.68793928,11.98133456,57.68794133,11.98133350,16:43:02.279727,0.00833,10.67405,1.50000,-0.00996,0.02924,0.03112,-0.01333,-0.00237,-0.01409,0.02123,0.98960,2.93679,1.33946,1.78775,1.80475,0.65726,0.56911,2.88794,0.59437,0.79690,1.96090,1.96090,A,164302.10
2.95409,57.68793948,11.98133446,57.68794133,11.98133350,16:43:02.291178,0.00935,10.67405,1.50000,-0.00958,0.02924,0.03326,-0.00722,0.00190,-0.00970,0.02916,0.98228,2.94723,1.37157,1.81142,1.82842,0.65157,0.59119,2.88794,0.59437,0.79690,1.96090,1.96090,A,164302.10
2.96574,57.68793968,11.98133436,57.68794133,11.98133350,16:43:02.302816,0.01077,10.67405,1.50000,-0.00958,0.02924,0.03295,-0.01379,0.00129,-0.01647,-0.00073,1.00363,2.95993,1.39726,1.83158,1.84858,0.64552,0.61357,2.88794,0.59437,0.79690,1.96090,1.96090,A,164302.10
3.02978,57.68794001,11.98133419,57.68794317,11.98133250,16:43:02.366881,0.05105,10.67405,1.50000,-0.00895,0.02924,0.02883,-0.01440,-0.00069,-0.02544,0.02507,1.01162,2.98336,1.41780,1.84907,1.86607,0.63519,0.65001,2.99995,0.53493,1.00075,1.85449,1.85449,A,164302.20
3.04790,57.68794083,11.98133372,57.68794317,11.98133250,16:43:02.384978,0.01109,10.67405,1.50000,-0.00797,0.02587,0.01967,-0.02265,-0.00741,-0.02495,0.01586,0.98332,3.04238,1.43424,1.84938,1.86443,0.60774,0.74132,2.99995,0.53493,1.00075,1.85449,1.85449,A,164302.20
3.06475,57.68794112,11.98133357,57.68794317,11.98133250,16:43:02.402045,0.00966,10.67405,1.50000,-0.00788,0.02437,0.02013,-0.01593,-0.00589,-0.01739,0.01232,0.98619,3.05862,1.44740,1.84842,1.86259,0.59839,0.77316,2.99995,0.53493,1.00075,1.85449,1.85449,A,164302.20
3.07690,57.68794134,11.98133345,57.68794317,11.98133250,16:43:02.414236,0.01101,10.67405,1.50000,-0.00763,0.02295,0.01554,-0.01852,-0.00497,0.00927,0.03093,0.96996,3.07066,1.45792,1.84758,1.86093,0.59140,0.79726,2.99995,0.53493,1.00075,1.85449,1.85449,A,164302.20
3.09675,57.68794162,11.98133330,57.68794317,11.98133250,16:43:02.434051,0.01038,10.67405,1.50000,-0.00745,0.02043,0.01081,-0.02631,-0.00925,-0.02525,0.02568,0.96081,3.08921,1.46633,1.84723,1.85912,0.58221,0.82876,2.99995,0.53493,1.00075,1.85449,1.85449,A,164302.20
3.17083,57.68794192,11.98133313,57.68794550,11.98133167,16:43:02.507938,0.06386,10.67405,1.50000,-0.00766,0.01619,-0.00232,-0.01547,-0.01978,-0.04599,0.01592,1.02187,3.11101,1.47307,1.84732,1.85673,0.57255,0.86195,3.13987,0.48540,1.26021,1.75943,1.75943,A,164302.40
3.18825,57.68794290,11.98133262,57.68794550,11.98133167,16:43:02.525329,0.01197,10.67405,1.50000,-0.01064,-0.00011,-0.03989,0.00774,-0.04666,0.03337,0.00866,0.97966,3.18125,1.47845,1.83532,1.83526,0.54180,0.97162,3.13987,0.48540,1.26021,1.75943,1.75943,A,164302.40
3.20388,57.68794318,11.98133250,57.68794550,11.98133167,16:43:02.540968,0.00910,10.67405,1.50000,-0.01135,-0.00362,-0.05241,-0.00127,-0.04407,-0.02629,0.02391,0.99357,3.19623,1.48276,1.82425,1.82215,0.53467,1.00198,3.13987,0.48540,1.26021,1.75943,1.75943,A,164302.40
3.21460,57.68794340,11.98133240,57.68794550,11.98133167,16:43:02.551695,0.00937,10.67405,1.50000,-0.01183,-0.00634,-0.05348,-0.00432,-0.04162,-0.01183,0.02745,0.96417,3.20822,1.48621,1.81505,1.81136,0.52924,1.02644,3.13987,0.48540,1.26021,1.75943,1.75943,A,164302.40
3.22766,57.68794365,11.98133230,57.68794550,11.98133167,16:43:02.564743,0.01215,10.67405,1.50000,-0.01279,-0.00971,-0.05975,-0.01058,-0.04162,0.00238,0.00762,0.95367,3.22214,1.48897,1.80747,1.80183,0.52312,1.05415,3.13987,0.48540,1.26021,1.75943,1.75943,A,164302.40
3.27797,57.68794389,11.98133220,57.68794617,11.98133167,16:43:02.615077,0.04445,10.67405,1.50000,-0.01398,-0.01336,-0.05959,-0.02463,-0.04101,-0.02470,-0.00872,0.98972,3.23613,1.49117,1.80130,1.79353,0.51728,1.08126,3.25358,0.48540,1.33434,1.57080,1.57080,A,164302.50
3.29577,57.68794463,11.98133191,57.68794617,11.98133167,16:43:02.633200,0.01045,10.67405,1.50000,-0.01823,-0.02510,-0.09365,0.01003,-0.06988,-0.00421,0.05118,0.99680,3.28849,1.49294,1.76817,1.75357,0.49995,1.16338,3.25358,0.48540,1.33434,1.57080,1.57080,A,164302.50
3.31547,57.68794494,11.98133182,57.68794617,11.98133167,16:43:02.652747,0.01266,10.67405,1.50000,-0.02026,-0.02760,-0.09548,-0.00722,-0.07644,-0.01800,0.00543,0.97905,3.30974,1.49435,1.74046,1.72441,0.49444,1.19783,3.25358,0.48540,1.33434,1.57080,1.57080,A,164302.50
3.33324,57.68794520,11.98133175,57.68794617,11.98133167,16:43:02.670990,0.00886,10.67405,1.50000,-0.02228,-0.02907,-0.09823,-0.02143,-0.07751,0.01238,-0.01440,0.96606,3.32745,1.49548,1.71707,1.70016,0.49057,1.22672,3.25358,0.48540,1.33434,1.57080,1.57080,A,164302.50
3.34582,57.68794538,11.98133172,57.68794617,11.98133167,16:43:02.683152,0.01071,10.67405,1.50000,-0.02390,-0.03023,-0.10495,-0.02601,-0.07598,-0.04374,-0.01848,0.99759,3.33999,1.49639,1.69742,1.67984,0.48835,1.24721,3.25358,0.48540,1.33434,1.57080,1.57080,A,164302.50
3.41150,57.68794563,11.98133167,57.68794767,11.98133233,16:43:02.748609,0.05542,10.67405,1.50000,-0.02599,-0.03232,-0.11442,-0.00325,-0.07568,-0.09016,0.00159,1.04694,3.35857,1.49711,1.68069,1.66189,0.48564,1.27488,3.37790,0.52503,1.50113,1.33755,1.33755,A,164302.60
3.42787,57.68794650,11.98133157,57.68794767,11.98133233,16:43:02.764957,0.00712,1.36561,1.36561,-0.03265,-0.03631,-0.10800,-0.00631,-0.06407,-0.02928,-0.00518,0.98625,3.42049,1.47081,1.63025,1.60912,0.47986,1.37110,3.37790,0.52503,1.50113,1.33755,1.33755,A,164302.60
3.43625,57.68794664,11.98133161,57.68794767,11.98133233,16:43:02.773323,0.00509,1.36561,1.36561,-0.03379,-0.03631,-0.10495,-0.01104,-0.06606,-0.02306,-0.01220,0.96728,3.43077,1.44977,1.58925,1.56813,0.48176,1.38689,3.37790,0.52503,1.50113,1.33755,1.33755,A,164302.60
3.44689,57.68794679,11.98133164,57.68794767,11.98133233,16:43:02.783969,0.00549,1.36561,1.36561,-0.03492,-0.03631,-0.11060,-0.00906,-0.07110,-0.04423,-0.01061,0.94971,3.44085,1.43294,1.55434,1.53322,0.48395,1.40405,3.37790,0.52503,1.50113,1.33755,1.33755,A,164302.60
3.45712,57.68794694,11.98133168,57.68794767,11.98133233,16:43:02.794229,0.00511,1.36561,1.36561,-0.03609,-0.03631,-0.10342,0.00102,-0.06988,-0.05667,-0.01458,0.94489,3.45144,1.41947,1.52466,1.50354,0.48644,1.42050,3.37790,0.52503,1.50113,1.33755,1.33755,A,164302.60
3.46732,57.68794708,11.98133173,57.68794767,11.98133233,16:43:02.804397,0.00513,1.36561,1.36561,-0.03695,-0.03631,-0.11274,0.00896,-0.06560,-0.05331,0.00701,0.96783,3.46160,1.40870,1.49944,1.47832,0.48914,1.43585,3.37790,0.52503,1.50113,1.33755,1.33755,A,164302.60
3.47796,57.68794721,11.98133178,57.68794767,11.98133233,16:43:02.815038,0.00537,1.36561,1.36561,-0.03753,-0.03631,-0.10861,0.01232,-0.06713,-0.03123,0.02562,1.01846,3.47220,1.40008,1.47800,1.45688,0.49199,1.45058,3.37790,0.52503,1.50113,1.33755,1.33755,A,164302.60
3.52860,57.68794733,11.98133183,57.68794883,11.98133317,16:43:02.865705,0.04555,1.36561,1.50000,-0.03813,-0.03631,-0.10510,0.00530,-0.06132,-0.00799,0.02117,1.03895,3.48266,1.39319,1.45978,1.43866,0.49492,1.46424,3.50064,0.57456,1.63086,1.20607,1.20607,A,164302.70
3.54829,57.68794809,11.98133206,57.68794883,11.98133317,16:43:02.885371,0.00757,1.36561,1.36561,-0.04332,-0.03510,-0.10037,0.00606,-0.03414,-0.09290,0.03349,0.95282,3.54238,1.38767,1.42262,1.40221,0.50901,1.54862,3.50064,0.57456,1.63086,1.20607,1.20607,A,164302.70
3.55617,57.68794820,11.98133214,57.68794883,11.98133317,16:43:02.893253,0.00505,1.36561,1.36561,-0.04399,-0.03362,-0.09380,0.01996,-0.03368,-0.05197,-0.01055,0.93531,3.55069,1.38326,1.39285,1.37330,0.51364,1.56072,3.50064,0.57456,1.63086,1.20607,1.20607,A,164302.70
3.56659,57.68794833,11.98133223,57.68794883,11.98133317,16:43:02.903674,0.00521,1.36561,1.36561,-0.04478,-0.03156,-0.09716,0.02332,-0.03200,-0.01995,-0.00592,0.93586,3.56081,1.37973,1.36730,1.34895,0.51884,1.57497,3.50064,0.57456,1.63086,1.20607,1.20607,A,164302.70
3.57688,57.68794845,11.98133232,57.68794883,11.98133317,16:43:02.914335,0.00510,1.36561,1.36561,-0.04584,-0.02893,-0.09212,0.02195,-0.03338,0.01690,-0.02470,0.98393,3.57140,1.37691,1.34537,1.32854,0.52409,1.58867,3.50064,0.57456,1.63086,1.20607,1.20607,A,164302.70
3.58728,57.68794857,11.98133240,57.68794883,11.98133317,16:43:02.924353,0.00510,1.36561,1.36561,-0.04733,-0.02626,-0.09197,0.00026,-0.04086,0.03495,-0.05758,1.01815,3.58159,1.37465,1.32651,1.31124,0.52925,1.60147,3.50064,0.57456,1.63086,1.20607,1.20607,A,164302.70
3.59797,57.68794868,11.98133249,57.68794883,11.98133317,16:43:02.935048,0.00539,1.36561,1.36561,-0.04800,-0.02358,-0.09747,-0.01181,-0.04315,-0.02001,0.00372,1.00863,3.59219,1.37284,1.31027,1.29656,0.53441,1.61384,3.50064,0.57456,1.63086,1.20607,1.20607,A,164302.70
3.65849,57.68794878,11.98133257,57.68795050,11.98133333,16:43:02.995600,0.05551,1.36561,1.50000,-0.04857,-0.02126,-0.08769,-0.01303,-0.04162,0.01311,0.00134,1.02480,3.60257,1.37140,1.29630,1.28394,0.53936,1.62514,3.63042,0.58446,1.81618,1.51739,1.51739,A,164302.90
3.67265,57.68794957,11.98133300,57.68795050,11.98133333,16:43:03.009728,0.00734,1.36561,1.36561,-0.05221,-0.00909,-0.05761,0.01920,0.00343,-0.07973,-0.01616,0.93781,3.66714,1.37024,1.32891,1.32363,0.56467,1.71284,3.63042,0.58446,1.81618,1.51739,1.51739,A,164302.90
3.68083,57.68794969,11.98133305,57.68795050,11.98133333,16:43:03.018155,0.00512,1.36561,1.36561,-0.05290,-0.00725,-0.05043,0.03309,0.00358,-0.05679,-0.03831,0.93879,3.67534,1.36931,1.35775,1.35354,0.56770,1.72610,3.63042,0.58446,1.81618,1.51739,1.51739,A,164302.90
3.69124,57.68794983,11.98133311,57.68795050,11.98133333,16:43:03.028319,0.00513,1.36561,1.36561,-0.05382,-0.00524,-0.05409,0.03309,-0.00024,0.00720,-0.04459,0.93165,3.68552,1.36857,1.38210,1.37905,0.57089,1.74128,3.63042,0.58446,1.81618,1.51739,1.51739,A,164302.90
3.70208,57.68794996,11.98133315,57.68795050,11.98133333,16:43:03.039166,0.00558,1.36561,1.36561,-0.05422,-0.00308,-0.04783,0.01889,-0.00436,0.05283,-0.01568,0.93812,3.69614,1.36798,1.40261,1.40082,0.57371,1.75602,3.63042,0.58446,1.81618,1.51739,1.51739,A,164302.90
3.71197,57.68795008,11.98133319,57.68795050,11.98133333,16:43:03.049046,0.00507,1.36561,1.36561,-0.05454,-0.00091,-0.04600,0.00255,-0.00405,0.00976,-0.01342,0.98820,3.70650,1.36751,1.41988,1.41936,0.57604,1.76947,3.63042,0.58446,1.81618,1.51739,1.51739,A,164302.90
3.72400,57.68795020,11.98133323,57.68795050,11.98133333,16:43:03.061085,0.00663,1.36561,1.36561,-0.05468,0.00147,-0.04127,0.00041,-0.00772,-0.08204,-0.00439,1.06610,3.71681,1.36713,1.43437,1.43523,0.57819,1.78317,3.63042,0.58446,1.81618,1.51739,1.51739,A,164302.90
3.77878,57.68795030,11.98133325,57.68795150,11.98133283,16:43:03.115885,0.05100,1.36561,1.50000,-0.05530,0.00393,-0.03577,0.00851,-0.00528,-0.00939,-0.04197,1.06634,3.72741,1.36683,1.44649,1.44878,0.57976,1.79403,3.74429,0.55474,1.92738,1.83196,1.83196,A,164303.00
3.79601,57.68795107,11.98133340,57.68795150,11.98133283,16:43:03.133091,0.00685,1.36561,1.36561,-0.05607,0.01404,-0.00691,0.01019,0.02175,-0.00372,-0.04191,0.93903,3.79045,1.36658,1.50333,1.51150,0.58820,1.87970,3.74429,0.55474,1.92738,1.83196,1.83196,A,164303.00
3.80467,57.68795117,11.98133338,57.68795150,11.98133283,16:43:03.141749,0.00511,1.36561,1.36561,-0.05620,0.01500,-0.00431,0.00286,0.01870,0.03989,-0.02635,0.91915,3.79919,1.36639,1.55142,1.56014,0.58706,1.89103,3.74429,0.55474,1.92738,1.83196,1.83196,A,164303.00
3.81580,57.68795129,11.98133335,57.68795150,11.98133283,16:43:03.152879,0.00600,1.36561,1.36561,-0.05642,0.01610,-0.00064,-0.00249,0.02359,-0.02788,-0.03684,0.99125,3.80938,1.36623,1.59222,1.60159,0.58556,1.90380,3.74429,0.55474,1.92738,1.83196,1.83196,A,164303.00
3.82766,57.68795141,11.98133332,57.68795150,11.98133283,16:43:03.164737,0.00727,1.36561,1.36561,-0.05653,0.01729,-0.00553,0.00286,0.02145,-0.09729,-0.02586,1.01010,3.82147,1.36611,1.62683,1.63688,0.58364,1.91724,3.74429,0.55474,1.92738,1.83196,1.83196,A,164303.00
3.83588,57.68795149,11.98133329,57.68795150,11.98133283,16:43:03.172953,0.00510,1.36561,1.36561,-0.05680,0.01851,-0.00859,0.01813,0.01641,-0.09406,-0.03764,1.05255,3.83037,1.36601,1.65609,1.66686,0.58164,1.92614,3.74429,0.55474,1.92738,1.83196,1.83196,A,164303.00
3.89419,57.68795159,11.98133325,57.68795250,11.98133250,16:43:03.231305,0.05287,1.36561,1.50000,-0.05653,0.01990,-0.00187,0.02851,0.01336,-0.05148,-0.00323,1.05048,3.84074,1.36593,1.68090,1.69247,0.57923,1.93728,3.86020,0.53493,2.03857,1.74712,1.74712,A,164303.10
3.91223,57.68795238,11.98133304,57.68795250,11.98133250,16:43:03.249316,0.00666,1.36561,1.36561,-0.05566,0.03068,0.01936,0.01278,0.02695,-0.01787,-0.04551,0.98125,3.90672,1.36587,1.68944,1.70728,0.56694,2.02470,3.86020,0.53493,2.03857,1.74712,1.74712,A,164303.10
3.92149,57.68795247,11.98133299,57.68795250,11.98133250,16:43:03.258575,0.00550,1.37159,1.37159,-0.05557,0.03198,0.02685,0.01461,0.02786,-0.01287,-0.02843,0.97704,3.91576,1.36701,1.69553,1.71413,0.56406,2.03471,3.86020,0.53493,2.03857,1.74712,1.74712,A,164303.10
3.93154,57.68795257,11.98133294,57.68795250,11.98133250,16:43:03.268620,0.00509,1.37159,1.37159,-0.05528,0.03320,0.02929,0.01461,0.03199,-0.04691,-0.02019,0.99558,3.92605,1.36793,1.70065,1.71995,0.56102,2.04588,3.86020,0.53493,2.03857,1.74712,1.74712,A,164303.10
3.94243,57.68795266,11.98133289,57.68795250,11.98133250,16:43:03.279506,0.00557,1.37159,1.37159,-0.05498,0.03430,0.03860,0.02439,0.03168,-0.03392,-0.02525,1.00821,3.93647,1.36866,1.70491,1.72487,0.55805,2.05661,3.86020,0.53493,2.03857,1.74712,1.74712,A,164303.10
3.95374,57.68795276,11.98133284,57.68795250,11.98133250,16:43:03.290828,0.00649,1.37159,1.37159,-0.05483,0.03541,0.03769,0.01309,0.03764,0.02361,-0.03684,1.00992,3.94795,1.36924,1.70848,1.72907,0.55505,2.06760,3.86020,0.53493,2.03857,1.74712,1.74712,A,164303.10
4.00462,57.68795283,11.98133280,57.68795367,11.98133283,16:43:03.342199,0.04714,1.37159,1.50000,-0.05487,0.03620,0.03479,-0.00463,0.03397,0.04660,-0.04368,1.05384,3.95694,1.36971,1.71136,1.73242,0.55262,2.07505,3.97397,0.55474,2.16830,1.41924,1.41924,A,164303.20
4.01929,57.68795350,11.98133261,57.68795367,11.98133283,16:43:03.356365,0.00656,1.37159,1.37159,-0.05194,0.04005,0.05220,0.01187,0.03168,-0.04429,-0.01476,0.93550,4.01354,1.37009,1.66605,1.68935,0.54130,2.14979,3.97397,0.55474,2.16830,1.41924,1.41924,A,164303.20
4.02812,57.68795359,11.98133260,57.68795367,11.98133283,16:43:03.365198,0.00499,1.37159,1.37159,-0.05143,0.04056,0.05327,0.01431,0.03275,-0.03745,-0.01159,0.95373,4.02263,1.37039,1.62578,1.64937,0.54088,2.15986,3.97397,0.55474,2.16830,1.41924,1.41924,A,164303.20
4.03863,57.68795369,11.98133260,57.68795367,11.98133283,16:43:03.375709,0.00523,1.37159,1.37159,-0.05062,0.04121,0.05494,0.01477,0.03458,-0.01970,0.00372,0.94770,4.03286,1.37063,1.59155,1.61552,0.54071,2.17126,3.97397,0.55474,2.16830,1.41924,1.41924,A,164303.20
4.04972,57.68795379,11.98133260,57.68795367,11.98133283,16:43:03.386806,0.00591,1.37159,1.37159,-0.05023,0.04192,0.05220,0.01507,0.03565,0.00012,-0.02355,1.01809,4.04344,1.37082,1.56240,1.58679,0.54092,2.18219,3.97397,0.55474,2.16830,1.41924,1.41924,A,164303.20
4.05930,57.68795388,11.98133261,57.68795367,11.98133283,16:43:03.396389,0.00511,1.37159,1.37159,-0.04984,0.04257,0.05632,0.00377,0.03367,0.03117,-0.02556,1.03871,4.05361,1.37097,1.53756,1.56232,0.54144,2.19205,3.97397,0.55474,2.16830,1.41924,1.41924,A,164303.20
4.06998,57.68795397,11.98133262,57.68795367,11.98133283,16:43:03.407060,0.00538,1.37159,1.37159,-0.04940,0.04316,0.04639,-0.01211,0.03519,0.01385,-0.01641,1.06744,4.06421,1.37109,1.51642,1.54153,0.54220,2.20210,3.97397,0.55474,2.16830,1.41924,1.41924,A,164303.20
4.12434,57.68795405,11.98133264,57.68795317,11.98133167,16:43:03.461449,0.04935,1.37159,1.50000,-0.04866,0.04356,0.05036,-0.02341,0.03703,-0.00872,0.00354,1.06292,4.07461,1.37119,1.49841,1.52375,0.54315,2.21129,4.09146,0.48540,2.11270,3.81741,-2.46577,A,164303.30
4.14195,57.68795469,11.98133265,57.68795317,11.98133167,16:43:03.479034,0.00744,1.37159,1.37159,-0.04509,0.04373,0.05281,0.00469,0.04787,-0.01116,0.01757,0.97112,4.13496,1.37127,1.84503,1.87047,0.54385,2.28262,4.09146,0.48540,2.11270,3.81741,-2.46577,A,164303.30
4.15064,57.68795469,11.98133256,57.68795317,11.98133167,16:43:03.487716,0.00554,1.37159,1.37159,-0.04452,0.04373,0.05479,-0.00539,0.04588,-0.01842,-0.00323,0.99704,4.14452,1.37133,2.13735,2.16279,0.53850,2.28198,4.09146,0.48540,2.11270,3.81741,-2.46577,A,164303.30
4.16063,57.68795469,11.98133241,57.68795317,11.98133167,16:43:03.497707,0.00514,1.37159,1.37159,-0.04374,0.04373,0.05327,-0.00738,0.04344,-0.01043,0.00811,1.05158,4.15514,1.37138,2.38591,2.41135,0.52986,2.28242,4.09146,0.48540,2.11270,3.81741,-2.46577,A,164303.30
4.17091,57.68795468,11.98133224,57.68795317,11.98133167,16:43:03.507996,0.00519,1.37159,1.37159,-0.04267,0.04373,0.05113,-0.00768,0.04237,0.00708,0.03501,1.09953,4.16517,1.37142,2.59719,2.62262,0.51962,2.28111,4.09146,0.48540,2.11270,3.81741,-2.46577,A,164303.30
4.18150,57.68795466,11.98133205,57.68795317,11.98133167,16:43:03.518583,0.00537,1.37159,1.37159,-0.04215,0.04373,0.05052,-0.01547,0.03886,-0.03489,-0.00653,1.08141,4.17577,1.37146,2.77679,2.80222,0.50821,2.27823,4.09146,0.48540,2.11270,3.81741,-2.46577,A,164303.30
4.19164,57.68795461,11.98133185,57.68795317,11.98133167,16:43:03.528709,0.00511,1.37159,1.37159,-0.04118,0.04373,0.05159,-0.00967,0.03412,-0.03282,0.02599,1.02266,4.18615,1.37148,2.92945,2.95488,0.49647,2.27370,4.09146,0.48540,2.11270,3.81741,-2.46577,A,164303.30
4.25497,57.68795456,11.98133166,57.68795533,11.98132800,16:43:03.592093,0.05786,1.37159,1.50000,-0.04125,0.04373,0.05342,-0.00417,0.03122,-0.02172,-0.04130,0.94178,4.19653,1.37150,3.05921,3.08465,0.48489,2.26773,4.22442,0.26747,2.35363,2.30614,2.30614,A,164303.50
4.26968,57.68795464,11.98133005,57.68795533,11.98132800,16:43:03.606764,0.00718,1.37159,1.37159,-0.03780,0.04373,0.04624,-0.00218,0.04039,-0.03886,0.02342,1.05792,4.26386,1.37152,2.94533,2.97077,0.38909,2.27687,4.22442,0.26747,2.35363,2.30614,2.30614,A,164303.50
4.27837,57.68795469,11.98132980,57.68795533,11.98132800,16:43:03.615443,0.00547,1.37159,1.37159,-0.03719,0.04373,0.04777,0.00011,0.04252,-0.03428,0.01403,1.04652,4.27250,1.37153,2.84592,2.87136,0.37459,2.28215,4.22442,0.26747,2.35363,2.30614,2.30614,A,164303.50
4.28839,57.68795475,11.98132954,57.68795533,11.98132800,16:43:03.625466,0.00510,1.37159,1.37159,-0.03628,0.04373,0.04655,0.00240,0.04161,-0.04246,0.03007,1.03059,4.28291,1.37154,2.76151,2.78694,0.35886,2.28860,4.22442,0.26747,2.35363,2.30614,2.30614,A,164303.50
4.29871,57.68795481,11.98132929,57.68795533,11.98132800,16:43:03.635783,0.00518,1.37159,1.37159,-0.03595,0.04373,0.04441,-0.00035,0.03993,0.01562,-0.00476,0.97191,4.29295,1.37155,2.68975,2.71519,0.34419,2.29559,4.22442,0.26747,2.35363,2.30614,2.30614,A,164303.50
4.30943,57.68795488,11.98132906,57.68795533,11.98132800,16:43:03.646515,0.00550,1.37159,1.37159,-0.03586,0.04373,0.03692,-0.01425,0.03794,0.01653,-0.01684,0.95709,4.30355,1.37156,2.62878,2.65421,0.33021,2.30310,4.22442,0.26747,2.35363,2.30614,2.30614,A,164303.50
4.31953,57.68795495,11.98132884,57.68795533,11.98132800,16:43:03.656616,0.00521,1.37159,1.37159,-0.03591,0.04373,0.03754,-0.01700,0.03565,0.00573,-0.02507,0.93556,4.31405,1.37156,2.57694,2.60238,0.31721,2.31086,4.22442,0.26747,2.35363,2.30614,2.30614,A,164303.50
4.37063,57.68795502,11.98132864,57.68795667,11.98132650,16:43:03.707739,0.04591,1.37159,1.50000,-0.03559,0.04373,0.03662,-0.02051,0.03596,-0.05472,-0.00098,0.96026,4.32431,1.37157,2.53288,2.55832,0.30524,2.31867,4.34154,0.17831,2.50189,2.11220,2.11220,A,164303.60
4.38379,57.68795544,11.98132758,57.68795667,11.98132650,16:43:03.720872,0.00606,1.58370,1.58370,-0.03430,0.04373,0.01585,0.00866,0.03458,-0.10773,0.03721,1.09611,4.37826,1.41399,2.46827,2.49371,0.24244,2.36508,4.34154,0.17831,2.50189,2.11220,2.11220,A,164303.60
4.39446,57.68795556,11.98132737,57.68795667,11.98132650,16:43:03.731538,0.00632,1.58370,1.58370,-0.03342,0.04373,0.02165,0.01003,0.03748,-0.07003,0.05240,1.05329,4.38866,1.44793,2.41144,2.43687,0.23004,2.37888,4.34154,0.17831,2.50189,2.11220,2.11220,A,164303.60
4.40368,57.68795568,11.98132720,57.68795667,11.98132650,16:43:03.740762,0.00515,1.58370,1.58370,-0.03313,0.04373,0.02303,0.00881,0.03687,0.00653,0.01189,1.03993,4.39820,1.47509,2.36308,2.38852,0.21963,2.39168,4.34154,0.17831,2.50189,2.11220,2.11220,A,164303.60
4.41428,57.68795580,11.98132701,57.68795667,11.98132650,16:43:03.751359,0.00517,1.58370,1.58370,-0.03284,0.04373,0.02578,0.00530,0.03687,0.00037,0.00885,1.03163,4.40852,1.49681,2.32204,2.34748,0.20882,2.40539,4.34154,0.17831,2.50189,2.11220,2.11220,A,164303.60
4.42486,57.68795592,11.98132684,57.68795667,11.98132650,16:43:03.762193,0.00535,1.58370,1.58370,-0.03277,0.04373,0.01646,0.01003,0.03275,-0.06503,0.00006,1.04292,4.41940,1.51419,2.28718,2.31262,0.19849,2.41917,4.34154,0.17831,2.50189,2.11220,2.11220,A,164303.60
4.43580,57.68795604,11.98132669,57.68795667,11.98132650,16:43:03.772885,0.00607,1.58370,1.58370,-0.03288,0.04373,0.01341,0.01278,0.03015,-0.01562,-0.00805,0.96069,4.42918,1.52809,2.25751,2.28295,0.18969,2.43182,4.34154,0.17831,2.50189,2.11220,2.11220,A,164303.60
4.49020,57.68795614,11.98132656,57.68795783,11.98132483,16:43:03.827326,0.05008,1.58370,1.50000,-0.03276,0.04373,0.01020,0.01431,0.02832,-0.00329,0.00848,0.95160,4.43976,1.53921,2.23228,2.25772,0.18182,2.44378,4.45711,0.07925,2.63161,2.22295,2.22295,A,164303.70
4.50925,57.68795686,11.98132551,57.68795783,11.98132483,16:43:03.846335,0.00846,1.58370,1.58370,-0.03331,0.04373,-0.00660,-0.00188,0.02343,-0.01208,-0.00232,1.10148,4.50325,1.54811,2.23014,2.25557,0.11944,2.52297,4.45711,0.07925,2.63161,2.22295,2.22295,A,164303.70
4.51652,57.68795696,11.98132539,57.68795783,11.98132483,16:43:03.853594,0.00533,1.58370,1.58370,-0.03326,0.04373,-0.00965,0.00698,0.01992,-0.00525,0.01531,1.12679,4.51079,1.55523,2.22552,2.25096,0.11231,2.53467,4.45711,0.07925,2.63161,2.22295,2.22295,A,164303.70
4.52663,57.68795709,11.98132524,57.68795783,11.98132483,16:43:03.863702,0.00520,1.58370,1.58370,-0.03339,0.04373,-0.01805,0.01064,0.01641,0.00830,0.01092,1.10410,4.52087,1.56092,2.22172,2.24716,0.10317,2.54878,4.45711,0.07925,2.63161,2.22295,2.22295,A,164303.70
4.53717,57.68795721,11.98132508,57.68795783,11.98132483,16:43:03.874256,0.00534,1.58370,1.58370,-0.03327,0.04373,-0.01760,0.00637,0.01610,-0.02294,0.02794,1.07085,4.53146,1.56548,2.21852,2.24396,0.09405,2.56279,4.45711,0.07925,2.63161,2.22295,2.22295,A,164303.70
4.54732,57.68795734,11.98132494,57.68795783,11.98132483,16:43:03.884399,0.00509,1.58370,1.58370,-0.03237,0.04373,-0.01225,-0.00570,0.02191,-0.02562,0.07558,1.00046,4.54163,1.56912,2.21581,2.24124,0.08534,2.57622,4.45711,0.07925,2.63161,2.22295,2.22295,A,164303.70
4.60539,57.68795745,11.98132480,57.68795833,11.98132467,16:43:03.942509,0.05275,1.58370,1.50000,-0.03240,0.04373,-0.00217,-0.01425,0.02099,-0.02037,0.00750,0.93818,4.55224,1.57204,2.21350,2.23894,0.07705,2.58906,4.56924,0.06934,2.68721,1.74712,1.74712,A,164303.80
4.62243,57.68795815,11.98132382,57.68795833,11.98132467,16:43:03.959513,0.00623,1.58370,1.58370,-0.03315,0.04322,-0.00950,0.02362,0.01198,-0.02098,-0.00183,0.99192,4.61661,1.57437,2.14294,2.16808,0.01901,2.66703,4.56924,0.06934,2.68721,1.74712,1.74712,A,164303.80
4.63169,57.68795824,11.98132376,57.68795833,11.98132467,16:43:03.968769,0.00509,1.58370,1.58370,-0.03339,0.04322,-0.00920,0.00774,0.01488,0.04349,-0.00366,1.01571,4.62620,1.57623,2.08017,2.10531,0.01522,2.67731,4.56924,0.06934,2.68721,1.74712,1.74712,A,164303.80
4.64233,57.68795835,11.98132369,57.68795833,11.98132467,16:43:03.979410,0.00516,1.58370,1.58370,-0.03327,0.04322,-0.00461,-0.01089,0.02267,0.04136,0.01781,1.00711,4.63658,1.57773,2.02688,2.05202,0.01136,2.68888,4.56924,0.06934,2.68721,1.74712,1.74712,A,164303.80
4.65339,57.68795845,11.98132364,57.68795833,11.98132467,16:43:03.990481,0.00582,1.58370,1.58370,-0.03353,0.04322,0.00317,-0.02341,0.02863,-0.00250,-0.01324,1.02962,4.64735,1.57892,1.98158,2.00672,0.00821,2.70039,4.56924,0.06934,2.68721,1.74712,1.74712,A,164303.80
4.66311,57.68795854,11.98132360,57.68795833,11.98132467,16:43:04.000189,0.00531,1.58370,1.58370,-0.03373,0.04319,-0.00064,-0.02479,0.02649,-0.04124,-0.00616,1.01388,4.65733,1.57988,1.94305,1.96818,0.00618,2.71065,4.56924,0.06934,2.68721,1.74712,1.74712,A,164303.80
4.71472,57.68795865,11.98132357,57.68795883,11.98132283,16:43:04.052581,0.04651,1.58370,1.50000,-0.03395,0.04316,0.00577,-0.01914,0.01733,-0.08265,-0.01305,1.02077,4.66850,1.58064,1.91036,1.93546,0.00405,2.72209,4.68571,-0.03962,2.74281,2.66980,2.66980,A,164303.90
4.73422,57.68795938,11.98132301,57.68795883,11.98132283,16:43:04.071303,0.00668,1.58370,1.58370,-0.03308,0.04296,0.02471,0.02637,0.02007,-0.02007,-0.03385,1.06073,4.72733,1.58125,2.02343,2.04842,-0.02899,2.80394,4.68571,-0.03962,2.74281,2.66980,2.66980,A,164303.90
4.74351,57.68795945,11.98132292,57.68795883,11.98132283,16:43:04.080596,0.00535,1.58370,1.58370,-0.03376,0.04294,0.02425,0.02164,0.01946,0.07424,-0.05490,1.00040,4.73771,1.58174,2.11702,2.14199,-0.03471,2.81091,4.68571,-0.03962,2.74281,2.66980,2.66980,A,164303.90
4.75424,57.68795951,11.98132279,57.68795883,11.98132283,16:43:04.091319,0.00568,1.58370,1.58370,-0.03338,0.04279,0.02990,0.00056,0.02282,0.11017,0.01086,0.92464,4.74847,1.58213,2.19664,2.22153,-0.04200,2.81847,4.68571,-0.03962,2.74281,2.66980,2.66980,A,164303.90
4.76402,57.68795957,11.98132267,57.68795883,11.98132283,16:43:04.101094,0.00506,1.58370,1.58370,-0.03283,0.04245,0.03448,-0.02311,0.02237,0.00360,0.01897,0.88005,4.75856,1.58245,2.26431,2.28900,-0.04919,2.82428,4.68571,-0.03962,2.74281,2.66980,2.66980,A,164303.90
4.77472,57.68795962,11.98132254,57.68795883,11.98132283,16:43:04.111796,0.00534,1.58370,1.58370,-0.03208,0.04189,0.03860,-0.02509,0.02191,-0.06033,0.02812,0.87035,4.76879,1.58270,2.32190,2.34626,-0.05708,2.82979,4.68571,-0.03962,2.74281,2.66980,2.66980,A,164303.90
4.78523,57.68795966,11.98132240,57.68795883,11.98132283,16:43:04.122314,0.00546,1.58370,1.58370,-0.03239,0.04110,0.04945,-0.00707,0.02267,-0.09815,-0.03837,0.83222,4.77952,1.58290,2.37092,2.39482,-0.06517,2.83458,4.68571,-0.03962,2.74281,2.66980,2.66980,A,164303.90
4.83845,57.68795969,11.98132227,57.68795933,11.98132167,16:43:04.175571,0.04828,1.58370,1.50000,-0.03279,0.04027,0.04548,0.02164,0.01778,-0.14469,-0.04435,0.91415,4.78957,1.58306,2.41263,2.43606,-0.07303,2.83845,4.80654,-0.10897,2.79841,2.46577,2.46577,A,164304.00
4.85688,57.68796019,11.98132111,57.68795933,11.98132167,16:43:04.194197,0.00781,1.58370,1.58370,-0.02933,0.03863,0.05265,-0.02662,0.00709,0.08808,0.02702,1.05304,4.85050,1.58319,2.42001,2.44248,-0.14234,2.89395,4.80654,-0.10897,2.79841,2.46577,2.46577,A,164304.00
4.86452,57.68796020,11.98132102,57.68795933,11.98132167,16:43:04.201599,0.00504,1.58370,1.58370,-0.02790,0.03858,0.05449,-0.04953,0.01122,0.03977,0.07222,0.95837,4.85907,1.58329,2.42378,2.44622,-0.14750,2.89491,4.80654,-0.10897,2.79841,2.46577,2.46577,A,164304.00
4.87488,57.68796023,11.98132089,57.68795933,11.98132167,16:43:04.211958,0.00518,1.58370,1.58370,-0.02788,0.03824,0.06319,-0.05686,0.01534,-0.02184,-0.02483,0.87138,4.86914,1.58337,2.42712,2.44936,-0.15518,2.89811,4.80654,-0.10897,2.79841,2.46577,2.46577,A,164304.00
4.88542,57.68796026,11.98132076,57.68795933,11.98132167,16:43:04.222502,0.00531,1.58370,1.58370,-0.02764,0.03744,0.06151,-0.03380,0.01656,-0.14878,-0.01128,0.83210,4.87972,1.58344,2.43003,2.45181,-0.16278,2.90134,4.80654,-0.10897,2.79841,2.46577,2.46577,A,164304.00
4.89604,57.68796029,11.98132063,57.68795933,11.98132167,16:43:04.233112,0.00553,1.58370,1.58370,-0.02724,0.03623,0.06518,0.00286,0.01320,-0.14427,-0.00567,0.83155,4.89041,1.58349,2.43263,2.45370,-0.17060,2.90486,4.80654,-0.10897,2.79841,2.46577,2.46577,A,164304.00
4.90636,57.68796031,11.98132052,57.68795933,11.98132167,16:43:04.243435,0.00526,1.40035,1.40035,-0.02710,0.03476,0.06777,0.03508,0.01152,-0.13688,-0.02080,0.84766,4.90049,1.54686,2.43491,2.45513,-0.17702,2.90735,4.80654,-0.10897,2.79841,2.46577,2.46577,A,164304.00
4.97679,57.68796033,11.98132042,57.68796067,11.98132050,16:43:04.314742,0.06530,1.40035,1.50000,-0.02581,0.03348,0.06838,0.06150,0.01091,-0.04514,0.04416,0.91177,4.91110,1.51756,2.43696,2.45643,-0.18323,2.90978,4.94301,-0.17831,2.94667,2.00828,2.00828,A,164304.20
4.99337,57.68796096,11.98131902,57.68796067,11.98132050,16:43:04.330456,0.00721,1.40035,1.40035,-0.02142,0.03028,0.06334,-0.00768,-0.01627,-0.14805,-0.01147,0.91024,4.98700,1.49412,2.37282,2.39043,-0.26637,2.97977,4.94301,-0.17831,2.94667,2.00828,2.00828,A,164304.20
5.00194,57.68796101,11.98131897,57.68796067,11.98132050,16:43:04.339019,0.00538,1.40035,1.40035,-0.02149,0.02929,0.06426,0.01629,-0.02085,-0.06198,-0.02287,0.82820,4.99618,1.47536,2.31581,2.33285,-0.26901,2.98469,4.94301,-0.17831,2.94667,2.00828,2.00828,A,164304.20
5.01860,57.68796107,11.98131892,57.68796067,11.98132050,16:43:04.356296,0.01180,1.40035,1.40035,0.00000,0.02836,0.06884,0.02683,-0.01978,-0.01165,-0.00201,0.83064,5.00642,1.40035,1.61474,1.63124,-0.17831,2.94667,4.94301,-0.17831,2.94667,2.00828,2.00828,A,164304.20
