Time,lat_estimated,lon_estimated,latitude,longitude,RealTime,CalculationTime,MeasuredVelocity,FilteredVelocity,Roll,SteeringAngle,RollRate,gy,gz,ax,ay,az,imu_read_timing,v_estimated,yaw_estimated,heading_estimated,x_estimated,y_estimated,GPS_timestamp,x_GPS,y_GPS,theta_GPS,theta_GPS_noUnwrap,status,NMEA timestamp
0.06179,57.68803417,11.97989483,57.68803417,11.97989483,15:10:39.727730,0.06174,0.00000,1.50000,-0.00222,0.02000,-0.00279,0.00282,-0.00173,-0.05173,-0.11486,0.99204,0.00001,0.00000,0.00000,0.00000,0.00000,0.00000,0.01472,0.00000,0.00000,0.00000,0.00000,A,151039.60
0.08285,57.68803417,11.97989483,57.68803417,11.97989483,15:10:39.748787,0.01004,0.00000,0.00000,-0.00465,0.00000,-0.00371,0.00129,0.00010,-0.05045,-0.11358,0.99174,0.07669,0.00000,0.00000,0.00000,0.00000,0.00000,0.01472,0.00000,0.00000,0.00000,0.00000,A,151039.60
0.10062,57.68803417,11.97989483,57.68803417,11.97989483,15:10:39.766545,0.00764,0.00000,0.00000,-0.00678,0.00000,0.00164,0.00282,0.00163,-0.05234,-0.11669,0.99015,0.09493,0.00000,0.00000,0.00000,0.00000,0.00000,0.01472,0.00000,0.00000,0.00000,0.00000,A,151039.60
0.10889,57.68803417,11.97989483,57.68803417,11.97989483,15:10:39.774824,0.00566,0.00000,0.00000,-0.00888,0.00000,-0.00203,-0.00009,-0.00203,-0.05069,-0.11407,0.98997,0.10319,0.00000,0.00000,0.00000,0.00000,0.00000,0.01472,0.00000,0.00000,0.00000,0.00000,A,151039.60
0.15033,57.68803417,11.97989483,57.68803300,11.97989767,15:10:39.816294,0.03670,0.00000,1.50000,-0.01094,0.02000,-0.00157,-0.00329,0.00010,-0.05331,-0.11395,0.99338,0.11325,0.00000,0.00000,0.00000,0.00000,0.00000,0.12906,0.16840,-0.12973,-0.65639,-0.65639,A,151039.70
0.16922,57.68803411,11.97989497,57.68803300,11.97989767,15:10:39.835145,0.00850,0.00000,0.00000,-0.01300,0.00000,-0.00020,0.00205,-0.00356,-0.05142,-0.11572,0.99149,0.16291,0.00000,-0.09846,-0.09846,0.00842,-0.00649,0.12906,0.16840,-0.12973,-0.65639,-0.65639,A,151039.70
0.17670,57.68803405,11.97989511,57.68803300,11.97989767,15:10:39.842620,0.00558,0.00000,0.00000,-0.01499,0.00000,0.00133,0.00052,-0.00203,-0.05240,-0.11474,0.99149,0.17078,0.00000,-0.18215,-0.18215,0.01642,-0.01265,0.12906,0.16840,-0.12973,-0.65639,-0.65639,A,151039.70
0.18711,57.68803400,11.97989524,57.68803300,11.97989767,15:10:39.853031,0.00559,0.00000,0.00000,-0.01699,0.00000,-0.00157,0.00022,0.00224,-0.05148,-0.11560,0.99107,0.18167,0.00000,-0.25328,-0.25328,0.02402,-0.01850,0.12906,0.16840,-0.12973,-0.65639,-0.65639,A,151039.70
0.19726,57.68803395,11.97989536,57.68803300,11.97989767,15:10:39.863182,0.00534,0.00000,0.00000,-0.01899,0.00000,-0.00310,-0.00009,-0.00035,-0.05313,-0.11657,0.98924,0.19157,0.00000,-0.31375,-0.31375,0.03124,-0.02406,0.12906,0.16840,-0.12973,-0.65639,-0.65639,A,151039.70
0.20733,57.68803390,11.97989547,57.68803300,11.97989767,15:10:39.873254,0.00513,0.00000,0.00000,-0.02094,0.00000,-0.00462,0.00007,0.00056,-0.05319,-0.11444,0.99107,0.20188,0.00000,-0.36514,-0.36514,0.03810,-0.02935,0.12906,0.16840,-0.12973,-0.65639,-0.65639,A,151039.70
0.21772,57.68803386,11.97989558,57.68803300,11.97989767,15:10:39.883632,0.00517,0.00000,0.00000,-0.02283,0.00000,0.00057,0.00205,-0.00035,-0.04941,-0.11535,0.99277,0.21200,0.00000,-0.40883,-0.40883,0.04461,-0.03437,0.12906,0.16840,-0.12973,-0.65639,-0.65639,A,151039.70
0.22903,57.68803381,11.97989569,57.68803300,11.97989767,15:10:39.894951,0.00608,0.00000,0.00000,-0.02467,0.00000,0.00133,-0.00222,-0.00097,-0.05148,-0.11505,0.99198,0.22259,0.00000,-0.44596,-0.44596,0.05080,-0.03913,0.12906,0.16840,-0.12973,-0.65639,-0.65639,A,151039.70
0.26717,57.68803377,11.97989579,57.68803133,11.97989983,15:10:39.933796,0.03383,0.00000,1.50000,-0.02650,0.02000,-0.00081,-0.00100,0.00224,-0.05112,-0.11480,0.99265,0.23350,0.00000,-0.47753,-0.47753,0.05668,-0.04366,0.24932,0.29718,-0.31505,-0.96351,-0.96351,A,151039.80
0.28681,57.68803365,11.97989599,57.68803133,11.97989983,15:10:39.952728,0.00679,0.00000,0.00000,-0.02832,0.00000,-0.00096,-0.00039,0.00041,-0.05209,-0.11322,0.99186,0.28132,0.00000,-0.55043,-0.55043,0.06871,-0.05723,0.24932,0.29718,-0.31505,-0.96351,-0.96351,A,151039.80
0.29784,57.68803354,11.97989618,57.68803133,11.97989983,15:10:39.963781,0.00742,0.00000,0.00000,-0.03006,0.00000,0.00347,0.00159,0.00041,-0.05167,-0.11395,0.98850,0.29008,0.00000,-0.61239,-0.61239,0.08013,-0.07012,0.24932,0.29718,-0.31505,-0.96351,-0.96351,A,151039.80
0.30587,57.68803343,11.97989636,57.68803133,11.97989983,15:10:39.971785,0.00521,0.00000,0.00000,-0.03183,0.00000,-0.00050,-0.00497,0.00132,-0.05362,-0.11633,0.99119,0.30014,0.00000,-0.66506,-0.66506,0.09098,-0.08237,0.24932,0.29718,-0.31505,-0.96351,-0.96351,A,151039.80
0.31639,57.68803332,11.97989654,57.68803133,11.97989983,15:10:39.982324,0.00533,0.00000,0.00000,-0.03355,0.00000,-0.00020,-0.00253,-0.00173,-0.05106,-0.11413,0.98832,0.31072,0.00000,-0.70982,-0.70982,0.10129,-0.09400,0.24932,0.29718,-0.31505,-0.96351,-0.96351,A,151039.80
0.33065,57.68803322,11.97989670,57.68803133,11.97989983,15:10:39.996583,0.00918,0.00000,0.00000,-0.03528,0.00000,-0.00340,-0.00085,0.00087,-0.05283,-0.11523,0.99192,0.32091,0.00000,-0.74788,-0.74788,0.11109,-0.10506,0.24932,0.29718,-0.31505,-0.96351,-0.96351,A,151039.80
0.33721,57.68803313,11.97989686,57.68803133,11.97989983,15:10:40.003129,0.00535,0.00000,0.00000,-0.03699,0.00000,-0.00035,-0.00024,0.00010,-0.05124,-0.11785,0.99204,0.33149,0.00000,-0.78022,-0.78022,0.12039,-0.11556,0.24932,0.29718,-0.31505,-0.96351,-0.96351,A,151039.80
0.34797,57.68803304,11.97989701,57.68803133,11.97989983,15:10:40.014112,0.00571,0.00000,0.00000,-0.03862,0.00000,0.00194,-0.00009,-0.00020,-0.05252,-0.11541,0.99393,0.34183,0.00000,-0.80772,-0.80772,0.12923,-0.12553,0.24932,0.29718,-0.31505,-0.96351,-0.96351,A,151039.80
0.38574,57.68803295,11.97989715,57.68803200,11.97989733,15:10:40.052013,0.03319,0.00000,1.50000,-0.04024,0.02000,-0.00142,-0.00161,0.00132,-0.05136,-0.11419,0.99088,0.35201,0.00000,-0.83108,-0.83108,0.13763,-0.13501,0.36804,0.14859,-0.24092,2.67884,2.67884,A,151039.90
0.40511,57.68803290,11.97989716,57.68803200,11.97989733,15:10:40.071030,0.00775,0.00000,0.00000,-0.04173,0.00000,0.00225,-0.00192,-0.00051,-0.05337,-0.11499,0.99174,0.39905,0.00000,-0.30460,-0.30460,0.13818,-0.14030,0.36804,0.14859,-0.24092,2.67884,2.67884,A,151039.90
0.41349,57.68803286,11.97989717,57.68803200,11.97989733,15:10:40.079407,0.00571,0.00000,0.00000,-0.04327,0.00000,0.00362,0.00068,-0.00051,-0.05045,-0.11468,0.99046,0.40764,0.00000,0.14292,0.14292,0.13870,-0.14533,0.36804,0.14859,-0.24092,2.67884,2.67884,A,151039.90
0.42330,57.68803282,11.97989718,57.68803200,11.97989733,15:10:40.089216,0.00527,0.00000,0.00000,-0.04485,0.00000,-0.00020,-0.00207,-0.00249,-0.05094,-0.11669,0.99277,0.41786,0.00000,0.52331,0.52331,0.13919,-0.15011,0.36804,0.14859,-0.24092,2.67884,2.67884,A,151039.90
0.43438,57.68803278,11.97989718,57.68803200,11.97989733,15:10:40.100300,0.00579,0.00000,0.00000,-0.04637,0.00000,0.00133,0.00114,-0.00051,-0.05252,-0.11572,0.99345,0.42805,0.00000,0.84664,0.84664,0.13966,-0.15465,0.36804,0.14859,-0.24092,2.67884,2.67884,A,151039.90
0.44484,57.68803274,11.97989719,57.68803200,11.97989733,15:10:40.110762,0.00559,0.00000,0.00000,-0.04785,0.00000,0.00225,0.00220,-0.00097,-0.05167,-0.11529,0.99210,0.43914,0.00000,1.12147,1.12147,0.14011,-0.15897,0.36804,0.14859,-0.24092,2.67884,2.67884,A,151039.90
0.45469,57.68803270,11.97989720,57.68803200,11.97989733,15:10:40.120608,0.00504,0.00000,0.00000,-0.04936,0.00000,0.00042,0.00190,0.00056,-0.05203,-0.11706,0.99454,0.44926,0.00000,1.35507,1.35507,0.14053,-0.16307,0.36804,0.14859,-0.24092,2.67884,2.67884,A,151039.90
0.46539,57.68803267,11.97989720,57.68803200,11.97989733,15:10:40.131311,0.00534,0.00000,0.00000,-0.05082,0.00000,-0.00096,0.00282,-0.00097,-0.05161,-0.11480,0.99284,0.45967,0.00000,1.55364,1.55364,0.14094,-0.16696,0.36804,0.14859,-0.24092,2.67884,2.67884,A,151039.90
0.51760,57.68803263,11.97989721,57.68803283,11.97989733,15:10:40.183554,0.04714,0.00000,1.50000,-0.05225,0.02000,0.00164,0.00373,-0.00081,-0.05051,-0.11596,0.99003,0.47108,0.00000,1.72242,1.72242,0.14132,-0.17066,0.49794,0.14859,-0.14826,1.57080,1.57080,A,151040.10
0.53779,57.68803264,11.97989722,57.68803283,11.97989733,15:10:40.203710,0.00837,0.00000,0.00000,-0.05364,0.00000,0.00103,0.00572,-0.00219,-0.05155,-0.11724,0.99265,0.53176,0.00000,1.69968,1.69968,0.14168,-0.16954,0.49794,0.14859,-0.14826,1.57080,1.57080,A,151040.10
0.54961,57.68803265,11.97989722,57.68803283,11.97989733,15:10:40.215565,0.00979,0.00000,0.00000,-0.05504,0.00000,0.00026,0.00144,0.00087,-0.05057,-0.11541,0.99210,0.54062,0.00000,1.68034,1.68034,0.14203,-0.16847,0.49794,0.14859,-0.14826,1.57080,1.57080,A,151040.10
0.55756,57.68803266,11.97989723,57.68803283,11.97989733,15:10:40.223482,0.00698,0.00000,0.00000,-0.05645,0.00000,-0.00035,-0.00161,-0.00402,-0.05087,-0.11749,0.99101,0.55179,0.00000,1.66391,1.66391,0.14236,-0.16746,0.49794,0.14859,-0.14826,1.57080,1.57080,A,151040.10
0.57047,57.68803267,11.97989723,57.68803283,11.97989733,15:10:40.236388,0.00967,0.00000,0.00000,-0.05779,0.00000,0.00087,0.00052,0.00102,-0.05081,-0.11474,0.99241,0.56442,0.00000,1.64994,1.64994,0.14267,-0.16650,0.49794,0.14859,-0.14826,1.57080,1.57080,A,151040.10
0.57968,57.68803268,11.97989724,57.68803283,11.97989733,15:10:40.245600,0.00835,0.00000,0.00000,-0.05918,0.00000,-0.00478,-0.00100,0.00026,-0.05301,-0.11566,0.99107,0.57420,0.00000,1.63807,1.63807,0.14296,-0.16559,0.49794,0.14859,-0.14826,1.57080,1.57080,A,151040.10
0.59039,57.68803269,11.97989724,57.68803283,11.97989733,15:10:40.256311,0.00866,0.00000,0.00000,-0.06052,0.00000,-0.00539,-0.00100,-0.00097,-0.05252,-0.11340,0.99119,0.58421,0.00000,1.62798,1.62798,0.14325,-0.16472,0.49794,0.14859,-0.14826,1.57080,1.57080,A,151040.10
0.62985,57.68803269,11.97989725,57.68803200,11.97989933,15:10:40.296664,0.03755,0.00000,1.50000,-0.06185,0.02000,-0.00356,0.00022,-0.00158,-0.05258,-0.11590,0.99247,0.59271,0.00000,1.61940,1.61940,0.14351,-0.16390,0.61149,0.26747,-0.24092,-0.66212,-0.66212,A,151040.20
0.64850,57.68803266,11.97989735,57.68803200,11.97989933,15:10:40.314434,0.00761,0.00000,0.00000,-0.06314,0.00000,-0.00020,0.00144,-0.00051,-0.05020,-0.11547,0.99332,0.64084,0.00000,1.27717,1.27717,0.14971,-0.16775,0.61149,0.26747,-0.24092,-0.66212,-0.66212,A,151040.20
0.65659,57.68803263,11.97989745,57.68803200,11.97989933,15:10:40.322514,0.00530,0.00000,0.00000,-0.06439,0.00000,0.00072,0.00129,-0.00433,-0.05319,-0.11529,0.99107,0.65094,0.00000,0.98628,0.98628,0.15560,-0.17141,0.61149,0.26747,-0.24092,-0.66212,-0.66212,A,151040.20
0.66676,57.68803259,11.97989755,57.68803200,11.97989933,15:10:40.332680,0.00507,0.00000,0.00000,-0.06562,0.00000,-0.00004,0.00144,0.00102,-0.05045,-0.11474,0.99210,0.66132,0.00000,0.73902,0.73902,0.16119,-0.17489,0.61149,0.26747,-0.24092,-0.66212,-0.66212,A,151040.20
0.67758,57.68803256,11.97989763,57.68803200,11.97989933,15:10:40.343870,0.00531,0.00000,0.00000,-0.06678,0.00000,0.00561,0.00480,-0.00005,-0.05039,-0.11566,0.99296,0.67187,0.00000,0.52885,0.52885,0.16651,-0.17819,0.61149,0.26747,-0.24092,-0.66212,-0.66212,A,151040.20
0.68775,57.68803254,11.97989772,57.68803200,11.97989933,15:10:40.353670,0.00508,0.00000,0.00000,-0.06795,0.00000,0.00271,0.00007,0.00026,-0.05020,-0.11535,0.99448,0.68233,0.00000,0.35021,0.35021,0.17155,-0.18132,0.61149,0.26747,-0.24092,-0.66212,-0.66212,A,151040.20
0.69892,57.68803251,11.97989780,57.68803200,11.97989933,15:10:40.364839,0.00601,0.00000,0.00000,-0.06918,0.00000,-0.00203,0.00144,-0.00158,-0.05106,-0.11657,0.98991,0.69237,0.00000,0.19836,0.19836,0.17635,-0.18430,0.61149,0.26747,-0.24092,-0.66212,-0.66212,A,151040.20
0.70862,57.68803248,11.97989788,57.68803200,11.97989933,15:10:40.374547,0.00532,0.00000,0.00000,-0.07040,0.00000,-0.00386,0.00236,-0.00081,-0.05222,-0.11633,0.99277,0.70297,0.00000,0.06929,0.06929,0.18091,-0.18713,0.61149,0.26747,-0.24092,-0.66212,-0.66212,A,151040.20
0.74504,57.68803246,11.97989795,57.68803183,11.97989883,15:10:40.410986,0.03134,0.00000,1.50000,-0.07156,0.02000,-0.00340,-0.00085,0.00041,-0.05057,-0.11376,0.98972,0.71332,0.00000,-0.04042,-0.04042,0.18523,-0.18982,0.72914,0.23775,-0.25945,-2.58400,-2.58400,A,151040.30
0.76317,57.68803243,11.97989799,57.68803183,11.97989883,15:10:40.429089,0.00670,0.00000,0.00000,-0.07267,0.00000,0.00057,-0.00085,-0.00203,-0.05063,-0.11553,0.99192,0.75771,0.00000,-0.42196,-0.42196,0.18786,-0.19331,0.72914,0.23775,-0.25945,-2.58400,-2.58400,A,151040.30
0.77194,57.68803240,11.97989804,57.68803183,11.97989883,15:10:40.438121,0.00507,0.00000,0.00000,-0.07378,0.00000,-0.00096,-0.00039,-0.00112,-0.05118,-0.11468,0.99113,0.76653,0.00000,-0.74627,-0.74627,0.19035,-0.19661,0.72914,0.23775,-0.25945,-2.58400,-2.58400,A,151040.30
0.78291,57.68803237,11.97989808,57.68803183,11.97989883,15:10:40.448837,0.00580,0.00000,0.00000,-0.07485,0.00000,0.00286,0.00083,0.00026,-0.05063,-0.11541,0.99174,0.77725,0.00000,-1.02193,-1.02193,0.19272,-0.19976,0.72914,0.23775,-0.25945,-2.58400,-2.58400,A,151040.30
0.79453,57.68803234,11.97989811,57.68803183,11.97989883,15:10:40.460460,0.00692,0.00000,0.00000,-0.07591,0.00000,0.00194,0.00114,0.00132,-0.05203,-0.11547,0.99277,0.78732,0.00000,-1.25624,-1.25624,0.19497,-0.20274,0.72914,0.23775,-0.25945,-2.58400,-2.58400,A,151040.30
0.80307,57.68803232,11.97989815,57.68803183,11.97989883,15:10:40.468986,0.00505,0.00000,0.00000,-0.07700,0.00000,-0.00004,0.00114,-0.00112,-0.05057,-0.11712,0.99369,0.79764,0.00000,-1.45540,-1.45540,0.19711,-0.20558,0.72914,0.23775,-0.25945,-2.58400,-2.58400,A,151040.30
0.81437,57.68803229,11.97989818,57.68803183,11.97989883,15:10:40.480296,0.00584,0.00000,0.00000,-0.07800,0.00000,0.00103,-0.00070,-0.00051,-0.05057,-0.11309,0.99393,0.80830,0.00000,-1.62469,-1.62469,0.19914,-0.20827,0.72914,0.23775,-0.25945,-2.58400,-2.58400,A,151040.30
0.82399,57.68803227,11.97989822,57.68803183,11.97989883,15:10:40.490172,0.00505,0.00000,0.00000,-0.07902,0.00000,-0.00050,0.00098,0.00041,-0.05246,-0.11413,0.99375,0.81858,0.00000,-1.76859,-1.76859,0.20107,-0.21083,0.72914,0.23775,-0.25945,-2.58400,-2.58400,A,151040.30
0.86578,57.68803225,11.97989825,57.68803267,11.97989317,15:10:40.531739,0.03645,0.00000,1.50000,-0.08007,0.02000,-0.00264,-0.00161,0.00239,-0.04898,-0.11572,0.99180,0.82877,0.00000,-1.89090,-1.89090,0.20291,-0.21326,0.84777,-0.09906,-0.16679,2.87312,2.87312,A,151040.40
0.88461,57.68803227,11.97989799,57.68803267,11.97989317,15:10:40.550532,0.00705,0.00000,0.00000,-0.08127,0.00000,-0.00478,0.00190,-0.00127,-0.05191,-0.11261,0.99076,0.87890,0.00000,-1.17630,-1.17630,0.18781,-0.21094,0.84777,-0.09906,-0.16679,2.87312,2.87312,A,151040.40
0.89362,57.68803229,11.97989775,57.68803267,11.97989317,15:10:40.559543,0.00572,0.00000,0.00000,-0.08227,0.00000,-0.00081,0.00129,-0.00035,-0.05228,-0.11614,0.99046,0.88787,0.00000,-0.56888,-0.56888,0.17347,-0.20873,0.84777,-0.09906,-0.16679,2.87312,2.87312,A,151040.40
0.90327,57.68803231,11.97989752,57.68803267,11.97989317,15:10:40.569186,0.00497,0.00000,0.00000,-0.08325,0.00000,-0.00020,0.00297,-0.00188,-0.05014,-0.11553,0.99143,0.89784,0.00000,-0.05258,-0.05258,0.15984,-0.20663,0.84777,-0.09906,-0.16679,2.87312,2.87312,A,151040.40
0.91459,57.68803233,11.97989730,57.68803267,11.97989317,15:10:40.580508,0.00602,0.00000,0.00000,-0.08425,0.00000,-0.00233,0.00175,-0.00249,-0.05118,-0.11675,0.99076,0.90802,0.00000,0.38627,0.38627,0.14689,-0.20464,0.84777,-0.09906,-0.16679,2.87312,2.87312,A,151040.40
0.92402,57.68803234,11.97989710,57.68803267,11.97989317,15:10:40.590176,0.00505,0.00000,0.00000,-0.08520,0.00000,-0.00020,-0.00024,-0.00035,-0.04984,-0.11553,0.99162,0.91861,0.00000,0.75930,0.75930,0.13460,-0.20275,0.84777,-0.09906,-0.16679,2.87312,2.87312,A,151040.40
0.93444,57.68803236,11.97989690,57.68803267,11.97989317,15:10:40.600360,0.00524,0.00000,0.00000,-0.08614,0.00000,-0.00050,-0.00238,-0.00066,-0.05466,-0.11572,0.99082,0.92877,0.00000,1.07637,1.07637,0.12291,-0.20095,0.84777,-0.09906,-0.16679,2.87312,2.87312,A,151040.40
0.94605,57.68803237,11.97989671,57.68803267,11.97989317,15:10:40.611974,0.00644,0.00000,0.00000,-0.08706,0.00000,-0.00142,-0.00161,0.00026,-0.04965,-0.11535,0.99149,0.93956,0.00000,1.34588,1.34588,0.11182,-0.19924,0.84777,-0.09906,-0.16679,2.87312,2.87312,A,151040.40
0.98346,57.68803239,11.97989654,57.68803417,11.97988667,15:10:40.649673,0.03345,0.00000,1.50000,-0.08795,0.02000,-0.00172,-0.00177,0.00239,-0.05008,-0.11340,0.99223,0.95027,0.00000,1.57497,1.57497,0.10127,-0.19762,0.96618,-0.48540,0.00000,2.73404,2.73404,A,151040.50
1.00241,57.68803248,11.97989604,57.68803417,11.97988667,15:10:40.668328,0.00686,0.00000,0.00000,-0.08888,0.00000,-0.00035,-0.00177,0.00117,-0.04996,-0.11706,0.98954,0.99662,0.00000,1.74883,1.74883,0.07194,-0.18774,0.96618,-0.48540,0.00000,2.73404,2.73404,A,151040.50
1.01102,57.68803256,11.97989557,57.68803417,11.97988667,15:10:40.676936,0.00506,0.00000,0.00000,-0.08978,0.00000,-0.00142,-0.00161,-0.00295,-0.05002,-0.11663,0.99326,1.00559,0.00000,1.89661,1.89661,0.04407,-0.17835,0.96618,-0.48540,0.00000,2.73404,2.73404,A,151040.50
1.02166,57.68803264,11.97989513,57.68803417,11.97988667,15:10:40.687576,0.00515,0.00000,0.00000,-0.09061,0.00000,0.00255,-0.00329,0.00087,-0.05411,-0.11535,0.99033,1.01596,0.00000,2.02222,2.02222,0.01760,-0.16943,0.96618,-0.48540,0.00000,2.73404,2.73404,A,151040.50
1.03199,57.68803272,11.97989471,57.68803417,11.97988667,15:10:40.698299,0.00508,0.00000,0.00000,-0.09150,0.00000,-0.00356,0.00068,-0.00173,-0.05234,-0.11566,0.99058,1.02657,0.00000,2.12900,2.12900,-0.00755,-0.16096,0.96618,-0.48540,0.00000,2.73404,2.73404,A,151040.50
1.04241,57.68803279,11.97989430,57.68803417,11.97988667,15:10:40.708322,0.00510,0.00000,0.00000,-0.09236,0.00000,-0.00279,-0.00085,0.00026,-0.05325,-0.11486,0.98972,1.03673,0.00000,2.21975,2.21975,-0.03144,-0.15291,0.96618,-0.48540,0.00000,2.73404,2.73404,A,151040.50
1.05488,57.68803286,11.97989392,57.68803417,11.97988667,15:10:40.720811,0.00701,0.00000,0.00000,-0.09319,0.00000,-0.00188,-0.00100,-0.00035,-0.05252,-0.11499,0.99259,1.04755,0.00000,2.29690,2.29690,-0.05414,-0.14527,0.96618,-0.48540,0.00000,2.73404,2.73404,A,151040.50
1.06364,57.68803293,11.97989356,57.68803417,11.97988667,15:10:40.729567,0.00552,0.00000,0.00000,-0.09400,0.00000,-0.00004,-0.00070,-0.00051,-0.05203,-0.11560,0.99101,1.05784,0.00000,2.36247,2.36247,-0.07571,-0.13801,0.96618,-0.48540,0.00000,2.73404,2.73404,A,151040.50
1.11717,57.68803299,11.97989321,57.68803617,11.97988267,15:10:40.783924,0.04864,0.00000,1.50000,-0.09478,0.02000,0.00087,0.00419,-0.00188,-0.05161,-0.11474,0.99186,1.06799,0.00000,2.41820,2.41820,-0.09619,-0.13111,1.09721,-0.72315,0.22239,2.38956,2.38956,A,151040.70
1.13811,57.68803315,11.97989269,57.68803617,11.97988267,15:10:40.804034,0.00809,0.00000,0.00000,-0.09566,0.00000,-0.00142,0.00175,-0.00112,-0.05258,-0.11578,0.98948,1.13239,0.00000,2.41391,2.41391,-0.12754,-0.11343,1.09721,-0.72315,0.22239,2.38956,2.38956,A,151040.70
1.14570,57.68803330,11.97989219,57.68803617,11.97988267,15:10:40.811621,0.00518,0.00000,0.00000,-0.09640,0.00000,0.00118,-0.00039,0.00132,-0.05319,-0.11413,0.99143,1.13998,0.00000,2.41025,2.41025,-0.15732,-0.09664,1.09721,-0.72315,0.22239,2.38956,2.38956,A,151040.70
1.15699,57.68803344,11.97989171,57.68803617,11.97988267,15:10:40.822918,0.00607,0.00000,0.00000,-0.09718,0.00000,-0.00340,-0.00207,-0.00295,-0.05130,-0.11413,0.99241,1.15058,0.00000,2.40715,2.40715,-0.18561,-0.08069,1.09721,-0.72315,0.22239,2.38956,2.38956,A,151040.70
1.16641,57.68803358,11.97989126,57.68803617,11.97988267,15:10:40.832321,0.00507,0.00000,0.00000,-0.09788,0.00000,0.00316,-0.00039,0.00071,-0.04953,-0.11505,0.99290,1.16075,0.00000,2.40451,2.40451,-0.21249,-0.06553,1.09721,-0.72315,0.22239,2.38956,2.38956,A,151040.70
1.17798,57.68803371,11.97989083,57.68803617,11.97988267,15:10:40.843907,0.00625,0.00000,0.00000,-0.09860,0.00000,0.00133,0.00175,-0.00173,-0.05356,-0.11499,0.99253,1.17219,0.00000,2.40227,2.40227,-0.23802,-0.05114,1.09721,-0.72315,0.22239,2.38956,2.38956,A,151040.70
1.18764,57.68803383,11.97989042,57.68803617,11.97988267,15:10:40.854143,0.00551,0.00000,0.00000,-0.09931,0.00000,0.00133,-0.00085,-0.00066,-0.05319,-0.11499,0.99070,1.18176,0.00000,2.40036,2.40036,-0.26228,-0.03746,1.09721,-0.72315,0.22239,2.38956,2.38956,A,151040.70
1.22679,57.68803395,11.97989003,57.68803817,11.97987583,15:10:40.893740,0.03426,0.00000,1.50000,-0.10000,0.02000,0.00286,0.00220,-0.00219,-0.05112,-0.11608,0.99192,1.19199,0.00000,2.39874,2.39874,-0.28532,-0.02447,1.20872,-1.12930,0.44478,2.64063,2.64063,A,151040.80
1.24603,57.68803416,11.97988932,57.68803817,11.97987583,15:10:40.911951,0.00697,0.00000,0.00000,-0.10096,0.00000,-0.00554,-0.00238,-0.00219,-0.05124,-0.11462,0.99363,1.24030,0.00000,2.43502,2.43502,-0.32752,-0.00101,1.20872,-1.12930,0.44478,2.64063,2.64063,A,151040.80
1.25507,57.68803436,11.97988865,57.68803817,11.97987583,15:10:40.920987,0.00533,0.00000,0.00000,-0.10165,0.00000,-0.00081,0.00159,0.00010,-0.05197,-0.11492,0.99229,1.24961,0.00000,2.46587,2.46587,-0.36761,0.02128,1.20872,-1.12930,0.44478,2.64063,2.64063,A,151040.80
1.26549,57.68803455,11.97988801,57.68803817,11.97987583,15:10:40.931406,0.00517,0.00000,0.00000,-0.10234,0.00000,-0.00279,-0.00070,0.00148,-0.05228,-0.11438,0.99229,1.25977,0.00000,2.49208,2.49208,-0.40569,0.04246,1.20872,-1.12930,0.44478,2.64063,2.64063,A,151040.80
1.27602,57.68803473,11.97988740,57.68803817,11.97987583,15:10:40.942191,0.00530,0.00000,0.00000,-0.10297,0.00000,0.00286,-0.00238,0.00194,-0.05069,-0.11486,0.99162,1.27041,0.00000,2.51436,2.51436,-0.44187,0.06257,1.20872,-1.12930,0.44478,2.64063,2.64063,A,151040.80
1.28716,57.68803490,11.97988682,57.68803817,11.97987583,15:10:40.953082,0.00613,0.00000,0.00000,-0.10362,0.00000,0.00057,-0.00161,0.00178,-0.05148,-0.11517,0.99235,1.28048,0.00000,2.53330,2.53330,-0.47624,0.08168,1.20872,-1.12930,0.44478,2.64063,2.64063,A,151040.80
1.29686,57.68803506,11.97988627,57.68803817,11.97987583,15:10:40.963121,0.00536,0.00000,0.00000,-0.10426,0.00000,0.00072,0.00388,-0.00035,-0.05106,-0.11486,0.98796,1.29116,0.00000,2.54940,2.54940,-0.50890,0.09984,1.20872,-1.12930,0.44478,2.64063,2.64063,A,151040.80
1.30765,57.68803522,11.97988575,57.68803817,11.97987583,15:10:40.973573,0.00576,0.00000,0.00000,-0.10491,0.00000,-0.00050,-0.00039,-0.00066,-0.05155,-0.11578,0.99204,1.30220,0.00000,2.56309,2.56309,-0.53992,0.11709,1.20872,-1.12930,0.44478,2.64063,2.64063,A,151040.80
1.34910,57.68803537,11.97988525,57.68803900,11.97987150,15:10:41.015053,0.03635,0.00000,1.50000,-0.10549,0.02000,0.00439,-0.00070,-0.00158,-0.05087,-0.11450,0.99198,1.31255,0.00000,2.57472,2.57472,-0.56939,0.13347,1.33070,-1.38686,0.53744,2.79624,2.79624,A,151040.90
1.36640,57.68803555,11.97988457,57.68803900,11.97987150,15:10:41.032324,0.00741,0.00000,0.00000,-0.10617,0.00000,-0.00142,0.00083,0.00102,-0.04917,-0.11505,0.99198,1.36069,0.00000,2.60795,2.60795,-0.61026,0.15367,1.33070,-1.38686,0.53744,2.79624,2.79624,A,151040.90
1.37446,57.68803572,11.97988391,57.68803900,11.97987150,15:10:41.040385,0.00507,0.00000,0.00000,-0.10677,0.00000,-0.00081,-0.00039,-0.00219,-0.05167,-0.11383,0.99198,1.36883,0.00000,2.63619,2.63619,-0.64909,0.17286,1.33070,-1.38686,0.53744,2.79624,2.79624,A,151040.90
1.38538,57.68803589,11.97988329,57.68803900,11.97987150,15:10:41.051301,0.00560,0.00000,0.00000,-0.10734,0.00000,0.00072,0.00190,-0.00127,-0.05118,-0.11395,0.99131,1.37945,0.00000,2.66020,2.66020,-0.68598,0.19109,1.33070,-1.38686,0.53744,2.79624,2.79624,A,151040.90
1.39562,57.68803604,11.97988270,57.68803900,11.97987150,15:10:41.061541,0.00543,0.00000,0.00000,-0.10786,0.00000,0.00591,-0.00024,-0.00203,-0.05148,-0.11486,0.99265,1.39018,0.00000,2.68060,2.68060,-0.72102,0.20840,1.33070,-1.38686,0.53744,2.79624,2.79624,A,151040.90
1.40586,57.68803619,11.97988214,57.68803900,11.97987150,15:10:41.071780,0.00534,0.00000,0.00000,-0.10845,0.00000,-0.00126,0.00205,0.00087,-0.05142,-0.11474,0.99174,1.40004,0.00000,2.69795,2.69795,-0.75431,0.22486,1.33070,-1.38686,0.53744,2.79624,2.79624,A,151040.90
1.41649,57.68803633,11.97988161,57.68803900,11.97987150,15:10:41.082424,0.00557,0.00000,0.00000,-0.10906,0.00000,-0.00264,-0.00009,-0.00219,-0.04856,-0.11529,0.99137,1.41056,0.00000,2.71269,2.71269,-0.78594,0.24049,1.33070,-1.38686,0.53744,2.79624,2.79624,A,151040.90
1.42640,57.68803646,11.97988110,57.68803900,11.97987150,15:10:41.092317,0.00508,0.00000,0.00000,-0.10964,0.00000,-0.00020,0.00266,-0.00035,-0.05276,-0.11578,0.99040,1.42075,0.00000,2.72522,2.72522,-0.81599,0.25533,1.33070,-1.38686,0.53744,2.79624,2.79624,A,151040.90
1.46777,57.68803659,11.97988062,57.68803967,11.97986850,15:10:41.133730,0.03604,0.00000,1.50000,-0.11015,0.02000,0.00439,0.00114,0.00178,-0.05185,-0.11566,0.99253,1.43136,0.00000,2.73588,2.73588,-0.84453,0.26944,1.44751,-1.56517,0.61157,2.74760,2.74760,A,151041.00
1.48896,57.68803674,11.97988002,57.68803967,11.97986850,15:10:41.154887,0.00714,0.00000,0.00000,-0.11070,0.00000,0.00026,-0.00024,0.00041,-0.05100,-0.11553,0.98966,1.48322,0.00000,2.73763,2.73763,-0.88056,0.28655,1.44751,-1.56517,0.61157,2.74760,2.74760,A,151041.00
1.49754,57.68803689,11.97987944,57.68803967,11.97986850,15:10:41.163461,0.00517,0.00000,0.00000,-0.11126,0.00000,-0.00126,0.00068,0.00270,-0.04978,-0.11621,0.99271,1.49183,0.00000,2.73913,2.73913,-0.91479,0.30280,1.44751,-1.56517,0.61157,2.74760,2.74760,A,151041.00
1.50785,57.68803703,11.97987890,57.68803967,11.97986850,15:10:41.173765,0.00508,0.00000,0.00000,-0.11180,0.00000,-0.00157,0.00129,-0.00035,-0.05368,-0.11444,0.99210,1.50243,0.00000,2.74040,2.74040,-0.94731,0.31824,1.44751,-1.56517,0.61157,2.74760,2.74760,A,151041.00
1.52000,57.68803716,11.97987838,57.68803967,11.97986850,15:10:41.186159,0.00683,0.00000,0.00000,-0.11233,0.00000,0.00194,0.00144,-0.00051,-0.04990,-0.11700,0.99107,1.51396,0.00000,2.74148,2.74148,-0.97821,0.33290,1.44751,-1.56517,0.61157,2.74760,2.74760,A,151041.00
1.52992,57.68803729,11.97987788,57.68803967,11.97986850,15:10:41.195848,0.00634,0.00000,0.00000,-0.11288,0.00000,-0.00096,-0.00131,-0.00066,-0.05234,-0.11663,0.99241,1.52323,0.00000,2.74240,2.74240,-1.00755,0.34684,1.44751,-1.56517,0.61157,2.74760,2.74760,A,151041.00
1.54039,57.68803740,11.97987741,57.68803967,11.97986850,15:10:41.206326,0.00607,0.00000,0.00000,-0.11339,0.00000,-0.00065,-0.00192,0.00132,-0.05075,-0.11486,0.99070,1.53468,0.00000,2.74318,2.74318,-1.03543,0.36007,1.44751,-1.56517,0.61157,2.74760,2.74760,A,151041.00
1.58155,57.68803752,11.97987697,57.68804050,11.97986617,15:10:41.247504,0.03698,0.00000,1.50000,-0.11385,0.02000,-0.00050,-0.00436,-0.00035,-0.04972,-0.11248,0.99229,1.54423,0.00000,2.74384,2.74384,-1.06192,0.37265,1.56182,-1.70386,0.70423,2.55257,2.55257,A,151041.10
1.60192,57.68803767,11.97987643,57.68804050,11.97986617,15:10:41.267841,0.00840,0.00000,0.00000,-0.11444,0.00000,-0.00157,-0.00238,-0.00142,-0.05222,-0.11614,0.99113,1.59537,0.00000,2.71515,2.71515,-1.09402,0.38923,1.56182,-1.70386,0.70423,2.55257,2.55257,A,151041.10
1.60926,57.68803781,11.97987591,57.68804050,11.97986617,15:10:41.275182,0.00535,0.00000,0.00000,-0.11490,0.00000,0.00179,0.00144,-0.00341,-0.04990,-0.11419,0.99351,1.60355,0.00000,2.69076,2.69076,-1.12451,0.40498,1.56182,-1.70386,0.70423,2.55257,2.55257,A,151041.10
1.62039,57.68803794,11.97987543,57.68804050,11.97986617,15:10:41.286318,0.00607,0.00000,0.00000,-0.11539,0.00000,-0.00081,0.00129,0.00209,-0.04996,-0.11578,0.99082,1.61472,0.00000,2.67003,2.67003,-1.15348,0.41994,1.56182,-1.70386,0.70423,2.55257,2.55257,A,151041.10
1.62973,57.68803807,11.97987496,57.68804050,11.97986617,15:10:41.295653,0.00517,0.00000,0.00000,-0.11588,0.00000,0.00225,0.00205,-0.00097,-0.05026,-0.11779,0.99070,1.62402,0.00000,2.65241,2.65241,-1.18100,0.43416,1.56182,-1.70386,0.70423,2.55257,2.55257,A,151041.10
1.64005,57.68803819,11.97987452,57.68804050,11.97986617,15:10:41.306277,0.00509,0.00000,0.00000,-0.11631,0.00000,0.00225,0.00022,-0.00158,-0.05136,-0.11456,0.99149,1.63462,0.00000,2.63744,2.63744,-1.20714,0.44766,1.56182,-1.70386,0.70423,2.55257,2.55257,A,151041.10
1.65059,57.68803831,11.97987411,57.68804050,11.97986617,15:10:41.316509,0.00522,0.00000,0.00000,-0.11677,0.00000,0.00378,0.00068,-0.00112,-0.05033,-0.11755,0.99009,1.64479,0.00000,2.62470,2.62470,-1.23197,0.46049,1.56182,-1.70386,0.70423,2.55257,2.55257,A,151041.10
1.66233,57.68803842,11.97987371,57.68804050,11.97986617,15:10:41.328262,0.00657,0.00000,0.00000,-0.11724,0.00000,-0.00111,0.00297,-0.00387,-0.05228,-0.11535,0.98948,1.65540,0.00000,2.61388,2.61388,-1.25557,0.47268,1.56182,-1.70386,0.70423,2.55257,2.55257,A,151041.10
1.70990,57.68803852,11.97987333,57.68804567,11.97986150,15:10:41.375845,0.04373,0.00000,1.50000,-0.11768,0.02000,0.00316,-0.00054,-0.00081,-0.05276,-0.11694,0.99186,1.66578,0.00000,2.60469,2.60469,-1.27798,0.48425,1.69233,-1.98123,1.27874,2.02059,2.02059,A,151041.30
1.73026,57.68803888,11.97987274,57.68804567,11.97986150,15:10:41.396181,0.00880,0.00000,0.00000,-0.11785,0.00000,0.00500,0.00251,-0.00081,-0.04782,-0.11700,0.99216,1.72451,0.00000,2.51707,2.51707,-1.31315,0.52398,1.69233,-1.98123,1.27874,2.02059,2.02059,A,151041.30
1.73720,57.68803922,11.97987218,57.68804567,11.97986150,15:10:41.403116,0.00552,0.00000,0.00000,-0.11826,0.00000,0.00332,-0.00024,-0.00310,-0.05173,-0.11529,0.99204,1.73133,0.00000,2.44260,2.44260,-1.34655,0.56172,1.69233,-1.98123,1.27874,2.02059,2.02059,A,151041.30
1.74727,57.68803954,11.97987164,57.68804567,11.97986150,15:10:41.413189,0.00536,0.00000,0.00000,-0.11868,0.00000,-0.00050,0.00129,0.00285,-0.05020,-0.11407,0.99198,1.74183,0.00000,2.37930,2.37930,-1.37828,0.59757,1.69233,-1.98123,1.27874,2.02059,2.02059,A,151041.30
1.75898,57.68803985,11.97987114,57.68804567,11.97986150,15:10:41.424901,0.00583,0.00000,0.00000,-0.11908,0.00000,-0.00020,0.00175,0.00041,-0.05350,-0.11364,0.99168,1.75256,0.00000,2.32549,2.32549,-1.40843,0.63163,1.69233,-1.98123,1.27874,2.02059,2.02059,A,151041.30
1.77134,57.68804014,11.97987066,57.68804567,11.97986150,15:10:41.438139,0.00766,0.00000,0.00000,-0.11957,0.00000,-0.00493,-0.00070,-0.00219,-0.05392,-0.11639,0.99210,1.76464,0.00000,2.27976,2.27976,-1.43707,0.66398,1.69233,-1.98123,1.27874,2.02059,2.02059,A,151041.30
1.77916,57.68804041,11.97987020,57.68804567,11.97986150,15:10:41.445076,0.00528,0.00000,0.00000,-0.11997,0.00000,-0.00096,0.00236,-0.00310,-0.05081,-0.11425,0.99101,1.77371,0.00000,2.24088,2.24088,-1.46428,0.69472,1.69233,-1.98123,1.27874,2.02059,2.02059,A,151041.30
1.78959,57.68804068,11.97986976,57.68804567,11.97986150,15:10:41.455509,0.00516,0.00000,0.00000,-0.12037,0.00000,0.00148,-0.00039,-0.00158,-0.04935,-0.11578,0.99357,1.78388,0.00000,2.20784,2.20784,-1.49013,0.72392,1.69233,-1.98123,1.27874,2.02059,2.02059,A,151041.30
1.83132,57.68804093,11.97986935,57.68804667,11.97985767,15:10:41.498115,0.03649,0.00000,1.50000,-0.12073,0.02000,0.00332,0.00098,0.00010,-0.05319,-0.11529,0.99162,1.79448,0.00000,2.17975,2.17975,-1.51468,0.75166,1.81270,-2.20907,1.38994,2.68756,2.68756,A,151041.40
1.85081,57.68804121,11.97986877,57.68804667,11.97985767,15:10:41.516734,0.00618,0.00000,0.00000,-0.12121,0.00000,-0.00111,0.00129,-0.00097,-0.05191,-0.11700,0.99052,1.84534,0.00000,2.25592,2.25592,-1.54940,0.78358,1.81270,-2.20907,1.38994,2.68756,2.68756,A,151041.40
1.86036,57.68804149,11.97986821,57.68804667,11.97985767,15:10:41.526295,0.00533,0.00000,0.00000,-0.12160,0.00000,-0.00065,-0.00039,0.00041,-0.05033,-0.11535,0.99253,1.85469,0.00000,2.32067,2.32067,-1.58238,0.81389,1.81270,-2.20907,1.38994,2.68756,2.68756,A,151041.40
1.87111,57.68804175,11.97986768,57.68804667,11.97985767,15:10:41.537029,0.00532,0.00000,0.00000,-0.12197,0.00000,0.00042,-0.00116,0.00041,-0.05142,-0.11499,0.99284,1.86567,0.00000,2.37570,2.37570,-1.61372,0.84270,1.81270,-2.20907,1.38994,2.68756,2.68756,A,151041.40
1.88141,57.68804199,11.97986718,57.68804667,11.97985767,15:10:41.547326,0.00538,0.00000,0.00000,-0.12236,0.00000,-0.00065,0.00068,-0.00249,-0.05215,-0.11633,0.99259,1.87567,0.00000,2.42248,2.42248,-1.64349,0.87006,1.81270,-2.20907,1.38994,2.68756,2.68756,A,151041.40
1.89167,57.68804223,11.97986671,57.68804667,11.97985767,15:10:41.557595,0.00506,0.00000,0.00000,-0.12271,0.00000,0.00148,-0.00177,-0.00051,-0.05106,-0.11499,0.99113,1.88625,0.00000,2.46224,2.46224,-1.67177,0.89605,1.81270,-2.20907,1.38994,2.68756,2.68756,A,151041.40
1.90271,57.68804245,11.97986625,57.68804667,11.97985767,15:10:41.568632,0.00586,0.00000,0.00000,-0.12306,0.00000,-0.00004,0.00434,-0.00219,-0.05276,-0.11431,0.99204,1.89633,0.00000,2.49604,2.49604,-1.69863,0.92075,1.81270,-2.20907,1.38994,2.68756,2.68756,A,151041.40
1.91284,57.68804266,11.97986583,57.68804667,11.97985767,15:10:41.578782,0.00560,0.00000,0.00000,-0.12344,0.00000,-0.00249,0.00022,-0.00371,-0.05075,-0.11572,0.99314,1.90690,0.00000,2.52477,2.52477,-1.72415,0.94421,1.81270,-2.20907,1.38994,2.68756,2.68756,A,151041.40
1.95155,57.68804286,11.97986542,57.68804683,11.97985567,15:10:41.617529,0.03328,0.00000,1.50000,-0.12383,0.02000,-0.00233,-0.00039,0.00056,-0.05118,-0.11627,0.99162,1.91727,0.00000,2.54919,2.54919,-1.74840,0.96649,1.93323,-2.32794,1.40847,2.98694,2.98694,A,151041.50
1.97094,57.68804306,11.97986493,57.68804683,11.97985567,15:10:41.636863,0.00782,0.00000,0.00000,-0.12422,0.00000,-0.00050,0.00022,-0.00127,-0.05069,-0.11621,0.99168,1.96494,0.00000,2.61485,2.61485,-1.77738,0.98859,1.93323,-2.32794,1.40847,2.98694,2.98694,A,151041.50
1.97878,57.68804325,11.97986447,57.68804683,11.97985567,15:10:41.644697,0.00525,0.00000,0.00000,-0.12460,0.00000,-0.00188,-0.00146,-0.00097,-0.05081,-0.11743,0.99186,1.97334,0.00000,2.67066,2.67066,-1.80490,1.00958,1.93323,-2.32794,1.40847,2.98694,2.98694,A,151041.50
1.98990,57.68804343,11.97986403,57.68804683,11.97985567,15:10:41.655820,0.00597,0.00000,0.00000,-0.12496,0.00000,0.00026,0.00266,-0.00295,-0.05228,-0.11657,0.99107,1.98417,0.00000,2.71810,2.71810,-1.83106,1.02953,1.93323,-2.32794,1.40847,2.98694,2.98694,A,151041.50
2.00108,57.68804360,11.97986361,57.68804683,11.97985567,15:10:41.667007,0.00674,0.00000,0.00000,-0.12525,0.00000,0.00484,0.00190,-0.00142,-0.05026,-0.11688,0.99247,1.99526,0.00000,2.75843,2.75843,-1.85590,1.04848,1.93323,-2.32794,1.40847,2.98694,2.98694,A,151041.50
2.01352,57.68804376,11.97986321,57.68804683,11.97985567,15:10:41.679491,0.00895,0.00000,0.00000,-0.12558,0.00000,0.00255,0.00388,0.00209,-0.05222,-0.11706,0.99247,2.00403,0.00000,2.79271,2.79271,-1.87950,1.06648,1.93323,-2.32794,1.40847,2.98694,2.98694,A,151041.50
2.02118,57.68804391,11.97986283,57.68804683,11.97985567,15:10:41.687098,0.00630,0.00000,0.00000,-0.12586,0.00000,0.00164,0.00052,-0.00356,-0.04984,-0.11370,0.99119,2.01542,0.00000,2.82184,2.82184,-1.90192,1.08358,1.93323,-2.32794,1.40847,2.98694,2.98694,A,151041.50
2.03039,57.68804406,11.97986248,57.68804683,11.97985567,15:10:41.696304,0.00510,0.00000,0.00000,-0.12617,0.00000,-0.00142,0.00159,-0.00173,-0.05155,-0.11419,0.99229,2.02471,0.00000,2.84660,2.84660,-1.92323,1.09982,1.93323,-2.32794,1.40847,2.98694,2.98694,A,151041.50
2.06690,57.68804420,11.97986214,57.68804500,11.97985533,15:10:41.732849,0.03121,0.00000,1.50000,-0.12650,0.02000,-0.00065,0.00098,-0.00051,-0.05094,-0.11614,0.99009,2.03690,0.00000,2.86765,2.86765,-1.94346,1.11525,2.05368,-2.34776,1.20461,4.61551,-1.66768,A,151041.60
2.08035,57.68804424,11.97986180,57.68804500,11.97985533,15:10:41.746285,0.00612,0.00000,0.00000,-0.12667,0.00000,0.00454,0.00205,-0.00173,-0.05270,-0.11682,0.99082,2.07390,0.00000,3.12983,3.12983,-1.96368,1.11972,2.05368,-2.34776,1.20461,4.61551,-1.66768,A,151041.60
2.08980,57.68804427,11.97986147,57.68804500,11.97985533,15:10:41.755714,0.00533,0.00000,0.00000,-0.12698,0.00000,-0.00111,0.00175,-0.00341,-0.05148,-0.11450,0.98942,2.08403,0.00000,3.35268,3.35268,-1.98288,1.12396,2.05368,-2.34776,1.20461,4.61551,-1.66768,A,151041.60
2.09994,57.68804431,11.97986117,57.68804500,11.97985533,15:10:41.766118,0.00507,0.00000,0.00000,-0.12729,0.00000,-0.00142,0.00129,0.00026,-0.05380,-0.11547,0.99107,2.09450,0.00000,3.54211,3.54211,-2.00112,1.12800,2.05368,-2.34776,1.20461,4.61551,-1.66768,A,151041.60
2.11084,57.68804435,11.97986087,57.68804500,11.97985533,15:10:41.777020,0.00558,0.00000,0.00000,-0.12758,0.00000,0.00042,-0.00024,-0.00066,-0.05283,-0.11547,0.99259,2.10469,0.00000,3.70312,3.70312,-2.01846,1.13183,2.05368,-2.34776,1.20461,4.61551,-1.66768,A,151041.60
2.12126,57.68804438,11.97986060,57.68804500,11.97985533,15:10:41.787188,0.00560,0.00000,0.00000,-0.12789,0.00000,-0.00050,0.00129,-0.00066,-0.04990,-0.11584,0.99186,2.11552,0.00000,3.83998,3.83998,-2.03492,1.13547,2.05368,-2.34776,1.20461,4.61551,-1.66768,A,151041.60
2.13173,57.68804441,11.97986033,57.68804500,11.97985533,15:10:41.797649,0.00567,0.00000,0.00000,-0.12817,0.00000,-0.00126,0.00144,-0.00020,-0.05130,-0.11444,0.99277,2.12629,0.00000,3.95630,3.95630,-2.05056,1.13892,2.05368,-2.34776,1.20461,4.61551,-1.66768,A,151041.60
2.14174,57.68804444,11.97986008,57.68804500,11.97985533,15:10:41.807663,0.00521,0.00000,0.00000,-0.12844,0.00000,0.00072,-0.00024,0.00087,-0.05100,-0.11505,0.99235,2.13600,0.00000,4.05519,4.05519,-2.06542,1.14221,2.05368,-2.34776,1.20461,4.61551,-1.66768,A,151041.60
2.15202,57.68804447,11.97985985,57.68804500,11.97985533,15:10:41.818252,0.00508,0.00000,0.00000,-0.12870,0.00000,0.00179,0.00022,0.00209,-0.05356,-0.11553,0.99186,2.14659,0.00000,4.13923,4.13923,-2.07954,1.14533,2.05368,-2.34776,1.20461,4.61551,-1.66768,A,151041.60
2.19406,57.68804449,11.97985962,57.68804350,11.97985400,15:10:41.860717,0.03672,0.00000,1.50000,-0.12895,0.02000,0.00484,-0.00284,-0.00173,-0.05118,-0.11700,0.99204,2.15676,0.00000,4.21067,4.21067,-2.09295,1.14829,2.17408,-2.42700,1.03782,4.26883,-2.01436,A,151041.70
2.20782,57.68804444,11.97985934,57.68804350,11.97985400,15:10:41.873769,0.00611,0.00000,0.00000,-0.12907,0.00000,0.00255,0.00175,0.00132,-0.05331,-0.11309,0.99430,2.20147,0.00000,4.21940,4.21940,-2.10965,1.14277,2.17408,-2.42700,1.03782,4.26883,-2.01436,A,151041.70
2.21889,57.68804440,11.97985907,57.68804350,11.97985400,15:10:41.884813,0.00664,0.00000,0.00000,-0.12937,0.00000,-0.00004,-0.00009,-0.00005,-0.05197,-0.11694,0.98954,2.21339,0.00000,4.22681,4.22681,-2.12552,1.13752,2.17408,-2.42700,1.03782,4.26883,-2.01436,A,151041.70
2.22774,57.68804435,11.97985882,57.68804350,11.97985400,15:10:41.893662,0.00509,0.00000,0.00000,-0.12966,0.00000,-0.00111,-0.00238,-0.00127,-0.05228,-0.11675,0.99308,2.22231,0.00000,4.23311,4.23311,-2.14059,1.13254,2.17408,-2.42700,1.03782,4.26883,-2.01436,A,151041.70
2.23806,57.68804431,11.97985858,57.68804350,11.97985400,15:10:41.903980,0.00518,0.00000,0.00000,-0.12991,0.00000,-0.00126,0.00068,-0.00066,-0.05258,-0.11370,0.99058,2.23236,0.00000,4.23847,4.23847,-2.15491,1.12780,2.17408,-2.42700,1.03782,4.26883,-2.01436,A,151041.70
2.25001,57.68804427,11.97985835,57.68804350,11.97985400,15:10:41.915928,0.00673,0.00000,0.00000,-0.13014,0.00000,0.00179,-0.00039,-0.00234,-0.05270,-0.11499,0.98844,2.24424,0.00000,4.24303,4.24303,-2.16852,1.12330,2.17408,-2.42700,1.03782,4.26883,-2.01436,A,151041.70
2.26041,57.68804423,11.97985813,57.68804350,11.97985400,15:10:41.926348,0.00643,0.00000,0.00000,-0.13043,0.00000,-0.00172,0.00052,0.00255,-0.05307,-0.11639,0.99131,2.25385,0.00000,4.24690,4.24690,-2.18144,1.11903,2.17408,-2.42700,1.03782,4.26883,-2.01436,A,151041.70
2.27039,57.68804419,11.97985792,57.68804350,11.97985400,15:10:41.936327,0.00587,0.00000,0.00000,-0.13066,0.00000,-0.00142,-0.00238,-0.00051,-0.05350,-0.11322,0.98924,2.26398,0.00000,4.25019,4.25019,-2.19372,1.11497,2.17408,-2.42700,1.03782,4.26883,-2.01436,A,151041.70
2.32426,57.68804416,11.97985773,57.68804350,11.97984533,15:10:41.990518,0.04950,0.00000,1.50000,-0.13091,0.02000,0.00042,0.00220,0.00300,-0.05112,-0.11596,0.99247,2.27489,0.00000,4.25298,4.25298,-2.20539,1.11111,2.30368,-2.94212,1.03782,3.14159,3.14159,A,151041.90
2.34299,57.68804413,11.97985711,57.68804350,11.97984533,15:10:42.008904,0.00669,0.00000,0.00000,-0.13095,0.00000,0.00301,0.00052,-0.00097,-0.05319,-0.11438,0.99363,2.33749,0.00000,4.08627,4.08627,-2.24222,1.10745,2.30368,-2.94212,1.03782,3.14159,3.14159,A,151041.90
2.35180,57.68804409,11.97985652,57.68804350,11.97984533,15:10:42.017720,0.00511,0.00000,0.00000,-0.13116,0.00000,0.00164,-0.00100,0.00331,-0.05081,-0.11450,0.99192,2.34637,0.00000,3.94457,3.94457,-2.27722,1.10396,2.30368,-2.94212,1.03782,3.14159,3.14159,A,151041.90
2.36209,57.68804407,11.97985596,57.68804350,11.97984533,15:10:42.028013,0.00517,0.00000,0.00000,-0.13140,0.00000,-0.00447,-0.00222,0.00148,-0.05337,-0.11279,0.99393,2.35639,0.00000,3.82413,3.82413,-2.31046,1.10066,2.30368,-2.94212,1.03782,3.14159,3.14159,A,151041.90
2.37306,57.68804404,11.97985543,57.68804350,11.97984533,15:10:42.038986,0.00554,0.00000,0.00000,-0.13161,0.00000,0.00362,-0.00009,0.00087,-0.04984,-0.11669,0.99351,2.36730,0.00000,3.72175,3.72175,-2.34205,1.09751,2.30368,-2.94212,1.03782,3.14159,3.14159,A,151041.90
2.38357,57.68804401,11.97985492,57.68804350,11.97984533,15:10:42.049483,0.00553,0.00000,0.00000,-0.13185,0.00000,-0.00096,-0.00146,-0.00020,-0.05520,-0.11535,0.99302,2.37812,0.00000,3.63472,3.63472,-2.37205,1.09453,2.30368,-2.94212,1.03782,3.14159,3.14159,A,151041.90
2.39455,57.68804398,11.97985445,57.68804350,11.97984533,15:10:42.060465,0.00575,0.00000,0.00000,-0.13203,0.00000,0.00179,-0.00345,0.00117,-0.05094,-0.11334,0.98979,2.38886,0.00000,3.56075,3.56075,-2.40055,1.09169,2.30368,-2.94212,1.03782,3.14159,3.14159,A,151041.90
2.43559,57.68804396,11.97985399,57.68804367,11.97984633,15:10:42.101550,0.03640,0.00000,1.50000,-0.13228,0.02000,-0.00218,-0.00207,0.00041,-0.05307,-0.11560,0.99094,2.39886,0.00000,3.49788,3.49788,-2.42763,1.08900,2.41552,-2.88269,1.05635,0.30225,0.30225,A,151042.00
2.45406,57.68804395,11.97985361,57.68804367,11.97984633,15:10:42.119968,0.00690,0.00000,0.00000,-0.13261,0.00000,-0.00233,-0.00253,0.00087,-0.05051,-0.11511,0.99241,2.44831,0.00000,3.01853,3.01853,-2.45038,1.08737,2.41552,-2.88269,1.05635,0.30225,0.30225,A,151042.00
2.46353,57.68804393,11.97985324,57.68804367,11.97984633,15:10:42.129451,0.00597,0.00000,0.00000,-0.13280,0.00000,-0.00126,-0.00024,-0.00035,-0.04880,-0.11376,0.99540,2.45783,0.00000,2.61109,2.61109,-2.47200,1.08582,2.41552,-2.88269,1.05635,0.30225,0.30225,A,151042.00
2.47331,57.68804392,11.97985290,57.68804367,11.97984633,15:10:42.139228,0.00535,0.00000,0.00000,-0.13299,0.00000,0.00271,-0.00131,0.00041,-0.05258,-0.11541,0.99320,2.46759,0.00000,2.26476,2.26476,-2.49253,1.08434,2.41552,-2.88269,1.05635,0.30225,0.30225,A,151042.00
2.48356,57.68804391,11.97985257,57.68804367,11.97984633,15:10:42.149486,0.00520,0.00000,0.00000,-0.13323,0.00000,-0.00172,-0.00207,0.00056,-0.05039,-0.11645,0.99155,2.47800,0.00000,1.97039,1.97039,-2.51204,1.08294,2.41552,-2.88269,1.05635,0.30225,0.30225,A,151042.00
2.49566,57.68804389,11.97985226,57.68804367,11.97984633,15:10:42.161584,0.00706,0.00000,0.00000,-0.13343,0.00000,0.00011,0.00282,-0.00173,-0.05161,-0.11499,0.99253,2.48808,0.00000,1.72017,1.72017,-2.53057,1.08162,2.41552,-2.88269,1.05635,0.30225,0.30225,A,151042.00
2.50429,57.68804388,11.97985196,57.68804367,11.97984633,15:10:42.170234,0.00506,0.00000,0.00000,-0.13362,0.00000,-0.00111,0.00251,-0.00280,-0.05264,-0.11358,0.99247,2.49866,0.00000,1.50748,1.50748,-2.54818,1.08035,2.41552,-2.88269,1.05635,0.30225,0.30225,A,151042.00
2.51574,57.68804387,11.97985168,57.68804367,11.97984633,15:10:42.181664,0.00558,0.00000,0.00000,-0.13383,0.00000,-0.00203,-0.00146,0.00346,-0.05185,-0.11499,0.99137,2.51029,0.00000,1.32669,1.32669,-2.56490,1.07915,2.41552,-2.88269,1.05635,0.30225,0.30225,A,151042.00
2.55492,57.68804386,11.97985141,57.68804383,11.97984817,15:10:42.220879,0.03452,0.00000,1.50000,-0.13403,0.02000,0.00103,-0.00070,0.00041,-0.05222,-0.11566,0.99046,2.52031,0.00000,1.17303,1.17303,-2.58079,1.07801,2.53648,-2.77372,1.07488,0.16846,0.16846,A,151042.10
2.57412,57.68804386,11.97985125,57.68804383,11.97984817,15:10:42.240037,0.00781,0.00000,0.00000,-0.13419,0.00000,0.00042,0.00022,0.00087,-0.05209,-0.11480,0.99162,2.56833,0.00000,1.02234,1.02234,-2.59044,1.07786,2.53648,-2.77372,1.07488,0.16846,0.16846,A,151042.10
2.58260,57.68804386,11.97985110,57.68804383,11.97984817,15:10:42.248666,0.00605,0.00000,0.00000,-0.13440,0.00000,-0.00294,-0.00070,-0.00035,-0.04917,-0.11486,0.99284,2.57604,0.00000,0.89426,0.89426,-2.59960,1.07771,2.53648,-2.77372,1.07488,0.16846,0.16846,A,151042.10
2.59285,57.68804386,11.97985095,57.68804383,11.97984817,15:10:42.258765,0.00591,0.00000,0.00000,-0.13457,0.00000,0.00148,-0.00284,-0.00097,-0.05185,-0.11547,0.98991,2.58712,0.00000,0.78539,0.78539,-2.60831,1.07757,2.53648,-2.77372,1.07488,0.16846,0.16846,A,151042.10
2.60243,57.68804386,11.97985081,57.68804383,11.97984817,15:10:42.268343,0.00509,0.00000,0.00000,-0.13479,0.00000,0.00042,-0.00161,-0.00142,-0.05106,-0.11785,0.99204,2.59677,0.00000,0.69285,0.69285,-2.61658,1.07743,2.53648,-2.77372,1.07488,0.16846,0.16846,A,151042.10
2.61312,57.68804386,11.97985068,57.68804383,11.97984817,15:10:42.279037,0.00537,0.00000,0.00000,-0.13497,0.00000,-0.00111,-0.00177,0.00331,-0.05234,-0.11438,0.99052,2.60739,0.00000,0.61419,0.61419,-2.62444,1.07730,2.53648,-2.77372,1.07488,0.16846,0.16846,A,151042.10
2.62358,57.68804385,11.97985055,57.68804383,11.97984817,15:10:42.289497,0.00561,0.00000,0.00000,-0.13515,0.00000,0.00103,-0.00085,0.00163,-0.04886,-0.11596,0.99155,2.61812,0.00000,0.54733,0.54733,-2.63190,1.07718,2.53648,-2.77372,1.07488,0.16846,0.16846,A,151042.10
2.63422,57.68804385,11.97985043,57.68804383,11.97984817,15:10:42.300135,0.00570,0.00000,0.00000,-0.13532,0.00000,0.00072,-0.00268,0.00010,-0.05228,-0.11523,0.98881,2.62851,0.00000,0.49050,0.49050,-2.63899,1.07707,2.53648,-2.77372,1.07488,0.16846,0.16846,A,151042.10
2.67492,57.68804385,11.97985032,57.68804317,11.97984783,15:10:42.341346,0.03601,0.00000,1.50000,-0.13552,0.02000,-0.00218,-0.00070,-0.00005,-0.05283,-0.11535,0.99155,2.63857,0.00000,0.44220,0.44220,-2.64573,1.07696,2.65442,-2.79353,1.00075,-1.83196,-1.83196,A,151042.20
2.69464,57.68804382,11.97985020,57.68804317,11.97984783,15:10:42.360557,0.00828,0.00000,0.00000,-0.13582,0.00000,-0.00264,0.00129,-0.00066,-0.05222,-0.11517,0.99125,2.68842,0.00000,0.10107,0.10107,-2.65312,1.07315,2.65442,-2.79353,1.00075,-1.83196,-1.83196,A,151042.20
2.70177,57.68804379,11.97985008,57.68804317,11.97984783,15:10:42.367695,0.00518,0.00000,0.00000,-0.13595,0.00000,0.00316,-0.00085,-0.00051,-0.05252,-0.11450,0.99320,2.69607,0.00000,-0.18888,-0.18888,-2.66014,1.06953,2.65442,-2.79353,1.00075,-1.83196,-1.83196,A,151042.20
2.71232,57.68804375,11.97984997,57.68804317,11.97984783,15:10:42.378258,0.00533,0.00000,0.00000,-0.13613,0.00000,-0.00157,-0.00131,0.00148,-0.05307,-0.11511,0.99180,2.70667,0.00000,-0.43534,-0.43534,-2.66681,1.06609,2.65442,-2.79353,1.00075,-1.83196,-1.83196,A,151042.20
2.72271,57.68804372,11.97984986,57.68804317,11.97984783,15:10:42.388630,0.00531,0.00000,0.00000,-0.13625,0.00000,0.00286,0.00037,0.00178,-0.05094,-0.11523,0.99271,2.71725,0.00000,-0.64483,-0.64483,-2.67315,1.06282,2.65442,-2.79353,1.00075,-1.83196,-1.83196,A,151042.20
2.73358,57.68804370,11.97984976,57.68804317,11.97984783,15:10:42.399495,0.00593,0.00000,0.00000,-0.13644,0.00000,-0.00279,-0.00207,-0.00081,-0.05136,-0.11517,0.99277,2.72778,0.00000,-0.82290,-0.82290,-2.67916,1.05972,2.65442,-2.79353,1.00075,-1.83196,-1.83196,A,151042.20
2.74568,57.68804367,11.97984966,57.68804317,11.97984783,15:10:42.411604,0.00763,0.00000,0.00000,-0.13657,0.00000,0.00194,0.00205,0.00300,-0.05014,-0.11499,0.99223,2.73806,0.00000,-0.97426,-0.97426,-2.68488,1.05677,2.65442,-2.79353,1.00075,-1.83196,-1.83196,A,151042.20
2.78618,57.68804365,11.97984957,57.68804183,11.97984867,15:10:42.452132,0.03764,0.00000,1.50000,-0.13670,0.02000,0.00148,-0.00085,0.00026,-0.05270,-0.11474,0.99064,2.74799,0.00000,-1.10292,-1.10292,-2.69032,1.05397,2.76562,-2.74400,0.85249,-1.24837,-1.24837,A,151042.30
2.80116,57.68804355,11.97984952,57.68804183,11.97984867,15:10:42.467080,0.00791,0.00000,0.00000,-0.13680,0.00000,0.00133,0.00068,0.00071,-0.05039,-0.11523,0.99119,2.79509,0.00000,-1.12473,-1.12473,-2.69300,1.04390,2.76562,-2.74400,0.85249,-1.24837,-1.24837,A,151042.30
2.80948,57.68804347,11.97984948,57.68804183,11.97984867,15:10:42.475406,0.00580,0.00000,0.00000,-0.13692,0.00000,0.00225,-0.00161,-0.00371,-0.05020,-0.11468,0.99216,2.80340,0.00000,-1.14328,-1.14328,-2.69555,1.03433,2.76562,-2.74400,0.85249,-1.24837,-1.24837,A,151042.30
2.81949,57.68804339,11.97984944,57.68804183,11.97984867,15:10:42.485406,0.00540,0.00000,0.00000,-0.13705,0.00000,0.00087,0.00175,0.00239,-0.05276,-0.11468,0.99198,2.81372,0.00000,-1.15904,-1.15904,-2.69797,1.02524,2.76562,-2.74400,0.85249,-1.24837,-1.24837,A,151042.30
2.82969,57.68804331,11.97984940,57.68804183,11.97984867,15:10:42.495610,0.00516,0.00000,0.00000,-0.13717,0.00000,0.00271,-0.00024,-0.00173,-0.05234,-0.11523,0.99290,2.82399,0.00000,-1.17244,-1.17244,-2.70027,1.01660,2.76562,-2.74400,0.85249,-1.24837,-1.24837,A,151042.30
2.83998,57.68804324,11.97984937,57.68804183,11.97984867,15:10:42.506151,0.00505,0.00000,0.00000,-0.13731,0.00000,0.00164,-0.00039,0.00148,-0.05325,-0.11614,0.99040,2.83457,0.00000,-1.18383,-1.18383,-2.70246,1.00839,2.76562,-2.74400,0.85249,-1.24837,-1.24837,A,151042.30
2.85084,57.68804317,11.97984933,57.68804183,11.97984867,15:10:42.516768,0.00550,0.00000,0.00000,-0.13752,0.00000,-0.00462,0.00480,-0.00158,-0.05039,-0.11608,0.98997,2.84478,0.00000,-1.19351,-1.19351,-2.70454,1.00060,2.76562,-2.74400,0.85249,-1.24837,-1.24837,A,151042.30
2.86133,57.68804310,11.97984930,57.68804183,11.97984867,15:10:42.527244,0.00540,0.00000,0.00000,-0.13762,0.00000,0.00210,-0.00161,0.00102,-0.05222,-0.11407,0.98979,2.85559,0.00000,-1.20174,-1.20174,-2.70651,0.99319,2.76562,-2.74400,0.85249,-1.24837,-1.24837,A,151042.30
2.91377,57.68804304,11.97984927,57.68803783,11.97984917,15:10:42.579717,0.04745,0.00000,1.50000,-0.13779,0.02000,-0.00203,0.00022,0.00041,-0.05136,-0.11608,0.99052,2.86622,0.00000,-1.20874,-1.20874,-2.70838,0.98616,2.89343,-2.71428,0.40771,-1.50408,-1.50408,A,151042.50
2.93258,57.68804278,11.97984926,57.68803783,11.97984917,15:10:42.598504,0.00796,0.00000,0.00000,-0.13806,0.00000,-0.00249,0.00266,-0.00142,-0.05069,-0.11401,0.99284,2.92686,0.00000,-1.25304,-1.25304,-2.70868,0.95724,2.89343,-2.71428,0.40771,-1.50408,-1.50408,A,151042.50
2.94060,57.68804253,11.97984926,57.68803783,11.97984917,15:10:42.606545,0.00558,0.00000,0.00000,-0.13821,0.00000,-0.00279,-0.00070,0.00239,-0.05234,-0.11505,0.99204,2.93467,0.00000,-1.29070,-1.29070,-2.70896,0.92976,2.89343,-2.71428,0.40771,-1.50408,-1.50408,A,151042.50
2.95051,57.68804229,11.97984925,57.68803783,11.97984917,15:10:42.616426,0.00509,0.00000,0.00000,-0.13828,0.00000,0.00423,-0.00192,-0.00387,-0.05173,-0.11474,0.99235,2.94485,0.00000,-1.32270,-1.32270,-2.70923,0.90366,2.89343,-2.71428,0.40771,-1.50408,-1.50408,A,151042.50
2.96290,57.68804207,11.97984925,57.68803783,11.97984917,15:10:42.628824,0.00709,0.00000,0.00000,-0.13835,0.00000,0.00423,-0.00100,0.00209,-0.05472,-0.11462,0.99168,2.95739,0.00000,-1.34991,-1.34991,-2.70948,0.87886,2.89343,-2.71428,0.40771,-1.50408,-1.50408,A,151042.50
2.97125,57.68804186,11.97984924,57.68803783,11.97984917,15:10:42.637166,0.00503,0.00000,0.00000,-0.13851,0.00000,-0.00386,-0.00284,-0.00234,-0.05569,-0.11523,0.99247,2.96583,0.00000,-1.37303,-1.37303,-2.70972,0.85530,2.89343,-2.71428,0.40771,-1.50408,-1.50408,A,151042.50
2.98173,57.68804166,11.97984924,57.68803783,11.97984917,15:10:42.647647,0.00526,0.00000,0.00000,-0.13860,0.00000,0.00225,0.00114,0.00026,-0.05148,-0.11444,0.99393,2.97596,0.00000,-1.39269,-1.39269,-2.70995,0.83292,2.89343,-2.71428,0.40771,-1.50408,-1.50408,A,151042.50
2.99334,57.68804147,11.97984924,57.68803783,11.97984917,15:10:42.659272,0.00647,0.00000,0.00000,-0.13875,0.00000,0.00011,-0.00054,-0.00188,-0.05283,-0.11724,0.98911,2.98651,0.00000,-1.40940,-1.40940,-2.71016,0.81166,2.89343,-2.71428,0.40771,-1.50408,-1.50408,A,151042.50
3.03159,57.68804128,11.97984923,57.68803667,11.97984783,15:10:42.698379,0.03418,0.00000,1.50000,-0.13887,0.02000,-0.00020,0.00007,0.00285,-0.05240,-0.11505,0.99143,2.99826,0.00000,-1.42360,-1.42360,-2.71037,0.79147,3.01486,-2.79353,0.27799,-2.11918,-2.11918,A,151042.60
3.05198,57.68804105,11.97984916,57.68803667,11.97984783,15:10:42.718162,0.00778,0.00000,0.00000,-0.13913,0.00000,-0.00294,-0.00009,0.00010,-0.05173,-0.11492,0.99015,3.04650,0.00000,-1.52794,-1.52794,-2.71453,0.76579,3.01486,-2.79353,0.27799,-2.11918,-2.11918,A,151042.60
3.05969,57.68804083,11.97984910,57.68803667,11.97984783,15:10:42.725603,0.00508,0.00000,0.00000,-0.13924,0.00000,-0.00020,0.00144,-0.00234,-0.05319,-0.11505,0.99332,3.05425,0.00000,-1.61663,-1.61663,-2.71848,0.74140,3.01486,-2.79353,0.27799,-2.11918,-2.11918,A,151042.60
3.07087,57.68804063,11.97984903,57.68803667,11.97984783,15:10:42.736787,0.00603,0.00000,0.00000,-0.13929,0.00000,0.00607,-0.00116,0.00041,-0.05441,-0.11541,0.99235,3.06541,0.00000,-1.69201,-1.69201,-2.72223,0.71823,3.01486,-2.79353,0.27799,-2.11918,-2.11918,A,151042.60
3.08077,57.68804043,11.97984897,57.68803667,11.97984783,15:10:42.746691,0.00553,0.00000,0.00000,-0.13942,0.00000,-0.00172,-0.00329,0.00132,-0.05063,-0.11505,0.99192,3.07507,0.00000,-1.75609,-1.75609,-2.72580,0.69622,3.01486,-2.79353,0.27799,-2.11918,-2.11918,A,151042.60
3.09069,57.68804024,11.97984892,57.68803667,11.97984783,15:10:42.756608,0.00505,0.00000,0.00000,-0.13954,0.00000,0.00026,-0.00177,-0.00219,-0.05447,-0.11639,0.99131,3.08526,0.00000,-1.81055,-1.81055,-2.72918,0.67531,3.01486,-2.79353,0.27799,-2.11918,-2.11918,A,151042.60
3.10168,57.68804006,11.97984886,57.68803667,11.97984783,15:10:42.767608,0.00579,0.00000,0.00000,-0.13959,0.00000,0.00439,0.00175,-0.00081,-0.04874,-0.11407,0.99180,3.09559,0.00000,-1.85685,-1.85685,-2.73240,0.65544,3.01486,-2.79353,0.27799,-2.11918,-2.11918,A,151042.60
3.11125,57.68803989,11.97984881,57.68803667,11.97984783,15:10:42.777168,0.00496,0.00000,0.00000,-0.13971,0.00000,-0.00249,0.00205,0.00163,-0.05173,-0.11419,0.99149,3.10583,0.00000,-1.89620,-1.89620,-2.73546,0.63657,3.01486,-2.79353,0.27799,-2.11918,-2.11918,A,151042.60
3.15184,57.68803973,11.97984876,57.68803600,11.97984800,15:10:42.817788,0.03527,0.00000,1.50000,-0.13977,0.02000,0.00347,-0.00070,-0.00310,-0.05014,-0.11431,0.99198,3.11624,0.00000,-1.92964,-1.92964,-2.73836,0.61864,3.13234,-2.78363,0.20386,-1.43795,-1.43795,A,151042.70
3.17360,57.68803954,11.97984872,57.68803600,11.97984800,15:10:42.839520,0.00827,0.00000,0.00000,-0.13997,0.00000,-0.00203,-0.00131,-0.00081,-0.05130,-0.11499,0.99088,3.16782,0.00000,-1.85589,-1.85589,-2.74062,0.59790,3.13234,-2.78363,0.20386,-1.43795,-1.43795,A,151042.70
3.18118,57.68803937,11.97984869,57.68803600,11.97984800,15:10:42.847099,0.00545,0.00000,0.00000,-0.14007,0.00000,0.00408,-0.00192,-0.00005,-0.04892,-0.11639,0.99027,3.17544,0.00000,-1.79320,-1.79320,-2.74277,0.57820,3.13234,-2.78363,0.20386,-1.43795,-1.43795,A,151042.70
3.19120,57.68803920,11.97984865,57.68803600,11.97984800,15:10:42.857118,0.00507,0.00000,0.00000,-0.14014,0.00000,0.00210,0.00220,-0.00371,-0.05008,-0.11480,0.99253,3.18575,0.00000,-1.73991,-1.73991,-2.74482,0.55948,3.13234,-2.78363,0.20386,-1.43795,-1.43795,A,151042.70
3.20237,57.68803904,11.97984862,57.68803600,11.97984800,15:10:42.868293,0.00544,0.00000,0.00000,-0.14025,0.00000,-0.00157,0.00114,0.00132,-0.05228,-0.11474,0.99259,3.19669,0.00000,-1.69462,-1.69462,-2.74676,0.54170,3.13234,-2.78363,0.20386,-1.43795,-1.43795,A,151042.70
3.21383,57.68803889,11.97984859,57.68803600,11.97984800,15:10:42.879742,0.00649,0.00000,0.00000,-0.14031,0.00000,0.00225,0.00373,-0.00081,-0.05161,-0.11492,0.99204,3.20809,0.00000,-1.65612,-1.65612,-2.74860,0.52481,3.13234,-2.78363,0.20386,-1.43795,-1.43795,A,151042.70
3.22307,57.68803874,11.97984856,57.68803600,11.97984800,15:10:42.888993,0.00534,0.00000,0.00000,-0.14036,0.00000,0.00164,-0.00345,0.00010,-0.05417,-0.11279,0.99076,3.21761,0.00000,-1.62339,-1.62339,-2.75035,0.50876,3.13234,-2.78363,0.20386,-1.43795,-1.43795,A,151042.70
3.26307,57.68803860,11.97984853,57.68803583,11.97984700,15:10:42.929041,0.03438,0.00000,1.50000,-0.14047,0.02000,-0.00096,-0.00192,-0.00020,-0.05276,-0.11505,0.99046,3.22815,0.00000,-1.59558,-1.59558,-2.75202,0.49352,3.24559,-2.84306,0.18532,-2.83934,-2.83934,A,151042.80
3.28313,57.68803847,11.97984846,57.68803583,11.97984700,15:10:42.949050,0.00797,0.00000,0.00000,-0.14068,0.00000,-0.00294,-0.00253,0.00010,-0.05344,-0.11389,0.99296,3.27701,0.00000,-1.78214,-1.78214,-2.75657,0.47811,3.24559,-2.84306,0.18532,-2.83934,-2.83934,A,151042.80
3.29063,57.68803833,11.97984838,57.68803583,11.97984700,15:10:42.956553,0.00508,0.00000,0.00000,-0.14076,0.00000,0.00072,0.00037,0.00041,-0.05234,-0.11486,0.99284,3.28499,0.00000,-1.94072,-1.94072,-2.76089,0.46347,3.24559,-2.84306,0.18532,-2.83934,-2.83934,A,151042.80
3.30134,57.68803821,11.97984831,57.68803583,11.97984700,15:10:42.967260,0.00538,0.00000,0.00000,-0.14082,0.00000,0.00408,0.00266,-0.00158,-0.05197,-0.11614,0.99265,3.29562,0.00000,-2.07552,-2.07552,-2.76500,0.44956,3.24559,-2.84306,0.18532,-2.83934,-2.83934,A,151042.80
3.31130,57.68803809,11.97984825,57.68803583,11.97984700,15:10:42.977219,0.00508,0.00000,0.00000,-0.14089,0.00000,0.00210,-0.00039,-0.00112,-0.05222,-0.11492,0.99204,3.30585,0.00000,-2.19009,-2.19009,-2.76890,0.43635,3.24559,-2.84306,0.18532,-2.83934,-2.83934,A,151042.80
3.32198,57.68803798,11.97984819,57.68803583,11.97984700,15:10:42.987895,0.00543,0.00000,0.00000,-0.14097,0.00000,-0.00157,0.00052,-0.00127,-0.05033,-0.11413,0.99186,3.31600,0.00000,-2.28748,-2.28748,-2.77261,0.42380,3.24559,-2.84306,0.18532,-2.83934,-2.83934,A,151042.80
3.33316,57.68803787,11.97984813,57.68803583,11.97984700,15:10:42.999083,0.00621,0.00000,0.00000,-0.14106,0.00000,-0.00004,-0.00116,-0.00020,-0.05301,-0.11535,0.99162,3.32659,0.00000,-2.37026,-2.37026,-2.77613,0.41187,3.24559,-2.84306,0.18532,-2.83934,-2.83934,A,151042.80
3.34245,57.68803777,11.97984807,57.68803583,11.97984700,15:10:43.008362,0.00510,0.00000,0.00000,-0.14115,0.00000,-0.00050,-0.00436,-0.00158,-0.05252,-0.11468,0.99021,3.33677,0.00000,-2.44062,-2.44062,-2.77948,0.40055,3.24559,-2.84306,0.18532,-2.83934,-2.83934,A,151042.80
3.38500,57.68803767,11.97984802,57.68803650,11.97984700,15:10:43.050943,0.03726,0.00000,1.50000,-0.14120,0.02000,0.00118,0.00236,0.00087,-0.05002,-0.11322,0.99003,3.34738,0.00000,-2.50043,-2.50043,-2.78266,0.38978,3.36457,-2.84306,0.25945,-4.71239,1.57080,A,151042.90
3.40377,57.68803761,11.97984797,57.68803650,11.97984700,15:10:43.069691,0.00741,0.00000,0.00000,-0.14100,0.00000,0.00561,0.00098,-0.00051,-0.05179,-0.11517,0.99204,3.39744,0.00000,-2.83222,-2.83222,-2.78568,0.38327,3.36457,-2.84306,0.25945,-4.71239,1.57080,A,151042.90
3.41264,57.68803756,11.97984792,57.68803650,11.97984700,15:10:43.078561,0.00587,0.00000,0.00000,-0.14106,0.00000,0.00225,0.00175,-0.00051,-0.05179,-0.11517,0.99418,3.40692,0.00000,-3.11425,-3.11425,-2.78855,0.37708,3.36457,-2.84306,0.25945,-4.71239,1.57080,A,151042.90
3.42257,57.68803750,11.97984787,57.68803650,11.97984700,15:10:43.088495,0.00541,0.00000,0.00000,-0.14116,0.00000,0.00148,-0.00085,-0.00020,-0.05295,-0.11657,0.99107,3.41659,0.00000,-3.35397,-3.35397,-2.79127,0.37120,3.36457,-2.84306,0.25945,-4.71239,1.57080,A,151042.90
3.43326,57.68803745,11.97984783,57.68803650,11.97984700,15:10:43.099187,0.00570,0.00000,0.00000,-0.14120,0.00000,0.00469,-0.00024,0.00087,-0.05215,-0.11596,0.99119,3.42724,0.00000,-3.55773,-3.55773,-2.79386,0.36561,3.36457,-2.84306,0.25945,-4.71239,1.57080,A,151042.90
3.44542,57.68803741,11.97984779,57.68803650,11.97984700,15:10:43.111348,0.00746,0.00000,0.00000,-0.14131,0.00000,0.00087,-0.00207,0.00071,-0.05185,-0.11712,0.99265,3.43876,0.00000,-3.73093,-3.73093,-2.79632,0.36030,3.36457,-2.84306,0.25945,-4.71239,1.57080,A,151042.90
3.45371,57.68803736,11.97984775,57.68803650,11.97984700,15:10:43.119629,0.00536,0.00000,0.00000,-0.14140,0.00000,-0.00142,0.00068,0.00209,-0.05215,-0.11523,0.99143,3.44800,0.00000,-3.87815,-3.87815,-2.79866,0.35526,3.36457,-2.84306,0.25945,-4.71239,1.57080,A,151042.90
3.46452,57.68803732,11.97984771,57.68803650,11.97984700,15:10:43.130450,0.00542,0.00000,0.00000,-0.14146,0.00000,0.00133,-0.00284,-0.00020,-0.05368,-0.11499,0.99534,3.45883,0.00000,-4.00329,-4.00329,-2.80088,0.35047,3.36457,-2.84306,0.25945,-4.71239,1.57080,A,151042.90
3.51382,57.68803728,11.97984767,57.68803817,11.97984667,15:10:43.179779,0.04429,0.00000,1.50000,-0.14152,0.02000,0.00118,0.00312,0.00041,-0.04935,-0.11535,0.99424,3.46901,0.00000,-4.10965,-4.10965,-2.80299,0.34592,3.49501,-2.86287,0.44478,-4.60589,1.67730,A,151043.10
3.53372,57.68803732,11.97984762,57.68803817,11.97984667,15:10:43.199639,0.00692,0.00000,0.00000,-0.14145,0.00000,0.00301,0.00266,-0.00066,-0.05155,-0.11627,0.99149,3.52793,0.00000,-4.18409,-4.18409,-2.80598,0.35086,3.49501,-2.86287,0.44478,-4.60589,1.67730,A,151043.10
3.54233,57.68803736,11.97984758,57.68803817,11.97984667,15:10:43.208243,0.00513,0.00000,0.00000,-0.14151,0.00000,0.00011,0.00159,0.00194,-0.05161,-0.11401,0.99241,3.53663,0.00000,-4.24736,-4.24736,-2.80883,0.35556,3.49501,-2.86287,0.44478,-4.60589,1.67730,A,151043.10
3.55296,57.68803740,11.97984753,57.68803817,11.97984667,15:10:43.218875,0.00536,0.00000,0.00000,-0.14158,0.00000,0.00087,-0.00116,-0.00203,-0.05161,-0.11547,0.99271,3.54725,0.00000,-4.30114,-4.30114,-2.81153,0.36002,3.49501,-2.86287,0.44478,-4.60589,1.67730,A,151043.10
3.56312,57.68803744,11.97984749,57.68803817,11.97984667,15:10:43.229038,0.00512,0.00000,0.00000,-0.14160,0.00000,0.00439,0.00419,0.00132,-0.05112,-0.11444,0.99107,3.55768,0.00000,-4.34685,-4.34685,-2.81410,0.36426,3.49501,-2.86287,0.44478,-4.60589,1.67730,A,151043.10
3.57446,57.68803748,11.97984745,57.68803817,11.97984667,15:10:43.240376,0.00592,0.00000,0.00000,-0.14171,0.00000,0.00011,-0.00421,0.00010,-0.05179,-0.11749,0.99131,3.56799,0.00000,-4.38570,-4.38570,-2.81654,0.36828,3.49501,-2.86287,0.44478,-4.60589,1.67730,A,151043.10
3.58577,57.68803751,11.97984741,57.68803817,11.97984667,15:10:43.251682,0.00683,0.00000,0.00000,-0.14173,0.00000,0.00301,0.00129,0.00056,-0.05087,-0.11370,0.99229,3.57967,0.00000,-4.41873,-4.41873,-2.81885,0.37211,3.49501,-2.86287,0.44478,-4.60589,1.67730,A,151043.10
3.59443,57.68803755,11.97984737,57.68803817,11.97984667,15:10:43.260350,0.00510,0.00000,0.00000,-0.14178,0.00000,0.00240,0.00190,-0.00127,-0.05203,-0.11492,0.99192,3.58876,0.00000,-4.44681,-4.44681,-2.82105,0.37574,3.49501,-2.86287,0.44478,-4.60589,1.67730,A,151043.10
3.63575,57.68803758,11.97984734,57.68803850,11.97984617,15:10:43.303241,0.03602,0.00000,1.50000,-0.14183,0.02000,-0.00111,0.00052,0.00194,-0.05124,-0.11254,0.98918,3.59943,0.00000,-4.47067,-4.47067,-2.82315,0.37919,3.61667,-2.89259,0.48184,-4.03656,2.24663,A,151043.20
3.64978,57.68803762,11.97984728,57.68803850,11.97984617,15:10:43.315700,0.00692,0.00000,0.00000,-0.14197,0.00000,-0.00172,0.00144,-0.00005,-0.05161,-0.11425,0.98960,3.64402,0.00000,-4.40555,-4.40555,-2.82662,0.38433,3.61667,-2.89259,0.48184,-4.03656,2.24663,A,151043.20
3.65896,57.68803767,11.97984722,57.68803850,11.97984617,15:10:43.324882,0.00571,0.00000,0.00000,-0.14208,0.00000,-0.00310,0.00587,-0.00249,-0.05094,-0.11547,0.99204,3.65351,0.00000,-4.35020,-4.35020,-2.82992,0.38920,3.61667,-2.89259,0.48184,-4.03656,2.24663,A,151043.20
3.66904,57.68803771,11.97984717,57.68803850,11.97984617,15:10:43.334963,0.00538,0.00000,0.00000,-0.14217,0.00000,0.00133,-0.00100,0.00270,-0.05374,-0.11743,0.99168,3.66330,0.00000,-4.30316,-4.30316,-2.83305,0.39383,3.61667,-2.89259,0.48184,-4.03656,2.24663,A,151043.20
3.68118,57.68803775,11.97984712,57.68803850,11.97984617,15:10:43.347094,0.00605,0.00000,0.00000,-0.14222,0.00000,0.00118,-0.00329,0.00041,-0.05026,-0.11486,0.98942,3.67540,0.00000,-4.26317,-4.26317,-2.83603,0.39823,3.61667,-2.89259,0.48184,-4.03656,2.24663,A,151043.20
3.69185,57.68803779,11.97984707,57.68803850,11.97984617,15:10:43.357763,0.00632,0.00000,0.00000,-0.14228,0.00000,-0.00065,-0.00024,-0.00005,-0.05411,-0.11407,0.99296,3.68495,0.00000,-4.22917,-4.22917,-2.83886,0.40241,3.61667,-2.89259,0.48184,-4.03656,2.24663,A,151043.20
3.70145,57.68803782,11.97984703,57.68803850,11.97984617,15:10:43.367364,0.00567,0.00000,0.00000,-0.14237,0.00000,-0.00142,-0.00192,-0.00142,-0.05368,-0.11572,0.99094,3.69568,0.00000,-4.20028,-4.20028,-2.84154,0.40639,3.61667,-2.89259,0.48184,-4.03656,2.24663,A,151043.20
3.71123,57.68803786,11.97984698,57.68803850,11.97984617,15:10:43.377143,0.00505,0.00000,0.00000,-0.14241,0.00000,0.00255,0.00083,-0.00051,-0.05094,-0.11553,0.99265,3.70581,0.00000,-4.17572,-4.17572,-2.84410,0.41016,3.61667,-2.89259,0.48184,-4.03656,2.24663,A,151043.20
3.75093,57.68803789,11.97984694,57.68803933,11.97984383,15:10:43.416885,0.03361,0.00000,1.50000,-0.14246,0.02000,0.00118,-0.00009,0.00224,-0.05368,-0.11499,0.99302,3.71867,0.00000,-4.15485,-4.15485,-2.84652,0.41374,3.73471,-3.03128,0.57451,-3.73062,2.55257,A,151043.30
3.76727,57.68803796,11.97984679,57.68803933,11.97984383,15:10:43.433196,0.00652,0.00000,0.00000,-0.14249,0.00000,0.00148,0.00190,-0.00280,-0.05063,-0.11663,0.99052,3.76033,0.00000,-4.09121,-4.09121,-2.85576,0.42178,3.73471,-3.03128,0.57451,-3.73062,2.55257,A,151043.30
3.77732,57.68803803,11.97984664,57.68803933,11.97984383,15:10:43.443242,0.00616,0.00000,0.00000,-0.14250,0.00000,0.00332,0.00037,-0.00081,-0.05301,-0.11462,0.99296,3.77137,0.00000,-4.03712,-4.03712,-2.86453,0.42942,3.73471,-3.03128,0.57451,-3.73062,2.55257,A,151043.30
3.78680,57.68803809,11.97984650,57.68803933,11.97984383,15:10:43.452718,0.00524,0.00000,0.00000,-0.14256,0.00000,0.00164,0.00007,0.00010,-0.05246,-0.11547,0.99149,3.78133,0.00000,-3.99115,-3.99115,-2.87287,0.43667,3.73471,-3.03128,0.57451,-3.73062,2.55257,A,151043.30
3.79732,57.68803816,11.97984637,57.68803933,11.97984383,15:10:43.463247,0.00536,0.00000,0.00000,-0.14261,0.00000,0.00103,0.00114,-0.00005,-0.05008,-0.11517,0.98979,3.79160,0.00000,-3.95207,-3.95207,-2.88079,0.44356,3.73471,-3.03128,0.57451,-3.73062,2.55257,A,151043.30
3.80743,57.68803821,11.97984624,57.68803933,11.97984383,15:10:43.473343,0.00506,0.00000,0.00000,-0.14267,0.00000,0.00271,-0.00177,0.00010,-0.05228,-0.11669,0.99326,3.80200,0.00000,-3.91885,-3.91885,-2.88832,0.45011,3.73471,-3.03128,0.57451,-3.73062,2.55257,A,151043.30
3.81810,57.68803827,11.97984612,57.68803933,11.97984383,15:10:43.484017,0.00530,0.00000,0.00000,-0.14275,0.00000,-0.00264,0.00159,0.00148,-0.05148,-0.11499,0.99229,3.81232,0.00000,-3.89062,-3.89062,-2.89546,0.45633,3.73471,-3.03128,0.57451,-3.73062,2.55257,A,151043.30
3.82854,57.68803832,11.97984600,57.68803933,11.97984383,15:10:43.494466,0.00534,0.00000,0.00000,-0.14286,0.00000,-0.00249,0.00068,-0.00020,-0.05374,-0.11675,0.99149,3.82287,0.00000,-3.86662,-3.86662,-2.90226,0.46224,3.73471,-3.03128,0.57451,-3.73062,2.55257,A,151043.30
3.86592,57.68803837,11.97984590,57.68804067,11.97983650,15:10:43.531865,0.03229,0.00000,1.50000,-0.14289,0.02000,0.00057,0.00175,-0.00035,-0.05234,-0.11389,0.99259,3.83330,0.00000,-3.84622,-3.84622,-2.90871,0.46785,3.84915,-3.46715,0.72277,-3.46946,2.81372,A,151043.40
3.87829,57.68803849,11.97984543,57.68804067,11.97983650,15:10:43.544210,0.00756,0.00000,0.00000,-0.14285,0.00000,0.00194,-0.00146,0.00041,-0.05094,-0.11364,0.99277,3.87252,0.00000,-3.78970,-3.78970,-2.93663,0.48060,3.84915,-3.46715,0.72277,-3.46946,2.81372,A,151043.40
3.88727,57.68803860,11.97984498,57.68804067,11.97983650,15:10:43.553193,0.00613,0.00000,0.00000,-0.14291,0.00000,0.00133,0.00022,0.00163,-0.05124,-0.11566,0.99345,3.88070,0.00000,-3.74167,-3.74167,-2.96315,0.49271,3.84915,-3.46715,0.72277,-3.46946,2.81372,A,151043.40
3.89694,57.68803870,11.97984456,57.68804067,11.97983650,15:10:43.562857,0.00540,0.00000,0.00000,-0.14295,0.00000,0.00179,-0.00009,-0.00066,-0.05185,-0.11541,0.99241,3.89121,0.00000,-3.70084,-3.70084,-2.98835,0.50421,3.84915,-3.46715,0.72277,-3.46946,2.81372,A,151043.40
3.90766,57.68803880,11.97984415,57.68804067,11.97983650,15:10:43.573575,0.00572,0.00000,0.00000,-0.14304,0.00000,-0.00310,0.00098,-0.00051,-0.05222,-0.11517,0.99277,3.90219,0.00000,-3.66613,-3.66613,-3.01229,0.51514,3.84915,-3.46715,0.72277,-3.46946,2.81372,A,151043.40
3.91821,57.68803889,11.97984377,57.68804067,11.97983650,15:10:43.584130,0.00574,0.00000,0.00000,-0.14309,0.00000,-0.00035,0.00175,-0.00234,-0.05069,-0.11505,0.99277,3.91250,0.00000,-3.63663,-3.63663,-3.03504,0.52552,3.84915,-3.46715,0.72277,-3.46946,2.81372,A,151043.40
3.93087,57.68803898,11.97984341,57.68804067,11.97983650,15:10:43.596790,0.00799,0.00000,0.00000,-0.14317,0.00000,-0.00157,0.00037,0.00148,-0.05161,-0.11523,0.99277,3.92538,0.00000,-3.61156,-3.61156,-3.05664,0.53538,3.84915,-3.46715,0.72277,-3.46946,2.81372,A,151043.40
3.93838,57.68803907,11.97984306,57.68804067,11.97983650,15:10:43.604303,0.00510,0.00000,0.00000,-0.14323,0.00000,-0.00142,0.00007,-0.00265,-0.05197,-0.11492,0.99052,3.93271,0.00000,-3.59024,-3.59024,-3.07717,0.54475,3.84915,-3.46715,0.72277,-3.46946,2.81372,A,151043.40
3.94940,57.68803915,11.97984273,57.68804067,11.97983650,15:10:43.615323,0.00587,0.00000,0.00000,-0.14331,0.00000,-0.00096,0.00052,0.00071,-0.05155,-0.11614,0.99137,3.94333,0.00000,-3.57212,-3.57212,-3.09667,0.55365,3.84915,-3.46715,0.72277,-3.46946,2.81372,A,151043.40
3.98649,57.68803922,11.97984242,57.68804083,11.97983583,15:10:43.652448,0.03264,0.00000,1.50000,-0.14338,0.02000,-0.00081,0.00129,-0.00112,-0.05045,-0.11566,0.98991,3.95356,0.00000,-3.55673,-3.55673,-3.11519,0.56211,3.96942,-3.50677,0.74130,-3.57907,2.70412,A,151043.50
4.00460,57.68803930,11.97984209,57.68804083,11.97983583,15:10:43.670530,0.00703,0.00000,0.00000,-0.14342,0.00000,0.00026,-0.00054,-0.00066,-0.05118,-0.11529,0.99033,3.99817,0.00000,-3.56008,-3.56008,-3.13477,0.57107,3.96942,-3.50677,0.74130,-3.57907,2.70412,A,151043.50
4.01420,57.68803938,11.97984178,57.68804083,11.97983583,15:10:43.680469,0.00621,0.00000,0.00000,-0.14350,0.00000,-0.00310,0.00007,-0.00356,-0.05313,-0.11505,0.99058,4.00761,0.00000,-3.56293,-3.56293,-3.15337,0.57958,3.96942,-3.50677,0.74130,-3.57907,2.70412,A,151043.50
4.02364,57.68803945,11.97984148,57.68804083,11.97983583,15:10:43.689562,0.00539,0.00000,0.00000,-0.14355,0.00000,-0.00004,0.00220,-0.00234,-0.05148,-0.11578,0.99357,4.01786,0.00000,-3.56535,-3.56535,-3.17104,0.58766,3.96942,-3.50677,0.74130,-3.57907,2.70412,A,151043.50
4.03373,57.68803952,11.97984120,57.68804083,11.97983583,15:10:43.699638,0.00518,0.00000,0.00000,-0.14368,0.00000,-0.00493,0.00052,-0.00158,-0.05039,-0.11712,0.99332,4.02800,0.00000,-3.56741,-3.56741,-3.18783,0.59535,3.96942,-3.50677,0.74130,-3.57907,2.70412,A,151043.50
4.04400,57.68803959,11.97984093,57.68804083,11.97983583,15:10:43.710182,0.00515,0.00000,0.00000,-0.14363,0.00000,0.00637,-0.00024,0.00087,-0.05075,-0.11352,0.99137,4.03856,0.00000,-3.56916,-3.56916,-3.20377,0.60264,3.96942,-3.50677,0.74130,-3.57907,2.70412,A,151043.50
4.05476,57.68803965,11.97984068,57.68804083,11.97983583,15:10:43.720685,0.00566,0.00000,0.00000,-0.14368,0.00000,0.00072,0.00037,-0.00051,-0.05155,-0.11584,0.99229,4.04888,0.00000,-3.57064,-3.57064,-3.21892,0.60958,3.96942,-3.50677,0.74130,-3.57907,2.70412,A,151043.50
4.06555,57.68803971,11.97984043,57.68804083,11.97983583,15:10:43.731457,0.00605,0.00000,0.00000,-0.14376,0.00000,-0.00188,0.00083,-0.00097,-0.05203,-0.11572,0.99137,4.05916,0.00000,-3.57191,-3.57191,-3.23332,0.61616,3.96942,-3.50677,0.74130,-3.57907,2.70412,A,151043.50
4.11717,57.68803976,11.97984020,57.68804267,11.97983767,15:10:43.783888,0.04722,0.00000,1.50000,-0.14384,0.02000,-0.00325,-0.00284,0.00087,-0.05240,-0.11541,0.99119,4.06968,0.00000,-3.57298,-3.57298,-3.24699,0.62242,4.09973,-3.39781,0.94516,-5.20328,1.07991,A,151043.70
4.13502,57.68803991,11.97984008,57.68804267,11.97983767,15:10:43.800945,0.00750,0.00000,0.00000,-0.14368,0.00000,0.00301,0.00266,-0.00020,-0.05301,-0.11340,0.99058,4.12953,0.00000,-3.81753,-3.81753,-3.25453,0.63856,4.09973,-3.39781,0.94516,-5.20328,1.07991,A,151043.70
4.14303,57.68804005,11.97983996,57.68804267,11.97983767,15:10:43.808943,0.00524,0.00000,0.00000,-0.14372,0.00000,-0.00111,0.00266,0.00148,-0.05161,-0.11383,0.99186,4.13756,0.00000,-4.02539,-4.02539,-3.26169,0.65389,4.09973,-3.39781,0.94516,-5.20328,1.07991,A,151043.70
4.15352,57.68804018,11.97983984,57.68804267,11.97983767,15:10:43.819442,0.00517,0.00000,0.00000,-0.14374,0.00000,0.00164,-0.00024,-0.00066,-0.05142,-0.11474,0.99052,4.14781,0.00000,-4.20207,-4.20207,-3.26850,0.66845,4.09973,-3.39781,0.94516,-5.20328,1.07991,A,151043.70
4.16385,57.68804030,11.97983973,57.68804267,11.97983767,15:10:43.829763,0.00510,0.00000,0.00000,-0.14377,0.00000,0.00042,-0.00100,-0.00097,-0.05179,-0.11462,0.99265,4.15841,0.00000,-4.35225,-4.35225,-3.27497,0.68229,4.09973,-3.39781,0.94516,-5.20328,1.07991,A,151043.70
4.17450,57.68804042,11.97983963,57.68804267,11.97983767,15:10:43.840414,0.00535,0.00000,0.00000,-0.14385,0.00000,-0.00096,-0.00345,0.00102,-0.05179,-0.11669,0.98924,4.16858,0.00000,-4.47991,-4.47991,-3.28111,0.69543,4.09973,-3.39781,0.94516,-5.20328,1.07991,A,151043.70
4.18703,57.68804053,11.97983953,57.68804267,11.97983767,15:10:43.852960,0.00748,0.00000,0.00000,-0.14387,0.00000,0.00103,0.00114,0.00026,-0.05240,-0.11462,0.99460,4.17935,0.00000,-4.58841,-4.58841,-3.28694,0.70792,4.09973,-3.39781,0.94516,-5.20328,1.07991,A,151043.70
4.19590,57.68804064,11.97983944,57.68804267,11.97983767,15:10:43.861815,0.00579,0.00000,0.00000,-0.14391,0.00000,0.00210,0.00129,-0.00280,-0.05136,-0.11633,0.99186,4.19045,0.00000,-4.68064,-4.68064,-3.29249,0.71978,4.09973,-3.39781,0.94516,-5.20328,1.07991,A,151043.70
4.23186,57.68804074,11.97983935,57.68804383,11.97983983,15:10:43.897805,0.03127,0.00000,1.50000,-0.14390,0.02000,0.00408,0.00266,-0.00280,-0.05081,-0.11401,0.99320,4.20007,0.00000,-4.75904,-4.75904,-3.29775,0.73105,4.21681,-3.26903,1.07488,-5.49412,0.78906,A,151043.80
4.25260,57.68804090,11.97983937,57.68804383,11.97983983,15:10:43.918530,0.00791,0.00000,0.00000,-0.14365,0.00000,0.00637,0.00205,0.00117,-0.05112,-0.11535,0.99308,4.24691,0.00000,-4.86930,-4.86930,-3.29632,0.74824,4.21681,-3.26903,1.07488,-5.49412,0.78906,A,151043.80
4.26075,57.68804104,11.97983940,57.68804383,11.97983983,15:10:43.926689,0.00565,0.00000,0.00000,-0.14368,0.00000,-0.00111,0.00373,-0.00127,-0.05258,-0.11376,0.99363,4.25475,0.00000,-4.96302,-4.96302,-3.29495,0.76457,4.21681,-3.26903,1.07488,-5.49412,0.78906,A,151043.80
4.27058,57.68804118,11.97983942,57.68804383,11.97983983,15:10:43.936498,0.00509,0.00000,0.00000,-0.14371,0.00000,-0.00111,0.00266,-0.00112,-0.05203,-0.11334,0.99180,4.26492,0.00000,-5.04269,-5.04269,-3.29365,0.78009,4.21681,-3.26903,1.07488,-5.49412,0.78906,A,151043.80
4.28200,57.68804131,11.97983944,57.68804383,11.97983983,15:10:43.947928,0.00611,0.00000,0.00000,-0.14377,0.00000,-0.00172,0.00068,-0.00020,-0.05185,-0.11535,0.99125,4.27613,0.00000,-5.11040,-5.11040,-3.29242,0.79483,4.21681,-3.26903,1.07488,-5.49412,0.78906,A,151043.80
4.29125,57.68804144,11.97983946,57.68804383,11.97983983,15:10:43.957169,0.00496,0.00000,0.00000,-0.14382,0.00000,0.00087,0.00129,0.00071,-0.05203,-0.11590,0.99033,4.28583,0.00000,-5.16796,-5.16796,-3.29125,0.80883,4.21681,-3.26903,1.07488,-5.49412,0.78906,A,151043.80
4.30176,57.68804156,11.97983948,57.68804383,11.97983983,15:10:43.967688,0.00520,0.00000,0.00000,-0.14389,0.00000,-0.00233,0.00068,-0.00234,-0.05033,-0.11511,0.99149,4.29604,0.00000,-5.21688,-5.21688,-3.29014,0.82213,4.21681,-3.26903,1.07488,-5.49412,0.78906,A,151043.80
4.31203,57.68804167,11.97983950,57.68804383,11.97983983,15:10:43.978193,0.00507,0.00000,0.00000,-0.14393,0.00000,0.00103,0.00098,-0.00005,-0.05185,-0.11541,0.99223,4.30662,0.00000,-5.25847,-5.25847,-3.28909,0.83477,4.21681,-3.26903,1.07488,-5.49412,0.78906,A,151043.80
4.34887,57.68804178,11.97983951,57.68804383,11.97984017,15:10:44.014818,0.03150,0.00000,1.50000,-0.14396,0.02000,0.00011,0.00022,-0.00142,-0.05374,-0.11468,0.99210,4.31679,0.00000,-5.29382,-5.29382,-3.28808,0.84678,4.33533,-3.24921,1.07488,-6.28319,0.00000,A,151043.90
4.36587,57.68804188,11.97983955,57.68804383,11.97984017,15:10:44.031791,0.00768,0.00000,0.00000,-0.14398,0.00000,0.00087,0.00205,0.00071,-0.05203,-0.11633,0.99223,4.35904,0.00000,-5.44222,-5.44222,-3.28614,0.85818,4.33533,-3.24921,1.07488,-6.28319,0.00000,A,151043.90
4.37371,57.68804198,11.97983958,57.68804383,11.97984017,15:10:44.039629,0.00517,0.00000,0.00000,-0.14398,0.00000,0.00561,0.00266,-0.00203,-0.05270,-0.11553,0.99046,4.36801,0.00000,-5.56837,-5.56837,-3.28429,0.86902,4.33533,-3.24921,1.07488,-6.28319,0.00000,A,151043.90
4.38391,57.68804207,11.97983961,57.68804383,11.97984017,15:10:44.050061,0.00512,0.00000,0.00000,-0.14398,0.00000,0.00393,0.00175,0.00026,-0.05234,-0.11511,0.99351,4.37848,0.00000,-5.67559,-5.67559,-3.28254,0.87931,4.33533,-3.24921,1.07488,-6.28319,0.00000,A,151043.90
4.39481,57.68804216,11.97983963,57.68804383,11.97984017,15:10:44.060731,0.00547,0.00000,0.00000,-0.14402,0.00000,0.00072,0.00098,-0.00158,-0.04965,-0.11523,0.99021,4.38933,0.00000,-5.76673,-5.76673,-3.28087,0.88909,4.33533,-3.24921,1.07488,-6.28319,0.00000,A,151043.90
4.40626,57.68804225,11.97983966,57.68804383,11.97984017,15:10:44.072186,0.00652,0.00000,0.00000,-0.14403,0.00000,0.00408,0.00098,-0.00173,-0.05167,-0.11572,0.99125,4.39938,0.00000,-5.84420,-5.84420,-3.27929,0.89838,4.33533,-3.24921,1.07488,-6.28319,0.00000,A,151043.90
4.41530,57.68804233,11.97983969,57.68804383,11.97984017,15:10:44.081211,0.00516,0.00000,0.00000,-0.14406,0.00000,-0.00035,0.00266,0.00010,-0.05197,-0.11450,0.99137,4.40986,0.00000,-5.91005,-5.91005,-3.27779,0.90720,4.33533,-3.24921,1.07488,-6.28319,0.00000,A,151043.90
4.42715,57.68804240,11.97983971,57.68804383,11.97984017,15:10:44.093074,0.00637,0.00000,0.00000,-0.14407,0.00000,0.00484,-0.00039,-0.00081,-0.05429,-0.11621,0.99058,4.42070,0.00000,-5.96602,-5.96602,-3.27636,0.91559,4.33533,-3.24921,1.07488,-6.28319,0.00000,A,151043.90
4.46297,57.68804247,11.97983973,57.68804333,11.97984067,15:10:44.128910,0.03166,0.00000,1.50000,-0.14403,0.02000,0.00607,-0.00085,-0.00295,-0.05161,-0.11419,0.99192,4.43157,0.00000,-6.01359,-6.01359,-3.27500,0.92355,4.44762,-3.21950,1.01929,-7.36309,-1.07991,A,151044.00
4.48257,57.68804252,11.97983978,57.68804333,11.97984067,15:10:44.148500,0.00750,0.00000,0.00000,-0.14392,0.00000,0.00301,0.00450,-0.00051,-0.05033,-0.11456,0.99363,4.47667,0.00000,-6.21602,-6.21602,-3.27223,0.92834,4.44762,-3.21950,1.01929,-7.36309,-1.07991,A,151044.00
4.49056,57.68804256,11.97983982,57.68804333,11.97984067,15:10:44.156478,0.00509,0.00000,0.00000,-0.14398,0.00000,-0.00188,0.00098,-0.00158,-0.05008,-0.11523,0.99235,4.48491,0.00000,-6.38808,-6.38808,-3.26959,0.93289,4.44762,-3.21950,1.01929,-7.36309,-1.07991,A,151044.00
4.50122,57.68804260,11.97983987,57.68804333,11.97984067,15:10:44.167139,0.00535,0.00000,0.00000,-0.14403,0.00000,0.00011,0.00495,0.00056,-0.05161,-0.11602,0.99253,4.49551,0.00000,-6.53433,-6.53433,-3.26708,0.93721,4.44762,-3.21950,1.01929,-7.36309,-1.07991,A,151044.00
4.51129,57.68804263,11.97983991,57.68804333,11.97984067,15:10:44.177202,0.00501,0.00000,0.00000,-0.14404,0.00000,0.00286,0.00251,0.00194,-0.05258,-0.11511,0.99192,4.50584,0.00000,-6.65865,-6.65865,-3.26470,0.94131,4.44762,-3.21950,1.01929,-7.36309,-1.07991,A,151044.00
4.52174,57.68804267,11.97983994,57.68804333,11.97984067,15:10:44.187660,0.00519,0.00000,0.00000,-0.14407,0.00000,0.00164,-0.00024,0.00224,-0.05307,-0.11505,0.98936,4.51601,0.00000,-6.76431,-6.76431,-3.26244,0.94521,4.44762,-3.21950,1.01929,-7.36309,-1.07991,A,151044.00
4.53291,57.68804270,11.97983998,57.68804333,11.97984067,15:10:44.198836,0.00596,0.00000,0.00000,-0.14413,0.00000,-0.00111,-0.00467,0.00026,-0.05051,-0.11566,0.99204,4.52718,0.00000,-6.85413,-6.85413,-3.26030,0.94891,4.44762,-3.21950,1.01929,-7.36309,-1.07991,A,151044.00
4.54247,57.68804273,11.97984001,57.68804333,11.97984067,15:10:44.208386,0.00511,0.00000,0.00000,-0.14420,0.00000,-0.00386,-0.00009,-0.00127,-0.05301,-0.11480,0.99003,4.53679,0.00000,-6.93047,-6.93047,-3.25826,0.95243,4.44762,-3.21950,1.01929,-7.36309,-1.07991,A,151044.00
4.58222,57.68804276,11.97984005,57.68804283,11.97984267,15:10:44.248165,0.03446,0.00000,1.50000,-0.14424,0.02000,-0.00004,0.00052,-0.00020,-0.05203,-0.11505,0.99241,4.54739,0.00000,-6.99537,-6.99537,-3.25632,0.95577,4.56335,-3.10062,0.96369,-6.72066,-0.43748,A,151044.10
4.59593,57.68804277,11.97984018,57.68804283,11.97984267,15:10:44.262106,0.00751,0.00000,0.00000,-0.14434,0.00000,-0.00142,-0.00116,-0.00051,-0.05179,-0.11560,0.99162,4.59042,0.00000,-6.95416,-6.95416,-3.24853,0.95617,4.56335,-3.10062,0.96369,-6.72066,-0.43748,A,151044.10
4.60394,57.68804277,11.97984030,57.68804283,11.97984267,15:10:44.270113,0.00511,0.00000,0.00000,-0.14440,0.00000,-0.00096,0.00159,-0.00066,-0.04959,-0.11621,0.99113,4.59849,0.00000,-6.91914,-6.91914,-3.24114,0.95655,4.56335,-3.10062,0.96369,-6.72066,-0.43748,A,151044.10
4.61433,57.68804277,11.97984042,57.68804283,11.97984267,15:10:44.280257,0.00511,0.00000,0.00000,-0.14440,0.00000,0.00439,0.00068,-0.00097,-0.05234,-0.11553,0.98966,4.60864,0.00000,-6.88937,-6.88937,-3.23411,0.95690,4.56335,-3.10062,0.96369,-6.72066,-0.43748,A,151044.10
4.62526,57.68804278,11.97984053,57.68804283,11.97984267,15:10:44.291182,0.00565,0.00000,0.00000,-0.14446,0.00000,-0.00126,0.00068,0.00132,-0.04959,-0.11547,0.99064,4.61926,0.00000,-6.86406,-6.86406,-3.22744,0.95724,4.56335,-3.10062,0.96369,-6.72066,-0.43748,A,151044.10
4.63601,57.68804278,11.97984064,57.68804283,11.97984267,15:10:44.302199,0.00545,0.00000,0.00000,-0.14457,0.00000,-0.00401,-0.00009,-0.00219,-0.05258,-0.11712,0.99302,4.63058,0.00000,-6.84255,-6.84255,-3.22110,0.95756,4.56335,-3.10062,0.96369,-6.72066,-0.43748,A,151044.10
4.64596,57.68804278,11.97984074,57.68804283,11.97984267,15:10:44.311884,0.00517,0.00000,0.00000,-0.14461,0.00000,-0.00020,-0.00116,0.00087,-0.05142,-0.11596,0.99162,4.64027,0.00000,-6.82427,-6.82427,-3.21507,0.95787,4.56335,-3.10062,0.96369,-6.72066,-0.43748,A,151044.10
4.65653,57.68804278,11.97984084,57.68804283,11.97984267,15:10:44.322455,0.00533,0.00000,0.00000,-0.14465,0.00000,0.00087,-0.00345,0.00224,-0.05215,-0.11590,0.98735,4.65086,0.00000,-6.80873,-6.80873,-3.20935,0.95816,4.56335,-3.10062,0.96369,-6.72066,-0.43748,A,151044.10
4.71152,57.68804279,11.97984093,57.68804383,11.97984500,15:10:44.377477,0.04992,0.00000,1.50000,-0.14468,0.02000,0.00133,-0.00024,-0.00219,-0.05191,-0.11614,0.99528,4.66103,0.00000,-6.79552,-6.79552,-3.20391,0.95844,4.69032,-2.96194,1.07488,-5.60736,0.67582,A,151044.30
4.73138,57.68804284,11.97984113,57.68804383,11.97984500,15:10:44.397305,0.00677,0.00000,0.00000,-0.14468,0.00000,0.00042,-0.00314,-0.00020,-0.05045,-0.11462,0.99180,4.72591,0.00000,-6.61729,-6.61729,-3.19182,0.96426,4.69032,-2.96194,1.07488,-5.60736,0.67582,A,151044.30
4.74122,57.68804289,11.97984133,57.68804383,11.97984500,15:10:44.407145,0.00619,0.00000,0.00000,-0.14469,0.00000,0.00316,-0.00039,0.00117,-0.05435,-0.11560,0.99082,4.73480,0.00000,-6.46580,-6.46580,-3.18032,0.96979,4.69032,-2.96194,1.07488,-5.60736,0.67582,A,151044.30
4.75050,57.68804294,11.97984151,57.68804383,11.97984500,15:10:44.416417,0.00508,0.00000,0.00000,-0.14473,0.00000,0.00087,0.00297,-0.00142,-0.05185,-0.11639,0.99216,4.74486,0.00000,-6.33704,-6.33704,-3.16940,0.97505,4.69032,-2.96194,1.07488,-5.60736,0.67582,A,151044.30
4.76118,57.68804298,11.97984168,57.68804383,11.97984500,15:10:44.427096,0.00535,0.00000,0.00000,-0.14474,0.00000,0.00255,0.00098,-0.00142,-0.05472,-0.11584,0.99040,4.75546,0.00000,-6.22759,-6.22759,-3.15903,0.98004,4.69032,-2.96194,1.07488,-5.60736,0.67582,A,151044.30
4.77257,57.68804302,11.97984185,57.68804383,11.97984500,15:10:44.438498,0.00634,0.00000,0.00000,-0.14480,0.00000,-0.00203,-0.00161,0.00346,-0.05258,-0.11541,0.99162,4.76659,0.00000,-6.13455,-6.13455,-3.14917,0.98478,4.69032,-2.96194,1.07488,-5.60736,0.67582,A,151044.30
4.78170,57.68804306,11.97984201,57.68804383,11.97984500,15:10:44.447621,0.00524,0.00000,0.00000,-0.14482,0.00000,0.00011,-0.00360,-0.00219,-0.05039,-0.11425,0.99107,4.77595,0.00000,-6.05547,-6.05547,-3.13981,0.98929,4.69032,-2.96194,1.07488,-5.60736,0.67582,A,151044.30
4.82032,57.68804310,11.97984216,57.68804600,11.97984217,15:10:44.486282,0.03346,0.00000,1.50000,-0.14489,0.02000,-0.00356,-0.00222,0.00148,-0.05179,-0.11560,0.99265,4.78652,0.00000,-5.98826,-5.98826,-3.13092,0.99357,4.80242,-3.13034,1.31581,-4.10234,2.18085,A,151044.40
4.84154,57.68804325,11.97984216,57.68804600,11.97984217,15:10:44.507800,0.00696,0.00000,0.00000,-0.14492,0.00000,-0.00020,0.00068,0.00102,-0.05161,-0.11462,0.99247,4.83569,0.00000,-5.70537,-5.70537,-3.13089,1.00968,4.80242,-3.13034,1.31581,-4.10234,2.18085,A,151044.40
4.84999,57.68804338,11.97984216,57.68804600,11.97984217,15:10:44.515912,0.00518,0.00000,0.00000,-0.14493,0.00000,0.00255,0.00083,0.00026,-0.05142,-0.11535,0.99101,4.84429,0.00000,-5.46491,-5.46491,-3.13086,1.02498,4.80242,-3.13034,1.31581,-4.10234,2.18085,A,151044.40
4.86051,57.68804352,11.97984216,57.68804600,11.97984217,15:10:44.526448,0.00530,0.00000,0.00000,-0.14492,0.00000,0.00271,0.00205,0.00316,-0.05075,-0.11450,0.99149,4.85485,0.00000,-5.26053,-5.26053,-3.13084,1.03953,4.80242,-3.13034,1.31581,-4.10234,2.18085,A,151044.40
4.87067,57.68804364,11.97984216,57.68804600,11.97984217,15:10:44.536583,0.00506,0.00000,0.00000,-0.14495,0.00000,0.00057,0.00144,0.00194,-0.05319,-0.11590,0.99064,4.86523,0.00000,-5.08680,-5.08680,-3.13081,1.05334,4.80242,-3.13034,1.31581,-4.10234,2.18085,A,151044.40
4.88322,57.68804376,11.97984216,57.68804600,11.97984217,15:10:44.549157,0.00721,0.00000,0.00000,-0.14495,0.00000,0.00087,-0.00207,0.00010,-0.05136,-0.11425,0.99259,4.87665,0.00000,-4.93913,-4.93913,-3.13079,1.06646,4.80242,-3.13034,1.31581,-4.10234,2.18085,A,151044.40
4.89149,57.68804387,11.97984216,57.68804600,11.97984217,15:10:44.557409,0.00507,0.00000,0.00000,-0.14501,0.00000,-0.00264,-0.00253,0.00102,-0.05185,-0.11553,0.99235,4.88607,0.00000,-4.81361,-4.81361,-3.13077,1.07893,4.80242,-3.13034,1.31581,-4.10234,2.18085,A,151044.40
4.90222,57.68804398,11.97984216,57.68804600,11.97984217,15:10:44.568143,0.00544,0.00000,0.00000,-0.14503,0.00000,0.00057,0.00266,-0.00219,-0.04910,-0.11547,0.99253,4.89650,0.00000,-4.70692,-4.70692,-3.13074,1.09077,4.80242,-3.13034,1.31581,-4.10234,2.18085,A,151044.40
4.94313,57.68804408,11.97984216,57.68804717,11.97984500,15:10:44.609073,0.03594,0.00000,1.50000,-0.14507,0.02000,-0.00020,-0.00222,0.00087,-0.05069,-0.11621,0.99320,4.90684,0.00000,-4.61623,-4.61623,-3.13072,1.10203,4.92470,-2.96194,1.44553,-5.62680,0.65639,A,151044.50
4.96270,57.68804423,11.97984230,57.68804717,11.97984500,15:10:44.628613,0.00753,0.00000,0.00000,-0.14515,0.00000,-0.00065,0.00007,-0.00051,-0.04941,-0.11645,0.99216,4.95703,0.00000,-4.76782,-4.76782,-3.12228,1.11920,4.92470,-2.96194,1.44553,-5.62680,0.65639,A,151044.50
4.97070,57.68804438,11.97984244,57.68804717,11.97984500,15:10:44.636614,0.00513,0.00000,0.00000,-0.14516,0.00000,0.00087,0.00159,0.00056,-0.04935,-0.11474,0.98960,4.96499,0.00000,-4.89666,-4.89666,-3.11427,1.13552,4.92470,-2.96194,1.44553,-5.62680,0.65639,A,151044.50
4.98214,57.68804452,11.97984257,57.68804717,11.97984500,15:10:44.648058,0.00617,0.00000,0.00000,-0.14515,0.00000,0.00271,-0.00070,-0.00219,-0.05301,-0.11438,0.99015,4.97623,0.00000,-5.00618,-5.00618,-3.10665,1.15102,4.92470,-2.96194,1.44553,-5.62680,0.65639,A,151044.50
4.99230,57.68804465,11.97984269,57.68804717,11.97984500,15:10:44.658237,0.00571,0.00000,0.00000,-0.14518,0.00000,0.00148,0.00114,-0.00066,-0.05203,-0.11663,0.99162,4.98636,0.00000,-5.09928,-5.09928,-3.09941,1.16574,4.92470,-2.96194,1.44553,-5.62680,0.65639,A,151044.50
5.00178,57.68804478,11.97984280,57.68804717,11.97984500,15:10:44.667696,0.00518,0.00000,0.00000,-0.14518,0.00000,0.00103,-0.00284,-0.00020,-0.05185,-0.11389,0.98997,4.99607,0.00000,-5.17840,-5.17840,-3.09254,1.17973,4.92470,-2.96194,1.44553,-5.62680,0.65639,A,151044.50
5.01543,57.68804490,11.97984291,57.68804717,11.97984500,15:10:44.683311,0.00859,0.00000,0.00000,0.00000,0.00000,-0.00310,0.00037,0.00331,-0.05087,-0.11511,0.99259,5.00663,0.00000,2.68756,2.68756,-2.96194,1.44553,4.92470,-2.96194,1.44553,-5.62680,0.65639,A,151044.50
5.05085,57.68804717,11.97984500,57.68804883,11.97985150,15:10:44.716783,0.03133,0.00000,0.00000,-0.00222,-0.01656,-0.00081,-0.00131,-0.00005,-0.05130,-0.11529,0.99143,5.02311,0.00000,1.44192,1.43181,-2.96194,1.44553,5.03948,-2.57560,1.63086,-5.83591,0.44727,A,151044.60
5.07505,57.68804725,11.97984533,57.68804883,11.97985150,15:10:44.741301,0.01306,0.00000,0.00000,-0.00447,-0.01656,-0.00172,0.00159,-0.00402,-0.05161,-0.11596,0.98911,5.06492,0.00000,0.35176,0.34165,-2.94262,1.45480,5.03948,-2.57560,1.63086,-5.83591,0.44727,A,151044.60
5.09764,57.68804733,11.97984563,57.68804883,11.97985150,15:10:44.763909,0.01458,0.00000,0.00000,-0.00657,-0.01656,0.00194,0.00037,0.00209,-0.05276,-0.11560,0.99052,5.08756,0.00000,-0.57487,-0.58498,-2.92427,1.46360,5.03948,-2.57560,1.63086,-5.83591,0.44727,A,151044.60
5.12436,57.68804740,11.97984593,57.68804883,11.97985150,15:10:44.790320,0.01422,0.00000,0.00000,-0.00864,-0.01656,0.00164,-0.00131,0.00178,-0.05136,-0.11572,0.99186,5.11402,0.00000,-1.36251,-1.37262,-2.90683,1.47197,5.03948,-2.57560,1.63086,-5.83591,0.44727,A,151044.60
5.16930,57.68804748,11.97984621,57.68805000,11.97985500,15:10:44.835235,0.03330,0.00000,0.00000,-0.01073,-0.01656,0.00026,-0.00146,-0.00203,-0.05325,-0.11688,0.99198,5.14084,0.00000,-2.03200,-2.04211,-2.89027,1.47991,5.15762,-2.36757,1.76059,-5.72559,0.55759,A,151044.70
5.19357,57.68804760,11.97984665,57.68805000,11.97985500,15:10:44.859508,0.01541,0.00000,0.00000,-0.01278,-0.01656,-0.00065,-0.00146,0.00148,-0.05222,-0.11395,0.99296,5.18163,0.00000,-2.58453,-2.59464,-2.86414,1.49394,5.15762,-2.36757,1.76059,-5.72559,0.55759,A,151044.70
5.21799,57.68804772,11.97984706,57.68805000,11.97985500,15:10:44.883917,0.01412,0.00000,0.00000,-0.01476,-0.01656,0.00164,-0.00085,-0.00112,-0.05185,-0.11584,0.98972,5.20840,0.00000,-3.05417,-3.06428,-2.83931,1.50728,5.15762,-2.36757,1.76059,-5.72559,0.55759,A,151044.70
5.24631,57.68804784,11.97984746,57.68805000,11.97985500,15:10:44.912248,0.01519,0.00000,0.00000,-0.01673,-0.01656,0.00057,0.00068,-0.00081,-0.05045,-0.11535,0.99046,5.23519,0.00000,-3.45337,-3.46348,-2.81572,1.51994,5.15762,-2.36757,1.76059,-5.72559,0.55759,A,151044.70
5.29712,57.68804794,11.97984784,57.68805267,11.97985283,15:10:44.963057,0.04107,0.00000,0.00000,-0.01860,-0.01656,0.00210,-0.00039,-0.00020,-0.05063,-0.11352,0.99125,5.26048,0.00000,-3.79268,-3.80279,-2.79331,1.53197,5.28731,-2.49635,2.05711,-4.30266,1.98052,A,151044.90
5.32090,57.68804818,11.97984809,57.68805267,11.97985283,15:10:44.986832,0.01296,0.00000,0.00000,-0.02043,-0.01656,0.00164,-0.00100,0.00056,-0.05136,-0.11468,0.99296,5.31126,0.00000,-3.86766,-3.87777,-2.77847,1.55823,5.28731,-2.49635,2.05711,-4.30266,1.98052,A,151044.90
5.34620,57.68804840,11.97984832,57.68805267,11.97985283,15:10:45.012136,0.01203,0.00000,0.00000,-0.02237,-0.01656,-0.00142,-0.00070,-0.00097,-0.05246,-0.11596,0.99216,5.33634,0.00000,-3.93140,-3.94151,-2.76436,1.58317,5.28731,-2.49635,2.05711,-4.30266,1.98052,A,151044.90
5.37242,57.68804862,11.97984855,57.68805267,11.97985283,15:10:45.038374,0.01435,0.00000,0.00000,-0.02427,-0.01656,-0.00172,-0.00146,-0.00005,-0.05374,-0.11450,0.99277,5.36217,0.00000,-3.98557,-3.99568,-2.75096,1.60687,5.28731,-2.49635,2.05711,-4.30266,1.98052,A,151044.90
5.41553,57.68804882,11.97984876,57.68805450,11.97984650,15:10:45.081483,0.03351,0.00000,0.00000,-0.02602,-0.01656,0.00240,0.00037,-0.00005,-0.05100,-0.11291,0.99027,5.38431,0.00000,-4.03162,-4.04173,-2.73823,1.62938,5.40325,-2.87278,2.26096,-3.63792,2.64526,A,151045.00
5.43944,57.68804910,11.97984865,57.68805450,11.97984650,15:10:45.105396,0.01262,0.00000,0.00000,-0.02784,-0.01656,-0.00004,0.00083,-0.00158,-0.05203,-0.11523,0.99107,5.42901,0.00000,-3.97105,-3.98116,-2.74496,1.66096,5.40325,-2.87278,2.26096,-3.63792,2.64526,A,151045.00
5.46536,57.68804937,11.97984854,57.68805450,11.97984650,15:10:45.131286,0.01294,0.00000,0.00000,-0.02967,-0.01656,-0.00126,0.00052,0.00148,-0.05106,-0.11608,0.99277,5.45363,0.00000,-3.91956,-3.92967,-2.75135,1.69096,5.40325,-2.87278,2.26096,-3.63792,2.64526,A,151045.00
5.49356,57.68804963,11.97984844,57.68805450,11.97984650,15:10:45.159489,0.01465,0.00000,0.00000,-0.03132,-0.01656,0.00378,-0.00070,0.00041,-0.05002,-0.11590,0.99155,5.48288,0.00000,-3.87580,-3.88591,-2.75742,1.71946,5.40325,-2.87278,2.26096,-3.63792,2.64526,A,151045.00
5.53732,57.68804987,11.97984834,57.68805667,11.97984233,15:10:45.203593,0.03051,0.00000,0.00000,-0.03306,-0.01656,0.00026,0.00114,-0.00005,-0.05228,-0.11566,0.98783,5.51093,0.00000,-3.83860,-3.84871,-2.76319,1.74654,5.52730,-3.12043,2.50189,-3.91321,2.36997,A,151045.10
5.56355,57.68805021,11.97984804,57.68805667,11.97984233,15:10:45.229504,0.01460,0.00000,0.00000,-0.03483,-0.01656,-0.00233,0.00083,0.00041,-0.05276,-0.11285,0.99162,5.55338,0.00000,-3.84828,-3.85839,-2.78105,1.78430,5.52730,-3.12043,2.50189,-3.91321,2.36997,A,151045.10
5.59033,57.68805054,11.97984776,57.68805667,11.97984233,15:10:45.256592,0.01338,0.00000,0.00000,-0.03655,-0.01656,-0.00172,-0.00009,0.00071,-0.05569,-0.11431,0.99070,5.58076,0.00000,-3.85650,-3.86661,-2.79802,1.82018,5.52730,-3.12043,2.50189,-3.91321,2.36997,A,151045.10
5.61504,57.68805084,11.97984749,57.68805667,11.97984233,15:10:45.280982,0.01265,0.00000,0.00000,-0.03821,-0.01656,-0.00004,0.00190,0.00194,-0.05020,-0.11584,0.99070,5.60463,0.00000,-3.86349,-3.87360,-2.81414,1.85427,5.52730,-3.12043,2.50189,-3.91321,2.36997,A,151045.10
5.65919,57.68805113,11.97984723,57.68805700,11.97984600,15:10:45.325126,0.03117,0.00000,0.00000,-0.03989,-0.01656,-0.00142,-0.00329,-0.00081,-0.05252,-0.11627,0.99351,5.63211,0.00000,-3.86943,-3.87954,-2.82945,1.88665,5.64955,-2.90250,2.53895,-6.11472,0.16846,A,151045.20
5.68496,57.68805143,11.97984717,57.68805700,11.97984600,15:10:45.350896,0.01570,0.00000,0.00000,-0.04142,-0.01656,0.00164,-0.00116,-0.00097,-0.05203,-0.11444,0.99186,5.67454,0.00000,-4.20471,-4.21482,-2.83311,1.91926,5.64955,-2.90250,2.53895,-6.11472,0.16846,A,151045.20
5.70696,57.68805171,11.97984711,57.68805700,11.97984600,15:10:45.373119,0.01447,0.00000,0.00000,-0.04295,-0.01656,0.00255,0.00083,-0.00158,-0.05203,-0.11627,0.99381,5.69663,0.00000,-4.48970,-4.49981,-2.83658,1.95025,5.64955,-2.90250,2.53895,-6.11472,0.16846,A,151045.20
5.73529,57.68805197,11.97984705,57.68805700,11.97984600,15:10:45.401602,0.01588,0.00000,0.00000,-0.04449,-0.01656,0.00087,0.00205,-0.00020,-0.05307,-0.11535,0.99155,5.72549,0.00000,-4.73193,-4.74204,-2.83987,1.97968,5.64955,-2.90250,2.53895,-6.11472,0.16846,A,151045.20
5.77727,57.68805222,11.97984700,57.68805600,11.97984817,15:10:45.443221,0.03048,0.00000,0.00000,-0.04600,-0.01656,0.00087,0.00037,-0.00127,-0.05112,-0.11535,0.99528,5.74941,0.00000,-4.93784,-4.94795,-2.84300,2.00765,5.76678,-2.77372,2.42776,-6.99544,-0.71225,A,151045.30
5.80332,57.68805241,11.97984706,57.68805600,11.97984817,15:10:45.469247,0.01424,0.00000,0.00000,-0.04733,-0.01656,0.00454,-0.00116,-0.00158,-0.05191,-0.11596,0.99253,5.79289,0.00000,-5.24496,-5.25507,-2.83954,2.02865,5.76678,-2.77372,2.42776,-6.99544,-0.71225,A,151045.30
5.82944,57.68805259,11.97984711,57.68805600,11.97984817,15:10:45.495376,0.01383,0.00000,0.00000,-0.04884,-0.01656,-0.00126,-0.00024,-0.00035,-0.05356,-0.11480,0.99216,5.81957,0.00000,-5.50601,-5.51612,-2.83625,2.04861,5.76678,-2.77372,2.42776,-6.99544,-0.71225,A,151045.30
5.85595,57.68805276,11.97984717,57.68805600,11.97984817,15:10:45.522414,0.01373,0.00000,0.00000,-0.05034,-0.01656,-0.00142,-0.00100,0.00102,-0.05100,-0.11450,0.99302,5.84616,0.00000,-5.72791,-5.73802,-2.83312,2.06757,5.76678,-2.77372,2.42776,-6.99544,-0.71225,A,151045.30
5.90956,57.68805292,11.97984722,57.68805667,11.97984467,15:10:45.575819,0.04358,0.00000,0.00000,-0.05178,-0.01656,0.00057,0.00266,-0.00081,-0.05008,-0.11566,0.99192,5.86988,0.00000,-5.91652,-5.92663,-2.83015,2.08557,5.89849,-2.98175,2.50189,-9.76709,2.79928,A,151045.50
5.93816,57.68805311,11.97984709,57.68805667,11.97984467,15:10:45.604107,0.01569,0.00000,0.00000,-0.05320,-0.01656,-0.00020,-0.00100,0.00056,-0.05319,-0.11407,0.99113,5.92672,0.00000,-6.49259,-6.50270,-2.83773,2.10639,5.89849,-2.98175,2.50189,-9.76709,2.79928,A,151045.50
5.96438,57.68805329,11.97984697,57.68805667,11.97984467,15:10:45.630312,0.01430,0.00000,0.00000,-0.05457,-0.01656,0.00133,0.00129,0.00041,-0.05301,-0.11547,0.98985,5.95492,0.00000,-6.98225,-6.99236,-2.84493,2.12617,5.89849,-2.98175,2.50189,-9.76709,2.79928,A,151045.50
5.98537,57.68805346,11.97984685,57.68805667,11.97984467,15:10:45.651313,0.01415,0.00000,0.00000,-0.05591,-0.01656,0.00240,-0.00177,0.00010,-0.05008,-0.11505,0.99192,5.97499,0.00000,-7.39846,-7.40857,-2.85177,2.14495,5.89849,-2.98175,2.50189,-9.76709,2.79928,A,151045.50
6.02563,57.68805362,11.97984674,57.68805733,11.97984283,15:10:45.691563,0.02937,0.00000,0.00000,-0.05715,-0.01656,0.00347,0.00312,-0.00127,-0.05209,-0.11279,0.99162,5.99886,0.00000,-7.75224,-7.76235,-2.85827,2.16280,6.01562,-3.09072,2.57602,-10.02216,2.54422,A,151045.60
6.05120,57.68805380,11.97984655,57.68805733,11.97984283,15:10:45.717136,0.01285,0.00000,0.00000,-0.05850,-0.01656,-0.00004,-0.00054,0.00056,-0.05173,-0.11529,0.99149,6.04187,0.00000,-8.09121,-8.10132,-2.86989,2.18346,6.01562,-3.09072,2.57602,-10.02216,2.54422,A,151045.60
6.07865,57.68805398,11.97984636,57.68805733,11.97984283,15:10:45.744584,0.01524,0.00000,0.00000,-0.05971,-0.01656,0.00515,0.00388,-0.00005,-0.05264,-0.11590,0.99198,6.06687,0.00000,-8.37933,-8.38945,-2.88094,2.20309,6.01562,-3.09072,2.57602,-10.02216,2.54422,A,151045.60
6.10326,57.68805415,11.97984619,57.68805733,11.97984283,15:10:45.769509,0.01216,0.00000,0.00000,-0.06105,-0.01656,-0.00188,-0.00116,-0.00188,-0.05118,-0.11413,0.99186,6.09346,0.00000,-8.62424,-8.63435,-2.89142,2.22173,6.01562,-3.09072,2.57602,-10.02216,2.54422,A,151045.60
6.14784,57.68805431,11.97984602,57.68805650,11.97984583,15:10:45.813780,0.03307,0.00000,0.00000,-0.06239,-0.01656,-0.00203,0.00312,-0.00158,-0.05240,-0.11541,0.99259,6.11862,0.00000,-8.83241,-8.84252,-2.90139,2.23945,6.13744,-2.91241,2.48335,-13.04563,-0.47926,A,151045.70
6.17264,57.68805442,11.97984601,57.68805650,11.97984583,15:10:45.838575,0.01338,0.00000,0.00000,-0.06344,-0.01656,0.00484,0.00129,0.00117,-0.05405,-0.11535,0.99430,6.16330,0.00000,-9.46288,-9.47299,-2.90194,2.25164,6.13744,-2.91241,2.48335,-13.04563,-0.47926,A,151045.70
6.20062,57.68805452,11.97984600,57.68805650,11.97984583,15:10:45.866574,0.01406,0.00000,0.00000,-0.06470,-0.01656,0.00026,0.00175,0.00163,-0.05203,-0.11596,0.98838,6.19033,0.00000,-9.99877,-10.00888,-2.90246,2.26323,6.13744,-2.91241,2.48335,-13.04563,-0.47926,A,151045.70
6.22861,57.68805462,11.97984599,57.68805650,11.97984583,15:10:45.894559,0.01520,0.00000,0.00000,-0.06587,-0.01656,0.00255,-0.00054,0.00041,-0.05203,-0.11560,0.99088,6.21816,0.00000,-10.45429,-10.46440,-2.90296,2.27423,6.13744,-2.91241,2.48335,-13.04563,-0.47926,A,151045.70
6.27107,57.68805471,11.97984598,57.68805750,11.97984583,15:10:45.937009,0.03067,0.00000,0.00000,-0.06720,-0.01656,-0.00630,-0.00116,0.00056,-0.05100,-0.11279,0.99265,6.24431,0.00000,-10.84147,-10.85158,-2.90343,2.28469,6.26048,-2.91241,2.59455,-10.99557,1.57080,A,151045.80
6.29498,57.68805485,11.97984598,57.68805750,11.97984583,15:10:45.961223,0.01389,0.00000,0.00000,-0.06843,-0.01656,-0.00096,0.00190,0.00010,-0.05161,-0.11492,0.99210,6.28499,0.00000,-10.86307,-10.87318,-2.90388,2.30018,6.26048,-2.91241,2.59455,-10.99557,1.57080,A,151045.80
6.31850,57.68805499,11.97984597,57.68805750,11.97984583,15:10:45.984434,0.01381,0.00000,0.00000,-0.06959,-0.01656,0.00194,0.00297,0.00071,-0.05435,-0.11724,0.99399,6.30774,0.00000,-10.88143,-10.89154,-2.90431,2.31490,6.26048,-2.91241,2.59455,-10.99557,1.57080,A,151045.80
6.34454,57.68805511,11.97984596,57.68805750,11.97984583,15:10:46.010498,0.01451,0.00000,0.00000,-0.07083,-0.01656,-0.00356,0.00007,-0.00097,-0.05191,-0.11431,0.99162,6.33430,0.00000,-10.89703,-10.90714,-2.90471,2.32888,6.26048,-2.91241,2.59455,-10.99557,1.57080,A,151045.80
6.38715,57.68805523,11.97984596,57.68805883,11.97984533,15:10:46.053082,0.03274,0.00000,0.00000,-0.07199,-0.01656,-0.00035,0.00037,-0.00112,-0.05191,-0.11614,0.98966,6.35847,0.00000,-10.91030,-10.92041,-2.90510,2.34217,6.37708,-2.94212,2.74281,-10.79775,1.76862,A,151045.90
6.41605,57.68805541,11.97984593,57.68805883,11.97984533,15:10:46.082180,0.01435,0.00000,0.00000,-0.07293,-0.01656,0.00378,0.00205,-0.00280,-0.05276,-0.11499,0.99393,6.40590,0.00000,-10.89190,-10.90201,-2.90695,2.36220,6.37708,-2.94212,2.74281,-10.79775,1.76862,A,151045.90
6.44099,57.68805558,11.97984590,57.68805883,11.97984533,15:10:46.106920,0.01411,0.00000,0.00000,-0.07401,-0.01656,0.00118,-0.00253,0.00087,-0.04953,-0.11486,0.98972,6.43132,0.00000,-10.87626,-10.88637,-2.90871,2.38123,6.37708,-2.94212,2.74281,-10.79775,1.76862,A,151045.90
6.46744,57.68805574,11.97984587,57.68805883,11.97984533,15:10:46.133378,0.01413,0.00000,0.00000,-0.07517,-0.01656,-0.00233,-0.00039,0.00102,-0.05283,-0.11553,0.99210,6.45809,0.00000,-10.86297,-10.87308,-2.91038,2.39931,6.37708,-2.94212,2.74281,-10.79775,1.76862,A,151045.90
6.52114,57.68805590,11.97984584,57.68805983,11.97984750,15:10:46.187081,0.04349,0.00000,0.00000,-0.07625,-0.01656,-0.00081,-0.00085,-0.00020,-0.05063,-0.11480,0.99467,6.48018,0.00000,-10.85167,-10.86178,-2.91197,2.41648,6.50949,-2.81334,2.85400,-11.85412,0.71225,A,151046.10
6.55342,57.68805610,11.97984592,57.68805983,11.97984750,15:10:46.219681,0.01961,0.00000,0.00000,-0.07722,-0.01656,0.00148,0.00144,-0.00234,-0.05026,-0.11547,0.99265,6.53807,0.00000,-11.00052,-11.01063,-2.90703,2.43836,6.50949,-2.81334,2.85400,-11.85412,0.71225,A,151046.10
6.58091,57.68805628,11.97984600,57.68805983,11.97984750,15:10:46.246843,0.01637,0.00000,0.00000,-0.07823,-0.01656,0.00133,0.00098,0.00209,-0.05033,-0.11553,0.99046,6.56883,0.00000,-11.12704,-11.13715,-2.90235,2.45914,6.50949,-2.81334,2.85400,-11.85412,0.71225,A,151046.10
6.60992,57.68805646,11.97984608,57.68805983,11.97984750,15:10:46.276202,0.01853,0.00000,0.00000,-0.07929,-0.01656,-0.00142,0.00175,0.00041,-0.04807,-0.11480,0.99149,6.59615,0.00000,-11.23459,-11.24470,-2.89790,2.47888,6.50949,-2.81334,2.85400,-11.85412,0.71225,A,151046.10
6.65563,57.68805663,11.97984615,57.68805983,11.97984917,15:10:46.322147,0.03167,0.00000,0.00000,-0.08026,-0.01656,0.00225,-0.00039,-0.00035,-0.04972,-0.11651,0.99174,6.62821,0.00000,-11.32600,-11.33611,-2.89367,2.49764,6.64608,-2.71428,2.85400,-12.56637,0.00000,A,151046.20
6.68181,57.68805679,11.97984630,57.68805983,11.97984917,15:10:46.347737,0.01274,0.00000,0.00000,-0.08117,-0.01656,0.00210,-0.00222,-0.00081,-0.05130,-0.11584,0.99357,6.67208,0.00000,-11.51054,-11.52065,-2.88470,2.51546,6.64608,-2.71428,2.85400,-12.56637,0.00000,A,151046.20
6.70469,57.68805694,11.97984644,57.68805983,11.97984917,15:10:46.370624,0.01308,0.00000,0.00000,-0.08214,-0.01656,0.00026,0.00297,0.00071,-0.04898,-0.11444,0.99253,6.69511,0.00000,-11.66740,-11.67751,-2.87618,2.53239,6.64608,-2.71428,2.85400,-12.56637,0.00000,A,151046.20
6.72965,57.68805709,11.97984658,57.68805983,11.97984917,15:10:46.395725,0.01498,0.00000,0.00000,-0.08304,-0.01656,0.00179,0.00098,-0.00081,-0.05283,-0.11352,0.99040,6.71895,0.00000,-11.80073,-11.81084,-2.86809,2.54847,6.64608,-2.71428,2.85400,-12.56637,0.00000,A,151046.20
6.76786,57.68805722,11.97984671,57.68805983,11.97984833,15:10:46.433789,0.02900,0.00000,0.00000,-0.08396,-0.01656,0.00210,0.00022,0.00071,-0.05100,-0.11584,0.99052,6.74195,0.00000,-11.91406,-11.92417,-2.86040,2.56374,6.75819,-2.76381,2.85400,-9.42478,3.14159,A,151046.30
6.79485,57.68805735,11.97984679,57.68805983,11.97984833,15:10:46.460780,0.01426,0.00000,0.00000,-0.08501,-0.01656,-0.00279,-0.00146,0.00300,-0.05112,-0.11462,0.99180,6.78304,0.00000,-11.53915,-11.54926,-2.85557,2.57826,6.75819,-2.76381,2.85400,-9.42478,3.14159,A,151046.30
