Time,lat_estimated,lon_estimated,latitude,longitude,RealTime,CalculationTime,MeasuredVelocity,FilteredVelocity,Roll,SteeringAngle,RollRate,gy,gz,ax,ay,az,imu_read_timing,v_estimated,yaw_estimated,heading_estimated,x_estimated,y_estimated,GPS_timestamp,x_GPS,y_GPS,theta_GPS,theta_GPS_noUnwrap,status,NMEA timestamp
0.04888,57.68790100,11.97919450,57.68790100,11.97919450,16:02:57.226337,0.04884,0.00000,0.00000,-0.00221,0.00000,-0.00097,-0.00078,0.00032,-0.03751,-0.11511,0.99247,0.00001,0.00000,0.00000,0.00000,0.00000,0.00000,0.01447,0.00000,0.00000,0.00000,0.00000,A,160257.10
0.06773,57.68790100,11.97919450,57.68790100,11.97919450,16:02:57.245167,0.00872,0.00000,0.00000,-0.00440,0.00000,-0.00067,0.00136,-0.00243,-0.04117,-0.11419,0.99168,0.06122,0.00000,0.00000,0.00000,0.00000,0.00000,0.01447,0.00000,0.00000,0.00000,0.00000,A,160257.10
0.07473,57.68790100,11.97919450,57.68790100,11.97919450,16:02:57.252162,0.00553,0.00000,0.00000,-0.00656,0.00000,-0.00387,0.00059,-0.00044,-0.04117,-0.11486,0.99162,0.06866,0.00000,0.00000,0.00000,0.00000,0.00000,0.01447,0.00000,0.00000,0.00000,0.00000,A,160257.10
0.08496,57.68790100,11.97919450,57.68790100,11.97919450,16:02:57.262395,0.00537,0.00000,0.00000,-0.00869,0.00000,-0.00281,0.00105,0.00032,-0.04038,-0.11511,0.99253,0.07931,0.00000,0.00000,0.00000,0.00000,0.00000,0.01447,0.00000,0.00000,0.00000,0.00000,A,160257.10
0.09507,57.68790100,11.97919450,57.68790100,11.97919450,16:02:57.272505,0.00508,0.00000,0.00000,-0.01070,0.00000,0.00330,-0.00109,-0.00228,-0.03934,-0.11322,0.99094,0.08968,0.00000,0.00000,0.00000,0.00000,0.00000,0.01447,0.00000,0.00000,0.00000,0.00000,A,160257.10
0.10591,57.68790100,11.97919450,57.68790100,11.97919450,16:02:57.283341,0.00523,0.00000,0.00000,-0.01274,0.00000,0.00055,-0.00170,-0.00182,-0.03916,-0.11578,0.99320,0.10022,0.00000,0.00000,0.00000,0.00000,0.00000,0.01447,0.00000,0.00000,0.00000,0.00000,A,160257.10
0.13146,57.68790100,11.97919450,57.68790000,11.97919733,16:02:57.308896,0.02039,0.00000,0.00000,-0.01472,0.00000,0.00346,0.00334,0.00047,-0.03825,-0.11541,0.99216,0.11078,0.00000,0.00000,0.00000,0.00000,0.00000,0.12813,0.16841,-0.11119,-0.58357,-0.58357,A,160257.20
0.14424,57.68790095,11.97919464,57.68790000,11.97919733,16:02:57.321917,0.00662,0.00000,0.00000,-0.01670,0.00000,-0.00006,0.00243,-0.00151,-0.03947,-0.11474,0.99052,0.13879,0.00000,-0.08754,-0.08754,0.00842,-0.00556,0.12813,0.16841,-0.11119,-0.58357,-0.58357,A,160257.20
0.15343,57.68790090,11.97919478,57.68790000,11.97919733,16:02:57.330859,0.00557,0.00000,0.00000,-0.01867,0.00000,-0.00265,-0.00414,0.00078,-0.03941,-0.11523,0.99399,0.14770,0.00000,-0.16194,-0.16194,0.01642,-0.01084,0.12813,0.16841,-0.11119,-0.58357,-0.58357,A,160257.20
0.16346,57.68790086,11.97919490,57.68790000,11.97919733,16:02:57.340898,0.00521,0.00000,0.00000,-0.02061,0.00000,-0.00036,-0.00109,0.00246,-0.03812,-0.11602,0.99247,0.15807,0.00000,-0.22518,-0.22518,0.02402,-0.01586,0.12813,0.16841,-0.11119,-0.58357,-0.58357,A,160257.20
0.17392,57.68790081,11.97919503,57.68790000,11.97919733,16:02:57.351625,0.00520,0.00000,0.00000,-0.02248,0.00000,0.00208,0.00227,-0.00060,-0.03739,-0.11523,0.99168,0.16825,0.00000,-0.27894,-0.27894,0.03124,-0.02063,0.12813,0.16841,-0.11119,-0.58357,-0.58357,A,160257.20
0.18460,57.68790077,11.97919514,57.68790000,11.97919733,16:02:57.362050,0.00549,0.00000,0.00000,-0.02433,0.00000,0.00193,0.00014,0.00307,-0.03922,-0.11578,0.99515,0.17898,0.00000,-0.32464,-0.32464,0.03810,-0.02515,0.12813,0.16841,-0.11119,-0.58357,-0.58357,A,160257.20
0.19463,57.68790074,11.97919525,57.68790000,11.97919733,16:02:57.372061,0.00511,0.00000,0.00000,-0.02619,0.00000,0.00178,-0.00139,-0.00090,-0.03892,-0.11785,0.99137,0.18899,0.00000,-0.36348,-0.36348,0.04461,-0.02946,0.12813,0.16841,-0.11119,-0.58357,-0.58357,A,160257.20
0.20531,57.68790070,11.97919535,57.68790000,11.97919733,16:02:57.382741,0.00540,0.00000,0.00000,-0.02800,0.00000,-0.00204,0.00059,-0.00075,-0.03703,-0.11413,0.99204,0.19962,0.00000,-0.39649,-0.39649,0.05080,-0.03354,0.12813,0.16841,-0.11119,-0.58357,-0.58357,A,160257.20
0.21550,57.68790066,11.97919545,57.68790000,11.97919733,16:02:57.392930,0.00511,0.00000,0.00000,-0.02983,0.00000,-0.00342,-0.00017,0.00231,-0.03898,-0.11602,0.98985,0.21010,0.00000,-0.42455,-0.42455,0.05668,-0.03743,0.12813,0.16841,-0.11119,-0.58357,-0.58357,A,160257.20
0.22592,57.68790063,11.97919555,57.68790000,11.97919733,16:02:57.403359,0.00518,0.00000,0.00000,-0.03155,0.00000,0.00391,0.00273,-0.00273,-0.03648,-0.11560,0.99143,0.22027,0.00000,-0.44840,-0.44840,0.06227,-0.04111,0.12813,0.16841,-0.11119,-0.58357,-0.58357,A,160257.20
0.25135,57.68790060,11.97919564,57.68789933,11.97920017,16:02:57.428798,0.02022,0.00000,0.00000,-0.03331,0.00000,-0.00204,0.00014,0.00047,-0.03739,-0.11553,0.99149,0.23084,0.00000,-0.46868,-0.46868,0.06757,-0.04462,0.24673,0.33681,-0.18532,-0.41466,-0.41466,A,160257.30
0.26689,57.68790054,11.97919586,57.68789933,11.97920017,16:02:57.444320,0.00672,0.00000,0.00000,-0.03505,0.00000,-0.00143,-0.00414,0.00154,-0.03934,-0.11523,0.99320,0.26103,0.00000,-0.46058,-0.46058,0.08104,-0.05165,0.24673,0.33681,-0.18532,-0.41466,-0.41466,A,160257.30
0.27598,57.68790048,11.97919608,57.68789933,11.97920017,16:02:57.453414,0.00542,0.00000,0.00000,-0.03671,0.00000,0.00391,0.00136,0.00078,-0.03941,-0.11596,0.99046,0.27025,0.00000,-0.45369,-0.45369,0.09383,-0.05834,0.24673,0.33681,-0.18532,-0.41466,-0.41466,A,160257.30
0.28708,57.68790042,11.97919628,57.68789933,11.97920017,16:02:57.464509,0.00619,0.00000,0.00000,-0.03837,0.00000,-0.00204,0.00273,0.00002,-0.03959,-0.11492,0.99174,0.28114,0.00000,-0.44784,-0.44784,0.10597,-0.06469,0.24673,0.33681,-0.18532,-0.41466,-0.41466,A,160257.30
0.29663,57.68790036,11.97919648,57.68789933,11.97920017,16:02:57.474084,0.00535,0.00000,0.00000,-0.04004,0.00000,-0.00357,-0.00353,0.00032,-0.03922,-0.11572,0.99467,0.29100,0.00000,-0.44286,-0.44286,0.11752,-0.07072,0.24673,0.33681,-0.18532,-0.41466,-0.41466,A,160257.30
0.30674,57.68790031,11.97919666,57.68789933,11.97920017,16:02:57.484169,0.00520,0.00000,0.00000,-0.04163,0.00000,0.00437,-0.00139,-0.00182,-0.03983,-0.11724,0.99168,0.30111,0.00000,-0.43863,-0.43863,0.12848,-0.07645,0.24673,0.33681,-0.18532,-0.41466,-0.41466,A,160257.30
0.31741,57.68790026,11.97919684,57.68789933,11.97920017,16:02:57.494856,0.00547,0.00000,0.00000,-0.04325,0.00000,-0.00067,0.00075,0.00078,-0.04038,-0.11761,0.99125,0.31166,0.00000,-0.43504,-0.43504,0.13890,-0.08189,0.24673,0.33681,-0.18532,-0.41466,-0.41466,A,160257.30
0.32902,57.68790022,11.97919700,57.68789933,11.97920017,16:02:57.506456,0.00668,0.00000,0.00000,-0.04482,0.00000,-0.00006,-0.00185,-0.00197,-0.03843,-0.11669,0.99198,0.32270,0.00000,-0.43198,-0.43198,0.14879,-0.08706,0.24673,0.33681,-0.18532,-0.41466,-0.41466,A,160257.30
0.33800,57.68790017,11.97919716,57.68789933,11.97920017,16:02:57.515434,0.00542,0.00000,0.00000,-0.04635,0.00000,0.00116,0.00197,-0.00350,-0.03892,-0.11572,0.99338,0.33229,0.00000,-0.42938,-0.42938,0.15819,-0.09198,0.24673,0.33681,-0.18532,-0.41466,-0.41466,A,160257.30
0.37483,57.68790013,11.97919731,57.68789867,11.97920400,16:02:57.552279,0.03185,0.00000,0.00000,-0.04783,0.00000,-0.00082,-0.00078,0.00292,-0.03965,-0.11303,0.99174,0.34267,0.00000,-0.42717,-0.42717,0.16713,-0.09664,0.36979,0.56465,-0.25945,-0.31455,-0.31455,A,160257.50
0.39029,57.68790006,11.97919765,57.68789867,11.97920400,16:02:57.567716,0.00757,0.00000,0.00000,-0.04944,0.00000,-0.00357,0.00166,-0.00060,-0.04240,-0.11401,0.99198,0.38458,0.00000,-0.41028,-0.41028,0.18700,-0.10479,0.36979,0.56465,-0.25945,-0.31455,-0.31455,A,160257.50
0.39814,57.68789999,11.97919796,57.68789867,11.97920400,16:02:57.575579,0.00520,0.00000,0.00000,-0.05091,0.00000,-0.00265,-0.00048,0.00093,-0.03886,-0.11456,0.99332,0.39248,0.00000,-0.39592,-0.39592,0.20588,-0.11252,0.36979,0.56465,-0.25945,-0.31455,-0.31455,A,160257.50
0.40870,57.68789992,11.97919827,57.68789867,11.97920400,16:02:57.586151,0.00536,0.00000,0.00000,-0.05234,0.00000,-0.00128,0.00059,-0.00151,-0.03904,-0.11352,0.99338,0.40306,0.00000,-0.38372,-0.38372,0.22382,-0.11987,0.36979,0.56465,-0.25945,-0.31455,-0.31455,A,160257.50
0.41882,57.68789986,11.97919855,57.68789867,11.97920400,16:02:57.596247,0.00508,0.00000,0.00000,-0.05377,0.00000,-0.00250,0.00273,0.00444,-0.04148,-0.11468,0.99351,0.41323,0.00000,-0.37334,-0.37334,0.24086,-0.12684,0.36979,0.56465,-0.25945,-0.31455,-0.31455,A,160257.50
0.43098,57.68789980,11.97919882,57.68789867,11.97920400,16:02:57.608410,0.00684,0.00000,0.00000,-0.05516,0.00000,-0.00082,0.00044,-0.00060,-0.04032,-0.11444,0.99101,0.42464,0.00000,-0.36452,-0.36452,0.25705,-0.13348,0.36979,0.56465,-0.25945,-0.31455,-0.31455,A,160257.50
0.43961,57.68789974,11.97919908,57.68789867,11.97920400,16:02:57.617041,0.00507,0.00000,0.00000,-0.05651,0.00000,0.00254,-0.00002,0.00292,-0.03892,-0.11523,0.99198,0.43422,0.00000,-0.35703,-0.35703,0.27243,-0.13977,0.36979,0.56465,-0.25945,-0.31455,-0.31455,A,160257.50
0.45019,57.68789969,11.97919933,57.68789867,11.97920400,16:02:57.627631,0.00542,0.00000,0.00000,-0.05778,0.00000,0.00697,0.00197,-0.00121,-0.04002,-0.11462,0.99302,0.44449,0.00000,-0.35066,-0.35066,0.28704,-0.14576,0.36979,0.56465,-0.25945,-0.31455,-0.31455,A,160257.50
0.46074,57.68789964,11.97919956,57.68789867,11.97920400,16:02:57.638187,0.00557,0.00000,0.00000,-0.05911,0.00000,-0.00204,0.00029,0.00093,-0.03843,-0.11352,0.99418,0.45488,0.00000,-0.34524,-0.34524,0.30092,-0.15144,0.36979,0.56465,-0.25945,-0.31455,-0.31455,A,160257.50
0.48650,57.68789959,11.97919978,57.68789867,11.97920333,16:02:57.663947,0.02093,0.00000,0.00000,-0.06044,0.00000,-0.00158,0.00014,0.00078,-0.03898,-0.11492,0.99320,0.46519,0.00000,-0.34064,-0.34064,0.31411,-0.15684,0.48170,0.52503,-0.25945,3.14159,3.14159,A,160257.60
0.50192,57.68789954,11.97919996,57.68789867,11.97920333,16:02:57.679358,0.00671,0.00000,0.00000,-0.06171,0.00000,0.00010,0.00105,-0.00105,-0.04105,-0.11389,0.99375,0.49611,0.00000,0.18170,0.18170,0.32466,-0.16197,0.48170,0.52503,-0.25945,3.14159,3.14159,A,160257.60
0.51154,57.68789950,11.97920013,57.68789867,11.97920333,16:02:57.688971,0.00592,0.00000,0.00000,-0.06298,0.00000,0.00101,0.00334,-0.00121,-0.04111,-0.11627,0.99326,0.50611,0.00000,0.62568,0.62568,0.33468,-0.16685,0.48170,0.52503,-0.25945,3.14159,3.14159,A,160257.60
0.52194,57.68789946,11.97920029,57.68789867,11.97920333,16:02:57.699375,0.00549,0.00000,0.00000,-0.06427,0.00000,-0.00403,0.00212,0.00170,-0.03983,-0.11444,0.99454,0.51621,0.00000,1.00307,1.00307,0.34419,-0.17148,0.48170,0.52503,-0.25945,3.14159,3.14159,A,160257.60
0.53194,57.68789942,11.97920044,57.68789867,11.97920333,16:02:57.709376,0.00510,0.00000,0.00000,-0.06549,0.00000,0.00391,-0.00032,0.00108,-0.03928,-0.11657,0.98997,0.52655,0.00000,1.32385,1.32385,0.35324,-0.17588,0.48170,0.52503,-0.25945,3.14159,3.14159,A,160257.60
0.54234,57.68789938,11.97920059,57.68789867,11.97920333,16:02:57.719774,0.00527,0.00000,0.00000,-0.06670,0.00000,0.00055,0.00105,-0.00029,-0.03953,-0.11499,0.99229,0.53666,0.00000,1.59651,1.59651,0.36182,-0.18006,0.48170,0.52503,-0.25945,3.14159,3.14159,A,160257.60
0.55280,57.68789935,11.97920072,57.68789867,11.97920333,16:02:57.730244,0.00534,0.00000,0.00000,-0.06786,0.00000,0.00086,0.00136,-0.00044,-0.04087,-0.11358,0.99204,0.54719,0.00000,1.82827,1.82827,0.36999,-0.18403,0.48170,0.52503,-0.25945,3.14159,3.14159,A,160257.60
0.56313,57.68789931,11.97920086,57.68789867,11.97920333,16:02:57.740572,0.00528,0.00000,0.00000,-0.06898,0.00000,0.00407,0.00288,-0.00044,-0.04032,-0.11370,0.99247,0.55774,0.00000,2.02527,2.02527,0.37774,-0.18780,0.48170,0.52503,-0.25945,3.14159,3.14159,A,160257.60
0.57386,57.68789928,11.97920098,57.68789867,11.97920333,16:02:57.751295,0.00561,0.00000,0.00000,-0.07013,0.00000,0.00055,-0.00292,0.00170,-0.04026,-0.11431,0.98991,0.56793,0.00000,2.19272,2.19272,0.38510,-0.19138,0.48170,0.52503,-0.25945,3.14159,3.14159,A,160257.60
0.59956,57.68789925,11.97920110,57.68789900,11.97920183,16:02:57.777017,0.02091,0.00000,0.00000,-0.07129,0.00000,0.00269,-0.00277,-0.00044,-0.04105,-0.11755,0.99162,0.57837,0.00000,2.33505,2.33505,0.39210,-0.19478,0.59541,0.43587,-0.22239,2.74760,2.74760,A,160257.70
0.61443,57.68789924,11.97920113,57.68789900,11.97920183,16:02:57.791882,0.00759,0.00000,0.00000,-0.07246,0.00000,-0.00067,-0.00109,-0.00472,-0.04032,-0.11645,0.99210,0.60820,0.00000,2.39693,2.39693,0.39429,-0.19616,0.59541,0.43587,-0.22239,2.74760,2.74760,A,160257.70
0.62227,57.68789922,11.97920117,57.68789900,11.97920183,16:02:57.799712,0.00520,0.00000,0.00000,-0.07355,0.00000,0.00025,-0.00170,0.00017,-0.04020,-0.11383,0.99290,0.61661,0.00000,2.44953,2.44953,0.39637,-0.19748,0.59541,0.43587,-0.22239,2.74760,2.74760,A,160257.70
0.63401,57.68789921,11.97920120,57.68789900,11.97920183,16:02:57.811442,0.00654,0.00000,0.00000,-0.07470,0.00000,-0.00296,-0.00246,-0.00136,-0.04044,-0.11682,0.99296,0.62719,0.00000,2.49424,2.49424,0.39834,-0.19872,0.59541,0.43587,-0.22239,2.74760,2.74760,A,160257.70
0.64356,57.68789920,11.97920123,57.68789900,11.97920183,16:02:57.820999,0.00570,0.00000,0.00000,-0.07578,0.00000,-0.00051,-0.00048,0.00017,-0.03989,-0.11462,0.99290,0.63812,0.00000,2.53224,2.53224,0.40022,-0.19990,0.59541,0.43587,-0.22239,2.74760,2.74760,A,160257.70
0.65466,57.68789919,11.97920126,57.68789900,11.97920183,16:02:57.832094,0.00640,0.00000,0.00000,-0.07686,0.00000,-0.00204,-0.00154,-0.00029,-0.04093,-0.11456,0.99149,0.64837,0.00000,2.56455,2.56455,0.40200,-0.20103,0.59541,0.43587,-0.22239,2.74760,2.74760,A,160257.70
0.66484,57.68789918,11.97920129,57.68789900,11.97920183,16:02:57.842297,0.00634,0.00000,0.00000,-0.07788,0.00000,0.00116,-0.00124,-0.00243,-0.03819,-0.11462,0.99448,0.65809,0.00000,2.59201,2.59201,0.40369,-0.20210,0.59541,0.43587,-0.22239,2.74760,2.74760,A,160257.70
0.67394,57.68789917,11.97920132,57.68789900,11.97920183,16:02:57.851374,0.00519,0.00000,0.00000,-0.07890,0.00000,0.00055,0.00044,0.00292,-0.04038,-0.11499,0.99436,0.66827,0.00000,2.61534,2.61534,0.40530,-0.20311,0.59541,0.43587,-0.22239,2.74760,2.74760,A,160257.70
0.68463,57.68789916,11.97920134,57.68789900,11.97920183,16:02:57.862084,0.00562,0.00000,0.00000,-0.07991,0.00000,-0.00051,-0.00093,-0.00334,-0.03751,-0.11395,0.99009,0.67890,0.00000,2.63518,2.63518,0.40683,-0.20408,0.59541,0.43587,-0.22239,2.74760,2.74760,A,160257.70
0.69453,57.68789916,11.97920137,57.68789900,11.97920183,16:02:57.871959,0.00512,0.00000,0.00000,-0.08091,0.00000,0.00071,0.00243,-0.00136,-0.04087,-0.11523,0.99040,0.68889,0.00000,2.65204,2.65204,0.40828,-0.20499,0.59541,0.43587,-0.22239,2.74760,2.74760,A,160257.70
0.71942,57.68789915,11.97920139,57.68789933,11.97920033,16:02:57.896863,0.01962,0.00000,0.00000,-0.08192,0.00000,-0.00204,0.00075,-0.00029,-0.03770,-0.11553,0.99174,0.69959,0.00000,2.66638,2.66638,0.40966,-0.20586,0.71576,0.34672,-0.18532,2.74760,2.74760,A,160257.80
0.73157,57.68789916,11.97920134,57.68789933,11.97920033,16:02:57.909007,0.00514,0.00000,0.00000,-0.08297,0.00000,-0.00311,-0.00231,-0.00029,-0.04160,-0.11444,0.99216,0.72613,0.00000,2.67856,2.67856,0.40652,-0.20483,0.71576,0.34672,-0.18532,2.74760,2.74760,A,160257.80
0.74283,57.68789917,11.97920129,57.68789933,11.97920033,16:02:57.920263,0.00526,0.00000,0.00000,-0.08391,0.00000,0.00010,0.00044,-0.00319,-0.04081,-0.11456,0.99552,0.73720,0.00000,2.68892,2.68892,0.40353,-0.20386,0.71576,0.34672,-0.18532,2.74760,2.74760,A,160257.80
0.75398,57.68789917,11.97920124,57.68789933,11.97920033,16:02:57.931413,0.00601,0.00000,0.00000,-0.08484,0.00000,-0.00128,-0.00002,0.00200,-0.03849,-0.11383,0.99259,0.74767,0.00000,2.69772,2.69772,0.40069,-0.20293,0.71576,0.34672,-0.18532,2.74760,2.74760,A,160257.80
0.76338,57.68789918,11.97920120,57.68789933,11.97920033,16:02:57.940816,0.00508,0.00000,0.00000,-0.08570,0.00000,0.00269,-0.00017,-0.00044,-0.03788,-0.11273,0.99332,0.75799,0.00000,2.70520,2.70520,0.39799,-0.20205,0.71576,0.34672,-0.18532,2.74760,2.74760,A,160257.80
0.77391,57.68789919,11.97920115,57.68789933,11.97920033,16:02:57.951347,0.00518,0.00000,0.00000,-0.08662,0.00000,-0.00189,-0.00154,-0.00090,-0.04002,-0.11389,0.99082,0.76825,0.00000,2.71156,2.71156,0.39542,-0.20122,0.71576,0.34672,-0.18532,2.74760,2.74760,A,160257.80
0.78424,57.68789920,11.97920111,57.68789933,11.97920033,16:02:57.961921,0.00511,0.00000,0.00000,-0.08754,0.00000,-0.00082,0.00090,-0.00014,-0.03782,-0.11553,0.99162,0.77885,0.00000,2.71697,2.71697,0.39299,-0.20042,0.71576,0.34672,-0.18532,2.74760,2.74760,A,160257.80
0.79466,57.68789920,11.97920107,57.68789933,11.97920033,16:02:57.972089,0.00512,0.00000,0.00000,-0.08841,0.00000,0.00071,0.00075,0.00078,-0.03910,-0.11505,0.99296,0.78901,0.00000,2.72156,2.72156,0.39067,-0.19967,0.71576,0.34672,-0.18532,2.74760,2.74760,A,160257.80
0.80532,57.68789921,11.97920104,57.68789933,11.97920033,16:02:57.982748,0.00538,0.00000,0.00000,-0.08920,0.00000,0.00422,-0.00170,-0.00228,-0.03959,-0.11218,0.99131,0.79962,0.00000,2.72547,2.72547,0.38848,-0.19895,0.71576,0.34672,-0.18532,2.74760,2.74760,A,160257.80
0.81543,57.68789922,11.97920100,57.68789933,11.97920033,16:02:57.992860,0.00509,0.00000,0.00000,-0.09003,0.00000,-0.00021,-0.00139,0.00063,-0.03910,-0.11285,0.99168,0.81003,0.00000,2.72879,2.72879,0.38639,-0.19827,0.71576,0.34672,-0.18532,2.74760,2.74760,A,160257.80
0.84068,57.68789922,11.97920097,57.68789933,11.97920050,16:02:58.018122,0.01987,0.00000,0.00000,-0.09090,0.00000,-0.00113,0.00243,0.00002,-0.04026,-0.11578,0.99314,0.82034,0.00000,2.73161,2.73161,0.38441,-0.19762,0.83728,0.35662,-0.18532,0.00000,0.00000,A,160257.90
0.85207,57.68789923,11.97920094,57.68789933,11.97920050,16:02:58.029502,0.00586,0.00000,0.00000,-0.09165,0.00000,0.00208,0.00151,-0.00182,-0.04032,-0.11303,0.99277,0.84661,0.00000,2.32187,2.32187,0.38302,-0.19701,0.83728,0.35662,-0.18532,0.00000,0.00000,A,160257.90
0.86263,57.68789923,11.97920092,57.68789933,11.97920050,16:02:58.040074,0.00590,0.00000,0.00000,-0.09251,0.00000,-0.00143,-0.00093,0.00002,-0.04142,-0.11627,0.99192,0.85625,0.00000,1.97359,1.97359,0.38170,-0.19642,0.83728,0.35662,-0.18532,0.00000,0.00000,A,160257.90
0.87281,57.68789924,11.97920090,57.68789933,11.97920050,16:02:58.050260,0.00568,0.00000,0.00000,-0.09333,0.00000,-0.00006,-0.00170,-0.00166,-0.04020,-0.11602,0.99186,0.86693,0.00000,1.67755,1.67755,0.38044,-0.19587,0.83728,0.35662,-0.18532,0.00000,0.00000,A,160257.90
0.88262,57.68789924,11.97920088,57.68789933,11.97920050,16:02:58.060051,0.00509,0.00000,0.00000,-0.09415,0.00000,-0.00021,0.00136,-0.00228,-0.03861,-0.11602,0.99223,0.87701,0.00000,1.42592,1.42592,0.37925,-0.19534,0.83728,0.35662,-0.18532,0.00000,0.00000,A,160257.90
0.89332,57.68789925,11.97920086,57.68789933,11.97920050,16:02:58.070750,0.00539,0.00000,0.00000,-0.09499,0.00000,-0.00311,0.00273,0.00032,-0.03947,-0.11602,0.99119,0.88762,0.00000,1.21203,1.21203,0.37812,-0.19484,0.83728,0.35662,-0.18532,0.00000,0.00000,A,160257.90
0.90349,57.68789925,11.97920084,57.68789933,11.97920050,16:02:58.080921,0.00531,0.00000,0.00000,-0.09576,0.00000,-0.00250,-0.00063,0.00124,-0.03947,-0.11340,0.99338,0.89809,0.00000,1.03022,1.03022,0.37705,-0.19436,0.83728,0.35662,-0.18532,0.00000,0.00000,A,160257.90
0.91460,57.68789926,11.97920083,57.68789933,11.97920050,16:02:58.092041,0.00588,0.00000,0.00000,-0.09652,0.00000,-0.00021,0.00044,-0.00105,-0.04075,-0.11474,0.99387,0.90824,0.00000,0.87569,0.87569,0.37602,-0.19391,0.83728,0.35662,-0.18532,0.00000,0.00000,A,160257.90
0.92421,57.68789926,11.97920081,57.68789933,11.97920050,16:02:58.101903,0.00509,0.00000,0.00000,-0.09722,0.00000,0.00559,0.00151,0.00017,-0.03934,-0.11572,0.99046,0.91884,0.00000,0.74434,0.74434,0.37505,-0.19348,0.83728,0.35662,-0.18532,0.00000,0.00000,A,160257.90
0.93462,57.68789926,11.97920079,57.68789933,11.97920050,16:02:58.112050,0.00510,0.00000,0.00000,-0.09798,0.00000,-0.00235,-0.00399,0.00246,-0.03928,-0.11468,0.99137,0.92901,0.00000,0.63269,0.63269,0.37413,-0.19307,0.83728,0.35662,-0.18532,0.00000,0.00000,A,160257.90
0.96141,57.68789927,11.97920078,57.68789950,11.97920050,16:02:58.138851,0.02149,0.00000,0.00000,-0.09865,0.00000,0.00376,0.00197,-0.00151,-0.04032,-0.11407,0.99235,0.94012,0.00000,0.53778,0.53778,0.37326,-0.19269,0.95708,0.35662,-0.16679,1.57080,1.57080,A,160258.00
0.97866,57.68789928,11.97920077,57.68789950,11.97920050,16:02:58.156102,0.00819,0.00000,0.00000,-0.09927,0.00000,0.00300,0.00166,0.00185,-0.03892,-0.11438,0.99168,0.97276,0.00000,0.69274,0.69274,0.37243,-0.19139,0.95708,0.35662,-0.16679,1.57080,1.57080,A,160258.00
0.98649,57.68789929,11.97920075,57.68789950,11.97920050,16:02:58.163934,0.00584,0.00000,0.00000,-0.09994,0.00000,0.00300,-0.00124,-0.00365,-0.03812,-0.11383,0.98997,0.98018,0.00000,0.82444,0.82444,0.37164,-0.19016,0.95708,0.35662,-0.16679,1.57080,1.57080,A,160258.00
0.99615,57.68789930,11.97920074,57.68789950,11.97920050,16:02:58.173834,0.00510,0.00000,0.00000,-0.10067,0.00000,-0.00143,0.00014,0.00002,-0.04178,-0.11663,0.99662,0.99076,0.00000,0.93640,0.93640,0.37088,-0.18899,0.95708,0.35662,-0.16679,1.57080,1.57080,A,160258.00
1.00656,57.68789931,11.97920073,57.68789950,11.97920050,16:02:58.183988,0.00510,0.00000,0.00000,-0.10136,0.00000,-0.00219,-0.00399,-0.00136,-0.03983,-0.11389,0.99345,1.00093,0.00000,1.03156,1.03156,0.37017,-0.18788,0.95708,0.35662,-0.16679,1.57080,1.57080,A,160258.00
1.01727,57.68789932,11.97920072,57.68789950,11.97920050,16:02:58.194700,0.00542,0.00000,0.00000,-0.10204,0.00000,0.00025,-0.00124,0.00078,-0.03922,-0.11511,0.99454,1.01156,0.00000,1.11244,1.11244,0.36949,-0.18683,0.95708,0.35662,-0.16679,1.57080,1.57080,A,160258.00
1.02753,57.68789933,11.97920071,57.68789950,11.97920050,16:02:58.204968,0.00528,0.00000,0.00000,-0.10269,0.00000,0.00193,-0.00124,-0.00396,-0.03648,-0.11523,0.99149,1.02213,0.00000,1.18120,1.18120,0.36885,-0.18583,0.95708,0.35662,-0.16679,1.57080,1.57080,A,160258.00
1.03792,57.68789934,11.97920070,57.68789950,11.97920050,16:02:58.215356,0.00520,0.00000,0.00000,-0.10335,0.00000,0.00086,-0.00032,0.00032,-0.03977,-0.11584,0.99235,1.03225,0.00000,1.23964,1.23964,0.36824,-0.18488,0.95708,0.35662,-0.16679,1.57080,1.57080,A,160258.00
1.04871,57.68789935,11.97920069,57.68789950,11.97920050,16:02:58.226159,0.00561,0.00000,0.00000,-0.10404,0.00000,-0.00235,-0.00048,0.00292,-0.04319,-0.11602,0.99113,1.04305,0.00000,1.28931,1.28931,0.36766,-0.18397,0.95708,0.35662,-0.16679,1.57080,1.57080,A,160258.00
1.08463,57.68789935,11.97920068,57.68790000,11.97919767,16:02:58.262079,0.03112,0.00000,0.00000,-0.10473,0.00000,-0.00342,0.00120,-0.00273,-0.03977,-0.11627,0.99174,1.05298,0.00000,1.33153,1.33153,0.36711,-0.18311,1.07988,0.18822,-0.11119,2.82272,2.82272,A,160258.20
1.10007,57.68789939,11.97920053,57.68790000,11.97919767,16:02:58.277500,0.00705,0.00000,0.00000,-0.10541,0.00000,-0.00189,0.00227,-0.00228,-0.03995,-0.11322,0.99125,1.09465,0.00000,1.55521,1.55521,0.35816,-0.17952,1.07988,0.18822,-0.11119,2.82272,2.82272,A,160258.20
1.10877,57.68789942,11.97920038,57.68790000,11.97919767,16:02:58.286210,0.00535,0.00000,0.00000,-0.10605,0.00000,-0.00311,0.00029,-0.00105,-0.04288,-0.11480,0.99253,1.10314,0.00000,1.74534,1.74534,0.34967,-0.17610,1.07988,0.18822,-0.11119,2.82272,2.82272,A,160258.20
1.11889,57.68789945,11.97920025,57.68790000,11.97919767,16:02:58.296329,0.00508,0.00000,0.00000,-0.10662,0.00000,0.00223,0.00395,0.00246,-0.03867,-0.11450,0.99589,1.11348,0.00000,1.90694,1.90694,0.34159,-0.17286,1.07988,0.18822,-0.11119,2.82272,2.82272,A,160258.20
1.13024,57.68789947,11.97920012,57.68790000,11.97919767,16:02:58.307677,0.00603,0.00000,0.00000,-0.10724,0.00000,-0.00051,0.00105,-0.00090,-0.04032,-0.11621,0.99235,1.12390,0.00000,2.04431,2.04431,0.33392,-0.16977,1.07988,0.18822,-0.11119,2.82272,2.82272,A,160258.20
1.14060,57.68789950,11.97920000,57.68790000,11.97919767,16:02:58.318050,0.00599,0.00000,0.00000,-0.10783,0.00000,0.00086,0.00334,0.00017,-0.03880,-0.11541,0.99052,1.13431,0.00000,2.16107,2.16107,0.32664,-0.16684,1.07988,0.18822,-0.11119,2.82272,2.82272,A,160258.20
1.15084,57.68789952,11.97919988,57.68790000,11.97919767,16:02:58.328273,0.00549,0.00000,0.00000,-0.10840,0.00000,0.00193,0.00075,-0.00014,-0.03812,-0.11529,0.99204,1.14522,0.00000,2.26032,2.26032,0.31972,-0.16406,1.07988,0.18822,-0.11119,2.82272,2.82272,A,160258.20
1.16136,57.68789955,11.97919977,57.68790000,11.97919767,16:02:58.338790,0.00560,0.00000,0.00000,-0.10900,0.00000,-0.00296,-0.00002,-0.00060,-0.04172,-0.11541,0.99216,1.15547,0.00000,2.34468,2.34468,0.31314,-0.16142,1.07988,0.18822,-0.11119,2.82272,2.82272,A,160258.20
1.17138,57.68789957,11.97919966,57.68790000,11.97919767,16:02:58.348817,0.00524,0.00000,0.00000,-0.10961,0.00000,-0.00174,-0.00078,-0.00060,-0.04117,-0.11633,0.99174,1.16597,0.00000,2.41638,2.41638,0.30690,-0.15891,1.07988,0.18822,-0.11119,2.82272,2.82272,A,160258.20
1.19786,57.68789959,11.97919956,57.68789983,11.97919933,16:02:58.375304,0.02117,0.00000,0.00000,-0.11019,0.00000,-0.00311,0.00075,-0.00060,-0.03892,-0.11468,0.99259,1.17641,0.00000,2.47733,2.47733,0.30096,-0.15652,1.19370,0.28728,-0.12973,-0.18494,-0.18494,A,160258.30
1.21318,57.68789960,11.97919955,57.68789983,11.97919933,16:02:58.390610,0.00779,0.00000,0.00000,-0.11072,0.00000,0.00025,-0.00032,-0.00121,-0.03800,-0.11474,0.99046,1.20675,0.00000,2.07799,2.07799,0.30028,-0.15518,1.19370,0.28728,-0.12973,-0.18494,-0.18494,A,160258.30
1.22115,57.68789962,11.97919954,57.68789983,11.97919933,16:02:58.398584,0.00537,0.00000,0.00000,-0.11122,0.00000,0.00162,0.00059,-0.00090,-0.04087,-0.11358,0.99277,1.21548,0.00000,1.73855,1.73855,0.29963,-0.15391,1.19370,0.28728,-0.12973,-0.18494,-0.18494,A,160258.30
1.23126,57.68789963,11.97919953,57.68789983,11.97919933,16:02:58.408690,0.00508,0.00000,0.00000,-0.11172,0.00000,0.00208,-0.00200,-0.00044,-0.03837,-0.11395,0.99284,1.22587,0.00000,1.45003,1.45003,0.29901,-0.15270,1.19370,0.28728,-0.12973,-0.18494,-0.18494,A,160258.30
1.24190,57.68789964,11.97919952,57.68789983,11.97919933,16:02:58.419334,0.00519,0.00000,0.00000,-0.11227,0.00000,-0.00204,0.00105,-0.00350,-0.03886,-0.11602,0.99381,1.23624,0.00000,1.20478,1.20478,0.29842,-0.15155,1.19370,0.28728,-0.12973,-0.18494,-0.18494,A,160258.30
1.25391,57.68789965,11.97919951,57.68789983,11.97919933,16:02:58.431357,0.00679,0.00000,0.00000,-0.11283,0.00000,-0.00250,-0.00032,-0.00243,-0.03934,-0.11596,0.99143,1.24785,0.00000,0.99632,0.99632,0.29787,-0.15046,1.19370,0.28728,-0.12973,-0.18494,-0.18494,A,160258.30
1.26284,57.68789966,11.97919950,57.68789983,11.97919933,16:02:58.440267,0.00532,0.00000,0.00000,-0.11330,0.00000,0.00223,0.00029,0.00185,-0.03855,-0.11389,0.99119,1.25719,0.00000,0.81913,0.81913,0.29734,-0.14942,1.19370,0.28728,-0.12973,-0.18494,-0.18494,A,160258.30
1.27330,57.68789967,11.97919949,57.68789983,11.97919933,16:02:58.450739,0.00551,0.00000,0.00000,-0.11377,0.00000,0.00178,0.00090,0.00063,-0.03953,-0.11474,0.99387,1.26758,0.00000,0.66852,0.66852,0.29683,-0.14844,1.19370,0.28728,-0.12973,-0.18494,-0.18494,A,160258.30
1.28421,57.68789967,11.97919949,57.68789983,11.97919933,16:02:58.461892,0.00602,0.00000,0.00000,-0.11425,0.00000,0.00330,0.00594,0.00154,-0.03886,-0.11645,0.99131,1.27787,0.00000,0.54050,0.54050,0.29636,-0.14750,1.19370,0.28728,-0.12973,-0.18494,-0.18494,A,160258.30
1.29393,57.68789968,11.97919948,57.68789983,11.97919933,16:02:58.471359,0.00521,0.00000,0.00000,-0.11469,0.00000,0.00575,-0.00048,-0.00044,-0.04002,-0.11602,0.99412,1.28824,0.00000,0.43169,0.43169,0.29590,-0.14661,1.19370,0.28728,-0.12973,-0.18494,-0.18494,A,160258.30
1.31917,57.68789969,11.97919947,57.68790017,11.97919683,16:02:58.496625,0.02005,0.00000,0.00000,-0.11521,0.00000,-0.00342,-0.00384,-0.00457,-0.03941,-0.11523,0.99204,1.29881,0.00000,0.33919,0.33919,0.29547,-0.14577,1.31470,0.13869,-0.09266,2.89714,2.89714,A,160258.40
1.33456,57.68789971,11.97919934,57.68790017,11.97919683,16:02:58.511995,0.00640,0.00000,0.00000,-0.11565,0.00000,0.00010,0.00120,-0.00029,-0.03855,-0.11346,0.99284,1.32890,0.00000,0.72288,0.72288,0.28763,-0.14311,1.31470,0.13869,-0.09266,2.89714,2.89714,A,160258.40
1.34385,57.68789974,11.97919921,57.68790017,11.97919683,16:02:58.521281,0.00532,0.00000,0.00000,-0.11614,0.00000,-0.00219,0.00014,0.00017,-0.03977,-0.11535,0.99253,1.33844,0.00000,1.04902,1.04902,0.28019,-0.14059,1.31470,0.13869,-0.09266,2.89714,2.89714,A,160258.40
1.35467,57.68789976,11.97919909,57.68790017,11.97919683,16:02:58.532104,0.00570,0.00000,0.00000,-0.11660,0.00000,0.00101,-0.00124,0.00047,-0.04233,-0.11572,0.99107,1.34899,0.00000,1.32624,1.32624,0.27311,-0.13820,1.31470,0.13869,-0.09266,2.89714,2.89714,A,160258.40
1.36488,57.68789978,11.97919898,57.68790017,11.97919683,16:02:58.542312,0.00536,0.00000,0.00000,-0.11702,0.00000,0.00178,-0.00002,-0.00273,-0.03910,-0.11444,0.99052,1.35924,0.00000,1.56188,1.56188,0.26639,-0.13592,1.31470,0.13869,-0.09266,2.89714,2.89714,A,160258.40
1.37501,57.68789980,11.97919887,57.68790017,11.97919683,16:02:58.552438,0.00509,0.00000,0.00000,-0.11748,0.00000,-0.00067,0.00075,-0.00136,-0.03922,-0.11547,0.99296,1.36962,0.00000,1.76217,1.76217,0.26000,-0.13376,1.31470,0.13869,-0.09266,2.89714,2.89714,A,160258.40
1.38572,57.68789982,11.97919877,57.68790017,11.97919683,16:02:58.563160,0.00522,0.00000,0.00000,-0.11788,0.00000,0.00254,0.00044,-0.00014,-0.03892,-0.11419,0.99320,1.38003,0.00000,1.93241,1.93241,0.25394,-0.13170,1.31470,0.13869,-0.09266,2.89714,2.89714,A,160258.40
1.39600,57.68789983,11.97919868,57.68790017,11.97919683,16:02:58.573432,0.00511,0.00000,0.00000,-0.11826,0.00000,0.00391,0.00059,0.00170,-0.03843,-0.11480,0.99241,1.39062,0.00000,2.07712,2.07712,0.24818,-0.12975,1.31470,0.13869,-0.09266,2.89714,2.89714,A,160258.40
1.40642,57.68789985,11.97919858,57.68790017,11.97919683,16:02:58.583853,0.00512,0.00000,0.00000,-0.11870,0.00000,-0.00158,0.00014,-0.00350,-0.03861,-0.11529,0.99454,1.40078,0.00000,2.20012,2.20012,0.24270,-0.12789,1.31470,0.13869,-0.09266,2.89714,2.89714,A,160258.40
1.43195,57.68789987,11.97919850,57.68790000,11.97919567,16:02:58.609387,0.02025,0.00000,0.00000,-0.11911,0.00000,-0.00158,-0.00154,0.00200,-0.04185,-0.11334,0.99040,1.41142,0.00000,2.30468,2.30468,0.23750,-0.12613,1.42755,0.06934,-0.11119,-2.88044,-2.88044,A,160258.50
1.44749,57.68789987,11.97919835,57.68790000,11.97919567,16:02:58.624926,0.00629,0.00000,0.00000,-0.11954,0.00000,-0.00051,-0.00093,-0.00136,-0.04038,-0.11492,0.99387,1.44124,0.00000,1.52691,1.52691,0.22909,-0.12539,1.42755,0.06934,-0.11119,-2.88044,-2.88044,A,160258.50
1.45738,57.68789988,11.97919822,57.68790000,11.97919567,16:02:58.634829,0.00577,0.00000,0.00000,-0.11994,0.00000,0.00055,0.00273,0.00078,-0.03880,-0.11511,0.99235,1.45133,0.00000,0.86581,0.86581,0.22111,-0.12468,1.42755,0.06934,-0.11119,-2.88044,-2.88044,A,160258.50
1.46734,57.68789988,11.97919809,57.68790000,11.97919567,16:02:58.644778,0.00534,0.00000,0.00000,-0.12029,0.00000,0.00452,-0.00002,0.00139,-0.03983,-0.11523,0.99223,1.46170,0.00000,0.30387,0.30387,0.21352,-0.12400,1.42755,0.06934,-0.11119,-2.88044,-2.88044,A,160258.50
1.47803,57.68789989,11.97919797,57.68790000,11.97919567,16:02:58.655470,0.00545,0.00000,0.00000,-0.12063,0.00000,0.00575,0.00014,-0.00044,-0.03941,-0.11511,0.99271,1.47210,0.00000,-0.17378,-0.17378,0.20631,-0.12336,1.42755,0.06934,-0.11119,-2.88044,-2.88044,A,160258.50
1.48807,57.68789990,11.97919786,57.68790000,11.97919567,16:02:58.665502,0.00509,0.00000,0.00000,-0.12104,0.00000,0.00147,0.00059,-0.00060,-0.03922,-0.11743,0.99296,1.48268,0.00000,-0.57978,-0.57978,0.19946,-0.12275,1.42755,0.06934,-0.11119,-2.88044,-2.88044,A,160258.50
1.49841,57.68789990,11.97919775,57.68790000,11.97919567,16:02:58.675837,0.00521,0.00000,0.00000,-0.12141,0.00000,-0.00067,0.00166,0.00139,-0.04203,-0.11438,0.99393,1.49275,0.00000,-0.92488,-0.92488,0.19295,-0.12218,1.42755,0.06934,-0.11119,-2.88044,-2.88044,A,160258.50
1.50897,57.68789991,11.97919764,57.68790000,11.97919567,16:02:58.686408,0.00538,0.00000,0.00000,-0.12182,0.00000,-0.00158,0.00059,0.00322,-0.03800,-0.11560,0.99149,1.50332,0.00000,-1.21821,-1.21821,0.18677,-0.12163,1.42755,0.06934,-0.11119,-2.88044,-2.88044,A,160258.50
1.51919,57.68789991,11.97919754,57.68790000,11.97919567,16:02:58.696619,0.00534,0.00000,0.00000,-0.12213,0.00000,0.00223,-0.00231,0.00093,-0.03849,-0.11261,0.99509,1.51377,0.00000,-1.46754,-1.46754,0.18090,-0.12111,1.42755,0.06934,-0.11119,-2.88044,-2.88044,A,160258.50
1.54492,57.68789992,11.97919745,57.68789900,11.97919600,16:02:58.722363,0.02068,0.00000,0.00000,-0.12253,0.00000,-0.00036,-0.00170,-0.00136,-0.03989,-0.11700,0.99155,1.52395,0.00000,-1.67948,-1.67948,0.17532,-0.12061,1.54078,0.08916,-0.22239,-1.39447,-1.39447,A,160258.60
1.56105,57.68789987,11.97919738,57.68789900,11.97919600,16:02:58.738509,0.00771,0.00000,0.00000,-0.12290,0.00000,0.00010,-0.00032,0.00032,-0.03995,-0.11596,0.99290,1.55486,0.00000,-1.63673,-1.63673,0.17102,-0.12570,1.54078,0.08916,-0.22239,-1.39447,-1.39447,A,160258.60
1.56931,57.68789983,11.97919731,57.68789900,11.97919600,16:02:58.746745,0.00556,0.00000,0.00000,-0.12326,0.00000,0.00025,0.00304,0.00246,-0.04148,-0.11547,0.99162,1.56361,0.00000,-1.60039,-1.60039,0.16692,-0.13053,1.54078,0.08916,-0.22239,-1.39447,-1.39447,A,160258.60
1.57955,57.68789978,11.97919724,57.68789900,11.97919600,16:02:58.756980,0.00540,0.00000,0.00000,-0.12361,0.00000,0.00055,0.00227,-0.00136,-0.03819,-0.11517,0.99070,1.57383,0.00000,-1.56950,-1.56950,0.16303,-0.13513,1.54078,0.08916,-0.22239,-1.39447,-1.39447,A,160258.60
1.59027,57.68789975,11.97919718,57.68789900,11.97919600,16:02:58.767710,0.00559,0.00000,0.00000,-0.12395,0.00000,0.00162,0.00044,-0.00014,-0.04117,-0.11578,0.98826,1.58458,0.00000,-1.54325,-1.54325,0.15934,-0.13949,1.54078,0.08916,-0.22239,-1.39447,-1.39447,A,160258.60
1.60117,57.68789971,11.97919712,57.68789900,11.97919600,16:02:58.778612,0.00609,0.00000,0.00000,-0.12423,0.00000,0.00346,0.00181,-0.00029,-0.03867,-0.11358,0.99168,1.59487,0.00000,-1.52093,-1.52093,0.15583,-0.14363,1.54078,0.08916,-0.22239,-1.39447,-1.39447,A,160258.60
1.61059,57.68789967,11.97919707,57.68789900,11.97919600,16:02:58.788030,0.00512,0.00000,0.00000,-0.12455,0.00000,0.00178,-0.00109,0.00124,-0.04063,-0.11523,0.99412,1.60495,0.00000,-1.50196,-1.50196,0.15250,-0.14757,1.54078,0.08916,-0.22239,-1.39447,-1.39447,A,160258.60
1.62126,57.68789964,11.97919701,57.68789900,11.97919600,16:02:58.798696,0.00538,0.00000,0.00000,-0.12486,0.00000,0.00361,0.00273,0.00093,-0.03941,-0.11590,0.98991,1.61558,0.00000,-1.48584,-1.48584,0.14933,-0.15131,1.54078,0.08916,-0.22239,-1.39447,-1.39447,A,160258.60
1.63136,57.68789961,11.97919696,57.68789900,11.97919600,16:02:58.808788,0.00508,0.00000,0.00000,-0.12514,0.00000,0.00437,0.00014,-0.00090,-0.04038,-0.11456,0.99052,1.62595,0.00000,-1.47213,-1.47213,0.14632,-0.15487,1.54078,0.08916,-0.22239,-1.39447,-1.39447,A,160258.60
1.65716,57.68789958,11.97919691,57.68789833,11.97919483,16:02:58.834610,0.02032,0.00000,0.00000,-0.12547,0.00000,-0.00189,0.00090,-0.00243,-0.03886,-0.11425,0.99296,1.63638,0.00000,-1.46048,-1.46048,0.14346,-0.15824,1.65245,0.01981,-0.29652,-2.32284,-2.32284,A,160258.70
1.67254,57.68789951,11.97919681,57.68789833,11.97919483,16:02:58.849985,0.00722,0.00000,0.00000,-0.12596,0.00000,-0.00586,-0.00032,-0.00090,-0.04014,-0.11553,0.99253,1.66596,0.00000,-1.58984,-1.58984,0.13728,-0.16516,1.65245,0.01981,-0.29652,-2.32284,-2.32284,A,160258.70
1.68137,57.68789946,11.97919671,57.68789833,11.97919483,16:02:58.858803,0.00564,0.00000,0.00000,-0.12622,0.00000,0.00239,-0.00002,0.00185,-0.03721,-0.11364,0.99406,1.67567,0.00000,-1.69979,-1.69979,0.13141,-0.17173,1.65245,0.01981,-0.29652,-2.32284,-2.32284,A,160258.70
1.69120,57.68789940,11.97919662,57.68789833,11.97919483,16:02:58.868636,0.00507,0.00000,0.00000,-0.12652,0.00000,0.00452,-0.00017,-0.00075,-0.03788,-0.11767,0.99210,1.68581,0.00000,-1.79325,-1.79325,0.12583,-0.17796,1.65245,0.01981,-0.29652,-2.32284,-2.32284,A,160258.70
1.70185,57.68789935,11.97919653,57.68789833,11.97919483,16:02:58.879285,0.00519,0.00000,0.00000,-0.12679,0.00000,0.00071,-0.00139,-0.00212,-0.04117,-0.11340,0.99241,1.69617,0.00000,-1.87269,-1.87269,0.12053,-0.18389,1.65245,0.01981,-0.29652,-2.32284,-2.32284,A,160258.70
1.71327,57.68789930,11.97919644,57.68789833,11.97919483,16:02:58.890741,0.00621,0.00000,0.00000,-0.12703,0.00000,0.00452,-0.00124,0.00002,-0.04069,-0.11425,0.99107,1.70690,0.00000,-1.94021,-1.94021,0.11549,-0.18952,1.65245,0.01981,-0.29652,-2.32284,-2.32284,A,160258.70
1.72259,57.68789925,11.97919636,57.68789833,11.97919483,16:02:58.900031,0.00513,0.00000,0.00000,-0.12731,0.00000,0.00116,0.00059,0.00032,-0.03904,-0.11486,0.99296,1.71694,0.00000,-1.99761,-1.99761,0.11071,-0.19487,1.65245,0.01981,-0.29652,-2.32284,-2.32284,A,160258.70
1.73326,57.68789920,11.97919629,57.68789833,11.97919483,16:02:58.910686,0.00540,0.00000,0.00000,-0.12754,0.00000,0.00178,0.00136,0.00108,-0.03983,-0.11236,0.98972,1.72756,0.00000,-2.04639,-2.04639,0.10616,-0.19996,1.65245,0.01981,-0.29652,-2.32284,-2.32284,A,160258.70
1.74406,57.68789916,11.97919621,57.68789833,11.97919483,16:02:58.921500,0.00581,0.00000,0.00000,-0.12782,0.00000,0.00025,0.00059,0.00002,-0.03922,-0.11456,0.99198,1.73793,0.00000,-2.08786,-2.08786,0.10185,-0.20478,1.65245,0.01981,-0.29652,-2.32284,-2.32284,A,160258.70
1.78161,57.68789912,11.97919614,57.68789717,11.97918733,16:02:58.959055,0.03289,0.00000,0.00000,-0.12812,0.00000,-0.00143,0.00197,-0.00060,-0.03971,-0.11529,0.99229,1.74823,0.00000,-2.12311,-2.12311,0.09774,-0.20937,1.77698,-0.42597,-0.42625,-2.85840,-2.85840,A,160258.90
1.79898,57.68789902,11.97919570,57.68789717,11.97918733,16:02:58.976413,0.00738,0.00000,0.00000,-0.12852,0.00000,-0.00296,-0.00216,-0.00105,-0.04014,-0.11450,0.99332,1.79349,0.00000,-2.23340,-2.23340,0.07156,-0.22021,1.77698,-0.42597,-0.42625,-2.85840,-2.85840,A,160258.90
1.80748,57.68789893,11.97919529,57.68789717,11.97918733,16:02:58.984921,0.00549,0.00000,0.00000,-0.12875,0.00000,0.00132,-0.00216,-0.00365,-0.03922,-0.11322,0.99515,1.80169,0.00000,-2.32715,-2.32715,0.04668,-0.23052,1.77698,-0.42597,-0.42625,-2.85840,-2.85840,A,160258.90
1.81778,57.68789884,11.97919489,57.68789717,11.97918733,16:02:58.995203,0.00520,0.00000,0.00000,-0.12897,0.00000,0.00010,0.00136,-0.00090,-0.03971,-0.11224,0.99247,1.81208,0.00000,-2.40684,-2.40684,0.02305,-0.24030,1.77698,-0.42597,-0.42625,-2.85840,-2.85840,A,160258.90
1.82876,57.68789876,11.97919451,57.68789717,11.97918733,16:02:59.006210,0.00580,0.00000,0.00000,-0.12922,0.00000,0.00147,-0.00109,0.00124,-0.04081,-0.11499,0.99241,1.82313,0.00000,-2.47457,-2.47457,0.00060,-0.24960,1.77698,-0.42597,-0.42625,-2.85840,-2.85840,A,160258.90
1.83849,57.68789868,11.97919415,57.68789717,11.97918733,16:02:59.015922,0.00513,0.00000,0.00000,-0.12948,0.00000,-0.00204,-0.00124,-0.00151,-0.04124,-0.11376,0.99076,1.83284,0.00000,-2.53215,-2.53215,-0.02073,-0.25843,1.77698,-0.42597,-0.42625,-2.85840,-2.85840,A,160258.90
1.84918,57.68789860,11.97919381,57.68789717,11.97918733,16:02:59.026611,0.00542,0.00000,0.00000,-0.12973,0.00000,0.00193,-0.00277,0.00017,-0.03977,-0.11572,0.99198,1.84348,0.00000,-2.58109,-2.58109,-0.04099,-0.26682,1.77698,-0.42597,-0.42625,-2.85840,-2.85840,A,160258.90
1.85979,57.68789853,11.97919349,57.68789717,11.97918733,16:02:59.037236,0.00564,0.00000,0.00000,-0.13003,0.00000,-0.00296,0.00014,-0.00319,-0.03892,-0.11602,0.99174,1.85393,0.00000,-2.62268,-2.62268,-0.06024,-0.27479,1.77698,-0.42597,-0.42625,-2.85840,-2.85840,A,160258.90
1.87067,57.68789846,11.97919318,57.68789717,11.97918733,16:02:59.048111,0.00598,0.00000,0.00000,-0.13028,0.00000,-0.00113,-0.00078,-0.00090,-0.03995,-0.11486,0.99216,1.86419,0.00000,-2.65804,-2.65804,-0.07853,-0.28237,1.77698,-0.42597,-0.42625,-2.85840,-2.85840,A,160258.90
1.89674,57.68789840,11.97919289,57.68789667,11.97918267,16:02:59.074179,0.02165,0.00000,0.00000,-0.13052,0.00000,0.00193,0.00105,-0.00350,-0.03941,-0.11614,0.99168,1.87480,0.00000,-2.68809,-2.68809,-0.09590,-0.28956,1.89214,-0.70334,-0.48184,-2.94377,-2.94377,A,160259.00
1.91158,57.68789831,11.97919238,57.68789667,11.97918267,16:02:59.089038,0.00735,0.00000,0.00000,-0.13071,0.00000,0.00101,-0.00017,0.00078,-0.03788,-0.11358,0.99235,1.90519,0.00000,-2.72645,-2.72645,-0.12627,-0.29918,1.89214,-0.70334,-0.48184,-2.94377,-2.94377,A,160259.00
1.91980,57.68789823,11.97919189,57.68789667,11.97918267,16:02:59.097234,0.00517,0.00000,0.00000,-0.13090,0.00000,0.00391,-0.00139,0.00246,-0.03965,-0.11438,0.99363,1.91441,0.00000,-2.75905,-2.75905,-0.15512,-0.30831,1.89214,-0.70334,-0.48184,-2.94377,-2.94377,A,160259.00
1.93018,57.68789815,11.97919143,57.68789667,11.97918267,16:02:59.107614,0.00531,0.00000,0.00000,-0.13111,0.00000,0.00178,-0.00139,0.00170,-0.03812,-0.11456,0.99302,1.92448,0.00000,-2.78675,-2.78675,-0.18254,-0.31699,1.89214,-0.70334,-0.48184,-2.94377,-2.94377,A,160259.00
1.94060,57.68789808,11.97919099,57.68789667,11.97918267,16:02:59.118050,0.00533,0.00000,0.00000,-0.13135,0.00000,-0.00067,0.00014,-0.00090,-0.04111,-0.11523,0.99338,1.93499,0.00000,-2.81031,-2.81031,-0.20858,-0.32523,1.89214,-0.70334,-0.48184,-2.94377,-2.94377,A,160259.00
1.95076,57.68789800,11.97919057,57.68789667,11.97918267,16:02:59.128202,0.00510,0.00000,0.00000,-0.13160,0.00000,-0.00357,-0.00017,0.00139,-0.04081,-0.11401,0.99131,1.94516,0.00000,-2.83033,-2.83033,-0.23331,-0.33306,1.89214,-0.70334,-0.48184,-2.94377,-2.94377,A,160259.00
1.96200,57.68789794,11.97919018,57.68789667,11.97918267,16:02:59.139448,0.00594,0.00000,0.00000,-0.13184,0.00000,-0.00219,-0.00002,-0.00044,-0.03727,-0.11444,0.99009,1.95575,0.00000,-2.84734,-2.84734,-0.25681,-0.34050,1.89214,-0.70334,-0.48184,-2.94377,-2.94377,A,160259.00
1.97150,57.68789787,11.97918980,57.68789667,11.97918267,16:02:59.148935,0.00518,0.00000,0.00000,-0.13208,0.00000,-0.00051,0.00181,-0.00166,-0.03880,-0.11547,0.99192,1.96610,0.00000,-2.86181,-2.86181,-0.27914,-0.34757,1.89214,-0.70334,-0.48184,-2.94377,-2.94377,A,160259.00
1.98290,57.68789781,11.97918945,57.68789667,11.97918267,16:02:59.160337,0.00618,0.00000,0.00000,-0.13226,0.00000,0.00101,0.00151,-0.00426,-0.03727,-0.11370,0.99223,1.97648,0.00000,-2.87410,-2.87410,-0.30035,-0.35428,1.89214,-0.70334,-0.48184,-2.94377,-2.94377,A,160259.00
1.99220,57.68789776,11.97918911,57.68789667,11.97918267,16:02:59.169883,0.00508,0.00000,0.00000,-0.13246,0.00000,0.00254,-0.00063,-0.00105,-0.04063,-0.11553,0.99174,1.98683,0.00000,-2.88455,-2.88455,-0.32050,-0.36066,1.89214,-0.70334,-0.48184,-2.94377,-2.94377,A,160259.00
2.01740,57.68789770,11.97918879,57.68789583,11.97917767,16:02:59.194832,0.01988,0.00000,0.00000,-0.13269,0.00000,-0.00204,-0.00002,-0.00319,-0.04002,-0.11523,0.99442,1.99699,0.00000,-2.89344,-2.89344,-0.33964,-0.36672,2.01308,-1.00053,-0.57451,-2.83935,-2.83935,A,160259.10
2.03873,57.68789761,11.97918823,57.68789583,11.97917767,16:02:59.216812,0.01192,0.00000,0.00000,-0.13293,0.00000,-0.00143,-0.00200,-0.00060,-0.04191,-0.11431,0.99247,2.02784,0.00000,-2.62036,-2.62036,-1.00053,-0.57451,2.01308,-1.00053,-0.57451,-2.83935,-2.83935,A,160259.10
2.05427,57.68789583,11.97917767,57.68789583,11.97917767,16:02:59.231693,0.00741,0.00000,0.00000,-0.13309,0.00000,0.00208,-0.00307,-0.00044,-0.04032,-0.11438,0.99155,2.04861,0.00000,-2.65320,-2.65320,-1.00053,-0.57451,2.01308,-1.00053,-0.57451,-2.83935,-2.83935,A,160259.10
2.06331,57.68789583,11.97917767,57.68789583,11.97917767,16:02:59.240749,0.00606,0.00000,0.00000,-0.13328,0.00000,0.00193,-0.00032,-0.00121,-0.03703,-0.11590,0.99345,2.05674,0.00000,-2.68113,-2.68113,-1.00053,-0.57451,2.01308,-1.00053,-0.57451,-2.83935,-2.83935,A,160259.10
2.07397,57.68789583,11.97917767,57.68789583,11.97917767,16:02:59.251413,0.00604,0.00000,0.00000,-0.13352,0.00000,-0.00342,0.00151,0.00124,-0.03849,-0.11505,0.99101,2.06767,0.00000,-2.70486,-2.70486,-1.00053,-0.57451,2.01308,-1.00053,-0.57451,-2.83935,-2.83935,A,160259.10
2.08373,57.68789583,11.97917767,57.68789583,11.97917767,16:02:59.261158,0.00540,0.00000,0.00000,-0.13370,0.00000,0.00193,-0.00338,-0.00014,-0.03983,-0.11523,0.99399,2.07834,0.00000,-2.72503,-2.72503,-1.00053,-0.57451,2.01308,-1.00053,-0.57451,-2.83935,-2.83935,A,160259.10
2.09393,57.68789583,11.97917767,57.68789583,11.97917767,16:02:59.271366,0.00521,0.00000,0.00000,-0.13388,0.00000,0.00284,0.00075,0.00108,-0.03995,-0.11633,0.99143,2.08823,0.00000,-2.74218,-2.74218,-1.00053,-0.57451,2.01308,-1.00053,-0.57451,-2.83935,-2.83935,A,160259.10
2.10420,57.68789583,11.97917767,57.68789583,11.97917767,16:02:59.281879,0.00508,0.00000,0.00000,-0.13403,0.00000,0.00254,-0.00109,-0.00212,-0.04069,-0.11431,0.99448,2.09883,0.00000,-2.75675,-2.75675,-1.00053,-0.57451,2.01308,-1.00053,-0.57451,-2.83935,-2.83935,A,160259.10
2.13261,57.68789583,11.97917767,57.68789633,11.97917200,16:02:59.310077,0.02310,0.00000,0.00000,-0.13420,0.00000,0.00147,-0.00109,0.00017,-0.03953,-0.11505,0.99308,2.10901,0.00000,-2.76914,-2.76914,-1.00053,-0.57451,2.12661,-1.33734,-0.51891,-3.30519,2.97800,A,160259.20
2.14693,57.68789586,11.97917738,57.68789633,11.97917200,16:02:59.324360,0.00569,0.00000,0.00000,-0.13425,0.00000,0.00422,0.00059,0.00093,-0.04020,-0.11450,0.99162,2.14148,0.00000,-2.84955,-2.84955,-1.01737,-0.57173,2.12661,-1.33734,-0.51891,-3.30519,2.97800,A,160259.20
2.15705,57.68789588,11.97917711,57.68789633,11.97917200,16:02:59.334482,0.00541,0.00000,0.00000,-0.13443,0.00000,-0.00006,0.00059,0.00170,-0.03898,-0.11535,0.99442,2.15137,0.00000,-2.91790,-2.91790,-1.03337,-0.56909,2.12661,-1.33734,-0.51891,-3.30519,2.97800,A,160259.20
2.16809,57.68789590,11.97917686,57.68789633,11.97917200,16:02:59.345730,0.00606,0.00000,0.00000,-0.13458,0.00000,0.00315,-0.00353,0.00185,-0.03989,-0.11511,0.99351,2.16173,0.00000,-2.97599,-2.97599,-1.04856,-0.56658,2.12661,-1.33734,-0.51891,-3.30519,2.97800,A,160259.20
2.17835,57.68789593,11.97917662,57.68789633,11.97917200,16:02:59.355783,0.00576,0.00000,0.00000,-0.13473,0.00000,0.00055,-0.00032,0.00047,-0.03910,-0.11279,0.99137,2.17211,0.00000,-3.02537,-3.02537,-1.06300,-0.56419,2.12661,-1.33734,-0.51891,-3.30519,2.97800,A,160259.20
2.18950,57.68789595,11.97917638,57.68789633,11.97917200,16:02:59.366935,0.00641,0.00000,0.00000,-0.13485,0.00000,0.00300,0.00075,-0.00014,-0.03788,-0.11315,0.99094,2.18279,0.00000,-3.06734,-3.06734,-1.07672,-0.56193,2.12661,-1.33734,-0.51891,-3.30519,2.97800,A,160259.20
2.19859,57.68789597,11.97917617,57.68789633,11.97917200,16:02:59.376013,0.00511,0.00000,0.00000,-0.13501,0.00000,0.00132,-0.00139,-0.00166,-0.04044,-0.11486,0.99284,2.19296,0.00000,-3.10302,-3.10302,-1.08975,-0.55978,2.12661,-1.33734,-0.51891,-3.30519,2.97800,A,160259.20
2.20971,57.68789598,11.97917596,57.68789633,11.97917200,16:02:59.387142,0.00560,0.00000,0.00000,-0.13519,0.00000,-0.00082,0.00044,0.00154,-0.03873,-0.11505,0.99198,2.20398,0.00000,-3.13334,-3.13334,-1.10213,-0.55774,2.12661,-1.33734,-0.51891,-3.30519,2.97800,A,160259.20
2.21945,57.68789600,11.97917576,57.68789633,11.97917200,16:02:59.396883,0.00494,0.00000,0.00000,-0.13535,0.00000,0.00132,0.00166,-0.00029,-0.03751,-0.11535,0.99308,2.21408,0.00000,-3.15912,-3.15912,-1.11389,-0.55579,2.12661,-1.33734,-0.51891,-3.30519,2.97800,A,160259.20
2.24706,57.68789602,11.97917557,57.68789667,11.97916783,16:02:59.425102,0.02227,0.00000,0.00000,-0.13550,0.00000,0.00162,-0.00261,-0.00090,-0.03819,-0.11535,0.99259,2.22432,0.00000,-3.18103,-3.18103,-1.12506,-0.55395,2.24150,-1.58499,-0.48184,-3.29015,2.99303,A,160259.30
2.26058,57.68789605,11.97917518,57.68789667,11.97916783,16:02:59.438021,0.00683,0.00000,0.00000,-0.13566,0.00000,-0.00082,-0.00292,0.00047,-0.03971,-0.11279,0.99332,2.25465,0.00000,-3.19740,-3.19740,-1.14806,-0.55034,2.24150,-1.58499,-0.48184,-3.29015,2.99303,A,160259.30
2.27124,57.68789608,11.97917482,57.68789667,11.97916783,16:02:59.449007,0.00709,0.00000,0.00000,-0.13588,0.00000,-0.00525,0.00029,0.00246,-0.04032,-0.11572,0.99375,2.26457,0.00000,-3.21131,-3.21131,-1.16991,-0.54692,2.24150,-1.58499,-0.48184,-3.29015,2.99303,A,160259.30
2.27995,57.68789611,11.97917447,57.68789667,11.97916783,16:02:59.457395,0.00540,0.00000,0.00000,-0.13600,0.00000,0.00116,-0.00216,0.00002,-0.03764,-0.11315,0.99192,2.27425,0.00000,-3.22314,-3.22314,-1.19066,-0.54367,2.24150,-1.58499,-0.48184,-3.29015,2.99303,A,160259.30
2.29059,57.68789614,11.97917414,57.68789667,11.97916783,16:02:59.468013,0.00580,0.00000,0.00000,-0.13615,0.00000,0.00086,-0.00200,0.00139,-0.03880,-0.11492,0.99265,2.28463,0.00000,-3.23319,-3.23319,-1.21038,-0.54057,2.24150,-1.58499,-0.48184,-3.29015,2.99303,A,160259.30
2.30050,57.68789616,11.97917382,57.68789667,11.97916783,16:02:59.477953,0.00530,0.00000,0.00000,-0.13630,0.00000,0.00116,0.00212,0.00200,-0.03898,-0.11511,0.99332,2.29489,0.00000,-3.24174,-3.24174,-1.22911,-0.53764,2.24150,-1.58499,-0.48184,-3.29015,2.99303,A,160259.30
2.31070,57.68789619,11.97917352,57.68789667,11.97916783,16:02:59.488137,0.00512,0.00000,0.00000,-0.13641,0.00000,0.00147,0.00044,-0.00319,-0.04111,-0.11370,0.99290,2.30508,0.00000,-3.24900,-3.24900,-1.24690,-0.53485,2.24150,-1.58499,-0.48184,-3.29015,2.99303,A,160259.30
2.32137,57.68789621,11.97917324,57.68789667,11.97916783,16:02:59.498806,0.00540,0.00000,0.00000,-0.13658,0.00000,-0.00250,-0.00093,-0.00044,-0.03928,-0.11401,0.99155,2.31568,0.00000,-3.25517,-3.25517,-1.26381,-0.53220,2.24150,-1.58499,-0.48184,-3.29015,2.99303,A,160259.30
2.33146,57.68789624,11.97917297,57.68789667,11.97916783,16:02:59.508889,0.00502,0.00000,0.00000,-0.13674,0.00000,0.00086,0.00090,-0.00075,-0.04087,-0.11602,0.99137,2.32608,0.00000,-3.26042,-3.26042,-1.27987,-0.52968,2.24150,-1.58499,-0.48184,-3.29015,2.99303,A,160259.30
2.35867,57.68789626,11.97917271,57.68789667,11.97916717,16:02:59.536105,0.02193,0.00000,0.00000,-0.13691,0.00000,-0.00189,0.00029,0.00002,-0.03691,-0.11529,0.99052,2.33626,0.00000,-3.26488,-3.26488,-1.29512,-0.52729,2.35316,-1.62462,-0.48184,-3.14159,3.14159,A,160259.40
2.37570,57.68789628,11.97917243,57.68789667,11.97916717,16:02:59.553128,0.00723,0.00000,0.00000,-0.13700,0.00000,0.00132,-0.00093,0.00093,-0.03715,-0.11425,0.99186,2.36920,0.00000,-3.24639,-3.24639,-1.31160,-0.52502,2.35316,-1.62462,-0.48184,-3.14159,3.14159,A,160259.40
2.38504,57.68789630,11.97917217,57.68789667,11.97916717,16:02:59.562475,0.00601,0.00000,0.00000,-0.13717,0.00000,-0.00281,0.00014,0.00093,-0.04032,-0.11517,0.99284,2.37934,0.00000,-3.23067,-3.23067,-1.32725,-0.52286,2.35316,-1.62462,-0.48184,-3.14159,3.14159,A,160259.40
2.39456,57.68789632,11.97917192,57.68789667,11.97916717,16:02:59.571991,0.00513,0.00000,0.00000,-0.13732,0.00000,-0.00128,-0.00231,-0.00044,-0.04050,-0.11456,0.99082,2.38891,0.00000,-3.21731,-3.21731,-1.34212,-0.52081,2.35316,-1.62462,-0.48184,-3.14159,3.14159,A,160259.40
2.40531,57.68789633,11.97917168,57.68789667,11.97916717,16:02:59.582744,0.00543,0.00000,0.00000,-0.13741,0.00000,0.00239,0.00212,0.00322,-0.04203,-0.11328,0.99326,2.39962,0.00000,-3.20595,-3.20595,-1.35624,-0.51886,2.35316,-1.62462,-0.48184,-3.14159,3.14159,A,160259.40
2.41550,57.68789635,11.97917146,57.68789667,11.97916717,16:02:59.592933,0.00522,0.00000,0.00000,-0.13754,0.00000,-0.00128,0.00044,-0.00258,-0.04002,-0.11401,0.99192,2.41011,0.00000,-3.19630,-3.19630,-1.36966,-0.51701,2.35316,-1.62462,-0.48184,-3.14159,3.14159,A,160259.40
2.42594,57.68789637,11.97917124,57.68789667,11.97916717,16:02:59.603371,0.00522,0.00000,0.00000,-0.13768,0.00000,0.00101,0.00136,-0.00212,-0.03977,-0.11614,0.99247,2.42024,0.00000,-3.18809,-3.18809,-1.38241,-0.51525,2.35316,-1.62462,-0.48184,-3.14159,3.14159,A,160259.40
2.43792,57.68789638,11.97917104,57.68789667,11.97916717,16:02:59.615353,0.00680,0.00000,0.00000,-0.13781,0.00000,0.00223,-0.00216,-0.00060,-0.03898,-0.11621,0.99247,2.43193,0.00000,-3.18112,-3.18112,-1.39452,-0.51358,2.35316,-1.62462,-0.48184,-3.14159,3.14159,A,160259.40
2.44664,57.68789640,11.97917084,57.68789667,11.97916717,16:02:59.624070,0.00512,0.00000,0.00000,-0.13799,0.00000,-0.00357,-0.00078,0.00200,-0.04111,-0.11596,0.99198,2.44100,0.00000,-3.17519,-3.17519,-1.40602,-0.51199,2.35316,-1.62462,-0.48184,-3.14159,3.14159,A,160259.40
2.48487,57.68789641,11.97917066,57.68789550,11.97916650,16:02:59.662311,0.03296,0.00000,0.00000,-0.13812,0.00000,0.00040,-0.00246,0.00093,-0.04050,-0.11541,0.99241,2.45161,0.00000,-3.17015,-3.17015,-1.41695,-0.51049,2.47985,-1.66424,-0.61157,-1.86724,-1.86724,A,160259.60
2.49823,57.68789636,11.97917045,57.68789550,11.97916650,16:02:59.675666,0.00751,0.00000,0.00000,-0.13969,0.00000,-0.03671,-0.00185,0.00047,-0.03934,-0.11566,0.99290,2.49171,0.00000,-2.97471,-2.97471,-1.42932,-0.51554,2.47985,-1.66424,-0.61157,-1.86724,-1.86724,A,160259.60
2.50743,57.68789632,11.97917025,57.68789550,11.97916650,16:02:59.684881,0.00649,0.00000,0.00000,-0.13977,0.00000,0.00223,-0.00063,0.00032,-0.03886,-0.11480,0.99113,2.50079,0.00000,-2.80859,-2.80859,-1.44106,-0.52034,2.47985,-1.66424,-0.61157,-1.86724,-1.86724,A,160259.60
2.51669,57.68789628,11.97917007,57.68789550,11.97916650,16:02:59.694142,0.00535,0.00000,0.00000,-0.13988,0.00000,0.00132,-0.00246,-0.00136,-0.04288,-0.11627,0.99107,2.51106,0.00000,-2.66739,-2.66739,-1.45222,-0.52490,2.47985,-1.66424,-0.61157,-1.86724,-1.86724,A,160259.60
2.52687,57.68789624,11.97916989,57.68789550,11.97916650,16:02:59.704301,0.00528,0.00000,0.00000,-0.14001,0.00000,-0.00082,0.00197,-0.00151,-0.04032,-0.11663,0.99076,2.52125,0.00000,-2.54737,-2.54737,-1.46282,-0.52924,2.47985,-1.66424,-0.61157,-1.86724,-1.86724,A,160259.60
2.53737,57.68789620,11.97916972,57.68789550,11.97916650,16:02:59.714803,0.00537,0.00000,0.00000,-0.14009,0.00000,0.00040,0.00136,0.00032,-0.03758,-0.11376,0.99149,2.53169,0.00000,-2.44535,-2.44535,-1.47289,-0.53335,2.47985,-1.66424,-0.61157,-1.86724,-1.86724,A,160259.60
2.54746,57.68789617,11.97916956,57.68789550,11.97916650,16:02:59.724886,0.00506,0.00000,0.00000,-0.14021,0.00000,-0.00189,0.00502,0.00078,-0.04069,-0.11517,0.99186,2.54209,0.00000,-2.35863,-2.35863,-1.48246,-0.53726,2.47985,-1.66424,-0.61157,-1.86724,-1.86724,A,160259.60
2.55792,57.68789613,11.97916941,57.68789550,11.97916650,16:02:59.735357,0.00519,0.00000,0.00000,-0.14034,0.00000,-0.00128,0.00151,-0.00029,-0.03977,-0.11688,0.99223,2.55225,0.00000,-2.28492,-2.28492,-1.49155,-0.54098,2.47985,-1.66424,-0.61157,-1.86724,-1.86724,A,160259.60
2.56864,57.68789610,11.97916926,57.68789550,11.97916650,16:02:59.746088,0.00552,0.00000,0.00000,-0.14042,0.00000,0.00162,0.00120,0.00108,-0.03764,-0.11474,0.99064,2.56286,0.00000,-2.22227,-2.22227,-1.50019,-0.54451,2.47985,-1.66424,-0.61157,-1.86724,-1.86724,A,160259.60
2.57979,57.68789607,11.97916912,57.68789550,11.97916650,16:02:59.757222,0.00627,0.00000,0.00000,-0.14050,0.00000,0.00040,0.00288,-0.00014,-0.03922,-0.11492,0.99265,2.57354,0.00000,-2.16902,-2.16902,-1.50839,-0.54786,2.47985,-1.66424,-0.61157,-1.86724,-1.86724,A,160259.60
2.60612,57.68789604,11.97916899,57.68789533,11.97916550,16:02:59.783559,0.02221,0.00000,0.00000,-0.14065,0.00000,-0.00357,-0.00353,0.00139,-0.03837,-0.11621,0.99357,2.58364,0.00000,-2.12375,-2.12375,-1.51618,-0.55105,2.60127,-1.72368,-0.63010,-2.83935,-2.83935,A,160259.70
2.62244,57.68789601,11.97916882,57.68789533,11.97916550,16:02:59.799865,0.00751,0.00000,0.00000,-0.14075,0.00000,0.00010,-0.00154,-0.00166,-0.04056,-0.11602,0.99235,2.61667,0.00000,-2.23109,-2.23109,-1.52656,-0.55500,2.60127,-1.72368,-0.63010,-2.83935,-2.83935,A,160259.70
2.63048,57.68789597,11.97916865,57.68789533,11.97916550,16:02:59.807915,0.00516,0.00000,0.00000,-0.14083,0.00000,0.00086,-0.00093,-0.00044,-0.04160,-0.11578,0.99454,2.62481,0.00000,-2.32233,-2.32233,-1.53641,-0.55876,2.60127,-1.72368,-0.63010,-2.83935,-2.83935,A,160259.70
2.64109,57.68789594,11.97916849,57.68789533,11.97916550,16:02:59.818524,0.00537,0.00000,0.00000,-0.14090,0.00000,0.00010,0.00197,-0.00044,-0.03837,-0.11425,0.99357,2.63544,0.00000,-2.39988,-2.39988,-1.54578,-0.56232,2.60127,-1.72368,-0.63010,-2.83935,-2.83935,A,160259.70
2.65122,57.68789591,11.97916834,57.68789533,11.97916550,16:02:59.828646,0.00511,0.00000,0.00000,-0.14093,0.00000,0.00483,0.00029,-0.00060,-0.04178,-0.11395,0.99009,2.64581,0.00000,-2.46580,-2.46580,-1.55467,-0.56571,2.60127,-1.72368,-0.63010,-2.83935,-2.83935,A,160259.70
2.66267,57.68789588,11.97916820,57.68789533,11.97916550,16:02:59.840103,0.00602,0.00000,0.00000,-0.14100,0.00000,0.00162,-0.00124,0.00002,-0.03934,-0.11566,0.99399,2.65616,0.00000,-2.52183,-2.52183,-1.56312,-0.56893,2.60127,-1.72368,-0.63010,-2.83935,-2.83935,A,160259.70
2.67202,57.68789586,11.97916807,57.68789533,11.97916550,16:02:59.849456,0.00514,0.00000,0.00000,-0.14112,0.00000,-0.00219,0.00044,-0.00029,-0.04093,-0.11584,0.99162,2.66663,0.00000,-2.56946,-2.56946,-1.57115,-0.57199,2.60127,-1.72368,-0.63010,-2.83935,-2.83935,A,160259.70
2.68255,57.68789583,11.97916794,57.68789533,11.97916550,16:02:59.859985,0.00544,0.00000,0.00000,-0.14117,0.00000,0.00239,0.00059,-0.00334,-0.04014,-0.11444,0.99479,2.67665,0.00000,-2.60994,-2.60994,-1.57878,-0.57490,2.60127,-1.72368,-0.63010,-2.83935,-2.83935,A,160259.70
2.69281,57.68789581,11.97916782,57.68789533,11.97916550,16:02:59.870252,0.00542,0.00000,0.00000,-0.14127,0.00000,-0.00189,-0.00139,-0.00121,-0.04075,-0.11523,0.99229,2.68717,0.00000,-2.64435,-2.64435,-1.58602,-0.57766,2.60127,-1.72368,-0.63010,-2.83935,-2.83935,A,160259.70
2.71869,57.68789578,11.97916770,57.68789517,11.97916533,16:02:59.896122,0.02090,0.00000,0.00000,-0.14136,0.00000,0.00071,-0.00246,0.00002,-0.03941,-0.11614,0.99052,2.69748,0.00000,-2.67360,-2.67360,-1.59290,-0.58028,2.71337,-1.73359,-0.64864,-2.06169,-2.06169,A,160259.80
2.73473,57.68789575,11.97916758,57.68789517,11.97916533,16:02:59.912159,0.00683,0.00000,0.00000,-0.14142,0.00000,0.00086,-0.00231,0.00154,-0.03886,-0.11578,0.99448,2.72908,0.00000,-2.58181,-2.58181,-1.59994,-0.58370,2.71337,-1.73359,-0.64864,-2.06169,-2.06169,A,160259.80
2.74502,57.68789572,11.97916747,57.68789517,11.97916533,16:02:59.922449,0.00672,0.00000,0.00000,-0.14147,0.00000,0.00162,0.00258,-0.00121,-0.04050,-0.11474,0.99479,2.73867,0.00000,-2.50380,-2.50380,-1.60662,-0.58694,2.71337,-1.73359,-0.64864,-2.06169,-2.06169,A,160259.80
2.75400,57.68789569,11.97916736,57.68789517,11.97916533,16:02:59.931431,0.00522,0.00000,0.00000,-0.14152,0.00000,0.00330,-0.00093,0.00399,-0.03764,-0.11499,0.99149,2.74831,0.00000,-2.43748,-2.43748,-1.61297,-0.59003,2.71337,-1.73359,-0.64864,-2.06169,-2.06169,A,160259.80
2.76465,57.68789567,11.97916726,57.68789517,11.97916533,16:02:59.942090,0.00536,0.00000,0.00000,-0.14155,0.00000,0.00346,-0.00002,-0.00197,-0.03922,-0.11444,0.99155,2.75902,0.00000,-2.38111,-2.38111,-1.61900,-0.59296,2.71337,-1.73359,-0.64864,-2.06169,-2.06169,A,160259.80
2.77478,57.68789564,11.97916716,57.68789517,11.97916533,16:02:59.952202,0.00509,0.00000,0.00000,-0.14159,0.00000,0.00101,0.00090,0.00078,-0.04124,-0.11389,0.99442,2.76918,0.00000,-2.33320,-2.33320,-1.62473,-0.59574,2.71337,-1.73359,-0.64864,-2.06169,-2.06169,A,160259.80
2.78741,57.68789562,11.97916707,57.68789517,11.97916533,16:02:59.964837,0.00732,0.00000,0.00000,-0.14163,0.00000,0.00284,0.00120,-0.00060,-0.04337,-0.11431,0.99210,2.78104,0.00000,-2.29247,-2.29247,-1.63017,-0.59839,2.71337,-1.73359,-0.64864,-2.06169,-2.06169,A,160259.80
2.79622,57.68789560,11.97916699,57.68789517,11.97916533,16:02:59.973901,0.00518,0.00000,0.00000,-0.14174,0.00000,-0.00219,0.00197,-0.00060,-0.03916,-0.11608,0.99137,2.79083,0.00000,-2.25785,-2.25785,-1.63534,-0.60090,2.71337,-1.73359,-0.64864,-2.06169,-2.06169,A,160259.80
2.80655,57.68789557,11.97916690,57.68789517,11.97916533,16:02:59.983977,0.00512,0.00000,0.00000,-0.14177,0.00000,0.00147,-0.00200,0.00032,-0.04172,-0.11364,0.99363,2.80092,0.00000,-2.22843,-2.22843,-1.64025,-0.60329,2.71337,-1.73359,-0.64864,-2.06169,-2.06169,A,160259.80
2.83390,57.68789555,11.97916683,57.68789450,11.97916750,16:03:00.011749,0.02196,0.00000,0.00000,-0.14179,0.00000,0.00239,0.00120,-0.00212,-0.03849,-0.11358,0.99363,2.81226,0.00000,-2.20342,-2.20342,-1.64492,-0.60555,2.82881,-1.60480,-0.72277,-0.52231,-0.52231,A,160259.90
2.85013,57.68789550,11.97916686,57.68789450,11.97916750,16:03:00.027564,0.00668,0.00000,0.00000,-0.14191,0.00000,-0.00097,-0.00017,0.00108,-0.03965,-0.11590,0.98918,2.84431,0.00000,-1.95125,-1.95125,-1.64291,-0.61142,2.82881,-1.60480,-0.72277,-0.52231,-0.52231,A,160259.90
2.85891,57.68789545,11.97916689,57.68789450,11.97916750,16:03:00.036337,0.00506,0.00000,0.00000,-0.14197,0.00000,-0.00051,0.00029,-0.00136,-0.03965,-0.11389,0.99454,2.85352,0.00000,-1.73691,-1.73691,-1.64101,-0.61698,2.82881,-1.60480,-0.72277,-0.52231,-0.52231,A,160259.90
2.86964,57.68789540,11.97916692,57.68789450,11.97916750,16:03:00.047234,0.00539,0.00000,0.00000,-0.14207,0.00000,-0.00342,-0.00139,0.00063,-0.03928,-0.11499,0.99241,2.86395,0.00000,-1.55472,-1.55472,-1.63920,-0.62227,2.82881,-1.60480,-0.72277,-0.52231,-0.52231,A,160259.90
2.87984,57.68789536,11.97916695,57.68789450,11.97916750,16:03:00.057269,0.00519,0.00000,0.00000,-0.14209,0.00000,0.00636,-0.00170,-0.00044,-0.03727,-0.11596,0.99235,2.87445,0.00000,-1.39986,-1.39986,-1.63748,-0.62730,2.82881,-1.60480,-0.72277,-0.52231,-0.52231,A,160259.90
2.89067,57.68789532,11.97916698,57.68789450,11.97916750,16:03:00.068102,0.00567,0.00000,0.00000,-0.14212,0.00000,0.00376,-0.00154,0.00032,-0.04063,-0.11535,0.99284,2.88506,0.00000,-1.26822,-1.26822,-1.63585,-0.63207,2.82881,-1.60480,-0.72277,-0.52231,-0.52231,A,160259.90
2.90076,57.68789527,11.97916700,57.68789450,11.97916750,16:03:00.078200,0.00537,0.00000,0.00000,-0.14220,0.00000,-0.00265,-0.00048,0.00170,-0.03831,-0.11395,0.99027,2.89514,0.00000,-1.15634,-1.15634,-1.63429,-0.63661,2.82881,-1.60480,-0.72277,-0.52231,-0.52231,A,160259.90
2.91087,57.68789524,11.97916703,57.68789450,11.97916750,16:03:00.088306,0.00507,0.00000,0.00000,-0.14229,0.00000,-0.00204,-0.00200,0.00124,-0.04069,-0.11505,0.99216,2.90548,0.00000,-1.06123,-1.06123,-1.63282,-0.64091,2.82881,-1.60480,-0.72277,-0.52231,-0.52231,A,160259.90
2.92157,57.68789520,11.97916705,57.68789450,11.97916750,16:03:00.099008,0.00538,0.00000,0.00000,-0.14238,0.00000,0.00071,-0.00032,-0.00212,-0.04099,-0.11712,0.99088,2.91589,0.00000,-0.98039,-0.98039,-1.63142,-0.64501,2.82881,-1.60480,-0.72277,-0.52231,-0.52231,A,160259.90
2.94803,57.68789516,11.97916707,57.68789417,11.97916867,16:03:00.125472,0.02144,0.00000,0.00000,-0.14243,0.00000,-0.00097,0.00334,-0.00014,-0.04002,-0.11364,0.99216,2.92629,0.00000,-0.91168,-0.91168,-1.63009,-0.64889,2.94239,-1.53546,-0.75983,-0.49088,-0.49088,A,160300.00
2.96387,57.68789511,11.97916715,57.68789417,11.97916867,16:03:00.141299,0.00717,0.00000,0.00000,-0.14254,0.00000,-0.00158,-0.00124,0.00047,-0.04063,-0.11505,0.99186,2.95756,0.00000,-0.84856,-0.84856,-1.62536,-0.65444,2.94239,-1.53546,-0.75983,-0.49088,-0.49088,A,160300.00
2.97209,57.68789507,11.97916723,57.68789417,11.97916867,16:03:00.149516,0.00514,0.00000,0.00000,-0.14257,0.00000,0.00132,-0.00261,0.00399,-0.03666,-0.11364,0.99216,2.96670,0.00000,-0.79491,-0.79491,-1.62086,-0.65971,2.94239,-1.53546,-0.75983,-0.49088,-0.49088,A,160300.00
2.98271,57.68789502,11.97916730,57.68789417,11.97916867,16:03:00.160147,0.00554,0.00000,0.00000,-0.14263,0.00000,0.00223,0.00059,-0.00182,-0.03886,-0.11657,0.99259,2.97676,0.00000,-0.74930,-0.74930,-1.61659,-0.66472,2.94239,-1.53546,-0.75983,-0.49088,-0.49088,A,160300.00
2.99328,57.68789498,11.97916737,57.68789417,11.97916867,16:03:00.170738,0.00571,0.00000,0.00000,-0.14267,0.00000,0.00193,0.00273,0.00231,-0.03819,-0.11517,0.99186,2.98731,0.00000,-0.71054,-0.71054,-1.61253,-0.66947,2.94239,-1.53546,-0.75983,-0.49088,-0.49088,A,160300.00
3.00307,57.68789494,11.97916743,57.68789417,11.97916867,16:03:00.180498,0.00510,0.00000,0.00000,-0.14276,0.00000,-0.00174,0.00059,-0.00090,-0.04099,-0.11590,0.99332,2.99767,0.00000,-0.67759,-0.67759,-1.60868,-0.67399,2.94239,-1.53546,-0.75983,-0.49088,-0.49088,A,160300.00
3.01373,57.68789490,11.97916750,57.68789417,11.97916867,16:03:00.191165,0.00520,0.00000,0.00000,-0.14280,0.00000,0.00147,-0.00093,-0.00105,-0.04160,-0.11505,0.99265,3.00805,0.00000,-0.64958,-0.64958,-1.60502,-0.67828,2.94239,-1.53546,-0.75983,-0.49088,-0.49088,A,160300.00
3.02403,57.68789486,11.97916755,57.68789417,11.97916867,16:03:00.201466,0.00510,0.00000,0.00000,-0.14287,0.00000,-0.00372,-0.00261,0.00063,-0.04038,-0.11340,0.99320,3.01865,0.00000,-0.62578,-0.62578,-1.60154,-0.68236,2.94239,-1.53546,-0.75983,-0.49088,-0.49088,A,160300.00
3.03439,57.68789483,11.97916761,57.68789417,11.97916867,16:03:00.211820,0.00522,0.00000,0.00000,-0.14295,0.00000,-0.00219,0.00029,0.00231,-0.03898,-0.11511,0.99277,3.02873,0.00000,-0.60554,-0.60554,-1.59824,-0.68623,2.94239,-1.53546,-0.75983,-0.49088,-0.49088,A,160300.00
3.06260,57.68789480,11.97916766,57.68789383,11.97917017,16:03:00.240045,0.02304,0.00000,0.00000,-0.14297,0.00000,0.00315,0.00258,0.00154,-0.03947,-0.11517,0.99290,3.03957,0.00000,-0.58834,-0.58834,-1.59510,-0.68991,3.05719,-1.44631,-0.79690,-0.39399,-0.39399,A,160300.10
3.07788,57.68789475,11.97916779,57.68789383,11.97917017,16:03:00.255317,0.00667,0.00000,0.00000,-0.14286,0.00000,0.00452,0.00151,-0.00121,-0.04093,-0.11370,0.99143,3.07215,0.00000,-0.55919,-0.55919,-1.58766,-0.69526,3.05719,-1.44631,-0.79690,-0.39399,-0.39399,A,160300.10
3.08778,57.68789470,11.97916791,57.68789383,11.97917017,16:03:00.265214,0.00617,0.00000,0.00000,-0.14290,0.00000,0.00025,-0.00032,-0.00090,-0.03843,-0.11438,0.99290,3.08237,0.00000,-0.53441,-0.53441,-1.58059,-0.70034,3.05719,-1.44631,-0.79690,-0.39399,-0.39399,A,160300.10
3.09844,57.68789466,11.97916802,57.68789383,11.97917017,16:03:00.275875,0.00643,0.00000,0.00000,-0.14293,0.00000,0.00178,0.00120,-0.00121,-0.03983,-0.11474,0.99277,3.09200,0.00000,-0.51335,-0.51335,-1.57388,-0.70517,3.05719,-1.44631,-0.79690,-0.39399,-0.39399,A,160300.10
3.10747,57.68789462,11.97916813,57.68789383,11.97917017,16:03:00.284900,0.00506,0.00000,0.00000,-0.14300,0.00000,-0.00342,0.00349,0.00078,-0.03788,-0.11370,0.99296,3.10208,0.00000,-0.49544,-0.49544,-1.56750,-0.70976,3.05719,-1.44631,-0.79690,-0.39399,-0.39399,A,160300.10
3.11792,57.68789458,11.97916823,57.68789383,11.97917017,16:03:00.295347,0.00518,0.00000,0.00000,-0.14304,0.00000,0.00071,0.00090,0.00139,-0.03928,-0.11480,0.99247,3.11226,0.00000,-0.48023,-0.48023,-1.56144,-0.71412,3.05719,-1.44631,-0.79690,-0.39399,-0.39399,A,160300.10
3.12822,57.68789454,11.97916833,57.68789383,11.97917017,16:03:00.305901,0.00508,0.00000,0.00000,-0.14306,0.00000,0.00437,-0.00170,-0.00075,-0.03971,-0.11596,0.99314,3.12285,0.00000,-0.46729,-0.46729,-1.55568,-0.71825,3.05719,-1.44631,-0.79690,-0.39399,-0.39399,A,160300.10
3.13921,57.68789451,11.97916842,57.68789383,11.97917017,16:03:00.316644,0.00568,0.00000,0.00000,-0.14306,0.00000,0.00346,0.00181,0.00078,-0.03721,-0.11334,0.98948,3.13378,0.00000,-0.45630,-0.45630,-1.55021,-0.72219,3.05719,-1.44631,-0.79690,-0.39399,-0.39399,A,160300.10
3.14942,57.68789447,11.97916851,57.68789383,11.97917017,16:03:00.326855,0.00549,0.00000,0.00000,-0.14311,0.00000,-0.00006,0.00075,-0.00044,-0.03983,-0.11529,0.99149,3.14365,0.00000,-0.44695,-0.44695,-1.54502,-0.72592,3.05719,-1.44631,-0.79690,-0.39399,-0.39399,A,160300.10
3.18639,57.68789444,11.97916859,57.68789333,11.97917133,16:03:00.363830,0.03206,0.00000,0.00000,-0.14317,0.00000,-0.00082,-0.00139,-0.00075,-0.04093,-0.11462,0.99216,3.15403,0.00000,-0.43901,-0.43901,-1.54008,-0.72947,3.18001,-1.37696,-0.85249,-0.67582,-0.67582,A,160300.30
3.20285,57.68789438,11.97916873,57.68789333,11.97917133,16:03:00.380279,0.00728,0.00000,0.00000,-0.14321,0.00000,-0.00036,0.00014,0.00170,-0.04050,-0.11297,0.99143,3.19667,0.00000,-0.47453,-0.47453,-1.53193,-0.73562,3.18001,-1.37696,-0.85249,-0.67582,-0.67582,A,160300.30
3.21184,57.68789433,11.97916886,57.68789333,11.97917133,16:03:00.389287,0.00589,0.00000,0.00000,-0.14329,0.00000,-0.00372,-0.00078,0.00002,-0.03971,-0.11492,0.99247,3.20567,0.00000,-0.50472,-0.50472,-1.52418,-0.74147,3.18001,-1.37696,-0.85249,-0.67582,-0.67582,A,160300.30
3.22174,57.68789428,11.97916898,57.68789333,11.97917133,16:03:00.399175,0.00521,0.00000,0.00000,-0.14337,0.00000,-0.00082,-0.00078,0.00124,-0.03837,-0.11645,0.99253,3.21604,0.00000,-0.53039,-0.53039,-1.51682,-0.74702,3.18001,-1.37696,-0.85249,-0.67582,-0.67582,A,160300.30
3.23202,57.68789423,11.97916910,57.68789333,11.97917133,16:03:00.409451,0.00510,0.00000,0.00000,-0.14339,0.00000,0.00239,-0.00093,0.00017,-0.03855,-0.11553,0.99326,3.22663,0.00000,-0.55220,-0.55220,-1.50982,-0.75229,3.18001,-1.37696,-0.85249,-0.67582,-0.67582,A,160300.30
3.24246,57.68789419,11.97916921,57.68789333,11.97917133,16:03:00.419892,0.00515,0.00000,0.00000,-0.14344,0.00000,0.00223,-0.00093,-0.00258,-0.04258,-0.11651,0.99162,3.23680,0.00000,-0.57075,-0.57075,-1.50318,-0.75730,3.18001,-1.37696,-0.85249,-0.67582,-0.67582,A,160300.30
3.25349,57.68789415,11.97916932,57.68789333,11.97917133,16:03:00.430926,0.00577,0.00000,0.00000,-0.14350,0.00000,-0.00097,0.00059,0.00002,-0.04014,-0.11547,0.99387,3.24779,0.00000,-0.58651,-0.58651,-1.49687,-0.76206,3.18001,-1.37696,-0.85249,-0.67582,-0.67582,A,160300.30
3.26343,57.68789411,11.97916942,57.68789333,11.97917133,16:03:00.440863,0.00532,0.00000,0.00000,-0.14353,0.00000,0.00147,-0.00093,0.00261,-0.03867,-0.11499,0.99216,3.25801,0.00000,-0.59990,-0.59990,-1.49088,-0.76658,3.18001,-1.37696,-0.85249,-0.67582,-0.67582,A,160300.30
3.27386,57.68789407,11.97916951,57.68789333,11.97917133,16:03:00.451293,0.00520,0.00000,0.00000,-0.14362,0.00000,-0.00311,-0.00032,0.00322,-0.03989,-0.11547,0.99253,3.26818,0.00000,-0.61129,-0.61129,-1.48518,-0.77088,3.18001,-1.37696,-0.85249,-0.67582,-0.67582,A,160300.30
3.30118,57.68789403,11.97916960,57.68789283,11.97917050,16:03:00.478849,0.02213,0.00000,0.00000,-0.14366,0.00000,-0.00067,-0.00032,0.00154,-0.03819,-0.11450,0.99149,3.27959,0.00000,-0.62097,-0.62097,-1.47977,-0.77496,3.29581,-1.42649,-0.90809,-2.29855,-2.29855,A,160300.40
3.31411,57.68789397,11.97916965,57.68789283,11.97917050,16:03:00.491543,0.00708,0.00000,0.00000,-0.14366,0.00000,0.00147,0.00029,0.00139,-0.03904,-0.11444,0.99143,3.30800,0.00000,-0.87261,-0.87261,-1.47710,-0.78162,3.29581,-1.42649,-0.90809,-2.29855,-2.29855,A,160300.40
3.32330,57.68789391,11.97916969,57.68789283,11.97917050,16:03:00.500729,0.00587,0.00000,0.00000,-0.14373,0.00000,-0.00143,-0.00185,-0.00014,-0.03916,-0.11645,0.99271,3.31789,0.00000,-1.08650,-1.08650,-1.47457,-0.78794,3.29581,-1.42649,-0.90809,-2.29855,-2.29855,A,160300.40
3.33323,57.68789386,11.97916973,57.68789283,11.97917050,16:03:00.510660,0.00541,0.00000,0.00000,-0.14375,0.00000,0.00269,-0.00048,0.00078,-0.03788,-0.11492,0.99101,3.32754,0.00000,-1.26831,-1.26831,-1.47217,-0.79395,3.29581,-1.42649,-0.90809,-2.29855,-2.29855,A,160300.40
3.34330,57.68789381,11.97916977,57.68789283,11.97917050,16:03:00.520722,0.00507,0.00000,0.00000,-0.14377,0.00000,0.00208,-0.00032,0.00124,-0.03892,-0.11486,0.99253,3.33792,0.00000,-1.42284,-1.42284,-1.46989,-0.79965,3.29581,-1.42649,-0.90809,-2.29855,-2.29855,A,160300.40
3.35407,57.68789376,11.97916981,57.68789283,11.97917050,16:03:00.531503,0.00535,0.00000,0.00000,-0.14387,0.00000,-0.00265,-0.00261,-0.00166,-0.04069,-0.11706,0.99168,3.34824,0.00000,-1.55420,-1.55420,-1.46772,-0.80508,3.29581,-1.42649,-0.90809,-2.29855,-2.29855,A,160300.40
3.36413,57.68789371,11.97916984,57.68789283,11.97917050,16:03:00.541820,0.00514,0.00000,0.00000,-0.14390,0.00000,-0.00097,0.00044,0.00231,-0.04081,-0.11358,0.99338,3.35875,0.00000,-1.66585,-1.66585,-1.46566,-0.81023,3.29581,-1.42649,-0.90809,-2.29855,-2.29855,A,160300.40
3.37504,57.68789367,11.97916987,57.68789283,11.97917050,16:03:00.552475,0.00566,0.00000,0.00000,-0.14395,0.00000,0.00025,0.00014,-0.00121,-0.03861,-0.11596,0.99259,3.36919,0.00000,-1.76076,-1.76076,-1.46370,-0.81512,3.29581,-1.42649,-0.90809,-2.29855,-2.29855,A,160300.40
3.38542,57.68789363,11.97916991,57.68789283,11.97917050,16:03:00.562856,0.00564,0.00000,0.00000,-0.14396,0.00000,0.00346,-0.00032,-0.00121,-0.04124,-0.11584,0.99192,3.37951,0.00000,-1.84143,-1.84143,-1.46184,-0.81977,3.29581,-1.42649,-0.90809,-2.29855,-2.29855,A,160300.40
3.39562,57.68789359,11.97916994,57.68789283,11.97917050,16:03:00.573073,0.00544,0.00000,0.00000,-0.14399,0.00000,0.00254,0.00014,0.00108,-0.03691,-0.11584,0.98966,3.38988,0.00000,-1.91000,-1.91000,-1.46007,-0.82418,3.29581,-1.42649,-0.90809,-2.29855,-2.29855,A,160300.40
3.42194,57.68789355,11.97916996,57.68789283,11.97916983,16:03:00.599766,0.02122,0.00000,0.00000,-0.14400,0.00000,0.00025,0.00105,-0.00136,-0.04111,-0.11291,0.99210,3.40024,0.00000,-1.96828,-1.96828,-1.45839,-0.82838,3.41701,-1.46612,-0.90809,-3.14159,3.14159,A,160300.50
3.43846,57.68789351,11.97916996,57.68789283,11.97916983,16:03:00.615889,0.00715,0.00000,0.00000,-0.14407,0.00000,-0.00158,0.00517,0.00108,-0.04014,-0.11383,0.99399,3.43278,0.00000,-2.14428,-2.14428,-1.45878,-0.83237,3.41701,-1.46612,-0.90809,-3.14159,3.14159,A,160300.50
3.44734,57.68789348,11.97916995,57.68789283,11.97916983,16:03:00.624771,0.00563,0.00000,0.00000,-0.14407,0.00000,0.00147,-0.00017,-0.00136,-0.04008,-0.11376,0.99204,3.44194,0.00000,-2.29387,-2.29387,-1.45914,-0.83615,3.41701,-1.46612,-0.90809,-3.14159,3.14159,A,160300.50
3.45746,57.68789345,11.97916994,57.68789283,11.97916983,16:03:00.634889,0.00535,0.00000,0.00000,-0.14410,0.00000,0.00025,-0.00048,0.00231,-0.03831,-0.11462,0.99168,3.45180,0.00000,-2.42103,-2.42103,-1.45949,-0.83975,3.41701,-1.46612,-0.90809,-3.14159,3.14159,A,160300.50
3.46767,57.68789342,11.97916994,57.68789283,11.97916983,16:03:00.645104,0.00517,0.00000,0.00000,-0.14416,0.00000,-0.00082,0.00120,-0.00044,-0.03794,-0.11578,0.99113,3.46208,0.00000,-2.52912,-2.52912,-1.45982,-0.84317,3.41701,-1.46612,-0.90809,-3.14159,3.14159,A,160300.50
3.47812,57.68789339,11.97916993,57.68789283,11.97916983,16:03:00.655554,0.00537,0.00000,0.00000,-0.14415,0.00000,0.00452,-0.00048,0.00032,-0.03886,-0.11480,0.99040,3.47228,0.00000,-2.62099,-2.62099,-1.46014,-0.84641,3.41701,-1.46612,-0.90809,-3.14159,3.14159,A,160300.50
3.48864,57.68789336,11.97916993,57.68789283,11.97916983,16:03:00.666081,0.00554,0.00000,0.00000,-0.14426,0.00000,-0.00418,-0.00185,-0.00121,-0.03959,-0.11651,0.99033,3.48297,0.00000,-2.69908,-2.69908,-1.46044,-0.84950,3.41701,-1.46612,-0.90809,-3.14159,3.14159,A,160300.50
3.49942,57.68789333,11.97916992,57.68789283,11.97916983,16:03:00.676862,0.00592,0.00000,0.00000,-0.14436,0.00000,-0.00540,0.00105,-0.00197,-0.03806,-0.11590,0.99204,3.49301,0.00000,-2.76546,-2.76546,-1.46072,-0.85243,3.41701,-1.46612,-0.90809,-3.14159,3.14159,A,160300.50
3.50931,57.68789331,11.97916992,57.68789283,11.97916983,16:03:00.686748,0.00541,0.00000,0.00000,-0.14442,0.00000,-0.00219,-0.00185,0.00185,-0.03995,-0.11529,0.99247,3.50361,0.00000,-2.82188,-2.82188,-1.46099,-0.85521,3.41701,-1.46612,-0.90809,-3.14159,3.14159,A,160300.50
3.53534,57.68789329,11.97916992,57.68789267,11.97917133,16:03:00.712772,0.02105,0.00000,0.00000,-0.14443,0.00000,-0.00235,0.00044,-0.00121,-0.03837,-0.11230,0.99265,3.51448,0.00000,-2.86983,-2.86983,-1.46125,-0.85785,3.53043,-1.37696,-0.92662,-0.20495,-0.20495,A,160300.60
3.55064,57.68789325,11.97916999,57.68789267,11.97917133,16:03:00.728071,0.00650,0.00000,0.00000,-0.14454,0.00000,-0.00265,0.00136,0.00383,-0.03934,-0.11480,0.99259,3.54497,0.00000,-2.47010,-2.47010,-1.45703,-0.86129,3.53043,-1.37696,-0.92662,-0.20495,-0.20495,A,160300.60
3.55991,57.68789322,11.97917005,57.68789267,11.97917133,16:03:00.737339,0.00536,0.00000,0.00000,-0.14460,0.00000,-0.00372,-0.00078,0.00032,-0.03880,-0.11486,0.99290,3.55425,0.00000,-2.13033,-2.13033,-1.45303,-0.86456,3.53043,-1.37696,-0.92662,-0.20495,-0.20495,A,160300.60
3.57017,57.68789320,11.97917012,57.68789267,11.97917133,16:03:00.747602,0.00538,0.00000,0.00000,-0.14462,0.00000,0.00010,0.00227,0.00353,-0.03819,-0.11395,0.99125,3.56450,0.00000,-1.84152,-1.84152,-1.44923,-0.86766,3.53043,-1.37696,-0.92662,-0.20495,-0.20495,A,160300.60
3.58075,57.68789317,11.97917018,57.68789267,11.97917133,16:03:00.758198,0.00550,0.00000,0.00000,-0.14461,0.00000,-0.00143,0.00151,0.00093,-0.04063,-0.11181,0.99223,3.57499,0.00000,-1.59603,-1.59603,-1.44561,-0.87061,3.53043,-1.37696,-0.92662,-0.20495,-0.20495,A,160300.60
3.59130,57.68789315,11.97917024,57.68789267,11.97917133,16:03:00.768737,0.00534,0.00000,0.00000,-0.14465,0.00000,-0.00051,0.00181,-0.00319,-0.04117,-0.11529,0.99491,3.58588,0.00000,-1.38737,-1.38737,-1.44218,-0.87341,3.53043,-1.37696,-0.92662,-0.20495,-0.20495,A,160300.60
3.60298,57.68789312,11.97917029,57.68789267,11.97917133,16:03:00.780422,0.00619,0.00000,0.00000,-0.14468,0.00000,0.00010,-0.00032,-0.00060,-0.03861,-0.11547,0.99235,3.59659,0.00000,-1.21001,-1.21001,-1.43892,-0.87607,3.53043,-1.37696,-0.92662,-0.20495,-0.20495,A,160300.60
3.61318,57.68789310,11.97917034,57.68789267,11.97917133,16:03:00.790621,0.00599,0.00000,0.00000,-0.14474,0.00000,-0.00296,0.00197,0.00460,-0.03916,-0.11541,0.99320,3.60748,0.00000,-1.05925,-1.05925,-1.43582,-0.87860,3.53043,-1.37696,-0.92662,-0.20495,-0.20495,A,160300.60
3.62268,57.68789308,11.97917039,57.68789267,11.97917133,16:03:00.800113,0.00509,0.00000,0.00000,-0.14476,0.00000,0.00116,-0.00002,0.00124,-0.04002,-0.11535,0.99302,3.61708,0.00000,-0.93110,-0.93110,-1.43288,-0.88100,3.53043,-1.37696,-0.92662,-0.20495,-0.20495,A,160300.60
3.64998,57.68789306,11.97917044,57.68789300,11.97917450,16:03:00.827429,0.02199,0.00000,0.00000,-0.14481,0.00000,-0.00113,0.00029,-0.00151,-0.04050,-0.11541,0.99302,3.62770,0.00000,-0.82218,-0.82218,-1.43008,-0.88328,3.64365,-1.18874,-0.88956,0.19444,0.19444,A,160300.70
3.66416,57.68789305,11.97917064,57.68789300,11.97917450,16:03:00.841843,0.00677,0.00000,0.00000,-0.14480,0.00000,0.00116,0.00441,-0.00151,-0.03794,-0.11553,0.99320,3.65872,0.00000,-0.66969,-0.66969,-1.41802,-0.88360,3.64365,-1.18874,-0.88956,0.19444,0.19444,A,160300.70
3.67367,57.68789305,11.97917084,57.68789300,11.97917450,16:03:00.851099,0.00589,0.00000,0.00000,-0.14483,0.00000,0.00101,0.00334,0.00170,-0.03995,-0.11578,0.99204,3.66797,0.00000,-0.54007,-0.54007,-1.40655,-0.88389,3.64365,-1.18874,-0.88956,0.19444,0.19444,A,160300.70
3.68328,57.68789305,11.97917102,57.68789300,11.97917450,16:03:00.860992,0.00510,0.00000,0.00000,-0.14482,0.00000,0.00452,-0.00185,-0.00182,-0.03977,-0.11523,0.99259,3.67788,0.00000,-0.42989,-0.42989,-1.39566,-0.88418,3.64365,-1.18874,-0.88956,0.19444,0.19444,A,160300.70
3.69395,57.68789305,11.97917119,57.68789300,11.97917450,16:03:00.871384,0.00523,0.00000,0.00000,-0.14477,0.00000,0.00575,-0.00017,-0.00197,-0.03934,-0.11450,0.99308,3.68825,0.00000,-0.33624,-0.33624,-1.38532,-0.88445,3.64365,-1.18874,-0.88956,0.19444,0.19444,A,160300.70
3.70574,57.68789304,11.97917136,57.68789300,11.97917450,16:03:00.883184,0.00662,0.00000,0.00000,-0.14476,0.00000,0.00407,-0.00154,-0.00319,-0.03922,-0.11511,0.99143,3.69884,0.00000,-0.25664,-0.25664,-1.37549,-0.88470,3.64365,-1.18874,-0.88956,0.19444,0.19444,A,160300.70
3.71593,57.68789304,11.97917152,57.68789300,11.97917450,16:03:00.893362,0.00642,0.00000,0.00000,-0.14475,0.00000,0.00514,-0.00261,-0.00105,-0.04105,-0.11572,0.99076,3.70971,0.00000,-0.18898,-0.18898,-1.36615,-0.88494,3.64365,-1.18874,-0.88956,0.19444,0.19444,A,160300.70
3.72631,57.68789304,11.97917166,57.68789300,11.97917450,16:03:00.903737,0.00640,0.00000,0.00000,-0.14475,0.00000,0.00361,0.00029,0.00139,-0.04014,-0.11590,0.99186,3.71995,0.00000,-0.13147,-0.13147,-1.35728,-0.88518,3.64365,-1.18874,-0.88956,0.19444,0.19444,A,160300.70
3.73537,57.68789304,11.97917181,57.68789300,11.97917450,16:03:00.912797,0.00506,0.00000,0.00000,-0.14473,0.00000,0.00284,0.00273,-0.00212,-0.04026,-0.11322,0.99040,3.72998,0.00000,-0.08258,-0.08258,-1.34885,-0.88539,3.64365,-1.18874,-0.88956,0.19444,0.19444,A,160300.70
3.76201,57.68789304,11.97917194,57.68789317,11.97917700,16:03:00.940060,0.02114,0.00000,0.00000,-0.14477,0.00000,0.00040,0.00197,-0.00166,-0.03959,-0.11645,0.99082,3.74046,0.00000,-0.04103,-0.04103,-1.34085,-0.88560,3.75655,-1.04015,-0.87103,0.12408,0.12408,A,160300.80
3.77877,57.68789304,11.97917219,57.68789317,11.97917700,16:03:00.956212,0.00681,0.00000,0.00000,-0.14476,0.00000,0.00101,-0.00093,-0.00044,-0.03867,-0.11474,0.99247,3.77235,0.00000,-0.01626,-0.01626,-1.32581,-0.88487,3.75655,-1.04015,-0.87103,0.12408,0.12408,A,160300.80
3.78770,57.68789305,11.97917243,57.68789317,11.97917700,16:03:00.965138,0.00534,0.00000,0.00000,-0.14478,0.00000,0.00055,-0.00307,-0.00105,-0.04166,-0.11444,0.99259,3.78230,0.00000,0.00479,0.00479,-1.31153,-0.88418,3.75655,-1.04015,-0.87103,0.12408,0.12408,A,160300.80
3.79792,57.68789305,11.97917266,57.68789317,11.97917700,16:03:00.975353,0.00520,0.00000,0.00000,-0.14477,0.00000,0.00208,-0.00124,-0.00044,-0.03989,-0.11438,0.99155,3.79226,0.00000,0.02268,0.02268,-1.29796,-0.88352,3.75655,-1.04015,-0.87103,0.12408,0.12408,A,160300.80
3.81004,57.68789306,11.97917288,57.68789317,11.97917700,16:03:00.987477,0.00692,0.00000,0.00000,-0.14484,0.00000,-0.00372,0.00105,0.00063,-0.04166,-0.11523,0.99259,3.80357,0.00000,0.03789,0.03789,-1.28507,-0.88290,3.75655,-1.04015,-0.87103,0.12408,0.12408,A,160300.80
3.81863,57.68789307,11.97917309,57.68789317,11.97917700,16:03:00.996058,0.00510,0.00000,0.00000,-0.14486,0.00000,-0.00036,-0.00093,-0.00243,-0.04069,-0.11395,0.99040,3.81301,0.00000,0.05082,0.05082,-1.27282,-0.88231,3.75655,-1.04015,-0.87103,0.12408,0.12408,A,160300.80
3.82945,57.68789307,11.97917328,57.68789317,11.97917700,16:03:01.006880,0.00557,0.00000,0.00000,-0.14489,0.00000,0.00055,-0.00109,0.00078,-0.03898,-0.11529,0.99162,3.82375,0.00000,0.06181,0.06181,-1.26119,-0.88174,3.75655,-1.04015,-0.87103,0.12408,0.12408,A,160300.80
3.83932,57.68789308,11.97917347,57.68789317,11.97917700,16:03:01.016753,0.00505,0.00000,0.00000,-0.14496,0.00000,-0.00219,-0.00231,0.00063,-0.03837,-0.11663,0.99192,3.83396,0.00000,0.07115,0.07115,-1.25014,-0.88121,3.75655,-1.04015,-0.87103,0.12408,0.12408,A,160300.80
3.84993,57.68789308,11.97917364,57.68789317,11.97917700,16:03:01.027360,0.00521,0.00000,0.00000,-0.14499,0.00000,0.00346,-0.00246,-0.00151,-0.04111,-0.11755,0.99131,3.84424,0.00000,0.07909,0.07909,-1.23964,-0.88070,3.75655,-1.04015,-0.87103,0.12408,0.12408,A,160300.80
3.88632,57.68789308,11.97917381,57.68789450,11.97917883,16:03:01.063759,0.03121,0.00000,0.00000,-0.14505,0.00000,0.00010,-0.00384,0.00231,-0.04026,-0.11816,0.99271,3.85483,0.00000,0.08584,0.08584,-1.22967,-0.88021,3.88095,-0.93118,-0.72277,0.93698,0.93698,A,160301.00
3.90161,57.68789315,11.97917406,57.68789450,11.97917883,16:03:01.079048,0.00730,0.00000,0.00000,-0.14509,0.00000,0.00040,-0.00139,0.00246,-0.03995,-0.11633,0.98911,3.89579,0.00000,0.21351,0.21351,-1.21474,-0.87234,3.88095,-0.93118,-0.72277,0.93698,0.93698,A,160301.00
3.91121,57.68789322,11.97917430,57.68789450,11.97917883,16:03:01.088651,0.00638,0.00000,0.00000,-0.14511,0.00000,-0.00006,0.00059,0.00047,-0.04099,-0.11529,0.99393,3.90460,0.00000,0.32203,0.32203,-1.20056,-0.86486,3.88095,-0.93118,-0.72277,0.93698,0.93698,A,160301.00
3.92123,57.68789329,11.97917453,57.68789450,11.97917883,16:03:01.098658,0.00601,0.00000,0.00000,-0.14513,0.00000,-0.00082,0.00044,0.00139,-0.04294,-0.11419,0.99192,3.91550,0.00000,0.41427,0.41427,-1.18709,-0.85776,3.88095,-0.93118,-0.72277,0.93698,0.93698,A,160301.00
3.93072,57.68789335,11.97917474,57.68789450,11.97917883,16:03:01.108152,0.00511,0.00000,0.00000,-0.14514,0.00000,0.00315,-0.00048,-0.00105,-0.03977,-0.11633,0.99259,3.92511,0.00000,0.49268,0.49268,-1.17430,-0.85101,3.88095,-0.93118,-0.72277,0.93698,0.93698,A,160301.00
3.94136,57.68789340,11.97917495,57.68789450,11.97917883,16:03:01.118788,0.00534,0.00000,0.00000,-0.14519,0.00000,-0.00128,0.00059,-0.00029,-0.04105,-0.11621,0.99326,3.93570,0.00000,0.55932,0.55932,-1.16214,-0.84460,3.88095,-0.93118,-0.72277,0.93698,0.93698,A,160301.00
3.95220,57.68789346,11.97917514,57.68789450,11.97917883,16:03:01.129864,0.00578,0.00000,0.00000,-0.14522,0.00000,-0.00235,-0.00002,-0.00212,-0.03727,-0.11389,0.98985,3.94607,0.00000,0.61597,0.61597,-1.15059,-0.83850,3.88095,-0.93118,-0.72277,0.93698,0.93698,A,160301.00
3.96310,57.68789351,11.97917533,57.68789450,11.97917883,16:03:01.140535,0.00637,0.00000,0.00000,-0.14522,0.00000,0.00361,-0.00322,0.00093,-0.03904,-0.11614,0.99137,3.95715,0.00000,0.66412,0.66412,-1.13962,-0.83272,3.88095,-0.93118,-0.72277,0.93698,0.93698,A,160301.00
3.97222,57.68789356,11.97917550,57.68789450,11.97917883,16:03:01.149894,0.00509,0.00000,0.00000,-0.14526,0.00000,-0.00326,0.00059,0.00032,-0.03861,-0.11462,0.99241,3.96684,0.00000,0.70505,0.70505,-1.12920,-0.82722,3.88095,-0.93118,-0.72277,0.93698,0.93698,A,160301.00
3.99823,57.68789361,11.97917567,57.68789500,11.97918050,16:03:01.175666,0.02071,0.00000,0.00000,-0.14533,0.00000,-0.00449,0.00029,-0.00121,-0.03971,-0.11505,0.99235,3.97702,0.00000,0.73984,0.73984,-1.11930,-0.82200,3.99332,-0.83212,-0.66717,0.51143,0.51143,A,160301.10
4.01396,57.68789368,11.97917591,57.68789500,11.97918050,16:03:01.191389,0.00769,0.00000,0.00000,-0.14537,0.00000,-0.00128,-0.00246,0.00063,-0.03886,-0.11413,0.99442,4.00728,0.00000,0.70558,0.70558,-1.10494,-0.81426,3.99332,-0.83212,-0.66717,0.51143,0.51143,A,160301.10
4.02246,57.68789374,11.97917614,57.68789500,11.97918050,16:03:01.199892,0.00574,0.00000,0.00000,-0.14538,0.00000,0.00162,-0.00048,-0.00151,-0.03953,-0.11560,0.99131,4.01680,0.00000,0.67646,0.67646,-1.09130,-0.80690,3.99332,-0.83212,-0.66717,0.51143,0.51143,A,160301.10
4.03361,57.68789381,11.97917636,57.68789500,11.97918050,16:03:01.211041,0.00642,0.00000,0.00000,-0.14537,0.00000,0.00254,-0.00002,-0.00105,-0.03880,-0.11499,0.99259,4.02729,0.00000,0.65170,0.65170,-1.07834,-0.79992,3.99332,-0.83212,-0.66717,0.51143,0.51143,A,160301.10
4.04268,57.68789387,11.97917656,57.68789500,11.97918050,16:03:01.220110,0.00510,0.00000,0.00000,-0.14540,0.00000,-0.00097,-0.00002,-0.00243,-0.04050,-0.11505,0.98918,4.03706,0.00000,0.63066,0.63066,-1.06603,-0.79328,3.99332,-0.83212,-0.66717,0.51143,0.51143,A,160301.10
4.05335,57.68789392,11.97917676,57.68789500,11.97918050,16:03:01.230790,0.00550,0.00000,0.00000,-0.14541,0.00000,-0.00036,-0.00338,0.00276,-0.03904,-0.11425,0.99338,4.04763,0.00000,0.61278,0.61278,-1.05434,-0.78697,3.99332,-0.83212,-0.66717,0.51143,0.51143,A,160301.10
4.06344,57.68789398,11.97917695,57.68789500,11.97918050,16:03:01.240866,0.00518,0.00000,0.00000,-0.14546,0.00000,-0.00296,-0.00154,0.00108,-0.03922,-0.11499,0.99131,4.05806,0.00000,0.59757,0.59757,-1.04322,-0.78098,3.99332,-0.83212,-0.66717,0.51143,0.51143,A,160301.10
4.07391,57.68789403,11.97917713,57.68789500,11.97918050,16:03:01.251341,0.00518,0.00000,0.00000,-0.14546,0.00000,0.00101,-0.00216,0.00307,-0.04075,-0.11474,0.99204,4.06823,0.00000,0.58465,0.58465,-1.03267,-0.77529,3.99332,-0.83212,-0.66717,0.51143,0.51143,A,160301.10
4.08483,57.68789408,11.97917729,57.68789500,11.97918050,16:03:01.262278,0.00571,0.00000,0.00000,-0.14552,0.00000,-0.00265,-0.00078,0.00261,-0.03898,-0.11651,0.99528,4.07898,0.00000,0.57367,0.57367,-1.02264,-0.76989,3.99332,-0.83212,-0.66717,0.51143,0.51143,A,160301.10
4.11107,57.68789412,11.97917745,57.68789467,11.97918433,16:03:01.289110,0.02155,0.00000,0.00000,-0.14560,0.00000,-0.00372,0.00181,-0.00044,-0.03928,-0.11639,0.99253,4.08900,0.00000,0.56433,0.56433,-1.01312,-0.76475,4.10521,-0.60428,-0.70423,-0.16127,-0.16127,A,160301.20
4.12767,57.68789415,11.97917780,57.68789467,11.97918433,16:03:01.305104,0.00645,0.00000,0.00000,-0.14576,0.00000,-0.00449,-0.00261,-0.00060,-0.03812,-0.11474,0.98985,4.12180,0.00000,0.45549,0.45549,-0.99267,-0.76172,4.10521,-0.60428,-0.70423,-0.16127,-0.16127,A,160301.20
4.13781,57.68789418,11.97917813,57.68789467,11.97918433,16:03:01.315239,0.00631,0.00000,0.00000,-0.14579,0.00000,0.00071,0.00151,-0.00014,-0.03934,-0.11724,0.99387,4.13204,0.00000,0.36298,0.36298,-0.97325,-0.75885,4.10521,-0.60428,-0.70423,-0.16127,-0.16127,A,160301.20
4.14699,57.68789420,11.97917844,57.68789467,11.97918433,16:03:01.324416,0.00510,0.00000,0.00000,-0.14580,0.00000,0.00330,0.00014,0.00124,-0.04136,-0.11669,0.99088,4.14159,0.00000,0.28434,0.28434,-0.95481,-0.75612,4.10521,-0.60428,-0.70423,-0.16127,-0.16127,A,160301.20
4.15776,57.68789422,11.97917873,57.68789467,11.97918433,16:03:01.335202,0.00530,0.00000,0.00000,-0.14581,0.00000,-0.00097,0.00395,-0.00319,-0.03837,-0.11450,0.99345,4.15199,0.00000,0.21750,0.21750,-0.93728,-0.75352,4.10521,-0.60428,-0.70423,-0.16127,-0.16127,A,160301.20
4.16822,57.68789425,11.97917901,57.68789467,11.97918433,16:03:01.346002,0.00536,0.00000,0.00000,-0.14580,0.00000,0.00086,0.00075,0.00017,-0.03904,-0.11450,0.99223,4.16261,0.00000,0.16069,0.16069,-0.92063,-0.75106,4.10521,-0.60428,-0.70423,-0.16127,-0.16127,A,160301.20
4.17829,57.68789427,11.97917928,57.68789467,11.97918433,16:03:01.355715,0.00519,0.00000,0.00000,-0.14581,0.00000,-0.00082,-0.00200,0.00093,-0.04111,-0.11383,0.99168,4.17263,0.00000,0.11239,0.11239,-0.90481,-0.74872,4.10521,-0.60428,-0.70423,-0.16127,-0.16127,A,160301.20
4.18910,57.68789429,11.97917953,57.68789467,11.97918433,16:03:01.366528,0.00560,0.00000,0.00000,-0.14577,0.00000,0.00254,0.00273,-0.00044,-0.04130,-0.11376,0.99186,4.18344,0.00000,0.07135,0.07135,-0.88978,-0.74649,4.10521,-0.60428,-0.70423,-0.16127,-0.16127,A,160301.20
4.19897,57.68789431,11.97917977,57.68789467,11.97918433,16:03:01.376399,0.00508,0.00000,0.00000,-0.14579,0.00000,0.00147,0.00120,-0.00044,-0.04002,-0.11627,0.99082,4.19357,0.00000,0.03645,0.03645,-0.87551,-0.74438,4.10521,-0.60428,-0.70423,-0.16127,-0.16127,A,160301.20
4.22696,57.68789432,11.97918000,57.68789467,11.97918833,16:03:01.404435,0.02179,0.00000,0.00000,-0.14579,0.00000,0.00040,-0.00002,-0.00212,-0.03880,-0.11444,0.99430,4.20398,0.00000,0.00680,0.00680,-0.86195,-0.74237,4.22154,-0.36653,-0.70423,0.00000,0.00000,A,160301.30
4.23970,57.68789434,11.97918041,57.68789467,11.97918833,16:03:01.417135,0.00675,0.00000,0.00000,-0.14572,0.00000,0.00269,0.00212,0.00185,-0.04044,-0.11499,0.99186,4.23256,0.00000,0.00578,0.00578,-0.83718,-0.74047,4.22154,-0.36653,-0.70423,0.00000,0.00000,A,160301.30
4.24871,57.68789436,11.97918081,57.68789467,11.97918833,16:03:01.426145,0.00535,0.00000,0.00000,-0.14573,0.00000,0.00025,0.00044,-0.00105,-0.03800,-0.11462,0.98930,4.24308,0.00000,0.00491,0.00491,-0.81364,-0.73866,4.22154,-0.36653,-0.70423,0.00000,0.00000,A,160301.30
4.25885,57.68789437,11.97918119,57.68789467,11.97918833,16:03:01.436281,0.00509,0.00000,0.00000,-0.14574,0.00000,0.00086,0.00059,-0.00044,-0.03892,-0.11566,0.99265,4.25326,0.00000,0.00417,0.00417,-0.79129,-0.73693,4.22154,-0.36653,-0.70423,0.00000,0.00000,A,160301.30
4.27063,57.68789439,11.97918154,57.68789467,11.97918833,16:03:01.448061,0.00647,0.00000,0.00000,-0.14570,0.00000,0.00162,-0.00032,0.00108,-0.03971,-0.11285,0.99442,4.26476,0.00000,0.00355,0.00355,-0.77005,-0.73530,4.22154,-0.36653,-0.70423,0.00000,0.00000,A,160301.30
4.27965,57.68789440,11.97918188,57.68789467,11.97918833,16:03:01.457081,0.00509,0.00000,0.00000,-0.14569,0.00000,-0.00067,0.00594,0.00139,-0.03916,-0.11297,0.99015,4.27426,0.00000,0.00302,0.00302,-0.74987,-0.73375,4.22154,-0.36653,-0.70423,0.00000,0.00000,A,160301.30
4.29033,57.68789441,11.97918221,57.68789467,11.97918833,16:03:01.467764,0.00554,0.00000,0.00000,-0.14571,0.00000,-0.00067,0.00029,-0.00044,-0.04044,-0.11456,0.99021,4.28466,0.00000,0.00256,0.00256,-0.73071,-0.73227,4.22154,-0.36653,-0.70423,0.00000,0.00000,A,160301.30
4.30050,57.68789443,11.97918251,57.68789467,11.97918833,16:03:01.477948,0.00531,0.00000,0.00000,-0.14576,0.00000,-0.00311,0.00288,0.00078,-0.03880,-0.11553,0.99308,4.29491,0.00000,0.00218,0.00218,-0.71250,-0.73087,4.22154,-0.36653,-0.70423,0.00000,0.00000,A,160301.30
4.31068,57.68789444,11.97918280,57.68789467,11.97918833,16:03:01.488120,0.00510,0.00000,0.00000,-0.14575,0.00000,0.00132,0.00258,0.00215,-0.04075,-0.11425,0.99137,4.30508,0.00000,0.00185,0.00185,-0.69520,-0.72954,4.22154,-0.36653,-0.70423,0.00000,0.00000,A,160301.30
4.33946,57.68789445,11.97918308,57.68789500,11.97918950,16:03:01.516895,0.02348,0.00000,0.00000,-0.14577,0.00000,-0.00097,0.00197,-0.00090,-0.03733,-0.11492,0.99271,4.31689,0.00000,0.00157,0.00157,-0.67877,-0.72827,4.33415,-0.29719,-0.66717,0.49088,0.49088,A,160301.40
4.35289,57.68789448,11.97918340,57.68789500,11.97918950,16:03:01.530325,0.00651,0.00000,0.00000,-0.14584,0.00000,-0.00143,-0.00078,-0.00151,-0.03892,-0.11657,0.99467,4.34721,0.00000,0.07497,0.07497,-0.65969,-0.72522,4.33415,-0.29719,-0.66717,0.49088,0.49088,A,160301.40
4.36210,57.68789450,11.97918371,57.68789500,11.97918950,16:03:01.539528,0.00538,0.00000,0.00000,-0.14586,0.00000,0.00239,0.00059,-0.00411,-0.04044,-0.11663,0.99174,4.35626,0.00000,0.13736,0.13736,-0.64156,-0.72231,4.33415,-0.29719,-0.66717,0.49088,0.49088,A,160301.40
4.37210,57.68789453,11.97918400,57.68789500,11.97918950,16:03:01.549769,0.00514,0.00000,0.00000,-0.14583,0.00000,0.00162,-0.00017,0.00063,-0.03983,-0.11352,0.98936,4.36671,0.00000,0.19038,0.19038,-0.62434,-0.71956,4.33415,-0.29719,-0.66717,0.49088,0.49088,A,160301.40
4.38250,57.68789455,11.97918427,57.68789500,11.97918950,16:03:01.559931,0.00514,0.00000,0.00000,-0.14579,0.00000,0.00269,-0.00032,-0.00136,-0.04069,-0.11303,0.99277,4.37686,0.00000,0.23546,0.23546,-0.60799,-0.71694,4.33415,-0.29719,-0.66717,0.49088,0.49088,A,160301.40
4.39317,57.68789457,11.97918453,57.68789500,11.97918950,16:03:01.570606,0.00541,0.00000,0.00000,-0.14581,0.00000,0.00010,-0.00322,0.00108,-0.04075,-0.11602,0.99375,4.38750,0.00000,0.27377,0.27377,-0.59245,-0.71445,4.33415,-0.29719,-0.66717,0.49088,0.49088,A,160301.40
4.40339,57.68789460,11.97918478,57.68789500,11.97918950,16:03:01.580821,0.00523,0.00000,0.00000,-0.14580,0.00000,0.00055,0.00197,-0.00105,-0.03983,-0.11425,0.99308,4.39798,0.00000,0.30634,0.30634,-0.57768,-0.71209,4.33415,-0.29719,-0.66717,0.49088,0.49088,A,160301.40
4.41399,57.68789462,11.97918502,57.68789500,11.97918950,16:03:01.591426,0.00530,0.00000,0.00000,-0.14580,0.00000,0.00055,-0.00093,0.00139,-0.03843,-0.11431,0.99149,4.40822,0.00000,0.33402,0.33402,-0.56366,-0.70984,4.33415,-0.29719,-0.66717,0.49088,0.49088,A,160301.40
4.42579,57.68789464,11.97918524,57.68789500,11.97918950,16:03:01.603229,0.00670,0.00000,0.00000,-0.14582,0.00000,-0.00006,0.00014,0.00185,-0.04075,-0.11553,0.99265,4.41977,0.00000,0.35755,0.35755,-0.55033,-0.70771,4.33415,-0.29719,-0.66717,0.49088,0.49088,A,160301.40
4.45109,57.68789465,11.97918545,57.68789517,11.97919167,16:03:01.628542,0.02160,0.00000,0.00000,-0.14584,0.00000,-0.00158,0.00227,-0.00014,-0.04044,-0.11492,0.99235,4.42898,0.00000,0.37755,0.37755,-0.53768,-0.70568,4.44578,-0.16841,-0.64864,0.14293,0.14293,A,160301.50
4.46671,57.68789468,11.97918576,57.68789517,11.97919167,16:03:01.644147,0.00683,0.00000,0.00000,-0.14575,0.00000,0.00208,0.00044,-0.00151,-0.03819,-0.11285,0.99204,4.46083,0.00000,0.34235,0.34235,-0.51921,-0.70283,4.44578,-0.16841,-0.64864,0.14293,0.14293,A,160301.50
4.47535,57.68789470,11.97918606,57.68789517,11.97919167,16:03:01.652780,0.00508,0.00000,0.00000,-0.14577,0.00000,-0.00189,0.00136,-0.00151,-0.03678,-0.11383,0.99149,4.46996,0.00000,0.31244,0.31244,-0.50167,-0.70012,4.44578,-0.16841,-0.64864,0.14293,0.14293,A,160301.50
4.48619,57.68789473,11.97918634,57.68789517,11.97919167,16:03:01.663637,0.00547,0.00000,0.00000,-0.14579,0.00000,-0.00204,0.00426,0.00124,-0.03977,-0.11468,0.99332,4.48025,0.00000,0.28701,0.28701,-0.48501,-0.69754,4.44578,-0.16841,-0.64864,0.14293,0.14293,A,160301.50
4.49624,57.68789475,11.97918661,57.68789517,11.97919167,16:03:01.674061,0.00512,0.00000,0.00000,-0.14580,0.00000,0.00101,-0.00109,0.00093,-0.03855,-0.11560,0.99326,4.49084,0.00000,0.26540,0.26540,-0.46918,-0.69510,4.44578,-0.16841,-0.64864,0.14293,0.14293,A,160301.50
4.50670,57.68789477,11.97918686,57.68789517,11.97919167,16:03:01.684125,0.00518,0.00000,0.00000,-0.14582,0.00000,-0.00082,0.00105,0.00093,-0.04056,-0.11468,0.99058,4.50100,0.00000,0.24703,0.24703,-0.45414,-0.69278,4.44578,-0.16841,-0.64864,0.14293,0.14293,A,160301.50
4.51731,57.68789479,11.97918710,57.68789517,11.97919167,16:03:01.694750,0.00539,0.00000,0.00000,-0.14581,0.00000,-0.00006,-0.00048,0.00093,-0.04203,-0.11389,0.99247,4.51161,0.00000,0.23141,0.23141,-0.43985,-0.69057,4.44578,-0.16841,-0.64864,0.14293,0.14293,A,160301.50
4.52737,57.68789481,11.97918733,57.68789517,11.97919167,16:03:01.704794,0.00505,0.00000,0.00000,-0.14578,0.00000,0.00055,0.00105,0.00032,-0.04209,-0.11230,0.99198,4.52199,0.00000,0.21814,0.21814,-0.42628,-0.68847,4.44578,-0.16841,-0.64864,0.14293,0.14293,A,160301.50
4.53790,57.68789483,11.97918754,57.68789517,11.97919167,16:03:01.715334,0.00518,0.00000,0.00000,-0.14577,0.00000,0.00116,0.00304,0.00170,-0.03953,-0.11444,0.99204,4.53223,0.00000,0.20686,0.20686,-0.41339,-0.68648,4.44578,-0.16841,-0.64864,0.14293,0.14293,A,160301.50
4.56411,57.68789484,11.97918775,57.68789517,11.97919367,16:03:01.741774,0.02100,0.00000,0.00000,-0.14577,0.00000,-0.00235,0.00227,-0.00060,-0.04093,-0.11248,0.99369,4.54304,0.00000,0.19727,0.19727,-0.40114,-0.68459,4.55894,-0.04953,-0.64864,0.00000,0.00000,A,160301.60
4.57954,57.68789486,11.97918805,57.68789517,11.97919367,16:03:01.756978,0.00742,0.00000,0.00000,-0.14578,0.00000,0.00040,0.00136,0.00002,-0.03831,-0.11553,0.99015,4.57327,0.00000,0.16768,0.16768,-0.38356,-0.68279,4.55894,-0.04953,-0.64864,0.00000,0.00000,A,160301.60
4.58913,57.68789487,11.97918833,57.68789517,11.97919367,16:03:01.766569,0.00660,0.00000,0.00000,-0.14575,0.00000,0.00346,0.00212,-0.00243,-0.03880,-0.11486,0.99259,4.58340,0.00000,0.14253,0.14253,-0.36686,-0.68108,4.55894,-0.04953,-0.64864,0.00000,0.00000,A,160301.60
4.59796,57.68789489,11.97918859,57.68789517,11.97919367,16:03:01.775395,0.00520,0.00000,0.00000,-0.14574,0.00000,0.00147,-0.00002,0.00124,-0.04093,-0.11438,0.99125,4.59229,0.00000,0.12115,0.12115,-0.35099,-0.67946,4.55894,-0.04953,-0.64864,0.00000,0.00000,A,160301.60
4.60824,57.68789490,11.97918885,57.68789517,11.97919367,16:03:01.785922,0.00509,0.00000,0.00000,-0.14575,0.00000,-0.00097,-0.00063,0.00139,-0.03983,-0.11383,0.99241,4.60286,0.00000,0.10298,0.10298,-0.33592,-0.67792,4.55894,-0.04953,-0.64864,0.00000,0.00000,A,160301.60
4.61864,57.68789492,11.97918909,57.68789517,11.97919367,16:03:01.796071,0.00509,0.00000,0.00000,-0.14578,0.00000,-0.00128,0.00334,-0.00289,-0.03959,-0.11553,0.99216,4.61304,0.00000,0.08753,0.08753,-0.32160,-0.67646,4.55894,-0.04953,-0.64864,0.00000,0.00000,A,160301.60
4.63046,57.68789493,11.97918932,57.68789517,11.97919367,16:03:01.807895,0.00652,0.00000,0.00000,-0.14582,0.00000,-0.00311,0.00136,0.00093,-0.04117,-0.11462,0.99204,4.62457,0.00000,0.07440,0.07440,-0.30799,-0.67506,4.55894,-0.04953,-0.64864,0.00000,0.00000,A,160301.60
4.64003,57.68789494,11.97918954,57.68789517,11.97919367,16:03:01.817468,0.00537,0.00000,0.00000,-0.14584,0.00000,-0.00250,0.00181,0.00063,-0.03892,-0.11309,0.98850,4.63463,0.00000,0.06324,0.06324,-0.29507,-0.67374,4.55894,-0.04953,-0.64864,0.00000,0.00000,A,160301.60
4.65011,57.68789495,11.97918974,57.68789517,11.97919367,16:03:01.827541,0.00522,0.00000,0.00000,-0.14586,0.00000,-0.00097,0.00120,0.00047,-0.04154,-0.11553,0.99369,4.64444,0.00000,0.05375,0.05375,-0.28279,-0.67249,4.55894,-0.04953,-0.64864,0.00000,0.00000,A,160301.60
4.68895,57.68789496,11.97918994,57.68789550,11.97919117,16:03:01.866394,0.03339,0.00000,0.00000,-0.14588,0.00000,-0.00357,-0.00322,-0.00411,-0.04032,-0.11297,0.99265,4.65598,0.00000,0.04569,0.04569,-0.27113,-0.67130,4.68272,-0.19812,-0.61157,2.89714,2.89714,A,160301.80
4.70357,57.68789499,11.97919000,57.68789550,11.97919117,16:03:01.881012,0.00682,0.00000,0.00000,-0.14570,0.00000,0.00483,-0.00002,-0.00060,-0.04069,-0.11529,0.99277,4.69709,0.00000,0.47341,0.47341,-0.26748,-0.66831,4.68272,-0.19812,-0.61157,2.89714,2.89714,A,160301.80
4.71224,57.68789502,11.97919006,57.68789550,11.97919117,16:03:01.889921,0.00509,0.00000,0.00000,-0.14571,0.00000,-0.00128,0.00227,0.00353,-0.03904,-0.11413,0.99192,4.70687,0.00000,0.83697,0.83697,-0.26401,-0.66547,4.68272,-0.19812,-0.61157,2.89714,2.89714,A,160301.80
4.72264,57.68789504,11.97919011,57.68789550,11.97919117,16:03:01.900072,0.00508,0.00000,0.00000,-0.14576,0.00000,-0.00128,-0.00093,-0.00304,-0.03977,-0.11688,0.99290,4.71705,0.00000,1.14599,1.14599,-0.26072,-0.66278,4.68272,-0.19812,-0.61157,2.89714,2.89714,A,160301.80
4.73418,57.68789506,11.97919017,57.68789550,11.97919117,16:03:01.911613,0.00601,0.00000,0.00000,-0.14580,0.00000,-0.00219,-0.00032,-0.00060,-0.04136,-0.11499,0.99302,4.72849,0.00000,1.40867,1.40867,-0.25759,-0.66022,4.68272,-0.19812,-0.61157,2.89714,2.89714,A,160301.80
4.74364,57.68789508,11.97919022,57.68789550,11.97919117,16:03:01.921076,0.00508,0.00000,0.00000,-0.14582,0.00000,-0.00158,0.00014,-0.00121,-0.03916,-0.11499,0.99259,4.73827,0.00000,1.63194,1.63194,-0.25462,-0.65778,4.68272,-0.19812,-0.61157,2.89714,2.89714,A,160301.80
4.75403,57.68789511,11.97919026,57.68789550,11.97919117,16:03:01.931467,0.00524,0.00000,0.00000,-0.14580,0.00000,0.00346,0.00166,0.00215,-0.03758,-0.11523,0.99210,4.74833,0.00000,1.82172,1.82172,-0.25179,-0.65547,4.68272,-0.19812,-0.61157,2.89714,2.89714,A,160301.80
4.76469,57.68789512,11.97919031,57.68789550,11.97919117,16:03:01.942128,0.00550,0.00000,0.00000,-0.14586,0.00000,-0.00372,-0.00063,-0.00029,-0.03941,-0.11547,0.98985,4.75905,0.00000,1.98303,1.98303,-0.24911,-0.65328,4.68272,-0.19812,-0.61157,2.89714,2.89714,A,160301.80
4.77467,57.68789514,11.97919035,57.68789550,11.97919117,16:03:01.952110,0.00509,0.00000,0.00000,-0.14587,0.00000,-0.00097,0.00197,-0.00151,-0.04307,-0.11407,0.99180,4.76907,0.00000,2.12015,2.12015,-0.24656,-0.65119,4.68272,-0.19812,-0.61157,2.89714,2.89714,A,160301.80
4.80194,57.68789516,11.97919039,57.68789533,11.97919167,16:03:01.979390,0.02197,0.00000,0.00000,-0.14590,0.00000,0.00010,0.00105,0.00093,-0.04258,-0.11669,0.99247,4.77982,0.00000,2.23670,2.23670,-0.24414,-0.64921,4.79616,-0.16841,-0.63010,5.72559,-0.55759,A,160301.90
4.81590,57.68789517,11.97919046,57.68789533,11.97919167,16:03:01.993329,0.00681,0.00000,0.00000,-0.14596,0.00000,-0.00235,0.00288,-0.00212,-0.03983,-0.11328,0.99192,4.81042,0.00000,2.76003,2.76003,-0.24035,-0.64826,4.79616,-0.16841,-0.63010,5.72559,-0.55759,A,160301.90
4.82486,57.68789518,11.97919052,57.68789533,11.97919167,16:03:02.002292,0.00536,0.00000,0.00000,-0.14592,0.00000,0.00101,0.00243,-0.00334,-0.04038,-0.11273,0.99351,4.81922,0.00000,3.20487,3.20487,-0.23675,-0.64735,4.79616,-0.16841,-0.63010,5.72559,-0.55759,A,160301.90
4.83501,57.68789519,11.97919057,57.68789533,11.97919167,16:03:02.012443,0.00512,0.00000,0.00000,-0.14592,0.00000,-0.00143,-0.00170,0.00292,-0.04002,-0.11340,0.99314,4.82960,0.00000,3.58298,3.58298,-0.23334,-0.64649,4.79616,-0.16841,-0.63010,5.72559,-0.55759,A,160301.90
4.84568,57.68789519,11.97919063,57.68789533,11.97919167,16:03:02.023118,0.00522,0.00000,0.00000,-0.14596,0.00000,-0.00021,0.00258,0.00017,-0.04032,-0.11700,0.99210,4.83999,0.00000,3.90437,3.90437,-0.23009,-0.64567,4.79616,-0.16841,-0.63010,5.72559,-0.55759,A,160301.90
4.85598,57.68789520,11.97919068,57.68789533,11.97919167,16:03:02.033413,0.00512,0.00000,0.00000,-0.14602,0.00000,-0.00464,-0.00338,0.00078,-0.04026,-0.11517,0.99253,4.85059,0.00000,4.17755,4.17755,-0.22701,-0.64489,4.79616,-0.16841,-0.63010,5.72559,-0.55759,A,160301.90
4.86652,57.68789521,11.97919073,57.68789533,11.97919167,16:03:02.043951,0.00543,0.00000,0.00000,-0.14604,0.00000,0.00116,0.00212,-0.00151,-0.03782,-0.11639,0.99290,4.86079,0.00000,4.40976,4.40976,-0.22408,-0.64415,4.79616,-0.16841,-0.63010,5.72559,-0.55759,A,160301.90
4.87724,57.68789521,11.97919078,57.68789533,11.97919167,16:03:02.054671,0.00562,0.00000,0.00000,-0.14601,0.00000,0.00193,-0.00185,-0.00136,-0.04087,-0.11438,0.99357,4.87148,0.00000,4.60713,4.60713,-0.22129,-0.64345,4.79616,-0.16841,-0.63010,5.72559,-0.55759,A,160301.90
4.88742,57.68789522,11.97919082,57.68789533,11.97919167,16:03:02.064863,0.00539,0.00000,0.00000,-0.14607,0.00000,-0.00403,0.00197,0.00032,-0.03605,-0.11541,0.99393,4.88175,0.00000,4.77490,4.77490,-0.21865,-0.64278,4.79616,-0.16841,-0.63010,5.72559,-0.55759,A,160301.90
4.91444,57.68789523,11.97919086,57.68789533,11.97919333,16:03:02.091878,0.02162,0.00000,0.00000,-0.14605,0.00000,0.00132,-0.00277,-0.00319,-0.03782,-0.11438,0.99021,4.89239,0.00000,4.91751,4.91751,-0.21614,-0.64215,4.90922,-0.06934,-0.63010,6.28319,0.00000,A,160302.00
4.92704,57.68789523,11.97919099,57.68789533,11.97919333,16:03:02.104474,0.00718,0.00000,0.00000,-0.14595,0.00000,0.00361,-0.00216,0.00078,-0.03776,-0.11492,0.99430,4.92157,0.00000,5.12236,5.12236,-0.20880,-0.64155,4.90922,-0.06934,-0.63010,6.28319,0.00000,A,160302.00
4.93667,57.68789524,11.97919110,57.68789533,11.97919333,16:03:02.114112,0.00635,0.00000,0.00000,-0.14594,0.00000,0.00208,0.00166,0.00032,-0.04093,-0.11541,0.99412,4.93075,0.00000,5.29648,5.29648,-0.20182,-0.64097,4.90922,-0.06934,-0.63010,6.28319,0.00000,A,160302.00
4.94601,57.68789524,11.97919122,57.68789533,11.97919333,16:03:02.123440,0.00541,0.00000,0.00000,-0.14594,0.00000,-0.00051,0.00136,0.00078,-0.04032,-0.11395,0.99357,4.94033,0.00000,5.44449,5.44449,-0.19520,-0.64043,4.90922,-0.06934,-0.63010,6.28319,0.00000,A,160302.00
4.95608,57.68789525,11.97919132,57.68789533,11.97919333,16:03:02.133512,0.00508,0.00000,0.00000,-0.14595,0.00000,-0.00174,0.00197,0.00032,-0.04105,-0.11370,0.99216,4.95071,0.00000,5.57029,5.57029,-0.18891,-0.63991,4.90922,-0.06934,-0.63010,6.28319,0.00000,A,160302.00
4.96766,57.68789525,11.97919142,57.68789533,11.97919333,16:03:02.145091,0.00627,0.00000,0.00000,-0.14589,0.00000,0.00300,0.00044,-0.00136,-0.04087,-0.11291,0.99296,4.96178,0.00000,5.67723,5.67723,-0.18293,-0.63942,4.90922,-0.06934,-0.63010,6.28319,0.00000,A,160302.00
4.97729,57.68789525,11.97919152,57.68789533,11.97919333,16:03:02.154720,0.00550,0.00000,0.00000,-0.14590,0.00000,0.00010,-0.00032,0.00032,-0.03928,-0.11468,0.99076,4.97158,0.00000,5.76812,5.76812,-0.17725,-0.63896,4.90922,-0.06934,-0.63010,6.28319,0.00000,A,160302.00
4.98755,57.68789526,11.97919161,57.68789533,11.97919333,16:03:02.164998,0.00536,0.00000,0.00000,-0.14587,0.00000,0.00330,0.00334,0.00078,-0.04002,-0.11450,0.99229,4.98187,0.00000,5.84538,5.84538,-0.17185,-0.63851,4.90922,-0.06934,-0.63010,6.28319,0.00000,A,160302.00
4.99794,57.68789526,11.97919169,57.68789533,11.97919333,16:03:02.175377,0.00522,0.00000,0.00000,-0.14589,0.00000,-0.00174,0.00151,-0.00075,-0.03947,-0.11407,0.98869,4.99224,0.00000,5.91105,5.91105,-0.16673,-0.63809,4.90922,-0.06934,-0.63010,6.28319,0.00000,A,160302.00
5.00819,57.68789527,11.97919178,57.68789533,11.97919333,16:03:02.185873,0.00507,0.00000,0.00000,-0.14587,0.00000,0.00346,-0.00154,-0.00105,-0.03953,-0.11566,0.99320,5.00283,0.00000,5.96687,5.96687,-0.16186,-0.63769,4.90922,-0.06934,-0.63010,6.28319,0.00000,A,160302.00
5.04112,57.68789527,11.97919185,57.68789583,11.97919400,16:03:02.218595,0.02761,0.00000,0.00000,0.00000,0.00000,-0.00189,0.00166,-0.00105,-0.03910,-0.11505,0.99265,5.01301,0.00000,6.01432,6.01432,-0.15723,-0.63732,5.02922,-0.02972,-0.57451,7.23478,0.95159,A,160302.10
5.06574,57.68789530,11.97919196,57.68789583,11.97919400,16:03:02.243940,0.01777,0.00000,0.00000,-0.00229,0.00000,-0.00265,0.00151,0.00093,-0.03995,-0.11450,0.99204,5.05029,0.00000,6.19739,6.19739,0.04707,0.00000,5.02922,-0.02972,-0.57451,7.23478,0.95159,A,160302.10
5.08612,57.68789532,11.97919206,57.68789583,11.97919400,16:03:02.264373,0.01098,0.00000,0.00000,-0.00446,0.00000,-0.00021,-0.00002,-0.00090,-0.03697,-0.11535,0.99332,5.07755,0.00000,6.35300,6.35300,-0.14480,-0.63119,5.02922,-0.02972,-0.57451,7.23478,0.95159,A,160302.10
5.10725,57.68789535,11.97919216,57.68789583,11.97919400,16:03:02.284701,0.01293,0.00000,0.00000,-0.00656,0.00000,0.00193,0.00075,-0.00258,-0.04081,-0.11541,0.99229,5.09795,0.00000,6.48526,6.48526,-0.13905,-0.62836,5.02922,-0.02972,-0.57451,7.23478,0.95159,A,160302.10
5.12685,57.68789537,11.97919225,57.68789583,11.97919400,16:03:02.304293,0.01237,0.00000,0.00000,-0.00862,0.00000,0.00346,0.00044,0.00063,-0.03806,-0.11645,0.99229,5.11627,0.00000,6.59769,6.59769,-0.13358,-0.62566,5.02922,-0.02972,-0.57451,7.23478,0.95159,A,160302.10
5.16696,57.68789540,11.97919234,57.68789633,11.97919467,16:03:02.344412,0.02847,0.00000,0.00000,-0.01071,0.00000,-0.00067,-0.00002,-0.00014,-0.03965,-0.11578,0.99351,5.14082,0.00000,6.69325,6.69325,-0.12839,-0.62311,5.15803,0.00991,-0.51891,7.23478,0.95159,A,160302.20
5.19020,57.68789544,11.97919246,57.68789633,11.97919467,16:03:02.367648,0.01442,0.00000,0.00000,-0.01268,0.00000,0.00116,0.00090,0.00032,-0.03770,-0.11334,0.99424,5.17989,0.00000,6.77448,6.77448,-0.12147,-0.61790,5.15803,0.00991,-0.51891,7.23478,0.95159,A,160302.20
5.21449,57.68789549,11.97919257,57.68789633,11.97919467,16:03:02.391937,0.01290,0.00000,0.00000,-0.01466,0.00000,0.00071,0.00166,-0.00182,-0.03751,-0.11468,0.99223,5.20589,0.00000,6.84353,6.84353,-0.11490,-0.61295,5.15803,0.00991,-0.51891,7.23478,0.95159,A,160302.20
5.23212,57.68789553,11.97919267,57.68789633,11.97919467,16:03:02.410578,0.01286,0.00000,0.00000,-0.01656,0.00000,0.00559,0.00411,-0.00166,-0.03904,-0.11590,0.99229,5.22209,0.00000,6.90221,6.90221,-0.10866,-0.60825,5.15803,0.00991,-0.51891,7.23478,0.95159,A,160302.20
5.25334,57.68789557,11.97919277,57.68789633,11.97919467,16:03:02.431515,0.01182,0.00000,0.00000,-0.01855,0.00000,-0.00158,-0.00154,-0.00044,-0.03971,-0.11505,0.99284,5.24365,0.00000,6.95210,6.95210,-0.10273,-0.60378,5.15803,0.00991,-0.51891,7.23478,0.95159,A,160302.20
5.30126,57.68789561,11.97919287,57.68789567,11.97919683,16:03:02.478710,0.04145,0.00000,0.00000,-0.02051,0.00000,-0.00158,-0.00338,-0.00044,-0.04063,-0.11621,0.99345,5.26347,0.00000,6.99450,6.99450,-0.09710,-0.59954,5.29150,0.13869,-0.59304,5.76088,-0.52231,A,160302.40
5.32095,57.68789561,11.97919306,57.68789567,11.97919683,16:03:02.499346,0.01204,0.00000,0.00000,-0.02248,0.00000,-0.00143,0.00136,-0.00014,-0.03983,-0.11553,0.99198,5.31207,0.00000,6.80946,6.80946,-0.08531,-0.59921,5.29150,0.13869,-0.59304,5.76088,-0.52231,A,160302.40
5.34003,57.68789561,11.97919325,57.68789567,11.97919683,16:03:02.517483,0.01228,0.00000,0.00000,-0.02436,0.00000,0.00025,-0.00231,-0.00105,-0.03776,-0.11627,0.99216,5.33030,0.00000,6.65217,6.65217,-0.07411,-0.59890,5.29150,0.13869,-0.59304,5.76088,-0.52231,A,160302.40
5.35903,57.68789562,11.97919343,57.68789567,11.97919683,16:03:02.536474,0.00993,0.00000,0.00000,-0.02621,0.00000,-0.00113,0.00349,-0.00350,-0.03953,-0.11517,0.99393,5.35057,0.00000,6.51848,6.51848,-0.06347,-0.59861,5.29150,0.13869,-0.59304,5.76088,-0.52231,A,160302.40
5.37380,57.68789562,11.97919360,57.68789567,11.97919683,16:03:02.551248,0.01292,0.00000,0.00000,-0.02802,0.00000,-0.00128,-0.00032,0.00170,-0.03886,-0.11450,0.99369,5.36351,0.00000,6.40484,6.40484,-0.05336,-0.59833,5.29150,0.13869,-0.59304,5.76088,-0.52231,A,160302.40
5.39148,57.68789562,11.97919376,57.68789567,11.97919683,16:03:02.569813,0.01276,0.00000,0.00000,-0.02978,0.00000,0.00147,0.00105,0.00108,-0.04026,-0.11529,0.99332,5.38197,0.00000,6.30824,6.30824,-0.04376,-0.59807,5.29150,0.13869,-0.59304,5.76088,-0.52231,A,160302.40
5.42805,57.68789562,11.97919392,57.68789550,11.97919683,16:03:02.605486,0.02768,0.00000,0.00000,-0.03153,0.00000,-0.00143,-0.00048,0.00002,-0.04014,-0.11370,0.99302,5.40230,0.00000,6.22614,6.22614,-0.03464,-0.59781,5.41990,0.13869,-0.61157,4.71239,-1.57080,A,160302.50
5.44910,57.68789562,11.97919406,57.68789550,11.97919683,16:03:02.626573,0.01394,0.00000,0.00000,-0.03334,0.00000,-0.00235,0.00212,-0.00090,-0.04117,-0.11480,0.99235,5.43892,0.00000,5.99908,5.99908,-0.02597,-0.59850,5.41990,0.13869,-0.61157,4.71239,-1.57080,A,160302.50
5.46730,57.68789561,11.97919420,57.68789550,11.97919683,16:03:02.645479,0.01192,0.00000,0.00000,-0.03511,0.00000,-0.00357,0.00090,0.00261,-0.04002,-0.11560,0.99314,5.45822,0.00000,5.80607,5.80607,-0.01774,-0.59916,5.41990,0.13869,-0.61157,4.71239,-1.57080,A,160302.50
5.48594,57.68789561,11.97919433,57.68789550,11.97919683,16:03:02.663386,0.01217,0.00000,0.00000,-0.03690,0.00000,-0.00586,0.00212,0.00108,-0.03953,-0.11578,0.99186,5.47574,0.00000,5.64202,5.64202,-0.00992,-0.59978,5.41990,0.13869,-0.61157,4.71239,-1.57080,A,160302.50
5.50991,57.68789560,11.97919446,57.68789550,11.97919683,16:03:02.687377,0.01445,0.00000,0.00000,-0.03854,0.00000,0.00010,-0.00048,0.00017,-0.04026,-0.11468,0.99186,5.49806,0.00000,5.50258,5.50258,-0.00249,-0.60037,5.41990,0.13869,-0.61157,4.71239,-1.57080,A,160302.50
5.54729,57.68789560,11.97919458,57.68789550,11.97919600,16:03:02.725693,0.02799,0.00000,0.00000,-0.04026,0.00000,-0.00555,-0.00032,0.00292,-0.03636,-0.11340,0.99162,5.52159,0.00000,5.38405,5.38405,0.00457,-0.60093,5.53839,0.08916,-0.61157,3.14159,3.14159,A,160302.60
5.56368,57.68789559,11.97919465,57.68789550,11.97919600,16:03:02.741115,0.00900,0.00000,0.00000,-0.04193,0.00000,-0.00235,0.00258,0.00017,-0.03965,-0.11444,0.99357,5.55571,0.00000,5.04768,5.04768,0.00880,-0.60146,5.53839,0.08916,-0.61157,3.14159,3.14159,A,160302.60
5.57723,57.68789559,11.97919472,57.68789550,11.97919600,16:03:02.754680,0.01232,0.00000,0.00000,-0.04353,0.00000,-0.00281,-0.00078,-0.00014,-0.04014,-0.11535,0.99113,5.56706,0.00000,4.76177,4.76177,0.01282,-0.60196,5.53839,0.08916,-0.61157,3.14159,3.14159,A,160302.60
5.59915,57.68789558,11.97919478,57.68789550,11.97919600,16:03:02.776612,0.01443,0.00000,0.00000,-0.04509,0.00000,-0.00158,0.00441,0.00108,-0.04075,-0.11376,0.99277,5.58875,0.00000,4.51874,4.51874,0.01663,-0.60245,5.53839,0.08916,-0.61157,3.14159,3.14159,A,160302.60
5.62052,57.68789558,11.97919484,57.68789550,11.97919600,16:03:02.798747,0.01107,0.00000,0.00000,-0.04670,0.00000,-0.00189,-0.00139,0.00078,-0.03916,-0.11779,0.99338,5.61168,0.00000,4.31217,4.31217,0.02026,-0.60290,5.53839,0.08916,-0.61157,3.14159,3.14159,A,160302.60
5.63710,57.68789557,11.97919490,57.68789550,11.97919600,16:03:02.814539,0.00961,0.00000,0.00000,-0.04814,0.00000,0.00147,0.00227,-0.00258,-0.04197,-0.11303,0.99277,5.62796,0.00000,4.13658,4.13658,0.02370,-0.60333,5.53839,0.08916,-0.61157,3.14159,3.14159,A,160302.60
5.66424,57.68789557,11.97919495,57.68789567,11.97919600,16:03:02.841825,0.02623,0.00000,0.00000,-0.04960,0.00000,-0.00113,0.00044,-0.00228,-0.04178,-0.11322,0.99162,5.63895,0.00000,3.98733,3.98733,0.02698,-0.60375,5.65738,0.08916,-0.59304,1.57080,1.57080,A,160302.70
5.67975,57.68789558,11.97919501,57.68789567,11.97919600,16:03:02.857191,0.01062,0.00000,0.00000,-0.05103,0.00000,0.00086,-0.00124,0.00078,-0.03916,-0.11523,0.99290,5.67100,0.00000,3.62485,3.62485,0.03009,-0.60321,5.65738,0.08916,-0.59304,1.57080,1.57080,A,160302.70
5.69508,57.68789558,11.97919506,57.68789567,11.97919600,16:03:02.872539,0.01040,0.00000,0.00000,-0.05247,0.00000,-0.00051,0.00243,0.00063,-0.04050,-0.11450,0.99021,5.68508,0.00000,3.31674,3.31674,0.03304,-0.60270,5.65738,0.08916,-0.59304,1.57080,1.57080,A,160302.70
5.71269,57.68789558,11.97919510,57.68789567,11.97919600,16:03:02.890135,0.01073,0.00000,0.00000,-0.05381,0.00000,0.00239,0.00014,-0.00044,-0.03825,-0.11340,0.99235,5.70259,0.00000,3.05485,3.05485,0.03585,-0.60222,5.65738,0.08916,-0.59304,1.57080,1.57080,A,160302.70
5.73020,57.68789559,11.97919515,57.68789567,11.97919600,16:03:02.907641,0.01036,0.00000,0.00000,-0.05516,0.00000,0.00269,0.00014,-0.00029,-0.04014,-0.11590,0.99265,5.72228,0.00000,2.83224,2.83224,0.03851,-0.60176,5.65738,0.08916,-0.59304,1.57080,1.57080,A,160302.70
5.74991,57.68789559,11.97919519,57.68789567,11.97919600,16:03:02.927348,0.01281,0.00000,0.00000,-0.05659,0.00000,-0.00219,0.00014,0.00139,-0.03733,-0.11608,0.99040,5.74018,0.00000,2.64303,2.64303,0.04104,-0.60132,5.65738,0.08916,-0.59304,1.57080,1.57080,A,160302.70
5.79588,57.68789560,11.97919523,57.68789517,11.97920033,16:03:02.973331,0.03887,0.00000,0.00000,-0.05798,0.00000,-0.00082,-0.00261,0.00093,-0.04197,-0.11694,0.99509,5.75896,0.00000,2.48219,2.48219,0.04345,-0.60091,5.78615,0.34672,-0.64864,-0.21260,-0.21260,A,160302.90
5.81696,57.68789557,11.97919549,57.68789517,11.97920033,16:03:02.994424,0.01274,0.00000,0.00000,-0.05952,0.00000,-0.00479,-0.00154,-0.00105,-0.04087,-0.11407,0.99375,5.80643,0.00000,2.07797,2.07797,0.05861,-0.60330,5.78615,0.34672,-0.64864,-0.21260,-0.21260,A,160302.90
5.83555,57.68789555,11.97919573,57.68789517,11.97920033,16:03:03.012991,0.00970,0.00000,0.00000,-0.06084,0.00000,0.00040,0.00075,0.00017,-0.03855,-0.11682,0.99241,5.82748,0.00000,1.73439,1.73439,0.07302,-0.60556,5.78615,0.34672,-0.64864,-0.21260,-0.21260,A,160302.90
5.85035,57.68789553,11.97919596,57.68789517,11.97920033,16:03:03.027816,0.01257,0.00000,0.00000,-0.06210,0.00000,0.00208,0.00029,-0.00029,-0.04050,-0.11486,0.99223,5.83881,0.00000,1.44234,1.44234,0.08670,-0.60772,5.78615,0.34672,-0.64864,-0.21260,-0.21260,A,160302.90
5.86997,57.68789552,11.97919618,57.68789517,11.97920033,16:03:03.048174,0.01076,0.00000,0.00000,-0.06336,0.00000,-0.00067,0.00136,-0.00258,-0.03934,-0.11352,0.99143,5.86047,0.00000,1.19410,1.19410,0.09970,-0.60976,5.78615,0.34672,-0.64864,-0.21260,-0.21260,A,160302.90
5.90919,57.68789550,11.97919639,57.68789517,11.97920267,16:03:03.086641,0.03043,0.00000,0.00000,-0.06463,0.00000,-0.00189,0.00075,-0.00243,-0.03770,-0.11413,0.99332,5.88244,0.00000,0.98309,0.98309,0.11205,-0.61171,5.90014,0.48540,-0.64864,0.00000,0.00000,A,160303.00
5.93050,57.68789548,11.97919670,57.68789517,11.97920267,16:03:03.107943,0.01125,0.00000,0.00000,-0.06579,0.00000,0.00178,0.00136,0.00078,-0.03965,-0.11486,0.99247,5.92114,0.00000,0.83563,0.83563,0.13072,-0.61355,5.90014,0.48540,-0.64864,0.00000,0.00000,A,160303.00
5.94913,57.68789547,11.97919700,57.68789517,11.97920267,16:03:03.127288,0.01287,0.00000,0.00000,-0.06703,0.00000,0.00071,0.00197,-0.00121,-0.04191,-0.11743,0.99107,5.93917,0.00000,0.71029,0.71029,0.14846,-0.61531,5.90014,0.48540,-0.64864,0.00000,0.00000,A,160303.00
5.97068,57.68789545,11.97919728,57.68789517,11.97920267,16:03:03.148126,0.01203,0.00000,0.00000,-0.06809,0.00000,0.00544,0.00044,-0.00182,-0.03880,-0.11444,0.99223,5.96151,0.00000,0.60374,0.60374,0.16530,-0.61697,5.90014,0.48540,-0.64864,0.00000,0.00000,A,160303.00
5.99341,57.68789544,11.97919755,57.68789517,11.97920267,16:03:03.171133,0.01296,0.00000,0.00000,-0.06929,0.00000,-0.00051,0.00059,-0.00121,-0.03855,-0.11517,0.99149,5.98314,0.00000,0.51318,0.51318,0.18131,-0.61856,5.90014,0.48540,-0.64864,0.00000,0.00000,A,160303.00
6.03031,57.68789542,11.97919781,57.68789550,11.97920333,16:03:03.207749,0.02829,0.00000,0.00000,-0.07048,0.00000,-0.00219,-0.00063,0.00078,-0.04172,-0.11456,0.99216,6.00437,0.00000,0.43620,0.43620,0.19651,-0.62006,6.02139,0.52503,-0.61157,0.75203,0.75203,A,160303.10
6.04935,57.68789543,11.97919808,57.68789550,11.97920333,16:03:03.226800,0.01335,0.00000,0.00000,-0.07166,0.00000,-0.00067,-0.00139,0.00093,-0.04111,-0.11566,0.99253,6.03881,0.00000,0.48358,0.48358,0.21294,-0.61964,6.02139,0.52503,-0.61157,0.75203,0.75203,A,160303.10
6.07122,57.68789543,11.97919835,57.68789550,11.97920333,16:03:03.248666,0.01104,0.00000,0.00000,-0.07279,0.00000,-0.00051,0.00136,0.00047,-0.03965,-0.11499,0.99210,6.06174,0.00000,0.52385,0.52385,0.22854,-0.61923,6.02139,0.52503,-0.61157,0.75203,0.75203,A,160303.10
6.09346,57.68789543,11.97919859,57.68789550,11.97920333,16:03:03.270932,0.01396,0.00000,0.00000,-0.07396,0.00000,-0.00219,0.00151,-0.00121,-0.03934,-0.11566,0.99033,6.08276,0.00000,0.55807,0.55807,0.24337,-0.61885,6.02139,0.52503,-0.61157,0.75203,0.75203,A,160303.10
6.11540,57.68789544,11.97919883,57.68789550,11.97920333,16:03:03.292837,0.01273,0.00000,0.00000,-0.07508,0.00000,-0.00265,-0.00002,-0.00014,-0.03861,-0.11358,0.99265,6.10606,0.00000,0.58717,0.58717,0.25745,-0.61849,6.02139,0.52503,-0.61157,0.75203,0.75203,A,160303.10
6.15182,57.68789544,11.97919906,57.68789600,11.97920300,16:03:03.330080,0.02742,0.00000,0.00000,-0.07605,0.00000,0.00452,-0.00246,0.00124,-0.04221,-0.11413,0.99101,6.12669,0.00000,0.61190,0.61190,0.27083,-0.61814,6.14355,0.50522,-0.55597,1.91312,1.91312,A,160303.20
6.17468,57.68789547,11.97919925,57.68789600,11.97920300,16:03:03.352121,0.01185,0.00000,0.00000,-0.07715,0.00000,-0.00097,0.00395,0.00047,-0.03947,-0.11560,0.99363,6.16491,0.00000,0.80708,0.80708,0.28255,-0.61503,6.14355,0.50522,-0.55597,1.91312,1.91312,A,160303.20
