Time,lat_estimated,lon_estimated,latitude,longitude,RealTime,CalculationTime,MeasuredVelocity,FilteredVelocity,Roll,SteeringAngle,RollRate,gy,gz,ax,ay,az,imu_read_timing,v_estimated,yaw_estimated,heading_estimated,x_estimated,y_estimated,GPS_timestamp,x_GPS,y_GPS,theta_GPS,theta_GPS_noUnwrap,status,NMEA timestamp
0.05407,57.68777967,11.98148017,57.68777967,11.98148017,15:14:59.558825,0.05403,0.00000,0.00000,-0.00058,0.02502,0.02139,-0.00088,-0.00573,-0.02647,-0.02141,1.00333,0.00001,0.00000,-0.01528,0.00000,0.00000,0.00000,0.02505,0.00000,0.00000,0.00000,0.00000,A,141422.10
0.06450,57.68777967,11.98148017,57.68777967,11.98148017,15:14:59.569260,0.00559,0.00000,0.00000,0.00019,0.01970,0.02551,-0.00333,-0.00772,-0.02050,-0.01653,1.00016,0.05857,0.00000,-0.01479,-0.00276,0.00000,0.00000,0.02505,0.00000,0.00000,0.00000,0.00000,A,141422.10
0.07654,57.68777967,11.98148017,57.68777967,11.98148017,15:14:59.581306,0.00677,0.00000,0.00000,-0.00028,0.01834,0.02719,-0.00088,-0.00711,-0.02031,-0.01873,0.99778,0.06929,0.00000,-0.01425,-0.00305,0.00000,0.00000,0.02505,0.00000,0.00000,0.00000,0.00000,A,141422.10
0.08554,57.68777967,11.98148017,57.68777967,11.98148017,15:14:59.590301,0.00537,0.00000,0.00000,-0.00072,0.01704,0.02902,-0.00684,-0.00726,-0.01848,-0.01867,0.99857,0.07975,0.00000,-0.01368,-0.00327,0.00000,0.00000,0.02505,0.00000,0.00000,0.00000,0.00000,A,141422.10
0.09565,57.68777967,11.98148017,57.68777967,11.98148017,15:14:59.600410,0.00508,0.00000,0.00000,-0.00119,0.01582,0.02582,-0.00134,-0.00497,-0.01482,-0.01842,1.00022,0.09014,0.00000,-0.01307,-0.00341,0.00000,0.00000,0.02505,0.00000,0.00000,0.00000,0.00000,A,141422.10
0.10640,57.68777967,11.98148017,57.68777967,11.98148017,15:14:59.611154,0.00525,0.00000,0.00000,-0.00166,0.01455,0.02796,-0.00119,-0.00695,-0.01379,-0.02092,1.00321,0.10056,0.00000,-0.01245,-0.00356,0.00000,0.00000,0.02505,0.00000,0.00000,0.00000,0.00000,A,141422.10
0.11665,57.68777967,11.98148017,57.68777967,11.98148017,15:14:59.621400,0.00510,0.00000,0.00000,-0.00210,0.01336,0.02765,-0.00302,-0.00680,-0.00958,-0.01891,1.00253,0.11114,0.00000,-0.01180,-0.00364,0.00000,0.00000,0.02505,0.00000,0.00000,0.00000,0.00000,A,141422.10
0.14239,57.68777967,11.98148017,57.68778017,11.98148033,15:14:59.647515,0.02044,0.00000,0.00000,-0.00258,0.01223,0.02612,-0.00119,-0.00772,-0.00945,-0.02056,1.00473,0.12129,0.00000,-0.01115,-0.00369,0.00000,0.00000,0.13782,0.00991,0.05560,1.39447,1.39447,A,141422.20
0.15931,57.68777969,11.98148017,57.68778017,11.98148033,15:14:59.664090,0.00770,0.00000,0.00000,-0.00237,0.00903,0.02566,-0.00378,-0.00695,-0.01086,-0.00952,0.99814,0.15221,0.00000,0.19886,0.20438,0.00050,0.00278,0.13782,0.00991,0.05560,1.39447,1.39447,A,141422.20
0.16766,57.68777972,11.98148018,57.68778017,11.98148033,15:14:59.672421,0.00526,0.00000,0.00000,-0.00278,0.00815,0.01956,-0.00165,-0.00650,-0.01013,-0.01068,0.99869,0.16211,0.00000,0.37746,0.38244,0.00097,0.00542,0.13782,0.00991,0.05560,1.39447,1.39447,A,141422.20
0.17857,57.68777974,11.98148019,57.68778017,11.98148033,15:14:59.683332,0.00577,0.00000,0.00000,-0.00316,0.00730,0.02399,-0.00134,-0.00741,-0.00988,-0.01305,0.99686,0.17235,0.00000,0.52934,0.53380,0.00141,0.00793,0.13782,0.00991,0.05560,1.39447,1.39447,A,141422.20
0.18833,57.68777976,11.98148020,57.68778017,11.98148033,15:14:59.693083,0.00513,0.00000,0.00000,-0.00351,0.00662,0.02582,0.00064,-0.00665,-0.00799,-0.01299,0.99686,0.18280,0.00000,0.65850,0.66255,0.00184,0.01031,0.13782,0.00991,0.05560,1.39447,1.39447,A,141422.20
0.19898,57.68777978,11.98148020,57.68778017,11.98148033,15:14:59.703730,0.00553,0.00000,0.00000,-0.00389,0.00600,0.02215,-0.00241,-0.00497,-0.00500,-0.01244,0.99643,0.19284,0.00000,0.76835,0.77201,0.00224,0.01258,0.13782,0.00991,0.05560,1.39447,1.39447,A,141422.20
0.21002,57.68777980,11.98148021,57.68778017,11.98148033,15:14:59.714778,0.00631,0.00000,0.00000,-0.00415,0.00549,0.02673,-0.00165,-0.00619,-0.00311,-0.00848,0.99857,0.20341,0.00000,0.86176,0.86512,0.00262,0.01473,0.13782,0.00991,0.05560,1.39447,1.39447,A,141422.20
0.21922,57.68777982,11.98148022,57.68778017,11.98148033,15:14:59.723970,0.00511,0.00000,0.00000,-0.00440,0.00507,0.02704,-0.00455,-0.00466,-0.00561,-0.00793,1.00064,0.21347,0.00000,0.94121,0.94430,0.00299,0.01677,0.13782,0.00991,0.05560,1.39447,1.39447,A,141422.20
0.23011,57.68777983,11.98148022,57.68778017,11.98148033,15:14:59.734867,0.00559,0.00000,0.00000,-0.00467,0.00467,0.02399,0.00034,-0.00466,-0.00976,-0.00823,1.00473,0.22428,0.00000,1.00877,1.01162,0.00333,0.01871,0.13782,0.00991,0.05560,1.39447,1.39447,A,141422.20
0.25564,57.68777985,11.98148023,57.68778067,11.98148033,15:14:59.760401,0.02072,0.00000,0.00000,-0.00506,0.00436,0.01910,0.00080,-0.00634,-0.00689,-0.01226,1.00382,0.23452,0.00000,1.06622,1.06889,0.00366,0.02056,0.25101,0.00991,0.11119,1.57080,1.57080,A,141422.30
0.26794,57.68777989,11.98148023,57.68778067,11.98148033,15:14:59.772697,0.00736,0.00000,0.00000,-0.00514,0.00405,0.02078,0.00278,-0.00833,0.00030,-0.01702,0.99601,0.26237,0.00000,1.14154,1.14401,0.00397,0.02509,0.25101,0.00991,0.11119,1.57080,1.57080,A,141422.30
0.27622,57.68777993,11.98148024,57.68778067,11.98148033,15:14:59.780977,0.00524,0.00000,0.00000,-0.00570,0.00405,0.01345,-0.00104,-0.00634,-0.00134,-0.01897,0.99467,0.27068,0.00000,1.20556,1.20803,0.00427,0.02939,0.25101,0.00991,0.11119,1.57080,1.57080,A,141422.30
0.28663,57.68777997,11.98148024,57.68778067,11.98148033,15:14:59.791383,0.00521,0.00000,0.00000,-0.00618,0.00405,0.01070,-0.00134,-0.00619,-0.00079,-0.01336,0.99375,0.28082,0.00000,1.25997,1.26244,0.00455,0.03348,0.25101,0.00991,0.11119,1.57080,1.57080,A,141422.30
0.29743,57.68778000,11.98148025,57.68778067,11.98148033,15:14:59.802355,0.00561,0.00000,0.00000,-0.00648,0.00405,0.01055,-0.00271,-0.00283,-0.00305,-0.00275,0.99345,0.29154,0.00000,1.30622,1.30870,0.00482,0.03737,0.25101,0.00991,0.11119,1.57080,1.57080,A,141422.30
0.30745,57.68778004,11.98148025,57.68778067,11.98148033,15:14:59.812203,0.00523,0.00000,0.00000,-0.00678,0.00405,0.00948,-0.00271,-0.00084,-0.00458,-0.00122,0.99930,0.30171,0.00000,1.34554,1.34801,0.00508,0.04106,0.25101,0.00991,0.11119,1.57080,1.57080,A,141422.30
0.31880,57.68778007,11.98148026,57.68778067,11.98148033,15:14:59.823555,0.00618,0.00000,0.00000,-0.00712,0.00405,0.00795,-0.00333,0.00099,-0.00909,-0.00445,1.00772,0.31293,0.00000,1.37896,1.38143,0.00532,0.04457,0.25101,0.00991,0.11119,1.57080,1.57080,A,141422.30
0.32804,57.68778010,11.98148026,57.68778067,11.98148033,15:14:59.832793,0.00502,0.00000,0.00000,-0.00753,0.00405,0.00535,-0.00226,-0.00268,-0.01086,-0.00665,1.00662,0.32252,0.00000,1.40736,1.40983,0.00555,0.04790,0.25101,0.00991,0.11119,1.57080,1.57080,A,141422.30
0.33854,57.68778013,11.98148026,57.68778067,11.98148033,15:14:59.843298,0.00523,0.00000,0.00000,-0.00790,0.00405,-0.00014,0.00431,-0.00283,-0.00982,-0.00110,1.00369,0.33271,0.00000,1.43151,1.43398,0.00576,0.05106,0.25101,0.00991,0.11119,1.57080,1.57080,A,141422.30
0.34926,57.68778015,11.98148027,57.68778067,11.98148033,15:14:59.854030,0.00549,0.00000,0.00000,-0.00831,0.00405,-0.00656,0.00080,-0.00451,-0.00256,0.00104,1.00229,0.34337,0.00000,1.45203,1.45450,0.00597,0.05407,0.25101,0.00991,0.11119,1.57080,1.57080,A,141422.30
0.37375,57.68778018,11.98148027,57.68778100,11.98148033,15:14:59.878510,0.01957,0.00000,0.00000,-0.00878,0.00405,-0.00625,0.00370,-0.01047,0.00561,-0.00439,0.99997,0.35355,0.00000,1.46947,1.47195,0.00617,0.05693,0.36980,0.00991,0.14826,1.57080,1.57080,A,141422.40
0.38869,57.68778022,11.98148027,57.68778100,11.98148033,15:14:59.893727,0.00623,0.00000,0.00000,-0.00986,0.00405,-0.01755,-0.00149,-0.01184,-0.00506,-0.01543,0.99765,0.38315,0.00000,1.48430,1.48677,0.00635,0.06149,0.36980,0.00991,0.14826,1.57080,1.57080,A,141422.40
0.39838,57.68778026,11.98148028,57.68778100,11.98148033,15:14:59.903137,0.00535,0.00000,0.00000,-0.01056,0.00405,-0.02229,-0.00287,-0.01428,-0.01031,-0.01232,0.99418,0.39240,0.00000,1.49690,1.49938,0.00653,0.06583,0.36980,0.00991,0.14826,1.57080,1.57080,A,141422.40
0.40842,57.68778030,11.98148028,57.68778100,11.98148033,15:14:59.913184,0.00515,0.00000,0.00000,-0.01134,0.00405,-0.02336,-0.00180,-0.01474,-0.01641,-0.01531,0.99674,0.40289,0.00000,1.50762,1.51009,0.00670,0.06995,0.36980,0.00991,0.14826,1.57080,1.57080,A,141422.40
0.41894,57.68778033,11.98148028,57.68778100,11.98148033,15:14:59.923693,0.00542,0.00000,0.00000,-0.01208,0.00405,-0.02641,0.00339,-0.01489,-0.01385,-0.01153,0.99692,0.41295,0.00000,1.51672,1.51920,0.00686,0.07387,0.36980,0.00991,0.14826,1.57080,1.57080,A,141422.40
0.42995,57.68778036,11.98148028,57.68778100,11.98148033,15:14:59.934739,0.00603,0.00000,0.00000,-0.01288,0.00405,-0.02947,0.00080,-0.01505,-0.00092,-0.01379,1.00186,0.42351,0.00000,1.52446,1.52694,0.00701,0.07759,0.36980,0.00991,0.14826,1.57080,1.57080,A,141422.40
0.43941,57.68778040,11.98148029,57.68778100,11.98148033,15:14:59.944170,0.00510,0.00000,0.00000,-0.01366,0.00405,-0.02840,-0.00073,-0.01352,-0.00012,-0.01513,1.00644,0.43368,0.00000,1.53104,1.53351,0.00716,0.08112,0.36980,0.00991,0.14826,1.57080,1.57080,A,141422.40
0.45009,57.68778043,11.98148029,57.68778100,11.98148033,15:14:59.954844,0.00537,0.00000,0.00000,-0.01434,0.00405,-0.02550,0.00187,-0.01047,-0.01013,-0.01019,1.01236,0.44428,0.00000,1.53664,1.53911,0.00730,0.08448,0.36980,0.00991,0.14826,1.57080,1.57080,A,141422.40
0.46020,57.68778046,11.98148029,57.68778100,11.98148033,15:14:59.964957,0.00508,0.00000,0.00000,-0.01497,0.00405,-0.02885,0.00294,-0.00482,-0.01708,-0.00567,1.00985,0.45469,0.00000,1.54139,1.54386,0.00743,0.08767,0.36980,0.00991,0.14826,1.57080,1.57080,A,141422.40
0.48601,57.68778048,11.98148029,57.68778133,11.98148017,15:14:59.990765,0.02058,0.00000,0.00000,-0.01558,0.00405,-0.02672,0.00477,-0.00252,-0.01568,-0.00671,1.00449,0.46483,0.00000,1.54543,1.54790,0.00755,0.09070,0.48158,0.00000,0.18532,1.83196,1.83196,A,141422.50
0.49983,57.68778052,11.98148029,57.68778133,11.98148017,15:15:00.004591,0.00753,0.00000,0.00000,-0.01687,0.00405,-0.03069,-0.00287,-0.00680,0.00360,-0.01074,0.98777,0.49425,0.00000,1.58804,1.59051,0.00717,0.09543,0.48158,0.00000,0.18532,1.83196,1.83196,A,141422.50
0.50779,57.68778057,11.98148028,57.68778133,11.98148017,15:15:00.012543,0.00509,0.00000,0.00000,-0.01745,0.00405,-0.03038,-0.00439,-0.00161,-0.01952,-0.00872,0.99210,0.50226,0.00000,1.62426,1.62673,0.00681,0.09992,0.48158,0.00000,0.18532,1.83196,1.83196,A,141422.50
0.51856,57.68778060,11.98148028,57.68778133,11.98148017,15:15:00.023318,0.00521,0.00000,0.00000,-0.01814,0.00405,-0.03206,0.00019,-0.00726,-0.03361,-0.01037,1.00034,0.51277,0.00000,1.65504,1.65751,0.00647,0.10419,0.48158,0.00000,0.18532,1.83196,1.83196,A,141422.50
0.52923,57.68778064,11.98148027,57.68778133,11.98148017,15:15:00.033997,0.00547,0.00000,0.00000,-0.01895,0.00405,-0.03313,0.00507,-0.00420,-0.02196,-0.01818,1.00729,0.52334,0.00000,1.68121,1.68368,0.00615,0.10825,0.48158,0.00000,0.18532,1.83196,1.83196,A,141422.50
0.53927,57.68778067,11.98148026,57.68778133,11.98148017,15:15:00.044022,0.00512,0.00000,0.00000,-0.01980,0.00405,-0.02840,0.00904,-0.00543,0.00525,-0.02525,1.00192,0.53352,0.00000,1.70345,1.70592,0.00584,0.11210,0.48158,0.00000,0.18532,1.83196,1.83196,A,141422.50
0.55018,57.68778071,11.98148026,57.68778133,11.98148017,15:15:00.054943,0.00563,0.00000,0.00000,-0.02063,0.00405,-0.03512,0.00660,0.00022,0.01086,-0.01964,1.00016,0.54413,0.00000,1.72235,1.72483,0.00555,0.11576,0.48158,0.00000,0.18532,1.83196,1.83196,A,141422.50
0.56016,57.68778074,11.98148026,57.68778133,11.98148017,15:15:00.064910,0.00520,0.00000,0.00000,-0.02127,0.00405,-0.03298,0.00110,-0.00405,-0.01897,-0.00945,1.00436,0.55464,0.00000,1.73842,1.74090,0.00527,0.11924,0.48158,0.00000,0.18532,1.83196,1.83196,A,141422.50
0.57068,57.68778077,11.98148025,57.68778133,11.98148017,15:15:00.075443,0.00537,0.00000,0.00000,-0.02196,0.00405,-0.03451,0.00523,0.00129,-0.02885,-0.01299,1.00406,0.56471,0.00000,1.75208,1.75456,0.00501,0.12255,0.48158,0.00000,0.18532,1.83196,1.83196,A,141422.50
0.58133,57.68778080,11.98148025,57.68778133,11.98148017,15:15:00.086088,0.00561,0.00000,0.00000,-0.02276,0.00405,-0.03557,0.00904,-0.00039,-0.00976,-0.01928,1.00058,0.57556,0.00000,1.76369,1.76617,0.00476,0.12569,0.48158,0.00000,0.18532,1.83196,1.83196,A,141422.50
0.61615,57.68778082,11.98148024,57.68778250,11.98148000,15:15:00.120907,0.02997,0.00000,0.00000,-0.02381,0.00405,-0.03893,0.00813,-0.00146,0.02074,-0.03593,0.99308,0.58555,0.00000,1.77356,1.77603,0.00452,0.12867,0.61276,-0.00991,0.31505,1.64701,1.64701,A,141422.70
0.62655,57.68778091,11.98148023,57.68778250,11.98148000,15:15:00.131311,0.00531,0.00000,0.00000,-0.02600,0.00405,-0.05634,0.00523,-0.01489,-0.02934,-0.00823,1.00168,0.62067,0.00000,1.75421,1.75668,0.00380,0.13799,0.61276,-0.00991,0.31505,1.64701,1.64701,A,141422.70
0.63677,57.68778099,11.98148022,57.68778250,11.98148000,15:15:00.141778,0.00511,0.00000,0.00000,-0.02703,0.00405,-0.05558,0.00813,-0.02253,0.00018,-0.02501,0.99753,0.63125,0.00000,1.73776,1.74023,0.00311,0.14684,0.61276,-0.00991,0.31505,1.64701,1.64701,A,141422.70
0.64716,57.68778106,11.98148021,57.68778250,11.98148000,15:15:00.151922,0.00511,0.00000,0.00000,-0.02806,0.00405,-0.05222,0.00599,-0.02299,0.02062,-0.02946,0.99589,0.64141,0.00000,1.72378,1.72625,0.00246,0.15525,0.61276,-0.00991,0.31505,1.64701,1.64701,A,141422.70
0.65804,57.68778113,11.98148020,57.68778250,11.98148000,15:15:00.162796,0.00558,0.00000,0.00000,-0.02921,0.00405,-0.06169,0.00309,-0.02620,0.00744,-0.03099,0.99528,0.65204,0.00000,1.71189,1.71436,0.00184,0.16324,0.61276,-0.00991,0.31505,1.64701,1.64701,A,141422.70
0.66792,57.68778120,11.98148019,57.68778250,11.98148000,15:15:00.172681,0.00507,0.00000,0.00000,-0.03036,0.00405,-0.05955,0.00507,-0.02833,-0.01031,-0.03349,0.99314,0.66241,0.00000,1.70179,1.70426,0.00126,0.17083,0.61276,-0.00991,0.31505,1.64701,1.64701,A,141422.70
0.67878,57.68778127,11.98148018,57.68778250,11.98148000,15:15:00.183535,0.00548,0.00000,0.00000,-0.03143,0.00405,-0.06337,0.00553,-0.03108,-0.02269,-0.02751,0.99448,0.67269,0.00000,1.69320,1.69567,0.00070,0.17804,0.61276,-0.00991,0.31505,1.64701,1.64701,A,141422.70
0.69045,57.68778133,11.98148017,57.68778250,11.98148000,15:15:00.195211,0.00641,0.00000,0.00000,-0.03262,0.00405,-0.06367,0.00675,-0.02681,-0.01879,-0.03056,0.99729,0.68442,0.00000,1.68590,1.68837,0.00017,0.18489,0.61276,-0.00991,0.31505,1.64701,1.64701,A,141422.70
0.69973,57.68778139,11.98148016,57.68778250,11.98148000,15:15:00.204494,0.00528,0.00000,0.00000,-0.03341,0.00405,-0.05772,0.00813,-0.02558,0.00665,-0.01739,0.99778,0.69419,0.00000,1.67970,1.68217,-0.00034,0.19140,0.61276,-0.00991,0.31505,1.64701,1.64701,A,141422.70
0.71024,57.68778144,11.98148015,57.68778250,11.98148000,15:15:00.214997,0.00521,0.00000,0.00000,-0.03437,0.00402,-0.05451,0.00538,-0.01978,0.02611,-0.02983,1.00680,0.70441,0.00000,1.67443,1.67688,-0.00081,0.19758,0.61276,-0.00991,0.31505,1.64701,1.64701,A,141422.70
0.73712,57.68778150,11.98148015,57.68778300,11.98147950,15:15:00.241882,0.02169,0.00000,0.00000,-0.03550,0.00391,-0.05100,0.00324,-0.01993,0.01074,-0.04398,1.01455,0.71504,0.00000,1.66996,1.67234,-0.00127,0.20346,0.73371,-0.03962,0.37065,2.06169,2.06169,A,141422.80
0.75196,57.68778157,11.98148011,57.68778300,11.98147950,15:15:00.256757,0.00885,0.00000,0.00000,-0.03743,0.00314,-0.05329,0.00568,-0.02009,-0.00616,-0.02891,1.00382,0.74467,0.00000,1.72843,1.73035,-0.00319,0.21182,0.73371,-0.03962,0.37065,2.06169,2.06169,A,141422.80
0.75889,57.68778164,11.98148008,57.68778300,11.98147950,15:15:00.263647,0.00560,0.00000,0.00000,-0.03813,0.00308,-0.04978,0.00095,-0.01734,-0.00268,-0.02538,0.99302,0.75308,0.00000,1.77813,1.78002,-0.00501,0.21976,0.73371,-0.03962,0.37065,2.06169,2.06169,A,141422.80
0.77086,57.68778171,11.98148005,57.68778300,11.98147950,15:15:00.275620,0.00717,0.00000,0.00000,-0.03879,0.00308,-0.04749,0.00034,-0.01795,-0.00409,-0.01861,0.96874,0.76342,0.00000,1.82038,1.82227,-0.00674,0.22730,0.73371,-0.03962,0.37065,2.06169,2.06169,A,141422.80
0.77955,57.68778178,11.98148003,57.68778300,11.98147950,15:15:00.284305,0.00546,0.00000,0.00000,-0.03953,0.00308,-0.04306,0.00706,-0.01810,-0.01427,-0.02782,0.98137,0.77346,0.00000,1.85630,1.85818,-0.00838,0.23447,0.73371,-0.03962,0.37065,2.06169,2.06169,A,141422.80
0.79070,57.68778184,11.98148000,57.68778300,11.98147950,15:15:00.295459,0.00621,0.00000,0.00000,-0.04052,0.00308,-0.03512,0.00630,-0.01153,-0.01501,-0.04910,0.98472,0.78407,0.00000,1.88682,1.88871,-0.00995,0.24128,0.73371,-0.03962,0.37065,2.06169,2.06169,A,141422.80
0.80003,57.68778189,11.98147997,57.68778300,11.98147950,15:15:00.304788,0.00514,0.00000,0.00000,-0.04159,0.00308,-0.04061,0.00614,-0.01444,-0.00860,-0.05301,0.99961,0.79450,0.00000,1.91277,1.91465,-0.01143,0.24775,0.73371,-0.03962,0.37065,2.06169,2.06169,A,141422.80
0.81070,57.68778195,11.98147995,57.68778300,11.98147950,15:15:00.315449,0.00539,0.00000,0.00000,-0.04222,0.00308,-0.03405,0.00156,-0.01153,0.00323,-0.02971,1.00687,0.80468,0.00000,1.93482,1.93671,-0.01284,0.25389,0.73371,-0.03962,0.37065,2.06169,2.06169,A,141422.80
0.82131,57.68778200,11.98147993,57.68778300,11.98147950,15:15:00.326073,0.00561,0.00000,0.00000,-0.04261,0.00308,-0.03237,-0.00088,-0.00863,0.00854,-0.01452,1.01309,0.81553,0.00000,1.95357,1.95546,-0.01418,0.25973,0.73371,-0.03962,0.37065,2.06169,2.06169,A,141422.80
0.83137,57.68778205,11.98147991,57.68778300,11.98147950,15:15:00.336126,0.00527,0.00000,0.00000,-0.04312,0.00308,-0.03023,-0.00516,-0.00634,-0.00311,-0.02580,1.01589,0.82547,0.00000,1.96951,1.97139,-0.01545,0.26528,0.73371,-0.03962,0.37065,2.06169,2.06169,A,141422.80
0.85646,57.68778210,11.98147989,57.68778350,11.98147867,15:15:00.361216,0.01996,0.00000,0.00000,-0.04377,0.00308,-0.02809,-0.00394,-0.00497,-0.02580,-0.03684,1.01626,0.83609,0.00000,1.98305,1.98493,-0.01666,0.27055,0.85258,-0.08916,0.42625,2.29855,2.29855,A,141422.90
0.87148,57.68778217,11.98147983,57.68778350,11.98147867,15:15:00.376226,0.00735,0.00000,0.00000,-0.04473,0.00308,-0.02290,0.00171,-0.00940,0.00372,-0.03172,0.99094,0.86571,0.00000,2.03009,2.03198,-0.02028,0.27833,0.85258,-0.08916,0.42625,2.29855,2.29855,A,141422.90
0.87995,57.68778224,11.98147977,57.68778350,11.98147867,15:15:00.384701,0.00542,0.00000,0.00000,-0.04523,0.00308,-0.02290,-0.00012,-0.01092,0.00555,-0.03410,0.99101,0.87408,0.00000,2.07008,2.07196,-0.02373,0.28573,0.85258,-0.08916,0.42625,2.29855,2.29855,A,141422.90
0.89033,57.68778230,11.98147971,57.68778350,11.98147867,15:15:00.395086,0.00523,0.00000,0.00000,-0.04590,0.00308,-0.02168,-0.00409,-0.01428,0.00110,-0.04319,0.99119,0.88450,0.00000,2.10407,2.10595,-0.02700,0.29275,0.85258,-0.08916,0.42625,2.29855,2.29855,A,141422.90
0.90060,57.68778236,11.98147966,57.68778350,11.98147867,15:15:00.405356,0.00510,0.00000,0.00000,-0.04658,0.00308,-0.02122,-0.00699,-0.01474,0.00061,-0.04496,0.98796,0.89509,0.00000,2.13296,2.13484,-0.03011,0.29943,0.85258,-0.08916,0.42625,2.29855,2.29855,A,141422.90
0.91148,57.68778242,11.98147961,57.68778350,11.98147867,15:15:00.416238,0.00558,0.00000,0.00000,-0.04743,0.00308,-0.02198,-0.00653,-0.01489,-0.00592,-0.05642,0.98771,0.90571,0.00000,2.15752,2.15940,-0.03306,0.30577,0.85258,-0.08916,0.42625,2.29855,2.29855,A,141422.90
0.92169,57.68778247,11.98147956,57.68778350,11.98147867,15:15:00.426449,0.00538,0.00000,0.00000,-0.04832,0.00308,-0.02656,-0.00684,-0.01856,-0.01690,-0.05691,0.98966,0.91590,0.00000,2.17839,2.18027,-0.03586,0.31179,0.85258,-0.08916,0.42625,2.29855,2.29855,A,141422.90
0.93179,57.68778252,11.98147952,57.68778350,11.98147867,15:15:00.436543,0.00509,0.00000,0.00000,-0.04896,0.00308,-0.02152,-0.00226,-0.01474,-0.01830,-0.04502,0.99753,0.92627,0.00000,2.19613,2.19801,-0.03853,0.31751,0.85258,-0.08916,0.42625,2.29855,2.29855,A,141422.90
0.94255,57.68778257,11.98147948,57.68778350,11.98147867,15:15:00.447306,0.00520,0.00000,0.00000,-0.04955,0.00308,-0.01878,0.00156,-0.01581,-0.01043,-0.04477,1.00394,0.93674,0.00000,2.21121,2.21310,-0.04106,0.32295,0.85258,-0.08916,0.42625,2.29855,2.29855,A,141422.90
0.96758,57.68778262,11.98147944,57.68778383,11.98147833,15:15:00.472338,0.01977,0.00000,0.00000,-0.05007,0.00308,-0.01710,-0.00210,-0.01337,0.01372,-0.04087,1.00595,0.94755,0.00000,2.22403,2.22591,-0.04347,0.32812,0.96384,-0.10897,0.46331,2.06169,2.06169,A,141423.00
0.98147,57.68778268,11.98147938,57.68778383,11.98147833,15:15:00.486249,0.00767,0.00000,0.00000,-0.05056,0.00308,-0.01114,-0.00699,-0.01596,-0.00366,-0.03337,1.00485,0.97326,0.00000,2.19940,2.20128,-0.04674,0.33488,0.96384,-0.10897,0.46331,2.06169,2.06169,A,141423.00
0.98978,57.68778274,11.98147933,57.68778383,11.98147833,15:15:00.494533,0.00556,0.00000,0.00000,-0.05065,0.00308,-0.00534,-0.00943,-0.01245,-0.00848,-0.02153,1.00046,0.98395,0.00000,2.17846,2.18034,-0.04985,0.34130,0.96384,-0.10897,0.46331,2.06169,2.06169,A,141423.00
0.99985,57.68778279,11.98147928,57.68778383,11.98147833,15:15:00.504601,0.00523,0.00000,0.00000,-0.05101,0.00308,-0.00243,-0.00775,-0.01352,0.00317,-0.04136,0.99412,0.99431,0.00000,2.16066,2.16254,-0.05281,0.34740,0.96384,-0.10897,0.46331,2.06169,2.06169,A,141423.00
1.01040,57.68778284,11.98147923,57.68778383,11.98147833,15:15:00.515151,0.00523,0.00000,0.00000,-0.05165,0.00308,-0.00060,-0.01005,-0.01505,-0.01220,-0.06179,0.99467,1.00455,0.00000,2.14553,2.14741,-0.05562,0.35319,0.96384,-0.10897,0.46331,2.06169,2.06169,A,141423.00
1.02120,57.68778289,11.98147919,57.68778383,11.98147833,15:15:00.525979,0.00527,0.00000,0.00000,-0.05220,0.00308,-0.00473,-0.00760,-0.01383,-0.03538,-0.05435,1.00363,1.01530,0.00000,2.13267,2.13456,-0.05828,0.35870,0.96384,-0.10897,0.46331,2.06169,2.06169,A,141423.00
1.03215,57.68778294,11.98147914,57.68778383,11.98147833,15:15:00.536901,0.00619,0.00000,0.00000,-0.05251,0.00308,0.00474,0.00248,-0.01321,-0.03184,-0.04514,1.00583,1.02532,0.00000,2.12174,2.12363,-0.06082,0.36393,0.96384,-0.10897,0.46331,2.06169,2.06169,A,141423.00
1.04192,57.68778298,11.98147910,57.68778383,11.98147833,15:15:00.546677,0.00555,0.00000,0.00000,-0.05263,0.00308,0.00459,0.00462,-0.01321,-0.01196,-0.03221,0.99381,1.03595,0.00000,2.11245,2.11433,-0.06322,0.36890,0.96384,-0.10897,0.46331,2.06169,2.06169,A,141423.00
1.05186,57.68778303,11.98147906,57.68778383,11.98147833,15:15:00.556618,0.00510,0.00000,0.00000,-0.05280,0.00308,0.00856,0.00538,-0.01047,-0.00482,-0.03916,1.00711,1.04634,0.00000,2.10455,2.10644,-0.06551,0.37362,0.96384,-0.10897,0.46331,2.06169,2.06169,A,141423.00
1.06265,57.68778307,11.98147903,57.68778383,11.98147833,15:15:00.567403,0.00521,0.00000,0.00000,-0.05298,0.00308,0.01406,0.00080,-0.01276,-0.00775,-0.04349,1.00382,1.05685,0.00000,2.09784,2.09972,-0.06768,0.37810,0.96384,-0.10897,0.46331,2.06169,2.06169,A,141423.00
1.08787,57.68778311,11.98147899,57.68778417,11.98147817,15:15:00.592624,0.02002,0.00000,0.00000,-0.05309,0.00308,0.01772,0.00217,-0.01551,-0.02989,-0.04197,1.01480,1.06745,0.00000,2.09213,2.09402,-0.06975,0.38237,1.08408,-0.11887,0.50038,1.83196,1.83196,A,141423.10
1.10290,57.68778316,11.98147895,57.68778417,11.98147817,15:15:00.607655,0.00815,0.00000,0.00000,-0.05275,0.00308,0.02246,0.00126,-0.01138,0.00152,-0.04325,1.00333,1.09691,0.00000,2.05283,2.05471,-0.07221,0.38827,1.08408,-0.11887,0.50038,1.83196,1.83196,A,141423.10
1.11059,57.68778321,11.98147891,57.68778417,11.98147817,15:15:00.615339,0.00519,0.00000,0.00000,-0.05299,0.00308,0.02551,0.00003,-0.01321,0.00195,-0.05081,0.99869,1.10479,0.00000,2.01941,2.02130,-0.07454,0.39387,1.08408,-0.11887,0.50038,1.83196,1.83196,A,141423.10
1.12114,57.68778326,11.98147888,57.68778417,11.98147817,15:15:00.625906,0.00535,0.00000,0.00000,-0.05295,0.00308,0.02689,-0.00607,-0.01062,-0.00110,-0.03739,0.99454,1.11538,0.00000,1.99101,1.99290,-0.07676,0.39920,1.08408,-0.11887,0.50038,1.83196,1.83196,A,141423.10
1.13139,57.68778330,11.98147884,57.68778417,11.98147817,15:15:00.636141,0.00520,0.00000,0.00000,-0.05288,0.00308,0.02933,-0.00791,-0.01474,-0.03782,-0.03654,0.99387,1.12555,0.00000,1.96687,1.96876,-0.07886,0.40426,1.08408,-0.11887,0.50038,1.83196,1.83196,A,141423.10
1.14197,57.68778335,11.98147881,57.68778417,11.98147817,15:15:00.646718,0.00537,0.00000,0.00000,-0.05246,0.00308,0.02505,-0.00485,-0.01215,-0.03648,-0.01122,1.00327,1.13617,0.00000,1.94635,1.94824,-0.08086,0.40906,1.08408,-0.11887,0.50038,1.83196,1.83196,A,141423.10
1.15204,57.68778339,11.98147877,57.68778417,11.98147817,15:15:00.656794,0.00504,0.00000,0.00000,-0.05214,0.00308,0.03086,0.00019,-0.01077,-0.01037,-0.02086,0.99790,1.14652,0.00000,1.92891,1.93079,-0.08276,0.41363,1.08408,-0.11887,0.50038,1.83196,1.83196,A,141423.10
1.16265,57.68778343,11.98147874,57.68778417,11.98147817,15:15:00.667410,0.00534,0.00000,0.00000,-0.05200,0.00308,0.02612,-0.00378,-0.00787,-0.01171,-0.02873,0.99424,1.15669,0.00000,1.91408,1.91597,-0.08457,0.41797,1.08408,-0.11887,0.50038,1.83196,1.83196,A,141423.10
1.17307,57.68778346,11.98147871,57.68778417,11.98147817,15:15:00.677838,0.00537,0.00000,0.00000,-0.05188,0.00308,0.02902,-0.00241,-0.00375,-0.01891,-0.03257,0.98179,1.16732,0.00000,1.90148,1.90337,-0.08628,0.42209,1.08408,-0.11887,0.50038,1.83196,1.83196,A,141423.10
1.18346,57.68778350,11.98147869,57.68778417,11.98147817,15:15:00.688218,0.00535,0.00000,0.00000,-0.05186,0.00317,0.02704,0.00034,-0.00466,-0.02190,-0.03715,0.97752,1.17792,0.00000,1.89076,1.89270,-0.08791,0.42600,1.08408,-0.11887,0.50038,1.83196,1.83196,A,141423.10
1.22074,57.68778353,11.98147866,57.68778550,11.98147717,15:15:00.725731,0.03223,0.00000,0.00000,-0.05156,0.00348,0.03070,-0.00104,-0.00130,-0.00744,-0.02080,0.98192,1.18807,0.00000,1.88162,1.88375,-0.08946,0.42972,1.21738,-0.17831,0.64864,1.95208,1.95208,A,141423.30
1.23120,57.68778363,11.98147859,57.68778550,11.98147717,15:15:00.735959,0.00525,0.00000,0.00000,-0.05090,0.00767,0.02383,-0.00760,0.00129,-0.02050,-0.03569,1.01937,1.22539,0.00000,1.89149,1.89617,-0.09390,0.44067,1.21738,-0.17831,0.64864,1.95208,1.95208,A,141423.30
1.24180,57.68778372,11.98147852,57.68778550,11.98147717,15:15:00.746551,0.00544,0.00000,0.00000,-0.05087,0.00903,0.01375,-0.00485,0.00145,-0.02489,-0.02800,1.02053,1.23596,0.00000,1.89975,1.90526,-0.09812,0.45106,1.21738,-0.17831,0.64864,1.95208,1.95208,A,141423.30
1.25185,57.68778381,11.98147845,57.68778550,11.98147717,15:15:00.756598,0.00509,0.00000,0.00000,-0.05065,0.01010,0.01055,-0.00669,-0.00756,-0.01995,-0.01189,1.00558,1.24632,0.00000,1.90667,1.91284,-0.10213,0.46094,1.21738,-0.17831,0.64864,1.95208,1.95208,A,141423.30
1.26252,57.68778390,11.98147838,57.68778550,11.98147717,15:15:00.767275,0.00522,0.00000,0.00000,-0.05027,0.01098,0.00077,-0.00791,-0.00817,-0.00293,0.00525,0.99277,1.25670,0.00000,1.91248,1.91919,-0.10594,0.47033,1.21738,-0.17831,0.64864,1.95208,1.95208,A,141423.30
1.27306,57.68778398,11.98147832,57.68778550,11.98147717,15:15:00.777828,0.00513,0.00000,0.00000,-0.05004,0.01166,0.00322,-0.01386,-0.00924,-0.00262,-0.00598,0.98369,1.26730,0.00000,1.91735,1.92447,-0.10956,0.47924,1.21738,-0.17831,0.64864,1.95208,1.95208,A,141423.30
1.28344,57.68778405,11.98147827,57.68778550,11.98147717,15:15:00.788200,0.00534,0.00000,0.00000,-0.04980,0.01231,0.00780,-0.00867,-0.00802,-0.01336,-0.00842,0.98222,1.27771,0.00000,1.92143,1.92895,-0.11300,0.48771,1.21738,-0.17831,0.64864,1.95208,1.95208,A,141423.30
1.29405,57.68778413,11.98147821,57.68778550,11.98147717,15:15:00.798797,0.00554,0.00000,0.00000,-0.04992,0.01302,0.00031,-0.00684,-0.00863,-0.02300,-0.02605,0.98936,1.28810,0.00000,1.92484,1.93279,-0.11626,0.49576,1.21738,-0.17831,0.64864,1.95208,1.95208,A,141423.30
1.30558,57.68778419,11.98147816,57.68778550,11.98147717,15:15:00.810343,0.00666,0.00000,0.00000,-0.05018,0.01390,0.00291,-0.00546,-0.00497,-0.03733,-0.03898,1.01101,1.29953,0.00000,1.92765,1.93614,-0.11937,0.50340,1.21738,-0.17831,0.64864,1.95208,1.95208,A,141423.30
1.31451,57.68778426,11.98147811,57.68778550,11.98147717,15:15:00.819260,0.00521,0.00000,0.00000,-0.05037,0.01472,-0.00014,-0.00256,0.00084,-0.03989,-0.03245,1.01968,1.30868,0.00000,1.92997,1.93895,-0.12231,0.51066,1.21738,-0.17831,0.64864,1.95208,1.95208,A,141423.30
1.34025,57.68778432,11.98147806,57.68778533,11.98147633,15:15:00.844999,0.02055,0.00000,0.00000,-0.05056,0.01574,-0.00992,-0.00058,0.00557,-0.02007,-0.02477,1.01614,1.31943,0.00000,1.93184,1.94145,-0.12511,0.51756,1.33656,-0.22784,0.63010,-2.78356,-2.78356,A,141423.40
1.35599,57.68778437,11.98147798,57.68778533,11.98147633,15:15:00.860738,0.00774,0.00000,0.00000,-0.05093,0.01826,-0.01480,-0.00195,0.00282,-0.00512,-0.01482,0.98887,1.34960,0.00000,1.22286,1.23401,-0.13025,0.52319,1.33656,-0.22784,0.63010,-2.78356,-2.78356,A,141423.40
1.36394,57.68778442,11.98147789,57.68778533,11.98147633,15:15:00.868701,0.00506,0.00000,0.00000,-0.05085,0.01905,-0.01435,-0.00439,0.00221,-0.01568,-0.00634,1.00070,1.35843,0.00000,0.62015,0.63178,-0.13513,0.52854,1.33656,-0.22784,0.63010,-2.78356,-2.78356,A,141423.40
1.37465,57.68778447,11.98147782,57.68778533,11.98147633,15:15:00.879406,0.00535,0.00000,0.00000,-0.05103,0.01987,-0.01389,-0.00623,0.00236,-0.02336,-0.02214,0.99668,1.36868,0.00000,0.10777,0.11991,-0.13977,0.53361,1.33656,-0.22784,0.63010,-2.78356,-2.78356,A,141423.40
1.38513,57.68778451,11.98147774,57.68778533,11.98147633,15:15:00.889896,0.00539,0.00000,0.00000,-0.05141,0.02072,-0.01908,-0.00592,0.00114,-0.04172,-0.03135,0.98899,1.37938,0.00000,-0.32782,-0.31517,-0.14417,0.53844,1.33656,-0.22784,0.63010,-2.78356,-2.78356,A,141423.40
1.39555,57.68778455,11.98147767,57.68778533,11.98147633,15:15:00.900301,0.00540,0.00000,0.00000,-0.05188,0.02159,-0.02595,0.00248,-0.00023,-0.02702,-0.03434,0.99717,1.38951,0.00000,-0.69816,-0.68497,-0.14835,0.54302,1.33656,-0.22784,0.63010,-2.78356,-2.78356,A,141423.40
1.40693,57.68778459,11.98147760,57.68778533,11.98147633,15:15:00.911684,0.00633,0.00000,0.00000,-0.05238,0.02253,-0.03466,-0.00012,-0.00298,-0.02324,-0.02904,0.99046,1.40029,0.00000,-1.01304,-0.99928,-0.15233,0.54738,1.33656,-0.22784,0.63010,-2.78356,-2.78356,A,141423.40
1.41615,57.68778463,11.98147754,57.68778533,11.98147633,15:15:00.920908,0.00516,0.00000,0.00000,-0.05237,0.02343,-0.03359,-0.00058,0.00252,-0.01641,0.00195,0.98735,1.41063,0.00000,-1.28076,-1.26645,-0.15610,0.55151,1.33656,-0.22784,0.63010,-2.78356,-2.78356,A,141423.40
1.42652,57.68778466,11.98147748,57.68778533,11.98147633,15:15:00.931264,0.00520,0.00000,0.00000,-0.05259,0.02431,-0.03298,-0.00424,0.00190,-0.00933,-0.01415,0.99198,1.42070,0.00000,-1.50841,-1.49356,-0.15969,0.55544,1.33656,-0.22784,0.63010,-2.78356,-2.78356,A,141423.40
1.43682,57.68778470,11.98147742,57.68778533,11.98147633,15:15:00.941937,0.00511,0.00000,0.00000,-0.05277,0.02519,-0.03359,-0.00653,0.00481,-0.02062,-0.01000,0.99869,1.43131,0.00000,-1.70199,-1.68660,-0.16310,0.55918,1.33656,-0.22784,0.63010,-2.78356,-2.78356,A,141423.40
1.46160,57.68778473,11.98147737,57.68778617,11.98147667,15:15:00.966358,0.01948,0.00000,0.00000,-0.05329,0.02598,-0.04214,-0.00684,0.00908,-0.04276,-0.02824,1.01303,1.44148,0.00000,-1.86660,-1.85074,-0.16634,0.56272,1.45783,-0.20803,0.72277,1.36016,1.36016,A,141423.50
1.47723,57.68778480,11.98147733,57.68778617,11.98147667,15:15:00.981995,0.00759,0.00000,0.00000,-0.05505,0.02796,-0.05344,0.00462,0.00450,-0.01104,-0.03453,0.99936,1.47142,0.00000,-1.38515,-1.36807,-0.16842,0.57072,1.45783,-0.20803,0.72277,1.36016,1.36016,A,141423.50
1.48556,57.68778487,11.98147730,57.68778617,11.98147667,15:15:00.990321,0.00543,0.00000,0.00000,-0.05543,0.02856,-0.05237,-0.00027,0.00206,-0.02446,-0.02050,0.99613,1.47976,0.00000,-0.97597,-0.95853,-0.17040,0.57833,1.45783,-0.20803,0.72277,1.36016,1.36016,A,141423.50
1.49566,57.68778493,11.98147727,57.68778617,11.98147667,15:15:01.000410,0.00512,0.00000,0.00000,-0.05594,0.02924,-0.05283,0.00003,0.00817,-0.02653,-0.02172,0.97954,1.49012,0.00000,-0.62823,-0.61037,-0.17228,0.58555,1.45783,-0.20803,0.72277,1.36016,1.36016,A,141423.50
1.50659,57.68778499,11.98147724,57.68778617,11.98147667,15:15:01.011343,0.00538,0.00000,0.00000,-0.05650,0.02992,-0.05268,-0.00287,0.00587,-0.01671,-0.02586,0.98021,1.50061,0.00000,-0.33272,-0.31444,-0.17407,0.59241,1.45783,-0.20803,0.72277,1.36016,1.36016,A,141423.50
1.51719,57.68778505,11.98147721,57.68778617,11.98147667,15:15:01.021951,0.00557,0.00000,0.00000,-0.05732,0.03051,-0.05909,-0.00501,0.00435,0.00061,-0.03709,0.97935,1.51141,0.00000,-0.08158,-0.06294,-0.17577,0.59893,1.45783,-0.20803,0.72277,1.36016,1.36016,A,141423.50
1.52715,57.68778511,11.98147718,57.68778617,11.98147667,15:15:01.031907,0.00530,0.00000,0.00000,-0.05796,0.03096,-0.05711,-0.00501,0.00496,-0.03312,-0.03160,1.00784,1.52136,0.00000,0.13184,0.15076,-0.17738,0.60512,1.45783,-0.20803,0.72277,1.36016,1.36016,A,141423.50
1.53779,57.68778516,11.98147716,57.68778617,11.98147667,15:15:01.042544,0.00553,0.00000,0.00000,-0.05882,0.03125,-0.06001,0.00446,0.00252,-0.03934,-0.04307,1.01278,1.53197,0.00000,0.31323,0.33231,-0.17891,0.61100,1.45783,-0.20803,0.72277,1.36016,1.36016,A,141423.50
1.54776,57.68778521,11.98147713,57.68778617,11.98147667,15:15:01.052510,0.00510,0.00000,0.00000,-0.05969,0.03136,-0.06535,0.00630,0.00252,-0.03508,-0.04246,1.02218,1.54222,0.00000,0.46739,0.48655,-0.18037,0.61659,1.45783,-0.20803,0.72277,1.36016,1.36016,A,141423.50
1.57491,57.68778526,11.98147711,57.68778683,11.98147650,15:15:01.079670,0.02161,0.00000,0.00000,-0.06053,0.03136,-0.07039,0.00904,0.00511,-0.00482,-0.03636,1.00443,1.55271,0.00000,0.59843,0.61759,-0.18175,0.62190,1.57025,-0.21794,0.79690,1.70364,1.70364,A,141423.60
1.59356,57.68778534,11.98147708,57.68778683,11.98147650,15:15:01.098321,0.00679,0.00000,0.00000,-0.06339,0.03136,-0.08063,-0.00562,0.00771,-0.03776,-0.03520,1.00388,1.58770,0.00000,0.76134,0.78050,-0.18356,0.63065,1.57025,-0.21794,0.79690,1.70364,1.70364,A,141423.60
1.60260,57.68778541,11.98147705,57.68778683,11.98147650,15:15:01.107348,0.00530,0.00000,0.00000,-0.06429,0.03136,-0.07436,0.00019,-0.00039,-0.05057,-0.04941,1.01437,1.59667,0.00000,0.89981,0.91897,-0.18528,0.63896,1.57025,-0.21794,0.79690,1.70364,1.70364,A,141423.60
1.61281,57.68778548,11.98147702,57.68778683,11.98147650,15:15:01.117901,0.00511,0.00000,0.00000,-0.06545,0.03136,-0.07833,0.00492,-0.00573,-0.04874,-0.05606,1.00174,1.60728,0.00000,1.01752,1.03667,-0.18691,0.64686,1.57025,-0.21794,0.79690,1.70364,1.70364,A,141423.60
1.62322,57.68778555,11.98147700,57.68778683,11.98147650,15:15:01.127982,0.00512,0.00000,0.00000,-0.06628,0.03136,-0.07772,0.01286,-0.00558,-0.03825,-0.03764,1.00656,1.61747,0.00000,1.11756,1.13672,-0.18846,0.65436,1.57025,-0.21794,0.79690,1.70364,1.70364,A,141423.60
1.63412,57.68778562,11.98147697,57.68778683,11.98147650,15:15:01.138877,0.00562,0.00000,0.00000,-0.06733,0.03136,-0.07788,0.00645,-0.00802,-0.00726,-0.04868,0.97472,1.62829,0.00000,1.20260,1.22175,-0.18994,0.66149,1.57025,-0.21794,0.79690,1.70364,1.70364,A,141423.60
1.64412,57.68778568,11.98147695,57.68778683,11.98147650,15:15:01.148879,0.00521,0.00000,0.00000,-0.06807,0.03136,-0.07100,0.01057,-0.00665,-0.03135,-0.03751,1.00321,1.63859,0.00000,1.27488,1.29404,-0.19134,0.66826,1.57025,-0.21794,0.79690,1.70364,1.70364,A,141423.60
1.65451,57.68778573,11.98147693,57.68778683,11.98147650,15:15:01.159261,0.00520,0.00000,0.00000,-0.06904,0.03136,-0.06077,0.01317,-0.00359,-0.04752,-0.06167,0.99948,1.64868,0.00000,1.33632,1.35548,-0.19267,0.67469,1.57025,-0.21794,0.79690,1.70364,1.70364,A,141423.60
1.66482,57.68778579,11.98147690,57.68778683,11.98147650,15:15:01.169818,0.00512,0.00000,0.00000,-0.07007,0.03136,-0.05604,0.01653,-0.00008,-0.03032,-0.06734,0.99930,1.65929,0.00000,1.38855,1.40770,-0.19393,0.68080,1.57025,-0.21794,0.79690,1.70364,1.70364,A,141423.60
1.69098,57.68778584,11.98147688,57.68778767,11.98147600,15:15:01.195732,0.02087,0.00000,0.00000,-0.07099,0.03136,-0.04978,0.01485,0.00603,0.00299,-0.06643,0.99253,1.66946,0.00000,1.43294,1.45209,-0.19513,0.68660,1.68693,-0.24766,0.88956,1.88115,1.88115,A,141423.70
1.70143,57.68778593,11.98147684,57.68778767,11.98147600,15:15:01.206189,0.00542,0.00000,0.00000,-0.07233,0.03232,-0.03252,0.00523,0.01886,-0.05728,-0.07344,0.99991,1.69566,0.00000,1.49721,1.51695,-0.19776,0.69675,1.68693,-0.24766,0.88956,1.88115,1.88115,A,141423.70
1.71281,57.68778602,11.98147680,57.68778767,11.98147600,15:15:01.217809,0.00625,0.00000,0.00000,-0.07323,0.03306,-0.03252,0.00691,0.01763,-0.07918,-0.07832,1.02309,1.70724,0.00000,1.55177,1.57196,-0.20025,0.70639,1.68693,-0.24766,0.88956,1.88115,1.88115,A,141423.70
1.72234,57.68778610,11.98147676,57.68778767,11.98147600,15:15:01.227090,0.00520,0.00000,0.00000,-0.07369,0.03382,-0.02779,0.01637,0.01519,-0.02074,-0.05716,1.01327,1.71653,0.00000,1.59808,1.61874,-0.20262,0.71555,1.68693,-0.24766,0.88956,1.88115,1.88115,A,141423.70
1.73265,57.68778618,11.98147672,57.68778767,11.98147600,15:15:01.237403,0.00511,0.00000,0.00000,-0.07387,0.03456,-0.02427,0.01164,0.01153,0.01251,-0.03782,1.00461,1.72714,0.00000,1.63737,1.65848,-0.20487,0.72425,1.68693,-0.24766,0.88956,1.88115,1.88115,A,141423.70
1.74325,57.68778625,11.98147668,57.68778767,11.98147600,15:15:01.248001,0.00530,0.00000,0.00000,-0.07385,0.03515,-0.01648,0.00309,0.00847,0.01482,-0.03044,1.00229,1.73729,0.00000,1.67072,1.69219,-0.20701,0.73252,1.68693,-0.24766,0.88956,1.88115,1.88115,A,141423.70
1.75389,57.68778632,11.98147665,57.68778767,11.98147600,15:15:01.258642,0.00554,0.00000,0.00000,-0.07394,0.03586,-0.01267,-0.00424,0.00694,-0.03337,-0.03977,1.00168,1.74805,0.00000,1.69900,1.72090,-0.20905,0.74037,1.68693,-0.24766,0.88956,1.88115,1.88115,A,141423.70
1.76385,57.68778639,11.98147662,57.68778767,11.98147600,15:15:01.268601,0.00511,0.00000,0.00000,-0.07407,0.03660,-0.00396,-0.00531,0.01168,-0.05594,-0.04801,0.98875,1.75830,0.00000,1.72297,1.74532,-0.21098,0.74783,1.68693,-0.24766,0.88956,1.88115,1.88115,A,141423.70
1.77449,57.68778646,11.98147659,57.68778767,11.98147600,15:15:01.279247,0.00521,0.00000,0.00000,-0.07431,0.03759,0.00092,-0.00088,0.01427,-0.05386,-0.05880,0.98716,1.76867,0.00000,1.74325,1.76621,-0.21281,0.75491,1.68693,-0.24766,0.88956,1.88115,1.88115,A,141423.70
1.78527,57.68778652,11.98147656,57.68778767,11.98147600,15:15:01.290033,0.00558,0.00000,0.00000,-0.07462,0.03877,0.00459,0.00217,0.01657,-0.01915,-0.06753,1.00412,1.77950,0.00000,1.76038,1.78407,-0.21455,0.76165,1.68693,-0.24766,0.88956,1.88115,1.88115,A,141423.70
1.82866,57.68778657,11.98147653,57.68778917,11.98147350,15:15:01.333419,0.03858,0.00000,0.00000,-0.07517,0.03994,0.00047,-0.00088,0.02023,0.01220,-0.08107,1.00278,1.78943,0.00000,1.77484,1.79924,-0.21621,0.76804,1.82461,-0.39625,1.05635,2.29855,2.29855,A,141423.90
1.84852,57.68778670,11.98147638,57.68778917,11.98147350,15:15:01.353275,0.00633,0.74522,0.74522,-0.07439,0.04322,0.01436,0.00171,0.01443,-0.02952,-0.04002,0.98796,1.84296,0.14904,1.84944,1.87584,-0.22521,0.78246,1.82461,-0.39625,1.05635,2.29855,2.29855,A,141423.90
1.85799,57.68778684,11.98147623,57.68778917,11.98147350,15:15:01.362744,0.00540,0.74522,0.74522,-0.07445,0.04330,0.01574,0.00706,0.01794,-0.01842,-0.05386,0.99076,1.85217,0.26828,1.91287,1.93933,-0.23408,0.79715,1.82461,-0.39625,1.05635,2.29855,2.29855,A,141423.90
1.86803,57.68778697,11.98147608,57.68778917,11.98147350,15:15:01.372787,0.00504,0.74522,0.74522,-0.07453,0.04339,0.00658,0.00263,0.01244,-0.01812,-0.05118,0.99936,1.86251,0.36366,1.96682,1.99333,-0.24294,0.81207,1.82461,-0.39625,1.05635,2.29855,2.29855,A,141423.90
1.87865,57.68778710,11.98147593,57.68778917,11.98147350,15:15:01.383409,0.00535,0.74522,0.74522,-0.07436,0.04342,0.00810,0.00232,0.01519,-0.03123,-0.03520,1.00009,1.87269,0.43998,2.01271,2.03923,-0.25180,0.82693,1.82461,-0.39625,1.05635,2.29855,2.29855,A,141423.90
1.88883,57.68778723,11.98147578,57.68778917,11.98147350,15:15:01.393830,0.00512,0.74522,0.74522,-0.07433,0.04344,0.00978,0.00538,0.01137,-0.04002,-0.04593,0.99723,1.88331,0.50102,2.05173,2.07827,-0.26060,0.84153,1.82461,-0.39625,1.05635,2.29855,2.29855,A,141423.90
1.89923,57.68778736,11.98147564,57.68778917,11.98147350,15:15:01.403990,0.00512,0.74522,0.74522,-0.07405,0.04344,0.00551,0.00630,0.01321,-0.01311,-0.02617,0.99534,1.89348,0.54986,2.08491,2.11145,-0.26932,0.85575,1.82461,-0.39625,1.05635,2.29855,2.29855,A,141423.90
1.91129,57.68778749,11.98147549,57.68778917,11.98147350,15:15:01.416050,0.00672,0.74522,0.74522,-0.07422,0.04344,0.01009,-0.00012,0.00969,0.00317,-0.05905,1.00321,1.90413,0.58893,2.11314,2.13968,-0.27798,0.86964,1.82461,-0.39625,1.05635,2.29855,2.29855,A,141423.90
1.94104,57.68778762,11.98147533,57.68778950,11.98147233,15:15:01.445816,0.02586,7.14972,0.74522,-0.07430,0.04344,0.01253,-0.00058,0.01214,-0.02416,-0.05893,1.00052,1.91947,0.62019,2.13721,2.16375,-0.28750,0.88461,1.93659,-0.46559,1.09342,2.65072,2.65072,A,141424.00
1.96133,57.68778787,11.98147499,57.68778950,11.98147233,15:15:01.466095,0.01200,7.14972,0.74522,-0.07392,0.04344,0.01635,0.00217,0.01458,-0.01494,-0.05459,0.99521,1.95552,0.64519,2.21097,2.23751,-0.30766,0.91176,1.93659,-0.46559,1.09342,2.65072,2.65072,A,141424.00
1.97923,57.68778802,11.98147476,57.68778950,11.98147233,15:15:01.483988,0.01015,7.14972,0.74522,-0.07386,0.04344,0.01772,-0.00455,0.01305,-0.01257,-0.05777,1.00296,1.97340,0.66520,2.27330,2.29984,-0.32164,0.92857,1.93659,-0.46559,1.09342,2.65072,2.65072,A,141424.00
2.00466,57.68778818,11.98147448,57.68778950,11.98147233,15:15:01.509720,0.01380,7.14972,0.74522,-0.07355,0.04344,0.02322,-0.00623,0.01091,-0.02617,-0.05630,1.01022,1.99700,0.68120,2.32641,2.35295,-0.33790,0.94696,1.93659,-0.46559,1.09342,2.65072,2.65072,A,141424.00
2.02272,57.68778831,11.98147426,57.68778950,11.98147233,15:15:01.527516,0.01103,7.14972,0.74522,-0.07322,0.04344,0.02628,-0.00562,0.00862,-0.03099,-0.04880,0.99308,2.01499,0.69400,2.37141,2.39795,-0.35097,0.96101,1.93659,-0.46559,1.09342,2.65072,2.65072,A,141424.00
2.06116,57.68778846,11.98147399,57.68779033,11.98147150,15:15:01.565932,0.02745,7.14972,0.74522,-0.07250,0.04344,0.02658,0.00156,0.00725,-0.07960,-0.03355,1.00467,2.03844,0.70425,2.40983,2.43638,-0.36719,0.97728,2.05542,-0.51512,1.18608,2.06169,2.06169,A,141424.10
2.07773,57.68778867,11.98147360,57.68779033,11.98147150,15:15:01.582487,0.00957,7.14972,0.74522,-0.07184,0.04344,0.02780,-0.00607,0.01137,-0.00628,-0.05295,0.98387,2.07060,0.71244,2.35435,2.38089,-0.39004,1.00087,2.05542,-0.51512,1.18608,2.06169,2.06169,A,141424.10
2.09096,57.68778880,11.98147341,57.68779033,11.98147150,15:15:01.595711,0.01236,7.14972,0.74522,-0.07153,0.04344,0.02796,-0.00745,0.01137,-0.04837,-0.04349,0.99198,2.08465,0.71900,2.30674,2.33328,-0.40175,1.01533,2.05542,-0.51512,1.18608,2.06169,2.06169,A,141424.10
2.11327,57.68778896,11.98147316,57.68779033,11.98147150,15:15:01.618035,0.01294,7.14972,0.74522,-0.07070,0.04344,0.03544,0.00263,0.00511,-0.04508,-0.03373,0.99802,2.10654,0.72424,2.26647,2.29301,-0.41661,1.03349,2.05542,-0.51512,1.18608,2.06169,2.06169,A,141424.10
2.13462,57.68778912,11.98147293,57.68779033,11.98147150,15:15:01.639370,0.01174,7.14972,0.74522,-0.07021,0.04344,0.02734,-0.00042,-0.00390,-0.01684,-0.04447,0.99936,2.12865,0.72843,2.23225,2.25879,-0.43042,1.05120,2.05542,-0.51512,1.18608,2.06169,2.06169,A,141424.10
2.17311,57.68778928,11.98147270,57.68779100,11.98147067,15:15:01.677865,0.02669,7.14972,0.74522,-0.06971,0.04344,0.02750,0.00355,-0.00100,-0.06051,-0.04435,1.00369,2.15108,0.73179,2.20320,2.22974,-0.44387,1.06915,2.16870,-0.56465,1.26021,2.15984,2.15984,A,141424.20
2.19397,57.68778954,11.98147235,57.68779100,11.98147067,15:15:01.698720,0.00964,7.14972,0.74522,-0.06884,0.04344,0.03025,-0.00760,0.00801,-0.06960,-0.05002,0.99174,2.18736,0.73448,2.19356,2.22010,-0.46444,1.09748,2.16870,-0.56465,1.26021,2.15984,2.15984,A,141424.20
2.20613,57.68778966,11.98147220,57.68779100,11.98147067,15:15:01.710878,0.01130,7.14972,0.74522,-0.06871,0.04344,0.02857,0.01072,0.01290,-0.08070,-0.05161,1.01778,2.19998,0.73662,2.18476,2.21130,-0.47363,1.11111,2.16870,-0.56465,1.26021,2.15984,2.15984,A,141424.20
2.22526,57.68778981,11.98147200,57.68779100,11.98147067,15:15:01.730024,0.00910,7.14972,0.74522,-0.06835,0.04344,0.02444,0.00721,0.01443,0.03825,-0.04288,1.01376,2.21927,0.73834,2.17747,2.20401,-0.48530,1.12813,2.16870,-0.56465,1.26021,2.15984,2.15984,A,141424.20
2.23775,57.68778993,11.98147186,57.68779100,11.98147067,15:15:01.742501,0.01137,7.14972,0.74522,-0.06773,0.04344,0.02704,-0.01081,0.01091,0.01671,-0.01598,1.00235,2.23175,0.73972,2.17110,2.19765,-0.49368,1.14074,2.16870,-0.56465,1.26021,2.15984,2.15984,A,141424.20
2.25734,57.68779007,11.98147168,57.68779100,11.98147067,15:15:01.762106,0.01136,7.14972,0.74522,-0.06687,0.04316,0.02475,-0.01341,-0.00237,-0.09675,-0.00885,0.98228,2.25142,0.74082,2.16590,2.19227,-0.50448,1.15672,2.16870,-0.56465,1.26021,2.15984,2.15984,A,141424.20
2.29258,57.68779020,11.98147152,57.68779167,11.98146917,15:15:01.797346,0.02713,7.14972,0.74522,-0.06656,0.04274,0.02032,0.00095,-0.00466,-0.02379,-0.03453,0.96642,2.26867,0.74170,2.16146,2.18756,-0.51381,1.17072,2.28734,-0.65381,1.33434,2.44796,2.44796,A,141424.30
2.31337,57.68779046,11.98147115,57.68779167,11.98146917,15:15:01.818143,0.01122,7.14972,0.74522,-0.06652,0.04175,0.00810,-0.01173,-0.00176,-0.03959,-0.05197,1.01162,2.30707,0.74240,2.20151,2.22701,-0.53572,1.19993,2.28734,-0.65381,1.33434,2.44796,2.44796,A,141424.30
2.33353,57.68779061,11.98147092,57.68779167,11.98146917,15:15:01.838284,0.01244,7.14972,0.74522,-0.06666,0.04081,0.01085,-0.01417,0.00435,-0.00927,-0.05557,0.97399,2.32756,0.74296,2.23517,2.26011,-0.54950,1.21688,2.28734,-0.65381,1.33434,2.44796,2.44796,A,141424.30
2.35234,57.68779074,11.98147071,57.68779167,11.98146917,15:15:01.857093,0.01036,7.14972,0.74522,-0.06663,0.03965,0.00612,0.00446,0.00068,-0.06740,-0.03995,1.01217,2.34557,0.74341,2.26384,2.28807,-0.56207,1.23167,2.28734,-0.65381,1.33434,2.44796,2.44796,A,141424.30
2.37418,57.68779088,11.98147048,57.68779167,11.98146917,15:15:01.878937,0.01103,7.14972,0.74522,-0.06659,0.03818,-0.00106,0.00538,-0.00451,0.01854,-0.02922,1.01260,2.36807,0.74377,2.28841,2.31174,-0.57577,1.24725,2.28734,-0.65381,1.33434,2.44796,2.44796,A,141424.30
2.41742,57.68779098,11.98147031,57.68779367,11.98146700,15:15:01.922182,0.03759,7.14972,0.74522,-0.06677,0.03742,-0.00411,-0.01142,-0.00756,-0.00634,-0.04160,0.99869,2.38327,0.74406,2.30920,2.33206,-0.58586,1.25837,2.41122,-0.78259,1.55673,2.09569,2.09569,A,141424.50
2.43423,57.68779132,11.98146979,57.68779367,11.98146700,15:15:01.938982,0.01116,7.14972,0.74522,-0.06783,0.03654,-0.01526,0.00370,-0.00161,-0.00220,-0.05667,0.95215,2.42817,0.74429,2.27476,2.29708,-0.61671,1.29535,2.41122,-0.78259,1.55673,2.09569,2.09569,A,141424.50
2.45355,57.68779152,11.98146952,57.68779367,11.98146700,15:15:01.958312,0.00936,7.14972,0.74522,-0.06833,0.03634,-0.02183,-0.00791,-0.00390,-0.02788,-0.03965,0.98003,2.44748,0.74448,2.24493,2.26713,-0.63306,1.31748,2.41122,-0.78259,1.55673,2.09569,2.09569,A,141424.50
2.46473,57.68779166,11.98146933,57.68779367,11.98146700,15:15:01.969727,0.01030,7.14972,0.74522,-0.06859,0.03620,-0.02473,-0.01279,-0.00314,-0.04569,-0.03873,1.01870,2.45688,0.74462,2.21939,2.24150,-0.64397,1.33356,2.41122,-0.78259,1.55673,2.09569,2.09569,A,141424.50
2.48633,57.68779185,11.98146908,57.68779367,11.98146700,15:15:01.991091,0.01098,7.14972,0.74522,-0.06892,0.03583,-0.02427,-0.01188,-0.00863,-0.02769,-0.02458,1.08604,2.47881,0.74474,2.19793,2.21981,-0.65883,1.35470,2.41122,-0.78259,1.55673,2.09569,2.09569,A,141424.50
2.50669,57.68779203,11.98146885,57.68779367,11.98146700,15:15:02.011439,0.01178,7.14972,0.74522,-0.06950,0.03518,-0.03588,-0.00623,-0.00848,-0.04276,-0.02586,1.02358,2.49978,0.74484,2.17973,2.20122,-0.67260,1.37481,2.41122,-0.78259,1.55673,2.09569,2.09569,A,141424.50
2.53891,57.68779218,11.98146866,57.68779450,11.98146683,15:15:02.043663,0.02657,7.14972,0.74522,-0.06987,0.03433,-0.04611,0.01027,-0.01062,-0.10480,-0.01330,0.99137,2.51557,0.74491,2.16426,2.18523,-0.68371,1.39158,2.53380,-0.79250,1.64939,1.67730,1.67730,A,141424.60
2.55856,57.68779246,11.98146835,57.68779450,11.98146683,15:15:02.063311,0.01189,7.14972,0.74522,-0.07199,0.03088,-0.04046,0.01332,-0.01627,-0.00104,-0.08272,0.97081,2.55081,0.74497,2.08902,2.10788,-0.70225,1.42305,2.53380,-0.79250,1.64939,1.67730,1.67730,A,141424.60
2.57844,57.68779266,11.98146817,57.68779450,11.98146683,15:15:02.083191,0.01074,7.14972,0.74522,-0.07324,0.02873,-0.04626,0.00095,-0.01673,-0.13066,-0.05832,1.01559,2.57241,0.74502,2.02495,2.04249,-0.71319,1.44516,2.53380,-0.79250,1.64939,1.67730,1.67730,A,141424.60
2.59647,57.68779284,11.98146802,57.68779450,11.98146683,15:15:02.101222,0.00977,7.14972,0.74522,-0.07450,0.02760,-0.04000,0.02004,-0.01948,-0.05313,-0.08174,1.00009,2.58892,0.74506,1.97053,1.98738,-0.72210,1.46507,2.53380,-0.79250,1.64939,1.67730,1.67730,A,141424.60
2.61054,57.68779300,11.98146790,57.68779450,11.98146683,15:15:02.115296,0.01293,7.14972,0.74522,-0.07556,0.02723,-0.03512,0.01286,-0.02100,0.04410,-0.07637,0.99552,2.60455,0.74509,1.92424,1.94087,-0.72906,1.48205,2.53380,-0.79250,1.64939,1.67730,1.67730,A,141424.60
2.63241,57.68779319,11.98146776,57.68779450,11.98146683,15:15:02.137156,0.01174,7.14972,0.74522,-0.07593,0.02717,-0.01648,-0.00287,-0.01505,-0.04697,-0.04410,1.00565,2.62638,0.74512,1.88502,1.90162,-0.73728,1.50343,2.53380,-0.79250,1.64939,1.67730,1.67730,A,141424.60
2.67004,57.68779336,11.98146765,57.68779583,11.98146633,15:15:02.174804,0.03051,7.14972,0.74522,-0.07622,0.02680,-0.00610,0.00019,-0.00787,-0.02739,-0.05606,1.01522,2.64618,0.74514,1.85168,1.86805,-0.74410,1.52255,2.66392,-0.82222,1.79765,1.76862,1.76862,A,141424.70
2.68773,57.68779367,11.98146747,57.68779583,11.98146633,15:15:02.192485,0.00736,0.99095,0.99095,-0.07615,0.02406,-0.00228,0.00446,-0.01367,-0.07521,-0.03331,1.00022,2.68010,0.79430,1.83751,1.85220,-0.75449,1.55748,2.66392,-0.82222,1.79765,1.76862,1.76862,A,141424.70
2.69637,57.68779382,11.98146739,57.68779583,11.98146633,15:15:02.201123,0.00558,0.99095,0.99095,-0.07592,0.02309,0.00154,0.00492,-0.01398,-0.08247,-0.02891,0.99686,2.69047,0.83363,1.82516,1.83926,-0.75927,1.57430,2.66392,-0.82222,1.79765,1.76862,1.76862,A,141424.70
2.70678,57.68779398,11.98146731,57.68779583,11.98146633,15:15:02.211531,0.00548,0.99095,0.99095,-0.07611,0.02225,0.00474,0.00767,-0.01535,-0.03495,-0.05734,0.98478,2.70070,0.86509,1.81476,1.82835,-0.76418,1.59188,2.66392,-0.82222,1.79765,1.76862,1.76862,A,141424.70
2.71824,57.68779414,11.98146723,57.68779583,11.98146633,15:15:02.223012,0.00653,0.99095,0.99095,-0.07620,0.02162,0.00688,-0.00210,-0.01932,-0.02434,-0.05484,1.01168,2.71127,0.89026,1.80599,1.81919,-0.76883,1.60881,2.66392,-0.82222,1.79765,1.76862,1.76862,A,141424.70
2.72737,57.68779428,11.98146716,57.68779583,11.98146633,15:15:02.232125,0.00527,0.99095,0.99095,-0.07666,0.02126,0.01039,-0.00989,-0.02039,0.00488,-0.08089,1.00284,2.72146,0.91040,1.79856,1.81154,-0.77325,1.62514,2.66392,-0.82222,1.79765,1.76862,1.76862,A,141424.70
2.73803,57.68779442,11.98146709,57.68779583,11.98146633,15:15:02.242786,0.00553,0.99095,0.99095,-0.07657,0.02106,0.00917,-0.01493,-0.02131,-0.04124,-0.04477,1.00656,2.73208,0.92651,1.79227,1.80513,-0.77746,1.64096,2.66392,-0.82222,1.79765,1.76862,1.76862,A,141424.70
2.74814,57.68779456,11.98146702,57.68779583,11.98146633,15:15:02.252895,0.00523,0.99095,0.99095,-0.07666,0.02097,0.01406,-0.01936,-0.01825,-0.07893,-0.05917,0.99918,2.74248,0.93940,1.78693,1.79974,-0.78140,1.65590,2.66392,-0.82222,1.79765,1.76862,1.76862,A,141424.70
2.75865,57.68779469,11.98146696,57.68779583,11.98146633,15:15:02.263403,0.00534,0.99095,0.99095,-0.07654,0.02089,0.01818,-0.00837,-0.01856,-0.06313,-0.04801,0.99692,2.75269,0.94971,1.78240,1.79515,-0.78514,1.67030,2.66392,-0.82222,1.79765,1.76862,1.76862,A,141424.70
2.78587,57.68779481,11.98146690,57.68779633,11.98146500,15:15:02.290675,0.02217,0.99095,0.99095,-0.07639,0.02077,0.01940,-0.00470,-0.01917,-0.04831,-0.04666,0.99113,2.76328,0.95795,1.77856,1.79125,-0.78870,1.68414,2.78019,-0.90147,1.85325,2.52983,2.52983,A,141424.80
2.79651,57.68779509,11.98146672,57.68779633,11.98146500,15:15:02.301257,0.00557,0.99095,0.99095,-0.07571,0.01998,0.02337,-0.00287,-0.01657,-0.07338,-0.04020,1.00101,2.79056,0.96455,1.88981,1.90202,-0.79941,1.71523,2.78019,-0.90147,1.85325,2.52983,2.52983,A,141424.80
2.80775,57.68779523,11.98146658,57.68779633,11.98146500,15:15:02.312508,0.00644,0.99095,0.99095,-0.07537,0.01950,0.02704,-0.00073,-0.01841,-0.07100,-0.04026,0.99887,2.80204,0.96983,1.98417,1.99608,-0.80732,1.73029,2.78019,-0.90147,1.85325,2.52983,2.52983,A,141424.80
2.81718,57.68779534,11.98146646,57.68779633,11.98146500,15:15:02.321937,0.00547,0.99095,0.99095,-0.07506,0.01913,0.02918,0.00477,-0.02146,-0.03538,-0.03892,0.98405,2.81129,0.97405,2.06437,2.07606,-0.81485,1.74266,2.78019,-0.90147,1.85325,2.52983,2.52983,A,141424.80
2.82781,57.68779545,11.98146632,57.68779633,11.98146500,15:15:02.332566,0.00570,0.99095,0.99095,-0.07478,0.01882,0.02108,-0.00104,-0.01887,-0.00738,-0.03666,0.96362,2.82148,0.97743,2.13259,2.14408,-0.82294,1.75499,2.78019,-0.90147,1.85325,2.52983,2.52983,A,141424.80
2.83880,57.68779556,11.98146618,57.68779633,11.98146500,15:15:02.343561,0.00629,0.99095,0.99095,-0.07448,0.01857,0.02750,-0.00837,-0.02116,-0.02153,-0.04136,0.97307,2.83282,0.98014,2.19060,2.20194,-0.83134,1.76683,2.78019,-0.90147,1.85325,2.52983,2.52983,A,141424.80
2.84815,57.68779565,11.98146605,57.68779633,11.98146500,15:15:02.352909,0.00523,0.99095,0.99095,-0.07406,0.01843,0.02872,-0.01005,-0.01993,-0.06661,-0.03111,0.97929,2.84248,0.98230,2.23990,2.25116,-0.83899,1.77682,2.78019,-0.90147,1.85325,2.52983,2.52983,A,141424.80
2.85865,57.68779574,11.98146592,57.68779633,11.98146500,15:15:02.363404,0.00533,0.99095,0.99095,-0.07382,0.01837,0.02628,-0.00424,-0.02131,-0.07680,-0.04294,0.99784,2.85271,0.98403,2.28183,2.29305,-0.84704,1.78674,2.78019,-0.90147,1.85325,2.52983,2.52983,A,141424.80
2.86931,57.68779582,11.98146578,57.68779633,11.98146500,15:15:02.374080,0.00559,0.99095,0.99095,-0.07375,0.01837,0.02918,0.00553,-0.02665,-0.02300,-0.05710,1.00223,2.86330,0.98541,2.31747,2.32868,-0.85503,1.79603,2.78019,-0.90147,1.85325,2.52983,2.52983,A,141424.80
2.87936,57.68779590,11.98146565,57.68779633,11.98146500,15:15:02.384107,0.00523,0.99095,0.99095,-0.07363,0.01837,0.02414,0.00477,-0.01749,0.02879,-0.04795,0.98710,2.87348,0.98652,2.34775,2.35897,-0.86275,1.80460,2.78019,-0.90147,1.85325,2.52983,2.52983,A,141424.80
2.92062,57.68779597,11.98146552,57.68779833,11.98146367,15:15:02.425367,0.03609,0.99095,0.99095,-0.07325,0.01837,0.02475,-0.01615,-0.01673,-0.00939,-0.03373,1.01095,2.88433,0.98740,2.37351,2.38473,-0.87056,1.81287,2.91629,-0.98072,2.07564,1.91312,1.91312,A,141425.00
2.93196,57.68779631,11.98146498,57.68779833,11.98146367,15:15:02.436716,0.00606,0.99095,0.99095,-0.07182,0.01837,0.04002,-0.00226,-0.01230,0.00342,-0.05319,0.99607,2.92534,0.98811,2.30331,2.31453,-0.90259,1.85106,2.91629,-0.98072,2.07564,1.91312,1.91312,A,141425.00
2.94183,57.68779646,11.98146483,57.68779833,11.98146367,15:15:02.446581,0.00553,0.99095,0.99095,-0.07133,0.01837,0.03910,-0.00943,-0.00634,-0.03556,-0.03312,1.00040,2.93589,0.98868,2.24322,2.25443,-0.91162,1.86786,2.91629,-0.98072,2.07564,1.91312,1.91312,A,141425.00
2.95198,57.68779661,11.98146469,57.68779833,11.98146367,15:15:02.456728,0.00527,0.99095,0.99095,-0.07039,0.01837,0.03956,-0.00271,-0.00084,-0.09424,-0.00305,1.01431,2.94625,0.98913,2.19214,2.20335,-0.91999,1.88429,2.91629,-0.98072,2.07564,1.91312,1.91312,A,141425.00
2.96263,57.68779676,11.98146456,57.68779833,11.98146367,15:15:02.467382,0.00533,0.99095,0.99095,-0.06969,0.01837,0.04689,0.00996,0.00022,-0.09540,-0.02391,1.02950,2.95669,0.98950,2.14872,2.15994,-0.92783,1.90041,2.91629,-0.98072,2.07564,1.91312,1.91312,A,141425.00
2.97327,57.68779690,11.98146444,57.68779833,11.98146367,15:15:02.478028,0.00550,0.99095,0.99095,-0.06919,0.01837,0.04491,0.01653,0.00007,-0.01348,-0.03514,0.99985,2.96736,0.98979,2.11182,2.12304,-0.93496,1.91588,2.91629,-0.98072,2.07564,1.91312,1.91312,A,141425.00
2.98340,57.68779703,11.98146433,57.68779833,11.98146367,15:15:02.488150,0.00524,0.99095,0.99095,-0.06894,0.01837,0.04246,0.01164,0.00114,0.00805,-0.04715,0.98777,2.97753,0.99002,2.08045,2.09167,-0.94147,1.93072,2.91629,-0.98072,2.07564,1.91312,1.91312,A,141425.00
2.99945,57.68779719,11.98146419,57.68779833,11.98146367,15:15:02.504205,0.01088,0.99095,0.99095,-0.06806,0.01837,0.03681,0.00584,0.00878,-0.03404,-0.01299,0.98631,2.99221,0.99020,2.05385,2.06507,-0.94937,1.94832,2.91629,-0.98072,2.07564,1.91312,1.91312,A,141425.00
3.01128,57.68779732,11.98146409,57.68779833,11.98146367,15:15:02.516029,0.00559,0.99095,0.99095,-0.06687,0.01845,0.03941,0.00584,0.00923,-0.05618,0.01006,0.98600,3.00533,0.99035,2.03119,2.04246,-0.95531,1.96279,2.91629,-0.98072,2.07564,1.91312,1.91312,A,141425.00
3.03854,57.68779743,11.98146401,57.68779900,11.98146300,15:15:02.543290,0.02245,0.99095,0.99095,-0.06628,0.01891,0.04201,0.01042,0.01076,0.00933,-0.02312,0.97362,3.01570,0.99047,2.01186,2.02341,-0.96012,1.97538,3.03480,-1.02034,2.14977,2.06169,2.06169,A,141425.10
3.04910,57.68779771,11.98146378,57.68779900,11.98146300,15:15:02.553868,0.00557,0.99095,0.99095,-0.06576,0.02239,0.03070,-0.02837,0.00664,0.02965,-0.05295,0.98094,3.04317,0.99057,2.01766,2.03133,-0.97370,2.00582,3.03480,-1.02034,2.14977,2.06169,2.06169,A,141425.10
3.05919,57.68779783,11.98146369,57.68779900,11.98146300,15:15:02.563942,0.00527,0.99095,0.99095,-0.06539,0.02440,0.02582,-0.04273,0.00572,-0.05520,-0.02538,1.02309,3.05328,0.99064,2.02217,2.03707,-0.97949,2.01999,3.03480,-1.02034,2.14977,2.06169,2.06169,A,141425.10
3.07033,57.68779796,11.98146359,57.68779900,11.98146300,15:15:02.575090,0.00600,0.99095,0.99095,-0.06485,0.02652,0.02063,-0.03188,0.00450,-0.11193,-0.01080,1.04499,3.06393,0.99070,2.02583,2.04203,-0.98517,2.03372,3.03480,-1.02034,2.14977,2.06169,2.06169,A,141425.10
3.07995,57.68779807,11.98146351,57.68779900,11.98146300,15:15:02.584704,0.00522,0.99095,0.99095,-0.06473,0.02850,0.02261,-0.02028,0.00496,-0.09028,-0.03989,1.02944,3.07429,0.99075,2.02876,2.04617,-0.99028,2.04610,3.03480,-1.02034,2.14977,2.06169,2.06169,A,141425.10
3.09084,57.68779818,11.98146342,57.68779900,11.98146300,15:15:02.595592,0.00556,0.99095,0.99095,-0.06458,0.03040,0.02566,-0.00409,0.00587,-0.01501,-0.03898,0.99894,3.08490,0.99079,2.03111,2.04967,-0.99558,2.05866,3.03480,-1.02034,2.14977,2.06169,2.06169,A,141425.10
3.10249,57.68779829,11.98146333,57.68779900,11.98146300,15:15:02.607240,0.00681,0.99095,0.99095,-0.06446,0.03212,0.02261,-0.00791,0.01030,0.00586,-0.03977,0.99338,3.09647,0.99082,2.03297,2.05259,-1.00093,2.07114,3.03480,-1.02034,2.14977,2.06169,2.06169,A,141425.10
3.11133,57.68779838,11.98146326,57.68779900,11.98146300,15:15:02.616077,0.00525,0.99095,0.99095,-0.06393,0.03317,0.02872,-0.00791,0.01244,-0.02281,-0.01196,0.99881,3.10544,0.99085,2.03441,2.05467,-1.00488,2.08076,3.03480,-1.02034,2.14977,2.06169,2.06169,A,141425.10
3.12201,57.68779847,11.98146318,57.68779900,11.98146300,15:15:02.626765,0.00553,0.99095,0.99095,-0.06380,0.03405,0.02505,-0.01218,0.01672,-0.09065,-0.03977,1.03743,3.11605,0.99087,2.03560,2.05640,-1.00941,2.09136,3.03480,-1.02034,2.14977,2.06169,2.06169,A,141425.10
3.13352,57.68779857,11.98146311,57.68779900,11.98146300,15:15:02.638278,0.00663,0.99095,0.99095,-0.06364,0.03461,0.02658,-0.00088,0.01580,-0.03898,-0.03916,1.00351,3.12751,0.99088,2.03659,2.05773,-1.01407,2.10208,3.03480,-1.02034,2.14977,2.06169,2.06169,A,141425.10
3.15842,57.68779865,11.98146305,57.68779967,11.98146167,15:15:02.663180,0.02108,0.99095,0.99095,-0.06350,0.03481,0.02200,-0.00088,0.01992,0.02989,-0.03349,0.98356,3.13678,0.99090,2.03736,2.05862,-1.01765,2.11064,3.15405,-1.09959,2.22390,2.38956,2.38956,A,141425.20
3.16875,57.68779888,11.98146280,57.68779967,11.98146167,15:15:02.673760,0.00541,0.99095,0.99095,-0.06320,0.03481,0.01559,-0.00989,0.01198,-0.11566,-0.03611,1.00680,3.16306,0.99091,2.08765,2.10891,-1.03243,2.13642,3.15405,-1.09959,2.22390,2.38956,2.38956,A,141425.20
3.17890,57.68779898,11.98146267,57.68779967,11.98146167,15:15:02.683650,0.00533,0.99095,0.99095,-0.06259,0.03481,0.01940,0.00553,0.00450,-0.11370,-0.00122,1.01272,3.17297,0.99091,2.12996,2.15123,-1.03969,2.14733,3.15405,-1.09959,2.22390,2.38956,2.38956,A,141425.20
3.18991,57.68779907,11.98146255,57.68779967,11.98146167,15:15:02.694670,0.00593,0.99095,0.99095,-0.06227,0.03481,0.01971,0.01408,-0.00130,-0.01068,-0.02092,0.99485,3.18378,0.99092,2.16595,2.18721,-1.04720,2.15804,3.15405,-1.09959,2.22390,2.38956,2.38956,A,141425.20
3.20273,57.68779918,11.98146241,57.68779967,11.98146167,15:15:02.707484,0.00665,0.99095,0.99095,-0.06241,0.03481,0.01956,-0.00287,0.00358,0.06667,-0.05319,0.98844,3.19670,0.99093,2.19659,2.21785,-1.05564,2.16955,3.15405,-1.09959,2.22390,2.38956,2.38956,A,141425.20
3.21173,57.68779925,11.98146230,57.68779967,11.98146167,15:15:02.716481,0.00524,0.99095,0.99095,-0.06240,0.03481,0.02001,-0.01814,0.00297,0.01110,-0.04032,1.00272,3.20604,0.99093,2.22253,2.24380,-1.06192,2.17767,3.15405,-1.09959,2.22390,2.38956,2.38956,A,141425.20
3.22242,57.68779933,11.98146218,57.68779967,11.98146167,15:15:02.727168,0.00536,0.99095,0.99095,-0.06223,0.03481,0.02154,-0.02058,0.00465,-0.09333,-0.03233,1.02779,3.21645,0.99093,2.24463,2.26589,-1.06884,2.18630,3.15405,-1.09959,2.22390,2.38956,2.38956,A,141425.20
3.23414,57.68779941,11.98146206,57.68779967,11.98146167,15:15:02.738905,0.00668,0.99095,0.99095,-0.06187,0.03481,0.01956,-0.01402,0.00465,-0.08699,-0.02025,1.03291,3.22804,0.99094,2.26343,2.28470,-1.07610,2.19505,3.15405,-1.09959,2.22390,2.38956,2.38956,A,141425.20
3.24308,57.68779946,11.98146197,57.68779967,11.98146167,15:15:02.747837,0.00539,0.99095,0.99095,-0.06174,0.03481,0.01925,-0.00363,0.00985,-0.05130,-0.03038,1.01266,3.23710,0.99094,2.27935,2.30061,-1.08149,2.20135,3.15405,-1.09959,2.22390,2.38956,2.38956,A,141425.20
3.25363,57.68779953,11.98146187,57.68779967,11.98146167,15:15:02.758386,0.00553,0.99095,0.99095,-0.06207,0.03481,0.02169,-0.00867,0.00725,0.00823,-0.06356,0.98222,3.24769,0.99094,2.29292,2.31418,-1.08771,2.20843,3.15405,-1.09959,2.22390,2.38956,2.38956,A,141425.20
3.28007,57.68779959,11.98146176,57.68780117,11.98146117,15:15:02.784825,0.02157,0.99095,0.99095,-0.06199,0.03481,0.01956,-0.01111,0.00557,0.00872,-0.03544,0.98527,3.25805,0.99094,2.30445,2.32572,-1.09376,2.21513,3.27537,-1.12931,2.39069,1.74712,1.74712,A,141425.30
3.29102,57.68779982,11.98146146,57.68780117,11.98146117,15:15:02.795771,0.00573,0.99095,0.99095,-0.06105,0.03481,0.01925,-0.01234,0.00297,-0.01702,0.00073,0.99912,3.28503,0.99094,2.21834,2.23960,-1.11177,2.24117,3.27537,-1.12931,2.39069,1.74712,1.74712,A,141425.30
3.30177,57.68779995,11.98146136,57.68780117,11.98146117,15:15:02.806527,0.00608,0.99095,0.99095,-0.06099,0.03481,0.01375,-0.02730,-0.00023,-0.03544,-0.03318,1.02388,3.29562,0.99094,2.14469,2.16596,-1.11760,2.25491,3.27537,-1.12931,2.39069,1.74712,1.74712,A,141425.30
3.31220,57.68780006,11.98146128,57.68780117,11.98146117,15:15:02.816950,0.00610,0.99095,0.99095,-0.06081,0.03481,0.01742,-0.02791,-0.00619,-0.01702,-0.02849,1.03859,3.30617,0.99094,2.08209,2.10335,-1.12256,2.26816,3.27537,-1.12931,2.39069,1.74712,1.74712,A,141425.30
3.32276,57.68780018,11.98146121,57.68780117,11.98146117,15:15:02.827519,0.00627,0.99095,0.99095,-0.06088,0.03481,0.01268,-0.03097,-0.00497,-0.02867,-0.04227,1.04523,3.31678,0.99094,2.02888,2.05015,-1.12694,2.28115,3.27537,-1.12931,2.39069,1.74712,1.74712,A,141425.30
3.33211,57.68780029,11.98146115,57.68780117,11.98146117,15:15:02.836861,0.00522,1.09546,1.09546,-0.06045,0.03481,0.00719,-0.02593,-0.00497,-0.08064,-0.00220,1.04920,3.32646,1.01185,1.98363,2.00490,-1.13035,2.29296,3.27537,-1.12931,2.39069,1.74712,1.74712,A,141425.30
3.34323,57.68780040,11.98146109,57.68780117,11.98146117,15:15:02.847987,0.00593,1.09546,1.09546,-0.06102,0.03481,0.00459,-0.02089,-0.00451,-0.05246,-0.06728,1.00985,3.33668,1.02857,1.94520,1.96646,-1.13371,2.30520,3.27537,-1.12931,2.39069,1.74712,1.74712,A,141425.30
3.35318,57.68780050,11.98146105,57.68780117,11.98146117,15:15:02.857942,0.00548,1.09546,1.09546,-0.06042,0.03481,-0.00076,-0.00928,-0.00069,-0.06917,0.01458,1.00223,3.34729,1.04195,1.91252,1.93378,-1.13648,2.31663,3.27537,-1.12931,2.39069,1.74712,1.74712,A,141425.30
3.36336,57.68780060,11.98146100,57.68780117,11.98146117,15:15:02.868110,0.00525,1.09546,1.09546,-0.06048,0.03481,0.00428,-0.00684,0.00267,-0.02184,-0.03166,0.96038,3.35746,1.05265,1.88475,1.90602,-1.13907,2.32808,3.27537,-1.12931,2.39069,1.74712,1.74712,A,141425.30
3.37415,57.68780070,11.98146096,57.68780117,11.98146117,15:15:02.878905,0.00565,1.09546,1.09546,-0.06018,0.03481,-0.00243,-0.00592,0.00206,0.01098,-0.00329,0.92378,3.36806,1.06121,1.86116,1.88243,-1.14139,2.33930,3.27537,-1.12931,2.39069,1.74712,1.74712,A,141425.30
3.41328,57.68780080,11.98146093,57.68780317,11.98145933,15:15:02.918043,0.03438,1.09546,1.09546,-0.06077,0.03481,-0.00228,-0.01111,0.00649,-0.00256,-0.05740,0.91372,3.37887,1.06806,1.84111,1.86238,-1.14345,2.35012,3.40968,-1.23828,2.61308,2.02640,2.02640,A,141425.50
3.42512,57.68780125,11.98146066,57.68780317,11.98145933,15:15:02.929882,0.00570,1.09546,1.09546,-0.06165,0.03481,-0.02427,-0.00287,-0.00176,-0.05557,-0.02135,1.04218,3.41920,1.07354,1.86682,1.88808,-1.15930,2.40028,3.40968,-1.23828,2.61308,2.02640,2.02640,A,141425.50
3.43496,57.68780142,11.98146055,57.68780317,11.98145933,15:15:02.939709,0.00530,1.09546,1.09546,-0.06199,0.03481,-0.02840,0.00889,-0.00314,-0.02653,-0.03251,1.05140,3.42905,1.07793,1.88780,1.90906,-1.16580,2.41870,3.40968,-1.23828,2.61308,2.02640,2.02640,A,141425.50
3.44591,57.68780158,11.98146044,57.68780317,11.98145933,15:15:02.950673,0.00585,1.09546,1.09546,-0.06214,0.03481,-0.03848,0.01836,-0.00924,-0.05557,-0.01153,1.03993,3.43966,1.08143,1.90565,1.92691,-1.17234,2.43670,3.40968,-1.23828,2.61308,2.02640,2.02640,A,141425.50
3.45573,57.68780173,11.98146034,57.68780317,11.98145933,15:15:02.960480,0.00525,1.09546,1.09546,-0.06213,0.03481,-0.04489,0.03058,-0.00848,-0.04331,0.00415,0.99296,3.45004,1.08424,1.92082,1.94209,-1.17871,2.45377,3.40968,-1.23828,2.61308,2.02640,2.02640,A,141425.50
3.46639,57.68780188,11.98146023,57.68780317,11.98145933,15:15:02.971137,0.00533,1.09546,1.09546,-0.06240,0.03481,-0.04214,0.03638,-0.00970,-0.00988,-0.01592,0.97563,3.46042,1.08648,1.93372,1.95498,-1.18488,2.46995,3.40968,-1.23828,2.61308,2.02640,2.02640,A,141425.50
3.47671,57.68780202,11.98146013,57.68780317,11.98145933,15:15:02.981710,0.00525,1.09546,1.09546,-0.06294,0.03481,-0.04947,0.03333,-0.00665,-0.00006,-0.02812,0.95813,3.47105,1.08828,1.94468,1.96595,-1.19085,2.48526,3.40968,-1.23828,2.61308,2.02640,2.02640,A,141425.50
3.48717,57.68780215,11.98146004,57.68780317,11.98145933,15:15:02.991926,0.00548,1.09546,1.09546,-0.06367,0.03481,-0.05863,0.02248,-0.00314,0.04117,-0.03587,0.94428,3.48108,1.08972,1.95399,1.97526,-1.19650,2.49951,3.40968,-1.23828,2.61308,2.02640,2.02640,A,141425.50
3.49782,57.68780227,11.98145994,57.68780317,11.98145933,15:15:03.002576,0.00573,1.09546,1.09546,-0.06451,0.03481,-0.06505,0.01103,-0.00466,0.05020,-0.03812,0.96917,3.49169,1.09087,1.96191,1.98318,-1.20201,2.51318,3.40968,-1.23828,2.61308,2.02640,2.02640,A,141425.50
3.50787,57.68780238,11.98145986,57.68780317,11.98145933,15:15:03.012616,0.00537,1.09546,1.09546,-0.06510,0.03481,-0.06871,0.00232,-0.00176,-0.02928,-0.02178,1.01504,3.50217,1.09178,1.96864,1.98990,-1.20724,2.52598,3.40968,-1.23828,2.61308,2.02640,2.02640,A,141425.50
3.53472,57.68780250,11.98145977,57.68780417,11.98145833,15:15:03.039477,0.02154,1.09546,1.09546,-0.06561,0.03481,-0.06734,0.01072,-0.00451,-0.07381,-0.01952,1.04536,3.51259,1.09252,1.97437,1.99563,-1.21241,2.53848,3.53002,-1.29771,2.72428,2.06169,2.06169,A,141425.60
3.54783,57.68780279,11.98145952,57.68780417,11.98145833,15:15:03.052598,0.00813,1.09546,1.09546,-0.06758,0.03422,-0.07513,0.01424,-0.01123,0.05539,-0.03148,1.03486,3.53934,1.09311,1.98506,2.00596,-1.22723,2.57110,3.53002,-1.29771,2.72428,2.06169,2.06169,A,141425.60
3.55536,57.68780291,11.98145942,57.68780417,11.98145833,15:15:03.060118,0.00526,1.09546,1.09546,-0.06814,0.03377,-0.06932,-0.00256,-0.01719,0.01812,-0.02434,1.01297,3.54945,1.09358,1.99363,2.01426,-1.23340,2.58443,3.53002,-1.29771,2.72428,2.06169,2.06169,A,141425.60
3.56604,57.68780304,11.98145930,57.68780417,11.98145833,15:15:03.070787,0.00553,1.09546,1.09546,-0.06912,0.03334,-0.06291,-0.01554,-0.01795,-0.02983,-0.05508,0.99436,3.56008,1.09396,2.00103,2.02140,-1.24043,2.59947,3.53002,-1.29771,2.72428,2.06169,2.06169,A,141425.60
3.57612,57.68780317,11.98145919,57.68780417,11.98145833,15:15:03.080875,0.00522,1.09546,1.09546,-0.07013,0.03317,-0.05619,-0.01081,-0.01428,-0.07009,-0.06191,0.97496,3.57047,1.09426,2.00733,2.02759,-1.24706,2.61348,3.53002,-1.29771,2.72428,2.06169,2.06169,A,141425.60
3.58677,57.68780329,11.98145908,57.68780417,11.98145833,15:15:03.091524,0.00535,1.09546,1.09546,-0.07163,0.03314,-0.04458,-0.00378,-0.01383,-0.01946,-0.10248,0.97057,3.58082,1.09450,2.01269,2.03293,-1.25352,2.62701,3.53002,-1.29771,2.72428,2.06169,2.06169,A,141425.60
3.59775,57.68780341,11.98145897,57.68780417,11.98145833,15:15:03.102509,0.00566,1.09546,1.09546,-0.07285,0.03314,-0.04810,-0.00409,-0.00924,0.01488,-0.08101,0.96325,3.59166,1.09469,2.01725,2.03749,-1.25979,2.64002,3.53002,-1.29771,2.72428,2.06169,2.06169,A,141425.60
3.60792,57.68780352,11.98145887,57.68780417,11.98145833,15:15:03.112675,0.00538,1.09546,1.09546,-0.07340,0.03314,-0.03649,-0.01493,-0.00451,-0.01702,-0.04972,0.99802,3.60211,1.09485,2.02111,2.04136,-1.26562,2.65205,3.53002,-1.29771,2.72428,2.06169,2.06169,A,141425.60
3.61845,57.68780362,11.98145878,57.68780417,11.98145833,15:15:03.123200,0.00533,1.09546,1.09546,-0.07370,0.03314,-0.02672,-0.01554,0.00038,-0.04752,-0.04087,1.00296,3.61250,1.09497,2.02440,2.04464,-1.27120,2.66348,3.53002,-1.29771,2.72428,2.06169,2.06169,A,141425.60
3.62877,57.68780372,11.98145869,57.68780417,11.98145833,15:15:03.133767,0.00524,1.09546,1.09546,-0.07394,0.03314,-0.01939,-0.01081,0.00496,-0.03636,-0.04154,1.00766,3.62312,1.09507,2.02720,2.04744,-1.27657,2.67441,3.53002,-1.29771,2.72428,2.06169,2.06169,A,141425.60
3.65668,57.68780381,11.98145860,57.68780467,11.98145767,15:15:03.161678,0.02274,1.09546,1.09546,-0.07419,0.03314,-0.00274,-0.00333,0.00847,-0.04990,-0.05557,1.02266,3.63330,1.09515,2.02957,2.04981,-1.28163,2.68465,3.65234,-1.33734,2.77987,2.19000,2.19000,A,141425.70
3.66854,57.68780407,11.98145834,57.68780467,11.98145767,15:15:03.173294,0.00537,1.09546,1.09546,-0.07410,0.03314,0.00856,-0.03891,0.00618,0.00378,-0.05228,1.03011,3.66287,1.09521,2.05134,2.07159,-1.29709,2.71382,3.65234,-1.33734,2.77987,2.19000,2.19000,A,141425.70
3.67882,57.68780417,11.98145824,57.68780467,11.98145767,15:15:03.183565,0.00541,1.09546,1.09546,-0.07408,0.03314,0.01528,-0.04761,0.00252,-0.07088,-0.04856,1.01040,3.67281,1.09526,2.06933,2.08958,-1.30316,2.72454,3.65234,-1.33734,2.77987,2.19000,2.19000,A,141425.70
3.68965,57.68780426,11.98145814,57.68780467,11.98145767,15:15:03.194401,0.00584,1.09546,1.09546,-0.07402,0.03314,0.02215,-0.03891,-0.00176,-0.09290,-0.04978,0.98228,3.68340,1.09530,2.08464,2.10488,-1.30923,2.73494,3.65234,-1.33734,2.77987,2.19000,2.19000,A,141425.70
3.69970,57.68780435,11.98145804,57.68780467,11.98145767,15:15:03.204455,0.00549,1.09546,1.09546,-0.07418,0.03314,0.02078,-0.02623,-0.00359,-0.04947,-0.06228,0.97081,3.69401,1.09533,2.09764,2.11788,-1.31502,2.74460,3.65234,-1.33734,2.77987,2.19000,2.19000,A,141425.70
3.71030,57.68780443,11.98145795,57.68780467,11.98145767,15:15:03.215056,0.00557,1.09546,1.09546,-0.07440,0.03314,0.02536,-0.01295,-0.00665,-0.05130,-0.07216,1.01004,3.70431,1.09536,2.10869,2.12894,-1.32072,2.75389,3.65234,-1.33734,2.77987,2.19000,2.19000,A,141425.70
3.72081,57.68780451,11.98145786,57.68780467,11.98145767,15:15:03.225898,0.00568,1.09546,1.09546,-0.07452,0.03314,0.02353,-0.01325,-0.00833,-0.07393,-0.06612,1.02834,3.71470,1.09538,2.11809,2.13833,-1.32611,2.76249,3.65234,-1.33734,2.77987,2.19000,2.19000,A,141425.70
3.73132,57.68780458,11.98145777,57.68780467,11.98145767,15:15:03.236075,0.00595,1.09546,1.09546,-0.07416,0.03314,0.02994,-0.01600,-0.00604,-0.05002,-0.03806,1.06067,3.72480,1.09540,2.12606,2.14630,-1.33107,2.77026,3.65234,-1.33734,2.77987,2.19000,2.19000,A,141425.70
3.74293,57.68780465,11.98145769,57.68780467,11.98145767,15:15:03.247692,0.00716,1.09546,1.09546,-0.07363,0.03314,0.03193,-0.01188,-0.00680,-0.06124,-0.02928,1.05786,3.73593,1.09541,2.13285,2.15310,-1.33620,2.77816,3.65234,-1.33734,2.77987,2.19000,2.19000,A,141425.70
3.75217,57.68780471,11.98145762,57.68780467,11.98145767,15:15:03.256918,0.00598,1.09546,1.09546,-0.07327,0.03314,0.03193,-0.00409,-0.01123,-0.04233,-0.03660,1.04536,3.74555,1.09542,2.13858,2.15883,-1.34016,2.78418,3.65234,-1.33734,2.77987,2.19000,2.19000,A,141425.70
3.77924,57.68780476,11.98145755,57.68780600,11.98145600,15:15:03.283991,0.02266,1.09546,1.09546,-0.07295,0.03314,0.03880,-0.00027,-0.00665,-0.01714,-0.04490,1.00699,3.75616,1.09543,2.14348,2.16372,-1.34457,2.79079,3.77557,-1.43640,2.92813,2.15984,2.15984,A,141425.80
3.79097,57.68780502,11.98145722,57.68780600,11.98145600,15:15:03.295717,0.00573,1.09546,1.09546,-0.07167,0.03314,0.04292,-0.02211,-0.00543,-0.02538,-0.03068,0.92830,3.78472,1.09544,2.14361,2.16386,-1.36396,2.81961,3.77557,-1.43640,2.92813,2.15984,2.15984,A,141425.80
3.80170,57.68780514,11.98145707,57.68780600,11.98145600,15:15:03.306456,0.00606,1.09546,1.09546,-0.07108,0.03314,0.04338,-0.01570,-0.00573,-0.06326,-0.02751,0.94520,3.79573,1.09544,2.14325,2.16350,-1.37261,2.83250,3.77557,-1.43640,2.92813,2.15984,2.15984,A,141425.80
3.81130,57.68780524,11.98145695,57.68780600,11.98145600,15:15:03.316054,0.00525,1.09546,1.09546,-0.07082,0.03311,0.04689,-0.01585,-0.00787,-0.00561,-0.04575,0.94648,3.80541,1.09544,2.14292,2.16315,-1.38022,2.84385,3.77557,-1.43640,2.92813,2.15984,2.15984,A,141425.80
3.82237,57.68780535,11.98145681,57.68780600,11.98145600,15:15:03.327120,0.00566,1.09546,1.09546,-0.07024,0.03300,0.04659,-0.01386,-0.00833,-0.00555,-0.03068,0.98143,3.81639,1.09545,2.14269,2.16284,-1.38823,2.85579,3.77557,-1.43640,2.92813,2.15984,2.15984,A,141425.80
3.83235,57.68780545,11.98145669,57.68780600,11.98145600,15:15:03.337100,0.00524,1.09546,1.09546,-0.06973,0.03280,0.04323,-0.01509,-0.00863,-0.04227,-0.03178,1.01937,3.82668,1.09545,2.14248,2.16252,-1.39539,2.86647,3.77557,-1.43640,2.92813,2.15984,2.15984,A,141425.80
3.84270,57.68780554,11.98145657,57.68780600,11.98145600,15:15:03.347446,0.00535,1.09546,1.09546,-0.06929,0.03258,0.04598,-0.01402,-0.01047,-0.02678,-0.03776,1.03889,3.83674,1.09545,2.14233,2.16223,-1.40223,2.87668,3.77557,-1.43640,2.92813,2.15984,2.15984,A,141425.80
3.85489,57.68780563,11.98145646,57.68780600,11.98145600,15:15:03.359647,0.00714,1.09546,1.09546,-0.06879,0.03235,0.04689,-0.01341,-0.01138,-0.01720,-0.03623,1.05432,3.84747,1.09546,2.14223,2.16199,-1.40895,2.88672,3.77557,-1.43640,2.92813,2.15984,2.15984,A,141425.80
3.86340,57.68780570,11.98145638,57.68780600,11.98145600,15:15:03.368149,0.00539,1.09546,1.09546,-0.06866,0.03212,0.04643,-0.02058,-0.01077,-0.02940,-0.05905,1.04767,3.85746,1.09546,2.14211,2.16173,-1.41408,2.89438,3.77557,-1.43640,2.92813,2.15984,2.15984,A,141425.80
3.87393,57.68780578,11.98145627,57.68780600,11.98145600,15:15:03.378687,0.00553,1.34225,1.34225,-0.06808,0.03193,0.05270,-0.02165,-0.00741,-0.01037,-0.03123,1.02706,3.86797,1.14481,2.14207,2.16157,-1.42009,2.90337,3.77557,-1.43640,2.92813,2.15984,2.15984,A,141425.80
3.90225,57.68780586,11.98145618,57.68780717,11.98145617,15:15:03.407181,0.02344,1.34225,1.34225,-0.06782,0.03176,0.05270,-0.02440,-0.01047,0.01732,-0.04972,0.98716,3.87836,1.18430,2.14206,2.16146,-1.42593,2.91210,3.89575,-1.42649,3.05786,1.49458,1.49458,A,141425.90
3.91374,57.68780615,11.98145589,57.68780717,11.98145617,15:15:03.418504,0.00633,1.34225,1.34225,-0.06658,0.03156,0.05804,-0.03036,-0.00604,-0.04514,-0.05618,0.93971,3.90753,1.21589,2.04285,2.06213,-1.44320,2.94510,3.89575,-1.42649,3.05786,1.49458,1.49458,A,141425.90
3.92296,57.68780627,11.98145583,57.68780717,11.98145617,15:15:03.427705,0.00531,1.34225,1.34225,-0.06645,0.03156,0.06277,-0.02333,-0.00314,-0.00854,-0.05624,0.92616,3.91704,1.24116,1.95795,1.97722,-1.44647,2.95841,3.89575,-1.42649,3.05786,1.49458,1.49458,A,141425.90
3.93452,57.68780640,11.98145578,57.68780717,11.98145617,15:15:03.439277,0.00647,1.34225,1.34225,-0.06583,0.03156,0.05575,-0.02761,-0.00115,-0.01580,-0.02696,0.97533,3.92764,1.26138,1.88581,1.90509,-1.44946,2.97264,3.89575,-1.42649,3.05786,1.49458,1.49458,A,141425.90
3.94599,57.68780653,11.98145574,57.68780717,11.98145617,15:15:03.450750,0.00754,10.79984,1.34225,-0.06527,0.03156,0.05743,-0.02776,-0.00222,0.00305,-0.03910,0.99759,3.93999,1.27755,1.82452,1.84380,-1.45199,2.98749,3.89575,-1.42649,3.05786,1.49458,1.49458,A,141425.90
3.95903,57.68780667,11.98145570,57.68780717,11.98145617,15:15:03.463784,0.00992,10.79984,1.34225,-0.06432,0.03156,0.06155,-0.02837,-0.00466,-0.01440,-0.01690,1.05518,3.95236,1.29049,1.77246,1.79174,-1.45407,3.00301,3.89575,-1.42649,3.05786,1.49458,1.49458,A,141425.90
3.96817,57.68780678,11.98145569,57.68780717,11.98145617,15:15:03.472923,0.00827,10.79984,1.34225,-0.06335,0.03156,0.06675,-0.02868,-0.00039,-0.03190,-0.00860,1.05225,3.96251,1.30084,1.72812,1.74740,-1.45467,3.01457,3.89575,-1.42649,3.05786,1.49458,1.49458,A,141425.90
3.97782,57.68780688,11.98145569,57.68780717,11.98145617,15:15:03.482572,0.00752,10.79984,1.34225,-0.06261,0.03156,0.06812,-0.03769,0.00389,-0.02965,-0.02092,1.06256,3.97184,1.30912,1.69044,1.70972,-1.45490,3.02590,3.89575,-1.42649,3.05786,1.49458,1.49458,A,141425.90
3.98804,57.68780699,11.98145569,57.68780717,11.98145617,15:15:03.492790,0.00734,10.79984,1.34225,-0.06171,0.03156,0.07194,-0.03356,0.00435,-0.03544,-0.01690,1.02425,3.98236,1.31575,1.65844,1.67772,-1.45493,3.03788,3.89575,-1.42649,3.05786,1.49458,1.49458,A,141425.90
4.02696,57.68780709,11.98145569,57.68780883,11.98145367,15:15:03.531724,0.03585,10.79984,1.34225,-0.06076,0.03156,0.06339,-0.03387,0.00985,-0.05941,-0.00451,1.00558,3.99260,1.32105,1.63124,1.65052,-1.45463,3.04934,4.02096,-1.57509,3.24319,2.24663,2.24663,A,141426.10
4.04060,57.68780763,11.98145552,57.68780883,11.98145367,15:15:03.545358,0.00693,10.79984,1.34225,-0.05846,0.03156,0.05789,-0.00607,0.00297,0.00403,-0.03013,0.94196,4.03491,1.32529,1.72196,1.74123,-1.46466,3.10914,4.02096,-1.57509,3.24319,2.24663,2.24663,A,141426.10
4.05150,57.68780779,11.98145540,57.68780883,11.98145367,15:15:03.556250,0.00742,10.79984,1.34225,-0.05761,0.03156,0.04888,-0.00898,-0.00069,-0.03617,-0.00018,0.98472,4.04558,1.32868,1.79806,1.81733,-1.47211,3.12705,4.02096,-1.57509,3.24319,2.24663,2.24663,A,141426.10
4.06363,57.68780795,11.98145526,57.68780883,11.98145367,15:15:03.568380,0.00915,10.79984,1.34225,-0.05711,0.03156,0.05254,-0.01875,-0.00726,-0.01946,-0.03013,0.99717,4.05794,1.33139,1.86279,1.88206,-1.48043,3.14548,4.02096,-1.57509,3.24319,2.24663,2.24663,A,141426.10
4.07214,57.68780807,11.98145514,57.68780883,11.98145367,15:15:03.576898,0.00744,10.79984,1.34225,-0.05641,0.03156,0.04521,-0.02455,-0.00787,0.01092,-0.00037,1.02809,4.06649,1.33356,1.91769,1.93697,-1.48777,3.15847,4.02096,-1.57509,3.24319,2.24663,2.24663,A,141426.10
4.08256,57.68780820,11.98145500,57.68780883,11.98145367,15:15:03.587313,0.00745,10.79984,1.34225,-0.05591,0.03156,0.05193,-0.03188,-0.00924,-0.00061,-0.02166,1.02193,4.07659,1.33530,1.96442,1.98369,-1.49591,3.17253,4.02096,-1.57509,3.24319,2.24663,2.24663,A,141426.10
4.09278,57.68780832,11.98145486,57.68780883,11.98145367,15:15:03.597919,0.00744,10.79984,1.34225,-0.05520,0.03156,0.05071,-0.04441,-0.01092,-0.08235,-0.00811,1.05304,4.08710,1.33669,2.00413,2.02341,-1.50415,3.18583,4.02096,-1.57509,3.24319,2.24663,2.24663,A,141426.10
4.10321,57.68780843,11.98145472,57.68780883,11.98145367,15:15:03.607967,0.00743,10.79984,1.34225,-0.05486,0.03156,0.05529,-0.03204,-0.00054,-0.03831,-0.03495,1.04414,4.09728,1.33780,2.03789,2.05717,-1.51234,3.19826,4.02096,-1.57509,3.24319,2.24663,2.24663,A,141426.10
4.11376,57.68780853,11.98145459,57.68780883,11.98145367,15:15:03.618512,0.00757,10.79984,1.34225,-0.05472,0.03156,0.05758,-0.02700,0.00557,-0.05948,-0.05142,1.03383,4.10778,1.33869,2.06659,2.08586,-1.52050,3.21000,4.02096,-1.57509,3.24319,2.24663,2.24663,A,141426.10
4.14350,57.68780866,11.98145442,57.68781017,11.98145300,15:15:03.648254,0.02691,10.79984,1.34225,-0.05402,0.03156,0.06476,-0.01600,0.01137,-0.04056,-0.02898,0.99003,4.12135,1.33940,2.09108,2.11035,-1.53043,3.22438,4.13919,-1.61471,3.39145,1.83196,1.83196,A,141426.20
4.15561,57.68780900,11.98145406,57.68781017,11.98145300,15:15:03.660365,0.00723,10.79984,1.34225,-0.05280,0.03156,0.06613,-0.01111,0.02160,-0.01921,-0.05679,0.95685,4.14971,1.33997,2.05019,2.06946,-1.55193,3.26161,4.13919,-1.61471,3.39145,1.83196,1.83196,A,141426.20
4.16740,57.68780916,11.98145390,57.68781017,11.98145300,15:15:03.672150,0.00798,10.79984,1.34225,-0.05174,0.03156,0.06186,-0.02012,0.01336,-0.02782,0.00579,0.98405,4.16149,1.34043,2.01488,2.03416,-1.56101,3.27900,4.13919,-1.61471,3.39145,1.83196,1.83196,A,141426.20
4.17751,57.68780928,11.98145378,57.68781017,11.98145300,15:15:03.682273,0.00785,10.79984,1.34225,-0.05092,0.03156,0.05743,-0.02165,0.00664,0.00952,0.00268,0.99906,4.17120,1.34079,1.98480,2.00408,-1.56806,3.29336,4.13919,-1.61471,3.39145,1.83196,1.83196,A,141426.20
4.18755,57.68780942,11.98145367,57.68781017,11.98145300,15:15:03.692304,0.00749,10.79984,1.34225,-0.04966,0.03156,0.05300,-0.03112,0.00328,-0.04496,0.03398,1.04298,4.18165,1.34108,1.95928,1.97855,-1.57512,3.30849,4.13919,-1.61471,3.39145,1.83196,1.83196,A,141426.20
4.19817,57.68780955,11.98145356,57.68781017,11.98145300,15:15:03.702922,0.00770,10.79984,1.34225,-0.04867,0.03156,0.06323,-0.02898,-0.00344,-0.05655,0.01000,1.06244,4.19199,1.34131,1.93756,1.95684,-1.58130,3.32236,4.13919,-1.61471,3.39145,1.83196,1.83196,A,141426.20
4.20843,57.68780967,11.98145347,57.68781017,11.98145300,15:15:03.713179,0.00738,10.79984,1.34225,-0.04798,0.03156,0.05529,-0.02471,-0.00084,-0.06362,-0.00573,1.07220,4.20255,1.34150,1.91911,1.93838,-1.58702,3.33577,4.13919,-1.61471,3.39145,1.83196,1.83196,A,141426.20
4.21895,57.68780978,11.98145338,57.68781017,11.98145300,15:15:03.725009,0.00750,10.79984,1.34225,-0.04746,0.03156,0.06079,-0.00852,-0.00390,-0.08229,-0.02001,1.05859,4.21297,1.34165,1.90342,1.92269,-1.59226,3.34856,4.13919,-1.61471,3.39145,1.83196,1.83196,A,141426.20
4.23357,57.68780993,11.98145327,57.68781017,11.98145300,15:15:03.738329,0.01163,10.79984,1.34225,-0.04653,0.03156,0.05758,0.00370,-0.00482,-0.11023,-0.00500,1.05878,4.22757,1.34177,1.89022,1.90950,-1.59888,3.36568,4.13919,-1.61471,3.39145,1.83196,1.83196,A,141426.20
4.26326,57.68781007,11.98145317,57.68781133,11.98145217,15:15:03.768040,0.02401,10.79984,1.34225,-0.04652,0.03156,0.05774,0.01592,0.00374,-0.01257,-0.05789,0.99094,4.24038,1.34186,1.87895,1.89823,-1.60431,3.38015,4.25763,-1.66424,3.52117,1.93552,1.93552,A,141426.30
4.27620,57.68781043,11.98145293,57.68781133,11.98145217,15:15:03.780948,0.00695,10.79984,1.34225,-0.04506,0.03156,0.04720,-0.01906,0.00801,0.00830,-0.00531,0.89121,4.27051,1.34194,1.88546,1.90474,-1.61878,3.42098,4.25763,-1.66424,3.52117,1.93552,1.93552,A,141426.30
4.28711,57.68781057,11.98145283,57.68781133,11.98145217,15:15:03.791859,0.00746,10.79984,1.34225,-0.04454,0.03156,0.04384,-0.02791,0.00496,-0.03294,-0.00458,0.94154,4.28116,1.34200,1.89037,1.90965,-1.62475,3.43664,4.25763,-1.66424,3.52117,1.93552,1.93552,A,141426.30
4.29738,57.68781070,11.98145274,57.68781133,11.98145217,15:15:03.802138,0.00752,10.79984,1.34225,-0.04440,0.03156,0.03803,-0.02929,-0.00130,-0.05905,-0.02355,0.96911,4.29147,1.34205,1.89452,1.91380,-1.63021,3.45076,4.25763,-1.66424,3.52117,1.93552,1.93552,A,141426.30
4.30806,57.68781083,11.98145265,57.68781133,11.98145217,15:15:03.812815,0.00779,10.79984,1.34225,-0.04395,0.03156,0.02796,-0.03036,-0.00344,-0.04404,0.00201,0.99631,4.30216,1.34209,1.89808,1.91735,-1.63573,3.46496,4.25763,-1.66424,3.52117,1.93552,1.93552,A,141426.30
4.31817,57.68781094,11.98145256,57.68781133,11.98145217,15:15:03.822921,0.00750,10.79984,1.34225,-0.04395,0.03156,0.01940,-0.02196,-0.01077,0.00177,-0.02117,1.01510,4.31217,1.34212,1.90107,1.92035,-1.64070,3.47758,4.25763,-1.66424,3.52117,1.93552,1.93552,A,141426.30
4.33469,57.68781112,11.98145244,57.68781133,11.98145217,15:15:03.839441,0.01274,10.79984,1.34225,-0.04334,0.03156,0.01711,-0.02455,-0.01627,-0.00195,0.01476,1.00931,4.32863,1.34215,1.90382,1.92309,-1.64814,3.49696,4.25763,-1.66424,3.52117,1.93552,1.93552,A,141426.30
4.34745,57.68781124,11.98145234,57.68781133,11.98145217,15:15:03.852197,0.00713,10.79984,1.34225,-0.04319,0.03156,0.00551,-0.02791,-0.01612,0.02672,-0.00171,0.94013,4.34154,1.34217,1.90604,1.92532,-1.65377,3.51129,4.25763,-1.66424,3.52117,1.93552,1.93552,A,141426.30
4.37555,57.68781134,11.98145227,57.68781267,11.98145083,15:15:03.880302,0.02483,10.79984,1.34225,-0.04285,0.03147,0.00703,-0.03983,-0.02238,0.03343,0.01037,0.91610,4.35225,1.34218,1.90787,1.92709,-1.65814,3.52216,4.37171,-1.74349,3.66943,2.06169,2.06169,A,141426.40
4.38817,57.68781171,11.98145199,57.68781267,11.98145083,15:15:03.892925,0.00687,10.79984,1.34225,-0.04360,0.02943,-0.01282,-0.04044,-0.01612,-0.07784,-0.03385,1.05689,4.38250,1.34219,1.92916,1.94714,-1.67490,3.56310,4.37171,-1.74349,3.66943,2.06169,2.06169,A,141426.40
4.39937,57.68781185,11.98145186,57.68781267,11.98145083,15:15:03.904128,0.00766,10.79984,1.34225,-0.04359,0.02827,-0.01969,-0.00882,-0.01627,-0.10108,0.00732,1.10642,4.39338,1.34221,1.94673,1.96400,-1.68258,3.57918,4.37171,-1.74349,3.66943,2.06169,2.06169,A,141426.40
4.40981,57.68781198,11.98145174,57.68781267,11.98145083,15:15:03.914569,0.00770,10.79984,1.34225,-0.04322,0.02726,-0.02473,0.00950,-0.01276,-0.08101,0.03703,1.12344,4.40383,1.34221,1.96172,1.97837,-1.68970,3.59351,4.37171,-1.74349,3.66943,2.06169,2.06169,A,141426.40
4.42002,57.68781211,11.98145162,57.68781267,11.98145083,15:15:03.924768,0.00751,10.79984,1.34225,-0.04268,0.02646,-0.02382,0.01729,-0.01367,-0.00854,0.04825,1.09355,4.41433,1.34222,1.97453,1.99069,-1.69664,3.60715,4.37171,-1.74349,3.66943,2.06169,2.06169,A,141426.40
4.43610,57.68781225,11.98145148,57.68781267,11.98145083,15:15:03.940859,0.01318,10.79984,1.34225,-0.04249,0.02587,-0.02702,0.00294,-0.00817,-0.00213,0.02843,1.03407,4.42714,1.34223,1.98555,2.00135,-1.70491,3.62353,4.37171,-1.74349,3.66943,2.06169,2.06169,A,141426.40
4.44924,57.68781239,11.98145135,57.68781267,11.98145083,15:15:03.954003,0.00711,10.79984,1.34225,-0.04241,0.02564,-0.03038,-0.01218,-0.01138,0.03074,0.02898,0.95416,4.44331,1.34223,1.99492,2.01058,-1.71275,3.63871,4.37171,-1.74349,3.66943,2.06169,2.06169,A,141426.40
4.46072,57.68781250,11.98145124,57.68781267,11.98145083,15:15:03.965698,0.00818,10.79984,1.34225,-0.04293,0.02564,-0.03145,-0.03433,-0.01627,-0.01257,-0.01757,0.93507,4.45420,1.34223,2.00283,2.01849,-1.71921,3.65070,4.37171,-1.74349,3.66943,2.06169,2.06169,A,141426.40
4.46980,57.68781257,11.98145117,57.68781267,11.98145083,15:15:03.974562,0.00687,1.39246,1.39246,-0.04333,0.02564,-0.03588,-0.03585,-0.01795,-0.05081,-0.01354,0.95044,4.46249,1.35228,2.00946,2.02512,-1.72363,3.65832,4.37171,-1.74349,3.66943,2.06169,2.06169,A,141426.40
4.49391,57.68781264,11.98145109,57.68781350,11.98145000,15:15:03.998667,0.02061,1.39246,1.39246,-0.04440,0.02564,-0.04367,-0.02165,-0.02116,-0.09473,-0.04843,0.97447,4.47269,1.36031,2.01513,2.03079,-1.72846,3.66673,4.49015,-1.79302,3.76210,2.06169,2.06169,A,141426.50
4.50437,57.68781293,11.98145080,57.68781350,11.98145000,15:15:04.009127,0.00537,1.39246,1.39246,-0.04545,0.02564,-0.05405,0.03149,-0.01856,-0.02977,0.01293,0.99765,4.49868,1.36674,2.02041,2.03607,-1.74537,3.69912,4.49015,-1.79302,3.76210,2.06169,2.06169,A,141426.50
4.51461,57.68781305,11.98145068,57.68781350,11.98145000,15:15:04.019361,0.00530,1.39246,1.39246,-0.04535,0.02564,-0.05268,0.02951,-0.02024,-0.02995,0.03215,1.03730,4.50869,1.37189,2.02448,2.04014,-1.75252,3.71175,4.49015,-1.79302,3.76210,2.06169,2.06169,A,141426.50
4.52659,57.68781316,11.98145056,57.68781350,11.98145000,15:15:04.031355,0.00688,1.39246,1.39246,-0.04587,0.02564,-0.05115,0.02706,-0.01306,0.01098,-0.00878,1.02523,4.51928,1.37600,2.02794,2.04360,-1.75958,3.72420,4.49015,-1.79302,3.76210,2.06169,2.06169,A,141426.50
4.53555,57.68781327,11.98145045,57.68781350,11.98145000,15:15:04.040300,0.00539,1.39246,1.39246,-0.04616,0.02564,-0.05711,0.01088,-0.01398,-0.00561,0.00903,1.04652,4.52965,1.37929,2.03089,2.04656,-1.76648,3.73631,4.49015,-1.79302,3.76210,2.06169,2.06169,A,141426.50
4.54606,57.68781337,11.98145034,57.68781350,11.98145000,15:15:04.050817,0.00550,1.39246,1.39246,-0.04707,0.02564,-0.05680,-0.00333,-0.01215,0.01061,-0.03270,1.01004,4.54013,1.38192,2.03340,2.04906,-1.77288,3.74744,4.49015,-1.79302,3.76210,2.06169,2.06169,A,141426.50
4.55617,57.68781346,11.98145024,57.68781350,11.98145000,15:15:04.060921,0.00520,1.39246,1.39246,-0.04730,0.02564,-0.06154,-0.01325,-0.01031,-0.04685,0.01549,1.00363,4.55052,1.38403,2.03552,2.05118,-1.77891,3.75787,4.49015,-1.79302,3.76210,2.06169,2.06169,A,141426.50
4.56689,57.68781355,11.98145014,57.68781350,11.98145000,15:15:04.071642,0.00552,1.39246,1.39246,-0.04813,0.02564,-0.06062,-0.00959,-0.01199,-0.02184,-0.02580,0.97905,4.56078,1.38572,2.03733,2.05299,-1.78476,3.76795,4.49015,-1.79302,3.76210,2.06169,2.06169,A,141426.50
4.57726,57.68781364,11.98145005,57.68781350,11.98145000,15:15:04.083065,0.00548,1.39246,1.39246,-0.04884,0.02564,-0.07330,0.00355,-0.00680,-0.12859,-0.00921,1.01711,4.57137,1.38706,2.03886,2.05452,-1.79028,3.77741,4.49015,-1.79302,3.76210,2.06169,2.06169,A,141426.50
4.58743,57.68781372,11.98144996,57.68781350,11.98145000,15:15:04.092180,0.00525,1.39246,1.39246,-0.04917,0.02564,-0.07223,0.02829,-0.01673,-0.10681,0.01299,1.01034,4.58156,1.38814,2.04018,2.05584,-1.79568,3.78668,4.49015,-1.79302,3.76210,2.06169,2.06169,A,141426.50
4.62702,57.68781380,11.98144987,57.68781567,11.98144733,15:15:04.131772,0.03442,1.39246,1.39246,-0.04995,0.02564,-0.07788,0.04310,-0.01215,0.01013,-0.01098,0.97972,4.59216,1.38901,2.04129,2.05695,-1.80084,3.79548,4.62267,-1.95152,4.00302,2.15270,2.15270,A,141426.70
4.64379,57.68781435,11.98144929,57.68781567,11.98144733,15:15:04.148542,0.00710,1.39246,1.39246,-0.05348,0.02564,-0.06199,0.00904,-0.03169,-0.02678,-0.06411,1.00924,4.63806,1.38970,2.05686,2.07252,-1.83528,3.85677,4.62267,-1.95152,4.00302,2.15270,2.15270,A,141426.70
4.65232,57.68781449,11.98144912,57.68781567,11.98144733,15:15:04.157071,0.00522,1.39246,1.39246,-0.05424,0.02564,-0.05925,0.00171,-0.02772,0.00793,-0.03514,0.99735,4.64663,1.39025,2.06907,2.08473,-1.84535,3.87185,4.62267,-1.95152,4.00302,2.15270,2.15270,A,141426.70
4.66270,57.68781463,11.98144894,57.68781567,11.98144733,15:15:04.167455,0.00536,1.39246,1.39246,-0.05567,0.02564,-0.05207,-0.00760,-0.02574,0.00750,-0.07918,0.99674,4.65673,1.39069,2.07949,2.09516,-1.85604,3.88794,4.62267,-1.95152,4.00302,2.15270,2.15270,A,141426.70
4.67414,57.68781478,11.98144876,57.68781567,11.98144733,15:15:04.178895,0.00640,1.39246,1.39246,-0.05641,0.02564,-0.03817,-0.00669,-0.02238,-0.04380,-0.04002,0.97039,4.66813,1.39104,2.08838,2.10404,-1.86697,3.90433,4.62267,-1.95152,4.00302,2.15270,2.15270,A,141426.70
4.68456,57.68781490,11.98144860,57.68781567,11.98144733,15:15:04.189312,0.00641,1.39246,1.39246,-0.05714,0.02564,-0.03328,0.00339,-0.00894,-0.11944,-0.04874,0.99448,4.67750,1.39133,2.09588,2.11154,-1.87606,3.91750,4.62267,-1.95152,4.00302,2.15270,2.15270,A,141426.70
4.69436,57.68781501,11.98144845,57.68781567,11.98144733,15:15:04.199113,0.00581,1.39246,1.39246,-0.05762,0.02564,-0.03084,0.01912,-0.00283,-0.07259,-0.03105,0.97600,4.68837,1.39155,2.10227,2.11793,-1.88508,3.93052,4.62267,-1.95152,4.00302,2.15270,2.15270,A,141426.70
4.70418,57.68781513,11.98144830,57.68781567,11.98144733,15:15:04.209125,0.00523,1.39246,1.39246,-0.05830,0.02564,-0.01679,0.02141,0.00206,0.03099,-0.05472,0.97496,4.69851,1.39173,2.10770,2.12337,-1.89392,3.94320,4.62267,-1.95152,4.00302,2.15270,2.15270,A,141426.70
4.71565,57.68781524,11.98144816,57.68781567,11.98144733,15:15:04.220408,0.00635,1.39246,1.39246,-0.05863,0.02561,-0.00992,0.00981,-0.00283,-0.00976,-0.03770,0.99552,4.70868,1.39188,2.11234,2.12798,-1.90260,3.95560,4.62267,-1.95152,4.00302,2.15270,2.15270,A,141426.70
4.74053,57.68781534,11.98144803,57.68781667,11.98144600,15:15:04.245284,0.02082,1.39246,1.39246,-0.05896,0.02553,-0.00778,0.00385,-0.00329,-0.05124,-0.04178,1.04005,4.71930,1.39199,2.11626,2.13185,-1.91031,3.96642,4.73622,-2.03077,4.11421,2.19000,2.19000,A,141426.80
4.75122,57.68781565,11.98144764,57.68781667,11.98144600,15:15:04.255965,0.00541,1.39246,1.39246,-0.05946,0.02471,0.00092,0.00477,-0.02299,0.00268,-0.06143,1.04206,4.74525,1.39209,2.12572,2.14082,-1.93333,4.00085,4.73622,-2.03077,4.11421,2.19000,2.19000,A,141426.80
4.76174,57.68781578,11.98144746,57.68781667,11.98144600,15:15:04.266497,0.00553,1.39246,1.39246,-0.05947,0.02448,0.00352,-0.00699,-0.02222,-0.04898,-0.02812,1.03218,4.75580,1.39216,2.13335,2.14830,-1.94423,4.01592,4.73622,-2.03077,4.11421,2.19000,2.19000,A,141426.80
4.77227,57.68781591,11.98144728,57.68781667,11.98144600,15:15:04.277019,0.00566,1.39246,1.39246,-0.05978,0.02445,0.00581,-0.01829,-0.02375,-0.00769,-0.04691,0.96831,4.76618,1.39222,2.13983,2.15476,-1.95457,4.03007,4.73622,-2.03077,4.11421,2.19000,2.19000,A,141426.80
4.78251,57.68781603,11.98144712,57.68781667,11.98144600,15:15:04.287259,0.00534,1.39246,1.39246,-0.05958,0.02445,0.01284,-0.02501,-0.01963,0.00092,-0.01836,0.92775,4.77656,1.39227,2.14533,2.16026,-1.96434,4.04330,4.73622,-2.03077,4.11421,2.19000,2.19000,A,141426.80
4.79332,57.68781615,11.98144696,57.68781667,11.98144600,15:15:04.298083,0.00575,1.39246,1.39246,-0.05968,0.02445,0.02001,-0.03631,-0.01642,-0.05716,-0.04221,0.95160,4.78716,1.39231,2.15001,2.16495,-1.97393,4.05621,4.73622,-2.03077,4.11421,2.19000,2.19000,A,141426.80
4.80324,57.68781625,11.98144681,57.68781667,11.98144600,15:15:04.307998,0.00527,1.39246,1.39246,-0.05952,0.02445,0.01879,-0.02669,-0.01612,-0.07393,-0.02544,0.97002,4.79733,1.39234,2.15399,2.16892,-1.98277,4.06798,4.73622,-2.03077,4.11421,2.19000,2.19000,A,141426.80
4.81409,57.68781636,11.98144666,57.68781667,11.98144600,15:15:04.318850,0.00571,1.39246,1.39246,-0.06023,0.02445,0.02169,-0.01875,-0.01001,-0.05911,-0.08638,0.98954,4.80810,1.39236,2.15738,2.17231,-1.99167,4.07984,4.73622,-2.03077,4.11421,2.19000,2.19000,A,141426.80
4.82524,57.68781645,11.98144652,57.68781667,11.98144600,15:15:04.330009,0.00662,1.39246,1.39246,-0.05999,0.02445,0.01681,-0.01615,-0.00833,-0.04490,-0.02105,1.02809,4.81855,1.39238,2.16025,2.17519,-1.99986,4.09065,4.73622,-2.03077,4.11421,2.19000,2.19000,A,141426.80
4.83448,57.68781654,11.98144640,57.68781667,11.98144600,15:15:04.339233,0.00530,1.39246,1.39246,-0.05948,0.02443,0.01879,0.00171,-0.01138,-0.05484,-0.00348,1.01406,4.82854,1.39239,2.16267,2.17759,-2.00701,4.09993,4.73622,-2.03077,4.11421,2.19000,2.19000,A,141426.80
4.86078,57.68781663,11.98144627,57.68781750,11.98144583,15:15:04.365787,0.02120,1.39246,1.39246,-0.05884,0.02431,0.02582,0.01133,-0.01612,-0.04172,0.00061,1.02742,4.83917,1.39241,2.16477,2.17962,-2.01465,4.10994,4.85604,-2.04068,4.20687,1.67730,1.67730,A,141426.90
4.87128,57.68781691,11.98144594,57.68781750,11.98144583,15:15:04.376031,0.00536,1.39246,1.39246,-0.05778,0.02335,0.02597,-0.01493,-0.02620,0.00445,0.00250,1.00955,4.86535,1.39242,2.09015,2.10441,-2.03440,4.14125,4.85604,-2.04068,4.20687,1.67730,1.67730,A,141426.90
4.88224,57.68781703,11.98144583,57.68781750,11.98144583,15:15:04.386999,0.00576,1.39246,1.39246,-0.05790,0.02273,0.03590,-0.02089,-0.02665,-0.02775,-0.05642,0.99302,4.87626,1.39243,2.02637,2.04025,-2.04067,4.15462,4.85604,-2.04068,4.20687,1.67730,1.67730,A,141426.90
4.89246,57.68781714,11.98144575,57.68781750,11.98144583,15:15:04.397209,0.00557,1.39246,1.39246,-0.05783,0.02210,0.02582,-0.02333,-0.03200,-0.01775,-0.03538,0.99613,4.88643,1.39243,1.97218,1.98568,-2.04549,4.16673,4.85604,-2.04068,4.20687,1.67730,1.67730,A,141426.90
4.90279,57.68781725,11.98144568,57.68781750,11.98144583,15:15:04.407540,0.00549,1.39246,1.39246,-0.05802,0.02140,0.03009,-0.01417,-0.03062,-0.04392,-0.05691,1.01498,4.89667,1.39244,1.92618,1.93925,-2.04956,4.17853,4.85604,-2.04068,4.20687,1.67730,1.67730,A,141426.90
4.91372,57.68781736,11.98144562,57.68781750,11.98144583,15:15:04.418470,0.00601,1.39246,1.39246,-0.05778,0.02052,0.02414,0.00248,-0.02986,-0.07125,-0.02586,1.02395,4.90774,1.39244,1.88717,1.89970,-2.05332,4.19083,4.85604,-2.04068,4.20687,1.67730,1.67730,A,141426.90
4.92337,57.68781745,11.98144558,57.68781750,11.98144583,15:15:04.429012,0.00526,1.39246,1.39246,-0.05775,0.01959,0.02353,0.01149,-0.02803,-0.06313,-0.03599,0.99991,4.91747,1.39244,1.85407,1.86603,-2.05596,4.20121,4.85604,-2.04068,4.20687,1.67730,1.67730,A,141426.90
4.93438,57.68781755,11.98144553,57.68781750,11.98144583,15:15:04.439137,0.00588,1.39246,1.39246,-0.05718,0.01843,0.02628,0.01515,-0.02894,-0.01092,-0.00384,1.00815,4.92807,1.39245,1.82604,1.83730,-2.05849,4.21232,4.85604,-2.04068,4.20687,1.67730,1.67730,A,141426.90
4.94415,57.68781764,11.98144550,57.68781750,11.98144583,15:15:04.448899,0.00524,1.39246,1.39246,-0.05706,0.01715,0.02628,0.01622,-0.02635,0.00512,-0.03312,1.00735,4.93847,1.39245,1.80232,1.81279,-2.06037,4.22223,4.85604,-2.04068,4.20687,1.67730,1.67730,A,141426.90
4.95467,57.68781773,11.98144547,57.68781750,11.98144583,15:15:04.459427,0.00537,1.39246,1.39246,-0.05658,0.01571,0.03101,0.01072,-0.02925,0.02983,-0.01226,0.97332,4.94873,1.39245,1.78228,1.79188,-2.06207,4.23232,4.85604,-2.04068,4.20687,1.67730,1.67730,A,141426.90
4.98204,57.68781782,11.98144545,57.68781867,11.98144533,15:15:04.486794,0.02234,1.39246,1.39246,-0.05628,0.01429,0.02933,-0.00165,-0.02772,0.00183,-0.02330,1.02029,4.95928,1.39245,1.76537,1.77410,-2.06346,4.24199,4.97637,-2.07040,4.33660,1.79600,1.79600,A,141427.00
4.99259,57.68781816,11.98144533,57.68781867,11.98144533,15:15:04.497349,0.00556,1.39246,1.39246,-0.05546,0.01132,0.02460,0.00752,-0.03459,-0.02227,-0.01311,1.01217,4.98656,1.39245,1.76932,1.77624,-2.07061,4.27973,4.97637,-2.07040,4.33660,1.79600,1.79600,A,141427.00
5.00759,57.68781830,11.98144528,57.68781867,11.98144533,15:15:04.512355,0.01026,1.39246,1.39246,-0.05547,0.01047,0.02902,0.00904,-0.03857,-0.00787,-0.04782,1.00784,4.99929,1.39245,1.77249,1.77889,-2.07345,4.29626,4.97637,-2.07040,4.33660,1.79600,1.79600,A,141427.00
5.02132,57.68781844,11.98144524,57.68781867,11.98144533,15:15:04.526096,0.00773,1.35888,1.35888,0.00000,0.00993,0.02872,0.00523,-0.03948,-0.06649,0.00860,0.98515,5.01307,1.35888,2.01015,2.01622,-2.07040,4.33660,4.97637,-2.07040,4.33660,1.79600,1.79600,A,141427.00
5.05210,57.68781876,11.98144525,57.68781867,11.98144533,15:15:04.556834,0.02810,1.35888,1.35888,-0.00205,-6.03623,0.02857,0.01210,-0.04086,-0.05222,-0.00470,0.98796,5.02359,1.35888,1.95521,2.10796,-2.07509,4.34644,4.97637,-2.07040,4.33660,1.79600,1.79600,A,141427.00
