Time,lat_estimated,lon_estimated,latitude,longitude,RealTime,CalculationTime,MeasuredVelocity,FilteredVelocity,Roll,SteeringAngle,RollRate,gy,gz,ax,ay,az,imu_read_timing,v_estimated,yaw_estimated,heading_estimated,x_estimated,y_estimated,GPS_timestamp,x_GPS,y_GPS,theta_GPS,theta_GPS_noUnwrap,status,NMEA timestamp
0.04525,57.68783250,11.98131600,57.68783250,11.98131600,16:16:29.665322,0.04520,0.00000,0.00000,-0.00237,0.04865,-0.05027,0.01647,-0.00659,0.11346,-0.09162,0.97301,0.00001,0.00000,-0.01445,0.00000,0.00000,0.00000,0.01543,0.00000,0.00000,0.00000,0.00000,A,151608.70
0.06231,57.68783250,11.98131600,57.68783250,11.98131600,16:16:29.682383,0.00802,0.00000,0.00000,-0.00681,0.04865,-0.04737,0.00716,-0.03102,0.05118,-0.08869,0.95971,0.05620,0.00000,-0.01445,0.00000,0.00000,0.00000,0.01543,0.00000,0.00000,0.00000,0.00000,A,151608.70
0.06997,57.68783250,11.98131600,57.68783250,11.98131600,16:16:29.690038,0.00528,0.00000,0.00000,-0.00910,0.04865,-0.04462,-0.00002,-0.02385,0.06637,-0.09784,0.93891,0.06462,0.00000,-0.01445,0.00000,0.00000,0.00000,0.01543,0.00000,0.00000,0.00000,0.00000,A,151608.70
0.08047,57.68783250,11.98131600,57.68783250,11.98131600,16:16:29.700536,0.00539,0.00000,0.00000,-0.01144,0.04865,-0.04096,-0.00872,-0.02140,0.01019,-0.10199,0.95587,0.07488,0.00000,-0.01445,0.00000,0.00000,0.00000,0.01543,0.00000,0.00000,0.00000,0.00000,A,151608.70
0.09051,57.68783250,11.98131600,57.68783250,11.98131600,16:16:29.710578,0.00503,0.00000,0.00000,-0.01338,0.04865,-0.02966,-0.00094,-0.01804,-0.05832,-0.08894,0.99259,0.08519,0.00000,-0.01445,0.00000,0.00000,0.00000,0.01543,0.00000,0.00000,0.00000,0.00000,A,151608.70
0.10096,57.68783250,11.98131600,57.68783250,11.98131600,16:16:29.721025,0.00520,0.00000,0.00000,-0.01550,0.04865,-0.03485,0.00838,-0.01270,-0.03617,-0.10047,0.99729,0.09537,0.00000,-0.01445,0.00000,0.00000,0.00000,0.01543,0.00000,0.00000,0.00000,0.00000,A,151608.70
0.11162,57.68783250,11.98131600,57.68783250,11.98131600,16:16:29.731702,0.00547,0.00000,0.00000,-0.01743,0.04857,-0.02981,0.01296,-0.01468,0.00720,-0.09254,1.00321,0.10610,0.00000,-0.01445,-0.00002,0.00000,0.00000,0.01543,0.00000,0.00000,0.00000,0.00000,A,151608.70
0.15026,57.68783250,11.98131600,57.68783383,11.98131517,16:16:29.770351,0.03371,0.00000,0.00000,-0.01919,0.04834,-0.02782,0.01357,-0.01468,0.04569,-0.08613,1.00388,0.11614,0.00000,-0.01443,-0.00008,0.00000,0.00000,0.14532,-0.04953,0.14826,1.89322,1.89322,A,151608.90
0.16790,57.68783257,11.98131596,57.68783383,11.98131517,16:16:29.787975,0.00637,0.00000,0.00000,-0.02122,0.04744,-0.00828,0.01724,-0.02659,-0.01128,-0.09790,0.99277,0.16231,0.00000,0.26960,0.28369,-0.00248,0.00741,0.14532,-0.04953,0.14826,1.89322,1.89322,A,151608.90
0.17700,57.68783263,11.98131592,57.68783383,11.98131517,16:16:29.797065,0.00522,0.00000,0.00000,-0.02289,0.04744,-0.01057,0.01037,-0.02904,0.04831,-0.09229,0.96776,0.17139,0.00000,0.51103,0.52512,-0.00483,0.01446,0.14532,-0.04953,0.14826,1.89322,1.89322,A,151608.90
0.18758,57.68783269,11.98131588,57.68783383,11.98131517,16:16:29.807672,0.00511,0.00000,0.00000,-0.02455,0.04744,-0.00736,0.00120,-0.02476,0.03202,-0.09443,0.97014,0.18198,0.00000,0.71625,0.73033,-0.00706,0.02115,0.14532,-0.04953,0.14826,1.89322,1.89322,A,151608.90
0.19768,57.68783275,11.98131585,57.68783383,11.98131517,16:16:29.817748,0.00511,0.00000,0.00000,-0.02595,0.04744,-0.00034,-0.00323,-0.01819,-0.01238,-0.08693,0.99619,0.19215,0.00000,0.89068,0.90477,-0.00919,0.02750,0.14532,-0.04953,0.14826,1.89322,1.89322,A,151608.90
0.20933,57.68783280,11.98131581,57.68783383,11.98131517,16:16:29.829403,0.00636,0.00000,0.00000,-0.02737,0.04744,0.00501,-0.00506,-0.01285,-0.03148,-0.09498,1.02132,0.20276,0.00000,1.03895,1.05304,-0.01120,0.03354,0.14532,-0.04953,0.14826,1.89322,1.89322,A,151608.90
0.21846,57.68783285,11.98131578,57.68783383,11.98131517,16:16:29.838530,0.00510,0.00000,0.00000,-0.02876,0.04744,0.01341,-0.00170,-0.01560,-0.02855,-0.09974,1.01547,0.21315,0.00000,1.16497,1.17906,-0.01312,0.03928,0.14532,-0.04953,0.14826,1.89322,1.89322,A,151608.90
0.22927,57.68783290,11.98131575,57.68783383,11.98131517,16:16:29.849340,0.00539,0.00000,0.00000,-0.03003,0.04744,0.01662,0.00029,-0.01148,0.00299,-0.09485,1.00699,0.22368,0.00000,1.27210,1.28619,-0.01494,0.04472,0.14532,-0.04953,0.14826,1.89322,1.89322,A,151608.90
0.23954,57.68783295,11.98131572,57.68783383,11.98131517,16:16:29.859613,0.00535,0.00000,0.00000,-0.03100,0.04744,0.02013,0.00090,-0.00750,0.00927,-0.07820,1.01016,0.23399,0.00000,1.36315,1.37724,-0.01667,0.04990,0.14532,-0.04953,0.14826,1.89322,1.89322,A,151608.90
0.26774,57.68783299,11.98131569,57.68783450,11.98131467,16:16:29.887857,0.02270,0.00000,0.00000,-0.03185,0.04744,0.02608,-0.00353,-0.00491,-0.03495,-0.07546,1.02285,0.24416,0.00000,1.44055,1.45464,-0.01831,0.05482,0.26319,-0.07925,0.22239,1.95208,1.95208,A,151609.00
0.28433,57.68783307,11.98131564,57.68783450,11.98131467,16:16:29.904408,0.00655,0.00000,0.00000,-0.03187,0.04744,0.03342,-0.00246,-0.00842,-0.01610,-0.07564,0.99851,0.27775,0.00000,1.51517,1.52925,-0.02136,0.06320,0.26319,-0.07925,0.22239,1.95208,1.95208,A,151609.00
0.29342,57.68783314,11.98131559,57.68783450,11.98131467,16:16:29.913492,0.00534,0.00000,0.00000,-0.03267,0.04744,0.03937,-0.00124,-0.00476,-0.00220,-0.07960,0.99119,0.28780,0.00000,1.57859,1.59268,-0.02426,0.07116,0.26319,-0.07925,0.22239,1.95208,1.95208,A,151609.00
0.30438,57.68783321,11.98131555,57.68783450,11.98131467,16:16:29.924451,0.00590,0.00000,0.00000,-0.03372,0.04744,0.04380,-0.00368,-0.00430,-0.01751,-0.10285,1.00772,0.29828,0.00000,1.63250,1.64659,-0.02701,0.07872,0.26319,-0.07925,0.22239,1.95208,1.95208,A,151609.00
0.31774,57.68783327,11.98131550,57.68783450,11.98131467,16:16:29.937820,0.00886,0.00000,0.00000,-0.03495,0.04744,0.04136,-0.00368,-0.00338,-0.04984,-0.11407,1.00894,0.30868,0.00000,1.67832,1.69241,-0.02962,0.08590,0.26319,-0.07925,0.22239,1.95208,1.95208,A,151609.00
0.32488,57.68783333,11.98131546,57.68783450,11.98131467,16:16:29.944949,0.00579,0.00000,0.00000,-0.03583,0.04746,0.04227,-0.00048,-0.00552,-0.04209,-0.09223,1.00406,0.31905,0.00000,1.71727,1.73137,-0.03210,0.09273,0.26319,-0.07925,0.22239,1.95208,1.95208,A,151609.00
0.33566,57.68783339,11.98131542,57.68783450,11.98131467,16:16:29.955739,0.00613,0.00000,0.00000,-0.03637,0.04749,0.04487,0.00533,-0.00247,-0.02043,-0.07021,0.99936,0.32920,0.00000,1.75038,1.76448,-0.03446,0.09921,0.26319,-0.07925,0.22239,1.95208,1.95208,A,151609.00
0.34500,57.68783345,11.98131538,57.68783450,11.98131467,16:16:29.965075,0.00522,0.00000,0.00000,-0.03678,0.04766,0.04426,0.00273,0.00151,-0.01153,-0.06143,0.98430,0.33939,0.00000,1.77851,1.79266,-0.03670,0.10537,0.26319,-0.07925,0.22239,1.95208,1.95208,A,151609.00
0.35552,57.68783350,11.98131535,57.68783450,11.98131467,16:16:29.975602,0.00534,0.00000,0.00000,-0.03720,0.04803,0.04899,0.00716,0.00181,-0.04990,-0.06570,0.96801,0.34998,0.00000,1.80240,1.81667,-0.03882,0.11122,0.26319,-0.07925,0.22239,1.95208,1.95208,A,151609.00
0.38151,57.68783355,11.98131531,57.68783550,11.98131433,16:16:30.001584,0.02094,0.00000,0.00000,-0.03800,0.04851,0.05541,0.01418,0.00273,-0.04020,-0.09028,0.93580,0.36016,0.00000,1.82269,1.83710,-0.04085,0.11678,0.37717,-0.09906,0.33358,1.74712,1.74712,A,151609.10
0.39613,57.68783365,11.98131526,57.68783550,11.98131433,16:16:30.016210,0.00775,0.00000,0.00000,-0.03766,0.04956,0.04808,0.02640,-0.01041,0.01141,-0.07472,0.95233,0.38999,0.00000,1.80915,1.82387,-0.04376,0.12762,0.37717,-0.09906,0.33358,1.74712,1.74712,A,151609.10
0.40421,57.68783374,11.98131522,57.68783550,11.98131433,16:16:30.024284,0.00542,0.00000,0.00000,-0.03838,0.04964,0.05174,0.03205,-0.01529,0.03459,-0.07906,0.93855,0.39860,0.00000,1.79763,1.81238,-0.04652,0.13792,0.37717,-0.09906,0.33358,1.74712,1.74712,A,151609.10
0.41429,57.68783383,11.98131517,57.68783550,11.98131433,16:16:30.034355,0.00510,0.00000,0.00000,-0.03918,0.04964,0.04976,0.02961,-0.01529,0.01165,-0.09132,0.96209,0.40898,0.00000,1.78785,1.80259,-0.04915,0.14770,0.37717,-0.09906,0.33358,1.74712,1.74712,A,151609.10
0.42530,57.68783391,11.98131513,57.68783550,11.98131433,16:16:30.045368,0.00556,0.00000,0.00000,-0.03982,0.04964,0.04884,0.03159,-0.01316,-0.04892,-0.08259,0.98747,0.41935,0.00000,1.77953,1.79427,-0.05164,0.15699,0.37717,-0.09906,0.33358,1.74712,1.74712,A,151609.10
0.43565,57.68783399,11.98131509,57.68783550,11.98131433,16:16:30.055724,0.00552,0.00000,0.00000,-0.04046,0.04964,0.05098,0.03770,-0.01987,0.00854,-0.08943,1.01931,0.43008,0.00000,1.77245,1.78720,-0.05401,0.16582,0.37717,-0.09906,0.33358,1.74712,1.74712,A,151609.10
0.44662,57.68783407,11.98131505,57.68783550,11.98131433,16:16:30.066687,0.00609,0.00000,0.00000,-0.04082,0.04964,0.05144,0.02884,-0.01484,0.05557,-0.07204,1.01467,0.44127,0.00000,1.76644,1.78119,-0.05627,0.17421,0.37717,-0.09906,0.33358,1.74712,1.74712,A,151609.10
0.45634,57.68783414,11.98131502,57.68783550,11.98131433,16:16:30.076411,0.00541,0.00000,0.00000,-0.04101,0.04964,0.05189,0.01541,-0.01025,0.05185,-0.05557,1.01181,0.45073,0.00000,1.76133,1.77608,-0.05841,0.18218,0.37717,-0.09906,0.33358,1.74712,1.74712,A,151609.10
0.46640,57.68783421,11.98131498,57.68783550,11.98131433,16:16:30.086465,0.00507,0.00000,0.00000,-0.04082,0.04964,0.06472,0.00181,-0.00781,0.01360,-0.04313,1.04212,0.46110,0.00000,1.75699,1.77173,-0.06044,0.18975,0.37717,-0.09906,0.33358,1.74712,1.74712,A,151609.10
0.47712,57.68783427,11.98131495,57.68783550,11.98131433,16:16:30.097191,0.00538,0.00000,0.00000,-0.04131,0.04964,0.06610,-0.00216,-0.00430,-0.01159,-0.09412,1.08427,0.47135,0.00000,1.75330,1.76804,-0.06237,0.19694,0.37717,-0.09906,0.33358,1.74712,1.74712,A,151609.10
0.50357,57.68783433,11.98131492,57.68783633,11.98131367,16:16:30.123656,0.02142,0.00000,0.00000,-0.04209,0.04964,0.06549,-0.00872,-0.00308,-0.00641,-0.11535,1.06646,0.48193,0.00000,1.75016,1.76490,-0.06421,0.20377,0.49863,-0.13869,0.42625,1.97489,1.97489,A,151609.20
0.52101,57.68783443,11.98131486,57.68783633,11.98131367,16:16:30.141081,0.00788,0.00000,0.00000,-0.04062,0.04964,0.06701,-0.01331,-0.00521,-0.00317,-0.05679,0.94843,0.51535,0.00000,1.78166,1.79640,-0.06793,0.21490,0.49863,-0.13869,0.42625,1.97489,1.97489,A,151609.20
0.52919,57.68783453,11.98131480,57.68783633,11.98131367,16:16:30.149259,0.00540,0.00000,0.00000,-0.04076,0.04964,0.06411,-0.01819,-0.00247,-0.01055,-0.04923,0.91799,0.52357,0.00000,1.80843,1.82318,-0.07147,0.22547,0.49863,-0.13869,0.42625,1.97489,1.97489,A,151609.20
0.53927,57.68783462,11.98131474,57.68783633,11.98131367,16:16:30.159587,0.00509,0.00000,0.00000,-0.04076,0.04964,0.06564,-0.02247,-0.00185,-0.01854,-0.05148,0.94855,0.53398,0.00000,1.83119,1.84593,-0.07483,0.23550,0.49863,-0.13869,0.42625,1.97489,1.97489,A,151609.20
0.54967,57.68783470,11.98131469,57.68783633,11.98131367,16:16:30.169741,0.00509,0.00000,0.00000,-0.04057,0.04964,0.06808,-0.03194,-0.00934,-0.00720,-0.04160,0.97368,0.54416,0.00000,1.85053,1.86528,-0.07802,0.24504,0.49863,-0.13869,0.42625,1.97489,1.97489,A,151609.20
0.56036,57.68783479,11.98131464,57.68783633,11.98131367,16:16:30.180434,0.00539,0.00000,0.00000,-0.04055,0.04964,0.07343,-0.04034,-0.01102,0.00159,-0.05826,0.98704,0.55477,0.00000,1.86697,1.88172,-0.08105,0.25410,0.49863,-0.13869,0.42625,1.97489,1.97489,A,151609.20
0.57048,57.68783486,11.98131459,57.68783633,11.98131367,16:16:30.190545,0.00510,0.00000,0.00000,-0.04094,0.04964,0.07282,-0.03698,-0.01316,-0.00079,-0.08888,1.04267,0.56516,0.00000,1.88095,1.89569,-0.08394,0.26271,0.49863,-0.13869,0.42625,1.97489,1.97489,A,151609.20
0.58097,57.68783494,11.98131454,57.68783633,11.98131367,16:16:30.201041,0.00522,0.00000,0.00000,-0.04169,0.04964,0.06930,-0.03056,-0.01422,-0.06167,-0.11596,1.08665,0.57537,0.00000,1.89283,1.90757,-0.08667,0.27089,0.49863,-0.13869,0.42625,1.97489,1.97489,A,151609.20
0.59124,57.68783501,11.98131450,57.68783633,11.98131367,16:16:30.211554,0.00510,0.00000,0.00000,-0.04210,0.04964,0.06487,-0.00827,-0.01499,-0.11303,-0.08955,1.08208,0.58594,0.00000,1.90292,1.91767,-0.08927,0.27865,0.49863,-0.13869,0.42625,1.97489,1.97489,A,151609.20
0.61775,57.68783507,11.98131446,57.68783717,11.98131283,16:16:30.237830,0.02121,0.00000,0.00000,-0.04200,0.04964,0.05953,0.00365,-0.02171,-0.06863,-0.04648,1.05005,0.59613,0.00000,1.91151,1.92625,-0.09174,0.28603,0.61315,-0.18822,0.51891,2.06169,2.06169,A,151609.30
0.63725,57.68783518,11.98131438,57.68783717,11.98131283,16:16:30.257320,0.00736,0.00000,0.00000,-0.04000,0.04964,0.08305,-0.02415,-0.01361,0.00354,-0.06570,0.92476,0.63160,0.00000,1.93182,1.94657,-0.09657,0.29768,0.61315,-0.18822,0.51891,2.06169,2.06169,A,151609.30
0.64530,57.68783528,11.98131430,57.68783717,11.98131283,16:16:30.265369,0.00518,0.00000,0.00000,-0.04062,0.04964,0.08473,-0.02949,-0.01926,-0.05569,-0.09101,0.94715,0.63974,0.00000,1.94909,1.96384,-0.10115,0.30874,0.61315,-0.18822,0.51891,2.06169,2.06169,A,151609.30
0.65590,57.68783537,11.98131422,57.68783717,11.98131283,16:16:30.275974,0.00539,0.00000,0.00000,-0.04141,0.04964,0.07679,-0.02812,-0.01652,-0.04679,-0.11279,0.97624,0.65033,0.00000,1.96377,1.97851,-0.10550,0.31925,0.61315,-0.18822,0.51891,2.06169,2.06169,A,151609.30
0.66602,57.68783546,11.98131416,57.68783717,11.98131283,16:16:30.286090,0.00511,0.00000,0.00000,-0.04192,0.04964,0.07755,-0.01911,-0.01774,-0.03196,-0.09729,0.99650,0.66070,0.00000,1.97624,1.99099,-0.10964,0.32923,0.61315,-0.18822,0.51891,2.06169,2.06169,A,151609.30
0.67673,57.68783555,11.98131409,57.68783717,11.98131283,16:16:30.296797,0.00523,0.00000,0.00000,-0.04187,0.04964,0.07251,-0.02033,-0.01987,-0.02830,-0.05844,1.02785,0.67110,0.00000,1.98685,2.00159,-0.11357,0.33872,0.61315,-0.18822,0.51891,2.06169,2.06169,A,151609.30
0.68701,57.68783563,11.98131403,57.68783717,11.98131283,16:16:30.307079,0.00512,0.00000,0.00000,-0.04111,0.04964,0.07495,-0.02033,-0.01850,-0.00830,-0.01299,1.04359,0.68171,0.00000,1.99586,2.01061,-0.11730,0.34772,0.61315,-0.18822,0.51891,2.06169,2.06169,A,151609.30
0.69728,57.68783570,11.98131397,57.68783717,11.98131283,16:16:30.317350,0.00517,0.00000,0.00000,-0.04053,0.04964,0.08183,-0.01941,-0.01499,-0.03556,-0.02696,1.06719,0.69173,0.00000,2.00352,2.01827,-0.12085,0.35628,0.61315,-0.18822,0.51891,2.06169,2.06169,A,151609.30
0.70788,57.68783578,11.98131391,57.68783717,11.98131283,16:16:30.327956,0.00538,0.00000,0.00000,-0.04037,0.04964,0.08732,-0.01804,-0.01804,-0.05130,-0.06222,1.05182,0.70234,0.00000,2.01004,2.02478,-0.12422,0.36442,0.61315,-0.18822,0.51891,2.06169,2.06169,A,151609.30
0.74443,57.68783585,11.98131386,57.68783933,11.98131133,16:16:30.364500,0.03152,0.00000,0.00000,-0.04043,0.04964,0.08045,-0.01651,-0.01774,-0.00354,-0.06893,1.01351,0.71268,0.00000,2.01557,2.03032,-0.12742,0.37214,0.74101,-0.27737,0.75983,1.92523,1.92523,A,151609.50
0.75445,57.68783602,11.98131373,57.68783933,11.98131133,16:16:30.374513,0.00517,0.00000,0.00000,-0.03897,0.04905,0.06915,-0.02201,-0.03362,-0.05752,-0.07466,0.95977,0.74912,0.00000,1.99984,2.01440,-0.13491,0.39152,0.74101,-0.27737,0.75983,1.92523,1.92523,A,151609.50
0.76540,57.68783619,11.98131361,57.68783933,11.98131133,16:16:30.385464,0.00561,0.00000,0.00000,-0.03906,0.04834,0.06457,-0.01605,-0.03713,-0.05350,-0.05697,0.99155,0.75939,0.00000,1.98649,2.00085,-0.14204,0.40994,0.74101,-0.27737,0.75983,1.92523,1.92523,A,151609.50
0.77676,57.68783634,11.98131350,57.68783933,11.98131133,16:16:30.396836,0.00623,0.00000,0.00000,-0.03849,0.04732,0.06457,-0.00750,-0.03698,-0.03050,-0.02013,1.03474,0.77111,0.00000,1.97519,1.98925,-0.14880,0.42743,0.74101,-0.27737,0.75983,1.92523,1.92523,A,151609.50
0.78602,57.68783649,11.98131339,57.68783933,11.98131133,16:16:30.406085,0.00509,0.00000,0.00000,-0.03811,0.04647,0.06823,-0.00002,-0.03179,-0.02605,-0.02660,1.08336,0.78070,0.00000,1.96563,1.97943,-0.15523,0.44405,0.74101,-0.27737,0.75983,1.92523,1.92523,A,151609.50
0.79675,57.68783664,11.98131329,57.68783933,11.98131133,16:16:30.416824,0.00525,0.00000,0.00000,-0.03791,0.04554,0.07053,0.00181,-0.03026,0.03959,-0.04380,1.04243,0.79112,0.00000,1.95754,1.97106,-0.16134,0.45984,0.74101,-0.27737,0.75983,1.92523,1.92523,A,151609.50
0.80701,57.68783677,11.98131319,57.68783933,11.98131133,16:16:30.427077,0.00510,1.11496,1.11496,-0.03816,0.04466,0.07205,-0.00964,-0.02675,0.01494,-0.06942,1.00949,0.80171,0.22299,1.95070,1.96397,-0.16714,0.47484,0.74101,-0.27737,0.75983,1.92523,1.92523,A,151609.50
0.81751,57.68783691,11.98131308,57.68783933,11.98131133,16:16:30.437582,0.00519,1.11496,1.11496,-0.03829,0.04384,0.06304,-0.02094,-0.02369,0.00464,-0.05222,0.98204,0.81193,0.40139,1.94499,1.95801,-0.17334,0.49074,0.74101,-0.27737,0.75983,1.92523,1.92523,A,151609.50
0.82855,57.68783706,11.98131297,57.68783933,11.98131133,16:16:30.448621,0.00583,1.11496,1.11496,-0.03831,0.04308,0.06060,-0.03148,-0.02782,-0.04435,-0.04538,0.96118,0.82282,0.54410,1.94023,1.95302,-0.17981,0.50731,0.74101,-0.27737,0.75983,1.92523,1.92523,A,151609.50
0.83824,57.68783721,11.98131287,57.68783933,11.98131133,16:16:30.458308,0.00514,1.11496,1.11496,-0.03843,0.04243,0.06243,-0.02919,-0.03438,-0.06631,-0.04886,0.94794,0.83290,0.65827,1.93624,1.94883,-0.18621,0.52372,0.74101,-0.27737,0.75983,1.92523,1.92523,A,151609.50
0.86389,57.68783736,11.98131276,57.68784050,11.98131117,16:16:30.483974,0.02024,1.11496,1.11496,-0.03887,0.04186,0.06213,-0.02170,-0.03469,0.01867,-0.06783,0.92000,0.84325,0.74961,1.93290,1.94534,-0.19273,0.54048,0.86013,-0.28728,0.88956,1.64701,1.64701,A,151609.60
0.87882,57.68783769,11.98131255,57.68784050,11.98131117,16:16:30.498888,0.00708,1.11496,1.11496,-0.03763,0.04104,0.05571,-0.02980,-0.02995,-0.09656,-0.03324,1.05878,0.87346,0.82268,1.88888,1.90106,-0.20479,0.57659,0.86013,-0.28728,0.88956,1.64701,1.64701,A,151609.60
0.88726,57.68783787,11.98131246,57.68784050,11.98131117,16:16:30.507571,0.00512,1.11496,1.11496,-0.03745,0.04095,0.05709,-0.01239,-0.03392,-0.09052,-0.02428,1.09257,0.88195,0.88114,1.85095,1.86311,-0.21060,0.59715,0.86013,-0.28728,0.88956,1.64701,1.64701,A,151609.60
0.89766,57.68783806,11.98131236,57.68784050,11.98131117,16:16:30.517722,0.00512,1.11496,1.11496,-0.03759,0.04084,0.06396,-0.00460,-0.03209,0.00061,-0.05960,1.09159,0.89212,0.92790,1.81877,1.83090,-0.21645,0.61847,0.86013,-0.28728,0.88956,1.64701,1.64701,A,151609.60
0.90834,57.68783825,11.98131227,57.68784050,11.98131117,16:16:30.528405,0.00541,1.11496,1.11496,-0.03777,0.04064,0.05541,-0.00567,-0.03591,0.10187,-0.05539,1.04938,0.90272,0.96532,1.79145,1.80352,-0.22194,0.63933,0.86013,-0.28728,0.88956,1.64701,1.64701,A,151609.60
0.91842,57.68783843,11.98131218,57.68784050,11.98131117,16:16:30.538486,0.00509,1.11496,1.11496,-0.03805,0.04036,0.05709,-0.03148,-0.03331,0.02672,-0.06143,1.02108,0.91310,0.99525,1.76824,1.78022,-0.22696,0.65923,0.86013,-0.28728,0.88956,1.64701,1.64701,A,151609.60
0.92931,57.68783861,11.98131210,57.68784050,11.98131117,16:16:30.549378,0.00543,1.11496,1.11496,-0.03770,0.04005,0.06014,-0.03224,-0.04248,-0.04203,-0.02056,0.98356,0.92373,1.01919,1.74855,1.76044,-0.23171,0.67891,0.86013,-0.28728,0.88956,1.64701,1.64701,A,151609.60
0.93963,57.68783877,11.98131203,57.68784050,11.98131117,16:16:30.559701,0.00536,1.11496,1.11496,-0.03807,0.03979,0.05250,-0.03133,-0.04126,-0.05173,-0.05923,0.94800,0.93408,1.03834,1.73181,1.74362,-0.23600,0.69732,0.86013,-0.28728,0.88956,1.64701,1.64701,A,151609.60
0.94979,57.68783893,11.98131196,57.68784050,11.98131117,16:16:30.569866,0.00512,1.11496,1.11496,-0.03820,0.03960,0.04670,-0.02445,-0.03622,-0.03117,-0.04008,0.95343,0.94426,1.05367,1.71760,1.72936,-0.24002,0.71528,0.86013,-0.28728,0.88956,1.64701,1.64701,A,151609.60
0.97677,57.68783909,11.98131190,57.68784150,11.98131033,16:16:30.596861,0.02170,1.11496,1.11496,-0.03826,0.03951,0.04685,-0.02338,-0.03392,-0.02849,-0.03922,0.98362,0.95508,1.06593,1.70554,1.71727,-0.24377,0.73269,0.97202,-0.33681,1.00075,1.98985,1.98985,A,151609.70
0.98837,57.68783944,11.98131176,57.68784150,11.98131033,16:16:30.608434,0.00558,1.11496,1.11496,-0.03730,0.03934,0.04823,-0.03026,-0.03087,-0.01867,-0.02635,1.00095,0.98270,1.07573,1.74727,1.75895,-0.25220,0.77166,0.97202,-0.33681,1.00075,1.98985,1.98985,A,151609.70
0.99885,57.68783962,11.98131166,57.68784150,11.98131033,16:16:30.619681,0.00566,1.11496,1.11496,-0.03735,0.03914,0.04502,-0.03117,-0.03438,-0.07735,-0.03678,1.02181,0.99297,1.08358,1.78218,1.79380,-0.25798,0.79128,0.97202,-0.33681,1.00075,1.98985,1.98985,A,151609.70
1.00897,57.68783978,11.98131156,57.68784150,11.98131033,16:16:30.629032,0.00523,1.11496,1.11496,-0.03743,0.03889,0.04472,-0.01773,-0.03576,-0.02544,-0.03788,1.00046,1.00337,1.08986,1.81186,1.82341,-0.26376,0.80986,0.97202,-0.33681,1.00075,1.98985,1.98985,A,151609.70
1.01924,57.68783995,11.98131146,57.68784150,11.98131033,16:16:30.639555,0.00511,1.11496,1.11496,-0.03768,0.03855,0.03632,-0.01346,-0.03881,0.00860,-0.04337,0.98826,1.01394,1.09488,1.83712,1.84857,-0.26961,0.82791,0.97202,-0.33681,1.00075,1.98985,1.98985,A,151609.70
1.02983,57.68784010,11.98131137,57.68784150,11.98131033,16:16:30.649890,0.00529,1.11496,1.11496,-0.03762,0.03818,0.03525,-0.02125,-0.03622,0.04423,-0.02129,0.97655,1.02430,1.09890,1.85862,1.86996,-0.27547,0.84533,0.97202,-0.33681,1.00075,1.98985,1.98985,A,151609.70
1.04033,57.68784025,11.98131127,57.68784150,11.98131033,16:16:30.660400,0.00546,1.11496,1.11496,-0.03746,0.03784,0.03311,-0.03102,-0.03744,-0.05716,-0.01519,1.02297,1.03471,1.10211,1.87689,1.88813,-0.28112,0.86148,0.97202,-0.33681,1.00075,1.98985,1.98985,A,151609.70
1.05034,57.68784038,11.98131118,57.68784150,11.98131033,16:16:30.670405,0.00507,1.11496,1.11496,-0.03731,0.03747,0.03678,-0.01987,-0.03286,-0.11883,-0.01763,1.04719,1.04502,1.10468,1.89243,1.90356,-0.28659,0.87661,0.97202,-0.33681,1.00075,1.98985,1.98985,A,151609.70
1.06094,57.68784052,11.98131109,57.68784150,11.98131033,16:16:30.681003,0.00520,1.11496,1.11496,-0.03783,0.03710,0.03632,-0.00689,-0.04019,0.00354,-0.06204,1.00796,1.05534,1.10674,1.90567,1.91669,-0.29202,0.89126,0.97202,-0.33681,1.00075,1.98985,1.98985,A,151609.70
1.07166,57.68784064,11.98131100,57.68784150,11.98131033,16:16:30.691733,0.00552,1.11496,1.11496,-0.03839,0.03668,0.03616,-0.01896,-0.03912,0.06399,-0.06381,0.96752,1.06609,1.10838,1.91694,1.92783,-0.29735,0.90530,0.97202,-0.33681,1.00075,1.98985,1.98985,A,151609.70
1.09749,57.68784076,11.98131091,57.68784283,11.98131000,16:16:30.717563,0.02095,1.11496,1.11496,-0.03867,0.03628,0.02303,-0.04049,-0.04110,0.04666,-0.03520,0.95563,1.07613,1.10970,1.92652,1.93729,-0.30235,0.91820,1.09314,-0.35662,1.14901,1.70364,1.70364,A,151609.80
1.11484,57.68784114,11.98131067,57.68784283,11.98131000,16:16:30.734906,0.00642,1.11496,1.11496,-0.03856,0.03504,0.02532,-0.02888,-0.04660,-0.04002,-0.05112,0.98619,1.10950,1.11075,1.89251,1.90291,-0.31690,0.96058,1.09314,-0.35662,1.14901,1.70364,1.70364,A,151609.80
1.12439,57.68784129,11.98131059,57.68784283,11.98131000,16:16:30.744457,0.00557,1.11496,1.11496,-0.03905,0.03470,0.02105,-0.02506,-0.04064,-0.01421,-0.04917,1.00308,1.11864,1.11159,1.86285,1.87316,-0.32140,0.97729,1.09314,-0.35662,1.14901,1.70364,1.70364,A,151609.80
1.13445,57.68784144,11.98131052,57.68784283,11.98131000,16:16:30.754515,0.00522,1.11496,1.11496,-0.03949,0.03427,0.02425,-0.02644,-0.04400,-0.00476,-0.05173,1.03401,1.12912,1.11227,1.83769,1.84787,-0.32576,0.99419,1.09314,-0.35662,1.14901,1.70364,1.70364,A,151609.80
1.14513,57.68784159,11.98131045,57.68784283,11.98131000,16:16:30.765197,0.00537,1.11496,1.11496,-0.03935,0.03371,0.01814,-0.02125,-0.04492,-0.02013,-0.00793,1.03340,1.13937,1.11281,1.81633,1.82634,-0.32974,1.01051,1.09314,-0.35662,1.14901,1.70364,1.70364,A,151609.80
1.15550,57.68784173,11.98131039,57.68784283,11.98131000,16:16:30.775595,0.00513,1.11496,1.11496,-0.03911,0.03297,0.02196,-0.01010,-0.04538,-0.07924,-0.00512,1.09483,1.14997,1.11324,1.79820,1.80799,-0.33332,1.02598,1.09314,-0.35662,1.14901,1.70364,1.70364,A,151609.80
1.16567,57.68784186,11.98131034,57.68784283,11.98131000,16:16:30.785737,0.00512,1.11496,1.11496,-0.03945,0.03215,0.03143,-0.00262,-0.04996,-0.02287,-0.04904,1.02321,1.16013,1.11358,1.78283,1.79237,-0.33656,1.04072,1.09314,-0.35662,1.14901,1.70364,1.70364,A,151609.80
1.17634,57.68784199,11.98131029,57.68784283,11.98131000,16:16:30.796404,0.00539,1.11496,1.11496,-0.03980,0.03130,0.02395,-0.01575,-0.04782,0.05325,-0.04465,0.99631,1.17073,1.11386,1.76979,1.77909,-0.33955,1.05499,1.09314,-0.35662,1.14901,1.70364,1.70364,A,151609.80
1.18652,57.68784211,11.98131024,57.68784283,11.98131000,16:16:30.806587,0.00517,1.11496,1.11496,-0.04039,0.03060,0.02700,-0.02140,-0.05149,0.00006,-0.06161,0.97710,1.18119,1.11408,1.75873,1.76782,-0.34224,1.06834,1.09314,-0.35662,1.14901,1.70364,1.70364,A,151609.80
1.21399,57.68784222,11.98131020,57.68784367,11.98130917,16:16:30.834061,0.02224,1.11496,1.11496,-0.04074,0.03006,0.02792,-0.02354,-0.05118,-0.01696,-0.04636,0.95971,1.19135,1.11426,1.74935,1.75828,-0.34468,1.08103,1.20820,-0.40615,1.24168,2.06169,2.06169,A,151609.90
1.23215,57.68784260,11.98131004,57.68784367,11.98130917,16:16:30.852220,0.00660,1.11496,1.11496,-0.04041,0.02972,0.02792,-0.00414,-0.04523,-0.00104,-0.04868,1.00613,1.22651,1.11440,1.79574,1.80456,-0.35428,1.12346,1.20820,-0.40615,1.24168,2.06169,2.06169,A,151609.90
1.24101,57.68784272,11.98130997,57.68784367,11.98130917,16:16:30.861076,0.00520,1.11496,1.11496,-0.04042,0.02972,0.02593,-0.01468,-0.04889,0.07094,-0.02129,0.97752,1.23543,1.11451,1.83448,1.84331,-0.35855,1.13638,1.20820,-0.40615,1.24168,2.06169,2.06169,A,151609.90
1.25156,57.68784285,11.98130989,57.68784367,11.98130917,16:16:30.871631,0.00535,1.11496,1.11496,-0.04024,0.02972,0.02853,-0.01605,-0.04797,-0.08150,-0.01513,1.07159,1.24602,1.11460,1.86746,1.87628,-0.36335,1.15032,1.20820,-0.40615,1.24168,2.06169,2.06169,A,151609.90
1.26187,57.68784296,11.98130981,57.68784367,11.98130917,16:16:30.881940,0.00527,1.11496,1.11496,-0.04013,0.02972,0.03311,-0.00216,-0.05485,-0.04490,-0.02172,1.03303,1.25620,1.11467,1.89549,1.90431,-0.36816,1.16334,1.20820,-0.40615,1.24168,2.06169,2.06169,A,151609.90
1.27239,57.68784307,11.98130972,57.68784367,11.98130917,16:16:30.892457,0.00539,1.11496,1.11496,-0.04001,0.02969,0.03510,-0.00689,-0.05271,0.00305,-0.02135,0.96417,1.26678,1.11473,1.91931,1.92812,-0.37298,1.17569,1.20820,-0.40615,1.24168,2.06169,2.06169,A,151609.90
1.28275,57.68784318,11.98130964,57.68784367,11.98130917,16:16:30.902815,0.00535,1.11496,1.11496,-0.04047,0.02963,0.03525,-0.01743,-0.05775,0.08747,-0.05533,0.91128,1.27742,1.11478,1.93957,1.94836,-0.37780,1.18747,1.20820,-0.40615,1.24168,2.06169,2.06169,A,151609.90
1.29295,57.68784328,11.98130957,57.68784367,11.98130917,16:16:30.913009,0.00519,1.11496,1.11496,-0.04109,0.02949,0.03754,-0.04583,-0.05332,0.04721,-0.06448,0.90146,1.28737,1.11482,1.95678,1.96553,-0.38239,1.19818,1.20820,-0.40615,1.24168,2.06169,2.06169,A,151609.90
1.30326,57.68784337,11.98130949,57.68784367,11.98130917,16:16:30.923555,0.00511,1.47445,1.47445,-0.04157,0.02926,0.03815,-0.05851,-0.05500,0.03093,-0.05185,0.84070,1.29796,1.18674,1.97143,1.98012,-0.38705,1.20869,1.20820,-0.40615,1.24168,2.06169,2.06169,A,151609.90
1.34037,57.68784347,11.98130941,57.68784650,11.98130800,16:16:30.960442,0.03182,1.47445,1.47445,-0.04237,0.02898,0.03525,-0.07668,-0.05805,0.06033,-0.06618,0.81502,1.30831,1.24428,1.98391,1.99252,-0.39195,1.21942,1.33682,-0.47550,1.55673,1.78744,1.78744,A,151610.10
1.35451,57.68784398,11.98130903,57.68784650,11.98130800,16:16:30.974582,0.00760,1.47445,1.47445,-0.04101,0.02771,0.03708,0.01373,-0.05546,-0.01928,-0.01708,1.27356,1.34796,1.29032,1.95426,1.96249,-0.41434,1.27688,1.33682,-0.47550,1.55673,1.78744,1.78744,A,151610.10
1.36425,57.68784419,11.98130892,57.68784650,11.98130800,16:16:30.984317,0.00596,1.47445,1.47445,-0.04057,0.02743,0.04670,0.01846,-0.05546,0.07186,-0.01025,1.19645,1.35859,1.32714,1.92823,1.93637,-0.42096,1.29951,1.33682,-0.47550,1.55673,1.78744,1.78744,A,151610.10
1.37382,57.68784438,11.98130881,57.68784650,11.98130800,16:16:30.993890,0.00514,1.47445,1.47445,-0.03971,0.02720,0.05281,0.00044,-0.05439,0.11828,0.02080,1.06305,1.36828,1.35660,1.90612,1.91420,-0.42719,1.32151,1.33682,-0.47550,1.55673,1.78744,1.78744,A,151610.10
1.38635,57.68784460,11.98130870,57.68784650,11.98130800,16:16:31.006415,0.00726,1.47445,1.47445,-0.03865,0.02692,0.05999,-0.02904,-0.05256,0.03934,0.02348,0.92086,1.37888,1.38017,1.88741,1.89540,-0.43401,1.34559,1.33682,-0.47550,1.55673,1.78744,1.78744,A,151610.10
1.39449,57.68784477,11.98130862,57.68784650,11.98130800,16:16:31.014563,0.00501,1.47445,1.47445,-0.03910,0.02669,0.06793,-0.03988,-0.05882,-0.04203,-0.06942,0.89463,1.38919,1.39903,1.87141,1.87934,-0.43875,1.36409,1.33682,-0.47550,1.55673,1.78744,1.78744,A,151610.10
1.40562,57.68784496,11.98130853,57.68784650,11.98130800,16:16:31.025683,0.00576,1.47445,1.47445,-0.04026,0.02655,0.07159,-0.04889,-0.05515,-0.06600,-0.11590,0.87992,1.40002,1.41411,1.85790,1.86578,-0.44424,1.38516,1.33682,-0.47550,1.55673,1.78744,1.78744,A,151610.10
1.41579,57.68784513,11.98130845,57.68784650,11.98130800,16:16:31.035869,0.00553,1.47445,1.47445,-0.04114,0.02649,0.06671,-0.02980,-0.05454,-0.03843,-0.10181,0.94947,1.41023,1.42618,1.84639,1.85425,-0.44898,1.40421,1.33682,-0.47550,1.55673,1.78744,1.78744,A,151610.10
1.42594,57.68784530,11.98130837,57.68784650,11.98130800,16:16:31.046003,0.00528,1.47445,1.47445,-0.04154,0.02649,0.05770,-0.01437,-0.05240,-0.09467,-0.07393,1.05872,1.42025,1.43583,1.83662,1.84448,-0.45355,1.42295,1.33682,-0.47550,1.55673,1.78744,1.78744,A,151610.10
1.43684,57.68784546,11.98130830,57.68784650,11.98130800,16:16:31.056912,0.00579,1.47445,1.47445,-0.04102,0.02649,0.05724,0.01113,-0.05271,-0.04264,-0.01226,1.07165,1.43102,1.44356,1.82831,1.83618,-0.45782,1.44095,1.33682,-0.47550,1.55673,1.78744,1.78744,A,151610.10
1.46264,57.68784560,11.98130823,57.68784800,11.98130750,16:16:31.082722,0.02119,1.47445,1.47445,-0.04064,0.02649,0.07144,0.02808,-0.05866,-0.04569,-0.03026,1.07897,1.44120,1.44973,1.82124,1.82910,-0.46154,1.45718,1.45789,-0.50522,1.72352,1.74712,1.74712,A,151610.20
1.47688,57.68784606,11.98130803,57.68784800,11.98130750,16:16:31.096945,0.00645,1.47445,1.47445,-0.03918,0.02593,0.06564,-0.01178,-0.06279,0.10803,-0.03306,0.92232,1.47123,1.45468,1.80981,1.81751,-0.47366,1.50809,1.45789,-0.50522,1.72352,1.74712,1.74712,A,151610.20
1.48594,57.68784625,11.98130796,57.68784800,11.98130750,16:16:31.106005,0.00512,1.47445,1.47445,-0.03859,0.02544,0.06732,-0.03805,-0.06279,0.03361,-0.00512,0.95062,1.48060,1.45863,1.79949,1.80704,-0.47769,1.52861,1.45789,-0.50522,1.72352,1.74712,1.74712,A,151610.20
1.49664,57.68784644,11.98130789,57.68784800,11.98130750,16:16:31.116712,0.00542,1.47445,1.47445,-0.03828,0.02476,0.07114,-0.04614,-0.07088,0.00616,-0.02995,0.98966,1.49103,1.46180,1.79078,1.79813,-0.48186,1.54997,1.45789,-0.50522,1.72352,1.74712,1.74712,A,151610.20
1.50724,57.68784662,11.98130783,57.68784800,11.98130750,16:16:31.127569,0.00573,1.47445,1.47445,-0.03813,0.02414,0.07037,-0.03606,-0.06477,-0.11248,-0.04636,1.07671,1.50186,1.46433,1.78340,1.79057,-0.48577,1.57048,1.45789,-0.50522,1.72352,1.74712,1.74712,A,151610.20
1.51703,57.68784679,11.98130777,57.68784800,11.98130750,16:16:31.137099,0.00524,1.47445,1.47445,-0.03830,0.02360,0.06717,-0.00674,-0.06355,-0.13859,-0.06295,1.10630,1.51142,1.46635,1.77712,1.78413,-0.48908,1.58862,1.45789,-0.50522,1.72352,1.74712,1.74712,A,151610.20
1.52886,57.68784695,11.98130771,57.68784800,11.98130750,16:16:31.148926,0.00667,1.47445,1.47445,-0.03803,0.02318,0.04930,0.01999,-0.06233,-0.02916,-0.01921,0.99650,1.52217,1.46797,1.77182,1.77870,-0.49244,1.60715,1.45789,-0.50522,1.72352,1.74712,1.74712,A,151610.20
1.53787,57.68784709,11.98130767,57.68784800,11.98130750,16:16:31.157933,0.00528,1.47445,1.47445,-0.03727,0.02287,0.05174,0.02075,-0.06432,-0.00836,0.01318,0.96221,1.53232,1.46927,1.76729,1.77408,-0.49516,1.62284,1.45789,-0.50522,1.72352,1.74712,1.74712,A,151610.20
1.54842,57.68784724,11.98130762,57.68784800,11.98130750,16:16:31.168486,0.00544,1.47445,1.47445,-0.03594,0.02259,0.05189,0.01189,-0.05866,0.01598,0.04746,0.92147,1.54280,1.47030,1.76348,1.77018,-0.49805,1.63943,1.45789,-0.50522,1.72352,1.74712,1.74712,A,151610.20
1.57448,57.68784738,11.98130758,57.68784900,11.98130700,16:16:31.194552,0.02110,1.47445,1.47445,-0.03496,0.02225,0.05984,-0.00032,-0.06187,-0.06460,0.02367,0.96166,1.55318,1.47113,1.76025,1.76685,-0.50070,1.65499,1.57007,-0.53494,1.83472,1.83196,1.83196,A,151610.30
1.58876,57.68784781,11.98130742,57.68784900,11.98130700,16:16:31.208832,0.00734,1.47445,1.47445,-0.03459,0.02072,0.05999,-0.01605,-0.07149,0.07759,-0.09455,1.01339,1.58309,1.47180,1.77080,1.77695,-0.51007,1.70252,1.57007,-0.53494,1.83472,1.83196,1.83196,A,151610.30
1.59705,57.68784795,11.98130737,57.68784900,11.98130700,16:16:31.217115,0.00531,1.47445,1.47445,-0.03461,0.02029,0.05113,-0.02277,-0.07271,0.00518,-0.02879,1.00314,1.59136,1.47233,1.77921,1.78524,-0.51307,1.71753,1.57007,-0.53494,1.83472,1.83196,1.83196,A,151610.30
1.60752,57.68784810,11.98130731,57.68784900,11.98130700,16:16:31.227593,0.00514,1.47445,1.47445,-0.03516,0.01987,0.05006,-0.02125,-0.06920,-0.01177,-0.07094,0.99558,1.60196,1.47275,1.78644,1.79233,-0.51667,1.73492,1.57007,-0.53494,1.83472,1.83196,1.83196,A,151610.30
1.61768,57.68784825,11.98130725,57.68784900,11.98130700,16:16:31.237747,0.00514,1.47445,1.47445,-0.03509,0.01961,0.04319,-0.01437,-0.07134,-0.07027,-0.02403,0.98521,1.61212,1.47309,1.79258,1.79840,-0.52015,1.75130,1.57007,-0.53494,1.83472,1.83196,1.83196,A,151610.30
1.63024,57.68784839,11.98130719,57.68784900,11.98130700,16:16:31.250328,0.00730,1.47445,1.47445,-0.03517,0.01947,0.04884,-0.00491,-0.07088,-0.02739,-0.04166,1.02840,1.62289,1.47336,1.79782,1.80360,-0.52365,1.76737,1.57007,-0.53494,1.83472,1.83196,1.83196,A,151610.30
1.63979,57.68784852,11.98130714,57.68784900,11.98130700,16:16:31.259877,0.00646,1.47445,1.47445,-0.03479,0.01942,0.04747,0.00334,-0.06615,0.03764,-0.01031,1.02565,1.63421,1.47358,1.80224,1.80800,-0.52666,1.78107,1.57007,-0.53494,1.83472,1.83196,1.83196,A,151610.30
1.64895,57.68784863,11.98130709,57.68784900,11.98130700,16:16:31.269017,0.00522,1.47445,1.47445,-0.03525,0.01936,0.04548,-0.00063,-0.06615,0.05124,-0.06076,1.03663,1.64336,1.47375,1.80600,1.81175,-0.52948,1.79371,1.57007,-0.53494,1.83472,1.83196,1.83196,A,151610.30
1.65956,57.68784875,11.98130704,57.68784900,11.98130700,16:16:31.279626,0.00542,1.47445,1.47445,-0.03518,0.01927,0.04151,-0.01407,-0.06997,-0.00616,-0.02562,1.03462,1.65400,1.47389,1.80922,1.81495,-0.53262,1.80741,1.57007,-0.53494,1.83472,1.83196,1.83196,A,151610.30
1.66965,57.68784887,11.98130699,57.68784900,11.98130700,16:16:31.289710,0.00512,1.47445,1.47445,-0.03448,0.01916,0.04120,-0.00567,-0.06737,-0.04172,0.01891,0.97216,1.66411,1.47400,1.81196,1.81765,-0.53554,1.82003,1.57007,-0.53494,1.83472,1.83196,1.83196,A,151610.30
1.69522,57.68784898,11.98130694,57.68785050,11.98130633,16:16:31.315526,0.02030,1.47445,1.47445,-0.03399,0.01908,0.03907,-0.00521,-0.07501,0.00665,0.00537,0.94019,1.67472,1.47409,1.81430,1.81997,-0.53845,1.83244,1.69160,-0.57456,2.00151,1.80404,1.80404,A,151610.40
1.71031,57.68784940,11.98130675,57.68785050,11.98130633,16:16:31.330382,0.00729,1.47445,1.47445,-0.03326,0.01905,0.02929,-0.02400,-0.06722,-0.02190,-0.00817,0.96453,1.70491,1.47416,1.81253,1.81818,-0.54996,1.87902,1.69160,-0.57456,2.00151,1.80404,1.80404,A,151610.40
1.71851,57.68784953,11.98130669,57.68785050,11.98130633,16:16:31.338575,0.00509,1.47445,1.47445,-0.03297,0.01905,0.03616,-0.01697,-0.07119,-0.00037,0.00140,1.00906,1.71319,1.47422,1.81055,1.81620,-0.55339,1.89386,1.69160,-0.57456,2.00151,1.80404,1.80404,A,151610.40
1.72918,57.68784968,11.98130662,57.68785050,11.98130633,16:16:31.349249,0.00540,1.47445,1.47445,-0.03260,0.01905,0.04105,0.00456,-0.06905,-0.07338,-0.00201,1.08830,1.72343,1.47427,1.80891,1.81456,-0.55731,1.91069,1.69160,-0.57456,2.00151,1.80404,1.80404,A,151610.40
1.73951,57.68784983,11.98130656,57.68785050,11.98130633,16:16:31.359599,0.00510,1.47445,1.47445,-0.03232,0.01905,0.03891,0.02212,-0.07073,-0.04166,-0.00659,1.08610,1.73398,1.47430,1.80751,1.81316,-0.56099,1.92654,1.69160,-0.57456,2.00151,1.80404,1.80404,A,151610.40
1.74972,57.68784996,11.98130650,57.68785050,11.98130633,16:16:31.369787,0.00515,1.47445,1.47445,-0.03199,0.01905,0.03708,0.02686,-0.06737,-0.01519,-0.00043,1.07140,1.74417,1.47433,1.80633,1.81198,-0.56449,1.94170,1.69160,-0.57456,2.00151,1.80404,1.80404,A,151610.40
1.76113,57.68785009,11.98130645,57.68785050,11.98130633,16:16:31.381225,0.00615,1.47445,1.47445,-0.03196,0.01905,0.03830,0.01922,-0.06890,0.06045,-0.02208,0.99473,1.75477,1.47436,1.80532,1.81098,-0.56786,1.95633,1.69160,-0.57456,2.00151,1.80404,1.80404,A,151610.40
1.77048,57.68785022,11.98130639,57.68785050,11.98130633,16:16:31.390542,0.00510,1.47445,1.47445,-0.03214,0.01905,0.03403,0.00136,-0.06890,0.07814,-0.03019,0.94434,1.76516,1.47437,1.80446,1.81012,-0.57096,1.96988,1.69160,-0.57456,2.00151,1.80404,1.80404,A,151610.40
1.78096,57.68785033,11.98130634,57.68785050,11.98130633,16:16:31.401027,0.00521,1.47445,1.47445,-0.03194,0.01905,0.03601,-0.01025,-0.06645,0.05398,-0.00695,0.91817,1.77536,1.47439,1.80373,1.80939,-0.57392,1.98287,1.69160,-0.57456,2.00151,1.80404,1.80404,A,151610.40
1.79126,57.68785044,11.98130630,57.68785050,11.98130633,16:16:31.411568,0.00511,1.47445,1.47445,-0.03228,0.01905,0.03235,-0.03301,-0.07149,-0.01861,-0.03959,0.93464,1.78594,1.47440,1.80312,1.80877,-0.57677,1.99537,1.69160,-0.57456,2.00151,1.80404,1.80404,A,151610.40
1.81770,57.68785055,11.98130625,57.68785183,11.98130533,16:16:31.438127,0.02115,1.47445,1.47445,-0.03241,0.01905,0.02868,-0.02842,-0.07271,-0.06771,-0.02519,0.99894,1.79612,1.47441,1.80259,1.80824,-0.57942,2.00706,1.81315,-0.63400,2.14977,1.95208,1.95208,A,151610.50
1.83329,57.68785097,11.98130604,57.68785183,11.98130533,16:16:31.453355,0.00668,1.39533,1.39533,-0.03190,0.01905,0.01494,0.03343,-0.07684,-0.03642,0.00494,1.01980,1.82747,1.45859,1.82480,1.83046,-0.59181,2.05413,1.81315,-0.63400,2.14977,1.95208,1.95208,A,151610.50
1.84211,57.68785110,11.98130597,57.68785183,11.98130533,16:16:31.462186,0.00511,1.39533,1.39533,-0.03169,0.01902,0.00715,0.03541,-0.07562,-0.00116,0.01244,1.00778,1.83681,1.44594,1.84320,1.84885,-0.59643,2.06836,1.81315,-0.63400,2.14977,1.95208,1.95208,A,151610.50
1.85286,57.68785124,11.98130588,57.68785183,11.98130533,16:16:31.472932,0.00529,1.39533,1.39533,-0.03124,0.01899,0.01051,0.02442,-0.07287,0.00683,0.02483,0.96502,1.84718,1.43582,1.85887,1.86451,-0.60154,2.08376,1.81315,-0.63400,2.14977,1.95208,1.95208,A,151610.50
1.86310,57.68785137,11.98130580,57.68785183,11.98130533,16:16:31.483164,0.00512,1.39533,1.39533,-0.03065,0.01891,0.00898,0.00227,-0.07424,0.04240,0.03422,0.95191,1.85778,1.42772,1.87219,1.87780,-0.60649,2.09805,1.81315,-0.63400,2.14977,1.95208,1.95208,A,151610.50
1.87353,57.68785149,11.98130572,57.68785183,11.98130533,16:16:31.493600,0.00516,1.39533,1.39533,-0.03028,0.01879,0.01585,-0.01193,-0.07439,-0.00909,0.01806,0.99491,1.86795,1.42125,1.88351,1.88909,-0.61129,2.11144,1.81315,-0.63400,2.14977,1.95208,1.95208,A,151610.50
1.88500,57.68785160,11.98130564,57.68785183,11.98130533,16:16:31.505074,0.00624,1.39533,1.39533,-0.03078,0.01871,0.01188,-0.01193,-0.08081,0.02397,-0.03812,1.01760,1.87857,1.41606,1.89314,1.89869,-0.61603,2.12431,1.81315,-0.63400,2.14977,1.95208,1.95208,A,151610.50
1.89427,57.68785170,11.98130557,57.68785183,11.98130533,16:16:31.514333,0.00511,1.39533,1.39533,-0.03151,0.01871,0.00532,-0.01056,-0.07760,-0.03239,-0.05045,1.02944,1.88894,1.41192,1.90130,1.90685,-0.62017,2.13511,1.81315,-0.63400,2.14977,1.95208,1.95208,A,151610.50
1.90491,57.68785181,11.98130549,57.68785183,11.98130533,16:16:31.524984,0.00520,1.39533,1.39533,-0.03157,0.01871,-0.00476,-0.00857,-0.07241,-0.08632,0.00165,1.02864,1.89932,1.40860,1.90826,1.91381,-0.62465,2.14669,1.81315,-0.63400,2.14977,1.95208,1.95208,A,151610.50
1.94306,57.68785191,11.98130542,57.68785450,11.98130367,16:16:31.563146,0.03294,1.39533,1.39533,-0.03109,0.01871,-0.00400,0.00716,-0.06615,-0.07558,0.03880,1.01791,1.91008,1.40595,1.91418,1.91973,-0.62902,2.15778,1.93832,-0.73306,2.44629,1.89322,1.89322,A,151610.70
1.96003,57.68785251,11.98130500,57.68785450,11.98130367,16:16:31.580107,0.00734,1.39533,1.39533,-0.03159,0.01871,0.00150,0.02182,-0.07501,0.07241,-0.03508,1.01419,1.95441,1.40382,1.91107,1.91662,-0.65364,2.22556,1.93832,-0.73306,2.44629,1.89322,1.89322,A,151610.70
1.96849,57.68785269,11.98130489,57.68785450,11.98130367,16:16:31.588555,0.00539,1.39533,1.39533,-0.03226,0.01871,0.00180,0.01968,-0.07516,0.05618,-0.04288,0.99668,1.96290,1.40213,1.90769,1.91324,-0.66050,2.24463,1.93832,-0.73306,2.44629,1.89322,1.89322,A,151610.70
1.97849,57.68785287,11.98130476,57.68785450,11.98130367,16:16:31.598562,0.00500,1.39533,1.39533,-0.03320,0.01871,-0.00522,0.01113,-0.07821,0.03581,-0.05581,0.97990,1.97318,1.40077,1.90485,1.91041,-0.66780,2.26501,1.93832,-0.73306,2.44629,1.89322,1.89322,A,151610.70
1.98898,57.68785305,11.98130465,57.68785450,11.98130367,16:16:31.609047,0.00521,1.39533,1.39533,-0.03428,0.01871,-0.00767,0.00624,-0.08020,-0.02965,-0.06460,0.97832,1.98339,1.39968,1.90245,1.90800,-0.67479,2.28462,1.93832,-0.73306,2.44629,1.89322,1.89322,A,151610.70
1.99953,57.68785321,11.98130454,57.68785450,11.98130367,16:16:31.619609,0.00536,1.39533,1.39533,-0.03489,0.01871,-0.02141,0.00472,-0.08234,0.06259,-0.02306,0.91305,1.99398,1.39881,1.90040,1.90596,-0.68145,2.30337,1.93832,-0.73306,2.44629,1.89322,1.89322,A,151610.70
2.00971,57.68785337,11.98130443,57.68785450,11.98130367,16:16:31.629772,0.00514,1.39533,1.39533,-0.03544,0.01871,-0.02004,-0.00506,-0.08127,0.01818,-0.02178,0.91890,2.00415,1.39812,1.89866,1.90422,-0.68768,2.32102,1.93832,-0.73306,2.44629,1.89322,1.89322,A,151610.70
2.02495,57.68785353,11.98130433,57.68785450,11.98130367,16:16:31.645715,0.00992,1.39533,1.39533,-0.03555,0.01871,-0.01637,-0.00582,-0.07638,0.03276,0.00311,0.90768,2.01483,1.39533,1.85639,1.86194,-0.73306,2.44629,1.93832,-0.73306,2.44629,1.89322,1.89322,A,151610.70
2.03323,57.68785462,11.98130360,57.68785450,11.98130367,16:16:31.653292,0.00605,1.39533,1.39533,-0.03514,-0.01705,-0.00904,-0.00231,-0.06783,-0.05972,0.02751,0.99802,2.02749,1.39533,1.86289,1.85783,-0.73708,2.45970,1.93832,-0.73306,2.44629,1.89322,1.89322,A,151610.70
2.06015,57.68785470,11.98130355,57.68785617,11.98130300,16:16:31.680221,0.02257,1.39533,1.39533,-0.03492,-0.01705,-0.01225,0.00304,-0.06768,-0.09431,0.01616,1.03297,2.03739,1.39533,1.86805,1.86299,-0.73976,2.46880,2.05410,-0.77268,2.63161,1.78144,1.78144,A,151610.80
2.07651,57.68785512,11.98130333,57.68785617,11.98130300,16:16:31.696583,0.00697,1.39533,1.39533,-0.03631,-0.01705,-0.02049,-0.01025,-0.06370,0.10547,-0.05716,1.01766,2.06953,1.39533,1.85526,1.85020,-0.75300,2.51547,2.05410,-0.77268,2.63161,1.78144,1.78144,A,151610.80
2.08500,57.68785525,11.98130327,57.68785617,11.98130300,16:16:31.705067,0.00522,1.39533,1.39533,-0.03597,-0.01705,-0.02126,-0.03026,-0.06279,0.06460,0.02818,0.97826,2.07942,1.39533,1.84483,1.83977,-0.75634,2.52950,2.05410,-0.77268,2.63161,1.78144,1.78144,A,151610.80
2.09550,57.68785539,11.98130321,57.68785617,11.98130300,16:16:31.715589,0.00510,1.39533,1.39533,-0.03638,-0.01705,-0.01591,-0.04889,-0.06172,0.00665,-0.02300,0.94660,2.08998,1.39533,1.83592,1.83086,-0.76015,2.54546,2.05410,-0.77268,2.63161,1.78144,1.78144,A,151610.80
2.10568,57.68785553,11.98130315,57.68785617,11.98130300,16:16:31.725747,0.00510,1.39533,1.39533,-0.03706,-0.01705,-0.01744,-0.04446,-0.06477,-0.15817,-0.04185,1.00144,2.10016,1.39533,1.82835,1.82329,-0.76363,2.56050,2.05410,-0.77268,2.63161,1.78144,1.78144,A,151610.80
2.11657,57.68785566,11.98130310,57.68785617,11.98130300,16:16:31.736635,0.00560,1.39533,1.39533,-0.03748,-0.01705,-0.02248,-0.01499,-0.06829,-0.07198,-0.02117,1.00912,2.11095,1.39533,1.82191,1.81685,-0.76699,2.57533,2.05410,-0.77268,2.63161,1.78144,1.78144,A,151610.80
2.12637,57.68785578,11.98130305,57.68785617,11.98130300,16:16:31.746436,0.00516,1.39533,1.39533,-0.03749,-0.01705,-0.02645,0.00365,-0.06706,-0.08772,0.00799,1.04847,2.12103,1.39533,1.81645,1.81139,-0.76985,2.58840,2.05410,-0.77268,2.63161,1.78144,1.78144,A,151610.80
2.13696,57.68785590,11.98130300,57.68785617,11.98130300,16:16:31.757025,0.00521,1.39533,1.39533,-0.03750,-0.01705,-0.02691,0.01082,-0.06126,-0.07777,0.00787,0.98747,2.13137,1.39533,1.81180,1.80674,-0.77268,2.60151,2.05410,-0.77268,2.63161,1.78144,1.78144,A,151610.80
2.14728,57.68785601,11.98130296,57.68785617,11.98130300,16:16:31.767588,0.00513,1.39533,1.39533,-0.03719,-0.01699,-0.02233,0.01663,-0.05973,-0.03825,0.02721,0.99711,2.14197,1.39533,1.80785,1.80280,-0.77532,2.61400,2.05410,-0.77268,2.63161,1.78144,1.78144,A,151610.80
2.17425,57.68785611,11.98130291,57.68785767,11.98130183,16:16:31.794330,0.02171,1.39533,1.39533,-0.03638,-0.01688,-0.01469,0.01739,-0.04950,-0.04008,0.05276,0.96051,2.15215,1.39533,1.80448,1.79947,-0.77774,2.62569,2.16903,-0.84203,2.79841,1.96480,1.96480,A,151610.90
2.19209,57.68785656,11.98130270,57.68785767,11.98130183,16:16:31.812162,0.00784,1.39533,1.39533,-0.03679,-0.01566,-0.00935,-0.02002,-0.04446,0.00848,-0.01586,1.08586,2.18577,1.39533,1.82865,1.82400,-0.79046,2.67515,2.16903,-0.84203,2.79841,1.96480,1.96480,A,151610.90
2.20005,57.68785668,11.98130262,57.68785767,11.98130183,16:16:31.820113,0.00540,1.39533,1.39533,-0.03632,-0.01490,-0.00553,-0.01361,-0.04859,-0.03239,0.02721,1.02157,2.19448,1.39533,1.84964,1.84521,-0.79501,2.68894,2.16903,-0.84203,2.79841,1.96480,1.96480,A,151610.90
2.21017,57.68785683,11.98130253,57.68785767,11.98130183,16:16:31.830229,0.00511,1.39533,1.39533,-0.03650,-0.01390,-0.00201,-0.00842,-0.04797,-0.05508,-0.01861,1.01388,2.20485,1.39533,1.86740,1.86327,-0.80036,2.70504,2.16903,-0.84203,2.79841,1.96480,1.96480,A,151610.90
2.22085,57.68785697,11.98130244,57.68785767,11.98130183,16:16:31.840921,0.00525,1.39533,1.39533,-0.03702,-0.01266,0.00440,0.00029,-0.04767,-0.05789,-0.04398,0.98112,2.21523,1.39533,1.88244,1.87868,-0.80572,2.72060,2.16903,-0.84203,2.79841,1.96480,1.96480,A,151610.90
2.23172,57.68785710,11.98130235,57.68785767,11.98130183,16:16:31.851805,0.00572,1.39533,1.39533,-0.03725,-0.01122,-0.00034,-0.00216,-0.04599,-0.06722,-0.02159,0.91878,2.22614,1.39533,1.89517,1.89184,-0.81107,2.73562,2.16903,-0.84203,2.79841,1.96480,1.96480,A,151610.90
2.24155,57.68785722,11.98130227,57.68785767,11.98130183,16:16:31.861621,0.00516,1.39533,1.39533,-0.03741,-0.00980,0.00287,-0.00597,-0.04629,0.01610,-0.01909,0.95959,2.23599,1.39533,1.90596,1.90305,-0.81598,2.74886,2.16903,-0.84203,2.79841,1.96480,1.96480,A,151610.90
2.25222,57.68785734,11.98130219,57.68785767,11.98130183,16:16:31.872291,0.00543,1.39533,1.39533,-0.03738,-0.00833,0.01173,-0.01346,-0.04355,0.04215,-0.01482,1.04109,2.24661,1.39533,1.91506,1.91259,-0.82099,2.76207,2.16903,-0.84203,2.79841,1.96480,1.96480,A,151610.90
2.26230,57.68785745,11.98130211,57.68785767,11.98130183,16:16:31.882365,0.00510,1.39533,1.39533,-0.03713,-0.00706,0.01692,-0.02842,-0.03744,-0.00177,-0.00220,1.05658,2.25698,1.39533,1.92276,1.92067,-0.82572,2.77423,2.16903,-0.84203,2.79841,1.96480,1.96480,A,151610.90
2.28949,57.68785756,11.98130203,57.68785917,11.98130100,16:16:31.909584,0.02175,1.65487,1.65487,-0.03721,-0.00592,0.02364,-0.02094,-0.03622,-0.06100,-0.03087,1.07451,2.26736,1.44724,1.92927,1.92751,-0.83043,2.78612,2.28419,-0.89156,2.96520,1.85946,1.85946,A,151611.00
2.30515,57.68785796,11.98130175,57.68785917,11.98130100,16:16:31.925223,0.00799,1.65487,1.65487,-0.03667,-0.00391,0.02456,-0.00995,-0.02873,0.01568,-0.01751,0.91683,2.29709,1.48877,1.91879,1.91763,-0.84677,2.83071,2.28419,-0.89156,2.96520,1.85946,1.85946,A,151611.00
2.31311,57.68785809,11.98130167,57.68785917,11.98130100,16:16:31.933185,0.00541,1.65487,1.65487,-0.03624,-0.00366,0.02471,-0.02308,-0.02950,-0.01928,0.00543,0.93647,2.30732,1.52199,1.91003,1.90894,-0.85175,2.84504,2.28419,-0.89156,2.96520,1.85946,1.85946,A,151611.00
2.32321,57.68785824,11.98130157,57.68785917,11.98130100,16:16:31.943532,0.00512,1.65487,1.65487,-0.03589,-0.00366,0.02578,-0.02919,-0.03484,-0.05087,-0.00049,0.95398,2.31791,1.54856,1.90257,1.90148,-0.85782,2.86265,2.28419,-0.89156,2.96520,1.85946,1.85946,A,151611.00
2.33400,57.68785840,11.98130147,57.68785917,11.98130100,16:16:31.954068,0.00550,1.65487,1.65487,-0.03564,-0.00366,0.02517,-0.02140,-0.03606,-0.10888,-0.00586,0.99223,2.32823,1.56982,1.89623,1.89514,-0.86368,2.87992,2.28419,-0.89156,2.96520,1.85946,1.85946,A,151611.00
2.34444,57.68785854,11.98130138,57.68785917,11.98130100,16:16:31.964508,0.00554,1.65487,1.65487,-0.03579,-0.00366,0.02349,-0.00765,-0.04370,-0.07375,-0.03324,1.03822,2.33883,1.58683,1.89084,1.88975,-0.86904,2.89597,2.28419,-0.89156,2.96520,1.85946,1.85946,A,151611.00
2.35436,57.68785868,11.98130130,57.68785917,11.98130100,16:16:31.974423,0.00507,1.65487,1.65487,-0.03642,-0.00366,0.02242,-0.00185,-0.04828,-0.00421,-0.06503,1.03730,2.34906,1.60044,1.88626,1.88517,-0.87401,2.91109,2.28419,-0.89156,2.96520,1.85946,1.85946,A,151611.00
2.36512,57.68785882,11.98130121,57.68785917,11.98130100,16:16:31.985187,0.00538,1.65487,1.65487,-0.03678,-0.00366,0.00852,-0.00460,-0.05561,0.01208,-0.03703,1.03102,2.35937,1.61133,1.88236,1.88128,-0.87889,2.92610,2.28419,-0.89156,2.96520,1.85946,1.85946,A,151611.00
2.37525,57.68785894,11.98130114,57.68785917,11.98130100,16:16:31.995557,0.00511,1.65487,1.65487,-0.03618,-0.00366,0.00455,-0.01728,-0.05546,0.06905,0.03111,1.02608,2.36995,1.62003,1.87905,1.87797,-0.88343,2.94022,2.28419,-0.89156,2.96520,1.85946,1.85946,A,151611.00
2.40238,57.68785906,11.98130106,57.68786067,11.98130117,16:16:32.022453,0.02184,1.65487,1.65487,-0.03522,-0.00366,0.01081,-0.02720,-0.05576,-0.07582,0.05234,1.02321,2.38012,1.62700,1.87624,1.87515,-0.88773,2.95375,2.39701,-0.88165,3.13199,1.51147,1.51147,A,151611.10
2.41858,57.68785956,11.98130083,57.68786067,11.98130117,16:16:32.038648,0.00774,1.65487,1.65487,-0.03527,-0.00366,0.02150,-0.02247,-0.04156,0.03447,-0.05087,0.92336,2.41323,1.63257,1.82154,1.82046,-0.90182,3.00849,2.39701,-0.88165,3.13199,1.51147,1.51147,A,151611.10
2.42852,57.68785969,11.98130081,57.68786067,11.98130117,16:16:32.048589,0.00728,1.65487,1.65487,-0.03541,-0.00366,0.01631,-0.01957,-0.03927,0.00311,-0.02147,0.92952,2.42103,1.63703,1.77517,1.77408,-0.90310,3.02362,2.39701,-0.88165,3.13199,1.51147,1.51147,A,151611.10
2.43713,57.68785983,11.98130079,57.68786067,11.98130117,16:16:32.057206,0.00539,1.65487,1.65487,-0.03573,-0.00366,0.02059,-0.00903,-0.04003,-0.08546,-0.03965,0.97399,2.43152,1.64060,1.73575,1.73466,-0.90408,3.03902,2.39701,-0.88165,3.13199,1.51147,1.51147,A,151611.10
2.44727,57.68785999,11.98130077,57.68786067,11.98130117,16:16:32.067589,0.00525,1.65487,1.65487,-0.03567,-0.00366,0.02074,0.00655,-0.04309,-0.06307,-0.01562,1.02120,2.44194,1.64345,1.70223,1.70114,-0.90508,3.05648,2.39701,-0.88165,3.13199,1.51147,1.51147,A,151611.10
2.45760,57.68786014,11.98130076,57.68786067,11.98130117,16:16:32.077672,0.00518,1.65487,1.65487,-0.03534,-0.00366,0.01723,0.01449,-0.04538,-0.02678,0.00531,1.06616,2.45203,1.64574,1.67374,1.67265,-0.90558,3.07304,2.39701,-0.88165,3.13199,1.51147,1.51147,A,151611.10
2.46996,57.68786030,11.98130076,57.68786067,11.98130117,16:16:32.090031,0.00714,1.65487,1.65487,-0.03447,-0.00366,0.01494,0.01464,-0.04874,0.03849,0.04325,1.04584,2.46403,1.64756,1.64952,1.64843,-0.90597,3.09146,2.39701,-0.88165,3.13199,1.51147,1.51147,A,151611.10
2.47834,57.68786041,11.98130076,57.68786067,11.98130117,16:16:32.098403,0.00512,1.65487,1.65487,-0.03405,-0.00366,0.01158,0.00930,-0.05424,0.05734,0.01769,1.02754,2.47301,1.64902,1.62894,1.62786,-0.90555,3.10378,2.39701,-0.88165,3.13199,1.51147,1.51147,A,151611.10
2.48937,57.68786055,11.98130077,57.68786067,11.98130117,16:16:32.109436,0.00528,1.65487,1.65487,-0.03368,-0.00366,0.01784,-0.00964,-0.05775,-0.02580,0.00836,1.01333,2.48378,1.65019,1.61144,1.61036,-0.90516,3.11920,2.39701,-0.88165,3.13199,1.51147,1.51147,A,151611.10
2.51550,57.68786068,11.98130078,57.68786183,11.98129983,16:16:32.135574,0.02101,1.65487,1.65487,-0.03340,-0.00366,0.01937,-0.00628,-0.06141,0.01446,0.00146,0.99253,2.49434,1.65113,1.59657,1.59548,-0.90451,3.13313,2.51110,-0.96090,3.26172,2.11919,2.11919,A,151611.20
2.53018,57.68786114,11.98130072,57.68786183,11.98129983,16:16:32.150250,0.00761,1.65487,1.65487,-0.03358,-0.00366,0.01601,-0.04095,-0.05989,0.00537,-0.04435,0.96075,2.52433,1.65188,1.67499,1.67391,-0.90843,3.18408,2.51110,-0.96090,3.26172,2.11919,2.11919,A,151611.20
2.53807,57.68786126,11.98130066,57.68786183,11.98129983,16:16:32.158135,0.00510,1.65487,1.65487,-0.03410,-0.00366,0.01830,-0.03071,-0.05485,-0.03501,-0.04758,0.97698,2.53278,1.65247,1.74176,1.74067,-0.91204,3.19754,2.51110,-0.96090,3.26172,2.11919,2.11919,A,151611.20
2.54880,57.68786140,11.98130058,57.68786183,11.98129983,16:16:32.168868,0.00524,1.65487,1.65487,-0.03442,-0.00366,0.02440,-0.01896,-0.05363,-0.13487,-0.04240,1.02193,2.54317,1.65295,1.79849,1.79741,-0.91677,3.21406,2.51110,-0.96090,3.26172,2.11919,2.11919,A,151611.20
2.55909,57.68786154,11.98130049,57.68786183,11.98129983,16:16:32.179159,0.00514,1.65487,1.65487,-0.03421,-0.00366,0.02502,0.01999,-0.04706,-0.13524,-0.00817,1.04383,2.55378,1.65334,1.84672,1.84563,-0.92197,3.22945,2.51110,-0.96090,3.26172,2.11919,2.11919,A,151611.20
2.56952,57.68786167,11.98130040,57.68786183,11.98129983,16:16:32.189582,0.00516,1.65487,1.65487,-0.03345,-0.00366,0.02288,0.04106,-0.04813,0.05783,0.03105,0.98667,2.56394,1.65364,1.88771,1.88663,-0.92748,3.24369,2.51110,-0.96090,3.26172,2.11919,2.11919,A,151611.20
2.58016,57.68786179,11.98130030,57.68786183,11.98129983,16:16:32.200227,0.00540,1.65487,1.65487,-0.03366,-0.00366,0.02547,0.03358,-0.04385,0.11480,-0.03422,0.98503,2.57456,1.65389,1.92256,1.92147,-0.93333,3.25737,2.51110,-0.96090,3.26172,2.11919,2.11919,A,151611.20
2.59027,57.68786191,11.98130020,57.68786183,11.98129983,16:16:32.210336,0.00511,1.65487,1.65487,-0.03315,-0.00366,0.01738,0.00273,-0.04859,0.08528,0.01818,0.97996,2.58494,1.65408,1.95218,1.95109,-0.93919,3.26983,2.51110,-0.96090,3.26172,2.11919,2.11919,A,151611.20
2.60092,57.68786201,11.98130010,57.68786183,11.98129983,16:16:32.220990,0.00522,1.65487,1.65487,-0.03224,-0.00366,0.02120,-0.01667,-0.05821,0.03806,0.04483,1.02486,2.59531,1.65424,1.97735,1.97626,-0.94526,3.28191,2.51110,-0.96090,3.26172,2.11919,2.11919,A,151611.20
2.61123,57.68786212,11.98129999,57.68786183,11.98129983,16:16:32.231535,0.00514,1.65487,1.65487,-0.03184,-0.00366,0.01616,-0.02430,-0.06218,0.00299,0.01397,1.03621,2.60591,1.65437,1.99875,1.99766,-0.95132,3.29319,2.51110,-0.96090,3.26172,2.11919,2.11919,A,151611.20
2.64950,57.68786221,11.98129990,57.68786500,11.98129900,16:16:32.269569,0.03301,1.65487,1.65487,-0.03188,-0.00366,0.02196,-0.02002,-0.06432,0.03440,-0.01946,1.03676,2.61607,1.65447,2.01694,2.01585,-0.95723,3.30355,2.64466,-1.01043,3.61384,1.71055,1.71055,A,151611.40
2.65989,57.68786281,11.98129944,57.68786500,11.98129900,16:16:32.279959,0.00549,1.91105,1.91105,-0.03167,-0.00366,0.00333,0.01999,-0.05072,-0.05716,0.00329,0.97630,2.65431,1.70578,1.97097,1.96989,-0.98433,3.37032,2.64466,-1.01043,3.61384,1.71055,1.71055,A,151611.40
2.66990,57.68786303,11.98129933,57.68786500,11.98129900,16:16:32.289968,0.00510,1.91105,1.91105,-0.03160,-0.00366,0.00593,0.03068,-0.03866,-0.14969,-0.00049,0.96459,2.66439,1.74684,1.93203,1.93094,-0.99097,3.39513,2.64466,-1.01043,3.61384,1.71055,1.71055,A,151611.40
2.68078,57.68786325,11.98129923,57.68786500,11.98129900,16:16:32.300851,0.00558,1.91105,1.91105,-0.03067,-0.00366,0.00028,0.03419,-0.03774,0.02519,0.05954,0.99180,2.67500,1.77968,1.89893,1.89784,-0.99698,3.41944,2.64466,-1.01043,3.61384,1.71055,1.71055,A,151611.40
2.69073,57.68786346,11.98129914,57.68786500,11.98129900,16:16:32.310793,0.00513,1.91105,1.91105,-0.03055,-0.00366,-0.00003,0.02121,-0.03530,0.12749,0.00762,1.03987,2.68542,1.80595,1.87079,1.86971,-1.00208,3.44223,2.64466,-1.01043,3.61384,1.71055,1.71055,A,151611.40
2.70110,57.68786366,11.98129906,57.68786500,11.98129900,16:16:32.321163,0.00529,1.91105,1.91105,-0.03046,-0.00366,-0.00110,0.00136,-0.04187,0.03392,0.00665,1.06658,2.69546,1.82697,1.84688,1.84579,-1.00666,3.46432,2.64466,-1.01043,3.61384,1.71055,1.71055,A,151611.40
2.71276,57.68786385,11.98129899,57.68786500,11.98129900,16:16:32.332847,0.00655,1.91105,1.91105,-0.03077,-0.00366,-0.00644,-0.01376,-0.05271,-0.00281,-0.01757,1.06170,2.70604,1.84379,1.82655,1.82546,-1.01084,3.48592,2.64466,-1.01043,3.61384,1.71055,1.71055,A,151611.40
2.72202,57.68786403,11.98129893,57.68786500,11.98129900,16:16:32.342093,0.00526,1.91105,1.91105,-0.03089,-0.00366,-0.00537,-0.01010,-0.05714,-0.04752,-0.00531,1.03682,2.71667,1.85724,1.80927,1.80818,-1.01443,3.50618,2.64466,-1.01043,3.61384,1.71055,1.71055,A,151611.40
2.73294,57.68786421,11.98129888,57.68786500,11.98129900,16:16:32.353015,0.00578,1.91105,1.91105,-0.03081,-0.00366,-0.01377,-0.01101,-0.06325,-0.00335,0.01421,1.01595,2.72714,1.86800,1.79457,1.79349,-1.01782,3.52640,2.64466,-1.01043,3.61384,1.71055,1.71055,A,151611.40
2.74265,57.68786438,11.98129883,57.68786500,11.98129900,16:16:32.362716,0.00510,1.91105,1.91105,-0.03104,-0.00366,-0.00858,-0.01239,-0.05561,0.02800,-0.01074,1.00113,2.73735,1.87661,1.78209,1.78100,-1.02062,3.54479,2.64466,-1.01043,3.61384,1.71055,1.71055,A,151611.40
2.76981,57.68786454,11.98129878,57.68786650,11.98129850,16:16:32.389881,0.02195,1.91105,1.91105,-0.03105,-0.00366,-0.00293,-0.01667,-0.04232,-0.02166,0.00067,0.96325,2.74750,1.88350,1.77148,1.77039,-1.02322,3.56280,2.76453,-1.04015,3.78063,1.74712,1.74712,A,151611.50
2.78474,57.68786510,11.98129860,57.68786650,11.98129850,16:16:32.404809,0.00691,1.91105,1.91105,-0.03078,-0.00287,0.00348,0.01571,-0.00705,-0.06216,0.00952,0.97228,2.77843,1.88901,1.76780,1.76694,-1.03440,3.62478,2.76453,-1.04015,3.78063,1.74712,1.74712,A,151611.50
2.79328,57.68786527,11.98129855,57.68786650,11.98129850,16:16:32.413352,0.00522,1.91105,1.91105,-0.03040,-0.00216,0.00348,0.02304,-0.00735,0.01220,0.02214,0.97710,2.78771,1.89342,1.76476,1.76412,-1.03697,3.64404,2.76453,-1.04015,3.78063,1.74712,1.74712,A,151611.50
2.80381,57.68786547,11.98129850,57.68786650,11.98129850,16:16:32.423895,0.00536,1.91105,1.91105,-0.03038,-0.00125,-0.00446,0.01342,-0.01484,-0.04240,0.00494,0.98539,2.79828,1.89694,1.76215,1.76177,-1.04007,3.66589,2.76453,-1.04015,3.78063,1.74712,1.74712,A,151611.50
2.81396,57.68786566,11.98129845,57.68786650,11.98129850,16:16:32.434282,0.00512,1.91105,1.91105,-0.03046,-0.00032,-0.01225,0.02090,-0.02369,-0.03526,0.00360,0.98381,2.80863,1.89976,1.75989,1.75980,-1.04300,3.68680,2.76453,-1.04015,3.78063,1.74712,1.74712,A,151611.50
2.82560,57.68786584,11.98129841,57.68786650,11.98129850,16:16:32.445684,0.00636,1.91105,1.91105,-0.03005,0.00064,-0.01836,0.01495,-0.03637,-0.05642,0.04368,1.06292,2.81907,1.90202,1.75794,1.75813,-1.04579,3.70678,2.76453,-1.04015,3.78063,1.74712,1.74712,A,151611.50
2.83507,57.68786600,11.98129836,57.68786650,11.98129850,16:16:32.455135,0.00542,1.91105,1.91105,-0.02980,0.00161,-0.02217,0.01861,-0.04568,-0.02470,0.03562,1.05908,2.82975,1.90383,1.75626,1.75673,-1.04833,3.72540,2.76453,-1.04015,3.78063,1.74712,1.74712,A,151611.50
2.84509,57.68786616,11.98129832,57.68786650,11.98129850,16:16:32.465148,0.00521,1.91105,1.91105,-0.02982,0.00260,-0.02416,0.00227,-0.04355,0.06539,0.01635,1.00534,2.83950,1.90527,1.75479,1.75556,-1.05058,3.74227,2.76453,-1.04015,3.78063,1.74712,1.74712,A,151611.50
2.85563,57.68786631,11.98129829,57.68786650,11.98129850,16:16:32.475708,0.00536,1.91105,1.91105,-0.03018,0.00373,-0.02110,-0.01117,-0.04324,0.06783,-0.00726,1.02022,2.85010,1.90643,1.75351,1.75461,-1.05289,3.75936,2.76453,-1.04015,3.78063,1.74712,1.74712,A,151611.50
2.88250,57.68786646,11.98129825,57.68786817,11.98129750,16:16:32.502568,0.02183,1.91105,1.91105,-0.03079,0.00489,-0.02767,-0.03789,-0.03179,-0.05313,-0.02074,1.06768,2.86025,1.90735,1.75238,1.75383,-1.05509,3.77566,2.87726,-1.09959,3.96595,1.88115,1.88115,A,151611.60
2.90171,57.68786708,11.98129802,57.68786817,11.98129750,16:16:32.521782,0.00751,1.91105,1.91105,-0.03177,0.00885,-0.00812,0.02884,-0.00033,0.00592,-0.03654,0.85485,2.89610,1.90809,1.77155,1.77417,-1.06847,3.84546,2.87726,-1.09959,3.96595,1.88115,1.88115,A,151611.60
2.90972,57.68786723,11.98129796,57.68786817,11.98129750,16:16:32.529786,0.00511,1.91105,1.91105,-0.03243,0.00976,-0.01286,0.02289,0.00700,0.00189,-0.03093,0.89761,2.90418,1.90868,1.78763,1.79053,-1.07223,3.86216,2.87726,-1.09959,3.96595,1.88115,1.88115,A,151611.60
2.92044,57.68786741,11.98129788,57.68786817,11.98129750,16:16:32.540517,0.00562,1.91105,1.91105,-0.03236,0.01063,-0.01927,0.02365,0.00624,-0.11236,0.01976,0.98442,2.91466,1.90916,1.80131,1.80446,-1.07694,3.88230,2.87726,-1.09959,3.96595,1.88115,1.88115,A,151611.60
2.93054,57.68786758,11.98129780,57.68786817,11.98129750,16:16:32.550610,0.00532,1.91105,1.91105,-0.03201,0.01126,-0.02019,0.02671,-0.00766,-0.08473,0.04154,1.05817,2.92500,1.90953,1.81291,1.81625,-1.08152,3.90099,2.87726,-1.09959,3.96595,1.88115,1.88115,A,151611.60
2.94099,57.68786775,11.98129773,57.68786817,11.98129750,16:16:32.561058,0.00523,1.91105,1.91105,-0.03156,0.01177,-0.01668,0.03816,-0.01545,-0.03544,0.04959,1.12954,2.93538,1.90984,1.82277,1.82626,-1.08620,3.91932,2.87726,-1.09959,3.96595,1.88115,1.88115,A,151611.60
2.95157,57.68786790,11.98129765,57.68786817,11.98129750,16:16:32.571654,0.00543,1.91105,1.91105,-0.03185,0.01228,-0.01606,0.03159,-0.02812,0.10504,-0.00494,1.07793,2.94602,1.91008,1.83113,1.83477,-1.09079,3.93666,2.87726,-1.09959,3.96595,1.88115,1.88115,A,151611.60
2.96169,57.68786805,11.98129757,57.68786817,11.98129750,16:16:32.581757,0.00514,1.91105,1.91105,-0.03173,0.01287,-0.02370,-0.00659,-0.03072,0.11986,0.02824,1.06353,2.95615,1.91027,1.83821,1.84203,-1.09518,3.95271,2.87726,-1.09959,3.96595,1.88115,1.88115,A,151611.60
2.97235,57.68786819,11.98129750,57.68786817,11.98129750,16:16:32.592414,0.00540,1.91105,1.91105,-0.03225,0.01375,-0.02278,-0.03346,-0.02003,0.01110,-0.01507,1.00223,2.96676,1.91043,1.84420,1.84828,-1.09957,3.96837,2.87726,-1.09959,3.96595,1.88115,1.88115,A,151611.60
2.99823,57.68786832,11.98129743,57.68786933,11.98129650,16:16:32.618658,0.02089,1.91105,1.91105,-0.03289,0.01482,-0.01836,-0.06141,-0.02094,-0.04288,-0.02434,0.92830,2.97712,1.91055,1.84925,1.85365,-1.10369,3.98271,2.99377,-1.15903,4.09568,2.00042,2.00042,A,151611.70
3.00898,57.68786875,11.98129718,57.68786933,11.98129650,16:16:32.629046,0.00532,1.91105,1.91105,-0.03371,0.01794,-0.00629,0.00044,-0.00598,-0.15262,-0.04014,1.00443,3.00334,1.91065,1.87167,1.87699,-1.11882,4.03092,2.99377,-1.15903,4.09568,2.00042,2.00042,A,151611.70
3.02007,57.68786891,11.98129706,57.68786933,11.98129650,16:16:32.640147,0.00600,1.91105,1.91105,-0.03443,0.01898,-0.00675,0.04045,0.00441,-0.05642,-0.04063,1.02029,3.01405,1.91073,1.89036,1.89600,-1.12554,4.04903,2.99377,-1.15903,4.09568,2.00042,2.00042,A,151611.70
3.03013,57.68786906,11.98129695,57.68786933,11.98129650,16:16:32.650193,0.00584,1.91105,1.91105,-0.03403,0.01969,-0.01133,0.04121,0.00777,-0.05496,0.03800,1.00449,3.02479,1.91079,1.90623,1.91207,-1.13201,4.06560,2.99377,-1.15903,4.09568,2.00042,2.00042,A,151611.70
3.04035,57.68786920,11.98129685,57.68786933,11.98129650,16:16:32.660421,0.00549,1.91105,1.91105,-0.03281,0.02009,-0.01515,0.03969,0.00960,-0.10041,0.08802,0.92208,3.03472,1.91085,1.91970,1.92566,-1.13829,4.08099,2.99377,-1.15903,4.09568,2.00042,2.00042,A,151611.70
3.05036,57.68786933,11.98129674,57.68786933,11.98129650,16:16:32.670416,0.00509,1.91105,1.91105,-0.03238,0.02023,-0.00293,0.03190,0.01097,-0.09052,0.03526,0.98942,3.04505,1.91089,1.93115,1.93716,-1.14451,4.09571,2.99377,-1.15903,4.09568,2.00042,2.00042,A,151611.70
3.06112,57.68786946,11.98129664,57.68786933,11.98129650,16:16:32.681185,0.00536,1.91105,1.91105,-0.03281,0.02023,-0.00767,0.01861,0.00135,0.06911,-0.01757,0.96789,3.05537,1.91092,1.94090,1.94690,-1.15078,4.11015,2.99377,-1.15903,4.09568,2.00042,2.00042,A,151611.70
3.07177,57.68786958,11.98129654,57.68786933,11.98129650,16:16:32.691840,0.00561,1.91105,1.91105,-0.03356,0.02023,-0.01164,-0.02262,-0.01041,0.11633,-0.03294,0.90201,3.06596,1.91094,1.94918,1.95518,-1.15677,4.12355,2.99377,-1.15903,4.09568,2.00042,2.00042,A,151611.70
3.08234,57.68786971,11.98129643,57.68786933,11.98129650,16:16:32.702400,0.00579,1.91105,1.91105,-0.03350,0.02023,-0.02645,-0.05042,-0.01545,-0.07875,0.02751,1.00534,3.07699,1.91097,1.95623,1.96224,-1.16298,4.13722,2.99377,-1.15903,4.09568,2.00042,2.00042,A,151611.70
3.09236,57.68786981,11.98129634,57.68786933,11.98129650,16:16:32.712425,0.00541,1.70540,1.70540,-0.03369,0.02023,-0.01881,-0.04599,-0.02003,-0.21679,0.00201,1.07964,3.08676,1.86985,1.96220,1.96820,-1.16829,4.14849,2.99377,-1.15903,4.09568,2.00042,2.00042,A,151611.70
3.11916,57.68786991,11.98129626,57.68787050,11.98129583,16:16:32.739475,0.02108,1.70540,1.70540,-0.03457,0.02034,-0.01683,-0.00659,-0.01484,-0.13139,-0.05026,1.11423,3.09715,1.83696,1.96727,1.97331,-1.17354,4.15947,3.11386,-1.19865,4.22541,1.86724,1.86724,A,151611.80
3.13617,57.68787039,11.98129587,57.68787050,11.98129583,16:16:32.756237,0.00763,1.70540,1.70540,-0.03448,0.02201,-0.01087,0.02533,0.01326,0.03782,0.03117,0.99180,3.13030,1.81065,1.95220,1.95873,-1.19622,4.21309,3.11386,-1.19865,4.22541,1.86724,1.86724,A,151611.80
3.14435,57.68787048,11.98129581,57.68787050,11.98129583,16:16:32.764418,0.00541,1.70540,1.70540,-0.03500,0.02252,-0.01103,0.01006,0.01968,-0.12560,-0.02568,0.98619,3.13874,1.78960,1.93864,1.94532,-1.20031,4.22341,3.11386,-1.19865,4.22541,1.86724,1.86724,A,151611.80
3.15444,57.68787060,11.98129572,57.68787050,11.98129583,16:16:32.774504,0.00509,1.70540,1.70540,-0.03436,0.02278,-0.01576,0.00380,0.01861,-0.02227,0.04795,0.84339,3.14913,1.77276,1.92717,1.93394,-1.20538,4.23662,3.11386,-1.19865,4.22541,1.86724,1.86724,A,151611.80
3.16496,57.68787072,11.98129564,57.68787050,11.98129583,16:16:32.785021,0.00521,1.70540,1.70540,-0.03368,0.02283,-0.01652,-0.01147,0.01494,0.00939,0.04874,0.81093,3.15936,1.75929,1.91743,1.92421,-1.21009,4.24934,3.11386,-1.19865,4.22541,1.86724,1.86724,A,151611.80
3.17527,57.68787082,11.98129557,57.68787050,11.98129583,16:16:32.795580,0.00513,1.70540,1.70540,-0.03399,0.02283,-0.01713,-0.01437,0.00319,-0.03941,-0.00342,0.82899,3.16996,1.74851,1.90915,1.91593,-1.21445,4.26151,3.11386,-1.19865,4.22541,1.86724,1.86724,A,151611.80
3.18568,57.68787093,11.98129550,57.68787050,11.98129583,16:16:32.805747,0.00515,1.70540,1.70540,-0.03421,0.02283,-0.02019,-0.00613,-0.00445,-0.16928,0.00165,0.98509,3.18015,1.73989,1.90211,1.90889,-1.21837,4.27281,3.11386,-1.19865,4.22541,1.86724,1.86724,A,151611.80
3.19635,57.68787103,11.98129544,57.68787050,11.98129583,16:16:32.816412,0.00542,1.70540,1.70540,-0.03452,0.02286,-0.01652,0.02335,-0.00766,-0.12633,-0.00708,1.07061,3.19074,1.73299,1.89613,1.90291,-1.22209,4.28382,3.11386,-1.19865,4.22541,1.86724,1.86724,A,151611.80
3.20643,57.68787111,11.98129538,57.68787050,11.98129583,16:16:32.826493,0.00510,1.70540,1.70540,-0.03486,0.02295,-0.01942,0.04809,-0.01178,-0.04874,-0.00811,1.09922,3.20111,1.72747,1.89103,1.89784,-1.22536,4.29379,3.11386,-1.19865,4.22541,1.86724,1.86724,A,151611.80
3.23485,57.68787120,11.98129533,57.68787200,11.98129500,16:16:32.854945,0.02305,1.70540,1.70540,-0.03526,0.02300,-0.02553,0.05374,-0.01209,-0.01586,-0.00921,1.11978,3.21143,1.72306,1.88670,1.89353,-1.22851,4.30358,3.22846,-1.24818,4.39220,1.85946,1.85946,A,151611.90
3.24656,57.68787163,11.98129507,57.68787200,11.98129500,16:16:32.866628,0.00596,1.70540,1.70540,-0.03547,0.02300,-0.01301,-0.02491,-0.00124,0.03928,0.01305,0.94398,3.24120,1.71952,1.88244,1.88926,-1.24380,4.35081,3.22846,-1.24818,4.39220,1.85946,1.85946,A,151611.90
3.25717,57.68787175,11.98129500,57.68787200,11.98129500,16:16:32.877257,0.00633,1.70540,1.70540,-0.03548,0.02300,-0.00660,-0.04690,0.00181,-0.01342,0.00525,0.89304,3.25074,1.71670,1.87820,1.88503,-1.24796,4.36483,3.22846,-1.24818,4.39220,1.85946,1.85946,A,151611.90
3.26631,57.68787188,11.98129494,57.68787200,11.98129500,16:16:32.886378,0.00508,1.70540,1.70540,-0.03604,0.02300,0.00608,-0.04950,0.00425,-0.00921,-0.03666,0.91933,3.26100,1.71444,1.87461,1.88144,-1.25203,4.37867,3.22846,-1.24818,4.39220,1.85946,1.85946,A,151611.90
3.27699,57.68787200,11.98129487,57.68787200,11.98129500,16:16:32.897059,0.00525,1.70540,1.70540,-0.03683,0.02300,0.00608,-0.04034,-0.00063,-0.07466,-0.05289,0.95715,3.27137,1.71263,1.87158,1.87841,-1.25610,4.39262,3.22846,-1.24818,4.39220,1.85946,1.85946,A,151611.90
3.28727,57.68787212,11.98129480,57.68787200,11.98129500,16:16:32.907576,0.00512,1.70540,1.70540,-0.03669,0.02300,0.00348,-0.01575,0.00685,-0.13493,0.00732,1.05329,3.28196,1.71118,1.86900,1.87583,-1.25988,4.40576,3.22846,-1.24818,4.39220,1.85946,1.85946,A,151611.90
3.29790,57.68787223,11.98129474,57.68787200,11.98129500,16:16:32.917967,0.00536,1.70540,1.70540,-0.03641,0.02300,-0.00247,0.00029,0.00288,-0.00628,0.02129,1.05573,3.29214,1.71003,1.86680,1.87363,-1.26339,4.41807,3.22846,-1.24818,4.39220,1.85946,1.85946,A,151611.90
3.30834,57.68787234,11.98129469,57.68787200,11.98129500,16:16:32.928408,0.00540,1.70540,1.70540,-0.03708,0.02300,0.00333,-0.01285,0.00319,-0.03050,-0.04764,1.02102,3.30274,1.70910,1.86493,1.87176,-1.26667,4.42974,3.22846,-1.24818,4.39220,1.85946,1.85946,A,151611.90
3.31859,57.68787244,11.98129464,57.68787200,11.98129500,16:16:32.938648,0.00525,1.70540,1.70540,-0.03689,0.02300,-0.01484,-0.03163,-0.00079,-0.00134,0.02227,0.97411,3.31325,1.70836,1.86334,1.87017,-1.26981,4.44092,3.22846,-1.24818,4.39220,1.85946,1.85946,A,151611.90
3.35760,57.68787253,11.98129459,57.68787517,11.98129300,16:16:32.977690,0.03385,1.70540,1.70540,-0.03675,0.02300,-0.01851,-0.04217,-0.01056,-0.03697,0.02196,1.00058,3.32353,1.70777,1.86199,1.86882,-1.27277,4.45161,3.35142,-1.36706,4.74432,1.89638,1.89638,A,151612.10
3.37427,57.68787327,11.98129416,57.68787517,11.98129300,16:16:32.994336,0.00771,1.70540,1.70540,-0.03873,0.02300,-0.01729,0.00731,-0.02308,-0.13237,-0.08369,1.04060,3.36889,1.70729,1.86745,1.87428,-1.29811,4.53338,3.35142,-1.36706,4.74432,1.89638,1.89638,A,151612.10
3.38208,57.68787345,11.98129405,57.68787517,11.98129300,16:16:33.002137,0.00511,1.70540,1.70540,-0.03900,0.02300,-0.01942,0.02258,-0.02812,-0.00939,-0.00952,0.97594,3.37676,1.70691,1.87095,1.87778,-1.30448,4.55326,3.35142,-1.36706,4.74432,1.89638,1.89638,A,151612.10
3.39282,57.68787365,11.98129393,57.68787517,11.98129300,16:16:33.012887,0.00522,1.70540,1.70540,-0.03908,0.02300,-0.01652,0.00975,-0.01682,0.01171,0.00421,0.93098,3.38724,1.70661,1.87400,1.88083,-1.31186,4.57621,3.35142,-1.36706,4.74432,1.89638,1.89638,A,151612.10
3.40312,57.68787385,11.98129381,57.68787517,11.98129300,16:16:33.023547,0.00512,1.70540,1.70540,-0.03887,0.02300,-0.00996,-0.00827,-0.01865,0.05234,0.01726,0.86803,3.39781,1.70637,1.87659,1.88342,-1.31882,4.59775,3.35142,-1.36706,4.74432,1.89638,1.89638,A,151612.10
3.41355,57.68787403,11.98129370,57.68787517,11.98129300,16:16:33.033615,0.00514,1.70540,1.70540,-0.03895,0.02300,-0.00018,-0.02552,-0.01392,-0.06747,-0.00628,0.93190,3.40800,1.70617,1.87879,1.88562,-1.32542,4.61801,3.35142,-1.36706,4.74432,1.89638,1.89638,A,151612.10
3.42436,57.68787421,11.98129359,57.68787517,11.98129300,16:16:33.044426,0.00555,1.70540,1.70540,-0.03921,0.02300,0.01066,-0.02568,-0.01606,0.09083,-0.02641,0.97990,3.41861,1.70602,1.88067,1.88750,-1.33180,4.63754,3.35142,-1.36706,4.74432,1.89638,1.89638,A,151612.10
3.43459,57.68787437,11.98129349,57.68787517,11.98129300,16:16:33.054654,0.00538,1.70540,1.70540,-0.03971,0.02300,0.00470,-0.04415,-0.01453,-0.04368,-0.04148,1.07110,3.42925,1.70590,1.88226,1.88909,-1.33782,4.65585,3.35142,-1.36706,4.74432,1.89638,1.89638,A,151612.10
3.44503,57.68787453,11.98129340,57.68787517,11.98129300,16:16:33.065099,0.00528,1.70540,1.70540,-0.03970,0.02300,0.01326,-0.02629,-0.01636,-0.11553,-0.01336,1.14698,3.43936,1.70580,1.88360,1.89043,-1.34348,4.67303,3.35142,-1.36706,4.74432,1.89638,1.89638,A,151612.10
3.47286,57.68787467,11.98129330,57.68787683,11.98129200,16:16:33.092953,0.02272,1.70540,1.70540,-0.03960,0.02300,0.02593,0.01357,-0.01682,-0.06143,-0.01720,1.14204,3.44995,1.70572,1.88475,1.89158,-1.34896,4.68959,3.46663,-1.42649,4.92964,1.88115,1.88115,A,151612.20
3.49124,57.68787525,11.98129295,57.68787683,11.98129200,16:16:33.111566,0.00777,1.83636,1.83636,-0.03824,0.02300,0.02135,0.02212,-0.00720,0.09626,0.03636,0.89200,3.48523,1.73185,1.88421,1.89104,-1.36997,4.75315,3.46663,-1.42649,4.92964,1.88115,1.88115,A,151612.20
3.49901,57.68787541,11.98129285,57.68787683,11.98129200,16:16:33.119069,0.00513,1.83636,1.83636,-0.03729,0.02300,0.02715,-0.00857,-0.00689,0.06832,0.04050,0.83106,3.49370,1.75275,1.88291,1.88974,-1.37590,4.77134,3.46663,-1.42649,4.92964,1.88115,1.88115,A,151612.20
3.51112,57.68787563,11.98129272,57.68787683,11.98129200,16:16:33.131419,0.00702,1.83636,1.83636,-0.03655,0.02300,0.02776,-0.03133,-0.01636,0.04002,0.02556,0.86998,3.50574,1.76947,1.88195,1.88877,-1.38378,4.79546,3.46663,-1.42649,4.92964,1.88115,1.88115,A,151612.20
3.52197,57.68787582,11.98129260,57.68787683,11.98129200,16:16:33.142032,0.00747,1.83636,1.83636,-0.03714,0.02300,0.01952,-0.04736,-0.01652,0.04630,-0.04734,0.93062,3.51638,1.78285,1.88109,1.88791,-1.39064,4.81653,3.46663,-1.42649,4.92964,1.88115,1.88115,A,151612.20
3.53001,57.68787596,11.98129252,57.68787683,11.98129200,16:16:33.150081,0.00512,1.83636,1.83636,-0.03829,0.02300,0.01494,-0.03743,-0.02094,0.10571,-0.07588,0.90298,3.52468,1.79355,1.88027,1.88710,-1.39574,4.83224,3.46663,-1.42649,4.92964,1.88115,1.88115,A,151612.20
3.54077,57.68787613,11.98129241,57.68787683,11.98129200,16:16:33.160840,0.00524,1.83636,1.83636,-0.03915,0.02300,0.01051,-0.03927,-0.02308,-0.04679,-0.07186,1.10264,3.53516,1.80211,1.87966,1.88648,-1.40186,4.85114,3.46663,-1.42649,4.92964,1.88115,1.88115,A,151612.20
3.55328,57.68787631,11.98129230,57.68787683,11.98129200,16:16:33.173347,0.00736,1.83636,1.83636,-0.03882,0.02300,0.00134,-0.02506,-0.02155,-0.09772,0.02105,1.13698,3.54724,1.80896,1.87919,1.88602,-1.40860,4.87191,3.46663,-1.42649,4.92964,1.88115,1.88115,A,151612.20
3.56134,57.68787643,11.98129223,57.68787683,11.98129200,16:16:33.181402,0.00519,1.83636,1.83636,-0.03860,0.02300,0.00501,-0.00338,-0.02568,0.01391,0.01189,1.13594,3.55579,1.81444,1.87865,1.88548,-1.41271,4.88466,3.46663,-1.42649,4.92964,1.88115,1.88115,A,151612.20
3.59025,57.68787658,11.98129214,57.68787867,11.98129117,16:16:33.210323,0.02370,1.83636,1.83636,-0.03848,0.02300,0.00547,0.00380,-0.02308,-0.03032,0.00250,1.15022,3.56637,1.81883,1.87828,1.88511,-1.41796,4.90093,3.58538,-1.47602,5.13350,1.80915,1.80915,A,151612.30
3.60682,57.68787717,11.98129180,57.68787867,11.98129117,16:16:33.227756,0.00660,1.83636,1.83636,-0.03838,0.02300,0.00119,-0.02125,-0.01682,0.03428,0.00390,0.90725,3.59998,1.82233,1.86797,1.87480,-1.43862,4.96718,3.58538,-1.47602,5.13350,1.80915,1.80915,A,151612.30
3.61689,57.68787736,11.98129170,57.68787867,11.98129117,16:16:33.236957,0.00581,1.83636,1.83636,-0.03851,0.02300,0.00501,-0.03377,-0.01331,0.04514,-0.01043,0.88816,3.61102,1.82514,1.85837,1.86520,-1.44450,4.98828,3.58538,-1.47602,5.13350,1.80915,1.80915,A,151612.30
3.62665,57.68787755,11.98129160,57.68787867,11.98129117,16:16:33.246715,0.00517,1.83636,1.83636,-0.03904,0.02300,0.00837,-0.03575,-0.00842,-0.11364,-0.03611,0.88804,3.62134,1.82738,1.85022,1.85705,-1.45010,5.00879,3.58538,-1.47602,5.13350,1.80915,1.80915,A,151612.30
3.63731,57.68787773,11.98129151,57.68787867,11.98129117,16:16:33.257372,0.00554,1.83636,1.83636,-0.03883,0.02300,0.01142,-0.00063,-0.01163,-0.10626,0.00537,0.89164,3.63171,1.82918,1.84332,1.85015,-1.45560,5.02931,3.58538,-1.47602,5.13350,1.80915,1.80915,A,151612.30
3.64778,57.68787790,11.98129143,57.68787867,11.98129117,16:16:33.267859,0.00562,1.83636,1.83636,-0.03997,0.02300,0.00516,0.01479,-0.00995,0.00110,-0.07741,0.96179,3.64223,1.83061,1.83744,1.84427,-1.46067,5.04863,3.58538,-1.47602,5.13350,1.80915,1.80915,A,151612.30
3.65771,57.68787806,11.98129135,57.68787867,11.98129117,16:16:33.277769,0.00515,1.83636,1.83636,-0.03994,0.02300,0.00089,0.02946,-0.00521,0.01854,-0.00024,0.94452,3.65216,1.83176,1.83244,1.83927,-1.46526,5.06651,3.58538,-1.47602,5.13350,1.80915,1.80915,A,151612.30
3.66837,57.68787822,11.98129127,57.68787867,11.98129117,16:16:33.288439,0.00542,1.83636,1.83636,-0.03896,0.02300,-0.00201,0.00823,-0.00598,0.00360,0.06673,1.03828,3.66278,1.83268,1.82820,1.83503,-1.46976,5.08426,3.58538,-1.47602,5.13350,1.80915,1.80915,A,151612.30
3.67849,57.68787837,11.98129120,57.68787867,11.98129117,16:16:33.298556,0.00514,1.83636,1.83636,-0.03865,0.02300,0.00196,0.01861,-0.00644,-0.21173,0.02050,1.17828,3.67317,1.83342,1.82459,1.83142,-1.47386,5.10071,3.58538,-1.47602,5.13350,1.80915,1.80915,A,151612.30
3.70582,57.68787851,11.98129114,57.68788000,11.98129033,16:16:33.325889,0.02208,1.83636,1.83636,-0.03856,0.02300,0.00638,0.03373,-0.01041,0.00110,0.00030,1.15504,3.68338,1.83401,1.82153,1.82836,-1.47774,5.11651,3.70026,-1.52556,5.28176,1.89322,1.89322,A,151612.40
3.72000,57.68787903,11.98129088,57.68788000,11.98129033,16:16:33.340072,0.00719,1.83636,1.83636,-0.03822,0.02300,0.00593,-0.04354,-0.00888,-0.03349,0.00933,0.89029,3.71437,1.83448,1.83220,1.83903,-1.49296,5.17348,3.70026,-1.52556,5.28176,1.89322,1.89322,A,151612.40
3.72875,57.68787918,11.98129080,57.68788000,11.98129033,16:16:33.348822,0.00528,1.83636,1.83636,-0.03839,0.02306,0.01402,-0.04232,0.00151,-0.11212,-0.01653,0.89023,3.72312,1.83485,1.84055,1.84739,-1.49768,5.19012,3.70026,-1.52556,5.28176,1.89322,1.89322,A,151612.40
3.73904,57.68787935,11.98129071,57.68788000,11.98129033,16:16:33.359108,0.00516,1.83636,1.83636,-0.03907,0.02343,0.01387,-0.01086,0.01815,-0.26163,-0.05734,1.03517,3.73373,1.83516,1.84769,1.85464,-1.50312,5.20897,3.70026,-1.52556,5.28176,1.89322,1.89322,A,151612.40
3.74950,57.68787950,11.98129062,57.68788000,11.98129033,16:16:33.369567,0.00539,1.83636,1.83636,-0.03883,0.02439,0.00837,0.02640,0.03480,-0.12786,0.00994,1.00406,3.74376,1.83540,1.85370,1.86094,-1.50826,5.22638,3.70026,-1.52556,5.28176,1.89322,1.89322,A,151612.40
3.75988,57.68787965,11.98129054,57.68788000,11.98129033,16:16:33.379957,0.00538,1.83636,1.83636,-0.03923,0.02597,0.00837,0.03572,0.03831,0.19752,-0.03026,0.93147,3.75435,1.83559,1.85877,1.86648,-1.51330,5.24314,3.70026,-1.52556,5.28176,1.89322,1.89322,A,151612.40
3.77058,57.68787981,11.98129045,57.68788000,11.98129033,16:16:33.390640,0.00517,1.83636,1.83636,-0.03939,0.02793,-0.00675,0.01159,0.04198,-0.03263,-0.00506,0.96532,3.76524,1.83574,1.86303,1.87132,-1.51855,5.26028,3.70026,-1.52556,5.28176,1.89322,1.89322,A,151612.40
3.78101,57.68787994,11.98129037,57.68788000,11.98129033,16:16:33.401074,0.00525,1.83636,1.83636,-0.03823,0.02971,-0.01851,-0.00307,0.04228,-0.08747,0.08833,0.97313,3.77539,1.83587,1.86657,1.87539,-1.52321,5.27525,3.70026,-1.52556,5.28176,1.89322,1.89322,A,151612.40
3.79153,57.68788007,11.98129030,57.68788000,11.98129033,16:16:33.411608,0.00538,1.83636,1.83636,-0.03670,0.03132,-0.02508,-0.00094,0.02472,-0.13139,0.12712,1.04792,3.78599,1.83597,1.86953,1.87883,-1.52778,5.28974,3.70026,-1.52556,5.28176,1.89322,1.89322,A,151612.40
3.81958,57.68788019,11.98129022,57.68788200,11.98128950,16:16:33.439672,0.02303,1.83636,1.83636,-0.03615,0.03257,-0.01668,0.00594,0.01021,-0.05899,0.05148,0.99375,3.79617,1.83604,1.87201,1.88168,-1.53210,5.30327,3.81316,-1.57509,5.50415,1.78994,1.78994,A,151612.50
3.83806,57.68788080,11.98128988,57.68788200,11.98128950,16:16:33.458130,0.00590,2.09922,2.09922,-0.03790,0.03582,-0.03760,-0.01819,0.00899,-0.15994,-0.01915,1.05933,3.83267,1.88868,1.85970,1.87033,-1.55258,5.37039,3.81316,-1.57509,5.50415,1.78994,1.78994,A,151612.50
3.84800,57.68788098,11.98128979,57.68788200,11.98128950,16:16:33.468076,0.00544,2.09922,2.09922,-0.03833,0.03679,-0.05226,-0.00032,0.02441,-0.16488,0.01189,1.01644,3.84242,1.93079,1.84801,1.85893,-1.55789,5.39060,3.81316,-1.57509,5.50415,1.78994,1.78994,A,151612.50
3.85812,57.68788116,11.98128970,57.68788200,11.98128950,16:16:33.478193,0.00516,2.09922,2.09922,-0.03794,0.03766,-0.04554,0.02701,0.02884,-0.10748,0.06515,1.01742,3.85279,1.96448,1.83808,1.84927,-1.56310,5.41096,3.81316,-1.57509,5.50415,1.78994,1.78994,A,151612.50
3.86896,57.68788134,11.98128962,57.68788200,11.98128950,16:16:33.489025,0.00542,2.09922,2.09922,-0.03871,0.03831,-0.02889,0.04259,0.03480,0.04660,-0.02263,0.98472,3.86318,1.99143,1.82965,1.84102,-1.56810,5.43100,3.81316,-1.57509,5.50415,1.78994,1.78994,A,151612.50
3.87909,57.68788151,11.98128954,57.68788200,11.98128950,16:16:33.499151,0.00515,2.09922,2.09922,-0.03954,0.03865,-0.02263,0.03404,0.04060,0.13036,-0.03178,0.98039,3.87376,2.01298,1.82246,1.83394,-1.57266,5.44987,3.81316,-1.57509,5.50415,1.78994,1.78994,A,151612.50
3.89044,57.68788168,11.98128947,57.68788200,11.98128950,16:16:33.510516,0.00610,2.09922,2.09922,-0.04104,0.03871,-0.03088,0.01479,0.04030,0.15036,-0.06484,0.90768,3.88393,2.03023,1.81637,1.82786,-1.57694,5.46803,3.81316,-1.57509,5.50415,1.78994,1.78994,A,151612.50
3.90029,57.68788182,11.98128941,57.68788200,11.98128950,16:16:33.520355,0.00555,2.09922,2.09922,-0.04211,0.03871,-0.05012,0.00029,0.03388,-0.16086,-0.03178,1.01785,3.89457,2.04403,1.81115,1.82264,-1.58062,5.48417,3.81316,-1.57509,5.50415,1.78994,1.78994,A,151612.50
3.91028,57.68788197,11.98128934,57.68788200,11.98128950,16:16:33.530352,0.00515,2.09922,2.09922,-0.04292,0.03871,-0.05180,0.02151,0.01494,-0.06869,-0.01635,1.04603,3.90496,2.05507,1.80675,1.81824,-1.58431,5.50060,3.81316,-1.57509,5.50415,1.78994,1.78994,A,151612.50
3.94995,57.68788212,11.98128928,57.68788550,11.98128817,16:16:33.570022,0.03426,2.09922,2.09922,-0.04337,0.03871,-0.05348,0.01968,0.00639,0.06643,0.00994,1.10081,3.91551,2.06390,1.80304,1.81454,-1.58803,5.51734,3.94383,-1.65434,5.89333,1.77168,1.77168,A,151612.70
3.96480,57.68788299,11.98128890,57.68788550,11.98128817,16:16:33.584874,0.00710,2.09922,2.09922,-0.04645,0.03871,-0.04814,0.00487,0.01036,-0.23595,-0.06045,0.94129,3.95914,2.07096,1.79917,1.81067,-1.61086,5.61460,3.94383,-1.65434,5.89333,1.77168,1.77168,A,151612.70
3.97318,57.68788323,11.98128881,57.68788550,11.98128817,16:16:33.593247,0.00524,2.09922,2.09922,-0.04690,0.03871,-0.04493,0.03129,0.01571,-0.18147,-0.00500,0.97325,3.96759,2.07662,1.79372,1.80521,-1.61599,5.64062,3.94383,-1.65434,5.89333,1.77168,1.77168,A,151612.70
3.98374,57.68788349,11.98128871,57.68788550,11.98128817,16:16:33.603823,0.00541,2.09922,2.09922,-0.04717,0.03871,-0.04401,0.03984,0.01724,-0.07003,0.01226,0.92446,3.97817,2.08114,1.78922,1.80071,-1.62181,5.66960,3.94383,-1.65434,5.89333,1.77168,1.77168,A,151612.70
3.99387,57.68788374,11.98128862,57.68788550,11.98128817,16:16:33.613939,0.00514,2.09922,2.09922,-0.04665,0.03871,-0.03714,0.03266,0.01403,0.07229,0.05783,0.99509,3.98833,2.08475,1.78540,1.79690,-1.62730,5.69728,3.94383,-1.65434,5.89333,1.77168,1.77168,A,151612.70
4.00458,57.68788397,11.98128853,57.68788550,11.98128817,16:16:33.624640,0.00544,2.09922,2.09922,-0.04734,0.03871,-0.03241,0.00823,0.01785,0.07283,-0.02379,0.99924,3.99897,2.08765,1.78216,1.79365,-1.63247,5.72371,3.94383,-1.65434,5.89333,1.77168,1.77168,A,151612.70
4.01468,57.68788420,11.98128845,57.68788550,11.98128817,16:16:33.634747,0.00515,2.09922,2.09922,-0.04815,0.03871,-0.03195,-0.02186,0.01800,-0.08662,-0.03593,1.04749,4.00935,2.08996,1.77938,1.79088,-1.63721,5.74826,3.94383,-1.65434,5.89333,1.77168,1.77168,A,151612.70
4.02519,57.68788440,11.98128838,57.68788550,11.98128817,16:16:33.645257,0.00540,2.09922,2.09922,-0.04863,0.03871,-0.03561,-0.01392,0.01143,-0.25095,-0.01226,1.08232,4.01943,2.09182,1.77702,1.78852,-1.64165,5.77154,3.94383,-1.65434,5.89333,1.77168,1.77168,A,151612.70
4.03638,57.68788461,11.98128831,57.68788550,11.98128817,16:16:33.656445,0.00619,2.09922,2.09922,-0.04821,0.03871,-0.03699,-0.00628,0.01036,-0.14390,0.05161,1.01547,4.03018,2.09330,1.77503,1.78653,-1.64594,5.79417,3.94383,-1.65434,5.89333,1.77168,1.77168,A,151612.70
4.06274,57.68788478,11.98128825,57.68788717,11.98128750,16:16:33.682827,0.02216,2.09922,2.09922,-0.04776,0.03871,-0.02523,0.00441,0.01067,0.02788,0.04294,0.93135,4.04019,2.09448,1.77327,1.78476,-1.64949,5.81341,4.05704,-1.69396,6.07866,1.78144,1.78144,A,151612.80
4.07894,57.68788545,11.98128799,57.68788717,11.98128750,16:16:33.698999,0.00708,2.09922,2.09922,-0.04898,0.03871,-0.01683,0.00441,0.02273,-0.26431,-0.04990,1.05109,4.07352,2.09543,1.77474,1.78624,-1.66495,5.88757,4.05704,-1.69396,6.07866,1.78144,1.78144,A,151612.80
4.08769,57.68788565,11.98128792,57.68788717,11.98128750,16:16:33.707763,0.00543,2.09922,2.09922,-0.04910,0.03871,-0.02110,0.03312,0.02197,-0.21923,-0.00006,1.09794,4.08211,2.09619,1.77445,1.78594,-1.66926,5.91019,4.05704,-1.69396,6.07866,1.78144,1.78144,A,151612.80
4.09781,57.68788588,11.98128783,57.68788717,11.98128750,16:16:33.717878,0.00516,2.09922,2.09922,-0.04971,0.03871,-0.01790,0.04259,0.01983,0.07521,-0.03617,1.09824,4.09227,2.09680,1.77431,1.78580,-1.67413,5.93526,4.05704,-1.69396,6.07866,1.78144,1.78144,A,151612.80
4.10850,57.68788609,11.98128776,57.68788717,11.98128750,16:16:33.728571,0.00545,2.09922,2.09922,-0.04951,0.03871,-0.02126,0.01189,0.02121,0.13084,0.02440,1.00998,4.10288,2.09728,1.77420,1.78569,-1.67878,5.95917,4.05704,-1.69396,6.07866,1.78144,1.78144,A,151612.80
4.11879,57.68788629,11.98128768,57.68788717,11.98128750,16:16:33.738865,0.00534,2.09922,2.09922,-0.04974,0.03871,-0.01377,-0.03026,0.02334,0.00878,-0.00830,0.94873,4.11319,2.09767,1.77408,1.78557,-1.68303,5.98114,4.05704,-1.69396,6.07866,1.78144,1.78144,A,151612.80
4.12906,57.68788648,11.98128762,57.68788717,11.98128750,16:16:33.749128,0.00526,2.09922,2.09922,-0.04947,0.03871,-0.02355,-0.04217,0.01998,-0.21173,0.02983,0.95398,4.12346,2.09798,1.77397,1.78547,-1.68706,6.00199,4.05704,-1.69396,6.07866,1.78144,1.78144,A,151612.80
4.13919,57.68788666,11.98128755,57.68788717,11.98128750,16:16:33.759507,0.00513,2.09922,2.09922,-0.04974,0.03871,-0.02019,-0.01667,0.01326,-0.21228,-0.00653,0.93220,4.13390,2.09823,1.77390,1.78539,-1.69096,6.02211,4.05704,-1.69396,6.07866,1.78144,1.78144,A,151612.80
4.14964,57.68788683,11.98128749,57.68788717,11.98128750,16:16:33.769711,0.00518,2.09922,2.09922,-0.04913,0.03871,-0.02416,0.00426,0.00822,-0.11560,0.05222,0.96844,4.14407,2.09843,1.77383,1.78533,-1.69467,6.04127,4.05704,-1.69396,6.07866,1.78144,1.78144,A,151612.80
4.17751,57.68788700,11.98128743,57.68788900,11.98128617,16:16:33.797587,0.02265,2.09922,2.09922,-0.04945,0.03871,-0.01866,0.00456,0.00410,-0.06045,-0.01189,1.01510,4.15493,2.09859,1.77381,1.78530,-1.69837,6.06031,4.17192,-1.77321,6.28251,1.94157,1.94157,A,151612.90
4.18993,57.68788758,11.98128717,57.68788900,11.98128617,16:16:33.809997,0.00533,2.09922,2.09922,-0.05081,0.03778,-0.02935,0.05817,-0.01926,-0.12468,-0.04362,1.11667,4.18435,2.09871,1.79902,1.81024,-1.71376,6.12489,4.17192,-1.77321,6.28251,1.94157,1.94157,A,151612.90
4.20049,57.68788780,11.98128705,57.68788900,11.98128617,16:16:33.820555,0.00543,2.09922,2.09922,-0.05139,0.03628,-0.03179,0.05542,-0.03240,0.03800,-0.02129,0.96514,4.19490,2.09882,1.81931,1.83008,-1.72075,6.14921,4.17192,-1.77321,6.28251,1.94157,1.94157,A,151612.90
4.21189,57.68788802,11.98128693,57.68788900,11.98128617,16:16:33.831961,0.00643,2.09922,2.09922,-0.05136,0.03432,-0.02966,0.00197,-0.02186,0.12743,0.01677,0.83887,4.20621,2.09890,1.83667,1.84686,-1.72811,6.17373,4.17192,-1.77321,6.28251,1.94157,1.94157,A,151612.90
4.22127,57.68788820,11.98128682,57.68788900,11.98128617,16:16:33.841335,0.00551,2.09922,2.09922,-0.05046,0.03203,-0.01744,-0.05042,-0.02049,0.11797,0.05264,0.80026,4.21567,2.09896,1.85140,1.86091,-1.73449,6.19373,4.17192,-1.77321,6.28251,1.94157,1.94157,A,151612.90
4.23166,57.68788839,11.98128671,57.68788900,11.98128617,16:16:33.851730,0.00550,2.09922,2.09922,-0.05055,0.02954,0.00333,-0.07149,-0.01529,-0.11663,-0.01293,0.88621,4.22611,2.09901,1.86405,1.87282,-1.74120,6.21415,4.17192,-1.77321,6.28251,1.94157,1.94157,A,151612.90
4.24382,57.68788856,11.98128660,57.68788900,11.98128617,16:16:33.863893,0.00741,2.09922,2.09922,-0.05246,0.02725,0.01036,-0.05118,-0.01224,-0.15433,-0.14140,0.98155,4.23606,2.09906,1.87485,1.88294,-1.74764,6.23311,4.17192,-1.77321,6.28251,1.94157,1.94157,A,151612.90
4.25230,57.68788869,11.98128651,57.68788900,11.98128617,16:16:33.872366,0.00565,1.76845,1.76845,-0.05448,0.02495,-0.00858,-0.00384,-0.01652,-0.24516,-0.15976,1.10495,4.24663,2.03294,1.88404,1.89145,-1.75296,6.24810,4.17192,-1.77321,6.28251,1.94157,1.94157,A,151612.90
4.26220,57.68788884,11.98128641,57.68788900,11.98128617,16:16:33.883503,0.00515,1.76845,1.76845,-0.05587,0.02278,-0.02828,0.03572,-0.02033,-0.10358,-0.09864,1.07634,4.25687,1.98004,1.89198,1.89874,-1.75891,6.26469,4.17192,-1.77321,6.28251,1.94157,1.94157,A,151612.90
4.28859,57.68788898,11.98128631,57.68789050,11.98128517,16:16:33.908655,0.02100,1.76845,1.76845,-0.05528,0.02054,-0.03683,0.05145,-0.02385,-0.02269,0.05051,1.14015,4.26724,1.93772,1.89880,1.90490,-1.76481,6.28084,4.28431,-1.83265,6.44931,1.91312,1.91312,A,151613.00
4.29857,57.68788943,11.98128601,57.68789050,11.98128517,16:16:33.918636,0.00513,1.76845,1.76845,-0.05456,0.01505,-0.01912,0.01586,-0.05042,0.06063,0.05771,0.94520,4.29324,1.90387,1.90102,1.90548,-1.78264,6.33085,4.28431,-1.83265,6.44931,1.91312,1.91312,A,151613.00
4.30898,57.68788962,11.98128588,57.68789050,11.98128517,16:16:33.929045,0.00522,1.76845,1.76845,-0.05510,0.01307,-0.01790,-0.01208,-0.04935,0.00836,-0.04148,0.94898,4.30339,1.87679,1.90244,1.90632,-1.79010,6.35102,4.28431,-1.83265,6.44931,1.91312,1.91312,A,151613.00
4.32123,57.68788979,11.98128576,57.68789050,11.98128517,16:16:33.941298,0.00724,1.76845,1.76845,-0.05564,0.01134,-0.02233,-0.02705,-0.05805,-0.05069,-0.03837,0.93373,4.31398,1.85512,1.90370,1.90706,-1.79723,6.37028,4.28431,-1.83265,6.44931,1.91312,1.91312,A,151613.00
4.32958,57.68788992,11.98128567,57.68789050,11.98128517,16:16:33.949649,0.00520,1.76845,1.76845,-0.05648,0.01004,-0.02508,-0.02216,-0.05454,-0.01128,-0.05716,0.93641,4.32400,1.83779,1.90477,1.90775,-1.80268,6.38476,4.28431,-1.83265,6.44931,1.91312,1.91312,A,151613.00
4.34077,57.68789008,11.98128556,57.68789050,11.98128517,16:16:33.960843,0.00560,1.76845,1.76845,-0.05699,0.00902,-0.02645,-0.00094,-0.05118,-0.11212,-0.03770,1.00717,4.33511,1.82392,1.90575,1.90843,-1.80940,6.40290,4.28431,-1.83265,6.44931,1.91312,1.91312,A,151613.00
4.35072,57.68789022,11.98128546,57.68789050,11.98128517,16:16:33.970789,0.00515,1.76845,1.76845,-0.05831,0.00840,-0.00919,0.03816,-0.04706,-0.05630,-0.11053,1.03865,4.34540,1.81283,1.90658,1.90908,-1.81525,6.41859,4.28431,-1.83265,6.44931,1.91312,1.91312,A,151613.00
4.36105,57.68789036,11.98128537,57.68789050,11.98128517,16:16:33.981120,0.00526,1.76845,1.76845,-0.05835,0.00811,-0.01118,0.05603,-0.03835,-0.05527,-0.02001,1.00656,4.35544,1.80395,1.90730,1.90971,-1.82083,6.43349,4.28431,-1.83265,6.44931,1.91312,1.91312,A,151613.00
4.37270,57.68789050,11.98128526,57.68789050,11.98128517,16:16:33.992762,0.00650,1.76845,1.76845,-0.05757,0.00809,-0.00415,0.04748,-0.03163,0.03001,0.03087,1.02809,4.36703,1.79685,1.90792,1.91032,-1.82684,6.44966,4.28431,-1.83265,6.44931,1.91312,1.91312,A,151613.00
4.38175,57.68789061,11.98128519,57.68789050,11.98128517,16:16:34.001813,0.00515,1.76845,1.76845,-0.05649,0.00809,0.00272,0.02716,-0.02079,0.13609,0.04575,0.98875,4.37620,1.79117,1.90842,1.91082,-1.83125,6.46130,4.28431,-1.83265,6.44931,1.91312,1.91312,A,151613.00
4.40840,57.68789073,11.98128511,57.68789183,11.98128367,16:16:34.028476,0.02141,1.76845,1.76845,-0.05544,0.00809,0.01799,0.00410,-0.02262,0.02959,0.03447,0.99936,4.38681,1.78663,1.90886,1.91126,-1.83618,6.47445,4.40379,-1.92180,6.59757,2.11221,2.11221,A,151613.10
4.41859,57.68789113,11.98128480,57.68789183,11.98128367,16:16:34.038654,0.00521,1.76845,1.76845,-0.05612,0.00814,0.01875,0.00578,-0.02507,0.00628,-0.10303,1.02456,4.41323,1.78299,1.93928,1.94169,-1.85428,6.51960,4.40379,-1.92180,6.59757,2.11221,2.11221,A,151613.10
4.42890,57.68789128,11.98128466,57.68789183,11.98128367,16:16:34.048968,0.00530,1.76845,1.76845,-0.05620,0.00837,0.00944,0.01357,-0.02125,0.01464,-0.03465,1.00333,4.42328,1.78009,1.96494,1.96742,-1.86270,6.53647,4.40379,-1.92180,6.59757,2.11221,2.11221,A,151613.10
4.43974,57.68789143,11.98128452,57.68789183,11.98128367,16:16:34.059827,0.00574,1.76845,1.76845,-0.05513,0.00905,-0.00095,0.00242,-0.01468,0.01580,0.04709,0.94318,4.43403,1.77776,1.98672,1.98941,-1.87131,6.55303,4.40379,-1.92180,6.59757,2.11221,2.11221,A,151613.10
4.45087,57.68789157,11.98128438,57.68789183,11.98128367,16:16:34.070943,0.00647,1.76845,1.76845,-0.05360,0.01021,0.01066,-0.01483,-0.00323,0.13597,0.06588,0.88334,4.44402,1.77590,2.00519,2.00822,-1.87944,6.56787,4.40379,-1.92180,6.59757,2.11221,2.11221,A,151613.10
4.46026,57.68789168,11.98128426,57.68789183,11.98128367,16:16:34.080326,0.00546,1.76845,1.76845,-0.05235,0.01177,0.01814,-0.03682,-0.00323,-0.02495,0.04843,0.94038,4.45464,1.77441,2.02082,2.02432,-1.88679,6.58053,4.40379,-1.92180,6.59757,2.11221,2.11221,A,151613.10
4.47033,57.68789180,11.98128412,57.68789183,11.98128367,16:16:34.090398,0.00514,1.76845,1.76845,-0.05191,0.01341,0.01402,-0.03988,-0.00079,0.07143,0.00226,0.91427,4.46500,1.77322,2.03407,2.03805,-1.89464,6.59390,4.40379,-1.92180,6.59757,2.11221,2.11221,A,151613.10
4.48099,57.68789192,11.98128399,57.68789183,11.98128367,16:16:34.101066,0.00526,1.76845,1.76845,-0.05151,0.01502,0.01784,-0.05301,-0.00247,-0.10077,-0.00244,1.02242,4.47538,1.77227,2.04528,2.04974,-1.90251,6.60698,4.40379,-1.92180,6.59757,2.11221,2.11221,A,151613.10
4.49153,57.68789203,11.98128386,57.68789183,11.98128367,16:16:34.111615,0.00540,1.76845,1.76845,-0.05160,0.01652,0.01524,-0.03545,-0.00659,-0.05899,-0.03398,1.04456,4.48597,1.77150,2.05476,2.05966,-1.91007,6.61923,4.40379,-1.92180,6.59757,2.11221,2.11221,A,151613.10
4.50279,57.68789215,11.98128373,57.68789183,11.98128367,16:16:34.122848,0.00626,1.76845,1.76845,-0.05171,0.01802,0.01937,-0.00933,-0.00766,-0.15866,-0.04605,1.21298,4.49744,1.77089,2.06279,2.06814,-1.91829,6.63248,4.40379,-1.92180,6.59757,2.11221,2.11221,A,151613.10
4.54115,57.68789223,11.98128362,57.68789500,11.98128167,16:16:34.161224,0.03423,1.76845,1.76845,-0.05203,0.01938,0.01921,0.02793,-0.01422,-0.04313,-0.05703,1.14936,4.50685,1.77040,2.06953,2.07528,-1.92455,6.64195,4.53658,-2.04068,6.94968,1.89638,1.89638,A,151613.30
4.55247,57.68789286,11.98128301,57.68789500,11.98128167,16:16:34.172546,0.00625,1.76845,1.76845,-0.05013,0.02662,0.03219,-0.02674,0.02014,-0.00140,0.02727,0.86492,4.54615,1.77001,2.04336,2.05127,-1.96064,6.71217,4.53658,-2.04068,6.94968,1.89638,1.89638,A,151613.30
4.56276,57.68789309,11.98128283,57.68789500,11.98128167,16:16:34.182825,0.00613,1.76845,1.76845,-0.04958,0.02892,0.03555,-0.02995,0.01953,-0.03916,-0.00067,0.94574,4.55738,1.76970,2.02035,2.02893,-1.97142,6.73706,4.53658,-2.04068,6.94968,1.89638,1.89638,A,151613.30
4.57243,57.68789329,11.98128268,57.68789500,11.98128167,16:16:34.192494,0.00541,1.76845,1.76845,-0.04910,0.03141,0.03555,-0.01208,0.02747,-0.14908,-0.00043,1.05640,4.56684,1.76945,2.00066,2.00998,-1.98055,6.75918,4.53658,-2.04068,6.94968,1.89638,1.89638,A,151613.30
4.58251,57.68789349,11.98128253,57.68789500,11.98128167,16:16:34.202571,0.00509,1.76845,1.76845,-0.04936,0.03387,0.04212,0.01128,0.03220,0.06539,-0.05398,0.99338,4.57719,1.76925,1.98386,1.99392,-1.98947,6.78130,4.53658,-2.04068,6.94968,1.89638,1.89638,A,151613.30
4.59316,57.68789368,11.98128239,57.68789500,11.98128167,16:16:34.213234,0.00541,1.76845,1.76845,-0.04904,0.03636,0.03479,0.00105,0.03617,-0.04093,-0.01128,1.05737,4.58739,1.76909,1.96951,1.98031,-1.99783,6.80259,4.53658,-2.04068,6.94968,1.89638,1.89638,A,151613.30
4.60354,57.68789386,11.98128226,57.68789500,11.98128167,16:16:34.223618,0.00539,1.76845,1.76845,-0.04908,0.03879,0.03036,-0.00139,0.04427,-0.03483,-0.03062,0.98192,4.59799,1.76897,1.95723,1.96875,-2.00556,6.82283,4.53658,-2.04068,6.94968,1.89638,1.89638,A,151613.30
4.61388,57.68789404,11.98128213,57.68789500,11.98128167,16:16:34.233948,0.00530,1.76845,1.76845,-0.04827,0.04083,0.02517,-0.00414,0.04289,-0.12237,0.03099,1.03700,4.60830,1.76886,1.94675,1.95888,-2.01302,6.84273,4.53658,-2.04068,6.94968,1.89638,1.89638,A,151613.30
4.62470,57.68789421,11.98128202,57.68789500,11.98128167,16:16:34.244768,0.00572,1.76845,1.76845,-0.04690,0.04267,0.03021,0.01663,0.03403,-0.06673,0.06740,1.04103,4.61892,1.76878,1.93778,1.95045,-2.01985,6.86142,4.53658,-2.04068,6.94968,1.89638,1.89638,A,151613.30
4.63472,57.68789436,11.98128191,57.68789500,11.98128167,16:16:34.254785,0.00534,1.90165,1.90165,-0.04564,0.04412,0.03219,0.00609,0.03862,0.06094,0.05929,0.98137,4.62938,1.79535,1.93008,1.94319,-2.02601,6.87865,4.53658,-2.04068,6.94968,1.89638,1.89638,A,151613.30
4.66396,57.68789451,11.98128182,57.68789667,11.98128083,16:16:34.284041,0.02421,1.90165,1.90165,-0.04501,0.04530,0.03189,-0.00796,0.03739,0.12322,0.02001,0.89816,4.63938,1.81661,1.92351,1.93697,-2.03182,6.89519,4.65858,-2.09021,7.13501,1.83196,1.83196,A,151613.40
4.67430,57.68789502,11.98128148,57.68789667,11.98128083,16:16:34.294368,0.00527,1.90165,1.90165,-0.04478,0.04791,0.01769,0.00899,0.04060,-0.16244,-0.01861,1.02651,4.66893,1.83362,1.90940,1.92363,-2.05170,6.95143,4.65858,-2.09021,7.13501,1.83196,1.83196,A,151613.40
4.68482,57.68789522,11.98128136,57.68789667,11.98128083,16:16:34.304893,0.00523,1.90165,1.90165,-0.04497,0.04893,0.01097,0.02793,0.04640,-0.10035,-0.01885,1.03066,4.67922,1.84723,1.89618,1.91071,-2.05872,6.97442,4.65858,-2.09021,7.13501,1.83196,1.83196,A,151613.40
4.69511,57.68789542,11.98128125,57.68789667,11.98128083,16:16:34.315172,0.00511,1.90165,1.90165,-0.04507,0.04995,0.01188,0.02442,0.04808,0.22637,-0.01275,0.99406,4.68980,1.85811,1.88492,1.89975,-2.06526,6.99649,4.65858,-2.09021,7.13501,1.83196,1.83196,A,151613.40
4.70554,57.68789561,11.98128115,57.68789667,11.98128083,16:16:34.325609,0.00515,1.90165,1.90165,-0.04446,0.05088,0.00806,-0.02125,0.05496,0.05679,0.03745,1.00540,4.69997,1.86682,1.87531,1.89042,-2.07128,7.01740,4.65858,-2.09021,7.13501,1.83196,1.83196,A,151613.40
4.72106,57.68789586,11.98128101,57.68789667,11.98128083,16:16:34.341123,0.00952,1.90165,1.90165,-0.04334,0.05207,0.01219,-0.02598,0.05694,-0.11151,0.06771,1.04176,4.71523,1.87379,1.86746,1.88293,-2.07958,7.04551,4.65858,-2.09021,7.13501,1.83196,1.83196,A,151613.40
4.72780,57.68789597,11.98128096,57.68789667,11.98128083,16:16:34.347877,0.00560,1.90165,1.90165,-0.04373,0.05255,0.00791,-0.01361,0.05144,-0.22247,-0.02586,1.00931,4.72224,1.87936,1.86015,1.87576,-2.08270,7.05799,4.65858,-2.09021,7.13501,1.83196,1.83196,A,151613.40
4.73785,57.68789613,11.98128088,57.68789667,11.98128083,16:16:34.357907,0.00525,1.90165,1.90165,-0.04429,0.05309,-0.00079,0.01861,0.04992,-0.04782,-0.03178,0.98271,4.73219,1.88382,1.85418,1.86995,-2.08745,7.07574,4.65858,-2.09021,7.13501,1.83196,1.83196,A,151613.40
4.74843,57.68789629,11.98128080,57.68789667,11.98128083,16:16:34.368499,0.00545,1.90165,1.90165,-0.04466,0.05354,-0.01118,0.01357,0.04976,0.03032,-0.01171,0.94892,4.74281,1.88738,1.84913,1.86503,-2.09207,7.09324,4.65858,-2.09021,7.13501,1.83196,1.83196,A,151613.40
4.77621,57.68789647,11.98128071,57.68789850,11.98127967,16:16:34.396285,0.02277,1.90165,1.90165,-0.04451,0.05377,-0.01958,-0.00521,0.05328,0.07332,0.02879,0.94471,4.75509,1.89024,1.84495,1.86093,-2.09727,7.11281,4.77203,-2.15955,7.33887,1.89868,1.89868,A,151613.50
4.78636,57.68789694,11.98128046,57.68789850,11.98127967,16:16:34.406424,0.00525,1.90165,1.90165,-0.04506,0.05380,-0.02004,0.03602,0.04885,-0.10895,0.00183,0.97069,4.78098,1.89252,1.85249,1.86847,-2.11259,7.16500,4.77203,-2.15955,7.33887,1.89868,1.89868,A,151613.50
4.79700,57.68789714,11.98128034,57.68789850,11.98127967,16:16:34.417067,0.00535,1.90165,1.90165,-0.04463,0.05380,-0.02126,0.04442,0.04763,-0.03056,0.04471,0.95337,4.79127,1.89435,1.85769,1.87367,-2.11939,7.18820,4.77203,-2.15955,7.33887,1.89868,1.89868,A,151613.50
4.80719,57.68789734,11.98128023,57.68789850,11.98127967,16:16:34.427643,0.00515,1.90165,1.90165,-0.04530,0.05380,-0.01576,0.03801,0.04793,0.00592,-0.02916,0.97332,4.80188,1.89581,1.86211,1.87809,-2.12591,7.21016,4.77203,-2.15955,7.33887,1.89868,1.89868,A,151613.50
4.81906,57.68789756,11.98128011,57.68789850,11.98127967,16:16:34.439131,0.00662,1.90165,1.90165,-0.04553,0.05380,-0.01668,0.02457,0.04182,-0.03593,0.00067,1.00839,4.81370,1.89697,1.86599,1.88197,-2.13305,7.23381,4.77203,-2.15955,7.33887,1.89868,1.89868,A,151613.50
4.83045,57.68789775,11.98128000,57.68789850,11.98127967,16:16:34.450526,0.00762,1.90165,1.90165,-0.04529,0.05380,-0.01148,0.03083,0.04304,-0.05264,0.02733,1.04798,4.82478,1.89791,1.86923,1.88521,-2.13951,7.25500,4.77203,-2.15955,7.33887,1.89868,1.89868,A,151613.50
4.83852,57.68789788,11.98127993,57.68789850,11.98127967,16:16:34.458585,0.00528,1.90165,1.90165,-0.04572,0.05380,-0.01255,0.04045,0.04045,-0.10925,-0.01952,1.01040,4.83318,1.89866,1.87175,1.88773,-2.14401,7.26997,4.77203,-2.15955,7.33887,1.89868,1.89868,A,151613.50
4.84897,57.68789804,11.98127984,57.68789850,11.98127967,16:16:34.469042,0.00523,1.90165,1.90165,-0.04614,0.05380,-0.00935,0.03847,0.03877,0.12450,-0.01806,0.96301,4.84336,1.89926,1.87405,1.89004,-2.14949,7.28776,4.77203,-2.15955,7.33887,1.89868,1.89868,A,151613.50
4.86029,57.68789819,11.98127975,57.68789850,11.98127967,16:16:34.480351,0.00614,1.90165,1.90165,-0.04596,0.05380,-0.01103,0.01098,0.04289,0.10419,0.02178,0.94568,4.85397,1.89973,1.87603,1.89201,-2.15482,7.30491,4.77203,-2.15955,7.33887,1.89868,1.89868,A,151613.50
4.86971,57.68789832,11.98127967,57.68789850,11.98127967,16:16:34.489773,0.00516,1.90165,1.90165,-0.04611,0.05380,-0.00339,-0.01850,0.04518,0.00683,-0.00415,0.94501,4.86414,1.90012,1.87761,1.89359,-2.15927,7.31926,4.77203,-2.15955,7.33887,1.89868,1.89868,A,151613.50
4.89628,57.68789846,11.98127959,57.68790050,11.98127883,16:16:34.516348,0.02134,1.90165,1.90165,-0.04647,0.05380,0.01066,-0.01300,0.04320,-0.14317,-0.03032,1.01516,4.87476,1.90042,1.87906,1.89504,-2.16419,7.33492,4.89178,-2.20908,7.56126,1.78994,1.78994,A,151613.60
4.90638,57.68789894,11.98127932,57.68790050,11.98127883,16:16:34.526446,0.00521,1.90165,1.90165,-0.04601,0.05380,0.00913,0.06702,0.04304,0.01128,0.01696,1.04353,4.90103,1.90067,1.86521,1.88119,-2.18035,7.38764,4.89178,-2.20908,7.56126,1.78994,1.78994,A,151613.60
4.91736,57.68789915,11.98127921,57.68790050,11.98127883,16:16:34.537425,0.00564,1.90165,1.90165,-0.04582,0.05380,0.01310,0.05297,0.04503,0.06161,0.00598,0.95367,4.91177,1.90087,1.85223,1.86822,-2.18671,7.41166,4.89178,-2.20908,7.56126,1.78994,1.78994,A,151613.60
4.92777,57.68789935,11.98127912,57.68790050,11.98127883,16:16:34.547846,0.00564,1.90165,1.90165,-0.04540,0.05380,0.01249,0.01067,0.04381,0.11852,0.02111,0.88724,4.92219,1.90102,1.84116,1.85714,-2.19225,7.43357,4.89178,-2.20908,7.56126,1.78994,1.78994,A,151613.60
4.93788,57.68789954,11.98127903,57.68790050,11.98127883,16:16:34.557947,0.00535,1.90165,1.90165,-0.04489,0.05380,0.02578,-0.01315,0.04121,-0.15256,0.01989,0.99174,4.93214,1.90115,1.83172,1.84770,-2.19724,7.45403,4.89178,-2.20908,7.56126,1.78994,1.78994,A,151613.60
4.94854,57.68789972,11.98127895,57.68790050,11.98127883,16:16:34.568610,0.00561,1.90165,1.90165,-0.04420,0.05380,0.03678,-0.00552,0.03724,-0.17330,0.02391,1.02205,4.94275,1.90125,1.82373,1.83971,-2.20198,7.47398,4.89178,-2.20908,7.56126,1.78994,1.78994,A,151613.60
4.95846,57.68789988,11.98127888,57.68790050,11.98127883,16:16:34.578523,0.00514,1.90165,1.90165,-0.04400,0.05380,0.04319,0.01205,0.03816,-0.13768,-0.01324,1.05127,4.95312,1.90133,1.81691,1.83289,-2.20623,7.49249,4.89178,-2.20908,7.56126,1.78994,1.78994,A,151613.60
4.96899,57.68790005,11.98127881,57.68790050,11.98127883,16:16:34.589056,0.00524,1.90165,1.90165,-0.04392,0.05385,0.03891,0.03007,0.04213,0.00683,-0.01751,1.01998,4.96338,1.90139,1.81113,1.82713,-2.21033,7.51067,4.89178,-2.20908,7.56126,1.78994,1.78994,A,151613.60
4.97952,57.68790020,11.98127875,57.68790050,11.98127883,16:16:34.599605,0.00538,2.12996,2.12996,-0.04400,0.05405,0.04243,0.02991,0.05312,-0.09394,-0.02739,1.02376,4.97396,1.94711,1.80622,1.82228,-2.21415,7.52804,4.89178,-2.20908,7.56126,1.78994,1.78994,A,151613.60
4.98970,57.68790035,11.98127869,57.68790050,11.98127883,16:16:34.609768,0.00516,2.12996,2.12996,-0.04425,0.05433,0.03876,0.03495,0.05755,-0.09961,-0.03190,0.96600,4.98416,1.98368,1.80204,1.81818,-2.21776,7.54470,4.89178,-2.20908,7.56126,1.78994,1.78994,A,151613.60
5.01999,57.68790050,11.98127863,57.68790200,11.98127800,16:16:34.640059,0.02505,2.12996,2.12996,-0.04377,0.05462,0.03219,0.03434,0.05832,-0.17806,0.01812,0.99027,4.99477,2.01293,1.79851,1.81474,-2.22129,7.56123,5.01399,-2.25861,7.72805,1.85946,1.85946,A,151613.70
5.02725,57.68790099,11.98127840,57.68790200,11.98127800,16:16:34.647518,0.00547,2.12996,2.12996,0.00000,0.05479,0.05021,0.00426,0.05053,0.04362,0.00372,1.01547,5.02181,2.03634,1.80735,1.82362,-2.23468,7.61588,5.01399,-2.25861,7.72805,1.85946,1.85946,A,151613.70
5.03920,57.68790118,11.98127831,57.68790200,11.98127800,16:16:34.659496,0.00723,2.12996,2.12996,-0.00070,0.05479,0.05144,-0.00368,0.04503,-0.10596,-0.03026,1.04871,5.03194,2.05506,1.81344,1.82972,0.04121,0.00000,5.01399,-2.25861,7.72805,1.85946,1.85946,A,151613.70
5.05093,57.68790137,11.98127823,57.68790200,11.98127800,16:16:34.671008,0.00820,2.12996,2.12996,-0.00145,0.05479,0.03112,0.00258,0.03968,-0.28981,-0.02470,1.09977,5.04288,2.07004,1.81866,1.83494,-2.24516,7.65793,5.01399,-2.25861,7.72805,1.85946,1.85946,A,151613.70
5.06060,57.68790153,11.98127815,57.68790200,11.98127800,16:16:34.680668,0.00767,2.12996,2.12996,-0.00240,0.05479,0.02639,0.04289,0.03358,-0.23400,-0.03074,1.03877,5.05280,2.08203,1.82303,1.83930,-2.24984,7.67626,5.01399,-2.25861,7.72805,1.85946,1.85946,A,151613.70
5.07175,57.68790171,11.98127806,57.68790200,11.98127800,16:16:34.691836,0.00814,2.12996,2.12996,-0.00230,0.05479,0.01555,0.06122,0.03984,-0.12072,0.04593,0.98619,5.06339,2.09161,1.82683,1.84310,-2.25488,7.69556,5.01399,-2.25861,7.72805,1.85946,1.85946,A,151613.70
5.08175,57.68790187,11.98127798,57.68790200,11.98127800,16:16:34.701822,0.00774,2.12996,2.12996,-0.00176,0.05479,0.01875,0.06336,0.04289,0.02556,0.07100,0.94886,5.07384,2.09928,1.83003,1.84630,-2.25953,7.71317,5.01399,-2.25861,7.72805,1.85946,1.85946,A,151613.70
5.09212,57.68790202,11.98127791,57.68790200,11.98127800,16:16:34.712195,0.00788,2.12996,2.12996,-0.00134,0.05479,0.01662,0.03847,0.04732,0.03068,0.06265,0.88041,5.08393,2.10542,1.83274,1.84902,-2.26398,7.72984,5.01399,-2.25861,7.72805,1.85946,1.85946,A,151613.70
5.10244,57.68790216,11.98127784,57.68790200,11.98127800,16:16:34.722516,0.00781,2.12996,2.12996,-0.00051,0.05479,0.01585,0.03007,0.04961,-0.13371,0.09058,0.92866,5.09449,2.11033,1.83507,1.85135,-2.26838,7.74610,5.01399,-2.25861,7.72805,1.85946,1.85946,A,151613.70
5.11562,57.68790230,11.98127777,57.68790200,11.98127800,16:16:34.735713,0.01060,2.12996,2.12996,-0.00093,0.05479,0.01860,0.03511,0.04030,-0.17178,0.01183,1.00229,5.10493,2.11425,1.83705,1.85332,-2.27257,7.76142,5.01399,-2.25861,7.72805,1.85946,1.85946,A,151613.70
5.16213,57.68790261,11.98127760,57.68790533,11.98127617,16:16:34.782208,0.03687,2.12996,2.12996,-0.00179,0.05479,0.00990,0.04534,0.01785,-0.08412,-0.02098,1.06530,5.12524,2.11739,1.83963,1.85591,-2.28223,7.79544,5.15528,-2.36758,8.09870,1.85673,1.85673,A,151613.90
5.17672,57.68790347,11.98127713,57.68790533,11.98127617,16:16:34.796795,0.00791,2.12996,2.12996,-0.00199,0.05479,0.01112,0.03297,0.03083,-0.03587,0.00811,0.87291,5.16877,2.11991,1.84352,1.85979,-2.31010,7.89113,5.15528,-2.36758,8.09870,1.85673,1.85673,A,151613.90
5.18719,57.68790371,11.98127700,57.68790533,11.98127617,16:16:34.807511,0.00799,2.12996,2.12996,-0.00261,0.05479,0.01753,0.02335,0.04014,-0.01074,0.00116,0.84436,5.17914,2.12192,1.84383,1.86010,-2.31788,7.91801,5.15528,-2.36758,8.09870,1.85673,1.85673,A,151613.90
5.19725,57.68790393,11.98127688,57.68790533,11.98127617,16:16:34.817327,0.00765,2.12996,2.12996,-0.00311,0.05476,0.01158,0.00808,0.04732,-0.05862,0.01037,0.88773,5.18943,2.12353,1.84406,1.86032,-2.32504,7.94275,5.15528,-2.36758,8.09870,1.85673,1.85673,A,151613.90
5.20770,57.68790414,11.98127677,57.68790533,11.98127617,16:16:34.827777,0.00783,2.12996,2.12996,-0.00376,0.05450,0.01814,0.00349,0.04579,0.00909,-0.00213,0.88840,5.19952,2.12481,1.84428,1.86047,-2.33194,7.96655,5.15528,-2.36758,8.09870,1.85673,1.85673,A,151613.90
5.21998,57.68790435,11.98127665,57.68790533,11.98127617,16:16:34.840061,0.00972,2.12996,2.12996,-0.00508,0.05388,0.01036,-0.00475,0.03587,-0.08747,-0.04721,1.00900,5.21007,2.12584,1.84451,1.86052,-2.33861,7.98958,5.15528,-2.36758,8.09870,1.85673,1.85673,A,151613.90
5.23115,57.68790458,11.98127653,57.68790533,11.98127617,16:16:34.851461,0.01002,2.12996,2.12996,-0.00486,0.05261,-0.00186,0.00517,0.02014,-0.09040,0.06954,1.14509,5.22234,2.12667,1.84493,1.86056,-2.34610,8.01530,5.15528,-2.36758,8.09870,1.85673,1.85673,A,151613.90
5.24553,57.68790483,11.98127639,57.68790533,11.98127617,16:16:34.865610,0.00924,2.12996,2.12996,-0.00552,0.05057,-0.00232,0.01892,0.00441,-0.03184,0.00256,1.12655,5.23620,2.12732,1.84551,1.86053,-2.35423,8.04313,5.15528,-2.36758,8.09870,1.85673,1.85673,A,151613.90
5.25522,57.68790500,11.98127630,57.68790533,11.98127617,16:16:34.875527,0.00758,2.12996,2.12996,-0.00572,0.04910,-0.00232,0.02701,-0.00415,0.08028,0.03373,1.05762,5.24736,2.12785,1.84567,1.86025,-2.35949,8.06131,5.15528,-2.36758,8.09870,1.85673,1.85673,A,151613.90
5.28123,57.68790516,11.98127621,57.68790667,11.98127550,16:16:34.901309,0.02320,2.12996,2.12996,-0.00672,0.04796,-0.00751,0.01098,-0.00185,-0.07296,-0.01592,0.97789,5.25786,2.12827,1.84587,1.86012,-2.36473,8.07941,5.27541,-2.40721,8.24696,1.83196,1.83196,A,151614.00
5.29447,57.68790570,11.98127592,57.68790667,11.98127550,16:16:34.914544,0.00788,2.12996,2.12996,-0.00728,0.04649,0.00944,0.00533,0.01128,-0.07259,-0.00842,0.87895,5.28647,2.12861,1.84384,1.85765,-2.38232,8.13976,5.27541,-2.40721,8.24696,1.83196,1.83196,A,151614.00
5.30477,57.68790589,11.98127582,57.68790667,11.98127550,16:16:34.924852,0.00778,2.12996,2.12996,-0.00818,0.04644,0.01295,0.01037,0.02182,-0.01647,-0.02470,0.95733,5.29681,2.12888,1.84062,1.85442,-2.38829,8.16113,5.27541,-2.40721,8.24696,1.83196,1.83196,A,151614.00
5.31565,57.68790608,11.98127572,57.68790667,11.98127550,16:16:34.935735,0.00805,2.12996,2.12996,-0.00914,0.04644,0.02395,0.01968,0.02395,-0.00634,-0.04508,1.10544,5.30726,2.12910,1.83792,1.85171,-2.39412,8.18216,5.27541,-2.40721,8.24696,1.83196,1.83196,A,151614.00
5.32906,57.68790626,11.98127563,57.68790667,11.98127550,16:16:34.949141,0.01105,2.12996,2.12996,-0.01005,0.04644,0.03189,0.02411,0.02304,0.05106,-0.05130,1.14107,5.31799,2.12927,1.83561,1.84941,-2.39959,8.20209,5.27541,-2.40721,8.24696,1.83196,1.83196,A,151614.00
5.34478,57.68790654,11.98127549,57.68790667,11.98127550,16:16:34.964853,0.00793,2.12996,2.12996,-0.01047,0.04644,0.02578,0.02625,0.01998,0.04435,-0.02348,1.07354,5.33682,2.12941,1.83411,1.84790,-2.40803,8.23253,5.27541,-2.40721,8.24696,1.83196,1.83196,A,151614.00
5.35501,57.68790669,11.98127541,57.68790667,11.98127550,16:16:34.975080,0.00776,2.12996,2.12996,-0.01055,0.04644,0.03632,-0.00216,0.01724,-0.00317,0.01019,0.95434,5.34705,2.12952,1.83236,1.84616,-2.41264,8.24958,5.27541,-2.40721,8.24696,1.83196,1.83196,A,151614.00
5.36534,57.68790684,11.98127534,57.68790667,11.98127550,16:16:34.985415,0.00770,2.12996,2.12996,-0.01027,0.04644,0.03112,-0.00353,0.00853,0.05301,0.03379,0.88005,5.35749,2.12961,1.83088,1.84467,-2.41697,8.26574,5.27541,-2.40721,8.24696,1.83196,1.83196,A,151614.00
5.37639,57.68790698,11.98127526,57.68790667,11.98127550,16:16:34.996458,0.00847,2.12996,2.12996,-0.01033,0.04644,0.03739,-0.01926,0.00273,0.00781,0.01128,0.83137,5.36797,2.12968,1.82964,1.84343,-2.42123,8.28172,5.27541,-2.40721,8.24696,1.83196,1.83196,A,151614.00
5.40157,57.68790710,11.98127520,57.68790800,11.98127383,16:16:35.021637,0.02326,2.12996,2.12996,-0.01053,0.04644,0.04212,-0.02293,0.00700,-0.06008,0.00073,0.86114,5.37813,2.12973,1.82852,1.84231,-2.42483,8.29535,5.39570,-2.50627,8.39522,2.15984,2.15984,A,151614.10
5.41427,57.68790761,11.98127489,57.68790800,11.98127383,16:16:35.034342,0.00795,1.74743,1.74743,-0.00950,0.04638,0.03876,0.01922,0.02350,-0.06155,0.03062,1.04835,5.40631,2.05327,1.87818,1.89196,-2.44322,8.35179,5.39570,-2.50627,8.39522,2.15984,2.15984,A,151614.10
5.42490,57.68790777,11.98127475,57.68790800,11.98127383,16:16:35.044982,0.00819,1.74743,1.74743,-0.00955,0.04618,0.03693,0.02350,0.02273,0.02227,0.00573,1.10233,5.41633,1.99210,1.91899,1.93271,-2.45154,8.36948,5.39570,-2.50627,8.39522,2.15984,2.15984,A,151614.10
5.43908,57.68790797,11.98127458,57.68790800,11.98127383,16:16:35.059153,0.01197,1.74743,1.74743,-0.00959,0.04562,0.03998,0.01724,0.01479,0.09998,-0.00409,1.04109,5.42963,1.94317,1.95392,1.96747,-2.46208,8.39137,5.39570,-2.50627,8.39522,2.15984,2.15984,A,151614.10
5.45311,57.68790816,11.98127439,57.68790800,11.98127383,16:16:35.073185,0.00821,1.74743,1.74743,-0.00986,0.04454,0.03678,0.00044,0.00822,-0.05868,-0.02227,1.02901,5.44482,1.90402,1.98370,1.99693,-2.47337,8.41325,5.39570,-2.50627,8.39522,2.15984,2.15984,A,151614.10
5.46303,57.68790828,11.98127425,57.68790800,11.98127383,16:16:35.083102,0.00758,1.74743,1.74743,-0.01006,0.04412,0.03280,0.00578,0.00899,-0.03575,-0.00244,0.99839,5.45508,1.87270,2.00871,2.02181,-2.48133,8.42626,5.39570,-2.50627,8.39522,2.15984,2.15984,A,151614.10
5.47423,57.68790839,11.98127412,57.68790800,11.98127383,16:16:35.094301,0.00838,1.74743,1.74743,-0.01023,0.04397,0.03128,-0.00063,0.01036,0.02641,0.00043,0.94269,5.46569,1.84765,2.02997,2.04303,-2.48917,8.43833,5.39570,-2.50627,8.39522,2.15984,2.15984,A,151614.10
5.48390,57.68790849,11.98127399,57.68790800,11.98127383,16:16:35.103972,0.00766,1.74743,1.74743,-0.01033,0.04397,0.03097,-0.00964,0.01296,-0.02342,0.00641,0.90500,5.47587,1.82761,2.04802,2.06108,-2.49672,8.44927,5.39570,-2.50627,8.39522,2.15984,2.15984,A,151614.10
5.49439,57.68790858,11.98127387,57.68790800,11.98127383,16:16:35.114468,0.00775,1.74743,1.74743,-0.01002,0.04397,0.03021,-0.00979,0.01724,-0.04240,0.03007,0.92073,5.48647,1.81157,2.06336,2.07642,-2.50416,8.45962,5.39570,-2.50627,8.39522,2.15984,2.15984,A,151614.10
5.52087,57.68790867,11.98127375,57.68791000,11.98127333,16:16:35.140947,0.02361,1.74743,1.74743,-0.00946,0.04397,0.02349,-0.01407,0.02457,-0.11291,0.05222,0.96105,5.49706,1.79874,2.07640,2.08946,-2.51141,8.46930,5.51388,-2.53599,8.61761,1.70364,1.70364,A,151614.20
5.53670,57.68790909,11.98127334,57.68791000,11.98127333,16:16:35.156785,0.01075,1.74743,1.74743,-0.00878,0.04400,0.03555,0.05022,0.04732,-0.02745,0.01189,1.02803,5.52579,1.78848,2.02019,2.03325,-2.53546,8.51670,5.51388,-2.53599,8.61761,1.70364,1.70364,A,151614.20
5.55276,57.68790936,11.98127314,57.68791000,11.98127333,16:16:35.172831,0.00792,1.74743,1.74743,-0.00867,0.04440,0.02395,0.02823,0.06320,0.07759,0.01196,1.04993,5.54481,1.78027,1.97170,1.98488,-2.54753,8.54590,5.51388,-2.53599,8.61761,1.70364,1.70364,A,151614.20
5.56302,57.68790950,11.98127305,57.68791000,11.98127333,16:16:35.183091,0.00779,1.74743,1.74743,-0.00779,0.04488,0.01478,-0.00888,0.06152,-0.00976,0.08247,0.98576,5.55504,1.77370,1.93001,1.94333,-2.55267,8.56250,5.51388,-2.53599,8.61761,1.70364,1.70364,A,151614.20
5.57333,57.68790965,11.98127298,57.68791000,11.98127333,16:16:35.193400,0.00770,1.74743,1.74743,-0.00718,0.04553,0.01692,-0.02858,0.04534,-0.02464,0.06466,1.00333,5.56545,1.76845,1.89454,1.90806,-2.55695,8.57833,5.51388,-2.53599,8.61761,1.70364,1.70364,A,151614.20
5.58405,57.68790979,11.98127292,57.68791000,11.98127333,16:16:35.204127,0.00820,1.74743,1.74743,-0.00694,0.04644,0.01814,-0.03224,0.03938,-0.01763,0.04014,1.00723,5.57587,1.76424,1.86437,1.87816,-2.56068,8.59394,5.51388,-2.53599,8.61761,1.70364,1.70364,A,151614.20
5.59395,57.68790991,11.98127287,57.68791000,11.98127333,16:16:35.214025,0.00771,1.74743,1.74743,-0.00743,0.04765,0.02181,-0.02598,0.02533,0.04355,-0.01208,1.07159,5.58606,1.76088,1.83866,1.85281,-2.56357,8.60809,5.51388,-2.53599,8.61761,1.70364,1.70364,A,151614.20
5.60438,57.68791004,11.98127283,57.68791000,11.98127333,16:16:35.224454,0.00775,1.74743,1.74743,-0.00796,0.04921,0.00776,-0.03316,0.02747,-0.07564,-0.00384,1.00516,5.59626,1.75819,1.81677,1.83139,-2.56619,8.62237,5.51388,-2.53599,8.61761,1.70364,1.70364,A,151614.20
5.61495,57.68791017,11.98127279,57.68791000,11.98127333,16:16:35.235028,0.00792,1.74743,1.74743,-0.00846,0.05097,0.00776,-0.02949,0.03220,-0.14317,-0.00079,0.93495,5.60684,1.75604,1.79811,1.81325,-2.56837,8.63597,5.51388,-2.53599,8.61761,1.70364,1.70364,A,151614.20
5.65292,57.68791028,11.98127276,57.68791350,11.98127150,16:16:35.272988,0.03550,1.74743,1.74743,-0.00924,0.05269,0.01326,-0.01056,0.04503,-0.12456,-0.02105,0.92421,5.61719,1.75432,1.78216,1.79781,-2.57000,8.64822,5.64694,-2.64496,9.00679,1.84380,1.84380,A,151614.40
5.66564,57.68791099,11.98127246,57.68791350,11.98127150,16:16:35.285705,0.00792,1.74743,1.74743,-0.00882,0.05694,0.02593,-0.02430,0.06076,0.02190,-0.00439,1.03328,5.65761,1.75294,1.79161,1.80852,-2.58808,8.72819,5.64694,-2.64496,9.00679,1.84380,1.84380,A,151614.40
5.67564,57.68791124,11.98127236,57.68791350,11.98127150,16:16:35.295724,0.00769,1.74743,1.74743,-0.00940,0.05722,0.01891,-0.01972,0.05938,-0.10590,-0.01531,1.07134,5.66760,1.75184,1.79752,1.81452,-2.59413,8.75534,5.64694,-2.64496,9.00679,1.84380,1.84380,A,151614.40
5.68648,57.68791148,11.98127225,57.68791350,11.98127150,16:16:35.306551,0.00814,1.74743,1.74743,-0.01003,0.05725,0.01005,-0.01392,0.04671,-0.20581,-0.01342,1.02388,5.67852,1.75096,1.80260,1.81961,-2.60023,8.78222,5.64694,-2.64496,9.00679,1.84380,1.84380,A,151614.40
5.69640,57.68791170,11.98127216,57.68791350,11.98127150,16:16:35.316476,0.00767,1.74743,1.74743,-0.01130,0.05725,-0.00858,0.00792,0.03984,-0.07180,-0.03904,0.93592,5.68834,1.75025,1.80686,1.82386,-2.60576,8.80642,5.64694,-2.64496,9.00679,1.84380,1.84380,A,151614.40
5.70688,57.68791191,11.98127207,57.68791350,11.98127150,16:16:35.326959,0.00776,1.74743,1.74743,-0.01077,0.05725,-0.01225,0.01052,0.03174,-0.02434,0.07253,0.89359,5.69892,1.74969,1.81051,1.82752,-2.61126,8.83012,5.64694,-2.64496,9.00679,1.84380,1.84380,A,151614.40
5.71746,57.68791211,11.98127198,57.68791350,11.98127150,16:16:35.337535,0.00795,1.74743,1.74743,-0.01054,0.05725,-0.01271,0.00365,0.02731,-0.05344,0.05850,0.97252,5.70956,1.74924,1.81362,1.83063,-2.61656,8.85274,5.64694,-2.64496,9.00679,1.84380,1.84380,A,151614.40
5.73325,57.68791231,11.98127189,57.68791350,11.98127150,16:16:35.353328,0.01347,1.74743,1.74743,-0.00987,0.05725,-0.00293,-0.00032,0.02762,0.11895,0.07704,0.91817,5.71976,1.74888,1.81625,1.83325,-2.62157,8.87393,5.64694,-2.64496,9.00679,1.84380,1.84380,A,151614.40
5.74810,57.68791260,11.98127176,57.68791350,11.98127150,16:16:35.368180,0.00792,1.74743,1.74743,-0.01069,0.05725,-0.00140,0.01250,0.03358,-0.12901,-0.01824,1.06549,5.73994,1.74859,1.81909,1.83610,-2.62971,8.90653,5.64694,-2.64496,9.00679,1.84380,1.84380,A,151614.40
5.77415,57.68791276,11.98127168,57.68791483,11.98127067,16:16:35.394220,0.02356,1.74743,1.74743,-0.01167,0.05725,-0.00614,0.01647,0.03709,-0.05740,-0.02867,1.08635,5.75041,1.74836,1.82090,1.83790,-2.63413,8.92500,5.76812,-2.69449,9.15505,1.89322,1.89322,A,151614.50
5.78881,57.68791328,11.98127142,57.68791483,11.98127067,16:16:35.408888,0.00793,1.94834,1.94834,-0.01118,0.05725,0.00638,-0.00338,0.04045,-0.02532,0.05923,1.02498,5.78082,1.78835,1.83140,1.84841,-2.64960,8.98201,5.76812,-2.69449,9.15505,1.89322,1.89322,A,151614.50
5.79906,57.68791348,11.98127132,57.68791483,11.98127067,16:16:35.419137,0.00779,1.94834,1.94834,-0.01169,0.05725,0.01830,-0.01331,0.03923,0.07430,-0.00494,0.91561,5.79108,1.82035,1.83879,1.85580,-2.65577,9.00442,5.76812,-2.69449,9.15505,1.89322,1.89322,A,151614.50
