Time,lat_estimated,lon_estimated,latitude,longitude,RealTime,CalculationTime,MeasuredVelocity,FilteredVelocity,Roll,SteeringAngle,RollRate,gy,gz,ax,ay,az,imu_read_timing,v_estimated,yaw_estimated,heading_estimated,x_estimated,y_estimated,GPS_timestamp,x_GPS,y_GPS,theta_GPS,theta_GPS_noUnwrap,status,NMEA timestamp
0.04991,57.68864833,11.98065500,57.68864833,11.98065500,15:55:44.587415,0.04987,0.00000,0.00000,-0.00035,0.00263,-0.01543,0.00177,0.00285,0.06960,0.01159,0.99759,0.00001,0.00000,-0.00153,0.00000,0.00000,0.00000,0.01790,0.00000,0.00000,0.00000,0.00000,A,145544.40
0.06948,57.68864833,11.98065500,57.68864833,11.98065500,15:55:44.606411,0.00843,0.00000,0.00000,-0.00203,0.00263,-0.02200,-0.00174,0.00529,0.07558,0.00012,0.99271,0.06108,0.00000,-0.00153,0.00000,0.00000,0.00000,0.01790,0.00000,0.00000,0.00000,0.00000,A,145544.40
0.08266,57.68864833,11.98065500,57.68864833,11.98065500,15:55:44.619628,0.01119,0.00000,0.00000,-0.00264,0.00263,-0.02566,-0.00724,0.00117,0.07064,0.00018,1.00107,0.07208,0.00000,-0.00153,0.00000,0.00000,0.00000,0.01790,0.00000,0.00000,0.00000,0.00000,A,145544.40
0.11199,57.68864833,11.98065500,57.68864833,11.98065500,15:55:44.648922,0.01499,0.00000,0.00000,-0.00331,0.00263,-0.01360,-0.00525,0.00193,0.06960,0.00244,1.00613,0.09994,0.00000,-0.00153,0.00000,0.00000,0.00000,0.01790,0.00000,0.00000,0.00000,0.00000,A,145544.40
0.15947,57.68864834,11.98065498,57.68864850,11.98065467,15:55:44.696399,0.03456,0.00000,0.00000,-0.00384,0.00263,-0.01070,-0.00250,0.00025,0.06972,0.00415,0.97856,0.12600,0.00000,0.35690,0.35843,-0.00099,0.00093,0.15565,-0.01981,0.01853,2.38955,2.38955,A,145544.60
0.18504,57.68864835,11.98065497,57.68864850,11.98065467,15:55:44.721972,0.01254,0.00000,0.00000,-0.00462,0.00263,-0.00780,-0.00724,0.00193,0.06399,-0.00586,1.00522,0.17529,0.00000,0.66157,0.66310,-0.00193,0.00181,0.15565,-0.01981,0.01853,2.38955,2.38955,A,145544.60
0.21177,57.68864836,11.98065495,57.68864850,11.98065467,15:55:44.748709,0.01247,0.00000,0.00000,-0.00501,0.00263,-0.00612,-0.00464,0.00056,0.07582,0.00451,1.00863,0.20120,0.00000,0.92054,0.92207,-0.00283,0.00264,0.15565,-0.01981,0.01853,2.38955,2.38955,A,145544.60
0.23886,57.68864836,11.98065494,57.68864850,11.98065467,15:55:44.775805,0.01377,0.00000,0.00000,-0.00532,0.00263,-0.00062,-0.01243,0.00483,0.06265,-0.00030,0.98234,0.22844,0.00000,1.14066,1.14219,-0.00367,0.00344,0.15565,-0.01981,0.01853,2.38955,2.38955,A,145544.60
0.27557,57.68864839,11.98065491,57.68864883,11.98065433,15:55:44.812502,0.02515,0.00000,0.00000,-0.00559,0.00263,-0.00092,-0.01075,0.00499,0.05691,0.00244,0.97887,0.25191,0.00000,1.27858,1.28011,-0.00547,0.00605,0.27188,-0.03962,0.05560,2.06168,2.06168,A,145544.70
0.30005,57.68864841,11.98065488,57.68864883,11.98065433,15:55:44.836981,0.01079,0.00000,0.00000,-0.00587,0.00263,-0.00382,-0.00739,0.00117,0.06649,0.01055,1.00772,0.29180,0.00000,1.39582,1.39735,-0.00718,0.00852,0.27188,-0.03962,0.05560,2.06168,2.06168,A,145544.70
0.32718,57.68864843,11.98065485,57.68864883,11.98065433,15:55:44.864120,0.01317,0.00000,0.00000,-0.00627,0.00263,-0.00505,-0.00479,-0.00051,0.05545,0.00000,0.99772,0.31625,0.00000,1.49547,1.49700,-0.00880,0.01088,0.27188,-0.03962,0.05560,2.06168,2.06168,A,145544.70
0.35510,57.68864845,11.98065483,57.68864883,11.98065433,15:55:44.892041,0.01252,0.00000,0.00000,-0.00655,0.00263,-0.00764,-0.01044,-0.00021,0.05832,0.01360,0.98362,0.34409,0.00000,1.58017,1.58170,-0.01034,0.01311,0.27188,-0.03962,0.05560,2.06168,2.06168,A,145544.70
0.39755,57.68864849,11.98065480,57.68864917,11.98065433,15:55:44.934477,0.02655,0.00000,0.00000,-0.00695,0.00263,-0.00612,-0.00540,0.00728,0.04538,0.00378,1.01211,0.37407,0.00000,1.57853,1.58006,-0.01181,0.01709,0.39392,-0.03962,0.09266,1.57080,1.57080,A,145544.80
0.42128,57.68864852,11.98065478,57.68864917,11.98065433,15:55:44.958209,0.01317,0.00000,0.00000,-0.00758,0.00263,-0.01757,-0.00800,0.00193,0.04654,0.01720,0.99168,0.41050,0.00000,1.57714,1.57867,-0.01320,0.02087,0.39392,-0.03962,0.09266,1.57080,1.57080,A,145544.80
0.44822,57.68864855,11.98065476,57.68864917,11.98065433,15:55:44.985155,0.01275,0.00000,0.00000,-0.00837,0.00263,-0.01772,-0.00953,-0.00280,0.06283,-0.00421,0.99674,0.43739,0.00000,1.57596,1.57749,-0.01452,0.02446,0.39392,-0.03962,0.09266,1.57080,1.57080,A,145544.80
0.47767,57.68864858,11.98065473,57.68864917,11.98065433,15:55:45.014611,0.01410,0.00000,0.00000,-0.00912,0.00263,-0.02062,-0.01151,0.00224,0.04380,0.00427,0.99772,0.46569,0.00000,1.57496,1.57649,-0.01577,0.02787,0.39392,-0.03962,0.09266,1.57080,1.57080,A,145544.80
0.52679,57.68864863,11.98065471,57.68864950,11.98065433,15:55:45.063725,0.03493,0.00000,0.00000,-0.01001,0.00263,-0.01818,-0.00785,0.01033,0.07021,0.00067,0.98814,0.50310,0.00000,1.57410,1.57563,-0.01697,0.03296,0.52277,-0.03962,0.12973,1.57080,1.57080,A,145544.90
0.55375,57.68864867,11.98065470,57.68864950,11.98065433,15:55:45.090687,0.01100,0.00000,0.00000,-0.01100,0.00263,-0.01818,-0.00892,0.00407,0.06374,-0.00018,0.99021,0.54569,0.00000,1.57338,1.57491,-0.01810,0.03780,0.52277,-0.03962,0.12973,1.57080,1.57080,A,145544.90
0.58120,57.68864871,11.98065468,57.68864950,11.98065433,15:55:45.118133,0.01156,0.00000,0.00000,-0.01169,0.00263,-0.01925,-0.01228,-0.00066,0.06307,0.00079,1.01071,0.57188,0.00000,1.57276,1.57429,-0.01918,0.04240,0.52277,-0.03962,0.12973,1.57080,1.57080,A,145544.90
0.60938,57.68864875,11.98065466,57.68864950,11.98065433,15:55:45.146318,0.01270,0.00000,0.00000,-0.01266,0.00263,-0.01940,-0.01548,0.00239,0.03971,-0.01653,1.00839,0.59965,0.00000,1.57224,1.57377,-0.02020,0.04676,0.52277,-0.03962,0.12973,1.57080,1.57080,A,145544.90
0.66467,57.68864882,11.98065463,57.68865017,11.98065400,15:55:45.201603,0.03683,0.00000,0.00000,-0.01327,0.00263,-0.01299,-0.01228,0.00758,0.03745,-0.00250,0.96496,0.63060,0.00000,1.61096,1.61249,-0.02216,0.05462,0.66103,-0.05944,0.20386,1.83195,1.83195,A,145545.10
0.69194,57.68864889,11.98065460,57.68865017,11.98065400,15:55:45.228878,0.01321,0.44765,0.44765,-0.01284,0.00263,0.01175,-0.00739,0.00254,0.06863,0.00043,1.01467,0.68155,0.08953,1.64388,1.64541,-0.02402,0.06208,0.66103,-0.05944,0.20386,1.83195,1.83195,A,145545.10
0.72264,57.68864898,11.98065456,57.68865017,11.98065400,15:55:45.259581,0.01482,0.44765,0.44765,-0.01283,0.00263,0.02076,-0.00571,0.00147,0.06759,-0.02653,1.02077,0.70999,0.16116,1.67187,1.67340,-0.02596,0.07135,0.66103,-0.05944,0.20386,1.83195,1.83195,A,145545.10
0.74502,57.68864906,11.98065453,57.68865017,11.98065400,15:55:45.281957,0.01107,0.44765,0.44765,-0.01222,0.00263,0.02702,-0.02449,0.00773,0.06997,0.00464,1.01059,0.73689,0.21846,1.69566,1.69719,-0.02796,0.08114,0.66103,-0.05944,0.20386,1.83195,1.83195,A,145545.10
0.78549,57.68864922,11.98065447,57.68865083,11.98065367,15:55:45.322421,0.02726,0.44765,0.44765,-0.01171,0.00263,0.03603,-0.03136,0.01232,0.06692,-0.01159,0.98442,0.76144,0.26429,1.71589,1.71742,-0.03154,0.09899,0.78167,-0.07925,0.27799,1.83195,1.83195,A,145545.20
0.81161,57.68864935,11.98065442,57.68865083,11.98065367,15:55:45.348538,0.01508,0.44765,0.44765,-0.01054,0.00263,0.02886,-0.01090,0.00224,0.00939,0.01580,0.97508,0.80097,0.30097,1.73308,1.73461,-0.03475,0.11351,0.78167,-0.07925,0.27799,1.83195,1.83195,A,145545.20
0.83752,57.68864948,11.98065436,57.68865083,11.98065367,15:55:45.374457,0.01323,0.44765,0.44765,-0.00996,0.00263,0.02030,0.00254,-0.00708,0.03294,0.01665,0.94672,0.82732,0.33030,1.74769,1.74923,-0.03801,0.12804,0.78167,-0.07925,0.27799,1.83195,1.83195,A,145545.20
0.86491,57.68864962,11.98065430,57.68865083,11.98065367,15:55:45.401848,0.01240,0.44765,0.44765,-0.00990,0.00263,0.01191,-0.00143,-0.00204,0.04892,-0.00354,1.04090,0.85567,0.35377,1.76012,1.76165,-0.04143,0.14302,0.78167,-0.07925,0.27799,1.83195,1.83195,A,145545.20
0.90500,57.68864982,11.98065423,57.68865133,11.98065367,15:55:45.441935,0.02713,0.44765,0.44765,-0.00945,0.00263,0.01847,-0.00678,-0.00219,0.08375,0.01434,1.02992,0.88090,0.37255,1.73152,1.73305,-0.04575,0.16515,0.90081,-0.07925,0.33358,1.57080,1.57080,A,145545.30
0.93109,57.68864997,11.98065418,57.68865133,11.98065367,15:55:45.468021,0.01218,0.44765,0.44765,-0.00915,0.00263,0.01267,-0.02006,0.00605,0.04788,0.00146,0.98027,0.92185,0.38757,1.70720,1.70873,-0.04881,0.18201,0.90081,-0.07925,0.33358,1.57080,1.57080,A,145545.30
0.95833,57.68865012,11.98065413,57.68865133,11.98065367,15:55:45.495286,0.01262,0.44765,0.44765,-0.00917,0.00258,0.00610,-0.02816,0.00789,0.06478,0.00342,1.00321,0.94780,0.39959,1.68653,1.68803,-0.05151,0.19812,0.90081,-0.07925,0.33358,1.57080,1.57080,A,145545.30
0.98274,57.68865025,11.98065409,57.68865133,11.98065367,15:55:45.520304,0.01310,0.44765,0.44765,-0.00893,0.00258,0.00656,-0.00708,0.00575,0.00256,0.02086,0.99521,0.97221,0.40920,1.66896,1.67046,-0.05386,0.21304,0.90081,-0.07925,0.33358,1.57080,1.57080,A,145545.30
1.03638,57.68865054,11.98065401,57.68865250,11.98065317,15:55:45.573313,0.03916,0.44765,0.44765,-0.00901,0.00258,0.00427,0.00529,0.00514,0.05978,0.00238,0.94318,1.00164,0.41689,1.68783,1.68933,-0.05863,0.24570,1.03260,-0.10897,0.46331,1.79599,1.79599,A,145545.50
1.06045,57.68865072,11.98065395,57.68865250,11.98065317,15:55:45.597386,0.01109,0.64683,0.64683,-0.00861,0.00258,0.01252,0.00819,0.00422,0.08125,0.00085,0.99656,1.05173,0.46288,1.70385,1.70535,-0.06218,0.26521,1.03260,-0.10897,0.46331,1.79599,1.79599,A,145545.50
1.08588,57.68865089,11.98065389,57.68865250,11.98065317,15:55:45.623099,0.01296,0.64683,0.64683,-0.00856,0.00258,0.00961,-0.00647,0.01079,0.06283,0.00458,1.00955,1.07508,0.49967,1.71746,1.71896,-0.06574,0.28414,1.03260,-0.10897,0.46331,1.79599,1.79599,A,145545.50
1.11334,57.68865107,11.98065383,57.68865250,11.98065317,15:55:45.650292,0.01227,0.64683,0.64683,-0.00829,0.00258,0.01664,-0.00525,0.01659,0.07893,0.00494,0.99204,1.10199,0.52910,1.72904,1.73054,-0.06950,0.30383,1.03260,-0.10897,0.46331,1.79599,1.79599,A,145545.50
1.15458,57.68865135,11.98065369,57.68865317,11.98065217,15:55:45.691513,0.02584,0.64683,0.64683,-0.00802,0.00258,0.00793,-0.01197,0.01186,0.06484,0.01903,1.00504,1.13112,0.55265,1.80649,1.80799,-0.07765,0.33538,1.15083,-0.16840,0.53744,2.24662,2.24662,A,145545.60
1.18104,57.68865154,11.98065357,57.68865317,11.98065217,15:55:45.717997,0.01331,0.64683,0.64683,-0.00759,0.00300,0.01847,-0.02083,0.01415,0.04362,-0.00128,0.98966,1.16976,0.57149,1.87227,1.87402,-0.08499,0.35709,1.15083,-0.16840,0.53744,2.24662,2.24662,A,145545.60
1.20626,57.68865172,11.98065344,57.68865317,11.98065217,15:55:45.743203,0.01300,0.64683,0.64683,-0.00813,0.00359,-0.00825,-0.00052,0.01186,0.00458,-0.00512,0.97454,1.19435,0.58656,1.92814,1.93023,-0.09260,0.37711,1.15083,-0.16840,0.53744,2.24662,2.24662,A,145545.60
1.23162,57.68865190,11.98065331,57.68865317,11.98065217,15:55:45.768560,0.01138,0.64683,0.64683,-0.00760,0.00365,-0.00657,0.00865,0.00987,0.06850,0.06374,1.00424,1.22155,0.59861,1.97563,1.97775,-0.10056,0.39621,1.15083,-0.16840,0.53744,2.24662,2.24662,A,145545.60
1.27136,57.68865216,11.98065310,57.68865367,11.98065200,15:55:45.808285,0.02619,0.64683,0.64683,-0.00785,0.00365,-0.00001,-0.01319,0.00667,0.07052,0.00085,1.04572,1.24850,0.60826,1.94109,1.94322,-0.11300,0.42590,1.26759,-0.17831,0.59304,1.74712,1.74712,A,145545.70
1.29630,57.68865234,11.98065297,57.68865367,11.98065200,15:55:45.833228,0.01323,0.64683,0.64683,-0.00797,0.00365,-0.00871,-0.02266,0.01720,0.03288,0.02995,1.02010,1.28504,0.61597,1.91171,1.91384,-0.12064,0.44546,1.26759,-0.17831,0.59304,1.74712,1.74712,A,145545.70
1.32406,57.68865253,11.98065284,57.68865367,11.98065200,15:55:45.860993,0.01023,0.87908,0.87908,-0.00834,0.00371,0.00366,-0.01273,0.01965,0.07369,-0.01330,0.91860,1.31413,0.66859,1.88674,1.88890,-0.12843,0.46658,1.26759,-0.17831,0.59304,1.74712,1.74712,A,145545.70
1.35178,57.68865271,11.98065272,57.68865367,11.98065200,15:55:45.888716,0.01257,0.87908,0.87908,-0.00789,0.00425,0.00809,0.01521,0.01888,-0.01293,0.03288,1.03999,1.34137,0.71069,1.86547,1.86794,-0.13561,0.48714,1.26759,-0.17831,0.59304,1.74712,1.74712,A,145545.70
1.39258,57.68865302,11.98065252,57.68865433,11.98065133,15:55:45.929507,0.02632,0.87908,0.87908,-0.00795,0.00555,0.00213,-0.00815,0.01125,0.11852,0.00927,0.99460,1.36870,0.74437,1.89451,1.89773,-0.14748,0.52147,1.38885,-0.21793,0.66717,2.06168,2.06168,A,145545.80
1.41934,57.68865323,11.98065237,57.68865433,11.98065133,15:55:45.956468,0.01365,0.87908,0.87908,-0.00763,0.00835,0.02809,-0.00586,0.01690,-0.01952,-0.03465,1.00705,1.40821,0.77131,1.91892,1.92378,-0.15622,0.54412,1.38885,-0.21793,0.66717,2.06168,2.06168,A,145545.80
1.44499,57.68865341,11.98065223,57.68865433,11.98065133,15:55:45.981946,0.01307,0.87908,0.87908,-0.00750,0.01019,0.01526,0.01430,0.03477,0.11108,0.00061,0.90561,1.43374,0.79286,1.93955,1.94547,-0.16467,0.56483,1.38885,-0.21793,0.66717,2.06168,2.06168,A,145545.80
1.47053,57.68865361,11.98065207,57.68865433,11.98065133,15:55:46.007474,0.01105,0.87908,0.87908,-0.00598,0.01078,0.03038,-0.01197,0.02209,0.00244,0.06667,1.01827,1.46094,0.81011,1.95707,1.96334,-0.17391,0.58668,1.38885,-0.21793,0.66717,2.06168,2.06168,A,145545.80
1.51188,57.68865393,11.98065180,57.68865483,11.98065050,15:55:46.048805,0.02805,0.87908,0.87908,-0.00645,0.01078,0.02428,0.00162,0.00850,0.11590,-0.05380,0.96532,1.48805,0.82390,2.00761,2.01388,-0.19034,0.62188,1.50809,-0.26746,0.72277,2.29854,2.29854,A,145545.90
1.53724,57.68865411,11.98065161,57.68865483,11.98065050,15:55:46.074184,0.01295,0.87908,0.87908,-0.00525,0.01078,0.02321,0.02086,0.02102,-0.00781,0.03983,0.99204,1.52668,0.83494,2.05045,2.05672,-0.20144,0.64219,1.50809,-0.26746,0.72277,2.29854,2.29854,A,145545.90
1.56539,57.68865430,11.98065140,57.68865483,11.98065050,15:55:46.102343,0.01433,0.87908,0.87908,-0.00488,0.01078,0.01359,0.01827,0.01980,0.07546,0.01958,1.01986,1.55490,0.84377,2.08689,2.09316,-0.21398,0.66371,1.50809,-0.26746,0.72277,2.29854,2.29854,A,145545.90
1.59254,57.68865448,11.98065120,57.68865483,11.98065050,15:55:46.129478,0.01258,0.96998,0.96998,-0.00472,0.01078,0.00396,0.01873,0.01613,-0.04538,0.02690,1.09946,1.58123,0.86901,2.11786,2.12413,-0.22612,0.68309,1.50809,-0.26746,0.72277,2.29854,2.29854,A,145545.90
1.64439,57.68865487,11.98065074,57.68865600,11.98064933,15:55:46.181321,0.03748,0.96998,0.96998,-0.00506,0.01078,-0.00489,0.02041,0.01415,0.08272,0.00708,0.98692,1.61001,0.88920,2.10884,2.11511,-0.25347,0.72689,1.64066,-0.33680,0.85249,2.06168,2.06168,A,145546.10
1.66818,57.68865506,11.98065051,57.68865600,11.98064933,15:55:46.205131,0.01261,0.96998,0.96998,-0.00594,0.01078,-0.01024,-0.01243,0.01171,0.03703,-0.00604,0.98393,1.65763,0.90536,2.10097,2.10724,-0.26678,0.74827,1.64066,-0.33680,0.85249,2.06168,2.06168,A,145546.10
1.69326,57.68865526,11.98065029,57.68865600,11.98064933,15:55:46.230197,0.01249,0.96998,0.96998,-0.00631,0.01078,-0.01390,-0.00342,0.01476,0.01086,0.01714,1.00052,1.68228,0.91829,2.09430,2.10057,-0.28004,0.76990,1.64066,-0.33680,0.85249,2.06168,2.06168,A,145546.10
1.72072,57.68865546,11.98065006,57.68865600,11.98064933,15:55:46.257653,0.01267,0.96998,0.96998,-0.00677,0.01078,-0.02093,0.01781,0.01690,-0.01501,0.02702,0.98863,1.71029,0.92863,2.08864,2.09491,-0.29356,0.79227,1.64066,-0.33680,0.85249,2.06168,2.06168,A,145546.10
1.76280,57.68865580,11.98064969,57.68865683,11.98064850,15:55:46.299732,0.02698,0.96998,0.96998,-0.00758,0.01078,-0.01604,0.00758,0.01277,0.13176,-0.00604,0.93483,1.73804,0.93690,2.08395,2.09022,-0.31576,0.83029,1.75846,-0.38633,0.94516,2.06168,2.06168,A,145546.20
1.78454,57.68865599,11.98064948,57.68865683,11.98064850,15:55:46.321471,0.00929,1.21863,1.21863,-0.00907,0.01078,-0.01375,0.00865,0.01507,0.02263,-0.04740,1.02358,1.77612,0.99324,2.07981,2.08608,-0.32797,0.85122,1.75846,-0.38633,0.94516,2.06168,2.06168,A,145546.20
1.79711,57.68865610,11.98064936,57.68865683,11.98064850,15:55:46.334059,0.01038,1.21863,1.21863,-0.00942,0.01078,-0.02200,0.01369,0.01293,0.07363,0.00805,1.01894,1.78592,1.03832,2.07623,2.08250,-0.33525,0.86361,1.75846,-0.38633,0.94516,2.06168,2.06168,A,145546.20
1.82460,57.68865632,11.98064912,57.68865683,11.98064850,15:55:46.361555,0.01438,1.21863,1.21863,-0.00970,0.01078,-0.02200,-0.00586,0.01445,0.02397,0.03873,1.02675,1.81381,1.07438,2.07330,2.07957,-0.34920,0.88798,1.75846,-0.38633,0.94516,2.06168,2.06168,A,145546.20
1.85567,57.68865657,11.98064885,57.68865683,11.98064850,15:55:46.392603,0.01634,3.36033,1.21863,-0.01050,0.01078,-0.01589,0.02468,0.00514,0.07204,-0.00384,0.96886,1.84575,1.10323,2.07086,2.07713,-0.36526,0.91630,1.75846,-0.38633,0.94516,2.06168,2.06168,A,145546.20
1.89970,57.68865699,11.98064843,57.68865783,11.98064767,15:55:46.436633,0.02842,3.36033,1.21863,-0.01101,0.01039,-0.02353,-0.00403,0.00163,0.03312,0.02599,0.93861,1.87556,1.12631,2.05817,2.06421,-0.39028,0.96207,1.89593,-0.43586,1.05635,1.98985,1.98985,A,145546.30
1.92803,57.68865723,11.98064819,57.68865783,11.98064767,15:55:46.464959,0.01455,3.36033,1.21863,-0.01154,0.00880,-0.00688,0.00284,0.00483,0.22302,-0.00213,1.07354,1.91668,1.14477,2.04736,2.05248,-0.40446,0.98891,1.89593,-0.43586,1.05635,1.98985,1.98985,A,145546.30
1.95628,57.68865746,11.98064797,57.68865783,11.98064767,15:55:46.493228,0.01534,3.36033,1.21863,-0.01152,0.00863,0.00045,-0.02526,0.01018,-0.05514,0.01348,0.91408,1.94477,1.15955,2.03816,2.04318,-0.41801,1.01520,1.89593,-0.43586,1.05635,1.98985,1.98985,A,145546.30
1.98392,57.68865771,11.98064774,57.68865783,11.98064767,15:55:46.520849,0.01406,3.36033,1.21863,-0.01137,0.00855,0.00549,0.01628,0.01430,-0.00342,0.01165,0.86095,1.97361,1.17136,2.03036,2.03533,-0.43179,1.04247,1.89593,-0.43586,1.05635,1.98985,1.98985,A,145546.30
2.02713,57.68865811,11.98064735,57.68865850,11.98064683,15:55:46.564071,0.03099,3.36033,1.21863,-0.01114,0.00773,0.00396,0.03140,0.00147,0.10474,0.02251,1.00992,2.00118,1.18082,2.04940,2.05390,-0.45489,1.08762,2.02249,-0.48539,1.13048,2.15982,2.15982,A,145546.40
2.05840,57.68865836,11.98064710,57.68865850,11.98064683,15:55:46.595377,0.01615,1.33596,1.33596,-0.01117,0.00473,-0.00321,0.03400,-0.00601,0.05929,0.02324,1.10093,2.04404,1.21184,2.06573,2.06848,-0.46970,1.11509,2.02249,-0.48539,1.13048,2.15982,2.15982,A,145546.40
2.08413,57.68865859,11.98064686,57.68865850,11.98064683,15:55:46.621066,0.01215,1.33596,1.33596,-0.01116,0.00306,-0.00917,-0.00632,0.00575,-0.01360,0.03117,0.94581,2.07427,1.23667,2.07968,2.08146,-0.48394,1.14063,2.02249,-0.48539,1.13048,2.15982,2.15982,A,145546.40
2.10905,57.68865878,11.98064665,57.68865850,11.98064683,15:55:46.646004,0.01347,1.33596,1.33596,-0.01141,0.00280,0.00381,0.02499,0.01064,0.07485,-0.00799,0.89652,2.09843,1.25653,2.09152,2.09315,-0.49636,1.16216,2.02249,-0.48539,1.13048,2.15982,2.15982,A,145546.40
2.16105,57.68865932,11.98064607,57.68866000,11.98064517,15:55:46.697977,0.03964,1.33596,1.33596,-0.01142,0.00226,-0.03116,-0.02953,0.00040,0.02379,0.06435,0.96752,2.12449,1.27241,2.09373,2.09505,-0.53099,1.22143,2.15647,-0.58445,1.29727,2.10673,2.10673,A,145546.60
2.18833,57.68865958,11.98064578,57.68866000,11.98064517,15:55:46.725266,0.01321,1.33596,1.33596,-0.01273,0.00127,-0.02612,-0.02312,-0.01227,0.08320,0.01842,1.02193,2.17830,1.28512,2.09562,2.09636,-0.54827,1.25048,2.15647,-0.58445,1.29727,2.10673,2.10673,A,145546.60
2.21337,57.68865981,11.98064552,57.68866000,11.98064517,15:55:46.750311,0.01426,1.33596,1.33596,-0.01384,0.00127,-0.01818,-0.00052,-0.01365,0.00152,-0.03636,1.08226,2.20206,1.29529,2.09720,2.09794,-0.56332,1.27565,2.15647,-0.58445,1.29727,2.10673,2.10673,A,145546.60
2.24079,57.68866004,11.98064526,57.68866000,11.98064517,15:55:46.777726,0.01360,1.26611,1.26611,-0.01453,0.00125,-0.03024,-0.01701,-0.00357,0.12310,0.01800,0.94245,2.22935,1.28945,2.09855,2.09928,-0.57919,1.30218,2.15647,-0.58445,1.29727,2.10673,2.10673,A,145546.60
2.27706,57.68866042,11.98064484,57.68866100,11.98064417,15:55:46.813986,0.02577,1.26611,1.26611,-0.01399,0.00122,-0.00367,-0.00220,0.00178,-0.02745,0.05545,1.06079,2.25257,1.28478,2.09296,2.09366,-0.60387,1.34422,2.27261,-0.64389,1.40847,2.06168,2.06168,A,145546.70
2.29943,57.68866063,11.98064461,57.68866100,11.98064417,15:55:46.836362,0.01113,1.26611,1.26611,-0.01368,0.00122,-0.02246,0.00193,0.00392,-0.00891,0.08662,1.00918,2.28963,1.28105,2.08818,2.08889,-0.61764,1.36785,2.27261,-0.64389,1.40847,2.06168,2.06168,A,145546.70
2.32497,57.68866086,11.98064436,57.68866100,11.98064417,15:55:46.861903,0.01314,1.26611,1.26611,-0.01325,0.00122,0.01572,0.01414,-0.00250,0.06307,0.01397,0.93062,2.31394,1.27806,2.08412,2.08483,-0.63211,1.39295,2.27261,-0.64389,1.40847,2.06168,2.06168,A,145546.70
2.34978,57.68866107,11.98064414,57.68866100,11.98064417,15:55:46.887777,0.01060,1.26611,1.26611,-0.01278,0.00122,0.01236,-0.02541,-0.00082,0.08272,0.02391,1.10617,2.33988,1.27567,2.08067,2.08138,-0.64534,1.41612,2.27261,-0.64389,1.40847,2.06168,2.06168,A,145546.70
2.37572,57.68866128,11.98064392,57.68866100,11.98064417,15:55:46.912644,0.01169,1.26611,1.26611,-0.01338,0.00122,0.02611,-0.01197,0.01308,0.08613,-0.06893,0.97307,2.36485,1.27376,2.07774,2.07845,-0.65850,1.43936,2.27261,-0.64389,1.40847,2.06168,2.06168,A,145546.70
2.41626,57.68866167,11.98064349,57.68866183,11.98064300,15:55:46.953191,0.02710,1.26611,1.26611,-0.01177,0.00122,0.02977,0.00773,0.01919,-0.07351,0.07229,1.04151,2.38991,1.27223,2.09801,2.09871,-0.68405,1.48346,2.41176,-0.71323,1.50113,2.21323,2.21323,A,145546.80
2.44441,57.68866191,11.98064321,57.68866183,11.98064300,15:55:46.981351,0.01247,1.11766,1.11766,-0.00948,0.00122,0.04000,-0.02755,0.00697,0.00781,0.04630,0.95447,2.43451,1.24131,2.11521,2.11592,-0.70047,1.51000,2.41176,-0.71323,1.50113,2.21323,2.21323,A,145546.80
2.47140,57.68866212,11.98064296,57.68866183,11.98064300,15:55:47.008333,0.01352,1.11766,1.11766,-0.00892,0.00122,0.04184,0.00361,-0.00326,-0.05124,-0.01989,1.08800,2.46036,1.21658,2.12983,2.13054,-0.71540,1.53314,2.41176,-0.71323,1.50113,2.21323,2.21323,A,145546.80
2.49535,57.68866229,11.98064275,57.68866183,11.98064300,15:55:47.032285,0.01203,1.11766,1.11766,-0.00873,0.00122,0.05070,0.01277,0.01033,0.18068,-0.04990,0.93989,2.48491,1.19680,2.14226,2.14297,-0.72817,1.55208,2.41176,-0.71323,1.50113,2.21323,2.21323,A,145546.80
2.54912,57.68866280,11.98064212,57.68866350,11.98064100,15:55:47.086047,0.04012,1.11766,1.11766,-0.00663,0.00122,0.05405,-0.01915,0.02255,0.09467,0.05356,0.93220,2.51269,1.18097,2.14204,2.14275,-0.76552,1.60872,2.54468,-0.83210,1.68646,2.14112,2.14112,A,145547.00
2.57338,57.68866303,11.98064184,57.68866350,11.98064100,15:55:47.110308,0.01219,1.11766,1.11766,-0.00366,0.00122,0.06230,-0.01686,0.01598,-0.06161,0.00128,1.13491,2.56520,1.16831,2.14182,2.14253,-0.78244,1.63373,2.54468,-0.83210,1.68646,2.14112,2.14112,A,145547.00
2.59907,57.68866324,11.98064157,57.68866350,11.98064100,15:55:47.136005,0.01441,1.11766,1.11766,-0.00248,0.00122,0.05696,0.02025,0.01736,0.06576,0.01543,1.15510,2.58829,1.15818,2.14163,2.14234,-0.79837,1.65727,2.54468,-0.83210,1.68646,2.14112,2.14112,A,145547.00
2.62392,57.68866342,11.98064133,57.68866350,11.98064100,15:55:47.160881,0.01272,1.44841,1.44841,0.00076,0.00122,0.05314,-0.02419,0.01094,0.11193,0.12847,0.84717,2.61348,1.21623,2.14147,2.14218,-0.81237,1.67786,2.54468,-0.83210,1.68646,2.14112,2.14112,A,145547.00
2.66711,57.68866385,11.98064084,57.68866450,11.98064033,15:55:47.204042,0.02772,1.44841,1.44841,0.00182,0.00122,0.06184,-0.02342,-0.00128,-0.03648,-0.01818,0.94507,2.64199,1.26266,2.10716,2.10786,-0.84184,1.72508,2.66266,-0.87173,1.79765,1.91311,1.91311,A,145547.10
2.69103,57.68866408,11.98064059,57.68866450,11.98064033,15:55:47.227958,0.01053,1.44841,1.44841,0.00462,0.00122,0.06169,-0.00830,0.01033,-0.03172,0.05691,1.12826,2.68206,1.29981,2.07797,2.07868,-0.85667,1.75109,2.66266,-0.87173,1.79765,1.91311,1.91311,A,145547.10
2.71365,57.68866429,11.98064038,57.68866450,11.98064033,15:55:47.250589,0.01079,1.44841,1.44841,0.00509,0.00122,0.05803,0.00849,0.00651,0.10346,-0.02080,0.94947,2.70384,1.32953,2.05316,2.05386,-0.86887,1.77400,2.66266,-0.87173,1.79765,1.91311,1.91311,A,145547.10
2.74274,57.68866456,11.98064012,57.68866450,11.98064033,15:55:47.279674,0.01335,1.44841,1.44841,0.00721,0.00122,0.05268,-0.07764,-0.00005,0.02751,0.07314,0.94666,2.73110,1.35331,2.03207,2.03278,-0.88435,1.80442,2.66266,-0.87173,1.79765,1.91311,1.91311,A,145547.10
2.78382,57.68866503,11.98063971,57.68866567,11.98063950,15:55:47.320749,0.02629,1.44841,1.44841,0.00798,0.00122,0.07742,0.00681,0.00208,-0.06118,-0.06069,1.09098,2.75836,1.37233,2.01753,2.01824,-0.90888,1.85612,2.77935,-0.92126,1.92738,1.93552,1.93552,A,145547.20
2.81144,57.68866531,11.98063947,57.68866567,11.98063950,15:55:47.348373,0.01286,1.36654,1.36654,0.01324,0.00122,0.05451,-0.00204,0.01400,0.01470,0.21972,0.91244,2.79954,1.37117,2.00515,2.00586,-0.92296,1.88775,2.77935,-0.92126,1.92738,1.93552,1.93552,A,145547.20
2.82946,57.68866548,11.98063934,57.68866567,11.98063950,15:55:47.366397,0.00942,1.36654,1.36654,0.01285,0.00119,0.04978,-0.00769,0.00056,0.02550,-0.05417,1.00827,2.81959,1.37025,1.99462,1.99531,-0.93089,1.90697,2.77935,-0.92126,1.92738,1.93552,1.93552,A,145547.20
2.84069,57.68866557,11.98063928,57.68866567,11.98063950,15:55:47.377621,0.01014,1.36654,1.36654,0.01217,0.00088,0.02672,-0.01350,-0.01120,0.11163,-0.02623,0.97478,2.83052,1.36951,1.98569,1.98620,-0.93436,1.91673,2.77935,-0.92126,1.92738,1.93552,1.93552,A,145547.20
2.86533,57.68866581,11.98063910,57.68866567,11.98063950,15:55:47.402266,0.01258,1.36654,1.36654,0.01345,-0.00127,0.02748,-0.01854,-0.01899,-0.03812,0.07893,1.02468,2.85541,1.36891,1.97829,1.97755,-0.94497,1.94281,2.77935,-0.92126,1.92738,1.93552,1.93552,A,145547.20
2.90547,57.68866625,11.98063873,57.68866650,11.98063833,15:55:47.442405,0.02642,1.36654,1.36654,0.01376,-0.00444,0.01725,0.02407,-0.00967,0.04666,0.02782,0.98820,2.88172,1.36844,2.01387,2.01129,-0.96712,1.99278,2.90107,-0.99060,2.02004,2.21323,2.21323,A,145547.30
2.92983,57.68866648,11.98063852,57.68866650,11.98063833,15:55:47.466773,0.01268,1.36654,1.36654,0.01374,-0.00982,0.00473,-0.02770,-0.01426,-0.08418,0.02422,1.02035,2.91929,1.36806,2.04454,2.03883,-0.97934,2.01758,2.90107,-0.99060,2.02004,2.21323,2.21323,A,145547.30
2.95556,57.68866672,11.98063829,57.68866650,11.98063833,15:55:47.492497,0.01354,1.36654,1.36654,0.01276,-0.01288,-0.00550,-0.01395,-0.02098,0.04917,-0.01976,1.00211,2.94466,1.36776,2.07074,2.06325,-0.99323,2.04406,2.90107,-0.99060,2.02004,2.21323,2.21323,A,145547.30
2.98046,57.68866694,11.98063806,57.68866650,11.98063833,15:55:47.518142,0.01167,1.28469,1.28469,0.01247,-0.01460,-0.02200,-0.00174,-0.03121,-0.02629,0.05655,1.03840,2.97117,1.35114,2.09309,2.08460,-1.00711,2.06898,2.90107,-0.99060,2.02004,2.21323,2.21323,A,145547.30
3.03468,57.68866757,11.98063742,57.68866900,11.98063650,15:55:47.571611,0.03769,1.28469,1.28469,0.01183,-0.01656,-0.01864,0.02254,-0.02540,-0.06051,0.02416,0.96368,2.99930,1.33785,2.07146,2.06183,-1.04486,2.13913,3.03025,-1.09956,2.29803,1.94437,1.94437,A,145547.50
3.06093,57.68866787,11.98063715,57.68866900,11.98063650,15:55:47.597865,0.01382,1.28469,1.28469,0.00922,-0.02281,-0.04261,-0.01747,-0.03594,-0.03642,0.00049,1.12484,3.04964,1.32722,2.05402,2.04075,-1.06122,2.17256,3.03025,-1.09956,2.29803,1.94437,1.94437,A,145547.50
3.08561,57.68866815,11.98063690,57.68866900,11.98063650,15:55:47.622569,0.01167,1.28469,1.28469,0.00881,-0.02459,-0.03284,0.00483,-0.03777,0.16586,0.06124,1.01565,3.07614,1.31871,2.03922,2.02492,-1.07572,2.20360,3.03025,-1.09956,2.29803,1.94437,1.94437,A,145547.50
3.11235,57.68866843,11.98063667,57.68866900,11.98063650,15:55:47.649282,0.01434,1.28469,1.28469,0.00791,-0.02499,-0.02062,-0.00510,-0.02846,-0.04929,0.00238,1.01791,3.10017,1.31191,2.02662,2.01209,-1.08959,2.23430,3.03025,-1.09956,2.29803,1.94437,1.94437,A,145547.50
3.15468,57.68866891,11.98063624,57.68866983,11.98063533,15:55:47.691610,0.02884,1.28469,1.28469,0.00616,-0.02793,-0.03712,-0.03686,-0.03884,0.12975,-0.01452,0.84326,3.12952,1.30646,2.05606,2.03982,-1.11519,2.28793,3.15028,-1.16891,2.39069,2.21323,2.21323,A,145547.60
3.18055,57.68866918,11.98063598,57.68866983,11.98063533,15:55:47.717481,0.01354,1.43314,1.43314,0.00408,-0.03309,-0.02322,0.00208,-0.03793,-0.07253,-0.05502,1.05353,3.16964,1.33180,2.08191,2.06267,-1.13057,2.31811,3.15028,-1.16891,2.39069,2.21323,2.21323,A,145547.60
3.20996,57.68866946,11.98063570,57.68866983,11.98063533,15:55:47.747132,0.01408,1.43314,1.43314,0.00265,-0.03501,-0.03330,0.05965,-0.04175,0.01427,-0.00787,0.97496,3.19906,1.35207,2.10386,2.08350,-1.14720,2.34919,3.15028,-1.16891,2.39069,2.21323,2.21323,A,145547.60
3.23527,57.68866971,11.98063544,57.68866983,11.98063533,15:55:47.772232,0.01229,1.43314,1.43314,0.00233,-0.03677,-0.03696,0.03598,-0.04755,0.09290,0.06326,1.00504,3.22513,1.36828,2.12267,2.10129,-1.16277,2.37700,3.15028,-1.16891,2.39069,2.21323,2.21323,A,145547.60
3.27708,57.68867020,11.98063493,57.68867117,11.98063433,15:55:47.814013,0.02782,1.43314,1.43314,0.00108,-0.03722,-0.01910,-0.03396,-0.05060,0.09864,-0.02940,1.01101,3.25216,1.38125,2.09879,2.07715,-1.19317,2.43134,3.27264,-1.22834,2.53895,1.95207,1.95207,A,145547.70
3.30125,57.68867048,11.98063466,57.68867117,11.98063433,15:55:47.838185,0.01127,1.43314,1.43314,0.00177,-0.03722,-0.00703,0.02621,-0.02113,0.09406,0.06789,0.81923,3.29304,1.39163,2.07919,2.05754,-1.20911,2.46229,3.27264,-1.22834,2.53895,1.95207,1.95207,A,145547.70
3.33090,57.68867079,11.98063437,57.68867117,11.98063433,15:55:47.868384,0.01164,1.38612,1.38612,0.00232,-0.03722,0.01420,0.02163,-0.02754,-0.02318,0.03440,1.07342,3.32074,1.39053,2.06235,2.04071,-1.22642,2.49701,3.27264,-1.22834,2.53895,1.95207,1.95207,A,145547.70
3.35485,57.68867105,11.98063413,57.68867117,11.98063433,15:55:47.892509,0.01168,1.38612,1.38612,0.00196,-0.03722,-0.00046,0.03293,-0.03732,0.13292,-0.00213,1.08293,3.34445,1.38965,2.04818,2.02653,-1.24031,2.52627,3.27264,-1.22834,2.53895,1.95207,1.95207,A,145547.70
3.39750,57.68867156,11.98063369,57.68867233,11.98063333,15:55:47.934425,0.02799,1.38612,1.38612,0.00241,-0.03722,0.01206,-0.02632,-0.03487,0.06710,0.02873,1.02279,3.37334,1.38894,2.04269,2.02104,-1.26657,2.58214,3.39284,-1.28778,2.66868,2.00042,2.00042,A,145547.80
3.42438,57.68867184,11.98063345,57.68867233,11.98063333,15:55:47.961337,0.01298,1.38612,1.38612,0.00752,-0.03569,0.01023,-0.01380,-0.00570,-0.06777,0.36008,1.03297,3.41377,1.38838,2.03857,2.01781,-1.28101,2.61414,3.39284,-1.28778,2.66868,2.00042,2.00042,A,145547.80
3.44779,57.68867209,11.98063324,57.68867233,11.98063333,15:55:47.984724,0.01228,1.38612,1.38612,0.00951,-0.03255,0.05589,0.04927,0.00208,-0.01800,0.07680,1.07262,3.43780,1.38793,2.03492,2.01599,-1.29322,2.64163,3.39284,-1.28778,2.66868,2.00042,2.00042,A,145547.80
3.47488,57.68867237,11.98063301,57.68867233,11.98063333,15:55:48.012562,0.01146,1.65407,1.65407,0.01011,-0.02856,0.02565,0.02468,-0.01685,0.08564,0.01928,0.89865,3.46501,1.44116,2.03141,2.01480,-1.30711,2.67266,3.39284,-1.28778,2.66868,2.00042,2.00042,A,145547.80
3.51605,57.68867286,11.98063258,57.68867333,11.98063217,15:55:48.052978,0.02719,1.65407,1.65407,0.01125,-0.02629,0.01664,-0.05183,-0.02983,-0.04868,0.06832,0.90713,3.49150,1.48374,2.04705,2.03176,-1.33280,2.72676,3.51091,-1.35712,2.77987,2.12839,2.12839,A,145547.90
3.54276,57.68867314,11.98063231,57.68867333,11.98063217,15:55:48.079700,0.01385,1.65407,1.65407,0.01297,-0.02131,0.02763,0.02881,0.00529,-0.01104,0.08058,1.10526,3.53176,1.51781,2.06044,2.04805,-1.34856,2.75871,3.51091,-1.35712,2.77987,2.12839,2.12839,A,145547.90
3.56650,57.68867340,11.98063206,57.68867333,11.98063217,15:55:48.103439,0.01090,1.65407,1.65407,0.01276,-0.01925,0.02748,0.02575,0.00483,-0.06051,-0.02660,0.97600,3.55766,1.54506,2.07179,2.06060,-1.36333,2.78750,3.51091,-1.35712,2.77987,2.12839,2.12839,A,145547.90
3.59136,57.68867366,11.98063181,57.68867333,11.98063217,15:55:48.128294,0.01242,1.65407,1.65407,0.01364,-0.01902,0.01908,-0.00235,-0.01853,0.10907,0.06045,0.97002,3.58087,1.56686,2.08146,2.07040,-1.37827,2.81573,3.51091,-1.35712,2.77987,2.12839,2.12839,A,145547.90
3.61285,57.68867385,11.98063161,57.68867333,11.98063217,15:55:48.150056,0.01156,1.65407,1.65407,0.01429,-0.01902,0.03466,-0.03213,-0.01487,-0.03782,0.03080,1.06732,3.60233,1.58430,2.08976,2.07870,-1.39009,2.83752,3.51091,-1.35712,2.77987,2.12839,2.12839,A,145547.90
3.66461,57.68867455,11.98063091,57.68867583,11.98063000,15:55:48.201538,0.03856,1.65407,1.65407,0.01463,-0.01826,0.01985,0.00513,0.00117,-0.01836,0.02074,0.92311,3.62863,1.59826,2.07745,2.06683,-1.43205,2.91532,3.66000,-1.48590,3.05786,2.00461,2.00461,A,145548.10
3.69172,57.68867489,11.98063058,57.68867583,11.98063000,15:55:48.228653,0.01301,1.23534,1.23534,0.01540,-0.01647,0.00977,-0.02449,-0.00800,0.04160,0.05771,1.04176,3.68043,1.52568,2.06747,2.05789,-1.45113,2.95274,3.66000,-1.48590,3.05786,2.00461,2.00461,A,145548.10
3.71722,57.68867519,11.98063030,57.68867583,11.98063000,15:55:48.254148,0.01270,1.23534,1.23534,0.01590,-0.01647,0.02779,0.00865,-0.01197,-0.10846,0.02227,1.05011,3.70779,1.46761,2.05906,2.04948,-1.46807,2.98669,3.66000,-1.48590,3.05786,2.00461,2.00461,A,145548.10
3.74203,57.68867547,11.98063005,57.68867583,11.98063000,15:55:48.279207,0.01045,1.23534,1.23534,0.01606,-0.01647,0.02412,0.04194,-0.00372,0.09333,0.00738,0.81795,3.73276,1.42116,2.05194,2.04236,-1.48303,3.01736,3.66000,-1.48590,3.05786,2.00461,2.00461,A,145548.10
3.78176,57.68867596,11.98062962,57.68867700,11.98062933,15:55:48.318690,0.02677,1.23534,1.23534,0.01765,-0.01647,0.02000,-0.00953,-0.00296,-0.11401,0.11419,0.98454,3.75498,1.38399,2.02501,2.01543,-1.50858,3.07181,3.77719,-1.52552,3.18759,1.86724,1.86724,A,145548.20
3.80754,57.68867625,11.98062939,57.68867700,11.98062933,15:55:48.344479,0.01360,1.23534,1.23534,0.01766,-0.01647,0.01588,0.00422,-0.01059,0.04075,-0.00275,1.13655,3.79701,1.35426,2.00240,1.99282,-1.52226,3.10452,3.77719,-1.52552,3.18759,1.86724,1.86724,A,145548.20
3.83362,57.68867652,11.98062919,57.68867700,11.98062933,15:55:48.370556,0.01252,1.51551,1.51551,0.01841,-0.01644,0.02809,-0.01060,-0.00509,0.01751,0.04002,0.95776,3.82249,1.38651,1.98320,1.97363,-1.53405,3.13458,3.77719,-1.52552,3.18759,1.86724,1.86724,A,145548.20
3.85703,57.68867677,11.98062902,57.68867700,11.98062933,15:55:48.393964,0.01282,1.51551,1.51551,0.01945,-0.01599,0.02840,-0.01823,0.00804,-0.00933,0.05618,0.89877,3.84749,1.41231,1.96686,1.95756,-1.54395,3.16146,3.77719,-1.52552,3.18759,1.86724,1.86724,A,145548.20
3.89743,57.68867727,11.98062863,57.68867817,11.98062783,15:55:48.434359,0.02803,1.51551,1.51551,0.02077,-0.01542,0.02977,-0.00525,0.00712,-0.01153,0.08869,1.10038,3.87262,1.43295,1.99846,1.98949,-1.56714,3.21752,3.89299,-1.61468,3.31732,2.17291,2.17291,A,145548.30
3.92423,57.68867758,11.98062837,57.68867817,11.98062783,15:55:48.461187,0.01303,1.51551,1.51551,0.02251,-0.01509,0.01282,0.01476,-0.00800,-0.05874,0.12749,1.02883,3.91441,1.44946,2.02556,2.01678,-1.58269,3.25212,3.89299,-1.61468,3.31732,2.17291,2.17291,A,145548.30
3.94975,57.68867786,11.98062812,57.68867817,11.98062783,15:55:48.486686,0.01314,1.51551,1.51551,0.02271,-0.01435,0.02244,0.00559,-0.00387,0.04349,0.02184,0.94812,3.93762,1.46267,2.04855,2.04020,-1.59769,3.28340,3.89299,-1.61468,3.31732,2.17291,2.17291,A,145548.30
3.97717,57.68867815,11.98062785,57.68867817,11.98062783,15:55:48.514111,0.01432,1.51551,1.51551,0.02333,-0.01364,0.01832,0.01170,0.00193,-0.15104,0.05819,1.10398,3.96550,1.47324,2.06802,2.06008,-1.61369,3.31496,3.89299,-1.61468,3.31732,2.17291,2.17291,A,145548.30
4.01885,57.68867865,11.98062735,57.68867933,11.98062667,15:55:48.555905,0.02816,1.51551,1.51551,0.02338,-0.01359,0.01771,0.03049,0.00728,0.20734,0.01476,0.90609,3.99304,1.48169,2.06766,2.05976,-1.64334,3.37064,4.01313,-1.68402,3.44704,2.06168,2.06168,A,145548.40
4.04072,57.68867888,11.98062712,57.68867933,11.98062667,15:55:48.577655,0.01150,1.24480,1.24480,0.02340,-0.01325,0.02260,-0.00861,0.00483,0.03989,-0.00683,0.95178,4.02999,1.43431,2.06765,2.05995,-1.65734,3.39696,4.01313,-1.68402,3.44704,2.06168,2.06168,A,145548.40
4.06663,57.68867915,11.98062685,57.68867933,11.98062667,15:55:48.603582,0.01321,1.24480,1.24480,0.02328,-0.01206,-0.00795,-0.05885,0.00621,-0.04691,0.05344,1.01644,4.05619,1.39641,2.06749,2.06048,-1.67288,3.42614,4.01313,-1.68402,3.44704,2.06168,2.06168,A,145548.40
4.08966,57.68867939,11.98062661,57.68867933,11.98062667,15:55:48.627526,0.01058,1.24480,1.24480,0.02377,-0.01115,0.02015,0.04331,0.00224,-0.00177,0.05331,1.08763,4.07906,1.36609,2.06732,2.06083,-1.68729,3.45319,4.01313,-1.68402,3.44704,2.06168,2.06168,A,145548.40
4.11305,57.68867959,11.98062641,57.68867933,11.98062667,15:55:48.649985,0.01085,1.24480,1.24480,0.02332,-0.01112,-0.01131,0.02346,0.00590,0.09705,0.03379,0.97405,4.10351,1.34183,2.06722,2.06075,-1.69937,3.47584,4.01313,-1.68402,3.44704,2.06168,2.06168,A,145548.40
4.16318,57.68868019,11.98062581,57.68868167,11.98062417,15:55:48.700107,0.03609,1.24480,1.24480,0.02393,-0.01112,-0.00673,-0.01579,-0.00448,0.03056,0.09638,0.97722,4.12845,1.32243,2.07120,2.06474,-1.73507,3.54182,4.15873,-1.83261,3.70650,2.09090,2.09090,A,145548.60
4.19211,57.68868051,11.98062547,57.68868167,11.98062417,15:55:48.729061,0.01376,1.50818,1.50818,0.02461,-0.01112,-0.00016,0.00849,-0.00250,-0.10730,0.09339,1.01187,4.18062,1.35958,2.07486,2.06839,-1.75486,3.57773,4.15873,-1.83261,3.70650,2.09090,2.09090,A,145548.60
4.21874,57.68868080,11.98062518,57.68868167,11.98062417,15:55:48.755680,0.01422,1.50818,1.50818,0.02395,-0.01112,0.01694,0.03232,0.00987,0.11974,-0.02556,0.96966,4.20724,1.38930,2.07798,2.07151,-1.77258,3.60964,4.15873,-1.83261,3.70650,2.09090,2.09090,A,145548.60
4.23949,57.68868101,11.98062495,57.68868167,11.98062417,15:55:48.776419,0.01096,1.50818,1.50818,0.02484,-0.01112,0.00305,-0.00632,-0.00158,0.04398,0.08790,0.86815,4.22953,1.41307,2.08070,2.07423,-1.78610,3.63371,4.15873,-1.83261,3.70650,2.09090,2.09090,A,145548.60
4.28053,57.68868150,11.98062444,57.68868250,11.98062333,15:55:48.817461,0.02619,1.50818,1.50818,0.02415,-0.01112,-0.00459,-0.00403,-0.02113,-0.08064,0.01086,1.12746,4.25614,1.43209,2.07836,2.07189,-1.81647,3.68841,4.27607,-1.88214,3.79916,2.06168,2.06168,A,145548.70
4.30560,57.68868179,11.98062414,57.68868250,11.98062333,15:55:48.842535,0.01039,1.50818,1.50818,0.02412,-0.01112,-0.01482,-0.03411,-0.02876,-0.11462,0.09132,1.07378,4.29706,1.44731,2.07656,2.07010,-1.83429,3.72048,4.27607,-1.88214,3.79916,2.06168,2.06168,A,145548.70
4.32372,57.68868200,11.98062392,57.68868250,11.98062333,15:55:48.860649,0.00734,1.50818,1.50818,0.02318,-0.01112,0.00839,0.02163,-0.02082,0.06484,-0.02550,0.94843,4.31609,1.45948,2.07511,2.06864,-1.84720,3.74370,4.27607,-1.88214,3.79916,2.06168,2.06168,A,145548.70
4.33873,57.68868215,11.98062377,57.68868250,11.98062333,15:55:48.875668,0.01209,1.50818,1.50818,0.02284,-0.01115,-0.01161,-0.01029,-0.01120,0.19288,0.02879,0.90615,4.32808,1.46922,2.07393,2.06745,-1.85636,3.76011,4.27607,-1.88214,3.79916,2.06168,2.06168,A,145548.70
4.36351,57.68868240,11.98062350,57.68868250,11.98062333,15:55:48.900449,0.01356,1.50818,1.50818,0.02470,-0.01163,0.01175,-0.05168,0.00361,-0.00909,0.15116,0.99881,4.35300,1.47701,2.07285,2.06609,-1.87198,3.78850,4.27607,-1.88214,3.79916,2.06168,2.06168,A,145548.70
4.40318,57.68868289,11.98062302,57.68868367,11.98062233,15:55:48.940116,0.02631,1.39343,1.39343,0.02448,-0.01217,0.03955,-0.01548,-0.01090,-0.06936,-0.03337,1.08049,4.37745,1.46030,2.06256,2.05549,-1.90075,3.84235,4.39872,-1.94157,3.92889,2.00042,2.00042,A,145548.80
4.43111,57.68868320,11.98062272,57.68868367,11.98062233,15:55:48.968041,0.01128,1.39343,1.39343,0.02604,-0.01220,0.02443,0.03186,-0.02815,-0.11004,0.09235,1.11648,4.42048,1.44692,2.05398,2.04689,-1.91879,3.87705,4.39872,-1.94157,3.92889,2.00042,2.00042,A,145548.80
4.45516,57.68868345,11.98062248,57.68868367,11.98062233,15:55:48.992119,0.01139,1.39343,1.39343,0.02656,-0.01220,0.03405,0.02850,-0.01548,0.10815,0.02879,0.98911,4.44481,1.43623,2.04674,2.03965,-1.93287,3.90474,4.39872,-1.94157,3.92889,2.00042,2.00042,A,145548.80
4.48052,57.68868373,11.98062222,57.68868367,11.98062233,15:55:49.018152,0.01170,1.39343,1.39343,0.02700,-0.01220,0.04459,-0.01518,-0.00204,-0.09052,0.00055,0.91823,4.47118,1.42767,2.04054,2.03345,-1.94827,3.93550,4.39872,-1.94157,3.92889,2.00042,2.00042,A,145548.80
4.52277,57.68868422,11.98062173,57.68868467,11.98062067,15:55:49.059912,0.02521,1.39343,1.39343,0.02757,-0.01220,0.04352,0.02606,-0.01212,0.16598,0.00744,0.90780,4.49904,1.42082,2.07978,2.07269,-1.97745,3.98997,4.51837,-2.04063,4.04008,2.29854,2.29854,A,145548.90
4.54805,57.68868446,11.98062145,57.68868467,11.98062067,15:55:49.085623,0.01359,1.39343,1.39343,0.02955,-0.01220,0.04947,-0.00907,-0.01563,-0.13206,0.06198,1.09263,4.53763,1.41534,2.11339,2.10630,-1.99434,4.01749,4.51837,-2.04063,4.04008,2.29854,2.29854,A,145548.90
4.57299,57.68868469,11.98062116,57.68868467,11.98062067,15:55:49.109928,0.01217,1.32288,1.32288,0.03037,-0.01220,0.03833,0.01201,-0.00784,0.15274,0.04904,1.04133,4.56160,1.39685,2.14196,2.13487,-2.01108,4.04294,4.51837,-2.04063,4.04008,2.29854,2.29854,A,145548.90
4.59865,57.68868492,11.98062087,57.68868467,11.98062067,15:55:49.135610,0.01299,1.32288,1.32288,0.03146,-0.01220,0.04184,-0.01472,0.00438,-0.08180,0.05533,1.09037,4.58905,1.38206,2.16622,2.15913,-2.02877,4.06841,4.51837,-2.04063,4.04008,2.29854,2.29854,A,145548.90
4.65026,57.68868552,11.98062014,57.68868700,11.98061883,15:55:49.187196,0.03730,1.32288,1.32288,0.03178,-0.01220,0.03054,-0.02266,0.00438,0.14134,0.01989,0.88212,4.61514,1.37022,2.13698,2.12989,-2.07186,4.13551,4.64576,-2.14960,4.29954,1.96841,1.96841,A,145549.10
4.67498,57.68868582,11.98061982,57.68868700,11.98061883,15:55:49.211937,0.01172,1.32288,1.32288,0.03138,-0.01220,0.00167,0.02560,-0.03609,-0.00732,0.02409,1.05030,4.66535,1.36075,2.11249,2.10539,-2.09094,4.16799,4.64576,-2.14960,4.29954,1.96841,1.96841,A,145549.10
4.70426,57.68868615,11.98061947,57.68868700,11.98061883,15:55:49.241214,0.01245,1.32288,1.32288,0.03191,-0.01220,-0.01253,-0.00708,-0.01960,-0.08802,0.12243,1.08293,4.69318,1.35318,2.09160,2.08451,-2.11188,4.20498,4.64576,-2.14960,4.29954,1.96841,1.96841,A,145549.10
4.73201,57.68868643,11.98061918,57.68868700,11.98061883,15:55:49.268949,0.01417,1.50982,1.50982,0.03075,-0.01361,-0.01894,0.03140,-0.02082,0.15268,0.01135,0.97545,4.72136,1.38451,2.07402,2.06610,-2.12897,4.23666,4.64576,-2.14960,4.29954,1.96841,1.96841,A,145549.10
4.77246,57.68868692,11.98061870,57.68868800,11.98061767,15:55:49.309391,0.02677,1.50982,1.50982,0.03085,-0.01995,-0.04063,-0.01090,-0.03197,0.00299,0.13091,1.00937,4.74799,1.40957,2.08337,2.07177,-2.15780,4.29041,4.76803,-2.21894,4.41073,2.12839,2.12839,A,145549.20
4.79715,57.68868720,11.98061841,57.68868800,11.98061767,15:55:49.334099,0.01204,1.50982,1.50982,0.02811,-0.02884,-0.06461,-0.00830,-0.04633,0.06930,0.02757,0.97698,4.78592,1.42962,2.09220,2.07542,-2.17461,4.32154,4.76803,-2.21894,4.41073,2.12839,2.12839,A,145549.20
4.82505,57.68868752,11.98061808,57.68868800,11.98061767,15:55:49.361976,0.01281,1.50982,1.50982,0.02606,-0.03170,-0.05957,0.01827,-0.03701,-0.14335,0.02568,1.00833,4.81537,1.44566,2.09958,2.08115,-2.19422,4.35749,4.76803,-2.21894,4.41073,2.12839,2.12839,A,145549.20
4.84970,57.68868778,11.98061781,57.68868800,11.98061767,15:55:49.386661,0.01046,1.50982,1.50982,0.02454,-0.03241,-0.06216,0.02728,-0.02724,0.11736,0.04124,0.94013,4.84022,1.45849,2.10599,2.08714,-2.21021,4.38650,4.76803,-2.21894,4.41073,2.12839,2.12839,A,145549.20
4.88899,57.68868827,11.98061731,57.68868917,11.98061667,15:55:49.425924,0.02615,1.50982,1.50982,0.02333,-0.03241,-0.04750,-0.01640,-0.02663,-0.01275,0.04081,1.04780,4.86474,1.46876,2.09163,2.07279,-2.23996,4.44061,4.88455,-2.27838,4.54046,2.00042,2.00042,A,145549.30
4.91538,57.68868857,11.98061702,57.68868917,11.98061667,15:55:49.452311,0.01259,1.43187,1.43187,0.02154,-0.03241,-0.05346,-0.00357,-0.04098,0.08906,0.06252,0.98362,4.90472,1.46138,2.07996,2.06112,-2.25743,4.47392,4.88455,-2.27838,4.54046,2.00042,2.00042,A,145549.30
4.93941,57.68868881,11.98061679,57.68868917,11.98061667,15:55:49.476350,0.01243,1.43187,1.43187,0.02057,-0.03241,-0.03956,-0.00403,-0.02968,-0.10529,0.03465,0.95563,4.92808,1.45548,2.07020,2.05135,-2.27083,4.50039,4.88455,-2.27838,4.54046,2.00042,2.00042,A,145549.30
4.96333,57.68868906,11.98061656,57.68868917,11.98061667,15:55:49.500267,0.01240,1.43187,1.43187,0.01940,-0.03241,-0.04765,0.00177,-0.02479,-0.03794,0.04117,1.03755,4.95302,1.45076,2.06181,2.04296,-2.28491,4.52868,4.88455,-2.27838,4.54046,2.00042,2.00042,A,145549.30
5.00493,57.68868956,11.98061608,57.68869017,11.98061550,15:55:49.541857,0.02785,1.43187,1.43187,0.01945,-0.03241,-0.03956,0.04713,-0.02968,-0.02885,0.11376,1.00668,4.98006,1.44698,2.07323,2.05438,-2.31314,4.58395,5.00037,-2.34772,4.65165,2.12839,2.12839,A,145549.40
5.02953,57.68868975,11.98061589,57.68869017,11.98061550,15:55:49.566498,0.02059,1.43187,1.43187,0.00000,-0.03241,-0.06262,-0.02052,-0.03121,-0.07357,0.11785,1.02266,5.01232,1.43187,2.05705,2.03820,-2.34772,4.65165,5.00037,-2.34772,4.65165,2.12839,2.12839,A,145549.40
5.05491,57.68869048,11.98061521,57.68869017,11.98061550,15:55:49.591835,0.01243,1.65974,1.65974,-0.00253,-0.08585,-0.06201,-0.03442,-0.01487,0.04282,-0.03001,0.98125,5.04506,1.47744,2.07428,2.02428,-2.36507,4.68603,5.00037,-2.34772,4.65165,2.12839,2.12839,A,145549.40
5.07886,57.68869070,11.98061501,57.68869017,11.98061550,15:55:49.615780,0.01301,1.65974,1.65974,-0.00259,-0.08464,-0.03422,0.02545,0.01308,-0.22039,0.06344,1.18669,5.06829,1.51390,2.08783,2.03854,-2.37704,4.71067,5.00037,-2.34772,4.65165,2.12839,2.12839,A,145549.40
5.12042,57.68869118,11.98061454,57.68869117,11.98061433,15:55:49.657337,0.02753,1.65974,1.65974,-0.00461,-0.08218,-0.04567,-0.00052,0.00483,0.21936,-0.04544,0.85339,5.09544,1.54307,2.09731,2.04945,-2.40492,4.76451,5.11642,-2.41706,4.76285,2.12839,2.12839,A,145549.50
5.13951,57.68869138,11.98061434,57.68869117,11.98061433,15:55:49.676436,0.00814,1.65974,1.65974,-0.00561,-0.07816,-0.03910,0.01918,-0.01716,0.00189,0.02708,0.98521,5.13140,1.56640,2.10721,2.06170,-2.41695,4.78643,5.11642,-2.41706,4.76285,2.12839,2.12839,A,145549.50
5.15268,57.68869147,11.98061423,57.68869117,11.98061433,15:55:49.689606,0.01126,1.65974,1.65974,-0.00715,-0.07598,-0.04323,0.00025,-0.01533,0.13170,-0.06960,0.98332,5.14220,1.58507,2.11623,2.07200,-2.42308,4.79671,5.11642,-2.41706,4.76285,2.12839,2.12839,A,145549.50
5.17349,57.68869166,11.98061403,57.68869117,11.98061433,15:55:49.710419,0.01115,1.65974,1.65974,-0.00662,-0.07114,-0.04933,-0.00754,-0.00066,-0.23741,0.13213,1.19078,5.16428,1.60000,2.12277,2.08136,-2.43495,4.81723,5.11642,-2.41706,4.76285,2.12839,2.12839,A,145549.50
5.19896,57.68869190,11.98061377,57.68869117,11.98061433,15:55:49.735895,0.01234,1.65974,1.65974,-0.00807,-0.06661,-0.02047,0.05706,0.01568,0.13878,-0.05832,0.92897,5.18851,1.61195,2.12755,2.08878,-2.45067,4.84417,5.11642,-2.41706,4.76285,2.12839,2.12839,A,145549.50
5.24730,57.68869254,11.98061309,57.68869350,11.98061200,15:55:49.784217,0.03609,1.65974,1.65974,-0.00851,-0.06361,-0.03467,-0.02770,0.03079,-0.18019,0.02458,0.96203,5.21207,1.62151,2.11952,2.08250,-2.49124,4.91505,5.24357,-2.55574,5.02230,2.06168,2.06168,A,145549.70
5.27046,57.68869284,11.98061276,57.68869350,11.98061200,15:55:49.807397,0.01084,1.19381,1.19381,-0.00963,-0.05373,-0.02123,-0.00815,0.01919,-0.05972,0.00518,1.08604,5.26175,1.53597,2.11393,2.08267,-2.51030,4.94862,5.24357,-2.55574,5.02230,2.06168,2.06168,A,145549.70
5.29444,57.68869312,11.98061247,57.68869350,11.98061200,15:55:49.832024,0.01178,1.19381,1.19381,-0.00954,-0.04821,-0.01742,-0.00311,0.00758,0.10138,0.03916,0.93708,5.28521,1.46754,2.10899,2.08094,-2.52793,4.97963,5.24357,-2.55574,5.02230,2.06168,2.06168,A,145549.70
5.32061,57.68869338,11.98061219,57.68869350,11.98061200,15:55:49.857542,0.01246,1.19381,1.19381,-0.00839,-0.04266,-0.00764,-0.01777,0.01109,0.06948,0.09388,0.94300,5.30991,1.41279,2.10445,2.07963,-2.54447,5.00885,5.24357,-2.55574,5.02230,2.06168,2.06168,A,145549.70
5.34680,57.68869361,11.98061195,57.68869350,11.98061200,15:55:49.883731,0.01356,1.19381,1.19381,-0.00848,-0.03867,0.00855,-0.01304,0.04515,-0.09315,-0.01000,1.08848,5.33592,1.36900,2.10046,2.07797,-2.55893,5.03443,5.24357,-2.55574,5.02230,2.06168,2.06168,A,145549.70
5.38550,57.68869404,11.98061151,57.68869467,11.98061117,15:55:49.922417,0.02597,1.19381,1.19381,-0.00768,-0.03686,-0.00718,0.00315,0.05584,-0.00323,0.07893,1.02340,5.36061,1.33396,2.07749,2.05604,-2.58466,5.08243,5.38182,-2.60527,5.15203,1.93552,1.93552,A,145549.80
5.41203,57.68869432,11.98061125,57.68869467,11.98061117,15:55:49.949767,0.01165,1.46444,1.46444,-0.00897,-0.03669,-0.01299,-0.00265,0.02301,0.07216,-0.03916,1.00443,5.40352,1.36006,2.05851,2.03716,-2.60009,5.11323,5.38182,-2.60527,5.15203,1.93552,1.93552,A,145549.80
5.44023,57.68869460,11.98061100,57.68869467,11.98061117,15:55:49.977156,0.01241,1.46444,1.46444,-0.00819,-0.03669,-0.01299,-0.00876,0.00667,-0.04069,0.08930,1.04212,5.43142,1.38093,2.04233,2.02098,-2.61500,5.14428,5.38182,-2.60527,5.15203,1.93552,1.93552,A,145549.80
5.46514,57.68869483,11.98061080,57.68869467,11.98061117,15:55:50.002065,0.01243,1.46444,1.46444,-0.00816,-0.03669,0.00900,-0.01441,0.03263,0.13859,-0.00305,0.88505,5.45576,1.39763,2.02869,2.00735,-2.62700,5.17050,5.38182,-2.60527,5.15203,1.93552,1.93552,A,145549.80
5.50418,57.68869526,11.98061041,57.68869567,11.98060983,15:55:50.041101,0.02742,1.46444,1.46444,-0.00777,-0.03669,0.00625,-0.00907,0.04210,-0.08845,0.02708,1.02962,5.47856,1.41099,2.05472,2.03338,-2.65011,5.21850,5.49927,-2.68452,5.26323,2.18999,2.18999,A,145549.90
5.53084,57.68869555,11.98061014,57.68869567,11.98060983,15:55:50.068501,0.01094,1.46444,1.46444,-0.00797,-0.03669,0.01633,0.01002,0.01675,0.00220,-0.05094,1.04615,5.52136,1.42168,2.07727,2.05593,-2.66646,5.25007,5.49927,-2.68452,5.26323,2.18999,2.18999,A,145549.90
5.55951,57.68869583,11.98060985,57.68869567,11.98060983,15:55:50.096437,0.01405,1.46444,1.46444,-0.00611,-0.03669,0.00778,0.01659,0.00667,0.08632,0.12273,1.01888,5.54984,1.43024,2.09639,2.07505,-2.68355,5.28144,5.49927,-2.68452,5.26323,2.18999,2.18999,A,145549.90
5.57973,57.68869602,11.98060965,57.68869567,11.98060983,15:55:50.116652,0.00923,1.46444,1.46444,-0.00559,-0.03669,0.02626,-0.00647,0.01247,0.04368,0.00726,0.96715,5.57243,1.43708,2.11293,2.09159,-2.69547,5.30205,5.49927,-2.68452,5.26323,2.18999,2.18999,A,145549.90
5.59237,57.68869610,11.98060955,57.68869567,11.98060983,15:55:50.129288,0.01181,1.46444,1.46444,-0.00588,-0.03669,0.02657,-0.01228,0.01400,-0.02086,-0.02428,0.98777,5.58249,1.44255,2.12733,2.10599,-2.70121,5.31105,5.49927,-2.68452,5.26323,2.18999,2.18999,A,145549.90
5.64223,57.68869671,11.98060889,57.68869817,11.98060767,15:55:50.179159,0.03664,1.22632,1.22632,-0.00457,-0.03686,0.02473,-0.01319,0.02026,0.07613,0.06295,1.00589,5.60645,1.39930,2.11026,2.08882,-2.74043,5.37927,5.63857,-2.81330,5.54121,2.00461,2.00461,A,145550.10
5.66804,57.68869702,11.98060858,57.68869817,11.98060767,15:55:50.204959,0.01330,1.22632,1.22632,-0.00311,-0.03865,0.02794,0.02346,0.01919,-0.02043,0.01867,0.93495,5.65667,1.36471,2.09692,2.07444,-2.75894,5.41344,5.63857,-2.81330,5.54121,2.00461,2.00461,A,145550.10
5.69488,57.68869731,11.98060829,57.68869817,11.98060767,15:55:50.231800,0.01213,1.22632,1.22632,-0.00109,-0.03981,0.01832,0.00391,0.01140,0.03465,0.11810,1.00705,5.68532,1.33703,2.08565,2.06249,-2.77615,5.44613,5.63857,-2.81330,5.54121,2.00461,2.00461,A,145550.10
5.72175,57.68869759,11.98060802,57.68869817,11.98060767,15:55:50.259518,0.01304,1.22632,1.22632,-0.00162,-0.04201,0.02000,0.00361,-0.00005,0.03562,-0.05270,1.04963,5.71070,1.31489,2.07623,2.05179,-2.79218,5.47734,5.63857,-2.81330,5.54121,2.00461,2.00461,A,145550.10
5.76126,57.68869806,11.98060759,57.68869933,11.98060667,15:55:50.298172,0.02627,1.22632,1.22632,-0.00082,-0.04524,0.00473,0.00208,0.00239,-0.02904,0.06478,1.03218,5.73779,1.29718,2.06726,2.04094,-2.81809,5.52896,5.75759,-2.87273,5.67094,2.00042,2.00042,A,145550.20
5.78331,57.68869832,11.98060735,57.68869933,11.98060667,15:55:50.320234,0.01192,1.56111,1.56111,-0.00021,-0.04892,0.01328,-0.02785,0.00560,0.07351,0.02013,0.92043,5.77436,1.34996,2.06064,2.03218,-2.83191,5.55788,5.75759,-2.87273,5.67094,2.00042,2.00042,A,145550.20
5.80903,57.68869860,11.98060710,57.68869933,11.98060667,15:55:50.345959,0.01019,1.56111,1.56111,-0.00007,-0.05093,-0.00016,-0.04129,-0.00723,-0.05716,0.02379,1.01785,5.79926,1.39219,2.05494,2.02531,-2.84689,5.58955,5.75759,-2.87273,5.67094,2.00042,2.00042,A,145550.20
5.83611,57.68869890,11.98060684,57.68869933,11.98060667,15:55:50.373050,0.01220,1.56111,1.56111,0.00041,-0.05229,0.00687,-0.00754,-0.00402,0.03324,0.03447,1.01010,5.82667,1.42597,2.05006,2.01964,-2.86221,5.62233,5.75759,-2.87273,5.67094,2.00042,2.00042,A,145550.20
5.85674,57.68869910,11.98060667,57.68869933,11.98060667,15:55:50.393669,0.01096,1.56111,1.56111,0.00093,-0.05356,-0.00596,-0.01243,-0.00723,-0.00159,0.05472,0.97130,5.84663,1.45300,2.04635,2.01519,-2.87272,5.64549,5.75759,-2.87273,5.67094,2.00042,2.00042,A,145550.20
5.89692,57.68869961,11.98060623,57.68870050,11.98060567,15:55:50.433833,0.02560,1.56111,1.56111,0.00155,-0.05656,0.00320,0.02468,-0.01227,-0.03666,0.05014,1.01394,5.87347,1.47462,2.04218,2.00927,-2.89855,5.70126,5.89309,-2.93217,5.80067,2.00042,2.00042,A,145550.30
5.91798,57.68869985,11.98060603,57.68870050,11.98060567,15:55:50.455123,0.01067,1.56111,1.56111,0.00177,-0.05996,-0.00123,-0.02663,-0.01395,-0.05923,0.03544,1.08104,5.90847,1.49192,2.04009,2.00520,-2.91046,5.72805,5.89309,-2.93217,5.80067,2.00042,2.00042,A,145550.30
5.94592,57.68870018,11.98060575,57.68870050,11.98060567,15:55:50.483100,0.01304,1.42867,1.42867,0.00134,-0.06058,0.00060,0.00498,-0.01563,0.13164,-0.01403,0.99210,5.93605,1.47927,2.03771,2.00245,-2.92706,5.76511,5.89309,-2.93217,5.80067,2.00042,2.00042,A,145550.30
5.97287,57.68870047,11.98060551,57.68870050,11.98060567,15:55:50.509789,0.01242,1.42867,1.42867,0.00209,-0.06058,0.00824,-0.03793,-0.01609,-0.07100,0.05026,0.97960,5.96298,1.46915,2.03582,2.00057,-2.94134,5.79733,5.89309,-2.93217,5.80067,2.00042,2.00042,A,145550.30
5.99037,57.68870064,11.98060538,57.68870050,11.98060567,15:55:50.527305,0.00873,1.42867,1.42867,0.00232,-0.06058,0.01282,0.00345,-0.00616,-0.07948,0.01598,0.99869,5.98105,1.46106,2.03485,1.99960,-2.94922,5.81570,5.89309,-2.93217,5.80067,2.00042,2.00042,A,145550.30
6.01513,57.68870095,11.98060511,57.68870167,11.98060450,15:55:50.552045,0.02327,1.42867,1.42867,0.00246,-0.06058,0.01954,0.01140,-0.00586,0.02458,0.01269,0.98576,5.99130,1.45458,2.04265,2.00739,-2.96521,5.85068,6.01139,-3.00151,5.93040,2.06168,2.06168,A,145550.40
6.04165,57.68870125,11.98060485,57.68870167,11.98060450,15:55:50.578589,0.01093,1.42867,1.42867,0.00335,-0.06058,0.02260,0.00773,-0.00494,0.00012,0.01501,0.99753,6.03259,1.44940,2.04924,2.01399,-2.98092,5.88445,6.01139,-3.00151,5.93040,2.06168,2.06168,A,145550.40
6.06802,57.68870154,11.98060460,57.68870167,11.98060450,15:55:50.604948,0.01316,1.42867,1.42867,0.00383,-0.06058,0.01084,-0.00494,-0.00906,0.04069,0.03080,0.99698,6.05840,1.44525,2.05486,2.01961,-2.99587,5.91606,6.01139,-3.00151,5.93040,2.06168,2.06168,A,145550.40
6.09145,57.68870176,11.98060440,57.68870167,11.98060450,15:55:50.628380,0.01296,1.42867,1.42867,0.00415,-0.06058,0.00106,-0.02205,-0.00784,-0.06881,0.03697,0.97691,6.08046,1.44194,2.05994,2.02469,-3.00746,5.94026,6.01139,-3.00151,5.93040,2.06168,2.06168,A,145550.40
6.14290,57.68870242,11.98060379,57.68870400,11.98060217,15:55:50.679823,0.03817,1.35531,1.35531,0.00489,-0.06058,0.00732,-0.01136,0.00514,-0.03569,0.05344,0.96112,6.10753,1.42461,2.06229,2.02703,-3.04391,6.01386,6.13918,-3.14020,6.18985,2.06168,2.06168,A,145550.60
6.17096,57.68870276,11.98060346,57.68870400,11.98060217,15:55:50.707885,0.01338,1.35531,1.35531,0.00375,-0.06058,-0.01787,0.00254,0.00056,-0.06295,0.00775,1.06280,6.16112,1.41075,2.06594,2.03069,-3.06314,6.05202,6.13918,-3.14020,6.18985,2.06168,2.06168,A,145550.60
6.19353,57.68870304,11.98060320,57.68870400,11.98060217,15:55:50.730456,0.01184,1.35531,1.35531,0.00391,-0.06058,-0.02307,0.01323,-0.00479,0.07320,0.06393,0.99674,6.18354,1.39966,2.06932,2.03407,-3.07893,6.08302,6.13918,-3.14020,6.18985,2.06168,2.06168,A,145550.60
6.22318,57.68870337,11.98060288,57.68870400,11.98060217,15:55:50.760111,0.01381,1.35531,1.35531,0.00372,-0.06058,-0.04048,-0.03366,0.00621,-0.15049,0.08741,1.02535,6.21299,1.39079,2.07181,2.03656,-3.09763,6.11967,6.13918,-3.14020,6.18985,2.06168,2.06168,A,145550.60
6.26309,57.68870386,11.98060241,57.68870517,11.98060083,15:55:50.800013,0.02624,1.35531,1.35531,0.00232,-0.06058,-0.02826,0.02911,0.01705,0.02355,-0.02629,0.97527,6.23866,1.38370,2.08187,2.04661,-3.12599,6.17396,6.25879,-3.21944,6.31958,2.11918,2.11918,A,145550.70
6.28845,57.68870415,11.98060211,57.68870517,11.98060083,15:55:50.825378,0.01256,1.47025,1.47025,0.00125,-0.06058,-0.04109,0.02514,0.01277,-0.02635,0.05362,1.00302,6.27890,1.40101,2.09141,2.05615,-3.14369,6.20653,6.25879,-3.21944,6.31958,2.11918,2.11918,A,145550.70
6.31133,57.68870441,11.98060183,57.68870517,11.98060083,15:55:50.848252,0.01138,1.47025,1.47025,-0.00038,-0.06058,-0.07209,-0.02373,-0.01151,0.13450,0.01311,0.95459,6.30175,1.41485,2.09961,2.06435,-3.15992,6.23577,6.25879,-3.21944,6.31958,2.11918,2.11918,A,145550.70
6.33781,57.68870471,11.98060153,57.68870517,11.98060083,15:55:50.874732,0.01314,1.47025,1.47025,-0.00179,-0.06058,-0.05285,0.00055,-0.01731,-0.06777,0.01501,1.08281,6.32877,1.42593,2.10630,2.07104,-3.17827,6.26853,6.25879,-3.21944,6.31958,2.11918,2.11918,A,145550.70
6.35853,57.68870492,11.98060130,57.68870517,11.98060083,15:55:50.895456,0.00947,1.47025,1.47025,-0.00396,-0.06058,-0.05697,0.00972,-0.00769,0.07137,-0.05289,0.97679,6.34986,1.43480,2.11240,2.07715,-3.19167,6.29183,6.25879,-3.21944,6.31958,2.11918,2.11918,A,145550.70
6.38472,57.68870524,11.98060095,57.68870617,11.98059983,15:55:50.921641,0.02539,1.47025,1.47025,-0.00367,-0.06058,-0.06735,0.00422,0.00499,-0.02574,0.07808,1.01669,6.36061,1.44189,2.10851,2.07325,-3.21225,6.32804,6.38104,-3.27888,6.43077,2.06168,2.06168,A,145550.80
6.40881,57.68870552,11.98060067,57.68870617,11.98059983,15:55:50.946096,0.01217,1.47025,1.47025,-0.00554,-0.06058,-0.03498,0.00483,0.00071,0.13335,-0.02446,0.91396,6.39938,1.44756,2.10541,2.07016,-3.22944,6.35839,6.38104,-3.27888,6.43077,2.06168,2.06168,A,145550.80
6.43601,57.68870580,11.98060036,57.68870617,11.98059983,15:55:50.972942,0.01152,1.47025,1.47025,-0.00691,-0.06058,-0.05132,-0.04251,-0.02174,0.02824,0.00390,0.98802,6.42520,1.45210,2.10262,2.06737,-3.24733,6.39027,6.38104,-3.27888,6.43077,2.06168,2.06168,A,145550.80
6.45455,57.68870600,11.98060016,57.68870617,11.98059983,15:55:50.991478,0.00714,1.37651,1.37651,-0.00813,-0.06058,-0.04765,0.03232,-0.02861,0.01745,-0.00360,1.06805,6.44740,1.43698,2.10070,2.06545,-3.25969,6.41219,6.38104,-3.27888,6.43077,2.06168,2.06168,A,145550.80
6.46799,57.68870612,11.98060003,57.68870617,11.98059983,15:55:51.004921,0.01007,1.37651,1.37651,-0.00976,-0.06067,-0.05483,0.04240,-0.02663,0.17971,-0.06326,0.95477,6.45739,1.42488,2.09950,2.06419,-3.26715,6.42519,6.38104,-3.27888,6.43077,2.06168,2.06168,A,145550.80
6.50551,57.68870657,11.98059957,57.68870750,11.98059850,15:55:51.042428,0.02629,1.37651,1.37651,-0.01014,-0.06239,-0.04491,0.00483,-0.02021,-0.01848,0.05087,0.97948,6.48207,1.41521,2.09698,2.06067,-3.29471,6.47566,6.50187,-3.35813,6.57903,2.06168,2.06168,A,145550.90
6.52898,57.68870685,11.98059928,57.68870750,11.98059850,15:55:51.065903,0.01192,1.37651,1.37651,-0.01169,-0.06754,-0.03971,-0.03167,-0.01365,0.16385,-0.00171,0.92500,6.51973,1.40747,2.09617,2.05686,-3.31152,6.50640,6.50187,-3.35813,6.57903,2.06168,2.06168,A,145550.90
6.54811,57.68870706,11.98059907,57.68870750,11.98059850,15:55:51.085029,0.00712,1.37651,1.37651,-0.01180,-0.06893,-0.02108,-0.00998,-0.01426,-0.03751,0.02788,1.11337,6.54093,1.40127,2.09582,2.05569,-3.32448,6.53017,6.50187,-3.35813,6.57903,2.06168,2.06168,A,145550.90
6.56048,57.68870718,11.98059894,57.68870750,11.98059850,15:55:51.097425,0.00908,1.37651,1.37651,-0.01245,-0.06910,-0.01513,0.01903,-0.01869,0.01751,-0.03209,1.08214,6.55198,1.39632,2.09608,2.05585,-3.33184,6.54339,6.50187,-3.35813,6.57903,2.06168,2.06168,A,145550.90
6.57099,57.68870729,11.98059882,57.68870750,11.98059850,15:55:51.107917,0.00939,1.37651,1.37651,-0.01313,-0.06910,-0.02062,0.03018,-0.02434,0.10431,-0.03166,1.01406,6.56154,1.39236,2.09628,2.05606,-3.33896,6.55617,6.50187,-3.35813,6.57903,2.06168,2.06168,A,145550.90
6.58051,57.68870739,11.98059873,57.68870750,11.98059850,15:55:51.117431,0.00874,1.37651,1.37651,-0.01306,-0.06910,-0.02139,0.00911,-0.02281,0.15061,0.02117,0.99759,6.57267,1.38919,2.09658,2.05636,-3.34464,6.56628,6.50187,-3.35813,6.57903,2.06168,2.06168,A,145550.90
6.59320,57.68870749,11.98059862,57.68870750,11.98059850,15:55:51.130149,0.01016,1.37651,1.37651,-0.01238,-0.06910,-0.01085,-0.00662,-0.02235,0.03928,0.05081,0.95154,6.58401,1.38665,2.09669,2.05647,-3.35126,6.57818,6.50187,-3.35813,6.57903,2.06168,2.06168,A,145550.90
6.64263,57.68870811,11.98059800,57.68870967,11.98059633,15:55:51.179552,0.03767,1.61707,1.61707,-0.01258,-0.06910,0.03176,0.01567,-0.01624,0.01702,-0.06332,0.97618,6.60706,1.43274,2.09404,2.05382,-3.38781,6.64666,6.63892,-3.48691,6.81996,2.06168,2.06168,A,145551.10
6.66802,57.68870842,11.98059769,57.68870967,11.98059633,15:55:51.204944,0.01252,1.61707,1.61707,-0.00991,-0.06910,0.03099,-0.02846,-0.01303,-0.03416,0.07369,1.00943,6.65739,1.46960,2.09363,2.05341,-3.40650,6.68152,6.63892,-3.48691,6.81996,2.06168,2.06168,A,145551.10
6.69300,57.68870873,11.98059737,57.68870967,11.98059633,15:55:51.229925,0.01213,1.61707,1.61707,-0.00945,-0.06910,0.05070,0.00590,-0.00983,0.06442,-0.05533,1.04035,6.68261,1.49910,2.09319,2.05297,-3.42501,6.71610,6.63892,-3.48691,6.81996,2.06168,2.06168,A,145551.10
6.71575,57.68870901,11.98059710,57.68870967,11.98059633,15:55:51.252679,0.01190,1.61707,1.61707,-0.00844,-0.06910,0.04871,0.02239,-0.00341,0.03977,-0.00756,1.01455,6.70606,1.52269,2.09297,2.05275,-3.44125,6.74641,6.63892,-3.48691,6.81996,2.06168,2.06168,A,145551.10
6.73718,57.68870926,11.98059684,57.68870967,11.98059633,15:55:51.274102,0.00808,1.61707,1.61707,-0.00700,-0.06910,0.04214,0.01628,0.00010,0.05368,0.03032,0.97142,6.72983,1.54157,2.09279,2.05256,-3.45666,6.77517,6.63892,-3.48691,6.81996,2.06168,2.06168,A,145551.10
6.76438,57.68870964,11.98059647,57.68871100,11.98059500,15:55:51.301303,0.02488,1.61707,1.61707,-0.00517,-0.06910,0.04932,-0.00036,0.00086,0.11059,0.08650,0.93971,6.73953,1.55667,2.09222,2.05200,-3.47874,6.81659,6.75976,-3.56615,6.96822,2.06168,2.06168,A,145551.20
6.77945,57.68870986,11.98059625,57.68871100,11.98059500,15:55:51.316373,0.00695,1.61707,1.61707,-0.00361,-0.06910,0.05131,-0.03976,0.00911,-0.05398,-0.00037,1.03810,6.77201,1.56875,2.09265,2.05243,-3.49191,6.84102,6.75976,-3.56615,6.96822,2.06168,2.06168,A,145551.20
6.79199,57.68871001,11.98059609,57.68871100,11.98059500,15:55:51.328923,0.00925,1.61707,1.61707,-0.00355,-0.06904,0.05696,-0.02190,0.00483,-0.13249,-0.02849,1.12020,6.78195,1.57841,2.09340,2.05321,-3.50111,6.85787,6.75976,-3.56615,6.96822,2.06168,2.06168,A,145551.20
6.80343,57.68871015,11.98059595,57.68871100,11.98059500,15:55:51.340358,0.01064,1.21508,1.21508,-0.00319,-0.06884,0.05467,0.01964,0.00957,0.02843,0.00000,1.05786,6.79220,1.50575,2.09402,2.05394,-3.50985,6.87387,6.75976,-3.56615,6.96822,2.06168,2.06168,A,145551.20
6.82417,57.68871039,11.98059571,57.68871100,11.98059500,15:55:51.361097,0.01042,1.21508,1.21508,-0.00201,-0.06817,0.03573,-0.01014,0.00773,-0.01311,0.03880,1.01236,6.81501,1.44762,2.09383,2.05415,-3.52383,6.89988,6.75976,-3.56615,6.96822,2.06168,2.06168,A,145551.20
6.85213,57.68871069,11.98059541,57.68871100,11.98059500,15:55:51.389053,0.01381,1.21508,1.21508,-0.00078,-0.06763,0.03863,0.01140,-0.00219,0.00043,0.02556,0.98003,6.84256,1.40111,2.09309,2.05373,-3.54187,6.93362,6.75976,-3.56615,6.96822,2.06168,2.06168,A,145551.20
6.89305,57.68871118,11.98059493,57.68871217,11.98059400,15:55:51.429968,0.02546,1.21508,1.21508,-0.00028,-0.06760,0.01878,-0.01289,-0.01258,0.11614,0.01379,0.89780,6.86906,1.36390,2.08234,2.04299,-3.57034,6.98816,6.88937,-3.62559,7.09794,2.00042,2.00042,A,145551.30
6.91382,57.68871141,11.98059471,57.68871217,11.98059400,15:55:51.451501,0.00947,1.21508,1.21508,0.00074,-0.06746,0.02565,0.01048,0.00499,-0.08869,0.02586,1.08488,6.90526,1.33414,2.07474,2.03547,-3.58351,7.01402,6.88937,-3.62559,7.09794,2.00042,2.00042,A,145551.30
6.92567,57.68871154,11.98059459,57.68871217,11.98059400,15:55:51.462590,0.01023,1.21508,1.21508,0.00086,-0.06746,0.02428,0.02025,0.00361,0.23235,0.00689,0.92116,6.91561,1.31033,2.06892,2.02965,-3.59038,7.02772,6.88937,-3.62559,7.09794,2.00042,2.00042,A,145551.30
6.95447,57.68871182,11.98059432,57.68871217,11.98059400,15:55:51.491404,0.01461,1.21508,1.21508,0.00124,-0.06746,0.00198,-0.02862,0.01186,-0.10962,0.04087,1.03706,6.94301,1.29128,2.06286,2.02359,-3.60628,7.05987,6.88937,-3.62559,7.09794,2.00042,2.00042,A,145551.30
6.98062,57.68871207,11.98059410,57.68871217,11.98059400,15:55:51.517540,0.01254,1.55407,1.55407,0.00051,-0.06746,0.00183,0.00987,-0.00708,0.12334,-0.03910,0.97704,6.97040,1.34384,2.05790,2.01864,-3.61953,7.08702,6.88937,-3.62559,7.09794,2.00042,2.00042,A,145551.30
7.02108,57.68871252,11.98059369,57.68871317,11.98059300,15:55:51.558006,0.02722,1.55407,1.55407,0.00100,-0.06746,-0.01131,-0.03824,-0.01258,-0.09485,0.06771,1.04908,6.99686,1.38588,2.06178,2.02252,-3.64404,7.13732,7.01700,-3.68503,7.20914,2.06168,2.06168,A,145551.40
7.04440,57.68871278,11.98059345,57.68871317,11.98059300,15:55:51.582334,0.01001,1.55407,1.55407,0.00102,-0.06746,-0.00657,0.00544,0.00010,0.15018,0.02806,0.94605,7.03653,1.41952,2.06618,2.02691,-3.65841,7.16631,7.01700,-3.68503,7.20914,2.06168,2.06168,A,145551.40
7.07197,57.68871306,11.98059319,57.68871317,11.98059300,15:55:51.608889,0.01162,1.55407,1.55407,0.00201,-0.06746,0.01374,0.00239,0.00819,-0.10138,0.05435,0.97557,7.06133,1.44643,2.06969,2.03042,-3.67402,7.19756,7.01700,-3.68503,7.20914,2.06168,2.06168,A,145551.40
7.09675,57.68871331,11.98059295,57.68871317,11.98059300,15:55:51.633672,0.01107,1.55407,1.55407,0.00207,-0.06661,0.00396,0.00559,0.01140,0.05649,0.01000,0.98051,7.08771,1.46796,2.07272,2.03395,-3.68796,7.22518,7.01700,-3.68503,7.20914,2.06168,2.06168,A,145551.40
7.14971,57.68871400,11.98059230,57.68871583,11.98059050,15:55:51.686630,0.03797,1.55407,1.55407,0.00325,-0.06335,0.01740,-0.01884,0.01125,-0.06472,0.06368,1.01083,7.11375,1.48518,2.06899,2.03212,-3.72667,7.30214,7.14516,-3.83361,7.50566,2.03533,2.03533,A,145551.60
7.17573,57.68871435,11.98059198,57.68871583,11.98059050,15:55:51.712660,0.01339,1.27655,1.27655,0.00486,-0.05645,0.01771,-0.01212,0.01507,0.02702,0.07399,1.06732,7.16402,1.44345,2.06733,2.03448,-3.74594,7.34032,7.14516,-3.83361,7.50566,2.03533,2.03533,A,145551.60
7.20264,57.68871468,11.98059166,57.68871583,11.98059050,15:55:51.739569,0.01140,1.27655,1.27655,0.00539,-0.05254,0.04336,-0.01854,0.02835,0.00195,-0.02330,0.99363,7.19264,1.41007,2.06570,2.03513,-3.76472,7.37739,7.14516,-3.83361,7.50566,2.03533,2.03533,A,145551.60
7.22806,57.68871498,11.98059138,57.68871583,11.98059050,15:55:51.765028,0.01229,1.27655,1.27655,0.00649,-0.04937,0.03542,-0.02358,0.03339,-0.01293,0.03800,0.96526,7.21710,1.38337,2.06424,2.03552,-3.78145,7.41032,7.14516,-3.83361,7.50566,2.03533,2.03533,A,145551.60
7.26577,57.68871547,11.98059092,57.68871700,11.98058950,15:55:51.802691,0.02637,1.27655,1.27655,0.00831,-0.04550,0.03848,0.02285,0.03431,-0.01623,0.08412,1.00485,7.24185,1.36200,2.05678,2.03031,-3.80871,7.46481,7.26223,-3.89305,7.63538,2.00042,2.00042,A,145551.70
7.29126,57.68871577,11.98059064,57.68871700,11.98058950,15:55:51.828184,0.01368,1.27655,1.27655,0.01009,-0.04295,0.02825,-0.01594,0.02682,-0.08979,0.07582,1.03657,7.28112,1.34491,2.05107,2.02608,-3.82550,7.49876,7.26223,-3.89305,7.63538,2.00042,2.00042,A,145551.70
7.31742,57.68871608,11.98059035,57.68871700,11.98058950,15:55:51.854348,0.01078,1.55991,1.55991,0.01101,-0.04292,0.02244,-0.01915,0.01598,0.03166,0.04685,0.98765,7.30847,1.38791,2.04619,2.02123,-3.84230,7.53300,7.26223,-3.89305,7.63538,2.00042,2.00042,A,145551.70
7.34380,57.68871637,11.98059009,57.68871700,11.98058950,15:55:51.880734,0.01227,1.55991,1.55991,0.01135,-0.04292,0.01068,0.00025,0.02667,-0.13719,0.03141,1.00125,7.33419,1.42231,2.04207,2.01710,-3.85789,7.56511,7.26223,-3.89305,7.63538,2.00042,2.00042,A,145551.70
7.38350,57.68871687,11.98058964,57.68871817,11.98058850,15:55:51.920419,0.02619,1.55991,1.55991,0.01174,-0.04292,0.00778,-0.00006,0.03492,0.03416,0.03947,0.96868,7.35807,1.44983,2.03786,2.01289,-3.88472,7.62130,7.37977,-3.95249,7.76511,2.00042,2.00042,A,145551.80
7.39844,57.68871708,11.98058946,57.68871817,11.98058850,15:55:51.935368,0.00683,1.55991,1.55991,0.01165,-0.04292,0.00457,0.01292,0.01033,0.02159,0.01214,1.01943,7.39118,1.47185,2.03540,2.01043,-3.89566,7.64445,7.37977,-3.95249,7.76511,2.00042,2.00042,A,145551.80
7.40876,57.68871724,11.98058932,57.68871817,11.98058850,15:55:51.945674,0.00674,1.55991,1.55991,0.01100,-0.04292,0.00259,0.02254,-0.00494,-0.00220,-0.01775,1.04774,7.40139,1.48946,2.03349,2.00852,-3.90370,7.66153,7.37977,-3.95249,7.76511,2.00042,2.00042,A,145551.80
7.42085,57.68871739,11.98058919,57.68871817,11.98058850,15:55:51.957772,0.00841,1.55991,1.55991,0.01022,-0.04320,-0.00612,0.02148,-0.01426,0.08650,-0.02056,0.97271,7.41255,1.50355,2.03187,2.00674,-3.91157,7.67831,7.37977,-3.95249,7.76511,2.00042,2.00042,A,145551.80
7.43129,57.68871752,11.98058907,57.68871817,11.98058850,15:55:51.968209,0.00841,1.55991,1.55991,0.00908,-0.04416,-0.02123,0.00544,-0.02342,0.08888,-0.03361,0.94147,7.42326,1.51482,2.03061,2.00492,-3.91855,7.69325,7.37977,-3.95249,7.76511,2.00042,2.00042,A,145551.80
7.44196,57.68871766,11.98058895,57.68871817,11.98058850,15:55:51.979145,0.00868,1.55991,1.55991,0.00870,-0.04564,-0.02246,-0.01472,-0.02938,0.05594,0.01135,0.93123,7.43279,1.52384,2.02963,2.00308,-3.92558,7.70833,7.37977,-3.95249,7.76511,2.00042,2.00042,A,145551.80
7.45175,57.68871777,11.98058885,57.68871817,11.98058850,15:55:51.988670,0.00828,1.55991,1.55991,0.00917,-0.04793,-0.01604,-0.03213,-0.01746,-0.02574,0.06588,0.98009,7.44436,1.53105,2.02903,2.00115,-3.93158,7.72126,7.37977,-3.95249,7.76511,2.00042,2.00042,A,145551.80
7.46115,57.68871788,11.98058876,57.68871817,11.98058850,15:55:51.998073,0.00727,1.55991,1.55991,0.00988,-0.05005,0.00152,-0.02602,-0.01120,-0.00207,0.07082,1.00717,7.45380,1.53683,2.02870,1.99958,-3.93719,7.73341,7.37977,-3.95249,7.76511,2.00042,2.00042,A,145551.80
7.47323,57.68871802,11.98058864,57.68871817,11.98058850,15:55:52.010151,0.00868,1.55991,1.55991,0.00948,-0.05246,0.00213,-0.02190,0.00163,0.00201,-0.00476,1.01010,7.46434,1.54144,2.02845,1.99793,-3.94417,7.74859,7.37977,-3.95249,7.76511,2.00042,2.00042,A,145551.80
7.49693,57.68871833,11.98058834,57.68871900,11.98058717,15:55:52.033847,0.02186,1.40420,1.40420,0.00826,-0.05500,0.00259,-0.00006,0.00529,-0.03550,-0.05941,1.03371,7.47601,1.51399,2.06942,2.03741,-3.96193,7.78344,7.49328,-4.03173,7.85777,2.27832,2.27832,A,145551.90
7.51120,57.68871850,11.98058815,57.68871900,11.98058717,15:55:52.048121,0.00678,1.40420,1.40420,0.00771,-0.06301,-0.02429,0.02193,-0.00708,-0.00244,0.02788,0.95062,7.50393,1.49204,2.10551,2.06883,-3.97325,7.80270,7.49328,-4.03173,7.85777,2.27832,2.27832,A,145551.90
7.52376,57.68871864,11.98058798,57.68871900,11.98058717,15:55:52.060683,0.00853,1.40420,1.40420,0.00751,-0.06667,-0.02032,0.00529,-0.02266,0.05100,0.02147,0.97069,7.51454,1.47447,2.13653,2.09773,-3.98314,7.81827,7.49328,-4.03173,7.85777,2.27832,2.27832,A,145551.90
7.53556,57.68871875,11.98058784,57.68871900,11.98058717,15:55:52.072483,0.00960,1.40420,1.40420,0.00795,-0.07049,-0.03147,-0.00785,-0.03716,0.00128,0.07418,1.00699,7.52605,1.46041,2.16335,2.12232,-3.99145,7.83034,7.49328,-4.03173,7.85777,2.27832,2.27832,A,145551.90
7.54536,57.68871885,11.98058771,57.68871900,11.98058717,15:55:52.082283,0.00801,1.40420,1.40420,0.00821,-0.07371,-0.03024,-0.01151,-0.04724,-0.00537,0.06387,1.05920,7.53684,1.44917,2.18643,2.14352,-3.99922,7.84108,7.49328,-4.03173,7.85777,2.27832,2.27832,A,145551.90
7.55730,57.68871894,11.98058759,57.68871900,11.98058717,15:55:52.095477,0.00977,1.40420,1.40420,0.00742,-0.07646,-0.02505,-0.00510,-0.05182,0.03599,-0.01525,1.06921,7.54754,1.44018,2.20626,2.16174,-4.00682,7.85118,7.49328,-4.03173,7.85777,2.27832,2.27832,A,145551.90
7.56886,57.68871902,11.98058747,57.68871900,11.98058717,15:55:52.105787,0.00947,1.40420,1.40420,0.00646,-0.07886,-0.02963,-0.00281,-0.04831,-0.02159,-0.02452,1.08568,7.55859,1.43298,2.22336,2.17743,-4.01368,7.85987,7.49328,-4.03173,7.85777,2.27832,2.27832,A,145551.90
7.57707,57.68871908,11.98058737,57.68871900,11.98058717,15:55:52.113990,0.00742,1.40420,1.40420,0.00590,-0.08079,-0.03742,0.00208,-0.05014,-0.02483,0.00805,1.09416,7.56917,1.42722,2.23813,2.19108,-4.01950,7.86686,7.49328,-4.03173,7.85777,2.27832,2.27832,A,145551.90
7.58972,57.68871917,11.98058724,57.68871900,11.98058717,15:55:52.126643,0.00982,1.40420,1.40420,0.00499,-0.08229,-0.03330,0.01109,-0.04724,0.01982,-0.01958,0.98582,7.58003,1.42262,2.25057,2.20265,-4.02725,7.87640,7.49328,-4.03173,7.85777,2.27832,2.27832,A,145551.90
7.61464,57.68871946,11.98058687,57.68872050,11.98058600,15:55:52.151551,0.02386,1.40420,1.40420,0.00486,-0.08376,-0.03315,0.00605,-0.04098,0.00549,0.02763,0.92720,7.59097,1.41894,2.21302,2.16424,-4.04937,7.90898,7.61090,-4.10108,8.02457,1.96480,1.96480,A,145552.00
7.64267,57.68871977,11.98058651,57.68872050,11.98058600,15:55:52.179603,0.01356,1.40420,1.40420,0.00478,-0.08721,-0.01070,0.00315,-0.03212,0.04898,0.03776,0.97966,7.63251,1.41599,2.18119,2.13040,-4.07092,7.94288,7.61090,-4.10108,8.02457,1.96480,1.96480,A,145552.00
7.66887,57.68872004,11.98058620,57.68872050,11.98058600,15:55:52.205797,0.01212,1.31709,1.31709,0.00470,-0.08741,-0.00764,0.00529,-0.04037,0.01025,0.02660,1.04652,7.65908,1.39621,2.15425,2.10333,-4.08904,7.97348,7.61090,-4.10108,8.02457,1.96480,1.96480,A,145552.00
7.69642,57.68872030,11.98058593,57.68872050,11.98058600,15:55:52.233349,0.01351,1.31709,1.31709,0.00447,-0.08741,0.00060,0.01735,-0.04724,0.05185,0.00037,0.99247,7.68577,1.38038,2.13136,2.08045,-4.10534,8.00267,7.61090,-4.10108,8.02457,1.96480,1.96480,A,145552.00
7.74880,57.68872094,11.98058526,57.68872250,11.98058350,15:55:52.285720,0.03858,1.31709,1.31709,0.00529,-0.08741,0.00015,-0.00922,-0.04862,0.05063,0.06747,0.96252,7.71318,1.36773,2.13874,2.08782,-4.14502,8.07297,7.74514,-4.24967,8.24696,2.15982,2.15982,A,145552.20
7.77404,57.68872123,11.98058494,57.68872250,11.98058350,15:55:52.311180,0.01460,1.31709,1.31709,0.00762,-0.08741,0.03603,-0.00830,-0.01303,0.00415,0.05575,1.04054,7.76389,1.35760,2.14763,2.09671,-4.16412,8.10606,7.74514,-4.24967,8.24696,2.15982,2.15982,A,145552.20
7.79622,57.68872150,11.98058465,57.68872250,11.98058350,15:55:52.333139,0.01118,1.31709,1.31709,0.00887,-0.08733,0.05375,0.01277,-0.01090,0.06106,0.01903,1.01382,7.78778,1.34950,2.15532,2.10446,-4.18141,8.13553,7.74514,-4.24967,8.24696,2.15982,2.15982,A,145552.20
7.82299,57.68872178,11.98058433,57.68872250,11.98058350,15:55:52.359933,0.01276,1.31709,1.31709,0.01098,-0.08450,0.05757,-0.02098,-0.00937,0.10504,0.05887,0.91677,7.81339,1.34301,2.16134,2.11213,-4.20004,8.16685,7.74514,-4.24967,8.24696,2.15982,2.15982,A,145552.20
7.86409,57.68872226,11.98058381,57.68872383,11.98058250,15:55:52.401015,0.02789,1.49364,1.49364,0.01287,-0.07671,0.05864,-0.01762,-0.00861,-0.04923,0.04648,1.00156,7.83961,1.37314,2.13340,2.08873,-4.23096,8.22063,7.85978,-4.30910,8.39522,1.95207,1.95207,A,145552.30
7.88297,57.68872251,11.98058357,57.68872383,11.98058250,15:55:52.419899,0.01047,1.49364,1.49364,0.01510,-0.06734,0.06184,-0.00357,-0.00372,-0.00061,0.03849,1.05030,7.87336,1.39724,2.11080,2.07160,-4.24545,8.24792,7.85978,-4.30910,8.39522,1.95207,1.95207,A,145552.30
7.90665,57.68872277,11.98058332,57.68872383,11.98058250,15:55:52.443586,0.01261,1.49364,1.49364,0.01681,-0.06361,0.07498,0.01873,0.01552,0.10047,0.02806,0.94556,7.89612,1.41652,2.09124,2.05422,-4.26060,8.27716,7.85978,-4.30910,8.39522,1.95207,1.95207,A,145552.30
7.93305,57.68872309,11.98058302,57.68872383,11.98058250,15:55:52.469969,0.01127,1.49364,1.49364,0.01899,-0.06137,0.06352,-0.01105,0.01155,0.00165,0.05795,1.00095,7.92417,1.43194,2.07408,2.03837,-4.27837,8.31230,7.85978,-4.30910,8.39522,1.95207,1.95207,A,145552.30
7.95871,57.68872338,11.98058275,57.68872383,11.98058250,15:55:52.495629,0.01151,1.49364,1.49364,0.02013,-0.06067,0.05528,-0.01609,0.00682,0.01446,0.01324,1.01034,7.95054,1.44428,2.05955,2.02425,-4.29431,8.34496,7.85978,-4.30910,8.39522,1.95207,1.95207,A,145552.30
7.99771,57.68872388,11.98058230,57.68872500,11.98058133,15:55:52.534629,0.02659,1.49364,1.49364,0.02199,-0.05976,0.04825,-0.01151,0.00850,-0.01226,0.08546,1.00943,7.97361,1.45415,2.06267,2.02789,-4.32098,8.40005,7.99416,-4.37844,8.52494,2.06168,2.06168,A,145552.40
8.02187,57.68872417,11.98058203,57.68872500,11.98058133,15:55:52.558797,0.01136,1.45082,1.45082,0.02244,-0.05837,0.02962,0.01140,0.01415,-0.02190,-0.01013,1.06573,8.01304,1.45349,2.06624,2.03227,-4.33691,8.43285,7.99416,-4.37844,8.52494,2.06168,2.06168,A,145552.40
8.04888,57.68872447,11.98058175,57.68872500,11.98058133,15:55:52.586380,0.01357,1.45082,1.45082,0.02309,-0.05837,0.00671,-0.00082,0.00346,0.04392,0.06429,0.94233,8.03815,1.45295,2.06917,2.03520,-4.35344,8.46652,7.99416,-4.37844,8.52494,2.06168,2.06168,A,145552.40
8.07517,57.68872476,11.98058149,57.68872500,11.98058133,15:55:52.612665,0.01348,1.45082,1.45082,0.02340,-0.05837,0.01160,-0.01105,-0.00952,0.02190,0.03691,0.98521,8.06544,1.45253,2.07169,2.03772,-4.36906,8.49812,7.99416,-4.37844,8.52494,2.06168,2.06168,A,145552.40
8.11361,57.68872524,11.98058104,57.68872617,11.98058017,15:55:52.650524,0.02638,1.45082,1.45082,0.02274,-0.05837,-0.00550,-0.02159,-0.01349,-0.05813,0.00335,1.06463,8.08999,1.45219,2.07297,2.03900,-4.39586,8.55130,8.11001,-4.44779,8.65467,2.06168,2.06168,A,145552.50
8.13734,57.68872552,11.98058077,57.68872617,11.98058017,15:55:52.674266,0.01233,1.45082,1.45082,0.02316,-0.05837,0.00015,0.01857,-0.00784,0.05240,0.05899,0.92372,8.12752,1.45191,2.07503,2.04106,-4.41181,8.58288,8.11001,-4.44779,8.65467,2.06168,2.06168,A,145552.50
8.16091,57.68872578,11.98058052,57.68872617,11.98058017,15:55:52.698524,0.01152,1.68132,1.68132,0.02388,-0.05885,0.00030,-0.00372,-0.01655,0.05691,0.07619,0.94282,8.15189,1.49780,2.07686,2.04261,-4.42660,8.61203,8.11001,-4.44779,8.65467,2.06168,2.06168,A,145552.50
8.18716,57.68872606,11.98058026,57.68872617,11.98058017,15:55:52.724091,0.01300,1.68132,1.68132,0.02386,-0.06120,0.00122,0.00590,-0.02128,0.04776,0.03202,1.03334,8.17705,1.53450,2.07843,2.04282,-4.44245,8.64315,8.11001,-4.44779,8.65467,2.06168,2.06168,A,145552.50
8.21256,57.68872634,11.98058000,57.68872617,11.98058017,15:55:52.749479,0.01148,1.68132,1.68132,0.02348,-0.06338,-0.00764,-0.01976,-0.01594,-0.03013,0.02178,1.02834,8.20182,1.56386,2.07986,2.04297,-4.45793,8.67352,8.11001,-4.44779,8.65467,2.06168,2.06168,A,145552.50
8.26101,57.68872700,11.98057936,57.68872850,11.98057783,15:55:52.797932,0.03663,1.68132,1.68132,0.02355,-0.06432,0.00595,0.00407,-0.01258,0.03099,0.02660,0.97283,8.22695,1.58736,2.07932,2.04188,-4.49599,8.74748,8.25735,-4.58647,8.91413,2.06168,2.06168,A,145552.70
8.28583,57.68872734,11.98057903,57.68872850,11.98057783,15:55:52.822755,0.01101,1.68132,1.68132,0.02345,-0.06664,-0.00291,0.00300,-0.01945,0.03776,0.03392,0.97319,8.27557,1.60615,2.08083,2.04204,-4.51552,8.78529,8.25735,-4.58647,8.91413,2.06168,2.06168,A,145552.70
8.31252,57.68872768,11.98057870,57.68872850,11.98057783,15:55:52.850004,0.01260,1.68132,1.68132,0.02336,-0.06740,-0.02230,-0.01884,-0.02510,-0.02629,0.06911,1.03310,8.30292,1.62118,2.08203,2.04279,-4.53497,8.82294,8.25735,-4.58647,8.91413,2.06168,2.06168,A,145552.70
8.33875,57.68872801,11.98057838,57.68872850,11.98057783,15:55:52.875679,0.01318,1.68132,1.68132,0.02309,-0.06763,-0.02368,0.00865,-0.02510,-0.01330,0.05453,1.02797,8.32794,1.63321,2.08301,2.04365,-4.55372,8.85919,8.25735,-4.58647,8.91413,2.06168,2.06168,A,145552.70
8.35711,57.68872822,11.98057817,57.68872850,11.98057783,15:55:52.894033,0.00980,1.22243,1.22243,0.02261,-0.06768,-0.03696,0.01964,-0.02204,-0.01501,0.05636,1.00052,8.34810,1.55105,2.08446,2.04507,-4.56623,8.88318,8.25735,-4.58647,8.91413,2.06168,2.06168,A,145552.70
8.38353,57.68872858,11.98057783,57.68872967,11.98057683,15:55:52.920446,0.02471,1.22243,1.22243,0.02267,-0.06771,-0.04170,0.03064,-0.02311,-0.00055,0.06875,0.98576,8.35801,1.48533,2.07586,2.03645,-4.58676,8.92345,8.37980,-4.64591,9.04385,2.00042,2.00042,A,145552.80
8.40970,57.68872889,11.98057754,57.68872967,11.98057683,15:55:52.946621,0.01410,1.22243,1.22243,0.02062,-0.06783,-0.03208,-0.01380,-0.01884,-0.01330,-0.00878,1.01986,8.40010,1.43275,2.06880,2.02932,-4.60389,8.95767,8.37980,-4.64591,9.04385,2.00042,2.00042,A,145552.80
8.43356,57.68872915,11.98057730,57.68872967,11.98057683,15:55:52.970484,0.01195,1.22243,1.22243,0.01990,-0.06783,-0.03284,-0.00174,-0.01365,-0.01720,0.03904,1.01748,8.42299,1.39068,2.06301,2.02353,-4.61820,8.98672,8.37980,-4.64591,9.04385,2.00042,2.00042,A,145552.80
8.45830,57.68872941,11.98057706,57.68872967,11.98057683,15:55:52.995251,0.01024,1.22243,1.22243,0.01948,-0.06783,-0.03956,-0.00006,-0.00906,0.00464,0.07442,0.99643,8.44881,1.35703,2.05801,2.01854,-4.63222,9.01555,8.37980,-4.64591,9.04385,2.00042,2.00042,A,145552.80
8.48337,57.68872966,11.98057684,57.68872967,11.98057683,15:55:53.020293,0.01137,1.22243,1.22243,0.01903,-0.06783,-0.02963,0.01140,-0.01701,0.00628,0.05350,0.99650,8.47343,1.33011,2.05377,2.01429,-4.64541,9.04301,8.37980,-4.64591,9.04385,2.00042,2.00042,A,145552.80
8.52266,57.68873010,11.98057644,57.68873083,11.98057567,15:55:53.059777,0.02673,1.22243,1.22243,0.01755,-0.06783,-0.02566,-0.00769,-0.02770,-0.05612,-0.01982,1.03920,8.49963,1.30857,2.05838,2.01890,-4.66922,9.09230,8.51894,-4.71525,9.17358,2.06168,2.06168,A,145552.90
8.54771,57.68873037,11.98057620,57.68873083,11.98057567,15:55:53.084636,0.01120,1.49083,1.49083,0.01652,-0.06783,-0.02246,-0.00953,-0.01869,0.12255,0.01592,0.92866,8.53824,1.34502,2.06329,2.02381,-4.68384,9.12199,8.51894,-4.71525,9.17358,2.06168,2.06168,A,145552.90
8.57068,57.68873060,11.98057598,57.68873083,11.98057567,15:55:53.107609,0.01138,1.49083,1.49083,0.01614,-0.06783,-0.01589,-0.00769,-0.01502,-0.04166,0.02727,0.99094,8.56191,1.37418,2.06761,2.02813,-4.69668,9.14772,8.51894,-4.71525,9.17358,2.06168,2.06168,A,145552.90
8.59654,57.68873085,11.98057574,57.68873083,11.98057567,15:55:53.133469,0.01234,1.49083,1.49083,0.01573,-0.06819,-0.01986,-0.00479,-0.02235,-0.02409,0.03550,1.05829,8.58624,1.39751,2.07112,2.03143,-4.71063,9.17547,8.51894,-4.71525,9.17358,2.06168,2.06168,A,145552.90
8.62108,57.68873107,11.98057553,57.68873083,11.98057567,15:55:53.158009,0.01299,1.49083,1.49083,0.01549,-0.06935,-0.02261,0.01231,-0.02815,-0.04935,0.04843,1.02895,8.60987,1.41618,2.07430,2.03392,-4.72311,9.20006,8.51894,-4.71525,9.17358,2.06168,2.06168,A,145552.90
8.67117,57.68873169,11.98057494,57.68873300,11.98057333,15:55:53.208087,0.03776,1.49083,1.49083,0.01499,-0.07153,-0.03147,0.00681,-0.02999,-0.03239,0.04599,0.97136,8.63612,1.43111,2.07986,2.03821,-4.75866,9.26888,8.66744,-4.85393,9.41450,2.09311,2.09311,A,145553.10
8.69542,57.68873199,11.98057464,57.68873300,11.98057333,15:55:53.232340,0.01145,1.49083,1.49083,0.01349,-0.07465,-0.03834,-0.00311,-0.02540,0.02129,0.05386,1.06158,8.68546,1.44305,2.08675,2.04329,-4.77648,9.30203,8.66744,-4.85393,9.41450,2.09311,2.09311,A,145553.10
8.72240,57.68873228,11.98057434,57.68873300,11.98057333,15:55:53.259343,0.01296,1.22821,1.22821,0.01257,-0.07578,-0.03574,0.01109,-0.03228,-0.00012,0.02873,1.03120,8.71140,1.40008,2.09255,2.04843,-4.79422,9.33479,8.66744,-4.85393,9.41450,2.09311,2.09311,A,145553.10
8.74652,57.68873256,11.98057405,57.68873300,11.98057333,15:55:53.283453,0.01104,1.22821,1.22821,0.01125,-0.07603,-0.04124,0.00651,-0.03396,0.03709,0.00994,0.93470,8.73778,1.36571,2.09750,2.05323,-4.81105,9.36552,8.66744,-4.85393,9.41450,2.09311,2.09311,A,145553.10
8.76854,57.68873279,11.98057381,57.68873300,11.98057333,15:55:53.305463,0.00948,1.22821,1.22821,0.01022,-0.07603,-0.02994,0.00468,-0.02495,-0.00366,0.00226,0.96051,8.76071,1.33821,2.10193,2.05766,-4.82534,9.39117,8.66744,-4.85393,9.41450,2.09311,2.09311,A,145553.10
8.79424,57.68873310,11.98057350,57.68873417,11.98057233,15:55:53.331167,0.02493,1.22821,1.22821,0.00977,-0.07603,-0.02551,0.00269,-0.01960,0.06313,0.00933,0.97618,8.76959,1.31621,2.09154,2.04727,-4.84396,9.42568,8.79056,-4.91337,9.54423,2.00042,2.00042,A,145553.20
8.81694,57.68873336,11.98057324,57.68873417,11.98057233,15:55:53.353868,0.01105,1.22821,1.22821,0.00911,-0.07603,-0.01558,0.02438,-0.02357,0.02306,0.02086,1.05371,8.80720,1.29861,2.08296,2.03869,-4.85946,9.45491,8.79056,-4.91337,9.54423,2.00042,2.00042,A,145553.20
8.83605,57.68873357,11.98057304,57.68873417,11.98057233,15:55:53.372972,0.00910,1.22821,1.22821,0.00860,-0.07603,-0.00596,0.01995,-0.02357,0.09845,-0.00128,1.02340,8.82797,1.28453,2.07598,2.03171,-4.87159,9.47804,8.79056,-4.91337,9.54423,2.00042,2.00042,A,145553.20
8.84898,57.68873369,11.98057292,57.68873417,11.98057233,15:55:53.385909,0.01182,1.22821,1.22821,0.00796,-0.07603,-0.00489,0.00223,-0.02128,0.07046,-0.01574,0.96447,8.83798,1.27326,2.07061,2.02634,-4.87876,9.49158,8.79056,-4.91337,9.54423,2.00042,2.00042,A,145553.20
8.87201,57.68873392,11.98057270,57.68873417,11.98057233,15:55:53.408927,0.00826,1.51089,1.51089,0.00835,-0.07603,0.00106,-0.02251,-0.01899,-0.07735,0.04490,1.04670,8.86466,1.32079,2.06522,2.02095,-4.89162,9.51694,8.79056,-4.91337,9.54423,2.00042,2.00042,A,145553.20
8.88587,57.68873404,11.98057259,57.68873417,11.98057233,15:55:53.423000,0.01107,1.51089,1.51089,0.00813,-0.07601,0.01588,0.00254,-0.01090,0.02647,-0.00775,0.96118,8.87564,1.35881,2.06139,2.01714,-4.89820,9.52966,8.79056,-4.91337,9.54423,2.00042,2.00042,A,145553.20
8.93739,57.68873468,11.98057199,57.68873633,11.98057017,15:55:53.474310,0.03720,1.51089,1.51089,0.00961,-0.07351,0.02397,-0.00479,0.02331,-0.05502,0.07692,1.01839,8.90248,1.38923,2.06400,2.02120,-4.93353,9.60124,8.93376,-5.04214,9.78515,2.06168,2.06168,A,145553.40
8.96061,57.68873499,11.98057170,57.68873633,11.98057017,15:55:53.497538,0.01023,1.51089,1.51089,0.01064,-0.06126,0.01359,-0.00662,0.00300,0.08089,0.04740,1.00766,8.95231,1.41356,2.06738,2.03173,-4.95123,9.63579,8.93376,-5.04214,9.78515,2.06168,2.06168,A,145553.40
8.98724,57.68873531,11.98057139,57.68873633,11.98057017,15:55:53.524169,0.01350,1.51089,1.51089,0.01121,-0.05676,0.01175,-0.01915,0.00178,-0.00183,0.04331,0.99747,8.97641,1.43303,2.07001,2.03698,-4.96952,9.67093,8.93376,-5.04214,9.78515,2.06168,2.06168,A,145553.40
9.01394,57.68873560,11.98057110,57.68873633,11.98057017,15:55:53.551070,0.01352,1.51089,1.51089,0.01157,-0.05384,0.01450,-0.00357,0.02484,0.05948,0.02379,0.99021,9.00336,1.44860,2.07214,2.04081,-4.98657,9.70332,8.93376,-5.04214,9.78515,2.06168,2.06168,A,145553.40
9.05641,57.68873615,11.98057058,57.68873767,11.98056917,15:55:53.593326,0.02697,1.51089,1.51089,0.01170,-0.05283,0.01969,0.00773,0.02621,-0.03422,-0.00275,1.03102,9.03244,1.46106,2.05638,2.02565,-5.01778,9.76495,9.05272,-5.10158,9.93341,1.95207,1.95207,A,145553.50
9.07739,57.68873644,11.98057031,57.68873767,11.98056917,15:55:53.614307,0.00827,1.41389,1.41389,0.01255,-0.05283,0.00748,-0.01609,0.00621,0.03349,0.06466,0.98521,9.07011,1.45162,2.04425,2.01352,-5.03363,9.79721,9.05272,-5.10158,9.93341,1.95207,1.95207,A,145553.50
9.09087,57.68873662,11.98057015,57.68873767,11.98056917,15:55:53.627794,0.01133,1.41389,1.41389,0.01352,-0.05283,0.01191,-0.02297,0.00056,0.01958,0.08699,1.00101,9.07868,1.44408,2.03445,2.00372,-5.04313,9.81689,9.05272,-5.10158,9.93341,1.95207,1.95207,A,145553.50
9.11544,57.68873691,11.98056990,57.68873767,11.98056917,15:55:53.652359,0.01066,1.41389,1.41389,0.01303,-0.05283,-0.00062,-0.00449,-0.00189,0.01684,-0.00232,1.03639,9.10624,1.43804,2.02552,1.99479,-5.05809,9.84875,9.05272,-5.10158,9.93341,1.95207,1.95207,A,145553.50
9.13938,57.68873719,11.98056966,57.68873767,11.98056917,15:55:53.676299,0.01076,1.41389,1.41389,0.01334,-0.05283,-0.00948,0.00315,0.00376,0.02178,0.06564,1.01248,9.13065,1.43321,2.01790,1.98716,-5.07248,9.88006,9.05272,-5.10158,9.93341,1.95207,1.95207,A,145553.50
9.17845,57.68873769,11.98056923,57.68873883,11.98056800,15:55:53.715370,0.02674,1.41389,1.41389,0.01286,-0.05283,-0.00214,0.02193,0.00193,0.04856,0.00073,0.98661,9.15412,1.42934,2.02699,1.99625,-5.09792,9.93561,9.17473,-5.17092,10.06314,2.06168,2.06168,A,145553.60
9.20529,57.68873800,11.98056895,57.68873883,11.98056800,15:55:53.742217,0.01270,1.41389,1.41389,0.01269,-0.05348,-0.01436,0.00636,-0.01533,-0.02342,0.05703,1.00601,9.19582,1.42625,2.03556,2.00445,-5.11457,9.97067,9.17473,-5.17092,10.06314,2.06168,2.06168,A,145553.60
9.23123,57.68873830,11.98056868,57.68873883,11.98056800,15:55:53.768191,0.01257,1.35394,1.35394,0.01271,-0.05450,-0.01131,0.00055,-0.00616,0.01842,0.04831,0.98234,9.22172,1.41179,2.04294,2.01123,-5.13045,10.00351,9.17473,-5.17092,10.06314,2.06168,2.06168,A,145553.60
9.25879,57.68873859,11.98056841,57.68873883,11.98056800,15:55:53.795726,0.01284,1.35394,1.35394,0.01273,-0.05455,0.00167,-0.00769,0.00758,-0.09705,0.02800,1.02297,9.24863,1.40022,2.04912,2.01738,-5.14646,10.03617,9.17473,-5.17092,10.06314,2.06168,2.06168,A,145553.60
9.29882,57.68873906,11.98056798,57.68873983,11.98056700,15:55:53.835736,0.02668,1.35394,1.35394,0.01308,-0.05455,0.00427,0.00956,0.00285,0.01720,0.04349,0.96453,9.27421,1.39096,2.05365,2.02191,-5.17214,10.08794,9.29422,-5.23036,10.17434,2.06168,2.06168,A,145553.70
9.32433,57.68873933,11.98056772,57.68873983,11.98056700,15:55:53.861256,0.01246,1.35394,1.35394,0.01342,-0.05455,0.00931,-0.00311,0.00025,-0.07710,0.03044,1.06024,9.31258,1.38356,2.05839,2.02665,-5.18762,10.11820,9.29422,-5.23036,10.17434,2.06168,2.06168,A,145553.70
9.34755,57.68873956,11.98056750,57.68873983,11.98056700,15:55:53.884499,0.01046,1.35394,1.35394,0.01332,-0.05455,0.00213,-0.00174,0.00300,-0.03983,0.02111,1.05609,9.33829,1.37763,2.06257,2.03083,-5.20090,10.14375,9.29422,-5.23036,10.17434,2.06168,2.06168,A,145553.70
9.37183,57.68873979,11.98056727,57.68873983,11.98056700,15:55:53.909054,0.01252,1.35394,1.35394,0.01408,-0.05455,-0.00612,-0.00632,0.01415,0.01421,0.08705,0.97173,9.36199,1.37289,2.06605,2.03431,-5.21441,10.16957,9.29422,-5.23036,10.17434,2.06168,2.06168,A,145553.70
9.41266,57.68874027,11.98056682,57.68874117,11.98056600,15:55:53.949577,0.02549,1.49094,1.49094,0.01351,-0.05455,-0.01375,-0.00189,0.01201,-0.00897,0.01434,0.98387,9.38817,1.39650,2.05154,2.01980,-5.24108,10.22304,9.40898,-5.28979,10.32260,1.95207,1.95207,A,145553.80
9.43510,57.68874052,11.98056659,57.68874117,11.98056600,15:55:53.972035,0.01354,1.49094,1.49094,0.01242,-0.05455,-0.02627,0.01613,0.00605,-0.07497,0.01903,1.02108,9.42508,1.41539,2.04029,2.00855,-5.25465,10.25113,9.40898,-5.28979,10.32260,1.95207,1.95207,A,145553.80
9.45928,57.68874079,11.98056636,57.68874117,11.98056600,15:55:53.996200,0.01191,1.49094,1.49094,0.01187,-0.05455,-0.03223,0.01812,0.01033,-0.01397,0.03953,0.97466,9.44889,1.43050,2.03061,1.99886,-5.26852,10.28057,9.40898,-5.28979,10.32260,1.95207,1.95207,A,145553.80
9.48289,57.68874104,11.98056614,57.68874117,11.98056600,15:55:54.020604,0.01145,1.49094,1.49094,0.01105,-0.05455,-0.03590,0.00254,0.00850,0.00433,0.03221,1.03334,9.47390,1.44259,2.02239,1.99065,-5.28125,10.30824,9.40898,-5.28979,10.32260,1.95207,1.95207,A,145553.80
9.51113,57.68874132,11.98056590,57.68874117,11.98056600,15:55:54.048054,0.01253,1.49094,1.49094,0.00974,-0.05455,-0.05178,0.01140,0.01262,-0.03074,0.03239,1.04279,9.50109,1.45226,2.01516,1.98342,-5.29557,10.34007,9.40898,-5.28979,10.32260,1.95207,1.95207,A,145553.80
9.56002,57.68874199,11.98056539,57.68874400,11.98056450,15:55:54.096941,0.03706,1.49094,1.49094,0.00892,-0.05455,-0.05850,0.00055,0.02056,0.01830,0.05374,0.89194,9.52511,1.46000,1.99186,1.96012,-5.32587,10.41465,9.55635,-5.37895,10.63765,1.84657,1.84657,A,145554.00
9.57522,57.68874225,11.98056523,57.68874400,11.98056450,15:55:54.112140,0.00686,1.39377,1.39377,0.00575,-0.05455,-0.06415,0.02392,-0.00158,0.05197,-0.00616,1.08964,9.56788,1.44675,1.97406,1.94232,-5.33538,10.44252,9.55635,-5.37895,10.63765,1.84657,1.84657,A,145554.00
9.58625,57.68874243,11.98056513,57.68874400,11.98056450,15:55:54.123197,0.00765,1.39377,1.39377,0.00439,-0.05455,-0.07713,0.01918,-0.01044,0.10705,-0.01989,1.07799,9.57779,1.43616,1.95923,1.92749,-5.34157,10.46257,9.55635,-5.37895,10.63765,1.84657,1.84657,A,145554.00
9.59784,57.68874261,11.98056503,57.68874400,11.98056450,15:55:54.134770,0.00884,1.39377,1.39377,0.00346,-0.05455,-0.08614,0.01567,-0.01197,0.00750,0.02379,1.07244,9.58899,1.42768,1.94657,1.91483,-5.34772,10.48282,9.55635,-5.37895,10.63765,1.84657,1.84657,A,145554.00
9.60969,57.68874277,11.98056494,57.68874400,11.98056450,15:55:54.146617,0.01052,1.39377,1.39377,0.00325,-0.05455,-0.08095,0.02316,-0.01365,0.00000,0.06210,1.02950,9.59931,1.42090,1.93588,1.90414,-5.35289,10.50063,9.55635,-5.37895,10.63765,1.84657,1.84657,A,145554.00
9.63628,57.68874308,11.98056475,57.68874400,11.98056450,15:55:54.173211,0.01371,1.39377,1.39377,0.00194,-0.05455,-0.05804,-0.01350,-0.00021,0.11913,0.02294,0.86955,9.62442,1.41547,1.92598,1.89424,-5.36390,10.53550,9.55635,-5.37895,10.63765,1.84657,1.84657,A,145554.00
9.67449,57.68874361,11.98056444,57.68874533,11.98056367,15:55:54.211410,0.02611,1.39377,1.39377,0.00114,-0.05455,-0.03391,-0.01854,0.02224,-0.05222,0.02190,1.03078,9.65007,1.41113,1.92375,1.89201,-5.38268,10.59442,9.67076,-5.42848,10.78591,1.89321,1.89321,A,145554.10
9.69769,57.68874394,11.98056425,57.68874533,11.98056367,15:55:54.235601,0.01134,1.39377,1.39377,-0.00029,-0.05455,-0.04277,0.01185,0.01552,0.01122,0.03324,1.05445,9.68905,1.40766,1.92272,1.89098,-5.39399,10.63110,9.67076,-5.42848,10.78591,1.89321,1.89321,A,145554.10
9.73039,57.68874433,11.98056402,57.68874533,11.98056367,15:55:54.267338,0.01383,1.61132,1.61132,-0.00198,-0.05455,-0.04811,-0.00021,-0.01823,0.02733,-0.00415,0.96978,9.71952,1.44839,1.92148,1.88974,-5.40735,10.67393,9.67076,-5.42848,10.78591,1.89321,1.89321,A,145554.10
9.75534,57.68874463,11.98056385,57.68874533,11.98056367,15:55:54.292264,0.01287,1.61132,1.61132,-0.00337,-0.05455,-0.04109,-0.00739,-0.02220,-0.00451,-0.01299,0.92025,9.74484,1.48098,1.92074,1.88900,-5.41773,10.70777,9.67076,-5.42848,10.78591,1.89321,1.89321,A,145554.10
9.79484,57.68874518,11.98056349,57.68874650,11.98056233,15:55:54.331758,0.02465,1.61132,1.61132,-0.00462,-0.05475,-0.03238,0.01949,-0.00173,0.04362,-0.01757,1.01394,9.77139,1.50705,1.95303,1.92118,-5.43882,10.76852,9.79111,-5.50773,10.91564,2.11918,2.11918,A,145554.20
9.82094,57.68874553,11.98056324,57.68874650,11.98056233,15:55:54.357864,0.01310,1.61132,1.61132,-0.00511,-0.05721,-0.00886,0.00559,-0.00051,-0.02599,-0.00140,1.02346,9.81194,1.52790,1.98151,1.94822,-5.45388,10.80766,9.79111,-5.50773,10.91564,2.11918,2.11918,A,145554.20
9.84482,57.68874585,11.98056299,57.68874650,11.98056233,15:55:54.381746,0.01192,1.61132,1.61132,-0.00513,-0.05775,-0.00001,0.01185,-0.00173,0.03160,0.00616,1.03352,9.83688,1.54459,2.00576,1.97216,-5.46846,10.84305,9.79111,-5.50773,10.91564,2.11918,2.11918,A,145554.20
9.86961,57.68874616,11.98056274,57.68874650,11.98056233,15:55:54.406538,0.01193,1.61132,1.61132,-0.00503,-0.05775,0.00916,0.00132,-0.01273,0.02403,-0.00128,0.99753,9.86105,1.55793,2.02630,1.99270,-5.48355,10.87761,9.79111,-5.50773,10.91564,2.11918,2.11918,A,145554.20
9.91257,57.68874672,11.98056226,57.68874767,11.98056133,15:55:54.449489,0.02778,1.61132,1.61132,-0.00450,-0.05775,0.02290,0.01582,-0.01273,-0.04349,0.00262,0.99296,9.88744,1.56861,2.02477,1.99117,-5.51224,10.94060,9.90817,-5.56716,11.04536,2.00042,2.00042,A,145554.30
9.93893,57.68874705,11.98056198,57.68874767,11.98056133,15:55:54.475857,0.01473,1.17263,1.17263,-0.00219,-0.05775,0.06368,-0.01243,0.00514,-0.05405,-0.00152,1.05933,9.92806,1.48942,2.02464,1.99103,-5.52878,10.97670,9.90817,-5.56716,11.04536,2.00042,2.00042,A,145554.30
9.96506,57.68874736,11.98056171,57.68874767,11.98056133,15:55:54.501979,0.01163,1.17263,1.17263,-0.00016,-0.05775,0.06704,0.02300,0.00667,0.05209,0.02098,0.94434,9.95719,1.42606,2.02450,1.99090,-5.54470,11.01147,9.90817,-5.56716,11.04536,2.00042,2.00042,A,145554.30
9.99073,57.68874763,11.98056148,57.68874767,11.98056133,15:55:54.527652,0.01215,1.17263,1.17263,0.00250,-0.05775,0.07559,0.00987,0.00957,-0.02885,0.07826,1.03615,9.98140,1.37537,2.02454,1.99094,-5.55843,11.04138,9.90817,-5.56716,11.04536,2.00042,2.00042,A,145554.30
10.04520,57.68874832,11.98056088,57.68875000,11.98055900,15:55:54.582114,0.04060,1.17263,1.17263,0.00399,-0.05775,0.09407,-0.02129,0.01461,0.10272,-0.04331,0.98253,10.00788,1.33482,2.03205,1.99844,-5.59396,11.11758,10.04152,-5.70585,11.30482,2.06168,2.06168,A,145554.50
10.06975,57.68874862,11.98056060,57.68875000,11.98055900,15:55:54.606682,0.01173,1.17263,1.17263,0.00782,-0.05775,0.08170,0.00040,0.00132,0.03178,-0.00037,0.93245,10.05953,1.30238,2.04034,2.00674,-5.61054,11.15104,10.04152,-5.70585,11.30482,2.06168,2.06168,A,145554.50
10.09654,57.68874893,11.98056031,57.68875000,11.98055900,15:55:54.633470,0.01112,1.48410,1.48410,0.01023,-0.05775,0.06123,0.01980,0.01323,0.01970,0.07021,1.00406,10.08771,1.33873,2.04726,2.01366,-5.62773,11.18541,10.04152,-5.70585,11.30482,2.06168,2.06168,A,145554.50
10.12294,57.68874922,11.98056003,57.68875000,11.98055900,15:55:54.659872,0.01236,1.48410,1.48410,0.01190,-0.05775,0.06200,-0.01976,-0.00143,0.10248,0.03532,0.99723,10.11229,1.36780,2.05312,2.01952,-5.64440,11.21830,10.04152,-5.70585,11.30482,2.06168,2.06168,A,145554.50
10.16158,57.68874971,11.98055959,57.68875117,11.98055817,15:55:54.698502,0.02631,1.48410,1.48410,0.01279,-0.05775,0.03939,-0.02587,-0.01655,-0.06069,0.02105,1.02401,10.13722,1.39106,2.03836,2.00476,-5.67081,11.27244,10.15793,-5.75538,11.43454,1.93552,1.93552,A,145554.60
10.18630,57.68875002,11.98055931,57.68875117,11.98055817,15:55:54.723237,0.01120,1.48410,1.48410,0.01451,-0.05775,0.02886,-0.00067,0.00010,0.05191,0.06332,0.97722,10.17756,1.40967,2.02667,1.99307,-5.68723,11.30685,10.15793,-5.75538,11.43454,1.93552,1.93552,A,145554.60
10.20978,57.68875032,11.98055905,57.68875117,11.98055817,15:55:54.746700,0.01044,1.48410,1.48410,0.01519,-0.05775,0.03313,0.01277,0.00896,-0.04758,0.02117,1.00565,10.20196,1.42455,2.01672,1.98312,-5.70264,11.33995,10.15793,-5.75538,11.43454,1.93552,1.93552,A,145554.60
10.23746,57.68875064,11.98055878,57.68875117,11.98055817,15:55:54.774386,0.01183,1.48410,1.48410,0.01547,-0.05800,0.00091,0.00055,-0.00967,0.08827,0.04605,0.99589,10.22740,1.43646,2.00809,1.97434,-5.71878,11.37554,10.15793,-5.75538,11.43454,1.93552,1.93552,A,145554.60
10.27827,57.68875116,11.98055834,57.68875233,11.98055700,15:55:54.815193,0.02627,1.48410,1.48410,0.01549,-0.06024,-0.01268,-0.01640,-0.02449,-0.07985,0.05600,1.06305,10.25359,1.44599,2.01898,1.98393,-5.74498,11.43394,10.27391,-5.82472,11.56427,2.06168,2.06168,A,145554.70
10.30342,57.68875146,11.98055808,57.68875233,11.98055700,15:55:54.840346,0.01305,1.22305,1.22305,0.01433,-0.06279,-0.01543,0.00590,-0.01151,-0.00964,-0.00458,0.88578,10.29354,1.40140,2.02949,1.99294,-5.76080,11.46744,10.27391,-5.82472,11.56427,2.06168,2.06168,A,145554.70
10.33045,57.68875176,11.98055781,57.68875233,11.98055700,15:55:54.867385,0.01120,1.22305,1.22305,0.01513,-0.06279,-0.01696,0.00666,-0.00402,-0.04325,0.10937,0.95941,10.32019,1.36573,2.03828,2.00174,-5.77671,11.50061,10.27391,-5.82472,11.56427,2.06168,2.06168,A,145554.70
10.35554,57.68875203,11.98055756,57.68875233,11.98055700,15:55:54.892462,0.01037,1.22305,1.22305,0.01425,-0.06279,-0.00230,-0.00097,-0.00937,0.07082,-0.02312,1.05121,10.34692,1.33719,2.04584,2.00930,-5.79131,11.53032,10.27391,-5.82472,11.56427,2.06168,2.06168,A,145554.70
10.39622,57.68875251,11.98055712,57.68875350,11.98055583,15:55:54.933133,0.02628,1.22305,1.22305,0.01398,-0.06279,-0.00276,-0.02403,-0.01303,-0.01061,0.01867,1.04652,10.37260,1.31437,2.05127,2.01473,-5.81750,11.58340,10.39254,-5.89406,11.69400,2.06168,2.06168,A,145554.80
10.41955,57.68875276,11.98055688,57.68875350,11.98055583,15:55:54.956476,0.01201,1.22305,1.22305,0.01478,-0.06279,0.00671,0.00071,0.00208,0.09004,0.06307,0.93861,10.40978,1.29610,2.05709,2.02055,-5.83206,11.61149,10.39254,-5.89406,11.69400,2.06168,2.06168,A,145554.80
10.44778,57.68875304,11.98055660,57.68875350,11.98055583,15:55:54.984708,0.01327,1.22305,1.22305,0.01571,-0.06279,0.01939,-0.00220,0.01155,-0.07723,0.05533,0.96947,10.43814,1.28149,2.06179,2.02524,-5.84831,11.64286,10.39254,-5.89406,11.69400,2.06168,2.06168,A,145554.80
10.47399,57.68875329,11.98055635,57.68875350,11.98055583,15:55:55.011134,0.01086,1.50627,1.50627,0.01605,-0.06279,0.02214,0.01582,0.00972,0.09004,0.01452,0.99582,10.46354,1.32645,2.06586,2.02932,-5.86307,11.67095,10.39254,-5.89406,11.69400,2.06168,2.06168,A,145554.80
10.51713,57.68875379,11.98055589,57.68875467,11.98055500,15:55:55.054053,0.02755,1.50627,1.50627,0.01681,-0.06279,0.00687,-0.01014,-0.00234,-0.06637,0.07186,1.06640,10.49218,1.36241,2.04917,2.01263,-5.89080,11.72660,10.51330,-5.94359,11.82373,1.93552,1.93552,A,145554.90
10.54362,57.68875409,11.98055562,57.68875467,11.98055500,15:55:55.080545,0.01247,1.50627,1.50627,0.01687,-0.06225,-0.00046,-0.01747,0.01232,0.07399,0.03343,0.97441,10.53390,1.39119,2.03604,1.99981,-5.90671,11.75951,10.51330,-5.94359,11.82373,1.93552,1.93552,A,145554.90
10.57059,57.68875438,11.98055537,57.68875467,11.98055500,15:55:55.107516,0.01378,1.50627,1.50627,0.01740,-0.06174,0.01465,-0.00617,0.01400,-0.07155,0.03904,1.00028,10.56084,1.41420,2.02483,1.98890,-5.92164,11.79134,10.51330,-5.94359,11.82373,1.93552,1.93552,A,145554.90
10.59707,57.68875465,11.98055514,57.68875467,11.98055500,15:55:55.134004,0.01215,1.50627,1.50627,0.01720,-0.06174,-0.01604,-0.02159,0.00208,0.03849,0.03947,0.89078,10.58767,1.43262,2.01531,1.97938,-5.93551,11.82170,10.51330,-5.94359,11.82373,1.93552,1.93552,A,145554.90
10.65042,57.68875534,11.98055454,57.68875683,11.98055267,15:55:55.187341,0.03864,1.50627,1.50627,0.01671,-0.06174,-0.01558,0.01689,0.00071,-0.04660,0.02843,1.06164,10.61600,1.44735,2.02900,1.99306,-5.97072,11.89823,10.64672,-6.08227,12.06465,2.09311,2.09311,A,145555.10
10.67576,57.68875567,11.98055423,57.68875683,11.98055267,15:55:55.212686,0.01122,1.36721,1.36721,0.01490,-0.06177,-0.03544,-0.02067,-0.01701,-0.03227,0.03038,0.99515,10.66725,1.43132,2.04247,2.00653,-5.98936,11.93563,10.64672,-6.08227,12.06465,2.09311,2.09311,A,145555.10
10.69769,57.68875595,11.98055396,57.68875683,11.98055267,15:55:55.234611,0.01051,1.36721,1.36721,0.01260,-0.06321,-0.03315,-0.01182,-0.05625,0.03758,-0.07655,0.95581,10.68778,1.41850,2.05428,2.01749,-6.00551,11.96678,10.64672,-6.08227,12.06465,2.09311,2.09311,A,145555.10
10.72112,57.68875623,11.98055369,57.68875683,11.98055267,15:55:55.258042,0.01158,1.36721,1.36721,0.01160,-0.06870,-0.04170,0.01048,-0.05595,-0.05191,0.02971,1.01089,10.71300,1.40824,2.06469,2.02470,-6.02169,11.99744,10.64672,-6.08227,12.06465,2.09311,2.09311,A,145555.10
10.74881,57.68875652,11.98055340,57.68875683,11.98055267,15:55:55.285731,0.01314,1.36721,1.36721,0.01032,-0.07360,-0.03422,0.03186,-0.01380,0.04929,-0.00250,0.95624,10.73905,1.40003,2.07365,2.03080,-6.03895,12.02998,10.64672,-6.08227,12.06465,2.09311,2.09311,A,145555.10
10.78931,57.68875702,11.98055292,57.68875817,11.98055167,15:55:55.326223,0.02734,1.36721,1.36721,0.00946,-0.07784,-0.02750,-0.00540,-0.01533,0.16378,0.01183,0.94855,10.76554,1.39347,2.05925,2.01392,-6.06703,12.08543,10.78564,-6.14171,12.21291,1.95207,1.95207,A,145555.20
10.81402,57.68875731,11.98055265,57.68875817,11.98055167,15:55:55.351163,0.01299,1.36721,1.36721,0.00777,-0.08574,-0.05178,0.01185,-0.04953,0.03135,0.04813,1.08696,10.80532,1.38822,2.04890,1.99896,-6.08320,12.11801,10.78564,-6.14171,12.21291,1.95207,1.95207,A,145555.20
10.84334,57.68875764,11.98055236,57.68875817,11.98055167,15:55:55.380257,0.01410,1.28603,1.28603,0.00693,-0.08877,-0.05117,-0.00113,-0.05198,0.00689,0.05673,0.96404,10.83363,1.36778,2.03983,1.98812,-6.10047,12.15417,10.78564,-6.14171,12.21291,1.95207,1.95207,A,145555.20
10.86771,57.68875790,11.98055213,57.68875817,11.98055167,15:55:55.404630,0.01210,1.28603,1.28603,0.00653,-0.08925,-0.03162,0.01002,-0.03503,-0.00830,0.03825,0.89749,10.85841,1.35143,2.03247,1.98048,-6.11421,12.18345,10.78564,-6.14171,12.21291,1.95207,1.95207,A,145555.20
10.90681,57.68875837,11.98055172,57.68875933,11.98055033,15:55:55.443723,0.02605,1.28603,1.28603,0.00628,-0.08925,-0.02368,0.00193,-0.02479,0.03721,0.03959,0.99454,10.88254,1.33835,2.04995,1.99796,-6.13861,12.23531,10.90308,-6.22096,12.34264,2.11918,2.11918,A,145555.30
10.93066,57.68875864,11.98055146,57.68875933,11.98055033,15:55:55.467582,0.01176,1.28603,1.28603,0.00579,-0.08925,-0.01436,0.01445,-0.02296,0.08162,0.02422,1.02803,10.92259,1.32789,2.06621,2.01422,-6.15414,12.26576,10.90308,-6.22096,12.34264,2.11918,2.11918,A,145555.30
10.95501,57.68875890,11.98055121,57.68875933,11.98055033,15:55:55.492598,0.01254,1.28603,1.28603,0.00521,-0.08925,-0.00795,-0.02510,-0.02388,0.05020,-0.00878,1.04511,10.94449,1.31952,2.08007,2.02808,-6.16911,12.29408,10.90308,-6.22096,12.34264,2.11918,2.11918,A,145555.30
10.98189,57.68875916,11.98055094,57.68875933,11.98055033,15:55:55.519708,0.01291,1.28603,1.28603,0.00539,-0.08829,0.00763,-0.00540,-0.01487,0.03630,0.01494,0.99552,10.97336,1.31282,2.09153,2.04010,-6.18518,12.32390,10.90308,-6.22096,12.34264,2.11918,2.11918,A,145555.30
11.02192,57.68875961,11.98055049,57.68876033,11.98054933,15:55:55.558978,0.02730,1.44296,1.44296,0.00621,-0.08382,0.02153,-0.01258,-0.00051,-0.03727,0.03654,1.00192,10.99720,1.33885,2.09109,2.04228,-6.21151,12.37292,11.01787,-6.28039,12.45383,2.06168,2.06168,A,145555.40
11.04863,57.68875989,11.98055020,57.68876033,11.98054933,15:55:55.585553,0.01272,1.44296,1.44296,0.00836,-0.07518,0.02534,0.00697,-0.01548,0.07168,0.08705,0.95770,11.03928,1.35967,2.09123,2.04746,-6.22896,12.40444,11.01787,-6.28039,12.45383,2.06168,2.06168,A,145555.40
11.07327,57.68876015,11.98054993,57.68876033,11.98054933,15:55:55.610186,0.00984,1.44296,1.44296,0.01016,-0.07233,0.05161,0.00743,-0.00769,0.07735,0.05539,1.01175,11.06459,1.37633,2.09140,2.04929,-6.24501,12.43301,11.01787,-6.28039,12.45383,2.06168,2.06168,A,145555.40
11.08568,57.68876025,11.98054981,57.68876033,11.98054933,15:55:55.622624,0.00953,1.44296,1.44296,0.01107,-0.07071,0.03878,-0.00724,0.00453,0.00976,0.05734,1.04286,11.07605,1.38965,2.09248,2.05131,-6.25197,12.44407,11.01787,-6.28039,12.45383,2.06168,2.06168,A,145555.40
11.09618,57.68876034,11.98054970,57.68876033,11.98054933,15:55:55.633102,0.00943,1.44296,1.44296,0.01164,-0.06938,0.04489,-0.00357,0.00651,0.05051,0.03117,1.02785,11.08663,1.40031,2.09331,2.05293,-6.25845,12.45426,11.01787,-6.28039,12.45383,2.06168,2.06168,A,145555.40
11.10680,57.68876041,11.98054961,57.68876033,11.98054933,15:55:55.643729,0.00984,1.44296,1.44296,0.01197,-0.06814,0.04947,-0.01182,0.01125,0.04313,0.01257,1.00534,11.09704,1.40884,2.09402,2.05436,-6.26379,12.46233,11.01787,-6.28039,12.45383,2.06168,2.06168,A,145555.40
11.11744,57.68876048,11.98054953,57.68876033,11.98054933,15:55:55.654366,0.00985,1.44296,1.44296,0.01248,-0.06698,0.04871,-0.01594,0.01537,0.10461,0.02263,0.92232,11.10755,1.41567,2.09455,2.05557,-6.26871,12.46970,11.01787,-6.28039,12.45383,2.06168,2.06168,A,145555.40
11.15387,57.68876097,11.98054905,57.68876283,11.98054733,15:55:55.690782,0.03536,1.44296,1.44296,0.01320,-0.06593,0.03955,-0.02678,0.01812,0.02281,0.04392,0.97801,11.11847,1.42112,2.07992,2.04154,-6.29705,12.52422,11.15033,-6.39926,12.73182,1.97488,1.97488,A,145555.60
11.17350,57.68876124,11.98054879,57.68876283,11.98054733,15:55:55.710423,0.00988,1.41002,1.41002,0.01544,-0.06242,0.03329,-0.01380,0.01018,-0.01702,0.07985,1.03852,11.16461,1.41890,2.06844,2.03211,-6.31252,12.55495,11.15033,-6.39926,12.73182,1.97488,1.97488,A,145555.60
11.18465,57.68876140,11.98054865,57.68876283,11.98054733,15:55:55.721573,0.01007,1.41002,1.41002,0.01586,-0.06202,0.03756,-0.00403,0.00621,-0.04130,0.03672,1.04127,11.17375,1.41712,2.05934,2.02324,-6.32124,12.57261,11.15033,-6.39926,12.73182,1.97488,1.97488,A,145555.60
11.20525,57.68876168,11.98054839,57.68876283,11.98054733,15:55:55.742173,0.00882,1.41002,1.41002,0.01592,-0.06185,0.01435,0.01659,-0.00464,0.07716,0.01086,0.95922,11.19791,1.41570,2.05085,2.01485,-6.33617,12.60327,11.15033,-6.39926,12.73182,1.97488,1.97488,A,145555.60
11.21564,57.68876181,11.98054827,57.68876283,11.98054733,15:55:55.752569,0.00902,1.41002,1.41002,0.01618,-0.06185,0.00946,0.00055,-0.00555,0.06338,0.04227,0.99759,11.20582,1.41457,2.04441,2.00841,-6.34331,12.61808,11.15033,-6.39926,12.73182,1.97488,1.97488,A,145555.60
11.22595,57.68876195,11.98054815,57.68876283,11.98054733,15:55:55.763758,0.00903,1.41002,1.41002,0.01678,-0.06185,0.02015,-0.02052,-0.00601,0.08357,0.05283,0.96154,11.21734,1.41366,2.03888,2.00288,-6.35051,12.63317,11.15033,-6.39926,12.73182,1.97488,1.97488,A,145555.60
11.23790,57.68876208,11.98054804,57.68876283,11.98054733,15:55:55.775025,0.01023,1.41002,1.41002,0.01695,-0.06185,0.02702,-0.02480,-0.00525,0.07515,0.02184,0.91836,11.22748,1.41293,2.03416,1.99817,-6.35743,12.64782,11.15033,-6.39926,12.73182,1.97488,1.97488,A,145555.60
11.27868,57.68876260,11.98054758,57.68876400,11.98054617,15:55:55.815602,0.02774,1.41002,1.41002,0.01800,-0.06185,0.02000,-0.03182,0.00468,-0.04898,0.06295,0.96166,11.25432,1.41235,2.04117,2.00517,-6.38466,12.70610,11.27496,-6.46861,12.86155,2.06168,2.06168,A,145555.70
11.30560,57.68876293,11.98054728,57.68876400,11.98054617,15:55:55.842525,0.01249,1.41002,1.41002,0.01966,-0.06174,0.02382,0.02025,0.02270,0.00982,0.08028,1.02950,11.29645,1.41188,2.04810,2.01217,-6.40227,12.74277,11.27496,-6.46861,12.86155,2.06168,2.06168,A,145555.70
11.33062,57.68876321,11.98054703,57.68876400,11.98054617,15:55:55.867569,0.01361,1.66790,1.66790,0.02096,-0.06174,0.02214,0.03568,0.00605,0.08564,0.07924,0.96057,11.31967,1.46308,2.05421,2.01828,-6.41731,12.77353,11.27496,-6.46861,12.86155,2.06168,2.06168,A,145555.70
11.35910,57.68876354,11.98054672,57.68876400,11.98054617,15:55:55.896029,0.01490,1.66790,1.66790,0.02094,-0.06171,0.01771,0.00055,-0.00723,0.12102,-0.00433,0.99668,11.34920,1.50405,2.05899,2.02307,-6.43546,12.81040,11.27496,-6.46861,12.86155,2.06168,2.06168,A,145555.70
11.39755,57.68876405,11.98054625,57.68876517,11.98054500,15:55:55.934467,0.02622,1.66790,1.66790,0.02163,-0.06061,0.02122,-0.01625,0.00896,-0.05606,0.04551,1.04530,11.37378,1.53682,2.06215,2.02688,-6.46357,12.86676,11.39378,-6.53795,12.99127,2.06168,2.06168,A,145555.80
11.42340,57.68876436,11.98054596,57.68876517,11.98054500,15:55:55.960329,0.01396,1.66790,1.66790,0.02228,-0.05600,0.02137,0.00147,0.03400,0.00695,0.02037,0.95337,11.41263,1.56304,2.06549,2.03291,-6.48106,12.90105,11.39378,-6.53795,12.99127,2.06168,2.06168,A,145555.80
11.44924,57.68876466,11.98054567,57.68876517,11.98054500,15:55:55.986163,0.01317,1.66790,1.66790,0.02444,-0.05452,0.03665,0.01170,0.02102,-0.00555,0.11010,0.96667,11.43949,1.58401,2.06827,2.03654,-6.49836,12.93458,11.39378,-6.53795,12.99127,2.06168,2.06168,A,145555.80
11.47550,57.68876496,11.98054537,57.68876517,11.98054500,15:55:56.012424,0.01108,1.66790,1.66790,0.02480,-0.05283,0.01939,0.00177,0.01201,0.05801,0.02769,0.97759,11.46500,1.60079,2.07044,2.03970,-6.51571,12.96799,11.39378,-6.53795,12.99127,2.06168,2.06168,A,145555.80
11.49803,57.68876519,11.98054514,57.68876517,11.98054500,15:55:56.035685,0.01247,1.66790,1.66790,0.02536,-0.05031,0.02046,0.02651,0.01277,-0.07540,0.05069,1.10294,11.48733,1.61421,2.07236,2.04309,-6.52950,12.99419,11.39378,-6.53795,12.99127,2.06168,2.06168,A,145555.80
11.54551,57.68876589,11.98054450,57.68876783,11.98054317,15:55:56.082427,0.03491,1.19840,1.19840,0.02502,-0.04807,0.01221,0.03644,0.01339,0.11078,0.00268,0.98570,11.51044,1.53105,2.05137,2.02340,-6.56759,13.07193,11.54187,-6.64691,13.28779,1.92296,1.92296,A,145556.00
11.56637,57.68876621,11.98054423,57.68876783,11.98054317,15:55:56.103306,0.01114,1.19840,1.19840,0.02730,-0.04620,0.03924,-0.05168,0.04255,-0.09522,0.07759,1.03657,11.55762,1.46452,2.03512,2.00825,-6.58344,13.10717,11.54187,-6.64691,13.28779,1.92296,1.92296,A,145556.00
11.59508,57.68876658,11.98054393,57.68876783,11.98054317,15:55:56.132599,0.01313,1.19840,1.19840,0.02705,-0.04592,0.02489,-0.02419,0.03354,0.05923,-0.01397,1.08946,11.58398,1.41130,2.02102,1.99431,-6.60175,13.14856,11.54187,-6.64691,13.28779,1.92296,1.92296,A,145556.00
11.62078,57.68876689,11.98054368,57.68876783,11.98054317,15:55:56.157712,0.01278,1.19840,1.19840,0.02892,-0.04592,0.02504,0.01537,0.02621,-0.08009,0.12310,0.95355,11.60995,1.36872,2.00926,1.98255,-6.61614,13.18243,11.54187,-6.64691,13.28779,1.92296,1.92296,A,145556.00
11.66272,57.68876741,11.98054327,57.68876883,11.98054233,15:55:56.199644,0.02747,1.19840,1.19840,0.02949,-0.04592,0.00793,-0.00281,0.01232,-0.06301,0.07107,0.99375,11.63762,1.33466,2.00852,1.98181,-6.64072,13.24037,11.65840,-6.69644,13.39899,1.98985,1.98985,A,145556.10
11.68530,57.68876769,11.98054305,57.68876883,11.98054233,15:55:56.222217,0.00989,1.50541,1.50541,0.02956,-0.04592,0.00320,-0.01212,0.02514,-0.01086,0.04124,0.98948,11.67662,1.36881,2.00881,1.98210,-6.65377,13.27185,11.65840,-6.69644,13.39899,1.98985,1.98985,A,145556.10
11.69599,57.68876782,11.98054295,57.68876883,11.98054233,15:55:56.232912,0.00967,1.50541,1.50541,0.02912,-0.04592,0.01252,-0.00922,0.02713,0.00628,0.00732,0.94178,11.68636,1.39613,2.00964,1.98293,-6.65958,13.28662,11.65840,-6.69644,13.39899,1.98985,1.98985,A,145556.10
11.70584,57.68876796,11.98054285,57.68876883,11.98054233,15:55:56.243667,0.00907,1.50541,1.50541,0.02994,-0.04592,-0.00153,-0.01319,0.03079,0.06442,0.09540,0.95069,11.69728,1.41798,2.01030,1.98359,-6.66566,13.30194,11.65840,-6.69644,13.39899,1.98985,1.98985,A,145556.10
11.71625,57.68876810,11.98054275,57.68876883,11.98054233,15:55:56.253167,0.00742,1.50541,1.50541,0.03026,-0.04592,-0.00214,-0.03121,0.02835,0.09473,0.06655,0.96795,11.70829,1.43547,2.01084,1.98413,-6.67168,13.31702,11.65840,-6.69644,13.39899,1.98985,1.98985,A,145556.10
11.72931,57.68876824,11.98054265,57.68876883,11.98054233,15:55:56.266234,0.01024,1.50541,1.50541,0.03075,-0.04592,-0.00764,-0.02846,0.02652,-0.02708,0.08961,1.05127,11.71952,1.44946,2.01126,1.98454,-6.67789,13.33246,11.65840,-6.69644,13.39899,1.98985,1.98985,A,145556.10
11.75402,57.68876851,11.98054243,57.68876883,11.98054233,15:55:56.291815,0.01037,1.50541,1.50541,0.03044,-0.04592,-0.01726,0.02987,-0.00005,-0.19337,0.05649,1.02840,11.74476,1.46065,2.01099,1.98427,-6.69081,13.36309,11.65840,-6.69644,13.39899,1.98985,1.98985,A,145556.10
11.79567,57.68876905,11.98054199,57.68877017,11.98054117,15:55:56.332586,0.02695,1.50541,1.50541,0.02851,-0.04739,-0.04643,0.06561,-0.03228,0.17952,-0.00067,0.93537,11.77189,1.46960,2.01274,1.98517,-6.71677,13.42291,11.79194,-6.76579,13.54725,2.00828,2.00828,A,145556.20
11.82254,57.68876936,11.98054174,57.68877017,11.98054117,15:55:56.359469,0.01400,1.50541,1.50541,0.02849,-0.05625,-0.01299,-0.01609,-0.01013,0.10644,0.07686,1.00857,11.81236,1.47676,2.01582,1.98309,-6.73186,13.45787,11.79194,-6.76579,13.54725,2.00828,2.00828,A,145556.20
11.84762,57.68876966,11.98054150,57.68877017,11.98054117,15:55:56.384547,0.01225,1.50541,1.50541,0.02706,-0.06013,-0.01421,-0.01289,0.03018,-0.15775,-0.03038,1.03017,11.83805,1.48249,2.01857,1.98358,-6.74609,13.49100,11.79194,-6.76579,13.54725,2.00828,2.00828,A,145556.20
11.87644,57.68876999,11.98054123,57.68877017,11.98054117,15:55:56.413362,0.01189,1.21421,1.21421,0.02739,-0.06183,-0.02047,0.01750,0.00407,0.15884,0.09089,0.86657,11.86766,1.42883,2.02068,1.98470,-6.76201,13.52792,11.79194,-6.76579,13.54725,2.00828,2.00828,A,145556.20
11.91629,57.68877049,11.98054083,57.68877133,11.98054017,15:55:56.453210,0.02635,1.21421,1.21421,0.02712,-0.06194,-0.01589,-0.02419,-0.03594,-0.03562,0.05496,1.04353,11.89219,1.38591,2.02055,1.98451,-6.78601,13.58282,11.91256,-6.82522,13.67698,2.00042,2.00042,A,145556.30
11.93773,57.68877074,11.98054062,57.68877133,11.98054017,15:55:56.475492,0.01004,1.21421,1.21421,0.02597,-0.06194,-0.03987,0.01842,-0.04083,0.04075,0.06252,1.00613,11.92846,1.35157,2.02170,1.98565,-6.79832,13.61109,11.91256,-6.82522,13.67698,2.00042,2.00042,A,145556.30
11.96400,57.68877101,11.98054040,57.68877133,11.98054017,15:55:56.500919,0.01266,1.21421,1.21421,0.02614,-0.06211,-0.00306,0.01292,-0.01151,-0.01214,0.05887,0.98606,11.95339,1.32410,2.02255,1.98640,-6.81118,13.64053,11.91256,-6.82522,13.67698,2.00042,2.00042,A,145556.30
11.98840,57.68877124,11.98054021,57.68877133,11.98054017,15:55:56.525322,0.01164,1.21421,1.21421,0.02629,-0.06273,0.01038,-0.02526,0.00300,0.04734,0.03666,1.00985,11.97764,1.30212,2.02344,1.98693,-6.82247,13.66634,11.91256,-6.82522,13.67698,2.00042,2.00042,A,145556.30
12.01399,57.68877148,11.98054002,57.68877133,11.98054017,15:55:56.551130,0.01259,1.21421,1.21421,0.02608,-0.06290,0.03161,0.00483,-0.00219,-0.09803,-0.02763,1.03444,12.00472,1.28454,2.02409,1.98748,-6.83408,13.69283,11.91256,-6.82522,13.67698,2.00042,2.00042,A,145556.30
12.06280,57.68877206,11.98053952,57.68877367,11.98053783,15:55:56.599737,0.03697,1.21421,1.21421,0.02651,-0.06290,0.01756,0.05232,-0.01242,0.01598,0.04752,1.03169,12.02725,1.27047,2.03239,1.99579,-6.86391,13.75775,12.05855,-6.96391,13.93643,2.06168,2.06168,A,145556.50
12.08788,57.68877235,11.98053925,57.68877367,11.98053783,15:55:56.624806,0.01241,1.48495,1.48495,0.02959,-0.06290,0.06169,-0.02648,-0.01227,0.11090,0.03721,0.89481,12.07706,1.31337,2.04101,2.00440,-6.87961,13.79032,12.05855,-6.96391,13.93643,2.06168,2.06168,A,145556.50
12.11478,57.68877266,11.98053897,57.68877367,11.98053783,15:55:56.651707,0.01360,1.48495,1.48495,0.03069,-0.06290,0.06429,-0.05290,0.00422,-0.01391,-0.00183,0.95922,12.10493,1.34768,2.04815,2.01154,-6.89623,13.82443,12.05855,-6.96391,13.93643,2.06168,2.06168,A,145556.50
12.13899,57.68877291,11.98053874,57.68877367,11.98053783,15:55:56.675922,0.01054,1.48495,1.48495,0.03228,-0.06290,0.07406,-0.02266,0.00544,-0.08265,0.03764,1.08922,12.12874,1.37513,2.05447,2.01786,-6.91012,13.85230,12.05855,-6.96391,13.93643,2.06168,2.06168,A,145556.50
12.17774,57.68877340,11.98053830,57.68877483,11.98053700,15:55:56.714650,0.02627,1.48495,1.48495,0.03404,-0.06290,0.08475,0.02850,-0.00708,0.04782,0.02836,1.02254,12.15309,1.39710,2.03974,2.00313,-6.93626,13.90673,12.17419,-7.01344,14.06616,1.93552,1.93552,A,145556.60
12.20440,57.68877371,11.98053802,57.68877483,11.98053700,15:55:56.741323,0.01238,1.48495,1.48495,0.03671,-0.06290,0.06994,-0.00250,-0.02311,0.14341,0.03434,0.96063,12.19423,1.41467,2.02814,1.99153,-6.95260,13.94176,12.17419,-7.01344,14.06616,1.93552,1.93552,A,145556.60
12.22800,57.68877401,11.98053777,57.68877483,11.98053700,15:55:56.764926,0.01161,1.37305,1.37305,0.03771,-0.06290,0.06719,-0.04312,-0.01426,-0.03947,0.01074,1.04109,12.21870,1.40634,2.01832,1.98171,-6.96743,13.97432,12.17419,-7.01344,14.06616,1.93552,1.93552,A,145556.60
12.25263,57.68877428,11.98053755,57.68877483,11.98053700,15:55:56.789908,0.01156,1.37305,1.37305,0.03859,-0.06290,0.06978,-0.00815,-0.00372,0.05136,-0.00140,0.99997,12.24319,1.39969,2.01002,1.97341,-6.98092,14.00460,12.17419,-7.01344,14.06616,1.93552,1.93552,A,145556.60
12.29289,57.68877480,11.98053712,57.68877600,11.98053600,15:55:56.829809,0.02533,1.37305,1.37305,0.04085,-0.06293,0.05497,-0.02205,-0.01166,-0.04447,0.10193,0.92385,12.26920,1.39436,2.01151,1.97489,-7.00601,14.06228,12.28923,-7.07287,14.19589,2.00042,2.00042,A,145556.70
