Time,lat_estimated,lon_estimated,latitude,longitude,RealTime,CalculationTime,MeasuredVelocity,FilteredVelocity,Roll,SteeringAngle,RollRate,gy,gz,ax,ay,az,imu_read_timing,v_estimated,yaw_estimated,heading_estimated,x_estimated,y_estimated,GPS_timestamp,x_GPS,y_GPS,theta_GPS,theta_GPS_noUnwrap,status,NMEA timestamp
0.09141,57.78144633,12.77351517,57.78144633,12.77351517,17:20:33.347392,0.09136,5.95371,1.50000,-0.00057,0.03227,0.00206,-0.00439,0.01553,0.04514,-0.00872,1.07018,0.00001,0.00000,-0.01877,0.00000,0.00000,0.00000,0.02298,0.00000,0.00000,0.00000,0.00000,A,082722.70
0.11346,57.78144633,12.77351517,57.78144633,12.77351517,17:20:33.369426,0.01177,5.95371,1.50000,-0.00316,0.03227,-0.01963,-0.00286,0.01844,0.03141,-0.00256,0.99936,0.10374,0.30000,-0.01877,0.00000,0.00000,0.00000,0.02298,0.00000,0.00000,0.00000,0.00000,A,082722.70
0.18635,57.78144633,12.77351528,57.78144700,12.77351483,17:20:33.442936,0.06109,5.95371,1.50000,-0.00409,0.03227,-0.01963,-0.00271,0.01752,0.01116,0.00665,0.96508,0.13022,0.54000,-0.01860,0.00017,0.00660,0.00000,0.15015,-0.01976,0.07413,1.83131,1.83131,A,082722.80
0.21034,57.78144637,12.77351585,57.78144700,12.77351483,17:20:33.466532,0.00978,5.95371,1.50000,-0.00660,0.03227,-0.03414,-0.01539,0.03310,0.03416,0.02403,1.08251,0.20030,0.73200,0.25695,0.27572,0.04029,0.00371,0.15015,-0.01976,0.07413,1.83131,1.83131,A,082722.80
0.22356,57.78144642,12.77351592,57.78144700,12.77351483,17:20:33.479518,0.01210,5.95371,1.50000,-0.00783,0.03207,-0.03857,-0.02486,0.01508,0.04605,-0.01397,1.01162,0.21512,0.88560,0.49050,0.50915,0.04475,0.00934,0.15015,-0.01976,0.07413,1.83131,1.83131,A,082722.80
0.24983,57.78144654,12.77351617,57.78144700,12.77351483,17:20:33.505785,0.01289,5.95371,1.50000,-0.00941,0.03176,-0.04758,-0.03173,0.00851,0.02440,0.00653,0.96959,0.24167,1.00848,0.68937,0.70784,0.05949,0.02261,0.15015,-0.01976,0.07413,1.83131,1.83131,A,082722.80
0.32481,57.78144669,12.77351639,57.78144767,12.77351417,17:20:33.581672,0.06079,5.95371,1.50000,-0.01056,0.03136,-0.04177,-0.02165,0.03249,0.00903,0.02013,1.00516,0.26682,1.10678,0.85848,0.87671,0.07253,0.03974,0.28809,-0.05928,0.14826,2.06061,2.06061,A,082722.90
0.34592,57.78144723,12.77351705,57.78144767,12.77351417,17:20:33.601878,0.00848,5.95371,1.50000,-0.01167,0.01817,-0.01856,-0.01035,0.03401,0.07845,0.03379,0.92025,0.33776,1.18543,1.03895,1.04952,0.11154,0.09996,0.28809,-0.05928,0.14826,2.06061,2.06061,A,082722.90
0.35883,57.78144735,12.77351701,57.78144767,12.77351417,17:20:33.614812,0.01100,5.95371,1.50000,-0.01236,0.01656,-0.01093,-0.02379,0.01706,0.05557,-0.01366,0.95081,0.35027,1.24834,1.19093,1.20055,0.10900,0.11281,0.28809,-0.05928,0.14826,2.06061,2.06061,A,082722.90
0.37940,57.78144755,12.77351700,57.78144767,12.77351417,17:20:33.635364,0.00992,5.95371,1.50000,-0.01344,0.01520,-0.01520,-0.01646,0.00103,-0.00396,-0.03032,1.01388,0.37092,1.29867,1.32034,1.32918,0.10867,0.13543,0.28809,-0.05928,0.14826,2.06061,2.06061,A,082722.90
0.45313,57.78144768,12.77351691,57.78144900,12.77351283,17:20:33.710142,0.07284,5.95371,1.50000,-0.01377,0.01483,-0.02803,-0.00073,-0.00188,-0.04581,0.02403,1.05451,0.38419,1.33894,1.43025,1.43887,0.10356,0.14942,0.41519,-0.13833,0.29652,2.06061,2.06061,A,082723.10
0.49670,57.78144885,12.77351699,57.78144900,12.77351283,17:20:33.752664,0.02880,5.95371,1.50000,-0.01375,0.00003,0.01122,-0.01859,0.00668,0.03416,-0.05258,0.96636,0.48387,1.37115,1.52624,1.52625,0.10780,0.27987,0.41519,-0.13833,0.29652,2.06061,2.06061,A,082723.10
0.57430,57.78144917,12.77351680,57.78144983,12.77351217,17:20:33.830499,0.06103,5.95371,1.50000,-0.01396,-0.00116,0.00251,-0.01478,-0.00798,0.07802,-0.00220,0.97673,0.51701,1.39692,1.60649,1.60582,0.09704,0.31541,0.53738,-0.17785,0.38918,1.97395,1.97395,A,082723.20
0.59984,57.78145006,12.77351652,57.78144983,12.77351217,17:20:33.855798,0.01509,5.95371,1.50000,-0.01321,-0.00665,0.01855,0.00874,0.01431,0.05642,-0.02550,1.03096,0.59138,1.41754,1.66211,1.65824,0.07996,0.41436,0.53738,-0.17785,0.38918,1.97395,1.97395,A,082723.20
0.62434,57.78145031,12.77351625,57.78144983,12.77351217,17:20:33.880302,0.01108,5.95371,1.50000,-0.01312,-0.00875,0.02664,0.01897,0.00332,-0.03886,-0.02196,1.15131,0.61521,1.43403,1.70950,1.70441,0.06452,0.44224,0.53738,-0.17785,0.38918,1.97395,1.97395,A,082723.20
0.69912,57.78145058,12.77351598,57.78145067,12.77351150,17:20:33.955643,0.06087,5.95371,1.50000,-0.01320,-0.01030,0.02176,0.01760,-0.01027,0.11590,-0.02830,0.99094,0.64241,1.44722,1.74984,1.74385,0.04797,0.47256,0.66245,-0.21737,0.48184,1.97395,1.97395,A,082723.30
0.72091,57.78145142,12.77351548,57.78145067,12.77351150,17:20:33.976863,0.00866,0.90252,0.90252,-0.01344,-0.01432,0.00526,-0.01569,-0.01501,0.00732,-0.02172,0.95258,0.71256,1.33828,1.78395,1.77562,0.01847,0.56588,0.66245,-0.21737,0.48184,1.97395,1.97395,A,082723.30
0.72812,57.78145144,12.77351526,57.78145067,12.77351150,17:20:33.984074,0.00533,0.90252,0.90252,-0.01398,-0.01537,0.00328,-0.01371,-0.00921,-0.02111,-0.02141,1.02022,0.71959,1.25113,1.81372,1.80478,0.00538,0.56791,0.66245,-0.21737,0.48184,1.97395,1.97395,A,082723.30
0.73860,57.78145149,12.77351503,57.78145067,12.77351150,17:20:33.994570,0.00541,0.90252,0.90252,-0.01406,-0.01684,0.01076,0.00553,-0.00783,-0.03825,0.00360,1.12374,0.73027,1.18141,1.83910,1.82931,-0.00809,0.57342,0.66245,-0.21737,0.48184,1.97395,1.97395,A,082723.30
0.74880,57.78145153,12.77351481,57.78145067,12.77351150,17:20:34.004756,0.00522,0.90252,0.90252,-0.01378,-0.01806,0.01443,0.02493,-0.00340,0.00012,0.02843,1.12954,0.74037,1.12563,1.86078,1.85028,-0.02094,0.57786,0.66245,-0.21737,0.48184,1.97395,1.97395,A,082723.30
0.75938,57.78145157,12.77351461,57.78145067,12.77351150,17:20:34.015604,0.00541,0.90252,0.90252,-0.01392,-0.01913,0.02145,0.02554,-0.00249,0.09729,-0.00915,1.14851,0.75099,1.08101,1.87930,1.86817,-0.03327,0.58180,0.66245,-0.21737,0.48184,1.97395,1.97395,A,082723.30
0.81917,57.78145159,12.77351441,57.78145150,12.77351083,17:20:34.075154,0.05473,0.90252,1.50000,-0.01383,-0.01993,0.01687,0.01088,-0.00249,0.12834,0.01110,1.10965,0.76144,1.04531,1.89511,1.88352,-0.04500,0.58502,0.78124,-0.25690,0.57451,1.97395,1.97395,A,082723.40
0.83721,57.78145215,12.77351389,57.78145150,12.77351083,17:20:34.093167,0.00756,0.90252,0.90252,-0.01412,-0.02343,-0.00100,-0.03753,-0.02830,-0.03404,0.00073,0.92818,0.82907,1.01675,1.90796,1.89434,-0.07572,0.64673,0.78124,-0.25690,0.57451,1.97395,1.97395,A,082723.40
0.84526,57.78145217,12.77351370,57.78145150,12.77351083,17:20:34.101212,0.00521,0.90252,0.90252,-0.01470,-0.02377,0.00419,-0.01691,-0.02387,-0.03135,-0.02306,0.91567,0.83716,0.99391,1.91983,1.90600,-0.08671,0.64888,0.78124,-0.25690,0.57451,1.97395,1.97395,A,082723.40
0.85591,57.78145220,12.77351352,57.78145150,12.77351083,17:20:34.111875,0.00529,0.90252,0.90252,-0.01495,-0.02420,-0.00176,-0.00454,-0.01913,-0.03630,-0.00098,0.96844,0.84751,0.97563,1.92991,1.91583,-0.09788,0.65281,0.78124,-0.25690,0.57451,1.97395,1.97395,A,082723.40
0.86612,57.78145224,12.77351334,57.78145150,12.77351083,17:20:34.122079,0.00510,0.90252,0.90252,-0.01544,-0.02459,-0.00100,0.00004,-0.02020,0.04276,-0.01714,0.98045,0.85804,0.96101,1.93851,1.92421,-0.10848,0.65626,0.78124,-0.25690,0.57451,1.97395,1.97395,A,082723.40
0.87645,57.78145226,12.77351317,57.78145150,12.77351083,17:20:34.132412,0.00520,0.90252,0.90252,-0.01578,-0.02499,0.00450,-0.00638,-0.01257,0.08095,-0.01183,0.99900,0.86809,0.94931,1.94586,1.93133,-0.11852,0.65927,0.78124,-0.25690,0.57451,1.97395,1.97395,A,082723.40
0.94528,57.78145229,12.77351300,57.78145333,12.77350933,17:20:34.201514,0.06364,0.90252,1.50000,-0.01571,-0.02544,0.00908,-0.01401,-0.00493,0.08503,0.01311,1.06671,0.87866,0.93995,1.95215,1.93735,-0.12817,0.66227,0.90958,-0.34582,0.77836,1.98213,1.98213,A,082723.60
0.96533,57.78145291,12.77351241,57.78145333,12.77350933,17:20:34.221288,0.00883,0.90252,0.90252,-0.01595,-0.02785,0.00312,0.00477,-0.02998,0.00018,-0.01787,0.98741,0.95638,0.93247,1.95772,1.94152,-0.16352,0.73183,0.90958,-0.34582,0.77836,1.98213,1.98213,A,082723.60
0.97188,57.78145297,12.77351223,57.78145333,12.77350933,17:20:34.227830,0.00520,0.90252,0.90252,-0.01685,-0.02785,0.00206,0.01195,-0.03547,0.05929,-0.04715,0.98125,0.96346,0.92648,1.96373,1.94753,-0.17407,0.73785,0.90958,-0.34582,0.77836,1.98213,1.98213,A,082723.60
0.98227,57.78145305,12.77351204,57.78145333,12.77350933,17:20:34.238485,0.00519,0.90252,0.90252,-0.01737,-0.02785,-0.00222,-0.00088,-0.03288,0.07180,-0.01976,0.96905,0.97416,0.92169,1.96875,1.95255,-0.18545,0.74693,0.90958,-0.34582,0.77836,1.98213,1.98213,A,082723.60
0.99261,57.78145313,12.77351186,57.78145333,12.77350933,17:20:34.248569,0.00514,0.90252,0.90252,-0.01763,-0.02785,-0.00436,-0.00225,-0.02051,0.00860,-0.00305,1.03596,0.98426,0.91785,1.97303,1.95683,-0.19618,0.75524,0.90958,-0.34582,0.77836,1.98213,1.98213,A,082723.60
1.00365,57.78145320,12.77351168,57.78145333,12.77350933,17:20:34.259604,0.00578,0.90252,0.90252,-0.01821,-0.02785,-0.01444,0.00248,-0.01669,0.03916,-0.01677,1.00845,0.99503,0.91479,1.97666,1.96046,-0.20653,0.76346,0.90958,-0.34582,0.77836,1.98213,1.98213,A,082723.60
1.06297,57.78145326,12.77351152,57.78145433,12.77350850,17:20:34.318974,0.05470,0.90252,1.50000,-0.01782,-0.02785,-0.00879,-0.00516,-0.00691,0.03715,0.04270,0.99180,1.00525,0.91233,1.97976,1.96356,-0.21611,0.77058,1.02493,-0.39522,0.88956,1.98889,1.98889,A,082723.70
1.08143,57.78145379,12.77351100,57.78145433,12.77350850,17:20:34.337382,0.00730,0.90252,0.90252,-0.01907,-0.02785,-0.01688,-0.04257,-0.00371,-0.04972,0.00268,0.98149,1.07243,0.91037,1.98233,1.96613,-0.24677,0.82891,1.02493,-0.39522,0.88956,1.98889,1.98889,A,082723.70
1.08952,57.78145386,12.77351084,57.78145433,12.77350850,17:20:34.345480,0.00500,0.90252,0.90252,-0.01901,-0.02785,-0.02070,-0.02501,-0.01226,-0.05655,0.02556,0.98735,1.08145,0.90880,1.98562,1.96943,-0.25631,0.83702,1.02493,-0.39522,0.88956,1.98889,1.98889,A,082723.70
1.10021,57.78145395,12.77351068,57.78145433,12.77350850,17:20:34.356168,0.00522,0.90252,0.90252,-0.01842,-0.02785,-0.01352,-0.01554,-0.00585,-0.07662,0.05813,0.97978,1.09181,0.90754,1.98838,1.97219,-0.26614,0.84649,1.02493,-0.39522,0.88956,1.98889,1.98889,A,082723.70
1.11073,57.78145403,12.77351052,57.78145433,12.77350850,17:20:34.366696,0.00534,0.90252,0.90252,-0.01895,-0.02785,-0.01291,0.00294,-0.00203,0.07613,-0.01458,0.93086,1.10240,0.90654,1.99073,1.97453,-0.27546,0.85540,1.02493,-0.39522,0.88956,1.98889,1.98889,A,082723.70
1.12094,57.78145410,12.77351037,57.78145433,12.77350850,17:20:34.376891,0.00515,0.90252,0.90252,-0.01954,-0.02785,-0.01398,-0.01279,-0.00249,0.10394,-0.01976,0.96990,1.11256,0.90574,1.99272,1.97653,-0.28437,0.86396,1.02493,-0.39522,0.88956,1.98889,1.98889,A,082723.70
1.17769,57.78145418,12.77351023,57.78145533,12.77350767,17:20:34.433703,0.05151,0.90252,1.50000,-0.02057,-0.02785,-0.01780,-0.03264,-0.00050,0.07143,-0.04538,0.97679,1.12317,0.90509,1.99442,1.97822,-0.29282,0.87200,1.14297,-0.44463,1.00075,1.98889,1.98889,A,082723.80
1.19752,57.78145468,12.77350974,57.78145533,12.77350767,17:20:34.453486,0.00762,0.90252,0.90252,-0.02233,-0.02785,-0.03322,-0.03264,0.01019,-0.09119,0.03630,1.15168,1.18708,0.90458,1.99485,1.97866,-0.32175,0.92787,1.14297,-0.44463,1.00075,1.98889,1.98889,A,082723.80
1.20537,57.78145476,12.77350960,57.78145533,12.77350767,17:20:34.461324,0.00507,0.90252,0.90252,-0.02263,-0.02785,-0.03643,-0.00012,0.00164,-0.03312,0.01305,1.16675,1.19727,0.90417,1.99627,1.98007,-0.33003,0.93647,1.14297,-0.44463,1.00075,1.98889,1.98889,A,082723.80
1.21609,57.78145484,12.77350945,57.78145533,12.77350767,17:20:34.472045,0.00527,0.90252,0.90252,-0.02331,-0.02785,-0.03811,0.01470,-0.00707,0.01763,-0.01342,1.08141,1.20763,0.90384,1.99743,1.98124,-0.33869,0.94644,1.14297,-0.44463,1.00075,1.98889,1.98889,A,082723.80
1.22631,57.78145493,12.77350932,57.78145533,12.77350767,17:20:34.482508,0.00509,0.90252,0.90252,-0.02355,-0.02776,-0.03124,0.00935,-0.00768,0.04325,0.01141,1.01907,1.21822,0.90357,1.99842,1.98227,-0.34689,0.95583,1.14297,-0.44463,1.00075,1.98889,1.98889,A,082723.80
1.23685,57.78145501,12.77350918,57.78145533,12.77350767,17:20:34.492805,0.00523,0.90252,0.90252,-0.02426,-0.02743,-0.04025,0.00721,-0.00233,-0.07113,-0.01507,1.03907,1.22841,0.90336,1.99923,1.98328,-0.35466,0.96468,1.14297,-0.44463,1.00075,1.98889,1.98889,A,082723.80
1.29428,57.78145509,12.77350906,57.78145633,12.77350683,17:20:34.550452,0.05227,0.90252,1.50000,-0.02557,-0.02675,-0.04269,0.02279,0.00210,-0.06625,-0.05466,1.04249,1.23902,0.90320,1.99985,1.98430,-0.36209,0.97318,1.25945,-0.49403,1.11195,1.98889,1.98889,A,082723.90
1.31709,57.78145562,12.77350856,57.78145633,12.77350683,17:20:34.573049,0.00926,1.21043,1.21043,-0.02970,-0.02462,-0.05613,0.02478,-0.01837,0.06618,-0.01525,0.80410,1.30801,0.96464,1.99916,1.98484,-0.39175,1.03269,1.25945,-0.49403,1.11195,1.98889,1.98889,A,082723.90
1.32344,57.78145569,12.77350845,57.78145633,12.77350683,17:20:34.579391,0.00547,1.21043,1.21043,-0.03132,-0.02462,-0.05506,0.01256,-0.01990,0.09626,-0.06667,0.78287,1.31506,1.01380,1.99969,1.98537,-0.39846,1.04028,1.25945,-0.49403,1.11195,1.98889,1.98889,A,082723.90
1.33343,57.78145579,12.77350831,57.78145633,12.77350683,17:20:34.589386,0.00507,1.21043,1.21043,-0.03272,-0.02462,-0.05735,-0.00409,-0.02631,0.10193,-0.04996,0.85595,1.32534,1.05313,2.00007,1.98575,-0.40643,1.05110,1.25945,-0.49403,1.11195,1.98889,1.98889,A,082723.90
1.34402,57.78145588,12.77350818,57.78145633,12.77350683,17:20:34.599970,0.00519,1.21043,1.21043,-0.03355,-0.02462,-0.06682,-0.00836,-0.02432,0.00964,-0.01415,0.96563,1.33564,1.08459,2.00038,1.98606,-0.41424,1.06195,1.25945,-0.49403,1.11195,1.98889,1.98889,A,082723.90
1.35477,57.78145598,12.77350805,57.78145633,12.77350683,17:20:34.610752,0.00556,1.21043,1.21043,-0.03463,-0.02462,-0.06376,0.00324,-0.01913,0.02940,-0.03623,1.10465,1.34636,1.10976,2.00063,1.98631,-0.42184,1.07262,1.25945,-0.49403,1.11195,1.98889,1.98889,A,082723.90
1.41335,57.78145607,12.77350793,57.78145750,12.77350583,17:20:34.669340,0.05374,1.21043,1.50000,-0.03480,-0.02462,-0.06254,0.00279,-0.00936,0.09614,0.02910,1.16400,1.35664,1.12989,2.00084,1.98652,-0.42915,1.08299,1.37640,-0.55331,1.24168,1.99944,1.99944,A,082724.00
1.43413,57.78145674,12.77350733,57.78145750,12.77350583,17:20:34.690087,0.00875,1.21043,1.21043,-0.03766,-0.02462,-0.03582,-0.04303,0.00943,-0.02940,-0.02959,0.84607,1.42600,1.14600,2.00140,1.98708,-0.46457,1.15709,1.37640,-0.55331,1.24168,1.99944,1.99944,A,082724.00
1.44070,57.78145682,12.77350722,57.78145750,12.77350583,17:20:34.696658,0.00512,1.21043,1.21043,-0.03729,-0.02462,-0.03429,-0.03112,0.00652,-0.04294,0.02495,0.85491,1.43233,1.15889,2.00316,1.98884,-0.47099,1.16581,1.37640,-0.55331,1.24168,1.99944,1.99944,A,082724.00
1.45138,57.78145693,12.77350709,57.78145750,12.77350583,17:20:34.707339,0.00540,1.21043,1.21043,-0.03828,-0.02462,-0.03261,0.00355,-0.00478,-0.14585,-0.04679,0.88389,1.44300,1.16920,2.00457,1.99025,-0.47896,1.17827,1.37640,-0.55331,1.24168,1.99944,1.99944,A,082724.00
1.46144,57.78145703,12.77350696,57.78145750,12.77350583,17:20:34.717398,0.00506,1.21043,1.21043,-0.03953,-0.02462,-0.01932,0.03974,-0.01089,-0.05685,-0.07277,0.90335,1.45334,1.17744,2.00577,1.99145,-0.48643,1.18984,1.37640,-0.55331,1.24168,1.99944,1.99944,A,082724.00
1.47204,57.78145714,12.77350684,57.78145750,12.77350583,17:20:34.727992,0.00521,1.21043,1.21043,-0.03948,-0.02462,-0.02207,0.05639,-0.00691,-0.04294,0.00641,0.99985,1.46364,1.18404,2.00679,1.99247,-0.49366,1.20112,1.37640,-0.55331,1.24168,1.99944,1.99944,A,082724.00
1.54222,57.78145723,12.77350672,57.78145967,12.77350383,17:20:34.798404,0.06499,1.21043,1.50000,-0.03972,-0.02443,-0.00879,0.07227,-0.00294,0.03666,-0.02190,1.04578,1.47422,1.18932,2.00763,1.99343,-0.50055,1.21188,1.50612,-0.67188,1.48260,2.02814,2.02814,A,082724.20
1.56347,57.78145807,12.77350597,57.78145967,12.77350383,17:20:34.819432,0.00782,1.21043,1.21043,-0.03798,-0.01565,0.01855,-0.01691,0.01828,-0.04490,0.00952,1.05585,1.55377,1.19354,2.01040,2.00130,-0.54517,1.30558,1.50612,-0.67188,1.48260,2.02814,2.02814,A,082724.20
1.57145,57.78145821,12.77350582,57.78145967,12.77350383,17:20:34.827406,0.00541,1.21043,1.21043,-0.03917,-0.01542,0.02512,-0.00699,0.01492,0.06564,-0.10529,1.01742,1.56305,1.19692,2.01433,2.00536,-0.55433,1.32058,1.50612,-0.67188,1.48260,2.02814,2.02814,A,082724.20
1.58149,57.78145836,12.77350565,57.78145967,12.77350383,17:20:34.837441,0.00505,1.21043,1.21043,-0.03983,-0.01517,0.02725,-0.03020,0.01248,0.06814,-0.07119,0.97899,1.57341,1.19962,2.01761,2.00879,-0.56417,1.33722,1.50612,-0.67188,1.48260,2.02814,2.02814,A,082724.20
1.59203,57.78145850,12.77350549,57.78145967,12.77350383,17:20:34.847989,0.00520,1.21043,1.21043,-0.03860,-0.01449,0.02909,-0.04257,0.01569,-0.01604,0.04984,0.95941,1.58365,1.20178,2.02034,2.01191,-0.57365,1.35323,1.50612,-0.67188,1.48260,2.02814,2.02814,A,082724.20
1.60230,57.78145864,12.77350534,57.78145967,12.77350383,17:20:34.858507,0.00507,1.21043,1.21043,-0.03835,-0.01330,0.03840,-0.04792,0.02042,-0.02056,-0.01806,0.93293,1.59422,1.20351,2.02256,2.01482,-0.58271,1.36848,1.50612,-0.67188,1.48260,2.02814,2.02814,A,082724.20
1.66188,57.78145877,12.77350519,57.78146083,12.77350283,17:20:34.918972,0.05426,1.21043,1.50000,-0.03777,-0.01186,0.03168,-0.04364,0.03523,-0.08936,0.00823,0.93666,1.60441,1.20490,2.02433,2.01743,-0.59130,1.38288,1.62421,-0.73116,1.61233,1.99944,1.99944,A,082724.30
1.68194,57.78145950,12.77350451,57.78146083,12.77350283,17:20:34.937900,0.00764,1.21043,1.21043,-0.03543,-0.00880,0.04848,0.01012,0.00515,-0.07497,-0.07686,1.05878,1.67381,1.20601,2.02065,2.01553,-0.63162,1.46394,1.62421,-0.73116,1.61233,1.99944,1.99944,A,082724.30
1.68979,57.78145962,12.77350438,57.78146083,12.77350283,17:20:34.945743,0.00508,1.21043,1.21043,-0.03542,-0.00880,0.05352,0.02004,0.01202,-0.00537,-0.03263,1.00388,1.68172,1.20689,2.01819,2.01307,-0.63960,1.47765,1.62421,-0.73116,1.61233,1.99944,1.99944,A,082724.30
1.70013,57.78145976,12.77350423,57.78146083,12.77350283,17:20:34.956085,0.00518,1.21043,1.21043,-0.03448,-0.00880,0.05169,0.00889,0.01355,0.08473,0.02135,0.92653,1.69176,1.20760,2.01608,2.01096,-0.64824,1.49297,1.62421,-0.73116,1.61233,1.99944,1.99944,A,082724.30
1.71080,57.78145989,12.77350409,57.78146083,12.77350283,17:20:34.966777,0.00547,1.21043,1.21043,-0.03360,-0.00880,0.05016,-0.00363,0.01416,0.10260,0.01684,0.88224,1.70234,1.20817,2.01429,2.00917,-0.65656,1.50780,1.62421,-0.73116,1.61233,1.99944,1.99944,A,082724.30
1.72091,57.78146002,12.77350396,57.78146083,12.77350283,17:20:34.976862,0.00518,1.21043,1.21043,-0.03311,-0.00880,0.04909,-0.01829,0.01630,0.02403,-0.00305,0.91585,1.71252,1.20862,2.01276,2.00764,-0.66451,1.52203,1.62421,-0.73116,1.61233,1.99944,1.99944,A,082724.30
1.78269,57.78146014,12.77350383,57.78146200,12.77350200,17:20:35.039236,0.05656,1.21043,1.50000,-0.03298,-0.00880,0.04527,-0.00943,0.01095,-0.06600,-0.02409,0.92122,1.72311,1.20898,2.01146,2.00634,-0.67212,1.53569,1.74335,-0.78057,1.74205,1.93466,1.93466,A,082724.40
1.80444,57.78146090,12.77350316,57.78146200,12.77350200,17:20:35.060400,0.00926,1.52073,1.52073,-0.02989,-0.00880,0.02817,-0.02363,0.01004,-0.00939,0.07271,1.06695,1.79602,1.27133,2.00016,1.99504,-0.71166,1.61934,1.74335,-0.78057,1.74205,1.93466,1.93466,A,082724.40
1.81032,57.78146099,12.77350307,57.78146200,12.77350200,17:20:35.066521,0.00502,1.52073,1.52073,-0.02953,-0.00880,0.03779,-0.02409,0.01019,0.01549,0.00762,0.98271,1.80227,1.32121,1.99106,1.98595,-0.71717,1.63005,1.74335,-0.78057,1.74205,1.93466,1.93466,A,082724.40
1.82098,57.78146113,12.77350294,57.78146200,12.77350200,17:20:35.076937,0.00516,1.52073,1.52073,-0.02970,-0.00880,0.04253,-0.01982,0.01004,0.00903,-0.03837,0.94940,1.81263,1.36111,1.98330,1.97818,-0.72482,1.64579,1.74335,-0.78057,1.74205,1.93466,1.93466,A,082724.40
1.83162,57.78146127,12.77350282,57.78146200,12.77350200,17:20:35.087573,0.00540,1.52073,1.52073,-0.03072,-0.00880,0.03061,-0.01951,0.00897,0.03129,-0.08064,0.89920,1.82320,1.39304,1.97669,1.97157,-0.73198,1.66075,1.74335,-0.78057,1.74205,1.93466,1.93466,A,082724.40
1.84169,57.78146140,12.77350271,57.78146200,12.77350200,17:20:35.097644,0.00508,1.52073,1.52073,-0.03126,-0.00880,0.02939,-0.01753,0.00225,-0.07710,-0.05490,0.94934,1.83361,1.41857,1.97108,1.96596,-0.73870,1.67495,1.74335,-0.78057,1.74205,1.93466,1.93466,A,082724.40
1.90282,57.78146152,12.77350260,57.78146333,12.77350100,17:20:35.158809,0.05596,1.52073,1.50000,-0.03147,-0.00880,0.01992,-0.00577,-0.00707,-0.06063,-0.02806,0.98259,1.84367,1.43900,1.96631,1.96119,-0.74510,1.68862,1.86409,-0.83985,1.89031,1.95118,1.95118,A,082724.50
1.92285,57.78146239,12.77350192,57.78146333,12.77350100,17:20:35.178814,0.00774,1.52073,1.52073,-0.03020,-0.00880,0.01763,-0.01600,0.01111,0.04093,0.00049,0.95410,1.91446,1.45535,1.96416,1.95905,-0.78560,1.78561,1.86409,-0.83985,1.89031,1.95118,1.95118,A,082724.50
1.93085,57.78146251,12.77350181,57.78146333,12.77350100,17:20:35.186815,0.00534,1.52073,1.52073,-0.02968,-0.00880,0.01672,-0.02165,0.00683,0.00427,0.02342,0.95447,1.92253,1.46842,1.96293,1.95781,-0.79158,1.79884,1.86409,-0.83985,1.89031,1.95118,1.95118,A,082724.50
1.94101,57.78146265,12.77350170,57.78146333,12.77350100,17:20:35.196962,0.00511,1.52073,1.52073,-0.02968,-0.00886,0.01198,-0.01905,0.00316,0.03861,-0.00756,0.93842,1.93290,1.47888,1.96186,1.95670,-0.79852,1.81452,1.86409,-0.83985,1.89031,1.95118,1.95118,A,082724.50
1.95170,57.78146279,12.77350159,57.78146333,12.77350100,17:20:35.207655,0.00540,1.52073,1.52073,-0.02959,-0.00906,0.01702,-0.01844,-0.00188,0.01006,-0.00586,0.96593,1.94328,1.48725,1.96096,1.95569,-0.80513,1.82950,1.86409,-0.83985,1.89031,1.95118,1.95118,A,082724.50
1.96179,57.78146291,12.77350148,57.78146333,12.77350100,17:20:35.217740,0.00509,1.52073,1.52073,-0.02959,-0.00934,0.01076,-0.01249,-0.00478,-0.02227,-0.00793,1.00436,1.95370,1.49395,1.96023,1.95480,-0.81128,1.84343,1.86409,-0.83985,1.89031,1.95118,1.95118,A,082724.50
2.02613,57.78146303,12.77350138,57.78146450,12.77350000,17:20:35.282848,0.05920,1.52073,1.50000,-0.02969,-0.00962,0.01229,0.00676,-0.00798,-0.03117,-0.01482,1.00644,1.96375,1.49930,1.95962,1.95403,-0.81711,1.85667,1.98356,-0.89913,2.02004,1.99944,1.99944,A,082724.60
2.04918,57.78146397,12.77350066,57.78146450,12.77350000,17:20:35.305190,0.01093,1.52073,1.52073,-0.02767,-0.01044,0.02741,-0.05143,0.00683,0.02141,-0.00067,1.04316,2.03875,1.50359,1.96573,1.95966,-0.86007,1.96122,1.98356,-0.89913,2.02004,1.99944,1.99944,A,082724.60
2.06795,57.78146422,12.77350046,57.78146450,12.77350000,17:20:35.323912,0.00756,1.52073,1.52073,-0.02744,-0.01166,0.01931,-0.01615,-0.00432,-0.01458,-0.00964,0.99326,2.05950,1.50702,1.97159,1.96481,-0.87212,1.98881,1.98356,-0.89913,2.02004,1.99944,1.99944,A,082724.60
2.07602,57.78146430,12.77350038,57.78146450,12.77350000,17:20:35.331976,0.00521,1.52073,1.52073,-0.02763,-0.01220,0.01916,-0.01035,-0.00600,0.02836,-0.02129,0.97386,2.06763,1.50976,1.97675,1.96966,-0.87678,1.99833,1.98356,-0.89913,2.02004,1.99944,1.99944,A,082724.60
2.14863,57.78146442,12.77350028,57.78146700,12.77349800,17:20:35.404620,0.06741,1.52073,1.50000,-0.02821,-0.01271,0.01168,-0.00913,-0.00921,0.07729,-0.04002,0.86827,2.07820,1.51195,1.98115,1.97376,-0.88265,2.01068,2.10923,-1.01770,2.29803,1.97395,1.97395,A,082724.80
2.16424,57.78146545,12.77349944,57.78146700,12.77349800,17:20:35.420192,0.00782,1.52073,1.52073,-0.02651,-0.01296,0.01382,0.05517,-0.00600,0.05350,0.04941,1.12094,2.15517,1.51371,1.98012,1.97259,-0.93208,2.12517,2.10923,-1.01770,2.29803,1.97395,1.97395,A,082724.80
2.17203,57.78146559,12.77349932,57.78146700,12.77349800,17:20:35.427986,0.00522,1.52073,1.52073,-0.02617,-0.01296,0.01320,0.04692,-0.01043,0.13902,0.02080,1.15894,2.16363,1.51511,1.98025,1.97271,-0.93959,2.14141,2.10923,-1.01770,2.29803,1.97395,1.97395,A,082724.80
2.18232,57.78146576,12.77349917,57.78146700,12.77349800,17:20:35.438528,0.00511,1.52073,1.52073,-0.02512,-0.01296,0.00496,0.01302,-0.01073,0.03331,0.07808,1.12454,2.17423,1.51623,1.98031,1.97277,-0.94830,2.16054,2.10923,-1.01770,2.29803,1.97395,1.97395,A,082724.80
2.19292,57.78146593,12.77349903,57.78146700,12.77349800,17:20:35.448875,0.00531,1.52073,1.52073,-0.02510,-0.01296,0.00816,-0.01249,-0.00081,0.07960,-0.00061,1.01669,2.18438,1.51713,1.98036,1.97283,-0.95649,2.17852,2.10923,-1.01770,2.29803,1.97395,1.97395,A,082724.80
2.20356,57.78146608,12.77349890,57.78146700,12.77349800,17:20:35.459513,0.00555,1.52073,1.52073,-0.02456,-0.01296,0.00648,-0.01798,0.01156,0.07003,0.03532,0.99619,2.19501,1.51785,1.98041,1.97287,-0.96450,2.19613,2.10923,-1.01770,2.29803,1.97395,1.97395,A,082724.80
2.26147,57.78146623,12.77349877,57.78146833,12.77349683,17:20:35.517469,0.05306,1.52073,1.50000,-0.02477,-0.01296,0.00878,-0.04364,0.02012,0.09388,-0.01586,0.96959,2.20538,1.51843,1.98045,1.97291,-0.97176,2.21204,2.22501,-1.08687,2.44629,2.00729,2.00729,A,082724.90
2.28287,57.78146713,12.77349804,57.78146833,12.77349683,17:20:35.538837,0.00669,1.44477,1.44477,-0.02520,-0.01296,-0.00054,0.07059,-0.02081,0.07802,-0.02306,1.06262,2.27402,1.50369,1.98463,1.97710,-1.01527,2.31253,2.22501,-1.08687,2.44629,2.00729,2.00729,A,082724.90
2.29191,57.78146728,12.77349791,57.78146833,12.77349683,17:20:35.547866,0.00518,1.44477,1.44477,-0.02592,-0.01296,-0.00100,0.04173,-0.00722,0.13743,-0.04941,1.13033,2.28353,1.49191,1.98906,1.98152,-1.02292,2.32869,2.22501,-1.08687,2.44629,2.00729,2.00729,A,082724.90
2.30267,57.78146743,12.77349777,57.78146833,12.77349683,17:20:35.558637,0.00554,1.44477,1.44477,-0.02607,-0.01285,-0.00757,0.00431,0.01783,0.13438,-0.00104,1.14930,2.29433,1.48248,1.99279,1.98532,-1.03107,2.34594,2.22501,-1.08687,2.44629,2.00729,2.00729,A,082724.90
2.31278,57.78146757,12.77349765,57.78146833,12.77349683,17:20:35.568737,0.00515,1.44477,1.44477,-0.02515,-0.01226,-0.01108,-0.02104,0.04516,0.09455,0.08357,1.16065,2.30444,1.47494,1.99592,1.98879,-1.03859,2.36170,2.22501,-1.08687,2.44629,2.00729,2.00729,A,082724.90
2.32343,57.78146771,12.77349752,57.78146833,12.77349683,17:20:35.579392,0.00540,1.44477,1.44477,-0.02394,-0.01112,-0.00986,-0.04379,0.06181,0.09693,0.09961,1.08507,2.31503,1.46891,1.99848,1.99201,-1.04588,2.37690,2.22501,-1.08687,2.44629,2.00729,2.00729,A,082724.90
2.37909,57.78146784,12.77349741,57.78146967,12.77349583,17:20:35.635096,0.05066,1.44477,1.50000,-0.02407,-0.00982,0.01000,-0.04227,0.07097,-0.07668,-0.00970,0.99735,2.32542,1.46408,2.00056,1.99485,-1.05268,2.39097,2.34508,-1.14615,2.59455,1.95118,1.95118,A,082725.00
2.40150,57.78146868,12.77349669,57.78146967,12.77349583,17:20:35.657457,0.00911,1.44477,1.44477,-0.02550,-0.00105,-0.03200,-0.00775,0.02118,0.12627,0.05722,1.06341,2.39312,1.46022,1.99254,1.99193,-1.09518,2.48495,2.34508,-1.14615,2.59455,1.95118,1.95118,A,082725.00
2.40818,57.78146878,12.77349661,57.78146967,12.77349583,17:20:35.664137,0.00544,1.44477,1.44477,-0.02494,0.00116,-0.02345,-0.02058,0.02256,0.10766,0.05941,1.12191,2.39951,1.45713,1.98623,1.98691,-1.10020,2.49594,2.34508,-1.14615,2.59455,1.95118,1.95118,A,082725.00
2.41823,57.78146892,12.77349649,57.78146967,12.77349583,17:20:35.674426,0.00509,1.44477,1.44477,-0.02451,0.00427,-0.01245,-0.02730,0.03676,0.03349,0.04849,1.10068,2.41013,1.45466,1.98061,1.98310,-1.10714,2.51138,2.34508,-1.14615,2.59455,1.95118,1.95118,A,082725.00
2.42870,57.78146905,12.77349638,57.78146967,12.77349583,17:20:35.684655,0.00516,1.44477,1.44477,-0.02366,0.00674,-0.00970,-0.02043,0.05096,0.01574,0.07601,1.06604,2.42033,1.45268,1.97565,1.97957,-1.11375,2.52619,2.34508,-1.14615,2.59455,1.95118,1.95118,A,082725.00
2.43948,57.78146918,12.77349627,57.78146967,12.77349583,17:20:35.695436,0.00554,1.44477,1.44477,-0.02511,0.00880,-0.00191,-0.01065,0.05478,-0.00171,-0.08375,0.96947,2.43108,1.45110,1.97127,1.97639,-1.12015,2.54065,2.34508,-1.14615,2.59455,1.95118,1.95118,A,082725.00
2.50285,57.78146930,12.77349618,57.78147100,12.77349467,17:20:35.759208,0.05852,1.44477,1.50000,-0.02535,0.01033,-0.00695,-0.00302,0.05692,-0.06149,-0.00335,0.90658,2.44130,1.44983,1.96744,1.97344,-1.12589,2.55369,2.46086,-1.21531,2.74281,2.00729,2.00729,A,082725.10
2.52385,57.78147021,12.77349544,57.78147100,12.77349467,17:20:35.779810,0.00682,1.44477,1.44477,-0.02487,0.01279,0.00496,-0.03264,0.05051,0.07064,0.01604,1.01504,2.51528,1.44882,1.97310,1.98054,-1.16934,2.65465,2.46086,-1.21531,2.74281,2.00729,2.00729,A,082725.10
2.53259,57.78147032,12.77349534,57.78147100,12.77349467,17:20:35.788540,0.00515,1.44477,1.44477,-0.02593,0.01279,0.00679,-0.03677,0.05738,0.01171,-0.06588,1.00205,2.52422,1.44801,1.97720,1.98464,-1.17532,2.66754,2.46086,-1.21531,2.74281,2.00729,2.00729,A,082725.10
2.54321,57.78147045,12.77349523,57.78147100,12.77349467,17:20:35.799163,0.00538,1.44477,1.44477,-0.02695,0.01279,-0.00069,-0.02425,0.05310,-0.06905,-0.06002,0.98911,2.53483,1.44736,1.98072,1.98816,-1.18206,2.68209,2.46086,-1.21531,2.74281,2.00729,2.00729,A,082725.10
2.55331,57.78147058,12.77349512,57.78147100,12.77349467,17:20:35.809269,0.00508,1.44477,1.44477,-0.02665,0.01279,-0.01138,-0.00348,0.04822,-0.02836,0.03434,0.99003,2.54521,1.44684,1.98370,1.99114,-1.18837,2.69561,2.46086,-1.21531,2.74281,2.00729,2.00729,A,082725.10
2.61795,57.78147069,12.77349502,57.78147233,12.77349367,17:20:35.873942,0.05914,1.44477,1.50000,-0.02620,0.01279,0.00053,0.01424,0.02852,-0.00201,0.03398,0.94001,2.55564,1.44643,1.98624,1.99368,-1.19457,2.70883,2.57577,-1.27460,2.89107,1.95118,1.95118,A,082725.20
2.63235,57.78147152,12.77349432,57.78147233,12.77349367,17:20:35.888306,0.00726,1.44477,1.44477,-0.02594,0.01228,-0.00665,-0.02425,0.04027,-0.00848,0.05581,1.02968,2.62394,1.44610,1.98082,1.98796,-1.23592,2.80092,2.57577,-1.27460,2.89107,1.95118,1.95118,A,082725.20
2.64064,57.78147163,12.77349423,57.78147233,12.77349367,17:20:35.896593,0.00515,1.44477,1.44477,-0.02567,0.01158,-0.00375,-0.02363,0.04241,0.01525,0.02775,1.02510,2.63228,1.44583,1.97545,1.98218,-1.24133,2.81328,2.57577,-1.27460,2.89107,1.95118,1.95118,A,082725.20
2.65128,57.78147177,12.77349412,57.78147233,12.77349367,17:20:35.907242,0.00539,1.44477,1.44477,-0.02668,0.01019,-0.00054,-0.01951,0.02561,-0.07662,-0.05887,0.98875,2.64290,1.44562,1.97102,1.97695,-1.24771,2.82798,2.57577,-1.27460,2.89107,1.95118,1.95118,A,082725.20
2.66138,57.78147189,12.77349402,57.78147233,12.77349367,17:20:35.917332,0.00509,1.44477,1.44477,-0.02759,0.00858,-0.01352,-0.00729,0.02775,-0.02019,-0.04209,0.93123,2.65328,1.44545,1.96739,1.97238,-1.25357,2.84163,2.57577,-1.27460,2.89107,1.95118,1.95118,A,082725.20
2.67255,57.78147201,12.77349393,57.78147233,12.77349367,17:20:35.928507,0.00576,1.44477,1.44477,-0.02859,0.00708,-0.01413,-0.00775,0.02378,0.05398,-0.04593,0.87675,2.66363,1.44532,1.96442,1.96854,-1.25922,2.85494,2.57577,-1.27460,2.89107,1.95118,1.95118,A,082725.20
2.72576,57.78147212,12.77349384,57.78147517,12.77349133,17:20:35.981746,0.04858,1.68555,1.50000,-0.02873,0.00594,-0.01627,-0.01768,0.01767,-0.13225,0.00604,0.97149,2.67419,1.49336,1.96198,1.96543,-1.26423,2.86684,2.70499,-1.41293,3.20612,1.98452,1.98452,A,082725.40
2.73659,57.78147288,12.77349324,57.78147517,12.77349133,17:20:35.992541,0.00530,1.68555,1.68555,-0.02966,0.00464,-0.00619,-0.04929,0.01950,0.06704,-0.04166,1.13594,2.72819,1.53180,1.96530,1.96800,-1.30016,2.95221,2.70499,-1.41293,3.20612,1.98452,1.98452,A,082725.40
2.74735,57.78147310,12.77349306,57.78147517,12.77349133,17:20:36.003307,0.00567,1.68555,1.68555,-0.02921,0.00464,-0.00970,-0.06426,0.01813,0.05935,0.04307,1.09513,2.73893,1.56255,1.96782,1.97052,-1.31068,2.97656,2.70499,-1.41293,3.20612,1.98452,1.98452,A,082725.40
2.75719,57.78147330,12.77349289,57.78147517,12.77349133,17:20:36.013146,0.00511,1.68555,1.68555,-0.02897,0.00464,-0.00054,-0.07021,0.02088,-0.01464,0.01921,1.01254,2.74908,1.58715,1.96996,1.97266,-1.32046,2.99907,2.70499,-1.41293,3.20612,1.98452,1.98452,A,082725.40
2.76815,57.78147351,12.77349273,57.78147517,12.77349133,17:20:36.024106,0.00550,1.68555,1.68555,-0.02873,0.00447,0.00068,-0.06151,0.02027,-0.00525,0.01818,0.96990,2.75948,1.60683,1.97180,1.97440,-1.33016,3.02138,2.70499,-1.41293,3.20612,1.98452,1.98452,A,082725.40
2.77817,57.78147369,12.77349258,57.78147517,12.77349133,17:20:36.034126,0.00512,1.68555,1.68555,-0.02911,0.00408,0.01962,-0.05693,0.01584,0.04770,-0.03141,0.88554,2.77007,1.62258,1.97340,1.97577,-1.33925,3.04220,2.70499,-1.41293,3.20612,1.98452,1.98452,A,082725.40
2.78860,57.78147387,12.77349243,57.78147517,12.77349133,17:20:36.044551,0.00515,1.68555,1.68555,-0.02971,0.00342,0.01122,-0.05861,0.01599,-0.09675,-0.03898,0.87669,2.78023,1.63517,1.97481,1.97680,-1.34802,3.06228,2.70499,-1.41293,3.20612,1.98452,1.98452,A,082725.40
2.79930,57.78147405,12.77349228,57.78147517,12.77349133,17:20:36.055256,0.00545,1.68555,1.68555,-0.03068,0.00258,0.00618,-0.03203,0.01065,-0.09455,-0.05771,0.86675,2.79085,1.64525,1.97608,1.97758,-1.35653,3.08171,2.70499,-1.41293,3.20612,1.98452,1.98452,A,082725.40
2.84216,57.78147421,12.77349215,57.78147667,12.77349017,17:20:36.098147,0.03792,1.68555,1.50000,-0.03034,0.00192,0.01488,0.00233,0.01233,-0.18410,0.01202,0.91872,2.80122,1.65331,1.97720,1.97832,-1.36446,3.09979,2.82104,-1.48209,3.37291,1.96389,1.96389,A,082725.50
2.85383,57.78147488,12.77349161,57.78147667,12.77349017,17:20:36.109785,0.00546,1.68555,1.68555,-0.02971,0.00147,0.03367,-0.03707,0.03630,0.29243,-0.05215,0.95184,2.84550,1.65976,1.97518,1.97603,-1.39680,3.17474,2.82104,-1.48209,3.37291,1.96389,1.96389,A,082725.50
2.86404,57.78147508,12.77349145,57.78147667,12.77349017,17:20:36.119997,0.00522,1.68555,1.68555,-0.02999,0.00147,0.02603,-0.09770,0.04302,0.21704,-0.02934,0.86577,2.85565,1.66492,1.97337,1.97422,-1.40613,3.19646,2.82104,-1.48209,3.37291,1.96389,1.96389,A,082725.50
2.87748,57.78147529,12.77349128,57.78147667,12.77349017,17:20:36.133441,0.00826,1.68555,1.68555,-0.02916,0.00147,0.01641,-0.12336,0.05112,-0.01757,0.04538,1.02834,2.86727,1.66904,1.97184,1.97269,-1.41606,3.21964,2.82104,-1.48209,3.37291,1.96389,1.96389,A,082725.50
2.88466,57.78147542,12.77349117,57.78147667,12.77349017,17:20:36.140613,0.00523,1.68555,1.68555,-0.02808,0.00147,0.02145,-0.08946,0.03249,-0.44091,0.08131,1.31839,2.87625,1.67235,1.97052,1.97138,-1.42254,3.23478,2.82104,-1.48209,3.37291,1.96389,1.96389,A,082725.50
2.89544,57.78147560,12.77349103,57.78147667,12.77349017,17:20:36.151395,0.00561,1.68555,1.68555,-0.02725,0.00147,0.04359,0.03730,0.01156,-0.39571,0.03672,1.31058,2.88700,1.67499,1.96942,1.97027,-1.43092,3.25445,2.82104,-1.48209,3.37291,1.96389,1.96389,A,082725.50
2.90545,57.78147576,12.77349090,57.78147667,12.77349017,17:20:36.161408,0.00512,1.68555,1.68555,-0.02725,0.00147,0.03611,0.09625,-0.00615,0.16519,-0.02373,1.16431,2.89733,1.67710,1.96847,1.96933,-1.43858,3.27245,2.82104,-1.48209,3.37291,1.96389,1.96389,A,082725.50
2.91626,57.78147592,12.77349077,57.78147667,12.77349017,17:20:36.172211,0.00532,1.68555,1.68555,-0.02767,0.00147,0.03122,0.06097,-0.01547,0.16653,-0.05295,1.17907,2.90776,1.67879,1.96767,1.96853,-1.44609,3.29015,2.82104,-1.48209,3.37291,1.96389,1.96389,A,082725.50
2.97640,57.78147607,12.77349065,57.78147800,12.77348900,17:20:36.232390,0.05506,1.68555,1.50000,-0.02835,0.00147,0.01870,0.03974,-0.02371,-0.03465,-0.06076,1.10788,2.91850,1.68014,1.96699,1.96785,-1.45319,3.30691,2.93832,-1.55125,3.52117,2.00729,2.00729,A,082725.60
2.99779,57.78147709,12.77348985,57.78147800,12.77348900,17:20:36.253748,0.00822,1.68555,1.68555,-0.02724,0.00147,0.02191,-0.03524,0.03814,-0.09321,-0.02702,1.07970,2.98962,1.68122,1.97304,1.97389,-1.50090,3.41969,2.93832,-1.55125,3.52117,2.00729,2.00729,A,082725.60
3.00507,57.78147721,12.77348975,57.78147800,12.77348900,17:20:36.261032,0.00511,1.68555,1.68555,-0.02795,0.00127,0.01748,-0.01279,0.02836,-0.15903,-0.06015,1.15711,2.99695,1.68209,1.97807,1.97881,-1.50686,3.43285,2.93832,-1.55125,3.52117,2.00729,2.00729,A,082725.60
3.01577,57.78147736,12.77348962,57.78147800,12.77348900,17:20:36.271729,0.00523,1.68555,1.68555,-0.02674,0.00037,0.01473,-0.00500,0.01095,-0.02324,0.08680,1.16803,3.00735,1.68278,1.98244,1.98265,-1.51454,3.44989,2.93832,-1.55125,3.52117,2.00729,2.00729,A,082725.60
3.02612,57.78147750,12.77348950,57.78147800,12.77348900,17:20:36.282076,0.00519,1.68555,1.68555,-0.02595,-0.00119,0.02710,0.00049,-0.00661,0.01122,0.04508,1.18444,3.01802,1.68334,1.98627,1.98558,-1.52186,3.46601,2.93832,-1.55125,3.52117,2.00729,2.00729,A,082725.60
3.03636,57.78147764,12.77348938,57.78147800,12.77348900,17:20:36.292314,0.00519,1.68555,1.68555,-0.02591,-0.00297,0.03046,-0.00378,-0.01134,0.09071,-0.01427,1.08354,3.02797,1.68378,1.98967,1.98795,-1.52859,3.48072,2.93832,-1.55125,3.52117,2.00729,2.00729,A,082725.60
3.09904,57.78147777,12.77348927,57.78147950,12.77348783,17:20:36.355044,0.05747,1.68555,1.50000,-0.02573,-0.00456,0.02557,-0.02455,-0.01440,-0.06698,-0.00122,1.05829,3.03858,1.68413,1.99268,1.99003,-1.53527,3.49525,3.05895,-1.62042,3.68797,1.96389,1.96389,A,082725.70
3.11941,57.78147878,12.77348842,57.78147950,12.77348783,17:20:36.375370,0.00686,1.89841,1.89841,-0.02441,-0.00742,0.01580,-0.01569,-0.00233,-0.07021,0.01641,1.04273,3.11094,1.72699,1.98861,1.98430,-1.58549,3.60802,3.05895,-1.62042,3.68797,1.96389,1.96389,A,082725.70
3.12803,57.78147891,12.77348832,57.78147950,12.77348783,17:20:36.383980,0.00520,1.89841,1.89841,-0.02406,-0.00815,0.01534,-0.00134,-0.00126,-0.06204,0.02135,1.09227,3.11962,1.76127,1.98555,1.98081,-1.59155,3.62186,3.05895,-1.62042,3.68797,1.96389,1.96389,A,082725.70
3.13833,57.78147905,12.77348820,57.78147950,12.77348783,17:20:36.394522,0.00511,1.89841,1.89841,-0.02418,-0.00923,0.01733,0.00385,-0.00554,0.02312,-0.01726,1.09934,3.13023,1.78870,1.98301,1.97765,-1.59869,3.63826,3.05895,-1.62042,3.68797,1.96389,1.96389,A,082725.70
3.14874,57.78147919,12.77348809,57.78147950,12.77348783,17:20:36.404689,0.00512,1.89841,1.89841,-0.02436,-0.01027,0.01519,0.00080,-0.00600,0.01281,-0.01976,1.11539,3.14040,1.81064,1.98094,1.97497,-1.60541,3.65383,3.05895,-1.62042,3.68797,1.96389,1.96389,A,082725.70
3.20404,57.78147933,12.77348798,57.78148100,12.77348667,17:20:36.461533,0.05002,1.89841,1.50000,-0.02417,-0.01109,0.02038,0.00217,-0.00172,0.01690,0.00183,1.05408,3.15102,1.82820,1.97923,1.97278,-1.61198,3.66915,3.17119,-1.68958,3.85476,1.96389,1.96389,A,082725.80
3.22774,57.78148035,12.77348716,57.78148100,12.77348667,17:20:36.483705,0.00970,1.89841,1.89841,-0.02274,-0.01172,0.01656,-0.01569,-0.01501,-0.05624,0.02538,0.99393,3.21851,1.84224,1.97697,1.97016,-1.66027,3.78288,3.17119,-1.68958,3.85476,1.96389,1.96389,A,082725.80
3.23356,57.78148045,12.77348709,57.78148100,12.77348667,17:20:36.489519,0.00496,1.89841,1.89841,-0.02266,-0.01172,0.01626,-0.01737,-0.01043,-0.02971,0.00275,1.01486,3.22550,1.85347,1.97597,1.96915,-1.66453,3.79309,3.17119,-1.68958,3.85476,1.96389,1.96389,A,082725.80
3.24409,57.78148060,12.77348697,57.78148100,12.77348667,17:20:36.500039,0.00523,1.89841,1.89841,-0.02270,-0.01172,0.01152,-0.01493,-0.01043,0.02458,-0.00506,1.03682,3.23568,1.86246,1.97504,1.96823,-1.67155,3.80987,3.17119,-1.68958,3.85476,1.96389,1.96389,A,082725.80
3.25458,57.78148074,12.77348686,57.78148100,12.77348667,17:20:36.510551,0.00511,1.89841,1.89841,-0.02208,-0.01172,0.01824,-0.02455,0.00026,0.04685,0.03709,1.09776,3.24626,1.86965,1.97425,1.96744,-1.67828,3.82601,3.17119,-1.68958,3.85476,1.96389,1.96389,A,082725.80
3.26474,57.78148088,12.77348675,57.78148100,12.77348667,17:20:36.520697,0.00509,1.89841,1.89841,-0.02173,-0.01172,0.02252,-0.01737,0.00576,-0.05758,0.01464,1.05847,3.25643,1.87540,1.97358,1.96677,-1.68460,3.84118,3.17119,-1.68958,3.85476,1.96389,1.96389,A,082725.80
3.32744,57.78148101,12.77348665,57.78148233,12.77348550,17:20:36.583425,0.05738,1.89841,1.50000,-0.02166,-0.01172,0.02542,-0.01814,0.00836,0.07009,-0.00714,0.96923,3.26706,1.88000,1.97301,1.96620,-1.69079,3.85607,3.28739,-1.75875,4.00302,2.00729,2.00729,A,082725.90
3.34729,57.78148209,12.77348580,57.78148233,12.77348550,17:20:36.603272,0.00784,1.89841,1.89841,-0.02011,-0.01172,0.02221,-0.02104,0.00851,0.00342,0.00927,1.05280,3.33640,1.88368,1.97806,1.97125,-1.74126,3.97620,3.28739,-1.75875,4.00302,2.00729,2.00729,A,082725.90
3.35524,57.78148220,12.77348570,57.78148233,12.77348550,17:20:36.611195,0.00539,1.89841,1.89841,-0.01976,-0.01172,0.03046,-0.01462,0.01385,-0.03806,0.01080,1.10672,3.34686,1.88663,1.98336,1.97654,-1.74681,3.98859,3.28739,-1.75875,4.00302,2.00729,2.00729,A,082725.90
3.36531,57.78148233,12.77348559,57.78148233,12.77348550,17:20:36.621269,0.00507,1.89841,1.89841,-0.01930,-0.01172,0.02481,-0.00378,0.01584,-0.12072,0.02403,1.08061,3.35722,1.88899,1.98783,1.98102,-1.75329,4.00301,3.28739,-1.75875,4.00302,2.00729,2.00729,A,082725.90
3.37601,57.78148246,12.77348548,57.78148233,12.77348550,17:20:36.631965,0.00523,1.89841,1.89841,-0.01870,-0.01172,0.03138,0.00263,0.02714,-0.02666,0.03026,1.11551,3.36761,1.89087,1.99163,1.98482,-1.75973,4.01719,3.28739,-1.75875,4.00302,2.00729,2.00729,A,082725.90
3.38669,57.78148258,12.77348538,57.78148233,12.77348550,17:20:36.642652,0.00551,1.89841,1.89841,-0.01716,-0.01172,0.02985,0.02081,0.03630,-0.16458,0.10108,1.10697,3.37834,1.89238,1.99486,1.98805,-1.76595,4.03074,3.28739,-1.75875,4.00302,2.00729,2.00729,A,082725.90
3.45531,57.78148270,12.77348528,57.78148533,12.77348300,17:20:36.711305,0.06373,1.89841,1.50000,-0.01630,-0.01172,0.03352,0.03791,0.03707,0.03928,0.04508,0.98802,3.38850,1.89358,1.99761,1.99079,-1.77184,4.04346,3.41921,-1.90696,4.33660,1.98889,1.98889,A,082726.10
3.47679,57.78148398,12.77348420,57.78148533,12.77348300,17:20:36.732744,0.00925,1.89841,1.89841,-0.01528,-0.00928,0.01931,-0.01997,0.00881,0.10901,-0.02105,1.02791,3.46770,1.89455,1.99583,1.99044,-1.83570,4.18598,3.41921,-1.90696,4.33660,1.98889,1.98889,A,082726.10
3.48304,57.78148411,12.77348409,57.78148533,12.77348300,17:20:36.739006,0.00537,1.89841,1.89841,-0.01628,-0.00928,0.02252,-0.02898,0.00668,0.06472,-0.06972,1.09812,3.47470,1.89532,1.99555,1.99015,-1.84239,4.20052,3.41921,-1.90696,4.33660,1.98889,1.98889,A,082726.10
3.49351,57.78148430,12.77348393,57.78148533,12.77348300,17:20:36.749470,0.00545,1.89841,1.89841,-0.01639,-0.00928,0.01809,-0.02104,0.01660,-0.08131,-0.00811,1.11728,3.48515,1.89594,1.99525,1.98985,-1.85200,4.22164,3.41921,-1.90696,4.33660,1.98889,1.98889,A,082726.10
3.50417,57.78148448,12.77348377,57.78148533,12.77348300,17:20:36.760124,0.00535,1.66702,1.66702,-0.01630,-0.00928,0.02252,0.00156,0.01798,-0.03953,0.00262,1.03480,3.49579,1.85016,1.99499,1.98959,-1.86106,4.24156,3.41921,-1.90696,4.33660,1.98889,1.98889,A,082726.10
3.51476,57.78148464,12.77348363,57.78148533,12.77348300,17:20:36.770735,0.00555,1.66702,1.66702,-0.01603,-0.00928,0.02191,0.00691,0.02012,-0.04380,0.01629,1.01846,3.50631,1.81353,1.99478,1.98938,-1.86941,4.25992,3.41921,-1.90696,4.33660,1.98889,1.98889,A,082726.10
3.56752,57.78148480,12.77348350,57.78148667,12.77348200,17:20:36.824414,0.04791,1.66702,1.50000,-0.01546,-0.00928,0.02176,0.00202,0.01935,0.04014,0.03471,0.96465,3.51640,1.78423,1.99460,1.98920,-1.87709,4.27679,3.53637,-1.96624,4.48486,1.95118,1.95118,A,082726.20
3.59217,57.78148579,12.77348268,57.78148667,12.77348200,17:20:36.848142,0.00900,1.66702,1.66702,-0.01450,-0.00928,0.00435,-0.00317,-0.00982,-0.05563,0.06088,1.02962,3.58292,1.76079,1.98811,1.98271,-1.92599,4.38715,3.53637,-1.96624,4.48486,1.95118,1.95118,A,082726.20
3.59925,57.78148591,12.77348258,57.78148667,12.77348200,17:20:36.855198,0.00586,1.66702,1.66702,-0.01478,-0.00928,0.00878,0.00370,-0.00875,0.01982,-0.00903,1.02779,3.59085,1.74203,1.98331,1.97791,-1.93188,4.40090,3.53637,-1.96624,4.48486,1.95118,1.95118,A,082726.20
3.60889,57.78148606,12.77348246,57.78148667,12.77348200,17:20:36.864838,0.00510,1.66702,1.66702,-0.01406,-0.00928,0.00587,0.01088,-0.00233,-0.03367,0.06161,1.04633,3.60056,1.72703,1.97921,1.97381,-1.93875,4.41705,3.53637,-1.96624,4.48486,1.95118,1.95118,A,082726.20
3.61966,57.78148621,12.77348235,57.78148667,12.77348200,17:20:36.875613,0.00548,1.66702,1.66702,-0.01462,-0.00928,0.00710,0.01531,-0.00172,-0.03282,-0.02824,1.02901,3.61123,1.71503,1.97571,1.97031,-1.94571,4.43353,3.53637,-1.96624,4.48486,1.95118,1.95118,A,082726.20
3.62979,57.78148634,12.77348224,57.78148667,12.77348200,17:20:36.885743,0.00521,1.66702,1.66702,-0.01422,-0.00928,0.00480,0.00263,0.00576,0.03508,0.03776,1.00235,3.62167,1.70543,1.97274,1.96735,-1.95201,4.44861,3.53637,-1.96624,4.48486,1.95118,1.95118,A,082726.20
3.67337,57.78148647,12.77348214,57.78148817,12.77348083,17:20:36.929345,0.03854,1.66702,1.50000,-0.01365,-0.00928,0.01168,-0.00256,0.01263,0.01507,0.04362,0.96783,3.63164,1.69775,1.97022,1.96483,-1.95785,4.46267,3.65160,-2.03540,4.65165,1.96389,1.96389,A,082726.30
3.68407,57.78148711,12.77348164,57.78148817,12.77348083,17:20:36.940018,0.00531,1.66702,1.66702,-0.01296,-0.00928,0.01305,-0.02654,-0.00188,-0.02684,0.02489,1.03804,3.67564,1.69160,1.96959,1.96420,-1.98770,4.53459,3.65160,-2.03540,4.65165,1.96389,1.96389,A,082726.30
3.69467,57.78148728,12.77348151,57.78148817,12.77348083,17:20:36.950633,0.00551,1.66702,1.66702,-0.01296,-0.00928,0.01168,-0.01447,-0.00997,-0.01781,0.00799,1.05316,3.68632,1.68669,1.96945,1.96405,-1.99538,4.55319,3.65160,-2.03540,4.65165,1.96389,1.96389,A,082726.30
3.70486,57.78148744,12.77348139,57.78148817,12.77348083,17:20:36.960822,0.00519,1.66702,1.66702,-0.01207,-0.00928,0.02053,-0.00760,-0.00829,0.01476,0.06112,0.98570,3.69647,1.68275,1.96932,1.96393,-2.00268,4.57090,3.65160,-2.03540,4.65165,1.96389,1.96389,A,082726.30
3.71546,57.78148759,12.77348127,57.78148817,12.77348083,17:20:36.971419,0.00540,1.66702,1.66702,-0.01210,-0.00928,0.03397,-0.01569,-0.00798,-0.01098,-0.00903,1.00924,3.70705,1.67961,1.96922,1.96382,-2.00954,4.58753,3.65160,-2.03540,4.65165,1.96389,1.96389,A,082726.30
3.72555,57.78148773,12.77348116,57.78148817,12.77348083,17:20:36.981511,0.00509,1.66702,1.66702,-0.01260,-0.00928,0.02557,-0.01279,-0.00600,-0.03062,-0.03282,0.97582,3.71745,1.67709,1.96913,1.96374,-2.01592,4.60299,3.65160,-2.03540,4.65165,1.96389,1.96389,A,082726.30
3.73631,57.78148786,12.77348106,57.78148817,12.77348083,17:20:36.992267,0.00531,1.66702,1.66702,-0.01260,-0.00928,0.02603,-0.01081,-0.00279,-0.01623,-0.00146,0.96112,3.72783,1.67508,1.96906,1.96366,-2.02214,4.61808,3.65160,-2.03540,4.65165,1.96389,1.96389,A,082726.30
3.74675,57.78148799,12.77348096,57.78148817,12.77348083,17:20:37.002712,0.00534,1.66702,1.66702,-0.01191,-0.00928,0.02374,-0.01203,0.00240,-0.00183,0.04471,0.97130,3.73842,1.67347,1.96899,1.96360,-2.02795,4.63217,3.65160,-2.03540,4.65165,1.96389,1.96389,A,082726.30
3.81035,57.78148811,12.77348086,57.78148967,12.77347950,17:20:37.066758,0.05855,1.66702,1.50000,-0.01141,-0.00928,0.03000,-0.01401,0.00301,0.02519,0.03080,1.00900,3.74858,1.67218,1.96894,1.96354,-2.03356,4.64580,3.76837,-2.11445,4.81845,2.01336,2.01336,A,082726.40
3.83241,57.78148916,12.77348004,57.78148967,12.77347950,17:20:37.088362,0.00823,1.66702,1.66702,-0.00775,-0.00928,0.04833,-0.00271,-0.00890,0.03520,0.02190,0.99430,3.82398,1.67115,1.97557,1.97017,-2.08223,4.76215,3.76837,-2.11445,4.81845,2.01336,2.01336,A,082726.40
3.83993,57.78148926,12.77347996,57.78148967,12.77347950,17:20:37.095893,0.00521,1.66702,1.66702,-0.00796,-0.00928,0.04359,-0.00958,-0.00279,0.04160,-0.01403,0.97118,3.83152,1.67032,1.98198,1.97659,-2.08721,4.77294,3.76837,-2.11445,4.81845,2.01336,2.01336,A,082726.40
3.85024,57.78148939,12.77347985,57.78148967,12.77347950,17:20:37.106520,0.00512,1.66702,1.66702,-0.00687,-0.00928,0.04390,-0.01386,-0.00294,0.03038,0.06313,0.99833,3.84213,1.66966,1.98740,1.98200,-2.09391,4.78766,3.76837,-2.11445,4.81845,2.01336,2.01336,A,082726.40
3.86066,57.78148951,12.77347974,57.78148967,12.77347950,17:20:37.116622,0.00515,1.66702,1.66702,-0.00590,-0.00928,0.04497,-0.01691,-0.00279,-0.03556,0.05783,1.01803,3.85231,1.66913,1.99201,1.98661,-2.10026,4.80140,3.76837,-2.11445,4.81845,2.01336,2.01336,A,082726.40
3.91690,57.78148963,12.77347963,57.78149117,12.77347833,17:20:37.173503,0.05098,1.66702,1.50000,-0.00560,-0.00928,0.05276,-0.01966,-0.00356,0.05771,0.00610,0.97356,3.86299,1.66871,1.99592,1.99052,-2.10652,4.81482,3.88324,-2.18361,4.98524,1.96389,1.96389,A,082726.50
3.93978,57.78149056,12.77347886,57.78149117,12.77347833,17:20:37.195741,0.00817,1.81811,1.81811,-0.00149,-0.00931,0.06711,0.00676,-0.00921,0.03270,-0.00092,1.00516,3.93061,1.69859,1.99118,1.98577,-2.15253,4.91781,3.88324,-2.18361,4.98524,1.96389,1.96389,A,082726.50
3.94750,57.78149066,12.77347877,57.78149117,12.77347833,17:20:37.203453,0.00548,1.81811,1.81811,-0.00090,-0.00937,0.07078,-0.00241,-0.00768,0.02336,0.02678,0.99168,3.93900,1.72250,1.98784,1.98239,-2.15771,4.92941,3.88324,-2.18361,4.98524,1.96389,1.96389,A,082726.50
3.95751,57.78149080,12.77347866,57.78149117,12.77347833,17:20:37.213458,0.00509,1.81811,1.81811,-0.00098,-0.00948,0.06162,-0.00943,-0.00585,0.08668,-0.01915,0.97972,3.94940,1.74162,1.98497,1.97946,-2.16440,4.94457,3.88324,-2.18361,4.98524,1.96389,1.96389,A,082726.50
3.96805,57.78149093,12.77347855,57.78149117,12.77347833,17:20:37.224008,0.00522,1.81811,1.81811,-0.00017,-0.00962,0.06940,-0.01493,-0.00646,-0.01629,0.03398,0.98442,3.95965,1.75692,1.98255,1.97695,-2.17093,4.95946,3.88324,-2.18361,4.98524,1.96389,1.96389,A,082726.50
3.97833,57.78149106,12.77347844,57.78149117,12.77347833,17:20:37.234527,0.00509,1.81811,1.81811,0.00037,-0.00985,0.06131,-0.02058,-0.00264,-0.04959,0.02208,0.99790,3.97024,1.76916,1.98050,1.97477,-2.17718,4.97381,3.88324,-2.18361,4.98524,1.96389,1.96389,A,082726.50
4.05121,57.78149119,12.77347834,57.78149417,12.77347583,17:20:37.307211,0.06757,1.81811,1.50000,0.00100,-0.01019,0.06055,-0.00577,-0.01150,-0.05466,0.02952,0.98417,3.98042,1.77895,1.97879,1.97286,-2.18306,4.98737,4.01136,-2.33182,5.31882,1.98889,1.98889,A,082726.70
4.06764,57.78149241,12.77347736,57.78149417,12.77347583,17:20:37.323595,0.00753,1.81811,1.81811,0.00668,-0.01231,0.06314,-0.03310,0.00148,0.03825,0.08839,1.08287,4.05919,1.78678,1.98035,1.97319,-2.24123,5.12325,4.01136,-2.33182,5.31882,1.98889,1.98889,A,082726.70
4.07610,57.78149259,12.77347721,57.78149417,12.77347583,17:20:37.332054,0.00527,1.81811,1.81811,0.00794,-0.01276,0.06284,-0.03891,0.00164,0.00323,0.09058,1.08653,4.06767,1.79304,1.98264,1.97522,-2.25000,5.14298,4.01136,-2.33182,5.31882,1.98889,1.98889,A,082726.70
4.08632,57.78149278,12.77347705,57.78149417,12.77347583,17:20:37.342516,0.00509,1.81811,1.81811,0.00853,-0.01353,0.07108,-0.03906,0.00118,0.05173,0.02574,1.00260,4.07823,1.79806,1.98462,1.97675,-2.25977,5.16504,4.01136,-2.33182,5.31882,1.98889,1.98889,A,082726.70
4.09675,57.78149297,12.77347689,57.78149417,12.77347583,17:20:37.352705,0.00513,1.81811,1.81811,0.00801,-0.01435,0.06421,-0.05250,0.00072,-0.08326,-0.04160,0.98722,4.08841,1.80207,1.98636,1.97801,-2.26904,5.18593,4.01136,-2.33182,5.31882,1.98889,1.98889,A,082726.70
4.10742,57.78149315,12.77347674,57.78149417,12.77347583,17:20:37.363376,0.00540,1.81811,1.81811,0.00792,-0.01509,0.05047,-0.02272,-0.01394,-0.13036,-0.00592,0.90811,4.09902,1.80528,1.98789,1.97912,-2.27801,5.20609,4.01136,-2.33182,5.31882,1.98889,1.98889,A,082726.70
4.16869,57.78149332,12.77347660,57.78149567,12.77347483,17:20:37.424698,0.05628,1.81811,1.50000,0.00845,-0.01548,0.05184,-0.01050,-0.02112,-0.06753,0.03080,0.88926,4.10940,1.80784,1.98922,1.98022,-2.28636,5.22480,4.12903,-2.39111,5.48562,1.91230,1.91230,A,082726.80
4.19026,57.78149444,12.77347570,57.78149567,12.77347483,17:20:37.446461,0.00761,1.81811,1.81811,0.01250,-0.01557,0.05215,-0.01447,0.00347,0.01659,0.06795,1.16980,4.18183,1.80990,1.97758,1.96853,-2.33990,5.34916,4.12903,-2.39111,5.48562,1.91230,1.91230,A,082726.80
4.19864,57.78149459,12.77347558,57.78149567,12.77347483,17:20:37.454609,0.00559,1.81811,1.81811,0.01385,-0.01557,0.05474,-0.01600,0.00026,0.06783,0.10827,1.07793,4.19007,1.81154,1.96902,1.95997,-2.34657,5.36576,4.12903,-2.39111,5.48562,1.91230,1.91230,A,082726.80
4.20861,57.78149476,12.77347546,57.78149567,12.77347483,17:20:37.464561,0.00516,1.81811,1.81811,0.01406,-0.01557,0.05276,-0.03845,-0.00264,0.04276,0.01824,0.96636,4.20024,1.81285,1.96170,1.95265,-2.35410,5.38470,4.12903,-2.39111,5.48562,1.91230,1.91230,A,082726.80
4.21927,57.78149493,12.77347533,57.78149567,12.77347483,17:20:37.475233,0.00543,1.81811,1.81811,0.01416,-0.01557,0.04680,-0.04272,-0.00218,-0.05094,0.01299,0.89298,4.21086,1.81390,1.95547,1.94642,-2.36146,5.40346,4.12903,-2.39111,5.48562,1.91230,1.91230,A,082726.80
4.22932,57.78149508,12.77347522,57.78149567,12.77347483,17:20:37.485279,0.00508,1.81811,1.81811,0.01389,-0.01557,0.03886,-0.04501,-0.01318,-0.03575,-0.00360,0.84332,4.22123,1.81475,1.95018,1.94113,-2.36818,5.42085,4.12903,-2.39111,5.48562,1.91230,1.91230,A,082726.80
4.28784,57.78149524,12.77347511,57.78149717,12.77347367,17:20:37.544432,0.05305,1.81811,1.50000,0.01473,-0.01557,0.03092,-0.03310,-0.02280,-0.12060,0.06917,0.91091,4.23160,1.81542,1.94568,1.93662,-2.37470,5.43793,4.25150,-2.46027,5.65241,1.96389,1.96389,A,082726.90
4.30881,57.78149627,12.77347436,57.78149717,12.77347367,17:20:37.564771,0.00892,1.96236,1.96236,0.01613,-0.01557,0.01137,0.00279,0.00744,0.03922,0.09260,1.09373,4.29855,1.84481,1.94841,1.93936,-2.41902,5.55319,4.25150,-2.46027,5.65241,1.96389,1.96389,A,082726.90
4.31557,57.78149639,12.77347428,57.78149717,12.77347367,17:20:37.571522,0.00547,1.96236,1.96236,0.01700,-0.01557,0.00954,-0.01325,0.01462,0.04337,0.10041,1.04865,4.30717,1.86832,1.95199,1.94294,-2.42408,5.56589,4.25150,-2.46027,5.65241,1.96389,1.96389,A,082726.90
4.32555,57.78149655,12.77347416,57.78149717,12.77347367,17:20:37.581508,0.00505,1.96236,1.96236,0.01760,-0.01557,0.00633,-0.03356,0.01660,0.01958,0.07759,0.98704,4.31744,1.88712,1.95495,1.94590,-2.43119,5.58380,4.25150,-2.46027,5.65241,1.96389,1.96389,A,082726.90
4.33604,57.78149671,12.77347404,57.78149717,12.77347367,17:20:37.591993,0.00521,1.96236,1.96236,0.01766,-0.01557,0.00083,-0.04028,0.00988,-0.03605,0.04209,0.89902,4.32764,1.90217,1.95747,1.94842,-2.43817,5.60126,4.25150,-2.46027,5.65241,1.96389,1.96389,A,082726.90
4.34671,57.78149686,12.77347392,57.78149717,12.77347367,17:20:37.602686,0.00549,1.96236,1.96236,0.01771,-0.01557,-0.00436,-0.03967,0.00347,-0.03928,0.04386,0.88297,4.33838,1.91421,1.95960,1.95055,-2.44505,5.61839,4.25150,-2.46027,5.65241,1.96389,1.96389,A,082726.90
4.40285,57.78149700,12.77347382,57.78149867,12.77347250,17:20:37.658840,0.05123,1.96236,1.50000,0.01724,-0.01557,-0.01337,-0.02593,-0.00264,-0.13670,0.01891,0.90493,4.34841,1.92384,1.96142,1.95237,-2.45139,5.63406,4.36818,-2.52943,5.81920,1.96389,1.96389,A,082727.00
4.41760,57.78149799,12.77347307,57.78149867,12.77347250,17:20:37.673560,0.00788,1.96236,1.96236,0.01623,-0.01557,-0.03857,0.01531,0.00897,0.03782,0.13908,1.05926,4.40944,1.93154,1.96184,1.95279,-2.49547,5.74345,4.36818,-2.52943,5.81920,1.96389,1.96389,A,082727.00
4.42525,57.78149811,12.77347298,57.78149867,12.77347250,17:20:37.681201,0.00513,1.96236,1.96236,0.01692,-0.01557,-0.03139,0.00584,0.01553,0.03392,0.10937,1.04212,4.41713,1.93770,1.96337,1.95432,-2.50117,5.75722,4.36818,-2.52943,5.81920,1.96389,1.96389,A,082727.00
4.43588,57.78149827,12.77347285,57.78149867,12.77347250,17:20:37.691840,0.00522,1.96236,1.96236,0.01607,-0.01557,-0.02940,-0.00760,0.02057,0.12987,0.00634,0.96185,4.42746,1.94264,1.96462,1.95557,-2.50848,5.77491,4.36818,-2.52943,5.81920,1.96389,1.96389,A,082727.00
4.44617,57.78149842,12.77347274,57.78149867,12.77347250,17:20:37.702125,0.00510,1.96236,1.96236,0.01468,-0.01557,-0.04162,-0.03478,0.01492,0.04666,-0.02043,0.92360,4.43806,1.94658,1.96568,1.95662,-2.51542,5.79168,4.36818,-2.52943,5.81920,1.96389,1.96389,A,082727.00
4.45663,57.78149856,12.77347263,57.78149867,12.77347250,17:20:37.712586,0.00517,1.96236,1.96236,0.01369,-0.01557,-0.05949,-0.04883,0.00500,-0.02995,0.01311,0.92214,4.44824,1.94973,1.96658,1.95753,-2.52196,5.80742,4.36818,-2.52943,5.81920,1.96389,1.96389,A,082727.00
4.46726,57.78149870,12.77347252,57.78149867,12.77347250,17:20:37.723220,0.00540,1.96236,1.96236,0.01301,-0.01557,-0.06560,-0.05036,-0.01195,-0.09797,0.03782,0.94532,4.45887,1.95226,1.96734,1.95829,-2.52832,5.82271,4.36818,-2.52943,5.81920,1.96389,1.96389,A,082727.00
4.52426,57.78149883,12.77347242,57.78150017,12.77347133,17:20:37.780781,0.05180,1.96236,1.50000,0.01251,-0.01557,-0.06331,-0.02348,-0.02494,-0.03087,0.04892,0.98497,4.46946,1.95428,1.96799,1.95894,-2.53435,5.83718,4.48913,-2.59860,5.98599,1.96389,1.96389,A,082727.10
4.54392,57.78149989,12.77347160,57.78150017,12.77347133,17:20:37.799884,0.00748,1.96236,1.96236,0.00860,-0.01557,-0.06942,-0.03387,-0.00020,-0.07003,0.08345,1.05987,4.53537,1.95589,1.96729,1.95824,-2.58262,5.95482,4.48913,-2.59860,5.98599,1.96389,1.96389,A,082727.10
4.55203,57.78149999,12.77347152,57.78150017,12.77347133,17:20:37.807985,0.00521,1.96236,1.96236,0.00936,-0.01557,-0.06010,-0.02761,0.00347,0.01525,0.11858,1.00022,4.54363,1.95719,1.96800,1.95895,-2.58767,5.96680,4.48913,-2.59860,5.98599,1.96389,1.96389,A,082727.10
4.56234,57.78150013,12.77347141,57.78150017,12.77347133,17:20:37.818545,0.00513,1.96236,1.96236,0.00831,-0.01557,-0.04987,-0.03066,0.00316,-0.00549,0.00012,1.02212,4.55422,1.95822,1.96855,1.95950,-2.59422,5.98245,4.48913,-2.59860,5.98599,1.96389,1.96389,A,082727.10
4.57303,57.78150027,12.77347130,57.78150017,12.77347133,17:20:37.828992,0.00543,1.96236,1.96236,0.00673,-0.01562,-0.04620,-0.01737,-0.00065,0.04856,-0.03971,0.99357,4.56439,1.95905,1.96902,1.95994,-2.60035,5.99706,4.48913,-2.59860,5.98599,1.96389,1.96389,A,082727.10
4.58342,57.78150039,12.77347120,57.78150017,12.77347133,17:20:37.839375,0.00541,1.96236,1.96236,0.00583,-0.01568,-0.05414,-0.02761,-0.00462,-0.09040,0.01098,0.99332,4.57501,1.95971,1.96943,1.96031,-2.60634,6.01131,4.48913,-2.59860,5.98599,1.96389,1.96389,A,082727.10
4.65357,57.78150051,12.77347111,57.78150317,12.77346883,17:20:37.909566,0.06516,1.96236,1.50000,0.00459,-0.01568,-0.05857,-0.01188,-0.01425,-0.09839,-0.01049,0.92025,4.58539,1.96024,1.96977,1.96066,-2.61182,6.02434,4.61615,-2.74681,6.31958,1.98889,1.98889,A,082727.30
4.67585,57.78150187,12.77347006,57.78150317,12.77346883,17:20:37.931815,0.00954,1.96236,1.96236,0.00198,-0.01568,-0.04208,-0.01921,0.00011,-0.08900,0.08821,1.10630,4.66597,1.96066,1.97222,1.96310,-2.67435,6.17486,4.61615,-2.74681,6.31958,1.98889,1.98889,A,082727.30
4.68283,57.78150201,12.77346993,57.78150317,12.77346883,17:20:37.938797,0.00546,1.96236,1.96236,0.00213,-0.01568,-0.03673,0.00019,-0.00691,-0.11230,0.06466,1.09477,4.67447,1.96100,1.97597,1.96686,-2.68152,6.19067,4.61615,-2.74681,6.31958,1.98889,1.98889,A,082727.30
4.69293,57.78150220,12.77346978,57.78150317,12.77346883,17:20:37.948890,0.00516,1.96236,1.96236,0.00170,-0.01568,-0.03078,0.01607,-0.01363,0.01372,0.02001,1.00223,4.68455,1.96127,1.97909,1.96997,-2.69095,6.21186,4.61615,-2.74681,6.31958,1.98889,1.98889,A,082727.30
4.70373,57.78150238,12.77346962,57.78150317,12.77346883,17:20:37.959689,0.00554,1.96236,1.96236,0.00023,-0.01568,-0.02192,0.01806,-0.02112,-0.08943,-0.05368,0.98350,4.69518,1.96149,1.98173,1.97261,-2.69995,6.23196,4.61615,-2.74681,6.31958,1.98889,1.98889,A,082727.30
4.71417,57.78150254,12.77346948,57.78150317,12.77346883,17:20:37.970125,0.00558,1.96236,1.96236,0.00046,-0.01568,-0.03628,0.03043,-0.02662,-0.05081,0.06564,0.98716,4.70559,1.96166,1.98399,1.97487,-2.70826,6.25039,4.61615,-2.74681,6.31958,1.98889,1.98889,A,082727.30
4.77331,57.78150270,12.77346935,57.78150450,12.77346767,17:20:38.029306,0.05446,1.67506,1.50000,0.00062,-0.01568,-0.02665,0.03257,-0.01837,0.01775,0.05069,0.91183,4.71566,1.90434,1.98591,1.97679,-2.71591,6.26724,4.73545,-2.81597,6.46784,2.00729,2.00729,A,082727.40
4.79593,57.78150383,12.77346843,57.78150450,12.77346767,17:20:38.051885,0.00767,1.67506,1.67506,0.00020,-0.01568,-0.00986,-0.00500,0.00118,-0.05246,0.05197,1.11063,4.78746,1.85848,1.98895,1.97983,-2.77076,6.39322,4.73545,-2.81597,6.46784,2.00729,2.00729,A,082727.40
4.80412,57.78150395,12.77346832,57.78150450,12.77346767,17:20:38.060070,0.00523,1.67506,1.67506,0.00027,-0.01568,-0.01444,-0.00577,-0.00126,-0.01177,0.04355,1.06634,4.79573,1.82180,1.99293,1.98382,-2.77733,6.40688,4.73545,-2.81597,6.46784,2.00729,2.00729,A,082727.40
4.81468,57.78150410,12.77346819,57.78150450,12.77346767,17:20:38.070638,0.00539,1.67506,1.67506,0.00036,-0.01568,-0.00665,-0.00057,0.00255,-0.03068,0.04002,1.03346,4.80632,1.79245,1.99628,1.98716,-2.78519,6.42347,4.73545,-2.81597,6.46784,2.00729,2.00729,A,082727.40
4.82478,57.78150424,12.77346806,57.78150450,12.77346767,17:20:38.080734,0.00509,1.67506,1.67506,0.00019,-0.01568,-0.00100,0.00798,0.00332,-0.02312,0.01543,0.93983,4.81647,1.76897,1.99912,1.99000,-2.79263,6.43902,4.73545,-2.81597,6.46784,2.00729,2.00729,A,082727.40
4.83548,57.78150437,12.77346794,57.78150450,12.77346767,17:20:38.091435,0.00540,1.67506,1.67506,0.00050,-0.01565,0.00022,0.00538,0.01385,-0.01049,0.04416,0.91671,4.82707,1.75019,2.00153,1.99243,-2.79969,6.45369,4.73545,-2.81597,6.46784,2.00729,2.00729,A,082727.40
4.89572,57.78150449,12.77346783,57.78150600,12.77346633,17:20:38.152036,0.05524,1.67506,1.50000,0.00032,-0.01528,-0.00879,-0.00393,0.01905,-0.03459,0.02037,0.94007,4.83745,1.73516,2.00356,1.99467,-2.80615,6.46699,4.85726,-2.89502,6.63463,2.01336,2.01336,A,082727.50
4.91691,57.78150551,12.77346696,57.78150600,12.77346633,17:20:38.172870,0.00748,1.67506,1.67506,-0.00007,-0.00665,-0.00695,0.00447,0.01645,-0.01745,0.04020,1.08720,4.90855,1.72314,2.00425,2.00038,-2.85774,6.57984,4.85726,-2.89502,6.63463,2.01336,2.01336,A,082727.50
4.92540,57.78150562,12.77346685,57.78150600,12.77346633,17:20:38.181347,0.00524,1.67506,1.67506,-0.00086,-0.00628,-0.01413,0.00508,0.02073,0.07808,-0.01592,1.03480,4.91726,1.71352,2.00611,2.00245,-2.86417,6.59255,4.85726,-2.89502,6.63463,2.01336,2.01336,A,082727.50
4.93590,57.78150575,12.77346673,57.78150600,12.77346633,17:20:38.191853,0.00520,1.67506,1.67506,-0.00100,-0.00592,-0.01154,-0.01432,0.02958,0.07430,0.02855,1.04066,4.92751,1.70583,2.00764,2.00420,-2.87146,6.60713,4.85726,-2.89502,6.63463,2.01336,2.01336,A,082727.50
4.94619,57.78150588,12.77346661,57.78150600,12.77346633,17:20:38.202147,0.00510,1.67506,1.67506,-0.00039,-0.00560,-0.01658,-0.02562,0.03111,0.01946,0.08040,0.99186,4.93810,1.69968,2.00892,2.00567,-2.87844,6.62105,4.85726,-2.89502,6.63463,2.01336,2.01336,A,082727.50
4.95680,57.78150599,12.77346650,57.78150600,12.77346633,17:20:38.212752,0.00531,1.67506,1.67506,-0.00025,-0.00543,-0.00650,-0.02654,0.03249,0.03209,0.04075,0.94208,4.94827,1.69475,2.01000,2.00684,-2.88498,6.63403,4.85726,-2.89502,6.63463,2.01336,2.01336,A,082727.50
5.01971,57.78150611,12.77346640,57.78150750,12.77346517,17:20:38.275691,0.05782,1.67506,1.50000,-0.00022,-0.00543,-0.00604,-0.02761,0.03187,-0.06252,0.03465,0.96764,4.95888,1.69081,2.01092,2.00776,-2.89121,6.64635,4.97910,-2.96418,6.80142,1.96389,1.96389,A,082727.60
5.03871,57.78150700,12.77346562,57.78150750,12.77346517,17:20:38.294705,0.01353,1.67506,1.67506,0.00000,-0.00543,-0.03734,0.00523,0.01798,-0.00043,0.07777,1.07695,5.02369,1.67506,1.98495,1.98179,-2.96418,6.80142,4.97910,-2.96418,6.80142,1.96389,1.96389,A,082727.60
5.05984,57.78150784,12.77346489,57.78150750,12.77346517,17:20:38.315790,0.00883,1.67506,1.67506,-0.00128,0.00268,-0.02986,-0.01508,0.02714,0.03221,0.00146,1.06384,5.05169,1.67506,1.98139,1.98294,-2.98062,6.83915,4.97910,-2.96418,6.80142,1.96389,1.96389,A,082727.60
5.06606,57.78150788,12.77346485,57.78150750,12.77346517,17:20:38.322000,0.00484,1.67506,1.67506,-0.00185,0.00268,-0.04376,-0.01859,0.02500,-0.00049,0.01177,1.02779,5.05825,1.67506,1.97854,1.98010,-2.98266,6.84381,4.97910,-2.96418,6.80142,1.96389,1.96389,A,082727.60
5.07669,57.78150798,12.77346478,57.78150750,12.77346517,17:20:38.332635,0.00507,1.67506,1.67506,-0.00243,0.00268,-0.04315,-0.02425,0.01920,-0.00146,0.02001,0.97344,5.06862,1.67506,1.97614,1.97770,-2.98733,6.85457,4.97910,-2.96418,6.80142,1.96389,1.96389,A,082727.60
5.11576,57.78150807,12.77346470,57.78151033,12.77346300,17:20:38.371706,0.03375,1.67506,1.67506,-0.00291,0.00268,-0.04712,-0.02684,0.01141,-0.01616,0.02946,0.97935,5.07922,1.67506,1.97410,1.97565,-2.99158,6.86448,5.11014,-3.09263,7.11648,1.95793,1.95793,A,082727.80
5.12959,57.78150871,12.77346419,57.78151033,12.77346300,17:20:38.385534,0.00726,1.78987,1.78987,-0.00431,0.00268,-0.04651,0.01103,0.00698,-0.01616,0.06362,0.97545,5.12169,1.69802,1.97157,1.97313,-3.02197,6.93620,5.11014,-3.09263,7.11648,1.95793,1.95793,A,082727.80
5.13766,57.78150888,12.77346407,57.78151033,12.77346300,17:20:38.393603,0.00493,1.78987,1.78987,-0.00417,0.00268,-0.05078,0.01607,0.01676,-0.00720,0.06313,0.98863,5.12981,1.71639,1.96931,1.97087,-3.02948,6.95455,5.11014,-3.09263,7.11648,1.95793,1.95793,A,082727.80
5.14794,57.78150906,12.77346392,57.78151033,12.77346300,17:20:38.403888,0.00499,1.78987,1.78987,-0.00447,0.00268,-0.05002,0.00813,0.02149,-0.01379,0.04337,1.05945,5.13980,1.73108,1.96740,1.96896,-3.03785,6.97498,5.11014,-3.09263,7.11648,1.95793,1.95793,A,082727.80
5.15820,57.78150924,12.77346379,57.78151033,12.77346300,17:20:38.414146,0.00485,1.78987,1.78987,-0.00472,0.00268,-0.04926,0.00599,0.03065,-0.00732,0.04636,1.03127,5.15037,1.74284,1.96577,1.96733,-3.04599,6.99490,5.11014,-3.09263,7.11648,1.95793,1.95793,A,082727.80
5.16861,57.78150941,12.77346365,57.78151033,12.77346300,17:20:38.424560,0.00487,1.78987,1.78987,-0.00522,0.00268,-0.05033,-0.00210,0.03172,0.08802,0.02775,1.01626,5.16055,1.75225,1.96439,1.96595,-3.05384,7.01415,5.11014,-3.09263,7.11648,1.95793,1.95793,A,082727.80
5.17946,57.78150958,12.77346353,57.78151033,12.77346300,17:20:38.435412,0.00514,1.78987,1.78987,-0.00533,0.00268,-0.05139,-0.01081,0.03096,0.08650,0.05679,1.01955,5.17132,1.75977,1.96322,1.96478,-3.06140,7.03274,5.11014,-3.09263,7.11648,1.95793,1.95793,A,082727.80
5.18961,57.78150973,12.77346341,57.78151033,12.77346300,17:20:38.445553,0.00488,1.78987,1.78987,-0.00555,0.00268,-0.05399,-0.02776,0.02622,-0.00555,0.04868,1.00412,5.18175,1.76579,1.96222,1.96378,-3.06832,7.04982,5.11014,-3.09263,7.11648,1.95793,1.95793,A,082727.80
5.20014,57.78150988,12.77346330,57.78151033,12.77346300,17:20:38.456085,0.00518,1.78987,1.78987,-0.00646,0.00268,-0.05674,-0.03127,0.02302,-0.06173,0.00299,0.99277,5.19179,1.77061,1.96137,1.96293,-3.07483,7.06592,5.11014,-3.09263,7.11648,1.95793,1.95793,A,082727.80
5.21021,57.78151002,12.77346320,57.78151033,12.77346300,17:20:38.466374,0.00485,1.78987,1.78987,-0.00675,0.00268,-0.06544,-0.03051,0.01355,-0.04856,0.05136,0.99076,5.20236,1.77446,1.96065,1.96221,-3.08105,7.08134,5.11014,-3.09263,7.11648,1.95793,1.95793,A,082727.80
5.23779,57.78151015,12.77346309,57.78151183,12.77346167,17:20:38.493736,0.02204,1.78987,1.78987,-0.00746,0.00268,-0.05903,-0.02654,0.01202,-0.11511,0.01757,1.00241,5.21255,1.77754,1.96004,1.96160,-3.08716,7.09651,5.23234,-3.17167,7.28327,2.01336,2.01336,A,082727.90
5.25821,57.78151074,12.77346263,57.78151183,12.77346167,17:20:38.514397,0.00866,1.78987,1.78987,-0.00980,0.00268,-0.06346,-0.00057,0.03539,0.00708,0.02593,1.01937,5.25031,1.78001,1.96793,1.96949,-3.11440,7.16170,5.23234,-3.17167,7.28327,2.01336,2.01336,A,082727.90
5.26457,57.78151086,12.77346253,57.78151183,12.77346167,17:20:38.520517,0.00483,1.78987,1.78987,-0.00986,0.00268,-0.06758,-0.00103,0.04073,-0.03282,0.04788,1.04511,5.25652,1.78198,1.97452,1.97608,-3.12028,7.17493,5.23234,-3.17167,7.28327,2.01336,2.01336,A,082727.90
5.27549,57.78151103,12.77346239,57.78151183,12.77346167,17:20:38.531438,0.00536,1.78987,1.78987,-0.01076,0.00268,-0.06315,0.00599,0.04363,-0.07088,0.00610,1.05493,5.26713,1.78356,1.98015,1.98170,-3.12860,7.19375,5.23234,-3.17167,7.28327,2.01336,2.01336,A,082727.90
5.28574,57.78151119,12.77346226,57.78151183,12.77346167,17:20:38.541691,0.00521,1.78987,1.78987,-0.01199,0.00268,-0.06224,0.01485,0.03737,0.02965,-0.01690,1.01059,5.27789,1.78482,1.98492,1.98648,-3.13649,7.21140,5.23234,-3.17167,7.28327,2.01336,2.01336,A,082727.90
5.29592,57.78151133,12.77346214,57.78151183,12.77346167,17:20:38.551862,0.00497,1.78987,1.78987,-0.01250,0.00268,-0.06270,0.00951,0.03493,-0.04502,0.02721,1.02565,5.28779,1.78583,1.98898,1.99054,-3.14380,7.22757,5.23234,-3.17167,7.28327,2.01336,2.01336,A,082727.90
5.30619,57.78151148,12.77346201,57.78151183,12.77346167,17:20:38.562132,0.00485,1.78987,1.78987,-0.01329,0.00268,-0.06636,0.01516,0.03126,0.05313,0.01183,0.96953,5.29835,1.78664,1.99244,1.99399,-3.15107,7.24352,5.23234,-3.17167,7.28327,2.01336,2.01336,A,082727.90
5.31658,57.78151161,12.77346190,57.78151183,12.77346167,17:20:38.572525,0.00485,1.78987,1.78987,-0.01412,0.00268,-0.06544,0.00355,0.02714,-0.01275,0.00720,0.98430,5.30852,1.78728,1.99537,1.99693,-3.15810,7.25883,5.23234,-3.17167,7.28327,2.01336,2.01336,A,082727.90
5.32727,57.78151174,12.77346178,57.78151183,12.77346167,17:20:38.583217,0.00515,1.78987,1.78987,-0.01523,0.00277,-0.06315,-0.00210,0.02714,0.00708,-0.01165,0.95526,5.31917,1.78780,1.99786,1.99947,-3.16485,7.27343,5.23234,-3.17167,7.28327,2.01336,2.01336,A,082727.90
5.35469,57.78151186,12.77346168,57.78151333,12.77346050,17:20:38.610641,0.02218,1.78987,1.78987,-0.01618,0.00296,-0.06697,-0.00974,0.01905,-0.03910,-0.00104,0.98674,5.32946,1.78821,1.99995,2.00168,-3.17103,7.28668,5.34913,-3.24084,7.45006,1.96389,1.96389,A,082728.00
5.37385,57.78151242,12.77346120,57.78151333,12.77346050,17:20:38.629795,0.00602,1.78987,1.78987,-0.01745,0.00384,-0.05781,-0.00989,0.01920,0.00518,0.07015,1.00314,5.36599,1.78854,1.99434,1.99658,-3.19917,7.34848,5.34913,-3.24084,7.45006,1.96389,1.96389,A,082728.00
5.38334,57.78151257,12.77346108,57.78151333,12.77346050,17:20:38.639289,0.00512,1.78987,1.78987,-0.01860,0.00384,-0.05399,-0.01142,0.02439,-0.04709,-0.02922,0.99564,5.37521,1.78881,1.98948,1.99171,-3.20646,7.36504,5.34913,-3.24084,7.45006,1.96389,1.96389,A,082728.00
5.39353,57.78151272,12.77346095,57.78151333,12.77346050,17:20:38.649472,0.00491,1.78987,1.78987,-0.01991,0.00384,-0.05506,0.00508,0.02516,-0.09760,-0.03636,1.00912,5.38569,1.78902,1.98535,1.98758,-3.21403,7.38236,5.34913,-3.24084,7.45006,1.96389,1.96389,A,082728.00
5.40435,57.78151287,12.77346083,57.78151333,12.77346050,17:20:38.660301,0.00526,1.78987,1.78987,-0.02111,0.00384,-0.05537,0.01622,0.03600,-0.04142,-0.03105,1.02785,5.39592,1.78919,1.98184,1.98407,-3.22118,7.39888,5.34913,-3.24084,7.45006,1.96389,1.96389,A,082728.00
5.41432,57.78151301,12.77346072,57.78151333,12.77346050,17:20:38.670500,0.00484,1.78987,1.78987,-0.02166,0.00384,-0.04910,0.01913,0.03035,0.01427,0.00878,1.06835,5.40649,1.78932,1.97885,1.98108,-3.22777,7.41421,5.34913,-3.24084,7.45006,1.96389,1.96389,A,082728.00
5.42469,57.78151315,12.77346061,57.78151333,12.77346050,17:20:38.680633,0.00481,1.78987,1.78987,-0.02243,0.00384,-0.04666,0.01057,0.03279,0.04825,-0.01049,1.04828,5.41665,1.78943,1.97631,1.97855,-3.23425,7.42940,5.34913,-3.24084,7.45006,1.96389,1.96389,A,082728.00
5.43534,57.78151328,12.77346051,57.78151333,12.77346050,17:20:38.691294,0.00508,1.78987,1.78987,-0.02286,0.00384,-0.04177,0.00370,0.02348,0.10779,0.01025,1.01778,5.42723,1.78952,1.97416,1.97639,-3.24038,7.44386,5.34913,-3.24084,7.45006,1.96389,1.96389,A,082728.00
5.44552,57.78151340,12.77346041,57.78151333,12.77346050,17:20:38.701470,0.00487,1.78987,1.78987,-0.02324,0.00384,-0.03902,-0.01478,0.01752,0.01391,0.01116,1.00412,5.43769,1.78959,1.97233,1.97456,-3.24605,7.45732,5.34913,-3.24084,7.45006,1.96389,1.96389,A,082728.00
5.47322,57.78151351,12.77346032,57.78151483,12.77345917,17:20:38.729166,0.02210,1.78987,1.78987,-0.02352,0.00384,-0.04040,-0.01768,0.00912,-0.03684,0.01732,0.98747,5.44796,1.78965,1.97077,1.97300,-3.25146,7.47024,5.46778,-3.31988,7.61685,2.01336,2.01336,A,082728.10
5.49017,57.78151403,12.77345990,57.78151483,12.77345917,17:20:38.746111,0.00670,1.78987,1.78987,-0.02585,0.00384,-0.04132,-0.00928,-0.00249,-0.00567,-0.05155,0.95916,5.48228,1.78969,1.97699,1.97922,-3.27636,7.52807,5.46778,-3.31988,7.61685,2.01336,2.01336,A,082728.10
5.49927,57.78151417,12.77345979,57.78151483,12.77345917,17:20:38.755214,0.00541,1.78987,1.78987,-0.02634,0.00384,-0.04315,-0.00928,-0.00310,-0.04362,-0.00152,0.98478,5.49102,1.78972,1.98214,1.98437,-3.28321,7.54330,5.46778,-3.31988,7.61685,2.01336,2.01336,A,082728.10
5.50959,57.78151432,12.77345966,57.78151483,12.77345917,17:20:38.765532,0.00534,1.78987,1.78987,-0.02695,0.00384,-0.04116,-0.00439,0.00943,-0.08284,-0.00616,1.00802,5.50172,1.78975,1.98653,1.98877,-3.29088,7.56027,5.46778,-3.31988,7.61685,2.01336,2.01336,A,082728.10
5.51973,57.78151446,12.77345954,57.78151483,12.77345917,17:20:38.775673,0.00494,1.91314,1.91314,-0.02652,0.00384,-0.03994,0.00233,0.01569,-0.07247,0.06100,1.01748,5.51160,1.81443,1.99026,1.99250,-3.29790,7.57565,5.46778,-3.31988,7.61685,2.01336,2.01336,A,082728.10
5.53019,57.78151460,12.77345942,57.78151483,12.77345917,17:20:38.786132,0.00500,1.91314,1.91314,-0.02657,0.00384,-0.03261,0.00553,0.02775,0.02635,0.02605,1.03285,5.52233,1.83417,1.99344,1.99567,-3.30512,7.59135,5.46778,-3.31988,7.61685,2.01336,2.01336,A,082728.10
5.54046,57.78151473,12.77345930,57.78151483,12.77345917,17:20:38.796405,0.00487,1.91314,1.91314,-0.02691,0.00384,-0.02146,0.00217,0.03386,0.03605,-0.00256,1.03371,5.53238,1.84997,1.99613,1.99836,-3.31178,7.60572,5.46778,-3.31988,7.61685,2.01336,2.01336,A,082728.10
5.55140,57.78151487,12.77345919,57.78151483,12.77345917,17:20:38.807350,0.00542,1.91314,1.91314,-0.02761,0.00384,-0.01535,0.00202,0.03676,0.06423,-0.03038,1.00510,5.54325,1.86260,1.99843,2.00066,-3.31864,7.62044,5.46778,-3.31988,7.61685,2.01336,2.01336,A,082728.10
5.56118,57.78151498,12.77345909,57.78151483,12.77345917,17:20:38.817116,0.00480,1.91314,1.91314,-0.02845,0.00384,-0.01734,-0.00378,0.03462,-0.00634,-0.04069,1.01297,5.55335,1.87271,2.00037,2.00261,-3.32462,7.63317,5.46778,-3.31988,7.61685,2.01336,2.01336,A,082728.10
5.58920,57.78151510,12.77345898,57.78151633,12.77345800,17:20:38.845143,0.02239,1.91314,1.91314,-0.02927,0.00384,-0.01703,-0.00531,0.02775,-0.02965,-0.03867,0.98692,5.56362,1.88079,2.00203,2.00426,-3.33071,7.64608,5.58374,-3.38905,7.78364,1.96389,1.96389,A,082728.20
5.60316,57.78151558,12.77345857,57.78151633,12.77345800,17:20:38.859108,0.00633,1.91314,1.91314,-0.02928,0.00384,-0.00695,-0.00760,0.00973,0.01226,0.01671,1.02059,5.59478,1.88726,1.99613,1.99836,-3.35549,7.70020,5.58374,-3.38905,7.78364,1.96389,1.96389,A,082728.20
5.61372,57.78151574,12.77345844,57.78151633,12.77345800,17:20:38.869670,0.00667,1.91314,1.91314,-0.02919,0.00384,-0.00879,-0.00271,0.01202,0.04294,0.01531,0.99942,5.60486,1.89244,1.99100,1.99324,-3.36322,7.71766,5.58374,-3.38905,7.78364,1.96389,1.96389,A,082728.20
5.62227,57.78151587,12.77345833,57.78151633,12.77345800,17:20:38.878449,0.00482,1.91314,1.91314,-0.03009,0.00384,-0.00191,-0.00378,0.01706,0.01263,-0.05490,0.98680,5.61443,1.89658,1.98664,1.98887,-3.36951,7.73206,5.58374,-3.38905,7.78364,1.96389,1.96389,A,082728.20
5.63270,57.78151602,12.77345821,57.78151633,12.77345800,17:20:38.888650,0.00487,1.91314,1.91314,-0.02980,0.00384,-0.00146,-0.01417,0.02271,-0.12389,0.02263,1.00778,5.62464,1.89989,1.98294,1.98517,-3.37680,7.74885,5.58374,-3.38905,7.78364,1.96389,1.96389,A,082728.20
5.64332,57.78151616,12.77345809,57.78151633,12.77345800,17:20:38.899258,0.00509,1.91314,1.91314,-0.02954,0.00384,0.00038,-0.00271,0.02134,-0.05691,0.01921,1.00522,5.63520,1.90254,1.97979,1.98202,-3.38363,7.76474,5.58374,-3.38905,7.78364,1.96389,1.96389,A,082728.20
5.65348,57.78151630,12.77345798,57.78151633,12.77345800,17:20:38.909418,0.00485,1.91314,1.91314,-0.02904,0.00384,0.00022,-0.00195,0.02348,-0.01934,0.03727,1.02681,5.64563,1.90466,1.97711,1.97935,-3.38995,7.77956,5.58374,-3.38905,7.78364,1.96389,1.96389,A,082728.20
5.66384,57.78151642,12.77345789,57.78151633,12.77345800,17:20:38.919782,0.00499,1.91314,1.91314,-0.02852,0.00384,0.00755,-0.00577,0.02348,0.00842,0.03349,1.02840,5.65567,1.90636,1.97484,1.97707,-3.39585,7.79348,5.58374,-3.38905,7.78364,1.96389,1.96389,A,082728.20
5.67410,57.78151654,12.77345779,57.78151633,12.77345800,17:20:38.930048,0.00487,1.91314,1.91314,-0.02845,0.00384,0.01443,-0.00897,0.01844,0.06527,-0.00134,1.00961,5.66623,1.90771,1.97291,1.97514,-3.40157,7.80708,5.58374,-3.38905,7.78364,1.96389,1.96389,A,082728.20
5.71327,57.78151666,12.77345770,57.78151917,12.77345550,17:20:38.969212,0.03363,1.91314,1.91314,-0.02891,0.00384,0.01152,-0.02501,0.02164,0.03288,-0.03465,1.00528,5.67642,1.90880,1.97126,1.97350,-3.40692,7.81987,5.70766,-3.53726,8.09870,2.01051,2.01051,A,082728.40
5.73112,57.78151745,12.77345705,57.78151917,12.77345550,17:20:38.987070,0.00747,1.91314,1.91314,-0.02807,0.00384,0.02145,-0.01111,0.00866,0.01934,-0.00622,0.98143,5.72294,1.90967,1.97706,1.97929,-3.44508,7.90810,5.70766,-3.53726,8.09870,2.01051,2.01051,A,082728.40
5.73917,57.78151763,12.77345690,57.78151917,12.77345550,17:20:38.995122,0.00513,1.91314,1.91314,-0.02797,0.00384,0.02451,-0.01661,0.00683,-0.01745,-0.00189,0.97588,5.73105,1.91036,1.98177,1.98401,-3.45401,7.92761,5.70766,-3.53726,8.09870,2.01051,2.01051,A,082728.40
5.74928,57.78151783,12.77345673,57.78151917,12.77345550,17:20:39.005221,0.00484,1.91314,1.91314,-0.02795,0.00384,0.01824,-0.01890,0.01065,-0.00939,-0.00634,0.98777,5.74144,1.91092,1.98579,1.98803,-3.46425,7.95003,5.70766,-3.53726,8.09870,2.01051,2.01051,A,082728.40
5.75978,57.78151802,12.77345657,57.78151917,12.77345550,17:20:39.015720,0.00496,1.91314,1.91314,-0.02744,0.00384,0.01962,-0.01859,0.01294,-0.06289,0.02513,0.99296,5.75163,1.91136,1.98921,1.99144,-3.47408,7.97141,5.70766,-3.53726,8.09870,2.01051,2.01051,A,082728.40
5.77005,57.78151821,12.77345641,57.78151917,12.77345550,17:20:39.025994,0.00484,1.91314,1.91314,-0.02684,0.00384,0.01152,-0.02318,0.01859,-0.07363,0.03733,1.02260,5.76223,1.91172,1.99212,1.99435,-3.48355,7.99188,5.70766,-3.53726,8.09870,2.01051,2.01051,A,082728.40
5.78071,57.78151839,12.77345625,57.78151917,12.77345550,17:20:39.036655,0.00511,1.91314,1.91314,-0.02637,0.00384,0.01992,-0.01004,0.02516,0.04258,0.02269,0.96648,5.77263,1.91200,1.99459,1.99682,-3.49284,8.01188,5.70766,-3.53726,8.09870,2.01051,2.01051,A,082728.40
5.79111,57.78151855,12.77345611,57.78151917,12.77345550,17:20:39.047055,0.00511,1.91314,1.91314,-0.02607,0.00384,0.02634,-0.02119,0.02943,-0.01580,0.00756,0.99576,5.78298,1.91223,1.99669,1.99892,-3.50132,8.03000,5.70766,-3.53726,8.09870,2.01051,2.01051,A,082728.40
5.80121,57.78151870,12.77345597,57.78151917,12.77345550,17:20:39.057157,0.00482,1.91314,1.91314,-0.02599,0.00384,0.02298,-0.02195,0.02989,-0.01970,-0.00378,1.01290,5.79338,1.91241,1.99847,2.00070,-3.50941,8.04722,5.70766,-3.53726,8.09870,2.01051,2.01051,A,082728.40
5.82785,57.78151885,12.77345584,57.78152067,12.77345433,17:20:39.083794,0.02104,1.91314,1.91314,-0.02657,0.00384,0.01611,-0.02654,0.02729,-0.01616,-0.04496,1.03438,5.80364,1.91256,1.99999,2.00222,-3.51723,8.06382,5.82373,-3.60642,8.26549,1.96389,1.96389,A,082728.50
5.83818,57.78151931,12.77345545,57.78152067,12.77345433,17:20:39.094129,0.00490,1.91314,1.91314,-0.02621,0.00384,0.01351,-0.01646,0.02134,-0.03221,0.00610,1.00595,5.83034,1.91267,1.99437,1.99660,-3.54042,8.11459,5.82373,-3.60642,8.26549,1.96389,1.96389,A,082728.50
5.85122,57.78151953,12.77345526,57.78152067,12.77345433,17:20:39.107171,0.00755,1.91314,1.91314,-0.02583,0.00384,0.01488,-0.01020,0.01385,-0.01043,0.02117,1.02492,5.84169,1.91277,1.98952,1.99175,-3.55148,8.13925,5.82373,-3.60642,8.26549,1.96389,1.96389,A,082728.50
5.85917,57.78151968,12.77345514,57.78152067,12.77345433,17:20:39.115125,0.00510,1.91314,1.91314,-0.02564,0.00384,0.01687,-0.01020,0.01248,-0.01903,0.00915,1.05756,5.85106,1.91284,1.98537,1.98760,-3.55862,8.15537,5.82373,-3.60642,8.26549,1.96389,1.96389,A,082728.50
5.86929,57.78151985,12.77345500,57.78152067,12.77345433,17:20:39.125228,0.00482,1.91314,1.91314,-0.02675,0.00384,0.01366,-0.00271,0.00698,0.04843,-0.07637,0.98997,5.86146,1.91290,1.98186,1.98409,-3.56715,8.17475,5.82373,-3.60642,8.26549,1.96389,1.96389,A,082728.50
5.88007,57.78152002,12.77345486,57.78152067,12.77345433,17:20:39.136019,0.00525,1.91314,1.91314,-0.02634,0.00384,0.00648,-0.01172,0.01187,-0.01513,0.02940,1.01315,5.87189,1.91295,1.97887,1.98111,-3.57544,8.19371,5.82373,-3.60642,8.26549,1.96389,1.96389,A,082728.50
5.88994,57.78152017,12.77345473,57.78152067,12.77345433,17:20:39.145882,0.00484,1.91314,1.91314,-0.02641,0.00384,-0.00253,-0.01294,0.01019,0.01574,0.00238,0.98192,5.88209,1.91299,1.97634,1.97857,-3.58286,8.21078,5.82373,-3.60642,8.26549,1.96389,1.96389,A,082728.50
5.90039,57.78152033,12.77345461,57.78152067,12.77345433,17:20:39.156336,0.00490,1.91314,1.91314,-0.02599,0.00384,0.00297,-0.01844,0.00881,-0.02452,0.03196,0.99485,5.89229,1.91302,1.97418,1.97641,-3.59009,8.22754,5.82373,-3.60642,8.26549,1.96389,1.96389,A,082728.50
5.91102,57.78152047,12.77345449,57.78152067,12.77345433,17:20:39.166964,0.00514,1.91314,1.91314,-0.02606,0.00384,0.00587,-0.01432,0.00836,0.06930,-0.00220,0.98570,5.90288,1.91304,1.97235,1.97458,-3.59705,8.24375,5.82373,-3.60642,8.26549,1.96389,1.96389,A,082728.50
5.92111,57.78152061,12.77345438,57.78152067,12.77345433,17:20:39.177055,0.00484,1.91314,1.91314,-0.02594,0.00384,-0.00130,-0.01905,0.01217,-0.06063,0.01519,1.01455,5.91327,1.91306,1.97079,1.97302,-3.60346,8.25874,5.82373,-3.60642,8.26549,1.96389,1.96389,A,082728.50
5.94812,57.78152074,12.77345428,57.78152217,12.77345317,17:20:39.204065,0.02131,1.91314,1.91314,-0.02579,0.00384,-0.00619,-0.01020,0.00423,-0.05459,0.02019,0.98710,5.92362,1.91308,1.96946,1.97170,-3.60972,8.27343,5.94357,-3.67558,8.43228,1.96389,1.96389,A,082728.60
5.95832,57.78152118,12.77345393,57.78152217,12.77345317,17:20:39.214516,0.00492,1.66417,1.66417,-0.02630,0.00344,-0.01764,-0.00852,-0.01027,-0.05014,0.00329,0.98674,5.95045,1.86330,1.96846,1.97046,-3.63053,8.32270,5.94357,-3.67558,8.43228,1.96389,1.96389,A,082728.60
5.96864,57.78152136,12.77345379,57.78152217,12.77345317,17:20:39.224587,0.00484,1.66417,1.66417,-0.02640,0.00285,-0.02559,-0.00607,-0.01455,-0.02324,0.01616,1.00150,5.96059,1.82347,1.96757,1.96922,-3.63867,8.34212,5.94357,-3.67558,8.43228,1.96389,1.96389,A,082728.60
5.97970,57.78152152,12.77345366,57.78152217,12.77345317,17:20:39.235642,0.00550,1.66417,1.66417,-0.02595,0.00206,-0.02452,0.00034,-0.01195,0.03788,0.05307,1.00949,5.97140,1.79161,1.96687,1.96807,-3.64644,8.36071,5.94357,-3.67558,8.43228,1.96389,1.96389,A,082728.60
5.98944,57.78152167,12.77345355,57.78152217,12.77345317,17:20:39.245387,0.00485,1.66417,1.66417,-0.02626,0.00129,-0.02772,-0.00638,-0.00233,-0.01366,0.00372,1.02797,5.98160,1.76612,1.96633,1.96708,-3.65315,8.37680,5.94357,-3.67558,8.43228,1.96389,1.96389,A,082728.60
5.99983,57.78152181,12.77345344,57.78152217,12.77345317,17:20:39.255772,0.00502,1.66417,1.66417,-0.02601,0.00061,-0.02314,-0.00531,0.00057,0.04130,0.03654,0.99576,5.99168,1.74573,1.96592,1.96628,-3.65964,8.39242,5.94357,-3.67558,8.43228,1.96389,1.96389,A,082728.60
6.01011,57.78152194,12.77345333,57.78152217,12.77345317,17:20:39.266049,0.00491,1.66417,1.66417,-0.02643,0.00002,-0.02604,-0.01569,0.00378,-0.04410,-0.00476,1.00192,6.00227,1.72942,1.96562,1.96564,-3.66588,8.40744,5.94357,-3.67558,8.43228,1.96389,1.96389,A,082728.60
6.02047,57.78152207,12.77345323,57.78152217,12.77345317,17:20:39.276407,0.00488,1.66417,1.66417,-0.02686,-0.00049,-0.02711,-0.01325,0.00729,-0.01586,-0.00622,0.99448,6.01238,1.71637,1.96541,1.96512,-3.67163,8.42133,5.94357,-3.67558,8.43228,1.96389,1.96389,A,082728.60
6.03111,57.78152219,12.77345314,57.78152217,12.77345317,17:20:39.287054,0.00513,1.66417,1.66417,-0.02688,-0.00100,-0.02650,-0.01691,0.00225,-0.01696,0.02147,0.99747,6.02299,1.70593,1.96526,1.96468,-3.67721,8.43480,5.94357,-3.67558,8.43228,1.96389,1.96389,A,082728.60
6.04122,57.78152230,12.77345305,57.78152217,12.77345317,17:20:39.297161,0.00485,1.66417,1.66417,-0.02730,-0.00151,-0.02436,-0.01157,-0.00188,0.02495,-0.00787,0.99973,6.03336,1.69758,1.96518,1.96430,-3.68231,8.44713,5.94357,-3.67558,8.43228,1.96389,1.96389,A,082728.60
6.07093,57.78152241,12.77345297,57.78152367,12.77345200,17:20:39.326880,0.02413,1.66417,1.66417,-0.02761,-0.00196,-0.02864,-0.01050,-0.00401,-0.00207,0.00244,1.03450,6.04362,1.69090,1.96514,1.96400,-3.68721,8.45900,6.06569,-3.74475,8.59907,1.96389,1.96389,A,082728.70
6.08270,57.78152284,12.77345264,57.78152367,12.77345200,17:20:39.338656,0.00519,1.66417,1.66417,-0.02834,-0.00219,-0.02589,0.00233,-0.00462,-0.01299,0.00714,0.99082,6.07459,1.68555,1.96507,1.96380,-3.70694,8.50664,6.06569,-3.74475,8.59907,1.96389,1.96389,A,082728.70
6.09295,57.78152299,12.77345252,57.78152367,12.77345200,17:20:39.348910,0.00506,1.66417,1.66417,-0.02877,-0.00219,-0.03139,-0.00531,-0.00279,0.02580,-0.00537,0.96343,6.08489,1.68128,1.96506,1.96379,-3.71405,8.52386,6.06569,-3.74475,8.59907,1.96389,1.96389,A,082728.70
6.10358,57.78152314,12.77345240,57.78152367,12.77345200,17:20:39.359523,0.00529,1.66417,1.66417,-0.02812,-0.00219,-0.03047,-0.01447,-0.00065,0.01702,0.06423,0.96667,6.09528,1.67786,1.96505,1.96378,-3.72094,8.54054,6.06569,-3.74475,8.59907,1.96389,1.96389,A,082728.70
6.11354,57.78152328,12.77345230,57.78152367,12.77345200,17:20:39.369484,0.00486,1.66417,1.66417,-0.02787,-0.00219,-0.02665,-0.02531,0.01065,-0.00396,0.03532,0.95544,6.10571,1.67512,1.96505,1.96378,-3.72714,8.55554,6.06569,-3.74475,8.59907,1.96389,1.96389,A,082728.70
6.12389,57.78152340,12.77345220,57.78152367,12.77345200,17:20:39.379843,0.00498,1.66417,1.66417,-0.02778,-0.00219,-0.02650,-0.01814,0.01340,-0.00366,0.02495,0.94343,6.11575,1.67293,1.96504,1.96377,-3.73306,8.56988,6.06569,-3.74475,8.59907,1.96389,1.96389,A,082728.70
6.13413,57.78152353,12.77345210,57.78152367,12.77345200,17:20:39.390079,0.00483,1.66417,1.66417,-0.02803,-0.00219,-0.03215,-0.01890,0.01660,-0.05966,0.00805,0.96837,6.12630,1.67118,1.96504,1.96376,-3.73881,8.58379,6.06569,-3.74475,8.59907,1.96389,1.96389,A,082728.70
6.14480,57.78152365,12.77345200,57.78152367,12.77345200,17:20:39.400754,0.00499,1.66417,1.66417,-0.02855,-0.00219,-0.03276,-0.00943,0.01340,0.00030,-0.00952,1.01638,6.13694,1.66978,1.96503,1.96376,-3.74450,8.59757,6.06569,-3.74475,8.59907,1.96389,1.96389,A,082728.70
6.15532,57.78152376,12.77345192,57.78152367,12.77345200,17:20:39.411270,0.00511,1.66417,1.66417,-0.02900,-0.00219,-0.03826,-0.01126,0.01248,-0.02824,-0.00165,1.05176,6.14718,1.66866,1.96503,1.96376,-3.74964,8.61001,6.06569,-3.74475,8.59907,1.96389,1.96389,A,082728.70
6.16544,57.78152387,12.77345184,57.78152367,12.77345200,17:20:39.421386,0.00483,1.66417,1.66417,-0.02865,-0.00219,-0.03734,-0.00836,0.01248,-0.00610,0.05124,1.01870,6.15761,1.66776,1.96502,1.96375,-3.75447,8.62170,6.06569,-3.74475,8.59907,1.96389,1.96389,A,082728.70
6.19357,57.78152397,12.77345176,57.78152500,12.77345083,17:20:39.449515,0.02272,1.66417,1.66417,-0.02853,-0.00219,-0.02910,-0.00699,0.01553,-0.02818,0.03062,1.05249,6.16767,1.66704,1.96502,1.96375,-3.75901,8.63270,6.18803,-3.81391,8.74733,2.00729,2.00729,A,082728.80
6.21143,57.78152445,12.77345138,57.78152500,12.77345083,17:20:39.467376,0.00639,1.66417,1.66417,-0.02908,-0.00086,-0.03475,-0.00745,0.04531,0.03001,0.04404,0.97362,6.20239,1.66647,1.97135,1.97085,-3.78146,8.68597,6.18803,-3.81391,8.74733,2.00729,2.00729,A,082728.80
6.22035,57.78152457,12.77345128,57.78152500,12.77345083,17:20:39.476299,0.00492,1.66417,1.66417,-0.02944,0.00073,-0.02864,-0.01340,0.05310,0.01720,-0.00354,1.00430,6.21223,1.66601,1.97667,1.97709,-3.78732,8.69907,6.18803,-3.81391,8.74733,2.00729,2.00729,A,082728.80
6.23094,57.78152470,12.77345117,57.78152500,12.77345083,17:20:39.486885,0.00510,1.66417,1.66417,-0.02989,0.00277,-0.02971,-0.00974,0.05371,-0.00878,-0.00695,0.99619,6.22283,1.66564,1.98103,1.98264,-3.79400,8.71390,6.18803,-3.81391,8.74733,2.00729,2.00729,A,082728.80
6.24106,57.78152482,12.77345106,57.78152500,12.77345083,17:20:39.497006,0.00483,1.66417,1.66417,-0.03039,0.00472,-0.02910,-0.01432,0.04241,-0.09363,-0.01110,0.99137,6.23321,1.66535,1.98459,1.98733,-3.80028,8.72767,6.18803,-3.81391,8.74733,2.00729,2.00729,A,082728.80
6.25168,57.78152494,12.77345096,57.78152500,12.77345083,17:20:39.507623,0.00493,1.66417,1.66417,-0.03084,0.00644,-0.03322,-0.00134,0.03859,-0.06283,-0.00531,1.01480,6.24356,1.66511,1.98748,1.99123,-3.80644,8.74105,6.18803,-3.81391,8.74733,2.00729,2.00729,A,082728.80
6.26216,57.78152506,12.77345086,57.78152500,12.77345083,17:20:39.518102,0.00502,1.66417,1.66417,-0.03114,0.00789,-0.04040,-0.00073,0.03126,0.00183,0.01092,1.01864,6.25431,1.66493,1.98983,1.99442,-3.81243,8.75392,6.18803,-3.81391,8.74733,2.00729,2.00729,A,082728.80
6.27242,57.78152516,12.77345077,57.78152500,12.77345083,17:20:39.528366,0.00489,1.66417,1.66417,-0.03145,0.00902,-0.03918,0.00263,0.03233,0.02446,0.00744,1.02645,6.26433,1.66478,1.99174,1.99699,-3.81785,8.76545,6.18803,-3.81391,8.74733,2.00729,2.00729,A,082728.80
6.28334,57.78152526,12.77345068,57.78152500,12.77345083,17:20:39.539292,0.00560,1.66417,1.66417,-0.03154,0.01010,-0.04101,0.00309,0.03661,-0.01299,0.02452,1.01370,6.27481,1.66465,1.99329,1.99916,-3.82319,8.77673,6.18803,-3.81391,8.74733,2.00729,2.00729,A,082728.80
6.32029,57.78152535,12.77345060,57.78152800,12.77344850,17:20:39.576237,0.03216,1.66417,1.66417,-0.03195,0.01111,-0.04025,-0.00210,0.03707,0.02434,0.00244,0.99820,6.28514,1.66456,1.99452,2.00098,-3.82789,8.78658,6.31591,-3.95224,9.08092,1.96389,1.96389,A,082729.00
6.33096,57.78152595,12.77345009,57.78152800,12.77344850,17:20:39.586905,0.00523,1.66417,1.66417,-0.03363,0.01392,-0.03643,-0.01050,0.04944,-0.03873,-0.01879,0.96325,6.32281,1.66448,1.98920,1.99729,-3.85778,8.85289,6.31591,-3.95224,9.08092,1.96389,1.96389,A,082729.00
6.34097,57.78152616,12.77344992,57.78152800,12.77344850,17:20:39.596917,0.00484,1.66417,1.66417,-0.03484,0.01400,-0.03521,-0.00012,0.05295,-0.00543,-0.05746,1.02364,6.33313,1.66442,1.98432,1.99247,-3.86790,8.87616,6.31591,-3.95224,9.08092,1.96389,1.96389,A,082729.00
6.35177,57.78152636,12.77344976,57.78152800,12.77344850,17:20:39.608048,0.00511,1.66417,1.66417,-0.03553,0.01400,-0.04070,0.00309,0.05814,0.03928,-0.01921,1.01522,6.34348,1.66437,1.98018,1.98833,-3.87766,8.89876,6.31591,-3.95224,9.08092,1.96389,1.96389,A,082729.00
6.36411,57.78152658,12.77344958,57.78152800,12.77344850,17:20:39.620057,0.00705,1.79975,1.79975,-0.03708,0.01400,-0.03948,-0.00286,0.05417,-0.04758,-0.07247,1.00662,6.35596,1.69145,1.97670,1.98484,-3.88797,8.92271,6.31591,-3.95224,9.08092,1.96389,1.96389,A,082729.00
6.37236,57.78152673,12.77344946,57.78152800,12.77344850,17:20:39.628303,0.00490,1.79975,1.79975,-0.03733,0.01400,-0.04254,0.00844,0.04898,-0.03202,0.00421,1.00321,6.36426,1.71311,1.97366,1.98180,-3.89520,8.93975,6.31591,-3.95224,9.08092,1.96389,1.96389,A,082729.00
6.38306,57.78152691,12.77344932,57.78152800,12.77344850,17:20:39.639003,0.00516,1.79975,1.79975,-0.03798,0.01400,-0.03872,0.00111,0.03875,0.05905,-0.01732,0.95416,6.37493,1.73044,1.97113,1.97927,-3.90366,8.95968,6.31591,-3.95224,9.08092,1.96389,1.96389,A,082729.00
6.39319,57.78152708,12.77344919,57.78152800,12.77344850,17:20:39.649138,0.00490,1.79975,1.79975,-0.03820,0.01400,-0.03872,-0.00668,0.02989,-0.03416,0.00885,0.99826,6.38535,1.74430,1.96897,1.97711,-3.91155,8.97836,6.31591,-3.95224,9.08092,1.96389,1.96389,A,082729.00
6.40393,57.78152724,12.77344906,57.78152800,12.77344850,17:20:39.659872,0.00513,1.79975,1.79975,-0.03784,0.01400,-0.04223,-0.01707,0.02745,0.01208,0.04843,0.99399,6.39561,1.75539,1.96714,1.97528,-3.91914,8.99640,6.31591,-3.95224,9.08092,1.96389,1.96389,A,082729.00
6.41403,57.78152739,12.77344894,57.78152800,12.77344850,17:20:39.669979,0.00484,1.79975,1.79975,-0.03839,0.01400,-0.03429,-0.00653,0.02073,-0.01861,-0.01531,1.00461,6.40619,1.76426,1.96558,1.97372,-3.92626,9.01340,6.31591,-3.95224,9.08092,1.96389,1.96389,A,082729.00
6.44061,57.78152754,12.77344882,57.78152950,12.77344717,17:20:39.696555,0.02102,1.79975,1.79975,-0.03926,0.01400,-0.04391,-0.00714,0.01706,0.02409,-0.03245,0.99753,6.41637,1.77136,1.96426,1.97240,-3.93308,9.02971,6.43618,-4.03129,9.24771,2.01336,2.01336,A,082729.10
6.45116,57.78152798,12.77344847,57.78152950,12.77344717,17:20:39.707106,0.00522,1.79975,1.79975,-0.04064,0.01400,-0.04697,-0.01539,0.02500,-0.03288,-0.01513,1.04334,6.44298,1.77704,1.97085,1.97900,-3.95416,9.07870,6.43618,-4.03129,9.24771,2.01336,2.01336,A,082729.10
6.46268,57.78152817,12.77344831,57.78152950,12.77344717,17:20:39.718955,0.00635,1.79975,1.79975,-0.04105,0.01400,-0.04559,-0.00225,0.02913,-0.02123,-0.00213,1.01852,6.45332,1.78158,1.97616,1.98430,-3.96354,9.09992,6.43618,-4.03129,9.24771,2.01336,2.01336,A,082729.10
6.47172,57.78152834,12.77344817,57.78152950,12.77344717,17:20:39.727661,0.00492,1.79975,1.79975,-0.04144,0.01400,-0.04544,0.00080,0.03829,0.06850,-0.00152,1.01608,6.46361,1.78521,1.98065,1.98879,-3.97184,9.11849,6.43618,-4.03129,9.24771,2.01336,2.01336,A,082729.10
6.48229,57.78152852,12.77344802,57.78152950,12.77344717,17:20:39.738474,0.00509,1.79975,1.79975,-0.04152,0.01400,-0.04926,-0.00592,0.03493,-0.00287,0.02330,0.99412,6.47445,1.78812,1.98450,1.99264,-3.98086,9.13858,6.43618,-4.03129,9.24771,2.01336,2.01336,A,082729.10
6.49269,57.78152868,12.77344788,57.78152950,12.77344717,17:20:39.748644,0.00510,1.79975,1.79975,-0.04187,0.01400,-0.04727,-0.01417,0.03707,0.07619,0.00067,0.94672,6.48438,1.79045,1.98776,1.99590,-3.98906,9.15668,6.43618,-4.03129,9.24771,2.01336,2.01336,A,082729.10
6.50341,57.78152885,12.77344774,57.78152950,12.77344717,17:20:39.759359,0.00543,1.79975,1.79975,-0.04251,0.01400,-0.05048,-0.02134,0.03966,-0.08564,-0.01305,0.99643,6.49526,1.79231,1.99054,1.99868,-3.99738,9.17496,6.43618,-4.03129,9.24771,2.01336,2.01336,A,082729.10
6.51322,57.78152899,12.77344761,57.78152950,12.77344717,17:20:39.769168,0.00485,1.79975,1.79975,-0.04359,0.01400,-0.04162,-0.00088,0.03081,-0.04136,-0.04849,0.93684,6.50538,1.79380,1.99289,2.00103,-4.00476,9.19105,6.43618,-4.03129,9.24771,2.01336,2.01336,A,082729.10
6.52430,57.78152913,12.77344749,57.78152950,12.77344717,17:20:39.780247,0.00543,1.79975,1.79975,-0.04439,0.01400,-0.04636,0.00645,0.02867,-0.03410,-0.03044,0.99906,6.51570,1.79499,1.99490,2.00304,-4.01215,9.20710,6.43618,-4.03129,9.24771,2.01336,2.01336,A,082729.10
6.53412,57.78152927,12.77344738,57.78152950,12.77344717,17:20:39.790058,0.00485,1.79975,1.79975,-0.04434,0.01400,-0.04513,0.01424,0.02027,0.06399,0.02403,0.97319,6.52627,1.79594,1.99659,2.00474,-4.01885,9.22159,6.43618,-4.03129,9.24771,2.01336,2.01336,A,082729.10
6.56033,57.78152939,12.77344726,57.78153083,12.77344600,17:20:39.816274,0.02067,1.79975,1.79975,-0.04540,0.01400,-0.04162,0.00309,0.02256,0.05575,-0.05209,0.99973,6.53645,1.79670,1.99804,2.00618,-4.02549,9.23588,6.55625,-4.10045,9.39597,2.00729,2.00729,A,082729.20
6.57081,57.78152980,12.77344691,57.78153083,12.77344600,17:20:39.826763,0.00520,1.79975,1.79975,-0.04578,0.01400,-0.03444,0.00584,0.02485,-0.01171,0.02495,1.08513,6.56267,1.79731,1.99866,2.00680,-4.04668,9.28138,6.55625,-4.10045,9.39597,2.00729,2.00729,A,082729.20
6.58105,57.78152997,12.77344676,57.78153083,12.77344600,17:20:39.837002,0.00505,1.79975,1.79975,-0.04632,0.01400,-0.02436,0.00721,0.02974,0.05459,-0.03001,1.00540,6.57319,1.79780,1.99889,2.00703,-4.05550,9.30026,6.55625,-4.10045,9.39597,2.00729,2.00729,A,082729.20
6.59352,57.78153016,12.77344659,57.78153083,12.77344600,17:20:39.849472,0.00697,1.79975,1.79975,-0.04688,0.01400,-0.02085,-0.01188,0.03539,0.09998,-0.03050,0.96776,6.58562,1.79819,1.99913,2.00727,-4.06543,9.32154,6.55625,-4.10045,9.39597,2.00729,2.00729,A,082729.20
6.60196,57.78153029,12.77344648,57.78153083,12.77344600,17:20:39.857904,0.00500,1.79975,1.79975,-0.04811,0.01400,-0.02223,-0.01921,0.03355,-0.03129,-0.07832,0.96075,6.59410,1.79850,1.99925,2.00740,-4.07198,9.33555,6.55625,-4.10045,9.39597,2.00729,2.00729,A,082729.20
6.61211,57.78153043,12.77344636,57.78153083,12.77344600,17:20:39.868054,0.00493,1.79975,1.79975,-0.04841,0.01400,-0.02497,-0.01386,0.02699,-0.00512,-0.01623,0.96697,6.60400,1.79875,1.99939,2.00753,-4.07926,9.35112,6.55625,-4.10045,9.39597,2.00729,2.00729,A,082729.20
6.62266,57.78153057,12.77344624,57.78153083,12.77344600,17:20:39.878619,0.00508,1.79975,1.79975,-0.04949,0.01400,-0.02971,0.00202,0.02393,-0.06515,-0.06820,1.04792,6.61459,1.79895,1.99951,2.00766,-4.08650,9.36659,6.55625,-4.10045,9.39597,2.00729,2.00729,A,082729.20
6.63281,57.78153070,12.77344612,57.78153083,12.77344600,17:20:39.888757,0.00485,1.79975,1.79975,-0.05022,0.01400,-0.03444,0.01286,0.01920,-0.06124,-0.04038,1.00906,6.62496,1.79911,1.99962,2.00776,-4.09342,9.38138,6.55625,-4.10045,9.39597,2.00729,2.00729,A,082729.20
6.64346,57.78153083,12.77344601,57.78153083,12.77344600,17:20:39.899413,0.00494,1.79975,1.79975,-0.05109,0.01400,-0.02604,0.01668,0.01340,0.04746,-0.05575,1.00302,6.63533,1.79924,1.99971,2.00785,-4.09998,9.39541,6.55625,-4.10045,9.39597,2.00729,2.00729,A,082729.20
6.65379,57.78153095,12.77344590,57.78153083,12.77344600,17:20:39.909731,0.00487,1.79975,1.79975,-0.05116,0.01400,-0.02253,0.00248,0.01691,0.03678,-0.00537,1.00601,6.64595,1.79934,1.99978,2.00793,-4.10619,9.40867,6.55625,-4.10045,9.39597,2.00729,2.00729,A,082729.20
6.68059,57.78153106,12.77344581,57.78153233,12.77344467,17:20:39.936529,0.02144,1.79975,1.79975,-0.05041,0.01400,-0.01719,-0.00974,0.01783,0.02257,0.04612,1.02035,6.65597,1.79942,1.99984,2.00798,-4.11187,9.42082,6.67632,-4.17949,9.56276,2.01336,2.01336,A,082729.30
6.69105,57.78153147,12.77344545,57.78153233,12.77344467,17:20:39.946998,0.00519,1.79975,1.79975,-0.05051,0.01395,-0.02131,-0.01371,0.01370,0.04660,0.01574,1.03127,6.68290,1.79949,2.00112,2.00923,-4.13325,9.46644,6.67632,-4.17949,9.56276,2.01336,2.01336,A,082729.30
6.70131,57.78153163,12.77344531,57.78153233,12.77344467,17:20:39.957254,0.00506,1.79975,1.79975,-0.05022,0.01383,-0.02146,-0.02990,0.00866,0.08082,0.01903,1.04078,6.69323,1.79954,2.00190,2.00994,-4.14155,9.48402,6.67632,-4.17949,9.56276,2.01336,2.01336,A,082729.30
6.71187,57.78153178,12.77344517,57.78153233,12.77344467,17:20:39.967816,0.00510,1.79975,1.79975,-0.05043,0.01363,-0.01780,-0.05128,0.00194,-0.03337,-0.01921,1.08995,6.70359,1.79958,2.00258,2.01051,-4.14952,9.50088,6.67632,-4.17949,9.56276,2.01336,2.01336,A,082729.30
6.72200,57.78153192,12.77344504,57.78153233,12.77344467,17:20:39.977940,0.00484,1.79975,1.79975,-0.05032,0.01338,-0.01734,-0.04685,0.00072,-0.06313,0.00354,1.08330,6.71416,1.79962,2.00318,2.01096,-4.15710,9.51691,6.67632,-4.17949,9.56276,2.01336,2.01336,A,082729.30
6.73226,57.78153206,12.77344492,57.78153233,12.77344467,17:20:39.988204,0.00493,1.95803,1.95803,-0.05104,0.01298,-0.01749,-0.03784,-0.00294,-0.02495,-0.05472,1.05268,6.72413,1.83130,2.00372,2.01127,-4.16420,9.53189,6.67632,-4.17949,9.56276,2.01336,2.01336,A,082729.30
6.74419,57.78153221,12.77344479,57.78153233,12.77344467,17:20:40.000138,0.00619,1.95803,1.95803,-0.05143,0.01230,-0.01352,-0.03234,0.01004,-0.02885,-0.03105,0.99497,6.73606,1.85664,2.00427,2.01142,-4.17228,9.54896,6.67632,-4.17949,9.56276,2.01336,2.01336,A,082729.30
6.75323,57.78153232,12.77344469,57.78153233,12.77344467,17:20:40.009171,0.00484,1.95803,1.95803,-0.05160,0.01160,-0.01367,-0.02134,0.01569,-0.03300,-0.01861,0.95483,6.74537,1.87692,2.00474,2.01148,-4.17810,9.56122,6.67632,-4.17949,9.56276,2.01336,2.01336,A,082729.30
6.76372,57.78153244,12.77344458,57.78153233,12.77344467,17:20:40.019669,0.00492,1.95803,1.95803,-0.05254,0.01061,-0.01276,-0.01157,0.01874,-0.07369,-0.06240,0.88157,6.75561,1.89314,2.00524,2.01141,-4.18460,9.57493,6.67632,-4.17949,9.56276,2.01336,2.01336,A,082729.30
6.77410,57.78153256,12.77344447,57.78153233,12.77344467,17:20:40.030039,0.00491,1.95803,1.95803,-0.05248,0.00947,-0.00925,0.00217,0.01996,-0.08796,-0.00604,0.86126,6.76625,1.90612,2.00576,2.01127,-4.19094,9.58830,6.67632,-4.17949,9.56276,2.01336,2.01336,A,082729.30
6.81343,57.78153267,12.77344438,57.78153533,12.77344217,17:20:40.069376,0.03402,1.95803,1.95803,-0.05289,0.00837,-0.00818,0.00951,0.02607,-0.00409,-0.03538,0.87071,6.77628,1.91650,2.00628,2.01115,-4.19673,9.60052,6.80719,-4.32770,9.89635,1.98889,1.98889,A,082729.50
6.82813,57.78153342,12.77344372,57.78153533,12.77344217,17:20:40.084080,0.00546,1.95803,1.95803,-0.05299,0.00480,-0.01138,-0.00485,0.01034,0.01025,0.00683,1.19761,6.82000,1.92481,2.00375,2.00654,-4.23566,9.68404,6.80719,-4.32770,9.89635,1.98889,1.98889,A,082729.50
6.83789,57.78153364,12.77344354,57.78153533,12.77344217,17:20:40.093831,0.00483,1.95803,1.95803,-0.05263,0.00441,-0.00589,-0.00409,0.00301,0.06985,0.00787,1.13350,6.83006,1.93145,2.00119,2.00375,-4.24643,9.70791,6.80719,-4.32770,9.89635,1.98889,1.98889,A,082729.50
6.84835,57.78153385,12.77344336,57.78153533,12.77344217,17:20:40.104296,0.00490,1.95803,1.95803,-0.05254,0.00424,-0.00314,-0.01249,-0.00111,0.01171,-0.01269,1.06994,6.84024,1.93677,1.99903,2.00149,-4.25697,9.73134,6.80719,-4.32770,9.89635,1.98889,1.98889,A,082729.50
6.85909,57.78153405,12.77344319,57.78153533,12.77344217,17:20:40.115042,0.00525,1.95803,1.95803,-0.05224,0.00424,-0.00100,-0.02486,0.00439,-0.07375,0.00085,0.99338,6.85083,1.94102,1.99719,1.99966,-4.26707,9.75388,6.80719,-4.32770,9.89635,1.98889,1.98889,A,082729.50
6.86908,57.78153424,12.77344303,57.78153533,12.77344217,17:20:40.125024,0.00484,1.95803,1.95803,-0.05209,0.00424,0.00480,-0.00409,0.00148,-0.03221,-0.01196,0.90994,6.86123,1.94442,1.99563,1.99809,-4.27640,9.77478,6.80719,-4.32770,9.89635,1.98889,1.98889,A,082729.50
6.88074,57.78153444,12.77344287,57.78153533,12.77344217,17:20:40.136689,0.00531,1.95803,1.95803,-0.05263,0.00424,0.00374,0.00676,-0.00050,-0.00573,-0.04972,0.85254,6.87237,1.94714,1.99430,1.99677,-4.28613,9.79658,6.80719,-4.32770,9.89635,1.98889,1.98889,A,082729.50
6.89302,57.78153464,12.77344270,57.78153533,12.77344217,17:20:40.148966,0.00719,1.95803,1.95803,-0.05299,0.00424,0.00038,0.02233,0.00439,0.00445,-0.03501,0.80282,6.88486,1.94932,1.99319,1.99565,-4.29600,9.81875,6.80719,-4.32770,9.89635,1.98889,1.98889,A,082729.50
6.90132,57.78153477,12.77344259,57.78153533,12.77344217,17:20:40.157265,0.00510,1.95803,1.95803,-0.05430,0.00424,-0.00100,0.01500,0.00423,-0.04538,-0.09278,0.86053,6.89320,1.95106,1.99221,1.99467,-4.30237,9.83320,6.80719,-4.32770,9.89635,1.98889,1.98889,A,082729.50
6.93005,57.78153492,12.77344247,57.78153683,12.77344083,17:20:40.185997,0.02331,1.95803,1.95803,-0.05455,0.00424,-0.01169,0.01210,0.00378,-0.03172,-0.03056,0.99552,6.90354,1.95245,1.99139,1.99386,-4.30995,9.85035,6.92362,-4.40675,10.06314,2.01336,2.01336,A,082729.60
6.94877,57.78153555,12.77344193,57.78153683,12.77344083,17:20:40.204716,0.00617,1.95803,1.95803,-0.05391,0.00424,0.00939,-0.02806,0.01477,0.06844,-0.00244,1.16071,6.94089,1.95357,1.99453,1.99700,-4.34167,9.92070,6.92362,-4.40675,10.06314,2.01336,2.01336,A,082729.60
6.95784,57.78153573,12.77344178,57.78153683,12.77344083,17:20:40.213782,0.00484,1.95803,1.95803,-0.05324,0.00424,0.00923,-0.03600,0.02012,0.09803,0.01928,1.13295,6.95000,1.95446,1.99703,1.99950,-4.35052,9.94015,6.92362,-4.40675,10.06314,2.01336,2.01336,A,082729.60
6.96829,57.78153591,12.77344162,57.78153683,12.77344083,17:20:40.224238,0.00490,1.95803,1.95803,-0.05362,0.00424,0.01382,-0.04914,0.02317,0.00433,-0.05496,1.00357,6.96018,1.95517,1.99916,2.00163,-4.35982,9.96048,6.92362,-4.40675,10.06314,2.01336,2.01336,A,082729.60
6.97888,57.78153609,12.77344147,57.78153683,12.77344083,17:20:40.234828,0.00524,1.95803,1.95803,-0.05410,0.00424,0.01458,-0.05265,0.02668,-0.08601,-0.06008,0.94294,6.97073,1.95574,2.00097,2.00344,-4.36877,9.97999,6.92362,-4.40675,10.06314,2.01336,2.01336,A,082729.60
6.98890,57.78153625,12.77344133,57.78153683,12.77344083,17:20:40.244847,0.00487,1.95803,1.95803,-0.05395,0.00424,0.01076,-0.03570,0.01630,-0.06490,-0.01677,0.90493,6.98105,1.95620,2.00251,2.00498,-4.37712,9.99810,6.92362,-4.40675,10.06314,2.01336,2.01336,A,082729.60
6.99953,57.78153641,12.77344120,57.78153683,12.77344083,17:20:40.255645,0.00495,1.95803,1.95803,-0.05437,0.00424,0.00374,-0.02409,0.01263,-0.09986,-0.04520,0.87029,6.99140,1.95657,2.00382,2.00629,-4.38529,10.01579,6.92362,-4.40675,10.06314,2.01336,2.01336,A,082729.60
7.00995,57.78153656,12.77344106,57.78153683,12.77344083,17:20:40.265899,0.00498,1.95803,1.95803,-0.05489,0.00424,0.00786,0.00233,0.00255,-0.06576,-0.05527,0.89664,7.00213,1.95686,2.00494,2.00740,-4.39316,10.03277,6.92362,-4.40675,10.06314,2.01336,2.01336,A,082729.60
7.02013,57.78153670,12.77344094,57.78153683,12.77344083,17:20:40.276079,0.00493,1.95803,1.95803,-0.05615,0.00424,0.00587,0.00935,-0.00126,-0.00207,-0.09833,0.89054,7.01203,1.95709,2.00588,2.00834,-4.40024,10.04800,6.92362,-4.40675,10.06314,2.01336,2.01336,A,082729.60
7.04688,57.78153683,12.77344082,57.78153833,12.77343967,17:20:40.302823,0.02129,1.95803,1.95803,-0.05585,0.00424,-0.00619,-0.00103,0.00087,-0.05533,0.00049,0.97899,7.02260,1.95728,2.00668,2.00915,-4.40728,10.06312,7.04243,-4.47591,10.22993,1.96389,1.96389,A,082729.70
7.05713,57.78153729,12.77344044,57.78153833,12.77343967,17:20:40.313070,0.00498,1.95803,1.95803,-0.05466,0.00424,-0.00268,-0.00454,0.01431,-0.01800,0.06887,1.14125,7.04925,1.95743,2.00005,2.00251,-4.43036,10.11336,7.04243,-4.47591,10.22993,1.96389,1.96389,A,082729.70
7.06760,57.78153747,12.77344029,57.78153833,12.77343967,17:20:40.323542,0.00492,1.95803,1.95803,-0.05414,0.00424,0.00786,-0.01523,0.02180,0.10876,0.00805,1.09800,7.05950,1.95755,1.99431,1.99677,-4.43920,10.13345,7.04243,-4.47591,10.22993,1.96389,1.96389,A,082729.70
7.08066,57.78153766,12.77344013,57.78153833,12.77343967,17:20:40.336608,0.00759,1.95803,1.95803,-0.05411,0.00424,0.00557,-0.02638,0.02607,0.05252,-0.02708,1.10203,7.07142,1.95764,1.98943,1.99190,-4.44867,10.15508,7.04243,-4.47591,10.22993,1.96389,1.96389,A,082729.70
7.08837,57.78153778,12.77344003,57.78153833,12.77343967,17:20:40.344316,0.00490,1.95803,1.95803,-0.05453,0.00424,0.00435,-0.03264,0.02546,-0.02050,-0.05337,1.03291,7.08027,1.95772,1.98527,1.98773,-4.45435,10.16846,7.04243,-4.47591,10.22993,1.96389,1.96389,A,082729.70
7.09930,57.78153794,12.77343990,57.78153833,12.77343967,17:20:40.355249,0.00543,1.95803,1.95803,-0.05405,0.00424,0.00068,-0.02761,0.02225,-0.12584,0.00958,1.01473,7.09086,1.95778,1.98174,1.98421,-4.46187,10.18609,7.04243,-4.47591,10.22993,1.96389,1.96389,A,082729.70
7.10909,57.78153808,12.77343979,57.78153833,12.77343967,17:20:40.365032,0.00482,1.95803,1.95803,-0.05446,0.00424,-0.00115,-0.00424,0.00836,-0.02440,-0.04429,0.91415,7.10125,1.95783,1.97874,1.98121,-4.46857,10.20195,7.04243,-4.47591,10.22993,1.96389,1.96389,A,082729.70
7.11976,57.78153823,12.77343968,57.78153833,12.77343967,17:20:40.375707,0.00495,1.95803,1.95803,-0.05488,0.00424,-0.00589,-0.00500,0.00591,-0.05630,-0.03989,0.87828,7.11163,1.95787,1.97620,1.97866,-4.47532,10.21803,7.04243,-4.47591,10.22993,1.96389,1.96389,A,082729.70
7.13004,57.78153836,12.77343957,57.78153833,12.77343967,17:20:40.385991,0.00484,1.95803,1.95803,-0.05530,0.00424,-0.01367,0.00508,-0.00462,-0.02208,-0.03392,0.83503,7.12221,1.95790,1.97403,1.97650,-4.48163,10.23315,7.04243,-4.47591,10.22993,1.96389,1.96389,A,082729.70
7.14048,57.78153849,12.77343947,57.78153833,12.77343967,17:20:40.396426,0.00488,1.95803,1.95803,-0.05500,0.00424,-0.01734,-0.00836,-0.00753,-0.01348,0.00811,0.92415,7.13240,1.95793,1.97219,1.97466,-4.48752,10.24737,7.04243,-4.47591,10.22993,1.96389,1.96389,A,082729.70
7.16803,57.78153861,12.77343937,57.78153983,12.77343833,17:20:40.423976,0.02204,1.95803,1.95803,-0.05442,0.00424,-0.02452,-0.00470,-0.00600,-0.07216,0.03367,1.00455,7.14300,1.95795,1.97063,1.97310,-4.49321,10.26118,7.16357,-4.55496,10.39673,2.01336,2.01336,A,082729.80
7.17825,57.78153906,12.77343902,57.78153983,12.77343833,17:20:40.434450,0.00492,1.73083,1.73083,-0.05438,0.00424,-0.01658,0.00217,0.01691,0.03642,0.01128,1.12539,7.17038,1.91252,1.97682,1.97929,-4.51438,10.31044,7.16357,-4.55496,10.39673,2.01336,2.01336,A,082729.80
7.19114,57.78153922,12.77343888,57.78153983,12.77343833,17:20:40.447092,0.00741,1.73083,1.73083,-0.05474,0.00424,-0.01093,-0.00363,0.02638,-0.00927,-0.04483,1.14210,7.18052,1.87619,1.98198,1.98445,-4.52258,10.32901,7.16357,-4.55496,10.39673,2.01336,2.01336,A,082729.80
7.19939,57.78153934,12.77343878,57.78153983,12.77343833,17:20:40.455346,0.00528,1.73083,1.73083,-0.05472,0.00424,-0.01490,-0.00393,0.03233,-0.01470,-0.01214,1.09782,7.19111,1.84711,1.98636,1.98882,-4.52855,10.34232,7.16357,-4.55496,10.39673,2.01336,2.01336,A,082729.80
7.20928,57.78153949,12.77343866,57.78153983,12.77343833,17:20:40.465222,0.00477,1.73083,1.73083,-0.05473,0.00424,-0.01719,-0.01859,0.03798,0.01415,-0.01128,1.01266,7.20145,1.82386,1.99008,1.99255,-4.53568,10.35810,7.16357,-4.55496,10.39673,2.01336,2.01336,A,082729.80
7.21981,57.78153962,12.77343854,57.78153983,12.77343833,17:20:40.475760,0.00499,1.73083,1.73083,-0.05492,0.00424,-0.01703,-0.01523,0.04027,-0.07229,-0.02233,0.94166,7.21166,1.80525,1.99325,1.99572,-4.54263,10.37339,7.16357,-4.55496,10.39673,2.01336,2.01336,A,082729.80
7.23006,57.78153975,12.77343843,57.78153983,12.77343833,17:20:40.486006,0.00485,1.73083,1.73083,-0.05565,0.00424,-0.01215,-0.01447,0.03615,-0.02379,-0.05484,0.87218,7.22223,1.79037,1.99595,1.99841,-4.54925,10.38782,7.16357,-4.55496,10.39673,2.01336,2.01336,A,082729.80
7.24047,57.78153987,12.77343832,57.78153983,12.77343833,17:20:40.496412,0.00486,1.73083,1.73083,-0.05646,0.00424,-0.01383,-0.01004,0.03142,-0.05978,-0.06106,0.88816,7.23240,1.77846,1.99824,2.00070,-4.55546,10.40127,7.16357,-4.55496,10.39673,2.01336,2.01336,A,082729.80
7.25112,57.78153999,12.77343822,57.78153983,12.77343833,17:20:40.507061,0.00512,1.73083,1.73083,-0.05597,0.00424,-0.01871,-0.00653,0.02302,-0.00647,0.01995,0.92574,7.24299,1.76894,2.00018,2.00265,-4.56148,10.41423,7.16357,-4.55496,10.39673,2.01336,2.01336,A,082729.80
7.26120,57.78154010,12.77343813,57.78153983,12.77343833,17:20:40.517145,0.00481,1.73083,1.73083,-0.05545,0.00424,-0.01734,-0.00836,0.01859,-0.05081,0.02281,1.00705,7.25337,1.76131,2.00183,2.00430,-4.56701,10.42606,7.16357,-4.55496,10.39673,2.01336,2.01336,A,082729.80
7.28872,57.78154020,12.77343804,57.78154150,12.77343700,17:20:40.544671,0.02192,1.73083,1.73083,-0.05520,0.00424,-0.00986,0.00141,0.01615,-0.07283,0.00024,1.03285,7.26362,1.75522,2.00324,2.00570,-4.57237,10.43748,7.28456,-4.63400,10.58205,1.97395,1.97395,A,082729.90
7.29924,57.78154061,12.77343769,57.78154150,12.77343700,17:20:40.555189,0.00519,1.73083,1.73083,-0.05495,0.00424,0.00251,0.01271,0.04272,-0.07527,-0.01208,1.12149,7.29107,1.75034,1.99862,2.00108,-4.59331,10.48313,7.28456,-4.63400,10.58205,1.97395,1.97395,A,082729.90
7.30949,57.78154077,12.77343756,57.78154150,12.77343700,17:20:40.565455,0.00504,1.73083,1.73083,-0.05478,0.00424,0.00221,0.02371,0.04928,-0.01653,-0.01482,1.13210,7.30145,1.74644,1.99459,1.99706,-4.60108,10.50059,7.28456,-4.63400,10.58205,1.97395,1.97395,A,082729.90
7.31996,57.78154092,12.77343743,57.78154150,12.77343700,17:20:40.575905,0.00514,1.73083,1.73083,-0.05478,0.00424,0.01183,0.02172,0.05448,0.07777,-0.03282,1.07037,7.31165,1.74332,1.99117,1.99364,-4.60850,10.51737,7.28456,-4.63400,10.58205,1.97395,1.97395,A,082729.90
7.33014,57.78154106,12.77343731,57.78154150,12.77343700,17:20:40.586082,0.00486,1.73083,1.73083,-0.05490,0.00424,0.01030,0.00447,0.05173,0.03837,-0.03910,1.02706,7.32229,1.74082,1.98827,1.99073,-4.61548,10.53329,7.28456,-4.63400,10.58205,1.97395,1.97395,A,082729.90
7.34052,57.78154120,12.77343720,57.78154150,12.77343700,17:20:40.596470,0.00486,1.73083,1.73083,-0.05484,0.00424,0.01015,0.00233,0.04043,0.01366,-0.02391,0.94160,7.33246,1.73882,1.98580,1.98826,-4.62220,10.54870,7.28456,-4.63400,10.58205,1.97395,1.97395,A,082729.90
7.35116,57.78154133,12.77343709,57.78154150,12.77343700,17:20:40.607110,0.00511,1.73083,1.73083,-0.05532,0.00424,0.01275,-0.00958,0.02348,0.06667,-0.05569,0.87828,7.34304,1.73722,1.98370,1.98616,-4.62854,10.56333,7.28456,-4.63400,10.58205,1.97395,1.97395,A,082729.90
7.36128,57.78154145,12.77343699,57.78154150,12.77343700,17:20:40.617225,0.00483,1.73083,1.73083,-0.05575,0.00424,0.00664,-0.02577,0.01324,0.03019,-0.04740,0.84497,7.35345,1.73595,1.98191,1.98438,-4.63438,10.57688,7.28456,-4.63400,10.58205,1.97395,1.97395,A,082729.90
7.37178,57.78154157,12.77343690,57.78154150,12.77343700,17:20:40.627721,0.00496,1.73083,1.73083,-0.05592,0.00424,0.00175,-0.03249,0.00484,0.04416,-0.02940,0.82905,7.36365,1.73492,1.98039,1.98286,-4.63994,10.58986,7.28456,-4.63400,10.58205,1.97395,1.97395,A,082729.90
7.38368,57.78154168,12.77343681,57.78154150,12.77343700,17:20:40.639639,0.00647,1.73083,1.73083,-0.05615,0.00424,0.00893,-0.03936,0.00118,0.00195,-0.04050,0.89231,7.37421,1.73410,1.97911,1.98157,-4.64525,10.60230,7.28456,-4.63400,10.58205,1.97395,1.97395,A,082729.90
7.42096,57.78154177,12.77343674,57.78154450,12.77343450,17:20:40.677488,0.03335,1.73083,1.73083,-0.05573,0.00424,0.00190,-0.03860,0.00255,-0.07344,0.00244,0.96630,7.38440,1.73345,1.97800,1.98046,-4.64916,10.61155,7.41532,-4.78221,10.91564,1.98889,1.98889,A,082730.10
7.43298,57.78154243,12.77343620,57.78154450,12.77343450,17:20:40.688929,0.00500,1.73083,1.73083,-0.05518,0.00424,0.01259,-0.01050,0.03691,0.01793,-0.02287,1.11478,7.42510,1.73293,1.97947,1.98194,-4.68118,10.68518,7.41532,-4.78221,10.91564,1.98889,1.98889,A,082730.10
7.44349,57.78154265,12.77343603,57.78154450,12.77343450,17:20:40.699435,0.00495,1.73083,1.73083,-0.05510,0.00424,0.01107,-0.01142,0.03936,0.03758,-0.02593,1.04725,7.43534,1.73251,1.98056,1.98303,-4.69177,10.70941,7.41532,-4.78221,10.91564,1.98889,1.98889,A,082730.10
7.45382,57.78154285,12.77343585,57.78154450,12.77343450,17:20:40.709762,0.00488,1.73083,1.73083,-0.05519,0.00424,0.01595,-0.02302,0.03508,0.03538,-0.03928,0.98265,7.44596,1.73217,1.98149,1.98395,-4.70193,10.73261,7.41532,-4.78221,10.91564,1.98889,1.98889,A,082730.10
7.46413,57.78154305,12.77343569,57.78154450,12.77343450,17:20:40.720074,0.00497,1.73083,1.73083,-0.05584,0.00424,0.01443,-0.03051,0.03737,0.13219,-0.06313,0.83204,7.45601,1.73190,1.98228,1.98474,-4.71140,10.75421,7.41532,-4.78221,10.91564,1.98889,1.98889,A,082730.10
7.47464,57.78154324,12.77343554,57.78154450,12.77343450,17:20:40.730596,0.00508,1.73083,1.73083,-0.05603,0.00424,0.01824,-0.06166,0.02745,0.07808,-0.03947,0.81301,7.46657,1.73169,1.98294,1.98541,-4.72058,10.77510,7.41532,-4.78221,10.91564,1.98889,1.98889,A,082730.10
7.48502,57.78154342,12.77343539,57.78154450,12.77343450,17:20:40.740961,0.00506,1.73083,1.73083,-0.05645,0.00424,0.01122,-0.07006,0.01065,-0.02098,-0.05008,0.83808,7.47717,1.73152,1.98352,1.98598,-4.72951,10.79542,7.41532,-4.78221,10.91564,1.98889,1.98889,A,082730.10
7.49605,57.78154359,12.77343524,57.78154450,12.77343450,17:20:40.751998,0.00505,1.73083,1.73083,-0.05658,0.00424,0.00816,-0.06716,0.00118,-0.04264,-0.03703,0.95117,7.48793,1.73138,1.98400,1.98646,-4.73810,10.81495,7.41532,-4.78221,10.91564,1.98889,1.98889,A,082730.10
7.50626,57.78154375,12.77343511,57.78154450,12.77343450,17:20:40.762454,0.00486,1.73083,1.73083,-0.05637,0.00424,0.00511,-0.03616,-0.00493,-0.19569,-0.01476,1.08824,7.49840,1.73127,1.98441,1.98687,-4.74590,10.83265,7.41532,-4.78221,10.91564,1.98889,1.98889,A,082730.10
7.53416,57.78154391,12.77343498,57.78154600,12.77343317,17:20:40.790109,0.02237,1.73083,1.73083,-0.05590,0.00424,0.00954,-0.00516,-0.00478,-0.13694,0.00043,1.16480,7.50858,1.73118,1.98476,1.98722,-4.75349,10.84986,7.52875,-4.86126,11.08243,2.01336,2.01336,A,082730.20
7.55073,57.78154444,12.77343454,57.78154600,12.77343317,17:20:40.806691,0.00715,1.88971,1.88971,-0.05499,0.00424,0.02145,0.00095,0.02149,-0.00897,-0.01189,1.13423,7.54258,1.76289,1.98885,1.99132,-4.78010,10.90948,7.52875,-4.86126,11.08243,2.01336,2.01336,A,082730.20
7.55914,57.78154461,12.77343439,57.78154600,12.77343317,17:20:40.815088,0.00516,1.88971,1.88971,-0.05452,0.00424,0.02481,0.00645,0.02332,0.01104,-0.00512,0.99686,7.55098,1.78825,1.99220,1.99466,-4.78866,10.92818,7.52875,-4.86126,11.08243,2.01336,2.01336,A,082730.20
7.56929,57.78154480,12.77343423,57.78154600,12.77343317,17:20:40.825237,0.00486,1.88971,1.88971,-0.05422,0.00424,0.02664,-0.00653,0.02882,0.06112,-0.01824,0.89993,7.56143,1.80854,1.99505,1.99751,-4.79813,10.94885,7.52875,-4.86126,11.08243,2.01336,2.01336,A,082730.20
7.57975,57.78154498,12.77343408,57.78154600,12.77343317,17:20:40.835699,0.00494,1.88971,1.88971,-0.05468,0.00421,0.02344,-0.02455,0.02882,0.04788,-0.05527,0.81435,7.57162,1.82478,1.99747,1.99992,-4.80725,10.96866,7.52875,-4.86126,11.08243,2.01336,2.01336,A,082730.20
7.59072,57.78154515,12.77343392,57.78154600,12.77343317,17:20:40.846673,0.00550,1.88971,1.88971,-0.05560,0.00384,0.01763,-0.03936,0.01370,0.01696,-0.07979,0.82533,7.58261,1.83776,1.99957,2.00181,-4.81640,10.98842,7.52875,-4.86126,11.08243,2.01336,2.01336,A,082730.20
7.60048,57.78154531,12.77343379,57.78154600,12.77343317,17:20:40.856427,0.00488,1.88971,1.88971,-0.05625,0.00299,0.00862,-0.03570,0.00072,-0.09333,-0.06381,0.87773,7.59241,1.84815,2.00142,2.00316,-4.82447,11.00580,7.52875,-4.86126,11.08243,2.01336,2.01336,A,082730.20
7.61136,57.78154547,12.77343365,57.78154600,12.77343317,17:20:40.867310,0.00536,1.88971,1.88971,-0.05577,0.00163,0.00007,-0.01859,-0.02234,-0.04776,0.00762,0.96526,7.60298,1.85646,2.00310,2.00405,-4.83260,11.02326,7.52875,-4.86126,11.08243,2.01336,2.01336,A,082730.20
7.62126,57.78154561,12.77343352,57.78154600,12.77343317,17:20:40.877207,0.00487,1.88971,1.88971,-0.05559,0.00022,0.00389,0.00340,-0.02707,-0.05337,-0.01677,1.07329,7.61339,1.86311,2.00464,2.00477,-4.84003,11.03920,7.52875,-4.86126,11.08243,2.01336,2.01336,A,082730.20
7.64789,57.78154575,12.77343340,57.78154767,12.77343200,17:20:40.903840,0.02108,1.88971,1.88971,-0.05558,-0.00091,0.00771,0.01852,-0.03120,0.01348,-0.03050,1.05402,7.62363,1.86843,2.00603,2.00550,-4.84737,11.05490,7.64344,-4.93042,11.26775,1.92799,1.92799,A,082730.30
7.65811,57.78154620,12.77343302,57.78154767,12.77343200,17:20:40.914052,0.00491,1.88971,1.88971,-0.05552,-0.00205,0.01519,0.02096,-0.01058,0.07168,-0.05252,1.09605,7.65024,1.87269,1.99447,1.99328,-4.86988,11.10508,7.64344,-4.93042,11.26775,1.92799,1.92799,A,082730.30
7.66847,57.78154640,12.77343287,57.78154767,12.77343200,17:20:40.924410,0.00488,1.88971,1.88971,-0.05515,-0.00205,0.01137,0.00309,0.00469,0.05838,-0.00750,1.02681,7.66039,1.87609,1.98465,1.98346,-4.87899,11.12675,7.64344,-4.93042,11.26775,1.92799,1.92799,A,082730.30
7.67927,57.78154659,12.77343272,57.78154767,12.77343200,17:20:40.935224,0.00529,1.88971,1.88971,-0.05485,-0.00205,0.01091,-0.00790,0.01584,0.01677,-0.01220,0.96990,7.67097,1.87881,1.97631,1.97512,-4.88769,11.14779,7.64344,-4.93042,11.26775,1.92799,1.92799,A,082730.30
7.69027,57.78154676,12.77343259,57.78154767,12.77343200,17:20:40.946450,0.00589,1.88971,1.88971,-0.05377,-0.00205,0.01443,-0.01539,0.02607,0.05136,0.03623,0.95349,7.68135,1.88099,1.96922,1.96803,-4.89555,11.16717,7.64344,-4.93042,11.26775,1.92799,1.92799,A,082730.30
7.69973,57.78154693,12.77343246,57.78154767,12.77343200,17:20:40.955674,0.00493,1.88971,1.88971,-0.05356,-0.00210,0.00984,-0.02226,0.02622,-0.03831,-0.01610,0.99973,7.69160,1.88274,1.96319,1.96197,-4.90315,11.18615,7.64344,-4.93042,11.26775,1.92799,1.92799,A,082730.30
7.71004,57.78154710,12.77343234,57.78154767,12.77343200,17:20:40.965984,0.00484,1.88971,1.88971,-0.05357,-0.00241,0.01229,-0.01050,0.00561,0.02196,-0.03276,1.01419,7.70219,1.88413,1.95810,1.95669,-4.91034,11.20435,7.64344,-4.93042,11.26775,1.92799,1.92799,A,082730.30
7.72045,57.78154725,12.77343223,57.78154767,12.77343200,17:20:40.976392,0.00486,1.88971,1.88971,-0.05349,-0.00295,0.00648,-0.01768,-0.00218,-0.00152,-0.02208,0.98783,7.71237,1.88524,1.95381,1.95210,-4.91700,11.22146,7.64344,-4.93042,11.26775,1.92799,1.92799,A,082730.30
7.73112,57.78154740,12.77343212,57.78154767,12.77343200,17:20:40.987066,0.00514,1.88971,1.88971,-0.05363,-0.00349,0.00236,-0.03081,-0.01822,-0.02300,-0.03410,0.98753,7.72298,1.88614,1.95021,1.94818,-4.92340,11.23806,7.64344,-4.93042,11.26775,1.92799,1.92799,A,082730.30
