Time,lat_estimated,lon_estimated,latitude,longitude,RealTime,CalculationTime,MeasuredVelocity,FilteredVelocity,Roll,SteeringAngle,RollRate,gy,gz,ax,ay,az,imu_read_timing,v_estimated,yaw_estimated,heading_estimated,x_estimated,y_estimated,GPS_timestamp,x_GPS,y_GPS,theta_GPS,theta_GPS_noUnwrap,status,NMEA timestamp
0.07056,57.68832267,11.98086167,57.68832267,11.98086167,14:58:27.498701,0.07052,0.00000,1.50000,-0.00225,0.02000,0.00197,0.00072,-0.00086,-0.05386,-0.11999,0.99235,0.00001,0.00000,0.00000,0.00000,0.00000,0.00000,0.02510,0.00000,0.00000,0.00000,0.00000,A,145827.40
0.09044,57.68832267,11.98086167,57.68832267,11.98086167,14:58:27.518579,0.00767,0.00000,0.00000,-0.00432,0.00000,0.00166,-0.00141,0.00051,-0.05246,-0.11773,0.98991,0.08387,0.00000,0.00000,0.00000,0.00000,0.00000,0.02510,0.00000,0.00000,0.00000,0.00000,A,145827.40
0.09854,57.68832267,11.98086167,57.68832267,11.98086167,14:58:27.526663,0.00537,0.00000,0.00000,-0.00652,0.00000,-0.00261,-0.00050,0.00204,-0.05161,-0.11810,0.99399,0.09254,0.00000,0.00000,0.00000,0.00000,0.00000,0.02510,0.00000,0.00000,0.00000,0.00000,A,145827.40
0.10939,57.68832267,11.98086167,57.68832267,11.98086167,14:58:27.537518,0.00582,0.00000,0.00000,-0.00865,0.00000,0.00105,0.00118,-0.00101,-0.05283,-0.11736,0.99241,0.10292,0.00000,0.00000,0.00000,0.00000,0.00000,0.02510,0.00000,0.00000,0.00000,0.00000,A,145827.40
0.11933,57.68832267,11.98086167,57.68832267,11.98086167,14:58:27.547455,0.00522,0.00000,0.00000,-0.01075,0.00000,-0.00338,0.00103,-0.00269,-0.04935,-0.11517,0.99162,0.11328,0.00000,0.00000,0.00000,0.00000,0.00000,0.02510,0.00000,0.00000,0.00000,0.00000,A,145827.40
0.15821,57.68832267,11.98086167,57.68832350,11.98086017,14:58:27.586378,0.03371,0.00000,1.50000,-0.01285,0.02000,0.00166,-0.00386,0.00097,-0.05100,-0.12017,0.99235,0.12388,0.00000,0.00000,0.00000,0.00000,0.00000,0.14175,-0.08915,0.09266,2.33690,2.33690,A,145827.50
0.17860,57.68832271,11.98086159,57.68832350,11.98086017,14:58:27.606729,0.00701,0.00000,0.00000,-0.01485,0.00000,0.00044,0.00301,-0.00254,-0.05161,-0.11621,0.99223,0.17255,0.00000,0.35054,0.35054,-0.00446,0.00463,0.14175,-0.08915,0.09266,2.33690,2.33690,A,145827.50
0.18816,57.68832275,11.98086152,57.68832350,11.98086017,14:58:27.616287,0.00600,0.00000,0.00000,-0.01685,0.00000,0.00014,0.00225,-0.00025,-0.05283,-0.11663,0.99076,0.18214,0.00000,0.64849,0.64849,-0.00869,0.00903,0.14175,-0.08915,0.09266,2.33690,2.33690,A,145827.50
0.19766,57.68832279,11.98086145,57.68832350,11.98086017,14:58:27.625786,0.00510,0.00000,0.00000,-0.01886,0.00000,-0.00276,-0.00401,-0.00010,-0.05215,-0.11755,0.99216,0.19194,0.00000,0.90175,0.90175,-0.01272,0.01322,0.14175,-0.08915,0.09266,2.33690,2.33690,A,145827.50
0.20812,57.68832282,11.98086139,57.68832350,11.98086017,14:58:27.636250,0.00517,0.00000,0.00000,-0.02084,0.00000,-0.00002,0.00042,0.00082,-0.05039,-0.11883,0.98924,0.20211,0.00000,1.11703,1.11703,-0.01654,0.01719,0.14175,-0.08915,0.09266,2.33690,2.33690,A,145827.50
0.21891,57.68832286,11.98086133,57.68832350,11.98086017,14:58:27.647033,0.00556,0.00000,0.00000,-0.02281,0.00000,-0.00399,0.00027,-0.00147,-0.05087,-0.11785,0.99192,0.21273,0.00000,1.30001,1.30001,-0.02017,0.02096,0.14175,-0.08915,0.09266,2.33690,2.33690,A,145827.50
0.22926,57.68832289,11.98086127,57.68832350,11.98086017,14:58:27.658280,0.00530,0.00000,0.00000,-0.02475,0.00000,-0.00460,-0.00111,0.00021,-0.05307,-0.11669,0.98924,0.22351,0.00000,1.45554,1.45554,-0.02362,0.02455,0.14175,-0.08915,0.09266,2.33690,2.33690,A,145827.50
0.23953,57.68832292,11.98086121,57.68832350,11.98086017,14:58:27.667661,0.00519,0.00000,0.00000,-0.02665,0.00000,-0.00475,0.00469,0.00189,-0.05356,-0.11694,0.99345,0.23351,0.00000,1.58775,1.58775,-0.02689,0.02795,0.14175,-0.08915,0.09266,2.33690,2.33690,A,145827.50
0.26793,57.68832295,11.98086116,57.68832350,11.98086017,14:58:27.696080,0.02318,0.00000,1.50000,-0.02854,0.02000,-0.00460,0.00240,0.00021,-0.05094,-0.11816,0.99162,0.24411,0.00000,1.70012,1.70012,-0.03001,0.03119,0.14175,-0.08915,0.09266,2.33690,2.33690,A,145827.50
0.29139,57.68832297,11.98086111,57.68832350,11.98086017,14:58:27.719539,0.01158,0.00000,1.50000,-0.03044,0.02000,-0.00185,-0.00050,-0.00162,-0.05252,-0.11852,0.98905,0.28069,0.00000,1.79564,1.79564,-0.03297,0.03426,0.14175,-0.08915,0.09266,2.33690,2.33690,A,145827.50
0.31362,57.68832300,11.98086106,57.68832350,11.98086017,14:58:27.741749,0.01069,0.00000,1.50000,-0.03214,0.02000,0.00289,0.00118,-0.00224,-0.05002,-0.11718,0.99326,0.30339,0.00000,1.87683,1.87683,-0.03577,0.03718,0.14175,-0.08915,0.09266,2.33690,2.33690,A,145827.50
0.36346,57.68832303,11.98086102,57.68832417,11.98085817,14:58:27.791924,0.03702,0.00000,1.50000,-0.03392,0.02000,-0.00108,-0.00065,-0.00025,-0.05319,-0.11773,0.99290,0.32691,0.00000,1.94584,1.94584,-0.03844,0.03996,0.34625,-0.08915,0.09266,0.00000,0.00000,A,145827.70
0.38009,57.68832305,11.98086098,57.68832417,11.98085817,14:58:27.808222,0.00646,0.00000,0.00000,-0.03576,0.00000,-0.00200,-0.00248,-0.00162,-0.05100,-0.11852,0.99125,0.37399,0.00000,1.65396,1.65396,-0.04098,0.04259,0.34625,-0.08915,0.09266,0.00000,0.00000,A,145827.70
0.38910,57.68832307,11.98086094,57.68832417,11.98085817,14:58:27.817227,0.00506,0.00000,0.00000,-0.03746,0.00000,0.00044,-0.00187,0.00051,-0.05215,-0.11785,0.99216,0.38335,0.00000,1.40587,1.40587,-0.04339,0.04509,0.34625,-0.08915,0.09266,0.00000,0.00000,A,145827.70
0.39952,57.68832309,11.98086090,57.68832417,11.98085817,14:58:27.827650,0.00519,0.00000,0.00000,-0.03918,0.00000,-0.00353,-0.00050,-0.00300,-0.05307,-0.11852,0.99271,0.39352,0.00000,1.19499,1.19499,-0.04568,0.04747,0.34625,-0.08915,0.09266,0.00000,0.00000,A,145827.70
0.40983,57.68832311,11.98086086,57.68832417,11.98085817,14:58:27.838327,0.00510,0.00000,0.00000,-0.04084,0.00000,-0.00017,0.00271,-0.00117,-0.05136,-0.11767,0.99223,0.40411,0.00000,1.01574,1.01574,-0.04785,0.04973,0.34625,-0.08915,0.09266,0.00000,0.00000,A,145827.70
0.42027,57.68832313,11.98086083,57.68832417,11.98085817,14:58:27.848400,0.00514,0.00000,0.00000,-0.04248,0.00000,-0.00154,-0.00080,0.00051,-0.05228,-0.11761,0.99143,0.41429,0.00000,0.86338,0.86338,-0.04992,0.05188,0.34625,-0.08915,0.09266,0.00000,0.00000,A,145827.70
0.43228,57.68832315,11.98086079,57.68832417,11.98085817,14:58:27.860421,0.00675,0.00000,0.00000,-0.04408,0.00000,0.00029,-0.00340,-0.00025,-0.05283,-0.11797,0.99198,0.42524,0.00000,0.73387,0.73387,-0.05188,0.05392,0.34625,-0.08915,0.09266,0.00000,0.00000,A,145827.70
0.44138,57.68832317,11.98086076,57.68832417,11.98085817,14:58:27.869508,0.00519,0.00000,0.00000,-0.04566,0.00000,-0.00047,0.00072,-0.00300,-0.05148,-0.11797,0.99247,0.43563,0.00000,0.62379,0.62379,-0.05374,0.05586,0.34625,-0.08915,0.09266,0.00000,0.00000,A,145827.70
0.46446,57.68832319,11.98086073,57.68832417,11.98085817,14:58:27.892888,0.01804,0.00000,1.50000,-0.04727,0.02000,-0.00231,-0.00401,0.00174,-0.04929,-0.11974,0.99223,0.44560,0.00000,0.53022,0.53022,-0.05551,0.05770,0.34625,-0.08915,0.09266,0.00000,0.00000,A,145827.70
0.48500,57.68832320,11.98086070,57.68832417,11.98085817,14:58:27.913139,0.01235,0.00000,1.50000,-0.04866,0.02000,0.00472,0.00363,0.00235,-0.05179,-0.11669,0.99192,0.47364,0.00000,0.45069,0.45069,-0.05719,0.05944,0.34625,-0.08915,0.09266,0.00000,0.00000,A,145827.70
0.50911,57.68832322,11.98086068,57.68832417,11.98085817,14:58:27.937248,0.01228,0.00000,1.50000,-0.05009,0.02000,0.00136,0.00118,-0.00162,-0.05148,-0.11511,0.99320,0.49909,0.00000,0.38309,0.38309,-0.05879,0.06111,0.34625,-0.08915,0.09266,0.00000,0.00000,A,145827.70
0.54095,57.68832323,11.98086065,57.68832417,11.98085817,14:58:27.969102,0.02039,0.00000,1.50000,-0.05167,0.02000,-0.00338,0.00103,-0.00376,-0.05155,-0.11846,0.98887,0.52181,0.00000,0.32562,0.32562,-0.06031,0.06268,0.34625,-0.08915,0.09266,0.00000,0.00000,A,145827.70
0.56420,57.68832324,11.98086063,57.68832417,11.98085817,14:58:27.992341,0.01268,0.00000,1.50000,-0.05319,0.02000,-0.00170,0.00027,0.00097,-0.05008,-0.11816,0.99290,0.55362,0.00000,0.27678,0.27678,-0.06175,0.06418,0.34625,-0.08915,0.09266,0.00000,0.00000,A,145827.70
0.58806,57.68832326,11.98086060,57.68832417,11.98085817,14:58:28.016189,0.01130,0.00000,1.50000,-0.05457,0.02000,0.00334,-0.00035,-0.00330,-0.05222,-0.11828,0.99094,0.57714,0.00000,0.23526,0.23526,-0.06312,0.06561,0.34625,-0.08915,0.09266,0.00000,0.00000,A,145827.70
0.61324,57.68832327,11.98086058,57.68832417,11.98085817,14:58:28.041383,0.01349,0.00000,1.50000,-0.05604,0.02000,-0.00276,0.00042,0.00082,-0.05173,-0.11639,0.98966,0.60291,0.00000,0.19997,0.19997,-0.06442,0.06696,0.34625,-0.08915,0.09266,0.00000,0.00000,A,145827.70
0.64414,57.68832328,11.98086056,57.68832417,11.98085817,14:58:28.072282,0.01936,0.00000,1.50000,-0.05746,0.02000,-0.00154,-0.00111,-0.00392,-0.04978,-0.11669,0.99137,0.62486,0.00000,0.16998,0.16998,-0.06566,0.06824,0.34625,-0.08915,0.09266,0.00000,0.00000,A,145827.70
0.66742,57.68832329,11.98086054,57.68832417,11.98085817,14:58:28.095556,0.01178,0.00000,1.50000,-0.05875,0.02000,0.00182,0.00011,-0.00040,-0.05325,-0.11572,0.99174,0.65640,0.00000,0.14448,0.14448,-0.06684,0.06946,0.34625,-0.08915,0.09266,0.00000,0.00000,A,145827.70
0.69052,57.68832330,11.98086052,57.68832417,11.98085817,14:58:28.118679,0.01166,0.00000,1.50000,-0.06019,0.02000,-0.00429,-0.00218,0.00067,-0.04965,-0.11682,0.99186,0.67926,0.00000,0.12281,0.12281,-0.06795,0.07062,0.34625,-0.08915,0.09266,0.00000,0.00000,A,145827.70
0.71536,57.68832331,11.98086051,57.68832417,11.98085817,14:58:28.143509,0.01390,0.00000,1.50000,-0.06145,0.02000,0.00380,0.00042,-0.00162,-0.05337,-0.11852,0.98985,0.70339,0.00000,0.10439,0.10439,-0.06901,0.07173,0.34625,-0.08915,0.09266,0.00000,0.00000,A,145827.70
0.75025,57.68832332,11.98086049,57.68832417,11.98085817,14:58:28.178407,0.02289,0.00000,1.50000,-0.06273,0.02000,0.00121,0.00027,0.00082,-0.05081,-0.11743,0.99259,0.72964,0.00000,0.08873,0.08873,-0.07002,0.07277,0.34625,-0.08915,0.09266,0.00000,0.00000,A,145827.70
0.77295,57.68832333,11.98086047,57.68832417,11.98085817,14:58:28.201089,0.01059,0.00000,1.50000,-0.06411,0.02000,-0.00215,-0.00019,0.00189,-0.05014,-0.11852,0.99137,0.76197,0.00000,0.07542,0.07542,-0.07098,0.07377,0.34625,-0.08915,0.09266,0.00000,0.00000,A,145827.70
0.79808,57.68832334,11.98086046,57.68832417,11.98085817,14:58:28.226248,0.01196,0.00000,1.50000,-0.06538,0.02000,0.00014,-0.00157,0.00006,-0.05325,-0.11718,0.99204,0.78706,0.00000,0.06411,0.06411,-0.07188,0.07471,0.34625,-0.08915,0.09266,0.00000,0.00000,A,145827.70
0.83063,57.68832335,11.98086044,57.68832417,11.98085817,14:58:28.258791,0.02209,0.00000,1.50000,-0.06657,0.02000,0.00411,-0.00080,-0.00285,-0.04898,-0.11889,0.99027,0.80949,0.00000,0.05449,0.05449,-0.07275,0.07561,0.34625,-0.08915,0.09266,0.00000,0.00000,A,145827.70
0.85313,57.68832335,11.98086043,57.68832417,11.98085817,14:58:28.281265,0.01084,0.00000,1.50000,-0.06793,0.02000,-0.00353,0.00149,-0.00025,-0.05130,-0.11840,0.99241,0.84231,0.00000,0.04632,0.04632,-0.07357,0.07646,0.34625,-0.08915,0.09266,0.00000,0.00000,A,145827.70
0.87826,57.68832336,11.98086042,57.68832417,11.98085817,14:58:28.306405,0.01292,0.00000,1.50000,-0.06916,0.02000,-0.00047,0.00118,-0.00178,-0.05179,-0.11779,0.99296,0.86726,0.00000,0.03937,0.03937,-0.07435,0.07727,0.34625,-0.08915,0.09266,0.00000,0.00000,A,145827.70
0.90229,57.68832337,11.98086040,57.68832417,11.98085817,14:58:28.330453,0.01177,0.00000,1.50000,-0.07039,0.02000,-0.00063,0.00225,-0.00224,-0.05228,-0.11858,0.99125,0.89131,0.00000,0.03346,0.03346,-0.07509,0.07804,0.34625,-0.08915,0.09266,0.00000,0.00000,A,145827.70
0.94914,57.68832338,11.98086039,57.68832633,11.98087250,14:58:28.378564,0.03530,0.00000,1.50000,-0.07163,0.02000,-0.00261,0.00057,-0.00178,-0.05100,-0.11749,0.99204,0.91418,0.00000,0.02844,0.02844,-0.07579,0.07877,0.93268,-0.08915,0.09266,0.00000,0.00000,A,145828.30
0.96903,57.68832338,11.98086038,57.68832633,11.98087250,14:58:28.397160,0.00707,0.00000,0.00000,-0.07263,0.00000,0.00334,-0.00065,-0.00086,-0.05173,-0.11773,0.99162,0.96325,0.00000,0.02418,0.02418,-0.07646,0.07947,0.93268,-0.08915,0.09266,0.00000,0.00000,A,145828.30
0.97771,57.68832339,11.98086037,57.68832633,11.98087250,14:58:28.406073,0.00510,0.00000,0.00000,-0.07381,0.00000,-0.00185,0.00088,-0.00224,-0.05136,-0.11822,0.99162,0.97199,0.00000,0.02055,0.02055,-0.07709,0.08013,0.93268,-0.08915,0.09266,0.00000,0.00000,A,145828.30
0.98833,57.68832339,11.98086036,57.68832633,11.98087250,14:58:28.416459,0.00532,0.00000,0.00000,-0.07490,0.00000,0.00457,0.00164,0.00174,-0.05069,-0.11858,0.99235,0.98237,0.00000,0.01747,0.01747,-0.07770,0.08075,0.93268,-0.08915,0.09266,0.00000,0.00000,A,145828.30
0.99913,57.68832340,11.98086035,57.68832633,11.98087250,14:58:28.427252,0.00545,0.00000,0.00000,-0.07605,0.00000,-0.00108,0.00027,-0.00056,-0.05222,-0.11919,0.99186,0.99307,0.00000,0.01485,0.01485,-0.07827,0.08135,0.93268,-0.08915,0.09266,0.00000,0.00000,A,145828.30
1.01019,57.68832340,11.98086034,57.68832633,11.98087250,14:58:28.438324,0.00611,0.00000,0.00000,-0.07720,0.00000,-0.00643,0.00408,-0.00101,-0.05033,-0.11614,0.99101,1.00418,0.00000,0.01262,0.01262,-0.07881,0.08192,0.93268,-0.08915,0.09266,0.00000,0.00000,A,145828.30
1.02071,57.68832341,11.98086033,57.68832633,11.98087250,14:58:28.448845,0.00640,0.00000,0.00000,-0.07831,0.00000,-0.00215,-0.00218,-0.00178,-0.05124,-0.11797,0.99149,1.01420,0.00000,0.01073,0.01073,-0.07933,0.08245,0.93268,-0.08915,0.09266,0.00000,0.00000,A,145828.30
1.03081,57.68832341,11.98086032,57.68832633,11.98087250,14:58:28.458934,0.00590,0.00000,0.00000,-0.07936,0.00000,0.00014,0.00271,-0.00101,-0.05234,-0.11700,0.99216,1.02475,0.00000,0.00912,0.00912,-0.07982,0.08296,0.93268,-0.08915,0.09266,0.00000,0.00000,A,145828.30
1.07491,57.68832342,11.98086032,57.68832650,11.98087350,14:58:28.503068,0.03961,0.00000,1.50000,-0.08046,0.02000,0.00029,0.00179,0.00112,-0.05130,-0.12133,0.99009,1.03445,0.00000,0.00775,0.00775,-0.08029,0.08345,1.05547,-0.08915,0.09266,0.00000,0.00000,A,145828.40
1.09549,57.68832342,11.98086031,57.68832650,11.98087350,14:58:28.523618,0.00689,0.00000,0.00000,-0.08144,0.00000,0.00121,0.00072,0.00143,-0.05020,-0.11883,0.99460,1.08942,0.00000,0.00659,0.00659,-0.08073,0.08391,1.05547,-0.08915,0.09266,0.00000,0.00000,A,145828.40
1.10415,57.68832343,11.98086030,57.68832650,11.98087350,14:58:28.532274,0.00516,0.00000,0.00000,-0.08247,0.00000,-0.00139,0.00072,-0.00040,-0.05252,-0.11773,0.99155,1.09815,0.00000,0.00560,0.00560,-0.08115,0.08435,1.05547,-0.08915,0.09266,0.00000,0.00000,A,145828.40
1.11551,57.68832343,11.98086029,57.68832650,11.98087350,14:58:28.543641,0.00612,0.00000,0.00000,-0.08344,0.00000,0.00334,-0.00401,-0.00285,-0.05063,-0.11749,0.98960,1.10946,0.00000,0.00476,0.00476,-0.08155,0.08476,1.05547,-0.08915,0.09266,0.00000,0.00000,A,145828.40
1.12510,57.68832343,11.98086029,57.68832650,11.98087350,14:58:28.553231,0.00532,0.00000,0.00000,-0.08448,0.00000,-0.00215,-0.00035,-0.00208,-0.05087,-0.12023,0.99277,1.11936,0.00000,0.00405,0.00405,-0.08193,0.08516,1.05547,-0.08915,0.09266,0.00000,0.00000,A,145828.40
1.13552,57.68832344,11.98086028,57.68832650,11.98087350,14:58:28.563653,0.00520,0.00000,0.00000,-0.08543,0.00000,0.00029,0.00088,-0.00040,-0.05252,-0.11645,0.99107,1.12950,0.00000,0.00344,0.00344,-0.08229,0.08553,1.05547,-0.08915,0.09266,0.00000,0.00000,A,145828.40
1.14704,57.68832344,11.98086028,57.68832650,11.98087350,14:58:28.575176,0.00632,0.00000,0.00000,-0.08638,0.00000,0.00044,-0.00080,-0.00178,-0.04880,-0.11785,0.99399,1.14016,0.00000,0.00292,0.00292,-0.08264,0.08589,1.05547,-0.08915,0.09266,0.00000,0.00000,A,145828.40
1.19183,57.68832344,11.98086027,57.68832617,11.98087717,14:58:28.619995,0.04050,0.00000,1.50000,-0.08731,0.02000,0.00014,0.00133,-0.00025,-0.05136,-0.11669,0.99338,1.15094,0.00000,0.00248,0.00248,-0.08296,0.08623,1.17086,-0.08915,0.09266,0.00000,0.00000,A,145828.50
1.21145,57.68832345,11.98086027,57.68832617,11.98087717,14:58:28.639581,0.00769,0.00000,0.00000,-0.08828,0.00000,-0.00078,0.00011,-0.00193,-0.05094,-0.11785,0.99332,1.20517,0.00000,0.00211,0.00211,-0.08327,0.08655,1.17086,-0.08915,0.09266,0.00000,0.00000,A,145828.50
1.21964,57.68832345,11.98086026,57.68832617,11.98087717,14:58:28.647768,0.00534,0.00000,0.00000,-0.08919,0.00000,-0.00047,-0.00233,-0.00285,-0.05142,-0.11712,0.99271,1.21347,0.00000,0.00180,0.00180,-0.08357,0.08686,1.17086,-0.08915,0.09266,0.00000,0.00000,A,145828.50
1.23028,57.68832345,11.98086026,57.68832617,11.98087717,14:58:28.658419,0.00558,0.00000,0.00000,-0.09007,0.00000,0.00350,0.00363,0.00036,-0.05350,-0.11901,0.99149,1.22430,0.00000,0.00153,0.00153,-0.08385,0.08715,1.17086,-0.08915,0.09266,0.00000,0.00000,A,145828.50
1.24028,57.68832345,11.98086025,57.68832617,11.98087717,14:58:28.668407,0.00511,0.00000,0.00000,-0.09091,0.00000,0.00334,-0.00157,-0.00117,-0.05307,-0.11639,0.99094,1.23434,0.00000,0.00130,0.00130,-0.08411,0.08742,1.17086,-0.08915,0.09266,0.00000,0.00000,A,145828.50
1.25096,57.68832346,11.98086025,57.68832617,11.98087717,14:58:28.679077,0.00539,0.00000,0.00000,-0.09178,0.00000,-0.00154,0.00149,-0.00101,-0.05008,-0.11663,0.99162,1.24493,0.00000,0.00110,0.00110,-0.08436,0.08768,1.17086,-0.08915,0.09266,0.00000,0.00000,A,145828.50
1.26150,57.68832346,11.98086024,57.68832617,11.98087717,14:58:28.689636,0.00553,0.00000,0.00000,-0.09265,0.00000,-0.00047,0.00210,-0.00269,-0.05319,-0.11755,0.99088,1.25532,0.00000,0.00094,0.00094,-0.08460,0.08793,1.17086,-0.08915,0.09266,0.00000,0.00000,A,145828.50
1.30469,57.68832346,11.98086024,57.68832550,11.98088000,14:58:28.732851,0.03826,0.00000,1.50000,-0.09349,0.02000,0.00304,-0.00080,0.00250,-0.05069,-0.11938,0.99210,1.26562,0.00000,0.00080,0.00080,-0.08483,0.08817,1.28401,-0.08915,0.09266,0.00000,0.00000,A,145828.60
1.32428,57.68832346,11.98086024,57.68832550,11.98088000,14:58:28.752413,0.00623,0.00000,0.00000,-0.09416,0.00000,0.00273,-0.00096,-0.00239,-0.05130,-0.11578,0.99192,1.31828,0.00000,0.00068,0.00068,-0.08505,0.08839,1.28401,-0.08915,0.09266,0.00000,0.00000,A,145828.60
1.33355,57.68832346,11.98086023,57.68832550,11.98088000,14:58:28.761675,0.00510,0.00000,0.00000,-0.09499,0.00000,-0.00124,-0.00035,0.00112,-0.05331,-0.11736,0.99235,1.32782,0.00000,0.00058,0.00058,-0.08525,0.08861,1.28401,-0.08915,0.09266,0.00000,0.00000,A,145828.60
1.34443,57.68832347,11.98086023,57.68832550,11.98088000,14:58:28.772559,0.00574,0.00000,0.00000,-0.09579,0.00000,0.00380,0.00057,-0.00330,-0.05057,-0.11907,0.99290,1.33818,0.00000,0.00049,0.00049,-0.08545,0.08881,1.28401,-0.08915,0.09266,0.00000,0.00000,A,145828.60
1.35444,57.68832347,11.98086023,57.68832550,11.98088000,14:58:28.782570,0.00536,0.00000,0.00000,-0.09662,0.00000,-0.00307,0.00103,-0.00346,-0.05215,-0.11791,0.99381,1.34845,0.00000,0.00042,0.00042,-0.08563,0.08900,1.28401,-0.08915,0.09266,0.00000,0.00000,A,145828.60
1.36620,57.68832347,11.98086022,57.68832550,11.98088000,14:58:28.794334,0.00671,0.00000,0.00000,-0.09746,0.00000,-0.00368,-0.00172,0.00067,-0.05161,-0.11846,0.99357,1.35990,0.00000,0.00035,0.00035,-0.08581,0.08919,1.28401,-0.08915,0.09266,0.00000,0.00000,A,145828.60
1.37525,57.68832347,11.98086022,57.68832550,11.98088000,14:58:28.803379,0.00518,0.00000,0.00000,-0.09824,0.00000,-0.00032,0.00195,0.00128,-0.05045,-0.11755,0.99241,1.36922,0.00000,0.00030,0.00030,-0.08598,0.08936,1.28401,-0.08915,0.09266,0.00000,0.00000,A,145828.60
1.41803,57.68832347,11.98086022,57.68832533,11.98088317,14:58:28.846445,0.03756,0.00000,1.50000,-0.09899,0.02000,-0.00124,0.00271,-0.00025,-0.05203,-0.11645,0.99223,1.37985,0.00000,0.00026,0.00026,-0.08614,0.08952,1.39852,-0.08915,0.09266,0.00000,0.00000,A,145828.70
1.43340,57.68832347,11.98086021,57.68832533,11.98088317,14:58:28.861531,0.00671,0.00000,0.00000,-0.09957,0.00000,0.00426,-0.00050,0.00021,-0.05301,-0.11986,0.99491,1.42764,0.00000,0.00022,0.00022,-0.08629,0.08968,1.39852,-0.08915,0.09266,0.00000,0.00000,A,145828.70
1.44244,57.68832347,11.98086021,57.68832533,11.98088317,14:58:28.870574,0.00534,0.00000,0.00000,-0.10036,0.00000,-0.00185,0.00149,-0.00010,-0.05069,-0.11901,0.99204,1.43647,0.00000,0.00018,0.00018,-0.08643,0.08983,1.39852,-0.08915,0.09266,0.00000,0.00000,A,145828.70
1.45295,57.68832348,11.98086021,57.68832533,11.98088317,14:58:28.881091,0.00545,0.00000,0.00000,-0.10112,0.00000,-0.00215,0.00027,-0.00422,-0.05155,-0.11858,0.99229,1.44684,0.00000,0.00016,0.00016,-0.08657,0.08997,1.39852,-0.08915,0.09266,0.00000,0.00000,A,145828.70
1.46391,57.68832348,11.98086021,57.68832533,11.98088317,14:58:28.892033,0.00578,0.00000,0.00000,-0.10189,0.00000,-0.00124,0.00301,-0.00010,-0.05063,-0.11968,0.99058,1.45788,0.00000,0.00013,0.00013,-0.08670,0.09011,1.39852,-0.08915,0.09266,0.00000,0.00000,A,145828.70
1.47590,57.68832348,11.98086021,57.68832533,11.98088317,14:58:28.904033,0.00666,0.00000,0.00000,-0.10260,0.00000,0.00014,0.00103,-0.00101,-0.05161,-0.11773,0.99094,1.46984,0.00000,0.00011,0.00011,-0.08682,0.09023,1.39852,-0.08915,0.09266,0.00000,0.00000,A,145828.70
1.48473,57.68832348,11.98086020,57.68832533,11.98088317,14:58:28.912854,0.00509,0.00000,0.00000,-0.10330,0.00000,0.00243,-0.00096,-0.00040,-0.05026,-0.11944,0.99406,1.47899,0.00000,0.00010,0.00010,-0.08694,0.09036,1.39852,-0.08915,0.09266,0.00000,0.00000,A,145828.70
1.49579,57.68832348,11.98086020,57.68832533,11.98088317,14:58:28.923923,0.00560,0.00000,0.00000,-0.10400,0.00000,0.00228,0.00210,0.00036,-0.05118,-0.11980,0.99064,1.48936,0.00000,0.00008,0.00008,-0.08705,0.09047,1.39852,-0.08915,0.09266,0.00000,0.00000,A,145828.70
1.54637,57.68832348,11.98086020,57.68832567,11.98090350,14:58:28.974553,0.04578,0.00000,1.50000,-0.10467,0.02000,0.00212,0.00088,-0.00162,-0.05008,-0.11858,0.99210,1.49996,0.00000,0.00007,0.00007,-0.08715,0.09058,1.52934,-0.08915,0.09266,0.00000,0.00000,A,145828.90
1.56544,57.68832348,11.98086020,57.68832567,11.98090350,14:58:28.993565,0.00657,0.00000,0.00000,-0.10529,0.00000,0.00121,0.00088,0.00097,-0.05313,-0.11907,0.99082,1.55892,0.00000,0.00006,0.00006,-0.08725,0.09068,1.52934,-0.08915,0.09266,0.00000,0.00000,A,145828.90
1.57467,57.68832348,11.98086020,57.68832567,11.98090350,14:58:29.002793,0.00539,0.00000,0.00000,-0.10594,0.00000,0.00166,0.00027,0.00158,-0.05142,-0.11791,0.99216,1.56867,0.00000,0.00005,0.00005,-0.08735,0.09078,1.52934,-0.08915,0.09266,0.00000,0.00000,A,145828.90
1.58478,57.68832348,11.98086020,57.68832567,11.98090350,14:58:29.012901,0.00510,0.00000,0.00000,-0.10659,0.00000,0.00151,0.00042,-0.00193,-0.04978,-0.11889,0.99125,1.57904,0.00000,0.00004,0.00004,-0.08744,0.09088,1.52934,-0.08915,0.09266,0.00000,0.00000,A,145828.90
1.59542,57.68832348,11.98086019,57.68832567,11.98090350,14:58:29.023550,0.00519,0.00000,0.00000,-0.10718,0.00000,0.00487,-0.00065,-0.00162,-0.05142,-0.11743,0.99149,1.58940,0.00000,0.00004,0.00004,-0.08752,0.09097,1.52934,-0.08915,0.09266,0.00000,0.00000,A,145828.90
1.60571,57.68832349,11.98086019,57.68832567,11.98090350,14:58:29.034076,0.00509,0.00000,0.00000,-0.10783,0.00000,-0.00093,0.00088,-0.00010,-0.05179,-0.11810,0.99046,1.60000,0.00000,0.00003,0.00003,-0.08760,0.09105,1.52934,-0.08915,0.09266,0.00000,0.00000,A,145828.90
1.61700,57.68832349,11.98086019,57.68832567,11.98090350,14:58:29.045128,0.00598,0.00000,0.00000,-0.10844,0.00000,0.00075,0.00271,0.00097,-0.05130,-0.11767,0.99223,1.61098,0.00000,0.00003,0.00003,-0.08768,0.09113,1.52934,-0.08915,0.09266,0.00000,0.00000,A,145828.90
1.62697,57.68832349,11.98086019,57.68832567,11.98090350,14:58:29.055091,0.00555,0.00000,0.00000,-0.10907,0.00000,-0.00154,0.00301,-0.00040,-0.05173,-0.11797,0.99210,1.62095,0.00000,0.00002,0.00002,-0.08776,0.09121,1.52934,-0.08915,0.09266,0.00000,0.00000,A,145828.90
1.66810,57.68832349,11.98086019,57.68832717,11.98090633,14:58:29.096253,0.03627,0.00000,1.50000,-0.10965,0.02000,0.00426,0.00561,0.00082,-0.05063,-0.11907,0.99094,1.63116,0.00000,0.00002,0.00002,-0.08783,0.09128,1.65025,-0.08915,0.09266,0.00000,0.00000,A,145829.00
1.68610,57.68832349,11.98086019,57.68832717,11.98090633,14:58:29.114239,0.00681,0.00000,0.00000,-0.11023,0.00000,0.00075,-0.00035,-0.00147,-0.05075,-0.11858,0.99040,1.68011,0.00000,0.00002,0.00002,-0.08789,0.09135,1.65025,-0.08915,0.09266,0.00000,0.00000,A,145829.00
1.69566,57.68832349,11.98086019,57.68832717,11.98090633,14:58:29.123782,0.00595,0.00000,0.00000,-0.11088,0.00000,-0.00307,-0.00218,-0.00025,-0.05222,-0.12029,0.99119,1.68935,0.00000,0.00001,0.00001,-0.08796,0.09142,1.65025,-0.08915,0.09266,0.00000,0.00000,A,145829.00
1.70508,57.68832349,11.98086019,57.68832717,11.98090633,14:58:29.133203,0.00498,0.00000,0.00000,-0.11147,0.00000,-0.00093,-0.00035,0.00372,-0.05057,-0.11797,0.99107,1.69935,0.00000,0.00001,0.00001,-0.08802,0.09148,1.65025,-0.08915,0.09266,0.00000,0.00000,A,145829.00
1.71572,57.68832349,11.98086018,57.68832717,11.98090633,14:58:29.143846,0.00536,0.00000,0.00000,-0.11207,0.00000,-0.00124,0.00179,-0.00071,-0.05246,-0.11865,0.99101,1.70955,0.00000,0.00001,0.00001,-0.08807,0.09154,1.65025,-0.08915,0.09266,0.00000,0.00000,A,145829.00
1.72580,57.68832349,11.98086018,57.68832717,11.98090633,14:58:29.154177,0.00518,0.00000,0.00000,-0.11265,0.00000,-0.00353,-0.00203,0.00051,-0.05161,-0.11688,0.99210,1.72007,0.00000,0.00001,0.00001,-0.08813,0.09159,1.65025,-0.08915,0.09266,0.00000,0.00000,A,145829.00
1.73703,57.68832349,11.98086018,57.68832717,11.98090633,14:58:29.165153,0.00601,0.00000,0.00000,-0.11318,0.00000,0.00243,0.00469,-0.00056,-0.05197,-0.11822,0.98960,1.73015,0.00000,0.00001,0.00001,-0.08818,0.09165,1.65025,-0.08915,0.09266,0.00000,0.00000,A,145829.00
1.74761,57.68832349,11.98086018,57.68832717,11.98090633,14:58:29.176025,0.00556,0.00000,0.00000,-0.11374,0.00000,0.00136,0.00027,0.00006,-0.04880,-0.11950,0.99125,1.74123,0.00000,0.00001,0.00001,-0.08823,0.09170,1.65025,-0.08915,0.09266,0.00000,0.00000,A,145829.00
1.78902,57.68832349,11.98086018,57.68832750,11.98091083,14:58:29.217184,0.03657,0.00000,1.50000,-0.11427,0.02000,0.00060,0.00027,0.00174,-0.05045,-0.11828,0.99393,1.75184,0.00000,0.00001,0.00001,-0.08827,0.09175,1.77013,-0.08915,0.09266,0.00000,0.00000,A,145829.10
1.80894,57.68832349,11.98086018,57.68832750,11.98091083,14:58:29.237064,0.00682,0.00000,0.00000,-0.11495,0.00000,-0.00338,0.00027,0.00036,-0.05331,-0.11675,0.99198,1.80315,0.00000,0.00000,0.00000,-0.08832,0.09179,1.77013,-0.08915,0.09266,0.00000,0.00000,A,145829.10
1.81775,57.68832349,11.98086018,57.68832750,11.98091083,14:58:29.246139,0.00524,0.00000,0.00000,-0.11547,0.00000,-0.00002,0.00042,-0.00147,-0.05240,-0.11810,0.99387,1.81205,0.00000,0.00000,0.00000,-0.08836,0.09184,1.77013,-0.08915,0.09266,0.00000,0.00000,A,145829.10
1.82804,57.68832349,11.98086018,57.68832750,11.98091083,14:58:29.256167,0.00513,0.00000,0.00000,-0.11599,0.00000,0.00273,-0.00050,-0.00178,-0.04990,-0.12078,0.99192,1.82206,0.00000,0.00000,0.00000,-0.08840,0.09188,1.77013,-0.08915,0.09266,0.00000,0.00000,A,145829.10
1.83869,57.68832349,11.98086018,57.68832750,11.98091083,14:58:29.266814,0.00538,0.00000,0.00000,-0.11650,0.00000,-0.00124,0.00317,0.00067,-0.05020,-0.11736,0.99363,1.83269,0.00000,0.00000,0.00000,-0.08844,0.09192,1.77013,-0.08915,0.09266,0.00000,0.00000,A,145829.10
1.84882,57.68832349,11.98086018,57.68832750,11.98091083,14:58:29.276939,0.00511,0.00000,0.00000,-0.11703,0.00000,-0.00215,0.00301,0.00021,-0.05185,-0.11895,0.99241,1.84307,0.00000,0.00000,0.00000,-0.08847,0.09195,1.77013,-0.08915,0.09266,0.00000,0.00000,A,145829.10
1.86044,57.68832349,11.98086018,57.68832750,11.98091083,14:58:29.288570,0.00607,0.00000,0.00000,-0.11746,0.00000,0.00472,-0.00309,0.00006,-0.05069,-0.11767,0.99223,1.85357,0.00000,0.00000,0.00000,-0.08851,0.09199,1.77013,-0.08915,0.09266,0.00000,0.00000,A,145829.10
1.90346,57.68832349,11.98086018,57.68832883,11.98091850,14:58:29.332150,0.03869,0.00000,1.50000,-0.11795,0.02000,-0.00124,-0.00050,-0.00025,-0.05063,-0.11761,0.99027,1.86414,0.00000,0.00000,0.00000,-0.08854,0.09202,1.88317,-0.08915,0.09266,0.00000,0.00000,A,145829.20
1.92144,57.68832349,11.98086018,57.68832883,11.98091850,14:58:29.349570,0.00882,0.00000,0.00000,-0.11835,0.00000,0.00212,-0.00080,0.00082,-0.04935,-0.11950,0.99033,1.91544,0.00000,0.00000,0.00000,-0.08857,0.09205,1.88317,-0.08915,0.09266,0.00000,0.00000,A,145829.20
1.92793,57.68832349,11.98086018,57.68832883,11.98091850,14:58:29.356055,0.00512,0.00000,0.00000,-0.11882,0.00000,0.00029,-0.00019,-0.00117,-0.05215,-0.11865,0.99284,1.92194,0.00000,0.00000,0.00000,-0.08860,0.09208,1.88317,-0.08915,0.09266,0.00000,0.00000,A,145829.20
1.93859,57.68832350,11.98086018,57.68832883,11.98091850,14:58:29.366715,0.00538,0.00000,0.00000,-0.11928,0.00000,-0.00093,-0.00203,-0.00117,-0.05057,-0.11694,0.99229,1.93259,0.00000,0.00000,0.00000,-0.08863,0.09211,1.88317,-0.08915,0.09266,0.00000,0.00000,A,145829.20
1.94869,57.68832350,11.98086018,57.68832883,11.98091850,14:58:29.376807,0.00508,0.00000,0.00000,-0.11975,0.00000,-0.00170,0.00133,0.00250,-0.04935,-0.11858,0.99223,1.94296,0.00000,0.00000,0.00000,-0.08865,0.09214,1.88317,-0.08915,0.09266,0.00000,0.00000,A,145829.20
1.95940,57.68832350,11.98086017,57.68832883,11.98091850,14:58:29.387523,0.00522,0.00000,0.00000,-0.12017,0.00000,0.00380,-0.00248,-0.00010,-0.05167,-0.11865,0.99259,1.95336,0.00000,0.00000,0.00000,-0.08868,0.09217,1.88317,-0.08915,0.09266,0.00000,0.00000,A,145829.20
1.97050,57.68832350,11.98086017,57.68832883,11.98091850,14:58:29.398957,0.00561,0.00000,0.00000,-0.12061,0.00000,0.00105,0.00057,0.00051,-0.05313,-0.11828,0.98924,1.96449,0.00000,0.00000,0.00000,-0.08870,0.09219,1.88317,-0.08915,0.09266,0.00000,0.00000,A,145829.20
1.98040,57.68832350,11.98086017,57.68832883,11.98091850,14:58:29.408533,0.00511,0.00000,0.00000,-0.12105,0.00000,-0.00002,-0.00096,0.00082,-0.05191,-0.11822,0.99210,1.97446,0.00000,0.00000,0.00000,-0.08872,0.09222,1.88317,-0.08915,0.09266,0.00000,0.00000,A,145829.20
2.02511,57.68832350,11.98086017,57.68832983,11.98092500,14:58:29.453523,0.03942,0.00000,1.50000,-0.12147,0.02000,-0.00078,0.00118,-0.00071,-0.05161,-0.11712,0.99107,1.98504,0.00000,0.00000,0.00000,-0.08875,0.09224,2.00383,-0.08915,0.09266,0.00000,0.00000,A,145829.30
2.04565,57.68832350,11.98086017,57.68832983,11.98092500,14:58:29.473815,0.00877,0.00000,0.00000,-0.12195,0.00000,-0.00108,-0.00126,0.00006,-0.05075,-0.11834,0.99345,2.03780,0.00000,0.00000,0.00000,-0.08877,0.09226,2.00383,-0.08915,0.09266,0.00000,0.00000,A,145829.30
2.05361,57.68832350,11.98086017,57.68832983,11.98092500,14:58:29.481729,0.00522,0.00000,0.00000,-0.12236,0.00000,-0.00017,0.00195,0.00128,-0.05240,-0.11730,0.99143,2.04785,0.00000,0.00000,0.00000,-0.08879,0.09228,2.00383,-0.08915,0.09266,0.00000,0.00000,A,145829.30
2.06382,57.68832350,11.98086017,57.68832983,11.98092500,14:58:29.491939,0.00519,0.00000,0.00000,-0.12272,0.00000,-0.00017,-0.00325,0.00112,-0.05215,-0.11517,0.99168,2.05782,0.00000,0.00000,0.00000,-0.08880,0.09230,2.00383,-0.08915,0.09266,0.00000,0.00000,A,145829.30
2.07472,57.68832350,11.98086017,57.68832983,11.98092500,14:58:29.503085,0.00570,0.00000,0.00000,-0.12309,0.00000,0.00334,0.00057,-0.00254,-0.05283,-0.11779,0.99241,2.06840,0.00000,0.00000,0.00000,-0.08882,0.09232,2.00383,-0.08915,0.09266,0.00000,0.00000,A,145829.30
2.08452,57.68832350,11.98086017,57.68832983,11.98092500,14:58:29.512640,0.00509,0.00000,0.00000,-0.12347,0.00000,0.00136,0.00057,0.00112,-0.05191,-0.11810,0.99131,2.07877,0.00000,0.00000,0.00000,-0.08884,0.09233,2.00383,-0.08915,0.09266,0.00000,0.00000,A,145829.30
2.09585,57.68832350,11.98086017,57.68832983,11.98092500,14:58:29.523971,0.00616,0.00000,0.00000,-0.12391,0.00000,-0.00246,0.00164,0.00265,-0.05008,-0.11877,0.99076,2.08982,0.00000,0.00000,0.00000,-0.08885,0.09235,2.00383,-0.08915,0.09266,0.00000,0.00000,A,145829.30
2.14703,57.68832350,11.98086017,57.68833083,11.98093800,14:58:29.575184,0.04693,0.00000,1.50000,-0.12426,0.02000,0.00304,-0.00233,-0.00193,-0.04819,-0.11785,0.99399,2.09934,0.00000,0.00000,0.00000,-0.08887,0.09237,2.12810,-0.08915,0.09266,0.00000,0.00000,A,145829.50
2.16706,57.68832350,11.98086017,57.68833083,11.98093800,14:58:29.595188,0.00784,0.00000,0.00000,-0.12464,0.00000,-0.00002,0.00042,0.00036,-0.05142,-0.11767,0.98942,2.16091,0.00000,0.00000,0.00000,-0.08888,0.09238,2.12810,-0.08915,0.09266,0.00000,0.00000,A,145829.50
2.17533,57.68832350,11.98086017,57.68833083,11.98093800,14:58:29.603447,0.00559,0.00000,0.00000,-0.12505,0.00000,-0.00628,0.00088,-0.00162,-0.05063,-0.11718,0.99241,2.16926,0.00000,0.00000,0.00000,-0.08890,0.09239,2.12810,-0.08915,0.09266,0.00000,0.00000,A,145829.50
2.18525,57.68832350,11.98086017,57.68833083,11.98093800,14:58:29.613372,0.00510,0.00000,0.00000,-0.12536,0.00000,0.00273,0.00103,-0.00086,-0.05136,-0.11639,0.99302,2.17949,0.00000,0.00000,0.00000,-0.08891,0.09241,2.12810,-0.08915,0.09266,0.00000,0.00000,A,145829.50
2.19562,57.68832350,11.98086017,57.68833083,11.98093800,14:58:29.623743,0.00525,0.00000,0.00000,-0.12576,0.00000,-0.00307,-0.00065,-0.00315,-0.05209,-0.11846,0.99296,2.18959,0.00000,0.00000,0.00000,-0.08892,0.09242,2.12810,-0.08915,0.09266,0.00000,0.00000,A,145829.50
2.20608,57.68832350,11.98086017,57.68833083,11.98093800,14:58:29.634227,0.00509,0.00000,0.00000,-0.12614,0.00000,0.00060,0.00011,0.00219,-0.05197,-0.11956,0.98808,2.20012,0.00000,0.00000,0.00000,-0.08893,0.09243,2.12810,-0.08915,0.09266,0.00000,0.00000,A,145829.50
2.21730,57.68832350,11.98086017,57.68833083,11.98093800,14:58:29.645435,0.00614,0.00000,0.00000,-0.12649,0.00000,0.00044,-0.00004,0.00112,-0.05161,-0.11816,0.99271,2.21046,0.00000,0.00000,0.00000,-0.08895,0.09244,2.12810,-0.08915,0.09266,0.00000,0.00000,A,145829.50
2.22693,57.68832350,11.98086017,57.68833083,11.98093800,14:58:29.655055,0.00536,0.00000,0.00000,-0.12687,0.00000,-0.00261,-0.00141,0.00174,-0.05441,-0.11816,0.98948,2.22090,0.00000,0.00000,0.00000,-0.08896,0.09246,2.12810,-0.08915,0.09266,0.00000,0.00000,A,145829.50
2.27031,57.68832350,11.98086017,57.68833350,11.98093867,14:58:29.698469,0.03835,0.00000,1.50000,-0.12722,0.02000,-0.00078,0.00195,-0.00071,-0.05069,-0.11865,0.99363,2.23130,0.00000,0.00000,0.00000,-0.08897,0.09247,2.24949,-0.08915,0.09266,0.00000,0.00000,A,145829.60
2.28631,57.68832350,11.98086017,57.68833350,11.98093867,14:58:29.714463,0.00766,0.00000,0.00000,-0.12753,0.00000,0.00090,-0.00309,-0.00071,-0.05246,-0.11895,0.99168,2.27997,0.00000,0.00000,0.00000,-0.08898,0.09248,2.24949,-0.08915,0.09266,0.00000,0.00000,A,145829.60
2.29495,57.68832350,11.98086017,57.68833350,11.98093867,14:58:29.723075,0.00589,0.00000,0.00000,-0.12780,0.00000,0.00396,0.00240,-0.00361,-0.05307,-0.11627,0.99088,2.28866,0.00000,0.00000,0.00000,-0.08898,0.09248,2.24949,-0.08915,0.09266,0.00000,0.00000,A,145829.60
2.30456,57.68832350,11.98086017,57.68833350,11.98093867,14:58:29.732686,0.00511,0.00000,0.00000,-0.12816,0.00000,-0.00215,-0.00447,0.00143,-0.05087,-0.11901,0.99223,2.29880,0.00000,0.00000,0.00000,-0.08899,0.09249,2.24949,-0.08915,0.09266,0.00000,0.00000,A,145829.60
2.31545,57.68832350,11.98086017,57.68833350,11.98093867,14:58:29.743579,0.00559,0.00000,0.00000,-0.12851,0.00000,-0.00093,0.00057,0.00082,-0.05173,-0.11919,0.99277,2.30922,0.00000,0.00000,0.00000,-0.08900,0.09250,2.24949,-0.08915,0.09266,0.00000,0.00000,A,145829.60
2.32553,57.68832350,11.98086017,57.68833350,11.98093867,14:58:29.753661,0.00529,0.00000,0.00000,-0.12880,0.00000,0.00319,-0.00111,-0.00254,-0.05264,-0.11840,0.99363,2.31978,0.00000,0.00000,0.00000,-0.08901,0.09251,2.24949,-0.08915,0.09266,0.00000,0.00000,A,145829.60
2.33568,57.68832350,11.98086017,57.68833350,11.98093867,14:58:29.763807,0.00521,0.00000,0.00000,-0.12913,0.00000,-0.00063,-0.00264,-0.00056,-0.05215,-0.11919,0.99119,2.32967,0.00000,0.00000,0.00000,-0.08902,0.09252,2.24949,-0.08915,0.09266,0.00000,0.00000,A,145829.60
2.34622,57.68832350,11.98086017,57.68833350,11.98093867,14:58:29.774352,0.00534,0.00000,0.00000,-0.12942,0.00000,0.00182,0.00363,0.00204,-0.05258,-0.11804,0.99186,2.34024,0.00000,0.00000,0.00000,-0.08902,0.09253,2.24949,-0.08915,0.09266,0.00000,0.00000,A,145829.60
2.38142,57.68832350,11.98086017,57.68833533,11.98093750,14:58:29.810527,0.03014,0.00000,1.50000,-0.12970,0.02000,0.00044,-0.00294,-0.00101,-0.05106,-0.11633,0.99107,2.35043,0.00000,0.00000,0.00000,-0.08903,0.09253,2.36902,-0.08915,0.09266,0.00000,0.00000,A,145829.70
2.40248,57.68832350,11.98086017,57.68833533,11.98093750,14:58:29.830613,0.00641,0.00000,0.00000,-0.13000,0.00000,-0.00032,0.00133,0.00082,-0.04892,-0.11730,0.99284,2.39646,0.00000,0.00000,0.00000,-0.08904,0.09254,2.36902,-0.08915,0.09266,0.00000,0.00000,A,145829.70
2.41152,57.68832350,11.98086017,57.68833533,11.98093750,14:58:29.839650,0.00519,0.00000,0.00000,-0.13030,0.00000,-0.00108,0.00286,0.00128,-0.05197,-0.11840,0.99265,2.40550,0.00000,0.00000,0.00000,-0.08904,0.09254,2.36902,-0.08915,0.09266,0.00000,0.00000,A,145829.70
2.42232,57.68832350,11.98086017,57.68833533,11.98093750,14:58:29.850456,0.00559,0.00000,0.00000,-0.13058,0.00000,-0.00017,-0.00187,-0.00056,-0.05106,-0.11682,0.99198,2.41610,0.00000,0.00000,0.00000,-0.08905,0.09255,2.36902,-0.08915,0.09266,0.00000,0.00000,A,145829.70
2.43224,57.68832350,11.98086017,57.68833533,11.98093750,14:58:29.860361,0.00511,0.00000,0.00000,-0.13084,0.00000,0.00044,-0.00203,0.00097,-0.05283,-0.11700,0.99241,2.42628,0.00000,0.00000,0.00000,-0.08905,0.09256,2.36902,-0.08915,0.09266,0.00000,0.00000,A,145829.70
2.44294,57.68832350,11.98086017,57.68833533,11.98093750,14:58:29.871062,0.00541,0.00000,0.00000,-0.13113,0.00000,-0.00032,0.00088,-0.00162,-0.05100,-0.11834,0.99174,2.43689,0.00000,0.00000,0.00000,-0.08906,0.09256,2.36902,-0.08915,0.09266,0.00000,0.00000,A,145829.70
2.45301,57.68832350,11.98086017,57.68833533,11.98093750,14:58:29.881141,0.00508,0.00000,0.00000,-0.13140,0.00000,-0.00093,-0.00004,-0.00300,-0.04843,-0.11712,0.99223,2.44729,0.00000,0.00000,0.00000,-0.08906,0.09257,2.36902,-0.08915,0.09266,0.00000,0.00000,A,145829.70
2.46363,57.68832350,11.98086017,57.68833533,11.98093750,14:58:29.891753,0.00521,0.00000,0.00000,-0.13167,0.00000,0.00136,0.00240,0.00158,-0.05020,-0.11852,0.99265,2.45760,0.00000,0.00000,0.00000,-0.08907,0.09257,2.36902,-0.08915,0.09266,0.00000,0.00000,A,145829.70
2.50772,57.68832350,11.98086017,57.68833550,11.98094833,14:58:29.935884,0.03890,0.00000,1.50000,-0.13193,0.02000,0.00319,0.00149,0.00235,-0.05234,-0.12011,0.99168,2.46819,0.00000,0.00000,0.00000,-0.08907,0.09258,2.48768,-0.08915,0.09266,0.00000,0.00000,A,145829.80
2.52758,57.68832350,11.98086017,57.68833550,11.98094833,14:58:29.955707,0.00628,0.00000,0.00000,-0.13214,0.00000,0.00105,0.00042,0.00280,-0.05203,-0.11804,0.99162,2.52149,0.00000,0.00000,0.00000,-0.08908,0.09258,2.48768,-0.08915,0.09266,0.00000,0.00000,A,145829.80
2.53678,57.68832350,11.98086017,57.68833550,11.98094833,14:58:29.964912,0.00508,0.00000,0.00000,-0.13238,0.00000,0.00197,-0.00432,0.00280,-0.04996,-0.11724,0.98979,2.53104,0.00000,0.00000,0.00000,-0.08908,0.09258,2.48768,-0.08915,0.09266,0.00000,0.00000,A,145829.80
2.54744,57.68832350,11.98086017,57.68833550,11.98094833,14:58:29.975565,0.00518,0.00000,0.00000,-0.13265,0.00000,-0.00261,0.00210,0.00174,-0.05033,-0.11755,0.99418,2.54143,0.00000,0.00000,0.00000,-0.08908,0.09259,2.48768,-0.08915,0.09266,0.00000,0.00000,A,145829.80
2.55776,57.68832350,11.98086017,57.68833550,11.98094833,14:58:29.986267,0.00510,0.00000,0.00000,-0.13294,0.00000,-0.00276,0.00301,-0.00010,-0.05081,-0.11834,0.98972,2.55203,0.00000,0.00000,0.00000,-0.08909,0.09259,2.48768,-0.08915,0.09266,0.00000,0.00000,A,145829.80
2.56815,57.68832350,11.98086017,57.68833550,11.98094833,14:58:29.996273,0.00509,0.00000,0.00000,-0.13320,0.00000,-0.00063,-0.00218,-0.00010,-0.04935,-0.11816,0.99332,2.56219,0.00000,0.00000,0.00000,-0.08909,0.09260,2.48768,-0.08915,0.09266,0.00000,0.00000,A,145829.80
2.57935,57.68832350,11.98086017,57.68833550,11.98094833,14:58:30.007496,0.00590,0.00000,0.00000,-0.13341,0.00000,0.00289,0.00347,0.00036,-0.05173,-0.11810,0.99326,2.57282,0.00000,0.00000,0.00000,-0.08909,0.09260,2.48768,-0.08915,0.09266,0.00000,0.00000,A,145829.80
2.61767,57.68832350,11.98086017,57.68833617,11.98095167,14:58:30.046012,0.03382,0.00000,1.50000,-0.13363,0.02000,-0.00063,0.00179,-0.00162,-0.05185,-0.11602,0.99113,2.58377,0.00000,0.00000,0.00000,-0.08910,0.09260,2.60236,-0.08915,0.09266,0.00000,0.00000,A,145829.90
2.63823,57.68832350,11.98086017,57.68833617,11.98095167,14:58:30.066365,0.00783,0.00000,0.00000,-0.13383,0.00000,0.00029,-0.00004,-0.00376,-0.04917,-0.11608,0.99259,2.63220,0.00000,0.00000,0.00000,-0.08910,0.09261,2.60236,-0.08915,0.09266,0.00000,0.00000,A,145829.90
2.64612,57.68832350,11.98086017,57.68833617,11.98095167,14:58:30.074262,0.00532,0.00000,0.00000,-0.13407,0.00000,-0.00124,0.00149,0.00204,-0.05087,-0.11743,0.99308,2.64018,0.00000,0.00000,0.00000,-0.08910,0.09261,2.60236,-0.08915,0.09266,0.00000,0.00000,A,145829.90
2.65629,57.68832350,11.98086017,57.68833617,11.98095167,14:58:30.084411,0.00509,0.00000,0.00000,-0.13429,0.00000,0.00273,0.00179,-0.00086,-0.05075,-0.11938,0.99015,2.65035,0.00000,0.00000,0.00000,-0.08910,0.09261,2.60236,-0.08915,0.09266,0.00000,0.00000,A,145829.90
2.66698,57.68832350,11.98086017,57.68833617,11.98095167,14:58:30.095107,0.00538,0.00000,0.00000,-0.13456,0.00000,-0.00353,0.00011,0.00067,-0.05112,-0.11779,0.99149,2.66096,0.00000,0.00000,0.00000,-0.08911,0.09261,2.60236,-0.08915,0.09266,0.00000,0.00000,A,145829.90
2.67707,57.68832350,11.98086017,57.68833617,11.98095167,14:58:30.105194,0.00507,0.00000,0.00000,-0.13479,0.00000,-0.00383,0.00042,-0.00086,-0.05002,-0.11578,0.99149,2.67135,0.00000,0.00000,0.00000,-0.08911,0.09262,2.60236,-0.08915,0.09266,0.00000,0.00000,A,145829.90
2.68788,57.68832350,11.98086017,57.68833617,11.98095167,14:58:30.116000,0.00524,0.00000,0.00000,-0.13505,0.00000,-0.00383,-0.00294,0.00158,-0.05148,-0.11816,0.99265,2.68187,0.00000,0.00000,0.00000,-0.08911,0.09262,2.60236,-0.08915,0.09266,0.00000,0.00000,A,145829.90
2.69843,57.68832350,11.98086017,57.68833617,11.98095167,14:58:30.126567,0.00539,0.00000,0.00000,-0.13522,0.00000,0.00319,-0.00019,-0.00056,-0.05142,-0.11694,0.99241,2.69244,0.00000,0.00000,0.00000,-0.08911,0.09262,2.60236,-0.08915,0.09266,0.00000,0.00000,A,145829.90
2.75262,57.68832350,11.98086017,57.68834050,11.98095500,14:58:30.180772,0.04917,0.00000,1.50000,-0.13544,0.02000,0.00197,0.00149,-0.00071,-0.05167,-0.11950,0.99174,2.70277,0.00000,0.00000,0.00000,-0.08912,0.09262,2.73194,-0.08915,0.09266,0.00000,0.00000,A,145830.10
2.77090,57.68832350,11.98086017,57.68834050,11.98095500,14:58:30.199024,0.00706,0.00000,0.00000,-0.13533,0.00000,0.00487,0.00072,-0.00193,-0.05087,-0.11736,0.99625,2.76482,0.00000,0.00000,0.00000,-0.08912,0.09262,2.73194,-0.08915,0.09266,0.00000,0.00000,A,145830.10
2.77950,57.68832350,11.98086017,57.68834050,11.98095500,14:58:30.207623,0.00518,0.00000,0.00000,-0.13554,0.00000,0.00396,0.00057,0.00021,-0.05112,-0.11962,0.99101,2.77349,0.00000,0.00000,0.00000,-0.08912,0.09263,2.73194,-0.08915,0.09266,0.00000,0.00000,A,145830.10
2.78984,57.68832350,11.98086017,57.68834050,11.98095500,14:58:30.218221,0.00527,0.00000,0.00000,-0.13570,0.00000,0.00411,0.00042,-0.00056,-0.05301,-0.11736,0.99162,2.78412,0.00000,0.00000,0.00000,-0.08912,0.09263,2.73194,-0.08915,0.09266,0.00000,0.00000,A,145830.10
2.80012,57.68832350,11.98086017,57.68834050,11.98095500,14:58:30.228240,0.00514,0.00000,0.00000,-0.13587,0.00000,0.00182,-0.00035,0.00082,-0.05197,-0.11639,0.98985,2.79412,0.00000,0.00000,0.00000,-0.08912,0.09263,2.73194,-0.08915,0.09266,0.00000,0.00000,A,145830.10
2.81085,57.68832350,11.98086017,57.68834050,11.98095500,14:58:30.238975,0.00548,0.00000,0.00000,-0.13606,0.00000,0.00029,0.00164,-0.00101,-0.05155,-0.11743,0.99143,2.80481,0.00000,0.00000,0.00000,-0.08912,0.09263,2.73194,-0.08915,0.09266,0.00000,0.00000,A,145830.10
2.82088,57.68832350,11.98086017,57.68834050,11.98095500,14:58:30.249005,0.00511,0.00000,0.00000,-0.13628,0.00000,-0.00032,0.00164,0.00051,-0.04978,-0.11913,0.99162,2.81512,0.00000,0.00000,0.00000,-0.08913,0.09263,2.73194,-0.08915,0.09266,0.00000,0.00000,A,145830.10
2.83149,57.68832350,11.98086017,57.68834050,11.98095500,14:58:30.259613,0.00517,0.00000,0.00000,-0.13644,0.00000,0.00304,-0.00080,-0.00010,-0.05136,-0.11669,0.99070,2.82548,0.00000,0.00000,0.00000,-0.08913,0.09263,2.73194,-0.08915,0.09266,0.00000,0.00000,A,145830.10
2.87546,57.68832350,11.98086017,57.68834633,11.98097000,14:58:30.303616,0.03875,0.00000,1.50000,-0.13666,0.02000,-0.00353,-0.00157,-0.00132,-0.05148,-0.11767,0.99198,2.83609,0.00000,0.00000,0.00000,-0.08913,0.09264,2.85538,-0.08915,0.09266,0.00000,0.00000,A,145830.20
2.89454,57.68832350,11.98086017,57.68834633,11.98097000,14:58:30.322684,0.00696,0.00000,0.00000,-0.13678,0.00000,0.00166,0.00195,0.00326,-0.05295,-0.11877,0.99332,2.88739,0.00000,0.00000,0.00000,-0.08913,0.09264,2.85538,-0.08915,0.09266,0.00000,0.00000,A,145830.20
2.90343,57.68832350,11.98086017,57.68834633,11.98097000,14:58:30.331554,0.00523,0.00000,0.00000,-0.13695,0.00000,0.00014,0.00133,-0.00101,-0.05020,-0.11614,0.99137,2.89738,0.00000,0.00000,0.00000,-0.08913,0.09264,2.85538,-0.08915,0.09266,0.00000,0.00000,A,145830.20
2.91415,57.68832350,11.98086017,57.68834633,11.98097000,14:58:30.342283,0.00554,0.00000,0.00000,-0.13716,0.00000,-0.00429,-0.00004,-0.00010,-0.04929,-0.11694,0.99216,2.90798,0.00000,0.00000,0.00000,-0.08913,0.09264,2.85538,-0.08915,0.09266,0.00000,0.00000,A,145830.20
2.92506,57.68832350,11.98086017,57.68834633,11.98097000,14:58:30.353186,0.00592,0.00000,0.00000,-0.13732,0.00000,0.00151,-0.00050,-0.00132,-0.04935,-0.11706,0.99162,2.91929,0.00000,0.00000,0.00000,-0.08913,0.09264,2.85538,-0.08915,0.09266,0.00000,0.00000,A,145830.20
2.93836,57.68832350,11.98086017,57.68834633,11.98097000,14:58:30.366503,0.00792,0.00000,0.00000,-0.13753,0.00000,-0.00276,0.00118,0.00021,-0.05142,-0.11730,0.99040,2.93106,0.00000,0.00000,0.00000,-0.08913,0.09264,2.85538,-0.08915,0.09266,0.00000,0.00000,A,145830.20
2.94711,57.68832350,11.98086017,57.68834633,11.98097000,14:58:30.375242,0.00627,0.00000,0.00000,-0.13775,0.00000,-0.00551,0.00256,0.00128,-0.05069,-0.11797,0.99332,2.94023,0.00000,0.00000,0.00000,-0.08914,0.09264,2.85538,-0.08915,0.09266,0.00000,0.00000,A,145830.20
2.99017,57.68832350,11.98086017,57.68835100,11.98098317,14:58:30.418327,0.03891,0.00000,1.50000,-0.13788,0.02000,0.00228,0.00042,-0.00056,-0.05264,-0.11614,0.99369,2.95040,0.00000,0.00000,0.00000,-0.08914,0.09264,2.97009,-0.08915,0.09266,0.00000,0.00000,A,145830.30
3.00690,57.68832350,11.98086017,57.68835100,11.98098317,14:58:30.435026,0.00646,0.00000,0.00000,-0.13814,0.00000,-0.00185,0.00072,0.00219,-0.05100,-0.11749,0.99216,3.00081,0.00000,0.00000,0.00000,-0.08914,0.09264,2.97009,-0.08915,0.09266,0.00000,0.00000,A,145830.30
3.01670,57.68832350,11.98086017,57.68835100,11.98098317,14:58:30.444828,0.00603,0.00000,0.00000,-0.13835,0.00000,-0.00170,0.00195,-0.00132,-0.05008,-0.11956,0.98954,3.01037,0.00000,0.00000,0.00000,-0.08914,0.09265,2.97009,-0.08915,0.09266,0.00000,0.00000,A,145830.30
3.02641,57.68832350,11.98086017,57.68835100,11.98098317,14:58:30.454542,0.00550,0.00000,0.00000,-0.13853,0.00000,-0.00139,-0.00172,0.00128,-0.05045,-0.11761,0.99113,3.02041,0.00000,0.00000,0.00000,-0.08914,0.09265,2.97009,-0.08915,0.09266,0.00000,0.00000,A,145830.30
3.03642,57.68832350,11.98086017,57.68835100,11.98098317,14:58:30.464549,0.00512,0.00000,0.00000,-0.13869,0.00000,0.00029,-0.00035,0.00326,-0.05173,-0.11791,0.99229,3.03046,0.00000,0.00000,0.00000,-0.08914,0.09265,2.97009,-0.08915,0.09266,0.00000,0.00000,A,145830.30
3.04707,57.68832350,11.98086017,57.68835100,11.98098317,14:58:30.475198,0.00537,0.00000,0.00000,-0.13884,0.00000,0.00044,-0.00096,0.00235,-0.04959,-0.11718,0.99186,3.04105,0.00000,0.00000,0.00000,-0.08914,0.09265,2.97009,-0.08915,0.09266,0.00000,0.00000,A,145830.30
3.05709,57.68832350,11.98086017,57.68835100,11.98098317,14:58:30.485212,0.00498,0.00000,0.00000,-0.13900,0.00000,-0.00093,0.00179,-0.00040,-0.05283,-0.11791,0.99375,3.05134,0.00000,0.00000,0.00000,-0.08914,0.09265,2.97009,-0.08915,0.09266,0.00000,0.00000,A,145830.30
3.06858,57.68832350,11.98086017,57.68835100,11.98098317,14:58:30.496709,0.00619,0.00000,0.00000,-0.13910,0.00000,0.00533,0.00179,-0.00269,-0.04947,-0.11724,0.98857,3.06226,0.00000,0.00000,0.00000,-0.08914,0.09265,2.97009,-0.08915,0.09266,0.00000,0.00000,A,145830.30
3.11043,57.68832350,11.98086017,57.68835567,11.98099700,14:58:30.538600,0.03753,0.00000,1.50000,-0.13886,0.02000,0.03847,-0.00218,0.00006,-0.05398,-0.11797,0.99204,3.07254,0.00000,0.00000,0.00000,-0.08914,0.09265,3.09340,-0.08915,0.09266,0.00000,0.00000,A,145830.40
3.13121,57.68832350,11.98086017,57.68835567,11.98099700,14:58:30.559330,0.00793,0.00000,0.00000,-0.13871,0.00000,0.00533,0.00225,-0.00025,-0.05136,-0.11541,0.99229,3.12513,0.00000,0.00000,0.00000,-0.08914,0.09265,3.09340,-0.08915,0.09266,0.00000,0.00000,A,145830.40
3.13966,57.68832350,11.98086017,57.68835567,11.98099700,14:58:30.567791,0.00599,0.00000,0.00000,-0.13886,0.00000,0.00258,-0.00111,-0.00178,-0.05124,-0.11865,0.99436,3.13338,0.00000,0.00000,0.00000,-0.08914,0.09265,3.09340,-0.08915,0.09266,0.00000,0.00000,A,145830.40
3.14908,57.68832350,11.98086017,57.68835567,11.98099700,14:58:30.577205,0.00500,0.00000,0.00000,-0.13898,0.00000,-0.00063,-0.00050,0.00235,-0.05185,-0.11523,0.99216,3.14334,0.00000,0.00000,0.00000,-0.08914,0.09265,3.09340,-0.08915,0.09266,0.00000,0.00000,A,145830.40
3.15954,57.68832350,11.98086017,57.68835567,11.98099700,14:58:30.587667,0.00521,0.00000,0.00000,-0.13917,0.00000,-0.00200,-0.00019,0.00006,-0.05301,-0.11852,0.99259,3.15351,0.00000,0.00000,0.00000,-0.08915,0.09265,3.09340,-0.08915,0.09266,0.00000,0.00000,A,145830.40
3.17146,57.68832350,11.98086017,57.68835567,11.98099700,14:58:30.599592,0.00673,0.00000,0.00000,-0.13923,0.00000,0.00472,0.00256,0.00021,-0.05331,-0.11572,0.99332,3.16482,0.00000,0.00000,0.00000,-0.08915,0.09265,3.09340,-0.08915,0.09266,0.00000,0.00000,A,145830.40
3.18049,57.68832350,11.98086017,57.68835567,11.98099700,14:58:30.608616,0.00516,0.00000,0.00000,-0.13942,0.00000,-0.00383,-0.00172,0.00219,-0.05191,-0.11755,0.99229,3.17453,0.00000,0.00000,0.00000,-0.08915,0.09265,3.09340,-0.08915,0.09266,0.00000,0.00000,A,145830.40
3.19118,57.68832350,11.98086017,57.68835567,11.98099700,14:58:30.619314,0.00545,0.00000,0.00000,-0.13959,0.00000,-0.00353,0.00149,-0.00117,-0.05118,-0.11663,0.98942,3.18509,0.00000,0.00000,0.00000,-0.08915,0.09265,3.09340,-0.08915,0.09266,0.00000,0.00000,A,145830.40
3.24451,57.68832350,11.98086017,57.68836350,11.98102267,14:58:30.672678,0.04838,0.00000,1.50000,-0.13977,0.02000,-0.00154,0.00164,0.00067,-0.05118,-0.11865,0.98936,3.19581,0.00000,0.00000,0.00000,-0.08915,0.09265,3.22637,-0.08915,0.09266,0.00000,0.00000,A,145830.60
3.26430,57.68832350,11.98086017,57.68836350,11.98102267,14:58:30.692424,0.00716,0.00000,0.00000,-0.14024,0.00000,-0.00551,-0.00248,0.00021,-0.05008,-0.11736,0.99320,3.25831,0.00000,0.00000,0.00000,-0.08915,0.09265,3.22637,-0.08915,0.09266,0.00000,0.00000,A,145830.60
3.27266,57.68832350,11.98086017,57.68836350,11.98102267,14:58:30.700787,0.00511,0.00000,0.00000,-0.14038,0.00000,-0.00399,-0.00080,0.00021,-0.05185,-0.11584,0.99259,3.26690,0.00000,0.00000,0.00000,-0.08915,0.09266,3.22637,-0.08915,0.09266,0.00000,0.00000,A,145830.60
3.28334,57.68832350,11.98086017,57.68836350,11.98102267,14:58:30.711469,0.00521,0.00000,0.00000,-0.14053,0.00000,-0.00429,-0.00004,0.00128,-0.05398,-0.11578,0.99253,3.27732,0.00000,0.00000,0.00000,-0.08915,0.09266,3.22637,-0.08915,0.09266,0.00000,0.00000,A,145830.60
3.29438,57.68832350,11.98086017,57.68836350,11.98102267,14:58:30.722522,0.00585,0.00000,0.00000,-0.14067,0.00000,-0.00017,-0.00004,-0.00285,-0.05295,-0.11785,0.99247,3.28791,0.00000,0.00000,0.00000,-0.08915,0.09266,3.22637,-0.08915,0.09266,0.00000,0.00000,A,145830.60
3.30477,57.68832350,11.98086017,57.68836350,11.98102267,14:58:30.732902,0.00583,0.00000,0.00000,-0.14081,0.00000,-0.00002,-0.00065,0.00143,-0.05094,-0.11877,0.99155,3.29809,0.00000,0.00000,0.00000,-0.08915,0.09266,3.22637,-0.08915,0.09266,0.00000,0.00000,A,145830.60
3.31490,57.68832350,11.98086017,57.68836350,11.98102267,14:58:30.743037,0.00557,0.00000,0.00000,-0.14096,0.00000,-0.00261,0.00133,-0.00300,-0.05100,-0.11773,0.99229,3.30885,0.00000,0.00000,0.00000,-0.08915,0.09266,3.22637,-0.08915,0.09266,0.00000,0.00000,A,145830.60
3.32495,57.68832350,11.98086017,57.68836350,11.98102267,14:58:30.753074,0.00521,0.00000,0.00000,-0.14116,0.00000,-0.00231,-0.00065,0.00189,-0.05325,-0.12096,0.99162,3.31922,0.00000,0.00000,0.00000,-0.08915,0.09266,3.22637,-0.08915,0.09266,0.00000,0.00000,A,145830.60
3.36881,57.68832350,11.98086017,57.68836833,11.98102867,14:58:30.796976,0.03853,0.00000,1.50000,-0.14123,0.02000,0.00334,0.00179,-0.00086,-0.04959,-0.11627,0.99259,3.32946,0.00000,0.00000,0.00000,-0.08915,0.09266,3.34891,-0.08915,0.09266,0.00000,0.00000,A,145830.70
3.38552,57.68832350,11.98086017,57.68836833,11.98102867,14:58:30.813641,0.00680,0.00000,0.00000,-0.14121,0.00000,0.00258,0.00072,-0.00101,-0.05142,-0.11755,0.99351,3.37973,0.00000,0.00000,0.00000,-0.08915,0.09266,3.34891,-0.08915,0.09266,0.00000,0.00000,A,145830.70
3.39486,57.68832350,11.98086017,57.68836833,11.98102867,14:58:30.822984,0.00574,0.00000,0.00000,-0.14127,0.00000,0.00273,-0.00035,-0.00239,-0.04935,-0.11499,0.99119,3.38850,0.00000,0.00000,0.00000,-0.08915,0.09266,3.34891,-0.08915,0.09266,0.00000,0.00000,A,145830.70
3.40524,57.68832350,11.98086017,57.68836833,11.98102867,14:58:30.833615,0.00553,0.00000,0.00000,-0.14139,0.00000,0.00136,0.00210,-0.00132,-0.05014,-0.11834,0.99033,3.39910,0.00000,0.00000,0.00000,-0.08915,0.09266,3.34891,-0.08915,0.09266,0.00000,0.00000,A,145830.70
3.41562,57.68832350,11.98086017,57.68836833,11.98102867,14:58:30.843744,0.00537,0.00000,0.00000,-0.14149,0.00000,0.00243,0.00072,0.00311,-0.05087,-0.11785,0.99229,3.40959,0.00000,0.00000,0.00000,-0.08915,0.09266,3.34891,-0.08915,0.09266,0.00000,0.00000,A,145830.70
3.42668,57.68832350,11.98086017,57.68836833,11.98102867,14:58:30.854817,0.00620,0.00000,0.00000,-0.14160,0.00000,0.00136,-0.00096,-0.00040,-0.05191,-0.11858,0.99186,3.41989,0.00000,0.00000,0.00000,-0.08915,0.09266,3.34891,-0.08915,0.09266,0.00000,0.00000,A,145830.70
3.43594,57.68832350,11.98086017,57.68836833,11.98102867,14:58:30.864064,0.00523,0.00000,0.00000,-0.14168,0.00000,0.00319,-0.00080,0.00021,-0.04825,-0.11767,0.99210,3.42992,0.00000,0.00000,0.00000,-0.08915,0.09266,3.34891,-0.08915,0.09266,0.00000,0.00000,A,145830.70
3.44653,57.68832350,11.98086017,57.68836833,11.98102867,14:58:30.874662,0.00541,0.00000,0.00000,-0.14177,0.00000,0.00182,-0.00157,0.00006,-0.04880,-0.11682,0.99162,3.44050,0.00000,0.00000,0.00000,-0.08915,0.09266,3.34891,-0.08915,0.09266,0.00000,0.00000,A,145830.70
3.49245,57.68832350,11.98086017,57.68837267,11.98103717,14:58:30.920621,0.04093,0.00000,1.50000,-0.14189,0.02000,-0.00154,-0.00141,0.00128,-0.04959,-0.11706,0.99168,3.45178,0.00000,0.00000,0.00000,-0.08915,0.09266,3.47195,-0.08915,0.09266,0.00000,0.00000,A,145830.80
3.50693,57.68832350,11.98086017,57.68837267,11.98103717,14:58:30.935053,0.00746,0.00000,0.00000,-0.14193,0.00000,0.00136,-0.00111,0.00036,-0.04795,-0.11797,0.99314,3.50085,0.00000,0.00000,0.00000,-0.08915,0.09266,3.47195,-0.08915,0.09266,0.00000,0.00000,A,145830.80
3.51544,57.68832350,11.98086017,57.68837267,11.98103717,14:58:30.943566,0.00558,0.00000,0.00000,-0.14199,0.00000,0.00258,0.00317,0.00051,-0.05209,-0.11578,0.99320,3.50940,0.00000,0.00000,0.00000,-0.08915,0.09266,3.47195,-0.08915,0.09266,0.00000,0.00000,A,145830.80
3.52624,57.68832350,11.98086017,57.68837267,11.98103717,14:58:30.954391,0.00599,0.00000,0.00000,-0.14211,0.00000,-0.00231,0.00027,0.00128,-0.05185,-0.11694,0.99174,3.51963,0.00000,0.00000,0.00000,-0.08915,0.09266,3.47195,-0.08915,0.09266,0.00000,0.00000,A,145830.80
3.53570,57.68832350,11.98086017,57.68837267,11.98103717,14:58:30.963820,0.00521,0.00000,0.00000,-0.14219,0.00000,0.00319,0.00118,-0.00010,-0.05405,-0.11797,0.99021,3.52969,0.00000,0.00000,0.00000,-0.08915,0.09266,3.47195,-0.08915,0.09266,0.00000,0.00000,A,145830.80
3.54622,57.68832350,11.98086017,57.68837267,11.98103717,14:58:30.974361,0.00534,0.00000,0.00000,-0.14226,0.00000,0.00212,-0.00019,0.00097,-0.05179,-0.11651,0.99113,3.54026,0.00000,0.00000,0.00000,-0.08915,0.09266,3.47195,-0.08915,0.09266,0.00000,0.00000,A,145830.80
3.55669,57.68832350,11.98086017,57.68837267,11.98103717,14:58:30.984814,0.00517,0.00000,0.00000,-0.14236,0.00000,-0.00108,0.00256,0.00112,-0.05124,-0.11639,0.99326,3.55092,0.00000,0.00000,0.00000,-0.08915,0.09266,3.47195,-0.08915,0.09266,0.00000,0.00000,A,145830.80
3.56729,57.68832350,11.98086017,57.68837267,11.98103717,14:58:30.995418,0.00521,0.00000,0.00000,-0.14242,0.00000,0.00441,0.00072,0.00006,-0.05209,-0.11804,0.99162,3.56126,0.00000,0.00000,0.00000,-0.08915,0.09266,3.47195,-0.08915,0.09266,0.00000,0.00000,A,145830.80
3.61031,57.68832350,11.98086017,57.68837583,11.98104767,14:58:31.038469,0.03783,0.00000,1.50000,-0.14251,0.02000,0.00090,0.00133,0.00051,-0.05045,-0.11773,0.99162,3.57195,0.00000,0.00000,0.00000,-0.08915,0.09266,3.59150,-0.08915,0.09266,0.00000,0.00000,A,145830.90
3.63081,57.68832350,11.98086017,57.68837583,11.98104767,14:58:31.058939,0.00690,0.00000,0.00000,-0.14293,0.00000,-0.00582,-0.00096,-0.00147,-0.05106,-0.11895,0.99131,3.62430,0.00000,0.00000,0.00000,-0.08915,0.09266,3.59150,-0.08915,0.09266,0.00000,0.00000,A,145830.90
3.64020,57.68832350,11.98086017,57.68837583,11.98104767,14:58:31.068327,0.00587,0.00000,0.00000,-0.14304,0.00000,-0.00231,0.00088,-0.00071,-0.05045,-0.11682,0.99223,3.63351,0.00000,0.00000,0.00000,-0.08915,0.09266,3.59150,-0.08915,0.09266,0.00000,0.00000,A,145830.90
3.64982,57.68832350,11.98086017,57.68837583,11.98104767,14:58:31.078191,0.00510,0.00000,0.00000,-0.14313,0.00000,-0.00047,-0.00050,-0.00376,-0.04959,-0.11694,0.99046,3.64410,0.00000,0.00000,0.00000,-0.08915,0.09266,3.59150,-0.08915,0.09266,0.00000,0.00000,A,145830.90
3.66033,57.68832350,11.98086017,57.68837583,11.98104767,14:58:31.088462,0.00520,0.00000,0.00000,-0.14325,0.00000,-0.00185,-0.00187,-0.00101,-0.04990,-0.11871,0.99479,3.65429,0.00000,0.00000,0.00000,-0.08915,0.09266,3.59150,-0.08915,0.09266,0.00000,0.00000,A,145830.90
3.67088,57.68832350,11.98086017,57.68837583,11.98104767,14:58:31.099009,0.00550,0.00000,0.00000,-0.14333,0.00000,-0.00139,-0.00157,-0.00071,-0.05325,-0.11608,0.99162,3.66483,0.00000,0.00000,0.00000,-0.08915,0.09266,3.59150,-0.08915,0.09266,0.00000,0.00000,A,145830.90
3.68089,57.68832350,11.98086017,57.68837583,11.98104767,14:58:31.109014,0.00510,0.00000,0.00000,-0.14341,0.00000,0.00090,-0.00111,-0.00040,-0.05039,-0.11785,0.99406,3.67514,0.00000,0.00000,0.00000,-0.08915,0.09266,3.59150,-0.08915,0.09266,0.00000,0.00000,A,145830.90
3.69150,57.68832350,11.98086017,57.68837583,11.98104767,14:58:31.119620,0.00517,0.00000,0.00000,-0.14349,0.00000,-0.00017,0.00301,0.00082,-0.05094,-0.11718,0.99094,3.68549,0.00000,0.00000,0.00000,-0.08915,0.09266,3.59150,-0.08915,0.09266,0.00000,0.00000,A,145830.90
3.71376,57.68832350,11.98086017,57.68837583,11.98104767,14:58:31.142124,0.01702,0.00000,1.50000,-0.14354,0.02000,0.00243,0.00210,0.00097,-0.05179,-0.11743,0.99302,3.69611,0.00000,0.00000,0.00000,-0.08915,0.09266,3.59150,-0.08915,0.09266,0.00000,0.00000,A,145830.90
3.74551,57.68832350,11.98086017,57.68837583,11.98104767,14:58:31.173656,0.02135,0.00000,1.50000,-0.14378,0.02000,-0.00506,-0.00019,-0.00071,-0.04953,-0.11791,0.99387,3.72569,0.00000,0.00000,0.00000,-0.08915,0.09266,3.59150,-0.08915,0.09266,0.00000,0.00000,A,145830.90
3.76958,57.68832350,11.98086017,57.68837583,11.98104767,14:58:31.198406,0.01081,0.00000,1.50000,-0.14396,0.02000,-0.00353,0.00042,-0.00285,-0.05179,-0.11645,0.99265,3.75925,0.00000,0.00000,0.00000,-0.08915,0.09266,3.59150,-0.08915,0.09266,0.00000,0.00000,A,145830.90
3.79492,57.68832350,11.98086017,57.68837583,11.98104767,14:58:31.223062,0.01103,0.00000,1.50000,-0.14405,0.02000,-0.00078,0.00195,-0.00132,-0.05063,-0.11743,0.99186,3.78422,0.00000,0.00000,0.00000,-0.08915,0.09266,3.59150,-0.08915,0.09266,0.00000,0.00000,A,145830.90
3.82760,57.68832350,11.98086017,57.68837583,11.98104767,14:58:31.255736,0.02154,0.00000,1.50000,-0.14420,0.02000,-0.00276,0.00469,-0.00330,-0.05020,-0.11804,0.99180,3.80722,0.00000,0.00000,0.00000,-0.08915,0.09266,3.59150,-0.08915,0.09266,0.00000,0.00000,A,145830.90
3.84754,57.68832350,11.98086017,57.68837583,11.98104767,14:58:31.275678,0.01207,0.00000,1.50000,-0.14437,0.02000,-0.00429,-0.00065,0.00174,-0.05136,-0.11602,0.99033,3.83646,0.00000,0.00000,0.00000,-0.08915,0.09266,3.59150,-0.08915,0.09266,0.00000,0.00000,A,145830.90
3.87258,57.68832350,11.98086017,57.68837583,11.98104767,14:58:31.300725,0.01208,0.00000,1.50000,-0.14452,0.02000,-0.00353,0.00057,-0.00254,-0.05075,-0.11657,0.98979,3.86148,0.00000,0.00000,0.00000,-0.08915,0.09266,3.59150,-0.08915,0.09266,0.00000,0.00000,A,145830.90
3.89452,57.68832350,11.98086017,57.68837583,11.98104767,14:58:31.322897,0.01208,0.00000,1.50000,-0.14467,0.02000,-0.00414,0.00393,-0.00254,-0.05240,-0.11688,0.99247,3.88355,0.00000,0.00000,0.00000,-0.08915,0.09266,3.59150,-0.08915,0.09266,0.00000,0.00000,A,145830.90
3.92733,57.68832350,11.98086017,57.68837583,11.98104767,14:58:31.355470,0.02149,0.00000,1.50000,-0.14472,0.02000,0.00136,-0.00035,-0.00224,-0.05045,-0.11871,0.99265,3.90762,0.00000,0.00000,0.00000,-0.08915,0.09266,3.59150,-0.08915,0.09266,0.00000,0.00000,A,145830.90
3.94828,57.68832350,11.98086017,57.68837583,11.98104767,14:58:31.376425,0.01206,0.00000,1.50000,-0.14481,0.02000,-0.00093,-0.00126,-0.00056,-0.05008,-0.11743,0.99101,3.93713,0.00000,0.00000,0.00000,-0.08915,0.09266,3.59150,-0.08915,0.09266,0.00000,0.00000,A,145830.90
3.97086,57.68832350,11.98086017,57.68837583,11.98104767,14:58:31.398989,0.01194,0.00000,1.50000,-0.14479,0.02000,0.00396,-0.00126,-0.00330,-0.05124,-0.11785,0.99265,3.95984,0.00000,0.00000,0.00000,-0.08915,0.09266,3.59150,-0.08915,0.09266,0.00000,0.00000,A,145830.90
3.99320,57.68832350,11.98086017,57.68837583,11.98104767,14:58:31.421328,0.01038,0.00000,1.50000,-0.14472,0.02000,0.00518,0.00088,-0.00025,-0.05209,-0.11663,0.99052,3.98399,0.00000,0.00000,0.00000,-0.08915,0.09266,3.59150,-0.08915,0.09266,0.00000,0.00000,A,145830.90
4.01590,57.68832350,11.98086017,57.68837583,11.98104767,14:58:31.444033,0.01084,0.00000,1.50000,-0.14474,0.02000,0.00273,0.00363,0.00006,-0.05252,-0.11804,0.99204,4.00575,0.00000,0.00000,0.00000,-0.08915,0.09266,3.59150,-0.08915,0.09266,0.00000,0.00000,A,145830.90
4.04117,57.68832350,11.98086017,57.68837583,11.98104767,14:58:31.469333,0.01806,0.00000,1.50000,-0.14484,0.02000,-0.00261,-0.00004,0.00082,-0.05276,-0.11718,0.99308,4.02370,0.00000,0.00000,0.00000,-0.08915,0.09266,3.59150,-0.08915,0.09266,0.00000,0.00000,A,145830.90
4.06365,57.68832350,11.98086017,57.68837583,11.98104767,14:58:31.491790,0.01194,0.00000,1.50000,-0.14492,0.02000,-0.00032,-0.00080,-0.00361,-0.05094,-0.11822,0.99198,4.05256,0.00000,0.00000,0.00000,-0.08915,0.09266,3.59150,-0.08915,0.09266,0.00000,0.00000,A,145830.90
4.08711,57.68832350,11.98086017,57.68837583,11.98104767,14:58:31.515259,0.01202,0.00000,1.50000,-0.14492,0.02000,0.00243,-0.00050,-0.00071,-0.05161,-0.11688,0.99186,4.07607,0.00000,0.00000,0.00000,-0.08915,0.09266,3.59150,-0.08915,0.09266,0.00000,0.00000,A,145830.90
4.10909,57.68832350,11.98086017,57.68837583,11.98104767,14:58:31.537237,0.01196,0.00000,1.50000,-0.14513,0.02000,-0.00506,0.00256,0.00036,-0.04795,-0.12023,0.99235,4.09809,0.00000,0.00000,0.00000,-0.08915,0.09266,3.59150,-0.08915,0.09266,0.00000,0.00000,A,145830.90
4.14127,57.68832350,11.98086017,57.68837583,11.98104767,14:58:31.569411,0.02133,0.00000,1.50000,-0.14512,0.02000,0.00182,-0.00172,-0.00208,-0.05258,-0.11578,0.99241,4.12116,0.00000,0.00000,0.00000,-0.08915,0.09266,3.59150,-0.08915,0.09266,0.00000,0.00000,A,145830.90
4.16420,57.68832350,11.98086017,57.68837583,11.98104767,14:58:31.592328,0.01284,0.00000,1.50000,-0.14519,0.02000,0.00075,0.00027,-0.00239,-0.05130,-0.11925,0.99040,4.15312,0.00000,0.00000,0.00000,-0.08915,0.09266,3.59150,-0.08915,0.09266,0.00000,0.00000,A,145830.90
4.18953,57.68832350,11.98086017,57.68837583,11.98104767,14:58:31.617663,0.01309,0.00000,1.50000,-0.14530,0.02000,-0.00261,0.00195,0.00250,-0.05234,-0.11718,0.99369,4.17882,0.00000,0.00000,0.00000,-0.08915,0.09266,3.59150,-0.08915,0.09266,0.00000,0.00000,A,145830.90
4.21215,57.68832350,11.98086017,57.68837583,11.98104767,14:58:31.640811,0.01183,0.00000,1.50000,-0.14536,0.02000,-0.00108,0.00256,0.00051,-0.05045,-0.11639,0.99320,4.20147,0.00000,0.00000,0.00000,-0.08915,0.09266,3.59150,-0.08915,0.09266,0.00000,0.00000,A,145830.90
4.24465,57.68832350,11.98086017,57.68837583,11.98104767,14:58:31.672788,0.02126,0.00000,1.50000,-0.14554,0.02000,-0.00368,0.00027,0.00082,-0.05100,-0.11986,0.99284,4.22430,0.00000,0.00000,0.00000,-0.08915,0.09266,3.59150,-0.08915,0.09266,0.00000,0.00000,A,145830.90
4.26792,57.68832350,11.98086017,57.68837583,11.98104767,14:58:31.696053,0.01130,0.00000,1.50000,-0.14569,0.02000,-0.00338,0.00363,-0.00117,-0.05295,-0.11712,0.99277,4.25685,0.00000,0.00000,0.00000,-0.08915,0.09266,3.59150,-0.08915,0.09266,0.00000,0.00000,A,145830.90
4.29243,57.68832350,11.98086017,57.68837583,11.98104767,14:58:31.720562,0.01137,0.00000,1.50000,-0.14579,0.02000,-0.00078,0.00057,-0.00208,-0.05246,-0.11944,0.99174,4.28133,0.00000,0.00000,0.00000,-0.08915,0.09266,3.59150,-0.08915,0.09266,0.00000,0.00000,A,145830.90
4.31305,57.68832350,11.98086017,57.68837583,11.98104767,14:58:31.741189,0.01182,0.00000,1.50000,-0.14588,0.02000,-0.00078,0.00271,0.00006,-0.05197,-0.11925,0.99143,4.30279,0.00000,0.00000,0.00000,-0.08915,0.09266,3.59150,-0.08915,0.09266,0.00000,0.00000,A,145830.90
4.36180,57.68832350,11.98086017,57.68839033,11.98109017,14:58:31.790761,0.03739,0.00000,1.50000,-0.14589,0.02000,0.00273,0.00057,-0.00178,-0.04923,-0.11858,0.99284,4.32394,0.00000,0.00000,0.00000,-0.08915,0.09266,4.34555,-0.08915,0.09266,0.00000,0.00000,A,145831.70
4.38237,57.68832350,11.98086017,57.68839033,11.98109017,14:58:31.810507,0.00743,0.00000,0.00000,-0.14599,0.00000,-0.00139,0.00118,-0.00086,-0.05228,-0.11682,0.99259,4.37634,0.00000,0.00000,0.00000,-0.08915,0.09266,4.34555,-0.08915,0.09266,0.00000,0.00000,A,145831.70
4.39073,57.68832350,11.98086017,57.68839033,11.98109017,14:58:31.818853,0.00539,0.00000,0.00000,-0.14603,0.00000,0.00182,-0.00065,0.00021,-0.05014,-0.11761,0.99009,4.38471,0.00000,0.00000,0.00000,-0.08915,0.09266,4.34555,-0.08915,0.09266,0.00000,0.00000,A,145831.70
4.40107,57.68832350,11.98086017,57.68839033,11.98109017,14:58:31.829197,0.00533,0.00000,0.00000,-0.14606,0.00000,0.00319,0.00347,-0.00086,-0.05057,-0.11846,0.99216,4.39531,0.00000,0.00000,0.00000,-0.08915,0.09266,4.34555,-0.08915,0.09266,0.00000,0.00000,A,145831.70
4.41148,57.68832350,11.98086017,57.68839033,11.98109017,14:58:31.839608,0.00519,0.00000,0.00000,-0.14608,0.00000,0.00151,0.00256,-0.00498,-0.05161,-0.11724,0.99216,4.40546,0.00000,0.00000,0.00000,-0.08915,0.09266,4.34555,-0.08915,0.09266,0.00000,0.00000,A,145831.70
4.42268,57.68832350,11.98086017,57.68839033,11.98109017,14:58:31.850829,0.00599,0.00000,0.00000,-0.14611,0.00000,0.00136,-0.00050,-0.00056,-0.04996,-0.11743,0.99290,4.41606,0.00000,0.00000,0.00000,-0.08915,0.09266,4.34555,-0.08915,0.09266,0.00000,0.00000,A,145831.70
4.43282,57.68832350,11.98086017,57.68839033,11.98109017,14:58:31.860944,0.00573,0.00000,0.00000,-0.14607,0.00000,0.00273,0.00271,-0.00086,-0.05100,-0.11383,0.99375,4.42702,0.00000,0.00000,0.00000,-0.08915,0.09266,4.34555,-0.08915,0.09266,0.00000,0.00000,A,145831.70
4.44290,57.68832350,11.98086017,57.68839033,11.98109017,14:58:31.871020,0.00541,0.00000,0.00000,-0.14610,0.00000,0.00075,-0.00264,0.00280,-0.04947,-0.11755,0.99192,4.43686,0.00000,0.00000,0.00000,-0.08915,0.09266,4.34555,-0.08915,0.09266,0.00000,0.00000,A,145831.70
4.48452,57.68832350,11.98086017,57.68839400,11.98111400,14:58:31.913368,0.03664,0.00000,1.50000,-0.14614,0.02000,0.00075,0.00133,-0.00132,-0.05240,-0.11730,0.99357,4.44723,0.00000,0.00000,0.00000,-0.08915,0.09266,4.46660,-0.08915,0.09266,0.00000,0.00000,A,145831.80
4.50031,57.68832350,11.98086017,57.68839400,11.98111400,14:58:31.928435,0.00784,0.00000,0.00000,-0.14617,0.00000,-0.00047,0.00027,0.00097,-0.05289,-0.11553,0.99162,4.49365,0.00000,0.00000,0.00000,-0.08915,0.09266,4.46660,-0.08915,0.09266,0.00000,0.00000,A,145831.80
4.50786,57.68832350,11.98086017,57.68839400,11.98111400,14:58:31.935992,0.00516,0.00000,0.00000,-0.14622,0.00000,-0.00063,-0.00401,-0.00071,-0.05258,-0.11755,0.99418,4.50188,0.00000,0.00000,0.00000,-0.08915,0.09266,4.46660,-0.08915,0.09266,0.00000,0.00000,A,145831.80
4.51861,57.68832350,11.98086017,57.68839400,11.98111400,14:58:31.946738,0.00538,0.00000,0.00000,-0.14628,0.00000,-0.00063,0.00256,-0.00208,-0.05246,-0.11877,0.99277,4.51262,0.00000,0.00000,0.00000,-0.08915,0.09266,4.46660,-0.08915,0.09266,0.00000,0.00000,A,145831.80
4.52931,57.68832350,11.98086017,57.68839400,11.98111400,14:58:31.957443,0.00568,0.00000,0.00000,-0.14629,0.00000,0.00182,0.00301,-0.00025,-0.05258,-0.11621,0.99192,4.52358,0.00000,0.00000,0.00000,-0.08915,0.09266,4.46660,-0.08915,0.09266,0.00000,0.00000,A,145831.80
4.53939,57.68832350,11.98086017,57.68839400,11.98111400,14:58:31.967518,0.00521,0.00000,0.00000,-0.14636,0.00000,-0.00383,0.00057,0.00051,-0.04917,-0.11706,0.99210,4.53336,0.00000,0.00000,0.00000,-0.08915,0.09266,4.46660,-0.08915,0.09266,0.00000,0.00000,A,145831.80
4.54969,57.68832350,11.98086017,57.68839400,11.98111400,14:58:31.977813,0.00511,0.00000,0.00000,-0.14638,0.00000,-0.00170,0.00011,-0.00300,-0.05106,-0.11492,0.99216,4.54395,0.00000,0.00000,0.00000,-0.08915,0.09266,4.46660,-0.08915,0.09266,0.00000,0.00000,A,145831.80
4.56012,57.68832350,11.98086017,57.68839400,11.98111400,14:58:31.988246,0.00514,0.00000,0.00000,-0.14637,0.00000,0.00243,0.00332,-0.00254,-0.05179,-0.11608,0.99174,4.55413,0.00000,0.00000,0.00000,-0.08915,0.09266,4.46660,-0.08915,0.09266,0.00000,0.00000,A,145831.80
4.60240,57.68832350,11.98086017,57.68840017,11.98112850,14:58:32.030566,0.03701,0.00000,1.50000,-0.14635,0.02000,0.00334,-0.00050,0.00067,-0.04904,-0.11608,0.99326,4.56490,0.00000,0.00000,0.00000,-0.08915,0.09266,4.58427,-0.08915,0.09266,0.00000,0.00000,A,145831.90
4.61921,57.68832350,11.98086017,57.68840017,11.98112850,14:58:32.047329,0.00714,0.00000,0.00000,-0.14644,0.00000,-0.00063,-0.00065,-0.00010,-0.05130,-0.11828,0.99076,4.61293,0.00000,0.00000,0.00000,-0.08915,0.09266,4.58427,-0.08915,0.09266,0.00000,0.00000,A,145831.90
4.62841,57.68832350,11.98086017,57.68840017,11.98112850,14:58:32.056545,0.00602,0.00000,0.00000,-0.14649,0.00000,-0.00032,0.00592,-0.00330,-0.04965,-0.11858,0.99290,4.62157,0.00000,0.00000,0.00000,-0.08915,0.09266,4.58427,-0.08915,0.09266,0.00000,0.00000,A,145831.90
4.63875,57.68832350,11.98086017,57.68840017,11.98112850,14:58:32.066882,0.00597,0.00000,0.00000,-0.14651,0.00000,0.00243,0.00240,0.00311,-0.04978,-0.11828,0.99479,4.63271,0.00000,0.00000,0.00000,-0.08915,0.09266,4.58427,-0.08915,0.09266,0.00000,0.00000,A,145831.90
4.64830,57.68832350,11.98086017,57.68840017,11.98112850,14:58:32.076421,0.00512,0.00000,0.00000,-0.14662,0.00000,-0.00704,0.00133,-0.00285,-0.04941,-0.11773,0.99046,4.64233,0.00000,0.00000,0.00000,-0.08915,0.09266,4.58427,-0.08915,0.09266,0.00000,0.00000,A,145831.90
4.65897,57.68832350,11.98086017,57.68840017,11.98112850,14:58:32.087097,0.00539,0.00000,0.00000,-0.14660,0.00000,0.00319,0.00057,0.00006,-0.05155,-0.11596,0.99387,4.65295,0.00000,0.00000,0.00000,-0.08915,0.09266,4.58427,-0.08915,0.09266,0.00000,0.00000,A,145831.90
4.66908,57.68832350,11.98086017,57.68840017,11.98112850,14:58:32.097197,0.00509,0.00000,0.00000,-0.14669,0.00000,-0.00475,-0.00019,-0.00101,-0.05130,-0.11785,0.99131,4.66334,0.00000,0.00000,0.00000,-0.08915,0.09266,4.58427,-0.08915,0.09266,0.00000,0.00000,A,145831.90
4.67953,57.68832350,11.98086017,57.68840017,11.98112850,14:58:32.107653,0.00520,0.00000,0.00000,-0.14673,0.00000,-0.00047,0.00179,0.00082,-0.04935,-0.11736,0.99241,4.67350,0.00000,0.00000,0.00000,-0.08915,0.09266,4.58427,-0.08915,0.09266,0.00000,0.00000,A,145831.90
4.71552,57.68832350,11.98086017,57.68840567,11.98114400,14:58:32.144354,0.03079,0.00000,1.50000,-0.14676,0.02000,0.00258,0.00072,-0.00117,-0.05081,-0.11938,0.99326,4.68411,0.00000,0.00000,0.00000,-0.08915,0.09266,4.70404,-0.08915,0.09266,0.00000,0.00000,A,145832.00
4.73436,57.68832350,11.98086017,57.68840567,11.98114400,14:58:32.162496,0.00761,0.00000,0.00000,-0.14701,0.00000,-0.00460,0.00286,0.00006,-0.05258,-0.11810,0.99137,4.72833,0.00000,0.00000,0.00000,-0.08915,0.09266,4.70404,-0.08915,0.09266,0.00000,0.00000,A,145832.00
4.74306,57.68832350,11.98086017,57.68840567,11.98114400,14:58:32.171189,0.00591,0.00000,0.00000,-0.14711,0.00000,-0.00292,0.00347,-0.00117,-0.05130,-0.12035,0.99186,4.73703,0.00000,0.00000,0.00000,-0.08915,0.09266,4.70404,-0.08915,0.09266,0.00000,0.00000,A,145832.00
4.75267,57.68832350,11.98086017,57.68840567,11.98114400,14:58:32.180788,0.00512,0.00000,0.00000,-0.14719,0.00000,-0.00261,0.00271,-0.00162,-0.05283,-0.11932,0.99265,4.74691,0.00000,0.00000,0.00000,-0.08915,0.09266,4.70404,-0.08915,0.09266,0.00000,0.00000,A,145832.00
4.76335,57.68832350,11.98086017,57.68840567,11.98114400,14:58:32.191476,0.00523,0.00000,0.00000,-0.14724,0.00000,-0.00154,0.00179,0.00112,-0.05191,-0.11840,0.99162,4.75730,0.00000,0.00000,0.00000,-0.08915,0.09266,4.70404,-0.08915,0.09266,0.00000,0.00000,A,145832.00
4.77364,57.68832350,11.98086017,57.68840567,11.98114400,14:58:32.201767,0.00512,0.00000,0.00000,-0.14727,0.00000,-0.00139,0.00118,-0.00040,-0.05161,-0.11657,0.99247,4.76789,0.00000,0.00000,0.00000,-0.08915,0.09266,4.70404,-0.08915,0.09266,0.00000,0.00000,A,145832.00
4.78407,57.68832350,11.98086017,57.68840567,11.98114400,14:58:32.212193,0.00514,0.00000,0.00000,-0.14731,0.00000,-0.00246,0.00072,0.00051,-0.05270,-0.11669,0.99119,4.77807,0.00000,0.00000,0.00000,-0.08915,0.09266,4.70404,-0.08915,0.09266,0.00000,0.00000,A,145832.00
4.79470,57.68832350,11.98086017,57.68840567,11.98114400,14:58:32.222829,0.00538,0.00000,0.00000,-0.14734,0.00000,-0.00078,0.00195,-0.00086,-0.05051,-0.11712,0.99259,4.78871,0.00000,0.00000,0.00000,-0.08915,0.09266,4.70404,-0.08915,0.09266,0.00000,0.00000,A,145832.00
4.82385,57.68832350,11.98086017,57.68840567,11.98114400,14:58:32.251985,0.02412,0.00000,1.50000,-0.14740,0.02000,-0.00399,-0.00080,-0.00239,-0.05100,-0.11682,0.99070,4.79908,0.00000,0.00000,0.00000,-0.08915,0.09266,4.70404,-0.08915,0.09266,0.00000,0.00000,A,145832.00
4.84374,57.68832350,11.98086017,57.68840567,11.98114400,14:58:32.271891,0.01031,0.00000,1.50000,-0.14735,0.02000,0.00197,0.00118,0.00219,-0.05075,-0.11651,0.98930,4.83341,0.00000,0.00000,0.00000,-0.08915,0.09266,4.70404,-0.08915,0.09266,0.00000,0.00000,A,145832.00
4.86526,57.68832350,11.98086017,57.68840567,11.98114400,14:58:32.293396,0.01238,0.00000,1.50000,-0.14737,0.02000,0.00182,-0.00004,0.00036,-0.05283,-0.11962,0.98997,4.85342,0.00000,0.00000,0.00000,-0.08915,0.09266,4.70404,-0.08915,0.09266,0.00000,0.00000,A,145832.00
4.88522,57.68832350,11.98086017,57.68840567,11.98114400,14:58:32.313359,0.01064,0.00000,1.50000,-0.14736,0.02000,0.00166,0.00576,0.00219,-0.05057,-0.11779,0.99308,4.87497,0.00000,0.00000,0.00000,-0.08915,0.09266,4.70404,-0.08915,0.09266,0.00000,0.00000,A,145832.00
4.90489,57.68832350,11.98086017,57.68840567,11.98114400,14:58:32.333019,0.01015,0.00000,1.50000,-0.14741,0.02000,-0.00002,-0.00264,0.00235,-0.05106,-0.11858,0.99052,4.89561,0.00000,0.00000,0.00000,-0.08915,0.09266,4.70404,-0.08915,0.09266,0.00000,0.00000,A,145832.00
4.93488,57.68832350,11.98086017,57.68840567,11.98114400,14:58:32.363021,0.01995,0.00000,1.50000,-0.14736,0.02000,0.00350,0.00393,-0.00300,-0.05173,-0.11755,0.99265,4.91632,0.00000,0.00000,0.00000,-0.08915,0.09266,4.70404,-0.08915,0.09266,0.00000,0.00000,A,145832.00
4.95371,57.68832350,11.98086017,57.68840567,11.98114400,14:58:32.382080,0.01251,0.00000,1.50000,-0.14743,0.02000,-0.00276,-0.00157,-0.00086,-0.05417,-0.11578,0.99308,4.94283,0.00000,0.00000,0.00000,-0.08915,0.09266,4.70404,-0.08915,0.09266,0.00000,0.00000,A,145832.00
4.97371,57.68832350,11.98086017,57.68840567,11.98114400,14:58:32.402079,0.01200,0.00000,1.50000,-0.14741,0.02000,0.00197,-0.00096,0.00006,-0.05209,-0.11724,0.99265,4.96280,0.00000,0.00000,0.00000,-0.08915,0.09266,4.70404,-0.08915,0.09266,0.00000,0.00000,A,145832.00
4.99647,57.68832350,11.98086017,57.68840567,11.98114400,14:58:32.424618,0.01214,0.00000,1.50000,-0.14747,0.02000,-0.00124,0.00149,-0.00193,-0.05337,-0.11791,0.99204,4.98583,0.00000,0.00000,0.00000,-0.08915,0.09266,4.70404,-0.08915,0.09266,0.00000,0.00000,A,145832.00
5.01651,57.68832350,11.98086017,57.68840567,11.98114400,14:58:32.444640,0.01123,0.00000,1.50000,-0.14741,0.02000,0.00350,0.00210,-0.00086,-0.05033,-0.11669,0.99210,5.00616,0.00000,0.00000,0.00000,-0.08915,0.09266,4.70404,-0.08915,0.09266,0.00000,0.00000,A,145832.00
5.05622,57.68832350,11.98086017,57.68840567,11.98114400,14:58:32.484395,0.02711,0.00000,1.50000,0.00000,0.02000,-0.00200,-0.00203,0.00326,-0.05124,-0.11743,0.99107,5.03009,1.50000,2.32469,2.33690,-0.08915,0.09266,4.70404,-0.08915,0.09266,0.00000,0.00000,A,145832.00
5.12391,57.68832382,11.98085959,57.68840567,11.98114400,14:58:32.552028,0.05870,0.00000,0.00000,-0.00230,-1.65295,-0.00185,-0.00279,-0.00300,-0.05100,-0.11767,0.99180,5.06645,1.20000,1.76127,3.19805,-0.12327,0.12812,4.70404,-0.08915,0.09266,0.00000,0.00000,A,145832.00
