Time,lat_estimated,lon_estimated,latitude,longitude,RealTime,CalculationTime,MeasuredVelocity,Roll,SteeringAngle,RollRate,gy,gz,ax,ay,az,imu_read_timing,v_estimated,yaw_estimated,heading_estimated,x_estimated,y_estimated,GPS_timestamp,x_GPS,y_GPS,status,NMEA timestamp
0.04920,57.68800467,11.98126820,57.68800283,11.98126817,11:23:34.268579,0.04920,0.04914,0.00000,-0.00025,0.06263,0.02192,0.00640,-0.02397,-0.03355,0.90707,0.00001,0.00000,0.03142,0.03768,0.00198,0.20386,0.01488,0.01981,2.03857,A,112334.10
0.06648,57.68800632,11.98126823,57.68800283,11.98126817,11:23:34.285155,0.06648,0.00571,0.00000,0.00121,0.04155,-0.01871,-0.01452,0.06881,-0.04337,0.87663,0.06145,0.00000,0.06246,0.06887,0.00376,0.38733,0.01488,0.01981,2.03857,A,112334.10
0.07552,57.68800780,11.98126826,57.68800283,11.98126817,11:23:34.294183,0.07552,0.00435,0.00000,0.00098,0.03621,-0.03764,-0.01452,-0.06521,-0.01360,0.89560,0.07083,0.00000,0.09318,0.09959,0.00537,0.55245,0.01488,0.01981,2.03857,A,112334.10
0.08586,57.68800914,11.98126828,57.68800283,11.98126817,11:23:34.304532,0.08586,0.00445,0.00000,0.00077,0.04094,-0.03214,-0.01590,-0.17489,-0.01836,0.96526,0.08089,0.00000,0.12360,0.13001,0.00681,0.70107,0.01488,0.01981,2.03857,A,112334.10
0.09610,57.68801034,11.98126830,57.68800283,11.98126817,11:23:34.314758,0.09610,0.00429,0.00000,-0.00010,0.04552,-0.00313,-0.01513,-0.13505,-0.06850,1.00967,0.09143,0.00000,0.15372,0.16013,0.00811,0.83482,0.01488,0.01981,2.03857,A,112334.10
0.10661,57.68801142,11.98126832,57.68800283,11.98126817,11:23:34.325278,0.10661,0.00441,0.00000,-0.00108,0.04415,0.01947,-0.01254,-0.00708,-0.07674,1.03578,0.10165,0.00000,0.18353,0.18994,0.00928,0.95519,0.01488,0.01981,2.03857,A,112334.10
0.12981,57.68801241,11.98126834,57.68800300,11.98126817,11:23:34.348474,0.12981,0.01721,0.00000,-0.00168,0.04369,0.01856,-0.00414,0.06863,-0.05118,1.01736,0.11223,0.00000,0.21305,0.21946,0.01034,1.06538,0.12676,0.01981,2.05711,A,112334.20
0.14683,57.68801331,11.98126836,57.68800300,11.98126817,11:23:34.365508,0.14683,0.00785,0.00000,-0.00010,0.05163,-0.01962,0.01114,-0.12706,0.02995,0.99991,0.14011,0.00000,0.24227,0.24868,0.01128,1.16456,0.12676,0.01981,2.05711,A,112334.20
0.15366,57.68801411,11.98126837,57.68800300,11.98126817,11:23:34.372324,0.15366,0.00444,0.00000,-0.00042,0.05438,-0.01076,0.00991,-0.09309,-0.03129,0.99997,0.14870,0.00000,0.27120,0.27761,0.01214,1.25381,0.12676,0.01981,2.05711,A,112334.20
0.16393,57.68801483,11.98126838,57.68800300,11.98126817,11:23:34.382596,0.16393,0.00432,0.00000,-0.00123,0.05453,-0.00649,0.00701,-0.00836,-0.07100,0.99759,0.15925,0.00000,0.29984,0.30625,0.01290,1.33414,0.12676,0.01981,2.05711,A,112334.20
0.17465,57.68801548,11.98126840,57.68800300,11.98126817,11:23:34.393316,0.17465,0.00440,0.00000,-0.00191,0.05011,-0.00756,-0.00032,0.03733,-0.05917,0.99290,0.16970,0.00000,0.32819,0.33460,0.01360,1.40644,0.12676,0.01981,2.05711,A,112334.20
0.18519,57.68801607,11.98126841,57.68800300,11.98126817,11:23:34.403864,0.18519,0.00455,0.00000,-0.00242,0.04216,-0.01031,-0.00169,-0.08906,-0.04538,1.01955,0.18027,0.00000,0.35626,0.36267,0.01422,1.47150,0.12676,0.01981,2.05711,A,112334.20
0.19538,57.68801659,11.98126842,57.68800300,11.98126817,11:23:34.414044,0.19538,0.00435,0.00000,-0.00249,0.03590,0.00649,0.00533,-0.16958,-0.01049,1.01626,0.19069,0.00000,0.38405,0.39046,0.01478,1.53006,0.12676,0.01981,2.05711,A,112334.20
0.20578,57.68801707,11.98126842,57.68800300,11.98126817,11:23:34.424447,0.20578,0.00443,0.00000,-0.00300,0.03697,0.02253,0.00197,-0.13060,-0.03983,0.98753,0.20082,0.00000,0.41156,0.41797,0.01528,1.58277,0.12676,0.01981,2.05711,A,112334.20
0.21608,57.68801749,11.98126843,57.68800300,11.98126817,11:23:34.434745,0.21608,0.00434,0.00000,-0.00309,0.03163,0.02772,0.00228,0.00354,-0.00891,0.94892,0.21139,0.00000,0.43880,0.44521,0.01573,1.63020,0.12676,0.01981,2.05711,A,112334.20
0.22655,57.68801788,11.98126844,57.68800300,11.98126817,11:23:34.445217,0.22655,0.00442,0.00000,-0.00313,0.03071,0.01153,-0.00108,0.03569,-0.00506,0.94892,0.22158,0.00000,0.46576,0.47217,0.01614,1.67289,0.12676,0.01981,2.05711,A,112334.20
0.26161,57.68801836,11.98126833,57.68800433,11.98126700,11:23:34.480284,0.26161,0.02908,0.00000,-0.00279,0.03270,-0.00725,-0.00368,-0.01787,0.01751,0.98265,0.23217,0.00000,0.49246,0.49887,0.00957,1.72614,0.25854,-0.04953,2.20537,A,112334.40
0.27174,57.68801879,11.98126823,57.68800433,11.98126700,11:23:34.490415,0.27174,0.00444,0.00000,-0.00318,0.02903,0.01443,-0.00307,0.02611,-0.07503,1.00699,0.26702,0.00000,0.51888,0.52530,0.00366,1.77406,0.25854,-0.04953,2.20537,A,112334.40
0.28201,57.68801918,11.98126814,57.68800433,11.98126700,11:23:34.500673,0.28201,0.00448,0.00000,-0.00364,0.02109,-0.00695,-0.00154,0.05161,-0.02702,1.02187,0.27702,0.00000,0.54505,0.55146,-0.00166,1.81719,0.25854,-0.04953,2.20537,A,112334.40
0.29228,57.68801952,11.98126806,57.68800433,11.98126700,11:23:34.510940,0.29228,0.00435,0.00000,-0.00343,0.02445,-0.02756,0.00533,-0.02593,0.01470,1.03188,0.28759,0.00000,0.57095,0.57737,-0.00644,1.85601,0.25854,-0.04953,2.20537,A,112334.40
0.30271,57.68801984,11.98126799,57.68800433,11.98126700,11:23:34.521372,0.30271,0.00440,0.00000,-0.00351,0.03682,-0.02711,0.00839,-0.09955,-0.01226,0.99601,0.29776,0.00000,0.59659,0.60302,-0.01075,1.89095,0.25854,-0.04953,2.20537,A,112334.40
0.31325,57.68802012,11.98126792,57.68800433,11.98126700,11:23:34.531927,0.31325,0.00454,0.00000,-0.00414,0.03850,-0.01321,0.00976,-0.07875,-0.04801,0.94068,0.30834,0.00000,0.62198,0.62843,-0.01463,1.92239,0.25854,-0.04953,2.20537,A,112334.40
0.32483,57.68802038,11.98126786,57.68800433,11.98126700,11:23:34.543756,0.32483,0.00535,0.00000,-0.00499,0.03376,-0.01000,0.00610,-0.02080,-0.06124,0.92751,0.32011,0.00000,0.64711,0.65359,-0.01812,1.95069,0.25854,-0.04953,2.20537,A,112334.40
0.33417,57.68802061,11.98126781,57.68800433,11.98126700,11:23:34.552831,0.33417,0.00445,0.00000,-0.00579,0.02307,-0.01611,0.00900,-0.04252,-0.04904,0.95294,0.32919,0.00000,0.67199,0.67851,-0.02126,1.97615,0.25854,-0.04953,2.20537,A,112334.40
0.34483,57.68802081,11.98126776,57.68800433,11.98126700,11:23:34.563750,0.34483,0.00472,0.00000,-0.00571,0.03041,-0.01306,0.00610,-0.05569,-0.00098,0.99235,0.34013,0.00000,0.69662,0.70319,-0.02409,1.99907,0.25854,-0.04953,2.20537,A,112334.40
0.35490,57.68802100,11.98126772,57.68800433,11.98126700,11:23:34.573556,0.35490,0.00439,0.00000,-0.00566,0.02643,-0.01977,0.00243,-0.04349,0.00177,1.00857,0.34996,0.00000,0.72100,0.72762,-0.02663,2.01970,0.25854,-0.04953,2.20537,A,112334.40
0.37779,57.68802121,11.98126761,57.68800483,11.98126633,11:23:34.596459,0.37779,0.01673,0.00000,-0.00594,0.02643,-0.01321,0.00121,-0.02489,-0.02190,1.01126,0.36053,0.00000,0.74514,0.75181,-0.03288,2.04383,0.37491,-0.08916,2.26096,A,112334.50
0.39340,57.68802141,11.98126752,57.68800483,11.98126633,11:23:34.612077,0.39340,0.00680,0.00000,-0.00588,0.01483,-0.00878,-0.00551,-0.08058,-0.00823,0.99418,0.38839,0.00000,0.76904,0.77575,-0.03851,2.06554,0.37491,-0.08916,2.26096,A,112334.50
0.40164,57.68802158,11.98126743,57.68800483,11.98126633,11:23:34.620310,0.40164,0.00448,0.00000,-0.00613,0.01361,-0.00145,-0.00612,-0.11102,-0.00915,1.01498,0.39664,0.00000,0.79270,0.79941,-0.04358,2.08509,0.37491,-0.08916,2.26096,A,112334.50
0.41189,57.68802174,11.98126736,57.68800483,11.98126633,11:23:34.630545,0.41189,0.00434,0.00000,-0.00651,0.01223,0.01382,-0.00795,-0.02934,-0.01830,1.00199,0.40721,0.00000,0.81612,0.82283,-0.04813,2.10267,0.37491,-0.08916,2.26096,A,112334.50
0.42238,57.68802189,11.98126729,57.68800483,11.98126633,11:23:34.641043,0.42238,0.00444,0.00000,-0.00732,0.00933,0.00512,-0.00536,0.01299,-0.04569,0.98857,0.41739,0.00000,0.83931,0.84602,-0.05224,2.11850,0.37491,-0.08916,2.26096,A,112334.50
0.43269,57.68802201,11.98126723,57.68800483,11.98126633,11:23:34.651590,0.43269,0.00436,0.00000,-0.00768,0.00490,-0.01168,-0.00169,0.00933,-0.01348,1.01083,0.42800,0.00000,0.86226,0.86898,-0.05593,2.13275,0.37491,-0.08916,2.26096,A,112334.50
0.44357,57.68802213,11.98126717,57.68800483,11.98126633,11:23:34.662241,0.44357,0.00484,0.00000,-0.00777,0.00231,-0.01947,0.00136,-0.06539,0.00586,1.03999,0.43819,0.00000,0.88499,0.89170,-0.05925,2.14557,0.37491,-0.08916,2.26096,A,112334.50
0.45382,57.68802223,11.98126712,57.68800483,11.98126633,11:23:34.672483,0.45382,0.00457,0.00000,-0.00785,0.01452,-0.01000,0.00106,-0.10382,-0.00238,1.04584,0.44886,0.00000,0.90749,0.91420,-0.06224,2.15711,0.37491,-0.08916,2.26096,A,112334.50
0.46398,57.68802233,11.98126707,57.68800483,11.98126633,11:23:34.682634,0.46398,0.00432,0.00000,-0.00862,0.01223,0.00115,-0.00322,-0.02928,-0.04654,1.00473,0.45929,0.00000,0.92976,0.93648,-0.06493,2.16749,0.37491,-0.08916,2.26096,A,112334.50
0.47449,57.68802241,11.98126703,57.68800483,11.98126633,11:23:34.693145,0.47449,0.00444,0.00000,-0.00994,0.00017,-0.00511,-0.00017,0.01415,-0.07448,0.97722,0.46950,0.00000,0.95181,0.95853,-0.06736,2.17684,0.37491,-0.08916,2.26096,A,112334.50
0.49789,57.68802257,11.98126695,57.68800567,11.98126583,11:23:34.716552,0.49789,0.01745,0.00000,-0.01093,-0.00533,-0.02176,-0.00230,0.00787,-0.04868,0.95685,0.48008,0.00000,0.97365,0.98036,-0.07251,2.19452,0.49500,-0.11887,2.35363,A,112334.60
0.50779,57.68802271,11.98126687,57.68800567,11.98126583,11:23:34.726445,0.50779,0.00443,0.00000,-0.01078,-0.00518,-0.02207,-0.00169,-0.12548,0.02800,0.99711,0.50308,0.00000,0.99526,1.00197,-0.07714,2.21043,0.49500,-0.11887,2.35363,A,112334.60
0.51805,57.68802284,11.98126680,57.68800567,11.98126583,11:23:34.736720,0.51805,0.00448,0.00000,-0.01108,0.00093,-0.00420,0.00136,-0.07241,-0.01068,1.00827,0.51308,0.00000,1.01665,1.02337,-0.08132,2.22475,0.49500,-0.11887,2.35363,A,112334.60
0.52992,57.68802296,11.98126674,57.68800567,11.98126583,11:23:34.748590,0.52992,0.00569,0.00000,-0.01204,0.00063,-0.00114,-0.00032,0.03215,-0.05453,0.99942,0.52489,0.00000,1.03784,1.04456,-0.08507,2.23764,0.49500,-0.11887,2.35363,A,112334.60
0.53917,57.68802306,11.98126668,57.68800567,11.98126583,11:23:34.757835,0.53917,0.00454,0.00000,-0.01303,-0.00365,-0.01168,0.00930,-0.02397,-0.05520,0.99997,0.53426,0.00000,1.05881,1.06553,-0.08845,2.24924,0.49500,-0.11887,2.35363,A,112334.60
0.54950,57.68802316,11.98126663,57.68800567,11.98126583,11:23:34.768166,0.54950,0.00463,0.00000,-0.01328,-0.01541,-0.01962,0.00472,-0.10687,0.00232,1.03175,0.54453,0.00000,1.07957,1.08631,-0.09149,2.25968,0.49500,-0.11887,2.35363,A,112334.60
0.55959,57.68802324,11.98126658,57.68800567,11.98126583,11:23:34.778253,0.55959,0.00433,0.00000,-0.01308,-0.00655,-0.01412,0.00548,-0.09065,0.02696,1.06140,0.55490,0.00000,1.10012,1.10692,-0.09423,2.26907,0.49500,-0.11887,2.35363,A,112334.60
0.56998,57.68802332,11.98126654,57.68800567,11.98126583,11:23:34.788642,0.56998,0.00448,0.00000,-0.01324,-0.00105,-0.01367,0.00411,-0.01745,-0.00201,1.05079,0.56500,0.00000,1.12047,1.12733,-0.09670,2.27753,0.49500,-0.11887,2.35363,A,112334.60
0.58023,57.68802338,11.98126650,57.68800567,11.98126583,11:23:34.798890,0.58023,0.00433,0.00000,-0.01418,-0.00640,-0.02191,0.00762,0.03361,-0.04941,0.97978,0.57554,0.00000,1.14061,1.14757,-0.09891,2.28514,0.49500,-0.11887,2.35363,A,112334.60
0.59073,57.68802345,11.98126647,57.68800567,11.98126583,11:23:34.809393,0.59073,0.00444,0.00000,-0.01508,-0.01480,-0.03474,0.00976,-0.05459,-0.04166,0.95477,0.58575,0.00000,1.16055,1.16762,-0.10091,2.29199,0.49500,-0.11887,2.35363,A,112334.60
0.61355,57.68802357,11.98126637,57.68800633,11.98126517,11:23:34.832212,0.61355,0.01686,0.00000,-0.01584,-0.01846,-0.03199,0.00655,-0.10602,-0.02995,0.94007,0.59631,0.00000,1.18029,1.18748,-0.10667,2.30556,0.61069,-0.15850,2.42776,A,112334.70
0.62862,57.68802368,11.98126628,57.68800633,11.98126517,11:23:34.847548,0.62862,0.00591,0.85624,-0.01675,-0.02793,0.00206,0.00671,-0.03392,-0.00305,0.99332,0.62389,0.08562,1.19983,1.20718,-0.11185,2.31778,0.61069,-0.15850,2.42776,A,112334.70
0.63768,57.68802378,11.98126621,57.68800633,11.98126517,11:23:34.856351,0.63768,0.00444,0.85624,-0.01708,-0.02595,-0.00924,0.00747,-0.00165,-0.00128,1.05536,0.63270,0.16269,1.21919,1.22654,-0.11633,2.32928,0.61069,-0.15850,2.42776,A,112334.70
0.64808,57.68802388,11.98126615,57.68800633,11.98126517,11:23:34.866738,0.64808,0.00461,0.85624,-0.01721,-0.02763,-0.02527,0.00442,0.03007,0.01726,1.09483,0.64313,0.23204,1.23837,1.24572,-0.12013,2.34027,0.61069,-0.15850,2.42776,A,112334.70
0.65816,57.68802397,11.98126609,57.68800633,11.98126517,11:23:34.876823,0.65816,0.00446,0.85624,-0.01781,-0.02182,-0.03795,0.00090,-0.03831,-0.02184,1.07085,0.65318,0.29446,1.25737,1.26473,-0.12344,2.35060,0.61069,-0.15850,2.42776,A,112334.70
0.66966,57.68802406,11.98126604,57.68800633,11.98126517,11:23:34.888331,0.66966,0.00556,0.85624,-0.01863,-0.02213,-0.03123,-0.00398,-0.10815,-0.03660,1.05951,0.66378,0.35064,1.27619,1.28360,-0.12627,2.36046,0.61069,-0.15850,2.42776,A,112334.70
0.67888,57.68802414,11.98126600,57.68800633,11.98126517,11:23:34.897548,0.67888,0.00439,0.85624,-0.02002,-0.01373,-0.01642,-0.00108,-0.07357,-0.08082,1.01016,0.67395,0.40120,1.29483,1.30234,-0.12885,2.36936,0.61069,-0.15850,2.42776,A,112334.70
0.68943,57.68802422,11.98126596,57.68800633,11.98126517,11:23:34.908102,0.68943,0.00455,0.85624,-0.02137,-0.02091,-0.01443,0.00686,-0.01934,-0.06960,0.95746,0.68449,0.44670,1.31330,1.32098,-0.13100,2.37815,0.61069,-0.15850,2.42776,A,112334.70
0.69960,57.68802429,11.98126593,57.68800633,11.98126517,11:23:34.918262,0.69960,0.00433,0.85624,-0.02252,-0.01739,-0.02726,0.01297,-0.01220,-0.05813,0.92049,0.69491,0.48766,1.33160,1.33950,-0.13292,2.38636,0.61069,-0.15850,2.42776,A,112334.70
0.70996,57.68802436,11.98126590,57.68800633,11.98126517,11:23:34.928621,0.70996,0.00446,0.85624,-0.02286,-0.01510,-0.03062,0.01801,-0.04301,-0.01183,0.94086,0.70500,0.52451,1.34972,1.35786,-0.13465,2.39403,0.61069,-0.15850,2.42776,A,112334.70
0.73254,57.68802455,11.98126578,57.68800700,11.98126400,11:23:34.951205,0.73254,0.01663,0.85624,-0.02261,-0.00396,-0.02649,0.01801,-0.11023,0.01964,0.98905,0.71555,0.55769,1.36783,1.37622,-0.14189,2.41443,0.72986,-0.22784,2.50189,A,112334.80
0.74888,57.68802468,11.98126565,57.68800700,11.98126400,11:23:34.968091,0.74888,0.00867,0.85624,-0.02346,0.00139,-0.00038,0.01098,0.01458,-0.05795,0.98527,0.74111,0.58754,1.38565,1.39442,-0.14937,2.42883,0.72986,-0.22784,2.50189,A,112334.80
0.75482,57.68802476,11.98126553,57.68800700,11.98126400,11:23:34.973477,0.75482,0.00437,0.85624,-0.02408,-0.00793,-0.01519,0.00823,0.02019,-0.03642,0.97472,0.74986,0.61441,1.40318,1.41200,-0.15686,2.43813,0.72986,-0.22784,2.50189,A,112334.80
0.76546,57.68802486,11.98126542,57.68800700,11.98126400,11:23:34.984134,0.76546,0.00464,0.85624,-0.02422,-0.01846,-0.03260,0.00380,-0.02220,0.00232,0.97752,0.76049,0.63859,1.42062,1.42944,-0.16321,2.44917,0.72986,-0.22784,2.50189,A,112334.80
0.77584,57.68802495,11.98126532,57.68800700,11.98126400,11:23:34.994510,0.77584,0.00463,0.85624,-0.02415,-0.00793,-0.03413,0.00258,-0.09748,0.00897,1.00723,0.77086,0.66036,1.43788,1.44670,-0.16901,2.45915,0.72986,-0.22784,2.50189,A,112334.80
0.78592,57.68802503,11.98126523,57.68800700,11.98126400,11:23:35.004584,0.78592,0.00448,0.85624,-0.02449,-0.00151,-0.01275,-0.00322,-0.09607,-0.02397,1.04420,0.78093,0.67995,1.45497,1.46380,-0.17430,2.46811,0.72986,-0.22784,2.50189,A,112334.80
0.79620,57.68802511,11.98126515,57.68800700,11.98126400,11:23:35.014855,0.79620,0.00436,0.85624,-0.02555,-0.00502,-0.00863,-0.00001,-0.03733,-0.07058,1.02352,0.79149,0.69758,1.47191,1.48073,-0.17911,2.47663,0.72986,-0.22784,2.50189,A,112334.80
0.80793,57.68802518,11.98126508,57.68800700,11.98126400,11:23:35.026592,0.80793,0.00490,0.85624,-0.02655,-0.01373,-0.01092,0.00045,-0.00470,-0.05740,0.97423,0.80320,0.71344,1.48870,1.49753,-0.18342,2.48533,0.72986,-0.22784,2.50189,A,112334.80
0.81805,57.68802525,11.98126501,57.68800700,11.98126400,11:23:35.036711,0.81805,0.00448,0.85624,-0.02698,-0.00777,-0.01596,0.00503,-0.04111,-0.02666,0.97551,0.81306,0.72772,1.50530,1.51412,-0.18749,2.49211,0.72986,-0.22784,2.50189,A,112334.80
0.82829,57.68802530,11.98126495,57.68800700,11.98126400,11:23:35.046950,0.82829,0.00434,0.85624,-0.02687,-0.01144,-0.01244,0.00991,-0.11450,0.01116,0.99662,0.82361,0.74057,1.52174,1.53056,-0.19121,2.49860,0.72986,-0.22784,2.50189,A,112334.80
0.86236,57.68802565,11.98126480,57.68800850,11.98126300,11:23:35.081024,0.86236,0.02801,0.85624,-0.02712,0.00292,0.00191,0.01205,-0.08351,-0.02184,0.99216,0.83380,0.75214,1.53850,1.54732,-0.19996,2.53702,0.85949,-0.28728,2.66868,A,112335.00
0.88228,57.68802588,11.98126466,57.68800850,11.98126300,11:23:35.100952,0.88228,0.00616,0.85624,-0.02724,0.00200,-0.01977,0.00060,-0.09516,-0.01806,0.99985,0.87724,0.76255,1.55480,1.56362,-0.20841,2.56220,0.85949,-0.28728,2.66868,A,112335.00
0.89090,57.68802601,11.98126453,57.68800850,11.98126300,11:23:35.109565,0.89090,0.00439,0.85624,-0.02756,0.00505,-0.00481,-0.00078,-0.09437,-0.02788,0.97576,0.88597,0.77192,1.57072,1.57954,-0.21626,2.57734,0.85949,-0.28728,2.66868,A,112335.00
0.90427,57.68802615,11.98126441,57.68800850,11.98126300,11:23:35.123571,0.90427,0.00656,0.85624,-0.02835,0.00215,0.00161,0.00121,-0.00720,-0.05588,0.95014,0.89772,0.78035,1.58654,1.59536,-0.22342,2.59321,0.85949,-0.28728,2.66868,A,112335.00
0.91409,57.68802627,11.98126430,57.68800850,11.98126300,11:23:35.132761,0.91409,0.00520,0.85624,-0.02910,-0.00304,-0.01412,0.00304,0.02611,-0.05167,0.96539,0.90905,0.78794,1.60217,1.61099,-0.22994,2.60614,0.85949,-0.28728,2.66868,A,112335.00
0.92362,57.68802638,11.98126420,57.68800850,11.98126300,11:23:35.142289,0.92362,0.00434,0.85624,-0.02903,-0.00273,-0.02313,0.00716,-0.03154,0.00055,1.00406,0.91892,0.79477,1.61764,1.62646,-0.23589,2.61785,0.85949,-0.28728,2.66868,A,112335.00
0.93482,57.68802648,11.98126411,57.68800850,11.98126300,11:23:35.153480,0.93482,0.00530,0.85624,-0.02886,0.00796,-0.01779,0.00625,-0.07698,-0.00061,1.01870,0.92986,0.80092,1.63298,1.64181,-0.24139,2.62944,0.85949,-0.28728,2.66868,A,112335.00
0.94478,57.68802657,11.98126402,57.68800850,11.98126300,11:23:35.163686,0.94478,0.00474,0.85624,-0.02915,0.01742,-0.00252,0.00793,-0.09626,-0.03831,1.04755,0.93973,0.80645,1.64815,1.65697,-0.24638,2.63895,0.85949,-0.28728,2.66868,A,112335.00
0.95484,57.68802664,11.98126394,57.68800850,11.98126300,11:23:35.173498,0.95484,0.00440,0.85624,-0.02993,0.01620,0.00603,0.01159,-0.03392,-0.06942,1.00388,0.94990,0.81143,1.66317,1.67199,-0.25097,2.64769,0.85949,-0.28728,2.66868,A,112335.00
0.97816,57.68802687,11.98126382,57.68800917,11.98126267,11:23:35.196827,0.97816,0.01733,0.85624,-0.03098,0.01116,0.00298,0.00610,0.01891,-0.08308,0.98112,0.96045,0.81591,1.67834,1.68716,-0.25816,2.67276,0.97529,-0.30709,2.74281,A,112335.10
0.99104,57.68802700,11.98126373,57.68800917,11.98126267,11:23:35.209717,0.99104,0.00618,0.85624,-0.03010,0.01956,-0.00802,0.01037,-0.04996,0.01775,1.02090,0.98609,0.81994,1.69312,1.70195,-0.26398,2.68765,0.97529,-0.30709,2.74281,A,112335.10
0.99968,57.68802710,11.98126364,57.68800917,11.98126267,11:23:35.218342,0.99968,0.00441,0.85624,-0.02996,0.02628,-0.00771,0.01205,0.00079,-0.01305,0.99558,0.99496,0.82357,1.70767,1.71649,-0.26894,2.69814,0.97529,-0.30709,2.74281,A,112335.10
1.01018,57.68802719,11.98126356,57.68800917,11.98126267,11:23:35.228854,1.01018,0.00469,0.85624,-0.03069,0.02888,-0.01748,0.00472,0.05252,-0.07076,0.94501,1.00498,0.82684,1.72210,1.73093,-0.27364,2.70859,0.97529,-0.30709,2.74281,A,112335.10
1.02022,57.68802728,11.98126349,57.68800917,11.98126267,11:23:35.238882,1.02022,0.00434,0.85624,-0.03129,0.03346,-0.03337,0.00533,0.00165,-0.06838,0.97106,1.01553,0.82978,1.73640,1.74522,-0.27796,2.71804,0.97529,-0.30709,2.74281,A,112335.10
1.03070,57.68802736,11.98126342,57.68800917,11.98126267,11:23:35.249369,1.03070,0.00443,0.85624,-0.03120,0.02873,-0.03337,0.00610,-0.13072,-0.02367,1.07885,1.02575,0.83242,1.75055,1.75937,-0.28196,2.72669,0.97529,-0.30709,2.74281,A,112335.10
1.04145,57.68802743,11.98126336,57.68800917,11.98126267,11:23:35.260116,1.04145,0.00478,0.85624,-0.03075,0.03896,-0.00435,0.00487,-0.13694,-0.00622,1.09190,1.03631,0.83481,1.76456,1.77338,-0.28566,2.73453,0.97529,-0.30709,2.74281,A,112335.10
1.05156,57.68802749,11.98126330,57.68800917,11.98126267,11:23:35.270222,1.05156,0.00450,0.85624,-0.03114,0.04430,0.01016,0.00884,0.04782,-0.06344,0.98521,1.04685,0.83695,1.77843,1.78725,-0.28905,2.74146,0.97529,-0.30709,2.74281,A,112335.10
1.06178,57.68802754,11.98126325,57.68800917,11.98126267,11:23:35.280438,1.06178,0.00443,0.85624,-0.03167,0.03529,-0.01519,0.01358,0.12688,-0.05880,0.88999,1.05681,0.83888,1.79216,1.80098,-0.29217,2.74756,0.97529,-0.30709,2.74281,A,112335.10
1.07208,57.68802759,11.98126320,57.68800917,11.98126267,11:23:35.290746,1.07208,0.00434,0.85624,-0.03123,0.02766,-0.05047,0.01312,-0.00421,0.00122,0.89273,1.06739,0.84061,1.80576,1.81458,-0.29513,2.75333,0.97529,-0.30709,2.74281,A,112335.10
1.09541,57.68802784,11.98126301,57.68801033,11.98126167,11:23:35.314075,1.09541,0.01727,0.85624,-0.02999,0.03880,-0.04482,0.00869,-0.18086,0.04856,0.99875,1.07760,0.84218,1.81952,1.82834,-0.30620,2.78108,1.09256,-0.36653,2.87254,A,112335.20
1.10552,57.68802798,11.98126289,57.68801033,11.98126167,11:23:35.324186,1.10552,0.00451,0.85624,-0.02994,0.04125,-0.00237,0.00075,0.08345,-0.06740,1.01687,1.10055,0.84358,1.83284,1.84166,-0.31378,2.79609,1.09256,-0.36653,2.87254,A,112335.20
1.11575,57.68802810,11.98126277,57.68801033,11.98126167,11:23:35.334410,1.11575,0.00434,0.85624,-0.03054,0.02369,-0.02298,0.00029,0.05209,-0.06539,1.03114,1.11106,0.84485,1.84603,1.85485,-0.32077,2.80989,1.09256,-0.36653,2.87254,A,112335.20
1.12624,57.68802821,11.98126266,57.68801033,11.98126167,11:23:35.344896,1.12624,0.00444,0.85624,-0.03015,0.01513,-0.03413,0.00411,-0.03196,0.00909,1.08519,1.12127,0.84599,1.85909,1.86791,-0.32713,2.82227,1.09256,-0.36653,2.87254,A,112335.20
1.13820,57.68802832,11.98126256,57.68801033,11.98126167,11:23:35.356902,1.13820,0.00601,0.85624,-0.02958,0.01880,-0.04955,0.00487,-0.09650,0.01848,1.09757,1.13200,0.84701,1.87202,1.88085,-0.33299,2.83358,1.09256,-0.36653,2.87254,A,112335.20
1.14759,57.68802840,11.98126248,57.68801033,11.98126167,11:23:35.366260,1.14759,0.00510,0.85624,-0.02904,0.02338,-0.04955,0.00671,-0.10401,0.01440,1.05341,1.14228,0.84793,1.88479,1.89362,-0.33801,2.84267,1.09256,-0.36653,2.87254,A,112335.20
1.15765,57.68802848,11.98126240,57.68801033,11.98126167,11:23:35.376316,1.15765,0.00477,0.85624,-0.02885,0.03010,-0.04467,0.00090,-0.06637,-0.01348,0.97582,1.15266,0.84877,1.89746,1.90628,-0.34278,2.85140,1.09256,-0.36653,2.87254,A,112335.20
1.16765,57.68802855,11.98126233,57.68801033,11.98126167,11:23:35.386311,1.16765,0.00437,0.85624,-0.02902,0.02705,-0.03367,0.00274,-0.05423,-0.03294,0.92921,1.16295,0.84951,1.91000,1.91882,-0.34721,2.85940,1.09256,-0.36653,2.87254,A,112335.20
1.17815,57.68802861,11.98126226,57.68801033,11.98126167,11:23:35.396811,1.17815,0.00464,0.85624,-0.02996,0.02506,-0.01916,-0.00566,-0.07472,-0.07271,0.85699,1.17299,0.85018,1.92242,1.93124,-0.35128,2.86662,1.09256,-0.36653,2.87254,A,112335.20
1.18823,57.68802867,11.98126219,57.68801033,11.98126167,11:23:35.406887,1.18823,0.00433,0.85624,-0.03067,0.01406,-0.00069,-0.00246,-0.11645,-0.05112,0.80032,1.18355,0.85079,1.93471,1.94353,-0.35504,2.87313,1.09256,-0.36653,2.87254,A,112335.20
1.21110,57.68802889,11.98126204,57.68801117,11.98126133,11:23:35.429766,1.21110,0.01681,0.85624,-0.03090,0.00750,0.01275,0.00090,-0.16269,-0.02391,0.85388,1.19374,0.85134,1.94718,1.95600,-0.36405,2.89738,1.20814,-0.38634,2.96520,A,112335.30
1.22914,57.68802905,11.98126193,57.68801117,11.98126133,11:23:35.447823,1.22914,0.00778,0.85624,-0.03016,0.01681,0.00771,-0.00032,0.14689,0.00897,1.15327,1.22417,0.85183,1.95940,1.96822,-0.37087,2.91548,1.20814,-0.38634,2.96520,A,112335.30
1.23619,57.68802913,11.98126187,57.68801117,11.98126133,11:23:35.454850,1.23619,0.00444,0.85624,-0.03015,0.01758,-0.00878,-0.00353,0.11852,-0.01763,1.14582,1.23150,0.85227,1.97126,1.98008,-0.37404,2.92432,1.20814,-0.38634,2.96520,A,112335.30
1.24677,57.68802922,11.98126181,57.68801117,11.98126133,11:23:35.465440,1.24677,0.00463,0.85624,-0.03004,0.00948,-0.02497,-0.00368,-0.02751,-0.00726,1.12283,1.24160,0.85266,1.98307,1.99190,-0.37786,2.93438,1.20814,-0.38634,2.96520,A,112335.30
1.25689,57.68802930,11.98126175,57.68801117,11.98126133,11:23:35.475786,1.25689,0.00435,0.85624,-0.03040,0.00994,-0.00420,-0.00429,-0.20026,-0.03959,1.04023,1.25221,0.85302,1.99476,2.00359,-0.38131,2.94327,1.20814,-0.38634,2.96520,A,112335.30
1.26727,57.68802938,11.98126170,57.68801117,11.98126133,11:23:35.485938,1.26727,0.00434,0.85624,-0.03100,0.01315,0.03154,-0.00353,-0.19001,-0.05307,0.94928,1.26258,0.85334,2.00634,2.01516,-0.38457,2.95143,1.20814,-0.38634,2.96520,A,112335.30
1.27858,57.68802945,11.98126164,57.68801117,11.98126133,11:23:35.497245,1.27858,0.00525,0.85624,-0.03150,0.00078,0.04162,0.00778,-0.01513,-0.03660,0.87816,1.27358,0.85363,2.01782,2.02664,-0.38777,2.95916,1.20814,-0.38634,2.96520,A,112335.30
1.28806,57.68802950,11.98126160,57.68801117,11.98126133,11:23:35.506723,1.28806,0.00433,0.85624,-0.03138,-0.00273,0.02115,0.01282,0.07899,0.00098,0.90420,1.28338,0.85389,2.02914,2.03797,-0.39022,2.96505,1.20814,-0.38634,2.96520,A,112335.30
1.29855,57.68802955,11.98126156,57.68801117,11.98126133,11:23:35.517212,1.29855,0.00442,0.85624,-0.03063,0.00689,-0.00542,0.01266,0.06155,0.03654,0.98771,1.29358,0.85413,2.04038,2.04920,-0.39273,2.97081,1.20814,-0.38634,2.96520,A,112335.30
1.30886,57.68802960,11.98126152,57.68801117,11.98126133,11:23:35.527915,1.30886,0.00434,0.85624,-0.02977,0.01177,-0.01993,0.00961,-0.01177,0.04355,1.05835,1.30418,0.85434,2.05150,2.06032,-0.39510,2.97605,1.20814,-0.38634,2.96520,A,112335.30
1.33225,57.68802979,11.98126132,57.68801183,11.98126050,11:23:35.550916,1.33225,0.01734,0.85624,-0.02974,0.01254,-0.01901,0.00380,-0.07296,-0.01464,1.08165,1.31456,0.85453,2.06281,2.07163,-0.40701,2.99707,1.32954,-0.43587,3.03933,A,112335.40
1.34577,57.68802989,11.98126120,57.68801183,11.98126050,11:23:35.564449,1.34577,0.00670,1.03792,-0.03054,-0.01006,-0.00282,-0.00322,0.00775,-0.04056,0.97740,1.34046,0.87287,2.07377,2.08259,-0.41399,3.00878,1.32954,-0.43587,3.03933,A,112335.40
1.35401,57.68802996,11.98126113,57.68801183,11.98126050,11:23:35.572678,1.35401,0.00452,1.03792,-0.03036,-0.00976,-0.00847,-0.00612,0.02434,0.00988,0.94818,1.34900,0.88937,2.08450,2.09333,-0.41852,3.01601,1.32954,-0.43587,3.03933,A,112335.40
1.36424,57.68803003,11.98126104,57.68801183,11.98126050,11:23:35.582898,1.36424,0.00435,1.03792,-0.03020,-0.00579,-0.03047,-0.00414,-0.02031,0.00805,0.95008,1.35955,0.90423,2.09519,2.10401,-0.42361,3.02417,1.32954,-0.43587,3.03933,A,112335.40
1.37477,57.68803010,11.98126096,57.68801183,11.98126050,11:23:35.593432,1.37477,0.00449,1.03792,-0.03043,-0.00457,-0.02634,-0.00689,-0.08900,-0.01800,0.97136,1.36974,0.91760,2.10577,2.11459,-0.42830,3.03155,1.32954,-0.43587,3.03933,A,112335.40
1.38520,57.68803016,11.98126089,57.68801183,11.98126050,11:23:35.603873,1.38520,0.00452,1.03792,-0.03077,-0.00472,-0.01703,-0.00734,-0.05588,-0.02586,1.00077,1.38030,0.92963,2.11625,2.12507,-0.43265,3.03826,1.32954,-0.43587,3.03933,A,112335.40
1.39545,57.68803021,11.98126082,57.68801183,11.98126050,11:23:35.614111,1.39545,0.00437,1.03792,-0.03110,-0.00518,-0.01840,-0.00597,-0.01665,-0.02672,1.04164,1.39076,0.94046,2.12663,2.13545,-0.43678,3.04452,1.32954,-0.43587,3.03933,A,112335.40
1.40658,57.68803027,11.98126075,57.68801183,11.98126050,11:23:35.625252,1.40658,0.00518,1.03792,-0.03149,-0.00793,-0.02359,-0.00444,-0.00891,-0.02934,1.04572,1.40162,0.95021,2.13692,2.14575,-0.44077,3.05046,1.32954,-0.43587,3.03933,A,112335.40
1.41614,57.68803031,11.98126070,57.68801183,11.98126050,11:23:35.634802,1.41614,0.00434,1.03792,-0.03173,-0.00548,-0.02481,-0.00322,-0.09809,-0.02190,1.09586,1.41145,0.95898,2.14708,2.15590,-0.44388,3.05490,1.32954,-0.43587,3.03933,A,112335.40
1.42659,57.68803035,11.98126065,57.68801183,11.98126050,11:23:35.645258,1.42659,0.00440,1.03792,-0.03166,-0.00564,-0.00282,-0.00108,-0.10028,0.00024,1.08147,1.42164,0.96687,2.15716,2.16598,-0.44706,3.05935,1.32954,-0.43587,3.03933,A,112335.40
1.46069,57.68803071,11.98126026,57.68801350,11.98125917,11:23:35.679492,1.46069,0.02810,1.03792,-0.03221,0.00307,-0.00389,-0.00139,-0.00140,-0.04630,0.98759,1.43236,0.97398,2.16776,2.17658,-0.46965,3.09919,1.45799,-0.51512,3.22465,A,112335.60
1.47688,57.68803090,11.98126008,57.68801350,11.98125917,11:23:35.695796,1.47688,0.00677,1.03792,-0.03226,0.00994,-0.01703,-0.00383,-0.07344,-0.03465,0.95587,1.47082,0.98037,2.17776,2.18658,-0.48071,3.12113,1.45799,-0.51512,3.22465,A,112335.60
1.48484,57.68803104,11.98125997,57.68801350,11.98125917,11:23:35.703739,1.48484,0.00434,1.03792,-0.03335,0.01452,0.00145,-0.00689,-0.02025,-0.08204,0.91067,1.48014,0.98613,2.18747,2.19629,-0.48728,3.13591,1.45799,-0.51512,3.22465,A,112335.60
1.49523,57.68803117,11.98125985,57.68801350,11.98125917,11:23:35.713891,1.49523,0.00432,1.03792,-0.03452,-0.00090,0.00161,-0.00872,0.02196,-0.08186,0.93922,1.49055,0.99131,2.19715,2.20597,-0.49452,3.15095,1.45799,-0.51512,3.22465,A,112335.60
1.50576,57.68803129,11.98125974,57.68801350,11.98125917,11:23:35.724427,1.50576,0.00442,1.03792,-0.03441,-0.00609,-0.00481,-0.00826,-0.05673,0.00061,1.03066,1.50082,0.99597,2.20674,2.21556,-0.50105,3.16440,1.45799,-0.51512,3.22465,A,112335.60
1.51609,57.68803140,11.98125964,57.68801350,11.98125917,11:23:35.734753,1.51609,0.00436,1.03792,-0.03350,0.00001,-0.00206,-0.00444,-0.08204,0.05496,1.09715,1.51141,1.00016,2.21623,2.22505,-0.50704,3.17652,1.45799,-0.51512,3.22465,A,112335.60
1.52647,57.68803150,11.98125955,57.68801350,11.98125917,11:23:35.745143,1.52647,0.00452,1.03792,-0.03320,0.01284,0.00817,-0.00246,-0.01293,0.00165,1.08397,1.52148,1.00394,2.22562,2.23444,-0.51238,3.18723,1.45799,-0.51512,3.22465,A,112335.60
1.53675,57.68803158,11.98125946,57.68801350,11.98125917,11:23:35.755655,1.53675,0.00440,1.03792,-0.03354,0.01147,-0.00038,-0.00093,0.05161,-0.04288,1.06488,1.53207,1.00734,2.23492,2.24374,-0.51736,3.19699,1.45799,-0.51512,3.22465,A,112335.60
1.54732,57.68803166,11.98125938,57.68801350,11.98125917,11:23:35.765997,1.54732,0.00458,1.03792,-0.03377,0.00841,-0.01519,-0.00307,0.01604,-0.03221,1.04847,1.54220,1.01040,2.24413,2.25296,-0.52206,3.20593,1.45799,-0.51512,3.22465,A,112335.60
1.55777,57.68803173,11.98125931,57.68801350,11.98125917,11:23:35.776428,1.55777,0.00444,1.03792,-0.03369,0.00414,-0.02436,-0.00414,-0.05606,-0.00720,1.01961,1.55283,1.01315,2.25325,2.26207,-0.52616,3.21371,1.45799,-0.51512,3.22465,A,112335.60
1.58115,57.68803196,11.98125904,57.68801433,11.98125833,11:23:35.799825,1.58115,0.01743,1.03792,-0.03381,0.00673,-0.01428,-0.00750,-0.06997,-0.02208,0.97478,1.56336,1.01563,2.26264,2.27146,-0.54250,3.23917,1.57830,-0.56465,3.31732,A,112335.70
1.59113,57.68803209,11.98125892,57.68801433,11.98125833,11:23:35.809795,1.59113,0.00446,1.03792,-0.03409,0.00505,-0.01412,-0.00078,0.00464,-0.03379,0.92866,1.58622,1.01786,2.27156,2.28039,-0.54952,3.25268,1.57830,-0.56465,3.31732,A,112335.70
1.60175,57.68803220,11.98125881,57.68801433,11.98125833,11:23:35.820414,1.60175,0.00454,1.03792,-0.03457,0.00154,-0.01321,0.00167,-0.00878,-0.04099,0.95941,1.59668,1.01986,2.28041,2.28923,-0.55605,3.26499,1.57830,-0.56465,3.31732,A,112335.70
1.61193,57.68803230,11.98125871,57.68801433,11.98125833,11:23:35.830590,1.61193,0.00433,1.03792,-0.03451,-0.00502,-0.00496,-0.00154,-0.16452,-0.00396,1.09379,1.60725,1.02167,2.28916,2.29799,-0.56197,3.27601,1.57830,-0.56465,3.31732,A,112335.70
1.62233,57.68803238,11.98125862,57.68801433,11.98125833,11:23:35.840992,1.62233,0.00449,1.03792,-0.03398,-0.00518,0.01764,-0.00612,-0.07009,0.03056,1.10556,1.61734,1.02329,2.29783,2.30663,-0.56730,3.28582,1.57830,-0.56465,3.31732,A,112335.70
1.63257,57.68803246,11.98125854,57.68801433,11.98125833,11:23:35.851229,1.63257,0.00433,1.03792,-0.03413,-0.00426,0.02131,-0.01376,0.03916,-0.01787,1.02608,1.62789,1.02476,2.30641,2.31515,-0.57224,3.29472,1.57830,-0.56465,3.31732,A,112335.70
1.64316,57.68803254,11.98125846,57.68801433,11.98125833,11:23:35.861823,1.64316,0.00453,1.03792,-0.03451,-0.01358,0.00298,-0.01819,0.02440,-0.02721,1.02944,1.63825,1.02607,2.31492,2.32355,-0.57695,3.30291,1.57830,-0.56465,3.31732,A,112335.70
1.65574,57.68803261,11.98125837,57.68801433,11.98125833,11:23:35.874408,1.65574,0.00655,1.03792,-0.03476,-0.01831,0.00099,-0.02292,-0.09278,-0.01287,1.05750,1.65097,1.02726,2.32339,2.33184,-0.58247,3.31156,1.57830,-0.56465,3.31732,A,112335.70
1.66394,57.68803266,11.98125833,57.68801433,11.98125833,11:23:35.882600,1.66394,0.00436,1.03792,-0.03502,-0.01556,-0.00267,-0.02597,-0.04160,-0.01861,0.95130,1.65925,1.02832,2.33166,2.33995,-0.58475,3.31640,1.57830,-0.56465,3.31732,A,112335.70
1.67442,57.68803271,11.98125827,57.68801433,11.98125833,11:23:35.893081,1.67442,0.00444,1.03792,-0.03569,-0.01907,-0.01061,-0.02414,-0.01354,-0.03867,0.89450,1.66943,1.02928,2.33989,2.34801,-0.58812,3.32205,1.57830,-0.56465,3.31732,A,112335.70
1.69757,57.68803296,11.98125805,57.68801567,11.98125800,11:23:35.916234,1.69757,0.01720,1.03792,-0.03543,-0.02289,-0.02252,-0.01452,-0.11602,0.01995,0.95477,1.68002,1.03015,2.34837,2.35632,-0.60153,3.35040,1.69467,-0.58446,3.46558,A,112335.80
1.70859,57.68803312,11.98125797,57.68801567,11.98125800,11:23:35.927612,1.70859,0.00522,1.03792,-0.03679,-0.01907,0.00573,-0.00841,0.03209,-0.07119,0.98350,1.70382,1.03093,2.35646,2.36408,-0.60581,3.36791,1.69467,-0.58446,3.46558,A,112335.80
1.71914,57.68803326,11.98125791,57.68801567,11.98125800,11:23:35.937808,1.71914,0.00555,1.03792,-0.03770,-0.02793,-0.01367,-0.00826,-0.08302,-0.05996,1.07805,1.71414,1.03163,2.36444,2.37189,-0.60941,3.38332,1.69467,-0.58446,3.46558,A,112335.80
1.72840,57.68803338,11.98125787,57.68801567,11.98125800,11:23:35.947059,1.72840,0.00441,1.03792,-0.03762,-0.03129,0.00374,-0.00765,-0.10638,0.01147,1.09928,1.72370,1.03226,2.37231,2.37957,-0.61187,3.39635,1.69467,-0.58446,3.46558,A,112335.80
1.73882,57.68803349,11.98125782,57.68801567,11.98125800,11:23:35.957668,1.73882,0.00443,1.03792,-0.03729,-0.02900,0.01963,-0.01223,-0.05600,0.02824,1.05811,1.73384,1.03282,2.38013,2.38717,-0.61471,3.40860,1.69467,-0.58446,3.46558,A,112335.80
1.75010,57.68803359,11.98125777,57.68801567,11.98125800,11:23:35.968762,1.75010,0.00532,1.03792,-0.03765,-0.03083,0.01596,-0.01376,-0.00220,-0.01586,0.98631,1.74480,1.03333,2.38787,2.39468,-0.61777,3.42001,1.69467,-0.58446,3.46558,A,112335.80
1.75954,57.68803367,11.98125774,57.68801567,11.98125800,11:23:35.978197,1.75954,0.00436,1.03792,-0.03793,-0.04305,0.00542,-0.01727,0.01336,-0.00396,0.93891,1.75482,1.03379,2.39550,2.40212,-0.61962,3.42937,1.69467,-0.58446,3.46558,A,112335.80
1.76997,57.68803375,11.98125771,57.68801567,11.98125800,11:23:35.988639,1.76997,0.00450,1.03792,-0.03812,-0.04183,-0.00573,-0.01452,-0.05545,0.00043,0.93678,1.76497,1.03420,2.40307,2.40948,-0.62181,3.43819,1.69467,-0.58446,3.46558,A,112335.80
1.78035,57.68803383,11.98125767,57.68801567,11.98125800,11:23:35.999009,1.78035,0.00437,1.03792,-0.03807,-0.03832,-0.01015,-0.01910,-0.07979,0.01421,0.93696,1.77565,1.03458,2.41057,2.41678,-0.62399,3.44625,1.69467,-0.58446,3.46558,A,112335.80
1.79085,57.68803389,11.98125764,57.68801567,11.98125800,11:23:36.009515,1.79085,0.00447,1.03792,-0.03889,-0.03557,0.00023,-0.02200,-0.05167,-0.04392,0.94715,1.78582,1.03491,2.41798,2.42406,-0.62585,3.45332,1.69467,-0.58446,3.46558,A,112335.80
1.81365,57.68803408,11.98125739,57.68801633,11.98125733,11:23:36.032314,1.81365,0.01688,1.03792,-0.04006,-0.03038,0.00588,-0.02811,0.00720,-0.06905,0.95117,1.79640,1.03521,2.42556,2.43156,-0.64032,3.47474,1.81077,-0.62409,3.53971,A,112335.90
1.82658,57.68803420,11.98125730,57.68801633,11.98125733,11:23:36.045263,1.82658,0.00705,1.03792,-0.04099,-0.03908,-0.01000,-0.01971,-0.08973,-0.02159,1.05890,1.81926,1.03548,2.43286,2.43885,-0.64593,3.48746,1.81077,-0.62409,3.53971,A,112335.90
1.83423,57.68803427,11.98125727,57.68801633,11.98125733,11:23:36.052892,1.83423,0.00448,1.03792,-0.04131,-0.03160,0.00634,-0.01544,-0.06222,-0.02080,1.08299,1.82924,1.03573,2.43999,2.44598,-0.64768,3.49602,1.81077,-0.62409,3.53971,A,112335.90
1.84519,57.68803436,11.98125720,57.68801633,11.98125733,11:23:36.064029,1.84519,0.00467,1.03792,-0.04171,-0.01938,0.00527,-0.01131,0.03660,-0.03324,1.07207,1.84024,1.03595,2.44712,2.45311,-0.65167,3.50568,1.81077,-0.62409,3.53971,A,112335.90
1.85547,57.68803444,11.98125715,57.68801633,11.98125733,11:23:36.074140,1.85547,0.00456,1.03792,-0.04210,-0.01327,-0.00420,-0.00673,0.05222,-0.03709,1.03011,1.85057,1.03614,2.45416,2.46015,-0.65503,3.51412,1.81077,-0.62409,3.53971,A,112335.90
1.86722,57.68803451,11.98125708,57.68801633,11.98125733,11:23:36.085879,1.86722,0.00489,1.03792,-0.04236,-0.01144,-0.02313,-0.00169,0.02544,-0.02714,0.99802,1.86228,1.03632,2.46117,2.46716,-0.65908,3.52247,1.81077,-0.62409,3.53971,A,112335.90
1.87884,57.68803457,11.98125704,57.68801633,11.98125733,11:23:36.097519,1.87884,0.00612,1.03792,-0.04268,-0.00747,-0.02787,-0.00765,-0.04215,-0.03532,0.97057,1.87236,1.03648,2.46806,2.47405,-0.66142,3.52887,1.81077,-0.62409,3.53971,A,112335.90
1.88760,57.68803461,11.98125702,57.68801633,11.98125733,11:23:36.106257,1.88760,0.00448,1.03792,-0.04287,-0.00915,-0.02298,-0.00551,-0.06832,-0.02324,0.90890,1.88290,1.03663,2.47487,2.48086,-0.66277,3.53396,1.81077,-0.62409,3.53971,A,112335.90
1.89783,57.68803466,11.98125698,57.68801633,11.98125733,11:23:36.116497,1.89783,0.00445,1.03792,-0.04323,-0.00487,-0.01687,-0.00826,-0.01842,-0.03562,0.88096,1.89287,1.03676,2.48163,2.48762,-0.66489,3.53919,1.81077,-0.62409,3.53971,A,112335.90
1.90817,57.68803471,11.98125694,57.68801633,11.98125733,11:23:36.126828,1.90817,0.00439,1.03792,-0.04397,-0.00365,-0.01810,-0.00780,0.03520,-0.05948,0.88615,1.90348,1.03687,2.48834,2.49433,-0.66712,3.54408,1.81077,-0.62409,3.53971,A,112335.90
1.93118,57.68803488,11.98125668,57.68801700,11.98125667,11:23:36.149846,1.93118,0.01702,1.03792,-0.04433,-0.01190,-0.02527,-0.01269,-0.04050,-0.03764,1.01345,1.91361,1.03698,2.49521,2.50120,-0.68258,3.56300,1.92815,-0.66371,3.61384,A,112336.00
1.94440,57.68803498,11.98125658,57.68801700,11.98125667,11:23:36.163072,1.94440,0.00627,1.03792,-0.04443,-0.01297,-0.00725,-0.01544,0.03178,-0.00714,1.09044,1.93919,1.03707,2.50183,2.50782,-0.68886,3.57416,1.92815,-0.66371,3.61384,A,112336.00
1.95368,57.68803505,11.98125653,57.68801700,11.98125667,11:23:36.172341,1.95368,0.00515,1.03792,-0.04445,-0.00655,-0.01855,-0.01910,0.02666,-0.01964,1.05823,1.94867,1.03716,2.50830,2.51429,-0.69172,3.58208,1.92815,-0.66371,3.61384,A,112336.00
1.96326,57.68803511,11.98125648,57.68801700,11.98125667,11:23:36.181921,1.96326,0.00434,1.17948,-0.04453,-0.00869,-0.02527,-0.02216,0.01244,-0.02068,1.00449,1.95855,1.05139,2.51472,2.52071,-0.69478,3.58950,1.92815,-0.66371,3.61384,A,112336.00
1.97376,57.68803518,11.98125642,57.68801700,11.98125667,11:23:36.192422,1.97376,0.00442,1.17948,-0.04497,-0.00716,-0.03444,-0.02109,0.00677,-0.04343,0.95465,1.96881,1.06420,2.52109,2.52708,-0.69815,3.59657,1.92815,-0.66371,3.61384,A,112336.00
1.98407,57.68803524,11.98125637,57.68801700,11.98125667,11:23:36.202733,1.98407,0.00434,1.17948,-0.04540,-0.00457,-0.04054,-0.01559,-0.02025,-0.04386,0.93110,1.97938,1.07573,2.52741,2.53340,-0.70135,3.60298,1.92815,-0.66371,3.61384,A,112336.00
1.99530,57.68803529,11.98125631,57.68801700,11.98125667,11:23:36.213953,1.99530,0.00517,1.17948,-0.04544,-0.00579,-0.04421,-0.01620,-0.04984,-0.01982,0.98588,1.99033,1.08610,2.53367,2.53966,-0.70500,3.60923,1.92815,-0.66371,3.61384,A,112336.00
2.00484,57.68803533,11.98125627,57.68801700,11.98125667,11:23:36.223745,2.00484,0.00432,1.17948,-0.04540,0.00551,-0.03535,-0.00872,-0.01128,-0.02416,1.03413,2.00016,1.09544,2.53985,2.54584,-0.70710,3.61397,1.92815,-0.66371,3.61384,A,112336.00
2.01892,57.68803538,11.98125622,57.68801700,11.98125667,11:23:36.238240,2.01892,0.00798,1.17948,-0.04556,0.01300,-0.03214,0.00060,-0.00018,-0.04386,1.06250,2.01057,1.10384,2.54598,2.55197,-0.70978,3.61872,1.92815,-0.66371,3.61384,A,112336.00
2.02669,57.68803542,11.98125617,57.68801700,11.98125667,11:23:36.245349,2.02669,0.00460,1.17948,-0.04583,0.01300,-0.02711,0.00319,-0.04337,-0.05344,1.01315,2.02163,1.11141,2.55206,2.55039,-0.71279,3.62332,1.92815,-0.66371,3.61384,A,112336.00
2.06060,57.68803575,11.98125566,57.68801883,11.98125517,11:23:36.279413,2.06060,0.02812,1.17948,-0.04570,0.01513,-0.00924,0.00243,-0.06783,-0.02714,1.00388,2.03213,1.11821,2.55779,2.55612,-0.74350,3.66069,2.05788,-0.75287,3.81769,A,112336.20
2.07868,57.68803598,11.98125542,57.68801883,11.98125517,11:23:36.297353,2.07868,0.00718,1.17948,-0.04539,0.00368,-0.02726,-0.01803,-0.01806,-0.01513,1.02169,2.07362,1.12434,2.56355,2.56188,-0.75778,3.68524,2.05788,-0.75287,3.81769,A,112336.20
2.08629,57.68803612,11.98125535,57.68801883,11.98125517,11:23:36.304954,2.08629,0.00456,1.17948,-0.04513,0.00475,-0.01504,-0.02368,-0.03068,-0.01049,1.02309,2.08122,1.12985,2.56932,2.56764,-0.76187,3.70148,2.05788,-0.75287,3.81769,A,112336.20
2.09650,57.68803627,11.98125524,57.68801883,11.98125517,11:23:36.315158,2.09650,0.00437,1.17948,-0.04499,0.00505,0.00741,-0.03025,-0.16592,-0.02178,1.17065,2.09179,1.13482,2.57501,2.57334,-0.76812,3.71772,2.05788,-0.75287,3.81769,A,112336.20
2.10690,57.68803640,11.98125515,57.68801883,11.98125517,11:23:36.325571,2.10690,0.00438,1.17948,-0.04502,0.00796,0.05948,-0.03254,-0.19404,-0.03782,1.17681,2.10198,1.13928,2.58064,2.57897,-0.77378,3.73231,2.05788,-0.75287,3.81769,A,112336.20
2.11751,57.68803652,11.98125506,57.68801883,11.98125517,11:23:36.336180,2.11751,0.00444,1.17948,-0.04573,0.00414,0.08254,-0.03453,0.08394,-0.07491,1.00162,2.11253,1.14330,2.58622,2.58455,-0.77906,3.74549,2.05788,-0.75287,3.81769,A,112336.20
2.12783,57.68803662,11.98125498,57.68801883,11.98125517,11:23:36.346494,2.12783,0.00437,1.17948,-0.04538,-0.00289,0.03902,-0.03376,0.04929,-0.00037,0.99345,2.12313,1.14692,2.59174,2.59007,-0.78386,3.75733,2.05788,-0.75287,3.81769,A,112336.20
2.13817,57.68803672,11.98125491,57.68801883,11.98125517,11:23:36.356831,2.13817,0.00447,1.17948,-0.04481,-0.00167,0.02375,-0.03865,0.01409,0.01403,0.98271,2.13319,1.15018,2.59721,2.59553,-0.78799,3.76782,2.05788,-0.75287,3.81769,A,112336.20
2.14950,57.68803681,11.98125483,57.68801883,11.98125517,11:23:36.368174,2.14950,0.00542,1.17948,-0.04478,0.00689,0.00878,-0.03254,0.03880,-0.02519,0.90542,2.14430,1.15311,2.60261,2.60094,-0.79245,3.77765,2.05788,-0.75287,3.81769,A,112336.20
2.15899,57.68803688,11.98125479,57.68801883,11.98125517,11:23:36.377650,2.15899,0.00450,1.17948,-0.04596,0.01666,-0.00435,-0.03773,0.14518,-0.09107,0.80081,2.15393,1.15574,2.60798,2.60630,-0.79499,3.78555,2.05788,-0.75287,3.81769,A,112336.20
2.18188,57.68803712,11.98125446,57.68802000,11.98125433,11:23:36.400548,2.18188,0.01701,1.17948,-0.04850,0.02048,-0.05291,-0.02368,0.23979,-0.14366,0.67399,2.16465,1.15812,2.61321,2.61153,-0.81450,3.81287,2.17901,-0.80240,3.94742,A,112336.30
2.19483,57.68803730,11.98125432,57.68802000,11.98125433,11:23:36.413496,2.19483,0.00620,1.17948,-0.04912,0.00964,-0.21861,-0.00154,-0.12328,-0.07137,0.83546,2.18984,1.16025,2.61844,2.61677,-0.82304,3.83204,2.17901,-0.80240,3.94742,A,112336.30
2.20339,57.68803743,11.98125425,57.68802000,11.98125433,11:23:36.422052,2.20339,0.00436,1.17948,-0.04800,0.01880,-0.16699,0.00304,-0.41992,0.04441,1.27563,2.19868,1.16218,2.62365,2.62198,-0.82705,3.84710,2.17901,-0.80240,3.94742,A,112336.30
2.21390,57.68803756,11.98125417,57.68802000,11.98125433,11:23:36.432570,2.21390,0.00449,1.17948,-0.04737,0.04995,-0.02665,-0.00826,-0.50520,-0.03050,1.63090,2.20890,1.16391,2.62880,2.62712,-0.83219,3.86148,2.17901,-0.80240,3.94742,A,112336.30
2.22414,57.68803768,11.98125409,57.68802000,11.98125433,11:23:36.442803,2.22414,0.00434,1.17948,-0.04719,0.05469,0.10331,0.00182,-0.00152,-0.07570,1.43710,2.21944,1.16546,2.63389,2.63222,-0.83688,3.87441,2.17901,-0.80240,3.94742,A,112336.30
2.23462,57.68803778,11.98125402,57.68802000,11.98125433,11:23:36.453290,2.23462,0.00443,1.17948,-0.04774,0.03560,0.09049,0.00029,0.50142,-0.09504,1.08232,2.22965,1.16686,2.63893,2.63726,-0.84110,3.88599,2.17901,-0.80240,3.94742,A,112336.30
2.24557,57.68803788,11.98125394,57.68802000,11.98125433,11:23:36.464235,2.24557,0.00475,1.17948,-0.04817,0.00979,-0.01626,0.01007,0.19886,-0.05222,0.82954,2.24055,1.16813,2.64392,2.64225,-0.84533,3.89661,2.17901,-0.80240,3.94742,A,112336.30
2.25557,57.68803796,11.98125389,57.68802000,11.98125433,11:23:36.474233,2.25557,0.00436,1.17948,-0.04324,-0.00838,-0.08926,0.00991,-0.09553,0.21612,0.68363,2.25087,1.16926,2.64887,2.64719,-0.84858,3.90580,2.17901,-0.80240,3.94742,A,112336.30
2.26602,57.68803803,11.98125384,57.68802000,11.98125433,11:23:36.484689,2.26602,0.00457,1.17948,-0.04118,0.02705,-0.09705,-0.01345,-0.34636,0.07710,0.79648,2.26094,1.17028,2.65376,2.65209,-0.85160,3.91408,2.17901,-0.80240,3.94742,A,112336.30
2.27636,57.68803810,11.98125379,57.68802000,11.98125433,11:23:36.495019,2.27636,0.00452,1.17948,-0.04233,0.02139,-0.06483,-0.02262,-0.14738,-0.09485,0.83552,2.27165,1.17120,2.65861,2.65693,-0.85459,3.92163,2.17901,-0.80240,3.94742,A,112336.30
2.29906,57.68803830,11.98125343,57.68802083,11.98125317,11:23:36.517724,2.29906,0.01682,1.17948,-0.04208,0.00902,-0.01886,-0.03651,-0.01098,-0.01122,1.01223,2.28170,1.17203,2.66333,2.66165,-0.87584,3.94376,2.29622,-0.87174,4.04008,A,112336.40
2.31501,57.68803844,11.98125323,57.68802083,11.98125317,11:23:36.533677,2.31501,0.00618,1.17948,-0.04325,-0.01969,-0.00206,-0.03315,-0.12444,-0.07698,1.21170,2.30936,1.17277,2.66805,2.66633,-0.88775,3.95981,2.29622,-0.87174,4.04008,A,112336.40
2.32359,57.68803855,11.98125315,57.68802083,11.98125317,11:23:36.542256,2.32359,0.00437,1.17948,-0.04182,-0.01984,0.01688,-0.01849,-0.21204,0.10163,1.19816,2.31887,1.17344,2.67276,2.67099,-0.89248,3.97109,2.29622,-0.87174,4.04008,A,112336.40
2.33394,57.68803864,11.98125306,57.68802083,11.98125317,11:23:36.552604,2.33394,0.00448,1.17948,-0.04236,-0.01236,0.01764,-0.01773,-0.07283,-0.05386,1.09025,2.32895,1.17405,2.67741,2.67553,-0.89814,3.98193,2.29622,-0.87174,4.04008,A,112336.40
2.34442,57.68803873,11.98125297,57.68802083,11.98125317,11:23:36.563087,2.34442,0.00457,1.17948,-0.04334,-0.02243,-0.00557,-0.01712,0.16885,-0.06625,0.92183,2.33950,1.17459,2.68201,2.68000,-0.90347,3.99175,2.29622,-0.87174,4.04008,A,112336.40
2.35468,57.68803881,11.98125289,57.68802083,11.98125317,11:23:36.573344,2.35468,0.00444,1.17948,-0.04260,-0.02488,-0.05490,-0.02796,0.18111,0.03739,0.88651,2.34970,1.17508,2.68657,2.68443,-0.90803,4.00043,2.29622,-0.87174,4.04008,A,112336.40
2.36523,57.68803888,11.98125282,57.68802083,11.98125317,11:23:36.583904,2.36523,0.00459,1.17948,-0.04141,-0.01495,-0.06926,-0.03101,0.01623,0.05734,0.85058,2.36027,1.17552,2.69108,2.68880,-0.91244,4.00835,2.29622,-0.87174,4.04008,A,112336.40
2.37541,57.68803895,11.98125275,57.68802083,11.98125317,11:23:36.594075,2.37541,0.00438,1.17948,-0.04158,0.00231,-0.05322,-0.03010,-0.17727,-0.02928,0.85430,2.37069,1.17592,2.69553,2.69316,-0.91652,4.01549,2.29622,-0.87174,4.04008,A,112336.40
2.38582,57.68803900,11.98125269,57.68802083,11.98125317,11:23:36.604491,2.38582,0.00447,1.17948,-0.04325,-0.01281,-0.01886,-0.02857,-0.24949,-0.11828,0.94349,2.38082,1.17627,2.69995,2.69755,-0.91995,4.02175,2.29622,-0.87174,4.04008,A,112336.40
2.39610,57.68803905,11.98125263,57.68802083,11.98125317,11:23:36.614760,2.39610,0.00436,1.17948,-0.04461,-0.02900,0.01138,-0.02597,-0.09065,-0.09138,0.97783,2.39141,1.17659,2.70431,2.70192,-0.92322,4.02743,2.29622,-0.87174,4.04008,A,112336.40
2.41936,57.68803925,11.98125241,57.68802183,11.98125350,11:23:36.638030,2.41936,0.01723,1.17948,-0.04480,-0.03771,0.00787,-0.01208,0.12914,-0.01287,1.05890,2.40160,1.17688,2.70852,2.70613,-0.93670,4.04951,2.41650,-0.85193,4.15128,A,112336.50
2.42943,57.68803937,11.98125242,57.68802183,11.98125350,11:23:36.648101,2.42943,0.00464,1.17948,-0.04423,-0.02366,-0.05841,-0.01040,-0.07418,0.05923,1.21957,2.42445,1.17714,2.71281,2.71041,-0.93587,4.06325,2.41650,-0.85193,4.15128,A,112336.50
2.43980,57.68803949,11.98125243,57.68802183,11.98125350,11:23:36.658473,2.43980,0.00476,1.17948,-0.04408,-0.01556,-0.03062,-0.01727,-0.14573,-0.00329,1.14790,2.43482,1.17737,2.71705,2.71465,-0.93544,4.07571,2.41650,-0.85193,4.15128,A,112336.50
2.45021,57.68803959,11.98125243,57.68802183,11.98125350,11:23:36.668874,2.45021,0.00486,1.17948,-0.04555,-0.01984,-0.00771,-0.02643,-0.10035,-0.10913,0.99686,2.44504,1.17758,2.72125,2.71885,-0.93507,4.08690,2.41650,-0.85193,4.15128,A,112336.50
2.46017,57.68803968,11.98125244,57.68802183,11.98125350,11:23:36.678831,2.46017,0.00443,1.17948,-0.04695,-0.04091,-0.00328,-0.02659,0.05209,-0.07594,0.83058,2.45547,1.17777,2.72540,2.72301,-0.93462,4.09687,2.41650,-0.85193,4.15128,A,112336.50
2.47074,57.68803976,11.98125245,57.68802183,11.98125350,11:23:36.689401,2.47074,0.00460,1.17948,-0.04676,-0.04214,-0.02940,-0.01941,0.07973,0.01074,0.78037,2.46560,1.17794,2.72952,2.72712,-0.93439,4.10589,2.41650,-0.85193,4.15128,A,112336.50
2.48087,57.68803983,11.98125245,57.68802183,11.98125350,11:23:36.699764,2.48087,0.00434,1.17948,-0.04601,-0.03053,-0.03749,-0.01849,-0.09778,0.03819,0.85546,2.47619,1.17810,2.73359,2.73119,-0.93422,4.11398,2.41650,-0.85193,4.15128,A,112336.50
2.49128,57.68803990,11.98125245,57.68802183,11.98125350,11:23:36.709938,2.49128,0.00435,1.37472,-0.04595,-0.01633,-0.02451,-0.01025,-0.14152,-0.01159,0.98015,2.48657,1.19776,2.73762,2.73522,-0.93433,4.12134,2.41650,-0.85193,4.15128,A,112336.50
2.50178,57.68803996,11.98125245,57.68802183,11.98125350,11:23:36.720448,2.50178,0.00444,1.37472,-0.04633,-0.00915,0.00435,-0.01101,-0.11925,-0.05087,1.12515,2.49681,1.21546,2.74161,2.73921,-0.93440,4.12791,2.41650,-0.85193,4.15128,A,112336.50
2.51214,57.68804001,11.98125244,57.68802183,11.98125350,11:23:36.730800,2.51214,0.00435,1.37472,-0.04676,-0.00762,0.01398,-0.00108,0.04935,-0.05734,1.14948,2.50743,1.23138,2.74556,2.74316,-0.93473,4.13390,2.41650,-0.85193,4.15128,A,112336.50
2.53901,57.68804021,11.98125203,57.68802267,11.98125233,11:23:36.757679,2.53901,0.02082,1.37472,-0.04679,-0.01801,-0.00924,0.00564,0.07869,-0.01714,1.17626,2.51926,1.24571,2.74931,2.74692,-0.95903,4.15570,2.53613,-0.92127,4.24394,A,112336.60
2.55674,57.68804035,11.98125182,57.68802267,11.98125233,11:23:36.775660,2.55674,0.00645,1.37472,-0.04780,0.00368,-0.01199,-0.00291,-0.08723,-0.08857,0.86217,2.55199,1.25861,2.75311,2.75073,-0.97167,4.17136,2.53613,-0.92127,4.24394,A,112336.60
2.56532,57.68804044,11.98125179,57.68802267,11.98125233,11:23:36.783994,2.56532,0.00464,1.37472,-0.04864,-0.00518,-0.00802,-0.00383,-0.03691,-0.06673,0.81777,2.56034,1.27022,2.75696,2.75466,-0.97342,4.18141,2.53613,-0.92127,4.24394,A,112336.60
2.57545,57.68804053,11.98125173,57.68802267,11.98125233,11:23:36.794106,2.57545,0.00437,1.37472,-0.04794,-0.00991,-0.00908,0.00564,-0.02653,0.02129,0.87047,2.57075,1.28067,2.76076,2.75863,-0.97700,4.19125,2.53613,-0.92127,4.24394,A,112336.60
2.58579,57.68804061,11.98125167,57.68802267,11.98125233,11:23:36.804452,2.58579,0.00444,1.37472,-0.04707,-0.00121,-0.00634,0.01083,-0.00921,0.02647,0.86187,2.58083,1.29008,2.76452,2.76266,-0.98025,4.20007,2.53613,-0.92127,4.24394,A,112336.60
2.59608,57.68804068,11.98125162,57.68802267,11.98125233,11:23:36.814736,2.59608,0.00433,1.37472,-0.04744,0.01116,-0.00328,0.01190,-0.03898,-0.05703,0.95495,2.59139,1.29854,2.76824,2.76671,-0.98350,4.20810,2.53613,-0.92127,4.24394,A,112336.60
2.60665,57.68804074,11.98125157,57.68802267,11.98125233,11:23:36.825321,2.60665,0.00451,1.37472,-0.04781,0.00246,0.00512,0.01251,-0.05697,-0.05819,1.08525,2.60160,1.30616,2.77194,2.77070,-0.98639,4.21527,2.53613,-0.92127,4.24394,A,112336.60
2.61688,57.68804080,11.98125153,57.68802267,11.98125233,11:23:36.835777,2.61688,0.00435,1.37472,-0.04785,-0.00182,0.01092,-0.00078,-0.08137,-0.03337,1.18572,2.61220,1.31301,2.77561,2.77461,-0.98910,4.22173,2.53613,-0.92127,4.24394,A,112336.60
2.62729,57.68804085,11.98125148,57.68802267,11.98125233,11:23:36.845949,2.62729,0.00436,1.37472,-0.04761,-0.00777,0.01031,-0.00169,0.05112,-0.00689,1.11667,2.62258,1.31918,2.77924,2.77840,-0.99178,4.22759,2.53613,-0.92127,4.24394,A,112336.60
2.63779,57.68804090,11.98125144,57.68802267,11.98125233,11:23:36.856452,2.63779,0.00443,1.37472,-0.04744,-0.00976,-0.02191,-0.00734,0.07729,-0.00964,1.05524,2.63283,1.32474,2.78285,2.78209,-0.99405,4.23276,2.53613,-0.92127,4.24394,A,112336.60
2.67204,57.68804122,11.98125084,57.68802450,11.98125117,11:23:36.890705,2.67204,0.02829,1.37472,-0.04714,-0.00732,-0.03871,-0.00582,0.01708,-0.00201,1.03761,2.64340,1.32974,2.78634,2.78560,-1.03000,4.26791,2.66935,-0.99062,4.44780,A,112336.80
2.68231,57.68804141,11.98125075,57.68802450,11.98125117,11:23:36.900962,2.68231,0.00462,1.37472,-0.04802,-0.01770,-0.02329,-0.00459,-0.05417,-0.04002,0.87529,2.67724,1.33423,2.78988,2.78914,-1.03512,4.28926,2.66935,-0.99062,4.44780,A,112336.80
2.69244,57.68804158,11.98125067,57.68802450,11.98125117,11:23:36.911101,2.69244,0.00436,1.37472,-0.04825,-0.01617,-0.01855,-0.00032,-0.05832,-0.02879,0.91628,2.68775,1.33828,2.79338,2.79263,-1.04004,4.30856,2.66935,-0.99062,4.44780,A,112336.80
2.70287,57.68804174,11.98125059,57.68802450,11.98125117,11:23:36.921540,2.70287,0.00440,1.37472,-0.04803,-0.02198,-0.02161,0.00610,-0.17513,0.00140,1.02431,2.69794,1.34193,2.79684,2.79610,-1.04456,4.32593,2.66935,-0.99062,4.44780,A,112336.80
2.71370,57.68804188,11.98125052,57.68802450,11.98125117,11:23:36.932356,2.71370,0.00450,1.37472,-0.04801,-0.01617,0.00481,0.00411,-0.11645,-0.01616,1.11282,2.70870,1.34520,2.80027,2.79953,-1.04905,4.34167,2.66935,-0.99062,4.44780,A,112336.80
2.72391,57.68804201,11.98125045,57.68802450,11.98125117,11:23:36.942576,2.72391,0.00432,1.37472,-0.04813,-0.02809,0.01260,-0.00032,-0.00909,-0.01665,1.06012,2.71923,1.34816,2.80366,2.80292,-1.05279,4.35570,2.66935,-0.99062,4.44780,A,112336.80
2.73443,57.68804212,11.98125040,57.68802450,11.98125117,11:23:36.953095,2.73443,0.00446,1.37472,-0.04790,-0.03923,-0.00740,-0.00444,0.03032,0.01476,1.03676,2.72943,1.35081,2.80702,2.80628,-1.05616,4.36829,2.66935,-0.99062,4.44780,A,112336.80
2.74470,57.68804222,11.98125034,57.68802450,11.98125117,11:23:36.963593,2.74470,0.00434,1.37472,-0.04752,-0.03847,-0.02558,-0.00979,-0.02275,0.02458,0.98863,2.74003,1.35320,2.81035,2.80961,-1.05932,4.37962,2.66935,-0.99062,4.44780,A,112336.80
2.75514,57.68804231,11.98125029,57.68802450,11.98125117,11:23:36.973806,2.75514,0.00438,1.37472,-0.04704,-0.03694,-0.02894,-0.01040,-0.08778,0.02989,1.01248,2.75023,1.35535,2.81364,2.81290,-1.06235,4.38985,2.66935,-0.99062,4.44780,A,112336.80
2.76571,57.68804239,11.98125025,57.68802450,11.98125117,11:23:36.984381,2.76571,0.00443,1.37472,-0.04793,-0.04030,-0.02390,-0.01605,-0.11334,-0.05539,0.96063,2.76076,1.35729,2.81691,2.81616,-1.06497,4.39899,2.66935,-0.99062,4.44780,A,112336.80
2.79137,57.68804262,11.98124988,57.68802550,11.98125083,11:23:37.010037,2.79137,0.01969,1.37472,-0.04932,-0.05664,-0.02222,-0.01590,-0.09077,-0.07472,0.91829,2.77134,1.35903,2.82009,2.81934,-1.08717,4.42432,2.78838,-1.01043,4.55899,A,112336.90
2.80390,57.68804278,11.98124980,57.68802550,11.98125083,11:23:37.022566,2.80390,0.00518,1.37472,-0.05049,-0.05954,0.02558,-0.00643,-0.14610,0.00281,1.02047,2.79917,1.36060,2.82328,2.82253,-1.09188,4.44192,2.78838,-1.01043,4.55899,A,112336.90
2.81381,57.68804291,11.98124978,57.68802550,11.98125083,11:23:37.032478,2.81381,0.00456,1.37472,-0.05090,-0.06397,0.04284,-0.00765,-0.11797,-0.01824,1.06585,2.80871,1.36201,2.82644,2.82570,-1.09267,4.45658,2.78838,-1.01043,4.55899,A,112336.90
2.82401,57.68804303,11.98124976,57.68802550,11.98125083,11:23:37.042676,2.82401,0.00437,1.37472,-0.05117,-0.06565,0.05063,-0.00383,-0.06673,-0.00317,1.13344,2.81931,1.36328,2.82957,2.82883,-1.09420,4.47001,2.78838,-1.01043,4.55899,A,112336.90
2.83460,57.68804314,11.98124973,57.68802550,11.98125083,11:23:37.053265,2.83460,0.00457,1.37472,-0.05122,-0.05939,0.04757,-0.00795,-0.01769,0.00689,1.16644,2.82949,1.36443,2.83268,2.83193,-1.09556,4.48206,2.78838,-1.01043,4.55899,A,112336.90
2.84478,57.68804324,11.98124971,57.68802550,11.98125083,11:23:37.063822,2.84478,0.00435,1.37472,-0.05169,-0.06458,0.01932,-0.01971,0.13682,-0.01800,1.05865,2.84007,1.36545,2.83575,2.83501,-1.09680,4.49287,2.78838,-1.01043,4.55899,A,112336.90
2.85536,57.68804333,11.98124969,57.68802550,11.98125083,11:23:37.074022,2.85536,0.00454,1.37472,-0.05278,-0.06321,-0.02848,-0.02384,0.09284,-0.05655,0.92098,2.85029,1.36638,2.83879,2.83804,-1.09822,4.50267,2.78838,-1.01043,4.55899,A,112336.90
2.86580,57.68804341,11.98124967,57.68802550,11.98125083,11:23:37.084457,2.86580,0.00444,1.37472,-0.05432,-0.06184,-0.04497,-0.02933,-0.11944,-0.08204,0.88383,2.86083,1.36721,2.84180,2.84105,-1.09923,4.51136,2.78838,-1.01043,4.55899,A,112336.90
2.87610,57.68804348,11.98124965,57.68802550,11.98125083,11:23:37.094760,2.87610,0.00435,1.37472,-0.05590,-0.05649,-0.01855,-0.02979,-0.19203,-0.08418,0.84357,2.87140,1.36796,2.84477,2.84403,-1.10031,4.51921,2.78838,-1.01043,4.55899,A,112336.90
2.88671,57.68804354,11.98124964,57.68802550,11.98125083,11:23:37.105371,2.88671,0.00457,1.37472,-0.05841,-0.05008,0.01840,-0.02032,-0.09992,-0.14597,0.85443,2.88160,1.36864,2.84772,2.84698,-1.10117,4.52621,2.78838,-1.01043,4.55899,A,112336.90
2.90948,57.68804372,11.98124925,57.68802633,11.98124950,11:23:37.128149,2.90948,0.01694,1.37472,-0.05960,-0.05328,0.02008,-0.00658,0.03745,-0.07308,0.91018,2.89220,1.36925,2.85061,2.84986,-1.12459,4.54621,2.90659,-1.08968,4.65165,A,112337.00
2.92572,57.68804386,11.98124903,57.68802633,11.98124950,11:23:37.144384,2.92572,0.00683,1.37472,-0.05992,-0.03786,0.00497,0.01724,-0.10577,0.01196,1.14887,2.92067,1.36979,2.85348,2.85274,-1.13771,4.56174,2.90659,-1.08968,4.65165,A,112337.00
2.93437,57.68804396,11.98124898,57.68802633,11.98124950,11:23:37.153038,2.93437,0.00507,1.37472,-0.05991,-0.03404,0.01321,0.01404,-0.10279,-0.02208,1.15052,2.92931,1.37029,2.85635,2.85561,-1.14055,4.57301,2.90659,-1.08968,4.65165,A,112337.00
2.94532,57.68804406,11.98124889,57.68802633,11.98124950,11:23:37.163990,2.94532,0.00518,1.37472,-0.06049,-0.03832,0.01581,-0.00215,0.06936,-0.05356,1.06311,2.94033,1.37073,2.85918,2.85844,-1.14591,4.58394,2.90659,-1.08968,4.65165,A,112337.00
2.95731,57.68804415,11.98124878,57.68802633,11.98124950,11:23:37.175980,2.95731,0.00677,1.37472,-0.06060,-0.05145,-0.00679,-0.01406,0.10797,-0.00665,1.01394,2.95232,1.37113,2.86198,2.86124,-1.15202,4.59413,2.90659,-1.08968,4.65165,A,112337.00
2.96565,57.68804422,11.98124877,57.68802633,11.98124950,11:23:37.184319,2.96565,0.00448,1.37472,-0.06088,-0.04809,-0.02390,-0.01513,-0.01391,-0.03160,0.96740,2.96065,1.37149,2.86476,2.86402,-1.15317,4.60201,2.90659,-1.08968,4.65165,A,112337.00
2.97598,57.68804429,11.98124870,57.68802633,11.98124950,11:23:37.194639,2.97598,0.00442,1.37472,-0.06151,-0.04809,-0.00710,-0.02185,-0.17178,-0.04923,1.01071,2.97128,1.37181,2.86751,2.86677,-1.15692,4.60985,2.90659,-1.08968,4.65165,A,112337.00
2.98641,57.68804435,11.98124865,57.68802633,11.98124950,11:23:37.205079,2.98641,0.00446,1.37472,-0.06243,-0.04107,0.02497,-0.01849,-0.14152,-0.07424,0.99241,2.98142,1.37210,2.87023,2.86949,-1.16006,4.61681,2.90659,-1.08968,4.65165,A,112337.00
2.99671,57.68804441,11.98124860,57.68802633,11.98124950,11:23:37.215600,2.99671,0.00436,1.37472,-0.06385,-0.05023,0.04406,-0.01849,-0.05740,-0.10309,1.01162,2.99202,1.37236,2.87293,2.87219,-1.16309,4.62311,2.90659,-1.08968,4.65165,A,112337.00
3.00704,57.68804446,11.98124856,57.68802633,11.98124950,11:23:37.225705,3.00704,0.00452,1.41123,-0.06402,-0.05130,0.03734,-0.00123,0.11364,-0.02043,0.96404,3.00194,1.37625,2.87560,2.87486,-1.16540,4.62862,2.90659,-1.08968,4.65165,A,112337.00
3.03015,57.68804459,11.98124824,57.68802683,11.98124933,11:23:37.248815,3.03015,0.01706,1.41123,-0.06388,-0.03878,0.00099,0.00503,0.14237,-0.00634,0.91354,3.01258,1.37975,2.87820,2.87746,-1.18410,4.64340,3.02725,-1.09958,4.70725,A,112337.10
3.04750,57.68804469,11.98124807,57.68802683,11.98124933,11:23:37.266171,3.04750,0.00663,1.41123,-0.06510,-0.01633,-0.03841,0.01144,-0.03727,-0.09290,1.00131,3.04272,1.38290,2.88079,2.88008,-1.19420,4.65480,3.02725,-1.09958,4.70725,A,112337.10
3.05563,57.68804476,11.98124811,57.68802683,11.98124933,11:23:37.274282,3.05563,0.00435,1.41123,-0.06617,-0.01785,-0.03276,0.00716,-0.03282,-0.10516,0.99027,3.05092,1.38573,2.88339,2.88274,-1.19232,4.66207,3.02725,-1.09958,4.70725,A,112337.10
3.06599,57.68804482,11.98124810,57.68802683,11.98124933,11:23:37.284658,3.06599,0.00447,1.41123,-0.06632,-0.01785,-0.03276,0.01159,0.02891,-0.04459,1.02065,3.06102,1.38828,2.88595,2.88547,-1.19300,4.66923,3.02725,-1.09958,4.70725,A,112337.10
3.07626,57.68804488,11.98124808,57.68802683,11.98124933,11:23:37.294919,3.07626,0.00435,1.41123,-0.06681,-0.00930,-0.03520,0.01556,0.03404,-0.07308,1.01467,3.07156,1.39058,2.88850,2.88830,-1.19385,4.67570,3.02725,-1.09958,4.70725,A,112337.10
3.08673,57.68804493,11.98124807,57.68802683,11.98124933,11:23:37.305394,3.08673,0.00443,1.41123,-0.06701,-0.00258,-0.03657,0.02213,-0.10089,-0.05960,1.03816,3.08176,1.39264,2.89102,2.89120,-1.19454,4.68147,3.02725,-1.09958,4.70725,A,112337.10
3.09742,57.68804498,11.98124805,57.68802683,11.98124933,11:23:37.316092,3.09742,0.00473,1.41123,-0.06680,-0.00228,-0.01076,0.01663,-0.13463,-0.03056,1.02474,3.09247,1.39450,2.89353,2.89414,-1.19550,4.68673,3.02725,-1.09958,4.70725,A,112337.10
3.10746,57.68804502,11.98124805,57.68802683,11.98124933,11:23:37.326124,3.10746,0.00437,1.41123,-0.06711,0.00200,0.01443,0.01297,-0.04386,-0.06545,0.97588,3.10275,1.39617,2.89603,2.89704,-1.19591,4.69130,3.02725,-1.09958,4.70725,A,112337.10
3.11780,57.68804506,11.98124804,57.68802683,11.98124933,11:23:37.336465,3.11780,0.00445,1.41123,-0.06691,0.00276,0.01489,0.00747,0.08760,-0.03233,0.95258,3.11284,1.39768,2.89851,2.89989,-1.19633,4.69541,3.02725,-1.09958,4.70725,A,112337.10
3.12808,57.68804509,11.98124803,57.68802683,11.98124933,11:23:37.346737,3.12808,0.00433,1.41123,-0.06659,0.00872,-0.01321,0.00380,0.10651,-0.02830,0.94910,3.12339,1.39904,2.90098,2.90271,-1.19698,4.69914,3.02725,-1.09958,4.70725,A,112337.10
3.16328,57.68804542,11.98124732,57.68802917,11.98124750,11:23:37.381960,3.16328,0.02915,1.41123,-0.06595,0.01880,-0.03092,0.00655,-0.00579,-0.01452,1.02218,3.13361,1.40025,2.90362,2.90562,-1.23905,4.73586,3.16041,-1.20855,4.96671,A,112337.30
3.17346,57.68804565,11.98124720,57.68802917,11.98124750,11:23:37.392130,3.17346,0.00469,1.41123,-0.06530,0.03392,-0.02512,0.03099,0.05337,-0.07381,0.94825,3.16849,1.40135,2.90605,2.90880,-1.24590,4.76132,3.16041,-1.20855,4.96671,A,112337.30
3.18353,57.68804586,11.98124710,57.68802917,11.98124750,11:23:37.402194,3.18353,0.00436,1.41123,-0.06459,0.04690,-0.02375,0.03526,-0.06021,-0.02806,1.03602,3.17882,1.40234,2.90847,2.91143,-1.25228,4.78426,3.16041,-1.20855,4.96671,A,112337.30
3.19442,57.68804605,11.98124699,57.68802917,11.98124750,11:23:37.413087,3.19442,0.00501,1.41123,-0.06369,0.05270,-0.00359,0.03511,-0.05380,-0.01885,1.02858,3.18942,1.40323,2.91088,2.91407,-1.25868,4.80503,3.16041,-1.20855,4.96671,A,112337.30
3.20416,57.68804621,11.98124691,57.68802917,11.98124750,11:23:37.422819,3.20416,0.00435,1.41123,-0.06307,0.05469,-0.00511,0.03572,-0.06698,-0.03812,1.08330,3.19946,1.40403,2.91327,2.91665,-1.26340,4.82345,3.16041,-1.20855,4.96671,A,112337.30
3.21476,57.68804636,11.98124683,57.68802917,11.98124750,11:23:37.433426,3.21476,0.00456,1.41123,-0.06217,0.05102,0.00817,0.03099,-0.04282,-0.01494,1.06268,3.20967,1.40475,2.91564,2.91921,-1.26823,4.84014,3.16041,-1.20855,4.96671,A,112337.30
3.22529,57.68804650,11.98124676,57.68802917,11.98124750,11:23:37.443977,3.22529,0.00469,1.41123,-0.06102,0.05835,0.01336,0.02992,0.02007,-0.00360,1.03511,3.22025,1.40540,2.91799,2.92175,-1.27256,4.85512,3.16041,-1.20855,4.96671,A,112337.30
3.23535,57.68804662,11.98124669,57.68802917,11.98124750,11:23:37.454008,3.23535,0.00436,1.41123,-0.05992,0.06309,0.00344,0.02580,0.03782,-0.00708,0.98728,3.23064,1.40598,2.92033,2.92427,-1.27677,4.86865,3.16041,-1.20855,4.96671,A,112337.30
3.24600,57.68804673,11.98124663,57.68802917,11.98124750,11:23:37.464663,3.24600,0.00465,1.41123,-0.05965,0.05576,-0.01611,0.02854,0.03593,-0.05307,0.95739,3.24082,1.40651,2.92265,2.92676,-1.28025,4.88073,3.16041,-1.20855,4.96671,A,112337.30
3.25607,57.68804682,11.98124658,57.68802917,11.98124750,11:23:37.474724,3.25607,0.00433,1.41123,-0.05953,0.05392,-0.02405,0.02167,-0.08162,-0.06198,0.94934,3.25139,1.40698,2.92494,2.92923,-1.28329,4.89156,3.16041,-1.20855,4.96671,A,112337.30
3.27884,57.68804706,11.98124620,57.68803033,11.98124683,11:23:37.497504,3.27884,0.01670,1.41123,-0.05928,0.05499,-0.01474,0.01923,-0.03861,-0.05039,0.89572,3.26160,1.40741,2.92745,2.93193,-1.30565,4.91762,3.27602,-1.24818,5.09643,A,112337.40
3.29134,57.68804724,11.98124609,57.68803033,11.98124683,11:23:37.510004,3.29134,0.00654,1.41123,-0.05782,0.05667,0.00252,0.02595,-0.07814,-0.02751,1.00735,3.28570,1.40779,2.92974,2.93458,-1.31198,4.93807,3.27602,-1.24818,5.09643,A,112337.40
3.29955,57.68804740,11.98124607,57.68803033,11.98124683,11:23:37.518206,3.29955,0.00435,1.41123,-0.05750,0.05820,0.01566,0.03007,-0.09205,-0.05191,1.07494,3.29485,1.40813,2.93194,2.93687,-1.31352,4.95557,3.27602,-1.24818,5.09643,A,112337.40
3.30993,57.68804755,11.98124600,57.68803033,11.98124683,11:23:37.528587,3.30993,0.00449,1.41123,-0.05732,0.04995,0.02268,0.03374,-0.02342,-0.05789,1.06360,3.30493,1.40844,2.93417,2.93911,-1.31722,4.97178,3.27602,-1.24818,5.09643,A,112337.40
3.32021,57.68804768,11.98124594,57.68803033,11.98124683,11:23:37.538871,3.32021,0.00437,1.41123,-0.05708,0.03819,0.01092,0.03282,0.02190,-0.04362,0.99259,3.31550,1.40872,2.93637,2.94132,-1.32081,4.98640,3.27602,-1.24818,5.09643,A,112337.40
3.33068,57.68804780,11.98124589,57.68803033,11.98124683,11:23:37.549336,3.33068,0.00444,1.41123,-0.05605,0.03163,-0.00206,0.03404,0.07430,0.01354,0.95654,3.32569,1.40897,2.93855,2.94350,-1.32392,4.99951,3.27602,-1.24818,5.09643,A,112337.40
3.34143,57.68804790,11.98124584,57.68803033,11.98124683,11:23:37.560096,3.34143,0.00480,1.41123,-0.05443,0.03453,-0.02084,0.02641,-0.06112,0.05264,1.00180,3.33627,1.40920,2.94072,2.94566,-1.32686,5.01132,3.27602,-1.24818,5.09643,A,112337.40
3.35187,57.68804800,11.98124580,57.68803033,11.98124683,11:23:37.570534,3.35187,0.00485,1.41123,-0.05309,0.04094,-0.01153,0.01892,-0.10626,0.03148,1.05201,3.34683,1.40940,2.94285,2.94780,-1.32930,5.02187,3.27602,-1.24818,5.09643,A,112337.40
3.36178,57.68804808,11.98124577,57.68803033,11.98124683,11:23:37.580440,3.36178,0.00443,1.41123,-0.05327,0.04094,0.00588,0.01205,-0.06240,-0.06911,1.01193,3.35682,1.40959,2.94496,2.94990,-1.33091,5.03124,3.27602,-1.24818,5.09643,A,112337.40
3.37216,57.68804816,11.98124573,57.68803033,11.98124683,11:23:37.590824,3.37216,0.00442,1.41123,-0.05360,0.02475,0.01611,0.00335,-0.03068,-0.06905,1.00632,3.36746,1.40975,2.94706,2.95201,-1.33330,5.03983,3.27602,-1.24818,5.09643,A,112337.40
3.39548,57.68804835,11.98124534,57.68803133,11.98124600,11:23:37.614140,3.39548,0.01734,1.41123,-0.05378,0.00872,0.01886,0.00655,0.01421,-0.04727,1.00077,3.37760,1.40990,2.94942,2.95436,-1.35661,5.06176,3.39250,-1.29771,5.20763,A,112337.50
3.40557,57.68804850,11.98124527,57.68803133,11.98124600,11:23:37.624229,3.40557,0.00455,1.41123,-0.05295,0.01238,-0.00970,0.01770,-0.00323,0.00641,0.91573,3.40057,1.41003,2.95146,2.95641,-1.36065,5.07823,3.39250,-1.29771,5.20763,A,112337.50
3.41578,57.68804864,11.98124520,57.68803133,11.98124600,11:23:37.634432,3.41578,0.00435,1.41123,-0.05228,0.02506,-0.00908,0.01862,-0.21826,-0.00183,1.04938,3.41107,1.41015,2.95349,2.95844,-1.36481,5.09313,3.39250,-1.29771,5.20763,A,112337.50
3.42612,57.68804876,11.98124514,57.68803133,11.98124600,11:23:37.644777,3.42612,0.00446,1.41123,-0.05236,0.02445,0.02344,0.01816,-0.10205,-0.05472,1.09074,3.42115,1.41026,2.95550,2.96045,-1.36837,5.10648,3.39250,-1.29771,5.20763,A,112337.50
3.43658,57.68804887,11.98124508,57.68803133,11.98124600,11:23:37.655475,3.43658,0.00452,1.41123,-0.05300,0.01865,0.03032,0.01709,0.12840,-0.08546,1.01101,3.43188,1.41036,2.95750,2.96244,-1.37210,5.11857,3.39250,-1.29771,5.20763,A,112337.50
3.44686,57.68804896,11.98124503,57.68803133,11.98124600,11:23:37.665518,3.44686,0.00441,1.41123,-0.05326,0.00017,0.01092,0.01755,0.06985,-0.04593,0.99326,3.44190,1.41045,2.95947,2.96441,-1.37489,5.12933,3.39250,-1.29771,5.20763,A,112337.50
3.45741,57.68804905,11.98124499,57.68803133,11.98124600,11:23:37.676069,3.45741,0.00456,1.41123,-0.05260,-0.01556,0.00680,0.01541,-0.11566,0.02593,1.01699,3.45248,1.41052,2.96142,2.96637,-1.37779,5.13906,3.39250,-1.29771,5.20763,A,112337.50
3.46759,57.68804913,11.98124494,57.68803133,11.98124600,11:23:37.686247,3.46759,0.00435,1.41123,-0.05185,-0.00655,0.02665,0.00732,-0.18556,0.02629,1.03133,3.46290,1.41060,2.96335,2.96830,-1.38023,5.14777,3.39250,-1.29771,5.20763,A,112337.50
3.47795,57.68804920,11.98124491,57.68803133,11.98124600,11:23:37.696617,3.47795,0.00448,1.41123,-0.05203,-0.01297,0.04192,-0.00185,-0.02714,-0.03044,0.96313,3.47295,1.41066,2.96526,2.97020,-1.38228,5.15556,3.39250,-1.29771,5.20763,A,112337.50
3.48821,57.68804926,11.98124488,57.68803133,11.98124600,11:23:37.706865,3.48821,0.00434,1.41123,-0.05198,-0.02137,0.01535,-0.00963,0.10303,-0.00988,0.99265,3.48352,1.41072,2.96716,2.97205,-1.38437,5.16259,3.39250,-1.29771,5.20763,A,112337.50
3.51264,57.68804948,11.98124441,57.68803267,11.98124467,11:23:37.731446,3.51264,0.01839,1.41123,-0.05222,-0.02824,-0.01321,-0.01086,0.02190,-0.02367,1.04231,3.49496,1.41077,2.96933,2.97416,-1.41202,5.18678,3.50993,-1.37696,5.35589,A,112337.60
3.52587,57.68804965,11.98124424,57.68803267,11.98124467,11:23:37.744536,3.52587,0.00460,1.46541,-0.05314,-0.01419,0.02161,0.00182,-0.07076,-0.06667,1.01480,3.52084,1.41623,2.97124,2.97601,-1.42239,5.20604,3.50993,-1.37696,5.35589,A,112337.60
3.53600,57.68804980,11.98124414,57.68803267,11.98124467,11:23:37.754664,3.53600,0.00433,1.46541,-0.05336,-0.01297,0.02161,0.01388,-0.09839,-0.03111,0.90939,3.53131,1.42115,2.97307,2.97784,-1.42828,5.22277,3.50993,-1.37696,5.35589,A,112337.60
3.54650,57.68804994,11.98124404,57.68803267,11.98124467,11:23:37.765163,3.54650,0.00444,1.46541,-0.05292,-0.00991,0.03490,0.02534,0.01555,0.00598,0.84631,3.54152,1.42558,2.97488,2.97965,-1.43374,5.23783,3.50993,-1.37696,5.35589,A,112337.60
3.55680,57.68805006,11.98124396,57.68803267,11.98124467,11:23:37.775711,3.55680,0.00433,1.46541,-0.05280,0.00108,0.01886,0.03481,0.08021,-0.01714,0.81045,3.55211,1.42956,2.97668,2.98145,-1.43881,5.25139,3.50993,-1.37696,5.35589,A,112337.60
3.56722,57.68805017,11.98124388,57.68803267,11.98124467,11:23:37.785872,3.56722,0.00435,1.46541,-0.05316,-0.00319,-0.01321,0.03740,0.07046,-0.04020,0.81051,3.56231,1.43314,2.97846,2.98323,-1.44352,5.26360,3.50993,-1.37696,5.35589,A,112337.60
3.57793,57.68805027,11.98124381,57.68803267,11.98124467,11:23:37.796588,3.57793,0.00446,1.46541,-0.05320,-0.00533,-0.03841,0.03236,-0.08735,-0.02739,0.97929,3.57294,1.43637,2.98022,2.98499,-1.44782,5.27458,3.50993,-1.37696,5.35589,A,112337.60
3.58925,57.68805036,11.98124373,57.68803267,11.98124467,11:23:37.807930,3.58925,0.00539,1.46541,-0.05288,-0.00167,-0.00328,0.01236,-0.24876,-0.00854,1.19407,3.58422,1.43927,2.98198,2.98675,-1.45247,5.28456,3.50993,-1.37696,5.35589,A,112337.60
3.59869,57.68805044,11.98124369,57.68803267,11.98124467,11:23:37.817349,3.59869,0.00445,1.46541,-0.05277,0.00597,0.04376,0.00243,-0.02312,-0.03050,1.18163,3.59371,1.44189,2.98369,2.98846,-1.45462,5.29321,3.50993,-1.37696,5.35589,A,112337.60
3.61108,57.68805051,11.98124360,57.68803267,11.98124467,11:23:37.829745,3.61108,0.00644,1.46541,-0.05351,0.00276,0.03444,0.00564,0.16964,-0.09126,1.12740,3.60573,1.44424,2.98544,2.99021,-1.46001,5.30151,3.50993,-1.37696,5.35589,A,112337.60
3.63170,57.68805071,11.98124327,57.68803383,11.98124400,11:23:37.850360,3.63170,0.01666,1.46541,-0.05403,-0.00869,-0.00282,0.01220,0.11395,-0.06326,1.06939,3.61467,1.44636,2.98735,2.99212,-1.47993,5.32362,3.62899,-1.41658,5.48562,A,112337.70
3.64624,57.68805088,11.98124311,57.68803383,11.98124400,11:23:37.864908,3.64624,0.00627,1.46541,-0.05368,0.00612,0.01245,0.02045,-0.11828,-0.01562,0.91561,3.64119,1.44826,2.98911,2.99388,-1.48951,5.34222,3.62899,-1.41658,5.48562,A,112337.70
3.65499,57.68805102,11.98124308,57.68803383,11.98124400,11:23:37.873650,3.65499,0.00462,1.46541,-0.05449,0.01345,0.01291,0.02335,0.11370,-0.07326,0.80868,3.65004,1.44998,2.99073,2.99550,-1.49083,5.35784,3.62899,-1.41658,5.48562,A,112337.70
3.66541,57.68805115,11.98124303,57.68803383,11.98124400,11:23:37.884080,3.66541,0.00459,1.46541,-0.05558,0.00857,-0.02069,0.02228,0.14176,-0.08717,0.80172,3.66046,1.45152,2.99237,2.99714,-1.49418,5.37220,3.62899,-1.41658,5.48562,A,112337.70
3.67558,57.68805126,11.98124298,57.68803383,11.98124400,11:23:37.894233,3.67558,0.00436,1.46541,-0.05590,0.00872,-0.04268,0.03053,-0.10388,-0.05557,0.93934,3.67087,1.45291,2.99399,2.99876,-1.49721,5.38511,3.62899,-1.41658,5.48562,A,112337.70
3.68594,57.68805137,11.98124293,57.68803383,11.98124400,11:23:37.904608,3.68594,0.00449,1.46541,-0.05556,0.00643,-0.01458,0.02870,-0.23125,-0.01342,1.00583,3.68095,1.45416,2.99560,3.00036,-1.49980,5.39669,3.62899,-1.41658,5.48562,A,112337.70
3.69622,57.68805146,11.98124289,57.68803383,11.98124400,11:23:37.914880,3.69622,0.00437,1.46541,-0.05558,0.00292,0.02039,0.03420,-0.19831,-0.03666,1.06036,3.69152,1.45528,2.99719,3.00196,-1.50243,5.40714,3.62899,-1.41658,5.48562,A,112337.70
3.70667,57.68805155,11.98124285,57.68803383,11.98124400,11:23:37.925334,3.70667,0.00442,1.46541,-0.05566,-0.00564,0.04620,0.02809,0.02312,-0.03544,1.05469,3.70170,1.45630,2.99876,3.00353,-1.50467,5.41651,3.62899,-1.41658,5.48562,A,112337.70
3.71722,57.68805162,11.98124281,57.68803383,11.98124400,11:23:37.935895,3.71722,0.00459,1.46541,-0.05514,-0.01556,0.01260,0.02748,0.16604,0.01464,1.07854,3.71229,1.45721,3.00032,3.00509,-1.50687,5.42495,3.62899,-1.41658,5.48562,A,112337.70
3.72739,57.68805169,11.98124278,57.68803383,11.98124400,11:23:37.946052,3.72739,0.00436,1.46541,-0.05400,-0.01877,-0.03535,0.02717,0.00476,0.06320,1.09062,3.72269,1.45803,3.00187,3.00664,-1.50900,5.43255,3.62899,-1.41658,5.48562,A,112337.70
3.77320,57.68805201,11.98124176,57.68803583,11.98124183,11:23:37.991867,3.77320,0.03985,1.46541,-0.05345,-0.00930,-0.03260,0.01740,-0.16751,0.01287,1.05554,3.73282,1.45876,3.00416,3.00893,-1.56972,5.46785,3.77030,-1.54536,5.70801,A,112337.90
3.79030,57.68805225,11.98124148,57.68803583,11.98124183,11:23:38.008980,3.79030,0.00624,1.46541,-0.05380,-0.02686,-0.02313,0.01755,-0.17513,0.03709,0.93428,3.78477,1.45943,3.00580,3.01057,-1.58611,5.49438,3.77030,-1.54536,5.70801,A,112337.90
3.79888,57.68805245,11.98124141,57.68803583,11.98124183,11:23:38.017539,3.79888,0.00441,1.46541,-0.05357,-0.01129,0.01657,0.02381,-0.26651,-0.00860,1.04749,3.79394,1.46003,3.00725,3.01202,-1.59050,5.51685,3.77030,-1.54536,5.70801,A,112337.90
3.80944,57.68805263,11.98124130,57.68803583,11.98124183,11:23:38.028110,3.80944,0.00459,1.46541,-0.05395,-0.01755,0.05582,0.02549,-0.15970,-0.04746,1.11349,3.80450,1.46057,3.00873,3.01349,-1.59704,5.53741,3.77030,-1.54536,5.70801,A,112337.90
3.81962,57.68805280,11.98124120,57.68803583,11.98124183,11:23:38.038277,3.81962,0.00437,1.46541,-0.05454,-0.03297,0.06498,0.02595,-0.01562,-0.05368,1.13875,3.81491,1.46105,3.01019,3.01495,-1.60276,5.55587,3.77030,-1.54536,5.70801,A,112337.90
3.82995,57.68805295,11.98124112,57.68803583,11.98124183,11:23:38.048619,3.82995,0.00448,1.46541,-0.05475,-0.04290,0.05170,0.02030,0.04709,-0.01873,1.13161,3.82497,1.46149,3.01163,3.01640,-1.60774,5.57245,3.77030,-1.54536,5.70801,A,112337.90
3.84031,57.68805308,11.98124104,57.68803583,11.98124183,11:23:38.058966,3.84031,0.00444,1.46541,-0.05434,-0.05038,0.02314,0.01190,0.01037,0.03404,1.09166,3.83560,1.46188,3.01306,3.01783,-1.61262,5.58741,3.77030,-1.54536,5.70801,A,112337.90
3.85058,57.68805320,11.98124097,57.68803583,11.98124183,11:23:38.069246,3.85058,0.00448,1.46541,-0.05404,-0.04977,0.00420,0.00411,-0.06289,0.02220,0.98308,3.84559,1.46223,3.01448,3.01921,-1.61655,5.60079,3.77030,-1.54536,5.70801,A,112337.90
3.86085,57.68805331,11.98124090,57.68803583,11.98124183,11:23:38.079754,3.86085,0.00436,1.46541,-0.05488,-0.04840,-0.01718,-0.00658,-0.07296,-0.04575,0.87724,3.85616,1.46255,3.01588,3.02048,-1.62046,5.61287,3.77030,-1.54536,5.70801,A,112337.90
3.87126,57.68805341,11.98124084,57.68803583,11.98124183,11:23:38.089916,3.87126,0.00436,1.46541,-0.05620,-0.05389,-0.01642,-0.01452,-0.09058,-0.06643,0.80984,3.86656,1.46283,3.01727,3.02163,-1.62416,5.62375,3.77030,-1.54536,5.70801,A,112337.90
3.89454,57.68805366,11.98124043,57.68803733,11.98124100,11:23:38.113209,3.89454,0.01718,1.46541,-0.05789,-0.05252,-0.01076,-0.01880,-0.03282,-0.08906,0.81575,3.87685,1.46309,3.01888,3.02294,-1.64860,5.65215,3.89124,-1.59489,5.87480,A,112338.00
3.90440,57.68805388,11.98124034,57.68803733,11.98124100,11:23:38.123057,3.90440,0.00440,1.46541,-0.05918,-0.04030,0.03505,-0.00429,-0.17696,-0.07009,1.15436,3.89969,1.46332,3.02021,3.02350,-1.65373,5.67567,3.89124,-1.59489,5.87480,A,112338.00
3.91483,57.68805407,11.98124026,57.68803733,11.98124100,11:23:38.133489,3.91483,0.00444,1.46541,-0.05990,-0.04000,0.06330,-0.00307,-0.06661,-0.06954,1.18877,3.90986,1.46353,3.02152,3.02448,-1.65874,5.69687,3.89124,-1.59489,5.87480,A,112338.00
3.92538,57.68805424,11.98124018,57.68803733,11.98124100,11:23:38.144054,3.92538,0.00460,1.46541,-0.06034,-0.04244,0.06086,0.00380,0.04740,-0.04020,1.09391,3.92043,1.46372,3.02280,3.02547,-1.66344,5.71597,3.89124,-1.59489,5.87480,A,112338.00
3.93551,57.68805439,11.98124011,57.68803733,11.98124100,11:23:38.154174,3.93551,0.00434,1.46541,-0.06028,-0.03068,0.02726,0.00045,0.09010,-0.01366,1.04554,3.93083,1.46389,3.02406,3.02650,-1.66748,5.73312,3.89124,-1.59489,5.87480,A,112338.00
3.94592,57.68805453,11.98124005,57.68803733,11.98124100,11:23:38.164580,3.94592,0.00451,1.46541,-0.05954,-0.03083,-0.00634,0.00258,0.08845,0.02861,0.88432,3.94093,1.46404,3.02530,3.02754,-1.67106,5.74854,3.89124,-1.59489,5.87480,A,112338.00
3.95642,57.68805466,11.98123999,57.68803733,11.98124100,11:23:38.175075,3.95642,0.00462,1.46541,-0.06032,-0.01587,-0.05185,-0.00368,-0.05148,-0.06795,0.86687,3.95172,1.46418,3.02653,3.02862,-1.67480,5.76247,3.89124,-1.59489,5.87480,A,112338.00
3.96665,57.68805477,11.98123994,57.68803733,11.98124100,11:23:38.185306,3.96665,0.00445,1.46541,-0.06064,-0.01236,-0.04528,-0.00933,-0.08833,-0.04514,0.88895,3.96167,1.46430,3.02774,3.02977,-1.67744,5.77491,3.89124,-1.59489,5.87480,A,112338.00
3.97720,57.68805487,11.98123990,57.68803733,11.98124100,11:23:38.195872,3.97720,0.00461,1.46541,-0.06183,0.00276,-0.01489,-0.00795,-0.18099,-0.11364,0.94788,3.97224,1.46441,3.02893,3.03096,-1.68027,5.78614,3.89124,-1.59489,5.87480,A,112338.00
3.98737,57.68805496,11.98123985,57.68803733,11.98124100,11:23:38.206032,3.98737,0.00438,1.46541,-0.06285,-0.00090,0.02940,-0.00597,-0.08985,-0.10834,1.00540,3.98265,1.46451,3.03012,3.03214,-1.68296,5.79626,3.89124,-1.59489,5.87480,A,112338.00
4.01406,57.68805518,11.98123929,57.68803850,11.98123933,11:23:38.234289,4.01406,0.02069,1.46541,-0.06430,-0.00502,0.05521,0.00167,0.00439,-0.13908,1.03316,3.99285,1.46460,3.03144,3.03346,-1.71648,5.82065,4.01113,-1.69395,6.00453,A,112338.10
4.02998,57.68805536,11.98123904,57.68803850,11.98123933,11:23:38.248660,4.02998,0.00692,1.47817,-0.06386,-0.00915,0.01734,0.00350,0.07820,0.00598,0.99759,4.02426,1.46596,3.03264,3.03457,-1.73136,5.84089,4.01113,-1.69395,6.00453,A,112338.10
4.03785,57.68805552,11.98123897,57.68803850,11.98123933,11:23:38.256504,4.03785,0.00448,1.47817,-0.06353,-0.00380,-0.02023,-0.00811,0.10846,-0.01720,0.98149,4.03286,1.46718,3.03376,3.03559,-1.73517,5.85807,4.01113,-1.69395,6.00453,A,112338.10
4.04858,57.68805566,11.98123885,57.68803850,11.98123933,11:23:38.267592,4.04858,0.00444,1.47817,-0.06313,-0.00151,-0.05154,-0.01956,0.05948,-0.01287,0.98430,4.04387,1.46828,3.03489,3.03656,-1.74273,5.87396,4.01113,-1.69395,6.00453,A,112338.10
4.06075,57.68805579,11.98123870,57.68803850,11.98123933,11:23:38.279680,4.06075,0.00621,1.47817,-0.06316,0.00612,-0.05566,-0.02307,-0.07174,-0.04758,0.99241,4.05564,1.46927,3.03602,3.03757,-1.75137,5.88844,4.01113,-1.69395,6.00453,A,112338.10
4.06956,57.68805590,11.98123865,57.68803850,11.98123933,11:23:38.288228,4.06956,0.00447,1.47817,-0.06421,0.01376,-0.03795,-0.02231,-0.11785,-0.11846,0.98893,4.06459,1.47016,3.03711,3.03863,-1.75447,5.90097,4.01113,-1.69395,6.00453,A,112338.10
4.07984,57.68805601,11.98123856,57.68803850,11.98123933,11:23:38.298508,4.07984,0.00436,1.47817,-0.06590,0.01147,0.00329,-0.01116,-0.14451,-0.16378,0.99582,4.07516,1.47096,3.03820,3.03971,-1.75957,5.91248,4.01113,-1.69395,6.00453,A,112338.10
4.09022,57.68805610,11.98123849,57.68803850,11.98123933,11:23:38.308882,4.09022,0.00450,1.47817,-0.06655,0.00215,0.03047,0.00396,-0.07796,-0.08601,0.96630,4.08523,1.47168,3.03927,3.04079,-1.76388,5.92279,4.01113,-1.69395,6.00453,A,112338.10
4.10051,57.68805618,11.98123842,57.68803850,11.98123933,11:23:38.319168,4.10051,0.00439,1.47817,-0.06556,0.00337,0.03154,0.01434,-0.02562,0.01824,0.93720,4.09580,1.47233,3.04034,3.04186,-1.76803,5.93209,4.01113,-1.69395,6.00453,A,112338.10
4.11091,57.68805626,11.98123836,57.68803850,11.98123933,11:23:38.329571,4.11091,0.00440,1.47817,-0.06390,0.01300,0.02543,0.02228,0.05832,0.05527,0.94873,4.10599,1.47291,3.04139,3.04291,-1.77163,5.94044,4.01113,-1.69395,6.00453,A,112338.10
4.13394,57.68805646,11.98123794,57.68803967,11.98123850,11:23:38.352601,4.13394,0.01687,1.47817,-0.06246,0.03392,-0.00237,0.02244,0.04795,0.02946,0.94831,4.11655,1.47344,3.04252,3.04404,-1.79665,5.96258,4.13106,-1.74348,6.13425,A,112338.20
4.15088,57.68805663,11.98123770,57.68803967,11.98123850,11:23:38.369547,4.15088,0.00734,1.47817,-0.06121,0.03896,-0.02772,0.00121,0.00451,-0.03617,1.11539,4.14580,1.47391,3.04360,3.04512,-1.81079,5.98165,4.13106,-1.74348,6.13425,A,112338.20
4.15828,57.68805677,11.98123770,57.68803967,11.98123850,11:23:38.376945,4.15828,0.00453,1.47817,-0.06138,0.04522,-0.02390,-0.00154,-0.03099,-0.07936,1.08641,4.15328,1.47434,3.04460,3.04612,-1.81102,5.99758,4.13106,-1.74348,6.13425,A,112338.20
4.16852,57.68805690,11.98123762,57.68803967,11.98123850,11:23:38.387178,4.16852,0.00437,1.47817,-0.06158,0.04262,-0.01626,-0.00093,-0.01360,-0.08741,1.06665,4.16382,1.47472,3.04561,3.04713,-1.81537,6.01231,4.13106,-1.74348,6.13425,A,112338.20
4.17894,57.68805702,11.98123756,57.68803967,11.98123850,11:23:38.397597,4.17894,0.00440,1.47817,-0.06170,0.03804,-0.00786,0.00548,-0.03776,-0.07290,0.99637,4.17400,1.47506,3.04662,3.04813,-1.81921,6.02555,4.13106,-1.74348,6.13425,A,112338.20
4.18955,57.68805713,11.98123750,57.68803967,11.98123850,11:23:38.408213,4.18955,0.00446,1.47817,-0.06127,0.04110,-0.00634,0.01282,-0.02849,-0.03654,0.91829,4.18457,1.47537,3.04761,3.04913,-1.82288,6.03748,4.13106,-1.74348,6.13425,A,112338.20
4.19986,57.68805723,11.98123744,57.68803967,11.98123850,11:23:38.418521,4.19986,0.00438,1.47817,-0.06038,0.04278,-0.00374,0.01877,0.01434,-0.00811,0.85943,4.19518,1.47565,3.04859,3.05011,-1.82618,6.04820,4.13106,-1.74348,6.13425,A,112338.20
4.21019,57.68805731,11.98123740,57.68803967,11.98123850,11:23:38.428850,4.21019,0.00447,1.47817,-0.05973,0.05408,-0.01199,0.01541,0.05252,-0.02409,0.79733,4.20523,1.47591,3.04956,3.05108,-1.82879,6.05780,4.13106,-1.74348,6.13425,A,112338.20
4.22053,57.68805739,11.98123735,57.68803967,11.98123850,11:23:38.439186,4.22053,0.00441,1.47817,-0.05929,0.05331,-0.02405,0.01480,0.02916,-0.04240,0.93788,4.21580,1.47613,3.05053,3.05205,-1.83147,6.06646,4.13106,-1.74348,6.13425,A,112338.20
4.23091,57.68805746,11.98123732,57.68803967,11.98123850,11:23:38.449562,4.23091,0.00440,1.47817,-0.05874,0.06278,-0.03367,0.01343,-0.03971,-0.04435,1.03724,4.22598,1.47634,3.05148,3.05300,-1.83369,6.07423,4.13106,-1.74348,6.13425,A,112338.20
4.26566,57.68805772,11.98123657,57.68804133,11.98123683,11:23:38.484322,4.26566,0.02859,1.47817,-0.05819,0.05728,-0.01687,0.00579,-0.07479,-0.04575,1.15046,4.23655,1.47652,3.05259,3.05411,-1.87803,6.10263,4.26276,-1.84255,6.31958,A,112338.40
4.27561,57.68805792,11.98123645,57.68804133,11.98123683,11:23:38.494277,4.27561,0.00448,1.47817,-0.05598,0.05453,-0.02084,0.00442,-0.00213,-0.01171,0.99717,4.27088,1.47668,3.05352,3.05504,-1.88522,6.12526,4.26276,-1.84255,6.31958,A,112338.40
4.28594,57.68805810,11.98123634,57.68804133,11.98123683,11:23:38.504603,4.28594,0.00456,1.47817,-0.05564,0.05408,-0.02054,-0.00169,0.00220,-0.03892,0.82844,4.28088,1.47683,3.05445,3.05596,-1.89172,6.14563,4.26276,-1.84255,6.31958,A,112338.40
4.29612,57.68805827,11.98123624,57.68804133,11.98123683,11:23:38.514781,4.29612,0.00435,1.47817,-0.05576,0.05423,-0.03077,-0.00490,-0.04325,-0.06326,0.79916,4.29143,1.47697,3.05536,3.05688,-1.89787,6.16397,4.26276,-1.84255,6.31958,A,112338.40
4.30661,57.68805842,11.98123614,57.68804133,11.98123683,11:23:38.525267,4.30661,0.00445,1.47817,-0.05531,0.04949,-0.01687,-0.00795,-0.13664,-0.03318,0.90134,4.30163,1.47709,3.05626,3.05778,-1.90343,6.18048,4.26276,-1.84255,6.31958,A,112338.40
4.31881,57.68805855,11.98123602,57.68804133,11.98123683,11:23:38.537474,4.31881,0.00616,1.47817,-0.05438,0.05453,0.02848,-0.00979,-0.10309,-0.01281,0.99692,4.31321,1.47719,3.05717,3.05869,-1.91067,6.19551,4.26276,-1.84255,6.31958,A,112338.40
4.32741,57.68805867,11.98123598,57.68804133,11.98123683,11:23:38.546067,4.32741,0.00437,1.47817,-0.05408,0.05117,0.05521,-0.01055,0.05685,-0.04569,1.03011,4.32271,1.47729,3.05805,3.05957,-1.91284,6.20866,4.26276,-1.84255,6.31958,A,112338.40
4.33780,57.68805878,11.98123592,57.68804133,11.98123683,11:23:38.556468,4.33780,0.00446,1.47817,-0.05399,0.04339,0.04284,-0.00963,0.07314,-0.05722,1.04944,4.33284,1.47738,3.05893,3.06044,-1.91681,6.22066,4.26276,-1.84255,6.31958,A,112338.40
4.34810,57.68805887,11.98123585,57.68804133,11.98123683,11:23:38.566767,4.34810,0.00436,1.47817,-0.05360,0.02613,0.02314,-0.00902,-0.00439,-0.02745,1.11112,4.34341,1.47746,3.05980,3.06131,-1.92061,6.23146,4.26276,-1.84255,6.31958,A,112338.40
4.35849,57.68805896,11.98123580,57.68804133,11.98123683,11:23:38.577159,4.35849,0.00453,1.47817,-0.05293,0.01895,0.01260,-0.01483,0.01574,0.00061,1.05835,4.35351,1.47753,3.06066,3.06211,-1.92378,6.24116,4.26276,-1.84255,6.31958,A,112338.40
4.38127,57.68805920,11.98123535,57.68804283,11.98123567,11:23:38.599942,4.38127,0.01692,1.47817,-0.05294,0.01574,-0.01367,-0.02781,0.06594,-0.04044,0.95630,4.36402,1.47759,3.06159,3.06290,-1.95026,6.26788,4.37841,-1.91189,6.48637,A,112338.50
4.39675,57.68805941,11.98123511,57.68804283,11.98123567,11:23:38.615691,4.39675,0.00546,1.47817,-0.05211,0.01926,0.01764,-0.03560,-0.11486,-0.01238,1.03041,4.39201,1.47765,3.06246,3.06298,-1.96449,6.29115,4.37841,-1.91189,6.48637,A,112338.50
4.40601,57.68805959,11.98123504,57.68804283,11.98123567,11:23:38.624676,4.40601,0.00448,1.47817,-0.05226,0.02124,0.03276,-0.02628,-0.17867,-0.05893,1.10776,4.40101,1.47770,3.06326,3.06347,-1.96869,6.31142,4.37841,-1.91189,6.48637,A,112338.50
4.41625,57.68805976,11.98123495,57.68804283,11.98123567,11:23:38.634910,4.41625,0.00433,1.47817,-0.05297,0.00872,0.06895,-0.01971,-0.10346,-0.08808,1.04005,4.41156,1.47775,3.06405,3.06392,-1.97417,6.32979,4.37841,-1.91189,6.48637,A,112338.50
4.42674,57.68805991,11.98123487,57.68804283,11.98123567,11:23:38.645402,4.42674,0.00443,1.47817,-0.05353,-0.00457,0.07216,-0.01238,0.06106,-0.06301,0.94324,4.42176,1.47779,3.06482,3.06438,-1.97905,6.34631,4.37841,-1.91189,6.48637,A,112338.50
4.43726,57.68806004,11.98123479,57.68804283,11.98123567,11:23:38.655937,4.43726,0.00457,1.47817,-0.05278,-0.00747,0.03673,-0.01376,0.10956,0.02117,0.96258,4.43234,1.47783,3.06558,3.06482,-1.98357,6.36119,4.37841,-1.91189,6.48637,A,112338.50
4.44745,57.68806016,11.98123473,57.68804283,11.98123567,11:23:38.666106,4.44745,0.00436,1.47817,-0.05161,-0.00121,-0.00802,-0.01910,-0.00836,0.04770,1.01681,4.44275,1.47786,3.06631,3.06523,-1.98751,6.37456,4.37841,-1.91189,6.48637,A,112338.50
4.45805,57.68806027,11.98123467,57.68804283,11.98123567,11:23:38.676713,4.45805,0.00469,1.47817,-0.05088,0.00750,-0.02359,-0.02659,0.01257,0.01098,0.93226,4.45307,1.47789,3.06704,3.06562,-1.99121,6.38660,4.37841,-1.91189,6.48637,A,112338.50
4.46813,57.68806037,11.98123461,57.68804283,11.98123567,11:23:38.686787,4.46813,0.00437,1.47817,-0.05170,0.01574,-0.03214,-0.03483,0.01647,-0.09211,0.95160,4.46343,1.47792,3.06774,3.06604,-1.99423,6.39741,4.37841,-1.91189,6.48637,A,112338.50
4.47858,57.68806045,11.98123457,57.68804283,11.98123567,11:23:38.697236,4.47858,0.00443,1.47817,-0.05214,0.00750,-0.02680,-0.03697,-0.09980,-0.06692,1.01412,4.47361,1.47795,3.06843,3.06653,-1.99706,6.40715,4.37841,-1.91189,6.48637,A,112338.50
4.50253,57.68806066,11.98123412,57.68804400,11.98123467,11:23:38.721193,4.50253,0.01799,1.47817,-0.05246,-0.00350,0.00848,-0.03132,-0.20020,-0.05893,1.14674,4.48420,1.47797,3.06899,3.06695,-2.02371,6.43024,4.49963,-1.97133,6.61610,A,112338.60
4.51250,57.68806084,11.98123403,57.68804400,11.98123467,11:23:38.731153,4.51250,0.00441,1.49314,-0.05236,-0.00670,0.04727,-0.01651,0.13139,-0.01537,0.96441,4.50778,1.47948,3.06966,3.06757,-2.02926,6.44963,4.49963,-1.97133,6.61610,A,112338.60
4.52362,57.68806099,11.98123393,57.68804400,11.98123467,11:23:38.742298,4.52362,0.00502,1.49314,-0.05184,-0.00976,0.00023,-0.01131,0.06362,0.00830,0.93263,4.51818,1.48085,3.07032,3.06823,-2.03510,6.46714,4.49963,-1.97133,6.61610,A,112338.60
4.53363,57.68806113,11.98123386,57.68804400,11.98123467,11:23:38.752296,4.53363,0.00448,1.49314,-0.05048,-0.00823,-0.02634,-0.01620,-0.06185,0.05844,0.91683,4.52863,1.48208,3.07098,3.06885,-2.03921,6.48281,4.49963,-1.97133,6.61610,A,112338.60
4.54404,57.68806126,11.98123378,57.68804400,11.98123467,11:23:38.762702,4.54404,0.00437,1.49314,-0.05008,0.00078,-0.03092,-0.02613,-0.05539,-0.00421,0.87590,4.53934,1.48318,3.07162,3.06942,-2.04384,6.49697,4.49963,-1.97133,6.61610,A,112338.60
4.55484,57.68806138,11.98123371,57.68804400,11.98123467,11:23:38.773513,4.55484,0.00478,1.49314,-0.05101,0.00017,-0.02879,-0.03880,-0.03916,-0.08790,0.94764,4.54953,1.48418,3.07226,3.06997,-2.04771,6.50969,4.49963,-1.97133,6.61610,A,112338.60
4.56481,57.68806148,11.98123366,57.68804400,11.98123467,11:23:38.783721,4.56481,0.00435,1.49314,-0.05194,-0.00793,-0.01351,-0.03957,-0.12115,-0.08869,1.00430,4.56012,1.48508,3.07289,3.07050,-2.05093,6.52111,4.49963,-1.97133,6.61610,A,112338.60
4.57532,57.68806157,11.98123360,57.68804400,11.98123467,11:23:38.793981,4.57532,0.00447,1.49314,-0.05229,-0.01648,0.01000,-0.04094,-0.01434,-0.04441,0.98442,4.57032,1.48588,3.07351,3.07110,-2.05454,6.53143,4.49963,-1.97133,6.61610,A,112338.60
4.58579,57.68806166,11.98123355,57.68804400,11.98123467,11:23:38.804451,4.58579,0.00445,1.49314,-0.05252,-0.01663,0.02344,-0.02964,-0.02458,-0.03660,0.99680,4.58083,1.48661,3.07412,3.07171,-2.05738,6.54068,4.49963,-1.97133,6.61610,A,112338.60
4.59609,57.68806173,11.98123351,57.68804400,11.98123467,11:23:38.814744,4.59609,0.00435,1.49314,-0.05236,-0.02167,0.02039,-0.01590,-0.13640,-0.00756,1.04694,4.59140,1.48726,3.07473,3.07231,-2.06009,6.54902,4.49963,-1.97133,6.61610,A,112338.60
4.61887,57.68806192,11.98123315,57.68804517,11.98123433,11:23:38.837537,4.61887,0.01674,1.49314,-0.05211,-0.02137,0.01443,-0.00841,0.02007,-0.00171,0.97673,4.60159,1.48785,3.07519,3.07277,-2.08126,6.57065,4.61605,-1.99114,6.74583,A,112338.70
4.63183,57.68806209,11.98123305,57.68804517,11.98123433,11:23:38.850492,4.63183,0.00606,1.49314,-0.05226,-0.00686,0.00558,-0.02292,0.12328,-0.03288,1.04609,4.62709,1.48838,3.07575,3.07334,-2.08707,6.58919,4.61605,-1.99114,6.74583,A,112338.70
4.64081,57.68806224,11.98123306,57.68804517,11.98123433,11:23:38.859697,4.64081,0.00465,1.49314,-0.05295,-0.00197,-0.01764,-0.03056,0.10962,-0.07540,0.96728,4.63583,1.48885,3.07636,3.07395,-2.08665,6.60548,4.61605,-1.99114,6.74583,A,112338.70
4.65106,57.68806237,11.98123303,57.68804517,11.98123433,11:23:38.869719,4.65106,0.00450,1.49314,-0.05365,-0.01923,-0.03871,-0.03025,-0.03202,-0.06564,0.97454,4.64614,1.48928,3.07694,3.07453,-2.08834,6.62027,4.61605,-1.99114,6.74583,A,112338.70
4.66157,57.68806249,11.98123301,57.68804517,11.98123433,11:23:38.880233,4.66157,0.00446,1.49314,-0.05412,-0.01984,-0.03795,-0.02781,-0.13524,-0.04801,0.92696,4.65659,1.48967,3.07752,3.07511,-2.08986,6.63358,4.61605,-1.99114,6.74583,A,112338.70
4.67184,57.68806260,11.98123298,57.68804517,11.98123433,11:23:38.890498,4.67184,0.00433,1.49314,-0.05396,-0.01892,-0.02359,-0.02231,-0.11614,-0.01006,0.87742,4.66716,1.49001,3.07809,3.07568,-2.09130,6.64556,4.61605,-1.99114,6.74583,A,112338.70
4.68222,57.68806270,11.98123296,57.68804517,11.98123433,11:23:38.900883,4.68222,0.00448,1.49314,-0.05382,-0.00961,0.00435,-0.01987,-0.10766,-0.01726,0.90609,4.67723,1.49033,3.07866,3.07625,-2.09233,6.65632,4.61605,-1.99114,6.74583,A,112338.70
4.69256,57.68806278,11.98123294,57.68804517,11.98123433,11:23:38.911228,4.69256,0.00443,1.49314,-0.05358,-0.01022,0.01077,-0.01681,0.04252,-0.01061,0.96038,4.68789,1.49061,3.07922,3.07681,-2.09364,6.66602,4.61605,-1.99114,6.74583,A,112338.70
4.70291,57.68806286,11.98123293,57.68804517,11.98123433,11:23:38.921575,4.70291,0.00439,1.49314,-0.05347,-0.00579,-0.00298,-0.01055,-0.00909,-0.02458,1.06732,4.69798,1.49086,3.07977,3.07736,-2.09448,6.67472,4.61605,-1.99114,6.74583,A,112338.70
4.71350,57.68806293,11.98123291,57.68804517,11.98123433,11:23:38.932158,4.71350,0.00441,1.49314,-0.05324,-0.00197,0.00634,-0.00963,-0.17043,-0.01928,1.12899,4.70855,1.49109,3.08032,3.07791,-2.09553,6.68256,4.61605,-1.99114,6.74583,A,112338.70
4.73614,57.68806307,11.98123248,57.68804583,11.98123300,11:23:38.954806,4.73614,0.01667,1.49314,-0.05282,-0.00335,0.02894,-0.00704,-0.07625,-0.00372,1.05018,4.71914,1.49129,3.08073,3.07832,-2.12102,6.69808,4.73344,-2.07039,6.81996,A,112338.80
4.74968,57.68806319,11.98123231,57.68804583,11.98123300,11:23:38.968353,4.74968,0.00491,1.49314,-0.05297,-0.01098,-0.03734,-0.00551,0.07326,-0.02263,0.92519,4.74463,1.49148,3.08124,3.07882,-2.13119,6.71124,4.73344,-2.07039,6.81996,A,112338.80
4.76041,57.68806329,11.98123221,57.68804583,11.98123300,11:23:38.979075,4.76041,0.00523,1.49314,-0.05257,-0.01404,-0.05856,-0.00673,-0.07094,0.00268,0.94928,4.75569,1.49164,3.08176,3.07935,-2.13700,6.72286,4.73344,-2.07039,6.81996,A,112338.80
4.76990,57.68806339,11.98123216,57.68804583,11.98123300,11:23:38.988567,4.76990,0.00449,1.49314,-0.05207,-0.00411,-0.05521,-0.01254,-0.26761,0.00323,1.05048,4.76492,1.49179,3.08231,3.07989,-2.14022,6.73318,4.73344,-2.07039,6.81996,A,112338.80
4.78044,57.68806347,11.98123209,57.68804583,11.98123300,11:23:38.999111,4.78044,0.00464,1.49314,-0.05224,0.00215,-0.01748,-0.01284,-0.17312,-0.04782,1.04706,4.77546,1.49193,3.08283,3.08042,-2.14451,6.74256,4.73344,-2.07039,6.81996,A,112338.80
4.79080,57.68806355,11.98123203,57.68804583,11.98123300,11:23:39.009457,4.79080,0.00460,1.49314,-0.05341,-0.00289,0.01474,-0.00612,-0.09736,-0.11468,1.05024,4.78566,1.49205,3.08335,3.08096,-2.14793,6.75096,4.73344,-2.07039,6.81996,A,112338.80
4.80116,57.68806361,11.98123197,57.68804583,11.98123300,11:23:39.019826,4.80116,0.00457,1.49314,-0.05335,-0.02060,0.02512,-0.00093,-0.05594,-0.01537,0.98027,4.79623,1.49216,3.08387,3.08155,-2.15131,6.75853,4.73344,-2.07039,6.81996,A,112338.80
4.81138,57.68806368,11.98123191,57.68804583,11.98123300,11:23:39.030038,4.81138,0.00440,1.49314,-0.05263,-0.02396,0.02467,0.01098,-0.04746,0.03105,1.00229,4.80669,1.49226,3.08438,3.08219,-2.15477,6.76537,4.73344,-2.07039,6.81996,A,112338.80
4.82180,57.68806373,11.98123187,57.68804583,11.98123300,11:23:39.040467,4.82180,0.00446,1.49314,-0.05147,-0.01572,0.01245,0.01663,-0.12371,0.05569,1.01138,4.81682,1.49234,3.08489,3.08283,-2.15746,6.77149,4.73344,-2.07039,6.81996,A,112338.80
4.83208,57.68806378,11.98123182,57.68804583,11.98123300,11:23:39.050744,4.83208,0.00435,1.49314,-0.05115,-0.01526,0.00955,0.00793,-0.07113,-0.00018,1.00949,4.82740,1.49242,3.08539,3.08345,-2.16011,6.77701,4.73344,-2.07039,6.81996,A,112338.80
4.86656,57.68806401,11.98123102,57.68804750,11.98123083,11:23:39.085227,4.86656,0.02844,1.49314,-0.05141,-0.02106,-0.00145,0.00151,0.01037,-0.03404,0.98454,4.83758,1.49250,3.08568,3.08380,-2.20771,6.80238,4.86368,-2.19917,7.00528,A,112339.00
4.87647,57.68806420,11.98123085,57.68804750,11.98123083,11:23:39.095130,4.87647,0.00440,1.49314,-0.05321,-0.03679,-0.00695,-0.01574,-0.17086,-0.06826,0.99265,4.87177,1.49256,3.08619,3.08432,-2.21771,6.82329,4.86368,-2.19917,7.00528,A,112339.00
4.88690,57.68806437,11.98123070,57.68804750,11.98123083,11:23:39.105555,4.88690,0.00443,1.49314,-0.05413,-0.03816,0.02039,-0.01299,-0.22125,-0.06911,0.99381,4.88193,1.49262,3.08669,3.08482,-2.22703,6.84213,4.86368,-2.19917,7.00528,A,112339.00
4.89747,57.68806452,11.98123055,57.68804750,11.98123083,11:23:39.116136,4.89747,0.00460,1.49314,-0.05448,-0.04290,0.05628,-0.00414,-0.11761,-0.02721,0.96661,4.89252,1.49267,3.08719,3.08532,-2.23563,6.85910,4.86368,-2.19917,7.00528,A,112339.00
4.90762,57.68806466,11.98123043,57.68804750,11.98123083,11:23:39.126282,4.90762,0.00436,1.49314,-0.05462,-0.04733,0.06040,0.00182,-0.04508,-0.01086,0.94080,4.90292,1.49272,3.08768,3.08581,-2.24315,6.87434,4.86368,-2.19917,7.00528,A,112339.00
4.91798,57.68806478,11.98123031,57.68804750,11.98123083,11:23:39.136652,4.91798,0.00448,1.49314,-0.05425,-0.05130,0.05414,0.00930,-0.02611,0.02342,0.98381,4.91300,1.49276,3.08817,3.08630,-2.24979,6.88805,4.86368,-2.19917,7.00528,A,112339.00
4.93056,57.68806489,11.98123018,57.68804750,11.98123083,11:23:39.149227,4.93056,0.00667,1.49314,-0.05413,-0.05099,0.04116,0.00900,-0.03928,0.01458,1.06372,4.92500,1.49280,3.08863,3.08677,-2.25802,6.90051,4.86368,-2.19917,7.00528,A,112339.00
4.93872,57.68806499,11.98123014,57.68804750,11.98123083,11:23:39.157379,4.93872,0.00443,1.49314,-0.05416,-0.06061,0.02696,0.00365,-0.04008,-0.00183,1.10154,4.93375,1.49283,3.08913,3.08726,-2.26027,6.91144,4.86368,-2.19917,7.00528,A,112339.00
4.94943,57.68806508,11.98123005,57.68804750,11.98123083,11:23:39.168094,4.94943,0.00475,1.49314,-0.05491,-0.05206,0.00756,-0.01009,0.07479,-0.05094,1.06701,4.94431,1.49286,3.08960,3.08773,-2.26550,6.92144,4.86368,-2.19917,7.00528,A,112339.00
4.95963,57.68806516,11.98122997,57.68804750,11.98123083,11:23:39.178293,4.95963,0.00455,1.49314,-0.05564,-0.05970,-0.01733,-0.02124,0.02098,-0.04423,1.05060,4.95493,1.49289,3.09007,3.08820,-2.27010,6.93043,4.86368,-2.19917,7.00528,A,112339.00
4.98279,57.68806536,11.98122948,57.68804867,11.98122950,11:23:39.201451,4.98279,0.01744,1.49314,-0.05676,-0.05939,-0.01290,-0.02613,-0.07357,-0.07723,1.06640,4.96483,1.49291,3.09042,3.08855,-2.29946,6.95241,4.97993,-2.27842,7.13501,A,112339.10
4.99767,57.68806553,11.98122923,57.68804867,11.98122950,11:23:39.216335,4.99767,0.00635,1.52522,-0.05938,-0.06016,0.02650,-0.01605,-0.06033,-0.08284,0.81100,4.99260,1.49615,3.09084,3.08897,-2.31439,6.97157,4.97993,-2.27842,7.13501,A,112339.10
5.00601,57.68806568,11.98122915,57.68804867,11.98122950,11:23:39.224672,5.00601,0.00447,1.52522,-0.06021,-0.05848,0.02726,-0.00490,-0.12481,-0.05630,0.89109,5.00104,1.49905,3.09131,3.08945,-2.31919,6.98836,4.97993,-2.27842,7.13501,A,112339.10
5.01833,57.68806582,11.98122902,57.68804867,11.98122950,11:23:39.237055,5.01833,0.00639,1.52522,0.00000,-0.04885,0.04345,0.00487,-0.01854,0.00817,0.92275,5.01160,1.50167,3.09176,3.08990,-2.32650,7.00362,4.97993,-2.27842,7.13501,A,112339.10
5.02705,57.68806594,11.98122891,57.68804867,11.98122950,11:23:39.245707,5.02705,0.00447,1.52522,-0.00045,-0.04000,0.02971,0.02121,0.02348,0.01708,0.96837,5.02211,1.50403,3.09221,3.09035,-2.33343,7.01736,4.97993,-2.27842,7.13501,A,112339.10
5.03777,57.68806605,11.98122881,57.68804867,11.98122950,11:23:39.256436,5.03777,0.00464,1.52522,-0.00117,-0.03710,0.01062,0.02015,0.02159,-0.00378,1.10044,5.03260,1.50615,3.09265,3.09080,-2.33932,7.02971,4.97993,-2.27842,7.13501,A,112339.10
5.04802,57.68806615,11.98122872,57.68804867,11.98122950,11:23:39.266678,5.04802,0.00450,1.52522,-0.00258,-0.03862,-0.00160,0.01892,-0.00403,-0.05392,1.12179,5.04331,1.50805,3.09308,3.09124,-2.34463,7.04082,4.97993,-2.27842,7.13501,A,112339.10
5.05861,57.68806624,11.98122864,57.68804867,11.98122950,11:23:39.277284,5.05861,0.00487,1.52522,-0.00427,-0.03618,0.00008,0.00686,0.01531,-0.07631,1.06628,5.05346,1.50977,3.09351,3.09167,-2.34928,7.05081,4.97993,-2.27842,7.13501,A,112339.10
5.06853,57.68806632,11.98122858,57.68804867,11.98122950,11:23:39.287196,5.06853,0.00440,1.52522,-0.00604,-0.04030,-0.01703,-0.00444,-0.00226,-0.07540,1.00943,5.06383,1.51132,3.09394,3.09210,-2.35318,7.05978,4.97993,-2.27842,7.13501,A,112339.10
5.07889,57.68806640,11.98122851,57.68804867,11.98122950,11:23:39.297552,5.07889,0.00436,1.52522,-0.00736,-0.04962,-0.02207,-0.01330,-0.03703,-0.04032,0.96837,5.07398,1.51271,3.09437,3.09253,-2.35698,7.06786,4.97993,-2.27842,7.13501,A,112339.10
5.10553,57.68806655,11.98122803,57.68804950,11.98122900,11:23:39.324204,5.10553,0.02044,1.52522,-0.00893,-0.03755,-0.01672,-0.01544,-0.04618,-0.06216,0.94019,5.08456,1.51396,3.09465,3.09282,-2.38556,7.08548,5.10111,-2.30814,7.22767,A,112339.20
5.11666,57.68806669,11.98122797,57.68804950,11.98122900,11:23:39.335887,5.11666,0.00745,1.52522,-0.01120,-0.04122,0.00832,-0.00032,-0.07576,-0.06545,0.94568,5.11092,1.51509,3.09506,3.09341,-2.38908,7.10025,5.10111,-2.30814,7.22767,A,112339.20
5.12439,57.68806681,11.98122797,57.68804950,11.98122900,11:23:39.343055,5.12439,0.00464,1.52522,-0.01257,-0.03297,0.02344,0.00411,-0.00018,-0.05844,0.91079,5.11968,1.51610,3.09550,3.09390,-2.38904,7.11338,5.10111,-2.30814,7.22767,A,112339.20
5.13624,57.68806691,11.98122788,57.68804950,11.98122900,11:23:39.354899,5.13624,0.00490,1.52522,-0.01352,-0.02793,0.00985,0.00900,0.04538,-0.03270,0.96264,5.13153,1.51701,3.09590,3.09434,-2.39460,7.12546,5.10111,-2.30814,7.22767,A,112339.20
5.14846,57.68806701,11.98122785,57.68804950,11.98122900,11:23:39.367138,5.14846,0.00689,1.52522,-0.01426,-0.02243,-0.01336,0.00823,-0.01574,-0.03074,1.05652,5.14105,1.51783,3.09632,3.09475,-2.39644,7.13618,5.10111,-2.30814,7.22767,A,112339.20
5.15664,57.68806710,11.98122786,57.68804950,11.98122900,11:23:39.375518,5.15664,0.00468,1.52522,-0.01492,-0.02442,-0.01367,0.00457,-0.04910,-0.02330,1.11831,5.15160,1.51857,3.09674,3.09518,-2.39583,7.14571,5.10111,-2.30814,7.22767,A,112339.20
5.16678,57.68806717,11.98122782,57.68804950,11.98122900,11:23:39.385437,5.16678,0.00443,1.52522,-0.01595,-0.01770,-0.00878,-0.00139,0.02397,-0.05661,1.08556,5.16181,1.51924,3.09715,3.09559,-2.39803,7.15442,5.10111,-2.30814,7.22767,A,112339.20
5.17739,57.68806725,11.98122778,57.68804950,11.98122900,11:23:39.396059,5.17739,0.00459,1.52522,-0.01673,-0.01449,-0.01031,-0.00459,0.01226,-0.04124,1.09452,5.17244,1.51984,3.09755,3.09604,-2.40069,7.16228,5.10111,-2.30814,7.22767,A,112339.20
5.18754,57.68806731,11.98122774,57.68804950,11.98122900,11:23:39.406198,5.18754,0.00435,1.52522,-0.01767,-0.00548,-0.00664,-0.00337,-0.01861,-0.05758,1.03877,5.18284,1.52037,3.09794,3.09656,-2.40281,7.16934,5.10111,-2.30814,7.22767,A,112339.20
5.19790,57.68806737,11.98122771,57.68804950,11.98122900,11:23:39.416569,5.19790,0.00448,1.52522,-0.01886,0.00444,-0.00221,0.00090,-0.07515,-0.07631,0.95105,5.19292,1.52086,3.09834,3.09715,-2.40461,7.17568,5.10111,-2.30814,7.22767,A,112339.20
5.22069,57.68806749,11.98122732,57.68805017,11.98122833,11:23:39.439491,5.22069,0.01687,1.52522,-0.02024,0.01315,0.00481,0.01037,0.01616,-0.08601,0.86004,5.20346,1.52130,3.09867,3.09775,-2.42770,7.18957,5.21798,-2.34776,7.30180,A,112339.30
5.23322,57.68806760,11.98122724,57.68805017,11.98122833,11:23:39.451905,5.23322,0.00590,1.52522,-0.02041,0.02170,-0.02649,0.01236,-0.03758,-0.03947,0.90140,5.22706,1.52169,3.09907,3.09893,-2.43235,7.20135,5.21798,-2.34776,7.30180,A,112339.30
5.24220,57.68806769,11.98122723,57.68805017,11.98122833,11:23:39.460858,5.24220,0.00465,1.52522,-0.02037,0.03850,-0.02405,0.00884,-0.07436,-0.02336,1.05859,5.23704,1.52204,3.09949,3.09970,-2.43339,7.21180,5.21798,-2.34776,7.30180,A,112339.30
5.25242,57.68806778,11.98122718,57.68805017,11.98122833,11:23:39.471078,5.25242,0.00448,1.52522,-0.02092,0.04873,-0.00863,0.00671,-0.07375,-0.08198,1.17553,5.24772,1.52236,3.09992,3.10046,-2.43632,7.22128,5.21798,-2.34776,7.30180,A,112339.30
5.26276,57.68806785,11.98122714,57.68805017,11.98122833,11:23:39.481420,5.26276,0.00443,1.52522,-0.02107,0.05117,0.01382,0.00839,-0.13030,-0.05411,1.23952,5.25781,1.52265,3.10035,3.10118,-2.43877,7.22980,5.21798,-2.34776,7.30180,A,112339.30
5.27337,57.68806792,11.98122709,57.68805017,11.98122833,11:23:39.492037,5.27337,0.00460,1.52522,-0.02103,0.05744,0.04024,0.01052,0.06332,-0.04124,1.13521,5.26842,1.52290,3.10079,3.10190,-2.44136,7.23747,5.21798,-2.34776,7.30180,A,112339.30
5.28352,57.68806798,11.98122706,57.68805017,11.98122833,11:23:39.502183,5.28352,0.00436,1.52522,-0.02098,0.05851,0.02925,0.02244,0.12005,-0.03569,1.00028,5.27883,1.52314,3.10123,3.10260,-2.44341,7.24436,5.21798,-2.34776,7.30180,A,112339.30
5.29385,57.68806804,11.98122703,57.68805017,11.98122833,11:23:39.512509,5.29385,0.00444,1.52522,-0.02132,0.05698,-0.00710,0.02366,0.06155,-0.05350,0.89761,5.28888,1.52335,3.10167,3.10330,-2.44511,7.25054,5.21798,-2.34776,7.30180,A,112339.30
5.30417,57.68806809,11.98122700,57.68805017,11.98122833,11:23:39.522831,5.30417,0.00438,1.52522,-0.02117,0.06828,-0.04039,0.03007,-0.03928,-0.02928,0.82143,5.29945,1.52353,3.10212,3.10399,-2.44699,7.25611,5.21798,-2.34776,7.30180,A,112339.30
5.31459,57.68806813,11.98122697,57.68805017,11.98122833,11:23:39.533250,5.31459,0.00441,1.52522,-0.02057,0.07515,-0.03917,0.02213,-0.04520,-0.00720,0.82002,5.30964,1.52370,3.10257,3.10467,-2.44849,7.26111,5.21798,-2.34776,7.30180,A,112339.30
5.33802,57.68806828,11.98122653,57.68805117,11.98122717,11:23:39.556684,5.33802,0.01745,1.52522,-0.02083,0.09745,-0.03657,0.02412,0.02647,-0.06924,0.83765,5.32022,1.52385,3.10315,3.10553,-2.47481,7.27739,5.33512,-2.41710,7.41300,A,112339.40
5.34802,57.68806841,11.98122644,57.68805117,11.98122717,11:23:39.566889,5.34802,0.00438,1.52522,-0.01942,0.09897,0.01443,0.03160,-0.18867,-0.06649,1.22238,5.34330,1.52399,3.10360,3.10677,-2.48024,7.29135,5.33512,-2.41710,7.41300,A,112339.40
5.35870,57.68806852,11.98122635,57.68805117,11.98122717,11:23:39.577366,5.35870,0.00467,1.52522,-0.01921,0.09042,0.05231,0.03923,-0.09559,-0.05087,1.18877,5.35349,1.52411,3.10407,3.10765,-2.48535,7.30391,5.33512,-2.41710,7.41300,A,112339.40
5.36877,57.68806862,11.98122628,57.68805117,11.98122717,11:23:39.587679,5.36877,0.00435,1.52522,-0.01903,0.08890,0.05490,0.04290,-0.01122,-0.04996,1.10947,5.36408,1.52423,3.10455,3.10849,-2.48983,7.31521,5.33512,-2.41710,7.41300,A,112339.40
5.37919,57.68806871,11.98122620,57.68805117,11.98122717,11:23:39.597849,5.37919,0.00438,1.52522,-0.01801,0.07958,0.03505,0.04000,0.09607,0.02001,1.04200,5.37427,1.52433,3.10504,3.10925,-2.49432,7.32537,5.33512,-2.41710,7.41300,A,112339.40
5.38974,57.68806879,11.98122614,57.68805117,11.98122717,11:23:39.608406,5.38974,0.00442,1.52522,-0.01654,0.07927,-0.00664,0.02839,0.03471,0.04776,0.95898,5.38480,1.52442,3.10553,3.10992,-2.49822,7.33451,5.33512,-2.41710,7.41300,A,112339.40
5.40005,57.68806887,11.98122608,57.68805117,11.98122717,11:23:39.618716,5.40005,0.00435,1.52522,-0.01472,0.08431,-0.01275,0.02564,-0.15994,0.07058,1.00888,5.39536,1.52450,3.10602,3.11050,-2.50175,7.34273,5.33512,-2.41710,7.41300,A,112339.40
5.41054,57.68806893,11.98122603,57.68805117,11.98122717,11:23:39.629197,5.41054,0.00444,1.52522,-0.01447,0.09531,0.01275,0.01770,-0.10474,-0.03501,0.94062,5.40557,1.52457,3.10651,3.11100,-2.50477,7.35011,5.33512,-2.41710,7.41300,A,112339.40
5.42083,57.68806899,11.98122598,57.68805117,11.98122717,11:23:39.639729,5.42083,0.00434,1.52522,-0.01662,0.09317,0.01810,0.01404,0.09894,-0.16214,0.81002,5.41613,1.52463,3.10699,3.11148,-2.50761,7.35676,5.33512,-2.41710,7.41300,A,112339.40
5.43128,57.68806905,11.98122593,57.68805117,11.98122717,11:23:39.649951,5.43128,0.00435,1.52522,-0.01742,0.07271,0.00023,0.02213,-0.08290,-0.08058,0.84052,5.42658,1.52469,3.10748,3.11197,-2.51040,7.36274,5.33512,-2.41710,7.41300,A,112339.40
5.46775,57.68806936,11.98122507,57.68805367,11.98122500,11:23:39.686414,5.46775,0.03041,1.52522,-0.01725,0.05988,0.01947,0.02274,-0.13438,-0.02562,0.92970,5.43832,1.52475,3.10850,3.11300,-2.56156,7.39697,5.46501,-2.54588,7.69098,A,112339.60
5.48252,57.68806962,11.98122480,57.68805367,11.98122500,11:23:39.701186,5.48252,0.00633,1.53500,-0.01554,0.03835,-0.02207,0.01083,-0.04349,0.02702,1.24660,5.47750,1.52577,3.10906,3.11355,-2.57732,7.42687,5.46501,-2.54588,7.69098,A,112339.60
5.49097,57.68806986,11.98122471,57.68805367,11.98122500,11:23:39.709635,5.49097,0.00439,1.53500,-0.01542,0.03514,-0.01519,0.00289,-0.11456,-0.00488,1.30747,5.48604,1.52670,3.10947,3.11396,-2.58296,7.45353,5.46501,-2.54588,7.69098,A,112339.60
5.50159,57.68807008,11.98122458,57.68805367,11.98122500,11:23:39.720245,5.50159,0.00445,1.53500,-0.01591,0.03468,-0.00466,-0.00689,-0.06856,-0.05752,1.17602,5.49661,1.52753,3.10993,3.11442,-2.59092,7.47760,5.46501,-2.54588,7.69098,A,112339.60
5.51186,57.68807028,11.98122446,57.68805367,11.98122500,11:23:39.730519,5.51186,0.00434,1.53500,-0.01744,0.02613,0.00344,-0.01391,-0.06594,-0.11309,1.01089,5.50717,1.52827,3.11038,3.11487,-2.59804,7.49925,5.46501,-2.54588,7.69098,A,112339.60
5.52308,57.68807045,11.98122435,57.68805367,11.98122500,11:23:39.741759,5.52308,0.00535,1.53500,-0.01773,0.01162,0.01764,-0.01101,-0.09827,-0.01739,0.87468,5.51723,1.52895,3.11082,3.11531,-2.60415,7.51873,5.46501,-2.54588,7.69098,A,112339.60
5.53249,57.68807061,11.98122428,57.68805367,11.98122500,11:23:39.751149,5.53249,0.00436,1.53500,-0.01864,0.01574,0.02909,-0.00490,-0.01958,-0.04520,0.70662,5.52780,1.52955,3.11124,3.11572,-2.60877,7.53623,5.46501,-2.54588,7.69098,A,112339.60
5.54310,57.68807075,11.98122419,57.68805367,11.98122500,11:23:39.761761,5.54310,0.00458,1.53500,-0.01922,0.01483,0.00909,-0.00123,-0.02397,-0.02983,0.70730,5.53798,1.53010,3.11168,3.11609,-2.61398,7.55200,5.46501,-2.54588,7.69098,A,112339.60
5.55393,57.68807088,11.98122411,57.68805367,11.98122500,11:23:39.772589,5.55393,0.00486,1.53500,-0.01932,0.01238,0.00588,0.00319,-0.11096,-0.00817,0.81758,5.54872,1.53059,3.11211,3.11637,-2.61886,7.56620,5.46501,-2.54588,7.69098,A,112339.60
5.56380,57.68807099,11.98122404,57.68805367,11.98122500,11:23:39.782461,5.56380,0.00433,1.53500,-0.01921,0.01636,0.02451,0.00182,-0.14658,0.00092,1.01358,5.55911,1.53103,3.11252,3.11650,-2.62266,7.57895,5.46501,-2.54588,7.69098,A,112339.60
5.58660,57.68807123,11.98122362,57.68805500,11.98122433,11:23:39.805268,5.58660,0.01691,1.53500,-0.01973,0.01162,0.04467,-0.00459,-0.14018,-0.04715,1.22171,5.56918,1.53143,3.11316,3.11668,-2.64774,7.60571,5.58375,-2.58551,7.83924,A,112339.70
5.60054,57.68807145,11.98122344,57.68805500,11.98122433,11:23:39.819205,5.60054,0.00650,1.53500,-0.02021,-0.01831,0.04238,-0.01193,0.11431,0.00238,1.13259,5.59579,1.53178,3.11361,3.11556,-2.65814,7.62947,5.58375,-2.58551,7.83924,A,112339.70
5.60878,57.68807164,11.98122342,57.68805500,11.98122433,11:23:39.827685,5.60878,0.00435,1.53500,-0.01992,-0.01556,0.01031,-0.01009,0.04117,0.03013,1.00723,5.60409,1.53211,3.11393,3.11534,-2.65973,7.65068,5.58375,-2.58551,7.83924,A,112339.70
5.61917,57.68807181,11.98122334,57.68805500,11.98122433,11:23:39.837836,5.61917,0.00435,1.53500,-0.02024,-0.01236,-0.00954,-0.01437,0.01452,-0.00903,0.81264,5.61427,1.53240,3.11425,3.11513,-2.66411,7.66985,5.58375,-2.58551,7.83924,A,112339.70
5.62977,57.68807197,11.98122328,57.68805500,11.98122433,11:23:39.848441,5.62977,0.00444,1.53500,-0.02164,-0.01052,-0.03596,-0.01635,0.03416,-0.05197,0.60878,5.62480,1.53266,3.11455,3.11500,-2.66795,7.68710,5.58375,-2.58551,7.83924,A,112339.70
5.64028,57.68807210,11.98122322,57.68805500,11.98122433,11:23:39.858953,5.64028,0.00435,1.53500,-0.02330,-0.00945,-0.05841,-0.02323,-0.02885,-0.06204,0.59396,5.63536,1.53289,3.11484,3.11497,-2.67139,7.70262,5.58375,-2.58551,7.83924,A,112339.70
5.65070,57.68807223,11.98122317,57.68805500,11.98122433,11:23:39.869361,5.65070,0.00459,1.53500,-0.02451,-0.01205,-0.05841,-0.02964,-0.12798,-0.06008,0.79758,5.64556,1.53310,3.11511,3.11503,-2.67432,7.71659,5.58375,-2.58551,7.83924,A,112339.70
5.66137,57.68807234,11.98122312,57.68805500,11.98122433,11:23:39.880039,5.66137,0.00487,1.53500,-0.02566,-0.00991,-0.02145,-0.02689,-0.25925,-0.08668,1.18188,5.65639,1.53329,3.11537,3.11517,-2.67726,7.72917,5.58375,-2.58551,7.83924,A,112339.70
5.67124,57.68807245,11.98122309,57.68805500,11.98122433,11:23:39.889905,5.67124,0.00436,1.53500,-0.02625,-0.00426,0.02848,-0.01574,-0.13896,-0.05789,1.39495,5.66653,1.53346,3.11563,3.11541,-2.67920,7.74047,5.58375,-2.58551,7.83924,A,112339.70
5.68177,57.68807254,11.98122305,57.68805500,11.98122433,11:23:39.900433,5.68177,0.00443,1.53500,-0.02629,-0.00396,0.04146,0.00029,0.07479,-0.00677,1.41374,5.67681,1.53362,3.11588,3.11566,-2.68146,7.75065,5.58375,-2.58551,7.83924,A,112339.70
5.70520,57.68807277,11.98122260,57.68805650,11.98122317,11:23:39.923872,5.70520,0.01747,1.53500,-0.02614,-0.00228,0.02222,0.01419,0.15616,0.00708,1.21134,5.68738,1.53375,3.11612,3.11590,-2.70849,7.77696,5.70232,-2.65485,8.00603,A,112339.80
5.71513,57.68807298,11.98122250,57.68805650,11.98122317,11:23:39.933793,5.71513,0.00446,1.53500,-0.02582,0.02201,-0.04222,0.02259,-0.07021,-0.01330,0.79861,5.71021,1.53388,3.11637,3.11614,-2.71431,7.80016,5.70232,-2.65485,8.00603,A,112339.80
5.72566,57.68807317,11.98122240,57.68805650,11.98122317,11:23:39.944326,5.72566,0.00447,1.53500,-0.02672,0.02842,-0.05291,0.01602,-0.10608,-0.05813,0.68527,5.72067,1.53399,3.11661,3.11639,-2.71996,7.82104,5.70232,-2.65485,8.00603,A,112339.80
5.73591,57.68807334,11.98122232,57.68805650,11.98122317,11:23:39.954567,5.73591,0.00433,1.53500,-0.02803,0.02567,-0.04253,0.00442,-0.08735,-0.07906,0.71041,5.73123,1.53409,3.11685,3.11664,-2.72510,7.83983,5.70232,-2.65485,8.00603,A,112339.80
5.74631,57.68807349,11.98122224,57.68805650,11.98122317,11:23:39.964978,5.74631,0.00451,1.53500,-0.02828,0.02369,-0.02894,0.00457,-0.05209,-0.03404,0.86028,5.74132,1.53418,3.11710,3.11694,-2.72951,7.85674,5.70232,-2.65485,8.00603,A,112339.80
5.75728,57.68807363,11.98122217,57.68805650,11.98122317,11:23:39.976190,5.75728,0.00510,1.53500,-0.02835,0.01941,-0.00786,0.00793,-0.08699,-0.02721,1.07805,5.75186,1.53427,3.11734,3.11734,-2.73367,7.87195,5.70232,-2.65485,8.00603,A,112339.80
5.76773,57.68807375,11.98122211,57.68805650,11.98122317,11:23:39.986396,5.76773,0.00448,1.53500,-0.02810,0.02185,0.02986,0.02289,-0.08333,-0.00805,1.23232,5.76300,1.53434,3.11758,3.11784,-2.73769,7.88565,5.70232,-2.65485,8.00603,A,112339.80
5.77794,57.68807386,11.98122206,57.68805650,11.98122317,11:23:39.996607,5.77794,0.00447,1.53500,-0.02796,0.01636,0.05002,0.03068,-0.06435,-0.01031,1.26679,5.77297,1.53441,3.11783,3.11833,-2.74061,7.89796,5.70232,-2.65485,8.00603,A,112339.80
5.78822,57.68807396,11.98122201,57.68805650,11.98122317,11:23:40.006870,5.78822,0.00435,1.53500,-0.02769,0.00658,0.03749,0.02793,0.01360,0.00830,1.21732,5.78352,1.53447,3.11808,3.11877,-2.74370,7.90903,5.70232,-2.65485,8.00603,A,112339.80
5.79867,57.68807405,11.98122196,57.68805650,11.98122317,11:23:40.017329,5.79867,0.00441,1.53500,-0.02771,-0.01526,0.01428,0.01556,0.05685,0.00262,1.10880,5.79372,1.53452,3.11833,3.11914,-2.74637,7.91900,5.70232,-2.65485,8.00603,A,112339.80
5.82385,57.68807425,11.98122144,57.68805767,11.98122183,11:23:40.042520,5.82385,0.01919,1.53500,-0.02725,-0.02045,-0.03352,-0.00918,0.08711,0.03538,0.90634,5.80444,1.53457,3.11865,3.11949,-2.77749,7.94140,5.82109,-2.73410,8.13576,A,112339.90
5.83411,57.68807443,11.98122132,57.68805767,11.98122183,11:23:40.052780,5.83411,0.00458,1.53500,-0.02821,-0.00411,-0.05963,-0.02781,-0.25114,-0.05697,0.90469,5.82909,1.53461,3.11890,3.11974,-2.78434,7.96108,5.82109,-2.73410,8.13576,A,112339.90
5.84467,57.68807459,11.98122120,57.68805767,11.98122183,11:23:40.063589,5.84467,0.00453,1.53500,-0.02988,-0.00105,0.00099,-0.02200,-0.22442,-0.10364,0.88328,5.83995,1.53465,3.11915,3.11999,-2.79136,7.97882,5.82109,-2.73410,8.13576,A,112339.90
5.85514,57.68807473,11.98122111,57.68805767,11.98122183,11:23:40.073805,5.85514,0.00460,1.53500,-0.03222,-0.02473,0.03306,-0.01101,-0.09784,-0.13621,0.91305,5.85000,1.53468,3.11940,3.12024,-2.79694,7.99475,5.82109,-2.73410,8.13576,A,112339.90
5.86554,57.68807486,11.98122102,57.68805767,11.98122183,11:23:40.084202,5.86554,0.00444,1.53500,-0.03365,-0.04748,0.03688,0.00029,-0.05557,-0.08040,1.09928,5.86056,1.53472,3.11965,3.12049,-2.80211,8.00910,5.82109,-2.73410,8.13576,A,112339.90
5.87597,57.68807498,11.98122094,57.68805767,11.98122183,11:23:40.094624,5.87597,0.00448,1.53500,-0.03328,-0.05374,0.03902,0.01052,-0.15945,0.06155,1.21286,5.87128,1.53475,3.11989,3.12073,-2.80721,8.02202,5.82109,-2.73410,8.13576,A,112339.90
5.88619,57.68807508,11.98122087,57.68805767,11.98122183,11:23:40.104851,5.88619,0.00446,1.53500,-0.03174,-0.04733,0.05139,0.01098,-0.01507,0.13457,1.10093,5.88122,1.53477,3.12013,3.12097,-2.81112,8.03363,5.82109,-2.73410,8.13576,A,112339.90
5.89647,57.68807518,11.98122080,57.68805767,11.98122183,11:23:40.115131,5.89647,0.00435,1.53500,-0.03120,-0.03710,0.01932,-0.00108,0.00897,0.05435,1.05713,5.89178,1.53479,3.12037,3.12121,-2.81510,8.04408,5.82109,-2.73410,8.13576,A,112339.90
5.90697,57.68807526,11.98122075,57.68805767,11.98122183,11:23:40.125635,5.90697,0.00446,1.53500,-0.03202,-0.04015,0.00038,-0.01223,-0.02538,-0.03904,1.04493,5.90197,1.53481,3.12061,3.12142,-2.81856,8.05348,5.82109,-2.73410,8.13576,A,112339.90
5.91802,57.68807534,11.98122069,57.68805767,11.98122183,11:23:40.136669,5.91802,0.00513,1.53500,-0.03404,-0.04855,-0.00970,-0.02888,0.03312,-0.09516,0.85186,5.91255,1.53483,3.12085,3.12155,-2.82178,8.06195,5.82109,-2.73410,8.13576,A,112339.90
5.94089,57.68807551,11.98122029,57.68805867,11.98122117,11:23:40.159688,5.94089,0.01761,1.56028,-0.03620,-0.06000,-0.02008,-0.03972,-0.01342,-0.08686,0.74884,5.92292,1.53738,3.12111,3.12162,-2.84544,8.08102,5.93745,-2.77373,8.24696,A,112340.00
5.95140,57.68807566,11.98122021,57.68805867,11.98122117,11:23:40.170936,5.95140,0.00491,1.56028,-0.03797,-0.07253,0.02726,-0.03010,-0.19569,-0.01867,0.90188,5.94665,1.53967,3.12133,3.12130,-2.85024,8.09785,5.93745,-2.77373,8.24696,A,112340.00
5.96180,57.68807580,11.98122015,57.68805867,11.98122117,11:23:40.180475,5.96180,0.00493,1.56028,-0.03911,-0.07039,0.03566,-0.02323,-0.02940,-0.04703,1.01754,5.95683,1.54173,3.12154,3.12131,-2.85409,8.11300,5.93745,-2.77373,8.24696,A,112340.00
5.97162,57.68807592,11.98122010,57.68805867,11.98122117,11:23:40.190271,5.97162,0.00435,1.56028,-0.03990,-0.08184,0.02467,-0.01635,0.03995,-0.01934,1.15815,5.96691,1.54359,3.12173,3.12136,-2.85713,8.12662,5.93745,-2.77373,8.24696,A,112340.00
5.98197,57.68807603,11.98122004,57.68805867,11.98122117,11:23:40.200630,5.98197,0.00447,1.56028,-0.03952,-0.07818,0.00542,-0.00795,0.01269,0.07515,1.29314,5.97699,1.54526,3.12192,3.12143,-2.86024,8.13888,5.93745,-2.77373,8.24696,A,112340.00
5.99239,57.68807613,11.98121999,57.68805867,11.98122117,11:23:40.211047,5.99239,0.00449,1.56028,-0.03938,-0.06367,0.00390,-0.01040,-0.06478,0.04386,1.23555,5.98769,1.54676,3.12210,3.12150,-2.86355,8.14993,5.93745,-2.77373,8.24696,A,112340.00
6.00270,57.68807622,11.98121995,57.68805867,11.98122117,11:23:40.221356,6.00270,0.00442,1.56028,-0.04013,-0.05130,0.00680,-0.01773,0.01452,-0.03727,1.05780,5.99775,1.54811,3.12228,3.12159,-2.86602,8.15986,5.93745,-2.77373,8.24696,A,112340.00
