Time,lat_estimated,lon_estimated,latitude,longitude,RealTime,CalculationTime,MeasuredVelocity,Roll,SteeringAngle,RollRate,gy,gz,ax,ay,az,imu_read_timing,v_estimated,yaw_estimated,heading_estimated,x_estimated,y_estimated,GPS_timestamp,x_GPS,y_GPS,status,NMEA timestamp
0.05202,57.68798758,11.98130213,57.68798817,11.98130067,11:26:16.122555,0.05202,0.05196,0.00000,-0.00089,0.05098,-0.00227,-0.01097,-0.03215,-0.06655,0.92555,0.00001,0.00000,0.00000,0.00792,0.08717,-0.06486,0.01643,0.87174,-0.64864,A,112616.00
0.06894,57.68798706,11.98130345,57.68798817,11.98130067,11:26:16.138693,0.06894,0.00618,0.00000,0.00090,0.04411,-0.02273,-0.01540,-0.07399,-0.04502,0.96661,0.06426,0.00000,-0.00008,0.00766,0.16563,-0.12324,0.01643,0.87174,-0.64864,A,112616.00
0.07971,57.68798659,11.98130464,57.68798817,11.98130067,11:26:16.149466,0.07971,0.00655,0.00000,0.00075,0.03876,-0.01647,-0.01540,-0.11187,-0.01470,0.96105,0.07484,0.00000,-0.00016,0.00747,0.23624,-0.17578,0.01643,0.87174,-0.64864,A,112616.00
0.08804,57.68798616,11.98130571,57.68798817,11.98130067,11:26:16.157789,0.08804,0.00447,0.00000,0.00096,0.03922,-0.00746,-0.01234,-0.07265,0.01391,0.96423,0.08320,0.00000,-0.00023,0.00731,0.29979,-0.22307,0.01643,0.87174,-0.64864,A,112616.00
0.10030,57.68798578,11.98130667,57.68798817,11.98130067,11:26:16.170069,0.10030,0.00620,0.00000,0.00117,0.04915,-0.00379,-0.00959,-0.01135,-0.00232,0.98003,0.09521,0.00000,-0.00030,0.00717,0.35699,-0.26562,0.01643,0.87174,-0.64864,A,112616.00
0.10888,57.68798543,11.98130754,57.68798817,11.98130067,11:26:16.178638,0.10888,0.00441,0.00000,0.00088,0.04624,-0.00089,-0.00837,-0.00232,-0.02519,1.00888,0.10429,0.00000,-0.00038,0.00708,0.40846,-0.30392,0.01643,0.87174,-0.64864,A,112616.00
0.13195,57.68798517,11.98130832,57.68798867,11.98130067,11:26:16.201704,0.13195,0.01725,0.00000,0.00087,0.05098,-0.00654,-0.00746,-0.03044,-0.01269,1.03029,0.11430,0.00000,-0.00045,0.00701,0.45479,-0.33284,0.12901,0.87174,-0.59304,A,112616.10
0.14745,57.68798494,11.98130902,57.68798867,11.98130067,11:26:16.217212,0.14745,0.00550,0.00000,0.00166,0.04884,0.01713,-0.00608,-0.03288,-0.01647,1.03920,0.14257,0.00000,-0.00052,0.00694,0.49649,-0.35886,0.12901,0.87174,-0.59304,A,112616.10
0.15668,57.68798473,11.98130965,57.68798867,11.98130067,11:26:16.226435,0.15668,0.00433,0.00000,0.00158,0.04716,0.01148,-0.00440,0.03447,-0.01238,0.99582,0.15212,0.00000,-0.00059,0.00687,0.53401,-0.38227,0.12901,0.87174,-0.59304,A,112616.10
0.16703,57.68798454,11.98131022,57.68798867,11.98130067,11:26:16.236784,0.16703,0.00445,0.00000,0.00162,0.05021,-0.00227,-0.00791,0.02214,-0.00775,0.97411,0.16219,0.00000,-0.00065,0.00680,0.56778,-0.40335,0.12901,0.87174,-0.59304,A,112616.10
0.17730,57.68798437,11.98131073,57.68798867,11.98130067,11:26:16.247054,0.17730,0.00433,0.00000,0.00159,0.04747,-0.00822,-0.00562,-0.06411,-0.01171,0.96514,0.17275,0.00000,-0.00072,0.00673,0.59818,-0.42232,0.12901,0.87174,-0.59304,A,112616.10
0.18775,57.68798422,11.98131119,57.68798867,11.98130067,11:26:16.257508,0.18775,0.00438,0.00000,0.00155,0.04319,0.00247,-0.00593,-0.11694,-0.00872,0.97850,0.18295,0.00000,-0.00079,0.00666,0.62554,-0.43939,0.12901,0.87174,-0.59304,A,112616.10
0.19849,57.68798408,11.98131161,57.68798867,11.98130067,11:26:16.268244,0.19849,0.00472,0.00000,0.00169,0.04838,0.01652,-0.01418,-0.03819,-0.00146,0.98527,0.19352,0.00000,-0.00086,0.00660,0.65016,-0.45476,0.12901,0.87174,-0.59304,A,112616.10
0.20850,57.68798395,11.98131198,57.68798867,11.98130067,11:26:16.278249,0.20850,0.00433,0.00000,0.00142,0.04105,-0.00486,-0.00883,0.05283,-0.02281,0.98783,0.20393,0.00000,-0.00092,0.00653,0.67232,-0.46859,0.12901,0.87174,-0.59304,A,112616.10
0.21887,57.68798384,11.98131231,57.68798867,11.98130067,11:26:16.288626,0.21887,0.00447,0.00000,0.00138,0.04319,-0.02365,-0.00471,0.04990,-0.00897,1.00485,0.21400,0.00000,-0.00099,0.00647,0.69226,-0.48103,0.12901,0.87174,-0.59304,A,112616.10
0.22910,57.68798374,11.98131262,57.68798867,11.98130067,11:26:16.298848,0.22910,0.00431,0.00000,0.00151,0.04563,-0.03082,-0.00639,-0.08918,-0.00061,1.03822,0.22454,0.00000,-0.00105,0.00640,0.71021,-0.49223,0.12901,0.87174,-0.59304,A,112616.10
0.25494,57.68798368,11.98131284,57.68798900,11.98130017,11:26:16.325164,0.25494,0.01975,0.00000,0.00132,0.05159,-0.01082,-0.00852,-0.11084,-0.02464,0.99979,0.23477,0.00000,-0.00112,0.00634,0.72339,-0.49861,0.25199,0.84202,-0.55597,A,112616.20
0.28056,57.68798363,11.98131304,57.68798900,11.98130017,11:26:16.350594,0.28056,0.01276,0.00000,0.00201,0.02563,-0.00410,-0.00119,0.01519,0.00171,1.02578,0.27417,0.00000,-0.00118,0.00627,0.73525,-0.50434,0.25199,0.84202,-0.55597,A,112616.20
0.29347,57.68798358,11.98131322,57.68798900,11.98130017,11:26:16.363228,0.29347,0.00615,0.00000,0.00236,0.02654,-0.02548,-0.00623,-0.01110,0.02214,1.03755,0.28888,0.00000,-0.00124,0.00621,0.74593,-0.50951,0.25199,0.84202,-0.55597,A,112616.20
0.34094,57.68798354,11.98131338,57.68798900,11.98130017,11:26:16.410760,0.34094,0.03433,0.00000,0.00203,0.03693,-0.00685,-0.01799,-0.03227,-0.05423,0.92665,0.31353,0.00000,-0.00130,0.00615,0.75554,-0.51415,0.25199,0.84202,-0.55597,A,112616.20
0.43238,57.68798361,11.98131347,57.68799000,11.98129967,11:26:16.502144,0.43238,0.07386,0.00000,0.00217,0.01158,0.02018,-0.01082,0.04520,-0.01305,1.08354,0.37186,0.00000,-0.00137,0.00608,0.76122,-0.50722,0.42925,0.81231,-0.44478,A,112616.40
0.45193,57.68798366,11.98131356,57.68799000,11.98129967,11:26:16.521696,0.45193,0.00750,0.00000,0.00037,-0.02569,-0.04762,-0.01356,-0.16702,0.02818,0.97911,0.44701,0.00000,-0.00143,0.00463,0.76632,-0.50097,0.42925,0.81231,-0.44478,A,112616.40
0.45914,57.68798371,11.98131364,57.68799000,11.98129967,11:26:16.528891,0.45914,0.00448,0.00000,0.00001,-0.02172,-0.01586,-0.01723,-0.25846,0.00805,1.02352,0.45428,0.00000,-0.00147,0.00448,0.77092,-0.49535,0.42925,0.81231,-0.44478,A,112616.40
0.46947,57.68798376,11.98131371,57.68799000,11.98129967,11:26:16.539223,0.46947,0.00442,0.00000,-0.00079,-0.02278,0.03500,-0.02303,-0.16635,-0.01677,1.03633,0.46491,0.00000,-0.00152,0.00431,0.77506,-0.49030,0.42925,0.81231,-0.44478,A,112616.40
0.47981,57.68798380,11.98131377,57.68799000,11.98129967,11:26:16.549568,0.47981,0.00436,0.00000,-0.00204,-0.02706,0.05852,-0.02578,0.11529,-0.04313,0.95825,0.47501,0.00000,-0.00156,0.00416,0.77878,-0.48574,0.42925,0.81231,-0.44478,A,112616.40
0.49063,57.68798384,11.98131383,57.68799000,11.98129967,11:26:16.560379,0.49063,0.00462,0.00000,-0.00353,-0.04859,0.02415,-0.02624,0.17806,-0.04496,0.95678,0.48560,0.00000,-0.00160,0.00400,0.78214,-0.48165,0.42925,0.81231,-0.44478,A,112616.40
0.50086,57.68798387,11.98131388,57.68799000,11.98129967,11:26:16.570615,0.50086,0.00446,0.00000,-0.00390,-0.05531,-0.01143,-0.02151,0.01702,0.03318,1.04261,0.49627,0.00000,-0.00164,0.00384,0.78515,-0.47796,0.42925,0.81231,-0.44478,A,112616.40
0.51110,57.68798390,11.98131392,57.68799000,11.98129967,11:26:16.580857,0.51110,0.00446,0.00000,-0.00375,-0.05363,-0.02471,-0.02410,-0.17336,0.06930,1.11801,0.50624,0.00000,-0.00168,0.00371,0.78787,-0.47464,0.42925,0.81231,-0.44478,A,112616.40
0.52139,57.68798392,11.98131396,57.68799000,11.98129967,11:26:16.591140,0.52139,0.00435,0.00000,-0.00435,-0.04142,0.00140,-0.02884,-0.13798,0.00677,1.06817,0.51682,0.00000,-0.00172,0.00364,0.79031,-0.47166,0.42925,0.81231,-0.44478,A,112616.40
0.54579,57.68798400,11.98131398,57.68799050,11.98129950,11:26:16.615821,0.54579,0.01837,0.00000,-0.00588,-0.04508,0.01942,-0.02792,0.04105,-0.05453,0.99253,0.52701,0.00000,-0.00175,0.00361,0.79152,-0.46341,0.54306,0.80240,-0.38918,A,112616.50
0.56277,57.68798407,11.98131400,57.68799050,11.98129950,11:26:16.632541,0.56277,0.00646,0.00000,-0.00750,-0.06417,-0.02410,-0.00883,-0.17239,0.03337,1.00467,0.55697,0.00000,-0.00179,0.00357,0.79261,-0.45599,0.54306,0.80240,-0.38918,A,112616.50
0.57101,57.68798413,11.98131402,57.68799050,11.98129950,11:26:16.640766,0.57101,0.00447,0.00000,-0.00772,-0.05608,-0.00853,-0.00516,-0.16586,0.03422,1.05219,0.56616,0.00000,-0.00183,0.00353,0.79359,-0.44931,0.54306,0.80240,-0.38918,A,112616.50
0.58127,57.68798418,11.98131403,57.68799050,11.98129950,11:26:16.651021,0.58127,0.00434,0.00000,-0.00836,-0.04386,0.00583,0.00110,-0.03611,0.00152,1.08415,0.57672,0.00000,-0.00186,0.00350,0.79447,-0.44329,0.54306,0.80240,-0.38918,A,112616.50
0.59189,57.68798423,11.98131405,57.68799050,11.98129950,11:26:16.661639,0.59189,0.00455,0.91934,-0.00987,-0.04386,0.00094,-0.00196,0.13030,-0.05923,1.03682,0.58705,0.09193,-0.00190,0.00346,0.79526,-0.43788,0.54306,0.80240,-0.38918,A,112616.50
0.60245,57.68798427,11.98131407,57.68799050,11.98129950,11:26:16.672206,0.60245,0.00447,0.91934,-0.01136,-0.05226,-0.02991,-0.00959,0.10705,-0.05222,1.02242,0.59760,0.17467,-0.00192,0.00344,0.79668,-0.43301,0.54306,0.80240,-0.38918,A,112616.50
0.61354,57.68798431,11.98131410,57.68799050,11.98129950,11:26:16.683535,0.61354,0.00516,0.91934,-0.01200,-0.05776,-0.05312,-0.00165,-0.09839,0.01159,1.02559,0.60894,0.24914,-0.00193,0.00343,0.79870,-0.42862,0.54306,0.80240,-0.38918,A,112616.50
0.62309,57.68798435,11.98131414,57.68799050,11.98129950,11:26:16.692840,0.62309,0.00448,0.91934,-0.01250,-0.05669,-0.04778,-0.00410,-0.19477,0.01196,1.00741,0.61823,0.31616,-0.00193,0.00343,0.80074,-0.42467,0.54306,0.80240,-0.38918,A,112616.50
0.63334,57.68798438,11.98131418,57.68799050,11.98129950,11:26:16.703086,0.63334,0.00434,0.91934,-0.01334,-0.05424,-0.02288,-0.00761,-0.10303,-0.00817,0.97057,0.62878,0.37648,-0.00192,0.00344,0.80330,-0.42112,0.54306,0.80240,-0.38918,A,112616.50
0.64394,57.68798441,11.98131423,57.68799050,11.98129950,11:26:16.713691,0.64394,0.00454,0.91934,-0.01453,-0.05287,-0.02456,-0.00791,0.08863,-0.03233,0.92537,0.63898,0.43076,-0.00190,0.00346,0.80605,-0.41791,0.54306,0.80240,-0.38918,A,112616.50
0.66677,57.68798448,11.98131433,57.68799100,11.98129917,11:26:16.736530,0.66677,0.01698,0.91934,-0.01537,-0.05241,-0.05404,0.00583,0.09174,-0.01104,0.94916,0.64955,0.47962,-0.00179,0.00360,0.81181,-0.40945,0.66389,0.78259,-0.33358,A,112616.60
0.68437,57.68798455,11.98131439,57.68799100,11.98129917,11:26:16.754128,0.68437,0.00643,0.91934,-0.01704,-0.04096,-0.02639,0.01408,-0.21387,-0.02647,1.07970,0.67937,0.52359,-0.00170,0.00421,0.81568,-0.40184,0.66389,0.78259,-0.33358,A,112616.60
0.69267,57.68798461,11.98131439,57.68799100,11.98129917,11:26:16.762430,0.69267,0.00434,0.91934,-0.01838,-0.04080,-0.00410,0.01194,-0.04264,-0.06320,1.04401,0.68811,0.56317,-0.00168,0.00453,0.81542,-0.39500,0.66389,0.78259,-0.33358,A,112616.60
0.70303,57.68798467,11.98131440,57.68799100,11.98129917,11:26:16.772782,0.70303,0.00446,0.91934,-0.01998,-0.04615,-0.01234,0.01331,0.10901,-0.07052,0.98692,0.69819,0.59878,-0.00164,0.00500,0.81632,-0.38884,0.66389,0.78259,-0.33358,A,112616.60
0.71331,57.68798472,11.98131442,57.68799100,11.98129917,11:26:16.783055,0.71331,0.00435,0.91934,-0.02113,-0.05501,-0.03800,0.00782,0.06826,-0.03495,0.97606,0.70873,0.63084,-0.00158,0.00551,0.81750,-0.38329,0.66389,0.78259,-0.33358,A,112616.60
0.72376,57.68798476,11.98131444,57.68799100,11.98129917,11:26:16.793509,0.72376,0.00441,0.91934,-0.02116,-0.05149,-0.05373,0.00461,-0.12261,0.03459,1.02199,0.71894,0.65969,-0.00152,0.00601,0.81876,-0.37830,0.66389,0.78259,-0.33358,A,112616.60
0.73433,57.68798481,11.98131447,57.68799100,11.98129917,11:26:16.804084,0.73433,0.00458,0.91934,-0.02159,-0.04386,-0.02807,0.00049,-0.18166,0.00390,0.98539,0.72950,0.68565,-0.00145,0.00652,0.82018,-0.37379,0.66389,0.78259,-0.33358,A,112616.60
0.74462,57.68798484,11.98131449,57.68799100,11.98129917,11:26:16.814362,0.74462,0.00448,0.91934,-0.02273,-0.04019,0.00186,0.00415,-0.07655,-0.04386,0.94068,0.74003,0.70902,-0.00138,0.00701,0.82164,-0.36974,0.66389,0.78259,-0.33358,A,112616.60
0.75531,57.68798487,11.98131452,57.68799100,11.98129917,11:26:16.825065,0.75531,0.00492,0.91934,-0.02430,-0.04768,0.00766,0.00308,0.02586,-0.06582,0.91958,0.75043,0.73005,-0.00129,0.00747,0.82320,-0.36609,0.66389,0.78259,-0.33358,A,112616.60
0.76699,57.68798490,11.98131454,57.68799100,11.98129917,11:26:16.836749,0.76699,0.00620,0.91934,-0.02563,-0.05852,0.00018,0.00904,0.00506,-0.04685,0.93184,0.76062,0.74898,-0.00121,0.00785,0.82444,-0.36280,0.66389,0.78259,-0.33358,A,112616.60
0.78919,57.68798496,11.98131465,57.68799133,11.98129867,11:26:16.858947,0.78919,0.01767,0.91934,-0.02577,-0.06280,-0.00608,0.01194,-0.05124,0.03343,0.99241,0.77160,0.76602,-0.00086,0.00841,0.83089,-0.35606,0.78621,0.75287,-0.29652,A,112616.70
0.80400,57.68798502,11.98131465,57.68799133,11.98129867,11:26:16.873764,0.80400,0.00560,0.91934,-0.02744,-0.04920,-0.00822,0.01148,-0.01232,-0.03038,1.05646,0.79810,0.78135,-0.00069,0.00875,0.83113,-0.35004,0.78621,0.75287,-0.29652,A,112616.70
0.81544,57.68798507,11.98131462,57.68799133,11.98129867,11:26:16.885201,0.81544,0.00664,0.91934,-0.02845,-0.05623,-0.02334,0.01118,0.05685,-0.02824,0.97643,0.80945,0.79515,-0.00059,0.00885,0.82908,-0.34464,0.78621,0.75287,-0.29652,A,112616.70
0.82370,57.68798511,11.98131456,57.68799133,11.98129867,11:26:16.893456,0.82370,0.00451,0.91934,-0.02932,-0.05424,-0.03220,0.00705,0.00915,-0.02769,0.92690,0.81877,0.80757,-0.00054,0.00891,0.82581,-0.33979,0.78621,0.75287,-0.29652,A,112616.70
0.83485,57.68798515,11.98131455,57.68799133,11.98129867,11:26:16.904613,0.83485,0.00528,0.91934,-0.03039,-0.04981,-0.02548,0.01408,-0.14128,-0.03806,0.93483,0.82998,0.81874,-0.00042,0.00906,0.82507,-0.33540,0.78621,0.75287,-0.29652,A,112616.70
0.84434,57.68798519,11.98131452,57.68799133,11.98129867,11:26:16.914095,0.84434,0.00437,0.91934,-0.03184,-0.05226,-0.00486,0.01912,-0.15854,-0.06545,0.94032,0.83977,0.82880,-0.00033,0.00922,0.82350,-0.33146,0.78621,0.75287,-0.29652,A,112616.70
0.85476,57.68798522,11.98131451,57.68799133,11.98129867,11:26:16.924525,0.85476,0.00444,0.91934,-0.03316,-0.05149,0.01530,0.02141,-0.03770,-0.06021,0.96191,0.84993,0.83786,-0.00022,0.00945,0.82264,-0.32791,0.78621,0.75287,-0.29652,A,112616.70
0.86503,57.68798525,11.98131450,57.68799133,11.98129867,11:26:16.934786,0.86503,0.00432,0.91934,-0.03413,-0.05669,0.00827,0.02064,0.07759,-0.03306,0.96044,0.86048,0.84600,-0.00010,0.00973,0.82205,-0.32471,0.78621,0.75287,-0.29652,A,112616.70
0.87560,57.68798527,11.98131449,57.68799133,11.98129867,11:26:16.945351,0.87560,0.00449,0.91934,-0.03425,-0.05852,-0.01509,0.01698,0.06625,0.02013,0.98405,0.87069,0.85334,0.00002,0.01003,0.82152,-0.32183,0.78621,0.75287,-0.29652,A,112616.70
0.88646,57.68798530,11.98131449,57.68799133,11.98129867,11:26:16.956224,0.88646,0.00496,0.91934,-0.03452,-0.04646,-0.01968,0.01408,-0.04618,0.00482,1.04096,0.88159,0.85994,0.00015,0.01037,0.82137,-0.31923,0.78621,0.75287,-0.29652,A,112616.70
0.91954,57.68798542,11.98131474,57.68799233,11.98129833,11:26:16.989293,0.91954,0.02763,0.91934,-0.03534,-0.03989,-0.00715,0.00873,-0.09729,-0.04398,1.10245,0.89167,0.86588,0.00088,0.01130,0.83650,-0.30559,0.91648,0.73306,-0.18532,A,112616.90
0.93237,57.68798553,11.98131471,57.68799233,11.98129833,11:26:17.002129,0.93237,0.00604,0.91934,-0.03685,-0.03882,-0.03861,0.01591,0.03672,-0.01861,0.94111,0.92774,0.87122,0.00107,0.01217,0.83470,-0.29347,0.91648,0.73306,-0.18532,A,112616.90
0.94106,57.68798563,11.98131463,57.68799233,11.98129833,11:26:17.010811,0.94106,0.00433,0.91934,-0.03732,-0.02446,-0.03907,0.01820,-0.04557,-0.02989,0.97673,0.93650,0.87603,0.00116,0.01243,0.82992,-0.28259,0.91648,0.73306,-0.18532,A,112616.90
0.95178,57.68798571,11.98131458,57.68799233,11.98129833,11:26:17.021537,0.95178,0.00466,0.91934,-0.03838,-0.01255,-0.02319,0.02584,-0.12615,-0.07619,1.00815,0.94669,0.88036,0.00129,0.01277,0.82683,-0.27278,0.91648,0.73306,-0.18532,A,112616.90
0.96236,57.68798579,11.98131453,57.68799233,11.98129833,11:26:17.032144,0.96236,0.00485,0.91934,-0.03975,-0.01316,-0.00120,0.02675,-0.07387,-0.09870,1.01998,0.95735,0.88426,0.00142,0.01311,0.82404,-0.26395,0.91648,0.73306,-0.18532,A,112616.90
0.97227,57.68798586,11.98131449,57.68799233,11.98129833,11:26:17.042021,0.97227,0.00436,0.91934,-0.04050,-0.01393,0.00323,0.02461,0.02470,-0.05795,1.01974,0.96769,0.88777,0.00154,0.01338,0.82140,-0.25600,0.91648,0.73306,-0.18532,A,112616.90
0.98379,57.68798593,11.98131445,57.68799233,11.98129833,11:26:17.053564,0.98379,0.00553,0.91934,-0.04048,-0.00537,-0.00364,0.02859,0.03154,-0.01116,0.99320,0.97785,0.89093,0.00168,0.01361,0.81921,-0.24885,0.91648,0.73306,-0.18532,A,112616.90
0.99299,57.68798599,11.98131440,57.68799233,11.98129833,11:26:17.062748,0.99299,0.00434,0.91934,-0.04023,0.00196,-0.00807,0.02843,-0.02092,-0.00098,0.99619,0.98843,0.89377,0.00178,0.01379,0.81652,-0.24241,0.91648,0.73306,-0.18532,A,112616.90
1.00365,57.68798604,11.98131438,57.68799233,11.98129833,11:26:17.073409,1.00365,0.00460,0.91934,-0.04021,0.01570,-0.00028,0.02675,-0.07290,-0.02611,1.01589,0.99863,0.89632,0.00192,0.01397,0.81491,-0.23661,0.91648,0.73306,-0.18532,A,112616.90
1.01378,57.68798609,11.98131435,57.68799233,11.98129833,11:26:17.083765,1.01378,0.00434,0.91934,-0.04068,0.00959,-0.00410,0.02736,-0.06234,-0.05600,1.02992,1.00922,0.89862,0.00206,0.01412,0.81342,-0.23139,0.91648,0.73306,-0.18532,A,112616.90
1.03653,57.68798620,11.98131444,57.68799300,11.98129767,11:26:17.106284,1.03653,0.01669,0.91934,-0.04102,0.01005,-0.01036,0.02431,0.05295,-0.04551,0.98570,1.01959,0.90070,0.00262,0.01470,0.81841,-0.21913,1.03373,0.69343,-0.11119,A,112617.00
1.05244,57.68798629,11.98131441,57.68799300,11.98129767,11:26:17.122206,1.05244,0.00676,0.91934,-0.04071,0.02975,-0.05831,0.02629,-0.15067,-0.05331,1.10599,1.04605,0.90256,0.00291,0.01513,0.81660,-0.20818,1.03373,0.69343,-0.11119,A,112617.00
1.06044,57.68798638,11.98131428,57.68799300,11.98129767,11:26:17.130195,1.06044,0.00437,0.91934,-0.04095,0.03769,-0.02426,0.02370,-0.18959,-0.06259,1.09544,1.05586,0.90424,0.00297,0.01530,0.80928,-0.19841,1.03373,0.69343,-0.11119,A,112617.00
1.07075,57.68798646,11.98131420,57.68799300,11.98129767,11:26:17.140508,1.07075,0.00445,0.91934,-0.04181,0.03846,0.00674,0.02736,-0.03196,-0.09418,0.94477,1.06591,0.90575,0.00310,0.01559,0.80438,-0.18958,1.03373,0.69343,-0.11119,A,112617.00
1.08103,57.68798653,11.98131413,57.68799300,11.98129767,11:26:17.150776,1.08103,0.00434,0.91934,-0.04284,0.03372,-0.00593,0.03011,0.04813,-0.09876,0.89829,1.07646,0.90711,0.00324,0.01590,0.80018,-0.18164,1.03373,0.69343,-0.11119,A,112617.00
1.09167,57.68798660,11.98131407,57.68799300,11.98129767,11:26:17.161423,1.09167,0.00458,0.91934,-0.04277,0.03082,-0.02456,0.03317,-0.00647,-0.03288,0.96057,1.08667,0.90833,0.00338,0.01622,0.79647,-0.17448,1.03373,0.69343,-0.11119,A,112617.00
1.10228,57.68798666,11.98131401,57.68799300,11.98129767,11:26:17.172033,1.10228,0.00479,0.91934,-0.04161,0.03998,-0.02502,0.03240,-0.10901,0.03221,1.04225,1.09737,0.90943,0.00352,0.01653,0.79308,-0.16804,1.03373,0.69343,-0.11119,A,112617.00
1.11231,57.68798671,11.98131396,57.68799300,11.98129767,11:26:17.182064,1.11231,0.00436,0.91934,-0.04047,0.05128,-0.00899,0.02248,-0.07546,0.02409,1.02224,1.10773,0.91042,0.00366,0.01679,0.78985,-0.16224,1.03373,0.69343,-0.11119,A,112617.00
1.12292,57.68798675,11.98131391,57.68799300,11.98129767,11:26:17.192675,1.12292,0.00466,0.91934,-0.04039,0.05785,-0.00181,0.02400,0.00964,-0.04923,0.97984,1.11804,0.91131,0.00380,0.01703,0.78715,-0.15702,1.03373,0.69343,-0.11119,A,112617.00
1.13299,57.68798680,11.98131387,57.68799300,11.98129767,11:26:17.202731,1.13299,0.00434,0.91934,-0.04052,0.04670,-0.00914,0.01759,0.02458,-0.05642,1.00150,1.12842,0.91211,0.00394,0.01722,0.78454,-0.15233,1.03373,0.69343,-0.11119,A,112617.00
1.15621,57.68798692,11.98131388,57.68799383,11.98129650,11:26:17.225981,1.15621,0.01716,0.91934,-0.04011,0.03968,-0.02273,0.02492,-0.06442,-0.01616,1.02291,1.13863,0.91284,0.00454,0.01785,0.78562,-0.13865,1.15290,0.62409,-0.01853,A,112617.10
1.16658,57.68798703,11.98131373,57.68799383,11.98129650,11:26:17.236339,1.16658,0.00480,0.91934,-0.03904,0.03952,-0.01082,0.02629,-0.01793,-0.00372,0.95611,1.16162,0.91349,0.00467,0.01798,0.77622,-0.12652,1.15290,0.62409,-0.01853,A,112617.10
1.17652,57.68798713,11.98131358,57.68799383,11.98129650,11:26:17.246267,1.17652,0.00434,0.91934,-0.03898,0.03647,-0.01845,0.02691,-0.01928,-0.03392,0.96947,1.17194,0.91407,0.00479,0.01810,0.76767,-0.11560,1.15290,0.62409,-0.01853,A,112617.10
1.18807,57.68798722,11.98131347,57.68799383,11.98129650,11:26:17.257830,1.18807,0.00567,0.91934,-0.03882,0.03693,-0.01922,0.02645,-0.00671,-0.03080,0.97972,1.18326,0.91460,0.00497,0.01828,0.76128,-0.10575,1.15290,0.62409,-0.01853,A,112617.10
1.19723,57.68798730,11.98131335,57.68799383,11.98129650,11:26:17.266981,1.19723,0.00444,0.91934,-0.03847,0.02868,-0.02731,0.02095,-0.05636,-0.00860,1.00998,1.19266,0.91507,0.00507,0.01837,0.75359,-0.09692,1.15290,0.62409,-0.01853,A,112617.10
1.20746,57.68798737,11.98131324,57.68799383,11.98129650,11:26:17.277216,1.20746,0.00440,1.18745,-0.03800,0.02731,-0.02395,0.01790,-0.10431,0.00098,1.02614,1.20260,0.94231,0.00519,0.01849,0.74731,-0.08896,1.15290,0.62409,-0.01853,A,112617.10
1.21824,57.68798743,11.98131315,57.68799383,11.98129650,11:26:17.288013,1.21824,0.00478,1.18745,-0.03737,0.02135,-0.00746,0.02034,-0.10150,0.01610,1.04767,1.21330,0.96682,0.00533,0.01864,0.74227,-0.08178,1.15290,0.62409,-0.01853,A,112617.10
1.22821,57.68798749,11.98131308,57.68799383,11.98129650,11:26:17.297961,1.22821,0.00436,1.18745,-0.03736,0.02670,0.00445,0.02003,-0.05917,-0.02940,1.03932,1.22363,0.98889,0.00548,0.01879,0.73786,-0.07532,1.15290,0.62409,-0.01853,A,112617.10
1.23877,57.68798754,11.98131301,57.68799383,11.98129650,11:26:17.308525,1.23877,0.00451,1.18745,-0.03731,0.01417,0.01698,0.01454,-0.11566,-0.01903,1.09788,1.23384,1.00874,0.00563,0.01894,0.73394,-0.06950,1.15290,0.62409,-0.01853,A,112617.10
1.24897,57.68798759,11.98131296,57.68799383,11.98129650,11:26:17.318714,1.24897,0.00432,1.18745,-0.03701,0.01158,0.02812,0.01484,-0.05124,0.00122,1.03657,1.24442,1.02661,0.00579,0.01910,0.73057,-0.06426,1.15290,0.62409,-0.01853,A,112617.10
1.27201,57.68798775,11.98131306,57.68799500,11.98129600,11:26:17.341759,1.27201,0.01697,1.18745,-0.03731,0.00669,0.01911,0.01790,0.04575,-0.03190,0.91805,1.25462,1.04270,0.00650,0.01980,0.73661,-0.04634,1.26915,0.59437,0.11119,A,112617.20
1.28454,57.68798789,11.98131295,57.68799500,11.98129600,11:26:17.354310,1.28454,0.00680,1.18745,-0.03724,-0.01209,-0.00028,0.02202,-0.18117,0.01226,1.04804,1.27752,1.05717,0.00665,0.01996,0.73013,-0.03043,1.26915,0.59437,0.11119,A,112617.20
1.29267,57.68798802,11.98131282,57.68799500,11.98129600,11:26:17.362421,1.29267,0.00454,1.18745,-0.03696,-0.00599,0.02049,0.02034,-0.06747,0.01269,1.03785,1.28809,1.07020,0.00672,0.02003,0.72256,-0.01615,1.26915,0.59437,0.11119,A,112617.20
1.30300,57.68798814,11.98131274,57.68799500,11.98129600,11:26:17.372754,1.30300,0.00457,1.18745,-0.03730,-0.00400,0.01698,0.02477,0.16854,-0.02721,0.89932,1.29804,1.08192,0.00688,0.02018,0.71755,-0.00326,1.26915,0.59437,0.11119,A,112617.20
1.31316,57.68798824,11.98131267,57.68799500,11.98129600,11:26:17.382905,1.31316,0.00434,1.18745,-0.03749,-0.00537,-0.03541,0.02706,0.15335,-0.01519,0.83265,1.30859,1.09248,0.00705,0.02035,0.71335,0.00835,1.26915,0.59437,0.11119,A,112617.20
1.32363,57.68798834,11.98131261,57.68799500,11.98129600,11:26:17.393380,1.32363,0.00442,1.18745,-0.03756,-0.01164,-0.07587,0.02767,-0.07625,-0.00634,0.89774,1.31880,1.10197,0.00722,0.02052,0.70968,0.01880,1.26915,0.59437,0.11119,A,112617.20
1.33426,57.68798842,11.98131255,57.68799500,11.98129600,11:26:17.404021,1.33426,0.00466,1.18745,-0.03724,-0.01072,-0.06381,0.02981,-0.26230,0.01769,1.02535,1.32937,1.11052,0.00739,0.02070,0.70656,0.02822,1.26915,0.59437,0.11119,A,112617.20
1.34435,57.68798850,11.98131250,57.68799500,11.98129600,11:26:17.414105,1.34435,0.00436,1.18745,-0.03701,-0.00919,-0.01906,0.02400,-0.22192,0.01171,1.13228,1.33978,1.11821,0.00756,0.02087,0.70362,0.03668,1.26915,0.59437,0.11119,A,112617.20
1.35467,57.68798857,11.98131246,57.68799500,11.98129600,11:26:17.424428,1.35467,0.00441,1.18745,-0.03724,-0.00537,0.02324,0.02889,0.01281,-0.02409,1.07982,1.34985,1.12514,0.00773,0.02104,0.70099,0.04431,1.26915,0.59437,0.11119,A,112617.20
1.36500,57.68798863,11.98131243,57.68799500,11.98129600,11:26:17.434745,1.36500,0.00434,1.18745,-0.03794,-0.01530,0.00690,0.02935,0.16885,-0.04825,1.02822,1.36042,1.13137,0.00791,0.02122,0.69892,0.05118,1.26915,0.59437,0.11119,A,112617.20
1.38861,57.68798879,11.98131254,57.68799600,11.98129517,11:26:17.458362,1.38861,0.01755,1.18745,-0.03834,-0.02507,-0.02594,0.02736,0.00152,-0.02227,1.04267,1.37062,1.13698,0.00871,0.02202,0.70576,0.06877,1.38575,0.54484,0.22239,A,112617.30
1.39923,57.68798892,11.98131241,57.68799600,11.98129517,11:26:17.468996,1.39923,0.00468,1.18745,-0.03866,-0.02462,0.02599,0.01423,-0.15390,0.00464,1.05878,1.39421,1.14202,0.00888,0.02219,0.69822,0.08432,1.38575,0.54484,0.22239,A,112617.30
1.40936,57.68798905,11.98131230,57.68799600,11.98129517,11:26:17.479107,1.40936,0.00441,1.18745,-0.04000,-0.02339,0.03255,0.01713,0.19550,-0.07046,0.83631,1.40472,1.14657,0.00905,0.02236,0.69135,0.09832,1.38575,0.54484,0.22239,A,112617.30
1.41984,57.68798916,11.98131220,57.68799600,11.98129517,11:26:17.489587,1.41984,0.00449,1.18745,-0.04137,-0.03393,-0.02991,0.01927,0.26724,-0.05984,0.74426,1.41492,1.15065,0.00921,0.02256,0.68526,0.11092,1.38575,0.54484,0.22239,A,112617.30
1.43052,57.68798927,11.98131211,57.68799600,11.98129517,11:26:17.500274,1.43052,0.00478,1.18745,-0.04151,-0.02660,-0.07282,0.02813,-0.03209,-0.00329,0.78958,1.42564,1.15433,0.00939,0.02285,0.68006,0.12226,1.38575,0.54484,0.22239,A,112617.30
1.44049,57.68798936,11.98131202,57.68799600,11.98129517,11:26:17.510241,1.44049,0.00436,1.18745,-0.04246,-0.01637,-0.06152,0.03271,-0.23814,-0.06033,0.91024,1.43590,1.15765,0.00955,0.02320,0.67498,0.13247,1.38575,0.54484,0.22239,A,112617.30
1.45092,57.68798944,11.98131195,57.68799600,11.98129517,11:26:17.520671,1.45092,0.00456,1.18745,-0.04286,-0.02294,-0.02502,0.03057,-0.26090,-0.02965,1.08287,1.44598,1.16063,0.00972,0.02364,0.67054,0.14166,1.38575,0.54484,0.22239,A,112617.30
1.46111,57.68798952,11.98131188,57.68799600,11.98129517,11:26:17.530857,1.46111,0.00435,1.18745,-0.04355,-0.01652,0.02751,0.03225,-0.09223,-0.05618,1.09586,1.45653,1.16331,0.00990,0.02415,0.66670,0.14994,1.38575,0.54484,0.22239,A,112617.30
1.47157,57.68798958,11.98131183,57.68799600,11.98129517,11:26:17.541320,1.47157,0.00442,1.18745,-0.04361,-0.01942,0.03072,0.03195,0.12981,-0.00921,1.10965,1.46673,1.16572,0.01008,0.02468,0.66326,0.15740,1.38575,0.54484,0.22239,A,112617.30
1.48210,57.68798964,11.98131178,57.68799600,11.98129517,11:26:17.551872,1.48210,0.00457,1.18745,-0.04369,-0.01438,-0.00471,0.03454,0.19160,-0.01397,1.12161,1.47729,1.16789,0.01028,0.02522,0.66030,0.16411,1.38575,0.54484,0.22239,A,112617.30
1.51754,57.68798987,11.98131208,57.68799767,11.98129417,11:26:17.587440,1.51754,0.02884,1.18745,-0.04399,-0.00782,-0.03174,0.03225,-0.09424,-0.03471,1.12856,1.48954,1.16985,0.01185,0.02709,0.67844,0.18937,1.51481,0.48540,0.40771,A,112617.50
1.53144,57.68799007,11.98131196,57.68799767,11.98129417,11:26:17.601201,1.53144,0.00571,1.18745,-0.04432,-0.00568,-0.00257,0.03057,0.20313,-0.01696,0.76268,1.52650,1.17161,0.01222,0.02786,0.67147,0.21154,1.51481,0.48540,0.40771,A,112617.50
1.54047,57.68799025,11.98131178,57.68799767,11.98129417,11:26:17.610226,1.54047,0.00435,1.18745,-0.04424,-0.00507,-0.03876,0.03393,0.05240,-0.00555,0.79611,1.53590,1.17319,0.01235,0.02798,0.66046,0.23137,1.51481,0.48540,0.40771,A,112617.50
1.55084,57.68799041,11.98131163,57.68799767,11.98129417,11:26:17.620601,1.55084,0.00448,1.18745,-0.04462,0.00165,-0.04457,0.04126,-0.19636,-0.04069,0.95483,1.54597,1.17462,0.01253,0.02817,0.65164,0.24925,1.51481,0.48540,0.40771,A,112617.50
1.56111,57.68799055,11.98131150,57.68799767,11.98129417,11:26:17.630862,1.56111,0.00436,1.18745,-0.04468,-0.00797,0.02247,0.03912,-0.45195,-0.02050,1.22640,1.55654,1.17590,0.01273,0.02836,0.64394,0.26535,1.51481,0.48540,0.40771,A,112617.50
1.57160,57.68799068,11.98131138,57.68799767,11.98129417,11:26:17.641352,1.57160,0.00445,1.18745,-0.04556,-0.00446,0.08753,0.03897,-0.06844,-0.08485,1.15278,1.56674,1.17706,0.01292,0.02855,0.63694,0.27983,1.51481,0.48540,0.40771,A,112617.50
1.58235,57.68799080,11.98131128,57.68799767,11.98129417,11:26:17.652105,1.58235,0.00480,1.18745,-0.04619,-0.01637,0.05500,0.03164,0.41956,-0.04325,0.89694,1.57748,1.17810,0.01312,0.02876,0.63092,0.29288,1.51481,0.48540,0.40771,A,112617.50
1.59231,57.68799091,11.98131118,57.68799767,11.98129417,11:26:17.662060,1.59231,0.00436,1.18745,-0.04527,-0.03241,-0.04258,0.02904,0.23711,0.06411,0.99351,1.58773,1.17903,0.01329,0.02893,0.62499,0.30461,1.51481,0.48540,0.40771,A,112617.50
1.60276,57.68799100,11.98131110,57.68799767,11.98129417,11:26:17.672517,1.60276,0.00445,1.18745,-0.04384,-0.03897,-0.06931,0.01667,-0.28072,0.12169,1.17822,1.59792,1.17987,0.01348,0.02912,0.61990,0.31518,1.51481,0.48540,0.40771,A,112617.50
1.61303,57.68799109,11.98131102,57.68799767,11.98129417,11:26:17.682780,1.61303,0.00433,1.18745,-0.04409,-0.00324,-0.02258,0.00827,-0.39937,-0.03581,1.13966,1.60848,1.18063,0.01367,0.02930,0.61543,0.32470,1.51481,0.48540,0.40771,A,112617.50
1.63585,57.68799128,11.98131109,57.68799883,11.98129333,11:26:17.705602,1.63585,0.01675,1.18745,-0.04592,-0.02126,0.03729,-0.01158,-0.09437,-0.12426,0.99113,1.61868,1.18131,0.04598,0.06162,0.61981,0.34663,1.63300,0.43587,0.53744,A,112617.60
1.64895,57.68799146,11.98131098,57.68799883,11.98129333,11:26:17.718709,1.64895,0.00620,1.18745,-0.04704,-0.04523,-0.00165,0.00278,0.08778,-0.01604,0.84644,1.64313,1.18193,0.07739,0.09303,0.61280,0.36641,1.63300,0.43587,0.53744,A,112617.60
1.65749,57.68799162,11.98131080,57.68799883,11.98129333,11:26:17.727233,1.65749,0.00435,1.18745,-0.04732,-0.04065,-0.01677,0.01560,-0.23717,-0.01068,0.92921,1.65291,1.18248,0.10826,0.12388,0.60221,0.38417,1.63300,0.43587,0.53744,A,112617.60
1.66790,57.68799177,11.98131067,57.68799883,11.98129333,11:26:17.737648,1.66790,0.00437,1.18745,-0.04749,-0.04050,0.00842,0.01652,-0.24979,-0.00458,1.00284,1.66310,1.18298,0.13891,0.15445,0.59440,0.40060,1.63300,0.43587,0.53744,A,112617.60
1.67853,57.68799190,11.98131055,57.68799883,11.98129333,11:26:17.748290,1.67853,0.00445,1.18745,-0.04759,-0.04035,0.02492,0.01240,-0.03251,0.00159,1.00375,1.67367,1.18342,0.16927,0.18460,0.58751,0.41568,1.63300,0.43587,0.53744,A,112617.60
1.68936,57.68799203,11.98131045,57.68799883,11.98129333,11:26:17.759114,1.68936,0.00489,1.18745,-0.04740,-0.03515,0.00934,0.00614,0.14475,0.01696,1.00131,1.68452,1.18383,0.19932,0.21433,0.58150,0.42957,1.63300,0.43587,0.53744,A,112617.60
1.70021,57.68799215,11.98131036,57.68799883,11.98129333,11:26:17.769965,1.70021,0.00534,1.18745,-0.04706,-0.03057,-0.02975,0.00568,0.11858,0.02519,1.00912,1.69558,1.18419,0.22909,0.24369,0.57629,0.44239,1.63300,0.43587,0.53744,A,112617.60
1.70958,57.68799225,11.98131026,57.68799883,11.98129333,11:26:17.779559,1.70958,0.00432,1.18745,-0.04767,-0.01500,-0.04869,0.00308,-0.12273,-0.05557,1.06994,1.70503,1.18451,0.25847,0.27272,0.57008,0.45384,1.63300,0.43587,0.53744,A,112617.60
1.72002,57.68799235,11.98131018,57.68799883,11.98129333,11:26:17.789768,1.72002,0.00436,1.18745,-0.04874,-0.01729,-0.02304,0.00705,-0.28023,-0.08656,1.06585,1.71523,1.18481,0.28760,0.30156,0.56548,0.46467,1.63300,0.43587,0.53744,A,112617.60
1.73083,57.68799244,11.98131011,57.68799883,11.98129333,11:26:17.800588,1.73083,0.00459,1.18745,-0.05017,-0.02462,0.01270,0.01301,-0.19660,-0.10132,1.00815,1.72584,1.18507,0.31644,0.33018,0.56125,0.47466,1.63300,0.43587,0.53744,A,112617.60
1.75344,57.68799266,11.98131019,57.68799983,11.98129267,11:26:17.823187,1.75344,0.01680,1.18745,-0.05084,-0.03210,0.02018,0.01316,-0.00287,-0.04386,0.95660,1.73641,1.18531,0.34560,0.35921,0.56581,0.49928,1.75074,0.39625,0.64864,A,112617.70
1.76944,57.68799284,11.98131014,57.68799983,11.98129267,11:26:17.839199,1.76944,0.00566,1.18745,-0.05109,-0.00186,-0.02013,0.02843,-0.04929,-0.03587,0.96709,1.76424,1.18552,0.37413,0.38769,0.56298,0.51952,1.75074,0.39625,0.64864,A,112617.70
1.77929,57.68799298,11.98130999,57.68799983,11.98129267,11:26:17.849036,1.77929,0.00497,1.18745,-0.05199,-0.00125,-0.03052,0.02736,-0.16787,-0.08662,1.02724,1.77442,1.18572,0.40205,0.41561,0.55393,0.53554,1.75074,0.39625,0.64864,A,112617.70
1.78956,57.68799312,11.98130986,57.68799983,11.98129267,11:26:17.859531,1.78956,0.00483,1.28120,-0.05267,-0.01347,-0.02029,0.01896,-0.22027,-0.06527,1.07287,1.78473,1.19526,0.42971,0.44328,0.54616,0.55038,1.75074,0.39625,0.64864,A,112617.70
1.79965,57.68799324,11.98130973,57.68799983,11.98129267,11:26:17.869404,1.79965,0.00454,1.28120,-0.05289,-0.01484,-0.00349,0.01240,-0.00994,-0.03074,1.02102,1.79481,1.20386,0.45710,0.47066,0.53895,0.56390,1.75074,0.39625,0.64864,A,112617.70
1.81006,57.68799335,11.98130963,57.68799983,11.98129267,11:26:17.879828,1.81006,0.00455,1.28120,-0.05257,-0.00263,-0.01173,0.00934,0.16421,-0.00152,0.93452,1.80527,1.21159,0.48422,0.49779,0.53275,0.57648,1.75074,0.39625,0.64864,A,112617.70
1.82025,57.68799346,11.98130954,57.68799983,11.98129267,11:26:17.890003,1.82025,0.00434,1.28120,-0.05296,-0.00400,-0.05083,0.00079,0.06106,-0.04856,0.99887,1.81566,1.21855,0.51110,0.52466,0.52732,0.58816,1.75074,0.39625,0.64864,A,112617.70
1.83077,57.68799355,11.98130945,57.68799983,11.98129267,11:26:17.900520,1.83077,0.00444,1.28120,-0.05339,-0.00873,-0.06977,0.00201,-0.21307,-0.05215,1.08312,1.82592,1.22482,0.53769,0.55126,0.52220,0.59884,1.75074,0.39625,0.64864,A,112617.70
1.84106,57.68799364,11.98130937,57.68799983,11.98129267,11:26:17.910811,1.84106,0.00434,1.28120,-0.05412,-0.00583,-0.04258,-0.00028,-0.35112,-0.07808,1.09788,1.83648,1.23046,0.56403,0.57760,0.51755,0.60870,1.75074,0.39625,0.64864,A,112617.70
1.85154,57.68799372,11.98130930,57.68799983,11.98129267,11:26:17.921300,1.85154,0.00443,1.28120,-0.05446,0.00425,0.02156,0.00003,-0.12481,-0.04953,0.95477,1.84670,1.23553,0.59010,0.60367,0.51319,0.61776,1.75074,0.39625,0.64864,A,112617.70
1.87495,57.68799404,11.98130940,57.68800150,11.98129233,11:26:17.944708,1.87495,0.01744,1.28120,-0.05463,0.00547,0.02309,0.00232,0.17202,-0.03379,0.83216,1.85726,1.24010,0.61659,0.63015,0.51916,0.65293,1.87204,0.37643,0.83396,A,112617.80
1.88492,57.68799425,11.98130928,57.68800150,11.98129233,11:26:17.954672,1.88492,0.00450,1.28120,-0.05439,0.01204,-0.08244,0.02523,-0.12041,-0.02891,0.97929,1.88034,1.24421,0.64212,0.65565,0.51222,0.67638,1.87204,0.37643,0.83396,A,112617.80
1.89512,57.68799444,11.98130918,57.68800150,11.98129233,11:26:17.964876,1.89512,0.00447,1.28120,-0.05401,0.01020,-0.07755,0.02049,-0.24760,-0.00939,1.11551,1.89026,1.24791,0.66740,0.68082,0.50583,0.69766,1.87204,0.37643,0.83396,A,112617.80
1.90637,57.68799462,11.98130909,57.68800150,11.98129233,11:26:17.976130,1.90637,0.00473,1.28120,-0.05389,0.01081,-0.02655,0.00568,-0.23296,-0.03306,1.19042,1.90149,1.25124,0.69248,0.70562,0.50085,0.71774,1.87204,0.37643,0.83396,A,112617.80
1.91640,57.68799478,11.98130900,57.68800150,11.98129233,11:26:17.986157,1.91640,0.00436,1.28120,-0.05360,0.01234,0.01743,-0.00715,0.09766,-0.01751,1.08946,1.91182,1.25423,0.71725,0.73002,0.49544,0.73536,1.87204,0.37643,0.83396,A,112617.80
1.92672,57.68799492,11.98130892,57.68800150,11.98129233,11:26:17.996473,1.92672,0.00444,1.28120,-0.05399,0.01494,0.00109,-0.00608,0.15018,-0.06399,1.02053,1.92187,1.25693,0.74177,0.75413,0.49046,0.75140,1.87204,0.37643,0.83396,A,112617.80
1.93716,57.68799506,11.98130885,57.68800150,11.98129233,11:26:18.006909,1.93716,0.00449,1.28120,-0.05493,0.00394,-0.02258,-0.00547,-0.02586,-0.09260,0.99229,1.93258,1.25936,0.76606,0.77793,0.48615,0.76633,1.87204,0.37643,0.83396,A,112617.80
1.94752,57.68799518,11.98130877,57.68800150,11.98129233,11:26:18.017266,1.94752,0.00445,1.28120,-0.05540,-0.01148,-0.03098,-0.00028,-0.19978,-0.05337,1.02901,1.94265,1.26154,0.79007,0.80144,0.48182,0.77964,1.87204,0.37643,0.83396,A,112617.80
1.95777,57.68799529,11.98130871,57.68800150,11.98129233,11:26:18.027764,1.95777,0.00431,1.28120,-0.05540,-0.02202,-0.02594,-0.00807,-0.19782,-0.01501,1.03737,1.95322,1.26351,0.81385,0.82466,0.47796,0.79196,1.87204,0.37643,0.83396,A,112617.80
1.96820,57.68799539,11.98130865,57.68800150,11.98129233,11:26:18.037956,1.96820,0.00435,1.28120,-0.05491,-0.01102,-0.01112,-0.01341,0.08040,0.01019,0.92092,1.96363,1.26528,0.83738,0.84761,0.47444,0.80334,1.87204,0.37643,0.83396,A,112617.80
1.99126,57.68799563,11.98130867,57.68800200,11.98129150,11:26:18.061010,1.99126,0.01700,1.28120,-0.05470,-0.00828,-0.04610,-0.01647,0.19422,-0.00775,0.88395,1.97383,1.26687,0.86116,0.87076,0.47559,0.82998,1.98835,0.32690,0.88956,A,112617.90
2.00367,57.68799576,11.98130854,57.68800200,11.98129150,11:26:18.073440,2.00367,0.00657,1.28120,-0.05553,-0.00140,-0.01708,-0.02334,-0.28377,-0.08985,1.08000,1.99855,1.26830,0.88424,0.89234,0.46811,0.84470,1.98835,0.32690,0.88956,A,112617.90
2.01542,57.68799585,11.98130838,57.68800200,11.98129150,11:26:18.085867,2.01542,0.00789,1.28120,-0.05739,-0.00767,0.02492,-0.01815,-0.19752,-0.15268,1.00357,2.00709,1.26959,0.90693,0.91447,0.45839,0.85465,1.98835,0.32690,0.88956,A,112617.90
2.02263,57.68799595,11.98130826,57.68800200,11.98129150,11:26:18.092382,2.02263,0.00448,1.28120,-0.05804,-0.01881,0.04889,-0.01738,-0.00262,-0.06686,0.97826,2.01775,1.27075,0.92946,0.92541,0.45124,0.86593,1.98835,0.32690,0.88956,A,112617.90
2.03288,57.68799604,11.98130815,57.68800200,11.98129150,11:26:18.102632,2.03288,0.00433,1.28120,-0.05656,-0.02721,0.02263,-0.01494,0.19203,0.07320,0.93836,2.02832,1.27180,0.95148,0.94678,0.44461,0.87599,1.98835,0.32690,0.88956,A,112617.90
2.04341,57.68799613,11.98130804,57.68800200,11.98129150,11:26:18.113162,2.04341,0.00446,1.28120,-0.05557,-0.01286,-0.02762,-0.01952,0.14146,0.03703,1.00180,2.03854,1.27274,0.97328,0.96790,0.43845,0.88515,1.98835,0.32690,0.88956,A,112617.90
2.05418,57.68799620,11.98130795,57.68800200,11.98129150,11:26:18.123942,2.05418,0.00484,1.28120,-0.05520,0.00196,-0.05175,-0.02929,-0.02513,-0.01525,1.05079,2.04934,1.27358,0.99483,0.98870,0.43294,0.89378,1.98835,0.32690,0.88956,A,112617.90
2.06410,57.68799627,11.98130786,57.68800200,11.98129150,11:26:18.133850,2.06410,0.00436,1.28120,-0.05593,0.00791,-0.04625,-0.03678,-0.10449,-0.09357,1.02401,2.05932,1.27434,1.01617,1.00933,0.42746,0.90115,1.98835,0.32690,0.88956,A,112617.90
2.07554,57.68799634,11.98130778,57.68800200,11.98129150,11:26:18.145293,2.07554,0.00528,1.28120,-0.05702,-0.00858,-0.01845,-0.04487,-0.05228,-0.10291,0.98033,2.07059,1.27503,1.03724,1.02965,0.42304,0.90896,1.98835,0.32690,0.88956,A,112617.90
2.08500,57.68799639,11.98130770,57.68800200,11.98129150,11:26:18.154744,2.08500,0.00435,1.28120,-0.05909,-0.01561,-0.01250,-0.04487,0.07448,-0.15518,0.91164,2.08042,1.27565,1.05813,1.04992,0.41794,0.91453,1.98835,0.32690,0.88956,A,112617.90
2.11864,57.68799685,11.98130770,57.68800400,11.98129000,11:26:18.188397,2.11864,0.02776,1.28120,-0.06011,-0.02569,-0.02823,-0.04441,0.06716,-0.08638,0.92232,2.09049,1.27620,1.07803,1.06921,0.41805,0.96586,2.11577,0.23775,1.11195,A,112618.10
2.13082,57.68799707,11.98130749,57.68800400,11.98129000,11:26:18.200578,2.13082,0.00542,1.28120,-0.06071,-0.02691,-0.01586,-0.05037,-0.00683,-0.02172,1.00985,2.12590,1.27670,1.09840,1.08783,0.40555,0.99056,2.11577,0.23775,1.11195,A,112618.10
2.14114,57.68799726,11.98130728,57.68800400,11.98129000,11:26:18.210897,2.14114,0.00496,1.28120,-0.06073,-0.02538,-0.02426,-0.05541,0.04581,-0.02916,1.01766,2.13654,1.27715,1.11859,1.10758,0.39330,1.01133,2.11577,0.23775,1.11195,A,112618.10
2.15091,57.68799742,11.98130709,57.68800400,11.98129000,11:26:18.220660,2.15091,0.00449,1.28120,-0.06019,-0.02843,-0.02624,-0.05648,0.00110,0.00976,1.06567,2.14603,1.27756,1.13860,1.12724,0.38166,1.02924,2.11577,0.23775,1.11195,A,112618.10
2.16116,57.68799758,11.98130692,57.68800400,11.98129000,11:26:18.230916,2.16116,0.00436,1.28120,-0.06024,-0.01988,-0.02594,-0.05373,-0.07619,-0.03672,1.06469,2.15658,1.27792,1.15837,1.14668,0.37142,1.04625,2.11577,0.23775,1.11195,A,112618.10
2.17177,57.68799771,11.98130676,57.68800400,11.98129000,11:26:18.241530,2.17177,0.00458,1.28120,-0.06097,-0.02172,-0.01326,-0.05190,-0.06673,-0.08125,1.03297,2.16678,1.27825,1.17793,1.16601,0.36201,1.06158,2.11577,0.23775,1.11195,A,112618.10
2.18304,57.68799785,11.98130662,57.68800400,11.98129000,11:26:18.252799,2.18304,0.00545,1.28120,-0.06192,-0.02813,-0.00104,-0.05220,-0.02355,-0.08546,0.96606,2.17814,1.27854,1.19726,1.18516,0.35372,1.07627,2.11577,0.23775,1.11195,A,112618.10
2.19251,57.68799795,11.98130648,57.68800400,11.98129000,11:26:18.262272,2.19251,0.00452,1.28120,-0.06150,-0.03118,-0.01494,-0.04762,0.02763,0.00049,0.92507,2.18792,1.27881,1.21646,1.20427,0.34542,1.08797,2.11577,0.23775,1.11195,A,112618.10
2.20285,57.68799805,11.98130635,57.68800400,11.98129000,11:26:18.272607,2.20285,0.00450,1.28120,-0.06147,-0.02263,-0.02395,-0.03769,0.00384,-0.02763,0.92543,2.19797,1.27905,1.23544,1.22325,0.33804,1.09918,2.11577,0.23775,1.11195,A,112618.10
2.21309,57.68799815,11.98130624,57.68800400,11.98129000,11:26:18.282841,2.21309,0.00434,1.28120,-0.06141,-0.01377,-0.02731,-0.03815,-0.06515,-0.03190,0.97271,2.20853,1.27926,1.25422,1.24202,0.33131,1.10958,2.11577,0.23775,1.11195,A,112618.10
2.23600,57.68799844,11.98130613,57.68800483,11.98128917,11:26:18.305752,2.23600,0.01686,1.28120,-0.06139,-0.00721,-0.01601,-0.03296,-0.08619,-0.04124,1.01510,2.21873,1.27946,1.27220,1.26001,0.32486,1.14212,2.23314,0.18822,1.20461,A,112618.20
2.25087,57.68799862,11.98130598,57.68800483,11.98128917,11:26:18.320628,2.25087,0.00571,1.28120,-0.06161,-0.00324,-0.00288,-0.03464,0.04331,-0.05612,1.02937,2.24593,1.27963,1.29041,1.27821,0.31567,1.16228,2.23314,0.18822,1.20461,A,112618.20
2.26067,57.68799874,11.98130581,57.68800483,11.98128917,11:26:18.330420,2.26067,0.00448,1.28120,-0.06163,-0.00247,-0.01189,-0.03097,-0.03550,-0.04813,1.03755,2.25606,1.27979,1.30866,1.29646,0.30556,1.17528,2.23314,0.18822,1.20461,A,112618.20
2.27099,57.68799884,11.98130565,57.68800483,11.98128917,11:26:18.340743,2.27099,0.00452,1.28120,-0.06137,-0.00446,-0.01204,-0.03892,-0.03678,-0.02605,0.99985,2.26610,1.27993,1.32672,1.31452,0.29638,1.18728,2.23314,0.18822,1.20461,A,112618.20
2.28121,57.68799894,11.98130551,57.68800483,11.98128917,11:26:18.350959,2.28121,0.00435,1.28120,-0.06173,0.00089,-0.02151,-0.03510,-0.00695,-0.06801,0.95916,2.27664,1.28006,1.34458,1.33239,0.28802,1.19838,2.23314,0.18822,1.20461,A,112618.20
2.29252,57.68799904,11.98130539,57.68800483,11.98128917,11:26:18.362277,2.29252,0.00526,1.28120,-0.06175,0.00516,-0.02456,-0.03311,0.01928,-0.04917,0.93513,2.28790,1.28017,1.36222,1.35003,0.28061,1.20957,2.23314,0.18822,1.20461,A,112618.20
2.30740,57.68799917,11.98130529,57.68800483,11.98128917,11:26:18.377161,2.30740,0.00493,1.28120,-0.06151,0.00623,-0.03632,-0.02624,-0.03898,-0.03562,0.97344,2.30243,1.28027,1.37953,1.36734,0.27456,1.22330,2.23314,0.18822,1.20461,A,112618.20
2.31716,57.68799923,11.98130517,57.68800483,11.98128917,11:26:18.386916,2.31716,0.00428,1.28120,-0.06074,0.01051,-0.03464,-0.02166,-0.08516,-0.00201,1.02858,2.31258,1.28037,1.39689,1.38472,0.26777,1.23037,2.23314,0.18822,1.20461,A,112618.20
2.32750,57.68799929,11.98130507,57.68800483,11.98128917,11:26:18.397258,2.32750,0.00445,1.33895,-0.06058,0.01570,-0.02120,-0.01952,-0.10968,-0.04849,1.07994,2.32264,1.28622,1.41407,1.40197,0.26157,1.23710,2.23314,0.18822,1.20461,A,112618.20
2.35040,57.68799958,11.98130493,57.68800583,11.98128833,11:26:18.420154,2.35040,0.01695,1.33895,-0.06060,0.00898,-0.01234,-0.01677,-0.03392,-0.05795,1.08653,2.33323,1.29150,1.43046,1.41852,0.25336,1.26889,2.34751,0.13869,1.31581,A,112618.30
2.36427,57.68799974,11.98130477,57.68800583,11.98128833,11:26:18.434030,2.36427,0.00584,1.33895,-0.06003,0.00104,-0.01555,-0.02502,-0.03209,-0.00939,0.96099,2.35963,1.29624,1.44712,1.43577,0.24400,1.28737,2.34751,0.13869,1.31581,A,112618.30
2.37317,57.68799984,11.98130461,57.68800583,11.98128833,11:26:18.442922,2.37317,0.00434,1.33895,-0.05912,0.00425,-0.01616,-0.02746,-0.05405,0.01202,0.93605,2.36860,1.30051,1.46386,1.45273,0.23458,1.29839,2.34751,0.13869,1.31581,A,112618.30
2.38362,57.68799995,11.98130447,57.68800583,11.98128833,11:26:18.453371,2.38362,0.00440,1.33895,-0.05894,0.00333,-0.00868,-0.03357,-0.06826,-0.03202,0.93184,2.37879,1.30436,1.48038,1.46947,0.22615,1.30985,2.34751,0.13869,1.31581,A,112618.30
2.39435,57.68800004,11.98130434,57.68800583,11.98128833,11:26:18.464103,2.39435,0.00473,1.33895,-0.05910,0.00012,-0.01570,-0.02914,-0.01360,-0.05155,0.94184,2.38954,1.30782,1.49672,1.48600,0.21843,1.32056,2.34751,0.13869,1.31581,A,112618.30
2.40454,57.68800013,11.98130422,57.68800583,11.98128833,11:26:18.474290,2.40454,0.00453,1.33895,-0.05941,-0.00247,-0.01952,-0.02716,0.01671,-0.06179,0.98661,2.39993,1.31093,1.51291,1.50232,0.21129,1.32987,2.34751,0.13869,1.31581,A,112618.30
2.41553,57.68800020,11.98130411,57.68800583,11.98128833,11:26:18.485287,2.41553,0.00526,1.33895,-0.05918,-0.00339,-0.02227,-0.02105,-0.02983,-0.02782,1.05506,2.40986,1.31373,1.52896,1.51842,0.20468,1.33795,2.34751,0.13869,1.31581,A,112618.30
2.42500,57.68800026,11.98130401,57.68800583,11.98128833,11:26:18.494750,2.42500,0.00434,1.33895,-0.05894,-0.00522,-0.02914,-0.02288,-0.06844,-0.02538,1.09141,2.42043,1.31626,1.54487,1.53434,0.19855,1.34477,2.34751,0.13869,1.31581,A,112618.30
2.43549,57.68800032,11.98130391,57.68800583,11.98128833,11:26:18.505243,2.43549,0.00444,1.33895,-0.05912,-0.00018,-0.02242,-0.02105,-0.03971,-0.05941,1.08202,2.43063,1.31853,1.56058,1.55005,0.19293,1.35179,2.34751,0.13869,1.31581,A,112618.30
2.44615,57.68800038,11.98130382,57.68800583,11.98128833,11:26:18.515931,2.44615,0.00435,1.33895,-0.05958,-0.00324,-0.02319,-0.02395,-0.02092,-0.07503,1.04523,2.44122,1.32057,1.57614,1.56561,0.18771,1.35824,2.34751,0.13869,1.31581,A,112618.30
2.46876,57.68800069,11.98130364,57.68800700,11.98128733,11:26:18.538514,2.46876,0.01692,1.33895,-0.05960,-0.01164,-0.02365,-0.02456,-0.06069,-0.03709,0.98857,2.45180,1.32241,1.59099,1.58046,0.17700,1.39219,2.46607,0.07925,1.44553,A,112618.40
2.48262,57.68800086,11.98130348,57.68800700,11.98128733,11:26:18.552380,2.48262,0.00698,1.33895,-0.06002,-0.00644,-0.00547,-0.03097,-0.08876,-0.05496,0.88846,2.47769,1.32406,1.60610,1.59557,0.16709,1.41144,2.46607,0.07925,1.44553,A,112618.40
2.49105,57.68800096,11.98130333,57.68800700,11.98128733,11:26:18.560805,2.49105,0.00474,1.33895,-0.06009,-0.00751,0.00048,-0.02945,-0.04111,-0.04081,0.88987,2.48615,1.32555,1.62129,1.61076,0.15812,1.42233,2.46607,0.07925,1.44553,A,112618.40
2.50103,57.68800107,11.98130319,57.68800700,11.98128733,11:26:18.570780,2.50103,0.00433,1.33895,-0.06053,-0.00965,0.00415,-0.03296,-0.08815,-0.06667,0.97960,2.49646,1.32689,1.63625,1.62572,0.14984,1.43438,2.46607,0.07925,1.44553,A,112618.40
2.51153,57.68800117,11.98130306,57.68800700,11.98128733,11:26:18.581286,2.51153,0.00444,1.33895,-0.06040,-0.01270,0.01056,-0.03128,0.02348,-0.02751,1.00931,2.50667,1.32810,1.65105,1.64052,0.14223,1.44548,2.46607,0.07925,1.44553,A,112618.40
2.52205,57.68800126,11.98130294,57.68800700,11.98128733,11:26:18.591816,2.52205,0.00456,1.33895,-0.06031,-0.00797,-0.00318,-0.02823,-0.01220,-0.03727,1.12057,2.51726,1.32918,1.66569,1.65516,0.13523,1.45560,2.46607,0.07925,1.44553,A,112618.40
2.53297,57.68800135,11.98130283,57.68800700,11.98128733,11:26:18.602718,2.53297,0.00446,1.33895,-0.05972,-0.00568,-0.00776,-0.01983,0.01848,-0.00092,1.08812,2.52837,1.33016,1.68016,1.66963,0.12869,1.46567,2.46607,0.07925,1.44553,A,112618.40
2.54334,57.68800142,11.98130273,57.68800700,11.98128733,11:26:18.613089,2.54334,0.00444,1.33895,-0.05994,-0.00079,-0.01586,-0.02212,0.02513,-0.06161,1.05567,2.53848,1.33104,1.69452,1.68402,0.12277,1.47350,2.46607,0.07925,1.44553,A,112618.40
2.55367,57.68800148,11.98130264,57.68800700,11.98128733,11:26:18.623664,2.55367,0.00437,1.33895,-0.05955,-0.00614,-0.02181,-0.01738,-0.01665,-0.01427,1.01602,2.54910,1.33183,1.70873,1.69832,0.11727,1.48083,2.46607,0.07925,1.44553,A,112618.40
2.56422,57.68800155,11.98130255,57.68800700,11.98128733,11:26:18.633972,2.56422,0.00453,1.33895,-0.05973,-0.00140,-0.02869,-0.01631,-0.02641,-0.05484,0.99656,2.55928,1.33254,1.72279,1.71254,0.11214,1.48763,2.46607,0.07925,1.44553,A,112618.40
2.58698,57.68800183,11.98130237,57.68800800,11.98128667,11:26:18.657009,2.58698,0.01675,1.33895,-0.05982,0.00944,-0.03113,-0.01265,0.02007,-0.05094,0.89066,2.56983,1.33318,1.73621,1.72622,0.10136,1.51928,2.58410,0.03962,1.55673,A,112618.50
2.60328,57.68800201,11.98130223,57.68800800,11.98128667,11:26:18.673046,2.60328,0.00655,1.33895,-0.05893,0.01814,-0.03999,-0.00532,-0.08290,-0.01677,0.97460,2.59762,1.33376,1.74981,1.74089,0.09270,1.53890,2.58410,0.03962,1.55673,A,112618.50
2.61156,57.68800209,11.98130212,57.68800800,11.98128667,11:26:18.681316,2.61156,0.00443,1.33895,-0.05863,0.01921,-0.02807,-0.00623,-0.13383,-0.03575,1.07604,2.60671,1.33428,1.76359,1.75508,0.08614,1.54798,2.58410,0.03962,1.55673,A,112618.50
2.62677,57.68800223,11.98130199,57.68800800,11.98128667,11:26:18.696530,2.62677,0.00460,1.33895,-0.05802,0.02059,0.02553,-0.00700,-0.08997,-0.02403,1.12771,2.62185,1.33475,1.77700,1.76916,0.07862,1.56425,2.58410,0.03962,1.55673,A,112618.50
2.63692,57.68800232,11.98130189,57.68800800,11.98128667,11:26:18.706669,2.63692,0.00448,1.33895,-0.05817,0.02105,0.02583,-0.00501,0.12346,-0.06564,1.00138,2.63233,1.33517,1.79046,1.78304,0.07275,1.57329,2.58410,0.03962,1.55673,A,112618.50
2.64717,57.68800239,11.98130180,57.68800800,11.98128667,11:26:18.716918,2.64717,0.00450,1.33895,-0.05781,0.01601,-0.00517,-0.00776,0.08430,-0.02647,0.98192,2.64229,1.33555,1.80380,1.79673,0.06738,1.58117,2.58410,0.03962,1.55673,A,112618.50
2.65741,57.68800245,11.98130172,57.68800800,11.98128667,11:26:18.727159,2.65741,0.00435,1.33895,-0.05709,0.00929,-0.02212,-0.00578,-0.13774,0.00116,1.12649,2.65285,1.33589,1.81700,1.81023,0.06234,1.58860,2.58410,0.03962,1.55673,A,112618.50
2.66785,57.68800251,11.98130164,57.68800800,11.98128667,11:26:18.737601,2.66785,0.00440,1.33895,-0.05625,0.01356,-0.01632,-0.00990,-0.15854,0.00854,1.09349,2.66304,1.33619,1.83008,1.82351,0.05768,1.59519,2.58410,0.03962,1.55673,A,112618.50
2.67845,57.68800257,11.98130156,57.68800800,11.98128667,11:26:18.748207,2.67845,0.00445,1.33895,-0.05702,0.01799,-0.01234,-0.00654,-0.01159,-0.09620,0.93739,2.67360,1.33647,1.84303,1.83660,0.05332,1.60124,2.58410,0.03962,1.55673,A,112618.50
2.71228,57.68800306,11.98130124,57.68801000,11.98128533,11:26:18.782030,2.71228,0.02787,1.33895,-0.05697,0.00761,-0.01830,-0.00944,0.10559,-0.03514,0.83509,2.68419,1.33672,1.85523,1.84887,0.03389,1.65625,2.70945,-0.03962,1.77912,A,112618.70
2.72296,57.68800326,11.98130107,57.68801000,11.98128533,11:26:18.792713,2.72296,0.00458,1.33895,-0.05680,0.01799,0.01010,0.00339,-0.07393,-0.06259,0.91262,2.71804,1.33694,1.86794,1.86186,0.02373,1.67839,2.70945,-0.03962,1.77912,A,112618.70
2.73311,57.68800344,11.98130091,57.68801000,11.98128533,11:26:18.802865,2.73311,0.00434,1.33895,-0.05698,0.00990,0.00965,0.01347,0.02239,-0.05496,0.95337,2.72854,1.33714,1.88053,1.87456,0.01451,1.69807,2.70945,-0.03962,1.77912,A,112618.70
2.74362,57.68800360,11.98130077,57.68801000,11.98128533,11:26:18.813375,2.74362,0.00445,1.33895,-0.05659,-0.00293,-0.01067,0.01087,0.01244,-0.01147,1.05121,2.73875,1.33732,1.89299,1.88712,0.00608,1.71580,2.70945,-0.03962,1.77912,A,112618.70
2.75436,57.68800374,11.98130064,57.68801000,11.98128533,11:26:18.824122,2.75436,0.00474,1.33895,-0.05584,0.00577,-0.01173,0.00094,-0.11376,0.00921,1.18279,2.74953,1.33749,1.90533,1.89950,-0.00173,1.73204,2.70945,-0.03962,1.77912,A,112618.70
2.76447,57.68800387,11.98130052,57.68801000,11.98128533,11:26:18.834223,2.76447,0.00446,1.33895,-0.05556,-0.00278,0.00919,-0.00639,-0.14018,-0.01989,1.15241,2.75988,1.33763,1.91755,1.91173,-0.00873,1.74616,2.70945,-0.03962,1.77912,A,112618.70
2.77473,57.68800398,11.98130041,57.68801000,11.98128533,11:26:18.844492,2.77473,0.00447,1.33895,-0.05589,-0.01087,0.02797,-0.01433,-0.08461,-0.05508,1.05243,2.76986,1.33777,1.92965,1.92383,-0.01510,1.75869,2.70945,-0.03962,1.77912,A,112618.70
2.78499,57.68800409,11.98130031,57.68801000,11.98128533,11:26:18.854739,2.78499,0.00434,1.33895,-0.05585,-0.01561,0.02553,-0.01860,0.01787,-0.02391,0.97216,2.78042,1.33788,1.94163,1.93581,-0.02106,1.77025,2.70945,-0.03962,1.77912,A,112618.70
2.79551,57.68800418,11.98130022,57.68801000,11.98128533,11:26:18.865257,2.79551,0.00446,1.33895,-0.05567,-0.02431,-0.00120,-0.01311,0.07564,-0.00848,0.89243,2.79064,1.33799,1.95349,1.94766,-0.02652,1.78057,2.70945,-0.03962,1.77912,A,112618.70
2.80579,57.68800426,11.98130014,57.68801000,11.98128533,11:26:18.875776,2.80579,0.00434,1.33895,-0.05540,-0.02645,-0.03082,-0.01311,-0.05740,-0.00165,0.91073,2.80123,1.33809,1.96522,1.95940,-0.03158,1.78990,2.70945,-0.03962,1.77912,A,112618.70
2.83111,57.68800460,11.98129989,57.68801117,11.98128483,11:26:18.900864,2.83111,0.01927,1.33895,-0.05556,-0.01240,-0.02242,-0.01020,-0.14000,-0.03672,0.92049,2.81161,1.33817,1.97648,1.97066,-0.04602,1.82786,2.82820,-0.06934,1.90885,A,112618.80
2.84562,57.68800480,11.98129975,57.68801117,11.98128483,11:26:18.915615,2.84562,0.00589,1.43392,-0.05682,-0.01790,0.01514,-0.00089,-0.02135,-0.08662,0.98936,2.84098,1.34775,1.98789,1.98207,-0.05428,1.84996,2.82820,-0.06934,1.90885,A,112618.80
2.85476,57.68800493,11.98129967,57.68801117,11.98128483,11:26:18.924513,2.85476,0.00449,1.43392,-0.05687,-0.02798,0.01514,0.00354,-0.10504,-0.02855,1.09824,2.84987,1.35637,1.99932,1.99349,-0.05918,1.86363,2.82820,-0.06934,1.90885,A,112618.80
2.86501,57.68800505,11.98129958,57.68801117,11.98128483,11:26:18.934755,2.86501,0.00434,1.43392,-0.05637,-0.02309,0.03744,-0.00623,-0.11822,0.01159,1.13789,2.86044,1.36412,2.01059,2.00477,-0.06442,1.87755,2.82820,-0.06934,1.90885,A,112618.80
2.87556,57.68800516,11.98129950,57.68801117,11.98128483,11:26:18.945312,2.87556,0.00444,1.43392,-0.05584,-0.01500,0.03698,-0.00425,0.02342,0.00744,1.08031,2.87072,1.37110,2.02175,2.01593,-0.06927,1.89009,2.82820,-0.06934,1.90885,A,112618.80
2.88605,57.68800527,11.98129943,57.68801117,11.98128483,11:26:18.955816,2.88605,0.00453,1.43392,-0.05618,-0.01545,0.00904,-0.01753,0.11492,-0.04953,0.98478,2.88126,1.37738,2.03280,2.02698,-0.07377,1.90138,2.82820,-0.06934,1.90885,A,112618.80
2.89649,57.68800536,11.98129935,57.68801117,11.98128483,11:26:18.966245,2.89649,0.00456,1.43392,-0.05679,-0.01545,-0.02471,-0.01708,0.00445,-0.06917,1.00400,2.89170,1.38304,2.04374,2.03791,-0.07804,1.91172,2.82820,-0.06934,1.90885,A,112618.80
2.90670,57.68800544,11.98129929,57.68801117,11.98128483,11:26:18.976446,2.90670,0.00444,1.43392,-0.05660,-0.01026,-0.02975,-0.01799,-0.05142,-0.01897,0.95861,2.90185,1.38812,2.05457,2.04875,-0.08172,1.92046,2.82820,-0.06934,1.90885,A,112618.80
2.91780,57.68800552,11.98129922,57.68801117,11.98128483,11:26:18.987803,2.91780,0.00515,1.43392,-0.05715,0.00196,-0.02502,-0.01020,-0.04240,-0.07100,0.91146,2.91318,1.39270,2.06527,2.05948,-0.08579,1.92954,2.82820,-0.06934,1.90885,A,112618.80
2.92749,57.68800558,11.98129918,57.68801117,11.98128483,11:26:18.997241,2.92749,0.00445,1.43392,-0.05751,0.00623,-0.01800,0.00094,-0.16446,-0.06551,0.97063,2.92263,1.39682,2.07590,2.07019,-0.08860,1.93586,2.82820,-0.06934,1.90885,A,112618.80
2.95066,57.68800584,11.98129886,57.68801200,11.98128350,11:26:19.020415,2.95066,0.01722,1.43392,-0.05804,0.01326,0.00736,0.01454,-0.04020,-0.08223,0.97033,2.93322,1.40053,2.08610,2.08052,-0.10725,1.96560,2.94753,-0.14859,2.00151,A,112618.90
2.96531,57.68800600,11.98129866,57.68801200,11.98128350,11:26:19.035058,2.96531,0.00595,1.43392,-0.05721,0.01585,0.00262,0.02293,-0.02629,-0.01434,1.10056,2.96069,1.40387,2.09641,2.09111,-0.11925,1.98327,2.94753,-0.14859,2.00151,A,112618.90
2.97444,57.68800609,11.98129854,57.68801200,11.98128350,11:26:19.044187,2.97444,0.00468,1.43392,-0.05648,0.02013,-0.00150,0.01224,-0.05392,-0.00250,1.10398,2.96953,1.40688,2.10675,2.10147,-0.12656,1.99273,2.94753,-0.14859,2.00151,A,112618.90
2.98450,57.68800618,11.98129841,57.68801200,11.98128350,11:26:19.054252,2.98450,0.00435,1.43392,-0.05619,0.02334,-0.00532,-0.00333,0.03947,-0.03575,1.02205,2.97993,1.40958,2.11696,2.11168,-0.13404,2.00260,2.94753,-0.14859,2.00151,A,112618.90
2.99517,57.68800626,11.98129830,57.68801200,11.98128350,11:26:19.064922,2.99517,0.00478,1.43392,-0.05643,0.01692,-0.01616,-0.01677,-0.00390,-0.06698,1.01968,2.99000,1.41201,2.12707,2.12179,-0.14089,2.01147,2.94753,-0.14859,2.00151,A,112618.90
3.00526,57.68800633,11.98129819,57.68801200,11.98128350,11:26:19.075008,3.00526,0.00449,1.43392,-0.05622,0.01142,-0.01830,-0.02471,-0.02214,-0.03276,0.99070,3.00069,1.41420,2.13708,2.13180,-0.14716,2.01942,2.94753,-0.14859,2.00151,A,112618.90
3.01560,57.68800639,11.98129809,57.68801200,11.98128350,11:26:19.085350,3.01560,0.00443,1.43392,-0.05659,0.01814,-0.01387,-0.02624,-0.08991,-0.07314,0.97551,3.01076,1.41618,2.14699,2.14171,-0.15288,2.02651,2.94753,-0.14859,2.00151,A,112618.90
3.02613,57.68800645,11.98129800,57.68801200,11.98128350,11:26:19.095891,3.02613,0.00457,1.43392,-0.05703,0.01372,-0.00104,-0.02349,-0.06155,-0.07155,0.91787,3.02133,1.41795,2.15679,2.15151,-0.15829,2.03310,2.94753,-0.14859,2.00151,A,112618.90
3.03637,57.68800651,11.98129792,57.68801200,11.98128350,11:26:19.106115,3.03637,0.00441,1.43392,-0.05750,0.01692,-0.00242,-0.01647,0.00354,-0.07369,0.88755,3.03176,1.41955,2.16650,2.16121,-0.16336,2.03915,2.94753,-0.14859,2.00151,A,112618.90
3.04685,57.68800655,11.98129784,57.68801200,11.98128350,11:26:19.116602,3.04685,0.00447,1.43392,-0.05743,0.01738,-0.00868,-0.00776,0.04703,-0.04148,0.88322,3.04199,1.42098,2.17611,2.17082,-0.16783,2.04426,2.94753,-0.14859,2.00151,A,112618.90
3.06949,57.68800683,11.98129754,57.68801317,11.98128267,11:26:19.139373,3.06949,0.01672,1.43392,-0.05700,0.02013,-0.03388,0.00064,0.00268,-0.02348,0.94099,3.05255,1.42228,2.18533,2.18005,-0.18595,2.07501,3.06679,-0.19812,2.13124,A,112619.00
3.08259,57.68800698,11.98129738,57.68801317,11.98128267,11:26:19.152347,3.08259,0.00642,1.43392,-0.05627,0.04044,0.00033,-0.00364,-0.08833,-0.06222,1.09770,3.07765,1.42344,2.19469,2.18941,-0.19517,2.09210,3.06679,-0.19812,2.13124,A,112619.00
3.09131,57.68800708,11.98129730,57.68801317,11.98128267,11:26:19.161063,3.09131,0.00491,1.43392,-0.05615,0.04273,0.01988,0.00049,-0.02751,-0.06045,1.10502,3.08640,1.42449,2.20406,2.19878,-0.20036,2.10289,3.06679,-0.19812,2.13124,A,112619.00
3.10125,57.68800718,11.98129720,57.68801317,11.98128267,11:26:19.171003,3.10125,0.00434,1.43392,-0.05620,0.03433,0.02079,-0.00303,0.07552,-0.06747,1.04182,3.09668,1.42543,2.21330,2.20802,-0.20625,2.11415,3.06679,-0.19812,2.13124,A,112619.00
3.11174,57.68800727,11.98129710,57.68801317,11.98128267,11:26:19.181494,3.11174,0.00444,1.43392,-0.05596,0.02135,-0.00547,-0.00333,0.00805,-0.03703,1.00735,3.10688,1.42628,2.22245,2.21716,-0.21183,2.12449,3.06679,-0.19812,2.13124,A,112619.00
3.12244,57.68800736,11.98129702,57.68801317,11.98128267,11:26:19.192202,3.12244,0.00475,1.43392,-0.05514,0.02929,-0.01234,-0.00211,-0.00238,-0.00396,0.96014,3.11745,1.42704,2.23149,2.22621,-0.21700,2.13383,3.06679,-0.19812,2.13124,A,112619.00
3.13246,57.68800743,11.98129694,57.68801317,11.98128267,11:26:19.202207,3.13246,0.00438,1.43392,-0.05435,0.03601,-0.03143,-0.00578,-0.01934,-0.00903,1.00168,3.12786,1.42773,2.24046,2.23517,-0.22152,2.14191,3.06679,-0.19812,2.13124,A,112619.00
3.14279,57.68800749,11.98129687,57.68801317,11.98128267,11:26:19.212543,3.14279,0.00447,1.43392,-0.05391,0.04502,-0.02930,-0.00654,-0.01208,-0.03855,1.04395,3.13794,1.42835,2.24933,2.24405,-0.22570,2.14917,3.06679,-0.19812,2.13124,A,112619.00
3.15305,57.68800755,11.98129680,57.68801317,11.98128267,11:26:19.222797,3.15305,0.00434,1.43392,-0.05391,0.04762,-0.03892,-0.00639,0.05307,-0.06942,1.00436,3.14848,1.42891,2.25811,2.25283,-0.22971,2.15586,3.06679,-0.19812,2.13124,A,112619.00
3.16353,57.68800761,11.98129674,57.68801317,11.98128267,11:26:19.233283,3.16353,0.00443,1.43392,-0.05423,0.05037,-0.03815,-0.00455,0.04575,-0.08522,0.92927,3.15868,1.42941,2.26680,2.26152,-0.23333,2.16175,3.06679,-0.19812,2.13124,A,112619.00
3.18698,57.68800789,11.98129644,57.68801433,11.98128200,11:26:19.256732,3.18698,0.01692,1.43392,-0.05406,0.04777,-0.03235,-0.00593,-0.08516,-0.05594,0.93745,3.16972,1.42986,2.27510,2.26982,-0.25140,2.19299,3.18407,-0.23775,2.26096,A,112619.10
3.20357,57.68800807,11.98129627,57.68801433,11.98128200,11:26:19.273329,3.20357,0.00705,1.43392,-0.05281,0.03540,0.04034,-0.00471,-0.04770,-0.01806,0.96325,3.19791,1.43026,2.28350,2.27822,-0.26136,2.21327,3.18407,-0.23775,2.26096,A,112619.10
3.21137,57.68800816,11.98129623,57.68801433,11.98128200,11:26:19.281119,3.21137,0.00445,1.43392,-0.05207,0.03494,0.05180,-0.00425,0.02111,-0.00537,1.02785,3.20648,1.43063,2.29201,2.28672,-0.26374,2.22358,3.18407,-0.23775,2.26096,A,112619.10
3.22166,57.68800827,11.98129615,57.68801433,11.98128200,11:26:19.291726,3.22166,0.00435,1.43392,-0.05058,0.03555,0.03698,-0.00410,0.05228,0.04465,1.09892,3.21709,1.43096,2.30036,2.29507,-0.26829,2.23554,3.18407,-0.23775,2.26096,A,112619.10
3.23208,57.68800837,11.98129608,57.68801433,11.98128200,11:26:19.301830,3.23208,0.00438,1.43392,-0.04964,0.04334,0.02339,-0.01326,0.01391,0.00195,1.14924,3.22729,1.43125,2.30862,2.30334,-0.27255,2.24635,3.18407,-0.23775,2.26096,A,112619.10
3.24267,57.68800845,11.98129602,57.68801433,11.98128200,11:26:19.312419,3.24267,0.00446,1.43392,-0.04895,0.04899,0.01469,-0.01524,0.04648,-0.02166,1.09501,3.23781,1.43152,2.31681,2.31152,-0.27637,2.25592,3.18407,-0.23775,2.26096,A,112619.10
3.25296,57.68800853,11.98129596,57.68801433,11.98128200,11:26:19.322704,3.25296,0.00435,1.43392,-0.04886,0.05205,-0.00364,-0.01876,0.06826,-0.06167,1.00717,3.24837,1.43176,2.32491,2.31963,-0.27986,2.26446,3.18407,-0.23775,2.26096,A,112619.10
3.26345,57.68800860,11.98129591,57.68801433,11.98128200,11:26:19.333360,3.26345,0.00445,1.43392,-0.04879,0.05159,-0.01570,-0.01876,0.02190,-0.05691,0.92830,3.25858,1.43198,2.33294,2.32766,-0.28298,2.27201,3.18407,-0.23775,2.26096,A,112619.10
3.27375,57.68800866,11.98129586,57.68801433,11.98128200,11:26:19.343746,3.27375,0.00436,1.43392,-0.04868,0.05144,-0.02288,-0.00684,-0.10089,-0.05490,0.92500,3.26919,1.43217,2.34088,2.33569,-0.28597,2.27885,3.18407,-0.23775,2.26096,A,112619.10
3.28416,57.68800872,11.98129581,57.68801433,11.98128200,11:26:19.353905,3.28416,0.00437,1.43392,-0.04811,0.06457,-0.00501,0.00827,-0.05124,-0.03233,0.89456,3.27955,1.43234,2.34874,2.34374,-0.28878,2.28502,3.18407,-0.23775,2.26096,A,112619.10
3.31864,57.68800915,11.98129528,57.68801617,11.98128083,11:26:19.388393,3.31864,0.02857,1.43392,-0.04775,0.07007,0.00644,0.02034,-0.04538,-0.04929,0.92421,3.28971,1.43250,2.35600,2.35130,-0.31993,2.33306,3.31576,-0.30709,2.46482,A,112619.30
3.32868,57.68800933,11.98129518,57.68801617,11.98128083,11:26:19.398429,3.32868,0.00443,1.43392,-0.04473,0.07266,-0.00288,0.02141,-0.01854,0.00939,1.07610,3.32410,1.43264,2.36374,2.36025,-0.32609,2.35376,3.31576,-0.30709,2.46482,A,112619.30
3.33906,57.68800950,11.98129509,57.68801617,11.98128083,11:26:19.408810,3.33906,0.00457,1.43392,-0.04348,0.07129,0.00201,0.01270,-0.04038,0.01128,1.03035,3.33416,1.43277,2.37142,2.36825,-0.33172,2.37233,3.31576,-0.30709,2.46482,A,112619.30
3.35027,57.68800966,11.98129499,57.68801617,11.98128083,11:26:19.420036,3.35027,0.00539,1.44270,-0.04303,0.06243,0.01927,0.00079,-0.14042,-0.04374,1.07763,3.34539,1.43376,2.37903,2.37616,-0.33764,2.38976,3.31576,-0.30709,2.46482,A,112619.30
3.35969,57.68800978,11.98129492,57.68801617,11.98128083,11:26:19.429438,3.35969,0.00442,1.44270,-0.04275,0.05754,0.03515,0.00262,-0.08808,-0.04044,1.00449,3.35485,1.43466,2.38659,2.38397,-0.34141,2.40382,3.31576,-0.30709,2.46482,A,112619.30
3.37027,57.68800991,11.98129485,57.68801617,11.98128083,11:26:19.440027,3.37027,0.00460,1.44270,-0.04255,0.04701,0.02812,-0.00104,0.07564,-0.03776,0.87584,3.36544,1.43546,2.39407,2.39169,-0.34594,2.41745,3.31576,-0.30709,2.46482,A,112619.30
3.38060,57.68801002,11.98129478,57.68801617,11.98128083,11:26:19.450358,3.38060,0.00454,1.44270,-0.04106,0.04930,0.00766,0.00140,0.04575,0.03745,0.87700,3.37599,1.43619,2.40148,2.39930,-0.35008,2.42967,3.31576,-0.30709,2.46482,A,112619.30
3.39096,57.68801011,11.98129472,57.68801617,11.98128083,11:26:19.460712,3.39096,0.00466,1.44270,-0.03965,0.04915,-0.01601,0.00904,-0.05551,0.03691,0.90896,3.38589,1.43684,2.40882,2.40681,-0.35344,2.44021,3.31576,-0.30709,2.46482,A,112619.30
3.40102,57.68801020,11.98129467,57.68801617,11.98128083,11:26:19.470773,3.40102,0.00433,1.44270,-0.03844,0.06320,0.00965,0.01362,-0.17470,0.01708,1.02083,3.39644,1.43742,2.41610,2.41417,-0.35670,2.44980,3.31576,-0.30709,2.46482,A,112619.30
3.41156,57.68801028,11.98129461,57.68801617,11.98128083,11:26:19.481310,3.41156,0.00448,1.44270,-0.03816,0.06885,0.02996,0.01118,-0.00830,-0.04660,1.01620,3.40670,1.43795,2.42330,2.42141,-0.35987,2.45855,3.31576,-0.30709,2.46482,A,112619.30
3.43441,57.68801053,11.98129428,57.68801700,11.98128000,11:26:19.504164,3.43441,0.01692,1.44270,-0.03892,0.05922,0.01759,0.01408,0.04056,-0.11236,1.01992,3.41724,1.43843,2.43033,2.42844,-0.37987,2.48627,3.43150,-0.35662,2.55748,A,112619.40
3.44751,57.68801067,11.98129414,57.68801700,11.98128000,11:26:19.517274,3.44751,0.00651,1.44270,-0.03684,0.04869,-0.01922,0.01026,-0.15140,0.04307,1.12167,3.44254,1.43885,2.43737,2.43548,-0.38820,2.50261,3.43150,-0.35662,2.55748,A,112619.40
3.45581,57.68801077,11.98129409,57.68801700,11.98128000,11:26:19.525557,3.45581,0.00442,1.44270,-0.03609,0.05938,-0.00150,0.00736,-0.11315,0.00055,1.10746,3.45099,1.43924,2.44438,2.44249,-0.39118,2.51333,3.43150,-0.35662,2.55748,A,112619.40
3.46639,57.68801087,11.98129400,57.68801700,11.98128000,11:26:19.536147,3.46639,0.00460,1.44270,-0.03612,0.05556,-0.00410,0.01087,-0.00958,-0.05630,0.98869,3.46156,1.43959,2.45130,2.44941,-0.39615,2.52482,3.43150,-0.35662,2.55748,A,112619.40
3.47652,57.68801096,11.98129393,57.68801700,11.98128000,11:26:19.546274,3.47652,0.00433,1.44270,-0.03598,0.04120,-0.01448,0.00797,0.09418,-0.03074,0.88450,3.47195,1.43990,2.45815,2.45626,-0.40048,2.53496,3.43150,-0.35662,2.55748,A,112619.40
3.48691,57.68801105,11.98129386,57.68801700,11.98128000,11:26:19.556661,3.48691,0.00448,1.44270,-0.03591,0.03418,-0.03128,0.00995,-0.07771,-0.03239,0.93977,3.48204,1.44018,2.46493,2.46304,-0.40439,2.54399,3.43150,-0.35662,2.55748,A,112619.40
3.49744,57.68801112,11.98129380,57.68801700,11.98128000,11:26:19.567189,3.49744,0.00461,1.44270,-0.03471,0.03219,-0.01372,0.00827,-0.12487,0.03812,0.91335,3.49261,1.44043,2.47165,2.46976,-0.40814,2.55222,3.43150,-0.35662,2.55748,A,112619.40
3.50765,57.68801118,11.98129375,57.68801700,11.98128000,11:26:19.577403,3.50765,0.00442,1.44270,-0.03419,0.03632,-0.00563,0.00675,-0.09138,-0.00403,0.90994,3.50281,1.44066,2.47830,2.47641,-0.41122,2.55929,3.43150,-0.35662,2.55748,A,112619.40
3.51823,57.68801124,11.98129369,57.68801700,11.98128000,11:26:19.587991,3.51823,0.00461,1.44270,-0.03391,0.02975,0.00766,0.00721,-0.04392,-0.01610,0.96837,3.51338,1.44086,2.48488,2.48299,-0.41441,2.56590,3.43150,-0.35662,2.55748,A,112619.40
3.52838,57.68801129,11.98129365,57.68801700,11.98128000,11:26:19.598128,3.52838,0.00436,1.44270,-0.03373,0.02700,0.00904,0.00110,0.00366,-0.02184,1.05176,3.52380,1.44105,2.49140,2.48951,-0.41718,2.57167,3.43150,-0.35662,2.55748,A,112619.40
3.55112,57.68801158,11.98129334,57.68801850,11.98127950,11:26:19.620876,3.55112,0.01681,1.44270,-0.03348,0.01784,-0.00211,-0.00013,0.01104,-0.00976,1.10068,3.53393,1.44121,2.49774,2.49585,-0.43556,2.60332,3.54823,-0.38634,2.72428,A,112619.50
3.56333,57.68801176,11.98129325,57.68801850,11.98127950,11:26:19.633094,3.56333,0.00502,1.44270,-0.03253,0.01921,0.00293,-0.00746,-0.10455,0.02178,1.10190,3.55799,1.44136,2.50412,2.50223,-0.44061,2.62293,3.54823,-0.38634,2.72428,A,112619.50
3.57306,57.68801190,11.98129321,57.68801850,11.98127950,11:26:19.642806,3.57306,0.00435,1.44270,-0.03330,0.02196,0.01194,-0.00746,0.01964,-0.07558,0.95569,3.56848,1.44149,2.51045,2.50856,-0.44340,2.63917,3.54823,-0.38634,2.72428,A,112619.50
3.58356,57.68801204,11.98129316,57.68801850,11.98127950,11:26:19.653311,3.58356,0.00446,1.44270,-0.03402,0.01188,-0.00196,-0.00761,0.03068,-0.06362,0.90756,3.57868,1.44162,2.51671,2.51482,-0.44645,2.65410,3.54823,-0.38634,2.72428,A,112619.50
3.59424,57.68801216,11.98129311,57.68801850,11.98127950,11:26:19.664009,3.59424,0.00491,1.44270,-0.03395,0.00684,-0.00883,-0.00150,0.00634,-0.01214,0.84857,3.58938,1.44172,2.52290,2.52101,-0.44944,2.66764,3.54823,-0.38634,2.72428,A,112619.50
3.60425,57.68801226,11.98129307,57.68801850,11.98127950,11:26:19.673999,3.60425,0.00452,1.44270,-0.03311,0.01326,-0.01616,0.00766,-0.02946,0.02873,0.86998,3.59931,1.44182,2.52904,2.52715,-0.45175,2.67947,3.54823,-0.38634,2.72428,A,112619.50
3.61475,57.68801236,11.98129303,57.68801850,11.98127950,11:26:19.684496,3.61475,0.00449,1.44270,-0.03252,0.02456,-0.00899,0.01041,-0.05893,0.00891,0.95014,3.60985,1.44191,2.53511,2.53322,-0.45405,2.69019,3.54823,-0.38634,2.72428,A,112619.50
3.62500,57.68801245,11.98129299,57.68801850,11.98127950,11:26:19.694745,3.62500,0.00435,1.44270,-0.03228,0.03158,-0.01372,0.01209,-0.01409,-0.01818,0.95392,3.62042,1.44199,2.54113,2.53924,-0.45625,2.69984,3.54823,-0.38634,2.72428,A,112619.50
3.63548,57.68801252,11.98129296,57.68801850,11.98127950,11:26:19.705231,3.63548,0.00444,1.44270,-0.03256,0.02456,-0.02991,0.00873,-0.04941,-0.05106,1.07567,3.63062,1.44206,2.54708,2.54519,-0.45820,2.70843,3.54823,-0.38634,2.72428,A,112619.50
3.64579,57.68801259,11.98129293,57.68801850,11.98127950,11:26:19.715784,3.64579,0.00436,1.44270,-0.03231,0.02227,-0.01845,0.00064,-0.00823,-0.01287,1.15430,3.64121,1.44212,2.55297,2.55108,-0.46012,2.71620,3.54823,-0.38634,2.72428,A,112619.50
3.66851,57.68801280,11.98129259,57.68801917,11.98127867,11:26:19.738259,3.66851,0.01668,1.44270,-0.03203,0.02257,-0.01357,-0.00119,-0.04575,-0.01061,1.18743,3.65160,1.44218,2.55870,2.55681,-0.48031,2.73958,3.66571,-0.43587,2.79841,A,112619.60
3.68110,57.68801293,11.98129247,57.68801917,11.98127867,11:26:19.750861,3.68110,0.00628,1.44270,-0.03160,0.02700,-0.00288,-0.00013,-0.07997,-0.02513,0.95489,3.67585,1.44223,2.56446,2.56257,-0.48742,2.75311,3.66571,-0.43587,2.79841,A,112619.60
3.68980,57.68801301,11.98129243,57.68801917,11.98127867,11:26:19.759769,3.68980,0.00458,1.44270,-0.03155,0.02334,0.00858,0.00430,-0.08442,-0.02007,0.89304,3.68500,1.44228,2.57020,2.56831,-0.48949,2.76236,3.66571,-0.43587,2.79841,A,112619.60
3.70018,57.68801310,11.98129236,57.68801917,11.98127867,11:26:19.769929,3.70018,0.00457,1.44270,-0.03079,0.02517,0.00262,0.00385,-0.05118,0.01763,0.84406,3.69560,1.44232,2.57586,2.57397,-0.49345,2.77199,3.66571,-0.43587,2.79841,A,112619.60
3.71060,57.68801317,11.98129231,57.68801917,11.98127867,11:26:19.780353,3.71060,0.00445,1.44270,-0.02990,0.02547,0.01056,0.01056,-0.03099,0.02751,0.87132,3.70574,1.44236,2.58146,2.57957,-0.49679,2.78043,3.66571,-0.43587,2.79841,A,112619.60
3.72086,57.68801324,11.98129225,57.68801917,11.98127867,11:26:19.790610,3.72086,0.00432,1.44270,-0.02895,0.02685,0.00858,0.01591,-0.06198,0.03355,0.97417,3.71629,1.44240,2.58701,2.58512,-0.49998,2.78807,3.66571,-0.43587,2.79841,A,112619.60
3.73163,57.68801330,11.98129220,57.68801917,11.98127867,11:26:19.801375,3.73163,0.00445,1.44270,-0.02874,0.02593,0.02751,0.01469,-0.06259,-0.01336,1.06231,3.72677,1.44243,2.59251,2.59061,-0.50309,2.79503,3.66571,-0.43587,2.79841,A,112619.60
3.74216,57.68801336,11.98129216,57.68801917,11.98127867,11:26:19.811922,3.74216,0.00459,1.44270,-0.02858,0.02257,0.03805,0.01041,-0.06832,-0.01586,1.13857,3.73733,1.44245,2.59794,2.59605,-0.50573,2.80112,3.66571,-0.43587,2.79841,A,112619.60
3.75233,57.68801341,11.98129212,57.68801917,11.98127867,11:26:19.822079,3.75233,0.00437,1.44270,-0.02860,0.00806,0.03729,0.00049,0.00561,-0.01659,1.11014,3.74775,1.44248,2.60333,2.60144,-0.50803,2.80648,3.66571,-0.43587,2.79841,A,112619.60
3.76268,57.68801345,11.98129209,57.68801917,11.98127867,11:26:19.832438,3.76268,0.00443,1.44270,-0.02882,-0.00110,0.02980,0.00186,0.06179,-0.02409,1.05213,3.75785,1.44250,2.60866,2.60677,-0.51001,2.81119,3.66571,-0.43587,2.79841,A,112619.60
3.78611,57.68801370,11.98129171,57.68802050,11.98127767,11:26:19.855859,3.78611,0.01746,1.44270,-0.02860,-0.00568,-0.00486,-0.00410,0.01940,0.00982,1.00876,3.76841,1.44252,2.61383,2.61194,-0.53257,2.83897,3.78323,-0.49531,2.94667,A,112619.70
3.79697,57.68801384,11.98129161,57.68802050,11.98127767,11:26:19.866735,3.79697,0.00697,1.44270,-0.02897,-0.00431,-0.00868,-0.01082,-0.16000,-0.02641,0.97582,3.79003,1.44254,2.61905,2.61716,-0.53831,2.85529,3.78323,-0.49531,2.94667,A,112619.70
3.80477,57.68801396,11.98129157,57.68802050,11.98127767,11:26:19.874520,3.80477,0.00438,1.44270,-0.02967,-0.01301,0.01942,-0.01005,-0.07838,-0.04276,0.89341,3.80020,1.44256,2.62425,2.62236,-0.54074,2.86831,3.78323,-0.49531,2.94667,A,112619.70
3.81510,57.68801408,11.98129149,57.68802050,11.98127767,11:26:19.884856,3.81510,0.00448,1.44270,-0.03034,-0.01637,0.03148,-0.00516,-0.02653,-0.04087,0.93592,3.81023,1.44257,2.62937,2.62748,-0.54544,2.88143,3.78323,-0.49531,2.94667,A,112619.70
3.82558,57.68801419,11.98129141,57.68802050,11.98127767,11:26:19.895573,3.82558,0.00455,1.44270,-0.03007,-0.02294,0.03698,0.00568,-0.08772,0.02391,1.00272,3.82097,1.44258,2.63444,2.63255,-0.55018,2.89346,3.78323,-0.49531,2.94667,A,112619.70
3.83638,57.68801428,11.98129135,57.68802050,11.98127767,11:26:19.906114,3.83638,0.00496,1.44270,-0.02970,-0.02614,0.02980,0.01438,0.00945,0.03184,0.99741,3.83101,1.44259,2.63946,2.63757,-0.55396,2.90396,3.78323,-0.49531,2.94667,A,112619.70
3.84831,57.68801437,11.98129127,57.68802050,11.98127767,11:26:19.918063,3.84831,0.00633,1.48666,-0.02976,-0.03454,-0.00059,0.01530,-0.00518,0.01311,1.02187,3.84296,1.44700,2.64442,2.64253,-0.55872,2.91409,3.78323,-0.49531,2.94667,A,112619.70
3.85673,57.68801444,11.98129125,57.68802050,11.98127767,11:26:19.926481,3.85673,0.00435,1.48666,-0.02936,-0.02843,-0.01525,0.00919,0.02379,0.03691,1.07256,3.85216,1.45097,2.64936,2.64747,-0.55993,2.92146,3.78323,-0.49531,2.94667,A,112619.70
3.86710,57.68801451,11.98129120,57.68802050,11.98127767,11:26:19.936851,3.86710,0.00448,1.48666,-0.02907,-0.03638,-0.04060,-0.00165,-0.02227,0.03697,1.09788,3.86224,1.45454,2.65423,2.65234,-0.56295,2.92909,3.78323,-0.49531,2.94667,A,112619.70
3.87747,57.68801457,11.98129114,57.68802050,11.98127767,11:26:19.947215,3.87747,0.00446,1.48666,-0.02918,-0.03561,-0.03311,-0.01280,-0.15573,0.00885,1.05048,3.87288,1.45775,2.65905,2.65716,-0.56605,2.93610,3.78323,-0.49531,2.94667,A,112619.70
3.91160,57.68801492,11.98129043,57.68802217,11.98127567,11:26:19.981367,3.91160,0.02820,1.48666,-0.02960,-0.03286,-0.00379,-0.01967,-0.19062,-0.01580,1.02016,3.88298,1.46064,2.66362,2.66173,-0.60828,2.97538,3.90874,-0.61418,3.13199,A,112619.90
3.92427,57.68801512,11.98129021,57.68802217,11.98127567,11:26:19.994030,3.92427,0.00604,1.48666,-0.03045,-0.04600,0.08723,0.02278,0.07302,0.03703,0.86754,3.91916,1.46324,2.66833,2.66644,-0.62144,2.99758,3.90874,-0.61418,3.13199,A,112619.90
3.93297,57.68801528,11.98129009,57.68802217,11.98127567,11:26:20.002718,3.93297,0.00434,1.48666,-0.03004,-0.04554,0.04401,0.03027,0.16726,0.03599,0.81771,3.92840,1.46558,2.67302,2.67113,-0.62876,3.01516,3.90874,-0.61418,3.13199,A,112619.90
3.94348,57.68801543,11.98128995,57.68802217,11.98127567,11:26:20.013230,3.94348,0.00445,1.48666,-0.02977,-0.05149,-0.00333,0.03195,0.04709,0.03770,0.89292,3.93860,1.46769,2.67766,2.67577,-0.63714,3.03185,3.90874,-0.61418,3.13199,A,112619.90
3.95377,57.68801557,11.98128982,57.68802217,11.98127567,11:26:20.023766,3.95377,0.00436,1.48666,-0.03000,-0.04172,-0.02258,0.01331,-0.03105,0.00372,1.04267,3.94920,1.46959,2.68224,2.68035,-0.64484,3.04689,3.90874,-0.61418,3.13199,A,112619.90
3.96417,57.68801569,11.98128970,57.68802217,11.98127567,11:26:20.033914,3.96417,0.00436,1.48666,-0.03081,-0.03897,-0.02945,-0.01158,-0.02544,-0.04307,1.14582,3.95958,1.47129,2.68678,2.68489,-0.65190,3.06043,3.90874,-0.61418,3.13199,A,112619.90
3.97553,57.68801580,11.98128958,57.68802217,11.98127567,11:26:20.045289,3.97553,0.00528,1.48666,-0.03197,-0.03806,-0.03220,-0.02670,0.01434,-0.06936,1.15260,3.97065,1.47283,2.69127,2.68938,-0.65911,3.07298,3.90874,-0.61418,3.13199,A,112619.90
3.98501,57.68801590,11.98128950,57.68802217,11.98127567,11:26:20.054753,3.98501,0.00437,1.48666,-0.03275,-0.03958,-0.03021,-0.03097,-0.00579,-0.04423,1.13314,3.98042,1.47421,2.69573,2.69384,-0.66372,3.08331,3.90874,-0.61418,3.13199,A,112619.90
3.99583,57.68801598,11.98128941,57.68802217,11.98127567,11:26:20.065580,3.99583,0.00479,1.48666,-0.03389,-0.02859,-0.01922,-0.02089,-0.01647,-0.07064,1.02212,3.99098,1.47546,2.70013,2.69824,-0.66920,3.09318,3.90874,-0.61418,3.13199,A,112619.90
4.00625,57.68801606,11.98128933,57.68802217,11.98127567,11:26:20.076014,4.00625,0.00472,1.48666,-0.03500,-0.03317,-0.00914,-0.00562,-0.07180,-0.06130,0.92763,4.00130,1.47658,2.70449,2.70260,-0.67355,3.10174,3.90874,-0.61418,3.13199,A,112619.90
4.02866,57.68801630,11.98128889,57.68802317,11.98127450,11:26:20.098414,4.02866,0.01675,1.48666,-0.03531,-0.02248,0.00766,0.01835,-0.12352,-0.01769,0.86315,4.01170,1.47759,2.70870,2.70681,-0.69986,3.12777,4.02595,-0.68353,3.24319,A,112620.00
4.04146,57.68801645,11.98128870,57.68802317,11.98127450,11:26:20.111220,4.04146,0.00553,1.48666,-0.03450,-0.00354,-0.01357,0.04096,0.03483,0.04166,0.93245,4.03683,1.47849,2.71295,2.71106,-0.71141,3.14544,4.02595,-0.68353,3.24319,A,112620.00
4.05072,57.68801658,11.98128860,57.68802317,11.98127450,11:26:20.120472,4.05072,0.00446,1.48666,-0.03403,-0.00614,-0.02410,0.03363,-0.03459,0.02184,1.10221,4.04587,1.47931,2.71720,2.71531,-0.71727,3.15918,4.02595,-0.68353,3.24319,A,112620.00
4.06102,57.68801670,11.98128848,57.68802317,11.98127450,11:26:20.130763,4.06102,0.00437,1.48666,-0.03420,0.00593,-0.00059,0.01759,-0.07985,-0.03550,1.20438,4.05644,1.48004,2.72139,2.71950,-0.72416,3.17224,4.02595,-0.68353,3.24319,A,112620.00
4.07147,57.68801680,11.98128838,57.68802317,11.98127450,11:26:20.141225,4.07147,0.00443,1.48666,-0.03445,-0.00385,0.00629,0.00522,-0.01842,-0.03331,1.18230,4.06662,1.48071,2.72554,2.72365,-0.73023,3.18389,4.02595,-0.68353,3.24319,A,112620.00
4.08202,57.68801689,11.98128829,57.68802317,11.98127450,11:26:20.151795,4.08202,0.00437,1.48666,-0.03505,-0.01744,0.00415,-0.00990,0.01604,-0.04673,1.10129,4.07722,1.48130,2.72964,2.72775,-0.73591,3.19442,4.02595,-0.68353,3.24319,A,112620.00
4.09271,57.68801698,11.98128819,57.68802317,11.98127450,11:26:20.162464,4.09271,0.00475,1.48666,-0.03526,-0.03271,-0.00440,-0.01204,0.04136,-0.00647,0.97563,4.08777,1.48184,2.73371,2.73182,-0.74131,3.20396,4.02595,-0.68353,3.24319,A,112620.00
4.10271,57.68801705,11.98128813,57.68802317,11.98127450,11:26:20.172465,4.10271,0.00445,1.48666,-0.03523,-0.02370,-0.03052,-0.01051,0.03239,0.00177,0.82191,4.09787,1.48232,2.73774,2.73585,-0.74519,3.21208,4.02595,-0.68353,3.24319,A,112620.00
4.11299,57.68801712,11.98128806,57.68802317,11.98127450,11:26:20.182749,4.11299,0.00434,1.48666,-0.03549,-0.02049,-0.04442,-0.00623,-0.04392,-0.01549,0.81703,4.10843,1.48275,2.74172,2.73983,-0.74940,3.21965,4.02595,-0.68353,3.24319,A,112620.00
4.12375,57.68801718,11.98128800,57.68802317,11.98127450,11:26:20.193508,4.12375,0.00470,1.48666,-0.03551,-0.01500,-0.04258,-0.00104,-0.12041,-0.00610,0.88419,4.11863,1.48314,2.74567,2.74378,-0.75311,3.22638,4.02595,-0.68353,3.24319,A,112620.00
4.14693,57.68801741,11.98128756,57.68802433,11.98127333,11:26:20.216694,4.14693,0.01749,1.48666,-0.03638,-0.00614,-0.01143,0.00018,-0.12895,-0.07046,1.00900,4.12921,1.48349,2.74946,2.74757,-0.77924,3.25202,4.14403,-0.75287,3.37291,A,112620.10
4.15704,57.68801756,11.98128743,57.68802433,11.98127333,11:26:20.226794,4.15704,0.00466,1.48666,-0.03730,-0.00507,0.01148,0.00583,0.03526,-0.07960,1.13637,4.15243,1.48381,2.75333,2.75144,-0.78678,3.26834,4.14403,-0.75287,3.37291,A,112620.10
4.16711,57.68801769,11.98128732,57.68802433,11.98127333,11:26:20.236863,4.16711,0.00450,1.48666,-0.03719,-0.01469,-0.00150,0.00797,0.06277,-0.00030,1.06970,4.16224,1.48410,2.75716,2.75527,-0.79319,3.28283,4.14403,-0.75287,3.37291,A,112620.10
4.17736,57.68801781,11.98128721,57.68802433,11.98127333,11:26:20.247107,4.17736,0.00435,1.48666,-0.03715,-0.01423,-0.02777,0.01148,-0.04953,-0.00525,1.06000,4.17279,1.48435,2.76095,2.75906,-0.79958,3.29608,4.14403,-0.75287,3.37291,A,112620.10
4.18781,57.68801792,11.98128712,57.68802433,11.98127333,11:26:20.257562,4.18781,0.00441,1.48666,-0.03628,-0.01347,-0.03373,0.00308,0.03337,0.04642,0.94099,4.18299,1.48458,2.76471,2.76282,-0.80529,3.30794,4.14403,-0.75287,3.37291,A,112620.10
4.19859,57.68801801,11.98128703,57.68802433,11.98127333,11:26:20.268344,4.19859,0.00478,1.48666,-0.03634,-0.00247,-0.05297,-0.00013,0.01080,-0.01671,0.89176,4.19355,1.48479,2.76842,2.76653,-0.81057,3.31863,4.14403,-0.75287,3.37291,A,112620.10
4.20855,57.68801810,11.98128696,57.68802433,11.98127333,11:26:20.278303,4.20855,0.00436,1.48666,-0.03607,0.00745,-0.04411,-0.00196,-0.03251,-0.00354,0.92580,4.20396,1.48498,2.77210,2.77021,-0.81491,3.32803,4.14403,-0.75287,3.37291,A,112620.10
4.21895,57.68801817,11.98128689,57.68802433,11.98127333,11:26:20.288702,4.21895,0.00452,1.48666,-0.03617,0.01585,-0.01647,-0.00364,-0.12822,-0.03428,1.02523,4.21406,1.48514,2.77574,2.77385,-0.81898,3.33652,4.14403,-0.75287,3.37291,A,112620.10
4.22917,57.68801824,11.98128682,57.68802433,11.98127333,11:26:20.298920,4.22917,0.00435,1.48666,-0.03633,0.01326,0.02400,0.00598,-0.17117,-0.03855,1.07799,4.22460,1.48530,2.77935,2.77746,-0.82285,3.34420,4.14403,-0.75287,3.37291,A,112620.10
4.23965,57.68801830,11.98128676,57.68802433,11.98127333,11:26:20.309401,4.23965,0.00443,1.48666,-0.03646,0.00654,0.05546,0.01591,-0.04551,-0.03050,1.02029,4.23481,1.48543,2.78292,2.78103,-0.82632,3.35106,4.14403,-0.75287,3.37291,A,112620.10
4.26255,57.68801850,11.98128636,57.68802517,11.98127250,11:26:20.332301,4.26255,0.01693,1.48666,-0.03643,-0.00110,0.06783,0.02675,0.05264,-0.01293,0.92921,4.24537,1.48555,2.78634,2.78445,-0.85017,3.37241,4.25967,-0.80240,3.46558,A,112620.20
4.27194,57.68801861,11.98128629,57.68802517,11.98127250,11:26:20.341692,4.27194,0.00447,1.48666,-0.03583,-0.00064,0.03576,0.02034,-0.10736,0.02135,0.87944,4.26711,1.48567,2.78985,2.78796,-0.85455,3.38514,4.25967,-0.80240,3.46558,A,112620.20
4.28868,57.68801874,11.98128606,57.68802517,11.98127250,11:26:20.358441,4.28868,0.00725,1.48666,-0.03637,0.00394,0.07745,0.00033,-0.08217,-0.04642,0.81789,4.28398,1.48576,2.79326,2.79137,-0.86794,3.40005,4.25967,-0.80240,3.46558,A,112620.20
4.29688,57.68801883,11.98128604,57.68802517,11.98127250,11:26:20.366638,4.29688,0.00506,1.48666,-0.03660,0.00196,0.10830,-0.01204,-0.09174,-0.03294,1.00229,4.29197,1.48585,2.79671,2.79482,-0.86936,3.40952,4.25967,-0.80240,3.46558,A,112620.20
4.30669,57.68801891,11.98128599,57.68802517,11.98127250,11:26:20.376443,4.30669,0.00444,1.48666,-0.03580,0.00470,0.11380,-0.01265,0.05179,0.04050,1.19682,4.30186,1.48593,2.80011,2.79822,-0.87237,3.41863,4.25967,-0.80240,3.46558,A,112620.20
4.31698,57.68801899,11.98128593,57.68802517,11.98127250,11:26:20.386735,4.31698,0.00434,1.48666,-0.03558,0.00730,0.07119,0.00827,0.10529,-0.00854,1.30906,4.31242,1.48601,2.80347,2.80158,-0.87605,3.42714,4.25967,-0.80240,3.46558,A,112620.20
4.32768,57.68801906,11.98128587,57.68802517,11.98127250,11:26:20.397425,4.32768,0.00439,1.50138,-0.03529,0.00532,0.00644,0.03072,0.20185,0.00024,1.36524,4.32284,1.48754,2.80679,2.80490,-0.87952,3.43482,4.25967,-0.80240,3.46558,A,112620.20
4.33827,57.68801912,11.98128582,57.68802517,11.98127250,11:26:20.408023,4.33827,0.00459,1.50138,-0.03586,0.00898,-0.06228,0.04233,0.06155,-0.07747,1.30381,4.33344,1.48893,2.81009,2.80820,-0.88256,3.44166,4.25967,-0.80240,3.46558,A,112620.20
4.34847,57.68801917,11.98128577,57.68802517,11.98127250,11:26:20.418216,4.34847,0.00439,1.50138,-0.03683,0.00104,-0.06946,0.03561,0.03751,-0.08449,1.03944,4.34386,1.49017,2.81335,2.81147,-0.88512,3.44771,4.25967,-0.80240,3.46558,A,112620.20
4.36024,57.68801923,11.98128570,57.68802517,11.98127250,11:26:20.430006,4.36024,0.00594,1.50138,-0.03796,0.00852,-0.05892,0.02477,-0.02446,-0.07930,0.79690,4.35560,1.49129,2.81656,2.81472,-0.88941,3.45380,4.25967,-0.80240,3.46558,A,112620.20
4.38204,57.68801943,11.98128534,57.68802633,11.98127167,11:26:20.451807,4.38204,0.01710,1.50138,-0.03820,0.01326,-0.03418,0.01454,-0.19459,-0.03209,0.74762,4.36484,1.49230,2.81967,2.81794,-0.91093,3.47652,4.37916,-0.85193,3.59530,A,112620.30
4.39215,57.68801957,11.98128526,57.68802633,11.98127167,11:26:20.462199,4.39215,0.00446,1.50138,-0.03779,0.01998,0.03607,0.01515,-0.14286,-0.01757,0.87260,4.38734,1.49321,2.82284,2.82176,-0.91574,3.49199,4.37916,-0.85193,3.59530,A,112620.30
4.40267,57.68801970,11.98128519,57.68802633,11.98127167,11:26:20.472424,4.40267,0.00447,1.50138,-0.03694,0.01310,0.02507,0.02614,0.03239,0.03099,1.00802,4.39781,1.49403,2.82599,2.82536,-0.92009,3.50587,4.37916,-0.85193,3.59530,A,112620.30
4.41295,57.68801981,11.98128512,57.68802633,11.98127167,11:26:20.482700,4.41295,0.00435,1.50138,-0.03631,0.01753,0.00155,0.03454,0.09119,0.01671,1.18535,4.40836,1.49476,2.82913,2.82893,-0.92405,3.51835,4.37916,-0.85193,3.59530,A,112620.30
4.42346,57.68801991,11.98128506,57.68802633,11.98127167,11:26:20.493217,4.42346,0.00447,1.50138,-0.03555,0.00868,-0.01067,0.03042,0.07643,0.03562,1.21420,4.41857,1.49542,2.83225,2.83239,-0.92757,3.52951,4.37916,-0.85193,3.59530,A,112620.30
4.43373,57.68802000,11.98128501,57.68802633,11.98127167,11:26:20.503725,4.43373,0.00435,1.50138,-0.03537,0.01540,-0.01601,0.02293,-0.03721,-0.01513,1.14747,4.42915,1.49602,2.83535,2.83574,-0.93082,3.53954,4.37916,-0.85193,3.59530,A,112620.30
4.44415,57.68802008,11.98128495,57.68802633,11.98127167,11:26:20.513897,4.44415,0.00438,1.50138,-0.03502,0.01005,0.00568,0.01637,-0.13841,0.00281,0.98283,4.43936,1.49655,2.83842,2.83897,-0.93395,3.54860,4.37916,-0.85193,3.59530,A,112620.30
4.45560,57.68802016,11.98128489,57.68802633,11.98127167,11:26:20.525847,4.45560,0.00535,1.50138,-0.03569,0.00669,0.01560,0.00843,-0.10224,-0.05301,0.83655,4.45067,1.49704,2.84147,2.84207,-0.93772,3.55701,4.37916,-0.85193,3.59530,A,112620.30
4.46500,57.68802022,11.98128487,57.68802633,11.98127167,11:26:20.534748,4.46500,0.00435,1.50138,-0.03661,0.00196,0.01988,0.00950,-0.04197,-0.05716,0.74261,4.46042,1.49747,2.84449,2.84509,-0.93888,3.56384,4.37916,-0.85193,3.59530,A,112620.30
4.47539,57.68802027,11.98128484,57.68802633,11.98127167,11:26:20.545143,4.47539,0.00451,1.50138,-0.03655,-0.00705,0.00736,0.00491,0.02361,-0.00476,0.74615,4.47052,1.49786,2.84747,2.84808,-0.94084,3.57024,4.37916,-0.85193,3.59530,A,112620.30
4.50951,57.68802068,11.98128410,57.68802900,11.98126983,11:26:20.579409,4.50951,0.02824,1.50138,-0.03661,-0.00553,-0.00410,0.00415,-0.03843,-0.01360,0.92055,4.48106,1.49821,2.85050,2.85110,-0.98462,3.61503,4.50679,-0.96090,3.89182,A,112620.50
4.51997,57.68802096,11.98128395,57.68802900,11.98126983,11:26:20.589715,4.51997,0.00448,1.50138,-0.03691,0.00058,0.04553,0.00278,0.01403,-0.04508,1.22409,4.51516,1.49853,2.85343,2.85403,-0.99334,3.64602,4.50679,-0.96090,3.89182,A,112620.50
4.53053,57.68802121,11.98128383,57.68802900,11.98126983,11:26:20.600290,4.53053,0.00448,1.50138,-0.03757,0.00211,0.02339,0.01026,0.12145,-0.06789,1.11831,4.52565,1.49881,2.85633,2.85693,-1.00099,3.67383,4.50679,-0.96090,3.89182,A,112620.50
4.54079,57.68802143,11.98128371,57.68802900,11.98126983,11:26:20.610540,4.54079,0.00435,1.50138,-0.03679,-0.00339,-0.02471,0.02049,0.14664,0.03514,0.93123,4.53621,1.49907,2.85920,2.85980,-1.00788,3.69882,4.50679,-0.96090,3.89182,A,112620.50
4.55119,57.68802163,11.98128361,57.68802900,11.98126983,11:26:20.620939,4.55119,0.00452,1.50138,-0.03619,0.00700,-0.05511,0.02248,-0.12682,0.01921,0.94788,4.54630,1.49930,2.86204,2.86264,-1.01389,3.72122,4.50679,-0.96090,3.89182,A,112620.50
4.56289,57.68802182,11.98128351,57.68802900,11.98126983,11:26:20.632649,4.56289,0.00599,1.50138,-0.03483,0.01784,-0.03113,0.02477,-0.13640,0.05655,0.89700,4.55718,1.49951,2.86485,2.86546,-1.01994,3.74153,4.50679,-0.96090,3.89182,A,112620.50
4.57169,57.68802197,11.98128346,57.68802900,11.98126983,11:26:20.641440,4.57169,0.00440,1.50138,-0.03542,0.02578,-0.01326,0.01622,-0.09742,-0.05795,0.84149,4.56687,1.49970,2.86763,2.86824,-1.02278,3.75903,4.50679,-0.96090,3.89182,A,112620.50
4.58228,57.68802212,11.98128338,57.68802900,11.98126983,11:26:20.652039,4.58228,0.00460,1.50138,-0.03518,0.01494,0.00568,0.01179,-0.01775,-0.00756,0.91976,4.57745,1.49986,2.87039,2.87099,-1.02764,3.77541,4.50679,-0.96090,3.89182,A,112620.50
4.59234,57.68802225,11.98128331,57.68802900,11.98126983,11:26:20.662092,4.59234,0.00442,1.50138,-0.03542,0.00913,0.01056,0.01102,-0.14122,-0.03764,1.05268,4.58773,1.50002,2.87312,2.87372,-1.03163,3.79001,4.50679,-0.96090,3.89182,A,112620.50
4.60287,57.68802237,11.98128325,57.68802900,11.98126983,11:26:20.672630,4.60287,0.00451,1.50138,-0.03523,0.00425,0.03515,0.00461,-0.16586,-0.00549,1.20634,4.59799,1.50015,2.87582,2.87643,-1.03549,3.80319,4.50679,-0.96090,3.89182,A,112620.50
4.62548,57.68802263,11.98128285,57.68803017,11.98126917,11:26:20.695232,4.62548,0.01672,1.50138,-0.03565,-0.00614,0.05119,-0.00165,-0.00665,-0.04288,1.14894,4.60854,1.50027,2.87853,2.87914,-1.05918,3.83241,4.62278,-1.00052,4.02155,A,112620.60
4.63591,57.68802283,11.98128276,57.68803017,11.98126917,11:26:20.705663,4.63591,0.00447,1.50138,-0.03510,-0.02599,-0.00532,-0.01280,0.10760,0.05703,0.94050,4.63108,1.50038,2.88118,2.88173,-1.06419,3.85425,4.62278,-1.00052,4.02155,A,112620.60
4.64846,57.68802301,11.98128267,57.68803017,11.98126917,11:26:20.718230,4.64846,0.00646,1.50138,-0.03495,-0.00782,-0.05877,-0.01799,0.15030,0.00140,0.69022,4.64239,1.50048,2.88380,2.88429,-1.06989,3.87419,4.62278,-1.00052,4.02155,A,112620.60
4.65745,57.68802316,11.98128263,57.68803017,11.98126917,11:26:20.727205,4.65745,0.00506,1.50138,-0.03631,-0.00965,-0.10428,-0.02319,0.04721,-0.05929,0.60896,4.65286,1.50057,2.88639,2.88681,-1.07230,3.89138,4.62278,-1.00052,4.02155,A,112620.60
4.66711,57.68802330,11.98128258,57.68803017,11.98126917,11:26:20.736859,4.66711,0.00449,1.50138,-0.03706,-0.01423,-0.11879,-0.01662,-0.19239,-0.04612,0.82265,4.66223,1.50065,2.88895,2.88936,-1.07495,3.90696,4.62278,-1.00052,4.02155,A,112620.60
4.67738,57.68802343,11.98128252,57.68803017,11.98126917,11:26:20.747130,4.67738,0.00436,1.50138,-0.03781,-0.01179,-0.06748,-0.01738,-0.45506,-0.07088,1.21579,4.67280,1.50073,2.89149,2.89189,-1.07853,3.92126,4.62278,-1.00052,4.02155,A,112620.60
4.68804,57.68802355,11.98128247,57.68803017,11.98126917,11:26:20.757791,4.68804,0.00463,1.50138,-0.03755,-0.00767,0.04874,-0.00181,-0.41035,0.00915,1.42276,4.68300,1.50079,2.89400,2.89441,-1.08168,3.93408,4.62278,-1.00052,4.02155,A,112620.60
4.69847,57.68802365,11.98128242,57.68803017,11.98126917,11:26:20.768227,4.69847,0.00483,1.50138,-0.03745,0.01219,0.12739,0.00950,0.13115,-0.02361,1.31022,4.69359,1.50085,2.89649,2.89689,-1.08443,3.94557,4.62278,-1.00052,4.02155,A,112620.60
4.70854,57.68802374,11.98128238,57.68803017,11.98126917,11:26:20.778292,4.70854,0.00451,1.50138,-0.03775,0.00287,0.09013,0.02309,0.38656,-0.04136,1.07561,4.70395,1.50090,2.89895,2.89936,-1.08684,3.95586,4.62278,-1.00052,4.02155,A,112620.60
4.71874,57.68802383,11.98128235,57.68803017,11.98126917,11:26:20.788487,4.71874,0.00444,1.50138,-0.03725,0.00150,-0.00120,0.03515,0.12664,0.01580,1.00717,4.71390,1.50095,2.90139,2.90179,-1.08882,3.96505,4.62278,-1.00052,4.02155,A,112620.60
4.74345,57.68802404,11.98128191,57.68803117,11.98126833,11:26:20.813208,4.74345,0.01876,1.50138,-0.03555,0.00440,-0.05327,0.03515,-0.11761,0.08388,0.88737,4.72453,1.50099,2.90383,2.90423,-1.11467,3.98909,4.74042,-1.05005,4.13274,A,112620.70
4.75577,57.68802420,11.98128181,57.68803117,11.98126833,11:26:20.825531,4.75577,0.00575,1.50138,-0.03713,0.02578,-0.02426,-0.00425,0.01043,-0.11560,0.70345,4.75046,1.50103,2.90622,2.90663,-1.12106,4.00657,4.74042,-1.05005,4.13274,A,112620.70
4.76477,57.68802433,11.98128177,57.68803117,11.98126833,11:26:20.834526,4.76477,0.00436,1.50138,-0.03853,0.01616,-0.02044,-0.01921,-0.00604,-0.10486,0.87321,4.76019,1.50107,2.90859,2.90899,-1.12338,4.02144,4.74042,-1.05005,4.13274,A,112620.70
4.77514,57.68802446,11.98128171,57.68803117,11.98126833,11:26:20.844902,4.77514,0.00450,1.50138,-0.03827,0.01769,0.01209,-0.02013,-0.10943,-0.01189,1.04487,4.77026,1.50110,2.91093,2.91133,-1.12687,4.03513,4.74042,-1.05005,4.13274,A,112620.70
4.78541,57.68802457,11.98128165,57.68803117,11.98126833,11:26:20.855158,4.78541,0.00437,1.50138,-0.03760,0.02303,0.05409,-0.00074,-0.18855,0.01257,1.12545,4.78083,1.50113,2.91324,2.91365,-1.13029,4.04750,4.74042,-1.05005,4.13274,A,112620.70
4.79672,57.68802467,11.98128158,57.68803117,11.98126833,11:26:20.866470,4.79672,0.00528,1.50138,-0.03693,0.02563,0.09410,0.01606,-0.13402,0.01165,1.15571,4.79186,1.50115,2.91554,2.91594,-1.13437,4.05883,4.74042,-1.05005,4.13274,A,112620.70
4.80724,57.68802476,11.98128155,57.68803117,11.98126833,11:26:20.876994,4.80724,0.00525,1.55982,-0.03639,0.01601,0.08646,0.03363,0.01635,0.01141,1.14259,4.80159,1.50702,2.91781,2.91822,-1.13597,4.06852,4.74042,-1.05005,4.13274,A,112620.70
4.81674,57.68802483,11.98128153,57.68803117,11.98126833,11:26:20.886492,4.81674,0.00436,1.55982,-0.03595,0.01723,0.04645,0.03882,0.14908,0.00232,1.08226,4.81217,1.51230,2.92006,2.92046,-1.13754,4.07725,4.74042,-1.05005,4.13274,A,112620.70
4.82771,57.68802491,11.98128148,57.68803117,11.98126833,11:26:20.897468,4.82771,0.00511,1.55982,-0.03474,0.00104,-0.02380,0.02996,0.12895,0.06539,0.99296,4.82282,1.51705,2.92229,2.92269,-1.14052,4.08544,4.74042,-1.05005,4.13274,A,112620.70
4.88749,57.68802522,11.98128028,57.68803233,11.98126767,11:26:20.957262,4.88749,0.05449,1.55982,-0.03457,0.00425,-0.05724,0.00980,-0.28871,-0.00848,1.03096,4.84418,1.52133,2.92458,2.92499,-1.21153,4.12007,4.88384,-1.08968,4.26247,A,112620.80
4.89772,57.68802537,11.98128030,57.68803233,11.98126767,11:26:20.967741,4.89772,0.00482,1.55982,-0.03428,-0.02110,0.02492,0.02095,-0.17464,0.07765,1.04920,4.89311,1.52518,2.92677,2.92717,-1.21055,4.13678,4.88384,-1.08968,4.26247,A,112620.80
4.90774,57.68802550,11.98128032,57.68803233,11.98126767,11:26:20.977490,4.90774,0.00444,1.55982,-0.03371,-0.01072,0.02492,0.02232,-0.00006,0.03300,1.04072,4.90289,1.52864,2.92893,2.92933,-1.20908,4.15166,4.88384,-1.08968,4.26247,A,112620.80
4.91827,57.68802563,11.98128033,57.68803233,11.98126767,11:26:20.988032,4.91827,0.00458,1.55982,-0.03393,-0.01897,0.01285,0.01881,-0.00958,-0.01507,1.11392,4.91345,1.53176,2.93106,2.93146,-1.20850,4.16519,4.88384,-1.08968,4.26247,A,112620.80
4.92846,57.68802573,11.98128034,57.68803233,11.98126767,11:26:20.998207,4.92846,0.00437,1.55982,-0.03451,-0.03027,0.00568,0.00537,-0.02220,-0.03447,1.10758,4.92387,1.53456,2.93318,2.93354,-1.20789,4.17732,4.88384,-1.08968,4.26247,A,112620.80
4.93879,57.68802583,11.98128036,57.68803233,11.98126767,11:26:21.008538,4.93879,0.00448,1.55982,-0.03510,-0.04691,-0.00608,-0.01540,-0.03459,-0.02172,1.01827,4.93392,1.53709,2.93528,2.93553,-1.20715,4.18818,4.88384,-1.08968,4.26247,A,112620.80
4.94930,57.68802592,11.98128036,57.68803233,11.98126767,11:26:21.019049,4.94930,0.00455,1.55982,-0.03522,-0.05409,-0.01326,-0.02089,-0.14048,0.01562,0.95983,4.94469,1.53936,2.93735,2.93743,-1.20712,4.19805,4.88384,-1.08968,4.26247,A,112620.80
4.95958,57.68802600,11.98128037,57.68803233,11.98126767,11:26:21.029328,4.95958,0.00443,1.55982,-0.03501,-0.06050,-0.01525,-0.02532,-0.13896,0.03617,0.91854,4.95473,1.54141,2.93939,2.93929,-1.20645,4.20679,4.88384,-1.08968,4.26247,A,112620.80
4.97121,57.68802607,11.98128037,57.68803233,11.98126767,11:26:21.041347,4.97121,0.00568,1.55982,-0.03544,-0.05653,-0.00028,-0.01616,-0.09168,-0.00323,0.85046,4.96530,1.54325,2.94141,2.94110,-1.20629,4.21472,4.88384,-1.08968,4.26247,A,112620.80
4.98029,57.68802613,11.98128040,57.68803233,11.98126767,11:26:21.050033,4.98029,0.00436,1.55982,-0.03616,-0.05944,0.00079,-0.00746,-0.01031,-0.01903,0.85851,4.97571,1.54491,2.94340,2.94291,-1.20449,4.22150,4.88384,-1.08968,4.26247,A,112620.80
5.01456,57.68802646,11.98127972,57.68803450,11.98126633,11:26:21.084326,5.01456,0.02829,1.55982,-0.03727,-0.06157,0.00491,0.00064,-0.06033,-0.04532,0.93592,4.98588,1.54640,2.94532,2.94465,-1.24504,4.25857,5.01168,-1.16893,4.50339,A,112621.00
5.03245,57.68802672,11.98127954,57.68803450,11.98126633,11:26:21.102934,5.03245,0.00874,1.55982,0.00000,-0.06478,-0.11634,0.00155,0.19965,-0.06978,0.76378,5.02516,1.54774,2.94724,2.94594,-1.25565,4.28669,5.01168,-1.16893,4.50339,A,112621.00
5.03995,57.68802693,11.98127954,57.68803450,11.98126633,11:26:21.109705,5.03995,0.00517,1.55982,-0.00159,-0.07074,-0.16277,-0.00883,-0.05667,-0.04386,1.01400,5.03437,1.54895,2.94916,2.94777,-1.25575,4.31010,5.01168,-1.16893,4.50339,A,112621.00
5.04953,57.68802712,11.98127951,57.68803450,11.98126633,11:26:21.119505,5.04953,0.00436,1.55982,-0.00160,-0.05776,-0.12459,-0.00868,-0.44872,0.08345,1.42478,5.04496,1.55003,2.95105,2.94964,-1.25768,4.33151,5.01168,-1.16893,4.50339,A,112621.00
5.05993,57.68802730,11.98127946,57.68803450,11.98126633,11:26:21.129686,5.05993,0.00438,1.55982,-0.00198,-0.03485,-0.00975,-0.01616,-0.38131,0.02916,1.73453,5.05514,1.55101,2.95291,2.95151,-1.26023,4.35092,5.01168,-1.16893,4.50339,A,112621.00
5.07055,57.68802745,11.98127942,57.68803450,11.98126633,11:26:21.140306,5.07055,0.00446,1.55982,-0.00336,-0.02248,0.08707,-0.01112,0.01336,-0.08613,1.47449,5.06570,1.55189,2.95475,2.95335,-1.26279,4.36841,5.01168,-1.16893,4.50339,A,112621.00
5.08089,57.68802759,11.98127938,57.68803450,11.98126633,11:26:21.150639,5.08089,0.00434,1.55982,-0.00672,-0.03974,0.07165,0.00003,0.28158,-0.18617,1.02510,5.07632,1.55269,2.95658,2.95518,-1.26508,4.38414,5.01168,-1.16893,4.50339,A,112621.00
5.09152,57.68802772,11.98127935,57.68803450,11.98126633,11:26:21.161279,5.09152,0.00459,1.55982,-0.00868,-0.06616,-0.00257,0.01622,0.13261,-0.04819,0.66289,5.08666,1.55340,2.95839,2.95698,-1.26716,4.39827,5.01168,-1.16893,4.50339,A,112621.00
5.10203,57.68802784,11.98127932,57.68803450,11.98126633,11:26:21.171803,5.10203,0.00459,1.55982,-0.00677,-0.06799,-0.04274,0.03790,-0.34496,0.16336,0.86980,5.09723,1.55404,2.96018,2.95877,-1.26896,4.41095,5.01168,-1.16893,4.50339,A,112621.00
5.11228,57.68802794,11.98127929,57.68803450,11.98126633,11:26:21.182028,5.11228,0.00445,1.55982,-0.00345,-0.03592,0.00445,0.01958,-0.38290,0.22015,0.83094,5.10767,1.55462,2.96195,2.96054,-1.27080,4.42239,5.01168,-1.16893,4.50339,A,112621.00
5.13528,57.68802816,11.98127882,57.68803550,11.98126483,11:26:21.205043,5.13528,0.01703,1.55982,-0.00357,-0.03057,0.07150,0.00827,-0.36124,0.02818,0.96410,5.11785,1.55514,2.96361,2.96221,-1.29855,4.44692,5.13240,-1.25808,4.61459,A,112621.10
5.14549,57.68802833,11.98127869,57.68803550,11.98126483,11:26:21.215475,5.14549,0.00445,1.55982,-0.00788,-0.07181,0.07150,-0.03128,0.36014,-0.14860,0.90609,5.14088,1.55561,2.96535,2.96390,-1.30602,4.46577,5.13240,-1.25808,4.61459,A,112621.10
5.15585,57.68802848,11.98127858,57.68803550,11.98126483,11:26:21.225605,5.15585,0.00442,1.55982,-0.00866,-0.10754,0.00919,-0.03632,-0.00445,0.03190,1.00473,5.15103,1.55603,2.96707,2.96548,-1.31263,4.48270,5.13240,-1.25808,4.61459,A,112621.10
5.16641,57.68802862,11.98127848,57.68803550,11.98126483,11:26:21.236168,5.16641,0.00442,1.55982,-0.00963,-0.10235,0.00812,-0.03250,-0.27749,0.01891,1.11880,5.16158,1.55641,2.96877,2.96693,-1.31885,4.49797,5.13240,-1.25808,4.61459,A,112621.10
5.17920,57.68802874,11.98127836,57.68803550,11.98126483,11:26:21.248964,5.17920,0.00683,1.55982,-0.01084,-0.08326,0.01072,-0.03326,-0.17897,-0.00781,1.08366,5.17320,1.55675,2.97043,2.96829,-1.32596,4.51196,5.13240,-1.25808,4.61459,A,112621.10
5.18727,57.68802885,11.98127833,57.68803550,11.98126483,11:26:21.257022,5.18727,0.00467,1.55982,-0.01247,-0.07975,0.01423,-0.03708,0.15958,-0.04935,0.95312,5.18238,1.55705,2.97210,2.96967,-1.32736,4.52366,5.13240,-1.25808,4.61459,A,112621.10
5.19774,57.68802895,11.98127825,57.68803550,11.98126483,11:26:21.267736,5.19774,0.00475,1.55982,-0.01338,-0.07333,-0.03021,-0.03097,0.28091,-0.00268,0.94379,5.19315,1.55733,2.97372,2.97102,-1.33236,4.53482,5.13240,-1.25808,4.61459,A,112621.10
5.20779,57.68802904,11.98127819,57.68803550,11.98126483,11:26:21.277535,5.20779,0.00440,1.55982,-0.01524,-0.05669,-0.06167,-0.02593,0.10193,-0.07747,0.94867,5.20296,1.55758,2.97532,2.97244,-1.33593,4.54469,5.13240,-1.25808,4.61459,A,112621.10
5.21836,57.68802912,11.98127812,57.68803550,11.98126483,11:26:21.288115,5.21836,0.00458,1.55982,-0.01769,-0.04126,-0.04991,-0.02609,-0.29414,-0.12950,0.98167,5.21353,1.55780,2.97690,2.97390,-1.33989,4.55369,5.13240,-1.25808,4.61459,A,112621.10
5.22852,57.68802919,11.98127807,57.68803550,11.98126483,11:26:21.298268,5.22852,0.00435,1.55982,-0.02043,-0.04340,0.02797,-0.01219,-0.39388,-0.14841,0.96892,5.22394,1.55801,2.97846,2.97541,-1.34324,4.56173,5.13240,-1.25808,4.61459,A,112621.10
5.25127,57.68802938,11.98127761,57.68803650,11.98126367,11:26:21.321029,5.25127,0.01688,1.55982,-0.02223,-0.04508,0.08402,-0.00318,-0.10718,-0.08632,0.93403,5.23402,1.55819,2.97981,2.97675,-1.37047,4.58297,5.24840,-1.32743,4.72578,A,112621.20
5.26871,57.68802954,11.98127732,57.68803650,11.98126367,11:26:21.338470,5.26871,0.00568,1.55982,-0.02165,-0.03989,-0.03250,0.00568,0.05197,0.12529,1.09135,5.26406,1.55835,2.98123,2.97813,-1.38767,4.60083,5.24840,-1.32743,4.72578,A,112621.20
5.27848,57.68802967,11.98127724,57.68803650,11.98126367,11:26:21.348237,5.27848,0.00506,1.55982,-0.02141,-0.00705,-0.01937,-0.00639,-0.21649,0.02214,1.23372,5.27359,1.55850,2.98275,2.97960,-1.39220,4.61506,5.24840,-1.32743,4.72578,A,112621.20
5.28839,57.68802979,11.98127717,57.68803650,11.98126367,11:26:21.358153,5.28839,0.00458,1.52185,-0.02303,0.00241,0.01194,-0.01479,-0.16720,-0.13310,1.18468,5.28359,1.55483,2.98426,2.98105,-1.39662,4.62792,5.24840,-1.32743,4.72578,A,112621.20
5.29948,57.68802989,11.98127708,57.68803650,11.98126367,11:26:21.369232,5.29948,0.00523,1.52185,-0.02521,-0.01698,0.04263,-0.03815,0.05612,-0.14603,1.05872,5.29446,1.55153,2.98572,2.98245,-1.40218,4.63972,5.24840,-1.32743,4.72578,A,112621.20
5.30900,57.68802999,11.98127702,57.68803650,11.98126367,11:26:21.378753,5.30900,0.00437,1.52185,-0.02685,-0.03485,0.01438,-0.03556,0.13280,-0.09083,0.97002,5.30440,1.54856,2.98719,2.98391,-1.40529,4.65003,5.24840,-1.32743,4.72578,A,112621.20
5.31947,57.68803007,11.98127696,57.68803650,11.98126367,11:26:21.389221,5.31947,0.00444,1.52185,-0.02683,-0.03775,-0.00074,-0.03006,0.11547,0.01476,0.80801,5.31460,1.54589,2.98864,2.98535,-1.40899,4.65943,5.24840,-1.32743,4.72578,A,112621.20
5.32978,57.68803015,11.98127690,57.68803650,11.98126367,11:26:21.399757,5.32978,0.00436,1.52185,-0.02701,-0.01408,-0.01998,-0.02105,-0.10754,-0.00878,0.81423,5.32519,1.54349,2.99007,2.98678,-1.41248,4.66790,5.24840,-1.32743,4.72578,A,112621.20
5.34018,57.68803021,11.98127685,57.68803650,11.98126367,11:26:21.409934,5.34018,0.00437,1.52185,-0.02726,-0.00247,-0.00089,-0.01066,-0.26724,-0.02196,0.95575,5.33558,1.54132,2.99148,2.98820,-1.41572,4.67552,5.24840,-1.32743,4.72578,A,112621.20
5.36300,57.68803045,11.98127641,57.68803800,11.98126267,11:26:21.432751,5.36300,0.01675,1.52185,-0.02778,0.01127,0.05393,-0.01020,-0.14506,-0.05161,1.01534,5.34584,1.53938,2.99269,2.98941,-1.44147,4.70165,5.36012,-1.38686,4.89258,A,112621.30
5.37330,57.68803064,11.98127631,57.68803800,11.98126267,11:26:21.443050,5.37330,0.00441,1.52185,-0.02786,0.01219,0.03179,-0.00715,0.22698,-0.03556,1.09013,5.36870,1.53762,2.99408,2.99080,-1.44758,4.72252,5.36012,-1.38686,4.89258,A,112621.30
5.38532,57.68803081,11.98127618,57.68803800,11.98126267,11:26:21.455088,5.38532,0.00593,1.52185,-0.02753,0.01860,-0.00669,-0.00379,-0.06130,-0.00146,1.12527,5.38069,1.53605,2.99543,2.99215,-1.45540,4.74164,5.36012,-1.38686,4.89258,A,112621.30
5.39436,57.68803096,11.98127614,57.68803800,11.98126267,11:26:21.464118,5.39436,0.00457,1.52185,-0.02759,0.02089,0.00415,-0.01005,-0.16928,-0.02647,1.07000,5.38954,1.53463,2.99682,2.99353,-1.45807,4.75817,5.36012,-1.38686,4.89258,A,112621.30
5.40454,57.68803109,11.98127606,57.68803800,11.98126267,11:26:21.474294,5.40454,0.00436,1.52185,-0.02837,0.03082,0.01331,-0.01066,-0.11688,-0.08125,0.98808,5.39996,1.53335,2.99817,2.99489,-1.46236,4.77331,5.36012,-1.38686,4.89258,A,112621.30
5.41490,57.68803122,11.98127600,57.68803800,11.98126267,11:26:21.484655,5.41490,0.00449,1.52185,-0.02847,0.03616,0.03133,-0.00761,-0.02361,-0.03794,0.94343,5.41003,1.53220,2.99951,2.99623,-1.46604,4.78690,5.36012,-1.38686,4.89258,A,112621.30
5.42515,57.68803133,11.98127594,57.68803800,11.98126267,11:26:21.494893,5.42515,0.00435,1.52185,-0.02808,0.03922,0.02522,0.00201,0.13737,-0.00952,0.85205,5.42057,1.53116,3.00083,2.99755,-1.46961,4.79914,5.36012,-1.38686,4.89258,A,112621.30
5.43562,57.68803143,11.98127589,57.68803800,11.98126267,11:26:21.505373,5.43562,0.00443,1.52185,-0.02763,0.04945,0.00934,0.01240,-0.05649,-0.01110,0.89456,5.43077,1.53023,3.00214,2.99886,-1.47275,4.81014,5.36012,-1.38686,4.89258,A,112621.30
5.44616,57.68803151,11.98127584,57.68803800,11.98126267,11:26:21.515927,5.44616,0.00458,1.52185,-0.02755,0.06136,0.02156,0.02141,-0.11078,-0.04313,0.92824,5.44134,1.52939,3.00344,3.00018,-1.47568,4.82004,5.36012,-1.38686,4.89258,A,112621.30
5.45640,57.68803159,11.98127579,57.68803800,11.98126267,11:26:21.526155,5.45640,0.00438,1.52185,-0.02826,0.06228,0.02675,0.02859,-0.17092,-0.09943,1.00449,5.45182,1.52864,3.00473,3.00158,-1.47830,4.82893,5.36012,-1.38686,4.89258,A,112621.30
5.47909,57.68803174,11.98127541,57.68803850,11.98126200,11:26:21.548841,5.47909,0.01680,1.52185,-0.02749,0.06090,0.03591,0.03378,-0.04831,0.00207,1.07458,5.46189,1.52796,3.00582,3.00293,-1.50141,4.84484,5.47621,-1.42649,4.94817,A,112621.40
5.48977,57.68803185,11.98127533,57.68803850,11.98126200,11:26:21.559776,5.48977,0.00457,1.52185,-0.02609,0.07725,-0.00929,0.03210,0.14506,-0.03385,1.03566,5.48516,1.52735,3.00709,3.00513,-1.50594,4.85686,5.47621,-1.42649,4.94817,A,112621.40
5.50016,57.68803194,11.98127527,57.68803850,11.98126200,11:26:21.569912,5.50016,0.00457,1.52185,-0.02669,0.07190,-0.03479,0.01744,-0.10663,-0.09925,1.05152,5.49535,1.52680,3.00837,3.00692,-1.50963,4.86758,5.47621,-1.42649,4.94817,A,112621.40
5.51059,57.68803203,11.98127522,57.68803850,11.98126200,11:26:21.580347,5.51059,0.00447,1.52185,-0.02703,0.05800,-0.00043,0.00690,-0.22277,-0.06911,1.01437,5.50572,1.52630,3.00966,3.00872,-1.51262,4.87718,5.47621,-1.42649,4.94817,A,112621.40
5.52100,57.68803211,11.98127517,57.68803850,11.98126200,11:26:21.590751,5.52100,0.00450,1.52185,-0.02750,0.05037,0.02400,0.00293,-0.01006,-0.05838,0.79678,5.51641,1.52586,3.01095,3.01052,-1.51568,4.88584,5.47621,-1.42649,4.94817,A,112621.40
5.53133,57.68803218,11.98127513,57.68803850,11.98126200,11:26:21.601083,5.53133,0.00445,1.52185,-0.02702,0.04808,-0.01067,0.01011,0.11017,-0.00470,0.72218,5.52647,1.52546,3.01225,3.01228,-1.51793,4.89354,5.47621,-1.42649,4.94817,A,112621.40
5.54164,57.68803224,11.98127509,57.68803850,11.98126200,11:26:21.611618,5.54164,0.00437,1.52185,-0.02505,0.06075,-0.04976,0.01927,0.06722,0.07302,0.87023,5.53706,1.52509,3.01354,3.01399,-1.52031,4.90050,5.47621,-1.42649,4.94817,A,112621.40
5.55204,57.68803229,11.98127505,57.68803850,11.98126200,11:26:21.621792,5.55204,0.00438,1.52185,-0.02380,0.08488,-0.04915,0.02828,-0.18940,0.02745,1.20835,5.54725,1.52477,3.01483,3.01558,-1.52257,4.90676,5.47621,-1.42649,4.94817,A,112621.40
5.56263,57.68803234,11.98127502,57.68803850,11.98126200,11:26:21.632385,5.56263,0.00445,1.52185,-0.02389,0.10015,-0.01632,0.02965,-0.16165,-0.09961,1.28777,5.55778,1.52448,3.01612,3.01710,-1.52451,4.91237,5.47621,-1.42649,4.94817,A,112621.40
5.57295,57.68803239,11.98127499,57.68803850,11.98126200,11:26:21.642695,5.57295,0.00438,1.52185,-0.02518,0.08060,0.00277,0.02767,-0.06435,-0.17605,1.21402,5.56835,1.52421,3.01741,3.01850,-1.52624,4.91739,5.47621,-1.42649,4.94817,A,112621.40
5.61062,57.68803274,11.98127417,57.68804117,11.98126033,11:26:21.680379,5.61062,0.03167,1.52185,-0.02541,0.06228,0.01178,0.02660,0.07655,-0.06533,1.07494,5.57852,1.52398,3.01882,3.01995,-1.57482,4.95614,5.60771,-1.52555,5.24469,A,112621.60
5.62274,57.68803301,11.98127404,57.68804117,11.98126033,11:26:21.692505,5.62274,0.00663,1.52185,-0.02338,0.06121,-0.04976,0.01530,-0.09754,-0.01690,0.80770,5.61663,1.52376,3.02009,3.02121,-1.58231,4.98651,5.60771,-1.52555,5.24469,A,112621.60
5.63083,57.68803325,11.98127400,57.68804117,11.98126033,11:26:21.700581,5.63083,0.00450,1.52185,-0.02392,0.05984,-0.03602,0.00736,-0.08095,-0.06429,0.86846,5.62595,1.52357,3.02132,3.02245,-1.58476,5.01332,5.60771,-1.52555,5.24469,A,112621.60
5.64115,57.68803347,11.98127391,57.68804117,11.98126033,11:26:21.710893,5.64115,0.00436,1.52185,-0.02327,0.04685,-0.01112,0.00049,-0.05966,0.00805,0.99887,5.63656,1.52340,3.02256,3.02368,-1.59038,5.03783,5.60771,-1.52555,5.24469,A,112621.60
5.65161,57.68803367,11.98127383,57.68804117,11.98126033,11:26:21.721357,5.65161,0.00443,1.52185,-0.02328,0.04151,0.00812,-0.00440,-0.08064,-0.03270,1.10312,5.64677,1.52324,3.02378,3.02491,-1.59529,5.05987,5.60771,-1.52555,5.24469,A,112621.60
5.66215,57.68803385,11.98127375,57.68804117,11.98126033,11:26:21.731907,5.66215,0.00458,1.52185,-0.02359,0.02990,0.01514,-0.00501,-0.07893,-0.05069,1.17822,5.65733,1.52310,3.02499,3.02608,-1.59985,5.07970,5.60771,-1.52555,5.24469,A,112621.60
5.67233,57.68803401,11.98127368,57.68804117,11.98126033,11:26:21.742082,5.67233,0.00438,1.52185,-0.02389,0.01875,0.01621,-0.01326,-0.02580,-0.04166,1.18584,5.66775,1.52298,3.02619,3.02713,-1.60412,5.09756,5.60771,-1.52555,5.24469,A,112621.60
5.68270,57.68803415,11.98127362,57.68804117,11.98126033,11:26:21.752456,5.68270,0.00445,1.52185,-0.02322,0.01036,0.00751,-0.02212,0.04117,0.03922,1.11392,5.67785,1.52287,3.02737,3.02799,-1.60752,5.11357,5.60771,-1.52555,5.24469,A,112621.60
5.69289,57.68803428,11.98127357,57.68804117,11.98126033,11:26:21.762641,5.69289,0.00441,1.52185,-0.02224,0.01265,-0.03770,-0.02364,0.04843,0.05862,1.06841,5.68830,1.52276,3.02853,3.02868,-1.61068,5.12798,5.60771,-1.52555,5.24469,A,112621.60
5.70334,57.68803440,11.98127352,57.68804117,11.98126033,11:26:21.773093,5.70334,0.00446,1.52185,-0.02187,0.02670,-0.05740,-0.02441,-0.00372,0.00500,0.97643,5.69847,1.52267,3.02967,3.02929,-1.61350,5.14093,5.60771,-1.52555,5.24469,A,112621.60
5.72684,57.68803464,11.98127307,57.68804233,11.98125933,11:26:21.796597,5.72684,0.01758,1.52185,-0.02196,0.03632,-0.05480,-0.02044,-0.08991,-0.02818,0.86589,5.70904,1.52259,3.03075,3.02985,-1.63999,5.16759,5.72391,-1.58499,5.37442,A,112621.70
5.73674,57.68803484,11.98127298,57.68804233,11.98125933,11:26:21.806488,5.73674,0.00446,1.52185,-0.02274,0.03662,0.00293,-0.00196,-0.14164,-0.09431,0.85626,5.73212,1.52251,3.03184,3.03007,-1.64543,5.18950,5.72391,-1.58499,5.37442,A,112621.70
5.74688,57.68803501,11.98127290,57.68804233,11.98125933,11:26:21.816637,5.74688,0.00443,1.56974,-0.02341,0.02944,0.03164,0.00843,-0.10132,-0.06033,0.90115,5.74203,1.52724,3.03289,3.03089,-1.65033,5.20922,5.72391,-1.58499,5.37442,A,112621.70
5.75719,57.68803517,11.98127282,57.68804233,11.98125933,11:26:21.826933,5.75719,0.00435,1.56974,-0.02266,0.02349,0.04095,0.01606,-0.05246,0.03001,1.02242,5.75262,1.53149,3.03391,3.03176,-1.65538,5.22703,5.72391,-1.58499,5.37442,A,112621.70
5.76766,57.68803532,11.98127274,57.68804233,11.98125933,11:26:21.837413,5.76766,0.00443,1.56974,-0.02198,0.04059,0.04385,0.00766,-0.07125,0.01848,1.19060,5.76281,1.53531,3.03493,3.03270,-1.65981,5.24303,5.72391,-1.58499,5.37442,A,112621.70
5.77820,57.68803545,11.98127267,57.68804233,11.98125933,11:26:21.847961,5.77820,0.00459,1.56974,-0.02137,0.04487,0.03851,0.00049,0.04282,0.00921,1.26734,5.77338,1.53876,3.03593,3.03368,-1.66396,5.25744,5.72391,-1.58499,5.37442,A,112621.70
5.78913,57.68803556,11.98127261,57.68804233,11.98125933,11:26:21.859816,5.78913,0.00513,1.56974,-0.02078,0.03968,0.00934,-0.00990,0.05106,0.01275,1.21201,5.78386,1.54185,3.03692,3.03467,-1.66767,5.27040,5.72391,-1.58499,5.37442,A,112621.70
5.79907,57.68803567,11.98127257,57.68804233,11.98125933,11:26:21.868821,5.79907,0.00481,1.56974,-0.02043,0.03586,-0.01036,-0.02517,0.00927,-0.00268,1.05011,5.79419,1.54464,3.03790,3.03566,-1.67018,5.28196,5.72391,-1.58499,5.37442,A,112621.70
5.80901,57.68803576,11.98127252,57.68804233,11.98125933,11:26:21.878757,5.80901,0.00436,1.56974,-0.02081,0.04090,-0.00807,-0.02548,-0.09540,-0.04819,0.88639,5.80444,1.54715,3.03887,3.03663,-1.67289,5.29240,5.72391,-1.58499,5.37442,A,112621.70
5.81948,57.68803585,11.98127247,57.68804233,11.98125933,11:26:21.889226,5.81948,0.00444,1.56974,-0.02090,0.04166,0.01682,-0.02929,-0.07576,-0.02696,0.76158,5.81462,1.54941,3.03983,3.03759,-1.67566,5.30182,5.72391,-1.58499,5.37442,A,112621.70
5.84255,57.68803604,11.98127208,57.68804333,11.98125883,11:26:21.912300,5.84255,0.01713,1.56974,-0.02216,0.03555,0.02492,-0.01448,-0.10144,-0.08217,0.73444,5.82535,1.55145,3.04065,3.03841,-1.69891,5.32326,5.83967,-1.61470,5.48562,A,112621.80
5.85912,57.68803620,11.98127189,57.68804333,11.98125883,11:26:21.928878,5.85912,0.00630,1.56974,-0.02032,0.02425,0.00980,0.01820,-0.08064,0.08375,1.12008,5.85420,1.55328,3.04153,3.03928,-1.71049,5.34157,5.83967,-1.61470,5.48562,A,112621.80
5.86771,57.68803634,11.98127190,57.68804333,11.98125883,11:26:21.937459,5.86771,0.00445,1.56974,-0.01946,0.03601,0.01789,0.01026,-0.00293,0.04307,1.18694,5.86286,1.55492,3.04248,3.04024,-1.70993,5.35690,5.83967,-1.61470,5.48562,A,112621.80
5.87830,57.68803647,11.98127186,57.68804333,11.98125883,11:26:21.948065,5.87830,0.00465,1.56974,-0.01952,0.03571,0.00155,0.00201,-0.02910,-0.03623,1.25062,5.87342,1.55640,3.04340,3.04116,-1.71219,5.37097,5.83967,-1.61470,5.48562,A,112621.80
5.88862,57.68803658,11.98127183,57.68804333,11.98125883,11:26:21.958367,5.88862,0.00458,1.56974,-0.01986,0.01982,0.00629,-0.01876,-0.06295,-0.04325,1.21030,5.88382,1.55774,3.04432,3.04205,-1.71398,5.38360,5.83967,-1.61470,5.48562,A,112621.80
5.89916,57.68803668,11.98127180,57.68804333,11.98125883,11:26:21.968917,5.89916,0.00487,1.56974,-0.01972,-0.00492,0.00797,-0.03540,-0.07442,0.01397,1.14637,5.89429,1.55894,3.04522,3.04290,-1.71580,5.39497,5.83967,-1.61470,5.48562,A,112621.80
5.90901,57.68803678,11.98127178,57.68804333,11.98125883,11:26:21.978760,5.90901,0.00433,1.56974,-0.02006,-0.01087,-0.00150,-0.04380,-0.03758,-0.01440,0.92165,5.90445,1.56002,3.04612,3.04373,-1.71691,5.40515,5.83967,-1.61470,5.48562,A,112621.80
5.91951,57.68803686,11.98127176,57.68804333,11.98125883,11:26:21.989258,5.91951,0.00444,1.56974,-0.01999,-0.01851,-0.00929,-0.04105,-0.10352,0.01202,0.78196,5.91466,1.56099,3.04700,3.04456,-1.71842,5.41435,5.83967,-1.61470,5.48562,A,112621.80
5.92980,57.68803693,11.98127173,57.68804333,11.98125883,11:26:21.999784,5.92980,0.00434,1.56974,-0.01941,-0.01270,-0.00104,-0.03418,-0.18574,0.03812,0.82185,5.92523,1.56187,3.04787,3.04538,-1.71987,5.42262,5.83967,-1.61470,5.48562,A,112621.80
5.94021,57.68803700,11.98127171,57.68804333,11.98125883,11:26:22.009958,5.94021,0.00436,1.56974,-0.01966,-0.00782,0.02171,-0.02609,-0.15951,-0.00988,0.83686,5.93563,1.56265,3.04873,3.04619,-1.72137,5.43008,5.83967,-1.61470,5.48562,A,112621.80
5.97299,57.68803720,11.98127104,57.68804450,11.98125767,11:26:22.042746,5.97299,0.02683,1.56974,-0.02056,-0.00629,0.02721,-0.01906,-0.03788,-0.05167,0.92836,5.94804,1.56336,3.04931,3.04669,-1.76105,5.45276,5.97020,-1.68405,5.61534,A,112621.90
5.98708,57.68803737,11.98127089,57.68804450,11.98125767,11:26:22.056846,5.98708,0.00665,1.56974,-0.02097,-0.01393,0.01957,-0.01204,-0.05502,0.00256,1.13515,5.98217,1.56400,3.05011,3.04659,-1.77006,5.47061,5.97020,-1.68405,5.61534,A,112621.90
5.99536,57.68803750,11.98127089,57.68804450,11.98125767,11:26:22.065116,5.99536,0.00470,1.56974,-0.02114,-0.01576,0.00522,-0.01677,-0.02080,-0.00567,1.10483,5.99027,1.56457,3.05096,3.04715,-1.76978,5.48588,5.97020,-1.68405,5.61534,A,112621.90
6.00555,57.68803763,11.98127084,57.68804450,11.98125767,11:26:22.075655,6.00555,0.00450,1.56974,-0.02139,-0.02401,-0.01402,-0.01601,0.01592,-0.00335,1.00443,6.00097,1.56509,3.05175,3.04762,-1.77293,5.49993,5.97020,-1.68405,5.61534,A,112621.90
6.01585,57.68803774,11.98127079,57.68804450,11.98125767,11:26:22.085608,6.01585,0.00441,1.56974,-0.02183,-0.02370,-0.02136,-0.01647,-0.08284,-0.01665,0.96014,6.01103,1.56556,3.05252,3.04816,-1.77557,5.51256,5.97020,-1.68405,5.61534,A,112621.90
6.02643,57.68803784,11.98127075,57.68804450,11.98125767,11:26:22.096187,6.02643,0.00444,1.56974,-0.02211,-0.02507,-0.00700,-0.01662,-0.10193,-0.00500,0.90079,6.02158,1.56598,3.05328,3.04876,-1.77831,5.52395,5.97020,-1.68405,5.61534,A,112621.90
6.03672,57.68803794,11.98127071,57.68804450,11.98125767,11:26:22.106473,6.03672,0.00434,1.56974,-0.02282,-0.02248,0.01346,-0.01921,-0.14707,-0.03276,0.89127,6.03216,1.56635,3.05402,3.04944,-1.78078,5.53420,5.97020,-1.68405,5.61534,A,112621.90
6.04707,57.68803802,11.98127067,57.68804450,11.98125767,11:26:22.116827,6.04707,0.00447,1.56974,-0.02441,-0.02355,0.03072,-0.01952,-0.13030,-0.08656,0.89963,6.04221,1.56669,3.05476,3.05017,-1.78266,5.54338,5.97020,-1.68405,5.61534,A,112621.90
6.05736,57.68803809,11.98127064,57.68804450,11.98125767,11:26:22.127113,6.05736,0.00436,1.56974,-0.02571,-0.02675,0.03943,-0.02212,0.06997,-0.06716,0.89328,6.05278,1.56700,3.05549,3.05089,-1.78468,5.55167,5.97020,-1.68405,5.61534,A,112621.90
6.06781,57.68803816,11.98127061,57.68804450,11.98125767,11:26:22.137554,6.06781,0.00442,1.56974,-0.02666,-0.02569,0.00812,-0.02166,0.01257,-0.05600,1.03999,6.06297,1.56727,3.05621,3.05162,-1.78635,5.55910,5.97020,-1.68405,5.61534,A,112621.90
6.10248,57.68803848,11.98126983,57.68804683,11.98125583,11:26:22.172239,6.10248,0.02870,1.56974,-0.02727,-0.02706,-0.01448,-0.02242,0.02159,-0.03379,1.08525,6.07354,1.56752,3.05639,3.05179,-1.83299,5.59482,6.09955,-1.79302,5.87480,A,112622.10
6.11238,57.68803874,11.98126970,57.68804683,11.98125583,11:26:22.182133,6.11238,0.00446,1.56974,-0.02835,-0.01057,-0.04503,-0.01647,-0.03770,-0.06100,1.05987,6.10777,1.56774,3.05711,3.05251,-1.84031,5.62384,6.09955,-1.79302,5.87480,A,112622.10
6.12269,57.68803898,11.98126959,57.68804683,11.98125583,11:26:22.192445,6.12269,0.00444,1.56974,-0.02924,-0.00644,-0.03342,-0.01204,-0.13170,-0.06405,0.97667,6.11785,1.56794,3.05781,3.05322,-1.84712,5.64996,6.09955,-1.79302,5.87480,A,112622.10
6.13301,57.68803919,11.98126948,57.68804683,11.98125583,11:26:22.202764,6.13301,0.00437,1.56974,-0.02998,-0.00843,-0.01021,-0.00471,-0.08784,-0.04935,0.88865,6.12843,1.56812,3.05851,3.05391,-1.85362,5.67350,6.09955,-1.79302,5.87480,A,112622.10
6.14348,57.68803938,11.98126938,57.68804683,11.98125583,11:26:22.213238,6.14348,0.00444,1.56974,-0.03062,-0.00950,-0.00165,-0.00348,-0.08863,-0.04178,0.84631,6.13863,1.56828,3.05920,3.05461,-1.85932,5.69467,6.09955,-1.79302,5.87480,A,112622.10
6.15380,57.68803955,11.98126930,57.68804683,11.98125583,11:26:22.223785,6.15380,0.00437,1.56974,-0.03149,-0.02110,0.00522,-0.00333,-0.07845,-0.04770,0.84351,6.14922,1.56843,3.05988,3.05529,-1.86461,5.71372,6.09955,-1.79302,5.87480,A,112622.10
6.16417,57.68803971,11.98126921,57.68804683,11.98125583,11:26:22.233915,6.16417,0.00435,1.56974,-0.03134,-0.02859,-0.00288,-0.01479,0.00744,0.01385,0.92104,6.15959,1.56856,3.06056,3.05593,-1.86947,5.73087,6.09955,-1.79302,5.87480,A,112622.10
6.17468,57.68803984,11.98126914,57.68804683,11.98125583,11:26:22.244436,6.17468,0.00444,1.56974,-0.03191,-0.03821,-0.01464,-0.02761,-0.01318,-0.02672,1.01803,6.16985,1.56868,3.06123,3.05648,-1.87367,5.74628,6.09955,-1.79302,5.87480,A,112622.10
