Time,lat_estimated,lon_estimated,latitude,longitude,RealTime,CalculationTime,MeasuredVelocity,FilteredVelocity,Roll,SteeringAngle,RollRate,gy,gz,ax,ay,az,imu_read_timing,v_estimated,yaw_estimated,heading_estimated,x_estimated,y_estimated,GPS_timestamp,x_GPS,y_GPS,theta_GPS,theta_GPS_noUnwrap,status,NMEA timestamp
0.08144,57.67064567,11.99790083,57.67064567,11.99790083,08:54:04.082286,0.08109,0.00000,0.00000,0.00000,0.00000,-0.00264,0.00240,-0.00044,-0.00184,-0.04899,0.98612,0.00001,0.00000,0.96845,0.96845,0.08920,0.12973,0.00000,0.08920,0.12973,0.96845,0.00000,A,085403.90
0.09147,57.67064567,11.99790083,57.67064550,11.99790083,08:54:04.092215,0.00857,0.00000,0.00000,-0.00005,0.00000,-0.00124,0.00042,0.00219,0.00299,-0.05319,0.98736,0.08136,0.00019,0.36995,0.96845,0.05916,-0.07424,0.08144,0.08920,0.11119,-1.57080,0.00000,A,085404.00
0.09893,57.67064567,11.99790083,57.67064550,11.99790083,08:54:04.099666,0.00584,0.00000,0.00000,-0.00008,0.00000,-0.00261,-0.00492,0.00206,0.00296,-0.05478,0.98657,0.09068,0.00033,-0.37121,0.96845,0.05933,-0.09241,0.08144,0.08920,0.11119,-1.57080,0.00000,A,085404.00
0.11032,57.67064567,11.99790083,57.67064550,11.99790083,08:54:04.111053,0.00707,0.00000,0.00000,-0.00010,0.00000,0.00130,0.00196,0.00416,0.00349,-0.05654,0.98737,0.10074,0.00033,-0.37121,0.96845,0.05933,-0.09241,0.09893,0.08920,0.11119,0.00000,0.00000,A,085404.00
0.11940,57.67064567,11.99790083,57.67064550,11.99790083,08:54:04.120140,0.00598,0.00000,0.00000,-0.00008,0.00000,0.00130,-0.00110,0.00279,0.00272,-0.05654,0.98814,0.11109,0.00047,-0.22932,0.96845,0.05933,-0.09246,0.09893,0.08920,0.11119,0.00000,0.00000,A,085404.00
0.12879,57.67064567,11.99790083,57.67064550,11.99790083,08:54:04.129525,0.00521,0.00000,0.00000,-0.00007,0.00000,-0.00080,0.00056,-0.00176,0.00518,-0.05399,0.98650,0.12107,0.00047,-0.22932,0.96845,0.05934,-0.09246,0.09893,0.08920,0.11119,0.00000,0.00000,A,085404.00
0.13917,57.67064567,11.99790083,57.67064550,11.99790083,08:54:04.139907,0.00543,0.00000,0.00000,-0.00007,0.00000,-0.00040,-0.00203,0.00014,0.00560,-0.05417,0.98655,0.13129,0.00047,-0.22932,0.96845,0.05934,-0.09246,0.09893,0.08920,0.11119,0.00000,0.00000,A,085404.00
0.14910,57.67064567,11.99790083,57.67064550,11.99790083,08:54:04.149827,0.00520,0.00000,0.00000,-0.00008,0.00000,-0.00085,0.00346,-0.00132,0.00523,-0.04832,0.98434,0.14138,0.00047,-0.22932,0.96845,0.05935,-0.09246,0.09893,0.08920,0.11119,0.00000,0.00000,A,085404.00
0.15972,57.67064567,11.99790083,57.67064550,11.99790083,08:54:04.160488,0.00565,0.00000,0.00000,-0.00008,0.00000,0.00156,0.00132,-0.00227,0.00626,-0.04927,0.98937,0.15164,0.00047,-0.22932,0.96845,0.05935,-0.09246,0.09893,0.08920,0.11119,0.00000,0.00000,A,085404.00
0.16953,57.67064567,11.99790083,57.67064550,11.99790083,08:54:04.170263,0.00530,0.00000,0.00000,-0.00007,0.00000,-0.00082,0.00150,0.00392,0.00878,-0.04924,0.98388,0.16173,0.00047,-0.22932,0.96845,0.05936,-0.09246,0.09893,0.08920,0.11119,0.00000,0.00000,A,085404.00
0.18014,57.67064567,11.99790083,57.67064550,11.99790083,08:54:04.180880,0.00572,0.00000,0.00000,-0.00007,0.00000,0.00268,0.00040,-0.00398,0.00977,-0.05198,0.98492,0.17202,0.00047,-0.22932,0.96845,0.05936,-0.09247,0.09893,0.08920,0.11119,0.00000,0.00000,A,085404.00
0.18980,57.67064567,11.99790083,57.67064550,11.99790083,08:54:04.190531,0.00521,0.00000,0.00000,-0.00004,0.00000,0.00244,0.00086,-0.00186,0.01258,-0.05216,0.98512,0.18207,0.00047,-0.22932,0.96845,0.05937,-0.09247,0.09893,0.08920,0.11119,0.00000,0.00000,A,085404.00
0.20019,57.67064567,11.99790083,57.67064550,11.99790083,08:54:04.200928,0.00545,0.00000,0.00000,-0.00002,0.00000,-0.00110,0.00115,-0.00595,0.01101,-0.05381,0.98489,0.19231,0.00047,-0.22932,0.96845,0.05937,-0.09247,0.09893,0.08920,0.11119,0.00000,0.00000,A,085404.00
0.21203,57.67064567,11.99790083,57.67064550,11.99790083,08:54:04.212765,0.00714,0.00000,0.00000,-0.00003,0.00000,0.00511,0.00054,-0.00509,0.01363,-0.05198,0.98499,0.20237,0.00047,-0.22932,0.96845,0.05938,-0.09247,0.20019,0.08920,0.11119,0.00000,0.00000,A,085404.10
0.22058,57.67064567,11.99790083,57.67064550,11.99790083,08:54:04.221317,0.00551,0.00000,0.00000,0.00002,0.00000,0.00371,0.00009,-0.00356,0.01257,-0.05197,0.98628,0.21264,0.00047,-0.22932,0.96845,0.05938,-0.09247,0.20019,0.08920,0.11119,0.00000,0.00000,A,085404.10
0.23043,57.67064567,11.99790083,57.67064550,11.99790083,08:54:04.231160,0.00520,0.00000,0.00000,0.00006,0.00000,-0.00098,-0.00036,-0.00285,0.01764,-0.05300,0.98864,0.22271,0.00047,-0.22932,0.96845,0.05939,-0.09247,0.20019,0.08920,0.11119,0.00000,0.00000,A,085404.10
0.24085,57.67064567,11.99790083,57.67064550,11.99790083,08:54:04.241585,0.00545,0.00000,0.00000,0.00005,0.00000,0.00254,-0.00233,0.00140,0.01975,-0.05135,0.98844,0.23296,0.00047,-0.22932,0.96845,0.05939,-0.09247,0.20019,0.08920,0.11119,0.00000,0.00000,A,085404.10
0.25077,57.67064567,11.99790083,57.67064550,11.99790083,08:54:04.251501,0.00521,0.00000,0.00000,0.00007,0.00000,0.00171,0.00422,-0.00226,0.02138,-0.05264,0.98654,0.24306,0.00047,-0.22932,0.96845,0.05940,-0.09247,0.20019,0.08920,0.11119,0.00000,0.00000,A,085404.10
0.26152,57.67064567,11.99790083,57.67064550,11.99790083,08:54:04.262290,0.00580,0.00000,0.00000,0.00009,0.00000,0.00264,0.00133,-0.00092,0.02087,-0.05399,0.98508,0.25330,0.00047,-0.22932,0.96845,0.05940,-0.09247,0.20019,0.08920,0.11119,0.00000,0.00000,A,085404.10
0.27229,57.67064567,11.99790083,57.67064550,11.99790083,08:54:04.273049,0.00639,0.00000,0.00000,0.00011,0.00000,0.00367,0.00224,-0.00050,0.02257,-0.05471,0.98742,0.26368,0.00047,-0.22932,0.96845,0.05940,-0.09248,0.20019,0.08920,0.11119,0.00000,0.00000,A,085404.10
0.28273,57.67064567,11.99790083,57.67064550,11.99790083,08:54:04.283481,0.00662,0.00000,0.00000,0.00015,0.00000,0.00385,0.00163,-0.00078,0.02419,-0.05376,0.98287,0.27400,0.00047,-0.22932,0.96845,0.05941,-0.09248,0.20019,0.08920,0.11119,0.00000,0.00000,A,085404.10
0.29284,57.67064567,11.99790083,57.67064550,11.99790083,08:54:04.293592,0.00653,0.00000,0.00000,0.00018,0.00000,0.00328,0.00361,-0.00254,0.02683,-0.05332,0.98556,0.28432,0.00047,-0.22932,0.96845,0.05941,-0.09248,0.20019,0.08920,0.11119,0.00000,0.00000,A,085404.10
0.30450,57.67064567,11.99790083,57.67064567,11.99790083,08:54:04.305239,0.00800,0.00000,0.00000,0.00021,0.00000,0.00580,-0.00066,-0.00163,0.03037,-0.05309,0.98301,0.29428,0.00047,-0.22932,0.96845,0.05942,-0.09248,0.29284,0.08920,0.12973,1.57080,0.00000,A,085404.20
0.31292,57.67064567,11.99790083,57.67064567,11.99790083,08:54:04.313674,0.00626,0.00000,0.00000,0.00027,0.00000,0.00611,0.00102,-0.00037,0.03055,-0.05441,0.98629,0.30441,0.00068,0.45842,0.96845,0.05933,-0.07400,0.29284,0.08920,0.12973,1.57080,0.00000,A,085404.20
0.32299,57.67064567,11.99790083,57.67064567,11.99790083,08:54:04.323732,0.00612,0.00000,0.00000,0.00032,0.00000,0.00333,0.00315,-0.00300,0.03472,-0.05325,0.98798,0.31475,0.00068,0.45842,0.96845,0.05934,-0.07400,0.29284,0.08920,0.12973,1.57080,0.00000,A,085404.20
0.33316,57.67064567,11.99790083,57.67064567,11.99790083,08:54:04.333927,0.00612,0.00000,0.00000,0.00035,0.00000,0.00162,0.00435,-0.00827,0.03706,-0.05099,0.98738,0.32475,0.00068,0.45842,0.96845,0.05935,-0.07400,0.29284,0.08920,0.12973,1.57080,0.00000,A,085404.20
0.34386,57.67064567,11.99790083,57.67064567,11.99790083,08:54:04.344594,0.00663,0.00000,0.00000,0.00036,0.00000,-0.00032,0.00436,-0.00603,0.03600,-0.05282,0.98696,0.33569,0.00068,0.45842,0.96845,0.05935,-0.07399,0.29284,0.08920,0.12973,1.57080,0.00000,A,085404.20
0.35392,57.67064567,11.99790083,57.67064567,11.99790083,08:54:04.354680,0.00650,0.00000,0.00000,0.00035,0.00000,0.00201,0.00313,-0.00622,0.03561,-0.05185,0.98716,0.34513,0.00068,0.45842,0.96845,0.05936,-0.07399,0.29284,0.08920,0.12973,1.57080,0.00000,A,085404.20
0.36354,57.67064567,11.99790083,57.67064567,11.99790083,08:54:04.364293,0.00591,0.00000,0.00000,0.00036,0.00000,0.00293,0.00254,-0.00350,0.03697,-0.05460,0.98652,0.35537,0.00068,0.45842,0.96845,0.05937,-0.07399,0.29284,0.08920,0.12973,1.57080,0.00000,A,085404.20
0.37453,57.67064567,11.99790083,57.67064567,11.99790083,08:54:04.375289,0.00671,0.00000,0.00000,0.00038,0.00000,0.00742,0.00360,-0.00515,0.04035,-0.05637,0.98433,0.36543,0.00068,0.45842,0.96845,0.05937,-0.07399,0.29284,0.08920,0.12973,1.57080,0.00000,A,085404.20
0.38675,57.67064567,11.99790083,57.67064567,11.99790083,08:54:04.387488,0.00537,0.00000,0.00000,0.00045,0.00000,0.00588,-0.00068,-0.00515,0.04449,-0.05766,0.98352,0.37894,0.00068,0.45842,0.96845,0.05938,-0.07398,0.29284,0.08920,0.12973,1.57080,0.00000,A,085404.20
0.39797,57.67064567,11.99790083,57.67064567,11.99790083,08:54:04.398744,0.00640,0.00000,0.00000,0.00052,0.00000,0.00430,0.00175,-0.00749,0.04628,-0.05511,0.98186,0.38927,0.00068,0.45842,0.96845,0.05939,-0.07398,0.29284,0.08920,0.12973,1.57080,0.00000,A,085404.20
0.41047,57.67064567,11.99790083,57.67064550,11.99790083,08:54:04.411220,0.00874,0.00000,0.00000,0.00055,0.00000,0.00814,0.00270,-0.00199,0.05051,-0.05185,0.98564,0.39993,0.00068,0.45842,0.96845,0.05939,-0.07398,0.39797,0.08920,0.11119,-1.57080,0.00000,A,085404.30
0.41836,57.67064567,11.99790083,57.67064550,11.99790083,08:54:04.419135,0.00656,0.00000,0.00000,0.00062,0.00000,0.00563,0.00025,-0.00288,0.04825,-0.04950,0.98120,0.40957,0.00100,-0.31667,0.96845,0.05933,-0.09242,0.39797,0.08920,0.11119,-1.57080,0.00000,A,085404.30
0.42808,57.67064567,11.99790083,57.67064550,11.99790083,08:54:04.428853,0.00587,0.00000,0.00000,0.00067,0.00000,0.00853,0.00223,-0.00410,0.04720,-0.05013,0.98888,0.41993,0.00100,-0.31667,0.96845,0.05934,-0.09242,0.39797,0.08920,0.11119,-1.57080,0.00000,A,085404.30
0.43849,57.67064567,11.99790083,57.67064550,11.99790083,08:54:04.439257,0.00611,0.00000,0.00000,0.00074,0.00000,0.00559,0.00454,0.00017,0.04848,-0.05385,0.99009,0.43008,0.00100,-0.31667,0.96845,0.05935,-0.09243,0.39797,0.08920,0.11119,-1.57080,0.00000,A,085404.30
0.44866,57.67064567,11.99790083,57.67064550,11.99790083,08:54:04.449426,0.00610,0.00000,0.00000,0.00078,0.00000,0.00927,0.00071,-0.00109,0.04635,-0.05708,0.99103,0.44060,0.00100,-0.31667,0.96845,0.05936,-0.09243,0.39797,0.08920,0.11119,-1.57080,0.00000,A,085404.30
0.45927,57.67064567,11.99790083,57.67064550,11.99790083,08:54:04.460575,0.00653,0.00000,0.00000,0.00085,0.00000,0.00925,0.00010,-0.00232,0.04655,-0.05996,0.98818,0.45083,0.00100,-0.31667,0.96845,0.05937,-0.09243,0.39797,0.08920,0.11119,-1.57080,0.00000,A,085404.30
0.46891,57.67064567,11.99790083,57.67064550,11.99790083,08:54:04.469674,0.00600,0.00000,0.00000,0.00093,0.00000,0.00750,-0.00066,-0.00174,0.04986,-0.05978,0.98763,0.46066,0.00100,-0.31667,0.96845,0.05938,-0.09244,0.39797,0.08920,0.11119,-1.57080,0.00000,A,085404.30
0.47971,57.67064567,11.99790083,57.67064550,11.99790083,08:54:04.480459,0.00659,0.00000,0.00000,0.00099,0.00000,0.01039,-0.00343,-0.00555,0.05187,-0.05608,0.98237,0.47094,0.00100,-0.31667,0.96845,0.05939,-0.09244,0.39797,0.08920,0.11119,-1.57080,0.00000,A,085404.30
0.49291,57.67064567,11.99790083,57.67064550,11.99790083,08:54:04.493670,0.00962,0.00000,0.00000,0.00107,0.00000,0.01169,-0.00115,-0.00757,0.05563,-0.05357,0.98328,0.48081,0.00100,-0.31667,0.96845,0.05940,-0.09244,0.39797,0.08920,0.11119,-1.57080,0.00000,A,085404.30
0.50292,57.67064567,11.99790083,57.67064550,11.99790083,08:54:04.503666,0.00874,0.00000,0.00000,0.00116,0.00000,0.01269,0.00255,-0.00148,0.05681,-0.05365,0.98096,0.49212,0.00100,-0.31667,0.96845,0.05941,-0.09245,0.49291,0.08920,0.11119,0.00000,0.00000,A,085404.40
0.51038,57.67064567,11.99790083,57.67064550,11.99790083,08:54:04.511124,0.00601,0.00000,0.00000,0.00129,0.00000,0.01224,-0.00037,-0.00428,0.05853,-0.05352,0.98096,0.50185,0.00173,-0.19561,0.96845,0.05933,-0.09246,0.49291,0.08920,0.11119,0.00000,0.00000,A,085404.40
0.52132,57.67064567,11.99790083,57.67064550,11.99790083,08:54:04.522070,0.00678,0.00000,0.00000,0.00138,0.00000,0.01331,0.00237,-0.00694,0.05821,-0.05235,0.98381,0.51237,0.00173,-0.19561,0.96845,0.05935,-0.09246,0.49291,0.08920,0.11119,0.00000,0.00000,A,085404.40
0.53063,57.67064567,11.99790083,57.67064550,11.99790083,08:54:04.531384,0.00592,0.00000,0.00000,0.00148,0.00000,0.02062,0.00132,-0.00227,0.05504,-0.05124,0.98744,0.52229,0.00173,-0.19561,0.96845,0.05937,-0.09247,0.49291,0.08920,0.11119,0.00000,0.00000,A,085404.40
0.54093,57.67064567,11.99790083,57.67064550,11.99790083,08:54:04.541671,0.00603,0.00000,0.00000,0.00165,0.00000,0.01421,0.00393,0.00007,0.05252,-0.04972,0.98524,0.53290,0.00173,-0.19561,0.96845,0.05939,-0.09247,0.49291,0.08920,0.11119,0.00000,0.00000,A,085404.40
0.55319,57.67064567,11.99790083,57.67064550,11.99790083,08:54:04.553941,0.00810,0.00000,0.00000,0.00176,0.00000,0.01699,0.00438,-0.00008,0.05294,-0.04946,0.98971,0.54273,0.00173,-0.19561,0.96845,0.05940,-0.09247,0.49291,0.08920,0.11119,0.00000,0.00000,A,085404.40
0.56333,57.67064567,11.99790083,57.67064550,11.99790083,08:54:04.564067,0.00796,0.00000,0.00000,0.00192,0.00000,0.01366,0.00391,-0.00322,0.05018,-0.05159,0.99076,0.55313,0.00173,-0.19561,0.96845,0.05942,-0.09248,0.49291,0.08920,0.11119,0.00000,0.00000,A,085404.40
0.57192,57.67064567,11.99790083,57.67064550,11.99790083,08:54:04.572682,0.00629,0.00000,0.00000,0.00202,0.00000,0.01555,-0.00250,-0.00359,0.04909,-0.05183,0.99008,0.56338,0.00173,-0.19561,0.96845,0.05944,-0.09248,0.49291,0.08920,0.11119,0.00000,0.00000,A,085404.40
0.58294,57.67064567,11.99790083,57.67064550,11.99790083,08:54:04.583678,0.00711,0.00000,0.00000,0.00211,0.00000,0.01395,-0.00160,-0.00578,0.05286,-0.05007,0.98878,0.57368,0.00173,-0.19561,0.96845,0.05945,-0.09248,0.49291,0.08920,0.11119,0.00000,0.00000,A,085404.40
0.59214,57.67064567,11.99790083,57.67064550,11.99790083,08:54:04.592895,0.00613,0.00000,0.00000,0.00221,0.00000,0.01396,-0.00297,-0.00592,0.05217,-0.04813,0.98728,0.58381,0.00173,-0.19561,0.96845,0.05947,-0.09249,0.49291,0.08920,0.11119,0.00000,0.00000,A,085404.40
0.60446,57.67064567,11.99790083,57.67064550,11.99790100,08:54:04.605206,0.00825,0.00000,0.00000,0.00231,0.00000,0.01478,-0.00145,-0.00768,0.05756,-0.04660,0.98684,0.59434,0.00173,-0.19561,0.96845,0.05949,-0.09249,0.59214,0.09911,0.11119,0.00000,0.00000,A,085404.50
0.61286,57.67064567,11.99790083,57.67064550,11.99790100,08:54:04.613618,0.00647,0.00000,0.00000,0.00241,0.00000,0.01525,-0.00359,-0.00639,0.06101,-0.04808,0.98349,0.60419,0.00287,-0.12080,0.96845,0.06920,-0.09246,0.59214,0.09911,0.11119,0.00000,0.00000,A,085404.50
0.62327,57.67064567,11.99790083,57.67064550,11.99790100,08:54:04.624006,0.00648,0.00000,0.00000,0.00252,0.00000,0.01511,-0.00115,-0.00795,0.05743,-0.04968,0.98033,0.61530,0.00287,-0.12080,0.96845,0.06923,-0.09246,0.59214,0.09911,0.11119,0.00000,0.00000,A,085404.50
0.63345,57.67064567,11.99790083,57.67064550,11.99790100,08:54:04.634213,0.00647,0.00000,0.00000,0.00262,0.00000,0.01634,0.00236,-0.00798,0.05773,-0.05127,0.98099,0.62471,0.00287,-0.12080,0.96845,0.06926,-0.09247,0.59214,0.09911,0.11119,0.00000,0.00000,A,085404.50
0.64357,57.67064567,11.99790083,57.67064550,11.99790100,08:54:04.644311,0.00640,0.00000,0.00000,0.00272,0.00000,0.01419,0.00052,-0.00929,0.04767,-0.05731,0.97933,0.63562,0.00287,-0.12080,0.96845,0.06929,-0.09247,0.59214,0.09911,0.11119,0.00000,0.00000,A,085404.50
0.65367,57.67064567,11.99790083,57.67064550,11.99790100,08:54:04.654418,0.00632,0.00000,0.00000,0.00282,0.00000,0.01530,0.00266,-0.00964,0.04718,-0.05973,0.98530,0.64497,0.00287,-0.12080,0.96845,0.06932,-0.09247,0.59214,0.09911,0.11119,0.00000,0.00000,A,085404.50
0.66363,57.67064567,11.99790083,57.67064550,11.99790100,08:54:04.664414,0.00600,0.00000,0.00000,0.00291,0.00000,0.02036,0.00052,-0.00952,0.05004,-0.06178,0.98987,0.65527,0.00287,-0.12080,0.96845,0.06935,-0.09248,0.59214,0.09911,0.11119,0.00000,0.00000,A,085404.50
0.67408,57.67064567,11.99790083,57.67064550,11.99790100,08:54:04.674857,0.00637,0.00000,0.00000,0.00305,0.00000,0.01989,-0.00191,-0.00803,0.05127,-0.06413,0.99646,0.66543,0.00287,-0.12080,0.96845,0.06938,-0.09248,0.59214,0.09911,0.11119,0.00000,0.00000,A,085404.50
0.68430,57.67064567,11.99790083,57.67064550,11.99790100,08:54:04.685039,0.00639,0.00000,0.00000,0.00319,0.00000,0.02333,-0.00605,-0.01131,0.05275,-0.06786,0.99309,0.67598,0.00287,-0.12080,0.96845,0.06941,-0.09248,0.59214,0.09911,0.11119,0.00000,0.00000,A,085404.50
0.69432,57.67064567,11.99790083,57.67064550,11.99790100,08:54:04.695088,0.00624,0.00000,0.00000,0.00337,0.00000,0.02631,-0.00544,-0.01051,0.04805,-0.06585,0.99292,0.68587,0.00287,-0.12080,0.96845,0.06944,-0.09249,0.59214,0.09911,0.11119,0.00000,0.00000,A,085404.50
0.70660,57.67064567,11.99790083,57.67064550,11.99790133,08:54:04.707334,0.00833,0.00000,0.00000,0.00356,0.00000,0.03301,-0.00346,-0.01131,0.04977,-0.06491,0.98525,0.69683,0.00287,-0.12080,0.96845,0.06947,-0.09249,0.69432,0.11893,0.11119,0.00000,0.00000,A,085404.60
0.71519,57.67064567,11.99790083,57.67064550,11.99790133,08:54:04.715946,0.00672,0.00000,0.00000,0.00383,0.00000,0.02974,-0.00344,-0.00814,0.05329,-0.06685,0.98774,0.70619,0.00480,-0.07457,0.96845,0.08896,-0.09246,0.69432,0.11893,0.11119,0.00000,0.00000,A,085404.60
0.72503,57.67064567,11.99790083,57.67064550,11.99790133,08:54:04.725765,0.00637,0.00000,0.00000,0.00405,0.00000,0.03510,-0.00130,-0.00801,0.05214,-0.06596,0.98215,0.71719,0.00480,-0.07457,0.96845,0.08901,-0.09246,0.69432,0.11893,0.11119,0.00000,0.00000,A,085404.60
0.73500,57.67064567,11.99790083,57.67064550,11.99790133,08:54:04.735762,0.00615,0.00000,0.00000,0.00432,0.00000,0.03477,-0.00071,-0.01189,0.05485,-0.06982,0.97995,0.72656,0.00480,-0.07457,0.96845,0.08906,-0.09247,0.69432,0.11893,0.11119,0.00000,0.00000,A,085404.60
0.74492,57.67064567,11.99790083,57.67064550,11.99790133,08:54:04.745663,0.00586,0.00000,0.00000,0.00456,0.00000,0.03529,-0.00711,-0.00965,0.05044,-0.07062,0.97823,0.73682,0.00480,-0.07457,0.96845,0.08911,-0.09247,0.69432,0.11893,0.11119,0.00000,0.00000,A,085404.60
0.75539,57.67064567,11.99790083,57.67064550,11.99790133,08:54:04.756157,0.00616,0.00000,0.00000,0.00482,0.00000,0.03984,-0.00606,-0.01329,0.04630,-0.07660,0.97742,0.74707,0.00480,-0.07457,0.96845,0.08916,-0.09247,0.69432,0.11893,0.11119,0.00000,0.00000,A,085404.60
0.76530,57.67064567,11.99790083,57.67064550,11.99790133,08:54:04.766045,0.00586,0.00000,0.00000,0.00513,0.00000,0.04158,-0.00103,-0.01512,0.04151,-0.07362,0.97577,0.75729,0.00480,-0.07457,0.96845,0.08920,-0.09248,0.69432,0.11893,0.11119,0.00000,0.00000,A,085404.60
0.77620,57.67064567,11.99790083,57.67064550,11.99790133,08:54:04.776960,0.00658,0.00000,0.00000,0.00544,0.00000,0.04157,-0.00485,-0.01495,0.04455,-0.07042,0.98144,0.76777,0.00480,-0.07457,0.96845,0.08925,-0.09248,0.69432,0.11893,0.11119,0.00000,0.00000,A,085404.60
0.78638,57.67064567,11.99790083,57.67064550,11.99790133,08:54:04.787116,0.00657,0.00000,0.00000,0.00576,0.00000,0.04805,-0.00180,-0.01654,0.05000,-0.06867,0.98922,0.77800,0.00480,-0.07457,0.96845,0.08930,-0.09248,0.69432,0.11893,0.11119,0.00000,0.00000,A,085404.60
0.79596,57.67064567,11.99790083,57.67064550,11.99790133,08:54:04.796712,0.00599,0.00000,0.00000,0.00614,0.00000,0.04804,-0.00775,-0.01513,0.05532,-0.06817,0.99209,0.78775,0.00480,-0.07457,0.96845,0.08935,-0.09249,0.69432,0.11893,0.11119,0.00000,0.00000,A,085404.60
0.80792,57.67064567,11.99790083,57.67064533,11.99790167,08:54:04.808664,0.00775,0.00000,0.00000,0.00645,0.00000,0.05036,-0.00349,-0.01796,0.05380,-0.06422,0.98975,0.79800,0.00480,-0.07457,0.96845,0.08940,-0.09249,0.79596,0.13875,0.09266,-0.75179,0.00000,A,085404.70
0.81674,57.67064567,11.99790083,57.67064533,11.99790167,08:54:04.817492,0.00639,0.00000,0.00000,0.00683,0.00000,0.05539,-0.00315,-0.01079,0.05108,-0.06136,0.98882,0.80815,0.00705,-0.33318,0.96845,0.10874,-0.11091,0.79596,0.13875,0.09266,-0.75179,0.00000,A,085404.70
0.82694,57.67064567,11.99790083,57.67064533,11.99790167,08:54:04.827676,0.00641,0.00000,0.00000,0.00727,0.00000,0.05868,-0.00208,-0.01135,0.04619,-0.05642,0.98702,0.81912,0.00705,-0.33318,0.96845,0.10881,-0.11094,0.79596,0.13875,0.09266,-0.75179,0.00000,A,085404.70
0.83683,57.67064567,11.99790083,57.67064533,11.99790167,08:54:04.837591,0.00611,0.00000,0.00000,0.00772,0.00000,0.05719,-0.00391,-0.01043,0.04720,-0.05598,0.99001,0.82855,0.00705,-0.33318,0.96845,0.10888,-0.11096,0.79596,0.13875,0.09266,-0.75179,0.00000,A,085404.70
0.84717,57.67064567,11.99790083,57.67064533,11.99790167,08:54:04.847906,0.00578,0.00000,0.00000,0.00811,0.00000,0.05430,-0.00511,-0.00660,0.04871,-0.05237,0.99244,0.83936,0.00705,-0.33318,0.96845,0.10895,-0.11098,0.79596,0.13875,0.09266,-0.75179,0.00000,A,085404.70
0.85785,57.67064567,11.99790083,57.67064533,11.99790167,08:54:04.858607,0.00628,0.00000,0.00000,0.00851,0.00000,0.05968,-0.00817,-0.00659,0.05210,-0.05264,0.98736,0.84927,0.00705,-0.33318,0.96845,0.10902,-0.11101,0.79596,0.13875,0.09266,-0.75179,0.00000,A,085404.70
0.86754,57.67064567,11.99790083,57.67064533,11.99790167,08:54:04.868278,0.00579,0.00000,0.00000,0.00894,0.00000,0.06237,-0.00757,-0.00998,0.05312,-0.04863,0.98426,0.85973,0.00705,-0.33318,0.96845,0.10908,-0.11103,0.79596,0.13875,0.09266,-0.75179,0.00000,A,085404.70
0.88324,57.67064567,11.99790083,57.67064533,11.99790167,08:54:04.884004,0.01128,0.00000,0.00000,0.00938,0.00000,0.06220,-0.00727,-0.00985,0.05388,-0.04390,0.97806,0.87441,0.00705,-0.33318,0.96845,0.10915,-0.11106,0.79596,0.13875,0.09266,-0.75179,0.00000,A,085404.70
0.89009,57.67064567,11.99790083,57.67064533,11.99790167,08:54:04.890848,0.00554,0.00000,0.00000,0.01014,0.00000,0.06377,-0.00133,-0.01293,0.05196,-0.03828,0.98034,0.88215,0.00705,-0.33318,0.96845,0.10926,-0.11109,0.79596,0.13875,0.09266,-0.75179,0.00000,A,085404.70
0.90360,57.67064567,11.99790083,57.67064533,11.99790200,08:54:04.904365,0.00886,0.00000,0.00000,0.01037,0.00000,0.06760,0.00157,-0.01420,0.05540,-0.03013,0.98793,0.89245,0.00705,-0.33318,0.96845,0.10930,-0.11111,0.89009,0.15857,0.09266,0.00000,0.00000,A,085404.80
0.91082,57.67064567,11.99790083,57.67064533,11.99790200,08:54:04.911579,0.00599,0.00000,0.00000,0.01087,0.00000,0.06118,-0.00056,-0.01307,0.05238,-0.02718,0.99292,0.90245,0.00986,-0.20581,0.96845,0.12852,-0.11095,0.89009,0.15857,0.09266,0.00000,0.00000,A,085404.80
0.92166,57.67064567,11.99790083,57.67064533,11.99790200,08:54:04.922416,0.00664,0.00000,0.00000,0.01125,0.00000,0.05889,0.00019,-0.01456,0.04681,-0.02482,0.98786,0.91271,0.00986,-0.20581,0.96845,0.12862,-0.11097,0.89009,0.15857,0.09266,0.00000,0.00000,A,085404.80
0.93064,57.67064567,11.99790083,57.67064533,11.99790200,08:54:04.931485,0.00544,0.00000,0.00000,0.01161,0.00000,0.05835,-0.00288,-0.01799,0.04304,-0.02380,0.98479,0.92273,0.00986,-0.20581,0.96845,0.12871,-0.11099,0.89009,0.15857,0.09266,0.00000,0.00000,A,085404.80
0.94176,57.67064567,11.99790083,57.67064533,11.99790200,08:54:04.942501,0.00638,0.00000,0.00000,0.01194,0.00000,0.05909,-0.00150,-0.01637,0.04290,-0.02443,0.98116,0.93317,0.00986,-0.20581,0.96845,0.12881,-0.11101,0.89009,0.15857,0.09266,0.00000,0.00000,A,085404.80
0.95181,57.67064567,11.99790083,57.67064533,11.99790200,08:54:04.952569,0.00625,0.00000,0.00000,0.01232,0.00000,0.05942,-0.00044,-0.01926,0.04847,-0.02301,0.98405,0.94337,0.00986,-0.20581,0.96845,0.12891,-0.11103,0.89009,0.15857,0.09266,0.00000,0.00000,A,085404.80
0.96226,57.67064567,11.99790083,57.67064533,11.99790200,08:54:04.963031,0.00651,0.00000,0.00000,0.01266,0.00000,0.05206,0.00170,-0.01810,0.05270,-0.01715,0.98517,0.95354,0.00986,-0.20581,0.96845,0.12901,-0.11105,0.89009,0.15857,0.09266,0.00000,0.00000,A,085404.80
0.97229,57.67064567,11.99790083,57.67064533,11.99790200,08:54:04.973065,0.00636,0.00000,0.00000,0.01293,0.00000,0.05452,-0.00180,-0.01673,0.04543,-0.01421,0.97446,0.96368,0.00986,-0.20581,0.96845,0.12911,-0.11107,0.89009,0.15857,0.09266,0.00000,0.00000,A,085404.80
0.98224,57.67064567,11.99790083,57.67064533,11.99790200,08:54:04.983003,0.00613,0.00000,0.00000,0.01321,0.00000,0.04928,-0.00043,-0.01656,0.04474,-0.01140,0.97455,0.97381,0.00986,-0.20581,0.96845,0.12920,-0.11109,0.89009,0.15857,0.09266,0.00000,0.00000,A,085404.80
0.99231,57.67064567,11.99790083,57.67064533,11.99790200,08:54:04.993043,0.00601,0.00000,0.00000,0.01344,0.00000,0.04919,0.00324,-0.01582,0.05028,-0.01216,0.98260,0.98425,0.00986,-0.20581,0.96845,0.12930,-0.11111,0.89009,0.15857,0.09266,0.00000,0.00000,A,085404.80
1.00500,57.67064567,11.99790083,57.67064517,11.99790250,08:54:05.005788,0.00851,0.00000,0.00000,0.01367,0.00000,0.05189,0.00264,-0.01382,0.05325,-0.01635,0.98676,0.99421,0.00986,-0.20581,0.96845,0.12940,-0.11114,0.99231,0.18831,0.07413,-0.55738,0.00000,A,085404.90
1.01301,57.67064567,11.99790083,57.67064517,11.99790250,08:54:05.013750,0.00633,0.00000,0.00000,0.01391,0.00000,0.05089,0.00675,-0.01595,0.05114,-0.01660,0.98536,1.00445,0.01323,-0.34001,0.96845,0.15817,-0.12941,0.99231,0.18831,0.07413,-0.55738,0.00000,A,085404.90
1.02311,57.67064567,11.99790083,57.67064517,11.99790250,08:54:05.023873,0.00625,0.00000,0.00000,0.01416,0.00000,0.04349,0.00707,-0.01294,0.05033,-0.01288,0.98495,1.01457,0.01323,-0.34001,0.96845,0.15830,-0.12945,0.99231,0.18831,0.07413,-0.55738,0.00000,A,085404.90
1.03295,57.67064567,11.99790083,57.67064517,11.99790250,08:54:05.033692,0.00590,0.00000,0.00000,0.01430,0.00000,0.04083,0.00522,-0.01662,0.05207,-0.01207,0.98802,1.02459,0.01323,-0.34001,0.96845,0.15843,-0.12950,0.99231,0.18831,0.07413,-0.55738,0.00000,A,085404.90
1.04331,57.67064567,11.99790083,57.67064517,11.99790250,08:54:05.044061,0.00606,0.00000,0.00000,0.01440,0.00000,0.03853,0.00782,-0.01673,0.05013,-0.00829,0.98883,1.03493,0.01323,-0.34001,0.96845,0.15854,-0.12954,0.99231,0.18831,0.07413,-0.55738,0.00000,A,085404.90
1.05347,57.67064567,11.99790083,57.67064517,11.99790250,08:54:05.054212,0.00600,0.00000,0.00000,0.01451,0.00000,0.03185,0.00965,-0.01611,0.04812,-0.00427,0.98650,1.04525,0.01323,-0.34001,0.96845,0.15868,-0.12959,0.99231,0.18831,0.07413,-0.55738,0.00000,A,085404.90
1.06411,57.67064567,11.99790083,57.67064517,11.99790250,08:54:05.064876,0.00646,0.00000,0.00000,0.01455,0.00000,0.02663,0.00843,-0.01746,0.05116,-0.00500,0.98727,1.05547,0.01323,-0.34001,0.96845,0.15881,-0.12963,0.99231,0.18831,0.07413,-0.55738,0.00000,A,085404.90
1.08154,57.67064567,11.99790083,57.67064517,11.99790250,08:54:05.082297,0.01371,0.00000,0.00000,0.01453,0.00000,0.03036,0.01178,-0.01921,0.05006,-0.00632,0.97967,1.06585,0.01323,-0.34001,0.96845,0.15894,-0.12968,0.99231,0.18831,0.07413,-0.55738,0.00000,A,085404.90
1.08988,57.67064567,11.99790083,57.67064517,11.99790250,08:54:05.090615,0.00694,0.00000,0.00000,0.01456,0.00000,0.02477,0.00977,-0.02413,0.04611,-0.00690,0.97217,1.08104,0.01323,-0.34001,0.96845,0.15907,-0.12973,0.99231,0.18831,0.07413,-0.55738,0.00000,A,085404.90
1.09908,57.67064567,11.99790083,57.67064517,11.99790250,08:54:05.099997,0.00597,0.00000,0.00000,0.01463,0.00000,0.02112,0.01129,-0.02593,0.05075,-0.00164,0.97567,1.09086,0.01323,-0.34001,0.96845,0.15926,-0.12979,0.99231,0.18831,0.07413,-0.55738,0.00000,A,085404.90
1.11166,57.67064567,11.99790083,57.67064500,11.99790300,08:54:05.112398,0.00837,0.00000,0.00000,0.01453,0.00000,0.01772,0.00793,-0.02568,0.04937,0.00071,0.98084,1.10134,0.01323,-0.34001,0.96845,0.15937,-0.12983,1.09908,0.21804,0.05560,-0.55738,0.00000,A,085405.00
1.11969,57.67064567,11.99790083,57.67064500,11.99790300,08:54:05.120437,0.00620,0.00000,0.00000,0.01443,0.00000,0.01325,0.00883,-0.02834,0.04906,0.00111,0.97596,1.11130,0.01667,-0.42294,0.96845,0.18784,-0.14790,1.09908,0.21804,0.05560,-0.55738,0.00000,A,085405.00
1.13063,57.67064567,11.99790083,57.67064500,11.99790300,08:54:05.131369,0.00697,0.00000,0.00000,0.01427,0.00000,0.01167,0.00914,-0.02791,0.04669,0.00327,0.98121,1.12235,0.01667,-0.42294,0.96845,0.18799,-0.14797,1.09908,0.21804,0.05560,-0.55738,0.00000,A,085405.00
1.13984,57.67064567,11.99790083,57.67064500,11.99790300,08:54:05.140594,0.00601,0.00000,0.00000,0.01411,0.00000,0.00721,0.01128,-0.02796,0.05266,0.00024,0.98594,1.13163,0.01667,-0.42294,0.96845,0.18816,-0.14804,1.09908,0.21804,0.05560,-0.55738,0.00000,A,085405.00
1.15024,57.67064567,11.99790083,57.67064500,11.99790300,08:54:05.150989,0.00623,0.00000,0.00000,0.01389,0.00000,0.00412,0.01141,-0.03184,0.04710,-0.00017,0.98956,1.14202,0.01667,-0.42294,0.96845,0.18830,-0.14811,1.09908,0.21804,0.05560,-0.55738,0.00000,A,085405.00
1.16069,57.67064567,11.99790083,57.67064500,11.99790300,08:54:05.161451,0.00650,0.00000,0.00000,0.01366,0.00000,0.00047,0.00915,-0.02671,0.04293,-0.00518,0.98739,1.15225,0.01667,-0.42294,0.96845,0.18845,-0.14818,1.09908,0.21804,0.05560,-0.55738,0.00000,A,085405.00
1.17144,57.67064567,11.99790083,57.67064500,11.99790300,08:54:05.172194,0.00696,0.00000,0.00000,0.01339,0.00000,-0.00275,0.01095,-0.03230,0.04382,-0.00664,0.98817,1.16304,0.01667,-0.42294,0.96845,0.18861,-0.14825,1.09908,0.21804,0.05560,-0.55738,0.00000,A,085405.00
1.18063,57.67064567,11.99790083,57.67064500,11.99790300,08:54:05.181385,0.00596,0.00000,0.00000,0.01310,0.00000,-0.00888,0.00927,-0.03375,0.04166,-0.00726,0.98720,1.17244,0.01667,-0.42294,0.96845,0.18878,-0.14832,1.09908,0.21804,0.05560,-0.55738,0.00000,A,085405.00
1.19083,57.67064567,11.99790083,57.67064500,11.99790300,08:54:05.191576,0.00583,0.00000,0.00000,0.01276,0.00000,-0.00911,0.00788,-0.03715,0.03679,-0.01279,0.97869,1.18275,0.01667,-0.42294,0.96845,0.18892,-0.14838,1.09908,0.21804,0.05560,-0.55738,0.00000,A,085405.00
1.20349,57.67064567,11.99790083,57.67064500,11.99790367,08:54:05.204238,0.00830,0.00000,0.00000,0.01241,0.00000,-0.00887,0.00881,-0.03390,0.03915,-0.01156,0.97951,1.19281,0.01667,-0.42294,0.96845,0.18907,-0.14845,1.19083,0.25768,0.05560,0.00000,0.00000,A,085405.10
1.21164,57.67064567,11.99790083,57.67064500,11.99790367,08:54:05.212383,0.00623,0.00000,0.00000,0.01208,0.00000,-0.01232,0.00559,-0.03597,0.04294,-0.01240,0.98239,1.20311,0.02024,-0.26126,0.96845,0.22737,-0.14794,1.19083,0.25768,0.05560,0.00000,0.00000,A,085405.10
1.22163,57.67064567,11.99790083,57.67064500,11.99790367,08:54:05.222394,0.00605,0.00000,0.00000,0.01171,0.00000,-0.01522,0.00514,-0.03476,0.04554,-0.01198,0.98164,1.21330,0.02024,-0.26126,0.96845,0.22758,-0.14799,1.19083,0.25768,0.05560,0.00000,0.00000,A,085405.10
1.23217,57.67064567,11.99790083,57.67064500,11.99790367,08:54:05.232913,0.00641,0.00000,0.00000,0.01133,0.00000,-0.01808,0.00423,-0.03261,0.04816,-0.01718,0.97858,1.22422,0.02024,-0.26126,0.96845,0.22778,-0.14804,1.19083,0.25768,0.05560,0.00000,0.00000,A,085405.10
1.24199,57.67064567,11.99790083,57.67064500,11.99790367,08:54:05.242744,0.00605,0.00000,0.00000,0.01091,0.00000,-0.01957,0.00514,-0.03432,0.04855,-0.01650,0.98053,1.23364,0.02024,-0.26126,0.96845,0.22799,-0.14810,1.19083,0.25768,0.05560,0.00000,0.00000,A,085405.10
1.25255,57.67064567,11.99790083,57.67064500,11.99790367,08:54:05.253282,0.00643,0.00000,0.00000,0.01051,0.00000,-0.02419,0.00333,-0.02884,0.05065,-0.01931,0.97936,1.24459,0.02024,-0.26126,0.96845,0.22817,-0.14815,1.19083,0.25768,0.05560,0.00000,0.00000,A,085405.10
1.26258,57.67064567,11.99790083,57.67064500,11.99790367,08:54:05.263329,0.00628,0.00000,0.00000,0.01005,0.00000,-0.02312,0.00730,-0.03012,0.04622,-0.02479,0.98221,1.25424,0.02024,-0.26126,0.96845,0.22838,-0.14821,1.19083,0.25768,0.05560,0.00000,0.00000,A,085405.10
1.27255,57.67064567,11.99790083,57.67064500,11.99790367,08:54:05.273323,0.00605,0.00000,0.00000,0.00963,0.00000,-0.02051,0.00501,-0.03012,0.05310,-0.02967,0.99362,1.26423,0.02024,-0.26126,0.96845,0.22857,-0.14826,1.19083,0.25768,0.05560,0.00000,0.00000,A,085405.10
1.28302,57.67064567,11.99790083,57.67064500,11.99790367,08:54:05.283771,0.00634,0.00000,0.00000,0.00923,0.00000,-0.01988,0.00134,-0.03157,0.04365,-0.03255,0.99257,1.27452,0.02024,-0.26126,0.96845,0.22877,-0.14831,1.19083,0.25768,0.05560,0.00000,0.00000,A,085405.10
1.29328,57.67064567,11.99790083,57.67064500,11.99790367,08:54:05.294015,0.00642,0.00000,0.00000,0.00885,0.00000,-0.01718,0.00255,-0.03235,0.04359,-0.02558,0.98216,1.28532,0.02024,-0.26126,0.96845,0.22897,-0.14836,1.19083,0.25768,0.05560,0.00000,0.00000,A,085405.10
1.30609,57.67064567,11.99790083,57.67064483,11.99790450,08:54:05.306833,0.00903,0.00000,0.00000,0.00849,0.00000,-0.01862,0.00301,-0.03190,0.04863,-0.02523,0.99138,1.29475,0.02024,-0.26126,0.96845,0.22918,-0.14842,1.29328,0.30724,0.03706,-0.35788,0.00000,A,085405.20
1.31342,57.67064567,11.99790083,57.67064483,11.99790450,08:54:05.314159,0.00610,0.00000,0.00000,0.00814,0.00000,-0.01789,0.00514,-0.03429,0.04289,-0.02092,0.98728,1.30499,0.02488,-0.29807,0.96845,0.27680,-0.16639,1.29328,0.30724,0.03706,-0.35788,0.00000,A,085405.20
1.32358,57.67064567,11.99790083,57.67064483,11.99790450,08:54:05.324337,0.00608,0.00000,0.00000,0.00780,0.00000,-0.01366,0.00026,-0.03225,0.05713,-0.02858,0.99327,1.31520,0.02488,-0.29807,0.96845,0.27704,-0.16646,1.29328,0.30724,0.03706,-0.35788,0.00000,A,085405.20
1.33352,57.67064567,11.99790083,57.67064483,11.99790450,08:54:05.334375,0.00583,0.00000,0.00000,0.00751,0.00000,-0.01739,-0.00278,-0.02912,0.05035,-0.02567,0.98973,1.32537,0.02488,-0.29807,0.96845,0.27728,-0.16654,1.29328,0.30724,0.03706,-0.35788,0.00000,A,085405.20
1.34397,57.67064567,11.99790083,57.67064483,11.99790450,08:54:05.344732,0.00609,0.00000,0.00000,0.00719,0.00000,-0.01988,0.00134,-0.03157,0.04854,-0.02169,0.99105,1.33557,0.02488,-0.29807,0.96845,0.27752,-0.16661,1.29328,0.30724,0.03706,-0.35788,0.00000,A,085405.20
1.35400,57.67064567,11.99790083,57.67064483,11.99790450,08:54:05.354736,0.00595,0.00000,0.00000,0.00685,0.00000,-0.02417,0.00441,-0.02623,0.04509,-0.02588,0.99663,1.34607,0.02488,-0.29807,0.96845,0.27776,-0.16669,1.29328,0.30724,0.03706,-0.35788,0.00000,A,085405.20
1.36457,57.67064567,11.99790083,57.67064483,11.99790450,08:54:05.365336,0.00631,0.00000,0.00000,0.00647,0.00000,-0.02228,-0.00109,-0.02799,0.04605,-0.02377,0.99029,1.35596,0.02488,-0.29807,0.96845,0.27801,-0.16676,1.29328,0.30724,0.03706,-0.35788,0.00000,A,085405.20
1.37475,57.67064567,11.99790083,57.67064483,11.99790450,08:54:05.375490,0.00631,0.00000,0.00000,0.00612,0.00000,-0.02667,0.00076,-0.02450,0.05117,-0.02244,1.00203,1.36639,0.02488,-0.29807,0.96845,0.27825,-0.16684,1.29328,0.30724,0.03706,-0.35788,0.00000,A,085405.20
1.38470,57.67064567,11.99790083,57.67064483,11.99790450,08:54:05.385459,0.00607,0.00000,0.00000,0.00573,0.00000,-0.02227,0.00290,-0.02401,0.04934,-0.01859,1.00193,1.37634,0.02488,-0.29807,0.96845,0.27850,-0.16691,1.29328,0.30724,0.03706,-0.35788,0.00000,A,085405.20
1.39480,57.67064567,11.99790083,57.67064483,11.99790450,08:54:05.395537,0.00592,0.00000,0.00000,0.00540,0.00000,-0.02033,0.00289,-0.02487,0.04880,-0.01509,0.99467,1.38699,0.02488,-0.29807,0.96845,0.27873,-0.16698,1.29328,0.30724,0.03706,-0.35788,0.00000,A,085405.20
1.40749,57.67064567,11.99790083,57.67064483,11.99790533,08:54:05.408279,0.00842,0.00000,0.00000,0.00509,0.00000,-0.02466,0.00731,-0.02737,0.04897,-0.01313,0.99590,1.39710,0.02488,-0.29807,0.96845,0.27898,-0.16706,1.39480,0.35679,0.03706,0.00000,0.00000,A,085405.30
1.41556,57.67064567,11.99790083,57.67064483,11.99790533,08:54:05.416300,0.00630,0.00000,0.00000,0.00474,0.00000,-0.02596,0.00518,-0.02536,0.04454,-0.01273,0.99160,1.40713,0.02987,-0.18410,0.96845,0.32625,-0.16643,1.39480,0.35679,0.03706,0.00000,0.00000,A,085405.30
1.42551,57.67064567,11.99790083,57.67064483,11.99790533,08:54:05.426280,0.00607,0.00000,0.00000,0.00438,0.00000,-0.02568,0.01038,-0.02520,0.04261,-0.01484,0.98261,1.41727,0.02987,-0.18410,0.96845,0.32655,-0.16648,1.39480,0.35679,0.03706,0.00000,0.00000,A,085405.30
1.43552,57.67064567,11.99790083,57.67064483,11.99790533,08:54:05.436252,0.00589,0.00000,0.00000,0.00405,0.00000,-0.03081,0.01467,-0.02195,0.04426,-0.01389,0.97721,1.42770,0.02987,-0.18410,0.96845,0.32684,-0.16654,1.39480,0.35679,0.03706,0.00000,0.00000,A,085405.30
1.44627,57.67064567,11.99790083,57.67064483,11.99790533,08:54:05.447027,0.00644,0.00000,0.00000,0.00366,0.00000,-0.03586,0.01496,-0.02483,0.04242,-0.01939,0.97500,1.43780,0.02987,-0.18410,0.96845,0.32714,-0.16659,1.39480,0.35679,0.03706,0.00000,0.00000,A,085405.30
1.45594,57.67064567,11.99790083,57.67064483,11.99790533,08:54:05.456673,0.00593,0.00000,0.00000,0.00322,0.00000,-0.02999,0.01602,-0.02648,0.03631,-0.01677,0.97534,1.44807,0.02987,-0.18410,0.96845,0.32745,-0.16665,1.39480,0.35679,0.03706,0.00000,0.00000,A,085405.30
1.46656,57.67064567,11.99790083,57.67064483,11.99790533,08:54:05.467318,0.00635,0.00000,0.00000,0.00287,0.00000,-0.03552,0.01266,-0.02647,0.03248,-0.01945,0.98806,1.45830,0.02987,-0.18410,0.96845,0.32774,-0.16671,1.39480,0.35679,0.03706,0.00000,0.00000,A,085405.30
1.47704,57.67064567,11.99790083,57.67064483,11.99790533,08:54:05.477773,0.00567,0.00000,0.00000,0.00245,0.00000,-0.03745,0.01312,-0.02577,0.03231,-0.02117,0.99892,1.46911,0.02987,-0.18410,0.96845,0.32804,-0.16676,1.39480,0.35679,0.03706,0.00000,0.00000,A,085405.30
1.48764,57.67064567,11.99790083,57.67064483,11.99790533,08:54:05.488392,0.00608,0.51513,0.51513,0.00201,0.00000,-0.03832,0.00914,-0.02892,0.03029,-0.02405,1.00871,1.47927,0.40159,-0.18411,0.96845,0.32963,-0.16706,1.39480,0.35679,0.03706,0.00000,0.00000,A,085405.30
1.49758,57.67064567,11.99790083,57.67064483,11.99790533,08:54:05.498318,0.00583,0.51513,0.51513,0.00160,0.00000,-0.03835,0.00516,-0.02998,0.02899,-0.02908,1.01589,1.48957,0.40159,-0.18411,0.96845,0.33374,-0.16782,1.39480,0.35679,0.03706,0.00000,0.00000,A,085405.30
1.51016,57.67064567,11.99790083,57.67064467,11.99790617,08:54:05.510929,0.00824,0.51513,0.51513,0.00121,0.00000,-0.03935,0.00456,-0.02794,0.02847,-0.03208,1.01401,1.49963,0.40159,-0.18411,0.96845,0.33772,-0.16857,1.49758,0.40635,0.01853,-0.35788,0.00000,A,085405.40
1.51821,57.67064567,11.99790083,57.67064467,11.99790617,08:54:05.519052,0.00611,0.51513,0.51513,0.00082,0.00000,-0.03945,0.00181,-0.02840,0.02288,-0.02980,1.00526,1.51008,0.40311,-0.25040,0.96845,0.37572,-0.18489,1.49758,0.40635,0.01853,-0.35788,0.00000,A,085405.40
1.52834,57.67064567,11.99790083,57.67064467,11.99790617,08:54:05.529084,0.00606,0.51513,0.51513,0.00042,0.00000,-0.03656,0.00135,-0.02945,0.03326,-0.02771,0.99543,1.51988,0.40311,-0.25040,0.96845,0.37982,-0.18594,1.49758,0.40635,0.01853,-0.35788,0.00000,A,085405.40
1.53816,57.67064567,11.99790083,57.67064467,11.99790617,08:54:05.538897,0.00570,0.51513,0.51513,0.00008,0.00000,-0.03708,0.00352,-0.02215,0.03397,-0.03563,0.97222,1.53020,0.40311,-0.25040,0.96845,0.38366,-0.18692,1.49758,0.40635,0.01853,-0.35788,0.00000,A,085405.40
1.54864,57.67064567,11.99790083,57.67064467,11.99790617,08:54:05.549414,0.00600,0.51513,0.51513,-0.00027,0.00000,-0.03726,0.00412,-0.02463,0.04036,-0.03795,0.97111,1.54033,0.40311,-0.25040,0.96845,0.38759,-0.18793,1.49758,0.40635,0.01853,-0.35788,0.00000,A,085405.40
1.55885,57.67064567,11.99790083,57.67064467,11.99790617,08:54:05.559598,0.00603,0.51513,0.51513,-0.00062,0.00000,-0.03263,0.00153,-0.02348,0.03471,-0.04420,0.96516,1.55084,0.40311,-0.25041,0.96845,0.39161,-0.18896,1.49758,0.40635,0.01853,-0.35788,0.00000,A,085405.40
1.56903,57.67064567,11.99790083,57.67064467,11.99790617,08:54:05.570259,0.00603,0.51513,0.51513,-0.00092,0.00000,-0.02818,-0.00165,-0.01789,0.02542,-0.05150,0.96968,1.56059,0.40311,-0.25041,0.96845,0.39564,-0.18999,1.49758,0.40635,0.01853,-0.35788,0.00000,A,085405.40
1.57887,57.67064567,11.99790083,57.67064467,11.99790617,08:54:05.579625,0.00562,0.51513,0.51513,-0.00117,0.00000,-0.02275,-0.00105,-0.01836,0.02284,-0.05363,0.98505,1.57089,0.40311,-0.25041,0.96845,0.39961,-0.19100,1.49758,0.40635,0.01853,-0.35788,0.00000,A,085405.40
1.58944,57.67064567,11.99790083,57.67064467,11.99790617,08:54:05.590193,0.00598,0.51513,0.51513,-0.00136,0.00000,-0.02466,-0.00806,-0.01501,0.01664,-0.05124,0.98661,1.58116,0.40311,-0.25041,0.96845,0.40349,-0.19200,1.49758,0.40635,0.01853,-0.35788,0.00000,A,085405.40
1.59945,57.67064567,11.99790083,57.67064467,11.99790617,08:54:05.600193,0.00580,0.51513,0.51513,-0.00157,0.00000,-0.02168,-0.00666,-0.01145,0.01958,-0.05098,1.00198,1.59146,0.40311,-0.25041,0.96845,0.40755,-0.19304,1.49758,0.40635,0.01853,-0.35788,0.00000,A,085405.40
1.61233,57.67064567,11.99790083,57.67064450,11.99790717,08:54:05.613110,0.00850,0.51513,0.51513,-0.00175,0.00000,-0.02292,-0.01168,-0.00726,0.02791,-0.04036,1.00373,1.60153,0.40311,-0.25041,0.96845,0.41151,-0.19405,1.59945,0.46581,0.00000,-0.30211,0.00000,A,085405.50
1.62011,57.67064567,11.99790083,57.67064450,11.99790717,08:54:05.620965,0.00609,0.51513,0.51513,-0.00194,0.00000,-0.01806,-0.01077,-0.00811,0.03407,-0.04707,1.00464,1.61198,0.40547,-0.27006,0.96845,0.43508,-0.20339,1.59945,0.46581,0.00000,-0.30211,0.00000,A,085405.50
1.63025,57.67064567,11.99790083,57.67064450,11.99790717,08:54:05.631501,0.00605,0.51513,0.51513,-0.00208,0.00000,-0.01412,-0.01227,-0.00212,0.03363,-0.04362,0.99764,1.62179,0.40547,-0.27007,0.96845,0.43918,-0.20453,1.59945,0.46581,0.00000,-0.30211,0.00000,A,085405.50
1.64019,57.67064567,11.99790083,57.67064450,11.99790717,08:54:05.641045,0.00562,0.51513,0.51513,-0.00218,0.00000,-0.01136,-0.00661,-0.00076,0.03910,-0.04219,0.99106,1.63222,0.40547,-0.27007,0.96845,0.44303,-0.20560,1.59945,0.46581,0.00000,-0.30211,0.00000,A,085405.50
1.65081,57.67064567,11.99790083,57.67064450,11.99790717,08:54:05.651589,0.00605,0.51513,0.51513,-0.00225,0.00000,-0.01019,-0.00447,-0.00018,0.03603,-0.04026,0.98555,1.64245,0.40547,-0.27007,0.96845,0.44700,-0.20670,1.59945,0.46581,0.00000,-0.30211,0.00000,A,085405.50
1.66098,57.67064567,11.99790083,57.67064450,11.99790717,08:54:05.661906,0.00597,0.51513,0.51513,-0.00231,0.00000,-0.00876,-0.00584,0.00076,0.03164,-0.04354,0.97709,1.65300,0.40547,-0.27007,0.96845,0.45107,-0.20782,1.59945,0.46581,0.00000,-0.30211,0.00000,A,085405.50
1.67187,57.67064567,11.99790083,57.67064450,11.99790717,08:54:05.672622,0.00657,0.51513,0.51513,-0.00235,0.00000,-0.00949,-0.00523,0.00175,0.03081,-0.03499,0.97849,1.66311,0.40547,-0.27007,0.96845,0.45510,-0.20894,1.59945,0.46581,0.00000,-0.30211,0.00000,A,085405.50
1.68178,57.67064567,11.99790083,57.67064450,11.99790717,08:54:05.682543,0.00607,0.51513,0.51513,-0.00240,0.00000,-0.00913,-0.00706,0.00133,0.03623,-0.04055,0.97612,1.67344,0.40547,-0.27007,0.96845,0.45916,-0.21006,1.59945,0.46581,0.00000,-0.30211,0.00000,A,085405.50
1.69211,57.67064567,11.99790083,57.67064450,11.99790717,08:54:05.692882,0.00621,0.51513,0.51513,-0.00245,0.00000,-0.00367,-0.00675,0.00333,0.03840,-0.03843,0.97433,1.68360,0.40547,-0.27008,0.96845,0.46312,-0.21116,1.59945,0.46581,0.00000,-0.30211,0.00000,A,085405.50
1.70439,57.67064567,11.99790083,57.67064450,11.99790817,08:54:05.705143,0.00830,0.51513,0.51513,-0.00244,0.00000,-0.00241,-0.00369,0.00438,0.03786,-0.04727,0.97529,1.69410,0.40547,-0.27008,0.96845,0.46715,-0.21228,1.69211,0.52528,0.00000,0.00000,0.00000,A,085405.60
1.71372,57.67064567,11.99790083,57.67064450,11.99790817,08:54:05.714459,0.00744,0.51513,0.51513,-0.00242,0.00000,0.00027,0.00289,0.00649,0.04717,-0.03996,0.98588,1.70409,0.40778,-0.16681,0.96845,0.49441,-0.20343,1.69211,0.52528,0.00000,0.00000,0.00000,A,085405.60
1.72244,57.67064567,11.99790083,57.67064450,11.99790817,08:54:05.723198,0.00597,0.51513,0.51513,-0.00237,0.00000,0.00118,0.00732,0.00658,0.04295,-0.04429,0.98518,1.71407,0.40778,-0.16681,0.96845,0.49869,-0.20415,1.69211,0.52528,0.00000,0.00000,0.00000,A,085405.60
1.73320,57.67064567,11.99790083,57.67064450,11.99790817,08:54:05.733947,0.00654,0.51513,0.51513,-0.00232,0.00000,0.00135,0.00793,0.00782,0.05045,-0.04312,0.98891,1.72448,0.40778,-0.16681,0.96845,0.50252,-0.20480,1.69211,0.52528,0.00000,0.00000,0.00000,A,085405.60
1.74286,57.67064567,11.99790083,57.67064450,11.99790817,08:54:05.743616,0.00591,0.51513,0.51513,-0.00227,0.00000,0.00470,0.01359,0.00802,0.04438,-0.04291,0.99485,1.73462,0.40778,-0.16681,0.96845,0.50676,-0.20551,1.69211,0.52528,0.00000,0.00000,0.00000,A,085405.60
1.75351,57.67064567,11.99790083,57.67064450,11.99790817,08:54:05.754284,0.00637,0.51513,0.51513,-0.00219,0.00000,0.00674,0.01788,0.01176,0.04045,-0.04620,0.99486,1.74488,0.40778,-0.16681,0.96845,0.51075,-0.20618,1.69211,0.52528,0.00000,0.00000,0.00000,A,085405.60
1.76340,57.67064567,11.99790083,57.67064450,11.99790817,08:54:05.764144,0.00607,0.51513,0.51513,-0.00208,0.00000,0.00958,0.02199,0.00837,0.03623,-0.04664,1.00396,1.75491,0.40778,-0.16681,0.96845,0.51502,-0.20690,1.69211,0.52528,0.00000,0.00000,0.00000,A,085405.60
1.77380,57.67064567,11.99790083,57.67064450,11.99790817,08:54:05.775037,0.00629,0.51513,0.51513,-0.00195,0.00000,0.01247,0.02231,0.01269,0.02646,-0.04298,1.00567,1.76549,0.40778,-0.16682,0.96845,0.51908,-0.20759,1.69211,0.52528,0.00000,0.00000,0.00000,A,085405.60
1.78395,57.67064567,11.99790083,57.67064450,11.99790817,08:54:05.784712,0.00624,0.51513,0.51513,-0.00180,0.00000,0.00753,0.01772,0.01016,0.01650,-0.04332,0.99822,1.77536,0.40778,-0.16682,0.96845,0.52324,-0.20829,1.69211,0.52528,0.00000,0.00000,0.00000,A,085405.60
1.79440,57.67064567,11.99790083,57.67064450,11.99790817,08:54:05.795158,0.00651,0.51513,0.51513,-0.00170,0.00000,0.01013,0.01697,0.01307,0.02034,-0.04721,1.00015,1.78569,0.40778,-0.16682,0.96845,0.52730,-0.20898,1.69211,0.52528,0.00000,0.00000,0.00000,A,085405.60
1.80613,57.67064567,11.99790083,57.67064433,11.99790933,08:54:05.806870,0.00806,0.51513,0.51513,-0.00157,0.00000,0.01544,0.01347,0.01507,0.01430,-0.04429,0.99866,1.79559,0.40778,-0.16682,0.96845,0.53151,-0.20968,1.79440,0.59465,-0.01853,-0.26103,0.00000,A,085405.70
1.81591,57.67064567,11.99790083,57.67064433,11.99790933,08:54:05.816646,0.00767,0.51513,0.51513,-0.00141,0.00000,0.01817,0.01500,0.01675,0.01876,-0.03960,0.99668,1.80603,0.41059,-0.20273,0.96845,0.56362,-0.22188,1.79440,0.59465,-0.01853,-0.26103,0.00000,A,085405.70
1.82444,57.67064567,11.99790083,57.67064433,11.99790933,08:54:05.825197,0.00601,0.51513,0.51513,-0.00119,0.00000,0.01733,0.00998,0.02144,0.02032,-0.04394,0.99479,1.81604,0.41059,-0.20273,0.96845,0.56827,-0.22283,1.79440,0.59465,-0.01853,-0.26103,0.00000,A,085405.70
1.83513,57.67064567,11.99790083,57.67064433,11.99790933,08:54:05.835876,0.00651,0.70236,0.70236,-0.00104,0.00000,0.01828,0.01152,0.02262,0.01702,-0.04274,0.99196,1.82655,0.54052,-0.20273,0.96845,0.57226,-0.22366,1.79440,0.59465,-0.01853,-0.26103,0.00000,A,085405.70
1.84502,57.67064567,11.99790083,57.67064433,11.99790933,08:54:05.845764,0.00622,0.70236,0.70236,-0.00085,0.00000,0.02057,0.01242,0.01995,0.01391,-0.04536,0.99119,1.83668,0.54052,-0.20273,0.96845,0.57793,-0.22482,1.79440,0.59465,-0.01853,-0.26103,0.00000,A,085405.70
1.85630,57.67064567,11.99790083,57.67064433,11.99790933,08:54:05.857033,0.00732,0.70236,0.70236,-0.00065,0.00000,0.02180,0.00921,0.01995,0.00346,-0.04251,0.98804,1.84682,0.54052,-0.20273,0.96845,0.58320,-0.22591,1.79440,0.59465,-0.01853,-0.26103,0.00000,A,085405.70
1.86543,57.67064567,11.99790083,57.67064433,11.99790933,08:54:05.866178,0.00628,0.70236,0.70236,-0.00043,0.00000,0.01870,0.00676,0.01885,-0.00039,-0.04217,0.99503,1.85715,0.54052,-0.20273,0.96845,0.58891,-0.22708,1.79440,0.59465,-0.01853,-0.26103,0.00000,A,085405.70
1.87593,57.67064567,11.99790083,57.67064433,11.99790933,08:54:05.876689,0.00659,0.70236,0.70236,-0.00026,0.00000,0.01685,0.00417,0.01896,-0.00441,-0.03850,0.99855,1.86742,0.54052,-0.20274,0.96845,0.59397,-0.22812,1.79440,0.59465,-0.01853,-0.26103,0.00000,A,085405.70
1.88550,57.67064567,11.99790083,57.67064433,11.99790933,08:54:05.886247,0.00599,0.70236,0.70236,-0.00010,0.00000,0.02327,-0.00625,0.01112,-0.00778,-0.04478,0.99796,1.87728,0.54052,-0.20274,0.96845,0.59944,-0.22925,1.79440,0.59465,-0.01853,-0.26103,0.00000,A,085405.70
1.89669,57.67064567,11.99790083,57.67064433,11.99790933,08:54:05.897423,0.00701,0.70236,0.70236,0.00012,0.00000,0.02373,-0.01101,0.00705,-0.01212,-0.04528,0.98366,1.88788,0.54052,-0.20274,0.96845,0.60462,-0.23032,1.79440,0.59465,-0.01853,-0.26103,0.00000,A,085405.70
1.90841,57.67064567,11.99790083,57.67064417,11.99791050,08:54:05.909171,0.00853,0.70236,0.70236,0.00037,0.00000,0.02685,-0.01880,0.00667,-0.00622,-0.04993,0.98084,1.89784,0.54052,-0.20274,0.96845,0.61060,-0.23155,1.89669,0.66403,-0.03706,-0.26103,0.00000,A,085405.80
1.91668,57.67064567,11.99790083,57.67064417,11.99791050,08:54:05.917442,0.00661,0.70236,0.70236,0.00060,0.00000,0.02667,-0.02278,0.00421,-0.00190,-0.04943,0.96868,1.90807,0.54302,-0.22492,0.96845,0.63287,-0.24038,1.89669,0.66403,-0.03706,-0.26103,0.00000,A,085405.80
1.92618,57.67064567,11.99790083,57.67064417,11.99791050,08:54:05.926927,0.00593,0.70236,0.70236,0.00086,0.00000,0.03495,-0.02218,0.00160,0.00726,-0.05788,0.96202,1.91814,0.54302,-0.22492,0.96845,0.63852,-0.24167,1.89669,0.66403,-0.03706,-0.26103,0.00000,A,085405.80
1.93739,57.67064567,11.99790083,57.67064417,11.99791050,08:54:05.938123,0.00696,0.70236,0.70236,0.00117,0.00000,0.03424,-0.03194,0.00387,0.01574,-0.05454,0.95915,1.92916,0.54302,-0.22492,0.96845,0.64357,-0.24283,1.89669,0.66403,-0.03706,-0.26103,0.00000,A,085405.80
1.94672,57.67064567,11.99790083,57.67064417,11.99791050,08:54:05.947478,0.00609,0.70236,0.70236,0.00152,0.00000,0.03699,-0.03133,0.00402,0.03235,-0.05251,0.96212,1.93854,0.54302,-0.22492,0.96845,0.64954,-0.24420,1.89669,0.66403,-0.03706,-0.26103,0.00000,A,085405.80
1.95689,57.67064567,11.99790083,57.67064417,11.99791050,08:54:05.957637,0.00602,0.70236,0.70236,0.00182,0.00000,0.03419,-0.02338,0.00567,0.04345,-0.04590,0.96763,1.94867,0.54302,-0.22493,0.96845,0.65440,-0.24531,1.89669,0.66403,-0.03706,-0.26103,0.00000,A,085405.80
1.96678,57.67064567,11.99790083,57.67064417,11.99791050,08:54:05.967786,0.00574,0.70236,0.70236,0.00211,0.00000,0.03993,-0.02169,0.00923,0.05792,-0.04412,0.98306,1.95877,0.54302,-0.22493,0.96845,0.65982,-0.24655,1.89669,0.66403,-0.03706,-0.26103,0.00000,A,085405.80
1.97746,57.67064567,11.99790083,57.67064417,11.99791050,08:54:05.978203,0.00606,0.70236,0.70236,0.00245,0.00000,0.03453,-0.01679,0.01075,0.05982,-0.04793,0.99078,1.96927,0.54302,-0.22493,0.96845,0.66506,-0.24775,1.89669,0.66403,-0.03706,-0.26103,0.00000,A,085405.80
1.98756,57.67064567,11.99790083,57.67064417,11.99791050,08:54:05.988318,0.00598,0.70236,0.70236,0.00274,0.00000,0.03441,-0.00731,0.01453,0.06054,-0.03811,0.98977,1.97929,0.54302,-0.22493,0.96845,0.67070,-0.24904,1.89669,0.66403,-0.03706,-0.26103,0.00000,A,085405.80
1.99865,57.67064567,11.99790083,57.67064417,11.99791050,08:54:05.999386,0.00645,0.70236,0.70236,0.00301,0.00000,0.03660,-0.00364,0.01415,0.04454,-0.03727,0.98576,1.99044,0.54302,-0.22494,0.96845,0.67599,-0.25025,1.89669,0.66403,-0.03706,-0.26103,0.00000,A,085405.80
2.01079,57.67064567,11.99790083,57.67064400,11.99791167,08:54:06.011561,0.00839,0.70236,0.70236,0.00333,0.00000,0.04542,0.00446,0.01495,0.04838,-0.03317,0.97666,2.00012,0.54302,-0.22494,0.96845,0.68193,-0.25162,1.99865,0.73341,-0.05560,-0.26103,0.00000,A,085405.90
2.01960,57.67064567,11.99790083,57.67064400,11.99791167,08:54:06.020339,0.00703,0.70236,0.70236,0.00368,0.00000,0.04823,0.00586,0.02141,0.05178,-0.03453,0.97324,2.01105,0.54494,-0.23863,0.96845,0.70210,-0.25887,1.99865,0.73341,-0.05560,-0.26103,0.00000,A,085405.90
2.02874,57.67064567,11.99790083,57.67064400,11.99791167,08:54:06.029506,0.00596,0.70236,0.70236,0.00412,0.00000,0.05221,0.01669,0.01873,0.04806,-0.03493,0.96589,2.02048,0.54494,-0.23863,0.96845,0.70806,-0.26032,1.99865,0.73341,-0.05560,-0.26103,0.00000,A,085405.90
2.03884,57.67064567,11.99790083,57.67064400,11.99791167,08:54:06.039583,0.00588,0.70236,0.70236,0.00447,0.00000,0.04570,0.01791,0.01922,0.03152,-0.02288,0.97152,2.03103,0.54494,-0.23864,0.96845,0.71278,-0.26147,1.99865,0.73341,-0.05560,-0.26103,0.00000,A,085405.90
2.04929,57.67064567,11.99790083,57.67064400,11.99791167,08:54:06.050045,0.00613,0.70236,0.70236,0.00482,0.00000,0.04165,0.02252,0.02381,0.02395,-0.01985,0.98048,2.04086,0.54494,-0.23864,0.96845,0.71825,-0.26281,1.99865,0.73341,-0.05560,-0.26103,0.00000,A,085405.90
2.05927,57.67064567,11.99790083,57.67064400,11.99791167,08:54:06.060008,0.00593,0.70236,0.70236,0.00511,0.00000,0.04702,0.02418,0.01980,0.02219,-0.01993,0.99010,2.05140,0.54494,-0.23864,0.96845,0.72362,-0.26411,1.99865,0.73341,-0.05560,-0.26103,0.00000,A,085405.90
2.06958,57.67064567,11.99790083,57.67064400,11.99791167,08:54:06.070329,0.00604,0.70236,0.70236,0.00546,0.00000,0.04688,0.02189,0.02102,0.01928,-0.01345,0.99300,2.06128,0.54494,-0.23864,0.96845,0.72903,-0.26543,1.99865,0.73341,-0.05560,-0.26103,0.00000,A,085405.90
2.08027,57.67064567,11.99790083,57.67064400,11.99791167,08:54:06.081009,0.00584,0.70236,0.70236,0.00579,0.00000,0.04710,0.01669,0.01908,0.02778,-0.01911,0.98348,2.07246,0.54494,-0.23864,0.96845,0.73440,-0.26674,1.99865,0.73341,-0.05560,-0.26103,0.00000,A,085405.90
2.09064,57.67064567,11.99790083,57.67064400,11.99791167,08:54:06.091399,0.00601,0.70236,0.70236,0.00616,0.00000,0.04665,0.01364,0.01904,0.01810,-0.01858,0.99209,2.08235,0.54494,-0.23865,0.96845,0.74018,-0.26815,1.99865,0.73341,-0.05560,-0.26103,0.00000,A,085405.90
2.10343,57.67064567,11.99790083,57.67064383,11.99791300,08:54:06.104177,0.00860,0.70236,0.70236,0.00648,0.00000,0.04911,0.01639,0.01900,0.01968,-0.00950,0.98946,2.09338,0.54494,-0.23865,0.96845,0.74556,-0.26946,2.09064,0.81269,-0.07413,-0.22962,0.00000,A,085406.00
2.11214,57.67064567,11.99790083,57.67064383,11.99791300,08:54:06.112887,0.00714,0.70236,0.70236,0.00685,0.00000,0.04771,0.01058,0.01779,0.01551,-0.01106,0.98231,2.10264,0.54725,-0.23510,0.96845,0.78118,-0.27736,2.09064,0.81269,-0.07413,-0.22962,0.00000,A,085406.00
2.12098,57.67064567,11.99790083,57.67064383,11.99791300,08:54:06.121721,0.00579,0.70236,0.70236,0.00716,0.00000,0.04686,0.01136,0.02261,0.01675,-0.01476,0.97455,2.11301,0.54725,-0.23510,0.96845,0.78661,-0.27866,2.09064,0.81269,-0.07413,-0.22962,0.00000,A,085406.00
2.13204,57.67064567,11.99790083,57.67064383,11.99791300,08:54:06.132815,0.00666,0.80443,0.80443,0.00743,0.00000,0.04563,0.00967,0.01987,0.02091,-0.01003,0.96867,2.12330,0.59983,-0.23510,0.96845,0.79185,-0.27992,2.09064,0.81269,-0.07413,-0.22962,0.00000,A,085406.00
2.14160,57.67064567,11.99790083,57.67064383,11.99791300,08:54:06.142424,0.00596,0.80443,0.80443,0.00774,0.00000,0.04589,0.00951,0.01759,0.01749,-0.00432,0.97507,2.13360,0.59983,-0.23511,0.96845,0.79802,-0.28140,2.09064,0.81269,-0.07413,-0.22962,0.00000,A,085406.00
2.15207,57.67064567,11.99790083,57.67064383,11.99791300,08:54:06.152971,0.00623,0.80443,0.80443,0.00800,0.00000,0.04379,0.01045,0.02257,0.01992,-0.00174,0.98018,2.14362,0.59983,-0.23511,0.96845,0.80381,-0.28279,2.09064,0.81269,-0.07413,-0.22962,0.00000,A,085406.00
2.16285,57.67064567,11.99790083,57.67064383,11.99791300,08:54:06.163609,0.00644,0.80443,0.80443,0.00826,0.00000,0.04207,0.00923,0.02423,0.01989,-0.00445,0.98701,2.15406,0.59983,-0.23511,0.96845,0.80984,-0.28424,2.09064,0.81269,-0.07413,-0.22962,0.00000,A,085406.00
2.17303,57.67064567,11.99790083,57.67064383,11.99791300,08:54:06.173791,0.00642,0.80443,0.80443,0.00850,0.00000,0.04454,0.00543,0.02822,0.02752,-0.00750,0.99942,2.16431,0.59983,-0.23511,0.96845,0.81608,-0.28573,2.09064,0.81269,-0.07413,-0.22962,0.00000,A,085406.00
2.18279,57.67064567,11.99790083,57.67064383,11.99791300,08:54:06.183527,0.00595,0.80443,0.80443,0.00873,0.00000,0.04134,0.00055,0.02803,0.02689,-0.00777,1.00665,2.17457,0.59983,-0.23512,0.96845,0.82192,-0.28713,2.09064,0.81269,-0.07413,-0.22962,0.00000,A,085406.00
2.19309,57.67064567,11.99790083,57.67064383,11.99791300,08:54:06.193849,0.00607,0.80443,0.80443,0.00893,0.00000,0.04638,-0.00067,0.02968,0.02435,-0.01239,0.99816,2.18472,0.59983,-0.23512,0.96845,0.82778,-0.28854,2.09064,0.81269,-0.07413,-0.22962,0.00000,A,085406.00
2.20692,57.67064567,11.99790083,57.67064367,11.99791433,08:54:06.207684,0.00971,0.80443,0.80443,0.00918,0.00000,0.04560,-0.00187,0.03390,0.03483,-0.00511,0.96389,2.19518,0.59983,-0.23512,0.96845,0.83381,-0.28998,2.19309,0.89198,-0.09266,-0.22962,0.00000,A,085406.10
2.21468,57.67064567,11.99790083,57.67064367,11.99791433,08:54:06.215582,0.00649,0.80443,0.80443,0.00941,0.00000,0.04612,0.00181,0.03748,0.04372,0.00187,0.95688,2.20588,0.60261,-0.23292,0.96845,0.86031,-0.29586,2.19309,0.89198,-0.09266,-0.22962,0.00000,A,085406.10
2.22417,57.67064567,11.99790083,57.67064367,11.99791433,08:54:06.224911,0.00580,0.80443,0.80443,0.00968,0.00000,0.04870,0.00657,0.04312,0.04465,0.00352,0.95562,2.21606,0.60261,-0.23292,0.96845,0.86696,-0.29744,2.19309,0.89198,-0.09266,-0.22962,0.00000,A,085406.10
2.23496,57.67064567,11.99790083,57.67064367,11.99791433,08:54:06.235732,0.00640,0.80443,0.80443,0.00989,0.00000,0.04368,0.01529,0.04544,0.04418,0.01223,0.96689,2.22626,0.60261,-0.23293,0.96845,0.87261,-0.29878,2.19309,0.89198,-0.09266,-0.22962,0.00000,A,085406.10
2.24421,57.67064567,11.99790083,57.67064367,11.99791433,08:54:06.244941,0.00546,0.80443,0.80443,0.01009,0.00000,0.03902,0.02430,0.04579,0.03423,0.01495,0.97453,2.23630,0.60261,-0.23293,0.96845,0.87885,-0.30026,2.19309,0.89198,-0.09266,-0.22962,0.00000,A,085406.10
2.25507,57.67064567,11.99790083,57.67064367,11.99791433,08:54:06.255835,0.00612,0.80443,0.80443,0.01019,0.00000,0.03999,0.03151,0.05217,0.01287,0.01002,0.98934,2.24665,0.60261,-0.23293,0.96845,0.88441,-0.30158,2.19309,0.89198,-0.09266,-0.22962,0.00000,A,085406.10
2.26496,57.67064567,11.99790083,57.67064367,11.99791433,08:54:06.265703,0.00583,0.80443,0.80443,0.01033,0.00000,0.03754,0.03120,0.05205,0.00211,0.01388,0.99431,2.25697,0.60261,-0.23293,0.96845,0.89063,-0.30306,2.19309,0.89198,-0.09266,-0.22962,0.00000,A,085406.10
2.27572,57.67064567,11.99790083,57.67064367,11.99791433,08:54:06.276472,0.00639,0.80443,0.80443,0.01044,0.00000,0.03448,0.03653,0.04922,0.00060,0.00456,0.99633,2.26727,0.60261,-0.23294,0.96845,0.89653,-0.30446,2.19309,0.89198,-0.09266,-0.22962,0.00000,A,085406.10
2.28556,57.67064567,11.99790083,57.67064367,11.99791433,08:54:06.286301,0.00605,0.80443,0.80443,0.01053,0.00000,0.03024,0.02689,0.04464,-0.00145,-0.00465,0.99553,2.27771,0.60261,-0.23294,0.96845,0.90272,-0.30593,2.19309,0.89198,-0.09266,-0.22962,0.00000,A,085406.10
2.29585,57.67064567,11.99790083,57.67064367,11.99791433,08:54:06.296601,0.00614,0.80443,0.80443,0.01057,0.00000,0.03002,0.02381,0.03833,0.01231,-0.01304,0.98889,2.28755,0.60261,-0.23294,0.96845,0.90864,-0.30734,2.19309,0.89198,-0.09266,-0.22962,0.00000,A,085406.10
2.30788,57.67064567,11.99790083,57.67064350,11.99791583,08:54:06.308619,0.00797,0.80443,0.80443,0.01061,0.00000,0.03404,0.02152,0.03818,0.00763,-0.01173,0.96945,2.29781,0.60261,-0.23294,0.96845,0.91452,-0.30873,2.29585,0.98118,-0.11119,-0.20485,0.00000,A,085406.20
2.31657,57.67064567,11.99790083,57.67064350,11.99791583,08:54:06.317326,0.00647,0.80443,0.80443,0.01069,0.00000,0.03477,0.01556,0.03721,0.02009,-0.01334,0.96448,2.30796,0.60506,-0.22212,0.96845,0.94930,-0.31435,2.29585,0.98118,-0.11119,-0.20485,0.00000,A,085406.20
2.32666,57.67064567,11.99790083,57.67064350,11.99791583,08:54:06.327398,0.00637,0.80443,0.80443,0.01079,0.00000,0.03395,0.01465,0.03897,0.02221,-0.01516,0.96639,2.31881,0.60506,-0.22212,0.96845,0.95556,-0.31577,2.29585,0.98118,-0.11119,-0.20485,0.00000,A,085406.20
2.33671,57.67064567,11.99790083,57.67064350,11.99791583,08:54:06.337463,0.00622,0.80443,0.80443,0.01086,0.00000,0.03673,0.01283,0.04298,0.01266,-0.01322,0.96456,2.32831,0.60506,-0.22212,0.96845,0.96164,-0.31714,2.29585,0.98118,-0.11119,-0.20485,0.00000,A,085406.20
2.34654,57.67064567,11.99790083,57.67064350,11.99791583,08:54:06.347277,0.00587,0.80443,0.80443,0.01094,0.00000,0.03617,0.01589,0.04382,0.00799,-0.01385,0.97221,2.33874,0.60506,-0.22212,0.96845,0.96736,-0.31844,2.29585,0.98118,-0.11119,-0.20485,0.00000,A,085406.20
2.35708,57.67064567,11.99790083,57.67064350,11.99791583,08:54:06.357836,0.00621,0.80443,0.80443,0.01103,0.00000,0.03386,0.01117,0.04666,0.01292,-0.00828,0.97642,2.34868,0.60506,-0.22213,0.96845,0.97338,-0.31980,2.29585,0.98118,-0.11119,-0.20485,0.00000,A,085406.20
2.36697,57.67064567,11.99790083,57.67064350,11.99791583,08:54:06.367704,0.00591,0.80443,0.80443,0.01109,0.00000,0.03676,0.01591,0.04819,0.01023,-0.01176,0.98829,2.35915,0.60506,-0.22213,0.96845,0.97943,-0.32116,2.29585,0.98118,-0.11119,-0.20485,0.00000,A,085406.20
2.37762,57.67064567,11.99790083,57.67064350,11.99791583,08:54:06.378371,0.00631,0.80443,0.80443,0.01117,0.00000,0.03419,0.01439,0.04914,0.01225,-0.00707,0.99979,2.36910,0.60506,-0.22213,0.96845,0.98544,-0.32252,2.29585,0.98118,-0.11119,-0.20485,0.00000,A,085406.20
2.38736,57.67064567,11.99790083,57.67064350,11.99791583,08:54:06.388096,0.00589,0.80443,0.80443,0.01124,0.00000,0.03303,0.01529,0.04578,0.00179,-0.00491,1.00652,2.37956,0.60506,-0.22213,0.96845,0.99155,-0.32390,2.29585,0.98118,-0.11119,-0.20485,0.00000,A,085406.20
2.39779,57.67064567,11.99790083,57.67064350,11.99791583,08:54:06.398546,0.00612,0.92628,0.92628,0.01128,0.00000,0.03015,0.01208,0.04547,-0.00672,-0.00571,1.01784,2.38937,0.63744,-0.22213,0.96845,0.99758,-0.32527,2.29585,0.98118,-0.11119,-0.20485,0.00000,A,085406.20
2.40964,57.67064567,11.99790083,57.67064333,11.99791700,08:54:06.410394,0.00778,0.92628,0.92628,0.01130,0.00000,0.03141,0.01175,0.03977,-0.01998,-0.00804,1.02710,2.39959,0.63744,-0.22214,0.96845,1.00388,-0.32669,2.39779,1.05056,-0.12973,-0.26103,0.00000,A,085406.30
2.41837,57.67064567,11.99790083,57.67064333,11.99791700,08:54:06.419125,0.00633,0.92628,0.92628,0.01133,0.00000,0.02933,0.00977,0.04047,-0.01868,0.00600,1.02964,2.40974,0.63909,-0.23690,0.96845,1.01856,-0.33284,2.39779,1.05056,-0.12973,-0.26103,0.00000,A,085406.30
2.42808,57.67064567,11.99790083,57.67064333,11.99791700,08:54:06.428812,0.00585,0.92628,0.92628,0.01137,0.00000,0.02258,0.00668,0.03358,-0.02427,0.00992,1.01985,2.42026,0.63909,-0.23690,0.96845,1.02517,-0.33444,2.39779,1.05056,-0.12973,-0.26103,0.00000,A,085406.30
2.43865,57.67064567,11.99790083,57.67064333,11.99791700,08:54:06.439412,0.00623,0.92628,0.92628,0.01132,0.00000,0.01979,0.00745,0.03372,-0.01803,0.01419,1.00745,2.43014,0.63909,-0.23691,0.96845,1.03135,-0.33593,2.39779,1.05056,-0.12973,-0.26103,0.00000,A,085406.30
2.44841,57.67064567,11.99790083,57.67064333,11.99791700,08:54:06.449145,0.00581,0.92628,0.92628,0.01124,0.00000,0.01903,0.00534,0.04056,-0.02560,0.01924,1.00437,2.44060,0.63909,-0.23691,0.96845,1.03776,-0.33748,2.39779,1.05056,-0.12973,-0.26103,0.00000,A,085406.30
2.45891,57.67064567,11.99790083,57.67064333,11.99791700,08:54:06.459673,0.00611,1.80000,1.80000,0.01116,0.00000,0.01376,0.00317,0.03414,-0.03171,0.01134,0.98561,2.45053,0.68681,-0.23691,0.96845,1.04414,-0.33902,2.39779,1.05056,-0.12973,-0.26103,0.00000,A,085406.30
2.46874,57.67064567,11.99790083,57.67064333,11.99791700,08:54:06.469480,0.00574,1.80000,1.80000,0.01103,0.00000,0.00739,0.00254,0.02927,-0.03220,-0.00043,0.98677,2.46074,0.68681,-0.23691,0.96845,1.05099,-0.34068,2.39779,1.05056,-0.12973,-0.26103,0.00000,A,085406.30
2.47938,57.67064567,11.99790083,57.67064333,11.99791700,08:54:06.480142,0.00617,1.80000,1.80000,0.01084,0.00000,0.00349,-0.00479,0.02979,-0.02465,-0.00174,0.99272,2.47103,0.68681,-0.23692,0.96845,1.05764,-0.34229,2.39779,1.05056,-0.12973,-0.26103,0.00000,A,085406.30
2.48922,57.67064567,11.99790083,57.67064333,11.99791700,08:54:06.489960,0.00582,1.80000,1.80000,0.01063,0.00000,0.00255,-0.00301,0.01907,-0.02297,-0.00218,0.99040,2.48140,0.68681,-0.23692,0.96845,1.06460,-0.34397,2.39779,1.05056,-0.12973,-0.26103,0.00000,A,085406.30
2.49955,57.67064567,11.99790083,57.67064333,11.99791700,08:54:06.500372,0.00595,1.80000,1.80000,0.01042,0.00000,0.00053,-0.00501,0.01655,-0.01010,0.00119,0.99330,2.49131,0.68681,-0.23692,0.96845,1.07138,-0.34561,2.39779,1.05056,-0.12973,-0.26103,0.00000,A,085406.30
2.51163,57.67064567,11.99790083,57.67064317,11.99791850,08:54:06.512387,0.00784,1.80000,1.80000,0.01021,0.00000,-0.00580,0.00044,0.00582,-0.00922,-0.00386,0.99582,2.50178,0.68681,-0.23693,0.96845,1.07813,-0.34724,2.49955,1.13975,-0.14826,-0.20485,0.00000,A,085406.40
2.52034,57.67064567,11.99790083,57.67064317,11.99791850,08:54:06.521106,0.00637,1.80000,1.80000,0.00994,0.00000,-0.01159,0.00227,0.00532,-0.01619,0.00386,0.97806,2.51158,0.68956,-0.22458,0.96845,1.10754,-0.35134,2.49955,1.13975,-0.14826,-0.20485,0.00000,A,085406.40
2.52984,57.67064567,11.99790083,57.67064317,11.99791850,08:54:06.530589,0.00568,1.80000,1.80000,0.00962,0.00000,-0.01140,0.00655,0.00501,-0.02392,0.00333,0.98186,2.52185,0.68956,-0.22458,0.96845,1.11457,-0.35295,2.49955,1.13975,-0.14826,-0.20485,0.00000,A,085406.40
2.54029,57.67064567,11.99790083,57.67064317,11.99791850,08:54:06.541050,0.00595,1.80000,1.80000,0.00930,0.00000,-0.01579,0.01037,0.00711,-0.03885,0.00764,0.97703,2.53205,0.68956,-0.22458,0.96845,1.12110,-0.35444,2.49955,1.13975,-0.14826,-0.20485,0.00000,A,085406.40
2.55035,57.67064567,11.99790083,57.67064317,11.99791850,08:54:06.551088,0.00583,1.80000,1.80000,0.00894,0.00000,-0.01549,0.00689,0.01408,-0.04542,-0.00132,0.97768,2.54253,0.68956,-0.22458,0.96845,1.12803,-0.35603,2.49955,1.13975,-0.14826,-0.20485,0.00000,A,085406.40
2.56141,57.67064567,11.99790083,57.67064317,11.99791850,08:54:06.562178,0.00668,1.80000,1.80000,0.00858,0.00000,-0.01490,0.00109,0.01432,-0.05064,-0.00528,0.97993,2.55244,0.68956,-0.22459,0.96845,1.13493,-0.35760,2.49955,1.13975,-0.14826,-0.20485,0.00000,A,085406.40
2.57076,57.67064567,11.99790083,57.67064317,11.99791850,08:54:06.571494,0.00584,1.80000,1.80000,0.00824,0.00000,-0.01431,-0.00548,0.01319,-0.05011,-0.00977,0.98505,2.56295,0.68956,-0.22459,0.96845,1.14191,-0.35920,2.49955,1.13975,-0.14826,-0.20485,0.00000,A,085406.40
2.58135,57.67064567,11.99790083,57.67064317,11.99791850,08:54:06.582116,0.00623,1.80000,1.80000,0.00791,0.00000,-0.01568,-0.01478,0.01585,-0.04723,-0.01127,0.97636,2.57297,0.68956,-0.22459,0.96845,1.14865,-0.36074,2.49955,1.13975,-0.14826,-0.20485,0.00000,A,085406.40
2.59111,57.67064567,11.99790083,57.67064317,11.99791850,08:54:06.591955,0.00582,1.80000,1.80000,0.00758,0.00000,-0.01993,-0.01951,0.01678,-0.03658,-0.01200,0.97774,2.58329,0.68956,-0.22460,0.96845,1.15555,-0.36232,2.49955,1.13975,-0.14826,-0.20485,0.00000,A,085406.40
2.60443,57.67064567,11.99790083,57.67064317,11.99792000,08:54:06.605175,0.00894,1.80000,1.80000,0.00721,0.00000,-0.01933,-0.02794,0.01012,-0.01065,-0.01791,0.97915,2.59319,0.68956,-0.22460,0.96845,1.16233,-0.36387,2.59111,1.22895,-0.14826,0.00000,0.00000,A,085406.50
2.61203,57.67064567,11.99790083,57.67064317,11.99792000,08:54:06.612782,0.00614,1.80000,1.80000,0.00686,0.00000,-0.02001,-0.02977,0.01067,-0.00279,-0.01060,0.97583,2.60359,0.69176,-0.13871,0.96845,1.19653,-0.35137,2.59111,1.22895,-0.14826,0.00000,0.00000,A,085406.50
2.62219,57.67064567,11.99790083,57.67064317,11.99792000,08:54:06.622947,0.00610,1.80000,1.80000,0.00649,0.00000,-0.02167,-0.02670,0.01446,0.01245,-0.00948,0.98055,2.61378,0.69176,-0.13871,0.96845,1.20382,-0.35239,2.59111,1.22895,-0.14826,0.00000,0.00000,A,085406.50
2.63224,57.67064567,11.99790083,57.67064317,11.99792000,08:54:06.632973,0.00597,1.80000,1.80000,0.00614,0.00000,-0.02736,-0.01756,0.00901,0.00886,-0.00441,0.98190,2.62429,0.69176,-0.13871,0.96845,1.21064,-0.35335,2.59111,1.22895,-0.14826,0.00000,0.00000,A,085406.50
2.64258,57.67064567,11.99790083,57.67064317,11.99792000,08:54:06.643337,0.00611,1.80000,1.80000,0.00574,0.00000,-0.02546,-0.01240,0.00306,-0.00142,-0.00696,0.98597,2.63417,0.69176,-0.13871,0.96845,1.21767,-0.35433,2.59111,1.22895,-0.14826,0.00000,0.00000,A,085406.50
2.65247,57.67064567,11.99790083,57.67064317,11.99792000,08:54:06.653209,0.00582,1.80000,1.80000,0.00537,0.00000,-0.03442,-0.01683,0.00207,-0.00992,-0.00486,0.99059,2.64435,0.69176,-0.13872,0.96845,1.22461,-0.35530,2.59111,1.22895,-0.14826,0.00000,0.00000,A,085406.50
2.66383,57.67064567,11.99790083,57.67064317,11.99792000,08:54:06.664596,0.00699,1.80000,1.80000,0.00493,0.00000,-0.03273,-0.01122,-0.00607,-0.02672,-0.00857,1.00572,2.65456,0.69176,-0.13872,0.96845,1.23148,-0.35626,2.59111,1.22895,-0.14826,0.00000,0.00000,A,085406.50
2.67337,57.67064567,11.99790083,57.67064317,11.99792000,08:54:06.674123,0.00636,1.80000,1.80000,0.00448,0.00000,-0.03494,-0.00818,-0.00971,-0.02859,-0.01426,1.02837,2.66497,0.69176,-0.13872,0.96845,1.23921,-0.35734,2.59111,1.22895,-0.14826,0.00000,0.00000,A,085406.50
2.68343,57.67064567,11.99790083,57.67064317,11.99792000,08:54:06.684190,0.00622,1.08884,1.08884,0.00409,0.00000,-0.03109,-0.01049,-0.01249,-0.02970,-0.01989,1.05080,2.67492,0.73438,-0.13872,0.96845,1.24584,-0.35827,2.59111,1.22895,-0.14826,0.00000,0.00000,A,085406.50
2.69344,57.67064567,11.99790083,57.67064317,11.99792000,08:54:06.694189,0.00604,1.08884,1.08884,0.00372,0.00000,-0.03202,-0.01569,-0.01380,-0.02966,-0.02676,1.05489,2.68539,0.73438,-0.13873,0.96845,1.25325,-0.35930,2.59111,1.22895,-0.14826,0.00000,0.00000,A,085406.50
2.70634,57.67064567,11.99790083,57.67064300,11.99792167,08:54:06.707096,0.00875,1.08884,1.08884,0.00335,0.00000,-0.02333,-0.01830,-0.01727,-0.03604,-0.02746,1.03625,2.69529,0.73438,-0.13873,0.96845,1.26062,-0.36033,2.69344,1.32806,-0.16679,-0.18486,0.00000,A,085406.60
2.71400,57.67064567,11.99790083,57.67064300,11.99792167,08:54:06.714733,0.00623,1.08884,1.08884,0.00307,0.00000,-0.02485,-0.02498,-0.00911,-0.03051,-0.02715,1.01170,2.70575,0.73653,-0.15627,0.96845,1.29542,-0.36982,2.69344,1.32806,-0.16679,-0.18486,0.00000,A,085406.60
2.72409,57.67064567,11.99790083,57.67064300,11.99792167,08:54:06.724849,0.00612,1.08884,1.08884,0.00276,0.00000,-0.03332,-0.02466,-0.00622,-0.02218,-0.03286,0.99008,2.71567,0.73653,-0.15628,0.96845,1.30311,-0.37103,2.69344,1.32806,-0.16679,-0.18486,0.00000,A,085406.60
2.73362,57.67064567,11.99790083,57.67064300,11.99792167,08:54:06.734353,0.00547,1.08884,1.08884,0.00238,0.00000,-0.02835,-0.02434,-0.00397,-0.01289,-0.04452,0.97571,2.72569,0.73653,-0.15628,0.96845,1.31029,-0.37216,2.69344,1.32806,-0.16679,-0.18486,0.00000,A,085406.60
2.74800,57.67064567,11.99790083,57.67064300,11.99792167,08:54:06.748757,0.00649,1.08884,1.08884,0.00206,0.00000,-0.03115,-0.02125,0.00446,-0.01167,-0.03476,0.97519,2.73932,0.73653,-0.15628,0.96845,1.31737,-0.37328,2.69344,1.32806,-0.16679,-0.18486,0.00000,A,085406.60
2.75738,57.67064567,11.99790083,57.67064300,11.99792167,08:54:06.758126,0.00571,1.08884,1.08884,0.00158,0.00000,-0.03052,-0.02614,0.00440,-0.01697,-0.04058,0.98364,2.74919,0.73653,-0.15628,0.96845,1.32769,-0.37491,2.69344,1.32806,-0.16679,-0.18486,0.00000,A,085406.60
2.76857,57.67064567,11.99790083,57.67064300,11.99792167,08:54:06.769312,0.00672,1.08884,1.08884,0.00125,0.00000,-0.03004,-0.02078,0.00688,-0.02300,-0.03914,0.97884,2.75969,0.73653,-0.15629,0.96845,1.33457,-0.37599,2.69344,1.32806,-0.16679,-0.18486,0.00000,A,085406.60
2.77825,57.67064567,11.99790083,57.67064300,11.99792167,08:54:06.778994,0.00586,1.08884,1.08884,0.00090,0.00000,-0.02648,-0.02352,0.00945,-0.01988,-0.03980,0.99258,2.77008,0.73653,-0.15629,0.96845,1.34231,-0.37722,2.69344,1.32806,-0.16679,-0.18486,0.00000,A,085406.60
2.78978,57.67064567,11.99790083,57.67064300,11.99792167,08:54:06.790517,0.00722,1.08884,1.08884,0.00060,0.00000,-0.01901,-0.02688,0.01000,-0.01377,-0.03790,0.99602,2.78038,0.73653,-0.15629,0.96845,1.34974,-0.37839,2.69344,1.32806,-0.16679,-0.18486,0.00000,A,085406.60
2.79873,57.67064567,11.99790083,57.67064300,11.99792167,08:54:06.799486,0.00600,1.08884,1.08884,0.00038,0.00000,-0.02201,-0.01758,0.00516,-0.00868,-0.03750,0.98953,2.79033,0.73653,-0.15629,0.96845,1.35790,-0.37968,2.69344,1.32806,-0.16679,-0.18486,0.00000,A,085406.60
2.81142,57.67064567,11.99790083,57.67064283,11.99792300,08:54:06.812169,0.00850,1.08884,1.08884,0.00017,0.00000,-0.01989,-0.01608,0.00001,-0.00714,-0.03044,0.98623,2.80066,0.73653,-0.15630,0.96845,1.36461,-0.38073,2.79873,1.40735,-0.18532,-0.22962,0.00000,A,085406.70
2.81922,57.67064567,11.99790083,57.67064283,11.99792300,08:54:06.819960,0.00612,1.08884,1.08884,-0.00004,0.00000,-0.01651,-0.00724,-0.00411,-0.00485,-0.03204,0.99534,2.81060,0.73783,-0.18423,0.96845,1.37458,-0.38831,2.79873,1.40735,-0.18532,-0.22962,0.00000,A,085406.70
2.83023,57.67064567,11.99790083,57.67064283,11.99792300,08:54:06.830963,0.00695,1.08884,1.08884,-0.00018,0.00000,-0.01372,-0.00422,-0.01118,-0.01362,-0.02996,0.99852,2.82140,0.73783,-0.18423,0.96845,1.38180,-0.38966,2.79873,1.40735,-0.18532,-0.22962,0.00000,A,085406.70
2.83943,57.67064567,11.99790083,57.67064283,11.99792300,08:54:06.840189,0.00599,1.08884,1.08884,-0.00030,0.00000,-0.01743,0.00020,-0.01377,-0.01331,-0.03453,1.01159,2.83116,0.73783,-0.18423,0.96845,1.38982,-0.39116,2.79873,1.40735,-0.18532,-0.22962,0.00000,A,085406.70
2.85000,57.67064567,11.99790083,57.67064283,11.99792300,08:54:06.850748,0.00635,1.08884,1.08884,-0.00043,0.00000,-0.01700,-0.00027,-0.01618,-0.01543,-0.04146,1.00432,2.84184,0.73783,-0.18423,0.96845,1.39640,-0.39239,2.79873,1.40735,-0.18532,-0.22962,0.00000,A,085406.70
2.85962,57.67064567,11.99790083,57.67064283,11.99792300,08:54:06.860365,0.00581,1.08884,1.08884,-0.00057,0.00000,-0.02489,0.00353,-0.01985,-0.01677,-0.04080,0.98944,2.85156,0.73783,-0.18424,0.96845,1.40408,-0.39382,2.79873,1.40735,-0.18532,-0.22962,0.00000,A,085406.70
2.87078,57.67064567,11.99790083,57.67064283,11.99792300,08:54:06.871521,0.00679,1.08884,1.08884,-0.00076,0.00000,-0.01995,0.00216,-0.01868,-0.02189,-0.04418,0.98421,2.86246,0.73783,-0.18424,0.96845,1.41111,-0.39513,2.79873,1.40735,-0.18532,-0.22962,0.00000,A,085406.70
2.88034,57.67064567,11.99790083,57.67064283,11.99792300,08:54:06.881092,0.00615,1.08884,1.08884,-0.00093,0.00000,-0.01994,0.00105,-0.02697,-0.01495,-0.04471,0.97382,2.87211,0.73783,-0.18424,0.96845,1.41925,-0.39665,2.79873,1.40735,-0.18532,-0.22962,0.00000,A,085406.70
2.89068,57.67064567,11.99790083,57.67064283,11.99792300,08:54:06.891429,0.00631,1.08884,1.08884,-0.00105,0.00000,-0.01548,0.00105,-0.02831,-0.01903,-0.03908,0.96536,2.88257,0.73783,-0.18424,0.96845,1.42608,-0.39792,2.79873,1.40735,-0.18532,-0.22962,0.00000,A,085406.70
2.90046,57.67064567,11.99790083,57.67064283,11.99792300,08:54:06.901202,0.00591,1.08884,1.08884,-0.00115,0.00000,-0.01523,-0.00368,-0.02642,-0.02204,-0.03283,0.95719,2.89232,0.73783,-0.18425,0.96845,1.43363,-0.39933,2.79873,1.40735,-0.18532,-0.22962,0.00000,A,085406.70
2.91342,57.67064567,11.99790083,57.67064267,11.99792450,08:54:06.914155,0.00866,1.08884,1.08884,-0.00122,0.00000,-0.01816,-0.00005,-0.03460,-0.02502,-0.02836,0.94763,2.90311,0.73783,-0.18425,0.96845,1.44073,-0.40065,2.90046,1.49655,-0.20386,-0.20485,0.00000,A,085406.80
2.92156,57.67064567,11.99790083,57.67064267,11.99792450,08:54:06.922315,0.00661,1.08884,1.08884,-0.00134,0.00000,-0.01708,-0.00034,-0.03048,-0.02814,-0.02511,0.95242,2.91271,0.73933,-0.19203,0.96845,1.46356,-0.40681,2.90046,1.49655,-0.20386,-0.20485,0.00000,A,085406.80
2.93172,57.67064567,11.99790083,57.67064267,11.99792450,08:54:06.932459,0.00658,1.08884,1.08884,-0.00144,0.00000,-0.01658,-0.00613,-0.02809,-0.01758,-0.02641,0.96116,2.92376,0.73933,-0.19204,0.96845,1.47062,-0.40818,2.90046,1.49655,-0.20386,-0.20485,0.00000,A,085406.80
2.94181,57.67064567,11.99790083,57.67064267,11.99792450,08:54:06.942579,0.00648,0.96410,0.96410,-0.00154,0.00000,-0.01704,-0.01009,-0.02536,-0.02298,-0.02312,0.97306,2.93323,0.77853,-0.19204,0.96845,1.47839,-0.40970,2.90046,1.49655,-0.20386,-0.20485,0.00000,A,085406.80
2.95193,57.67064567,11.99790083,57.67064267,11.99792450,08:54:06.952668,0.00641,0.96410,0.96410,-0.00163,0.00000,-0.02456,-0.01255,-0.02957,-0.00663,-0.02780,0.98929,2.94399,0.77853,-0.19204,0.96845,1.48584,-0.41115,2.90046,1.49655,-0.20386,-0.20485,0.00000,A,085406.80
2.96210,57.67064567,11.99790083,57.67064267,11.99792450,08:54:06.962864,0.00642,0.96410,0.96410,-0.00180,0.00000,-0.02184,-0.01377,-0.02773,0.00077,-0.02725,1.00375,2.95348,0.77853,-0.19205,0.96845,1.49385,-0.41271,2.90046,1.49655,-0.20386,-0.20485,0.00000,A,085406.80
2.97268,57.67064567,11.99790083,57.67064267,11.99792450,08:54:06.973439,0.00679,0.96410,0.96410,-0.00193,0.00000,-0.02234,-0.01986,-0.02468,0.00753,-0.02845,1.00635,2.96407,0.77853,-0.19205,0.96845,1.50123,-0.41414,2.90046,1.49655,-0.20386,-0.20485,0.00000,A,085406.80
2.98223,57.67064567,11.99790083,57.67064267,11.99792450,08:54:06.982991,0.00617,0.96410,0.96410,-0.00209,0.00000,-0.01814,-0.01406,-0.02516,0.00584,-0.02397,1.00117,2.97387,0.77853,-0.19205,0.96845,1.50950,-0.41575,2.90046,1.49655,-0.20386,-0.20485,0.00000,A,085406.80
2.99270,57.67064567,11.99790083,57.67064267,11.99792450,08:54:06.993432,0.00645,0.96410,0.96410,-0.00219,0.00000,-0.02091,-0.01541,-0.02101,-0.00122,-0.01386,0.98425,2.98471,0.77853,-0.19205,0.96845,1.51683,-0.41718,2.90046,1.49655,-0.20386,-0.20485,0.00000,A,085406.80
3.00480,57.67064567,11.99790083,57.67064250,11.99792583,08:54:07.005556,0.00837,0.96410,0.96410,-0.00233,0.00000,-0.02094,-0.01618,-0.02070,-0.00204,-0.01325,0.96972,2.99430,0.77853,-0.19206,0.96845,1.52499,-0.41877,2.99270,1.57583,-0.22239,-0.22962,0.00000,A,085406.90
3.01276,57.67064567,11.99790083,57.67064250,11.99792583,08:54:07.013501,0.00627,0.96410,0.96410,-0.00244,0.00000,-0.01912,-0.01253,-0.02466,0.00390,-0.01815,0.95347,3.00426,0.77973,-0.20632,0.96845,1.54268,-0.42530,2.99270,1.57583,-0.22239,-0.22962,0.00000,A,085406.90
3.02293,57.67064567,11.99790083,57.67064250,11.99792583,08:54:07.023689,0.00625,0.96410,0.96410,-0.00255,0.00000,-0.02364,-0.01235,-0.01994,0.00943,-0.01439,0.93542,3.01438,0.77973,-0.20632,0.96845,1.55045,-0.42693,2.99270,1.57583,-0.22239,-0.22962,0.00000,A,085406.90
3.03273,57.67064567,11.99790083,57.67064250,11.99792583,08:54:07.033475,0.00585,0.96410,0.96410,-0.00270,0.00000,-0.02676,-0.01085,-0.02368,0.01918,-0.01267,0.92625,3.02462,0.77973,-0.20632,0.96845,1.55813,-0.42854,2.99270,1.57583,-0.22239,-0.22962,0.00000,A,085406.90
3.04327,57.67064567,11.99790083,57.67064250,11.99792583,08:54:07.044024,0.00620,0.96410,0.96410,-0.00286,0.00000,-0.02119,-0.00933,-0.02675,0.02590,-0.01757,0.93360,3.03477,0.77973,-0.20633,0.96845,1.56572,-0.43013,2.99270,1.57583,-0.22239,-0.22962,0.00000,A,085406.90
3.05335,57.67064567,11.99790083,57.67064250,11.99792583,08:54:07.054083,0.00609,0.96410,0.96410,-0.00298,0.00000,-0.02655,-0.04506,-0.02534,0.03356,-0.01659,0.96153,3.04526,0.77973,-0.20633,0.96845,1.57374,-0.43181,2.99270,1.57583,-0.22239,-0.22962,0.00000,A,085406.90
3.06402,57.67064567,11.99790083,57.67064250,11.99792583,08:54:07.064776,0.00656,0.96410,0.96410,-0.00315,0.00000,-0.03110,0.00043,-0.02884,0.02928,-0.01921,0.96143,3.05516,0.77973,-0.20633,0.96845,1.58159,-0.43345,2.99270,1.57583,-0.22239,-0.22962,0.00000,A,085406.90
3.07395,57.67064567,11.99790083,57.67064250,11.99792583,08:54:07.074696,0.00629,0.96410,0.96410,-0.00335,0.00000,-0.02635,0.00132,-0.03415,0.03114,-0.02482,1.00003,3.06540,0.77973,-0.20633,0.96845,1.58953,-0.43512,2.99270,1.57583,-0.22239,-0.22962,0.00000,A,085406.90
3.08398,57.67064567,11.99790083,57.67064250,11.99792583,08:54:07.084744,0.00614,0.96410,0.96410,-0.00348,0.00000,-0.03153,0.00544,-0.03459,0.02416,-0.02643,1.00809,3.07555,0.77973,-0.20634,0.96845,1.59712,-0.43671,2.99270,1.57583,-0.22239,-0.22962,0.00000,A,085406.90
3.09399,57.67064567,11.99790083,57.67064250,11.99792583,08:54:07.094722,0.00596,0.96410,0.96410,-0.00366,0.00000,-0.03006,0.00527,-0.03950,0.02101,-0.02941,1.01101,3.08604,0.77973,-0.20634,0.96845,1.60481,-0.43832,2.99270,1.57583,-0.22239,-0.22962,0.00000,A,085406.90
3.10685,57.67064567,11.99790083,57.67064233,11.99792733,08:54:07.107596,0.00862,0.96410,0.96410,-0.00382,0.00000,-0.02966,0.00525,-0.04299,0.03242,-0.03272,1.02035,3.09594,0.77973,-0.20634,0.96845,1.61261,-0.43995,3.09399,1.66503,-0.24092,-0.20485,0.00000,A,085407.00
3.11484,57.67064567,11.99790083,57.67064233,11.99792733,08:54:07.115573,0.00644,0.96410,0.96410,-0.00397,0.00000,-0.03057,0.00769,-0.04449,0.03590,-0.03501,1.01338,3.10651,0.78071,-0.20568,0.96845,1.63168,-0.44380,3.09399,1.66503,-0.24092,-0.20485,0.00000,A,085407.00
3.12470,57.67064567,11.99790083,57.67064233,11.99792733,08:54:07.125464,0.00610,0.96410,0.96410,-0.00414,0.00000,-0.02440,0.00327,-0.04331,0.04096,-0.03446,1.01260,3.11629,0.78071,-0.20569,0.96845,1.63989,-0.44551,3.09399,1.66503,-0.24092,-0.20485,0.00000,A,085407.00
3.13472,57.67064567,11.99790083,57.67064233,11.99792733,08:54:07.135451,0.00593,0.96410,0.96410,-0.00422,0.00000,-0.02879,0.01090,-0.04261,0.04231,-0.04023,1.00615,3.12685,0.78071,-0.20569,0.96845,1.64725,-0.44705,3.09399,1.66503,-0.24092,-0.20485,0.00000,A,085407.00
3.14519,57.67064567,11.99790083,57.67064233,11.99792733,08:54:07.145948,0.00620,0.96410,0.96410,-0.00436,0.00000,-0.02095,0.01917,-0.03854,0.03057,-0.03688,0.99204,3.13669,0.78071,-0.20569,0.96845,1.65507,-0.44868,3.09399,1.66503,-0.24092,-0.20485,0.00000,A,085407.00
3.15501,57.67064567,11.99790083,57.67064233,11.99792733,08:54:07.155748,0.00585,0.96410,0.96410,-0.00443,0.00000,-0.02013,0.02346,-0.03493,0.02699,-0.04084,0.99338,3.14719,0.78071,-0.20570,0.96845,1.66292,-0.45032,3.09399,1.66503,-0.24092,-0.20485,0.00000,A,085407.00
3.16578,57.67064567,11.99790083,57.67064233,11.99792733,08:54:07.166534,0.00641,0.96410,0.96410,-0.00449,0.00000,-0.01383,0.02974,-0.03225,0.02776,-0.03395,0.99251,3.15738,0.78071,-0.20570,0.96845,1.67060,-0.45193,3.09399,1.66503,-0.24092,-0.20485,0.00000,A,085407.00
3.17768,57.67064567,11.99790083,57.67064233,11.99792733,08:54:07.178439,0.00814,0.96410,0.96410,-0.00450,0.00000,-0.01969,0.03419,-0.02663,0.01915,-0.03190,0.98717,3.16955,0.78071,-0.20570,0.96845,1.67864,-0.45361,3.09399,1.66503,-0.24092,-0.20485,0.00000,A,085407.00
3.18582,57.67064567,11.99790083,57.67064233,11.99792733,08:54:07.186579,0.00609,0.96410,0.96410,-0.00460,0.00000,-0.01900,0.03313,-0.02455,0.01973,-0.03229,0.98202,3.17755,0.78071,-0.20571,0.96845,1.68776,-0.45551,3.09399,1.66503,-0.24092,-0.20485,0.00000,A,085407.00
3.19570,57.67064567,11.99790083,57.67064233,11.99792733,08:54:07.196437,0.00577,0.96410,0.96410,-0.00463,0.00000,-0.01506,0.02872,-0.02132,0.01835,-0.03623,0.97464,3.18771,0.78071,-0.20571,0.96845,1.69398,-0.45681,3.09399,1.66503,-0.24092,-0.20485,0.00000,A,085407.00
3.20920,57.67064567,11.99790083,57.67064217,11.99792883,08:54:07.209941,0.00908,0.92323,0.92323,-0.00465,0.00000,-0.01563,0.03147,-0.02171,0.01181,-0.03866,0.97601,3.19795,0.82143,-0.20571,0.96845,1.70177,-0.45844,3.19570,1.75423,-0.25945,-0.20485,0.00000,A,085407.10
3.21648,57.67064567,11.99790083,57.67064217,11.99792883,08:54:07.217226,0.00603,0.92323,0.92323,-0.00467,0.00000,-0.01640,0.02550,-0.02438,0.00515,-0.04331,0.97362,3.20814,0.82250,-0.20529,0.96845,1.72069,-0.46229,3.19570,1.75423,-0.25945,-0.20485,0.00000,A,085407.10
3.22731,57.67064567,11.99790083,57.67064217,11.99792883,08:54:07.228078,0.00666,0.92323,0.92323,-0.00471,0.00000,-0.01392,0.01863,-0.02315,-0.00657,-0.04295,0.97298,3.21858,0.82250,-0.20530,0.96845,1.72892,-0.46401,3.19570,1.75423,-0.25945,-0.20485,0.00000,A,085407.10
3.23626,57.67064567,11.99790083,57.67064217,11.99792883,08:54:07.236996,0.00544,0.92323,0.92323,-0.00471,0.00000,-0.00894,0.01526,-0.02641,-0.01435,-0.05128,0.96582,3.22846,0.82250,-0.20530,0.96845,1.73720,-0.46573,3.19570,1.75423,-0.25945,-0.20485,0.00000,A,085407.10
3.24726,57.67064567,11.99790083,57.67064217,11.99792883,08:54:07.248136,0.00626,0.92323,0.92323,-0.00466,0.00000,-0.00954,0.00396,-0.02520,-0.00804,-0.04867,0.97578,3.23872,0.82250,-0.20530,0.96845,1.74491,-0.46734,3.19570,1.75423,-0.25945,-0.20485,0.00000,A,085407.10
3.25714,57.67064567,11.99790083,57.67064217,11.99792883,08:54:07.257904,0.00594,0.92323,0.92323,-0.00462,0.00000,-0.00581,-0.00552,-0.02688,0.00301,-0.05255,0.97956,3.24901,0.82250,-0.20531,0.96845,1.75360,-0.46915,3.19570,1.75423,-0.25945,-0.20485,0.00000,A,085407.10
3.26767,57.67064567,11.99790083,57.67064217,11.99792883,08:54:07.268426,0.00627,0.92323,0.92323,-0.00454,0.00000,0.00119,-0.01055,-0.02623,0.00569,-0.05038,0.97593,3.25934,0.82250,-0.20531,0.96845,1.76155,-0.47081,3.19570,1.75423,-0.25945,-0.20485,0.00000,A,085407.10
3.27757,57.67064567,11.99790083,57.67064217,11.99792883,08:54:07.278312,0.00600,0.92323,0.92323,-0.00438,0.00000,-0.00283,-0.01333,-0.03143,0.01442,-0.04672,0.98776,3.26943,0.82250,-0.20531,0.96845,1.77005,-0.47258,3.19570,1.75423,-0.25945,-0.20485,0.00000,A,085407.10
3.28810,57.67064567,11.99790083,57.67064217,11.99792883,08:54:07.288862,0.00635,0.92323,0.92323,-0.00428,0.00000,0.00104,-0.02078,-0.02481,0.01180,-0.03595,1.00834,3.27946,0.82250,-0.20531,0.96845,1.77810,-0.47426,3.19570,1.75423,-0.25945,-0.20485,0.00000,A,085407.10
3.29740,57.67064567,11.99790083,57.67064217,11.99792883,08:54:07.298136,0.00548,0.92323,0.92323,-0.00414,0.00000,-0.00441,-0.02155,-0.02696,0.00771,-0.03075,1.02394,3.28947,0.82250,-0.20532,0.96845,1.78634,-0.47598,3.19570,1.75423,-0.25945,-0.20485,0.00000,A,085407.10
3.31073,57.67064567,11.99790083,57.67064217,11.99793033,08:54:07.311471,0.00860,0.92323,0.92323,-0.00406,0.00000,-0.00711,-0.03130,-0.02061,0.02251,-0.03216,1.03476,3.29987,0.82250,-0.20532,0.96845,1.79403,-0.47758,3.29740,1.84343,-0.25945,0.00000,0.00000,A,085407.20
3.31826,57.67064567,11.99790083,57.67064217,11.99793033,08:54:07.319093,0.00596,0.92323,0.92323,-0.00402,0.00000,-0.00870,-0.03053,-0.02018,0.03045,-0.03208,1.02749,3.30984,0.82402,-0.12680,0.96845,1.80970,-0.46233,3.29740,1.84343,-0.25945,0.00000,0.00000,A,085407.20
3.32902,57.67064567,11.99790083,57.67064217,11.99793033,08:54:07.329764,0.00655,0.92323,0.92323,-0.00399,0.00000,-0.00927,-0.03023,-0.02193,0.04902,-0.03234,1.00975,3.32008,0.82402,-0.12680,0.96845,1.81811,-0.46340,3.29740,1.84343,-0.25945,0.00000,0.00000,A,085407.20
3.33834,57.67064567,11.99790083,57.67064217,11.99793033,08:54:07.339088,0.00570,0.92323,0.92323,-0.00398,0.00000,-0.00936,-0.01982,-0.01707,0.05819,-0.02187,0.96696,3.33027,0.82402,-0.12680,0.96845,1.82649,-0.46447,3.29740,1.84343,-0.25945,0.00000,0.00000,A,085407.20
3.34924,57.67064567,11.99790083,57.67064217,11.99793033,08:54:07.349996,0.00643,0.92323,0.92323,-0.00396,0.00000,-0.00350,-0.01034,-0.01323,0.04718,-0.00960,0.94302,3.34051,0.82402,-0.12681,0.96845,1.83438,-0.46548,3.29740,1.84343,-0.25945,0.00000,0.00000,A,085407.20
3.35832,57.67064567,11.99790083,57.67064217,11.99793033,08:54:07.359057,0.00533,0.92323,0.92323,-0.00390,0.00000,-0.00500,0.00570,-0.01363,0.03246,0.00526,0.93687,3.35053,0.82402,-0.12681,0.96845,1.84291,-0.46657,3.29740,1.84343,-0.25945,0.00000,0.00000,A,085407.20
3.37015,57.67064567,11.99790083,57.67064217,11.99793033,08:54:07.370891,0.00697,0.92323,0.92323,-0.00385,0.00000,-0.00846,0.01456,-0.01298,0.02620,0.00600,0.95157,3.36151,0.82402,-0.12681,0.96845,1.85087,-0.46759,3.29740,1.84343,-0.25945,0.00000,0.00000,A,085407.20
3.38006,57.67064567,11.99790083,57.67064217,11.99793033,08:54:07.380809,0.00659,0.92323,0.92323,-0.00384,0.00000,-0.01453,0.01257,-0.01227,0.00506,-0.00022,0.96494,3.37206,0.82402,-0.12681,0.96845,1.86012,-0.46877,3.29740,1.84343,-0.25945,0.00000,0.00000,A,085407.20
3.39000,57.67064567,11.99790083,57.67064217,11.99793033,08:54:07.390752,0.00635,0.92323,0.92323,-0.00389,0.00000,-0.02409,0.01318,-0.01335,-0.00634,-0.00243,1.00185,3.38150,0.82402,-0.12682,0.96845,1.86850,-0.46984,3.29740,1.84343,-0.25945,0.00000,0.00000,A,085407.20
3.40037,57.67064567,11.99790083,57.67064217,11.99793033,08:54:07.401102,0.00650,0.92323,0.92323,-0.00401,0.00000,-0.03052,0.01071,-0.01898,-0.01492,-0.00286,1.01377,3.39253,0.82402,-0.12682,0.96845,1.87651,-0.47086,3.29740,1.84343,-0.25945,0.00000,0.00000,A,085407.20
3.41269,57.67064567,11.99790083,57.67064200,11.99793200,08:54:07.413444,0.00863,0.92323,0.92323,-0.00421,0.00000,-0.03082,-0.00352,-0.02448,-0.01822,-0.00457,1.01366,3.40175,0.82402,-0.12682,0.96845,1.88522,-0.47197,3.40037,1.94254,-0.27799,-0.18486,0.00000,A,085407.30
3.42028,57.67064567,11.99790083,57.67064200,11.99793200,08:54:07.421017,0.00604,0.92323,0.92323,-0.00436,0.00000,-0.02999,-0.01086,-0.02635,-0.01293,-0.01755,1.01689,3.41195,0.82597,-0.14892,0.96845,1.90857,-0.48077,3.40037,1.94254,-0.27799,-0.18486,0.00000,A,085407.30
3.43044,57.67064567,11.99790083,57.67064200,11.99793200,08:54:07.431205,0.00602,0.92323,0.92323,-0.00454,0.00000,-0.03372,-0.01682,-0.02736,-0.00256,-0.01973,1.00653,3.42214,0.82597,-0.14892,0.96845,1.91709,-0.48205,3.40037,1.94254,-0.27799,-0.18486,0.00000,A,085407.30
3.44064,57.67064567,11.99790083,57.67064200,11.99793200,08:54:07.441374,0.00602,0.92323,0.92323,-0.00473,0.00000,-0.03565,-0.02401,-0.03062,-0.00433,-0.01779,0.99122,3.43267,0.82597,-0.14892,0.96845,1.92527,-0.48328,3.40037,1.94254,-0.27799,-0.18486,0.00000,A,085407.30
3.45088,57.67064567,11.99790083,57.67064200,11.99793200,08:54:07.451631,0.00600,0.92323,0.92323,-0.00493,0.00000,-0.03084,-0.02373,-0.03653,0.01157,-0.02022,0.99394,3.44257,0.82597,-0.14893,0.96845,1.93376,-0.48456,3.40037,1.94254,-0.27799,-0.18486,0.00000,A,085407.30
3.46134,57.67064567,11.99790083,57.67064200,11.99793200,08:54:07.462082,0.00629,0.94739,0.94739,-0.00508,0.00000,-0.03317,-0.02327,-0.03495,0.02956,-0.01296,0.99439,3.45303,0.87056,-0.14893,0.96845,1.94211,-0.48581,3.40037,1.94254,-0.27799,-0.18486,0.00000,A,085407.30
3.47149,57.67064567,11.99790083,57.67064200,11.99793200,08:54:07.472260,0.00624,0.94739,0.94739,-0.00526,0.00000,-0.03570,-0.02006,-0.03433,0.03776,-0.01686,0.99350,3.46298,0.87056,-0.14893,0.96845,1.95120,-0.48718,3.40037,1.94254,-0.27799,-0.18486,0.00000,A,085407.30
3.48151,57.67064567,11.99790083,57.67064200,11.99793200,08:54:07.482268,0.00603,0.94739,0.94739,-0.00544,0.00000,-0.03958,-0.01609,-0.03401,0.04513,-0.01513,0.98529,3.47325,0.87056,-0.14893,0.96845,1.95966,-0.48845,3.40037,1.94254,-0.27799,-0.18486,0.00000,A,085407.30
3.49097,57.67064567,11.99790083,57.67064200,11.99793200,08:54:07.491699,0.00530,0.94739,0.94739,-0.00567,0.00000,-0.04356,-0.01194,-0.03003,0.03347,-0.01750,0.96294,3.48317,0.87056,-0.14894,0.96845,1.96846,-0.48977,3.40037,1.94254,-0.27799,-0.18486,0.00000,A,085407.30
3.50457,57.67064567,11.99790083,57.67064183,11.99793367,08:54:07.505333,0.00872,0.94739,0.94739,-0.00592,0.00000,-0.04211,-0.00736,-0.02927,0.02686,-0.02006,0.95023,3.49371,0.87056,-0.14894,0.96845,1.97682,-0.49102,3.49097,2.04165,-0.29652,-0.18486,0.00000,A,085407.40
3.51345,57.67064567,11.99790083,57.67064183,11.99793367,08:54:07.514187,0.00742,0.94739,0.94739,-0.00621,0.00000,-0.04217,-0.00902,-0.02466,0.02163,-0.02324,0.94813,3.50421,0.87146,-0.16258,0.96845,2.00745,-0.49926,3.49097,2.04165,-0.29652,-0.18486,0.00000,A,085407.40
3.52276,57.67064567,11.99790083,57.67064183,11.99793367,08:54:07.523514,0.00655,0.94739,0.94739,-0.00652,0.00000,-0.04838,-0.00397,-0.02277,-0.00213,-0.03353,0.95152,3.51401,0.87146,-0.16259,0.96845,2.01727,-0.50088,3.49097,2.04165,-0.29652,-0.18486,0.00000,A,085407.40
3.53256,57.67064567,11.99790083,57.67064183,11.99793367,08:54:07.533308,0.00617,0.94739,0.94739,-0.00677,0.00000,-0.03924,-0.01099,-0.02201,-0.01121,-0.04481,0.96571,3.52426,0.87146,-0.16259,0.96845,2.02485,-0.50212,3.49097,2.04165,-0.29652,-0.18486,0.00000,A,085407.40
3.54268,57.67064567,11.99790083,57.67064183,11.99793367,08:54:07.543427,0.00604,0.94739,0.94739,-0.00698,0.00000,-0.04219,-0.02519,-0.02166,-0.02987,-0.05406,0.98373,3.53442,0.87146,-0.16259,0.96845,2.03350,-0.50354,3.49097,2.04165,-0.29652,-0.18486,0.00000,A,085407.40
3.55380,57.67064567,11.99790083,57.67064183,11.99793367,08:54:07.554539,0.00699,0.94739,0.94739,-0.00722,0.00000,-0.03821,-0.03498,-0.02563,-0.00030,-0.05199,1.00786,3.54542,0.87146,-0.16259,0.96845,2.04220,-0.50497,3.49097,2.04165,-0.29652,-0.18486,0.00000,A,085407.40
3.56340,57.67064567,11.99790083,57.67064183,11.99793367,08:54:07.564154,0.00633,0.94739,0.94739,-0.00745,0.00000,-0.03331,-0.04629,-0.02671,-0.01437,-0.05652,1.01839,3.55496,0.87146,-0.16260,0.96845,2.05199,-0.50658,3.49097,2.04165,-0.29652,-0.18486,0.00000,A,085407.40
3.57350,57.67064567,11.99790083,57.67064183,11.99793367,08:54:07.574263,0.00622,0.94739,0.94739,-0.00756,0.00000,-0.03397,-0.05027,-0.02907,0.00812,-0.04684,1.04051,3.56507,0.87146,-0.16260,0.96845,2.06006,-0.50791,3.49097,2.04165,-0.29652,-0.18486,0.00000,A,085407.40
3.58337,57.67064567,11.99790083,57.67064183,11.99793367,08:54:07.584122,0.00589,0.94739,0.94739,-0.00768,0.00000,-0.03379,-0.05151,-0.03197,0.02817,-0.05174,1.04998,3.57519,0.87146,-0.16260,0.96845,2.06869,-0.50932,3.49097,2.04165,-0.29652,-0.18486,0.00000,A,085407.40
3.59398,57.67064567,11.99790083,57.67064183,11.99793367,08:54:07.594724,0.00631,0.94739,0.94739,-0.00781,0.00000,-0.03068,-0.04599,-0.02826,0.06846,-0.04855,1.05308,3.58555,0.87146,-0.16261,0.96845,2.07734,-0.51074,3.49097,2.04165,-0.29652,-0.18486,0.00000,A,085407.40
3.60623,57.67064567,11.99790083,57.67064167,11.99793533,08:54:07.606988,0.00838,0.94739,0.94739,-0.00793,0.00000,-0.03274,-0.03895,-0.02499,0.06619,-0.04392,1.02469,3.59557,0.87146,-0.16261,0.96845,2.08645,-0.51224,3.59398,2.14075,-0.31505,-0.18486,0.00000,A,085407.50
3.61469,57.67064567,11.99790083,57.67064167,11.99793533,08:54:07.615435,0.00659,0.94739,0.94739,-0.00805,0.00000,-0.03446,-0.01558,-0.02345,0.05571,-0.03899,0.99666,3.60603,0.87290,-0.17103,0.96845,2.10636,-0.51776,3.59398,2.14075,-0.31505,-0.18486,0.00000,A,085407.50
3.62405,57.67064567,11.99790083,57.67064167,11.99793533,08:54:07.625030,0.00577,0.94739,0.94739,-0.00820,0.00000,-0.03640,-0.00184,-0.02543,0.04076,-0.03254,0.96861,3.61590,0.87290,-0.17103,0.96845,2.11552,-0.51934,3.59398,2.14075,-0.31505,-0.18486,0.00000,A,085407.50
3.63463,57.67064567,11.99790083,57.67064167,11.99793533,08:54:07.635377,0.00616,0.94739,0.94739,-0.00832,0.00000,-0.03710,0.00837,-0.02878,0.02355,-0.03865,0.95247,3.62640,0.87290,-0.17103,0.96845,2.12361,-0.52074,3.59398,2.14075,-0.31505,-0.18486,0.00000,A,085407.50
3.64476,57.67064567,11.99790083,57.67064167,11.99793533,08:54:07.645522,0.00610,0.94739,0.94739,-0.00849,0.00000,-0.03516,0.01509,-0.02967,0.02136,-0.03891,0.95007,3.63641,0.87290,-0.17104,0.96845,2.13262,-0.52230,3.59398,2.14075,-0.31505,-0.18486,0.00000,A,085407.50
3.65523,57.67064567,11.99790083,57.67064167,11.99793533,08:54:07.655967,0.00638,0.94739,0.94739,-0.00861,0.00000,-0.03349,0.01354,-0.03362,0.00134,-0.04472,0.93219,3.64740,0.87290,-0.17104,0.96845,2.14134,-0.52381,3.59398,2.14075,-0.31505,-0.18486,0.00000,A,085407.50
3.66579,57.67064567,11.99790083,57.67064167,11.99793533,08:54:07.666555,0.00674,0.94739,0.94739,-0.00872,0.00000,-0.03257,0.00666,-0.03625,-0.00546,-0.04464,0.93646,3.65698,0.87290,-0.17104,0.96845,2.15051,-0.52540,3.59398,2.14075,-0.31505,-0.18486,0.00000,A,085407.50
3.67788,57.67064567,11.99790083,57.67064167,11.99793533,08:54:07.678649,0.00865,1.11716,1.11716,-0.00879,0.00000,-0.03274,-0.00023,-0.03885,-0.00372,-0.04685,0.95920,3.66977,0.93532,-0.17104,0.96845,2.15927,-0.52691,3.59398,2.14075,-0.31505,-0.18486,0.00000,A,085407.50
3.68550,57.67064567,11.99790083,57.67064167,11.99793533,08:54:07.686253,0.00607,1.11716,1.11716,-0.00895,0.00000,-0.03439,-0.00129,-0.03780,-0.00926,-0.04652,0.97944,3.67724,0.93532,-0.17105,0.96845,2.17091,-0.52892,3.59398,2.14075,-0.31505,-0.18486,0.00000,A,085407.50
3.69565,57.67064567,11.99790083,57.67064167,11.99793533,08:54:07.696390,0.00602,1.11716,1.11716,-0.00895,0.00000,-0.03094,-0.00893,-0.03845,-0.01435,-0.04805,1.00239,3.68764,0.93532,-0.17105,0.96845,2.17781,-0.53012,3.59398,2.14075,-0.31505,-0.18486,0.00000,A,085407.50
3.70837,57.67064567,11.99790083,57.67064150,11.99793683,08:54:07.709156,0.00856,1.11716,1.11716,-0.00901,0.00000,-0.03375,-0.00984,-0.03662,-0.00486,-0.02724,1.03141,3.69776,0.93532,-0.17105,0.96845,2.18729,-0.53176,3.69565,2.22995,-0.33358,-0.20485,0.00000,A,085407.60
3.71756,57.67064567,11.99790083,57.67064150,11.99793683,08:54:07.718297,0.00757,1.11716,1.11716,-0.00911,0.00000,-0.03231,-0.01486,-0.03305,-0.00612,-0.04821,1.04819,3.70888,0.93591,-0.18388,0.96845,2.19539,-0.53626,3.69565,2.22995,-0.33358,-0.20485,0.00000,A,085407.60
3.72632,57.67064567,11.99790083,57.67064150,11.99793683,08:54:07.727075,0.00613,1.11716,1.11716,-0.00924,0.00000,-0.03464,-0.01898,-0.03145,-0.00123,-0.04389,1.04448,3.71807,0.93591,-0.18389,0.96845,2.20620,-0.53827,3.69565,2.22995,-0.33358,-0.20485,0.00000,A,085407.60
3.73638,57.67064567,11.99790083,57.67064150,11.99793683,08:54:07.737120,0.00594,1.11716,1.11716,-0.00930,0.00000,-0.03146,-0.01833,-0.02418,0.00890,-0.04891,1.04018,3.72836,0.93591,-0.18389,0.96845,2.21407,-0.53973,3.69565,2.22995,-0.33358,-0.20485,0.00000,A,085407.60
3.74699,57.67064567,11.99790083,57.67064150,11.99793683,08:54:07.747742,0.00637,1.11716,1.11716,-0.00937,0.00000,-0.03493,-0.01989,-0.03025,0.01506,-0.04520,1.02576,3.73870,0.93591,-0.18389,0.96845,2.22345,-0.54148,3.69565,2.22995,-0.33358,-0.20485,0.00000,A,085407.60
3.75700,57.67064567,11.99790083,57.67064150,11.99793683,08:54:07.757739,0.00619,1.11716,1.11716,-0.00949,0.00000,-0.03322,-0.02077,-0.02359,0.01041,-0.04441,0.99883,3.74890,0.93591,-0.18390,0.96845,2.23308,-0.54327,3.69565,2.22995,-0.33358,-0.20485,0.00000,A,085407.60
3.76760,57.67064567,11.99790083,57.67064150,11.99793683,08:54:07.768365,0.00662,1.11716,1.11716,-0.00959,0.00000,-0.02971,-0.02107,-0.02197,0.00668,-0.03910,0.96162,3.75883,0.93591,-0.18390,0.96845,2.24225,-0.54498,3.69565,2.22995,-0.33358,-0.20485,0.00000,A,085407.60
3.77807,57.67064567,11.99790083,57.67064150,11.99793683,08:54:07.778809,0.00688,1.11716,1.11716,-0.00965,0.00000,-0.03123,-0.01603,-0.02216,0.00827,-0.03246,0.93384,3.77021,0.93591,-0.18390,0.96845,2.25159,-0.54672,3.69565,2.22995,-0.33358,-0.20485,0.00000,A,085407.60
3.78773,57.67064567,11.99790083,57.67064150,11.99793683,08:54:07.788482,0.00634,1.11716,1.11716,-0.00975,0.00000,-0.03365,-0.01207,-0.02522,0.00533,-0.02872,0.91139,3.77913,0.93591,-0.18391,0.96845,2.26189,-0.54864,3.69565,2.22995,-0.33358,-0.20485,0.00000,A,085407.60
3.79732,57.67064567,11.99790083,57.67064150,11.99793683,08:54:07.798056,0.00578,1.11716,1.11716,-0.00982,0.00000,-0.03295,-0.00428,-0.02333,0.02697,-0.02698,0.91707,3.78952,0.93591,-0.18391,0.96845,2.27050,-0.55024,3.69565,2.22995,-0.33358,-0.20485,0.00000,A,085407.60
3.81065,57.67064567,11.99790083,57.67064133,11.99793883,08:54:07.811405,0.00892,1.11716,1.11716,-0.00990,0.00000,-0.03795,0.00717,-0.02395,0.03492,-0.02575,0.93367,3.79959,0.93591,-0.18391,0.96845,2.27961,-0.55194,3.79732,2.34888,-0.35212,-0.15458,0.00000,A,085407.70
3.81822,57.67064567,11.99790083,57.67064133,11.99793883,08:54:07.818965,0.00609,1.11716,1.11716,-0.01004,0.00000,-0.04156,0.01252,-0.02469,0.03103,-0.03379,0.94923,3.80982,0.93799,-0.17262,0.96845,2.31401,-0.55475,3.79732,2.34888,-0.35212,-0.15458,0.00000,A,085407.70
3.82831,57.67064567,11.99790083,57.67064133,11.99793883,08:54:07.829065,0.00600,1.11716,1.11716,-0.01021,0.00000,-0.03928,0.02013,-0.02862,0.01756,-0.03459,0.97295,3.82002,0.93799,-0.17263,0.96845,2.32358,-0.55642,3.79732,2.34888,-0.35212,-0.15458,0.00000,A,085407.70
3.83894,57.67064567,11.99790083,57.67064133,11.99793883,08:54:07.839675,0.00643,1.11716,1.11716,-0.01032,0.00000,-0.04177,0.02697,-0.03661,-0.00163,-0.03402,0.98963,3.83111,0.93799,-0.17263,0.96845,2.33280,-0.55803,3.79732,2.34888,-0.35212,-0.15458,0.00000,A,085407.70
3.84875,57.67064567,11.99790083,57.67064133,11.99793883,08:54:07.849496,0.00606,1.11716,1.11716,-0.01049,0.00000,-0.04357,0.02590,-0.03558,0.00092,-0.03697,1.01228,3.84030,0.93799,-0.17263,0.96845,2.34282,-0.55978,3.79732,2.34888,-0.35212,-0.15458,0.00000,A,085407.70
3.85944,57.67064567,11.99790083,57.67064133,11.99793883,08:54:07.860201,0.00609,1.11716,1.11716,-0.01060,0.00000,-0.05078,0.02511,-0.04254,-0.00347,-0.04152,1.03059,3.85118,0.93799,-0.17264,0.96845,2.35162,-0.56132,3.79732,2.34888,-0.35212,-0.15458,0.00000,A,085407.70
3.87067,57.67064567,11.99790083,57.67064133,11.99793883,08:54:07.871425,0.00714,1.11716,1.11716,-0.01084,0.00000,-0.05088,0.01320,-0.04157,-0.01412,-0.05666,1.04070,3.86123,0.93799,-0.17264,0.96845,2.36146,-0.56304,3.79732,2.34888,-0.35212,-0.15458,0.00000,A,085407.70
3.87950,57.67064567,11.99790083,57.67064133,11.99793883,08:54:07.880366,0.00540,1.11716,1.11716,-0.01109,0.00000,-0.04755,0.00405,-0.03977,-0.01390,-0.05708,1.02845,3.87168,0.93799,-0.17264,0.96845,2.37151,-0.56479,3.79732,2.34888,-0.35212,-0.15458,0.00000,A,085407.70
3.89066,57.67064567,11.99790083,57.67064133,11.99793883,08:54:07.891402,0.00639,1.11716,1.11716,-0.01124,0.00000,-0.04574,-0.00114,-0.03801,-0.00940,-0.05480,1.00807,3.88211,0.93799,-0.17265,0.96845,2.38030,-0.56633,3.79732,2.34888,-0.35212,-0.15458,0.00000,A,085407.70
3.90013,57.67064567,11.99790083,57.67064133,11.99793883,08:54:07.900875,0.00568,1.08476,1.08476,-0.01144,0.00000,-0.04142,-0.00293,-0.02860,-0.00297,-0.05241,0.98362,3.89207,0.99403,-0.17265,0.96845,2.39044,-0.56810,3.79732,2.34888,-0.35212,-0.15458,0.00000,A,085407.70
3.91347,57.67064567,11.99790083,57.67064133,11.99794050,08:54:07.914213,0.00883,1.08476,1.08476,-0.01157,0.00000,-0.03852,-0.00274,-0.02028,0.01653,-0.04871,0.97996,3.90233,0.99403,-0.17265,0.96845,2.40004,-0.56977,3.90013,2.44799,-0.35212,0.00000,0.00000,A,085407.80
3.92079,57.67064567,11.99790083,57.67064133,11.99794050,08:54:07.921541,0.00605,1.08476,1.08476,-0.01171,0.00000,-0.04009,0.00462,-0.01450,0.02563,-0.04306,0.96236,3.91237,0.99468,-0.10662,0.96845,2.41294,-0.55479,3.90013,2.44799,-0.35212,0.00000,0.00000,A,085407.80
3.93093,57.67064567,11.99790083,57.67064133,11.99794050,08:54:07.931702,0.00600,1.08476,1.08476,-0.01184,0.00000,-0.04323,0.00891,-0.01257,0.01649,-0.04389,0.95360,3.92262,0.99468,-0.10662,0.96845,2.42298,-0.55586,3.90013,2.44799,-0.35212,0.00000,0.00000,A,085407.80
3.94103,57.67064567,11.99790083,57.67064133,11.99794050,08:54:07.941879,0.00582,1.08476,1.08476,-0.01201,0.00000,-0.04617,0.02022,-0.00972,0.01734,-0.03828,0.96723,3.93312,0.99468,-0.10662,0.96845,2.43284,-0.55692,3.90013,2.44799,-0.35212,0.00000,0.00000,A,085407.80
3.95170,57.67064567,11.99790083,57.67064133,11.99794050,08:54:07.952487,0.00639,1.08476,1.08476,-0.01220,0.00000,-0.05426,0.02646,-0.01573,0.01205,-0.03357,0.98153,3.94290,0.99468,-0.10663,0.96845,2.44298,-0.55801,3.90013,2.44799,-0.35212,0.00000,0.00000,A,085407.80
3.96151,57.67064567,11.99790083,57.67064133,11.99794050,08:54:07.962275,0.00596,1.08476,1.08476,-0.01247,0.00000,-0.04921,0.02690,-0.01824,-0.00391,-0.03682,0.97938,3.95318,0.99468,-0.10663,0.96845,2.45312,-0.55909,3.90013,2.44799,-0.35212,0.00000,0.00000,A,085407.80
3.97231,57.67064567,11.99790083,57.67064133,11.99794050,08:54:07.973072,0.00664,1.08476,1.08476,-0.01264,0.00000,-0.06176,0.03098,-0.02690,-0.00721,-0.04103,0.97811,3.96386,0.99468,-0.10663,0.96845,2.46290,-0.56014,3.90013,2.44799,-0.35212,0.00000,0.00000,A,085407.80
3.98234,57.67064567,11.99790083,57.67064133,11.99794050,08:54:07.983073,0.00647,1.08476,1.08476,-0.01298,0.00000,-0.06434,0.02790,-0.03270,-0.00920,-0.03775,0.97450,3.97432,0.99468,-0.10663,0.96845,2.47365,-0.56129,3.90013,2.44799,-0.35212,0.00000,0.00000,A,085407.80
3.99231,57.67064567,11.99790083,57.67064133,11.99794050,08:54:07.993066,0.00624,1.08476,1.08476,-0.01329,0.00000,-0.05516,0.02042,-0.03363,-0.01598,-0.03913,0.96711,3.98377,0.99468,-0.10664,0.96845,2.48375,-0.56238,3.90013,2.44799,-0.35212,0.00000,0.00000,A,085407.80
4.00403,57.67064567,11.99790083,57.67064117,11.99794250,08:54:08.004773,0.00776,1.08476,1.08476,-0.01348,0.00000,-0.05838,0.01856,-0.03783,-0.01523,-0.04207,0.96488,3.99400,0.99468,-0.10664,0.96845,2.49345,-0.56342,3.99231,2.56692,-0.37065,-0.15458,0.00000,A,085407.90
4.01295,57.67064567,11.99790083,57.67064117,11.99794250,08:54:08.013712,0.00648,1.08476,1.08476,-0.01370,0.00000,-0.06239,0.01398,-0.03764,-0.00475,-0.04687,0.96995,4.00417,0.99641,-0.12489,0.96845,2.53156,-0.57323,3.99231,2.56692,-0.37065,-0.15458,0.00000,A,085407.90
4.02266,57.67064567,11.99790083,57.67064117,11.99794250,08:54:08.023393,0.00600,1.08476,1.08476,-0.01401,0.00000,-0.06012,0.01506,-0.03601,-0.00222,-0.05892,0.98840,4.01469,0.99641,-0.12489,0.96845,2.54212,-0.57456,3.99231,2.56692,-0.37065,-0.15458,0.00000,A,085407.90
4.03329,57.67064567,11.99790083,57.67064117,11.99794250,08:54:08.034046,0.00643,1.08476,1.08476,-0.01425,0.00000,-0.06253,0.01294,-0.03089,0.00616,-0.05980,1.00831,4.02455,0.99641,-0.12489,0.96845,2.55195,-0.57579,3.99231,2.56692,-0.37065,-0.15458,0.00000,A,085407.90
4.04296,57.67064567,11.99790083,57.67064117,11.99794250,08:54:08.043713,0.00591,1.08476,1.08476,-0.01453,0.00000,-0.06739,0.01387,-0.02868,0.01501,-0.07009,1.01322,4.03501,0.99641,-0.12490,0.96845,2.56190,-0.57704,3.99231,2.56692,-0.37065,-0.15458,0.00000,A,085407.90
4.05362,57.67064567,11.99790083,57.67064117,11.99794250,08:54:08.054378,0.00638,1.08476,1.08476,-0.01486,0.00000,-0.06652,0.00838,-0.02686,0.00834,-0.06775,1.00485,4.04494,0.99641,-0.12490,0.96845,2.57211,-0.57833,3.99231,2.56692,-0.37065,-0.15458,0.00000,A,085407.90
4.06373,57.67064567,11.99790083,57.67064117,11.99794250,08:54:08.064468,0.00630,1.08476,1.08476,-0.01518,0.00000,-0.06571,0.01572,-0.02450,0.00206,-0.07289,1.01319,4.05567,0.99641,-0.12490,0.96845,2.58223,-0.57960,3.99231,2.56692,-0.37065,-0.15458,0.00000,A,085407.90
4.07430,57.67064567,11.99790083,57.67064117,11.99794250,08:54:08.075054,0.00667,1.08476,1.08476,-0.01551,0.00000,-0.06710,0.01711,-0.02175,-0.00535,-0.07196,1.00327,4.06547,0.99641,-0.12491,0.96845,2.59266,-0.58091,3.99231,2.56692,-0.37065,-0.15458,0.00000,A,085407.90
4.08684,57.67064567,11.99790083,57.67064117,11.99794250,08:54:08.087607,0.00538,1.08476,1.08476,-0.01581,0.00000,-0.06590,0.01874,-0.03238,-0.00322,-0.08139,0.99582,4.07893,0.99641,-0.12491,0.96845,2.60273,-0.58218,3.99231,2.56692,-0.37065,-0.15458,0.00000,A,085407.90
4.09791,57.67064567,11.99790083,57.67064117,11.99794250,08:54:08.098674,0.00633,1.08476,1.08476,-0.01625,0.00000,-0.06199,0.02331,-0.03580,-0.00416,-0.07993,0.99595,4.08944,0.99641,-0.12491,0.96845,2.61543,-0.58377,3.99231,2.56692,-0.37065,-0.15458,0.00000,A,085407.90
4.10980,57.67064567,11.99790083,57.67064117,11.99794450,08:54:08.110550,0.00804,1.08476,1.08476,-0.01650,0.00000,-0.06593,0.01763,-0.04175,-0.01539,-0.08599,0.97740,4.09956,0.99641,-0.12491,0.96845,2.62612,-0.58512,4.09791,2.68585,-0.37065,0.00000,0.00000,A,085408.00
4.11922,57.67064567,11.99790083,57.67064117,11.99794450,08:54:08.119977,0.00729,1.08476,1.08476,-0.01671,0.00000,-0.06027,0.01944,-0.04696,-0.01818,-0.09126,0.98534,4.10973,0.99831,-0.07713,0.96845,2.65026,-0.57327,4.09791,2.68585,-0.37065,0.00000,0.00000,A,085408.00
4.12770,57.67064567,11.99790083,57.67064117,11.99794450,08:54:08.128450,0.00552,1.08543,1.08543,-0.01693,0.00000,-0.04801,0.01563,-0.04387,-0.02156,-0.09408,0.98264,4.11964,1.04039,-0.07713,0.96845,2.66131,-0.57413,4.09791,2.68585,-0.37065,0.00000,0.00000,A,085408.00
4.13934,57.67064567,11.99790083,57.67064117,11.99794450,08:54:08.140075,0.00707,1.08543,1.08543,-0.01693,0.00000,-0.03848,0.00861,-0.04384,-0.02412,-0.09109,0.95791,4.13025,1.04039,-0.07713,0.96845,2.67073,-0.57486,4.09791,2.68585,-0.37065,0.00000,0.00000,A,085408.00
4.14836,57.67064567,11.99790083,57.67064117,11.99794450,08:54:08.149117,0.00592,1.08543,1.08543,-0.01692,0.00000,-0.03313,0.00543,-0.03677,-0.01565,-0.09552,0.94918,4.14008,1.04039,-0.07713,0.96845,2.68202,-0.57573,4.09791,2.68585,-0.37065,0.00000,0.00000,A,085408.00
4.15927,57.67064567,11.99790083,57.67064117,11.99794450,08:54:08.160107,0.00666,1.08543,1.08543,-0.01684,0.00000,-0.02621,0.00073,-0.02998,0.01044,-0.08777,0.93772,4.15042,1.04039,-0.07714,0.96845,2.69208,-0.57651,4.09791,2.68585,-0.37065,0.00000,0.00000,A,085408.00
4.16850,57.67064567,11.99790083,57.67064117,11.99794450,08:54:08.169358,0.00572,1.08543,1.08543,-0.01672,0.00000,-0.01623,-0.00107,-0.02301,0.02022,-0.08443,0.94678,4.16041,1.04039,-0.07714,0.96845,2.70292,-0.57735,4.09791,2.68585,-0.37065,0.00000,0.00000,A,085408.00
4.17954,57.67064567,11.99790083,57.67064117,11.99794450,08:54:08.180284,0.00657,1.08543,1.08543,-0.01653,0.00000,-0.01565,0.00452,-0.00360,0.00571,-0.08506,0.95516,4.17091,1.04039,-0.07714,0.96845,2.71294,-0.57813,4.09791,2.68585,-0.37065,0.00000,0.00000,A,085408.00
4.18911,57.67064567,11.99790083,57.67064117,11.99794450,08:54:08.189870,0.00595,1.08543,1.08543,-0.01637,0.00000,-0.01777,0.00530,0.00015,0.00501,-0.08967,0.98653,4.18087,1.04039,-0.07714,0.96845,2.72422,-0.57900,4.09791,2.68585,-0.37065,0.00000,0.00000,A,085408.00
4.19999,57.67064567,11.99790083,57.67064117,11.99794450,08:54:08.200762,0.00666,1.08543,1.08543,-0.01622,0.00000,-0.01015,0.00487,0.00485,0.01472,-0.10901,1.01215,4.19109,1.04039,-0.07715,0.96845,2.73436,-0.57978,4.09791,2.68585,-0.37065,0.00000,0.00000,A,085408.00
4.21118,57.67064567,11.99790083,57.67064100,11.99794617,08:54:08.212011,0.00766,1.08543,1.08543,-0.01601,0.00000,-0.00786,0.00625,0.00633,0.02538,-0.10245,1.01829,4.20106,1.04039,-0.07715,0.96845,2.74521,-0.58062,4.19999,2.78496,-0.38918,-0.18486,0.00000,A,085408.10
4.22103,57.67064567,11.99790083,57.67064100,11.99794617,08:54:08.222404,0.00732,1.08543,1.08543,-0.01577,0.00000,-0.00313,0.01065,0.00116,0.01166,-0.10349,1.00601,4.21154,1.04080,-0.11824,0.96845,2.74919,-0.59172,4.19999,2.78496,-0.38918,-0.18486,0.00000,A,085408.10
4.22938,57.67064567,11.99790083,57.67064100,11.99794617,08:54:08.230134,0.00550,1.08543,1.08543,-0.01549,0.00000,0.00508,0.01126,0.00054,0.00453,-0.09096,1.00993,4.22142,1.04080,-0.11824,0.96845,2.76072,-0.59309,4.19999,2.78496,-0.38918,-0.18486,0.00000,A,085408.10
4.24106,57.67064567,11.99790083,57.67064100,11.99794617,08:54:08.242504,0.00700,1.08543,1.08543,-0.01513,0.00000,0.01418,0.00757,-0.00380,-0.01083,-0.08997,1.01379,4.23184,1.04080,-0.11824,0.96845,2.77021,-0.59422,4.19999,2.78496,-0.38918,-0.18486,0.00000,A,085408.10
4.24982,57.67064567,11.99790083,57.67064100,11.99794617,08:54:08.250575,0.00558,1.08543,1.08543,-0.01466,0.00000,0.02130,0.00664,-0.00699,-0.02985,-0.08912,1.01262,4.24180,1.04080,-0.11824,0.96845,2.78154,-0.59556,4.19999,2.78496,-0.38918,-0.18486,0.00000,A,085408.10
4.26224,57.67064567,11.99790083,57.67064100,11.99794617,08:54:08.262975,0.00782,1.08543,1.08543,-0.01415,0.00000,0.02385,-0.00389,-0.00634,-0.03149,-0.11301,1.01808,4.25237,1.04080,-0.11825,0.96845,2.79128,-0.59672,4.19999,2.78496,-0.38918,-0.18486,0.00000,A,085408.10
4.27083,57.67064567,11.99790083,57.67064100,11.99794617,08:54:08.271714,0.00622,1.08543,1.08543,-0.01360,0.00000,0.03474,-0.01595,-0.00475,-0.01173,-0.10185,1.01589,4.26222,1.04080,-0.11825,0.96845,2.80258,-0.59807,4.19999,2.78496,-0.38918,-0.18486,0.00000,A,085408.10
4.28175,57.67064567,11.99790083,57.67064100,11.99794617,08:54:08.282497,0.00695,1.08543,1.08543,-0.01299,0.00000,0.04770,-0.02464,-0.00110,0.00193,-0.11064,1.00200,4.27263,1.04080,-0.11825,0.96845,2.81277,-0.59928,4.19999,2.78496,-0.38918,-0.18486,0.00000,A,085408.10
4.29094,57.67064567,11.99790083,57.67064100,11.99794617,08:54:08.291692,0.00595,1.08543,1.08543,-0.01227,0.00000,0.05510,-0.02613,0.00696,0.02805,-0.08552,0.97376,4.28272,1.04080,-0.11826,0.96845,2.82348,-0.60055,4.19999,2.78496,-0.38918,-0.18486,0.00000,A,085408.10
4.30388,57.67064567,11.99790083,57.67064083,11.99794800,08:54:08.304621,0.00872,1.08543,1.08543,-0.01153,0.00000,0.06010,-0.01720,0.02116,0.05622,-0.08098,0.95419,4.29287,1.04080,-0.11826,0.96845,2.83368,-0.60177,4.29094,2.89398,-0.40771,-0.16838,0.00000,A,085408.20
4.31143,57.67064567,11.99790083,57.67064083,11.99794800,08:54:08.312183,0.00609,1.08543,1.08543,-0.01078,0.00000,0.06122,-0.00383,0.03982,0.06340,-0.05394,0.93222,4.30286,1.04173,-0.13734,0.96845,2.85793,-0.61021,4.29094,2.89398,-0.40771,-0.16838,0.00000,A,085408.20
4.32227,57.67064567,11.99790083,57.67064083,11.99794800,08:54:08.323019,0.00673,1.08543,1.08543,-0.01006,0.00000,0.05996,0.01944,0.05094,0.06237,-0.04437,0.92985,4.31326,1.04173,-0.13734,0.96845,2.86842,-0.61167,4.29094,2.89398,-0.40771,-0.16838,0.00000,A,085408.20
4.33144,57.67064567,11.99790083,57.67064083,11.99794800,08:54:08.332192,0.00573,1.08543,1.08543,-0.00936,0.00000,0.06277,0.03584,0.06409,0.05238,-0.03736,0.95534,4.32324,1.04173,-0.13735,0.96845,2.87962,-0.61322,4.29094,2.89398,-0.40771,-0.16838,0.00000,A,085408.20
4.34357,57.67064567,11.99790083,57.67064083,11.99794800,08:54:08.344308,0.00766,1.08543,1.08543,-0.00875,0.00000,0.06414,0.04669,0.06557,0.01699,-0.04032,1.00041,4.33397,1.04173,-0.13735,0.96845,2.88899,-0.61451,4.29094,2.89398,-0.40771,-0.16838,0.00000,A,085408.20
4.35223,57.67064567,11.99790083,57.67064083,11.99794800,08:54:08.352988,0.00614,1.10429,1.10429,-0.00801,0.00000,0.06465,0.04499,0.06103,-0.01738,-0.04085,1.02982,4.34370,1.07005,-0.13735,0.96845,2.90059,-0.61612,4.29094,2.89398,-0.40771,-0.16838,0.00000,A,085408.20
4.36299,57.67064567,11.99790083,57.67064083,11.99794800,08:54:08.363736,0.00671,1.10429,1.10429,-0.00734,0.00000,0.06126,0.03487,0.05163,-0.04698,-0.05324,1.01636,4.35407,1.07005,-0.13735,0.96845,2.91088,-0.61754,4.29094,2.89398,-0.40771,-0.16838,0.00000,A,085408.20
4.37256,57.67064567,11.99790083,57.67064083,11.99794800,08:54:08.373309,0.00609,1.10429,1.10429,-0.00665,0.00000,0.06651,0.01818,0.04323,-0.04788,-0.06019,1.01672,4.36412,1.07005,-0.13736,0.96845,2.92225,-0.61912,4.29094,2.89398,-0.40771,-0.16838,0.00000,A,085408.20
4.38419,57.67064567,11.99790083,57.67064083,11.99794800,08:54:08.384927,0.00737,1.10429,1.10429,-0.00596,0.00000,0.06791,0.01142,0.03358,-0.03964,-0.05784,1.00947,4.37462,1.07005,-0.13736,0.96845,2.93240,-0.62052,4.29094,2.89398,-0.40771,-0.16838,0.00000,A,085408.20
4.39313,57.67064567,11.99790083,57.67064083,11.99794800,08:54:08.393884,0.00612,1.10429,1.10429,-0.00513,0.00000,0.06868,-0.00269,0.02267,-0.03994,-0.06536,0.99253,4.38462,1.07005,-0.13736,0.96845,2.94451,-0.62220,4.29094,2.89398,-0.40771,-0.16838,0.00000,A,085408.20
4.40581,57.67064567,11.99790083,57.67064083,11.99794983,08:54:08.406548,0.00861,1.10429,1.10429,-0.00445,0.00000,0.07828,-0.01675,0.02074,-0.03704,-0.06026,0.98804,4.39492,1.07005,-0.13737,0.96845,2.95435,-0.62356,4.39313,3.00300,-0.40771,0.00000,0.00000,A,085408.30
4.41358,57.67064567,11.99790083,57.67064083,11.99794983,08:54:08.414433,0.00620,1.10429,1.10429,-0.00358,0.00000,0.07445,-0.02973,0.02068,-0.01854,-0.05975,0.97914,4.40488,1.07078,-0.08482,0.96845,2.96674,-0.61026,4.39313,3.00300,-0.40771,0.00000,0.00000,A,085408.30
4.42525,57.67064567,11.99790083,57.67064083,11.99794983,08:54:08.425986,0.00769,1.10429,1.10429,-0.00285,0.00000,0.07581,-0.03597,0.02501,0.02789,-0.05008,0.94779,4.41536,1.07078,-0.08482,0.96845,2.97715,-0.61115,4.39313,3.00300,-0.40771,0.00000,0.00000,A,085408.30
4.43392,57.67064567,11.99790083,57.67064083,11.99794983,08:54:08.434678,0.00617,1.10429,1.10429,-0.00207,0.00000,0.07558,-0.03607,0.03528,0.04856,-0.04713,0.92659,4.42549,1.07078,-0.08483,0.96845,2.98857,-0.61212,4.39313,3.00300,-0.40771,0.00000,0.00000,A,085408.30
4.44416,57.67064567,11.99790083,57.67064083,11.99794983,08:54:08.444909,0.00622,1.10429,1.10429,-0.00142,0.00000,0.07367,-0.03146,0.04273,0.05874,-0.04232,0.92452,4.43571,1.07078,-0.08483,0.96845,2.99879,-0.61299,4.39313,3.00300,-0.40771,0.00000,0.00000,A,085408.30
4.45402,57.67064567,11.99790083,57.67064083,11.99794983,08:54:08.454766,0.00592,1.10429,1.10429,-0.00079,0.00000,0.07323,-0.01777,0.06290,0.05034,-0.03275,0.93636,4.44584,1.07078,-0.08483,0.96845,3.00973,-0.61392,4.39313,3.00300,-0.40771,0.00000,0.00000,A,085408.30
4.46550,57.67064567,11.99790083,57.67064083,11.99794983,08:54:08.466234,0.00721,1.10429,1.10429,-0.00021,0.00000,0.06975,-0.00995,0.06924,0.02956,-0.04301,0.98527,4.45723,1.07078,-0.08483,0.96845,3.02033,-0.61482,4.39313,3.00300,-0.40771,0.00000,0.00000,A,085408.30
4.47520,57.67064567,11.99790083,57.67064083,11.99794983,08:54:08.475955,0.00672,1.10429,1.10429,0.00043,0.00000,0.06813,0.00028,0.06993,0.01805,-0.04708,1.02813,4.46658,1.07078,-0.08484,0.96845,3.03266,-0.61587,4.39313,3.00300,-0.40771,0.00000,0.00000,A,085408.30
4.48717,57.67064567,11.99790083,57.67064083,11.99794983,08:54:08.487908,0.00580,1.10429,1.10429,0.00092,0.00000,0.06306,0.00774,0.06302,0.00348,-0.04870,1.05995,4.47936,1.07078,-0.08484,0.96845,3.04277,-0.61673,4.39313,3.00300,-0.40771,0.00000,0.00000,A,085408.30
4.49757,57.67064567,11.99790083,57.67064083,11.99794983,08:54:08.498327,0.00600,1.10429,1.10429,0.00153,0.00000,0.06309,0.00985,0.05871,-0.01617,-0.05016,1.08617,4.48928,1.07078,-0.08484,0.96845,3.05580,-0.61784,4.39313,3.00300,-0.40771,0.00000,0.00000,A,085408.30
4.50961,57.67064567,11.99790083,57.67064033,11.99795167,08:54:08.510355,0.00779,1.10429,1.10429,0.00202,0.00000,0.06966,0.00338,0.04673,-0.02611,-0.04783,1.08829,4.49975,1.07078,-0.08484,0.96845,3.06663,-0.61877,4.49757,3.11202,-0.46331,-0.47160,0.00000,A,085408.40
4.51844,57.67064567,11.99790083,57.67064033,11.99795167,08:54:08.519188,0.00653,1.10429,1.10429,0.00260,0.00000,0.07158,-0.00353,0.03791,-0.02904,-0.04096,1.04564,4.50952,1.07212,-0.23253,0.96845,3.07552,-0.66561,4.49757,3.11202,-0.46331,-0.47160,0.00000,A,085408.40
4.52809,57.67064567,11.99790083,57.67064033,11.99795167,08:54:08.528838,0.00599,1.10429,1.10429,0.00321,0.00000,0.07602,-0.00506,0.03672,-0.03042,-0.03593,0.99942,4.51998,1.07212,-0.23253,0.96845,3.08654,-0.66822,4.49757,3.11202,-0.46331,-0.47160,0.00000,A,085408.40
4.53826,57.67064567,11.99790083,57.67064033,11.99795167,08:54:08.539018,0.00599,1.10429,1.10429,0.00379,0.00000,0.08122,-0.01009,0.03964,-0.02753,-0.01961,0.95406,4.52999,1.07212,-0.23253,0.96845,3.09674,-0.67064,4.49757,3.11202,-0.46331,-0.47160,0.00000,A,085408.40
4.54829,57.67064567,11.99790083,57.67064033,11.99795167,08:54:08.549028,0.00583,1.10429,1.10429,0.00442,0.00000,0.07540,-0.01115,0.04222,0.00266,0.00341,0.91966,4.54043,1.07212,-0.23254,0.96845,3.10732,-0.67315,4.49757,3.11202,-0.46331,-0.47160,0.00000,A,085408.40
4.55872,57.67064567,11.99790083,57.67064033,11.99795167,08:54:08.559473,0.00606,1.18696,1.18696,0.00498,0.00000,0.06721,-0.00545,0.05218,0.03174,0.00051,0.90078,4.55035,1.05696,-0.23254,0.96845,3.11796,-0.67567,4.49757,3.11202,-0.46331,-0.47160,0.00000,A,085408.40
4.56862,57.67064567,11.99790083,57.67064033,11.99795167,08:54:08.569355,0.00578,1.18696,1.18696,0.00542,0.00000,0.06264,0.00315,0.06269,0.01375,0.00212,0.90624,4.56080,1.05696,-0.23255,0.96845,3.12845,-0.67816,4.49757,3.11202,-0.46331,-0.47160,0.00000,A,085408.40
4.58569,57.67064567,11.99790083,57.67064033,11.99795167,08:54:08.586437,0.01265,1.18696,1.18696,0.00578,0.00000,0.06042,0.01083,0.07147,0.01307,0.00506,0.95918,4.57742,1.05696,-0.23255,0.96845,3.13887,-0.68063,4.49757,3.11202,-0.46331,-0.47160,0.00000,A,085408.40
4.59288,57.67064567,11.99790083,57.67064033,11.99795167,08:54:08.593634,0.00599,1.18696,1.18696,0.00651,0.00000,0.05059,0.01832,0.07279,-0.00463,-0.00942,0.98016,4.58447,1.05696,-0.23256,0.96845,3.15630,-0.68476,4.49757,3.11202,-0.46331,-0.47160,0.00000,A,085408.40
4.60551,57.67064567,11.99790083,57.67064017,11.99795367,08:54:08.606252,0.00844,1.80000,1.80000,0.00658,0.00000,0.04913,0.02272,0.06661,-0.00365,-0.00571,1.02985,4.59480,1.08188,-0.23256,0.96845,3.16363,-0.68650,4.59288,3.23095,-0.48184,-0.15458,0.00000,A,085408.50
4.61345,57.67064567,11.99790083,57.67064017,11.99795367,08:54:08.614192,0.00620,1.80000,1.80000,0.00684,0.00000,0.04541,0.01961,0.05591,-0.01234,-0.01179,1.04762,4.60477,1.08267,-0.20267,0.96845,3.19415,-0.68421,4.59288,3.23095,-0.48184,-0.15458,0.00000,A,085408.50
4.62395,57.67064567,11.99790083,57.67064017,11.99795367,08:54:08.624693,0.00652,1.80000,1.80000,0.00705,0.00000,0.04868,0.01376,0.04601,-0.02469,-0.01473,1.04606,4.61523,1.08267,-0.20268,0.96845,3.20490,-0.68642,4.59288,3.23095,-0.48184,-0.15458,0.00000,A,085408.50
4.63355,57.67064567,11.99790083,57.67064017,11.99795367,08:54:08.634304,0.00594,1.80000,1.80000,0.00731,0.00000,0.04515,0.00688,0.04334,-0.03576,-0.01279,1.04192,4.62514,1.08267,-0.20268,0.96845,3.21587,-0.68868,4.59288,3.23095,-0.48184,-0.15458,0.00000,A,085408.50
4.64514,57.67064567,11.99790083,57.67064017,11.99795367,08:54:08.645877,0.00722,1.80000,1.80000,0.00750,0.00000,0.04507,-0.00185,0.03722,-0.04375,-0.00933,0.99945,4.63569,1.08267,-0.20268,0.96845,3.22607,-0.69077,4.59288,3.23095,-0.48184,-0.15458,0.00000,A,085408.50
4.65413,57.67064567,11.99790083,57.67064017,11.99795367,08:54:08.654882,0.00603,1.80000,1.80000,0.00777,0.00000,0.04151,-0.00703,0.04023,-0.02187,-0.00821,0.99153,4.64571,1.08267,-0.20269,0.96845,3.23814,-0.69326,4.59288,3.23095,-0.48184,-0.15458,0.00000,A,085408.50
4.66502,57.67064567,11.99790083,57.67064017,11.99795367,08:54:08.665789,0.00674,1.80000,1.80000,0.00788,0.00000,0.04242,-0.01829,0.04991,-0.02366,-0.01615,1.00254,4.65613,1.08267,-0.20269,0.96845,3.24797,-0.69528,4.59288,3.23095,-0.48184,-0.15458,0.00000,A,085408.50
4.68001,57.67064567,11.99790083,57.67064017,11.99795367,08:54:08.680762,0.01154,1.80000,1.80000,0.00804,0.00000,0.04174,-0.02285,0.05324,-0.02983,-0.00506,1.01211,4.66605,1.08267,-0.20270,0.96845,3.25915,-0.69758,4.59288,3.23095,-0.48184,-0.15458,0.00000,A,085408.50
