Time,lat_estimated,lon_estimated,latitude,longitude,RealTime,CalculationTime,MeasuredVelocity,FilteredVelocity,Roll,SteeringAngle,RollRate,gy,gz,ax,ay,az,imu_read_timing,v_estimated,yaw_estimated,heading_estimated,x_estimated,y_estimated,GPS_timestamp,x_GPS,y_GPS,theta_GPS,theta_GPS_noUnwrap,status,NMEA timestamp
0.04136,57.67097783,11.99832483,57.67097783,11.99832483,12:09:40.716585,0.04112,1.26500,1.26500,0.00013,0.06934,0.01650,0.00247,-0.06688,-0.03242,-0.01847,0.98935,0.00001,1.26500,-0.18639,-0.14603,2.64619,-0.38918,0.00000,2.64619,-0.38918,-0.14603,0.00000,A,120940.60
0.05381,57.67097783,11.99832483,57.67097783,11.99832483,12:09:40.729014,0.01095,1.26500,1.26500,0.00063,0.06903,0.03784,-0.02574,-0.05835,-0.00907,-0.01134,0.94977,0.04249,0.08903,-0.00630,-0.14603,1.77167,-0.40189,0.00000,2.64619,-0.38918,-0.14603,0.00000,A,120940.60
0.06475,57.67097783,11.99832483,57.67097783,11.99832483,12:09:40.740100,0.00948,1.26500,1.26500,0.00137,0.06903,0.04089,-0.02803,-0.05815,0.00733,-0.01187,0.94045,0.05469,0.08903,-0.00620,-0.14603,1.77345,-0.40184,0.00000,2.64619,-0.38918,-0.14603,0.00000,A,120940.60
0.07660,57.67097783,11.99832483,57.67097783,11.99832483,12:09:40.751795,0.01034,1.26500,1.26500,0.00174,0.06903,0.03670,-0.01627,-0.05791,0.03035,0.00188,0.94469,0.06569,0.08903,-0.00615,-0.14603,1.77443,-0.40181,0.00000,2.64619,-0.38918,-0.14603,0.00000,A,120940.60
0.09125,57.67097783,11.99832483,57.67097767,11.99832700,12:09:40.766456,0.01330,1.26500,1.26500,0.00208,0.06903,0.03533,-0.00571,-0.05396,0.02472,0.00548,0.94564,0.07737,0.08903,-0.00609,-0.14603,1.77543,-0.40178,0.07660,2.77503,-0.40771,-0.14286,0.00000,A,120940.70
0.10379,57.67097783,11.99832483,57.67097767,11.99832700,12:09:40.778989,0.01114,1.24101,1.24101,0.00242,0.06903,0.03615,0.01061,-0.05718,0.02653,0.00229,0.96667,0.09214,0.17026,-0.01192,-0.14603,2.32772,-0.49613,0.07660,2.77503,-0.40771,-0.14286,0.00000,A,120940.70
0.11317,57.67097783,11.99832483,57.67097767,11.99832700,12:09:40.788376,0.00796,1.24101,1.24101,0.00293,0.06903,0.03692,0.01811,-0.05313,-0.00547,0.00683,0.98539,0.10464,0.17026,-0.01177,-0.14603,2.33048,-0.49606,0.07660,2.77503,-0.40771,-0.14286,0.00000,A,120940.70
0.12341,57.67097783,11.99832483,57.67097767,11.99832700,12:09:40.798627,0.00794,1.24101,1.24101,0.00322,0.06900,0.03497,0.02160,-0.05905,-0.02440,-0.00217,1.03088,0.11491,0.17026,-0.01167,-0.14603,2.33237,-0.49601,0.07660,2.77503,-0.40771,-0.14286,0.00000,A,120940.70
0.13351,57.67097783,11.99832483,57.67097767,11.99832700,12:09:40.808702,0.00786,1.24101,1.24101,0.00347,0.06892,0.03407,0.01392,-0.06880,-0.06155,-0.00053,1.04142,0.12533,0.17026,-0.01157,-0.14603,2.33411,-0.49597,0.07660,2.77503,-0.40771,-0.14286,0.00000,A,120940.70
0.14373,57.67097783,11.99832483,57.67097767,11.99832700,12:09:40.818939,0.00790,1.24101,1.24101,0.00371,0.06872,0.03365,-0.00304,-0.07045,-0.07280,-0.01021,1.04597,0.13521,0.17026,-0.01148,-0.14603,2.33585,-0.49593,0.07660,2.77503,-0.40771,-0.14286,0.00000,A,120940.70
0.15387,57.67097783,11.99832483,57.67097767,11.99832700,12:09:40.829067,0.00787,1.24101,1.24101,0.00393,0.06844,0.03281,-0.00874,-0.08067,-0.08019,-0.02634,1.04073,0.14567,0.17026,-0.01139,-0.14603,2.33757,-0.49589,0.07660,2.77503,-0.40771,-0.14286,0.00000,A,120940.70
0.16414,57.67097783,11.99832483,57.67097767,11.99832700,12:09:40.839349,0.00795,1.24101,1.24101,0.00425,0.06801,0.04458,-0.01485,-0.08146,-0.04062,-0.01467,1.04581,0.15557,0.17026,-0.01129,-0.14603,2.33931,-0.49585,0.07660,2.77503,-0.40771,-0.14286,0.00000,A,120940.70
0.17440,57.67097783,11.99832483,57.67097767,11.99832700,12:09:40.849636,0.00804,1.24101,1.24101,0.00462,0.06753,0.04976,-0.01578,-0.08380,-0.00452,-0.00360,1.02495,0.16615,0.17026,-0.01120,-0.14603,2.34103,-0.49581,0.07660,2.77503,-0.40771,-0.14286,0.00000,A,120940.70
0.18541,57.67097783,11.99832483,57.67097767,11.99832700,12:09:40.860604,0.00895,1.24101,1.24101,0.00499,0.06708,0.04962,-0.00935,-0.07985,0.00133,0.00445,0.99973,0.17710,0.17026,-0.01110,-0.14603,2.34281,-0.49576,0.07660,2.77503,-0.40771,-0.14286,0.00000,A,120940.70
0.19544,57.67097783,11.99832483,57.67097767,11.99832700,12:09:40.870649,0.00862,1.24101,1.24101,0.00536,0.06662,0.04822,-0.00246,-0.07696,-0.00057,0.00683,0.97403,0.18698,0.17026,-0.01100,-0.14603,2.34466,-0.49572,0.07660,2.77503,-0.40771,-0.14286,0.00000,A,120940.70
0.21145,57.67097783,11.99832483,57.67097750,11.99832917,12:09:40.886625,0.01402,1.24101,1.24101,0.00566,0.06620,0.04780,0.00749,-0.07199,-0.00965,0.00474,0.94448,0.19684,0.17026,-0.01092,-0.14603,2.34635,-0.49568,0.19544,2.90387,-0.42625,-0.14286,0.00000,A,120940.80
0.22249,57.67097783,11.99832483,57.67097750,11.99832917,12:09:40.897668,0.00972,1.24101,1.24101,0.00595,0.06541,0.04561,0.01652,-0.06751,-0.04025,0.00130,0.91367,0.21228,0.17190,-0.01664,-0.14603,2.71630,-0.56005,0.19544,2.90387,-0.42625,-0.14286,0.00000,A,120940.80
0.23214,57.67097783,11.99832483,57.67097750,11.99832917,12:09:40.907315,0.00834,1.24101,1.24101,0.00650,0.06464,0.04526,0.01760,-0.06448,-0.06684,0.00173,0.89957,0.22327,0.17190,-0.01649,-0.14603,2.71917,-0.56000,0.19544,2.90387,-0.42625,-0.14286,0.00000,A,120940.80
0.24190,57.67097783,11.99832483,57.67097750,11.99832917,12:09:40.917091,0.00793,1.24101,1.24101,0.00675,0.06374,0.04726,0.00935,-0.06576,-0.06830,-0.00449,0.88697,0.23372,0.17190,-0.01640,-0.14603,2.72085,-0.55997,0.19544,2.90387,-0.42625,-0.14286,0.00000,A,120940.80
0.25265,57.67097783,11.99832483,57.67097750,11.99832917,12:09:40.927831,0.00850,1.24101,1.24101,0.00703,0.06278,0.04901,-0.00379,-0.06765,-0.05516,-0.00998,0.91315,0.24373,0.17190,-0.01632,-0.14603,2.72260,-0.55994,0.19544,2.90387,-0.42625,-0.14286,0.00000,A,120940.80
0.26233,57.67097783,11.99832483,57.67097750,11.99832917,12:09:40.937977,0.00800,1.24101,1.24101,0.00733,0.06184,0.05112,-0.01617,-0.06996,-0.05347,-0.02026,0.94623,0.25413,0.17190,-0.01623,-0.14603,2.72437,-0.55992,0.19544,2.90387,-0.42625,-0.14286,0.00000,A,120940.80
0.27256,57.67097783,11.99832483,57.67097750,11.99832917,12:09:40.947763,0.00804,1.24101,1.24101,0.00765,0.06102,0.05571,-0.02260,-0.07249,-0.03779,-0.02049,0.98851,0.26431,0.17190,-0.01614,-0.14603,2.72611,-0.55989,0.19544,2.90387,-0.42625,-0.14286,0.00000,A,120940.80
0.28411,57.67097783,11.99832483,57.67097750,11.99832917,12:09:40.959299,0.00939,1.24101,1.24101,0.00801,0.06040,0.05918,-0.01696,-0.07597,0.02279,0.01336,1.05226,0.27433,0.17190,-0.01606,-0.14603,2.72787,-0.55986,0.19544,2.90387,-0.42625,-0.14286,0.00000,A,120940.80
0.29385,57.67097783,11.99832483,57.67097750,11.99832917,12:09:40.969036,0.00832,1.24101,1.24101,0.00842,0.06000,0.06081,-0.00885,-0.07137,0.01716,-0.02530,1.06813,0.28495,0.17190,-0.01597,-0.14603,2.72978,-0.55983,0.19544,2.90387,-0.42625,-0.14286,0.00000,A,120940.80
0.31005,57.67097783,11.99832483,57.67097733,11.99833117,12:09:40.985235,0.01435,1.22715,1.22715,0.00869,0.05983,0.05563,0.00045,-0.07461,0.00223,-0.02349,1.06387,0.29538,0.24365,-0.01589,-0.14603,2.74832,-0.56009,0.29385,3.02280,-0.44478,-0.15458,0.00000,A,120940.90
0.32116,57.67097783,11.99832483,57.67097733,11.99833117,12:09:40.996363,0.00975,1.22715,1.22715,0.00904,0.05969,0.06210,0.01434,-0.07748,-0.02310,-0.02080,1.01239,0.31156,0.24513,-0.02188,-0.14603,2.92872,-0.59370,0.29385,3.02280,-0.44478,-0.15458,0.00000,A,120940.90
0.33098,57.67097783,11.99832483,57.67097733,11.99833117,12:09:41.006184,0.00842,1.22715,1.22715,0.00982,0.05955,0.06316,0.01785,-0.07738,-0.07479,-0.02162,0.95513,0.32277,0.24513,-0.02168,-0.14603,2.93296,-0.59366,0.29385,3.02280,-0.44478,-0.15458,0.00000,A,120940.90
0.34146,57.67097783,11.99832483,57.67097733,11.99833117,12:09:41.016644,0.00870,1.22715,1.22715,0.01015,0.05929,0.06465,0.01829,-0.08105,-0.05531,0.00678,0.91109,0.33236,0.24513,-0.02156,-0.14603,2.93539,-0.59364,0.29385,3.02280,-0.44478,-0.15458,0.00000,A,120940.90
0.35146,57.67097783,11.99832483,57.67097733,11.99833117,12:09:41.026641,0.00851,1.22715,1.22715,0.01055,0.05884,0.07269,0.01003,-0.08287,-0.04068,-0.00458,0.90776,0.34259,0.24513,-0.02145,-0.14603,2.93785,-0.59362,0.29385,3.02280,-0.44478,-0.15458,0.00000,A,120940.90
0.36149,57.67097783,11.99832483,57.67097733,11.99833117,12:09:41.036672,0.00836,1.22715,1.22715,0.01099,0.05822,0.07778,0.00349,-0.07889,-0.03090,-0.01252,0.90650,0.35265,0.24513,-0.02133,-0.14603,2.94030,-0.59359,0.29385,3.02280,-0.44478,-0.15458,0.00000,A,120940.90
0.37151,57.67097783,11.99832483,57.67097733,11.99833117,12:09:41.046703,0.00819,1.22715,1.22715,0.01143,0.05743,0.07935,0.00042,-0.08193,-0.02067,0.00243,0.90605,0.36314,0.24513,-0.02122,-0.14603,2.94276,-0.59357,0.29385,3.02280,-0.44478,-0.15458,0.00000,A,120940.90
0.38259,57.67097783,11.99832483,57.67097733,11.99833117,12:09:41.057756,0.00904,1.22715,1.22715,0.01191,0.05635,0.08097,0.00517,-0.07716,-0.01755,0.01137,0.92686,0.37315,0.24513,-0.02111,-0.14603,2.94533,-0.59355,0.29385,3.02280,-0.44478,-0.15458,0.00000,A,120940.90
0.39260,57.67097783,11.99832483,57.67097733,11.99833117,12:09:41.067785,0.00872,1.22715,1.22715,0.01231,0.05505,0.07719,0.01188,-0.08053,-0.01507,0.01535,0.96972,0.38355,0.24513,-0.02100,-0.14603,2.94779,-0.59353,0.29385,3.02280,-0.44478,-0.15458,0.00000,A,120940.90
0.40916,57.67097783,11.99832483,57.67097717,11.99833333,12:09:41.084355,0.01509,1.22715,1.22715,0.01275,0.05358,0.07906,0.02227,-0.07807,-0.01900,0.02705,1.01882,0.39438,0.24513,-0.02089,-0.14603,2.95039,-0.59352,0.39260,3.15164,-0.46331,-0.14286,0.00000,A,120941.00
0.42014,57.67097783,11.99832483,57.67097717,11.99833333,12:09:41.095334,0.00962,1.22715,1.22715,0.01313,0.05100,0.07426,0.01554,-0.08042,-0.09166,0.01096,1.06014,0.41067,0.24656,-0.02615,-0.14603,3.08154,-0.61712,0.39260,3.15164,-0.46331,-0.14286,0.00000,A,120941.00
0.43030,57.67097783,11.99832483,57.67097717,11.99833333,12:09:41.105497,0.00876,1.22715,1.22715,0.01400,0.04947,0.07424,-0.00083,-0.08834,-0.11007,0.01444,1.04755,0.42186,0.24656,-0.02598,-0.14603,3.08583,-0.61712,0.39260,3.15164,-0.46331,-0.14286,0.00000,A,120941.00
0.44016,57.67097783,11.99832483,57.67097717,11.99833333,12:09:41.115358,0.00847,1.22715,1.22715,0.01427,0.04811,0.06928,-0.01597,-0.09205,-0.08937,0.00782,1.01474,0.43188,0.24656,-0.02588,-0.14603,3.08837,-0.61712,0.39260,3.15164,-0.46331,-0.14286,0.00000,A,120941.00
0.45062,57.67097783,11.99832483,57.67097717,11.99833333,12:09:41.125805,0.00845,1.22715,1.22715,0.01455,0.04707,0.07294,-0.03795,-0.09031,-0.04989,0.00379,0.98845,0.44167,0.24656,-0.02579,-0.14603,3.09080,-0.61713,0.39260,3.15164,-0.46331,-0.14286,0.00000,A,120941.00
0.46033,57.67097783,11.99832483,57.67097717,11.99833333,12:09:41.135555,0.00798,1.22715,1.22715,0.01488,0.04627,0.07958,-0.05388,-0.09870,-0.02511,-0.00445,0.94720,0.45203,0.24656,-0.02570,-0.14603,3.09327,-0.61713,0.39260,3.15164,-0.46331,-0.14286,0.00000,A,120941.00
0.47115,57.67097783,11.99832483,57.67097717,11.99833333,12:09:41.146328,0.00861,1.22715,1.22715,0.01522,0.04574,0.07906,-0.05555,-0.09814,-0.01839,0.01218,0.91743,0.46224,0.24656,-0.02561,-0.14603,3.09577,-0.61714,0.39260,3.15164,-0.46331,-0.14286,0.00000,A,120941.00
0.48119,57.67097783,11.99832483,57.67097717,11.99833333,12:09:41.156386,0.00848,1.22715,1.22715,0.01559,0.04540,0.08160,-0.05264,-0.09480,0.00467,0.01300,0.88429,0.47268,0.24656,-0.02552,-0.14603,3.09832,-0.61714,0.39260,3.15164,-0.46331,-0.14286,0.00000,A,120941.00
0.49270,57.67097783,11.99832483,57.67097717,11.99833333,12:09:41.167879,0.00931,1.28991,1.28991,0.01589,0.04514,0.07626,-0.03448,-0.09794,0.03514,0.03833,0.90086,0.48369,0.31751,-0.02543,-0.14603,3.11753,-0.61759,0.39260,3.15164,-0.46331,-0.14286,0.00000,A,120941.00
0.50783,57.67097783,11.99832483,57.67097667,11.99833533,12:09:41.183014,0.01383,1.28991,1.28991,0.01622,0.04480,0.07113,-0.02164,-0.09612,0.05251,0.05361,0.93246,0.49353,0.31751,-0.02530,-0.14603,3.12113,-0.61760,0.49270,3.27057,-0.51891,-0.43730,0.00000,A,120941.10
0.51849,57.67097783,11.99832483,57.67097667,11.99833533,12:09:41.193701,0.00934,1.28991,1.28991,0.01635,0.04378,0.06065,0.01685,-0.09471,0.02591,0.05445,0.99373,0.50857,0.31894,-0.04333,-0.14603,3.21756,-0.66230,0.49270,3.27057,-0.51891,-0.43730,0.00000,A,120941.10
0.52792,57.67097783,11.99832483,57.67097667,11.99833533,12:09:41.203134,0.00806,1.28991,1.28991,0.01673,0.04251,0.04916,0.03561,-0.10055,0.01047,0.05797,1.02893,0.51925,0.31894,-0.04316,-0.14603,3.22273,-0.66241,0.49270,3.27057,-0.51891,-0.43730,0.00000,A,120941.10
0.53819,57.67097783,11.99832483,57.67097667,11.99833533,12:09:41.213389,0.00815,1.28991,1.28991,0.01664,0.04081,0.04152,0.04141,-0.10098,-0.04384,0.05823,1.04516,0.52969,0.31894,-0.04306,-0.14603,3.22582,-0.66248,0.49270,3.27057,-0.51891,-0.43730,0.00000,A,120941.10
0.54825,57.67097783,11.99832483,57.67097667,11.99833533,12:09:41.223457,0.00802,1.28991,1.28991,0.01658,0.03866,0.04317,0.03883,-0.09648,-0.04568,0.05381,1.05283,0.53964,0.31894,-0.04295,-0.14603,3.22912,-0.66255,0.49270,3.27057,-0.51891,-0.43730,0.00000,A,120941.10
0.55846,57.67097783,11.99832483,57.67097667,11.99833533,12:09:41.233650,0.00805,1.28991,1.28991,0.01647,0.03626,0.03827,0.02933,-0.10482,-0.04429,0.03448,1.01545,0.55012,0.31894,-0.04286,-0.14603,3.23230,-0.66263,0.49270,3.27057,-0.51891,-0.43730,0.00000,A,120941.10
0.56867,57.67097783,11.99832483,57.67097667,11.99833533,12:09:41.243872,0.00807,1.28991,1.28991,0.01640,0.03377,0.04003,0.01144,-0.10946,-0.05313,0.03334,0.98107,0.55999,0.31894,-0.04277,-0.14603,3.23559,-0.66271,0.49270,3.27057,-0.51891,-0.43730,0.00000,A,120941.10
0.57881,57.67097783,11.99832483,57.67097667,11.99833533,12:09:41.254048,0.00804,1.28991,1.28991,0.01630,0.03136,0.03782,-0.00018,-0.11165,-0.05876,0.03265,0.93673,0.57047,0.31894,-0.04269,-0.14603,3.23881,-0.66280,0.49270,3.27057,-0.51891,-0.43730,0.00000,A,120941.10
0.59031,57.67097783,11.99832483,57.67097667,11.99833533,12:09:41.265515,0.00928,1.28991,1.28991,0.01621,0.02910,0.03791,-0.01483,-0.10957,-0.05063,0.04019,0.90753,0.58072,0.31894,-0.04261,-0.14603,3.24208,-0.66289,0.49270,3.27057,-0.51891,-0.43730,0.00000,A,120941.10
0.60027,57.67097783,11.99832483,57.67097667,11.99833533,12:09:41.275474,0.00856,1.28991,1.28991,0.01609,0.02694,0.03113,-0.02354,-0.11075,-0.02303,0.02398,0.89745,0.59190,0.31894,-0.04254,-0.14603,3.24554,-0.66299,0.49270,3.27057,-0.51891,-0.43730,0.00000,A,120941.10
0.61604,57.67097783,11.99832483,57.67097650,11.99833750,12:09:41.291247,0.01373,1.28991,1.28991,0.01596,0.02530,0.03167,-0.02463,-0.11422,-0.00096,0.02559,0.90318,0.60184,0.31894,-0.04247,-0.14603,3.24892,-0.66309,0.60027,3.39941,-0.53744,-0.14286,0.00000,A,120941.20
0.62675,57.67097783,11.99832483,57.67097650,11.99833750,12:09:41.301956,0.00932,1.28991,1.28991,0.01576,0.02332,0.02327,-0.01790,-0.11335,0.01870,0.04188,0.94221,0.61683,0.32030,-0.04683,-0.14603,3.34591,-0.68968,0.60027,3.39941,-0.53744,-0.14286,0.00000,A,120941.20
0.63616,57.67097783,11.99832483,57.67097650,11.99833750,12:09:41.311367,0.00805,1.28991,1.28991,0.01569,0.02216,0.02528,-0.00370,-0.11350,0.03901,0.04078,0.98053,0.62748,0.32030,-0.04674,-0.14603,3.35107,-0.68986,0.60027,3.39941,-0.53744,-0.14286,0.00000,A,120941.20
0.64637,57.67097783,11.99832483,57.67097650,11.99833750,12:09:41.321568,0.00809,1.28991,1.28991,0.01546,0.02109,0.02203,0.01095,-0.11609,0.05195,0.05512,1.01931,0.63796,0.32030,-0.04669,-0.14603,3.35412,-0.68997,0.60027,3.39941,-0.53744,-0.14286,0.00000,A,120941.20
0.65647,57.67097783,11.99832483,57.67097650,11.99833750,12:09:41.331668,0.00800,1.28991,1.28991,0.01523,0.01993,0.01955,0.02528,-0.12012,0.02619,0.07955,1.02661,0.64787,0.32030,-0.04664,-0.14603,3.35737,-0.69009,0.60027,3.39941,-0.53744,-0.14286,0.00000,A,120941.20
0.66691,57.67097783,11.99832483,57.67097650,11.99833750,12:09:41.342106,0.00826,1.28991,1.28991,0.01490,0.01862,0.00915,0.03033,-0.11778,-0.02043,0.07336,1.02041,0.65832,0.32030,-0.04659,-0.14603,3.36060,-0.69021,0.60027,3.39941,-0.53744,-0.14286,0.00000,A,120941.20
0.67741,57.67097783,11.99832483,57.67097650,11.99833750,12:09:41.352614,0.00844,1.31555,1.31555,0.01453,0.01704,0.00234,0.03291,-0.12286,-0.05329,0.06519,1.00803,0.66847,0.38798,-0.04655,-0.14603,3.37991,-0.69108,0.60027,3.39941,-0.53744,-0.14286,0.00000,A,120941.20
0.68727,57.67097783,11.99832483,57.67097650,11.99833750,12:09:41.362474,0.00812,1.31555,1.31555,0.01410,0.01526,-0.00486,0.02313,-0.12440,-0.07640,0.04938,0.99311,0.67863,0.38798,-0.04650,-0.14603,3.38395,-0.69124,0.60027,3.39941,-0.53744,-0.14286,0.00000,A,120941.20
0.69826,57.67097783,11.99832483,57.67097650,11.99833750,12:09:41.373501,0.00893,1.31555,1.31555,0.01367,0.01339,-0.00664,0.01043,-0.12899,-0.07408,0.03700,0.98121,0.68931,0.38798,-0.04646,-0.14603,3.38777,-0.69139,0.60027,3.39941,-0.53744,-0.14286,0.00000,A,120941.20
0.71475,57.67097783,11.99832483,57.67097617,11.99833950,12:09:41.389991,0.01424,1.31555,1.31555,0.01321,0.01126,-0.01080,-0.00884,-0.13429,-0.07104,0.03015,0.97667,0.70023,0.38798,-0.04642,-0.14603,3.39207,-0.69157,0.69826,3.51834,-0.57451,-0.30211,0.00000,A,120941.30
0.72714,57.67097783,11.99832483,57.67097617,11.99833950,12:09:41.402332,0.01097,3.00000,1.31555,0.01282,0.00863,-0.00552,-0.02579,-0.13331,-0.04397,0.04208,0.98476,0.71752,0.56949,-0.05738,-0.14603,3.47116,-0.71871,0.69826,3.51834,-0.57451,-0.30211,0.00000,A,120941.30
0.73798,57.67097783,11.99832483,57.67097617,11.99833950,12:09:41.413176,0.00944,3.00000,1.31555,0.01241,0.00708,-0.00861,-0.03035,-0.13041,-0.01923,0.03997,0.99025,0.72923,0.56949,-0.05733,-0.14603,3.48164,-0.71927,0.69826,3.51834,-0.57451,-0.30211,0.00000,A,120941.30
0.74907,57.67097783,11.99832483,57.67097617,11.99833950,12:09:41.424266,0.00970,3.00000,1.31555,0.01199,0.00592,-0.01507,-0.02440,-0.13178,-0.00469,0.04990,0.98589,0.74071,0.56949,-0.05730,-0.14603,3.48786,-0.71961,0.69826,3.51834,-0.57451,-0.30211,0.00000,A,120941.30
0.76029,57.67097783,11.99832483,57.67097617,11.99833950,12:09:41.435488,0.00982,3.00000,1.31555,0.01152,0.00492,-0.02159,-0.01068,-0.13534,-0.00240,0.05083,0.97804,0.75179,0.56949,-0.05728,-0.14603,3.49417,-0.71996,0.69826,3.51834,-0.57451,-0.30211,0.00000,A,120941.30
0.77145,57.67097783,11.99832483,57.67097617,11.99833950,12:09:41.446650,0.00976,3.00000,1.31555,0.01101,0.00396,-0.02611,-0.00153,-0.13897,-0.00832,0.03468,0.95326,0.76319,0.56949,-0.05727,-0.14603,3.50055,-0.72032,0.69826,3.51834,-0.57451,-0.30211,0.00000,A,120941.30
0.78275,57.67097783,11.99832483,57.67097617,11.99833950,12:09:41.457946,0.00989,3.00000,1.31555,0.01042,0.00294,-0.03569,0.00183,-0.13852,-0.01460,0.03481,0.93058,0.77451,0.56949,-0.05726,-0.14603,3.50689,-0.72068,0.69826,3.51834,-0.57451,-0.30211,0.00000,A,120941.30
0.79379,57.67097783,11.99832483,57.67097617,11.99833950,12:09:41.468982,0.00965,3.00000,1.31555,0.00979,0.00181,-0.04012,0.00075,-0.14147,-0.04987,0.01654,0.91129,0.78513,0.56949,-0.05726,-0.14603,3.51332,-0.72104,0.69826,3.51834,-0.57451,-0.30211,0.00000,A,120941.30
0.81153,57.67097783,11.99832483,57.67097600,11.99834183,12:09:41.486720,0.01629,3.00000,1.31555,0.00922,0.00057,-0.03593,-0.00493,-0.14728,-0.03086,0.00410,0.93718,0.79741,0.56949,-0.05726,-0.14603,3.51960,-0.72140,0.79379,3.65709,-0.59304,-0.13278,0.00000,A,120941.40
0.82418,57.67097783,11.99832483,57.67097600,11.99834183,12:09:41.499381,0.01043,3.00000,1.31555,0.00873,-0.00105,-0.02515,-0.00660,-0.14467,-0.01532,0.00820,0.97801,0.81472,0.57060,-0.06058,-0.14603,3.60864,-0.74618,0.79379,3.65709,-0.59304,-0.13278,0.00000,A,120941.40
0.83552,57.67097783,11.99832483,57.67097600,11.99834183,12:09:41.510720,0.00926,3.00000,1.31555,0.00818,-0.00170,-0.02120,0.00301,-0.14704,0.02442,-0.00337,1.00998,0.82674,0.57060,-0.06061,-0.14603,3.61914,-0.74683,0.79379,3.65709,-0.59304,-0.13278,0.00000,A,120941.40
0.84675,57.67097783,11.99832483,57.67097600,11.99834183,12:09:41.521941,0.00983,3.00000,1.31555,0.00782,-0.00192,-0.02104,0.01081,-0.14583,0.02412,0.00867,1.01320,0.83826,0.57060,-0.06063,-0.14603,3.62562,-0.74724,0.79379,3.65709,-0.59304,-0.13278,0.00000,A,120941.40
0.85786,57.67097783,11.99832483,57.67097600,11.99834183,12:09:41.533055,0.00969,3.00000,1.31555,0.00744,-0.00192,-0.02487,0.02899,-0.14466,0.01780,0.01887,1.00489,0.84951,0.57060,-0.06065,-0.14603,3.63201,-0.74764,0.79379,3.65709,-0.59304,-0.13278,0.00000,A,120941.40
0.86902,57.67097783,11.99832483,57.67097600,11.99834183,12:09:41.544219,0.00977,3.00000,1.31555,0.00707,-0.00192,-0.02450,0.03482,-0.13834,-0.03138,0.01690,0.97451,0.86060,0.57060,-0.06067,-0.14603,3.63838,-0.74804,0.79379,3.65709,-0.59304,-0.13278,0.00000,A,120941.40
0.87903,57.67097783,11.99832483,57.67097600,11.99834183,12:09:41.554225,0.00860,1.51565,1.51565,0.00675,-0.00192,-0.01908,0.03225,-0.13188,-0.05902,0.00765,0.97905,0.87059,0.63487,-0.06069,-0.14603,3.65982,-0.74935,0.79379,3.65709,-0.59304,-0.13278,0.00000,A,120941.40
0.88924,57.67097783,11.99832483,57.67097600,11.99834183,12:09:41.564432,0.00813,1.51565,1.51565,0.00653,-0.00192,-0.01394,0.02187,-0.13110,-0.05959,0.00805,0.99826,0.88078,0.63487,-0.06070,-0.14603,3.66617,-0.74975,0.79379,3.65709,-0.59304,-0.13278,0.00000,A,120941.40
0.90090,57.67097783,11.99832483,57.67097600,11.99834183,12:09:41.576070,0.00959,1.51565,1.51565,0.00635,-0.00192,-0.01154,0.01331,-0.13325,-0.05625,-0.00274,1.01336,0.89089,0.63487,-0.06072,-0.14603,3.67257,-0.75015,0.79379,3.65709,-0.59304,-0.13278,0.00000,A,120941.40
0.91604,57.67097783,11.99832483,57.67097567,11.99834400,12:09:41.591243,0.01367,1.51565,1.51565,0.00626,-0.00192,-0.00164,0.00475,-0.13378,-0.05043,0.01327,1.03199,0.90180,0.63487,-0.06074,-0.14603,3.67918,-0.75057,0.90090,3.78593,-0.63010,-0.28012,0.00000,A,120941.50
0.92699,57.67097783,11.99832483,57.67097567,11.99834400,12:09:41.602199,0.00960,1.51565,1.51565,0.00619,-0.00192,-0.00256,-0.00215,-0.14062,-0.04839,0.02339,1.03014,0.91681,0.63584,-0.07042,-0.14603,3.74754,-0.78063,0.90090,3.78593,-0.63010,-0.28012,0.00000,A,120941.50
0.93639,57.67097783,11.99832483,57.67097567,11.99834400,12:09:41.611603,0.00803,1.51565,1.51565,0.00612,-0.00192,-0.00040,-0.00535,-0.13928,-0.02657,0.02878,1.02220,0.92775,0.63584,-0.07045,-0.14603,3.75766,-0.78136,0.90090,3.78593,-0.63010,-0.28012,0.00000,A,120941.50
0.94657,57.67097783,11.99832483,57.67097567,11.99834400,12:09:41.621759,0.00802,1.51565,1.51565,0.00603,-0.00192,-0.00474,-0.00872,-0.14037,-0.02845,0.02371,0.99531,0.93823,0.63584,-0.07047,-0.14603,3.76369,-0.78180,0.90090,3.78593,-0.63010,-0.28012,0.00000,A,120941.50
0.95675,57.67097783,11.99832483,57.67097567,11.99834400,12:09:41.631959,0.00802,1.51565,1.51565,0.00584,-0.00192,-0.01565,-0.01206,-0.13620,-0.03523,0.02103,0.95681,0.94813,0.63584,-0.07049,-0.14603,3.77018,-0.78227,0.90090,3.78593,-0.63010,-0.28012,0.00000,A,120941.50
0.96713,57.67097783,11.99832483,57.67097567,11.99834400,12:09:41.642331,0.00823,1.51565,1.51565,0.00562,-0.00192,-0.01884,-0.00731,-0.13382,-0.03693,0.01132,0.92996,0.95859,0.63584,-0.07052,-0.14603,3.77658,-0.78274,0.90090,3.78593,-0.63010,-0.28012,0.00000,A,120941.50
0.97752,57.67097783,11.99832483,57.67097567,11.99834400,12:09:41.652720,0.00828,1.51565,1.51565,0.00538,-0.00192,-0.02060,-0.00686,-0.13602,-0.02925,0.01942,0.91403,0.96878,0.63584,-0.07054,-0.14603,3.78315,-0.78322,0.90090,3.78593,-0.63010,-0.28012,0.00000,A,120941.50
0.98750,57.67097783,11.99832483,57.67097567,11.99834400,12:09:41.662712,0.00809,1.51565,1.51565,0.00518,-0.00192,-0.01635,-0.00546,-0.13001,-0.01187,0.01643,0.91348,0.97883,0.63584,-0.07056,-0.14603,3.78982,-0.78370,0.90090,3.78593,-0.63010,-0.28012,0.00000,A,120941.50
0.99774,57.67097783,11.99832483,57.67097567,11.99834400,12:09:41.672933,0.00814,1.51565,1.51565,0.00499,-0.00192,-0.01582,-0.00009,-0.12383,0.00521,0.03278,0.93939,0.98926,0.63584,-0.07058,-0.14603,3.79613,-0.78416,0.90090,3.78593,-0.63010,-0.28012,0.00000,A,120941.50
1.01335,57.67097783,11.99832483,57.67097533,11.99834600,12:09:41.688519,0.01357,1.51565,1.51565,0.00492,-0.00192,-0.00309,0.01734,-0.12094,0.02099,0.02898,0.97377,0.99952,0.63584,-0.07060,-0.14603,3.80262,-0.78463,0.99774,3.90486,-0.66717,-0.30211,0.00000,A,120941.60
1.02422,57.67097783,11.99832483,57.67097533,11.99834600,12:09:41.699424,0.00950,1.51565,1.51565,0.00489,-0.00192,0.00013,0.03445,-0.11959,0.01439,0.03082,1.02858,1.01432,0.63676,-0.08081,-0.14603,3.86775,-0.81667,0.99774,3.90486,-0.66717,-0.30211,0.00000,A,120941.60
1.03371,57.67097783,11.99832483,57.67097533,11.99834600,12:09:41.708909,0.00803,1.51565,1.51565,0.00486,-0.00192,-0.00073,0.05306,-0.12300,-0.04428,0.04571,1.05622,1.02511,0.63676,-0.08084,-0.14603,3.87748,-0.81748,0.99774,3.90486,-0.66717,-0.30211,0.00000,A,120941.60
1.04423,57.67097783,11.99832483,57.67097533,11.99834600,12:09:41.719430,0.00838,1.51565,1.51565,0.00487,-0.00192,0.00276,0.05443,-0.12399,-0.07880,0.04537,1.07444,1.03604,0.63676,-0.08086,-0.14603,3.88354,-0.81799,0.99774,3.90486,-0.66717,-0.30211,0.00000,A,120941.60
1.05457,57.67097783,11.99832483,57.67097533,11.99834600,12:09:41.729760,0.00814,1.37067,1.37067,0.00485,-0.00192,-0.00103,0.03471,-0.12848,-0.10187,0.04336,1.07492,1.04621,0.68667,-0.08089,-0.14603,3.90206,-0.81951,0.99774,3.90486,-0.66717,-0.30211,0.00000,A,120941.60
1.06467,57.67097783,11.99832483,57.67097533,11.99834600,12:09:41.739866,0.00794,1.37067,1.37067,0.00474,-0.00192,-0.01072,0.01821,-0.12964,-0.12043,0.02684,1.02448,1.05645,0.68667,-0.08091,-0.14603,3.90912,-0.82009,0.99774,3.90486,-0.66717,-0.30211,0.00000,A,120941.60
1.07511,57.67097783,11.99832483,57.67097533,11.99834600,12:09:41.750316,0.00819,1.37067,1.37067,0.00461,-0.00192,-0.01372,-0.00349,-0.13434,-0.11758,0.00375,0.98009,1.06643,0.68667,-0.08094,-0.14603,3.91603,-0.82067,0.99774,3.90486,-0.66717,-0.30211,0.00000,A,120941.60
1.08536,57.67097783,11.99832483,57.67097533,11.99834600,12:09:41.760547,0.00826,1.37067,1.37067,0.00443,-0.00192,-0.02076,-0.02612,-0.13994,-0.11431,0.01123,0.94777,1.07677,0.68667,-0.08097,-0.14603,3.92297,-0.82125,0.99774,3.90486,-0.66717,-0.30211,0.00000,A,120941.60
1.09557,57.67097783,11.99832483,57.67097533,11.99834600,12:09:41.770776,0.00817,1.37067,1.37067,0.00429,-0.00192,-0.01635,-0.04356,-0.14628,-0.10248,0.01519,0.90808,1.08700,0.68667,-0.08099,-0.14603,3.93013,-0.82185,0.99774,3.90486,-0.66717,-0.30211,0.00000,A,120941.60
1.11261,57.67097783,11.99832483,57.67097500,11.99834817,12:09:41.787797,0.01503,1.37067,1.37067,0.00416,-0.00192,-0.01581,-0.05331,-0.14141,-0.06067,-0.00872,0.89613,1.09732,0.68667,-0.08102,-0.14603,3.93704,-0.82242,1.09557,4.03370,-0.70423,-0.28012,0.00000,A,120941.70
1.12381,57.67097783,11.99832483,57.67097500,11.99834817,12:09:41.799002,0.00921,1.37067,1.37067,0.00408,-0.00192,-0.00992,-0.05621,-0.13919,-0.03705,0.00253,0.94146,1.11445,0.68759,-0.08980,-0.14603,3.99826,-0.85394,1.09557,4.03370,-0.70423,-0.28012,0.00000,A,120941.70
1.13370,57.67097783,11.99832483,57.67097500,11.99834817,12:09:41.808894,0.00841,1.37067,1.37067,0.00400,-0.00192,-0.00188,-0.04410,-0.13005,0.01835,0.01076,0.99241,1.12548,0.68759,-0.08984,-0.14603,4.01061,-0.85509,1.09557,4.03370,-0.70423,-0.28012,0.00000,A,120941.70
1.14386,57.67097783,11.99832483,57.67097500,11.99834817,12:09:41.819064,0.00814,1.37067,1.37067,0.00403,-0.00192,0.00037,-0.03615,-0.12829,0.01208,0.01195,0.99900,1.13507,0.68759,-0.08987,-0.14603,4.01745,-0.85572,1.09557,4.03370,-0.70423,-0.28012,0.00000,A,120941.70
1.15382,57.67097783,11.99832483,57.67097500,11.99834817,12:09:41.829009,0.00792,1.37067,1.37067,0.00404,-0.00192,0.00033,-0.02481,-0.12113,-0.00784,0.02959,0.98778,1.14560,0.68759,-0.08990,-0.14603,4.02428,-0.85635,1.09557,4.03370,-0.70423,-0.28012,0.00000,A,120941.70
1.16408,57.67097783,11.99832483,57.67097500,11.99834817,12:09:41.839285,0.00800,1.37067,1.37067,0.00406,-0.00192,0.00021,-0.01410,-0.11735,-0.03119,0.04256,0.95685,1.15560,0.68759,-0.08992,-0.14603,4.03122,-0.85699,1.09557,4.03370,-0.70423,-0.28012,0.00000,A,120941.70
1.17457,57.67097783,11.99832483,57.67097500,11.99834817,12:09:41.849777,0.00831,1.37067,1.37067,0.00409,-0.00192,0.00298,-0.00767,-0.11200,-0.05109,0.04032,0.94769,1.16583,0.68759,-0.08995,-0.14603,4.03818,-0.85764,1.09557,4.03370,-0.70423,-0.28012,0.00000,A,120941.70
1.18442,57.67097783,11.99832483,57.67097500,11.99834817,12:09:41.859624,0.00798,1.37067,1.37067,0.00410,-0.00192,0.00165,-0.00338,-0.10971,-0.03844,-0.01120,0.93965,1.17588,0.68759,-0.08998,-0.14603,4.04530,-0.85830,1.09557,4.03370,-0.70423,-0.28012,0.00000,A,120941.70
1.19451,57.67097783,11.99832483,57.67097500,11.99834817,12:09:41.869699,0.00789,1.37067,1.37067,0.00409,-0.00192,-0.00135,-0.01148,-0.11032,-0.03688,0.02045,0.95024,1.18627,0.68759,-0.09000,-0.14603,4.05212,-0.85893,1.09557,4.03370,-0.70423,-0.28012,0.00000,A,120941.70
1.21145,57.67097783,11.99832483,57.67097483,11.99835050,12:09:41.886614,0.01464,1.37067,1.37067,0.00410,-0.00192,0.00109,-0.01406,-0.10880,-0.02356,0.02850,0.95127,1.19639,0.68759,-0.09003,-0.14603,4.05909,-0.85957,1.19451,4.17245,-0.72277,-0.13278,0.00000,A,120941.80
1.22216,57.67097783,11.99832483,57.67097483,11.99835050,12:09:41.897365,0.00935,1.37067,1.37067,0.00408,-0.00192,-0.00253,0.00654,-0.11222,0.04157,0.02309,0.98072,1.21246,0.68860,-0.09193,-0.14603,4.13131,-0.87858,1.19451,4.17245,-0.72277,-0.13278,0.00000,A,120941.80
1.23154,57.67097783,11.99832483,57.67097483,11.99835050,12:09:41.906744,0.00801,1.37067,1.37067,0.00407,-0.00192,-0.00020,0.02149,-0.11388,0.05317,0.05049,0.99596,1.22300,0.68860,-0.09198,-0.14603,4.14305,-0.87970,1.19451,4.17245,-0.72277,-0.13278,0.00000,A,120941.80
1.24180,57.67097783,11.99832483,57.67097483,11.99835050,12:09:41.916994,0.00810,1.32863,1.32863,0.00404,-0.00192,-0.00457,0.04790,-0.11618,0.03877,0.05646,0.99461,1.23346,0.73212,-0.09200,-0.14603,4.15976,-0.88125,1.19451,4.17245,-0.72277,-0.13278,0.00000,A,120941.80
1.25229,57.67097783,11.99832483,57.67097483,11.99835050,12:09:41.927496,0.00840,1.32863,1.32863,0.00398,-0.00192,-0.00761,0.06625,-0.11246,-0.00175,0.05445,0.99406,1.24367,0.73212,-0.09203,-0.14603,4.16730,-0.88197,1.19451,4.17245,-0.72277,-0.13278,0.00000,A,120941.80
1.26210,57.67097783,11.99832483,57.67097483,11.99835050,12:09:41.937302,0.00802,1.32863,1.32863,0.00389,-0.00192,-0.01125,0.07510,-0.11429,-0.03804,0.04722,1.00136,1.25360,0.73212,-0.09206,-0.14603,4.17487,-0.88269,1.19451,4.17245,-0.72277,-0.13278,0.00000,A,120941.80
1.27234,57.67097783,11.99832483,57.67097483,11.99835050,12:09:41.947529,0.00808,1.32863,1.32863,0.00378,-0.00192,-0.01375,0.06560,-0.12068,-0.07625,0.02622,1.01091,1.26411,0.73212,-0.09209,-0.14603,4.18203,-0.88337,1.19451,4.17245,-0.72277,-0.13278,0.00000,A,120941.80
1.28275,57.67097783,11.99832483,57.67097483,11.99835050,12:09:41.957956,0.00831,1.32863,1.32863,0.00369,-0.00192,-0.01174,0.05855,-0.12488,-0.08878,0.02236,1.01977,1.27408,0.73212,-0.09212,-0.14603,4.18956,-0.88408,1.19451,4.17245,-0.72277,-0.13278,0.00000,A,120941.80
1.29280,57.67097783,11.99832483,57.67097483,11.99835050,12:09:41.968008,0.00817,1.32863,1.32863,0.00356,-0.00192,-0.01737,0.04022,-0.12665,-0.10741,-0.00014,1.02073,1.28415,0.73212,-0.09215,-0.14603,4.19708,-0.88479,1.19451,4.17245,-0.72277,-0.13278,0.00000,A,120941.80
1.30870,57.67097783,11.99832483,57.67097433,11.99835233,12:09:41.984435,0.01390,1.32863,1.32863,0.00349,-0.00192,-0.01254,0.01098,-0.14211,-0.11660,-0.03315,0.99339,1.29456,0.73212,-0.09218,-0.14603,4.20440,-0.88548,1.29280,4.28147,-0.77836,-0.47160,0.00000,A,120941.90
1.32080,57.67097783,11.99832483,57.67097433,11.99835233,12:09:41.995989,0.00983,1.32863,1.32863,0.00347,-0.00192,-0.01085,-0.04026,-0.15828,-0.06577,-0.03068,0.93606,1.31136,0.73287,-0.10890,-0.14603,4.25224,-0.92438,1.29280,4.28147,-0.77836,-0.47160,0.00000,A,120941.90
1.33072,57.67097783,11.99832483,57.67097433,11.99835233,12:09:42.005917,0.00851,1.32863,1.32863,0.00346,-0.00192,0.00000,-0.04410,-0.16318,-0.01087,-0.01689,0.93689,1.32250,0.73287,-0.10895,-0.14603,4.26520,-0.92584,1.29280,4.28147,-0.77836,-0.47160,0.00000,A,120941.90
1.34108,57.67097783,11.99832483,57.67097433,11.99835233,12:09:42.016278,0.00834,1.32863,1.32863,0.00363,-0.00192,0.00943,-0.03890,-0.16092,0.03715,-0.01199,0.95252,1.33257,0.73287,-0.10898,-0.14603,4.27250,-0.92666,1.29280,4.28147,-0.77836,-0.47160,0.00000,A,120941.90
1.35134,57.67097783,11.99832483,57.67097433,11.99835233,12:09:42.026528,0.00842,1.32863,1.32863,0.00383,-0.00192,0.01282,-0.01963,-0.15571,0.05189,-0.00682,0.97699,1.34311,0.73287,-0.10901,-0.14603,4.27998,-0.92749,1.29280,4.28147,-0.77836,-0.47160,0.00000,A,120941.90
1.36142,57.67097783,11.99832483,57.67097433,11.99835233,12:09:42.036624,0.00806,1.32863,1.32863,0.00404,-0.00192,0.01533,0.00009,-0.15076,0.05391,0.00074,1.00051,1.35295,0.73287,-0.10904,-0.14603,4.28750,-0.92834,1.29280,4.28147,-0.77836,-0.47160,0.00000,A,120941.90
1.37160,57.67097783,11.99832483,57.67097433,11.99835233,12:09:42.046794,0.00806,1.32863,1.32863,0.00413,-0.00192,0.00380,0.02288,-0.14401,0.04700,0.01438,1.00838,1.36333,0.73287,-0.10908,-0.14603,4.29480,-0.92916,1.29280,4.28147,-0.77836,-0.47160,0.00000,A,120941.90
1.38191,57.67097783,11.99832483,57.67097433,11.99835233,12:09:42.057110,0.00818,1.32863,1.32863,0.00415,-0.00192,-0.00218,0.04063,-0.13739,0.01888,0.01974,1.00783,1.37342,0.73287,-0.10911,-0.14603,4.30228,-0.93000,1.29280,4.28147,-0.77836,-0.47160,0.00000,A,120941.90
1.39213,57.67097783,11.99832483,57.67097433,11.99835233,12:09:42.067335,0.00822,1.32863,1.32863,0.00410,-0.00192,-0.00952,0.05501,-0.13091,-0.02893,0.03448,0.98863,1.38351,0.73287,-0.10914,-0.14603,4.30972,-0.93083,1.29280,4.28147,-0.77836,-0.47160,0.00000,A,120941.90
1.40727,57.67097783,11.99832483,57.67097400,11.99835467,12:09:42.082469,0.01313,1.32863,1.32863,0.00401,-0.00195,-0.01090,0.05475,-0.12277,-0.06336,0.02085,0.97120,1.39379,0.73287,-0.10917,-0.14603,4.31716,-0.93166,1.39213,4.42022,-0.81543,-0.26104,0.00000,A,120942.00
1.41963,57.67097783,11.99832483,57.67097400,11.99835467,12:09:42.094841,0.01101,1.32863,1.32863,0.00395,-0.00246,-0.00775,0.03597,-0.12063,-0.11189,-0.00395,0.94977,1.40819,0.73381,-0.11589,-0.14603,4.38221,-0.96440,1.39213,4.42022,-0.81543,-0.26104,0.00000,A,120942.00
1.42927,57.67097783,11.99832483,57.67097400,11.99835467,12:09:42.104477,0.00825,1.32863,1.32863,0.00392,-0.00362,-0.00079,-0.00012,-0.13044,-0.10506,-0.01052,0.95456,1.42045,0.73381,-0.11594,-0.14603,4.39465,-0.96589,1.39213,4.42022,-0.81543,-0.26104,0.00000,A,120942.00
1.44023,57.67097783,11.99832483,57.67097400,11.99835467,12:09:42.115396,0.00903,1.23914,1.23914,0.00396,-0.00512,-0.00089,-0.01315,-0.14176,-0.07390,-0.00314,0.96779,1.43133,0.76817,-0.11599,-0.14603,4.40990,-0.96769,1.39213,4.42022,-0.81543,-0.26104,0.00000,A,120942.00
1.45033,57.67097783,11.99832483,57.67097400,11.99835467,12:09:42.125496,0.00839,1.23914,1.23914,0.00411,-0.00671,0.00953,-0.02159,-0.14962,-0.03172,0.00381,0.99282,1.44159,0.76817,-0.11604,-0.14603,4.41803,-0.96868,1.39213,4.42022,-0.81543,-0.26104,0.00000,A,120942.00
1.46058,57.67097783,11.99832483,57.67097400,11.99835467,12:09:42.135743,0.00844,1.23914,1.23914,0.00429,-0.00807,0.01187,-0.01974,-0.14721,-0.00190,0.00667,1.01642,1.45181,0.76817,-0.11611,-0.14603,4.42573,-0.96962,1.39213,4.42022,-0.81543,-0.26104,0.00000,A,120942.00
1.47074,57.67097783,11.99832483,57.67097400,11.99835467,12:09:42.145906,0.00844,1.23914,1.23914,0.00448,-0.00909,0.01401,-0.01150,-0.14716,0.00752,0.00439,1.02541,1.46195,0.76817,-0.11618,-0.14603,4.43354,-0.97058,1.39213,4.42022,-0.81543,-0.26104,0.00000,A,120942.00
1.48132,57.67097783,11.99832483,57.67097400,11.99835467,12:09:42.156483,0.00886,1.23914,1.23914,0.00462,-0.00976,0.01014,-0.00657,-0.13871,-0.01087,0.00075,1.02901,1.47219,0.76817,-0.11626,-0.14603,4.44127,-0.97153,1.39213,4.42022,-0.81543,-0.26104,0.00000,A,120942.00
1.49137,57.67097783,11.99832483,57.67097400,11.99835467,12:09:42.166533,0.00834,1.23914,1.23914,0.00477,-0.01016,0.01072,-0.00748,-0.13710,-0.04137,0.01097,1.00981,1.48275,0.76817,-0.11634,-0.14603,4.44913,-0.97250,1.39213,4.42022,-0.81543,-0.26104,0.00000,A,120942.00
1.50815,57.67097783,11.99832483,57.67097367,11.99835683,12:09:42.183319,0.01508,1.23914,1.23914,0.00490,-0.01025,0.01106,-0.01067,-0.13320,-0.07412,-0.00201,0.98612,1.49281,0.76817,-0.11643,-0.14603,4.45701,-0.97347,1.49137,4.54906,-0.85249,-0.28012,0.00000,A,120942.10
1.52067,57.67097783,11.99832483,57.67097367,11.99835683,12:09:42.195836,0.01046,1.23914,1.23914,0.00513,-0.01025,0.02310,-0.02656,-0.13500,-0.09206,-0.01173,0.96941,1.50947,0.76896,-0.12371,-0.14603,4.51458,-1.00302,1.49137,4.54906,-0.85249,-0.28012,0.00000,A,120942.10
1.53083,57.67097783,11.99832483,57.67097367,11.99835683,12:09:42.206000,0.00845,1.23914,1.23914,0.00562,-0.01025,0.02881,-0.05776,-0.14466,-0.07779,-0.01512,0.95010,1.52202,0.76896,-0.12386,-0.14603,4.52856,-1.00486,1.49137,4.54906,-0.85249,-0.28012,0.00000,A,120942.10
1.54114,57.67097783,11.99832483,57.67097367,11.99835683,12:09:42.216301,0.00858,1.23914,1.23914,0.00593,-0.01025,0.02812,-0.07685,-0.14527,-0.06837,-0.02458,0.94826,1.53239,0.76896,-0.12396,-0.14603,4.53697,-1.00597,1.49137,4.54906,-0.85249,-0.28012,0.00000,A,120942.10
1.55117,57.67097783,11.99832483,57.67097367,11.99835683,12:09:42.226349,0.00834,1.23914,1.23914,0.00622,-0.01025,0.02750,-0.09324,-0.15463,-0.04861,-0.02125,0.94334,1.54255,0.76896,-0.12405,-0.14603,4.54484,-1.00701,1.49137,4.54906,-0.85249,-0.28012,0.00000,A,120942.10
1.56129,57.67097783,11.99832483,57.67097367,11.99835683,12:09:42.236456,0.00836,1.23914,1.23914,0.00653,-0.01025,0.03050,-0.09555,-0.15951,-0.02402,-0.03206,0.94039,1.55265,0.76896,-0.12413,-0.14603,4.55250,-1.00802,1.49137,4.54906,-0.85249,-0.28012,0.00000,A,120942.10
1.57140,57.67097783,11.99832483,57.67097367,11.99835683,12:09:42.246568,0.00840,1.23914,1.23914,0.00685,-0.01025,0.03359,-0.09005,-0.15827,0.03402,-0.03006,0.96410,1.56270,0.76896,-0.12422,-0.14603,4.56021,-1.00904,1.49137,4.54906,-0.85249,-0.28012,0.00000,A,120942.10
1.58179,57.67097783,11.99832483,57.67097367,11.99835683,12:09:42.256958,0.00867,1.23914,1.23914,0.00720,-0.01025,0.03803,-0.06679,-0.15004,0.09797,-0.00652,1.00175,1.57284,0.76896,-0.12430,-0.14603,4.56791,-1.01005,1.49137,4.54906,-0.85249,-0.28012,0.00000,A,120942.10
1.59188,57.67097783,11.99832483,57.67097367,11.99835683,12:09:42.267047,0.00838,1.23914,1.23914,0.00754,-0.01025,0.03708,-0.03166,-0.14724,0.11701,0.00433,1.06382,1.58327,0.76896,-0.12439,-0.14603,4.57575,-1.01109,1.49137,4.54906,-0.85249,-0.28012,0.00000,A,120942.10
1.60867,57.67097783,11.99832483,57.67097333,11.99835883,12:09:42.283830,0.01508,1.23914,1.23914,0.00787,-0.01025,0.03918,-0.00137,-0.13731,0.09911,0.02116,1.08861,1.59336,0.76896,-0.12448,-0.14603,4.58354,-1.01211,1.59188,4.66799,-0.88956,-0.30211,0.00000,A,120942.20
1.62022,57.67097783,11.99832483,57.67097333,11.99835883,12:09:42.295390,0.00986,1.41544,1.41544,0.00819,-0.01025,0.03939,0.03363,-0.13115,-0.00756,0.05293,1.02232,1.61002,0.81439,-0.13220,-0.14603,4.63081,-1.03603,1.59188,4.66799,-0.88956,-0.30211,0.00000,A,120942.20
1.63114,57.67097783,11.99832483,57.67097333,11.99835883,12:09:42.306309,0.00920,1.41544,1.41544,0.00883,-0.01025,0.04138,0.03607,-0.13109,-0.06879,0.04835,0.96911,1.62247,0.81439,-0.13237,-0.14603,4.64542,-1.03808,1.59188,4.66799,-0.88956,-0.30211,0.00000,A,120942.20
1.64129,57.67097783,11.99832483,57.67097333,11.99835883,12:09:42.316459,0.00842,1.41544,1.41544,0.00916,-0.01025,0.04004,0.02599,-0.13150,-0.10253,0.02641,0.94608,1.63265,0.81439,-0.13247,-0.14603,4.65431,-1.03933,1.59188,4.66799,-0.88956,-0.30211,0.00000,A,120942.20
1.65144,57.67097783,11.99832483,57.67097333,11.99835883,12:09:42.326608,0.00838,1.41544,1.41544,0.00944,-0.01025,0.03772,0.00705,-0.13259,-0.10977,0.02064,0.92700,1.64281,0.81439,-0.13256,-0.14603,4.66250,-1.04048,1.59188,4.66799,-0.88956,-0.30211,0.00000,A,120942.20
1.66151,57.67097783,11.99832483,57.67097333,11.99835883,12:09:42.336681,0.00834,1.41544,1.41544,0.00973,-0.01025,0.03967,-0.01590,-0.14164,-0.09520,0.03711,0.91419,1.65290,0.81439,-0.13265,-0.14603,4.67069,-1.04164,1.59188,4.66799,-0.88956,-0.30211,0.00000,A,120942.20
1.67182,57.67097783,11.99832483,57.67097333,11.99835883,12:09:42.346991,0.00859,1.41544,1.41544,0.01000,-0.01025,0.03692,-0.03640,-0.14985,-0.05449,0.04221,0.92170,1.66310,0.81439,-0.13275,-0.14603,4.67882,-1.04278,1.59188,4.66799,-0.88956,-0.30211,0.00000,A,120942.20
1.68236,57.67097783,11.99832483,57.67097333,11.99835883,12:09:42.357523,0.00882,1.41544,1.41544,0.01025,-0.01025,0.03395,-0.04192,-0.15353,-0.00988,0.05572,0.94034,1.67370,0.81439,-0.13284,-0.14603,4.68712,-1.04394,1.59188,4.66799,-0.88956,-0.30211,0.00000,A,120942.20
1.69241,57.67097783,11.99832483,57.67097333,11.99835883,12:09:42.367580,0.00834,1.41544,1.41544,0.01045,-0.01025,0.02931,-0.04085,-0.15329,0.03220,0.04866,0.98206,1.68378,0.81439,-0.13294,-0.14603,4.69562,-1.04514,1.59188,4.66799,-0.88956,-0.30211,0.00000,A,120942.20
1.70946,57.67097783,11.99832483,57.67097283,11.99836083,12:09:42.384623,0.01533,1.41544,1.41544,0.01055,-0.01025,0.02165,-0.02418,-0.14809,0.03878,0.05610,1.00763,1.69388,0.81439,-0.13303,-0.14603,4.70374,-1.04628,1.69241,4.78692,-0.94516,-0.43730,0.00000,A,120942.30
1.72075,57.67097783,11.99832483,57.67097283,11.99836083,12:09:42.395913,0.01008,1.41544,1.41544,0.01066,-0.01025,0.02177,0.00499,-0.14929,0.00544,0.05712,1.05618,1.71089,0.81510,-0.14651,-0.14603,4.75515,-1.08908,1.69241,4.78692,-0.94516,-0.43730,0.00000,A,120942.30
1.73184,57.67097783,11.99832483,57.67097283,11.99836083,12:09:42.407004,0.00937,1.41544,1.41544,0.01093,-0.01025,0.02278,0.01080,-0.14735,-0.03962,0.08042,1.04357,1.72219,0.81510,-0.14668,-0.14603,4.76977,-1.09136,1.69241,4.78692,-0.94516,-0.43730,0.00000,A,120942.30
1.74199,57.67097783,11.99832483,57.67097283,11.99836083,12:09:42.417159,0.00844,1.41544,1.41544,0.01103,-0.01030,0.02281,0.00821,-0.14626,-0.06807,0.07183,1.01929,1.73336,0.81510,-0.14678,-0.14603,4.77839,-1.09270,1.69241,4.78692,-0.94516,-0.43730,0.00000,A,120942.30
1.75234,57.67097783,11.99832483,57.67097283,11.99836083,12:09:42.427522,0.00838,1.41544,1.41544,0.01110,-0.01059,0.01874,0.00422,-0.14962,-0.08060,0.06728,0.99814,1.74369,0.81510,-0.14688,-0.14603,4.78697,-1.09403,1.69241,4.78692,-0.94516,-0.43730,0.00000,A,120942.30
1.76262,57.67097783,11.99832483,57.67097283,11.99836083,12:09:42.437791,0.00857,1.41544,1.41544,0.01109,-0.01104,0.01145,-0.01427,-0.15312,-0.07376,0.05582,0.97508,1.75399,0.81510,-0.14698,-0.14603,4.79530,-1.09533,1.69241,4.78692,-0.94516,-0.43730,0.00000,A,120942.30
1.77276,57.67097783,11.99832483,57.67097283,11.99836083,12:09:42.447928,0.00841,1.41544,1.41544,0.01100,-0.01172,0.00213,-0.02681,-0.15626,-0.05620,0.04540,0.95163,1.76406,0.81510,-0.14709,-0.14603,4.80359,-1.09662,1.69241,4.78692,-0.94516,-0.43730,0.00000,A,120942.30
1.78314,57.67097783,11.99832483,57.67097283,11.99836083,12:09:42.458303,0.00867,1.41544,1.41544,0.01088,-0.01234,-0.00032,-0.03265,-0.16450,-0.02361,0.01309,0.92832,1.77420,0.81510,-0.14719,-0.14603,4.81175,-1.09790,1.69241,4.78692,-0.94516,-0.43730,0.00000,A,120942.30
1.79336,57.67097783,11.99832483,57.67097283,11.99836083,12:09:42.468527,0.00851,1.35259,1.35259,0.01076,-0.01285,-0.00216,-0.03330,-0.17132,-0.00226,0.03147,0.90817,1.78460,0.85165,-0.14730,-0.14603,4.82861,-1.10046,1.69241,4.78692,-0.94516,-0.43730,0.00000,A,120942.30
1.81018,57.67097783,11.99832483,57.67097233,11.99836300,12:09:42.485346,0.01502,1.35259,1.35259,0.01064,-0.01305,-0.00313,-0.02703,-0.17099,0.02368,0.02222,0.88498,1.79484,0.85165,-0.14742,-0.14603,4.83721,-1.10181,1.79336,4.91576,-1.00075,-0.40738,0.00000,A,120942.40
1.82157,57.67097783,11.99832483,57.67097233,11.99836300,12:09:42.496732,0.00970,1.35259,1.35259,0.01057,-0.01305,-0.00017,-0.01360,-0.17134,-0.01846,0.03701,0.89122,1.81156,0.85236,-0.15898,-0.14603,4.88546,-1.14463,1.79336,4.91576,-1.00075,-0.40738,0.00000,A,120942.40
1.83195,57.67097783,11.99832483,57.67097233,11.99836300,12:09:42.507142,0.00868,1.35259,1.35259,0.01043,-0.01305,-0.00618,-0.00672,-0.16989,-0.02977,0.03517,0.92899,1.82299,0.85236,-0.15919,-0.14603,4.90059,-1.14720,1.79336,4.91576,-1.00075,-0.40738,0.00000,A,120942.40
1.84247,57.67097783,11.99832483,57.67097233,11.99836300,12:09:42.517634,0.00877,1.35259,1.35259,0.01024,-0.01305,-0.01111,-0.00974,-0.16429,-0.05009,0.02742,0.98027,1.83385,0.85236,-0.15932,-0.14603,4.90915,-1.14866,1.79336,4.91576,-1.00075,-0.40738,0.00000,A,120942.40
1.85256,57.67097783,11.99832483,57.67097233,11.99836300,12:09:42.527722,0.00839,1.35259,1.35259,0.01005,-0.01305,-0.01038,-0.02472,-0.16659,-0.06038,0.00477,1.02827,1.84394,0.85236,-0.15944,-0.14603,4.91822,-1.15020,1.79336,4.91576,-1.00075,-0.40738,0.00000,A,120942.40
1.86261,57.67097783,11.99832483,57.67097233,11.99836300,12:09:42.537813,0.00826,1.35259,1.35259,0.00994,-0.01305,-0.00243,-0.04058,-0.16209,-0.06373,-0.01058,1.04607,1.85382,0.85236,-0.15956,-0.14603,4.92672,-1.15164,1.79336,4.91576,-1.00075,-0.40738,0.00000,A,120942.40
1.87285,57.67097783,11.99832483,57.67097233,11.99836300,12:09:42.548048,0.00827,1.35259,1.35259,0.00989,-0.01305,0.00312,-0.05935,-0.15938,-0.06130,-0.01951,1.06707,1.86418,0.85236,-0.15969,-0.14603,4.93541,-1.15312,1.79336,4.91576,-1.00075,-0.40738,0.00000,A,120942.40
1.88295,57.67097783,11.99832483,57.67097233,11.99836300,12:09:42.558151,0.00819,1.35259,1.35259,0.00987,-0.01305,0.00689,-0.06896,-0.15599,-0.04630,-0.01365,1.07935,1.87427,0.85236,-0.15981,-0.14603,4.94402,-1.15459,1.79336,4.91576,-1.00075,-0.40738,0.00000,A,120942.40
1.89344,57.67097783,11.99832483,57.67097233,11.99836300,12:09:42.568605,0.00851,1.35259,1.35259,0.00997,-0.01305,0.01957,-0.07826,-0.15252,0.00562,0.00528,1.08431,1.88478,0.85236,-0.15993,-0.14603,4.95250,-1.15603,1.79336,4.91576,-1.00075,-0.40738,0.00000,A,120942.40
1.91014,57.67097783,11.99832483,57.67097200,11.99836517,12:09:42.585333,0.01479,1.35259,1.35259,0.01014,-0.01305,0.02827,-0.05973,-0.14256,0.05714,0.02550,1.07810,1.89503,0.85236,-0.16005,-0.14603,4.96107,-1.15748,1.89344,5.04460,-1.03782,-0.28012,0.00000,A,120942.50
1.92114,57.67097783,11.99832483,57.67097200,11.99836517,12:09:42.596332,0.00962,1.35259,1.35259,0.01030,-0.01305,0.02669,-0.02504,-0.13691,0.08858,0.02642,1.04081,1.91171,0.85306,-0.16545,-0.14603,5.01249,-1.18780,1.89344,5.04460,-1.03782,-0.28012,0.00000,A,120942.50
1.93119,57.67097783,11.99832483,57.67097200,11.99836517,12:09:42.606386,0.00865,1.35259,1.35259,0.01059,-0.01305,0.02124,-0.00211,-0.13225,0.06850,0.02980,0.97979,1.92293,0.85306,-0.16567,-0.14603,5.02744,-1.19044,1.89344,5.04460,-1.03782,-0.28012,0.00000,A,120942.50
1.94199,57.67097783,11.99832483,57.67097200,11.99836517,12:09:42.617182,0.00940,1.35259,1.35259,0.01067,-0.01305,0.02319,0.01884,-0.12645,0.02753,0.04162,0.91288,1.93316,0.85306,-0.16579,-0.14603,5.03597,-1.19195,1.89344,5.04460,-1.03782,-0.28012,0.00000,A,120942.50
1.95183,57.67097783,11.99832483,57.67097200,11.99836517,12:09:42.627029,0.00844,1.35259,1.35259,0.01076,-0.01305,0.02165,0.03504,-0.12377,-0.01562,0.04164,0.86377,1.94363,0.85306,-0.16592,-0.14603,5.04504,-1.19355,1.89344,5.04460,-1.03782,-0.28012,0.00000,A,120942.50
1.96212,57.67097783,11.99832483,57.67097200,11.99836517,12:09:42.637323,0.00825,1.35259,1.35259,0.01087,-0.01305,0.02951,0.04238,-0.12124,-0.07409,-0.01790,0.86324,1.95363,0.85306,-0.16604,-0.14603,5.05332,-1.19501,1.89344,5.04460,-1.03782,-0.28012,0.00000,A,120942.50
1.97241,57.67097783,11.99832483,57.67097200,11.99836517,12:09:42.647643,0.00828,1.34450,1.34450,0.01104,-0.01305,0.03338,0.03258,-0.12690,-0.08951,0.02268,0.86751,1.96387,0.88648,-0.16616,-0.14603,5.06964,-1.19782,1.89344,5.04460,-1.03782,-0.28012,0.00000,A,120942.50
1.98299,57.67097783,11.99832483,57.67097200,11.99836517,12:09:42.658195,0.00821,1.34450,1.34450,0.01124,-0.01305,0.03427,0.01757,-0.13610,-0.07978,-0.01251,0.93390,1.97432,0.88648,-0.16629,-0.14603,5.07869,-1.19942,1.89344,5.04460,-1.03782,-0.28012,0.00000,A,120942.50
1.99305,57.67097783,11.99832483,57.67097200,11.99836517,12:09:42.668252,0.00802,1.34450,1.34450,0.01145,-0.01305,0.03368,0.00381,-0.14041,-0.10067,0.01102,0.96944,1.98455,0.88648,-0.16642,-0.14603,5.08785,-1.20104,1.89344,5.04460,-1.03782,-0.28012,0.00000,A,120942.50
2.00898,57.67097783,11.99832483,57.67097150,11.99836717,12:09:42.684691,0.01377,1.34450,1.34450,0.01162,-0.01305,0.03114,-0.01546,-0.14506,-0.05711,0.01188,1.04880,1.99486,0.88648,-0.16655,-0.14603,5.09663,-1.20259,1.99305,5.16353,-1.09342,-0.43730,0.00000,A,120942.60
2.02065,57.67097783,11.99832483,57.67097150,11.99836717,12:09:42.695840,0.00941,1.34450,1.34450,0.01179,-0.01305,0.02999,-0.03366,-0.15110,-0.02305,0.02669,1.09792,2.01091,0.88720,-0.17858,-0.14603,5.13681,-1.23991,1.99305,5.16353,-1.09342,-0.43730,0.00000,A,120942.60
2.03049,57.67097783,11.99832483,57.67097150,11.99836717,12:09:42.705694,0.00844,1.34450,1.34450,0.01219,-0.01305,0.03322,-0.03226,-0.14567,-0.01745,0.02770,1.06663,2.02223,0.88720,-0.17881,-0.14603,5.15203,-1.24281,1.99305,5.16353,-1.09342,-0.43730,0.00000,A,120942.60
2.04203,57.67097783,11.99832483,57.67097150,11.99836717,12:09:42.717204,0.00952,1.34450,1.34450,0.01235,-0.01299,0.03211,-0.03336,-0.15224,-0.00856,0.03826,1.01436,2.03203,0.88720,-0.17893,-0.14603,5.16070,-1.24447,1.99305,5.16353,-1.09342,-0.43730,0.00000,A,120942.60
2.05155,57.67097783,11.99832483,57.67097150,11.99836717,12:09:42.726758,0.00806,1.34450,1.34450,0.01248,-0.01299,0.02779,-0.03746,-0.14795,-0.01514,0.04664,0.94127,2.04301,0.88720,-0.17907,-0.14603,5.16960,-1.24616,1.99305,5.16353,-1.09342,-0.43730,0.00000,A,120942.60
2.06244,57.67097783,11.99832483,57.67097150,11.99836717,12:09:42.737648,0.00807,1.34450,1.34450,0.01260,-0.01299,0.02637,-0.03822,-0.14626,-0.00444,0.04431,0.88766,2.05397,0.88720,-0.17920,-0.14603,5.17900,-1.24795,1.99305,5.16353,-1.09342,-0.43730,0.00000,A,120942.60
2.07256,57.67097783,11.99832483,57.67097150,11.99836717,12:09:42.747748,0.00801,1.34450,1.34450,0.01268,-0.01299,0.02307,-0.02661,-0.14699,-0.00135,0.04953,0.85693,2.06428,0.88720,-0.17934,-0.14603,5.18849,-1.24976,1.99305,5.16353,-1.09342,-0.43730,0.00000,A,120942.60
2.08301,57.67097783,11.99832483,57.67097150,11.99836717,12:09:42.758215,0.00828,1.34450,1.34450,0.01272,-0.01299,0.02053,-0.01269,-0.14227,0.00406,0.06063,0.86933,2.07433,0.88720,-0.17947,-0.14603,5.19739,-1.25145,1.99305,5.16353,-1.09342,-0.43730,0.00000,A,120942.60
2.09292,57.67097783,11.99832483,57.67097150,11.99836717,12:09:42.768122,0.00801,1.34450,1.34450,0.01277,-0.01299,0.02291,0.00166,-0.14161,0.02194,0.05902,0.92813,2.08443,0.88720,-0.17961,-0.14603,5.20641,-1.25317,1.99305,5.16353,-1.09342,-0.43730,0.00000,A,120942.60
2.10962,57.67097783,11.99832483,57.67097083,11.99836933,12:09:42.784800,0.01398,1.34450,1.34450,0.01282,-0.01299,0.02291,0.01937,-0.14308,0.01251,0.05934,1.04843,2.09497,0.88720,-0.17973,-0.14603,5.21505,-1.25482,2.09292,5.29237,-1.16755,-0.52211,0.00000,A,120942.70
2.12048,57.67097783,11.99832483,57.67097083,11.99836933,12:09:42.795672,0.00915,1.34450,1.34450,0.01286,-0.01299,0.02113,0.04153,-0.13969,-0.04032,0.07653,1.14964,2.11101,0.88795,-0.19492,-0.14603,5.26208,-1.30677,2.09292,5.29237,-1.16755,-0.52211,0.00000,A,120942.70
2.13045,57.67097783,11.99832483,57.67097083,11.99836933,12:09:42.805644,0.00858,1.34450,1.34450,0.01300,-0.01299,0.01712,0.04337,-0.13954,-0.07202,0.07869,1.14226,2.12205,0.88795,-0.19515,-0.14603,5.27705,-1.30988,2.09292,5.29237,-1.16755,-0.52211,0.00000,A,120942.70
2.14069,57.67097783,11.99832483,57.67097083,11.99836933,12:09:42.815887,0.00822,1.34450,1.34450,0.01291,-0.01299,0.00908,0.02867,-0.14591,-0.08707,0.05275,1.10097,2.13211,0.88795,-0.19528,-0.14603,5.28572,-1.31168,2.09292,5.29237,-1.16755,-0.52211,0.00000,A,120942.70
2.15170,57.67097783,11.99832483,57.67097083,11.99836933,12:09:42.826911,0.00896,1.41024,1.41024,0.01274,-0.01302,-0.00170,0.00559,-0.15101,-0.10466,0.07744,1.04394,2.14307,0.92346,-0.19542,-0.14603,5.30283,-1.31515,2.09292,5.29237,-1.16755,-0.52211,0.00000,A,120942.70
2.16122,57.67097783,11.99832483,57.67097083,11.99836933,12:09:42.836429,0.00815,1.41024,1.41024,0.01244,-0.01347,-0.01818,-0.00470,-0.16296,-0.09988,0.05122,0.95676,2.15269,0.92346,-0.19557,-0.14603,5.31279,-1.31722,2.09292,5.29237,-1.16755,-0.52211,0.00000,A,120942.70
2.17152,57.67097783,11.99832483,57.67097083,11.99836933,12:09:42.846722,0.00826,1.41024,1.41024,0.01212,-0.01466,-0.02395,-0.02278,-0.17581,-0.07414,0.05400,0.87259,2.16287,0.92346,-0.19571,-0.14603,5.32138,-1.31901,2.09292,5.29237,-1.16755,-0.52211,0.00000,A,120942.70
2.18212,57.67097783,11.99832483,57.67097083,11.99836933,12:09:42.857313,0.00864,1.41024,1.41024,0.01168,-0.01659,-0.03931,-0.02970,-0.18673,-0.04671,0.04464,0.80286,2.17350,0.92346,-0.19586,-0.14603,5.33056,-1.32092,2.09292,5.29237,-1.16755,-0.52211,0.00000,A,120942.70
2.19344,57.67097783,11.99832483,57.67097083,11.99836933,12:09:42.868638,0.00990,1.41024,1.41024,0.01119,-0.01908,-0.04417,-0.03861,-0.19676,-0.01869,0.05627,0.77091,2.18375,0.92346,-0.19604,-0.14603,5.34027,-1.32296,2.09292,5.29237,-1.16755,-0.52211,0.00000,A,120942.70
2.21110,57.67097783,11.99832483,57.67097033,11.99837133,12:09:42.886288,0.01627,1.41024,1.41024,0.01059,-0.02176,-0.05436,-0.04778,-0.19771,-0.02415,0.06697,0.76429,2.19506,0.92346,-0.19625,-0.14603,5.35058,-1.32514,2.19344,5.41130,-1.22314,-0.43730,0.00000,A,120942.80
2.22199,57.67097783,11.99832483,57.67097033,11.99837133,12:09:42.897182,0.00954,1.41024,1.41024,0.00993,-0.02530,-0.06441,-0.05754,-0.19572,-0.02424,0.05640,0.81258,2.21264,0.92411,-0.20707,-0.14603,5.38668,-1.36727,2.19344,5.41130,-1.22314,-0.43730,0.00000,A,120942.80
2.23180,57.67097783,11.99832483,57.67097033,11.99837133,12:09:42.906989,0.00841,1.41024,1.41024,0.00889,-0.02706,-0.06270,-0.05890,-0.19184,-0.02404,0.05994,0.88993,2.22358,0.92411,-0.20747,-0.14603,5.40224,-1.37081,2.19344,5.41130,-1.22314,-0.43730,0.00000,A,120942.80
2.24195,57.67097783,11.99832483,57.67097033,11.99837133,12:09:42.917144,0.00815,1.41024,1.41024,0.00833,-0.02844,-0.06452,-0.05874,-0.19066,-0.01525,0.04959,0.97224,2.23344,0.92411,-0.20771,-0.14603,5.41114,-1.37284,2.19344,5.41130,-1.22314,-0.43730,0.00000,A,120942.80
2.25306,57.67097783,11.99832483,57.67097033,11.99837133,12:09:42.928265,0.00908,1.41024,1.41024,0.00777,-0.02997,-0.06481,-0.06254,-0.18806,-0.00089,0.05558,1.06609,2.24380,0.92411,-0.20796,-0.14603,5.42022,-1.37492,2.19344,5.41130,-1.22314,-0.43730,0.00000,A,120942.80
2.26261,57.67097783,11.99832483,57.67097033,11.99837133,12:09:42.937811,0.00819,1.41024,1.41024,0.00713,-0.03187,-0.06958,-0.05481,-0.20032,0.03054,0.05047,1.18671,2.25412,0.92411,-0.20825,-0.14603,5.43021,-1.37722,2.19344,5.41130,-1.22314,-0.43730,0.00000,A,120942.80
2.27322,57.67097783,11.99832483,57.67097033,11.99837133,12:09:42.948407,0.00862,1.41024,1.41024,0.00659,-0.03419,-0.07436,-0.04218,-0.20983,0.06586,0.04619,1.27487,2.26481,0.92411,-0.20852,-0.14603,5.43883,-1.37921,2.19344,5.41130,-1.22314,-0.43730,0.00000,A,120942.80
2.28315,57.67097783,11.99832483,57.67097033,11.99837133,12:09:42.958357,0.00836,1.41024,1.41024,0.00600,-0.03693,-0.07207,-0.01259,-0.21662,0.07491,0.03827,1.32871,2.27448,0.92411,-0.20884,-0.14603,5.44845,-1.38145,2.19344,5.41130,-1.22314,-0.43730,0.00000,A,120942.80
2.29295,57.67097783,11.99832483,57.67097033,11.99837133,12:09:42.968145,0.00791,1.41024,1.41024,0.00550,-0.03988,-0.07560,0.01775,-0.22915,0.04941,0.03805,1.30823,2.28445,0.92411,-0.20915,-0.14603,5.45730,-1.38352,2.19344,5.41130,-1.22314,-0.43730,0.00000,A,120942.80
2.30902,57.67097783,11.99832483,57.67097000,11.99837367,12:09:42.984209,0.01382,1.41024,1.41024,0.00500,-0.04277,-0.07666,0.03134,-0.22933,-0.01312,0.02117,1.13019,2.29487,0.92411,-0.20948,-0.14603,5.46612,-1.38560,2.29295,5.55005,-1.26021,-0.26104,0.00000,A,120942.90
2.32055,57.67097783,11.99832483,57.67097000,11.99837367,12:09:42.995744,0.00927,1.45139,1.45139,0.00436,-0.04684,-0.08858,0.02896,-0.21622,-0.04558,0.01881,0.91403,2.31098,0.96117,-0.21205,-0.14603,5.51214,-1.40815,2.29295,5.55005,-1.26021,-0.26104,0.00000,A,120942.90
2.33053,57.67097783,11.99832483,57.67097000,11.99837367,12:09:43.005726,0.00858,1.45139,1.45139,0.00318,-0.04911,-0.08407,0.02038,-0.22074,-0.06057,-0.05708,0.80865,2.32209,0.96117,-0.21275,-0.14603,5.52834,-1.41211,2.29295,5.55005,-1.26021,-0.26104,0.00000,A,120942.90
2.34190,57.67097783,11.99832483,57.67097000,11.99837367,12:09:43.017089,0.00987,1.45139,1.45139,0.00264,-0.05080,-0.08617,0.00651,-0.21569,-0.07869,-0.03738,0.73010,2.33230,0.96117,-0.21318,-0.14603,5.53775,-1.41443,2.29295,5.55005,-1.26021,-0.26104,0.00000,A,120942.90
2.35677,57.67097783,11.99832483,57.67097000,11.99837367,12:09:43.031954,0.01349,3.00000,1.45139,0.00206,-0.05230,-0.08028,-0.00065,-0.21069,-0.06565,-0.06183,0.69399,2.34468,1.09981,-0.21367,-0.14603,5.58023,-1.42391,2.29295,5.55005,-1.26021,-0.26104,0.00000,A,120942.90
2.36843,57.67097783,11.99832483,57.67097000,11.99837367,12:09:43.043621,0.01025,3.00000,1.45139,0.00147,-0.05361,-0.06847,-0.01011,-0.21039,0.00209,-0.03534,0.76238,2.35876,1.09981,-0.21439,-0.14603,5.59531,-1.42764,2.29295,5.55005,-1.26021,-0.26104,0.00000,A,120942.90
2.37918,57.67097783,11.99832483,57.67097000,11.99837367,12:09:43.054372,0.00936,3.00000,1.45139,0.00106,-0.05411,-0.07065,0.01050,-0.21165,0.04226,0.00064,0.95347,2.37086,1.09981,-0.21503,-0.14603,5.60855,-1.43093,2.29295,5.55005,-1.26021,-0.26104,0.00000,A,120942.90
2.39003,57.67097783,11.99832483,57.67097000,11.99837367,12:09:43.065220,0.00945,3.00000,1.45139,0.00074,-0.05423,-0.07489,0.03523,-0.21363,0.06023,-0.00160,1.12658,2.38153,1.09981,-0.21560,-0.14603,5.62003,-1.43379,2.29295,5.55005,-1.26021,-0.26104,0.00000,A,120942.90
2.40668,57.67097783,11.99832483,57.67096950,11.99837567,12:09:43.082006,0.01525,3.00000,1.45139,0.00046,-0.05423,-0.07034,0.04913,-0.21180,0.01322,0.03098,1.25674,2.39247,1.09981,-0.21617,-0.14603,5.63160,-1.43667,2.39003,5.66898,-1.31581,-0.43730,0.00000,A,120943.00
2.41878,57.67097783,11.99832483,57.67096950,11.99837567,12:09:43.093973,0.01060,3.00000,1.45139,0.00023,-0.05448,-0.06830,0.05584,-0.21498,-0.07402,-0.01475,1.27507,2.40919,1.10017,-0.22644,-0.14603,5.65208,-1.46624,2.39003,5.66898,-1.31581,-0.43730,0.00000,A,120943.00
2.42972,57.67097783,11.99832483,57.67096950,11.99837567,12:09:43.104917,0.00954,3.00000,1.45139,-0.00040,-0.05522,-0.05914,0.02742,-0.21843,-0.13676,-0.04138,1.12406,2.42118,1.10017,-0.22739,-0.14603,5.67119,-1.47130,2.39003,5.66898,-1.31581,-0.43730,0.00000,A,120943.00
2.44044,57.67097783,11.99832483,57.67096950,11.99837567,12:09:43.115631,0.00931,3.00000,1.45139,-0.00048,-0.05629,-0.05652,-0.00562,-0.22920,-0.13584,-0.04463,1.00460,2.43220,1.10017,-0.22798,-0.14603,5.68296,-1.47441,2.39003,5.66898,-1.31581,-0.43730,0.00000,A,120943.00
2.45137,57.67097783,11.99832483,57.67096950,11.99837567,12:09:43.126568,0.00880,3.00000,1.45139,-0.00051,-0.05771,-0.05345,-0.03496,-0.23317,-0.12039,-0.04174,0.90492,2.44315,1.10017,-0.22857,-0.14603,5.69434,-1.47744,2.39003,5.66898,-1.31581,-0.43730,0.00000,A,120943.00
2.46323,57.67097783,11.99832483,57.67096950,11.99837567,12:09:43.138427,0.01046,3.00000,1.45139,-0.00044,-0.05884,-0.04284,-0.05038,-0.23175,-0.08052,-0.04124,0.81732,2.45381,1.10017,-0.22918,-0.14603,5.70597,-1.48053,2.39003,5.66898,-1.31581,-0.43730,0.00000,A,120943.00
2.47553,57.67097783,11.99832483,57.67096950,11.99837567,12:09:43.150724,0.01091,3.00000,1.45139,-0.00028,-0.05972,-0.03261,-0.05434,-0.22981,-0.00284,-0.01214,0.77927,2.46577,1.10017,-0.22982,-0.14603,5.71792,-1.48372,2.39003,5.66898,-1.31581,-0.43730,0.00000,A,120943.00
2.48739,57.67097783,11.99832483,57.67096950,11.99837567,12:09:43.162580,0.01047,3.00000,1.45139,-0.00017,-0.06017,-0.03436,-0.04666,-0.22113,0.02847,0.00357,0.79776,2.47813,1.10017,-0.23056,-0.14603,5.73151,-1.48736,2.39003,5.66898,-1.31581,-0.43730,0.00000,A,120943.00
2.49781,57.67097783,11.99832483,57.67096950,11.99837567,12:09:43.173010,0.00904,3.00000,1.45139,-0.00012,-0.06023,-0.04121,-0.03809,-0.21626,0.03965,0.01081,0.84674,2.48949,1.10017,-0.23126,-0.14603,5.74424,-1.49077,2.39003,5.66898,-1.31581,-0.43730,0.00000,A,120943.00
2.51345,57.67097783,11.99832483,57.67096883,11.99837783,12:09:43.189163,0.01425,1.61923,1.61923,-0.00014,-0.06023,-0.05316,-0.02386,-0.20983,0.04333,0.02057,0.91058,2.49936,1.13547,-0.23186,-0.14603,5.76342,-1.49560,2.49781,5.79782,-1.38994,-0.52211,0.00000,A,120943.10
2.52455,57.67097783,11.99832483,57.67096883,11.99837783,12:09:43.199745,0.00881,1.61923,1.61923,-0.00019,-0.06023,-0.06100,0.01706,-0.21275,0.01652,0.00749,1.06054,2.51501,1.13590,-0.24521,-0.14603,5.78157,-1.53529,2.49781,5.79782,-1.38994,-0.52211,0.00000,A,120943.10
2.53461,57.67097783,11.99832483,57.67096883,11.99837783,12:09:43.209808,0.00801,1.61923,1.61923,-0.00064,-0.06023,-0.05903,0.02914,-0.20982,-0.01163,-0.01414,1.11929,2.52635,1.13590,-0.24621,-0.14603,5.79972,-1.54053,2.49781,5.79782,-1.38994,-0.52211,0.00000,A,120943.10
2.54503,57.67097783,11.99832483,57.67096883,11.99837783,12:09:43.220213,0.00824,1.61923,1.61923,-0.00057,-0.06023,-0.04666,0.03431,-0.21322,-0.02427,-0.02490,1.13953,2.53613,1.13590,-0.24682,-0.14603,5.81079,-1.54371,2.49781,5.79782,-1.38994,-0.52211,0.00000,A,120943.10
2.55481,57.67097783,11.99832483,57.67096883,11.99837783,12:09:43.230108,0.00785,1.61923,1.61923,-0.00041,-0.06023,-0.03880,0.02910,-0.21891,-0.03148,-0.03070,1.11302,2.54662,1.13590,-0.24742,-0.14603,5.82163,-1.54684,2.49781,5.79782,-1.38994,-0.52211,0.00000,A,120943.10
2.56638,57.67097783,11.99832483,57.67096883,11.99837783,12:09:43.241551,0.00924,1.61923,1.61923,-0.00022,-0.06023,-0.03607,0.01319,-0.22391,-0.04086,-0.00958,1.05122,2.55659,1.13590,-0.24805,-0.14603,5.83288,-1.55008,2.49781,5.79782,-1.38994,-0.52211,0.00000,A,120943.10
2.57616,57.67097783,11.99832483,57.67096883,11.99837783,12:09:43.251369,0.00832,1.61923,1.61923,-0.00001,-0.06023,-0.03277,0.00159,-0.22180,-0.04409,0.00004,0.98273,2.56726,1.13590,-0.24866,-0.14603,5.84407,-1.55330,2.49781,5.79782,-1.38994,-0.52211,0.00000,A,120943.10
2.58617,57.67097783,11.99832483,57.67096883,11.99837783,12:09:43.261369,0.00814,1.61923,1.61923,0.00017,-0.06023,-0.03427,-0.00359,-0.22071,-0.03841,-0.01953,0.92036,2.57746,1.13590,-0.24931,-0.14603,5.85581,-1.55669,2.49781,5.79782,-1.38994,-0.52211,0.00000,A,120943.10
2.59619,57.67097783,11.99832483,57.67096883,11.99837783,12:09:43.271384,0.00795,1.61923,1.61923,0.00036,-0.06023,-0.03342,-0.01060,-0.21597,-0.02859,-0.01910,0.88218,2.58757,1.13590,-0.24992,-0.14603,5.86684,-1.55987,2.49781,5.79782,-1.38994,-0.52211,0.00000,A,120943.10
2.61224,57.67097783,11.99832483,57.67096833,11.99838000,12:09:43.287424,0.01383,1.61923,1.61923,0.00051,-0.06023,-0.03651,-0.01471,-0.21446,-0.02439,-0.02612,0.86617,2.59807,1.13590,-0.25053,-0.14603,5.87778,-1.56302,2.59619,5.92666,-1.44553,-0.40738,0.00000,A,120943.20
2.62308,57.67097783,11.99832483,57.67096833,11.99838000,12:09:43.298274,0.00866,1.61923,1.61923,0.00059,-0.06023,-0.04636,-0.01614,-0.22524,0.00432,-0.01702,0.89630,2.61374,1.13628,-0.25803,-0.14603,5.90556,-1.59479,2.59619,5.92666,-1.44553,-0.40738,0.00000,A,120943.20
2.63304,57.67097783,11.99832483,57.67096833,11.99838000,12:09:43.308226,0.00850,1.61923,1.61923,0.00035,-0.06023,-0.04821,-0.00682,-0.22518,0.00062,-0.01222,0.98316,2.62479,1.13628,-0.25904,-0.14603,5.92369,-1.60027,2.59619,5.92666,-1.44553,-0.40738,0.00000,A,120943.20
2.64301,57.67097783,11.99832483,57.67096833,11.99838000,12:09:43.318207,0.00783,1.61923,1.61923,0.00043,-0.06023,-0.04525,0.00297,-0.22013,0.00775,-0.01436,1.01963,2.63452,1.13628,-0.25965,-0.14603,5.93463,-1.60358,2.59619,5.92666,-1.44553,-0.40738,0.00000,A,120943.20
2.65326,57.67097783,11.99832483,57.67096833,11.99838000,12:09:43.328448,0.00791,1.61923,1.61923,0.00060,-0.06023,-0.03564,0.00648,-0.22091,0.01694,-0.00785,1.10817,2.64507,1.13628,-0.26025,-0.14603,5.94537,-1.60682,2.59619,5.92666,-1.44553,-0.40738,0.00000,A,120943.20
2.66348,57.67097783,11.99832483,57.67096833,11.99838000,12:09:43.338676,0.00795,1.61923,1.61923,0.00085,-0.06023,-0.02514,0.02098,-0.22410,0.01857,-0.01014,1.13900,2.65487,1.13628,-0.26087,-0.14603,5.95665,-1.61023,2.59619,5.92666,-1.44553,-0.40738,0.00000,A,120943.20
2.67458,57.67097783,11.99832483,57.67096833,11.99838000,12:09:43.349772,0.00888,1.46967,1.46967,0.00117,-0.06023,-0.01966,0.02967,-0.22645,0.00377,0.01252,1.13182,2.66575,1.15895,-0.26149,-0.14603,5.97279,-1.61491,2.59619,5.92666,-1.44553,-0.40738,0.00000,A,120943.20
2.68453,57.67097783,11.99832483,57.67096833,11.99838000,12:09:43.359725,0.00835,1.46967,1.46967,0.00149,-0.06023,-0.01754,0.02907,-0.22344,-0.01592,0.01831,1.10490,2.67592,1.15895,-0.26218,-0.14603,5.98522,-1.61867,2.59619,5.92666,-1.44553,-0.40738,0.00000,A,120943.20
2.69465,57.67097783,11.99832483,57.67096833,11.99838000,12:09:43.369857,0.00828,1.46967,1.46967,0.00173,-0.06023,-0.02703,0.02727,-0.21697,-0.04361,0.01861,1.03899,2.68583,1.15895,-0.26279,-0.14603,5.99614,-1.62197,2.59619,5.92666,-1.44553,-0.40738,0.00000,A,120943.20
2.71044,57.67097783,11.99832483,57.67096767,11.99838217,12:09:43.385628,0.01389,1.46967,1.46967,0.00196,-0.06023,-0.02548,0.01935,-0.21291,-0.05694,0.00612,0.97800,2.69633,1.15895,-0.26341,-0.14603,6.00737,-1.62537,2.69465,6.05551,-1.51966,-0.52211,0.00000,A,120943.30
2.72139,57.67097783,11.99832483,57.67096767,11.99838217,12:09:43.396586,0.00958,1.46967,1.46967,0.00213,-0.06023,-0.03141,0.00763,-0.20523,-0.06998,-0.01544,0.88180,2.71198,1.15936,-0.27539,-0.14603,6.03437,-1.66497,2.69465,6.05551,-1.51966,-0.52211,0.00000,A,120943.30
2.73079,57.67097783,11.99832483,57.67096767,11.99838217,12:09:43.405985,0.00801,1.46967,1.46967,0.00209,-0.06023,-0.02821,-0.00533,-0.20081,-0.05607,-0.01631,0.86397,2.72257,1.15936,-0.27643,-0.14603,6.05289,-1.67093,2.69465,6.05551,-1.51966,-0.52211,0.00000,A,120943.30
2.74130,57.67097783,11.99832483,57.67096767,11.99838217,12:09:43.416494,0.00833,1.46967,1.46967,0.00224,-0.06023,-0.03131,-0.01068,-0.20190,-0.04151,-0.00201,0.86978,2.73265,1.15936,-0.27702,-0.14603,6.06337,-1.67429,2.69465,6.05551,-1.51966,-0.52211,0.00000,A,120943.30
2.75130,57.67097783,11.99832483,57.67096767,11.99838217,12:09:43.426503,0.00813,1.46967,1.46967,0.00242,-0.06023,-0.02555,-0.01418,-0.19847,-0.01410,0.01043,0.89459,2.74280,1.15936,-0.27766,-0.14603,6.07472,-1.67794,2.69465,6.05551,-1.51966,-0.52211,0.00000,A,120943.30
2.76152,57.67097783,11.99832483,57.67096767,11.99838217,12:09:43.436725,0.00818,1.46967,1.46967,0.00258,-0.06023,-0.02686,-0.01126,-0.19371,-0.00757,0.02764,0.91010,2.75298,1.15936,-0.27829,-0.14603,6.08590,-1.68154,2.69465,6.05551,-1.51966,-0.52211,0.00000,A,120943.30
2.77196,57.67097783,11.99832483,57.67096767,11.99838217,12:09:43.447161,0.00844,1.46967,1.46967,0.00268,-0.06023,-0.03204,-0.01095,-0.19276,-0.00540,0.02278,0.92633,2.76297,1.15936,-0.27892,-0.14603,6.09717,-1.68516,2.69465,6.05551,-1.51966,-0.52211,0.00000,A,120943.30
2.78267,57.67097783,11.99832483,57.67096767,11.99838217,12:09:43.457878,0.00840,1.46967,1.46967,0.00276,-0.06023,-0.03479,-0.01399,-0.19014,-0.01490,0.03348,0.93270,2.77381,1.15936,-0.27954,-0.14603,6.10815,-1.68869,2.69465,6.05551,-1.51966,-0.52211,0.00000,A,120943.30
2.79230,57.67097783,11.99832483,57.67096767,11.99838217,12:09:43.467510,0.00799,1.46967,1.46967,0.00268,-0.06023,-0.04614,-0.01183,-0.18620,-0.02944,0.01573,0.93323,2.78381,1.15936,-0.28024,-0.14603,6.12052,-1.69267,2.69465,6.05551,-1.51966,-0.52211,0.00000,A,120943.30
2.80826,57.67097783,11.99832483,57.67096700,11.99838417,12:09:43.483948,0.01377,1.46967,1.46967,0.00266,-0.06023,-0.04558,-0.01278,-0.19259,-0.05037,0.01980,0.95554,2.79427,1.15936,-0.28084,-0.14603,6.13117,-1.69609,2.79230,6.17443,-1.59379,-0.55738,0.00000,A,120943.40
2.81923,57.67097783,11.99832483,57.67096700,11.99838417,12:09:43.494422,0.00870,1.46967,1.46967,0.00265,-0.06023,-0.04367,-0.01493,-0.19590,-0.02730,-0.00457,1.03872,2.80978,1.15974,-0.29361,-0.14603,6.15482,-1.73797,2.79230,6.17443,-1.59379,-0.55738,0.00000,A,120943.40
2.82912,57.67097783,11.99832483,57.67096700,11.99838417,12:09:43.504311,0.00850,1.46967,1.46967,0.00234,-0.06023,-0.04893,-0.01271,-0.21064,-0.00588,-0.01138,1.08236,2.82080,1.15974,-0.29465,-0.14603,6.17308,-1.74422,2.79230,6.17443,-1.59379,-0.55738,0.00000,A,120943.40
2.83895,57.67097783,11.99832483,57.67096700,11.99838417,12:09:43.514151,0.00814,1.46967,1.46967,0.00227,-0.06023,-0.05632,-0.00557,-0.21873,0.01373,-0.00906,1.09744,2.83024,1.15974,-0.29528,-0.14603,6.18405,-1.74796,2.79230,6.17443,-1.59379,-0.55738,0.00000,A,120943.40
2.84934,57.67097783,11.99832483,57.67096700,11.99838417,12:09:43.524538,0.00831,1.42858,1.42858,0.00224,-0.06020,-0.05332,-0.00542,-0.21946,0.01602,-0.00540,1.08356,2.84056,1.17803,-0.29589,-0.14603,6.19885,-1.75286,2.79230,6.17443,-1.59379,-0.55738,0.00000,A,120943.40
2.85917,57.67097783,11.99832483,57.67096700,11.99838417,12:09:43.534373,0.00795,1.42858,1.42858,0.00220,-0.06009,-0.05156,0.00542,-0.22009,0.00405,0.00202,1.04044,2.85057,1.17803,-0.29655,-0.14603,6.21042,-1.75682,2.79230,6.17443,-1.59379,-0.55738,0.00000,A,120943.40
2.86940,57.67097783,11.99832483,57.67096700,11.99838417,12:09:43.544593,0.00800,1.42858,1.42858,0.00225,-0.05972,-0.04339,0.00959,-0.21073,-0.01682,0.00576,0.99240,2.86107,1.17803,-0.29717,-0.14603,6.22140,-1.76057,2.79230,6.17443,-1.59379,-0.55738,0.00000,A,120943.40
2.88050,57.67097783,11.99832483,57.67096700,11.99838417,12:09:43.555701,0.00891,1.42858,1.42858,0.00233,-0.05910,-0.03661,0.00825,-0.20274,-0.02637,0.00111,0.95022,2.87091,1.17803,-0.29782,-0.14603,6.23290,-1.76450,2.79230,6.17443,-1.59379,-0.55738,0.00000,A,120943.40
2.89044,57.67097783,11.99832483,57.67096700,11.99838417,12:09:43.565645,0.00858,1.42858,1.42858,0.00241,-0.05830,-0.03382,0.01026,-0.19752,-0.01810,-0.01024,0.92420,2.88128,1.17803,-0.29849,-0.14603,6.24500,-1.76863,2.79230,6.17443,-1.59379,-0.55738,0.00000,A,120943.40
2.90002,57.67097783,11.99832483,57.67096700,11.99838417,12:09:43.575212,0.00754,1.42858,1.42858,0.00254,-0.05748,-0.03024,0.01791,-0.19516,-0.00523,-0.00058,0.91504,2.89173,1.17803,-0.29911,-0.14603,6.25613,-1.77242,2.79230,6.17443,-1.59379,-0.55738,0.00000,A,120943.40
2.91594,57.67097783,11.99832483,57.67096633,11.99838600,12:09:43.591120,0.01327,1.42858,1.42858,0.00261,-0.05686,-0.03554,0.02207,-0.18640,0.00343,0.01395,0.93135,2.90225,1.17803,-0.29971,-0.14603,6.26705,-1.77614,2.90002,6.28345,-1.66792,-0.59716,0.00000,A,120943.50
2.92777,57.67097783,11.99832483,57.67096633,11.99838600,12:09:43.602976,0.01009,1.42858,1.42858,0.00261,-0.05627,-0.04162,0.03459,-0.18699,0.00293,0.01334,0.96850,2.91735,1.17835,-0.31342,-0.14603,6.27280,-1.81410,2.90002,6.28345,-1.66792,-0.59716,0.00000,A,120943.50
2.93724,57.67097783,11.99832483,57.67096633,11.99838600,12:09:43.612442,0.00809,1.42858,1.42858,0.00232,-0.05593,-0.04309,0.03933,-0.18487,-0.03092,0.01099,0.98840,2.92858,1.17835,-0.31442,-0.14603,6.29124,-1.82078,2.90002,6.28345,-1.66792,-0.59716,0.00000,A,120943.50
2.94765,57.67097783,11.99832483,57.67096633,11.99838600,12:09:43.622843,0.00832,1.42858,1.42858,0.00230,-0.05559,-0.04603,0.03186,-0.18332,-0.07383,0.00561,0.98624,2.93908,1.17835,-0.31500,-0.14603,6.30186,-1.82463,2.90002,6.28345,-1.66792,-0.59716,0.00000,A,120943.50
2.95794,57.67097783,11.99832483,57.67096633,11.99838600,12:09:43.633145,0.00815,1.42858,1.42858,0.00226,-0.05502,-0.04459,0.01060,-0.19059,-0.11033,-0.00637,0.98176,2.94931,1.17835,-0.31562,-0.14603,6.31352,-1.82884,2.90002,6.28345,-1.66792,-0.59716,0.00000,A,120943.50
2.96811,57.67097783,11.99832483,57.67096633,11.99838600,12:09:43.643314,0.00814,1.42858,1.42858,0.00223,-0.05426,-0.04649,-0.01095,-0.19408,-0.12890,-0.01719,0.97659,2.95944,1.17835,-0.31622,-0.14603,6.32482,-1.83293,2.90002,6.28345,-1.66792,-0.59716,0.00000,A,120943.50
2.97952,57.67097783,11.99832483,57.67096633,11.99838600,12:09:43.654688,0.00935,1.42858,1.42858,0.00228,-0.05327,-0.03761,-0.03646,-0.19496,-0.11715,-0.02281,0.97530,2.96950,1.17835,-0.31681,-0.14603,6.33610,-1.83699,2.90002,6.28345,-1.66792,-0.59716,0.00000,A,120943.50
2.98897,57.67097783,11.99832483,57.67096633,11.99838600,12:09:43.664174,0.00819,1.42858,1.42858,0.00235,-0.05199,-0.03625,-0.06765,-0.20281,-0.04906,-0.04074,0.98838,2.98010,1.17835,-0.31740,-0.14603,6.34745,-1.84108,2.90002,6.28345,-1.66792,-0.59716,0.00000,A,120943.50
2.99922,57.67097783,11.99832483,57.67096633,11.99838600,12:09:43.674411,0.00825,1.42858,1.42858,0.00243,-0.05046,-0.03427,-0.07058,-0.20810,0.00190,-0.04953,0.98673,2.99088,1.17835,-0.31799,-0.14603,6.35921,-1.84531,2.90002,6.28345,-1.66792,-0.59716,0.00000,A,120943.50
3.01404,57.67097783,11.99832483,57.67096567,11.99838817,12:09:43.689214,0.01268,1.42858,1.42858,0.00251,-0.04854,-0.03530,-0.06340,-0.20718,0.04755,-0.02627,0.99169,3.00071,1.17835,-0.31856,-0.14603,6.37071,-1.84943,2.99922,6.41229,-1.74205,-0.52211,0.00000,A,120943.60
3.02523,57.67097783,11.99832483,57.67096567,11.99838817,12:09:43.700422,0.00977,1.36295,1.36295,0.00257,-0.04534,-0.03900,-0.04139,-0.20309,0.10213,0.00865,1.01050,3.01514,1.19150,-0.32782,-0.14603,6.39166,-1.88189,2.99922,6.41229,-1.74205,-0.52211,0.00000,A,120943.60
3.03447,57.67097783,11.99832483,57.67096567,11.99838817,12:09:43.709666,0.00786,1.36295,1.36295,0.00238,-0.04268,-0.03926,0.00418,-0.19149,0.09209,0.01801,1.00264,3.02598,1.19150,-0.32862,-0.14603,6.40921,-1.88842,2.99922,6.41229,-1.74205,-0.52211,0.00000,A,120943.60
3.04464,57.67097783,11.99832483,57.67096567,11.99838817,12:09:43.719831,0.00786,1.36295,1.36295,0.00241,-0.04030,-0.03721,0.03539,-0.17973,0.04543,0.01752,0.99008,3.03645,1.19150,-0.32907,-0.14603,6.41975,-1.89232,2.99922,6.41229,-1.74205,-0.52211,0.00000,A,120943.60
3.05475,57.67097783,11.99832483,57.67096567,11.99838817,12:09:43.730050,0.00778,1.36295,1.36295,0.00235,-0.03841,-0.04175,0.05223,-0.16956,-0.00794,0.00853,0.98381,3.04630,1.19150,-0.32954,-0.14603,6.43122,-1.89656,2.99922,6.41229,-1.74205,-0.52211,0.00000,A,120943.60
3.06514,57.67097783,11.99832483,57.67096567,11.99838817,12:09:43.740338,0.00799,1.36295,1.36295,0.00234,-0.03677,-0.03617,0.06005,-0.16313,-0.06506,0.01018,0.98413,3.05682,1.19150,-0.32998,-0.14603,6.44242,-1.90068,2.99922,6.41229,-1.74205,-0.52211,0.00000,A,120943.60
3.07535,57.67097783,11.99832483,57.67096567,11.99838817,12:09:43.750550,0.00802,1.36295,1.36295,0.00227,-0.03549,-0.03940,0.05151,-0.16038,-0.11133,0.00430,1.00480,3.06666,1.19150,-0.33043,-0.14603,6.45404,-1.90494,2.99922,6.41229,-1.74205,-0.52211,0.00000,A,120943.60
3.08718,57.67097783,11.99832483,57.67096567,11.99838817,12:09:43.762381,0.00967,1.36295,1.36295,0.00223,-0.03453,-0.03781,0.02799,-0.16209,-0.14502,-0.01624,1.02222,3.07752,1.19150,-0.33084,-0.14603,6.46536,-1.90908,2.99922,6.41229,-1.74205,-0.52211,0.00000,A,120943.60
3.09662,57.67097783,11.99832483,57.67096567,11.99838817,12:09:43.771812,0.00803,1.36295,1.36295,0.00210,-0.03388,-0.04189,-0.00792,-0.16668,-0.15683,-0.03718,1.03185,3.08831,1.19150,-0.33131,-0.14603,6.47825,-1.91380,2.99922,6.41229,-1.74205,-0.52211,0.00000,A,120943.60
3.11171,57.67097783,11.99832483,57.67096500,11.99839017,12:09:43.787055,0.01293,1.36295,1.36295,0.00207,-0.03362,-0.04034,-0.04370,-0.17479,-0.14548,-0.04348,1.02862,3.09830,1.19150,-0.33170,-0.14603,6.48926,-1.91782,3.09662,6.53122,-1.81618,-0.55738,0.00000,A,120943.70
3.12258,57.67097783,11.99832483,57.67096500,11.99839017,12:09:43.797777,0.00934,1.36295,1.36295,0.00211,-0.03362,-0.03203,-0.06681,-0.18574,-0.06674,-0.05351,1.02285,3.11271,1.19190,-0.34203,-0.14603,6.51161,-1.96000,3.09662,6.53122,-1.81618,-0.55738,0.00000,A,120943.70
3.13232,57.67097783,11.99832483,57.67096500,11.99839017,12:09:43.807526,0.00810,1.36295,1.36295,0.00209,-0.03360,-0.02297,-0.06604,-0.18564,-0.00421,-0.03133,1.00548,3.12382,1.19190,-0.34264,-0.14603,6.52885,-1.96658,3.09662,6.53122,-1.81618,-0.55738,0.00000,A,120943.70
3.14196,57.67097783,11.99832483,57.67096500,11.99839017,12:09:43.817149,0.00756,1.36295,1.36295,0.00228,-0.03331,-0.01812,-0.05030,-0.18241,0.04597,-0.00002,0.99465,3.13373,1.19190,-0.34303,-0.14603,6.53982,-1.97076,3.09662,6.53122,-1.81618,-0.55738,0.00000,A,120943.70
3.15281,57.67097783,11.99832483,57.67096500,11.99839017,12:09:43.828009,0.00821,1.36295,1.36295,0.00246,-0.03252,-0.01885,-0.02354,-0.17601,0.08069,0.00284,0.98012,3.14431,1.19190,-0.34342,-0.14603,6.55066,-1.97489,3.09662,6.53122,-1.81618,-0.55738,0.00000,A,120943.70
3.16278,57.67097783,11.99832483,57.67096500,11.99839017,12:09:43.837985,0.00801,1.36295,1.36295,0.00261,-0.03130,-0.01716,-0.00441,-0.16653,0.08135,0.01033,0.92627,3.15421,1.19190,-0.34384,-0.14603,6.56263,-1.97945,3.09662,6.53122,-1.81618,-0.55738,0.00000,A,120943.70
3.17312,57.67097783,11.99832483,57.67096500,11.99839017,12:09:43.848480,0.00817,1.36295,1.36295,0.00265,-0.02986,-0.02833,0.04421,-0.15495,0.04479,0.02571,0.84903,3.16493,1.19190,-0.34421,-0.14603,6.57362,-1.98362,3.09662,6.53122,-1.81618,-0.55738,0.00000,A,120943.70
3.18347,57.67097783,11.99832483,57.67096500,11.99839017,12:09:43.858670,0.00816,1.49354,1.49354,0.00264,-0.02861,-0.02745,0.05983,-0.14509,0.02350,0.01450,0.82711,3.17465,1.21242,-0.34459,-0.14603,6.58993,-1.98970,3.09662,6.53122,-1.81618,-0.55738,0.00000,A,120943.70
3.19390,57.67097783,11.99832483,57.67096500,11.99839017,12:09:43.869105,0.00813,1.49354,1.49354,0.00257,-0.02768,-0.03753,0.08303,-0.14849,-0.03884,0.00606,0.80945,3.18526,1.21242,-0.34496,-0.14603,6.60154,-1.99409,3.09662,6.53122,-1.81618,-0.55738,0.00000,A,120943.70
3.20862,57.67097783,11.99832483,57.67096417,11.99839217,12:09:43.883790,0.01267,1.49354,1.49354,0.00244,-0.02709,-0.04276,0.08971,-0.15664,-0.05649,0.00698,0.83600,3.19529,1.21242,-0.34532,-0.14603,6.61336,-1.99856,3.19390,6.65015,-1.90885,-0.66189,0.00000,A,120943.80
3.21924,57.67097783,11.99832483,57.67096417,11.99839217,12:09:43.894444,0.00927,1.49354,1.49354,0.00230,-0.02680,-0.05187,0.07729,-0.16713,-0.08928,0.02425,0.90197,3.20942,1.21269,-0.35958,-0.14603,6.63193,-2.04861,3.19390,6.65015,-1.90885,-0.66189,0.00000,A,120943.80
3.22859,57.67097783,11.99832483,57.67096417,11.99839217,12:09:43.903790,0.00798,1.49354,1.49354,0.00190,-0.02680,-0.05017,0.05143,-0.17804,-0.13843,0.01353,1.03608,3.21999,1.21269,-0.36011,-0.14603,6.64921,-2.05548,3.19390,6.65015,-1.90885,-0.66189,0.00000,A,120943.80
3.23893,57.67097783,11.99832483,57.67096417,11.99839217,12:09:43.914127,0.00814,1.49354,1.49354,0.00184,-0.02680,-0.04867,0.02725,-0.18851,-0.16977,0.00434,1.15696,3.23046,1.21269,-0.36043,-0.14603,6.65988,-2.05972,3.19390,6.65015,-1.90885,-0.66189,0.00000,A,120943.80
3.24903,57.67097783,11.99832483,57.67096417,11.99839217,12:09:43.924234,0.00796,1.49354,1.49354,0.00174,-0.02680,-0.04673,-0.00217,-0.17694,-0.15766,0.01407,1.24078,3.24041,1.21269,-0.36079,-0.14603,6.67150,-2.06435,3.19390,6.65015,-1.90885,-0.66189,0.00000,A,120943.80
3.25926,57.67097783,11.99832483,57.67096417,11.99839217,12:09:43.934448,0.00802,1.49354,1.49354,0.00165,-0.02680,-0.04564,-0.03375,-0.17006,-0.11680,-0.01155,1.26840,3.25093,1.21269,-0.36114,-0.14603,6.68287,-2.06887,3.19390,6.65015,-1.90885,-0.66189,0.00000,A,120943.80
3.26945,57.67097783,11.99832483,57.67096417,11.99839217,12:09:43.944653,0.00803,1.49354,1.49354,0.00157,-0.02680,-0.04135,-0.05601,-0.16302,-0.05322,-0.03531,1.23539,3.26085,1.21269,-0.36149,-0.14603,6.69455,-2.07351,3.19390,6.65015,-1.90885,-0.66189,0.00000,A,120943.80
3.27988,57.67097783,11.99832483,57.67096417,11.99839217,12:09:43.955078,0.00828,1.49354,1.49354,0.00154,-0.02680,-0.03805,-0.05724,-0.16371,-0.00575,-0.05235,1.15181,3.27127,1.21269,-0.36184,-0.14603,6.70593,-2.07803,3.19390,6.65015,-1.90885,-0.66189,0.00000,A,120943.80
3.29086,57.67097783,11.99832483,57.67096417,11.99839217,12:09:43.966202,0.00886,1.49354,1.49354,0.00149,-0.02680,-0.03688,-0.05063,-0.15501,0.01666,-0.04599,1.02625,3.28134,1.21269,-0.36220,-0.14603,6.71779,-2.08275,3.19390,6.65015,-1.90885,-0.66189,0.00000,A,120943.80
3.30515,57.67097783,11.99832483,57.67096350,11.99839400,12:09:43.980333,0.01280,1.49354,1.49354,0.00147,-0.02680,-0.03180,-0.03291,-0.15375,0.03389,-0.04109,0.88888,3.29180,1.21269,-0.36258,-0.14603,6.73003,-2.08762,3.29086,6.75917,-1.98298,-0.59716,0.00000,A,120943.90
3.31639,57.67097783,11.99832483,57.67096350,11.99839400,12:09:43.991593,0.00983,1.49354,1.49354,0.00151,-0.02680,-0.03067,-0.01241,-0.14619,0.01732,-0.01618,0.72453,3.30598,1.21300,-0.37321,-0.14603,6.74318,-2.12756,3.29086,6.75917,-1.98298,-0.59716,0.00000,A,120943.90
3.32617,57.67097783,11.99832483,57.67096350,11.99839400,12:09:44.001369,0.00842,1.49354,1.49354,0.00136,-0.02680,-0.03036,0.00088,-0.14483,0.01166,0.00288,0.69127,3.31712,1.21300,-0.37376,-0.14603,6.76084,-2.13487,3.29086,6.75917,-1.98298,-0.59716,0.00000,A,120943.90
3.33644,57.67097783,11.99832483,57.67096350,11.99839400,12:09:44.011639,0.00851,1.49354,1.49354,0.00131,-0.02680,-0.04023,0.01097,-0.14461,-0.01008,0.03152,0.69618,3.32729,1.21300,-0.37411,-0.14603,6.77192,-2.13945,3.29086,6.75917,-1.98298,-0.59716,0.00000,A,120943.90
3.34669,57.67097783,11.99832483,57.67096350,11.99839400,12:09:44.021895,0.00859,1.49354,1.49354,0.00115,-0.02680,-0.04983,0.02196,-0.14543,-0.02851,0.04317,0.76170,3.33749,1.21300,-0.37446,-0.14603,6.78338,-2.14419,3.29086,6.75917,-1.98298,-0.59716,0.00000,A,120943.90
3.35627,57.67097783,11.99832483,57.67096350,11.99839400,12:09:44.031448,0.00755,1.49354,1.49354,0.00091,-0.02680,-0.05984,0.02393,-0.14795,-0.04603,0.02710,0.89946,3.34796,1.21300,-0.37482,-0.14603,6.79478,-2.14891,3.29086,6.75917,-1.98298,-0.59716,0.00000,A,120943.90
3.36722,57.67097783,11.99832483,57.67096350,11.99839400,12:09:44.042428,0.00832,1.39496,1.39496,0.00068,-0.02680,-0.06053,0.01981,-0.14724,-0.04960,0.01419,1.04589,3.35842,1.22538,-0.37516,-0.14603,6.80845,-2.15451,3.29086,6.75917,-1.98298,-0.59716,0.00000,A,120943.90
3.37704,57.67097783,11.99832483,57.67096350,11.99839400,12:09:44.052242,0.00795,1.39496,1.39496,0.00034,-0.02680,-0.06644,0.01948,-0.15344,-0.04986,-0.00217,1.18681,3.36845,1.22538,-0.37554,-0.14603,6.82085,-2.15964,3.29086,6.75917,-1.98298,-0.59716,0.00000,A,120943.90
3.38845,57.67097783,11.99832483,57.67096350,11.99839400,12:09:44.063987,0.00919,1.39496,1.39496,0.00018,-0.02680,-0.05904,0.01086,-0.16732,-0.06112,-0.02415,1.26030,3.37898,1.22538,-0.37589,-0.14603,6.83197,-2.16424,3.29086,6.75917,-1.98298,-0.59716,0.00000,A,120943.90
3.39936,57.67097783,11.99832483,57.67096350,11.99839400,12:09:44.074551,0.00923,1.39496,1.39496,-0.00002,-0.02680,-0.05912,-0.00798,-0.17877,-0.04960,-0.02703,1.21956,3.39091,1.22538,-0.37627,-0.14603,6.84426,-2.16932,3.29086,6.75917,-1.98298,-0.59716,0.00000,A,120943.90
3.41522,57.67097783,11.99832483,57.67096267,11.99839600,12:09:44.090905,0.01445,1.39496,1.39496,-0.00025,-0.02680,-0.06260,-0.02163,-0.19154,-0.04408,-0.02602,1.10937,3.40094,1.22538,-0.37668,-0.14603,6.85735,-2.17474,3.39936,6.87810,-2.07564,-0.66189,0.00000,A,120944.00
3.42636,57.67097783,11.99832483,57.67096267,11.99839600,12:09:44.101560,0.00895,1.39496,1.39496,-0.00038,-0.02680,-0.06194,-0.02362,-0.19330,-0.00589,-0.01629,0.94610,3.41668,1.22567,-0.38957,-0.14603,6.86490,-2.21841,3.39936,6.87810,-2.07564,-0.66189,0.00000,A,120944.00
3.43631,57.67097783,11.99832483,57.67096267,11.99839600,12:09:44.111511,0.00850,1.39496,1.39496,-0.00095,-0.02680,-0.06729,-0.01719,-0.18948,0.02081,-0.00404,0.86698,3.42800,1.22567,-0.39015,-0.14603,6.88344,-2.22644,3.39936,6.87810,-2.07564,-0.66189,0.00000,A,120944.00
3.44664,57.67097783,11.99832483,57.67096267,11.99839600,12:09:44.121845,0.00823,1.39496,1.39496,-0.00121,-0.02680,-0.07388,-0.00431,-0.17737,0.03501,0.01732,0.83011,3.43785,1.22567,-0.39052,-0.14603,6.89504,-2.23147,3.39936,6.87810,-2.07564,-0.66189,0.00000,A,120944.00
3.45672,57.67097783,11.99832483,57.67096267,11.99839600,12:09:44.131923,0.00813,1.39496,1.39496,-0.00150,-0.02680,-0.07717,0.01270,-0.16460,0.03834,0.02493,0.82670,3.44800,1.22567,-0.39087,-0.14603,6.90629,-2.23634,3.39936,6.87810,-2.07564,-0.66189,0.00000,A,120944.00
3.46678,57.67097783,11.99832483,57.67096267,11.99839600,12:09:44.141989,0.00800,1.39496,1.39496,-0.00194,-0.02680,-0.09029,0.02756,-0.15462,0.02461,0.03604,0.84174,3.45814,1.22567,-0.39124,-0.14603,6.91772,-2.24129,3.39936,6.87810,-2.07564,-0.66189,0.00000,A,120944.00
3.47722,57.67097783,11.99832483,57.67096267,11.99839600,12:09:44.152415,0.00827,1.39496,1.39496,-0.00243,-0.02680,-0.09455,0.03357,-0.14407,-0.01053,0.02993,0.86433,3.46863,1.22567,-0.39160,-0.14603,6.92915,-2.24625,3.39936,6.87810,-2.07564,-0.66189,0.00000,A,120944.00
3.48730,57.67097783,11.99832483,57.67096267,11.99839600,12:09:44.162498,0.00793,1.39496,1.39496,-0.00310,-0.02680,-0.10809,0.04340,-0.13303,-0.05745,0.03485,0.91201,3.47870,1.22567,-0.39198,-0.14603,6.94113,-2.25143,3.39936,6.87810,-2.07564,-0.66189,0.00000,A,120944.00
3.49843,57.67097783,11.99832483,57.67096267,11.99839600,12:09:44.173638,0.00889,1.39496,1.39496,-0.00376,-0.02680,-0.11348,0.03258,-0.12744,-0.08088,0.01779,0.96973,3.48898,1.22567,-0.39233,-0.14603,6.95236,-2.25630,3.39936,6.87810,-2.07564,-0.66189,0.00000,A,120944.00
3.51278,57.67097783,11.99832483,57.67096200,11.99839783,12:09:44.187958,0.01298,1.39496,1.39496,-0.00452,-0.02680,-0.11331,0.00981,-0.13023,-0.09277,-0.02778,1.03368,3.49918,1.22567,-0.39273,-0.14603,6.96488,-2.26173,3.49843,6.98712,-2.14977,-0.59716,0.00000,A,120944.10
3.52354,57.67097783,11.99832483,57.67096200,11.99839783,12:09:44.198745,0.00940,1.39496,1.39496,-0.00504,-0.02680,-0.11306,-0.01380,-0.15007,-0.06279,-0.03513,1.10547,3.51363,1.22595,-0.40205,-0.14603,6.97305,-2.29664,3.49843,6.98712,-2.14977,-0.59716,0.00000,A,120944.10
3.53284,57.67097783,11.99832483,57.67096200,11.99839783,12:09:44.208037,0.00793,1.39496,1.39496,-0.00614,-0.02680,-0.10828,-0.01766,-0.15981,-0.01758,-0.07623,1.12124,3.52435,1.22595,-0.40260,-0.14603,6.99032,-2.30438,3.49843,6.98712,-2.14977,-0.59716,0.00000,A,120944.10
3.54370,57.67097783,11.99832483,57.67096200,11.99839783,12:09:44.218870,0.00860,1.34387,1.34387,-0.00656,-0.02680,-0.11281,-0.00794,-0.17144,0.06450,-0.04564,1.12592,3.53480,1.23397,-0.40294,-0.14603,7.00259,-2.30984,3.49843,6.98712,-2.14977,-0.59716,0.00000,A,120944.10
3.55326,57.67097783,11.99832483,57.67096200,11.99839783,12:09:44.228430,0.00784,1.34387,1.34387,-0.00702,-0.02680,-0.10986,0.00849,-0.18409,0.06695,-0.02903,1.06479,3.54467,1.23397,-0.40332,-0.14603,7.01446,-2.31516,3.49843,6.98712,-2.14977,-0.59716,0.00000,A,120944.10
3.56361,57.67097783,11.99832483,57.67096200,11.99839783,12:09:44.238815,0.00800,1.34387,1.34387,-0.00737,-0.02680,-0.10978,0.04117,-0.18500,0.02291,-0.01275,0.98634,3.55512,1.23397,-0.40366,-0.14603,7.02523,-2.31999,3.49843,6.98712,-2.14977,-0.59716,0.00000,A,120944.10
3.57376,57.67097783,11.99832483,57.67096200,11.99839783,12:09:44.248928,0.00788,1.34387,1.34387,-0.00777,-0.02680,-0.10621,0.05612,-0.18805,-0.01674,-0.00704,0.88977,3.56513,1.23397,-0.40405,-0.14603,7.03723,-2.32537,3.49843,6.98712,-2.14977,-0.59716,0.00000,A,120944.10
3.58409,57.67097783,11.99832483,57.67096200,11.99839783,12:09:44.259289,0.00804,1.34387,1.34387,-0.00806,-0.02680,-0.10260,0.05219,-0.17918,-0.04658,0.00521,0.80957,3.57559,1.23397,-0.40440,-0.14603,7.04830,-2.33033,3.49843,6.98712,-2.14977,-0.59716,0.00000,A,120944.10
3.59607,57.67097783,11.99832483,57.67096200,11.99839783,12:09:44.271238,0.00985,1.34387,1.34387,-0.00847,-0.02680,-0.10598,0.04046,-0.17228,-0.08239,-0.00315,0.77108,3.58559,1.23397,-0.40479,-0.14603,7.06030,-2.33571,3.49843,6.98712,-2.14977,-0.59716,0.00000,A,120944.10
3.61472,57.67097783,11.99832483,57.67096117,11.99839983,12:09:44.289881,0.01696,1.34387,1.34387,-0.00893,-0.02680,-0.10261,0.01116,-0.16792,-0.09884,-0.01452,0.76615,3.59778,1.23397,-0.40520,-0.14603,7.07325,-2.34152,3.59607,7.10605,-2.24243,-0.66189,0.00000,A,120944.20
3.62565,57.67097783,11.99832483,57.67096117,11.99839983,12:09:44.300816,0.00912,1.34387,1.34387,-0.00948,-0.02680,-0.10391,-0.03613,-0.15755,-0.06973,-0.04123,0.91074,3.61578,1.23421,-0.41692,-0.14603,7.08936,-2.38545,3.59607,7.10605,-2.24243,-0.66189,0.00000,A,120944.20
3.63568,57.67097783,11.99832483,57.67096117,11.99839983,12:09:44.310848,0.00833,1.34387,1.34387,-0.01050,-0.02680,-0.10246,-0.04453,-0.15673,-0.00221,-0.04700,1.03303,3.62701,1.23421,-0.41755,-0.14603,7.10861,-2.39443,3.59607,7.10605,-2.24243,-0.66189,0.00000,A,120944.20
3.64569,57.67097783,11.99832483,57.67096117,11.99839983,12:09:44.320893,0.00816,1.34387,1.34387,-0.01075,-0.02680,-0.09711,-0.03456,-0.14695,0.07197,-0.03811,1.15772,3.63687,1.23421,-0.41792,-0.14603,7.11995,-2.39972,3.59607,7.10605,-2.24243,-0.66189,0.00000,A,120944.20
3.65588,57.67097783,11.99832483,57.67096117,11.99839983,12:09:44.331084,0.00814,1.34387,1.34387,-0.01106,-0.02666,-0.10251,-0.00014,-0.13466,0.10962,-0.04059,1.29174,3.64726,1.23421,-0.41829,-0.14603,7.13130,-2.40501,3.59607,7.10605,-2.24243,-0.66189,0.00000,A,120944.20
3.66600,57.67097783,11.99832483,57.67096117,11.99839983,12:09:44.341190,0.00807,1.34387,1.34387,-0.01136,-0.02615,-0.10126,0.02429,-0.13632,0.07532,-0.02189,1.31278,3.65726,1.23421,-0.41866,-0.14603,7.14281,-2.41038,3.59607,7.10605,-2.24243,-0.66189,0.00000,A,120944.20
3.67627,57.67097783,11.99832483,57.67096117,11.99839983,12:09:44.351608,0.00814,1.34387,1.34387,-0.01169,-0.02513,-0.10578,0.03610,-0.12628,0.00999,-0.02098,1.23329,3.66764,1.23421,-0.41902,-0.14603,7.15399,-2.41559,3.59607,7.10605,-2.24243,-0.66189,0.00000,A,120944.20
3.68631,57.67097783,11.99832483,57.67096117,11.99839983,12:09:44.361513,0.00798,1.34387,1.34387,-0.01203,-0.02352,-0.10263,0.03384,-0.12008,-0.06927,-0.01779,1.08115,3.67769,1.23421,-0.41938,-0.14603,7.16562,-2.42100,3.59607,7.10605,-2.24243,-0.66189,0.00000,A,120944.20
3.69672,57.67097783,11.99832483,57.67096117,11.99839983,12:09:44.371919,0.00822,1.34387,1.34387,-0.01233,-0.02123,-0.10256,0.01336,-0.12197,-0.09126,-0.05247,0.94502,3.68806,1.23421,-0.41971,-0.14603,7.17687,-2.42623,3.59607,7.10605,-2.24243,-0.66189,0.00000,A,120944.20
3.71400,57.67097783,11.99832483,57.67096050,11.99840183,12:09:44.389166,0.01533,1.34387,1.34387,-0.01258,-0.01840,-0.09422,-0.00392,-0.12772,-0.09385,-0.07550,0.82194,3.69869,1.23421,-0.42003,-0.14603,7.18851,-2.43162,3.69672,7.22498,-2.31656,-0.55738,0.00000,A,120944.30
3.72710,57.67097783,11.99832483,57.67096050,11.99840183,12:09:44.402267,0.01115,1.41875,1.41875,-0.01282,-0.01282,-0.09022,-0.04294,-0.14399,-0.04600,-0.07343,0.71798,3.71530,1.24730,-0.42623,-0.14603,7.20624,-2.46003,3.69672,7.22498,-2.31656,-0.55738,0.00000,A,120944.30
3.73835,57.67097783,11.99832483,57.67096050,11.99840183,12:09:44.413514,0.00957,1.41875,1.41875,-0.01360,-0.00812,-0.07996,-0.04556,-0.14912,0.00309,-0.05390,0.74429,3.72801,1.24730,-0.42666,-0.14603,7.22737,-2.46994,3.69672,7.22498,-2.31656,-0.55738,0.00000,A,120944.30
3.74800,57.67097783,11.99832483,57.67096050,11.99840183,12:09:44.423168,0.00797,1.41875,1.41875,-0.01371,-0.00354,-0.07823,-0.03959,-0.14542,0.05162,-0.01920,0.83436,3.73929,1.24730,-0.42688,-0.14603,7.24050,-2.47606,3.69672,7.22498,-2.31656,-0.55738,0.00000,A,120944.30
3.75837,57.67097783,11.99832483,57.67096050,11.99840183,12:09:44.433578,0.00816,1.41875,1.41875,-0.01367,0.00102,-0.07685,-0.01742,-0.14137,0.09387,-0.01575,0.94443,3.74974,1.24730,-0.42701,-0.14603,7.25141,-2.48111,3.69672,7.22498,-2.31656,-0.55738,0.00000,A,120944.30
3.76848,57.67097783,11.99832483,57.67096050,11.99840183,12:09:44.443685,0.00807,1.41875,1.41875,-0.01379,0.00583,-0.08127,0.01106,-0.12402,0.09552,-0.00721,1.08791,3.75976,1.24730,-0.42711,-0.14603,7.26353,-2.48668,3.69672,7.22498,-2.31656,-0.55738,0.00000,A,120944.30
3.77901,57.67097783,11.99832483,57.67096050,11.99840183,12:09:44.454176,0.00842,1.41875,1.41875,-0.01394,0.01059,-0.08232,0.04631,-0.09849,0.04335,-0.02436,1.12552,3.77027,1.24730,-0.42715,-0.14603,7.27488,-2.49187,3.69672,7.22498,-2.31656,-0.55738,0.00000,A,120944.30
3.78909,57.67097783,11.99832483,57.67096050,11.99840183,12:09:44.464346,0.00816,1.41875,1.41875,-0.01423,0.01511,-0.08957,0.07039,-0.07652,-0.01064,-0.03113,1.11119,3.78017,1.24730,-0.42715,-0.14603,7.28661,-2.49719,3.69672,7.22498,-2.31656,-0.55738,0.00000,A,120944.30
3.79929,57.67097783,11.99832483,57.67096050,11.99840183,12:09:44.474496,0.00818,1.41875,1.41875,-0.01442,0.01922,-0.07714,0.06341,-0.06679,-0.06697,-0.03668,1.06136,3.79047,1.24730,-0.42711,-0.14603,7.29803,-2.50234,3.69672,7.22498,-2.31656,-0.55738,0.00000,A,120944.30
3.81708,57.67097783,11.99832483,57.67095967,11.99840367,12:09:44.492246,0.01578,1.41875,1.41875,-0.01463,0.02307,-0.07561,0.03838,-0.06250,-0.11324,-0.04932,0.97948,3.80105,1.24730,-0.42702,-0.14603,7.31004,-2.50773,3.79929,7.33400,-2.40922,-0.70447,0.00000,A,120944.40
3.82828,57.67097783,11.99832483,57.67095967,11.99840367,12:09:44.503450,0.00952,1.41875,1.41875,-0.01475,0.02844,-0.06684,0.00015,-0.07471,-0.11559,-0.06851,0.89459,3.81844,1.24749,-0.43910,-0.14603,7.31929,-2.55153,3.79929,7.33400,-2.40922,-0.70447,0.00000,A,120944.40
3.83789,57.67097783,11.99832483,57.67095967,11.99840367,12:09:44.513059,0.00792,1.41875,1.41875,-0.01527,0.03127,-0.06076,-0.02417,-0.08221,-0.10558,-0.08132,0.86736,3.82920,1.24749,-0.43878,-0.14603,7.33962,-2.56085,3.79929,7.33400,-2.40922,-0.70447,0.00000,A,120944.40
3.84852,57.67097783,11.99832483,57.67095967,11.99840367,12:09:44.523716,0.00836,1.41875,1.41875,-0.01520,0.03377,-0.05909,-0.03981,-0.09562,-0.07302,-0.07062,0.85998,3.83967,1.24749,-0.43859,-0.14603,7.35065,-2.56588,3.79929,7.33400,-2.40922,-0.70447,0.00000,A,120944.40
3.85830,57.67097783,11.99832483,57.67095967,11.99840367,12:09:44.533494,0.00796,1.41875,1.41875,-0.01520,0.03657,-0.05889,-0.05537,-0.09184,0.01424,-0.03932,0.91459,3.84970,1.24749,-0.43834,-0.14603,7.36305,-2.57152,3.79929,7.33400,-2.40922,-0.70447,0.00000,A,120944.40
3.86934,57.67097783,11.99832483,57.67095967,11.99840367,12:09:44.544504,0.00882,1.41875,1.41875,-0.01511,0.04010,-0.05263,-0.05807,-0.08190,0.08034,-0.04854,0.96437,3.86019,1.24749,-0.43809,-0.14603,7.37418,-2.57657,3.79929,7.33400,-2.40922,-0.70447,0.00000,A,120944.40
3.87936,57.67097783,11.99832483,57.67095967,11.99840367,12:09:44.554524,0.00834,1.46585,1.46585,-0.01508,0.04466,-0.04898,-0.02040,-0.05985,0.11277,-0.03349,1.02583,3.87026,1.26234,-0.43778,-0.14603,7.38941,-2.58349,3.79929,7.33400,-2.40922,-0.70447,0.00000,A,120944.40
3.88959,57.67097783,11.99832483,57.67095967,11.99840367,12:09:44.564965,0.00838,1.46585,1.46585,-0.01507,0.04973,-0.05133,0.01631,-0.04737,0.09497,-0.04040,1.07444,3.88075,1.26234,-0.43745,-0.14603,7.40078,-2.58859,3.79929,7.33400,-2.40922,-0.70447,0.00000,A,120944.40
3.89965,57.67097783,11.99832483,57.67095967,11.99840367,12:09:44.574847,0.00819,1.46585,1.46585,-0.01514,0.05502,-0.05178,0.05028,-0.03391,0.04568,-0.03812,1.10492,3.89090,1.26234,-0.43704,-0.14603,7.41300,-2.59402,3.79929,7.33400,-2.40922,-0.70447,0.00000,A,120944.40
3.91512,57.67097783,11.99832483,57.67095883,11.99840550,12:09:44.590317,0.01348,1.46585,1.46585,-0.01525,0.05997,-0.05536,0.05929,-0.03220,-0.02260,-0.01873,1.11593,3.90103,1.26234,-0.43658,-0.14603,7.42485,-2.59925,3.89965,7.44302,-2.50189,-0.70447,0.00000,A,120944.50
3.92656,57.67097783,11.99832483,57.67095883,11.99840550,12:09:44.601764,0.01008,3.00000,1.46585,-0.01531,0.06662,-0.04993,0.04617,-0.03122,-0.10663,-0.05442,1.10075,3.91621,1.38251,-0.44762,-0.14603,7.43839,-2.63998,3.89965,7.44302,-2.50189,-0.70447,0.00000,A,120944.50
3.93631,57.67097783,11.99832483,57.67095883,11.99840550,12:09:44.611509,0.00838,3.00000,1.46585,-0.01568,0.07112,-0.04888,0.03208,-0.03780,-0.13053,-0.07670,1.09939,3.92760,1.38251,-0.44663,-0.14603,7.45897,-2.64913,3.89965,7.44302,-2.50189,-0.70447,0.00000,A,120944.50
3.94656,57.67097783,11.99832483,57.67095883,11.99840550,12:09:44.621767,0.00844,3.00000,1.46585,-0.01565,0.07472,-0.03992,0.01297,-0.04361,-0.13196,-0.09265,1.06640,3.93781,1.38251,-0.44597,-0.14603,7.47172,-2.65476,3.89965,7.44302,-2.50189,-0.70447,0.00000,A,120944.50
3.95682,57.67097783,11.99832483,57.67095883,11.99840550,12:09:44.632020,0.00851,3.00000,1.46585,-0.01558,0.07795,-0.03423,-0.00917,-0.04210,-0.10187,-0.09919,1.02433,3.94799,1.38251,-0.44526,-0.14603,7.48466,-2.66045,3.89965,7.44302,-2.50189,-0.70447,0.00000,A,120944.50
3.96688,57.67097783,11.99832483,57.67095883,11.99840550,12:09:44.642078,0.00839,3.00000,1.46585,-0.01542,0.08080,-0.02189,-0.01848,-0.04113,-0.04998,-0.12169,0.97571,3.95816,1.38251,-0.44451,-0.14603,7.49764,-2.66613,3.89965,7.44302,-2.50189,-0.70447,0.00000,A,120944.50
3.97706,57.67097783,11.99832483,57.67095883,11.99840550,12:09:44.652265,0.00839,3.00000,1.46585,-0.01513,0.08332,-0.00828,-0.02581,-0.04049,-0.00855,-0.10554,0.92050,3.96835,1.38251,-0.44374,-0.14603,7.51039,-2.67168,3.89965,7.44302,-2.50189,-0.70447,0.00000,A,120944.50
3.98724,57.67097783,11.99832483,57.67095883,11.99840550,12:09:44.662449,0.00840,3.00000,1.46585,-0.01481,0.08547,-0.00345,-0.02486,-0.03426,0.00477,-0.09071,0.86975,3.97853,1.38251,-0.44292,-0.14603,7.52344,-2.67734,3.89965,7.44302,-2.50189,-0.70447,0.00000,A,120944.50
3.99885,57.67097783,11.99832483,57.67095883,11.99840550,12:09:44.674047,0.00983,3.00000,1.46585,-0.01448,0.08754,0.00084,-0.02178,-0.02734,0.00859,-0.05995,0.83345,3.98903,1.38251,-0.44209,-0.14603,7.53637,-2.68294,3.89965,7.44302,-2.50189,-0.70447,0.00000,A,120944.50
4.01661,57.67097783,11.99832483,57.67095800,11.99840733,12:09:44.691799,0.01636,3.00000,1.46585,-0.01415,0.08992,0.00667,-0.00229,-0.00818,-0.00242,-0.05537,0.82163,4.00077,1.38251,-0.44111,-0.14603,7.55123,-2.68935,3.99885,7.55204,-2.59455,-0.70447,0.00000,A,120944.60
4.02864,57.67097783,11.99832483,57.67095800,11.99840733,12:09:44.703833,0.01066,3.00000,1.46585,-0.01379,0.09496,0.01551,0.02497,0.00867,0.03528,-0.05044,0.89731,4.01869,1.38259,-0.45180,-0.14603,7.54521,-2.73553,3.99885,7.55204,-2.59455,-0.70447,0.00000,A,120944.60
4.03935,57.67097783,11.99832483,57.67095800,11.99840733,12:09:44.714537,0.00931,3.00000,1.46585,-0.01332,0.09875,0.01891,0.06186,0.02609,0.04980,-0.03939,1.00343,4.03059,1.38259,-0.45008,-0.14603,7.56902,-2.74582,3.99885,7.55204,-2.59455,-0.70447,0.00000,A,120944.60
4.04998,57.67097783,11.99832483,57.67095800,11.99840733,12:09:44.725173,0.00925,3.00000,1.46585,-0.01302,0.10197,0.01572,0.08677,0.02976,0.02696,-0.02859,1.05519,4.04167,1.38259,-0.44904,-0.14603,7.58278,-2.75172,3.99885,7.55204,-2.59455,-0.70447,0.00000,A,120944.60
4.06060,57.67097783,11.99832483,57.67095800,11.99840733,12:09:44.735791,0.00923,3.00000,1.46585,-0.01276,0.10478,0.01330,0.09103,0.02671,-0.04690,-0.01988,1.07876,4.05190,1.38259,-0.44799,-0.14603,7.59630,-2.75751,3.99885,7.55204,-2.59455,-0.70447,0.00000,A,120944.60
4.07037,57.67097783,11.99832483,57.67095800,11.99840733,12:09:44.745574,0.00837,1.62757,1.62757,-0.01253,0.10715,0.01031,0.08412,0.01780,-0.10295,-0.02185,1.06080,4.06175,1.39925,-0.44690,-0.14603,7.61333,-2.76497,3.99885,7.55204,-2.59455,-0.70447,0.00000,A,120944.60
4.08064,57.67097783,11.99832483,57.67095800,11.99840733,12:09:44.755846,0.00813,1.62757,1.62757,-0.01235,0.10908,0.00577,0.05902,0.00772,-0.16472,-0.03107,1.03315,4.07188,1.39925,-0.44586,-0.14603,7.62592,-2.77030,3.99885,7.55204,-2.59455,-0.70447,0.00000,A,120944.60
4.09080,57.67097783,11.99832483,57.67095800,11.99840733,12:09:44.765997,0.00808,1.62757,1.62757,-0.01209,0.11072,0.01646,0.02339,-0.00382,-0.15838,-0.04473,0.99544,4.08206,1.39925,-0.44476,-0.14603,7.63904,-2.77586,3.99885,7.55204,-2.59455,-0.70447,0.00000,A,120944.60
4.10660,57.67097783,11.99832483,57.67095717,11.99840917,12:09:44.781786,0.01371,1.62757,1.62757,-0.01173,0.11199,0.02280,-0.01086,-0.01216,-0.14304,-0.03975,0.94036,4.09268,1.39925,-0.44366,-0.14603,7.65194,-2.78130,4.09080,7.66106,-2.68721,-0.70447,0.00000,A,120944.70
4.11879,57.67097783,11.99832483,57.67095717,11.99840917,12:09:44.793990,0.01043,1.62757,1.62757,-0.01131,0.11332,0.02809,-0.05413,-0.02351,-0.09694,-0.07022,0.92083,4.10812,1.39934,-0.45403,-0.14603,7.65116,-2.82771,4.09080,7.66106,-2.68721,-0.70447,0.00000,A,120944.70
4.12880,57.67097783,11.99832483,57.67095717,11.99840917,12:09:44.803987,0.00859,1.62757,1.62757,-0.01063,0.11395,0.03576,-0.06269,-0.02337,-0.02142,-0.03085,0.93749,4.12034,1.39934,-0.45203,-0.14603,7.67399,-2.83737,4.09080,7.66106,-2.68721,-0.70447,0.00000,A,120944.70
4.13850,57.67097783,11.99832483,57.67095717,11.99840917,12:09:44.813712,0.00810,1.62757,1.62757,-0.01020,0.11457,0.03280,-0.05762,-0.01758,0.01429,-0.00121,0.96254,4.12983,1.39934,-0.45088,-0.14603,7.68701,-2.84288,4.09080,7.66106,-2.68721,-0.70447,0.00000,A,120944.70
4.14885,57.67097783,11.99832483,57.67095717,11.99840917,12:09:44.824048,0.00827,1.62757,1.62757,-0.00988,0.11567,0.02776,-0.05313,-0.00418,0.03849,0.00550,0.98856,4.14027,1.39934,-0.44978,-0.14603,7.69948,-2.84815,4.09080,7.66106,-2.68721,-0.70447,0.00000,A,120944.70
4.15866,57.67097783,11.99832483,57.67095717,11.99840917,12:09:44.833856,0.00767,1.62757,1.62757,-0.00970,0.11734,0.02082,-0.02747,0.02734,0.04184,0.01218,1.00898,4.15025,1.39934,-0.44858,-0.14603,7.71294,-2.85383,4.09080,7.66106,-2.68721,-0.70447,0.00000,A,120944.70
4.16948,57.67097783,11.99832483,57.67095717,11.99840917,12:09:44.844685,0.00830,1.62757,1.62757,-0.00966,0.11921,0.01025,-0.00986,0.03790,0.02253,0.00550,1.01531,4.16069,1.39934,-0.44743,-0.14603,7.72560,-2.85915,4.09080,7.66106,-2.68721,-0.70447,0.00000,A,120944.70
4.17954,57.67097783,11.99832483,57.67095717,11.99840917,12:09:44.854740,0.00818,1.62757,1.62757,-0.00976,0.12097,-0.00263,0.01048,0.04435,-0.01160,-0.01060,1.00338,4.17083,1.39934,-0.44616,-0.14603,7.73931,-2.86490,4.09080,7.66106,-2.68721,-0.70447,0.00000,A,120944.70
4.18958,57.67097783,11.99832483,57.67095717,11.99840917,12:09:44.864785,0.00804,1.62757,1.62757,-0.00991,0.12238,-0.00417,0.02639,0.05117,-0.03879,-0.00179,1.00875,4.18094,1.39934,-0.44493,-0.14603,7.75242,-2.87039,4.09080,7.66106,-2.68721,-0.70447,0.00000,A,120944.70
4.19937,57.67097783,11.99832483,57.67095717,11.99840917,12:09:44.874566,0.00766,1.62757,1.62757,-0.01014,0.12348,-0.01486,0.03202,0.04641,-0.07283,-0.00621,1.01458,4.19097,1.39934,-0.44370,-0.14603,7.76539,-2.87581,4.09080,7.66106,-2.68721,-0.70447,0.00000,A,120944.70
4.21483,57.67097783,11.99832483,57.67095633,11.99841100,12:09:44.890079,0.01293,1.62757,1.62757,-0.01035,0.12428,-0.01455,0.03214,0.03953,-0.08295,-0.00483,1.01116,4.20139,1.39934,-0.44247,-0.14603,7.77817,-2.88113,4.19937,7.77008,-2.77987,-0.70447,0.00000,A,120944.80
4.22641,57.67097783,11.99832483,57.67095633,11.99841100,12:09:44.901613,0.01011,1.62757,1.62757,-0.01048,0.12484,-0.00778,0.01070,0.02594,-0.09763,-0.02742,0.99390,4.21602,1.39942,-0.45272,-0.14603,7.76584,-2.92264,4.19937,7.77008,-2.77987,-0.70447,0.00000,A,120944.80
4.23603,57.67097783,11.99832483,57.67095633,11.99841100,12:09:44.911234,0.00814,1.46281,1.46281,-0.01065,0.12493,-0.01038,-0.00156,0.01633,-0.08764,-0.02807,0.97226,4.22732,1.40373,-0.45072,-0.14603,7.78743,-2.93166,4.19937,7.77008,-2.77987,-0.70447,0.00000,A,120944.80
4.24604,57.67097783,11.99832483,57.67095633,11.99841100,12:09:44.921244,0.00795,1.46281,1.46281,-0.01071,0.12493,-0.00624,-0.00681,0.00545,-0.06807,-0.02960,0.95709,4.23744,1.40373,-0.44948,-0.14603,7.80016,-2.93694,4.19937,7.77008,-2.77987,-0.70447,0.00000,A,120944.80
4.25640,57.67097783,11.99832483,57.67095633,11.99841100,12:09:44.931591,0.00814,1.46281,1.46281,-0.01073,0.12493,-0.00243,-0.01582,0.00577,-0.04867,-0.01662,0.94172,4.24806,1.40373,-0.44823,-0.14603,7.81305,-2.94229,4.19937,7.77008,-2.77987,-0.70447,0.00000,A,120944.80
4.26649,57.67097783,11.99832483,57.67095633,11.99841100,12:09:44.941686,0.00795,1.46281,1.46281,-0.01077,0.12493,-0.00566,-0.02149,0.00036,-0.03732,-0.01275,0.93469,4.25787,1.40373,-0.44692,-0.14603,7.82661,-2.94791,4.19937,7.77008,-2.77987,-0.70447,0.00000,A,120944.80
4.27709,57.67097783,11.99832483,57.67095633,11.99841100,12:09:44.952280,0.00838,1.46281,1.46281,-0.01083,0.12493,-0.00777,-0.02729,0.00138,-0.02873,-0.01181,0.92595,4.26848,1.40373,-0.44567,-0.14603,7.83953,-2.95327,4.19937,7.77008,-2.77987,-0.70447,0.00000,A,120944.80
4.28743,57.67097783,11.99832483,57.67095633,11.99841100,12:09:44.962630,0.00821,1.46281,1.46281,-0.01099,0.12493,-0.01740,-0.02498,0.00643,-0.01485,0.00225,0.91984,4.27855,1.40373,-0.44435,-0.14603,7.85310,-2.95890,4.19937,7.77008,-2.77987,-0.70447,0.00000,A,120944.80
4.29761,57.67097783,11.99832483,57.67095633,11.99841100,12:09:44.972812,0.00821,1.46281,1.46281,-0.01127,0.12493,-0.02841,-0.02372,0.01410,-0.01006,0.00215,0.93781,4.28883,1.40373,-0.44302,-0.14603,7.86686,-2.96460,4.19937,7.77008,-2.77987,-0.70447,0.00000,A,120944.80
4.31222,57.67097783,11.99832483,57.67095550,11.99841267,12:09:44.987408,0.01264,1.46281,1.46281,-0.01165,0.12493,-0.03822,-0.01314,0.02340,-0.02110,-0.00823,0.97431,4.29894,1.40373,-0.44174,-0.14603,7.88006,-2.97008,4.29761,7.86918,-2.87254,-0.75180,0.00000,A,120944.90
4.32371,57.67097783,11.99832483,57.67095550,11.99841267,12:09:44.998914,0.01022,1.46281,1.46281,-0.01201,0.12493,-0.03765,0.00506,0.02783,-0.01858,-0.02651,1.04368,4.31302,1.40372,-0.45419,-0.14603,7.86543,-3.01382,4.29761,7.86918,-2.87254,-0.75180,0.00000,A,120944.90
4.33302,57.67097783,11.99832483,57.67095550,11.99841267,12:09:45.008220,0.00786,1.46281,1.46281,-0.01259,0.12493,-0.03633,0.00599,0.03243,-0.01405,-0.03558,1.06185,4.32455,1.40372,-0.45218,-0.14603,7.88620,-3.02248,4.29761,7.86918,-2.87254,-0.75180,0.00000,A,120944.90
4.34364,57.67097783,11.99832483,57.67095550,11.99841267,12:09:45.018806,0.00830,1.46281,1.46281,-0.01283,0.12493,-0.02648,0.00721,0.03092,-0.02709,-0.05355,1.02725,4.33501,1.40372,-0.45099,-0.14603,7.89844,-3.02758,4.29761,7.86918,-2.87254,-0.75180,0.00000,A,120944.90
4.35342,57.67097783,11.99832483,57.67095550,11.99841267,12:09:45.028584,0.00785,1.46281,1.46281,-0.01297,0.12493,-0.01640,0.00444,0.02608,-0.02342,-0.07101,0.98484,4.34481,1.40372,-0.44971,-0.14603,7.91176,-3.03313,4.29761,7.86918,-2.87254,-0.75180,0.00000,A,120944.90
4.36373,57.67097783,11.99832483,57.67095550,11.99841267,12:09:45.038931,0.00798,1.46281,1.46281,-0.01303,0.12493,-0.01256,0.00820,0.01374,-0.01081,-0.06658,0.94204,4.35525,1.40372,-0.44848,-0.14603,7.92446,-3.03842,4.29761,7.86918,-2.87254,-0.75180,0.00000,A,120944.90
4.37394,57.67097783,11.99832483,57.67095550,11.99841267,12:09:45.049101,0.00800,1.46281,1.46281,-0.01303,0.12493,-0.00599,0.00404,0.00727,-0.00893,-0.07608,0.90626,4.36518,1.40372,-0.44715,-0.14603,7.93823,-3.04415,4.29761,7.86918,-2.87254,-0.75180,0.00000,A,120944.90
4.38424,57.67097783,11.99832483,57.67095550,11.99841267,12:09:45.059442,0.00813,1.46281,1.46281,-0.01309,0.12493,-0.01643,0.00094,-0.00234,-0.01477,-0.06530,0.88886,4.37575,1.40372,-0.44591,-0.14603,7.95102,-3.04948,4.29761,7.86918,-2.87254,-0.75180,0.00000,A,120944.90
4.39436,57.67097783,11.99832483,57.67095550,11.99841267,12:09:45.069555,0.00804,1.46281,1.46281,-0.01313,0.12493,-0.01474,-0.00426,-0.00505,-0.03243,-0.06756,0.88872,4.38565,1.40372,-0.44458,-0.14603,7.96479,-3.05522,4.29761,7.86918,-2.87254,-0.75180,0.00000,A,120944.90
4.41028,57.67097783,11.99832483,57.67095467,11.99841450,12:09:45.086001,0.01380,1.46281,1.46281,-0.01318,0.12493,-0.01731,-0.00887,-0.01085,-0.03555,-0.05817,0.90116,4.39621,1.40372,-0.44332,-0.14603,7.97785,-3.06066,4.39436,7.97820,-2.96520,-0.70447,0.00000,A,120945.00
4.42145,57.67097783,11.99832483,57.67095467,11.99841450,12:09:45.096753,0.00893,1.39681,1.39681,-0.01323,0.12493,-0.01982,-0.00902,-0.01036,-0.00812,-0.04879,0.95079,4.41177,1.40325,-0.45333,-0.14603,7.97430,-3.09861,4.39436,7.97820,-2.96520,-0.70447,0.00000,A,120945.00
4.43326,57.67097783,11.99832483,57.67095467,11.99841450,12:09:45.108453,0.00968,1.39681,1.39681,-0.01338,0.12493,-0.01332,0.00565,-0.00816,0.02043,-0.04131,1.04783,4.42492,1.40325,-0.45123,-0.14603,7.99608,-3.10766,4.39436,7.97820,-2.96520,-0.70447,0.00000,A,120945.00
4.44268,57.67097783,11.99832483,57.67095467,11.99841450,12:09:45.117867,0.00800,1.39681,1.39681,-0.01340,0.12493,-0.01106,0.02216,-0.00506,0.02357,-0.04789,1.07565,4.43447,1.40325,-0.44973,-0.14603,8.01165,-3.11414,4.39436,7.97820,-2.96520,-0.70447,0.00000,A,120945.00
4.45324,57.67097783,11.99832483,57.67095467,11.99841450,12:09:45.128443,0.00838,1.39681,1.39681,-0.01335,0.12493,-0.00677,0.03961,0.00317,0.03549,-0.04572,1.12351,4.44473,1.40325,-0.44855,-0.14603,8.02387,-3.11922,4.39436,7.97820,-2.96520,-0.70447,0.00000,A,120945.00
4.46298,57.67097783,11.99832483,57.67095467,11.99841450,12:09:45.138181,0.00786,1.39681,1.39681,-0.01332,0.12493,-0.00661,0.05414,0.00850,0.01704,-0.04632,1.12439,4.45449,1.40325,-0.44724,-0.14603,8.03745,-3.12487,4.39436,7.97820,-2.96520,-0.70447,0.00000,A,120945.00
4.47324,57.67097783,11.99832483,57.67095467,11.99841450,12:09:45.148429,0.00795,1.39681,1.39681,-0.01329,0.12493,-0.00441,0.05601,0.01627,-0.04619,-0.05564,1.02352,4.46499,1.40325,-0.44603,-0.14603,8.05006,-3.13011,4.39436,7.97820,-2.96520,-0.70447,0.00000,A,120945.00
4.48354,57.67097783,11.99832483,57.67095467,11.99841450,12:09:45.158736,0.00808,1.39681,1.39681,-0.01321,0.12493,0.00065,0.05019,0.01226,-0.10921,-0.06122,0.93880,4.47503,1.40325,-0.44474,-0.14603,8.06346,-3.13569,4.39436,7.97820,-2.96520,-0.70447,0.00000,A,120945.00
4.49364,57.67097783,11.99832483,57.67095467,11.99841450,12:09:45.168851,0.00801,1.39681,1.39681,-0.01311,0.12493,0.00165,0.02558,0.00895,-0.11950,-0.08604,0.88902,4.48507,1.40325,-0.44346,-0.14603,8.07670,-3.14119,4.39436,7.97820,-2.96520,-0.70447,0.00000,A,120945.00
4.50912,57.67097783,11.99832483,57.67095383,11.99841633,12:09:45.184315,0.01332,1.39681,1.39681,-0.01292,0.12493,0.01168,-0.00117,0.00191,-0.11902,-0.08059,0.86836,4.49507,1.40325,-0.44221,-0.14603,8.08971,-3.14660,4.49364,8.08722,-3.05786,-0.70447,0.00000,A,120945.10
4.52031,57.67097783,11.99832483,57.67095383,11.99841633,12:09:45.195503,0.00982,1.39681,1.39681,-0.01264,0.12493,0.01880,-0.02793,-0.00393,-0.07424,-0.08483,0.88834,4.51069,1.40331,-0.45258,-0.14603,8.08030,-3.19594,4.49364,8.08722,-3.05786,-0.70447,0.00000,A,120945.10
4.53075,57.67097783,11.99832483,57.67095383,11.99841633,12:09:45.205935,0.00903,1.39681,1.39681,-0.01219,0.12493,0.02578,-0.03967,-0.00032,-0.01913,-0.06322,0.92979,4.52146,1.40331,-0.45049,-0.14603,8.10202,-3.20495,4.49364,8.08722,-3.05786,-0.70447,0.00000,A,120945.10
4.54067,57.67097783,11.99832483,57.67095383,11.99841633,12:09:45.215863,0.00853,1.39681,1.39681,-0.01184,0.12493,0.02910,-0.02743,0.00430,0.03036,-0.06696,1.00333,4.53241,1.40331,-0.44916,-0.14603,8.11589,-3.21071,4.49364,8.08722,-3.05786,-0.70447,0.00000,A,120945.10
4.55078,57.67097783,11.99832483,57.67095383,11.99841633,12:09:45.225988,0.00804,1.39681,1.39681,-0.01153,0.12493,0.03197,-0.01498,0.02101,0.04717,-0.05020,1.05241,4.54206,1.40331,-0.44792,-0.14603,8.12876,-3.21606,4.49364,8.08722,-3.05786,-0.70447,0.00000,A,120945.10
4.56094,57.67097783,11.99832483,57.67095383,11.99841633,12:09:45.236125,0.00802,1.39681,1.39681,-0.01128,0.12493,0.02583,-0.00045,0.02501,0.02318,-0.05995,1.09334,4.55272,1.40331,-0.44668,-0.14603,8.14176,-3.22145,4.49364,8.08722,-3.05786,-0.70447,0.00000,A,120945.10
4.57118,57.67097783,11.99832483,57.67095383,11.99841633,12:09:45.246378,0.00808,1.39681,1.39681,-0.01105,0.12493,0.02487,0.00153,0.02535,0.00528,-0.06117,1.06690,4.56269,1.40331,-0.44540,-0.14603,8.15504,-3.22697,4.49364,8.08722,-3.05786,-0.70447,0.00000,A,120945.10
4.58162,57.67097783,11.99832483,57.67095383,11.99841633,12:09:45.256816,0.00835,1.39681,1.39681,-0.01084,0.12493,0.02326,-0.00705,0.01922,-0.03023,-0.06387,0.98533,4.57310,1.40331,-0.44414,-0.14603,8.16819,-3.23242,4.49364,8.08722,-3.05786,-0.70447,0.00000,A,120945.10
4.59166,57.67097783,11.99832483,57.67095383,11.99841633,12:09:45.266858,0.00792,1.39681,1.39681,-0.01059,0.12493,0.02738,-0.02248,0.01684,-0.03242,-0.08386,0.92582,4.58319,1.40331,-0.44283,-0.14603,8.18184,-3.23809,4.49364,8.08722,-3.05786,-0.70447,0.00000,A,120945.10
4.60698,57.67097783,11.99832483,57.67095300,11.99841817,12:09:45.282175,0.01306,1.33177,1.33177,-0.01025,0.12493,0.03776,-0.03231,0.00652,-0.02200,-0.08075,0.85933,4.59344,1.39845,-0.44159,-0.14603,8.19371,-3.24295,4.59166,8.19624,-3.15052,-0.70447,0.00000,A,120945.20
4.61767,57.67097783,11.99832483,57.67095300,11.99841817,12:09:45.292871,0.00933,1.33177,1.33177,-0.00975,0.12493,0.05395,-0.03612,0.00744,0.01863,-0.05598,0.83475,4.60774,1.39845,-0.45191,-0.14603,8.18777,-3.28978,4.59166,8.19624,-3.15052,-0.70447,0.00000,A,120945.20
4.62732,57.67097783,11.99832483,57.67095300,11.99841817,12:09:45.302524,0.00829,1.33177,1.33177,-0.00898,0.12501,0.05458,-0.02052,0.01267,0.04937,-0.04382,0.86485,4.61838,1.39845,-0.45000,-0.14603,8.20771,-3.29805,4.59166,8.19624,-3.15052,-0.70447,0.00000,A,120945.20
4.63787,57.67097783,11.99832483,57.67095300,11.99841817,12:09:45.313077,0.00841,1.33177,1.33177,-0.00853,0.12515,0.05710,-0.00702,0.02579,0.08213,-0.02968,0.91353,4.62924,1.39845,-0.44880,-0.14603,8.22028,-3.30326,4.59166,8.19624,-3.15052,-0.70447,0.00000,A,120945.20
4.64771,57.67097783,11.99832483,57.67095300,11.99841817,12:09:45.322916,0.00807,1.33177,1.33177,-0.00813,0.12532,0.04975,0.01225,0.03225,0.08108,-0.02393,0.98281,4.63906,1.39845,-0.44749,-0.14603,8.23396,-3.30893,4.59166,8.19624,-3.15052,-0.70447,0.00000,A,120945.20
4.65777,57.67097783,11.99832483,57.67095300,11.99841817,12:09:45.332935,0.00795,1.33177,1.33177,-0.00787,0.12535,0.04304,0.02774,0.04541,0.05949,-0.04983,1.02697,4.64904,1.39845,-0.44627,-0.14603,8.24665,-3.31419,4.59166,8.19624,-3.15052,-0.70447,0.00000,A,120945.20
4.66827,57.67097783,11.99832483,57.67095300,11.99841817,12:09:45.343476,0.00827,1.33177,1.33177,-0.00761,0.12535,0.04634,0.03462,0.04606,0.02993,-0.05835,1.05677,4.65951,1.39845,-0.44506,-0.14603,8.25926,-3.31942,4.59166,8.19624,-3.15052,-0.70447,0.00000,A,120945.20
4.67815,57.67097783,11.99832483,57.67095300,11.99841817,12:09:45.353359,0.00798,1.33177,1.33177,-0.00732,0.12535,0.04434,0.03217,0.04477,-0.01980,-0.06265,1.05034,4.66952,1.39845,-0.44373,-0.14603,8.27309,-3.32515,4.59166,8.19624,-3.15052,-0.70447,0.00000,A,120945.20
4.68930,57.67097783,11.99832483,57.67095300,11.99841817,12:09:45.364465,0.00894,1.33177,1.33177,-0.00693,0.12535,0.05869,0.02265,0.03475,-0.04821,-0.09134,1.03291,4.68054,1.39845,-0.44249,-0.14603,8.28602,-3.33050,4.59166,8.19624,-3.15052,-0.70447,0.00000,A,120945.20
4.69920,57.67097783,11.99832483,57.67095300,11.99841817,12:09:45.374366,0.00816,1.33177,1.33177,-0.00631,0.12535,0.07754,-0.00198,0.02438,-0.04568,-0.08817,1.02023,4.69038,1.39845,-0.44114,-0.14603,8.29999,-3.33629,4.59166,8.19624,-3.15052,-0.70447,0.00000,A,120945.20
4.71421,57.67097783,11.99832483,57.67095217,11.99842000,12:09:45.389400,0.01298,1.33177,1.33177,-0.00566,0.12535,0.08576,-0.01928,0.01555,-0.02016,-0.08284,1.01325,4.70074,1.39845,-0.43992,-0.14603,8.31262,-3.34152,4.69920,8.30526,-3.24319,-0.70447,0.00000,A,120945.30
4.72501,57.67097783,11.99832483,57.67095217,11.99842000,12:09:45.400215,0.00938,1.33177,1.33177,-0.00485,0.12535,0.09525,-0.01886,0.00770,0.03524,-0.06303,1.03474,4.71504,1.39849,-0.45029,-0.14603,8.30004,-3.38432,4.69920,8.30526,-3.24319,-0.70447,0.00000,A,120945.30
4.73526,57.67097783,11.99832483,57.67095217,11.99842000,12:09:45.410472,0.00888,1.33177,1.33177,-0.00362,0.12535,0.09909,0.00088,0.01588,0.08165,-0.04491,1.06075,4.72582,1.39849,-0.44840,-0.14603,8.31967,-3.39242,4.69920,8.30526,-3.24319,-0.70447,0.00000,A,120945.30
4.74451,57.67097783,11.99832483,57.67095217,11.99842000,12:09:45.419717,0.00787,1.33177,1.33177,-0.00300,0.12535,0.08469,0.02978,0.02488,0.09775,-0.04062,1.07911,4.73604,1.39849,-0.44712,-0.14603,8.33315,-3.39798,4.69920,8.30526,-3.24319,-0.70447,0.00000,A,120945.30
4.75527,57.67097783,11.99832483,57.67095217,11.99842000,12:09:45.430440,0.00845,1.33177,1.33177,-0.00260,0.12535,0.07507,0.05028,0.03108,0.06696,-0.03178,1.06413,4.74657,1.39849,-0.44596,-0.14603,8.34526,-3.40298,4.69920,8.30526,-3.24319,-0.70447,0.00000,A,120945.30
4.76498,57.67097783,11.99832483,57.67095217,11.99842000,12:09:45.440307,0.00798,1.50466,1.50466,-0.00224,0.12535,0.06476,0.05777,0.03388,0.01474,-0.02736,1.01925,4.75620,1.40571,-0.44468,-0.14603,8.36018,-3.40925,4.69920,8.30526,-3.24319,-0.70447,0.00000,A,120945.30
4.77534,57.67097783,11.99832483,57.67095217,11.99842000,12:09:45.450544,0.00818,1.50466,1.50466,-0.00192,0.12535,0.06887,0.05321,0.03698,-0.06880,-0.02146,0.93622,4.76666,1.40571,-0.44346,-0.14603,8.37287,-3.41448,4.69920,8.30526,-3.24319,-0.70447,0.00000,A,120945.30
4.78538,57.67097783,11.99832483,57.67095217,11.99842000,12:09:45.460579,0.00804,1.50466,1.50466,-0.00156,0.12535,0.06527,0.04705,0.02800,-0.10104,-0.04336,0.91189,4.77680,1.40571,-0.44214,-0.14603,8.38663,-3.42016,4.69920,8.30526,-3.24319,-0.70447,0.00000,A,120945.30
4.79597,57.67097783,11.99832483,57.67095217,11.99842000,12:09:45.471144,0.00846,1.50466,1.50466,-0.00115,0.12535,0.07763,0.02445,0.02750,-0.12596,-0.03615,0.88732,4.78718,1.40571,-0.44089,-0.14603,8.39970,-3.42555,4.69920,8.30526,-3.24319,-0.70447,0.00000,A,120945.30
4.81192,57.67097783,11.99832483,57.67095117,11.99842167,12:09:45.487079,0.01425,1.50466,1.50466,-0.00066,0.12535,0.08360,-0.00428,0.02246,-0.11647,-0.03795,0.86894,4.79702,1.40571,-0.43961,-0.14603,8.41303,-3.43106,4.79597,8.40437,-3.35438,-0.84281,0.00000,A,120945.40
4.82310,57.67097783,11.99832483,57.67095117,11.99842167,12:09:45.498268,0.00951,1.50466,1.50466,-0.00011,0.12535,0.09573,-0.04096,0.01862,-0.06237,-0.03740,0.88079,4.81333,1.40583,-0.45619,-0.14603,8.39902,-3.48805,4.79597,8.40437,-3.35438,-0.84281,0.00000,A,120945.40
4.83301,57.67097783,11.99832483,57.67095117,11.99842167,12:09:45.508340,0.00839,1.50466,1.50466,0.00116,0.12535,0.10041,-0.06017,0.02354,-0.03100,-0.04085,0.89932,4.82445,1.40583,-0.45404,-0.14603,8.42151,-3.49749,4.79597,8.40437,-3.35438,-0.84281,0.00000,A,120945.40
4.84415,57.67097783,11.99832483,57.67095117,11.99842167,12:09:45.519320,0.00927,1.50466,1.50466,0.00169,0.12535,0.09744,-0.06766,0.02401,0.02216,-0.01467,0.92924,4.83550,1.40583,-0.45279,-0.14603,8.43458,-3.50298,4.79597,8.40437,-3.35438,-0.84281,0.00000,A,120945.40
4.85393,57.67097783,11.99832483,57.67095117,11.99842167,12:09:45.529097,0.00788,1.50466,1.50466,0.00228,0.12535,0.09350,-0.05927,0.02076,0.04030,-0.00401,0.96327,4.84529,1.40583,-0.45142,-0.14603,8.44891,-3.50900,4.79597,8.40437,-3.35438,-0.84281,0.00000,A,120945.40
4.86421,57.67097783,11.99832483,57.67095117,11.99842167,12:09:45.539417,0.00798,1.50466,1.50466,0.00265,0.12535,0.08678,-0.04093,0.02299,0.04871,-0.00909,1.01126,4.85573,1.40583,-0.45021,-0.14603,8.46159,-3.51433,4.79597,8.40437,-3.35438,-0.84281,0.00000,A,120945.40
4.87426,57.67097783,11.99832483,57.67095117,11.99842167,12:09:45.549424,0.00785,1.50466,1.50466,0.00305,0.12535,0.08124,-0.02401,0.01752,0.05166,0.00139,1.04936,4.86565,1.40583,-0.44890,-0.14603,8.47533,-3.52010,4.79597,8.40437,-3.35438,-0.84281,0.00000,A,120945.40
4.88473,57.67097783,11.99832483,57.67095117,11.99842167,12:09:45.560011,0.00814,1.50466,1.50466,0.00336,0.12524,0.08003,0.00027,0.01589,0.03071,0.00616,1.06478,4.87610,1.40583,-0.44770,-0.14603,8.48793,-3.52539,4.79597,8.40437,-3.35438,-0.84281,0.00000,A,120945.40
4.89503,57.67097783,11.99832483,57.67095117,11.99842167,12:09:45.570248,0.00824,1.50466,1.50466,0.00369,0.12481,0.07213,0.02024,0.00953,0.02191,-0.00485,1.07164,4.88630,1.40583,-0.44636,-0.14603,8.50193,-3.53127,4.79597,8.40437,-3.35438,-0.84281,0.00000,A,120945.40
4.91008,57.67097783,11.99832483,57.67095017,11.99842333,12:09:45.585272,0.01311,1.50466,1.50466,0.00393,0.12391,0.06955,0.03152,0.00504,-0.00939,0.00376,1.06010,4.89647,1.40583,-0.44512,-0.14603,8.51498,-3.53675,4.89503,8.50348,-3.46558,-0.84281,0.00000,A,120945.50
4.92063,57.67097783,11.99832483,57.67095017,11.99842333,12:09:45.595838,0.00920,1.50466,1.50466,0.00417,0.12187,0.06421,0.03792,0.00056,-0.03860,0.00033,1.01748,4.91086,1.40596,-0.46143,-0.14603,8.49909,-3.59738,4.89503,8.50348,-3.46558,-0.84281,0.00000,A,120945.50
4.93026,57.67097783,11.99832483,57.67095017,11.99842333,12:09:45.605466,0.00826,1.48425,1.48425,0.00461,0.12017,0.05514,0.03836,-0.00215,-0.05377,-0.00514,0.97007,4.92143,1.41129,-0.45958,-0.14603,8.52027,-3.60653,4.89503,8.50348,-3.46558,-0.84281,0.00000,A,120945.50
4.94099,57.67097783,11.99832483,57.67095017,11.99842333,12:09:45.616194,0.00880,1.48425,1.48425,0.00470,0.11864,0.05722,0.03011,-0.00280,-0.05495,-0.00415,0.93420,4.93154,1.41129,-0.45843,-0.14603,8.53290,-3.61196,4.89503,8.50348,-3.46558,-0.84281,0.00000,A,120945.50
