Time,lat_estimated,lon_estimated,latitude,longitude,RealTime,CalculationTime,MeasuredVelocity,FilteredVelocity,Roll,SteeringAngle,RollRate,gy,gz,ax,ay,az,imu_read_timing,v_estimated,yaw_estimated,heading_estimated,x_estimated,y_estimated,GPS_timestamp,x_GPS,y_GPS,theta_GPS,theta_GPS_noUnwrap,status,NMEA timestamp
0.07261,57.67067100,11.99789933,57.67067100,11.99789933,09:53:21.589391,0.07228,0.00000,0.00000,0.00007,-0.01661,0.00847,-0.00059,0.00354,0.02076,-0.01831,0.99730,0.00001,0.00000,-2.82982,-2.83948,-0.05947,-0.01853,0.00000,-0.05947,-0.01853,-2.83948,0.00000,A,095321.30
0.08771,57.67067100,11.99789933,57.67067100,11.99789933,09:53:21.603676,0.01239,0.00000,0.00000,0.00025,-0.01661,0.00952,0.00123,0.00103,0.01991,-0.01038,0.99723,0.07479,0.00000,-0.00001,-2.83948,0.00000,-0.00001,0.07261,-0.05947,-0.01853,0.00000,0.00000,A,095321.30
0.09972,57.67067100,11.99789933,57.67067100,11.99789933,09:53:21.615685,0.01003,0.00000,0.00000,0.00038,-0.01661,0.00625,-0.00061,0.00006,0.01751,-0.00953,0.99560,0.08952,0.00000,-0.00001,-2.83948,0.00000,-0.00001,0.07261,-0.05947,-0.01853,0.00000,0.00000,A,095321.30
0.11449,57.67067100,11.99789933,57.67067100,11.99789933,09:53:21.630450,0.01205,0.00000,0.00000,0.00049,-0.01661,0.01033,-0.00182,0.00206,0.01897,-0.01125,0.99301,0.10167,0.00000,-0.00001,-2.83948,0.00000,-0.00001,0.09972,-0.05947,-0.01853,0.00000,0.00000,A,095321.50
0.12702,57.67067100,11.99789933,57.67067100,11.99789933,09:53:21.642983,0.01009,0.00000,0.00000,0.00054,-0.01661,0.00478,-0.00045,0.00220,0.01996,-0.01026,0.99619,0.11685,0.00000,-0.00001,-2.83948,0.00000,-0.00001,0.09972,-0.05947,-0.01853,0.00000,0.00000,A,095321.50
0.14005,57.67067100,11.99789933,57.67067100,11.99789933,09:53:21.656020,0.01057,0.00000,0.00000,0.00062,-0.01661,0.00739,0.00062,0.00218,0.01834,-0.01069,0.99533,0.12963,0.00000,-0.00001,-2.83948,0.00000,-0.00001,0.09972,-0.05947,-0.01853,0.00000,0.00000,A,095321.50
0.15481,57.67067100,11.99789933,57.67067100,11.99789933,09:53:21.670782,0.00950,0.00000,0.00000,0.00065,-0.01661,0.00353,-0.00503,0.00100,0.01850,-0.00880,0.99663,0.14489,0.00000,-0.00001,-2.83948,0.00000,-0.00001,0.09972,-0.05947,-0.01853,0.00000,0.00000,A,095321.50
0.16549,57.67067100,11.99789933,57.67067100,11.99789933,09:53:21.681460,0.00884,0.00000,0.00000,0.00069,-0.01661,0.00431,-0.00108,-0.00185,0.02146,-0.01319,0.99655,0.15583,0.00000,-0.00001,-2.83948,0.00000,-0.00001,0.09972,-0.05947,-0.01853,0.00000,0.00000,A,095321.50
0.17610,57.67067100,11.99789933,57.67067100,11.99789933,09:53:21.692068,0.00886,0.00000,0.00000,0.00068,-0.01661,0.00136,-0.00060,0.00120,0.01993,-0.01345,0.99374,0.16642,0.00000,-0.00001,-2.83948,0.00000,-0.00001,0.09972,-0.05947,-0.01853,0.00000,0.00000,A,095321.50
0.18703,57.67067100,11.99789933,57.67067100,11.99789933,09:53:21.703005,0.00903,0.00000,0.00000,0.00070,-0.01661,0.00502,-0.00016,-0.00131,0.02250,-0.01490,0.99551,0.17719,0.00000,-0.00001,-2.83948,0.00000,-0.00001,0.09972,-0.05947,-0.01853,0.00000,0.00000,A,095321.50
0.19780,57.67067100,11.99789933,57.67067100,11.99789933,09:53:21.713769,0.00904,0.00000,0.00000,0.00073,-0.01661,0.00406,-0.00122,-0.00095,0.02150,-0.01283,0.99508,0.18806,0.00000,-0.00001,-2.83948,0.00000,-0.00001,0.09972,-0.05947,-0.01853,0.00000,0.00000,A,095321.50
0.21113,57.67067100,11.99789933,57.67067100,11.99789933,09:53:21.727095,0.01159,0.00000,0.00000,0.00073,-0.01661,0.00262,-0.00015,0.00088,0.02050,-0.01692,0.99468,0.19894,0.00000,-0.00001,-2.83948,0.00000,-0.00001,0.19780,-0.05947,-0.01853,0.00000,0.00000,A,095321.50
0.22131,57.67067100,11.99789933,57.67067100,11.99789933,09:53:21.737300,0.00845,0.00000,0.00000,0.00070,-0.01661,0.00021,-0.00152,0.00184,0.02408,-0.01765,0.99405,0.21210,0.00000,-0.00001,-2.83948,0.00000,-0.00001,0.19780,-0.05947,-0.01853,0.00000,0.00000,A,095321.50
0.23276,57.67067100,11.99789933,57.67067100,11.99789933,09:53:21.748976,0.00919,0.00000,0.00000,0.00069,-0.01661,0.00184,-0.00274,0.00234,0.02481,-0.01808,0.99352,0.22304,0.00000,-0.00001,-2.83948,0.00000,-0.00001,0.19780,-0.05947,-0.01853,0.00000,0.00000,A,095321.50
0.24428,57.67067100,11.99789933,57.67067100,11.99789933,09:53:21.760517,0.00938,0.00000,0.00000,0.00068,-0.01661,0.00154,0.00000,-0.00047,0.02334,-0.01802,0.99403,0.23423,0.00000,-0.00001,-2.83948,0.00000,-0.00001,0.19780,-0.05947,-0.01853,0.00000,0.00000,A,095321.50
0.25532,57.67067100,11.99789933,57.67067100,11.99789933,09:53:21.771635,0.00879,0.00000,0.00000,0.00070,-0.01661,0.00407,0.00292,0.00302,0.02359,-0.01819,0.99676,0.24578,0.00000,-0.00001,-2.83948,0.00000,-0.00001,0.19780,-0.05947,-0.01853,0.00000,0.00000,A,095321.50
0.26605,57.67067100,11.99789933,57.67067100,11.99789933,09:53:21.782266,0.00858,0.00000,0.00000,0.00069,-0.01661,0.00176,0.00168,-0.00107,0.02311,-0.01979,0.99339,0.25672,0.00000,-0.00001,-2.83948,0.00000,-0.00001,0.19780,-0.05947,-0.01853,0.00000,0.00000,A,095321.50
0.27667,57.67067100,11.99789933,57.67067100,11.99789933,09:53:21.792881,0.00859,0.00000,0.00000,0.00069,-0.01661,0.00223,0.00077,0.00160,0.02198,-0.01967,0.99413,0.26733,0.00000,-0.00001,-2.83948,0.00000,-0.00001,0.19780,-0.05947,-0.01853,0.00000,0.00000,A,095321.50
0.28775,57.67067100,11.99789933,57.67067100,11.99789933,09:53:21.803961,0.00895,0.00000,0.00000,0.00069,-0.01661,0.00262,0.00198,-0.00190,0.02349,-0.02167,0.99596,0.27806,0.00000,-0.00001,-2.83948,0.00000,-0.00001,0.19780,-0.05947,-0.01853,0.00000,0.00000,A,095321.50
0.29842,57.67067100,11.99789933,57.67067100,11.99789933,09:53:21.814638,0.00861,0.00000,0.00000,0.00068,-0.01661,0.00144,-0.00108,-0.00232,0.02350,-0.02034,0.99424,0.28907,0.00000,-0.00001,-2.83948,0.00000,-0.00001,0.19780,-0.05947,-0.01853,0.00000,0.00000,A,095321.50
0.31203,57.67067100,11.99789933,57.67067100,11.99789933,09:53:21.828277,0.01159,0.00000,0.00000,0.00066,-0.01661,0.00102,0.00122,-0.00131,0.02303,-0.02154,0.99788,0.29982,0.00000,-0.00001,-2.83948,0.00000,-0.00001,0.29842,-0.05947,-0.01853,0.00000,0.00000,A,095321.60
0.32265,57.67067100,11.99789933,57.67067100,11.99789933,09:53:21.838879,0.00858,0.00000,0.00000,0.00066,-0.01661,0.00195,-0.00077,-0.00273,0.02273,-0.01698,0.99451,0.31338,0.00000,-0.00001,-2.83948,0.00000,-0.00001,0.29842,-0.05947,-0.01853,0.00000,0.00000,A,095321.60
0.33360,57.67067100,11.99789933,57.67067100,11.99789933,09:53:21.849822,0.00892,0.00000,0.00000,0.00069,-0.01661,0.00549,-0.00411,0.00137,0.01887,-0.02106,0.99722,0.32411,0.00000,-0.00001,-2.83948,0.00000,-0.00001,0.29842,-0.05947,-0.01853,0.00000,0.00000,A,095321.60
0.34499,57.67067100,11.99789933,57.67067100,11.99789933,09:53:21.861259,0.00932,0.00000,0.00000,0.00068,-0.01661,0.00227,-0.00259,0.00131,0.02135,-0.01850,0.99534,0.33523,0.00000,-0.00001,-2.83948,0.00000,-0.00001,0.29842,-0.05947,-0.01853,0.00000,0.00000,A,095321.60
0.35593,57.67067100,11.99789933,57.67067100,11.99789933,09:53:21.872148,0.00885,0.00000,0.00000,0.00066,-0.01661,-0.00044,-0.00352,-0.00191,0.02168,-0.01966,0.99624,0.34633,0.00000,-0.00001,-2.83948,0.00000,-0.00001,0.29842,-0.05947,-0.01853,0.00000,0.00000,A,095321.60
0.36707,57.67067100,11.99789933,57.67067100,11.99789933,09:53:21.883276,0.00896,0.00000,0.00000,0.00065,-0.01661,0.00040,-0.00290,-0.00120,0.02261,-0.01875,0.99505,0.35742,0.00000,-0.00001,-2.83948,0.00000,-0.00001,0.29842,-0.05947,-0.01853,0.00000,0.00000,A,095321.60
0.37767,57.67067100,11.99789933,57.67067100,11.99789933,09:53:21.894002,0.00860,0.00000,0.00000,0.00066,-0.01661,0.00273,-0.00397,-0.00140,0.02086,-0.01869,0.99430,0.36832,0.00000,-0.00001,-2.83948,0.00000,-0.00001,0.29842,-0.05947,-0.01853,0.00000,0.00000,A,095321.60
0.38860,57.67067100,11.99789933,57.67067100,11.99789933,09:53:21.904831,0.00880,0.00000,0.00000,0.00069,-0.01661,0.00615,0.00396,-0.00182,0.02357,-0.02002,0.99744,0.37906,0.00000,-0.00001,-2.83948,0.00000,-0.00001,0.29842,-0.05947,-0.01853,0.00000,0.00000,A,095321.60
0.39944,57.67067100,11.99789933,57.67067100,11.99789933,09:53:21.915660,0.00932,0.00000,0.00000,0.00072,-0.01661,0.00460,-0.00199,-0.00166,0.02299,-0.02027,0.99553,0.39006,0.00000,-0.00001,-2.83948,0.00000,-0.00001,0.29842,-0.05947,-0.01853,0.00000,0.00000,A,095321.60
0.41347,57.67067100,11.99789933,57.67067100,11.99789933,09:53:21.929690,0.01202,0.00000,0.00000,0.00074,-0.01661,0.00413,-0.00155,-0.00432,0.02492,-0.01923,0.99636,0.40085,0.00000,-0.00001,-2.83948,0.00000,-0.00001,0.39944,-0.05947,-0.01853,0.00000,0.00000,A,095321.80
0.42991,57.67067100,11.99789933,57.67067100,11.99789933,09:53:21.945898,0.00869,0.00000,0.00000,0.00075,-0.01661,0.00439,-0.00229,0.00017,0.02445,-0.01619,0.99506,0.42000,0.00000,-0.00001,-2.83948,0.00000,-0.00001,0.39944,-0.05947,-0.01853,0.00000,0.00000,A,095321.80
0.44059,57.67067100,11.99789933,57.67067100,11.99789933,09:53:21.956582,0.00925,0.00000,0.00000,0.00084,-0.01661,0.00815,0.00000,-0.00050,0.02301,-0.01375,0.99366,0.43058,0.00000,-0.00001,-2.83948,0.00000,-0.00001,0.39944,-0.05947,-0.01853,0.00000,0.00000,A,095321.80
0.45153,57.67067100,11.99789933,57.67067100,11.99789933,09:53:21.967525,0.00946,0.00000,0.00000,0.00086,-0.01661,0.00382,-0.00123,-0.00298,0.02290,-0.01587,0.99790,0.44197,0.00000,-0.00001,-2.83948,0.00000,-0.00001,0.39944,-0.05947,-0.01853,0.00000,0.00000,A,095321.80
0.46204,57.67067100,11.99789933,57.67067100,11.99789933,09:53:21.978027,0.00905,0.00000,0.00000,0.00092,-0.01661,0.01045,0.00213,-0.00179,0.02274,-0.01325,0.99774,0.45286,0.00000,-0.00001,-2.83948,0.00000,-0.00001,0.39944,-0.05947,-0.01853,0.00000,0.00000,A,095321.80
0.47258,57.67067100,11.99789933,57.67067100,11.99789933,09:53:21.988571,0.00910,0.00000,0.00000,0.00093,-0.01661,0.00259,-0.00138,-0.00158,0.02408,-0.01149,0.99402,0.46336,0.00000,-0.00001,-2.83948,0.00000,-0.00001,0.39944,-0.05947,-0.01853,0.00000,0.00000,A,095321.80
0.48320,57.67067100,11.99789933,57.67067100,11.99789933,09:53:21.999193,0.00917,0.00000,0.00000,0.00096,-0.01661,0.00498,-0.00260,-0.00100,0.02568,-0.00942,0.99394,0.47383,0.00000,-0.00001,-2.83948,0.00000,-0.00001,0.39944,-0.05947,-0.01853,0.00000,0.00000,A,095321.80
0.49378,57.67067100,11.99789933,57.67067100,11.99789933,09:53:22.009776,0.00914,0.00000,0.00000,0.00098,-0.01661,0.00665,-0.00167,0.00057,0.02350,-0.00576,0.99362,0.48460,0.00000,-0.00001,-2.83948,0.00000,-0.00001,0.39944,-0.05947,-0.01853,0.00000,0.00000,A,095321.80
0.50653,57.67067100,11.99789933,57.67067100,11.99789933,09:53:22.022514,0.01129,0.00000,0.00000,0.00100,-0.01661,0.00318,0.00199,0.00001,0.02407,-0.01179,0.99568,0.49495,0.00000,-0.00001,-2.83948,0.00000,-0.00001,0.49378,-0.05947,-0.01853,0.00000,0.00000,A,095321.80
0.51726,57.67067100,11.99789933,57.67067100,11.99789933,09:53:22.033255,0.00930,0.00000,0.00000,0.00100,-0.01661,0.00423,0.00397,-0.00111,0.02386,-0.01252,0.99590,0.50773,0.00000,-0.00001,-2.83948,0.00000,-0.00001,0.49378,-0.05947,-0.01853,0.00000,0.00000,A,095321.80
0.52771,57.67067100,11.99789933,57.67067100,11.99789933,09:53:22.043704,0.00901,0.00000,0.00000,0.00100,-0.01661,0.00249,0.00046,-0.00068,0.02479,-0.01331,0.99748,0.51846,0.00000,-0.00001,-2.83948,0.00000,-0.00001,0.49378,-0.05947,-0.01853,0.00000,0.00000,A,095321.80
0.53828,57.67067100,11.99789933,57.67067100,11.99789933,09:53:22.054275,0.00900,0.00000,0.00000,0.00095,-0.01661,-0.00296,-0.00046,-0.00006,0.02503,-0.01196,0.99867,0.52902,0.00000,-0.00001,-2.83948,0.00000,-0.00001,0.49378,-0.05947,-0.01853,0.00000,0.00000,A,095321.80
0.55010,57.67067100,11.99789933,57.67067100,11.99789933,09:53:22.066098,0.01034,0.00000,0.00000,0.00089,-0.01661,-0.00269,-0.00031,-0.00248,0.02596,-0.01074,0.99963,0.53989,0.00000,-0.00001,-2.83948,0.00000,-0.00001,0.49378,-0.05947,-0.01853,0.00000,0.00000,A,095321.80
0.56197,57.67067100,11.99789933,57.67067100,11.99789933,09:53:22.077966,0.01033,0.00000,0.00000,0.00085,-0.01661,-0.00127,-0.00306,-0.00139,0.02249,-0.01080,0.99826,0.55128,0.00000,-0.00001,-2.83948,0.00000,-0.00001,0.49378,-0.05947,-0.01853,0.00000,0.00000,A,095321.80
0.57338,57.67067100,11.99789933,57.67067100,11.99789933,09:53:22.089382,0.00990,0.00000,0.00000,0.00080,-0.01661,-0.00070,-0.00259,0.00036,0.02515,-0.01070,0.99432,0.56380,0.00000,-0.00001,-2.83948,0.00000,-0.00001,0.49378,-0.05947,-0.01853,0.00000,0.00000,A,095321.80
0.58554,57.67067100,11.99789933,57.67067100,11.99789933,09:53:22.101652,0.01070,0.00000,0.00000,0.00075,-0.01661,-0.00188,-0.00076,0.00130,0.02413,-0.01174,0.99298,0.57478,0.00000,-0.00001,-2.83948,0.00000,-0.00001,0.49378,-0.05947,-0.01853,0.00000,0.00000,A,095321.80
0.59680,57.67067100,11.99789933,57.67067100,11.99789933,09:53:22.112801,0.00963,0.00000,0.00000,0.00073,-0.01661,0.00070,-0.00214,-0.00117,0.02700,-0.01841,0.98990,0.58695,0.00000,-0.00001,-2.83948,0.00000,-0.00001,0.49378,-0.05947,-0.01853,0.00000,0.00000,A,095321.80
0.61123,57.67067100,11.99789933,57.67067100,11.99789933,09:53:22.127224,0.01284,0.00000,0.00000,0.00071,-0.01661,-0.00048,0.00077,0.00114,0.02603,-0.01956,0.99029,0.59828,0.00000,-0.00001,-2.83948,0.00000,-0.00001,0.59680,-0.05947,-0.01853,0.00000,0.00000,A,095321.90
0.62279,57.67067100,11.99789933,57.67067100,11.99789933,09:53:22.138982,0.01007,0.00000,0.00000,0.00068,-0.01661,0.00023,-0.00107,0.00031,0.02683,-0.02051,0.99627,0.61254,0.00000,-0.00001,-2.83948,0.00000,-0.00001,0.59680,-0.05947,-0.01853,0.00000,0.00000,A,095321.90
0.63441,57.67067100,11.99789933,57.67067100,11.99789933,09:53:22.150402,0.00940,0.00000,0.00000,0.00062,-0.01661,-0.00292,0.00074,-0.00590,0.02977,-0.01872,1.00071,0.62438,0.00000,-0.00001,-2.83948,0.00000,-0.00001,0.59680,-0.05947,-0.01853,0.00000,0.00000,A,095321.90
0.64627,57.67067100,11.99789933,57.67067100,11.99789933,09:53:22.162269,0.00957,0.00000,0.00000,0.00058,-0.01661,-0.00156,0.00060,-0.00298,0.03034,-0.01829,1.00114,0.63607,0.00000,-0.00001,-2.83948,0.00000,-0.00001,0.59680,-0.05947,-0.01853,0.00000,0.00000,A,095321.90
0.65790,57.67067100,11.99789933,57.67067100,11.99789933,09:53:22.173897,0.01017,0.00000,0.00000,0.00052,-0.01661,-0.00316,0.00259,-0.00240,0.03039,-0.01753,0.99519,0.64742,0.00000,-0.00001,-2.83948,0.00000,-0.00001,0.59680,-0.05947,-0.01853,0.00000,0.00000,A,095321.90
0.66907,57.67067100,11.99789933,57.67067100,11.99789933,09:53:22.185064,0.00968,0.00000,0.00000,0.00047,-0.01661,-0.00212,-0.00122,0.00066,0.03232,-0.01571,0.99275,0.65945,0.00000,-0.00001,-2.83948,0.00000,-0.00001,0.59680,-0.05947,-0.01853,0.00000,0.00000,A,095321.90
0.68081,57.67067100,11.99789933,57.67067100,11.99789933,09:53:22.196999,0.01028,0.00000,0.00000,0.00046,-0.01661,0.00107,0.00014,-0.00314,0.03181,-0.00932,0.99021,0.67029,0.00000,-0.00001,-2.83948,0.00000,-0.00001,0.59680,-0.05947,-0.01853,0.00000,0.00000,A,095321.90
0.69250,57.67067100,11.99789933,57.67067100,11.99789933,09:53:22.208501,0.01007,0.00000,0.00000,0.00046,-0.01661,0.00287,-0.00198,0.00138,0.03609,-0.00979,0.99358,0.68239,0.00000,-0.00001,-2.83948,0.00000,-0.00001,0.59680,-0.05947,-0.01853,0.00000,0.00000,A,095321.90
0.70705,57.67067100,11.99789933,57.67067100,11.99789933,09:53:22.223043,0.01307,0.00000,0.00000,0.00043,-0.01661,-0.00193,0.00121,-0.00241,0.04088,-0.01508,0.99635,0.69404,0.00000,-0.00001,-2.83948,0.00000,-0.00001,0.69250,-0.05947,-0.01853,0.00000,0.00000,A,095322.00
0.71859,57.67067100,11.99789933,57.67067100,11.99789933,09:53:22.234593,0.01012,0.00000,0.00000,0.00036,-0.01661,-0.00518,0.00335,-0.00217,0.04004,-0.01794,0.99726,0.70849,0.00000,-0.00001,-2.83948,0.00000,-0.00001,0.69250,-0.05947,-0.01853,0.00000,0.00000,A,095322.00
0.72989,57.67067100,11.99789933,57.67067100,11.99789933,09:53:22.245887,0.00983,0.00000,0.00000,0.00031,-0.01661,0.00022,0.00197,-0.00371,0.03609,-0.01654,0.99797,0.71976,0.00000,-0.00001,-2.83948,0.00000,-0.00001,0.69250,-0.05947,-0.01853,0.00000,0.00000,A,095322.00
0.74150,57.67067100,11.99789933,57.67067100,11.99789933,09:53:22.257495,0.00999,0.00000,0.00000,0.00028,-0.01661,-0.00189,-0.00002,-0.00547,0.03936,-0.02125,0.99566,0.73159,0.00000,-0.00001,-2.83948,0.00000,-0.00001,0.69250,-0.05947,-0.01853,0.00000,0.00000,A,095322.00
0.75385,57.67067100,11.99789933,57.67067100,11.99789933,09:53:22.269848,0.01075,0.00000,0.00000,0.00027,-0.01661,-0.00010,-0.00538,-0.00770,0.04295,-0.02278,0.99380,0.74340,0.00000,-0.00001,-2.83948,0.00000,-0.00001,0.69250,-0.05947,-0.01853,0.00000,0.00000,A,095322.00
0.76516,57.67067100,11.99789933,57.67067100,11.99789933,09:53:22.281219,0.00911,0.00000,0.00000,0.00026,-0.01661,0.00019,-0.00004,-0.00892,0.04090,-0.02357,0.99400,0.75537,0.00000,-0.00001,-2.83948,0.00000,-0.00001,0.69250,-0.05947,-0.01853,0.00000,0.00000,A,095322.00
0.77677,57.67067100,11.99789933,57.67067100,11.99789933,09:53:22.292761,0.01000,0.00000,0.00000,0.00026,-0.01661,0.00108,-0.00431,-0.00727,0.04102,-0.02101,0.99462,0.76667,0.00000,-0.00001,-2.83948,0.00000,-0.00001,0.69250,-0.05947,-0.01853,0.00000,0.00000,A,095322.00
0.78826,57.67067100,11.99789933,57.67067100,11.99789933,09:53:22.304254,0.00984,0.00000,0.00000,0.00024,-0.01661,-0.00026,0.00441,-0.00500,0.04297,-0.02118,0.99686,0.77812,0.00000,-0.00001,-2.83948,0.00000,-0.00001,0.69250,-0.05947,-0.01853,0.00000,0.00000,A,095322.00
0.79966,57.67067100,11.99789933,57.67067100,11.99789933,09:53:22.315655,0.00989,0.00000,0.00000,0.00020,-0.01661,-0.00369,-0.00002,-0.00583,0.04301,-0.02045,0.99600,0.79000,0.00000,-0.00001,-2.83948,0.00000,-0.00001,0.69250,-0.05947,-0.01853,0.00000,0.00000,A,095322.00
0.81517,57.67067100,11.99789933,57.67067100,11.99789933,09:53:22.331229,0.01390,0.00000,0.00000,0.00019,-0.01661,0.00019,-0.00336,-0.00076,0.04389,-0.01861,0.99745,0.80097,0.00000,-0.00001,-2.83948,0.00000,-0.00001,0.79966,-0.05947,-0.01853,0.00000,0.00000,A,095322.20
0.82668,57.67067100,11.99789933,57.67067100,11.99789933,09:53:22.342677,0.01002,0.00000,0.00000,0.00020,-0.01661,0.00201,0.00031,0.00081,0.04186,-0.01923,0.99532,0.81640,0.00000,-0.00001,-2.83948,0.00000,-0.00001,0.79966,-0.05947,-0.01853,0.00000,0.00000,A,095322.20
0.83793,57.67067100,11.99789933,57.67067100,11.99789933,09:53:22.353923,0.00974,0.00000,0.00000,0.00021,-0.01661,0.00116,-0.00016,-0.00251,0.04179,-0.01193,0.99153,0.82839,0.00000,-0.00001,-2.83948,0.00000,-0.00001,0.79966,-0.05947,-0.01853,0.00000,0.00000,A,095322.20
0.84984,57.67067100,11.99789933,57.67067100,11.99789933,09:53:22.365833,0.01035,0.00000,0.00000,0.00020,-0.01661,-0.00173,-0.00245,-0.00283,0.04488,-0.01492,0.99189,0.83930,0.00000,-0.00001,-2.83948,0.00000,-0.00001,0.79966,-0.05947,-0.01853,0.00000,0.00000,A,095322.20
0.86175,57.67067100,11.99789933,57.67067100,11.99789933,09:53:22.377749,0.00972,0.00000,0.00000,0.00018,-0.01673,-0.00047,-0.00079,-0.00577,0.04463,-0.01650,0.99249,0.85144,0.00000,-0.00001,-2.83948,0.00000,-0.00001,0.79966,-0.05947,-0.01853,0.00000,0.00000,A,095322.20
0.87307,57.67067100,11.99789933,57.67067100,11.99789933,09:53:22.389072,0.00990,0.00000,0.00000,0.00017,-0.01692,-0.00055,0.00118,-0.00917,0.04412,-0.01984,0.99650,0.86316,0.00000,-0.00001,-2.83948,0.00000,-0.00001,0.79966,-0.05947,-0.01853,0.00000,0.00000,A,095322.20
0.88443,57.67067100,11.99789933,57.67067100,11.99789933,09:53:22.400433,0.00984,0.00000,0.00000,0.00015,-0.01718,-0.00068,0.00222,-0.01487,0.04829,-0.01173,0.99594,0.87439,0.00000,-0.00001,-2.83948,0.00000,-0.00001,0.79966,-0.05947,-0.01853,0.00000,0.00000,A,095322.20
0.89605,57.67067100,11.99789933,57.67067100,11.99789933,09:53:22.412050,0.01004,0.00000,0.00000,0.00010,-0.01738,-0.00458,-0.00051,-0.01161,0.05282,-0.00868,0.99546,0.88592,0.00000,-0.00001,-2.83948,0.00000,-0.00001,0.79966,-0.05947,-0.01853,0.00000,0.00000,A,095322.20
0.91012,57.67067100,11.99789933,57.67067100,11.99789933,09:53:22.426112,0.01262,0.00000,0.00000,0.00005,-0.01749,-0.00330,-0.00050,-0.00931,0.05339,-0.00837,0.99748,0.89727,0.00000,-0.00001,-2.83948,0.00000,-0.00001,0.89605,-0.05947,-0.01853,0.00000,0.00000,A,095322.20
0.92143,57.67067100,11.99789933,57.67067100,11.99789933,09:53:22.437428,0.00914,0.00000,0.00000,0.00003,-0.01752,-0.00162,0.00198,-0.00238,0.05746,-0.00972,0.99519,0.91155,0.00000,-0.00001,-2.83948,0.00000,-0.00001,0.89605,-0.05947,-0.01853,0.00000,0.00000,A,095322.20
0.93287,57.67067100,11.99789933,57.67067100,11.99789933,09:53:22.448872,0.00992,0.00000,0.00000,0.00004,-0.01752,0.00221,-0.00075,0.00314,0.05581,-0.00795,0.99456,0.92291,0.00000,-0.00001,-2.83948,0.00000,-0.00001,0.89605,-0.05947,-0.01853,0.00000,0.00000,A,095322.20
0.94473,57.67067100,11.99789933,57.67067100,11.99789933,09:53:22.460727,0.01023,0.00000,0.00000,0.00001,-0.01752,-0.00285,-0.00363,0.00719,0.05523,-0.01321,0.99317,0.93449,0.00000,-0.00001,-2.83948,0.00000,-0.00001,0.89605,-0.05947,-0.01853,0.00000,0.00000,A,095322.20
0.95616,57.67067100,11.99789933,57.67067100,11.99789933,09:53:22.472165,0.00988,0.00000,0.00000,-0.00000,-0.01752,0.00000,-0.00226,0.00505,0.05782,-0.01290,0.99365,0.94656,0.00000,-0.00001,-2.83948,0.00000,-0.00001,0.89605,-0.05947,-0.01853,0.00000,0.00000,A,095322.20
0.96792,57.67067100,11.99789933,57.67067100,11.99789933,09:53:22.483920,0.01026,0.00000,0.00000,-0.00000,-0.01752,0.00002,-0.00180,0.00628,0.05815,-0.01247,0.99344,0.95739,0.00000,-0.00001,-2.83948,0.00000,-0.00001,0.89605,-0.05947,-0.01853,0.00000,0.00000,A,095322.20
0.97922,57.67067100,11.99789933,57.67067100,11.99789933,09:53:22.495219,0.00972,0.00000,0.00000,-0.00001,-0.01752,-0.00052,-0.00151,0.00284,0.06756,-0.00887,0.99429,0.96933,0.00000,-0.00001,-2.83948,0.00000,-0.00001,0.89605,-0.05947,-0.01853,0.00000,0.00000,A,095322.20
0.99076,57.67067100,11.99789933,57.67067100,11.99789933,09:53:22.506760,0.00993,0.00000,0.00000,-0.00007,-0.01752,-0.00662,-0.00138,-0.00169,0.06893,-0.00723,0.99364,0.98071,0.00000,-0.00001,-2.83948,0.00000,-0.00001,0.89605,-0.05947,-0.01853,0.00000,0.00000,A,095322.20
1.00572,57.67067100,11.99789933,57.67067117,11.99789933,09:53:22.521709,0.01352,0.00000,0.00000,-0.00017,-0.01752,-0.00927,-0.00107,-0.00138,0.06837,-0.00673,0.99530,0.99191,0.00000,-0.00001,-2.83948,0.00000,-0.00001,0.99076,-0.05947,0.00000,1.57080,0.00000,A,095322.30
1.01694,57.67067100,11.99789933,57.67067117,11.99789933,09:53:22.532931,0.00973,0.00000,0.00000,-0.00022,-0.01752,-0.00494,-0.00186,-0.00565,0.06778,-0.01097,1.00059,1.00693,0.00000,-0.00001,-2.83948,0.00000,-0.00001,0.99076,-0.05947,0.00000,1.57080,0.00000,A,095322.30
1.02829,57.67067100,11.99789933,57.67067117,11.99789933,09:53:22.544282,0.00985,0.00000,0.00000,-0.00032,-0.01752,-0.00880,-0.00003,-0.00686,0.07253,-0.01209,0.99714,1.01830,0.00000,-0.00001,-2.83948,0.00000,-0.00001,0.99076,-0.05947,0.00000,1.57080,0.00000,A,095322.30
1.04005,57.67067100,11.99789933,57.67067117,11.99789933,09:53:22.556045,0.01032,0.00000,0.00000,-0.00044,-0.01752,-0.01174,-0.00126,-0.00811,0.07400,-0.01003,0.99386,1.02954,0.00000,-0.00001,-2.83948,0.00000,-0.00001,0.99076,-0.05947,0.00000,1.57080,0.00000,A,095322.30
1.05104,57.67067100,11.99789933,57.67067117,11.99789933,09:53:22.567040,0.00886,0.00000,0.00000,-0.00058,-0.01752,-0.01586,-0.00295,-0.01102,0.07499,-0.00734,0.99543,1.04162,0.00000,-0.00001,-2.83948,0.00000,-0.00001,0.99076,-0.05947,0.00000,1.57080,0.00000,A,095322.30
1.06291,57.67067100,11.99789933,57.67067117,11.99789933,09:53:22.578900,0.01039,0.00000,0.00000,-0.00072,-0.01755,-0.01251,-0.00143,-0.01219,0.07434,-0.00755,0.98922,1.05242,0.00000,-0.00001,-2.83948,0.00000,-0.00001,0.99076,-0.05947,0.00000,1.57080,0.00000,A,095322.30
1.07449,57.67067100,11.99789933,57.67067117,11.99789933,09:53:22.590486,0.00999,0.00000,0.00000,-0.00084,-0.01755,-0.01423,-0.00309,-0.00915,0.07371,-0.00894,0.99155,1.06438,0.00000,-0.00001,-2.83948,0.00000,-0.00001,0.99076,-0.05947,0.00000,1.57080,0.00000,A,095322.30
1.08629,57.67067100,11.99789933,57.67067117,11.99789933,09:53:22.602291,0.01000,0.00000,0.00000,-0.00104,-0.01763,-0.02076,-0.00034,-0.00851,0.07639,-0.00852,0.99111,1.07616,0.00000,-0.00001,-2.83948,0.00000,-0.00001,0.99076,-0.05947,0.00000,1.57080,0.00000,A,095322.30
1.09760,57.67067100,11.99789933,57.67067117,11.99789933,09:53:22.613603,0.00986,0.00000,0.00000,-0.00126,-0.01783,-0.02206,-0.00094,-0.00650,0.07572,-0.00594,0.99385,1.08747,0.00000,-0.00001,-2.83948,0.00000,-0.00001,0.99076,-0.05947,0.00000,1.57080,0.00000,A,095322.30
1.11212,57.67067100,11.99789933,57.67067100,11.99789950,09:53:22.628106,0.01301,0.00000,0.00000,-0.00140,-0.01826,-0.01768,-0.00199,-0.00170,0.08514,-0.00165,0.99789,1.09910,0.00000,-0.00001,-2.83948,0.00000,-0.00001,1.09760,-0.04955,-0.01853,-1.07971,0.00000,A,095322.40
1.12351,57.67067100,11.99789933,57.67067100,11.99789950,09:53:22.639507,0.00998,0.00000,0.00000,-0.00162,-0.01910,-0.02415,-0.00125,-0.00705,0.08975,-0.00372,0.99891,1.11355,0.00000,-0.00001,-2.83948,0.00000,-0.00001,1.09760,-0.04955,-0.01853,-1.07971,0.00000,A,095322.40
1.13475,57.67067100,11.99789933,57.67067100,11.99789950,09:53:22.650745,0.00977,0.00000,0.00000,-0.00194,-0.01990,-0.02788,-0.00262,-0.00531,0.08815,-0.00482,1.00009,1.12469,0.00000,-0.00001,-2.83948,0.00000,-0.00001,1.09760,-0.04955,-0.01853,-1.07971,0.00000,A,095322.40
1.14657,57.67067100,11.99789933,57.67067100,11.99789950,09:53:22.662567,0.00959,0.00000,0.00000,-0.00215,-0.02066,-0.02579,-0.00262,-0.00615,0.08526,-0.00262,0.99957,1.13667,0.00000,-0.00001,-2.83948,0.00000,-0.00001,1.09760,-0.04955,-0.01853,-1.07971,0.00000,A,095322.40
1.15827,57.67067100,11.99789933,57.67067100,11.99789950,09:53:22.674257,0.00955,0.00000,0.00000,-0.00244,-0.02123,-0.03228,-0.00263,-0.00719,0.08384,-0.00550,0.99635,1.14801,0.00000,-0.00002,-2.83948,0.00000,-0.00001,1.09760,-0.04955,-0.01853,-1.07971,0.00000,A,095322.40
1.16987,57.67067100,11.99789933,57.67067100,11.99789950,09:53:22.685863,0.01009,0.00000,0.00000,-0.00270,-0.02157,-0.03136,-0.00279,-0.00985,0.08968,-0.00723,0.99248,1.15989,0.00000,-0.00002,-2.83948,0.00000,-0.00001,1.09760,-0.04955,-0.01853,-1.07971,0.00000,A,095322.40
1.18103,57.67067100,11.99789933,57.67067100,11.99789950,09:53:22.697171,0.00972,0.00000,0.00000,-0.00300,-0.02165,-0.03410,-0.00309,-0.00877,0.09603,-0.00810,0.98957,1.17119,0.00000,-0.00002,-2.83948,0.00000,-0.00001,1.09760,-0.04955,-0.01853,-1.07971,0.00000,A,095322.40
1.19251,57.67067100,11.99789933,57.67067100,11.99789950,09:53:22.708507,0.00984,0.00000,0.00000,-0.00323,-0.02165,-0.02932,-0.00142,-0.01024,0.09847,-0.00505,0.98861,1.18253,0.00000,-0.00002,-2.83948,0.00000,-0.00001,1.09760,-0.04955,-0.01853,-1.07971,0.00000,A,095322.40
1.20682,57.67067100,11.99789933,57.67067100,11.99789950,09:53:22.722810,0.01274,0.00000,0.00000,-0.00347,-0.02165,-0.03184,-0.00293,-0.00698,0.09592,-0.00504,0.99157,1.19402,0.00000,-0.00002,-2.83948,0.00000,-0.00001,1.19251,-0.04955,-0.01853,0.00000,0.00000,A,095322.50
1.21893,57.67067100,11.99789933,57.67067100,11.99789950,09:53:22.734928,0.01064,0.00000,0.00000,-0.00371,-0.02165,-0.03022,-0.00033,-0.00635,0.11236,-0.00427,0.99882,1.20717,0.00000,-0.00002,-2.83948,0.00000,-0.00001,1.19251,-0.04955,-0.01853,0.00000,0.00000,A,095322.50
1.23040,57.67067100,11.99789933,57.67067100,11.99789950,09:53:22.746570,0.00997,0.00000,0.00000,-0.00409,-0.02165,-0.04024,-0.00491,-0.00469,0.09706,-0.01128,0.99953,1.22016,0.00000,-0.00002,-2.83948,0.00000,-0.00001,1.19251,-0.04955,-0.01853,0.00000,0.00000,A,095322.50
1.24217,57.67067100,11.99789933,57.67067100,11.99789950,09:53:22.758333,0.01012,0.00000,0.00000,-0.00441,-0.02165,-0.03889,-0.00201,-0.00578,0.09786,-0.02168,0.99512,1.23227,0.00000,-0.00002,-2.83948,0.00000,-0.00001,1.19251,-0.04955,-0.01853,0.00000,0.00000,A,095322.50
1.25350,57.67067100,11.99789933,57.67067100,11.99789950,09:53:22.769499,0.00975,0.00000,0.00000,-0.00472,-0.02165,-0.03658,0.00303,-0.00585,0.10279,-0.03333,0.99395,1.24382,0.00000,-0.00002,-2.83948,0.00000,-0.00001,1.19251,-0.04955,-0.01853,0.00000,0.00000,A,095322.50
1.26498,57.67067100,11.99789933,57.67067100,11.99789950,09:53:22.780978,0.00994,0.00000,0.00000,-0.00496,-0.02165,-0.03650,-0.00140,-0.00659,0.10405,-0.03705,0.99368,1.25498,0.00000,-0.00002,-2.83948,0.00000,-0.00001,1.19251,-0.04955,-0.01853,0.00000,0.00000,A,095322.50
1.27627,57.67067100,11.99789933,57.67067100,11.99789950,09:53:22.792266,0.00981,0.00000,0.00000,-0.00521,-0.02165,-0.03643,-0.00125,-0.00720,0.10952,-0.03160,0.98709,1.26615,0.00000,-0.00002,-2.83948,0.00000,-0.00001,1.19251,-0.04955,-0.01853,0.00000,0.00000,A,095322.50
1.28760,57.67067100,11.99789933,57.67067100,11.99789950,09:53:22.803597,0.00983,0.00000,0.00000,-0.00542,-0.02165,-0.03516,0.00377,-0.01031,0.11007,-0.03158,0.99090,1.27774,0.00000,-0.00002,-2.83948,0.00000,-0.00001,1.19251,-0.04955,-0.01853,0.00000,0.00000,A,095322.50
1.29972,57.67067100,11.99789933,57.67067100,11.99789950,09:53:22.815720,0.01066,0.00000,0.00000,-0.00567,-0.02165,-0.03711,-0.00066,-0.01066,0.11204,-0.03254,0.99468,1.28881,0.00000,-0.00002,-2.83948,0.00000,-0.00001,1.19251,-0.04955,-0.01853,0.00000,0.00000,A,095322.50
1.31428,57.67067100,11.99789933,57.67067100,11.99789967,09:53:22.830267,0.01237,0.00000,0.00000,-0.00591,-0.02165,-0.03726,0.00178,-0.01207,0.11482,-0.03784,0.99563,1.30114,0.00000,-0.00002,-2.83948,0.00000,-0.00001,1.29972,-0.03964,-0.01853,0.00000,0.00000,A,095322.60
1.32583,57.67067100,11.99789933,57.67067100,11.99789967,09:53:22.841816,0.00998,0.00000,0.00000,-0.00611,-0.02165,-0.03212,0.00363,-0.00858,0.11366,-0.04315,0.99559,1.31592,0.00000,-0.00002,-2.83948,0.00000,-0.00001,1.29972,-0.03964,-0.01853,0.00000,0.00000,A,095322.60
1.33729,57.67067100,11.99789933,57.67067100,11.99789967,09:53:22.853286,0.01004,0.00000,0.00000,-0.00636,-0.02165,-0.03071,0.00393,-0.00888,0.11307,-0.04485,0.99541,1.32602,0.00000,-0.00002,-2.83948,0.00000,-0.00001,1.29972,-0.03964,-0.01853,0.00000,0.00000,A,095322.60
1.34896,57.67067100,11.99789933,57.67067100,11.99789967,09:53:22.864948,0.01018,0.00000,0.00000,-0.00653,-0.02165,-0.03558,-0.00296,-0.01201,0.10756,-0.04938,0.99199,1.33862,0.00000,-0.00002,-2.83948,0.00000,-0.00001,1.29972,-0.03964,-0.01853,0.00000,0.00000,A,095322.60
1.36067,57.67067100,11.99789933,57.67067100,11.99789967,09:53:22.876666,0.01028,0.00000,0.00000,-0.00670,-0.02165,-0.02955,-0.00053,-0.01503,0.10855,-0.04873,0.98866,1.34930,0.00000,-0.00002,-2.83948,0.00000,-0.00001,1.29972,-0.03964,-0.01853,0.00000,0.00000,A,095322.60
1.37221,57.67067100,11.99789933,57.67067100,11.99789967,09:53:22.888202,0.01003,0.00000,0.00000,-0.00683,-0.02165,-0.02935,-0.00190,-0.01408,0.11164,-0.05311,0.97871,1.36187,0.00000,-0.00002,-2.83948,0.00000,-0.00001,1.29972,-0.03964,-0.01853,0.00000,0.00000,A,095322.60
1.38349,57.67067100,11.99789933,57.67067100,11.99789967,09:53:22.899480,0.00978,0.00000,0.00000,-0.00691,-0.02165,-0.02573,0.00265,-0.02169,0.11682,-0.05151,0.98009,1.37364,0.00000,-0.00002,-2.83948,0.00000,-0.00001,1.29972,-0.03964,-0.01853,0.00000,0.00000,A,095322.60
1.39522,57.67067100,11.99789933,57.67067100,11.99789967,09:53:22.911274,0.01028,0.00000,0.00000,-0.00697,-0.02165,-0.02312,0.00112,-0.02308,0.10834,-0.05259,0.97257,1.38483,0.00000,-0.00002,-2.83948,0.00000,-0.00001,1.29972,-0.03964,-0.01853,0.00000,0.00000,A,095322.60
1.40994,57.67067100,11.99789933,57.67067100,11.99790000,09:53:22.925921,0.01299,0.00000,0.00000,-0.00698,-0.02165,-0.02158,-0.00086,-0.02028,0.10692,-0.05873,0.98846,1.39691,0.00000,-0.00002,-2.83948,0.00000,-0.00001,1.39522,-0.01982,-0.01853,0.00000,0.00000,A,095322.70
1.42162,57.67067100,11.99789933,57.67067100,11.99790000,09:53:22.937609,0.01004,0.00000,0.00000,-0.00695,-0.02165,-0.01442,-0.00436,-0.01838,0.10289,-0.06210,0.99815,1.41110,0.00000,-0.00002,-2.83948,0.00000,-0.00001,1.39522,-0.01982,-0.01853,0.00000,0.00000,A,095322.70
1.43316,57.67067100,11.99789933,57.67067100,11.99790000,09:53:22.949150,0.01012,0.00000,0.00000,-0.00692,-0.02165,-0.01221,-0.00269,-0.02030,0.10089,-0.06190,1.00333,1.42321,0.00000,-0.00002,-2.83948,0.00000,-0.00001,1.39522,-0.01982,-0.01853,0.00000,0.00000,A,095322.70
1.44481,57.67067100,11.99789933,57.67067100,11.99790000,09:53:22.960808,0.01015,0.00000,0.00000,-0.00678,-0.02165,-0.00505,-0.00327,-0.01426,0.09878,-0.06180,0.99867,1.43462,0.00000,-0.00002,-2.83948,0.00000,-0.00001,1.39522,-0.01982,-0.01853,0.00000,0.00000,A,095322.70
1.45641,57.67067100,11.99789933,57.67067100,11.99790000,09:53:22.972402,0.01005,0.00000,0.00000,-0.00660,-0.02165,-0.00165,-0.00569,-0.00895,0.10406,-0.05098,0.99092,1.44624,0.00000,-0.00002,-2.83948,0.00000,-0.00001,1.39522,-0.01982,-0.01853,0.00000,0.00000,A,095322.70
1.46782,57.67067100,11.99789933,57.67067100,11.99790000,09:53:22.983816,0.00997,0.00000,0.00000,-0.00636,-0.02165,0.00297,-0.00399,-0.00490,0.10217,-0.04651,0.98099,1.45765,0.00000,-0.00002,-2.83948,0.00000,-0.00001,1.39522,-0.01982,-0.01853,0.00000,0.00000,A,095322.70
1.47926,57.67067100,11.99789933,57.67067100,11.99790000,09:53:22.995257,0.00995,0.00000,0.00000,-0.00613,-0.02165,0.00242,-0.00214,-0.00144,0.08422,-0.03780,0.97678,1.46940,0.00000,-0.00002,-2.83948,0.00000,-0.00001,1.39522,-0.01982,-0.01853,0.00000,0.00000,A,095322.70
1.49044,57.67067100,11.99789933,57.67067100,11.99790000,09:53:23.006557,0.00975,0.00000,0.00000,-0.00588,-0.02165,0.00741,-0.00717,0.00068,0.08559,-0.04002,0.97277,1.48054,0.00000,-0.00002,-2.83948,0.00000,-0.00001,1.39522,-0.01982,-0.01853,0.00000,0.00000,A,095322.70
1.50470,57.67067100,11.99789933,57.67067100,11.99790050,09:53:23.020689,0.01263,0.00000,0.00000,-0.00559,-0.02165,0.01190,-0.00762,0.00180,0.08578,-0.04098,0.97605,1.49183,0.00000,-0.00002,-2.83948,0.00000,-0.00001,1.49044,0.00991,-0.01853,0.00000,0.00000,A,095322.80
1.51613,57.67067100,11.99789933,57.67067100,11.99790050,09:53:23.032128,0.00916,0.00000,0.00000,-0.00523,-0.02165,0.01688,-0.00582,-0.00425,0.07405,-0.03604,1.00282,1.50650,0.00000,-0.00002,-2.83948,0.00000,-0.00001,1.49044,0.00991,-0.01853,0.00000,0.00000,A,095322.80
1.52814,57.67067100,11.99789933,57.67067100,11.99790050,09:53:23.044134,0.01029,0.00000,0.00000,-0.00485,-0.02165,0.01377,-0.00539,-0.00937,0.07888,-0.03447,1.01165,1.51758,0.00000,-0.00002,-2.83948,0.00000,-0.00001,1.49044,0.00991,-0.01853,0.00000,0.00000,A,095322.80
1.53943,57.67067100,11.99789933,57.67067100,11.99790050,09:53:23.055414,0.00966,0.00000,0.00000,-0.00457,-0.02165,0.01142,0.00164,-0.00905,0.07680,-0.02889,0.99138,1.52951,0.00000,-0.00002,-2.83948,0.00000,-0.00001,1.49044,0.00991,-0.01853,0.00000,0.00000,A,095322.80
1.55114,57.67067100,11.99789933,57.67067100,11.99790050,09:53:23.067134,0.01023,0.00000,0.00000,-0.00430,-0.02165,0.01157,-0.00218,-0.01040,0.07307,-0.01450,0.99070,1.54106,0.00000,-0.00002,-2.83948,0.00000,-0.00001,1.49044,0.00991,-0.01853,0.00000,0.00000,A,095322.80
1.56264,57.67067100,11.99789933,57.67067100,11.99790050,09:53:23.078635,0.01006,0.00000,0.00000,-0.00405,-0.02165,0.00844,0.00056,-0.01123,0.07790,-0.00469,0.98807,1.55252,0.00000,-0.00002,-2.83948,0.00000,-0.00001,1.49044,0.00991,-0.01853,0.00000,0.00000,A,095322.80
1.57402,57.67067100,11.99789933,57.67067100,11.99790050,09:53:23.090016,0.00988,0.00000,0.00000,-0.00384,-0.02154,0.00813,-0.00080,-0.00849,0.06092,0.00364,1.00804,1.56429,0.00000,-0.00002,-2.83948,0.00000,-0.00001,1.49044,0.00991,-0.01853,0.00000,0.00000,A,095322.80
1.58596,57.67067100,11.99789933,57.67067100,11.99790050,09:53:23.101953,0.01040,0.00000,0.00000,-0.00364,-0.02120,0.00487,-0.00186,-0.00547,0.06279,-0.00337,1.00938,1.57525,0.00000,-0.00002,-2.83948,0.00000,-0.00001,1.49044,0.00991,-0.01853,0.00000,0.00000,A,095322.80
1.59726,57.67067100,11.99789933,57.67067100,11.99790050,09:53:23.113260,0.00972,0.00000,0.00000,-0.00347,-0.02052,0.00570,0.00304,-0.00463,0.06455,-0.00926,1.00255,1.58737,0.00000,-0.00002,-2.83948,0.00000,-0.00001,1.49044,0.00991,-0.01853,0.00000,0.00000,A,095322.80
1.61154,57.67067100,11.99789933,57.67067100,11.99790117,09:53:23.127537,0.01278,0.00000,0.00000,-0.00329,-0.01970,0.00680,0.00257,-0.00619,0.05721,-0.01459,0.99794,1.59864,0.00000,-0.00002,-2.83948,0.00000,-0.00001,1.59726,0.04955,-0.01853,0.00000,0.00000,A,095322.90
1.62309,57.67067100,11.99789933,57.67067100,11.99790117,09:53:23.139084,0.01012,0.00000,0.00000,-0.00316,-0.01868,0.00108,0.00393,-0.01007,0.06392,-0.02164,0.97762,1.61286,0.00000,-0.00002,-2.83948,0.00000,-0.00001,1.59726,0.04955,-0.01853,0.00000,0.00000,A,095322.90
1.63462,57.67067100,11.99789933,57.67067100,11.99790117,09:53:23.150609,0.00935,0.00000,0.00000,-0.00313,-0.01797,-0.00760,0.00360,-0.01351,0.05734,-0.01211,0.99242,1.62477,0.00000,-0.00002,-2.83948,0.00000,-0.00001,1.59726,0.04955,-0.01853,0.00000,0.00000,A,095322.90
1.64624,57.67067100,11.99789933,57.67067100,11.99790117,09:53:23.162235,0.01012,0.00000,0.00000,-0.00315,-0.01755,-0.01143,0.00327,-0.01901,0.06096,-0.01467,0.99303,1.63615,0.00000,-0.00003,-2.83948,0.00000,-0.00001,1.59726,0.04955,-0.01853,0.00000,0.00000,A,095322.90
1.65774,57.67067100,11.99789933,57.67067100,11.99790117,09:53:23.173734,0.00999,0.00000,0.00000,-0.00321,-0.01732,-0.01464,0.00281,-0.02059,0.06068,-0.01572,0.99005,1.64745,0.00000,-0.00003,-2.83948,0.00000,-0.00001,1.59726,0.04955,-0.01853,0.00000,0.00000,A,095322.90
1.66904,57.67067100,11.99789933,57.67067100,11.99790117,09:53:23.185033,0.00981,0.00000,0.00000,-0.00327,-0.01732,-0.01480,0.00172,-0.02460,0.06029,-0.03331,0.97180,1.65912,0.00000,-0.00003,-2.83948,0.00000,-0.00001,1.59726,0.04955,-0.01853,0.00000,0.00000,A,095322.90
1.68067,57.67067100,11.99789933,57.67067100,11.99790117,09:53:23.196666,0.01019,0.00000,0.00000,-0.00331,-0.01732,-0.01052,-0.00088,-0.02442,0.06639,-0.03395,0.98034,1.67027,0.00000,-0.00003,-2.83948,0.00000,-0.00001,1.59726,0.04955,-0.01853,0.00000,0.00000,A,095322.90
1.69217,57.67067100,11.99789933,57.67067100,11.99790117,09:53:23.208166,0.00931,0.00000,0.00000,-0.00334,-0.01732,-0.01340,-0.00163,-0.02197,0.07082,-0.03006,0.98997,1.68235,0.00000,-0.00003,-2.83948,0.00000,-0.00001,1.59726,0.04955,-0.01853,0.00000,0.00000,A,095322.90
1.70640,57.67067100,11.99789933,57.67067100,11.99790200,09:53:23.222395,0.01281,0.00000,0.00000,-0.00337,-0.01732,-0.01139,0.00232,-0.02760,0.07041,-0.02803,0.99200,1.69304,0.00000,-0.00003,-2.83948,0.00000,-0.00001,1.69217,0.09911,-0.01853,0.00000,0.00000,A,095323.00
1.71850,57.67067100,11.99789933,57.67067100,11.99790200,09:53:23.234504,0.01066,0.00000,0.00000,-0.00340,-0.01732,-0.01234,-0.00240,-0.02323,0.07141,-0.02689,0.98916,1.70785,0.00000,-0.00003,-2.83948,0.00000,-0.00001,1.69217,0.09911,-0.01853,0.00000,0.00000,A,095323.00
1.72980,57.67067100,11.99789933,57.67067100,11.99790200,09:53:23.245800,0.00970,0.00000,0.00000,-0.00348,-0.01732,-0.01367,-0.00040,-0.02093,0.07132,-0.02396,0.98877,1.71992,0.00000,-0.00003,-2.83948,0.00000,-0.00001,1.69217,0.09911,-0.01853,0.00000,0.00000,A,095323.00
1.74343,57.67067100,11.99789933,57.67067100,11.99790200,09:53:23.259431,0.01192,2.17657,0.00000,-0.00357,-0.01732,-0.01830,-0.00541,-0.01528,0.07419,-0.01962,0.99110,1.73286,0.14801,-0.00003,-2.83948,0.03483,-0.00001,1.69217,0.09911,-0.01853,0.00000,0.00000,A,095323.00
1.75681,57.67067100,11.99789933,57.67067100,11.99790200,09:53:23.272813,0.01194,2.17657,0.00000,-0.00368,-0.01732,-0.01608,0.00071,-0.01183,0.06796,-0.02254,1.00613,1.74632,0.14801,-0.00006,-2.83948,0.03689,-0.00003,1.69217,0.09911,-0.01853,0.00000,0.00000,A,095323.00
1.76954,57.67067100,11.99789933,57.67067100,11.99790200,09:53:23.285536,0.01057,2.17657,0.00000,-0.00377,-0.01732,-0.01721,-0.00097,-0.01272,0.06836,-0.02577,1.00588,1.75960,0.14801,-0.00008,-2.83948,0.03876,-0.00004,1.69217,0.09911,-0.01853,0.00000,0.00000,A,095323.00
1.78211,57.67067100,11.99789933,57.67067100,11.99790200,09:53:23.298105,0.01107,2.17657,0.00000,-0.00383,-0.01732,-0.01269,-0.00389,-0.01604,0.06146,-0.03129,1.01372,1.77248,0.14801,-0.00011,-2.83948,0.04070,-0.00006,1.69217,0.09911,-0.01853,0.00000,0.00000,A,095323.00
1.79509,57.67067100,11.99789933,57.67067100,11.99790200,09:53:23.311089,0.01154,2.17657,0.00000,-0.00391,-0.01732,-0.01756,0.00130,-0.01646,0.05486,-0.03479,1.00803,1.78420,0.14801,-0.00014,-2.83948,0.04264,-0.00008,1.69217,0.09911,-0.01853,0.00000,0.00000,A,095323.00
1.81104,57.67067100,11.99789933,57.67067100,11.99790283,09:53:23.327035,0.01414,2.17657,0.00000,-0.00396,-0.01732,-0.01452,0.00112,-0.02165,0.05523,-0.03133,1.00529,1.79755,0.14801,-0.00016,-2.83948,0.04443,-0.00010,1.79509,0.14866,-0.01853,0.00000,0.00000,A,095323.10
1.82373,57.67067100,11.99789933,57.67067100,11.99790283,09:53:23.339728,0.01117,2.17657,0.00000,-0.00401,-0.01732,-0.01381,0.00051,-0.02111,0.06612,-0.03380,0.99744,1.81389,0.14801,-0.00019,-2.83948,0.04636,-0.00011,1.79509,0.14866,-0.01853,0.00000,0.00000,A,095323.10
1.83666,57.67067100,11.99789933,57.67067100,11.99790283,09:53:23.352653,0.01146,2.17657,0.00000,-0.00411,-0.01732,-0.01572,-0.00100,-0.01778,0.06750,-0.03038,0.98678,1.82577,0.14801,-0.00022,-2.83948,0.04871,-0.00013,1.79509,0.14866,-0.01853,0.00000,0.00000,A,095323.10
1.84984,57.67067100,11.99789933,57.67067100,11.99790283,09:53:23.365841,0.01172,2.17657,0.00000,-0.00409,-0.01732,-0.00609,-0.00007,-0.01593,0.06373,-0.03007,0.97395,1.83866,0.14801,-0.00025,-2.83948,0.05066,-0.00015,1.79509,0.14866,-0.01853,0.00000,0.00000,A,095323.10
1.86271,57.67067100,11.99789933,57.67067100,11.99790283,09:53:23.378695,0.01136,2.17657,0.00000,-0.00404,-0.01732,-0.00645,0.00192,-0.01414,0.06383,-0.03394,0.98233,1.85212,0.14801,-0.00027,-2.83948,0.05256,-0.00017,1.79509,0.14866,-0.01853,0.00000,0.00000,A,095323.10
1.87519,57.67067100,11.99789933,57.67067100,11.99790283,09:53:23.391249,0.01103,2.17657,0.00000,-0.00397,-0.01732,-0.00278,0.00468,-0.01128,0.06761,-0.03266,0.96832,1.86472,0.14801,-0.00030,-2.83948,0.05449,-0.00019,1.79509,0.14866,-0.01853,0.00000,0.00000,A,095323.10
1.88791,57.67067100,11.99789933,57.67067100,11.99790283,09:53:23.403897,0.01119,2.17657,0.00000,-0.00389,-0.01732,-0.00334,0.00516,-0.00765,0.06835,-0.03398,0.97216,1.87729,0.14801,-0.00032,-2.83948,0.05637,-0.00020,1.79509,0.14866,-0.01853,0.00000,0.00000,A,095323.10
1.90080,57.67067100,11.99789933,57.67067100,11.99790283,09:53:23.416799,0.01138,2.17657,0.00000,-0.00379,-0.01732,-0.00177,0.00439,-0.00794,0.07197,-0.02991,0.98304,1.89090,0.14801,-0.00035,-2.83948,0.05818,-0.00022,1.79509,0.14866,-0.01853,0.00000,0.00000,A,095323.10
1.91721,57.67067100,11.99789933,57.67067083,11.99790450,09:53:23.433197,0.01428,2.17657,0.00000,-0.00375,-0.01732,-0.00764,0.00210,-0.00766,0.07374,-0.02027,0.98369,1.90378,0.14801,-0.00038,-2.83948,0.06012,-0.00024,1.90080,0.24777,-0.03706,-0.18486,0.00000,A,095323.30
1.93104,57.67067100,11.99789933,57.67067083,11.99790450,09:53:23.447025,0.01238,2.17657,0.00000,-0.00374,-0.01732,-0.00928,0.00425,-0.00678,0.07271,-0.02483,0.98519,1.92002,0.14801,-0.00040,-2.83948,0.06209,-0.00026,1.90080,0.24777,-0.03706,-0.18486,0.00000,A,095323.30
1.94400,57.67067100,11.99789933,57.67067083,11.99790450,09:53:23.459994,0.01149,2.17657,0.00000,-0.00382,-0.01729,-0.01439,0.00166,-0.00504,0.07644,-0.02528,0.98150,1.93346,0.14801,-0.00044,-2.83948,0.06455,-0.00028,1.90080,0.24777,-0.03706,-0.18486,0.00000,A,095323.30
1.95718,57.67067100,11.99789933,57.67067083,11.99790450,09:53:23.473161,0.01153,2.17657,0.00000,-0.00387,-0.01712,-0.01208,0.00350,-0.00371,0.08977,-0.02455,0.98140,1.94664,0.14801,-0.00047,-2.83948,0.06650,-0.00030,1.90080,0.24777,-0.03706,-0.18486,0.00000,A,095323.30
1.96974,57.67067100,11.99789933,57.67067083,11.99790450,09:53:23.485737,0.01110,2.17657,0.00000,-0.00389,-0.01664,-0.00943,0.00686,-0.00266,0.07714,-0.02215,0.98561,1.95919,0.14801,-0.00049,-2.83948,0.06844,-0.00031,1.90080,0.24777,-0.03706,-0.18486,0.00000,A,095323.30
1.98220,57.67067100,11.99789933,57.67067083,11.99790450,09:53:23.498190,0.01101,2.17657,0.00000,-0.00388,-0.01593,-0.00842,0.00686,-0.00347,0.07954,-0.03113,0.99489,1.97197,0.14801,-0.00052,-2.83948,0.07040,-0.00033,1.90080,0.24777,-0.03706,-0.18486,0.00000,A,095323.30
1.99496,57.67067100,11.99789933,57.67067083,11.99790450,09:53:23.510959,0.01126,2.17657,0.00000,-0.00389,-0.01509,-0.01123,0.01157,-0.00857,0.07150,-0.04154,0.99980,1.98512,0.14801,-0.00054,-2.83948,0.07216,-0.00035,1.90080,0.24777,-0.03706,-0.18486,0.00000,A,095323.30
2.01001,57.67067100,11.99789933,57.67067083,11.99790450,09:53:23.525994,0.01344,2.17657,0.00000,-0.00395,-0.01421,-0.01506,0.00591,-0.01005,0.07865,-0.04551,1.01266,1.99778,0.14801,-0.00056,-2.83948,0.07406,-0.00036,1.99496,0.24777,-0.03706,0.00000,0.00000,A,095323.30
2.02282,57.67067100,11.99789933,57.67067083,11.99790450,09:53:23.538811,0.01137,2.17657,0.00000,-0.00397,-0.01316,-0.00943,0.01200,-0.01498,0.07130,-0.04635,1.01423,2.01192,0.14801,-0.00058,-2.83948,0.07603,-0.00038,1.99496,0.24777,-0.03706,0.00000,0.00000,A,095323.30
2.03560,57.67067100,11.99789933,57.67067083,11.99790450,09:53:23.551590,0.01066,2.17657,0.00000,-0.00392,-0.01231,-0.00220,0.00998,-0.02184,0.06358,-0.05524,1.01739,2.02519,0.14801,-0.00060,-2.83948,0.07814,-0.00039,1.99496,0.24777,-0.03706,0.00000,0.00000,A,095323.30
2.04874,57.67067100,11.99789933,57.67067083,11.99790450,09:53:23.564742,0.01162,2.17657,0.00000,-0.00379,-0.01149,0.00184,0.00571,-0.01952,0.05304,-0.06043,1.01617,2.03856,0.14801,-0.00062,-2.83948,0.08007,-0.00040,1.99496,0.24777,-0.03706,0.00000,0.00000,A,095323.30
2.06120,57.67067100,11.99789933,57.67067083,11.99790450,09:53:23.577196,0.01101,2.17657,0.00000,-0.00361,-0.01061,0.00592,0.00434,-0.02029,0.04938,-0.06862,1.00069,2.05095,0.14801,-0.00064,-2.83948,0.08208,-0.00041,1.99496,0.24777,-0.03706,0.00000,0.00000,A,095323.30
2.07328,57.67067100,11.99789933,57.67067083,11.99790450,09:53:23.589274,0.01057,0.75090,0.75090,-0.00340,-0.00959,0.01032,0.00221,-0.01702,0.05954,-0.06796,0.99882,2.06292,0.18900,-0.00065,-2.83948,0.09349,-0.00042,1.99496,0.24777,-0.03706,0.00000,0.00000,A,095323.30
2.08480,57.67067100,11.99789933,57.67067083,11.99790450,09:53:23.600794,0.01009,0.75090,0.75090,-0.00307,-0.00855,0.02134,0.00498,-0.01394,0.05585,-0.06661,1.00049,2.07481,0.18900,-0.00067,-2.83948,0.09580,-0.00043,1.99496,0.24777,-0.03706,0.00000,0.00000,A,095323.30
2.09605,57.67067100,11.99789933,57.67067083,11.99790450,09:53:23.612026,0.00970,0.75090,0.75090,-0.00272,-0.00742,0.02398,0.00240,-0.00872,0.06750,-0.06295,1.00006,2.08615,0.18900,-0.00068,-2.83948,0.09798,-0.00044,1.99496,0.24777,-0.03706,0.00000,0.00000,A,095323.30
2.11025,57.67067100,11.99789933,57.67067083,11.99790450,09:53:23.626234,0.01263,0.75090,0.75090,-0.00236,-0.00634,0.02688,0.00501,-0.00717,0.05614,-0.06522,0.99628,2.09749,0.18900,-0.00069,-2.83948,0.10010,-0.00045,2.09605,0.24777,-0.03706,0.00000,0.00000,A,095323.30
2.12182,57.67067100,11.99789933,57.67067083,11.99790450,09:53:23.638022,0.01011,0.75090,0.75090,-0.00191,-0.00501,0.03570,0.00091,-0.00217,0.04927,-0.06311,0.97819,2.11152,0.18900,-0.00070,-2.83948,0.10234,-0.00046,2.09605,0.24777,-0.03706,0.00000,0.00000,A,095323.30
2.13335,57.67067100,11.99789933,57.67067083,11.99790450,09:53:23.649349,0.00928,0.75090,0.75090,-0.00142,-0.00399,0.03113,0.00073,-0.00806,0.04540,-0.06181,0.99622,2.12353,0.18900,-0.00071,-2.83948,0.10495,-0.00047,2.09605,0.24777,-0.03706,0.00000,0.00000,A,095323.30
2.14530,57.67067100,11.99789933,57.67067083,11.99790450,09:53:23.661348,0.01050,0.75090,0.75090,-0.00094,-0.00311,0.04100,-0.00079,-0.00556,0.04399,-0.06351,0.99675,2.13521,0.18900,-0.00072,-2.83948,0.10715,-0.00047,2.09605,0.24777,-0.03706,0.00000,0.00000,A,095323.30
2.15658,57.67067100,11.99789933,57.67067083,11.99790450,09:53:23.672568,0.00973,0.75090,0.75090,-0.00039,-0.00229,0.04658,0.00396,-0.00326,0.05144,-0.05278,0.99704,2.14658,0.18900,-0.00072,-2.83948,0.10945,-0.00047,2.09605,0.24777,-0.03706,0.00000,0.00000,A,095323.30
2.16800,57.67067100,11.99789933,57.67067083,11.99790450,09:53:23.683999,0.00993,0.75090,0.75090,0.00012,-0.00161,0.04872,0.00562,-0.00733,0.06336,-0.04595,0.99688,2.15802,0.18900,-0.00073,-2.83948,0.11152,-0.00048,2.09605,0.24777,-0.03706,0.00000,0.00000,A,095323.30
2.17942,57.67067100,11.99789933,57.67067083,11.99790450,09:53:23.695411,0.00997,0.75090,0.75090,0.00070,-0.00096,0.05128,0.00594,-0.00413,0.06529,-0.04000,0.99062,2.16919,0.18900,-0.00073,-2.83948,0.11381,-0.00048,2.09605,0.24777,-0.03706,0.00000,0.00000,A,095323.30
2.19098,57.67067100,11.99789933,57.67067083,11.99790450,09:53:23.706977,0.00991,0.75090,0.75090,0.00117,-0.00031,0.04746,0.01586,-0.00568,0.05632,-0.03348,0.98854,2.18108,0.18900,-0.00073,-2.83948,0.11583,-0.00048,2.09605,0.24777,-0.03706,0.00000,0.00000,A,095323.30
2.20524,57.67067100,11.99789933,57.67067067,11.99790667,09:53:23.721354,0.01283,0.75090,0.75090,0.00169,0.00025,0.05250,0.02427,-0.00407,0.04502,-0.03672,0.98636,2.19243,0.18900,-0.00073,-2.83948,0.11803,-0.00048,2.19098,0.37661,-0.05560,-0.14286,0.00000,A,095323.50
2.21746,57.67067100,11.99789933,57.67067067,11.99790667,09:53:23.733580,0.01068,0.75090,0.75090,0.00224,0.00088,0.05594,0.02427,-0.00323,0.02974,-0.04961,0.99514,2.20670,0.18900,-0.00073,-2.83948,0.12021,-0.00048,2.19098,0.37661,-0.05560,-0.14286,0.00000,A,095323.50
2.22918,57.67067100,11.99789933,57.67067067,11.99790667,09:53:23.745174,0.01010,0.75090,0.75090,0.00294,0.00130,0.05687,0.02640,-0.00467,0.01962,-0.04027,0.99832,2.21887,0.18900,-0.00072,-2.83948,0.12292,-0.00048,2.19098,0.37661,-0.05560,-0.14286,0.00000,A,095323.50
2.24089,57.67067100,11.99789933,57.67067067,11.99790667,09:53:23.756880,0.01020,0.75090,0.75090,0.00353,0.00175,0.05908,0.02302,-0.00932,0.01222,-0.03390,0.99033,2.23039,0.18900,-0.00072,-2.83948,0.12526,-0.00047,2.19098,0.37661,-0.05560,-0.14286,0.00000,A,095323.50
2.25308,57.67067100,11.99789933,57.67067067,11.99790667,09:53:23.769179,0.01068,0.75090,0.75090,0.00411,0.00229,0.05916,0.02150,-0.00731,0.01696,-0.02165,0.98854,2.24276,0.18900,-0.00072,-2.83948,0.12758,-0.00047,2.19098,0.37661,-0.05560,-0.14286,0.00000,A,095323.50
2.26445,57.67067100,11.99789933,57.67067067,11.99790667,09:53:23.780439,0.00979,0.75090,0.75090,0.00463,0.00300,0.06023,0.01863,-0.00179,0.01134,-0.01415,0.97412,2.25455,0.18900,-0.00071,-2.83948,0.12973,-0.00047,2.19098,0.37661,-0.05560,-0.14286,0.00000,A,095323.50
2.27591,57.67067100,11.99789933,57.67067067,11.99790667,09:53:23.791906,0.00988,0.75090,0.75090,0.00512,0.00371,0.05684,0.01833,-0.00033,0.00863,-0.01048,0.97687,2.26589,0.18900,-0.00071,-2.83948,0.13194,-0.00046,2.19098,0.37661,-0.05560,-0.14286,0.00000,A,095323.50
2.28732,57.67067100,11.99789933,57.67067067,11.99790667,09:53:23.803318,0.00997,0.75090,0.75090,0.00561,0.00430,0.05580,0.01787,0.00078,0.00396,-0.00907,0.97689,2.27710,0.18900,-0.00070,-2.83948,0.13417,-0.00046,2.19098,0.37661,-0.05560,-0.14286,0.00000,A,095323.50
2.29860,57.67067100,11.99789933,57.67067067,11.99790667,09:53:23.814597,0.00955,0.75090,0.75090,0.00606,0.00478,0.06179,0.01621,0.00485,-0.00577,-0.00652,0.98861,2.28917,0.18900,-0.00069,-2.83948,0.13618,-0.00046,2.19098,0.37661,-0.05560,-0.14286,0.00000,A,095323.50
2.31404,57.67067100,11.99789933,57.67067033,11.99790900,09:53:23.830030,0.01396,0.75090,0.75090,0.00653,0.00507,0.05639,0.00916,-0.00034,-0.01675,-0.01032,0.99734,2.29982,0.18900,-0.00068,-2.83948,0.13849,-0.00045,2.29860,0.51537,-0.09266,-0.26103,0.00000,A,095323.70
2.32530,57.67067100,11.99789933,57.67067033,11.99790900,09:53:23.841457,0.00978,0.75090,0.75090,0.00690,0.00524,0.05379,-0.00260,-0.00180,-0.02353,-0.00928,1.01069,2.31528,0.18900,-0.00067,-2.83948,0.14055,-0.00044,2.29860,0.51537,-0.09266,-0.26103,0.00000,A,095323.70
2.33670,57.67067100,11.99789933,57.67067033,11.99790900,09:53:23.852675,0.00974,0.75090,0.75090,0.00746,0.00529,0.05175,-0.01288,-0.01090,-0.01545,-0.00049,1.01242,2.32717,0.18900,-0.00066,-2.83948,0.14341,-0.00044,2.29860,0.51537,-0.09266,-0.26103,0.00000,A,095323.70
2.34895,57.67067100,11.99789933,57.67067033,11.99790900,09:53:23.865027,0.01074,0.75090,0.75090,0.00780,0.00535,0.04964,-0.01241,-0.00991,-0.01149,0.00648,1.00337,2.33827,0.18900,-0.00065,-2.83948,0.14566,-0.00043,2.29860,0.51537,-0.09266,-0.26103,0.00000,A,095323.70
2.36042,57.67067100,11.99789933,57.67067033,11.99790900,09:53:23.876406,0.00991,0.75090,0.75090,0.00810,0.00541,0.04773,-0.02355,-0.00792,-0.00462,0.02389,0.99461,2.35037,0.18900,-0.00064,-2.83948,0.14784,-0.00042,2.29860,0.51537,-0.09266,-0.26103,0.00000,A,095323.70
2.37213,57.67067100,11.99789933,57.67067033,11.99790900,09:53:23.888128,0.01013,0.75090,0.75090,0.00833,0.00543,0.04020,-0.01713,-0.00526,-0.00392,0.02245,1.00047,2.36191,0.18900,-0.00063,-2.83948,0.15007,-0.00042,2.29860,0.51537,-0.09266,-0.26103,0.00000,A,095323.70
2.38354,57.67067100,11.99789933,57.67067033,11.99790900,09:53:23.899539,0.00996,0.77260,0.77260,0.00849,0.00543,0.03334,-0.00689,-0.00439,-0.00396,0.01709,1.01442,2.37339,0.22869,-0.00063,-2.83948,0.16171,-0.00041,2.29860,0.51537,-0.09266,-0.26103,0.00000,A,095323.70
2.39480,57.67067100,11.99789933,57.67067033,11.99790900,09:53:23.910797,0.00976,0.77260,0.77260,0.00849,0.00543,0.02391,0.00119,-0.00672,-0.01118,0.02578,1.02075,2.38526,0.22869,-0.00062,-2.83948,0.16418,-0.00040,2.29860,0.51537,-0.09266,-0.26103,0.00000,A,095323.70
2.40911,57.67067100,11.99789933,57.67067033,11.99790900,09:53:23.925104,0.01282,0.77260,0.77260,0.00846,0.00543,0.02078,0.00012,-0.00753,-0.01763,0.02235,1.01703,2.39604,0.22869,-0.00060,-2.83948,0.16687,-0.00040,2.39480,0.51537,-0.09266,0.00000,0.00000,A,095323.70
2.42048,57.67067100,11.99789933,57.67067033,11.99790900,09:53:23.936468,0.00990,0.77260,0.77260,0.00838,0.00543,0.01724,0.00620,-0.01303,-0.00926,0.01748,1.02064,2.41032,0.22869,-0.00059,-2.83948,0.16939,-0.00039,2.39480,0.51537,-0.09266,0.00000,0.00000,A,095323.70
2.43189,57.67067100,11.99789933,57.67067033,11.99790900,09:53:23.947885,0.00992,0.77260,0.77260,0.00829,0.00543,0.01042,0.00864,-0.01381,-0.00820,0.00859,1.00963,2.42205,0.22869,-0.00058,-2.83948,0.17263,-0.00038,2.39480,0.51537,-0.09266,0.00000,0.00000,A,095323.70
2.44395,57.67067100,11.99789933,57.67067033,11.99790900,09:53:23.959938,0.01061,0.77260,0.77260,0.00814,0.00543,0.00835,0.00420,-0.01725,0.00134,0.00445,0.98592,2.43375,0.22869,-0.00057,-2.83948,0.17540,-0.00037,2.39480,0.51537,-0.09266,0.00000,0.00000,A,095323.70
2.45508,57.67067100,11.99789933,57.67067033,11.99790900,09:53:23.971072,0.00960,0.77260,0.77260,0.00792,0.00543,0.00314,0.00648,-0.01877,-0.00691,0.00255,0.97199,2.44543,0.22869,-0.00056,-2.83948,0.17792,-0.00036,2.39480,0.51537,-0.09266,0.00000,0.00000,A,095323.70
2.46728,57.67067100,11.99789933,57.67067033,11.99790900,09:53:23.983276,0.01062,0.77260,0.77260,0.00775,0.00543,0.00785,0.00997,-0.02378,-0.00326,0.00212,0.97068,2.45661,0.22869,-0.00054,-2.83948,0.18069,-0.00036,2.39480,0.51537,-0.09266,0.00000,0.00000,A,095323.70
2.47856,57.67067100,11.99789933,57.67067033,11.99790900,09:53:23.994555,0.00985,0.77260,0.77260,0.00758,0.00543,0.00643,0.00891,-0.02209,-0.00663,-0.00574,0.97286,2.46844,0.22869,-0.00053,-2.83948,0.18330,-0.00035,2.39480,0.51537,-0.09266,0.00000,0.00000,A,095323.70
2.48962,57.67067100,11.99789933,57.67067033,11.99790900,09:53:24.005617,0.00956,0.77260,0.77260,0.00738,0.00543,0.00272,0.01121,-0.02053,-0.00297,-0.00284,0.98007,2.48018,0.22869,-0.00052,-2.83948,0.18589,-0.00034,2.39480,0.51537,-0.09266,0.00000,0.00000,A,095323.70
2.50125,57.67067100,11.99789933,57.67067033,11.99790900,09:53:24.017240,0.01013,0.77260,0.77260,0.00717,0.00543,0.00199,0.00633,-0.01813,-0.00183,-0.00005,0.98964,2.49081,0.22869,-0.00051,-2.83948,0.18860,-0.00033,2.39480,0.51537,-0.09266,0.00000,0.00000,A,095323.70
2.51633,57.67067100,11.99789933,57.67067000,11.99791133,09:53:24.032312,0.01344,0.77260,0.77260,0.00693,0.00543,-0.00136,0.00360,-0.01434,0.00725,-0.00449,1.00498,2.50292,0.22869,-0.00050,-2.83948,0.19107,-0.00033,2.50125,0.65412,-0.12973,-0.26103,0.00000,A,095323.90
2.52747,57.67067100,11.99789933,57.67067000,11.99791133,09:53:24.043467,0.00965,0.77260,0.77260,0.00670,0.00543,-0.00045,0.00162,-0.01285,0.00662,-0.00603,1.00130,2.51787,0.22869,-0.00049,-2.83948,0.19378,-0.00032,2.50125,0.65412,-0.12973,-0.26103,0.00000,A,095323.90
2.53927,57.67067100,11.99789933,57.67067000,11.99791133,09:53:24.055257,0.01031,0.77260,0.77260,0.00650,0.00543,0.00266,0.00473,-0.00221,0.01952,-0.00792,1.00227,2.52874,0.22869,-0.00047,-2.83948,0.19724,-0.00031,2.50125,0.65412,-0.12973,-0.26103,0.00000,A,095323.90
2.55095,57.67067100,11.99789933,57.67067000,11.99791133,09:53:24.066940,0.01006,0.77260,0.77260,0.00627,0.00543,-0.00287,0.00640,-0.00361,0.02829,-0.00688,0.98876,2.54083,0.22869,-0.00046,-2.83948,0.19977,-0.00030,2.50125,0.65412,-0.12973,-0.26103,0.00000,A,095323.90
2.56245,57.67067100,11.99789933,57.67067000,11.99791133,09:53:24.078443,0.01007,0.77260,0.77260,0.00607,0.00543,0.00130,0.00323,0.00440,0.03274,0.00107,0.97965,2.55250,0.22869,-0.00045,-2.83948,0.20249,-0.00029,2.50125,0.65412,-0.12973,-0.26103,0.00000,A,095323.90
2.57398,57.67067100,11.99789933,57.67067000,11.99791133,09:53:24.089969,0.01002,0.77260,0.77260,0.00587,0.00543,-0.00175,0.00460,0.00282,0.03400,-0.00047,0.97722,2.56374,0.22869,-0.00044,-2.83948,0.20518,-0.00029,2.50125,0.65412,-0.12973,-0.26103,0.00000,A,095323.90
2.58562,57.67067100,11.99789933,57.67067000,11.99791133,09:53:24.101614,0.01008,0.77260,0.77260,0.00563,0.00543,-0.00607,0.00948,0.00293,0.03170,-0.00081,0.97095,2.57568,0.22869,-0.00042,-2.83948,0.20773,-0.00028,2.50125,0.65412,-0.12973,-0.26103,0.00000,A,095323.90
2.59721,57.67067100,11.99789933,57.67067000,11.99791133,09:53:24.113198,0.01016,0.77260,0.77260,0.00539,0.00543,-0.00566,0.01207,0.00066,0.03413,-0.00338,0.96847,2.58687,0.22869,-0.00041,-2.83948,0.21050,-0.00027,2.50125,0.65412,-0.12973,-0.26103,0.00000,A,095323.90
2.61105,57.67067100,11.99789933,57.67067000,11.99791133,09:53:24.127042,0.01224,0.77260,0.77260,0.00513,0.00543,-0.00919,0.00948,0.00196,0.03787,-0.00449,0.97884,2.59886,0.22869,-0.00040,-2.83948,0.21302,-0.00026,2.59721,0.65412,-0.12973,0.00000,0.00000,A,095323.90
2.62242,57.67067100,11.99789933,57.67067000,11.99791133,09:53:24.138418,0.00987,0.77260,0.77260,0.00490,0.00575,-0.00613,0.01314,0.00075,0.04037,0.00397,0.98663,2.61252,0.22869,-0.00039,-2.83948,0.21570,-0.00026,2.59721,0.65412,-0.12973,0.00000,0.00000,A,095323.90
2.63386,57.67067100,11.99789933,57.67067000,11.99791133,09:53:24.149847,0.00999,0.77260,0.77260,0.00466,0.00654,-0.00613,0.01086,0.00215,0.03987,-0.00660,0.99761,2.62374,0.22869,-0.00037,-2.83948,0.21897,-0.00025,2.59721,0.65412,-0.12973,0.00000,0.00000,A,095323.90
2.64533,57.67067100,11.99789933,57.67067000,11.99791133,09:53:24.161338,0.00929,0.77260,0.77260,0.00442,0.00778,-0.00985,0.00918,0.00374,0.04236,-0.01070,1.00718,2.63592,0.22869,-0.00036,-2.83948,0.22143,-0.00024,2.59721,0.65412,-0.12973,0.00000,0.00000,A,095323.90
2.65759,57.67067100,11.99789933,57.67067000,11.99791133,09:53:24.173585,0.01089,0.77260,0.77260,0.00413,0.00914,-0.01285,0.01144,-0.00368,0.03722,-0.01593,1.01142,2.64575,0.22869,-0.00034,-2.83948,0.22418,-0.00022,2.59721,0.65412,-0.12973,0.00000,0.00000,A,095323.90
2.66909,57.67067100,11.99789933,57.67067000,11.99791133,09:53:24.185083,0.00921,0.77260,0.77260,0.00382,0.01073,-0.01635,0.01523,-0.00947,0.04032,-0.00918,1.01824,2.65913,0.22869,-0.00032,-2.83948,0.22674,-0.00021,2.59721,0.65412,-0.12973,0.00000,0.00000,A,095323.90
2.67967,57.67067100,11.99789933,57.67067000,11.99791133,09:53:24.195665,0.00908,0.77260,0.77260,0.00349,0.01177,-0.01757,0.01202,-0.00960,0.03237,-0.00534,1.01905,2.66941,0.22869,-0.00030,-2.83948,0.22951,-0.00020,2.59721,0.65412,-0.12973,0.00000,0.00000,A,095323.90
2.68977,57.67067100,11.99789933,57.67067000,11.99791133,09:53:24.205761,0.00882,0.77260,0.77260,0.00318,0.01254,-0.01809,0.01050,-0.00903,0.03151,-0.00510,1.01846,2.67968,0.22869,-0.00028,-2.83948,0.23204,-0.00018,2.59721,0.65412,-0.12973,0.00000,0.00000,A,095323.90
2.70487,57.67067100,11.99789933,57.67067000,11.99791133,09:53:24.220857,0.01377,0.77260,0.77260,0.00293,0.01299,-0.01550,0.01035,-0.00889,0.01831,-0.00729,1.00538,2.69156,0.22869,-0.00025,-2.83948,0.23420,-0.00017,2.68977,0.65412,-0.12973,0.00000,0.00000,A,095323.90
2.71646,57.67067100,11.99789933,57.67067000,11.99791133,09:53:24.232450,0.01012,0.77260,0.77260,0.00264,0.01322,-0.01666,0.00103,-0.00944,0.02589,-0.00937,1.00465,2.70628,0.22869,-0.00022,-2.83948,0.23707,-0.00015,2.68977,0.65412,-0.12973,0.00000,0.00000,A,095323.90
2.72794,57.67067100,11.99789933,57.67067000,11.99791133,09:53:24.243934,0.01002,0.71682,0.71682,0.00225,0.01322,-0.02363,0.00715,-0.00626,0.01750,-0.01455,0.99354,2.71766,0.26188,-0.00019,-2.83948,0.24816,-0.00012,2.68977,0.65412,-0.12973,0.00000,0.00000,A,095323.90
2.73963,57.67067100,11.99789933,57.67067000,11.99791133,09:53:24.255626,0.01018,0.71682,0.71682,0.00195,0.01322,-0.02082,0.00014,-0.00253,0.02666,-0.00520,0.96991,2.72969,0.26188,-0.00016,-2.83948,0.25109,-0.00010,2.68977,0.65412,-0.12973,0.00000,0.00000,A,095323.90
2.75190,57.67067100,11.99789933,57.67067000,11.99791133,09:53:24.267899,0.01080,0.71682,0.71682,0.00163,0.01322,-0.02240,-0.00611,-0.00068,0.02759,-0.00478,0.96817,2.74132,0.26188,-0.00012,-2.83948,0.25437,-0.00008,2.68977,0.65412,-0.12973,0.00000,0.00000,A,095323.90
2.76330,57.67067100,11.99789933,57.67067000,11.99791133,09:53:24.279291,0.00975,0.71682,0.71682,0.00134,0.01322,-0.02137,-0.00566,-0.00164,0.03851,-0.00270,0.97043,2.75344,0.26188,-0.00009,-2.83948,0.25736,-0.00006,2.68977,0.65412,-0.12973,0.00000,0.00000,A,095323.90
2.77478,57.67067100,11.99789933,57.67067000,11.99791133,09:53:24.290776,0.00991,0.71682,0.71682,0.00101,0.01322,-0.02799,-0.01039,-0.00159,0.04609,-0.00464,0.97178,2.76481,0.26188,-0.00006,-2.83948,0.26042,-0.00004,2.68977,0.65412,-0.12973,0.00000,0.00000,A,095323.90
2.78619,57.67067100,11.99789933,57.67067000,11.99791133,09:53:24.302185,0.00989,0.71682,0.71682,0.00064,0.01322,-0.02809,-0.00626,0.00068,0.05392,-0.00749,0.97642,2.77604,0.26188,-0.00003,-2.83948,0.26355,-0.00002,2.68977,0.65412,-0.12973,0.00000,0.00000,A,095323.90
2.79751,57.67067100,11.99789933,57.67067000,11.99791133,09:53:24.313498,0.00982,0.71682,0.71682,0.00031,0.01322,-0.03041,0.00120,-0.00469,0.04130,-0.00718,0.97672,2.78770,0.26188,-0.00000,-2.83948,0.26632,0.00000,2.68977,0.65412,-0.12973,0.00000,0.00000,A,095323.90
2.81238,57.67067100,11.99789933,57.67067000,11.99791383,09:53:24.328366,0.01340,0.71682,0.71682,-0.00007,0.01322,-0.03157,0.00027,-0.00804,0.04282,-0.00935,0.99489,2.79868,0.26188,0.00003,-2.83948,0.26946,0.00003,2.79751,0.80278,-0.12973,0.00000,0.00000,A,095324.10
2.82378,57.67067100,11.99789933,57.67067000,11.99791383,09:53:24.339772,0.00997,0.71682,0.71682,-0.00039,0.01322,-0.03065,0.00283,-0.01487,0.04622,-0.02031,1.00023,2.81363,0.26188,0.00006,-2.83948,0.27237,0.00005,2.79751,0.80278,-0.12973,0.00000,0.00000,A,095324.10
2.83496,57.67067100,11.99789933,57.67067000,11.99791383,09:53:24.350950,0.00968,0.71682,0.71682,-0.00083,0.01322,-0.03211,0.00754,-0.02105,0.03368,-0.02940,0.99929,2.82539,0.26188,0.00010,-2.83948,0.27620,0.00007,2.79751,0.80278,-0.12973,0.00000,0.00000,A,095324.10
2.84735,57.67067100,11.99789933,57.67067000,11.99791383,09:53:24.363347,0.01089,0.71682,0.71682,-0.00118,0.01322,-0.03276,0.00828,-0.02619,0.04061,-0.03668,1.00754,2.83656,0.26188,0.00014,-2.83948,0.27934,0.00009,2.79751,0.80278,-0.12973,0.00000,0.00000,A,095324.10
2.85892,57.67067100,11.99789933,57.67067000,11.99791383,09:53:24.374910,0.00992,0.71682,0.71682,-0.00151,0.01322,-0.03500,0.00720,-0.02813,0.03068,-0.03453,0.99929,2.84880,0.26188,0.00017,-2.83948,0.28226,0.00012,2.79751,0.80278,-0.12973,0.00000,0.00000,A,095324.10
2.87054,57.67067100,11.99789933,57.67067000,11.99791383,09:53:24.386531,0.01005,0.71682,0.71682,-0.00176,0.01322,-0.02210,0.00951,-0.02392,0.03979,-0.03722,1.00941,2.86048,0.26188,0.00020,-2.83948,0.28547,0.00014,2.79751,0.80278,-0.12973,0.00000,0.00000,A,095324.10
2.88175,57.67067100,11.99789933,57.67067000,11.99791383,09:53:24.397745,0.00978,0.71682,0.71682,-0.00199,0.01322,-0.02422,0.01276,-0.01465,0.03430,-0.03954,1.00966,2.87173,0.26188,0.00023,-2.83948,0.28862,0.00016,2.79751,0.80278,-0.12973,0.00000,0.00000,A,095324.10
2.89285,57.67067100,11.99789933,57.67067000,11.99791383,09:53:24.408995,0.00960,0.71682,0.71682,-0.00212,0.01322,-0.01795,0.01367,-0.01718,0.03591,-0.03276,1.01221,2.88353,0.26188,0.00026,-2.83948,0.29141,0.00018,2.79751,0.80278,-0.12973,0.00000,0.00000,A,095324.10
2.90787,57.67067100,11.99789933,57.67067000,11.99791483,09:53:24.423854,0.01340,0.71682,0.71682,-0.00225,0.01322,-0.01604,0.01816,-0.00407,0.02158,-0.03701,1.00380,2.89423,0.26188,0.00030,-2.83948,0.29449,0.00020,2.89285,0.86225,-0.12973,0.00000,0.00000,A,095324.20
2.91917,57.67067100,11.99789933,57.67067000,11.99791483,09:53:24.435167,0.00987,0.71682,0.71682,-0.00235,0.01322,-0.01464,0.01616,-0.00560,0.02878,-0.03911,1.01021,2.90907,0.26188,0.00033,-2.83948,0.29736,0.00022,2.89285,0.86225,-0.12973,0.00000,0.00000,A,095324.20
2.93035,57.67067100,11.99789933,57.67067000,11.99791483,09:53:24.446342,0.00967,0.71682,0.71682,-0.00251,0.01322,-0.01571,0.02412,-0.00299,0.02998,-0.03681,1.00659,2.92074,0.26188,0.00037,-2.83948,0.30120,0.00025,2.89285,0.86225,-0.12973,0.00000,0.00000,A,095324.20
2.94223,57.67067100,11.99789933,57.67067000,11.99791483,09:53:24.458276,0.01040,0.71682,0.71682,-0.00260,0.01322,-0.01289,0.02443,-0.00206,0.02310,-0.04054,0.99245,2.93163,0.26188,0.00040,-2.83948,0.30432,0.00027,2.89285,0.86225,-0.12973,0.00000,0.00000,A,095324.20
2.95395,57.67067100,11.99789933,57.67067000,11.99791483,09:53:24.469943,0.01006,0.71682,0.71682,-0.00262,0.01322,-0.00833,0.02317,-0.00984,0.01530,-0.03039,0.97059,2.94420,0.26188,0.00043,-2.83948,0.30721,0.00029,2.89285,0.86225,-0.12973,0.00000,0.00000,A,095324.20
2.96609,57.67067100,11.99789933,57.67067000,11.99791483,09:53:24.482079,0.01050,0.71682,0.71682,-0.00263,0.01322,-0.00651,0.02592,-0.00965,0.02030,-0.02768,0.96439,2.95543,0.26188,0.00046,-2.83948,0.31049,0.00031,2.89285,0.86225,-0.12973,0.00000,0.00000,A,095324.20
2.97732,57.67067100,11.99789933,57.67067000,11.99791483,09:53:24.493314,0.00979,0.71682,0.71682,-0.00258,0.01322,-0.00116,0.03217,-0.01215,0.03492,-0.02505,0.96430,2.96723,0.26188,0.00050,-2.83948,0.31343,0.00033,2.89285,0.86225,-0.12973,0.00000,0.00000,A,095324.20
2.98856,57.67067100,11.99789933,57.67067000,11.99791483,09:53:24.504560,0.00975,0.71682,0.71682,-0.00252,0.01322,-0.00165,0.03218,-0.01051,0.03320,-0.02684,0.96043,2.97884,0.26188,0.00053,-2.83948,0.31640,0.00035,2.89285,0.86225,-0.12973,0.00000,0.00000,A,095324.20
3.00041,57.67067100,11.99789933,57.67067000,11.99791483,09:53:24.516409,0.01039,0.71682,0.71682,-0.00244,0.01322,0.00219,0.03739,-0.00642,0.04075,-0.01915,0.96039,2.98973,0.26188,0.00056,-2.83948,0.31956,0.00038,2.89285,0.86225,-0.12973,0.00000,0.00000,A,095324.20
3.01547,57.67067100,11.99789933,57.67066983,11.99791750,09:53:24.531459,0.01293,0.71682,0.71682,-0.00233,0.01322,0.00351,0.03601,-0.00718,0.04253,-0.01939,0.96261,3.00188,0.26188,0.00059,-2.83948,0.32244,0.00040,3.00041,1.02082,-0.14826,-0.11634,0.00000,A,095324.40
3.02692,57.67067100,11.99789933,57.67066983,11.99791750,09:53:24.542915,0.00982,0.71682,0.71682,-0.00224,0.01322,0.00014,0.03681,0.00089,0.04729,-0.02281,0.97544,3.01702,0.26188,0.00062,-2.83948,0.32549,0.00042,3.00041,1.02082,-0.14826,-0.11634,0.00000,A,095324.40
3.03856,57.67067100,11.99789933,57.67066983,11.99791750,09:53:24.554560,0.00946,0.71682,0.71682,-0.00215,0.01322,0.00166,0.03453,0.00383,0.05151,-0.02138,0.97935,3.02849,0.26188,0.00066,-2.83948,0.32944,0.00044,3.00041,1.02082,-0.14826,-0.11634,0.00000,A,095324.40
3.05049,57.67067100,11.99789933,57.67066983,11.99791750,09:53:24.566479,0.01048,0.71682,0.71682,-0.00206,0.01322,0.00203,0.03136,0.01004,0.04789,-0.02481,0.97718,3.03994,0.26188,0.00070,-2.83948,0.33258,0.00047,3.00041,1.02082,-0.14826,-0.11634,0.00000,A,095324.40
3.06172,57.67067100,11.99789933,57.67066983,11.99791750,09:53:24.577716,0.00973,0.71682,0.71682,-0.00196,0.01327,0.00412,0.02862,0.01336,0.05363,-0.02093,0.98560,3.05157,0.26188,0.00073,-2.83948,0.33559,0.00049,3.00041,1.02082,-0.14826,-0.11634,0.00000,A,095324.40
3.07437,57.67067100,11.99789933,57.67066983,11.99791750,09:53:24.590360,0.01113,0.71370,0.71370,-0.00187,0.01359,0.00290,0.02482,0.01601,0.05384,-0.02153,0.98814,3.06282,0.29261,0.00076,-2.83948,0.34595,0.00051,3.00041,1.02082,-0.14826,-0.11634,0.00000,A,095324.40
3.08609,57.67067100,11.99789933,57.67066983,11.99791750,09:53:24.602083,0.01004,0.71370,0.71370,-0.00178,0.01435,0.00302,0.03199,0.01491,0.04707,-0.02289,1.00850,3.07532,0.29261,0.00080,-2.83948,0.34940,0.00053,3.00041,1.02082,-0.14826,-0.11634,0.00000,A,095324.40
3.09725,57.67067100,11.99789933,57.67066983,11.99791750,09:53:24.613243,0.00965,0.71370,0.71370,-0.00172,0.01534,0.00067,0.02560,0.02082,0.04694,-0.02088,1.02162,3.08764,0.29261,0.00084,-2.83948,0.35277,0.00056,3.00041,1.02082,-0.14826,-0.11634,0.00000,A,095324.40
3.11153,57.67067100,11.99789933,57.67066983,11.99791750,09:53:24.627516,0.01279,0.71370,0.71370,-0.00165,0.01644,0.00167,0.02681,0.01740,0.03562,-0.02854,1.04100,3.09843,0.29261,0.00088,-2.83948,0.35631,0.00059,3.09725,1.02082,-0.14826,0.00000,0.00000,A,095324.40
3.12290,57.67067100,11.99789933,57.67066983,11.99791750,09:53:24.638891,0.00990,0.71370,0.71370,-0.00160,0.01777,-0.00017,0.02035,0.00784,0.02866,-0.03047,1.05865,3.11286,0.29261,0.00092,-2.83948,0.35952,0.00062,3.09725,1.02082,-0.14826,0.00000,0.00000,A,095324.40
3.13416,57.67067100,11.99789933,57.67066983,11.99791750,09:53:24.650149,0.00977,0.71370,0.71370,-0.00150,0.01874,0.00730,0.01664,-0.00252,0.01922,-0.02754,1.04493,3.12451,0.29261,0.00098,-2.83948,0.36364,0.00066,3.09725,1.02082,-0.14826,0.00000,0.00000,A,095324.40
3.14628,57.67067100,11.99789933,57.67066983,11.99791750,09:53:24.662279,0.01049,0.71370,0.71370,-0.00140,0.01953,0.00516,0.01020,-0.00672,0.01884,-0.03472,1.03522,3.13570,0.29261,0.00103,-2.83948,0.36714,0.00069,3.09725,1.02082,-0.14826,0.00000,0.00000,A,095324.40
3.15767,57.67067100,11.99789933,57.67066983,11.99791750,09:53:24.673665,0.00979,0.71370,0.71370,-0.00126,0.02018,0.00959,0.00774,-0.01190,0.02207,-0.03715,1.01306,3.14780,0.29261,0.00109,-2.83948,0.37047,0.00073,3.09725,1.02082,-0.14826,0.00000,0.00000,A,095324.40
3.16912,57.67067100,11.99789933,57.67066983,11.99791750,09:53:24.685115,0.01002,0.71370,0.71370,-0.00113,0.02072,0.00830,0.00362,-0.01003,0.02328,-0.04054,0.99142,3.15901,0.29261,0.00114,-2.83948,0.37384,0.00076,3.09725,1.02082,-0.14826,0.00000,0.00000,A,095324.40
3.18038,57.67067100,11.99789933,57.67066983,11.99791750,09:53:24.696372,0.00983,0.71370,0.71370,-0.00098,0.02117,0.01120,-0.00018,-0.00707,0.02297,-0.03770,0.98653,3.17028,0.29261,0.00120,-2.83948,0.37728,0.00080,3.09725,1.02082,-0.14826,0.00000,0.00000,A,095324.40
3.19159,57.67067100,11.99789933,57.67066983,11.99791750,09:53:24.707576,0.00972,0.71370,0.71370,-0.00083,0.02159,0.01090,-0.00305,-0.00033,0.01842,-0.04205,0.98223,3.18197,0.29261,0.00125,-2.83948,0.38046,0.00084,3.09725,1.02082,-0.14826,0.00000,0.00000,A,095324.40
3.20650,57.67067100,11.99789933,57.67066967,11.99791883,09:53:24.722490,0.01347,0.71370,0.71370,-0.00068,0.02191,0.01090,-0.00443,-0.00170,0.02603,-0.04215,0.97406,3.19285,0.29261,0.00131,-2.83948,0.38394,0.00088,3.19159,1.10011,-0.16679,-0.22962,0.00000,A,095324.50
3.21779,57.67067100,11.99789933,57.67066967,11.99791883,09:53:24.733781,0.00981,0.71370,0.71370,-0.00051,0.02210,0.01703,-0.00240,0.00943,0.04175,-0.04242,0.99419,3.20771,0.29261,0.00137,-2.83948,0.38712,0.00091,3.19159,1.10011,-0.16679,-0.22962,0.00000,A,095324.50
3.22928,57.67067100,11.99789933,57.67066967,11.99791883,09:53:24.745278,0.01000,0.71370,0.71370,-0.00019,0.02213,0.02567,-0.00298,0.01455,0.03530,-0.04512,0.97684,3.21935,0.29261,0.00144,-2.83948,0.39139,0.00096,3.19159,1.10011,-0.16679,-0.22962,0.00000,A,095324.50
3.24138,57.67067100,11.99789933,57.67066967,11.99791883,09:53:24.757368,0.01065,0.71370,0.71370,0.00006,0.02213,0.02157,-0.00801,0.01688,0.03583,-0.04073,0.97810,3.23069,0.29261,0.00150,-2.83948,0.39497,0.00100,3.19159,1.10011,-0.16679,-0.22962,0.00000,A,095324.50
3.25285,57.67067100,11.99789933,57.67066967,11.99791883,09:53:24.768850,0.00986,0.71370,0.71370,0.00027,0.02213,0.02084,-0.00957,0.01112,0.03386,-0.03784,0.99444,3.24348,0.29261,0.00156,-2.83948,0.39823,0.00104,3.19159,1.10011,-0.16679,-0.22962,0.00000,A,095324.50
3.26462,57.67067100,11.99789933,57.67066967,11.99791883,09:53:24.780617,0.01029,0.71370,0.71370,0.00053,0.02213,0.02518,-0.01631,0.00534,0.02178,-0.04074,1.01348,3.25363,0.29261,0.00163,-2.83948,0.40186,0.00108,3.19159,1.10011,-0.16679,-0.22962,0.00000,A,095324.50
3.27619,57.67067100,11.99789933,57.67066967,11.99791883,09:53:24.792187,0.00941,0.71370,0.71370,0.00078,0.02213,0.02575,-0.01634,-0.00105,0.01967,-0.03795,1.00985,3.26608,0.29261,0.00168,-2.83948,0.40505,0.00112,3.19159,1.10011,-0.16679,-0.22962,0.00000,A,095324.50
3.28755,57.67067100,11.99789933,57.67066967,11.99791883,09:53:24.803549,0.00985,0.71370,0.71370,0.00109,0.02213,0.02943,-0.01547,-0.00925,0.02437,-0.04088,1.00953,3.27777,0.29261,0.00174,-2.83948,0.40850,0.00116,3.19159,1.10011,-0.16679,-0.22962,0.00000,A,095324.50
3.29927,57.67067100,11.99789933,57.67066967,11.99791883,09:53:24.815258,0.01024,0.71370,0.71370,0.00136,0.02213,0.02618,-0.01653,-0.00900,0.02708,-0.02770,1.01051,3.28876,0.29261,0.00180,-2.83948,0.41193,0.00120,3.19159,1.10011,-0.16679,-0.22962,0.00000,A,095324.50
3.31376,57.67067100,11.99789933,57.67066967,11.99791883,09:53:24.829744,0.01290,0.71370,0.71370,0.00166,0.02213,0.03287,-0.01332,-0.00841,0.04077,-0.02609,1.01591,3.30071,0.29261,0.00186,-2.83948,0.41520,0.00124,3.29927,1.10011,-0.16679,0.00000,0.00000,A,095324.50
3.32542,57.67067100,11.99789933,57.67066967,11.99791883,09:53:24.841417,0.01018,0.71370,0.71370,0.00202,0.02213,0.03890,-0.00961,0.00086,0.03183,-0.02341,1.01459,3.31549,0.29261,0.00192,-2.83948,0.41860,0.00128,3.29927,1.10011,-0.16679,0.00000,0.00000,A,095324.50
3.33658,57.67067100,11.99789933,57.67066967,11.99791883,09:53:24.852691,0.00972,0.71370,0.71370,0.00247,0.02213,0.03616,-0.00440,0.00467,0.03247,-0.02250,1.01435,3.32669,0.29261,0.00200,-2.83948,0.42292,0.00133,3.29927,1.10011,-0.16679,0.00000,0.00000,A,095324.50
3.34869,57.67067100,11.99789933,57.67066967,11.99791883,09:53:24.864685,0.01051,0.71370,0.71370,0.00280,0.02213,0.03846,-0.00132,0.01014,0.02393,-0.02849,1.01231,3.33812,0.29261,0.00206,-2.83948,0.42626,0.00137,3.29927,1.10011,-0.16679,0.00000,0.00000,A,095324.50
3.36024,57.67067100,11.99789933,57.67066967,11.99791883,09:53:24.876233,0.01004,0.86341,0.86341,0.00317,0.02213,0.04327,-0.00621,0.00978,0.00673,-0.03076,0.99608,3.35010,0.33142,0.00212,-2.83948,0.43879,0.00141,3.29927,1.10011,-0.16679,0.00000,0.00000,A,095324.50
3.37191,57.67067100,11.99789933,57.67066967,11.99791883,09:53:24.887905,0.01023,0.86341,0.86341,0.00359,0.02213,0.04637,-0.00820,0.00953,-0.00054,-0.03750,0.97780,3.36150,0.33142,0.00219,-2.83948,0.44290,0.00146,3.29927,1.10011,-0.16679,0.00000,0.00000,A,095324.50
3.38338,57.67067100,11.99789933,57.67066967,11.99791883,09:53:24.899372,0.00996,0.86341,0.86341,0.00396,0.02213,0.04710,-0.01127,0.00716,0.00814,-0.03146,0.97697,3.37360,0.33142,0.00225,-2.83948,0.44655,0.00150,3.29927,1.10011,-0.16679,0.00000,0.00000,A,095324.50
3.39487,57.67067100,11.99789933,57.67066967,11.99791883,09:53:24.910865,0.01007,0.86341,0.86341,0.00437,0.02213,0.05041,-0.01739,0.00372,0.00341,-0.03267,0.97921,3.38478,0.33142,0.00232,-2.83948,0.45039,0.00155,3.29927,1.10011,-0.16679,0.00000,0.00000,A,095324.50
3.40941,57.67067100,11.99789933,57.67066950,11.99792117,09:53:24.925407,0.01225,0.86341,0.86341,0.00478,0.02216,0.05145,-0.02092,0.00002,0.01734,-0.02862,0.97106,3.39642,0.33142,0.00239,-2.83948,0.45417,0.00159,3.39487,1.23886,-0.18532,-0.13278,0.00000,A,095324.70
3.42055,57.67067100,11.99789933,57.67066950,11.99792117,09:53:24.936546,0.00962,0.86341,0.86341,0.00523,0.02236,0.05462,-0.02063,-0.00224,0.02295,-0.02279,0.97841,3.41112,0.33142,0.00246,-2.83948,0.45797,0.00163,3.39487,1.23886,-0.18532,-0.13278,0.00000,A,095324.70
3.43275,57.67067100,11.99789933,57.67066950,11.99792117,09:53:24.948745,0.01077,0.86341,0.86341,0.00581,0.02264,0.05328,-0.02243,0.00422,0.01226,-0.02053,0.99267,3.42175,0.33142,0.00254,-2.83948,0.46288,0.00169,3.39487,1.23886,-0.18532,-0.13278,0.00000,A,095324.70
3.44439,57.67067100,11.99789933,57.67066950,11.99792117,09:53:24.960378,0.01013,0.86341,0.86341,0.00628,0.02315,0.06483,-0.02350,0.00261,0.01197,-0.02672,0.99911,3.43420,0.33142,0.00261,-2.83948,0.46655,0.00174,3.39487,1.23886,-0.18532,-0.13278,0.00000,A,095324.70
3.45591,57.67067100,11.99789933,57.67066950,11.99792117,09:53:24.971879,0.00984,0.86341,0.86341,0.00682,0.02369,0.06436,-0.02686,0.00411,0.01308,-0.03166,1.01270,3.44594,0.33142,0.00269,-2.83948,0.47060,0.00179,3.39487,1.23886,-0.18532,-0.13278,0.00000,A,095324.70
3.46675,57.67067100,11.99789933,57.67066950,11.99792117,09:53:24.982745,0.00954,0.86341,0.86341,0.00731,0.02417,0.06357,-0.02656,0.00294,0.01293,-0.02746,1.01076,3.45602,0.33142,0.00276,-2.83948,0.47451,0.00183,3.39487,1.23886,-0.18532,-0.13278,0.00000,A,095324.70
3.47848,57.67067100,11.99789933,57.67066950,11.99792117,09:53:24.994477,0.01028,0.86341,0.86341,0.00772,0.02462,0.06876,-0.03007,0.00324,0.02108,-0.03645,1.00491,3.46808,0.33142,0.00283,-2.83948,0.47785,0.00188,3.39487,1.23886,-0.18532,-0.13278,0.00000,A,095324.70
3.48965,57.67067100,11.99789933,57.67066950,11.99792117,09:53:25.005648,0.00966,0.86341,0.86341,0.00826,0.02491,0.06891,-0.02350,0.00322,0.03060,-0.02067,0.98841,3.48017,0.33142,0.00291,-2.83948,0.48185,0.00193,3.39487,1.23886,-0.18532,-0.13278,0.00000,A,095324.70
3.50141,57.67067100,11.99789933,57.67066950,11.99792117,09:53:25.017401,0.01027,0.86341,0.86341,0.00872,0.02502,0.06346,-0.01554,0.00657,0.03408,-0.00474,0.97651,3.49083,0.33142,0.00298,-2.83948,0.48578,0.00198,3.39487,1.23886,-0.18532,-0.13278,0.00000,A,095324.70
3.51692,57.67067100,11.99789933,57.67066900,11.99792383,09:53:25.032907,0.01393,0.86341,0.86341,0.00910,0.02502,0.06400,-0.01417,0.00724,0.03862,-0.00415,0.98635,3.50310,0.33142,0.00306,-2.83948,0.48938,0.00203,3.50141,1.39744,-0.24092,-0.33722,0.00000,A,095324.90
3.52830,57.67067100,11.99789933,57.67066900,11.99792383,09:53:25.044294,0.00977,0.86341,0.86341,0.00950,0.02502,0.06027,-0.00515,0.00893,0.02018,-0.00364,1.00349,3.51835,0.33142,0.00313,-2.83948,0.49337,0.00208,3.50141,1.39744,-0.24092,-0.33722,0.00000,A,095324.90
3.53978,57.67067100,11.99789933,57.67066900,11.99792383,09:53:25.055779,0.00991,0.86341,0.86341,0.01004,0.02502,0.05637,-0.00442,0.00126,0.00986,-0.00132,1.00465,3.52978,0.33142,0.00323,-2.83948,0.49843,0.00215,3.50141,1.39744,-0.24092,-0.33722,0.00000,A,095324.90
3.55153,57.67067100,11.99789933,57.67066900,11.99792383,09:53:25.067527,0.01030,0.86341,0.86341,0.01042,0.02502,0.06427,-0.00654,0.00615,0.01608,0.00105,1.00116,3.54110,0.33142,0.00331,-2.83948,0.50236,0.00220,3.50141,1.39744,-0.24092,-0.33722,0.00000,A,095324.90
3.56296,57.67067100,11.99789933,57.67066900,11.99792383,09:53:25.078957,0.00993,0.86341,0.86341,0.01075,0.02502,0.06278,-0.01099,0.00032,0.00864,0.00141,0.98762,3.55336,0.33142,0.00339,-2.83948,0.50603,0.00225,3.50141,1.39744,-0.24092,-0.33722,0.00000,A,095324.90
3.57489,57.67067100,11.99789933,57.67066900,11.99792383,09:53:25.090885,0.01046,0.86341,0.86341,0.01112,0.02502,0.06079,-0.00809,0.00024,0.00879,0.00937,0.98139,3.56443,0.33142,0.00347,-2.83948,0.51009,0.00230,3.50141,1.39744,-0.24092,-0.33722,0.00000,A,095324.90
3.58648,57.67067100,11.99789933,57.67066900,11.99792383,09:53:25.102472,0.00993,0.86341,0.86341,0.01134,0.02502,0.05310,-0.01176,0.00031,0.01777,0.01255,0.98227,3.57650,0.33142,0.00354,-2.83948,0.51381,0.00235,3.50141,1.39744,-0.24092,-0.33722,0.00000,A,095324.90
3.59791,57.67067100,11.99789933,57.67066900,11.99792383,09:53:25.113913,0.01000,0.86341,0.86341,0.01154,0.02502,0.05170,-0.01175,0.00046,0.00366,0.01311,0.99854,3.58787,0.33142,0.00362,-2.83948,0.51763,0.00240,3.50141,1.39744,-0.24092,-0.33722,0.00000,A,095324.90
3.61156,57.67067100,11.99789933,57.67066900,11.99792383,09:53:25.127548,0.01216,0.86341,0.86341,0.01172,0.02502,0.04864,-0.01602,0.00306,0.00541,0.00884,0.97267,3.59909,0.33142,0.00370,-2.83948,0.52154,0.00245,3.59791,1.39744,-0.24092,0.00000,0.00000,A,095324.90
3.62300,57.67067100,11.99789933,57.67066900,11.99792383,09:53:25.139000,0.00997,0.86341,0.86341,0.01187,0.02502,0.05158,-0.01602,0.00293,0.01345,0.00929,0.97817,3.61318,0.33142,0.00377,-2.83948,0.52516,0.00250,3.59791,1.39744,-0.24092,0.00000,0.00000,A,095324.90
3.63452,57.67067100,11.99789933,57.67066900,11.99792383,09:53:25.150518,0.01009,0.87600,0.87600,0.01217,0.02502,0.05148,-0.01572,0.00107,0.01484,0.01367,0.98709,3.62446,0.36845,0.00386,-2.83948,0.53850,0.00256,3.59791,1.39744,-0.24092,0.00000,0.00000,A,095324.90
3.64645,57.67067100,11.99789933,57.67066900,11.99792383,09:53:25.162448,0.00963,0.87600,0.87600,0.01227,0.02502,0.04199,-0.01615,0.00753,0.01973,0.01965,0.98884,3.63603,0.36845,0.00395,-2.83948,0.54280,0.00262,3.59791,1.39744,-0.24092,0.00000,0.00000,A,095324.90
3.65792,57.67067100,11.99789933,57.67066900,11.99792383,09:53:25.173911,0.00997,0.87600,0.87600,0.01235,0.02502,0.04538,-0.01690,0.01022,0.02859,0.01365,0.99631,3.64808,0.36845,0.00403,-2.83948,0.54701,0.00268,3.59791,1.39744,-0.24092,0.00000,0.00000,A,095324.90
3.66947,57.67067100,11.99789933,57.67066900,11.99792383,09:53:25.185589,0.01010,0.87600,0.87600,0.01250,0.02502,0.04814,-0.01230,0.01436,0.03158,0.01832,0.97680,3.65916,0.36845,0.00412,-2.83948,0.55151,0.00273,3.59791,1.39744,-0.24092,0.00000,0.00000,A,095324.90
3.68145,57.67067100,11.99789933,57.67066900,11.99792383,09:53:25.197443,0.01038,0.87600,0.87600,0.01256,0.02502,0.04371,-0.01109,0.01139,0.03734,0.02583,0.96704,3.67100,0.36845,0.00420,-2.83948,0.55559,0.00279,3.59791,1.39744,-0.24092,0.00000,0.00000,A,095324.90
3.69278,57.67067100,11.99789933,57.67066900,11.99792383,09:53:25.208775,0.00987,0.87600,0.87600,0.01261,0.02502,0.03965,-0.00848,0.01461,0.03345,0.02754,0.96616,3.68320,0.36845,0.00429,-2.83948,0.55992,0.00285,3.59791,1.39744,-0.24092,0.00000,0.00000,A,095324.90
3.70752,57.67067100,11.99789933,57.67066900,11.99792517,09:53:25.223512,0.01330,0.87600,0.87600,0.01261,0.02502,0.03396,-0.00360,0.01333,0.02788,0.02285,0.98188,3.69408,0.36845,0.00438,-2.83948,0.56443,0.00291,3.69278,1.47672,-0.24092,0.00000,0.00000,A,095325.00
3.71898,57.67067100,11.99789933,57.67066900,11.99792517,09:53:25.234982,0.00996,0.87600,0.87600,0.01248,0.02502,0.02716,-0.00880,0.01090,0.02699,0.02334,0.98160,3.70884,0.36845,0.00446,-2.83948,0.56839,0.00296,3.69278,1.47672,-0.24092,0.00000,0.00000,A,095325.00
3.73051,57.67067100,11.99789933,57.67066900,11.99792517,09:53:25.246505,0.00995,0.87600,0.87600,0.01246,0.02502,0.02670,-0.00592,0.00684,0.02915,0.02886,1.01312,3.72048,0.36845,0.00457,-2.83948,0.57387,0.00303,3.69278,1.47672,-0.24092,0.00000,0.00000,A,095325.00
3.74205,57.67067100,11.99789933,57.67066900,11.99792517,09:53:25.258054,0.00995,0.87600,0.87600,0.01234,0.02502,0.02393,-0.00609,0.00407,0.02931,0.02513,1.03845,3.73187,0.36845,0.00465,-2.83948,0.57829,0.00309,3.69278,1.47672,-0.24092,0.00000,0.00000,A,095325.00
3.75323,57.67067100,11.99789933,57.67066900,11.99792517,09:53:25.269229,0.00976,0.87600,0.87600,0.01216,0.02502,0.02116,-0.00870,0.00008,0.03258,0.01419,1.03291,3.74350,0.36845,0.00474,-2.83948,0.58239,0.00314,3.69278,1.47672,-0.24092,0.00000,0.00000,A,095325.00
3.76474,57.67067100,11.99789933,57.67066900,11.99792517,09:53:25.280740,0.00933,0.87600,0.87600,0.01197,0.02502,0.01671,-0.00095,-0.00691,0.04051,0.01850,1.02893,3.75495,0.36845,0.00482,-2.83948,0.58666,0.00320,3.69278,1.47672,-0.24092,0.00000,0.00000,A,095325.00
3.77654,57.67067100,11.99789933,57.67066900,11.99792517,09:53:25.292537,0.01000,0.87600,0.87600,0.01172,0.02502,0.01224,0.00348,-0.00682,0.02350,0.00857,1.01872,3.76602,0.36845,0.00490,-2.83948,0.59071,0.00325,3.69278,1.47672,-0.24092,0.00000,0.00000,A,095325.00
3.78809,57.67067100,11.99789933,57.67066900,11.99792517,09:53:25.304091,0.01007,0.87600,0.87600,0.01147,0.02502,0.01128,0.00577,-0.00786,0.02352,0.01243,1.00919,3.77778,0.36845,0.00499,-2.83948,0.59515,0.00331,3.69278,1.47672,-0.24092,0.00000,0.00000,A,095325.00
3.79975,57.67067100,11.99789933,57.67066900,11.99792517,09:53:25.315750,0.01016,0.87600,0.87600,0.01122,0.02502,0.01070,0.00683,-0.00946,0.00114,0.00901,0.99484,3.78969,0.36845,0.00507,-2.83948,0.59926,0.00337,3.69278,1.47672,-0.24092,0.00000,0.00000,A,095325.00
3.81457,57.67067100,11.99789933,57.67066850,11.99792800,09:53:25.330563,0.01338,0.87600,0.87600,0.01096,0.02502,0.00925,0.01111,-0.00888,-0.00266,0.00295,1.00463,3.80114,0.36845,0.00516,-2.83948,0.60362,0.00342,3.79975,1.64521,-0.29652,-0.31873,0.00000,A,095325.20
3.82600,57.67067100,11.99789933,57.67066850,11.99792800,09:53:25.341997,0.00993,0.87600,0.87600,0.01078,0.02502,0.01792,0.00549,-0.00265,-0.00090,0.00265,1.00483,3.81585,0.36845,0.00525,-2.83948,0.60785,0.00348,3.79975,1.64521,-0.29652,-0.31873,0.00000,A,095325.20
3.83704,57.67067100,11.99789933,57.67066850,11.99792800,09:53:25.353033,0.00953,0.87600,0.87600,0.01067,0.02502,0.01667,-0.00090,0.00308,-0.00023,-0.00275,0.99830,3.82759,0.36845,0.00535,-2.83948,0.61323,0.00355,3.79975,1.64521,-0.29652,-0.31873,0.00000,A,095325.20
3.84897,57.67067100,11.99789933,57.67066850,11.99792800,09:53:25.364969,0.01046,0.87600,0.87600,0.01055,0.02502,0.02181,-0.00517,0.00521,0.01165,0.00302,0.98058,3.83843,0.36845,0.00544,-2.83948,0.61754,0.00361,3.79975,1.64521,-0.29652,-0.31873,0.00000,A,095325.20
3.86068,57.67067100,11.99789933,57.67066850,11.99792800,09:53:25.376672,0.01020,0.87600,0.87600,0.01041,0.02502,0.01944,-0.00437,0.01263,0.01679,0.00671,0.97359,3.85058,0.36845,0.00552,-2.83948,0.62171,0.00366,3.79975,1.64521,-0.29652,-0.31873,0.00000,A,095325.20
3.87203,57.67067100,11.99789933,57.67066850,11.99792800,09:53:25.388019,0.00992,0.87600,0.87600,0.01025,0.02502,0.01540,-0.00344,0.01432,0.01439,0.00777,0.96601,3.86200,0.36845,0.00561,-2.83948,0.62606,0.00372,3.79975,1.64521,-0.29652,-0.31873,0.00000,A,095325.20
3.88322,57.67067100,11.99789933,57.67066850,11.99792800,09:53:25.399215,0.00970,0.87600,0.87600,0.01007,0.02502,0.01393,0.00114,0.01505,0.01555,0.02715,0.98778,3.87340,0.36845,0.00569,-2.83948,0.63029,0.00378,3.79975,1.64521,-0.29652,-0.31873,0.00000,A,095325.20
3.89487,57.67067100,11.99789933,57.67066850,11.99792800,09:53:25.410864,0.01007,0.87600,0.87600,0.00990,0.02502,0.01568,-0.00097,0.02141,0.02870,0.03346,1.00673,3.88474,0.36845,0.00578,-2.83948,0.63439,0.00383,3.79975,1.64521,-0.29652,-0.31873,0.00000,A,095325.20
3.90870,57.67067100,11.99789933,57.67066850,11.99792800,09:53:25.424696,0.01232,0.88981,0.88981,0.00972,0.02502,0.01306,-0.00008,0.01465,0.03071,0.03215,1.01230,3.89611,0.40390,0.00586,-2.83948,0.64705,0.00389,3.89487,1.64521,-0.29652,0.00000,0.00000,A,095325.20
3.92036,57.67067100,11.99789933,57.67066850,11.99792800,09:53:25.436357,0.00948,0.88981,0.88981,0.00950,0.02502,0.00765,0.00692,0.00940,0.01526,0.02947,1.00179,3.91044,0.40390,0.00595,-2.83948,0.65155,0.00395,3.89487,1.64521,-0.29652,0.00000,0.00000,A,095325.20
3.93185,57.67067100,11.99789933,57.67066850,11.99792800,09:53:25.447849,0.01002,0.88981,0.88981,0.00929,0.02502,0.00715,0.00447,0.00844,0.01790,0.02471,0.99966,3.92181,0.40390,0.00606,-2.83948,0.65729,0.00402,3.89487,1.64521,-0.29652,0.00000,0.00000,A,095325.20
3.94376,57.67067100,11.99789933,57.67066850,11.99792800,09:53:25.459731,0.01040,0.88981,0.88981,0.00907,0.02502,0.00682,0.00704,0.00178,0.01226,0.00872,0.98658,3.93333,0.40390,0.00616,-2.83948,0.66205,0.00409,3.89487,1.64521,-0.29652,0.00000,0.00000,A,095325.20
3.95522,57.67067100,11.99789933,57.67066850,11.99792800,09:53:25.471276,0.00996,0.88981,0.88981,0.00884,0.02502,0.00556,0.00334,-0.00480,-0.00102,0.02782,0.97351,3.94536,0.40390,0.00625,-2.83948,0.66653,0.00414,3.89487,1.64521,-0.29652,0.00000,0.00000,A,095325.20
3.96702,57.67067100,11.99789933,57.67066850,11.99792800,09:53:25.483016,0.01026,0.88981,0.88981,0.00861,0.02502,0.00369,-0.00400,-0.00590,0.00467,0.01144,0.96674,3.95650,0.40390,0.00635,-2.83948,0.67161,0.00421,3.89487,1.64521,-0.29652,0.00000,0.00000,A,095325.20
3.97841,57.67067100,11.99789933,57.67066850,11.99792800,09:53:25.494401,0.00924,0.88981,0.88981,0.00835,0.02502,0.00125,-0.00246,-0.00464,0.00519,0.00534,0.95559,3.96851,0.40390,0.00644,-2.83948,0.67599,0.00427,3.89487,1.64521,-0.29652,0.00000,0.00000,A,095325.20
3.98986,57.67067100,11.99789933,57.67066850,11.99792800,09:53:25.505859,0.00993,0.88981,0.88981,0.00808,0.02502,-0.00020,-0.00243,0.00272,0.02068,0.01029,0.96953,3.97980,0.40390,0.00653,-2.83948,0.68075,0.00433,3.89487,1.64521,-0.29652,0.00000,0.00000,A,095325.20
4.00434,57.67067100,11.99789933,57.67066833,11.99792950,09:53:25.520324,0.01303,0.88981,0.88981,0.00777,0.02502,-0.00296,-0.00590,0.01088,0.02436,0.00776,0.98868,3.99103,0.40390,0.00663,-2.83948,0.68547,0.00439,3.98986,1.73441,-0.31505,-0.20485,0.00000,A,095325.30
4.01593,57.67067100,11.99789933,57.67066833,11.99792950,09:53:25.531920,0.00936,0.88981,0.88981,0.00747,0.02502,-0.00374,0.00481,0.01505,0.03244,0.01352,1.00847,4.00605,0.40390,0.00671,-2.83948,0.68992,0.00445,3.98986,1.73441,-0.31505,-0.20485,0.00000,A,095325.30
4.02734,57.67067100,11.99789933,57.67066833,11.99792950,09:53:25.543335,0.00999,0.88981,0.88981,0.00712,0.02502,-0.00837,0.00453,0.02206,0.03253,0.01365,1.02296,4.01728,0.40390,0.00683,-2.83948,0.69585,0.00453,3.98986,1.73441,-0.31505,-0.20485,0.00000,A,095325.30
4.03869,57.67067100,11.99789933,57.67066833,11.99792950,09:53:25.554688,0.00990,0.88981,0.88981,0.00681,0.02502,-0.00592,0.00435,0.01527,0.02147,0.00596,1.02255,4.02852,0.40390,0.00693,-2.83948,0.70056,0.00459,3.98986,1.73441,-0.31505,-0.20485,0.00000,A,095325.30
4.05029,57.67067100,11.99789933,57.67066833,11.99792950,09:53:25.566279,0.01010,0.88981,0.88981,0.00652,0.02502,-0.00589,0.00982,0.00956,0.00682,0.00576,1.01857,4.04039,0.40390,0.00701,-2.83948,0.70501,0.00465,3.98986,1.73441,-0.31505,-0.20485,0.00000,A,095325.30
4.06187,57.67067100,11.99789933,57.67066833,11.99792950,09:53:25.577861,0.01012,0.88981,0.88981,0.00624,0.02502,-0.00496,0.00845,0.00951,0.01179,0.00503,1.01803,4.05173,0.40390,0.00711,-2.83948,0.71000,0.00472,3.98986,1.73441,-0.31505,-0.20485,0.00000,A,095325.30
4.07369,57.67067100,11.99789933,57.67066833,11.99792950,09:53:25.589679,0.01032,0.88981,0.88981,0.00600,0.02502,-0.00418,0.00932,0.00115,0.01224,0.00388,1.00692,4.06351,0.40390,0.00720,-2.83948,0.71441,0.00478,3.98986,1.73441,-0.31505,-0.20485,0.00000,A,095325.30
4.08500,57.67067100,11.99789933,57.67066833,11.99792950,09:53:25.600993,0.00989,0.88981,0.88981,0.00570,0.02502,-0.00986,0.00717,-0.00164,0.01075,0.01106,0.99124,4.07504,0.40390,0.00730,-2.83948,0.71922,0.00484,3.98986,1.73441,-0.31505,-0.20485,0.00000,A,095325.30
4.09665,57.67067100,11.99789933,57.67066833,11.99792950,09:53:25.612641,0.01000,0.88981,0.88981,0.00543,0.02502,-0.00653,0.00349,-0.00524,0.00649,0.01208,0.98597,4.08641,0.40390,0.00739,-2.83948,0.72382,0.00490,3.98986,1.73441,-0.31505,-0.20485,0.00000,A,095325.30
4.11112,57.67067100,11.99789933,57.67066817,11.99793083,09:53:25.627117,0.01297,0.88981,0.88981,0.00517,0.02502,-0.00653,0.00198,-0.00247,0.00201,0.00499,0.98434,4.09825,0.40390,0.00748,-2.83948,0.72844,0.00496,4.09665,1.81369,-0.33358,-0.22962,0.00000,A,095325.40
4.12240,57.67067100,11.99789933,57.67066817,11.99793083,09:53:25.638395,0.00978,0.88981,0.88981,0.00493,0.02502,-0.00795,-0.00657,-0.00212,0.00130,0.00061,0.98747,4.11257,0.40390,0.00757,-2.83948,0.73313,0.00502,4.09665,1.81369,-0.33358,-0.22962,0.00000,A,095325.40
4.13383,57.67067100,11.99789933,57.67066817,11.99793083,09:53:25.649820,0.00999,0.88981,0.88981,0.00468,0.02502,-0.00541,-0.01145,-0.00012,0.02492,-0.00256,0.98597,4.12366,0.40390,0.00769,-2.83948,0.73913,0.00510,4.09665,1.81369,-0.33358,-0.22962,0.00000,A,095325.40
4.14555,57.67067100,11.99789933,57.67066817,11.99793083,09:53:25.661617,0.00926,0.88981,0.88981,0.00446,0.02502,-0.00493,-0.01356,0.00655,0.03365,-0.00467,0.99291,4.13577,0.40390,0.00778,-2.83948,0.74346,0.00516,4.09665,1.81369,-0.33358,-0.22962,0.00000,A,095325.40
4.15707,57.67067100,11.99789933,57.67066817,11.99793083,09:53:25.673073,0.00989,0.88981,0.88981,0.00420,0.02502,-0.00931,-0.01587,0.00315,0.03459,-0.01240,0.99655,4.14689,0.40390,0.00788,-2.83948,0.74837,0.00523,4.09665,1.81369,-0.33358,-0.22962,0.00000,A,095325.40
4.16820,57.67067100,11.99789933,57.67066817,11.99793083,09:53:25.684201,0.00962,0.88981,0.88981,0.00397,0.02502,-0.00716,-0.01328,0.00184,0.03065,-0.00714,0.98688,4.15877,0.40390,0.00796,-2.83948,0.75280,0.00528,4.09665,1.81369,-0.33358,-0.22962,0.00000,A,095325.40
4.17994,57.67067100,11.99789933,57.67066817,11.99793083,09:53:25.695933,0.01028,0.88177,0.88177,0.00374,0.02502,-0.00735,-0.00974,0.00626,0.03467,-0.00843,0.98384,4.16937,0.43640,0.00806,-2.83948,0.76523,0.00535,4.09665,1.81369,-0.33358,-0.22962,0.00000,A,095325.40
4.19118,57.67067100,11.99789933,57.67066817,11.99793083,09:53:25.707172,0.00966,0.88177,0.88177,0.00354,0.02502,-0.00589,-0.00469,0.00824,0.03609,-0.01055,0.98812,4.18130,0.43640,0.00815,-2.83948,0.77001,0.00541,4.09665,1.81369,-0.33358,-0.22962,0.00000,A,095325.40
4.20553,57.67067100,11.99789933,57.67066800,11.99793233,09:53:25.721519,0.01277,0.88177,0.88177,0.00336,0.02502,-0.00413,-0.00517,0.00352,0.03909,-0.00368,0.99585,4.19276,0.43640,0.00826,-2.83948,0.77508,0.00548,4.19118,1.90289,-0.35212,-0.20485,0.00000,A,095325.50
4.21729,57.67067100,11.99789933,57.67066800,11.99793233,09:53:25.733285,0.01032,0.88177,0.88177,0.00327,0.02502,0.00370,0.00337,0.00083,0.02569,0.00102,1.00801,4.20682,0.43640,0.00836,-2.83948,0.78028,0.00555,4.19118,1.90289,-0.35212,-0.20485,0.00000,A,095325.50
4.22878,57.67067100,11.99789933,57.67066800,11.99793233,09:53:25.744773,0.00991,0.88177,0.88177,0.00318,0.02502,0.00092,0.00508,0.00773,0.01971,-0.00192,1.02024,4.21822,0.43640,0.00848,-2.83948,0.78627,0.00563,4.19118,1.90289,-0.35212,-0.20485,0.00000,A,095325.50
4.24066,57.67067100,11.99789933,57.67066800,11.99793233,09:53:25.756652,0.01037,0.88177,0.88177,0.00312,0.02502,0.00520,0.00276,0.00254,0.01862,-0.00278,1.00484,4.22983,0.43640,0.00858,-2.83948,0.79147,0.00569,4.19118,1.90289,-0.35212,-0.20485,0.00000,A,095325.50
4.25216,57.67067100,11.99789933,57.67066800,11.99793233,09:53:25.768156,0.01002,0.88177,0.88177,0.00309,0.02502,0.00810,-0.00624,0.00414,0.02745,-0.00422,0.98472,4.24145,0.43640,0.00869,-2.83948,0.79687,0.00577,4.19118,1.90289,-0.35212,-0.20485,0.00000,A,095325.50
4.26360,57.67067100,11.99789933,57.67066800,11.99793233,09:53:25.779596,0.01000,0.88177,0.88177,0.00308,0.02502,0.00766,-0.00076,-0.00024,0.03531,0.00193,0.95575,4.25361,0.43640,0.00879,-2.83948,0.80169,0.00583,4.19118,1.90289,-0.35212,-0.20485,0.00000,A,095325.50
4.27491,57.67067100,11.99789933,57.67066800,11.99793233,09:53:25.790896,0.00986,0.88177,0.88177,0.00304,0.02502,0.00675,-0.00900,0.00108,0.02934,0.00800,0.94983,4.26437,0.43640,0.00889,-2.83948,0.80677,0.00590,4.19118,1.90289,-0.35212,-0.20485,0.00000,A,095325.50
4.28642,57.67067100,11.99789933,57.67066800,11.99793233,09:53:25.802407,0.00997,0.88177,0.88177,0.00297,0.02502,0.00286,-0.00335,0.00153,0.03263,0.00454,0.95230,4.27604,0.43640,0.00898,-2.83948,0.81150,0.00596,4.19118,1.90289,-0.35212,-0.20485,0.00000,A,095325.50
4.29814,57.67067100,11.99789933,57.67066800,11.99793233,09:53:25.814138,0.01025,0.88177,0.88177,0.00286,0.02502,-0.00227,-0.01222,-0.00069,0.02175,0.00616,0.96059,4.28763,0.43640,0.00908,-2.83948,0.81651,0.00602,4.19118,1.90289,-0.35212,-0.20485,0.00000,A,095325.50
4.31251,57.67067100,11.99789933,57.67066783,11.99793383,09:53:25.828503,0.01225,0.88177,0.88177,0.00277,0.02502,0.00237,-0.02473,0.00189,0.02101,0.00535,0.98248,4.29958,0.43640,0.00918,-2.83948,0.82155,0.00609,4.29814,1.99209,-0.37065,-0.20485,0.00000,A,095325.60
4.32364,57.67067100,11.99789933,57.67066783,11.99793383,09:53:25.839630,0.00963,0.88177,0.88177,0.00271,0.02502,0.00215,-0.03269,-0.00163,0.02935,0.00422,1.00270,4.31412,0.43640,0.00928,-2.83948,0.82670,0.00616,4.29814,1.99209,-0.37065,-0.20485,0.00000,A,095325.60
4.33548,57.67067100,11.99789933,57.67066783,11.99793383,09:53:25.851474,0.01035,0.88177,0.88177,0.00268,0.02502,0.00416,-0.04444,-0.00028,0.03305,0.00770,1.00144,4.32496,0.43640,0.00941,-2.83948,0.83311,0.00624,4.29814,1.99209,-0.37065,-0.20485,0.00000,A,095325.60
4.34759,57.67067100,11.99789933,57.67066783,11.99793383,09:53:25.863586,0.01048,0.88177,0.88177,0.00263,0.02502,0.00520,-0.05481,0.00281,0.04660,0.00740,0.99069,4.33694,0.43640,0.00950,-2.83948,0.83789,0.00631,4.29814,1.99209,-0.37065,-0.20485,0.00000,A,095325.60
4.35829,57.67067100,11.99789933,57.67066783,11.99793383,09:53:25.874280,0.00927,0.88177,0.88177,0.00257,0.02502,0.00353,-0.05572,0.00401,0.07608,0.01877,0.98284,4.34869,0.43640,0.00961,-2.83948,0.84312,0.00638,4.29814,1.99209,-0.37065,-0.20485,0.00000,A,095325.60
4.36949,57.67067100,11.99789933,57.67066783,11.99793383,09:53:25.885490,0.00972,0.88177,0.88177,0.00253,0.02502,0.00576,-0.04913,0.00869,0.08751,0.01738,0.98494,4.35983,0.43640,0.00971,-2.83948,0.84817,0.00644,4.29814,1.99209,-0.37065,-0.20485,0.00000,A,095325.60
4.38124,57.67067100,11.99789933,57.67066783,11.99793383,09:53:25.897353,0.01027,0.88177,0.88177,0.00247,0.02502,0.00306,-0.03892,0.00403,0.09864,0.01519,0.98693,4.37079,0.43640,0.00981,-2.83948,0.85308,0.00651,4.29814,1.99209,-0.37065,-0.20485,0.00000,A,095325.60
4.39254,57.67067100,11.99789933,57.67066783,11.99793383,09:53:25.908526,0.00970,0.88177,0.88177,0.00237,0.02502,-0.00078,-0.02882,0.00801,0.10432,0.01726,0.99867,4.38224,0.43640,0.00990,-2.83948,0.85784,0.00657,4.29814,1.99209,-0.37065,-0.20485,0.00000,A,095325.60
4.40700,57.67067100,11.99789933,57.67066767,11.99793533,09:53:25.922994,0.01280,0.88177,0.88177,0.00225,0.02502,-0.00270,-0.01172,0.00863,0.08780,0.02058,1.01779,4.39420,0.43640,0.01000,-2.83948,0.86295,0.00664,4.39254,2.08129,-0.38918,-0.20485,0.00000,A,095325.70
4.41907,57.67067100,11.99789933,57.67066767,11.99793533,09:53:25.935070,0.01064,0.88177,0.88177,0.00209,0.02502,-0.00962,0.00245,0.00179,0.06972,0.02401,1.02029,4.40839,0.43640,0.01010,-2.83948,0.86818,0.00671,4.39254,2.08129,-0.38918,-0.20485,0.00000,A,095325.70
4.43059,57.67067100,11.99789933,57.67066767,11.99793533,09:53:25.946593,0.01003,0.88177,0.88177,0.00184,0.02502,-0.01479,0.00516,-0.00695,0.04318,0.01433,1.02484,4.42032,0.43640,0.01022,-2.83948,0.87428,0.00679,4.39254,2.08129,-0.38918,-0.20485,0.00000,A,095325.70
4.44231,57.67067100,11.99789933,57.67066767,11.99793533,09:53:25.958304,0.01021,0.95918,0.95918,0.00160,0.02499,-0.01605,0.00682,-0.01217,0.02963,-0.00042,1.02694,4.43227,0.47195,0.01033,-2.83948,0.88783,0.00686,4.39254,2.08129,-0.38918,-0.20485,0.00000,A,095325.70
4.45382,57.67067100,11.99789933,57.67066767,11.99793533,09:53:25.969811,0.01004,0.95918,0.95918,0.00137,0.02482,-0.01489,-0.00008,-0.01830,0.01436,-0.01353,1.00239,4.44382,0.47195,0.01044,-2.83948,0.89355,0.00693,4.39254,2.08129,-0.38918,-0.20485,0.00000,A,095325.70
4.46521,57.67067100,11.99789933,57.67066767,11.99793533,09:53:25.981263,0.00992,0.95918,0.95918,0.00122,0.02448,-0.01016,-0.00881,-0.02203,0.00671,-0.01590,0.97704,4.45527,0.47195,0.01054,-2.83948,0.89883,0.00700,4.39254,2.08129,-0.38918,-0.20485,0.00000,A,095325.70
4.47657,57.67067100,11.99789933,57.67066767,11.99793533,09:53:25.992566,0.00986,0.95918,0.95918,0.00115,0.02409,-0.00175,-0.01262,-0.02030,0.01406,-0.00845,0.96630,4.46647,0.47195,0.01065,-2.83948,0.90436,0.00707,4.39254,2.08129,-0.38918,-0.20485,0.00000,A,095325.70
4.48771,57.67067100,11.99789933,57.67066767,11.99793533,09:53:26.003703,0.00964,0.95918,0.95918,0.00111,0.02377,-0.00121,-0.01475,-0.01962,0.02076,-0.00181,0.95247,4.47809,0.47195,0.01075,-2.83948,0.90948,0.00714,4.39254,2.08129,-0.38918,-0.20485,0.00000,A,095325.70
4.50068,57.67067100,11.99789933,57.67066767,11.99793533,09:53:26.016673,0.01151,2.60000,0.95918,0.00107,0.02363,-0.00057,-0.01638,-0.00893,0.03689,-0.00814,0.95536,4.48951,0.61665,0.01086,-2.83948,0.94915,0.00721,4.39254,2.08129,-0.38918,-0.20485,0.00000,A,095325.70
4.51719,57.67067100,11.99789933,57.67066733,11.99793817,09:53:26.033179,0.01418,2.60000,0.95918,0.00102,0.02363,-0.00090,-0.00871,-0.00194,0.03985,-0.00377,0.97599,4.50353,0.61665,0.01100,-2.83948,0.95662,0.00730,4.50068,2.24977,-0.42625,-0.21654,0.00000,A,095325.90
4.53002,57.67067100,11.99789933,57.67066733,11.99793817,09:53:26.046016,0.01134,2.60000,0.95918,0.00091,0.02363,-0.00633,-0.00009,0.01217,0.04634,-0.00139,1.01483,4.51962,0.61665,0.01115,-2.83948,0.96469,0.00740,4.50068,2.24977,-0.42625,-0.21654,0.00000,A,095325.90
4.54291,57.67067100,11.99789933,57.67066733,11.99793817,09:53:26.058910,0.01142,2.60000,0.95918,0.00078,0.02363,-0.00246,0.00817,0.01594,0.05042,-0.00411,1.03427,4.53211,0.61665,0.01134,-2.83948,0.97490,0.00753,4.50068,2.24977,-0.42625,-0.21654,0.00000,A,095325.90
4.55572,57.67067100,11.99789933,57.67066733,11.99793817,09:53:26.071714,0.01136,2.60000,0.95918,0.00075,0.02363,0.00401,0.01033,0.02127,0.02430,-0.00428,1.02310,4.54486,0.61665,0.01149,-2.83948,0.98309,0.00763,4.50068,2.24977,-0.42625,-0.21654,0.00000,A,095325.90
4.56869,57.67067100,11.99789933,57.67066733,11.99793817,09:53:26.084671,0.01147,2.60000,0.95918,0.00080,0.02363,0.00943,0.00954,0.01543,-0.00437,-0.01174,1.00678,4.55816,0.61665,0.01164,-2.83948,0.99063,0.00773,4.50068,2.24977,-0.42625,-0.21654,0.00000,A,095325.90
4.58161,57.67067100,11.99789933,57.67066733,11.99793817,09:53:26.097612,0.01134,2.60000,0.95918,0.00088,0.02363,0.01087,0.00463,0.01085,-0.01480,-0.01729,1.02036,4.57159,0.61665,0.01179,-2.83948,0.99871,0.00783,4.50068,2.24977,-0.42625,-0.21654,0.00000,A,095325.90
4.59435,57.67067100,11.99789933,57.67066733,11.99793817,09:53:26.110343,0.01129,2.60000,0.95918,0.00096,0.02363,0.00971,-0.00561,0.00754,-0.03026,-0.01020,1.01049,4.58370,0.61665,0.01194,-2.83948,1.00701,0.00793,4.50068,2.24977,-0.42625,-0.21654,0.00000,A,095325.90
4.60943,57.67067100,11.99789933,57.67066733,11.99793817,09:53:26.125417,0.01286,2.60000,0.95918,0.00112,0.02363,0.01828,-0.02248,-0.00709,-0.01406,-0.01921,1.00075,4.59675,0.61665,0.01208,-2.83948,1.01451,0.00802,4.59435,2.24977,-0.42625,0.00000,0.00000,A,095325.90
4.62176,57.67067100,11.99789933,57.67066733,11.99793817,09:53:26.137755,0.01084,2.60000,0.95918,0.00134,0.02363,0.02198,-0.03167,-0.01262,0.01634,-0.00784,0.99184,4.61147,0.61665,0.01223,-2.83948,1.02238,0.00812,4.59435,2.24977,-0.42625,0.00000,0.00000,A,095325.90
4.63460,57.67067100,11.99789933,57.67066733,11.99793817,09:53:26.150817,0.01140,2.60000,0.95918,0.00163,0.02363,0.02117,-0.03348,-0.00810,0.02889,0.00671,0.98662,4.62388,0.61665,0.01241,-2.83948,1.03183,0.00824,4.59435,2.24977,-0.42625,0.00000,0.00000,A,095325.90
4.64812,57.67067100,11.99789933,57.67066733,11.99793817,09:53:26.164117,0.01180,2.60000,0.95918,0.00188,0.02363,0.02795,-0.02565,-0.00015,0.02570,0.00255,0.98493,4.63727,0.61665,0.01255,-2.83948,1.03933,0.00833,4.59435,2.24977,-0.42625,0.00000,0.00000,A,095325.90
4.65998,57.67067100,11.99789933,57.67066733,11.99793817,09:53:26.175974,0.01044,2.60000,0.95918,0.00216,0.02363,0.03011,-0.01535,0.01480,0.02632,0.00103,1.01164,4.64980,0.61665,0.01270,-2.83948,1.04745,0.00843,4.59435,2.24977,-0.42625,0.00000,0.00000,A,095325.90
4.67287,57.67067100,11.99789933,57.67066733,11.99793817,09:53:26.188867,0.01140,2.60000,0.95918,0.00245,0.02363,0.03216,-0.01380,0.02117,0.01949,0.00282,1.01455,4.66297,0.61665,0.01285,-2.83948,1.05532,0.00853,4.59435,2.24977,-0.42625,0.00000,0.00000,A,095325.90
4.68609,57.67067100,11.99789933,57.67066733,11.99793817,09:53:26.202085,0.01179,2.60000,0.95918,0.00271,0.02363,0.03199,-0.01394,0.02269,0.01451,0.00123,1.00092,4.67549,0.61665,0.01299,-2.83948,1.06296,0.00863,4.59435,2.24977,-0.42625,0.00000,0.00000,A,095325.90
4.69872,57.67067100,11.99789933,57.67066733,11.99793817,09:53:26.214709,0.01118,2.60000,0.95918,0.00301,0.02363,0.03237,-0.01181,0.02195,0.01110,0.00217,0.99311,4.68723,0.61665,0.01315,-2.83948,1.07136,0.00873,4.59435,2.24977,-0.42625,0.00000,0.00000,A,095325.90
4.71386,57.67067100,11.99789933,57.67066717,11.99793967,09:53:26.229852,0.01292,1.17111,1.17111,0.00327,0.02363,0.03311,-0.01200,0.01266,0.01309,0.00151,0.98413,4.70045,0.65436,0.01329,-2.83948,1.08771,0.00883,4.69872,2.33897,-0.44478,-0.20485,0.00000,A,095326.00
4.72532,57.67067100,11.99789933,57.67066717,11.99793967,09:53:26.241361,0.00998,1.17111,1.17111,0.00351,0.02366,0.03102,-0.00284,0.01346,0.02385,0.00884,0.98450,4.71547,0.65436,0.01344,-2.83948,1.09565,0.00893,4.69872,2.33897,-0.44478,-0.20485,0.00000,A,095326.00
4.73697,57.67067100,11.99789933,57.67066717,11.99793967,09:53:26.252970,0.01017,1.17111,1.17111,0.00381,0.02375,0.03183,-0.00757,0.01450,0.03637,0.01350,0.97742,4.72667,0.65436,0.01362,-2.83948,1.10521,0.00904,4.69872,2.33897,-0.44478,-0.20485,0.00000,A,095326.00
4.74884,57.67067100,11.99789933,57.67066717,11.99793967,09:53:26.264839,0.01039,1.17111,1.17111,0.00402,0.02386,0.03222,-0.00696,0.01239,0.04942,0.01358,0.96778,4.73852,0.65436,0.01376,-2.83948,1.11281,0.00914,4.69872,2.33897,-0.44478,-0.20485,0.00000,A,095326.00
4.75963,57.67067100,11.99789933,57.67066717,11.99793967,09:53:26.275618,0.00935,1.17111,1.17111,0.00422,0.02389,0.03050,0.00173,0.00985,0.04303,0.01034,0.95418,4.74995,0.65436,0.01391,-2.83948,1.12040,0.00924,4.69872,2.33897,-0.44478,-0.20485,0.00000,A,095326.00
4.77078,57.67067100,11.99789933,57.67066717,11.99793967,09:53:26.286773,0.00967,1.17111,1.17111,0.00438,0.02389,0.02764,0.00799,0.00934,0.04457,0.02170,0.95737,4.76133,0.65436,0.01405,-2.83948,1.12795,0.00933,4.69872,2.33897,-0.44478,-0.20485,0.00000,A,095326.00
4.78258,57.67067100,11.99789933,57.67066717,11.99793967,09:53:26.298579,0.01031,1.17111,1.17111,0.00454,0.02389,0.02837,0.01545,0.00555,0.03658,0.02634,0.97051,4.77221,0.65436,0.01419,-2.83948,1.13528,0.00942,4.69872,2.33897,-0.44478,-0.20485,0.00000,A,095326.00
4.79396,57.67067100,11.99789933,57.67066717,11.99793967,09:53:26.309949,0.00981,1.17111,1.17111,0.00458,0.02389,0.01680,0.01912,0.00592,0.02405,0.02632,0.98039,4.78415,0.65436,0.01432,-2.83948,1.14246,0.00951,4.69872,2.33897,-0.44478,-0.20485,0.00000,A,095326.00
4.80835,57.67067100,11.99789933,57.67066700,11.99794117,09:53:26.324338,0.01277,1.17111,1.17111,0.00460,0.02389,0.01516,0.01590,0.00406,0.02680,0.02909,0.99800,4.79544,0.65436,0.01447,-2.83948,1.15014,0.00961,4.79396,2.42817,-0.46331,-0.20485,0.00000,A,095326.10
4.82018,57.67067100,11.99789933,57.67066700,11.99794117,09:53:26.336178,0.01038,1.17111,1.17111,0.00460,0.02389,0.01456,0.02016,-0.00018,0.03124,0.02443,1.01804,4.80960,0.65436,0.01462,-2.83948,1.15793,0.00971,4.79396,2.42817,-0.46331,-0.20485,0.00000,A,095326.10
4.83238,57.67067100,11.99789933,57.67066700,11.99794117,09:53:26.348366,0.01057,1.17111,1.17111,0.00460,0.02389,0.01148,0.01665,-0.00005,0.02387,0.02277,1.01532,4.82199,0.65436,0.01479,-2.83948,1.16708,0.00982,4.79396,2.42817,-0.46331,-0.20485,0.00000,A,095326.10
4.84418,57.67067100,11.99789933,57.67066700,11.99794117,09:53:26.360175,0.01022,1.17111,1.17111,0.00455,0.02389,0.00878,0.01816,-0.00343,0.02089,0.01955,1.00585,4.83393,0.65436,0.01494,-2.83948,1.17527,0.00993,4.79396,2.42817,-0.46331,-0.20485,0.00000,A,095326.10
4.85586,57.67067100,11.99789933,57.67066700,11.99794117,09:53:26.371864,0.00925,1.17111,1.17111,0.00453,0.02389,0.01337,0.01817,-0.00046,0.01753,0.02125,1.00461,4.84588,0.65436,0.01510,-2.83948,1.18323,0.01003,4.79396,2.42817,-0.46331,-0.20485,0.00000,A,095326.10
4.86725,57.67067100,11.99789933,57.67066700,11.99794117,09:53:26.383252,0.00988,1.17111,1.17111,0.00450,0.02389,0.01127,0.01652,0.00454,0.01465,0.01775,0.99853,4.85727,0.65436,0.01523,-2.83948,1.19054,0.01012,4.79396,2.42817,-0.46331,-0.20485,0.00000,A,095326.10
4.87866,57.67067100,11.99789933,57.67066700,11.99794117,09:53:26.394655,0.00996,1.17111,1.17111,0.00448,0.02389,0.01127,0.01957,0.00314,0.02299,0.01037,0.98557,4.86853,0.65436,0.01538,-2.83948,1.19837,0.01022,4.79396,2.42817,-0.46331,-0.20485,0.00000,A,095326.10
4.88970,57.67067100,11.99789933,57.67066700,11.99794117,09:53:26.405697,0.00954,1.17111,1.17111,0.00441,0.02389,0.00832,0.02062,-0.00073,0.01944,0.00775,0.97456,4.88033,0.65436,0.01552,-2.83948,1.20545,0.01031,4.79396,2.42817,-0.46331,-0.20485,0.00000,A,095326.10
4.90492,57.67067100,11.99789933,57.67066683,11.99794267,09:53:26.420905,0.01312,1.17111,1.17111,0.00435,0.02389,0.00907,0.01347,0.00630,0.02002,0.01089,0.96718,4.89137,0.65436,0.01566,-2.83948,1.21311,0.01041,4.88970,2.51737,-0.48184,-0.20485,0.00000,A,095326.20
4.91628,57.67067100,11.99789933,57.67066683,11.99794267,09:53:26.432277,0.00989,1.17111,1.17111,0.00435,0.02389,0.01412,0.01727,0.00240,0.01702,0.01278,0.97973,4.90617,0.65436,0.01580,-2.83948,1.22045,0.01050,4.88970,2.51737,-0.48184,-0.20485,0.00000,A,095326.20
4.92757,57.67067100,11.99789933,57.67066683,11.99794267,09:53:26.443565,0.00979,1.17111,1.17111,0.00440,0.02389,0.01373,0.01652,0.00451,0.01337,0.01200,0.99688,4.91795,0.65436,0.01598,-2.83948,1.23002,0.01062,4.88970,2.51737,-0.48184,-0.20485,0.00000,A,095326.20
4.94007,57.67067100,11.99789933,57.67066683,11.99794267,09:53:26.456068,0.01104,1.17111,1.17111,0.00436,0.02389,0.00874,0.01788,0.00240,0.01769,0.00631,1.03213,4.92885,0.65436,0.01613,-2.83948,1.23772,0.01072,4.88970,2.51737,-0.48184,-0.20485,0.00000,A,095326.20
4.95159,57.67067100,11.99789933,57.67066683,11.99794267,09:53:26.467577,0.01003,1.01338,1.01338,0.00427,0.02389,0.00637,0.02153,-0.00111,0.01901,-0.00156,1.04337,4.94154,0.67877,0.01627,-2.83948,1.25096,0.01081,4.88970,2.51737,-0.48184,-0.20485,0.00000,A,095326.20
4.96335,57.67067100,11.99789933,57.67066683,11.99794267,09:53:26.479344,0.01001,1.01338,1.01338,0.00420,0.02389,0.00630,0.01208,0.00231,-0.00391,-0.00877,1.04088,4.95336,0.67877,0.01643,-2.83948,1.25930,0.01092,4.88970,2.51737,-0.48184,-0.20485,0.00000,A,095326.20
4.97474,57.67067100,11.99789933,57.67066683,11.99794267,09:53:26.490737,0.00995,1.01338,1.01338,0.00414,0.02389,0.00885,0.00931,-0.00123,-0.00690,-0.00402,1.03905,4.96461,0.67877,0.01659,-2.83948,1.26760,0.01102,4.88970,2.51737,-0.48184,-0.20485,0.00000,A,095326.20
4.98609,57.67067100,11.99789933,57.67066683,11.99794267,09:53:26.502082,0.00976,1.01338,1.01338,0.00404,0.02389,0.00549,0.00626,-0.00006,-0.00111,0.00347,1.03777,4.97644,0.67877,0.01672,-2.83948,1.27486,0.01111,4.88970,2.51737,-0.48184,-0.20485,0.00000,A,095326.20
4.99781,57.67067100,11.99789933,57.67066683,11.99794267,09:53:26.513804,0.01024,1.01338,1.01338,0.00398,0.02389,0.00844,0.00320,-0.00171,0.00407,0.00215,1.01576,4.98731,0.67877,0.01688,-2.83948,1.28290,0.01121,4.88970,2.51737,-0.48184,-0.20485,0.00000,A,095326.20
5.01227,57.67067100,11.99789933,57.67066667,11.99794417,09:53:26.528251,0.01285,1.01338,1.01338,0.00391,0.02389,0.00746,-0.00610,0.00160,0.00854,0.00545,0.97703,4.99920,0.67877,0.01702,-2.83948,1.29040,0.01131,4.99781,2.60657,-0.50038,-0.20485,0.00000,A,095326.30
5.02389,57.67067100,11.99789933,57.67066667,11.99794417,09:53:26.539859,0.01001,1.01338,1.01338,0.00391,0.02386,0.01256,-0.00826,-0.00273,0.00860,-0.00746,0.95696,5.01389,0.67877,0.01717,-2.83948,1.29840,0.01141,4.99781,2.60657,-0.50038,-0.20485,0.00000,A,095326.30
5.03620,57.67067100,11.99789933,57.67066667,11.99794417,09:53:26.552193,0.01092,1.01338,1.01338,0.00394,0.02349,0.01020,-0.00586,-0.01315,0.01420,0.00356,0.93820,5.02611,0.67877,0.01736,-2.83948,1.30822,0.01153,4.99781,2.60657,-0.50038,-0.20485,0.00000,A,095326.30
5.04809,57.67067100,11.99789933,57.67066667,11.99794417,09:53:26.564088,0.01045,1.01338,1.01338,0.00396,0.02244,0.01122,-0.00116,-0.02089,0.02878,-0.00177,0.93361,5.03756,0.67877,0.01752,-2.83948,1.31697,0.01164,4.99781,2.60657,-0.50038,-0.20485,0.00000,A,095326.30
5.05932,57.67067100,11.99789933,57.67066667,11.99794417,09:53:26.575313,0.00972,1.01338,1.01338,0.00394,0.02083,0.00829,0.00796,-0.02910,0.05271,0.00238,0.93419,5.04920,0.67877,0.01765,-2.83948,1.32458,0.01173,4.99781,2.60657,-0.50038,-0.20485,0.00000,A,095326.30
5.07172,57.67067100,11.99789933,57.67066667,11.99794417,09:53:26.587723,0.01093,1.01338,1.01338,0.00393,0.01910,0.00803,0.01513,-0.03086,0.05413,0.01787,0.93409,5.06061,0.67877,0.01779,-2.83948,1.33278,0.01182,4.99781,2.60657,-0.50038,-0.20485,0.00000,A,095326.30
5.08291,57.67067100,11.99789933,57.67066667,11.99794417,09:53:26.598903,0.00969,1.01338,1.01338,0.00398,0.01726,0.01625,0.02491,-0.02890,0.04872,0.00952,0.94783,5.07309,0.67877,0.01790,-2.83948,1.34034,0.01190,4.99781,2.60657,-0.50038,-0.20485,0.00000,A,095326.30
5.09434,57.67067100,11.99789933,57.67066667,11.99794417,09:53:26.610338,0.00992,1.01338,1.01338,0.00403,0.01579,0.01384,0.03149,-0.02659,0.03576,0.00696,0.98720,5.08439,0.67877,0.01801,-2.83948,1.34846,0.01197,4.99781,2.60657,-0.50038,-0.20485,0.00000,A,095326.30
5.10978,57.67067100,11.99789933,57.67066650,11.99794583,09:53:26.625768,0.01394,1.01338,1.01338,0.00404,0.01455,0.01100,0.03471,-0.02324,0.03200,0.00206,0.99607,5.09557,0.67877,0.01811,-2.83948,1.35649,0.01204,5.09434,2.70567,-0.51891,-0.18486,0.00000,A,095326.40
5.12114,57.67067100,11.99789933,57.67066650,11.99794583,09:53:26.637132,0.00973,1.01338,1.01338,0.00405,0.01285,0.01250,0.02450,-0.02010,0.03334,-0.00406,1.00552,5.11125,0.67877,0.01820,-2.83948,1.36368,0.01209,5.09434,2.70567,-0.51891,-0.18486,0.00000,A,095326.40
5.13275,57.67067100,11.99789933,57.67066650,11.99794583,09:53:26.648746,0.01011,1.01338,1.01338,0.00414,0.01169,0.01535,0.02205,-0.02085,0.04134,-0.00389,1.00255,5.12278,0.67877,0.01831,-2.83948,1.37441,0.01216,5.09434,2.70567,-0.51891,-0.18486,0.00000,A,095326.40
5.14446,57.67067100,11.99789933,57.67066650,11.99794583,09:53:26.660450,0.01026,1.01338,1.01338,0.00423,0.01025,0.01911,0.01838,-0.02148,0.03198,0.00342,0.96083,5.13403,0.67877,0.01838,-2.83948,1.38255,0.01221,5.09434,2.70567,-0.51891,-0.18486,0.00000,A,095326.40
5.15553,57.67067100,11.99789933,57.67066650,11.99794583,09:53:26.671533,0.00951,1.01338,1.01338,0.00429,0.00877,0.01628,0.02403,-0.02090,0.03670,0.01127,0.95752,5.14612,0.67877,0.01844,-2.83948,1.39011,0.01225,5.09434,2.70567,-0.51891,-0.18486,0.00000,A,095326.40
5.16728,57.67067100,11.99789933,57.67066650,11.99794583,09:53:26.683272,0.01027,1.01338,1.01338,0.00438,0.00744,0.01915,0.02174,-0.02180,0.03652,0.02148,0.97599,5.15674,0.67877,0.01850,-2.83948,1.39807,0.01229,5.09434,2.70567,-0.51891,-0.18486,0.00000,A,095326.40
5.17862,57.67067100,11.99789933,57.67066650,11.99794583,09:53:26.694612,0.00922,1.01338,1.01338,0.00441,0.00617,0.01397,0.02602,-0.02087,0.02832,0.02854,1.02267,5.16871,0.67877,0.01854,-2.83948,1.40543,0.01232,5.09434,2.70567,-0.51891,-0.18486,0.00000,A,095326.40
5.19008,57.67067100,11.99789933,57.67066650,11.99794583,09:53:26.706076,0.00988,1.01338,1.01338,0.00439,0.00509,0.00732,0.02250,-0.02190,0.00948,0.02762,1.06186,5.18005,0.67877,0.01858,-2.83948,1.41342,0.01234,5.09434,2.70567,-0.51891,-0.18486,0.00000,A,095326.40
5.20572,57.67067100,11.99789933,57.67066633,11.99794750,09:53:26.721710,0.01419,0.98108,0.98108,0.00430,0.00427,0.00222,0.00726,-0.01611,0.00448,0.01681,1.08456,5.19124,0.69933,0.01861,-2.83948,1.42631,0.01237,5.19008,2.80478,-0.53744,-0.18486,0.00000,A,095326.50
5.21768,57.67067100,11.99789933,57.67066633,11.99794750,09:53:26.733669,0.00960,0.98108,0.98108,0.00425,0.00362,0.00687,-0.00483,-0.02044,-0.00443,0.00534,1.07108,5.20691,0.69933,0.01864,-2.83948,1.43387,0.01238,5.19008,2.80478,-0.53744,-0.18486,0.00000,A,095326.50
5.22899,57.67067100,11.99789933,57.67066633,11.99794750,09:53:26.744979,0.00981,0.98108,0.98108,0.00424,0.00354,0.00619,-0.00605,-0.02128,-0.00297,0.01666,1.02589,5.21917,0.69933,0.01867,-2.83948,1.44508,0.01240,5.19008,2.80478,-0.53744,-0.18486,0.00000,A,095326.50
5.24125,57.67067100,11.99789933,57.67066633,11.99794750,09:53:26.757244,0.01078,0.98108,0.98108,0.00423,0.00354,0.00962,-0.00178,-0.02169,0.01096,0.01078,0.99649,5.23026,0.69933,0.01869,-2.83948,1.45361,0.01242,5.19008,2.80478,-0.53744,-0.18486,0.00000,A,095326.50
5.25246,57.67067100,11.99789933,57.67066633,11.99794750,09:53:26.768456,0.00961,0.98108,0.98108,0.00421,0.00354,0.00825,-0.00422,-0.02183,0.01848,0.01351,0.97921,5.24290,0.69933,0.01872,-2.83948,1.46150,0.01243,5.19008,2.80478,-0.53744,-0.18486,0.00000,A,095326.50
5.26420,57.67067100,11.99789933,57.67066633,11.99794750,09:53:26.780197,0.01024,0.98108,0.98108,0.00422,0.00354,0.01035,-0.00742,-0.01866,0.02968,0.02275,0.94789,5.25376,0.69933,0.01874,-2.83948,1.47003,0.01245,5.19008,2.80478,-0.53744,-0.18486,0.00000,A,095326.50
5.27607,57.67067100,11.99789933,57.67066633,11.99794750,09:53:26.792068,0.00980,0.98108,0.98108,0.00422,0.00354,0.01053,0.00128,-0.02022,0.04903,0.02008,0.93627,5.26611,0.69933,0.01876,-2.83948,1.47766,0.01247,5.19008,2.80478,-0.53744,-0.18486,0.00000,A,095326.50
5.28760,57.67067100,11.99789933,57.67066633,11.99794750,09:53:26.803597,0.00943,0.98108,0.98108,0.00425,0.00354,0.01381,0.00742,-0.01388,0.06699,0.02884,0.93101,5.27702,0.69933,0.01879,-2.83948,1.48612,0.01248,5.19008,2.80478,-0.53744,-0.18486,0.00000,A,095326.50
5.29888,57.67067100,11.99789933,57.67066633,11.99794750,09:53:26.814873,0.00984,0.98108,0.98108,0.00424,0.00354,0.00930,0.01918,-0.01352,0.05247,0.02560,0.93129,5.28874,0.69933,0.01881,-2.83948,1.49444,0.01250,5.19008,2.80478,-0.53744,-0.18486,0.00000,A,095326.50
5.31418,57.67067100,11.99789933,57.67066633,11.99794750,09:53:26.830164,0.01381,0.98108,0.98108,0.00423,0.00354,0.01163,0.03171,-0.01240,0.03313,0.02657,0.96742,5.30055,0.69933,0.01883,-2.83948,1.50191,0.01251,5.29888,2.80478,-0.53744,0.00000,0.00000,A,095326.50
5.32584,57.67067100,11.99789933,57.67066633,11.99794750,09:53:26.841836,0.00954,0.98108,0.98108,0.00421,0.00354,0.00930,0.03171,-0.01220,0.00712,0.01731,1.04802,5.31573,0.69933,0.01885,-2.83948,1.51026,0.01253,5.29888,2.80478,-0.53744,0.00000,0.00000,A,095326.50
5.33721,57.67067100,11.99789933,57.67066633,11.99794750,09:53:26.853207,0.00994,0.98108,0.98108,0.00427,0.00354,0.01468,0.02331,-0.01217,-0.01395,0.00227,1.09299,5.32701,0.69933,0.01889,-2.83948,1.52118,0.01255,5.29888,2.80478,-0.53744,0.00000,0.00000,A,095326.50
5.34903,57.67067100,11.99789933,57.67066633,11.99794750,09:53:26.865027,0.01032,0.98108,0.98108,0.00433,0.00354,0.01863,0.00834,-0.01304,-0.02227,-0.00674,1.08295,5.33902,0.69933,0.01891,-2.83948,1.52872,0.01256,5.29888,2.80478,-0.53744,0.00000,0.00000,A,095326.50
5.36041,57.67067100,11.99789933,57.67066633,11.99794750,09:53:26.876402,0.00994,0.98108,0.98108,0.00454,0.00354,0.03004,-0.01258,-0.01196,0.00093,-0.01030,1.05402,5.35026,0.69933,0.01893,-2.83948,1.53754,0.01258,5.29888,2.80478,-0.53744,0.00000,0.00000,A,095326.50
5.37196,57.67067100,11.99789933,57.67066633,11.99794750,09:53:26.887946,0.01004,0.98108,0.98108,0.00478,0.00357,0.03704,-0.01469,-0.00717,0.03077,0.00170,1.01134,5.36200,0.69933,0.01896,-2.83948,1.54503,0.01259,5.29888,2.80478,-0.53744,0.00000,0.00000,A,095326.50
5.38328,57.67067100,11.99789933,57.67066633,11.99794750,09:53:26.899272,0.00985,0.98108,0.98108,0.00506,0.00376,0.03761,-0.01361,-0.00542,0.05035,-0.00276,0.97103,5.37339,0.69933,0.01898,-2.83948,1.55319,0.01261,5.29888,2.80478,-0.53744,0.00000,0.00000,A,095326.50
5.39454,57.67067100,11.99789933,57.67066633,11.99794750,09:53:26.910527,0.00977,0.98108,0.98108,0.00528,0.00436,0.03595,-0.00469,0.00788,0.03807,0.01835,0.93278,5.38462,0.69933,0.01901,-2.83948,1.56118,0.01262,5.29888,2.80478,-0.53744,0.00000,0.00000,A,095326.50
5.40984,57.67067100,11.99789933,57.67066600,11.99795083,09:53:26.925824,0.01364,0.98108,0.98108,0.00544,0.00526,0.03070,-0.00422,0.01082,0.03221,0.02174,0.93904,5.39608,0.69933,0.01903,-2.83948,1.56894,0.01264,5.39454,3.00300,-0.57451,-0.18486,0.00000,A,095326.70
5.42153,57.67067100,11.99789933,57.67066600,11.99795083,09:53:26.937525,0.01021,0.98108,0.98108,0.00557,0.00651,0.02797,-0.00529,0.01190,0.01928,0.00253,0.96726,5.41105,0.69933,0.01907,-2.83948,1.57722,0.01266,5.39454,3.00300,-0.57451,-0.18486,0.00000,A,095326.70
5.43289,57.67067100,11.99789933,57.67066600,11.99795083,09:53:26.948881,0.00922,0.98108,0.98108,0.00576,0.00719,0.02597,-0.01051,0.00509,0.00276,0.00451,0.98590,5.42303,0.69933,0.01912,-2.83948,1.58766,0.01270,5.39454,3.00300,-0.57451,-0.18486,0.00000,A,095326.70
5.44473,57.67067100,11.99789933,57.67066600,11.99795083,09:53:26.960730,0.00950,0.98108,0.98108,0.00591,0.00753,0.02953,-0.01178,-0.00465,0.01728,0.01461,1.00577,5.43468,0.69933,0.01917,-2.83948,1.59582,0.01273,5.39454,3.00300,-0.57451,-0.18486,0.00000,A,095326.70
