Description : v 3 step ; walk_time = 2.0 ; speed_up_time = 3.0 ; balancing_time = 0.0
RealTime,Time,CalculationTime,MeasuredVelocity,FilteredVelocity,BalancingGainsInner,BalancingGainsOuter,Roll,SteeringAngle,RollRate,ControlInput,BalancingSetpoint,gy,gz,ax,ay,az,imu_read_timing,SteerMotorCurrent,v_estimated,yaw_estimated,heading_estimated,x_estimated,y_estimated,GPS_timestamp,x_GPS,y_GPS,theta_GPS,theta_GPS_noUnwrap,latitude,longitude,lat_estimated,lon_estimated,status,NMEA timestamp
18:23:03.135515,0.05079,0.05075,0.00000,0.00000,[5.00000 0.00000 0.00000],[1.30000 0.00000 0.00000],-0.00084,0.00552,0.03976,0.00000,0.00000,-0.00842,0.00410,0.05344,-0.05710,0.98765,0.00001,0.02198,0.00000,-0.00321,0.00000,0.00000,0.00000,0.01903,0.00000,0.00000,0.00000,0.00000,57.68782,11.98131,57.68781550,11.98131417,A,143322.70
18:23:03.164872,0.08017,0.01309,0.00000,0.00000,[5.00000 0.00000 0.00000],[1.30000 0.00000 0.00000],0.00160,0.00552,0.04832,0.00000,0.00000,0.00303,0.00120,0.03861,-0.03379,1.00382,0.06947,0.01465,0.00000,-0.00321,0.00000,0.00000,0.00000,0.01903,0.00000,0.00000,0.00000,0.00000,57.68782,11.98131,57.68781550,11.98131417,A,143322.70
18:23:03.189676,0.10418,0.01173,0.00000,0.00000,[5.00000 0.00000 0.00000],[1.30000 0.00000 0.00000],0.00170,0.00552,0.04572,0.00000,0.00000,-0.00063,0.00838,0.07668,-0.04429,0.96325,0.09577,0.01221,0.00000,-0.00321,0.00000,0.00000,0.00000,0.01903,0.00000,0.00000,0.00000,0.00000,57.68782,11.98131,57.68781550,11.98131417,A,143322.70
18:23:03.231218,0.14653,0.02705,0.00000,0.00000,[5.00000 0.00000 0.00000],[1.30000 0.00000 0.00000],0.00193,0.00552,0.04205,0.00000,0.00000,-0.01346,0.00746,0.02672,-0.03141,1.00052,0.12212,0.00488,0.00000,0.23241,0.23562,0.00000,0.00093,0.14270,0.00000,0.01853,1.57080,1.57080,57.68782,11.98131,57.68781551,11.98131417,A,143322.80
18:23:03.258682,0.17396,0.01342,0.00000,0.00000,[5.00000 0.00000 0.00000],[1.30000 0.00000 0.00000],0.00275,0.00552,0.04526,0.00000,0.00000,-0.00659,0.00823,0.03599,-0.04081,1.00089,0.16326,0.01221,0.00000,0.43269,0.43590,0.00000,0.00181,0.14270,0.00000,0.01853,1.57080,1.57080,57.68782,11.98131,57.68781552,11.98131417,A,143322.80
18:23:03.285948,0.20125,0.01266,0.41396,0.41396,[5.00000 0.00000 0.00000],[1.30000 0.00000 0.00000],0.00312,0.00552,0.04068,0.00000,0.00000,-0.00125,0.01082,0.04319,-0.02251,0.96783,0.19142,0.01954,0.08279,0.60292,0.60613,0.00000,0.00264,0.14270,0.00000,0.01853,1.57080,1.57080,57.68782,11.98131,57.68781552,11.98131417,A,143322.80
18:23:03.308423,0.22373,0.01212,0.41396,0.41396,[5.00000 0.00000 0.00000],[1.30000 0.00000 0.00000],0.00323,0.00552,0.04251,0.00000,0.00000,-0.00125,0.00349,0.05838,-0.02769,0.97380,0.21408,0.01954,0.14902,0.74763,0.75084,0.00122,0.00428,0.14270,0.00000,0.01853,1.57080,1.57080,57.68782,11.98131,57.68781554,11.98131419,A,143322.80
18:23:03.347421,0.26273,0.02589,0.41396,0.41396,[5.00000 0.00000 0.00000],[1.30000 0.00000 0.00000],0.00309,0.00552,0.03717,0.00000,0.00000,-0.00858,0.00288,0.03312,-0.04398,1.00961,0.23966,0.01465,0.20201,0.89709,0.90030,0.00452,0.01137,0.25884,-0.00991,0.07413,1.74712,1.74712,57.68782,11.98131,57.68781560,11.98131424,A,143322.90
18:23:03.370656,0.28595,0.01104,0.41396,0.41396,[5.00000 0.00000 0.00000],[1.30000 0.00000 0.00000],0.00370,0.00552,0.04160,0.00000,0.00000,-0.00537,0.00975,0.04813,-0.03263,0.98039,0.27672,0.01465,0.24440,1.02413,1.02734,0.00609,0.01740,0.25884,-0.00991,0.07413,1.74712,1.74712,57.68782,11.98131,57.68781566,11.98131427,A,143322.90
18:23:03.396260,0.31099,0.01195,0.41396,0.41396,[5.00000 0.00000 0.00000],[1.30000 0.00000 0.00000],0.00385,0.00552,0.03839,0.00000,0.00000,-0.00796,0.01159,0.02367,-0.02489,1.00089,0.30189,0.01709,0.27831,1.13212,1.13533,0.00795,0.02464,0.25884,-0.00991,0.07413,1.74712,1.74712,57.68782,11.98131,57.68781572,11.98131430,A,143322.90
18:23:03.420237,0.33553,0.01173,0.41396,0.41396,[5.00000 0.00000 0.00000],[1.30000 0.00000 0.00000],0.00372,0.00552,0.04205,0.00000,0.00000,-0.00705,0.00762,0.05240,-0.04124,0.99027,0.32416,0.00733,0.30544,1.22391,1.22712,0.00928,0.03190,0.25884,-0.00991,0.07413,1.74712,1.74712,57.68782,11.98131,57.68781579,11.98131432,A,143322.90
18:23:03.440466,0.35575,0.01030,0.41396,0.41396,[5.00000 0.00000 0.00000],[1.30000 0.00000 0.00000],0.00380,0.00552,0.03136,0.00000,0.00000,-0.00919,0.00487,0.02800,-0.01293,0.98741,0.34687,0.01221,0.32714,1.30194,1.30514,0.01006,0.03888,0.25884,-0.00991,0.07413,1.74712,1.74712,57.68782,11.98131,57.68781585,11.98131434,A,143322.90
18:23:03.490581,0.40588,0.03654,0.41396,0.41396,[5.00000 0.00000 0.00000],[1.30000 0.00000 0.00000],0.00366,0.00552,0.02449,0.00000,0.00000,-0.00231,0.00410,0.04953,-0.01995,0.98033,0.37154,0.00977,0.34451,1.41548,1.41869,0.01160,0.05819,0.40218,-0.03962,0.12973,2.06169,2.06169,57.68782,11.98131,57.68781602,11.98131436,A,143323.10
18:23:03.513615,0.42892,0.01220,0.41396,0.41396,[5.00000 0.00000 0.00000],[1.30000 0.00000 0.00000],0.00420,0.00552,0.02556,0.00000,0.00000,-0.00720,0.01464,0.03215,-0.01671,1.00162,0.41966,0.01221,0.35840,1.51196,1.51517,0.01005,0.06837,0.40218,-0.03962,0.12973,2.06169,2.06169,57.68782,11.98131,57.68781611,11.98131434,A,143323.10
18:23:03.540491,0.45579,0.01254,0.41396,0.41396,[5.00000 0.00000 0.00000],[1.30000 0.00000 0.00000],0.00393,0.00552,0.01609,0.00000,0.00000,-0.00384,0.01052,0.06917,-0.01574,0.99320,0.44484,0.01709,0.36951,1.59397,1.59718,0.00799,0.07912,0.40218,-0.03962,0.12973,2.06169,2.06169,57.68782,11.98131,57.68781621,11.98131430,A,143323.10
18:23:03.567819,0.48313,0.01452,0.41396,0.41396,[5.00000 0.00000 0.00000],[1.30000 0.00000 0.00000],0.00338,0.00552,0.01105,0.00000,0.00000,-0.00170,0.00685,0.04423,-0.02690,0.99906,0.47083,0.01465,0.37840,1.66368,1.66689,0.00539,0.09022,0.40218,-0.03962,0.12973,2.06169,2.06169,57.68782,11.98131,57.68781631,11.98131426,A,143323.10
18:23:03.610722,0.52603,0.02702,0.41396,0.41396,[5.00000 0.00000 0.00000],[1.30000 0.00000 0.00000],0.00250,0.00552,-0.00132,0.00000,0.00000,-0.00598,0.00273,0.04868,-0.02757,1.00070,0.50148,0.00977,0.38551,1.64933,1.65254,0.00171,0.11065,0.52228,-0.03962,0.20386,1.57080,1.57080,57.68782,11.98131,57.68781650,11.98131420,A,143323.20
18:23:03.635006,0.55016,0.01263,0.41396,0.41396,[5.00000 0.00000 0.00000],[1.30000 0.00000 0.00000],0.00175,0.00552,0.00067,0.00000,0.00000,0.00196,0.01586,0.03934,-0.02434,0.98076,0.54103,0.00977,0.39120,1.63710,1.64031,-0.00098,0.12302,0.52228,-0.03962,0.20386,1.57080,1.57080,57.68782,11.98131,57.68781661,11.98131415,A,143323.20
18:23:03.660351,0.57565,0.01178,0.65504,0.65504,[5.00000 0.00000 0.00000],[1.30000 0.00000 0.00000],0.00108,0.00552,0.00220,0.00000,0.00000,-0.01087,0.00884,0.03666,-0.02074,0.96709,0.56604,0.02930,0.44397,1.62671,1.62992,-0.00351,0.13558,0.52228,-0.03962,0.20386,1.57080,1.57080,57.68782,11.98131,57.68781672,11.98131411,A,143323.20
18:23:03.688492,0.60300,0.01180,0.65504,0.65504,[5.00000 0.00000 0.00000],[1.30000 0.00000 0.00000],0.00034,0.00552,0.00174,0.00000,0.00000,-0.00522,0.00365,0.03526,-0.02702,0.99637,0.59437,0.01465,0.48618,1.61789,1.62110,-0.00596,0.14991,0.52228,-0.03962,0.20386,1.57080,1.57080,57.68782,11.98131,57.68781685,11.98131407,A,143323.20
18:23:03.726466,0.64175,0.02615,0.65504,0.65504,[5.00000 0.00000 0.00000],[1.30000 0.00000 0.00000],-0.00027,0.00552,0.00158,0.00000,0.00000,-0.00613,0.00594,0.02178,-0.01800,1.02346,0.61763,0.02930,0.51995,1.71179,1.71500,-0.00999,0.17151,0.63794,-0.06934,0.24092,2.24663,2.24663,57.68782,11.98131,57.68781704,11.98131400,A,143323.30
18:23:03.753652,0.66895,0.01529,3.31587,0.65504,[5.00000 0.00000 0.00000],[1.30000 0.00000 0.00000],-0.00123,0.00552,-0.00162,0.00000,0.00000,-0.00201,0.00517,0.04191,-0.03398,0.96331,0.65883,0.02442,0.54697,1.79159,1.79480,-0.01459,0.18626,0.63794,-0.06934,0.24092,2.24663,2.24663,57.68782,11.98131,57.68781718,11.98131392,A,143323.30
18:23:03.779818,0.69512,0.01416,3.31587,0.65504,[5.00000 0.00000 0.00000],[1.30000 0.00000 0.00000],-0.00191,0.00552,-0.00086,0.00000,0.00000,-0.01041,-0.00292,0.00342,-0.02043,1.00077,0.68503,0.01221,0.56859,1.85941,1.86262,-0.01994,0.20044,0.63794,-0.06934,0.24092,2.24663,2.24663,57.68782,11.98131,57.68781730,11.98131383,A,143323.30
18:23:03.809690,0.72499,0.01610,3.31587,0.65504,[5.00000 0.00000 0.00000],[1.30000 0.00000 0.00000],-0.00262,0.00552,0.00174,0.00000,0.00000,0.00318,0.00135,0.01525,-0.02812,1.01101,0.71386,0.01221,0.58588,1.91707,1.92028,-0.02636,0.21560,0.63794,-0.06934,0.24092,2.24663,2.24663,57.68782,11.98131,57.68781744,11.98131372,A,143323.30
18:23:03.858812,0.77412,0.03798,3.31587,0.65504,[5.00000 0.00000 0.00000],[1.30000 0.00000 0.00000],-0.00316,0.00543,0.00525,0.00000,0.00000,0.00395,0.00563,0.06021,-0.02190,0.98393,0.73904,0.01709,0.59971,1.92922,1.93238,-0.04052,0.24815,0.77039,-0.12878,0.37065,2.00042,2.00042,57.68782,11.98131,57.68781773,11.98131349,A,143323.50
18:23:03.884974,0.80027,0.01338,3.31587,0.65504,[5.00000 0.00000 0.00000],[1.30000 0.00000 0.00000],-0.00389,0.00201,-0.00071,0.00000,0.00000,-0.00140,-0.00766,0.04904,-0.02464,0.98838,0.78849,0.01221,0.61078,1.93977,1.94094,-0.04931,0.26586,0.77039,-0.12878,0.37065,2.00042,2.00042,57.68782,11.98131,57.68781789,11.98131334,A,143323.50
18:23:03.911898,0.82718,0.01296,3.31587,0.65504,[5.00000 0.00000 0.00000],[1.30000 0.00000 0.00000],-0.00443,0.00110,0.00479,0.00000,0.00000,0.00105,0.00426,-0.01793,-0.02452,1.01120,0.81696,0.01954,0.61963,1.94880,1.94944,-0.05819,0.28374,0.77039,-0.12878,0.37065,2.00042,2.00042,57.68782,11.98131,57.68781805,11.98131319,A,143323.50
18:23:03.937265,0.85257,0.01335,3.31587,0.65504,[5.00000 0.00000 0.00000],[1.30000 0.00000 0.00000],-0.00528,0.00068,-0.00101,0.00000,0.00000,0.00609,0.00303,0.07180,-0.03361,0.96941,0.84338,0.01465,0.62671,1.95649,1.95689,-0.06675,0.30073,0.77039,-0.12878,0.37065,2.00042,2.00042,57.68782,11.98131,57.68781820,11.98131304,A,143323.50
18:23:03.978488,0.89377,0.02700,3.31587,0.65504,[5.00000 0.00000 0.00000],[1.30000 0.00000 0.00000],-0.00585,-0.00034,0.00113,0.00000,0.00000,0.00670,-0.00872,0.01745,-0.02019,0.96953,0.86974,0.00977,0.63238,1.95003,1.94983,-0.07985,0.32916,0.88994,-0.14859,0.42625,1.91312,1.91312,57.68782,11.98131,57.68781846,11.98131282,A,143323.60
18:23:04.004785,0.92009,0.01461,3.31587,0.65504,[5.00000 0.00000 0.00000],[1.30000 0.00000 0.00000],-0.00652,-0.00071,0.00220,0.00000,0.00000,-0.00308,-0.00628,0.07527,-0.03178,1.01589,0.90911,0.00733,0.63691,1.94455,1.94414,-0.08818,0.34632,0.88994,-0.14859,0.42625,1.91312,1.91312,57.68782,11.98131,57.68781861,11.98131268,A,143323.60
18:23:04.028494,0.94380,0.01251,0.85976,0.85976,[5.00000 0.00000 0.00000],[1.30000 0.00000 0.00000],-0.00720,-0.00071,0.00525,0.00000,0.00000,0.00273,-0.00491,0.01330,-0.03593,1.01181,0.93228,0.01465,0.68148,1.93989,1.93948,-0.09563,0.36161,0.88994,-0.14859,0.42625,1.91312,1.91312,57.68782,11.98131,57.68781875,11.98131256,A,143323.60
18:23:04.053650,0.96896,0.01216,0.85976,0.85976,[5.00000 0.00000 0.00000],[1.30000 0.00000 0.00000],-0.00738,-0.00071,0.01625,0.00000,0.00000,-0.00277,0.00242,0.05880,-0.02251,0.96447,0.95925,0.02198,0.71714,1.93593,1.93552,-0.10323,0.37766,0.88994,-0.14859,0.42625,1.91312,1.91312,57.68782,11.98131,57.68781890,11.98131243,A,143323.60
18:23:04.078939,0.99422,0.01250,0.85976,0.85976,[5.00000 0.00000 0.00000],[1.30000 0.00000 0.00000],-0.00766,-0.00071,0.02022,0.00000,0.00000,-0.01117,0.00670,0.02721,-0.03251,0.97502,0.98306,0.00244,0.74566,1.93256,1.93215,-0.11054,0.39331,0.88994,-0.14859,0.42625,1.91312,1.91312,57.68782,11.98131,57.68781904,11.98131231,A,143323.60
18:23:04.117061,1.03237,0.02579,0.85976,0.85976,[5.00000 0.00000 0.00000],[1.30000 0.00000 0.00000],-0.00764,-0.00071,0.02312,0.00000,0.00000,0.00211,0.00365,0.04923,-0.02037,0.99778,1.00869,0.03419,0.76848,1.89827,1.89786,-0.12231,0.42344,1.02852,-0.15850,0.50038,1.70364,1.70364,57.68782,11.98131,57.68781931,11.98131211,A,143323.70
18:23:04.142010,1.05731,0.01241,0.85976,0.85976,[5.00000 0.00000 0.00000],[1.30000 0.00000 0.00000],-0.00724,-0.00071,0.02831,0.00000,0.00000,0.00563,0.00319,0.02458,-0.02757,1.00552,1.04666,0.01221,0.78674,1.86913,1.86872,-0.12903,0.44177,1.02852,-0.15850,0.50038,1.70364,1.70364,57.68782,11.98131,57.68781947,11.98131200,A,143323.70
18:23:04.167919,1.08260,0.01151,0.85976,0.85976,[5.00000 0.00000 0.00000],[1.30000 0.00000 0.00000],-0.00711,-0.00071,0.02419,0.00000,0.00000,0.00379,0.00212,0.06930,-0.01446,0.98454,1.07239,0.01465,0.80134,1.84436,1.84395,-0.13542,0.46072,1.02852,-0.15850,0.50038,1.70364,1.70364,57.68782,11.98131,57.68781964,11.98131189,A,143323.70
18:23:04.193431,1.10870,0.01304,0.85976,0.85976,[5.00000 0.00000 0.00000],[1.30000 0.00000 0.00000],-0.00719,-0.00071,0.02617,0.00000,0.00000,0.00059,0.00548,0.02782,-0.03105,0.97856,1.09768,0.01221,0.81303,1.82330,1.82289,-0.14117,0.47911,1.02852,-0.15850,0.50038,1.70364,1.70364,57.68782,11.98131,57.68781981,11.98131179,A,143323.70
18:23:04.217469,1.13277,0.01316,0.85976,0.85976,[5.00000 0.00000 0.00000],[1.30000 0.00000 0.00000],-0.00712,-0.00071,0.02281,0.00000,0.00000,0.00486,0.00624,0.03611,-0.01244,1.00278,1.12086,0.00977,0.82238,1.80541,1.80500,-0.14587,0.49504,1.02852,-0.15850,0.50038,1.70364,1.70364,57.68782,11.98131,57.68781995,11.98131171,A,143323.70
18:23:04.267862,1.18317,0.03783,0.85976,0.85976,[5.00000 0.00000 0.00000],[1.30000 0.00000 0.00000],-0.00705,-0.00071,0.01945,0.00000,0.00000,0.00349,0.00548,0.01946,-0.01074,1.00028,1.14672,0.00488,0.82985,1.82936,1.82895,-0.15879,0.54061,1.17939,-0.22784,0.66717,1.96480,1.96480,57.68782,11.98131,57.68782036,11.98131150,A,143323.90
18:23:04.294456,1.20974,0.01343,0.97444,0.97444,[5.00000 0.00000 0.00000],[1.30000 0.00000 0.00000],-0.00650,-0.00071,0.02235,0.00000,0.00000,0.00013,0.00303,0.04801,-0.02379,0.99375,1.19958,0.00733,0.85877,1.84973,1.84932,-0.16671,0.56386,1.17939,-0.22784,0.66717,1.96480,1.96480,57.68782,11.98131,57.68782057,11.98131136,A,143323.90
18:23:04.318868,1.23417,0.01194,0.97444,0.97444,[5.00000 0.00000 0.00000],[1.30000 0.00000 0.00000],-0.00647,-0.00071,0.02373,0.00000,0.00000,-0.00430,0.01281,0.03202,-0.02001,0.99424,1.22554,0.01465,0.88190,1.86704,1.86663,-0.17493,0.58708,1.17939,-0.22784,0.66717,1.96480,1.96480,57.68782,11.98131,57.68782078,11.98131122,A,143323.90
18:23:04.345474,1.26076,0.01391,0.97444,0.97444,[5.00000 0.00000 0.00000],[1.30000 0.00000 0.00000],-0.00624,-0.00071,0.02205,0.00000,0.00000,-0.01407,0.01663,0.03910,-0.00207,1.00333,1.25006,0.01465,0.90041,1.88176,1.88134,-0.18311,0.60926,1.17939,-0.22784,0.66717,1.96480,1.96480,57.68782,11.98131,57.68782098,11.98131109,A,143323.90
18:23:04.383839,1.29914,0.02523,0.97444,0.97444,[5.00000 0.00000 0.00000],[1.30000 0.00000 0.00000],-0.00652,-0.00071,0.01426,0.00000,0.00000,-0.00262,0.01006,0.03166,-0.02519,1.01913,1.27584,0.02442,0.91522,1.86161,1.86119,-0.19558,0.64526,1.29537,-0.23775,0.72277,1.74712,1.74712,57.68782,11.98131,57.68782130,11.98131088,A,143324.00
18:23:04.408785,1.32409,0.01230,0.97444,0.97444,[5.00000 0.00000 0.00000],[1.30000 0.00000 0.00000],-0.00629,-0.00071,0.01670,0.00000,0.00000,-0.00598,0.00578,0.01976,-0.00738,0.98301,1.31353,0.00977,0.92706,1.84448,1.84407,-0.20302,0.66699,1.29537,-0.23775,0.72277,1.74712,1.74712,57.68782,11.98131,57.68782150,11.98131075,A,143324.00
18:23:04.428864,1.34416,0.01137,0.97444,0.97444,[5.00000 0.00000 0.00000],[1.30000 0.00000 0.00000],-0.00660,-0.00031,0.01731,0.00000,0.00000,-0.00247,0.01296,0.05935,-0.02483,0.94727,1.33400,0.01221,0.93654,1.82990,1.82972,-0.20867,0.68374,1.29537,-0.23775,0.72277,1.74712,1.74712,57.68782,11.98131,57.68782165,11.98131066,A,143324.00
18:23:04.456769,1.37207,0.01325,0.97444,0.97444,[5.00000 0.00000 0.00000],[1.30000 0.00000 0.00000],-0.00673,0.00065,0.01227,0.00000,0.00000,-0.00781,0.02319,0.03605,-0.01202,0.97020,1.36149,0.01709,0.94412,1.81742,1.81780,-0.21562,0.70645,1.29537,-0.23775,0.72277,1.74712,1.74712,57.68782,11.98131,57.68782185,11.98131054,A,143324.00
18:23:04.478756,1.39405,0.01035,0.97444,0.97444,[5.00000 0.00000 0.00000],[1.30000 0.00000 0.00000],-0.00704,0.00133,0.00662,0.00000,0.00000,0.00441,0.01739,0.03648,-0.01348,1.01669,1.38544,0.00733,0.95018,1.80677,1.80754,-0.22108,0.72454,1.29537,-0.23775,0.72277,1.74712,1.74712,57.68782,11.98131,57.68782202,11.98131045,A,143324.00
18:23:04.520265,1.43557,0.02488,1.00305,1.00305,[5.00000 0.00000 0.00000],[1.30000 0.00000 0.00000],-0.00728,0.00243,0.00769,0.00000,0.00000,0.00944,0.00991,0.02739,-0.01116,1.01095,1.41026,0.01465,0.96076,1.84483,1.84625,-0.23287,0.76421,1.43181,-0.28728,0.81543,2.06169,2.06169,57.68782,11.98131,57.68782237,11.98131025,A,143324.10
18:23:04.547256,1.46256,0.01315,1.00305,1.00305,[5.00000 0.00000 0.00000],[1.30000 0.00000 0.00000],-0.00768,0.00450,0.00586,0.00000,0.00000,-0.00628,0.01708,0.04953,-0.02422,0.97271,1.45232,0.01465,0.96922,1.87701,1.87963,-0.24151,0.78773,1.43181,-0.28728,0.81543,2.06169,2.06169,57.68782,11.98131,57.68782258,11.98131010,A,143324.10
18:23:04.571785,1.48709,0.01242,1.00305,1.00305,[5.00000 0.00000 0.00000],[1.30000 0.00000 0.00000],-0.00808,0.00552,0.00953,0.00000,0.00000,-0.01071,0.02350,0.00451,-0.02580,1.02413,1.47730,0.02198,0.97598,1.90430,1.90751,-0.24961,0.80731,1.43181,-0.28728,0.81543,2.06169,2.06169,57.68782,11.98131,57.68782276,11.98130997,A,143324.10
18:23:04.598507,1.51379,0.01341,1.00305,1.00305,[5.00000 0.00000 0.00000],[1.30000 0.00000 0.00000],-0.00833,0.00710,0.01121,0.00000,0.00000,-0.00170,0.02671,0.03343,-0.01982,1.02602,1.50411,0.02198,0.98140,1.92738,1.93151,-0.25849,0.82770,1.43181,-0.28728,0.81543,2.06169,2.06169,57.68782,11.98131,57.68782294,11.98130982,A,143324.10
18:23:04.636716,1.55202,0.02594,1.00305,1.00305,[5.00000 0.00000 0.00000],[1.30000 0.00000 0.00000],-0.00839,0.00807,0.00647,0.00000,0.00000,0.00395,0.02319,0.01580,0.00275,1.00144,1.52843,0.01465,0.98573,1.91993,1.92462,-0.27373,0.86439,1.54829,-0.31700,0.90809,1.88115,1.88115,57.68782,11.98131,57.68782327,11.98130956,A,143324.20
18:23:04.662339,1.57740,0.01238,1.00305,1.00305,[5.00000 0.00000 0.00000],[1.30000 0.00000 0.00000],-0.00892,0.00821,0.00220,0.00000,0.00000,-0.01423,0.01525,0.04996,-0.02239,0.94776,1.56744,0.01465,0.98919,1.91353,1.91830,-0.28298,0.88575,1.54829,-0.31700,0.90809,1.88115,1.88115,57.68782,11.98131,57.68782347,11.98130941,A,143324.20
18:23:04.689119,1.60443,0.01287,1.00305,1.00305,[5.00000 0.00000 0.00000],[1.30000 0.00000 0.00000],-0.00925,0.00889,0.01304,0.00000,0.00000,-0.00980,0.02640,0.01379,-0.02891,0.99747,1.59467,0.00977,0.99197,1.90804,1.91321,-0.29225,0.90775,1.54829,-0.31700,0.90809,1.88115,1.88115,57.68782,11.98131,57.68782366,11.98130925,A,143324.20
18:23:04.717054,1.63236,0.01364,1.00305,1.00305,[5.00000 0.00000 0.00000],[1.30000 0.00000 0.00000],-0.00909,0.00979,0.01640,0.00000,0.00000,0.00059,0.03266,0.02227,-0.00287,1.00260,1.62203,0.01465,0.99418,1.90331,1.90901,-0.30132,0.92975,1.54829,-0.31700,0.90809,1.88115,1.88115,57.68782,11.98131,57.68782386,11.98130910,A,143324.20
18:23:04.768336,1.68364,0.03697,1.04488,1.04488,[5.00000 0.00000 0.00000],[1.30000 0.00000 0.00000],-0.00922,0.00985,0.01640,0.00000,0.00000,0.02120,0.02243,0.00238,-0.02062,0.96807,1.64886,0.01221,1.00432,1.88580,1.89153,-0.32010,0.98392,1.67988,-0.36653,1.13048,1.78994,1.78994,57.68783,11.98131,57.68782435,11.98130878,A,143324.40
18:23:04.792984,1.70827,0.01123,1.04488,1.04488,[5.00000 0.00000 0.00000],[1.30000 0.00000 0.00000],-0.00890,0.00985,0.01640,0.00000,0.00000,0.00532,0.00685,0.09815,-0.01714,1.02846,1.69921,0.01221,1.01244,1.87072,1.87645,-0.32896,1.01092,1.67988,-0.36653,1.13048,1.78994,1.78994,57.68783,11.98131,57.68782459,11.98130863,A,143324.40
18:23:04.814456,1.72952,0.00781,1.04488,1.04488,[5.00000 0.00000 0.00000],[1.30000 0.00000 0.00000],-0.00901,0.00985,0.02541,0.00000,0.00000,-0.01148,0.02136,0.04008,-0.02879,1.05451,1.72127,0.00733,1.01893,1.85789,1.86362,-0.33639,1.03449,1.67988,-0.36653,1.13048,1.78994,1.78994,57.68783,11.98131,57.68782480,11.98130851,A,143324.40
18:23:04.828317,1.74362,0.01150,1.04488,1.04488,[5.00000 0.00000 0.00000],[1.30000 0.00000 0.00000],-0.00931,0.00985,0.03136,0.00000,0.00000,-0.00903,0.02365,0.02269,-0.03056,1.05091,1.73373,0.00977,1.02412,1.84691,1.85264,-0.34074,1.04871,1.67988,-0.36653,1.13048,1.78994,1.78994,57.68783,11.98131,57.68782493,11.98130843,A,143324.40
18:23:04.852854,1.76816,0.01283,1.04488,1.04488,[5.00000 0.00000 0.00000],[1.30000 0.00000 0.00000],-0.00876,0.00985,0.03320,0.00000,0.00000,-0.01392,0.03129,0.03196,-0.00366,1.02059,1.75954,0.01465,1.02827,1.83767,1.84340,-0.34789,1.07307,1.67988,-0.36653,1.13048,1.78994,1.78994,57.68783,11.98131,57.68782515,11.98130831,A,143324.40
18:23:04.893922,1.80923,0.02669,1.04488,1.04488,[5.00000 0.00000 0.00000],[1.30000 0.00000 0.00000],-0.00854,0.00985,0.03045,0.00000,0.00000,-0.02614,0.01937,0.05667,-0.01897,0.96740,1.78485,0.01709,1.03159,1.90988,1.91561,-0.36268,1.11680,1.80562,-0.43587,1.20461,2.32285,2.32285,57.68783,11.98131,57.68782554,11.98130806,A,143324.50
18:23:04.918929,1.83424,0.01282,1.04488,1.04488,[5.00000 0.00000 0.00000],[1.30000 0.00000 0.00000],-0.00824,0.00985,0.01930,0.00000,0.00000,-0.02385,0.01128,-0.02220,-0.01299,0.99692,1.82431,0.01465,1.03425,1.97113,1.97686,-0.37345,1.14099,1.80562,-0.43587,1.20461,2.32285,2.32285,57.68783,11.98131,57.68782576,11.98130788,A,143324.50
18:23:04.944930,1.86007,0.01243,1.24064,1.24064,[5.00000 0.00000 0.00000],[1.30000 0.00000 0.00000],-0.00788,0.00985,0.01899,0.00000,0.00000,-0.00033,0.02044,0.03916,0.00958,0.99369,1.85010,0.01709,1.07553,2.02319,2.02892,-0.38505,1.16390,1.80562,-0.43587,1.20461,2.32285,2.32285,57.68783,11.98131,57.68782597,11.98130769,A,143324.50
18:23:04.970852,1.88615,0.01221,1.24064,1.24064,[5.00000 0.00000 0.00000],[1.30000 0.00000 0.00000],-0.00738,0.00985,0.03259,0.00000,0.00000,-0.00354,0.02396,0.01470,-0.00677,0.99656,1.87720,0.02198,1.10855,2.06746,2.07319,-0.39806,1.18715,1.80562,-0.43587,1.20461,2.32285,2.32285,57.68783,11.98131,57.68782618,11.98130747,A,143324.50
18:23:05.011060,1.92476,0.02930,1.24064,1.24064,[5.00000 0.00000 0.00000],[1.30000 0.00000 0.00000],-0.00768,0.00985,0.02602,0.00000,0.00000,-0.00827,0.01953,0.01299,-0.04221,1.01333,1.90089,0.01465,1.13497,2.01885,2.02458,-0.41985,1.22800,1.92064,-0.45569,1.31581,1.74712,1.74712,57.68783,11.98131,57.68782654,11.98130710,A,143324.60
18:23:05.038661,1.95349,0.01271,1.24064,1.24064,[5.00000 0.00000 0.00000],[1.30000 0.00000 0.00000],-0.00661,0.00985,0.02403,0.00000,0.00000,-0.01804,0.00746,0.07302,0.02068,0.97685,1.94421,0.00488,1.15610,1.97744,1.98317,-0.43366,1.25703,1.92064,-0.45569,1.31581,1.74712,1.74712,57.68783,11.98131,57.68782680,11.98130687,A,143324.60
18:23:05.065691,1.98100,0.01289,1.24064,1.24064,[5.00000 0.00000 0.00000],[1.30000 0.00000 0.00000],-0.00564,0.00985,0.03136,0.00000,0.00000,-0.02308,0.01327,0.01751,0.02751,0.99076,1.97129,0.01221,1.17301,1.94224,1.94797,-0.44558,1.28472,1.92064,-0.45569,1.31581,1.74712,1.74712,57.68783,11.98131,57.68782705,11.98130667,A,143324.60
18:23:05.090741,2.00604,0.01237,1.24064,1.24064,[5.00000 0.00000 0.00000],[1.30000 0.00000 0.00000],-0.00519,0.00985,0.02251,0.00000,0.00000,-0.01865,0.02121,0.03941,0.01531,0.98674,1.99496,0.01465,1.18653,1.91230,1.91803,-0.45486,1.30841,1.92064,-0.45569,1.31581,1.74712,1.74712,57.68783,11.98131,57.68782727,11.98130651,A,143324.60
18:23:05.133152,2.04844,0.02990,1.24064,1.24064,[5.00000 0.00000 0.00000],[1.30000 0.00000 0.00000],-0.00497,0.00985,0.01777,0.00000,0.00000,-0.01423,0.01495,0.00360,0.00512,1.00241,2.02081,0.01465,1.19735,1.93418,1.93991,-0.47205,1.35395,2.04114,-0.50522,1.40847,2.06169,2.06169,57.68783,11.98131,57.68782768,11.98130622,A,143324.70
18:23:05.154419,2.06948,0.01217,1.26531,1.26531,[5.00000 0.00000 0.00000],[1.30000 0.00000 0.00000],-0.00487,0.00985,0.01365,0.00000,0.00000,-0.02797,0.00456,0.02385,-0.00677,0.97612,2.05927,0.02198,1.21095,1.95262,1.95834,-0.48169,1.37731,2.04114,-0.50522,1.40847,2.06169,2.06169,57.68783,11.98131,57.68782789,11.98130606,A,143324.70
18:23:05.181135,2.09644,0.01201,1.26531,1.26531,[5.00000 0.00000 0.00000],[1.30000 0.00000 0.00000],-0.00575,0.00985,0.00815,0.00000,0.00000,-0.03790,0.00135,0.10272,-0.04923,0.94172,2.08669,0.02930,1.22182,1.96833,1.97406,-0.49360,1.40517,2.04114,-0.50522,1.40847,2.06169,2.06169,57.68783,11.98131,57.68782814,11.98130586,A,143324.70
18:23:05.209522,2.12483,0.01391,1.26531,1.26531,[5.00000 0.00000 0.00000],[1.30000 0.00000 0.00000],-0.00133,0.00985,-0.02636,0.00000,0.00000,-0.00354,-0.00277,-0.27114,0.39638,1.04950,2.11366,0.01709,1.23052,1.98169,1.98742,-0.50502,1.43073,2.04114,-0.50522,1.40847,2.06169,2.06169,57.68783,11.98131,57.68782837,11.98130567,A,143324.70
18:23:05.261542,2.17685,0.03998,1.26531,1.26531,[5.00000 0.00000 0.00000],[1.30000 0.00000 0.00000],-0.00135,0.00985,0.02923,0.00000,0.00000,0.03189,-0.00399,0.14969,-0.02556,0.93550,2.14035,0.05861,1.23748,1.97816,1.98389,-0.53386,1.49562,2.17186,-0.60428,1.64939,1.96090,1.96090,57.68783,11.98130,57.68782895,11.98130518,A,143324.90
18:23:05.289699,2.20500,0.01224,1.52624,1.52624,[5.00000 0.00000 0.00000],[1.30000 0.00000 0.00000],-0.00082,0.00982,0.01151,0.00000,0.00000,0.00120,0.01556,-0.03672,0.01989,1.01772,2.19369,0.02442,1.29523,1.97494,1.98065,-0.54880,1.52937,2.17186,-0.60428,1.64939,1.96090,1.96090,57.68783,11.98130,57.68782925,11.98130493,A,143324.90
18:23:05.317238,2.23254,0.01383,1.52624,1.52624,[5.00000 0.00000 0.00000],[1.30000 0.00000 0.00000],-0.00135,0.00931,0.01380,0.00000,0.00000,-0.01820,0.00838,-0.10821,-0.03440,0.99296,2.22156,0.03907,1.34143,1.97224,1.97766,-0.56311,1.56192,2.17186,-0.60428,1.64939,1.96090,1.96090,57.68783,11.98130,57.68782955,11.98130469,A,143324.90
18:23:05.342792,2.25809,0.01332,1.52624,1.52624,[5.00000 0.00000 0.00000],[1.30000 0.00000 0.00000],-0.00139,0.00818,0.01579,0.00000,0.00000,0.00578,0.00212,-0.00177,-0.00360,0.96520,2.24626,0.03907,1.37839,1.97003,1.97478,-0.57615,1.59179,2.17186,-0.60428,1.64939,1.96090,1.96090,57.68783,11.98130,57.68782982,11.98130447,A,143324.90
18:23:05.384407,2.29971,0.02996,3.73327,1.52624,[5.00000 0.00000 0.00000],[1.30000 0.00000 0.00000],-0.00253,0.00685,0.01273,0.00000,0.00000,-0.03148,0.00166,-0.02172,-0.07509,0.99040,2.27556,0.02686,1.40796,1.97274,1.97672,-0.60070,1.64855,2.29486,-0.65381,1.76059,1.98985,1.98985,57.68783,11.98130,57.68783033,11.98130406,A,143325.00
18:23:05.411825,2.32713,0.01426,3.73327,1.52624,[5.00000 0.00000 0.00000],[1.30000 0.00000 0.00000],-0.00277,0.00481,0.01151,0.00000,0.00000,-0.01331,0.00044,0.08705,-0.02348,0.99192,2.31608,0.04640,1.43162,1.97505,1.97784,-0.61523,1.68180,2.29486,-0.65381,1.76059,1.98985,1.98985,57.68783,11.98130,57.68783062,11.98130382,A,143325.00
18:23:05.439365,2.35465,0.01519,3.73327,1.52624,[5.00000 0.00000 0.00000],[1.30000 0.00000 0.00000],-0.00327,0.00289,-0.00025,0.00000,0.00000,-0.03179,0.00044,0.05795,-0.01025,0.99345,2.34377,0.00733,1.45054,1.97714,1.97881,-0.62985,1.71517,2.29486,-0.65381,1.76059,1.98985,1.98985,57.68783,11.98130,57.68783092,11.98130357,A,143325.00
18:23:05.467939,2.38323,0.01539,3.73327,1.52624,[5.00000 0.00000 0.00000],[1.30000 0.00000 0.00000],-0.00353,0.00068,-0.00147,0.00000,0.00000,-0.00980,0.00044,0.03032,0.00659,1.02010,2.37207,0.00733,1.46568,1.97907,1.97946,-0.64527,1.75034,2.29486,-0.65381,1.76059,1.98985,1.98985,57.68783,11.98130,57.68783124,11.98130331,A,143325.00
18:23:05.511403,2.42671,0.03076,3.73327,1.52624,[5.00000 0.00000 0.00000],[1.30000 0.00000 0.00000],-0.00417,-0.00096,-0.01079,0.00000,0.00000,-0.02431,-0.00338,0.12621,-0.00128,0.97399,2.40041,0.00977,1.47779,1.99157,1.99101,-0.67195,1.81038,2.42145,-0.70334,1.85325,2.06169,2.06169,57.68783,11.98130,57.68783178,11.98130286,A,143325.10
18:23:05.537449,2.45275,0.01358,1.45776,1.45776,[5.00000 0.00000 0.00000],[1.30000 0.00000 0.00000],-0.00590,-0.00388,-0.02957,0.00000,0.00000,0.00166,-0.01224,0.06728,-0.01647,1.00211,2.44123,0.00977,1.47378,2.00241,2.00015,-0.68591,1.84025,2.42145,-0.70334,1.85325,2.06169,2.06169,57.68783,11.98130,57.68783205,11.98130263,A,143325.10
18:23:05.563185,2.47849,0.01155,1.45776,1.45776,[5.00000 0.00000 0.00000],[1.30000 0.00000 0.00000],-0.00653,-0.00623,-0.03110,0.00000,0.00000,-0.00644,-0.01224,0.02904,0.03178,1.03432,2.46840,0.00733,1.47058,2.01175,2.00813,-0.69917,1.86797,2.42145,-0.70334,1.85325,2.06169,2.06169,57.68783,11.98130,57.68783230,11.98130240,A,143325.10
18:23:05.591076,2.50638,0.01448,1.45776,1.45776,[5.00000 0.00000 0.00000],[1.30000 0.00000 0.00000],-0.00860,-0.00804,-0.02820,0.00000,0.00000,0.01616,-0.01300,0.11157,-0.06875,0.96099,2.49522,0.01465,1.46801,2.01978,2.01511,-0.71339,1.89720,2.42145,-0.70334,1.85325,2.06169,2.06169,57.68783,11.98130,57.68783256,11.98130216,A,143325.10
18:23:05.630827,2.54613,0.02742,1.45776,1.45776,[5.00000 0.00000 0.00000],[1.30000 0.00000 0.00000],-0.00919,-0.00945,-0.02697,0.00000,0.00000,-0.03164,-0.00781,0.08052,0.01891,0.92500,2.52111,0.00000,1.46596,2.00427,1.99878,-0.73783,1.94879,2.54122,-0.74297,1.96444,1.91312,1.91312,57.68783,11.98130,57.68783303,11.98130175,A,143325.20
18:23:05.656538,2.57184,0.01340,1.45776,1.45776,[5.00000 0.00000 0.00000],[1.30000 0.00000 0.00000],-0.01156,-0.01107,-0.03125,0.00000,0.00000,-0.05867,-0.01911,0.14701,-0.06252,1.00790,2.56120,0.00000,1.46432,1.99134,1.98491,-0.75062,1.97705,2.54122,-0.74297,1.96444,1.91312,1.91312,57.68783,11.98130,57.68783328,11.98130154,A,143325.20
18:23:05.683541,2.59884,0.01145,1.45776,1.45776,[5.00000 0.00000 0.00000],[1.30000 0.00000 0.00000],-0.01278,-0.01259,-0.01415,0.00000,0.00000,-0.05409,-0.02110,0.05087,-0.04660,1.02669,2.58875,0.00244,1.46301,1.98043,1.97310,-0.76348,2.00656,2.54122,-0.74297,1.96444,1.91312,1.91312,57.68783,11.98130,57.68783355,11.98130132,A,143325.20
18:23:05.709960,2.62462,0.01360,1.42331,1.42331,[5.00000 0.00000 0.00000],[1.30000 0.00000 0.00000],-0.01328,-0.01452,-0.02453,0.00000,0.00000,-0.02431,-0.02155,0.22692,0.01488,0.91311,2.61403,0.00000,1.45507,1.97129,1.96285,-0.77451,2.03278,2.54122,-0.74297,1.96444,1.91312,1.91312,57.68783,11.98130,57.68783378,11.98130114,A,143325.20
18:23:05.763494,2.67880,0.03930,1.42331,1.42331,[5.00000 0.00000 0.00000],[1.30000 0.00000 0.00000],-0.01420,-0.01763,-0.01521,0.00000,0.00000,-0.02186,-0.02583,0.00738,-0.02556,1.03932,2.64280,0.00000,1.44872,1.98557,1.97532,-0.80659,2.10751,2.67398,-0.86184,2.18683,2.06169,2.06169,57.68784,11.98130,57.68783445,11.98130060,A,143325.40
18:23:05.790425,2.70549,0.01342,1.42331,1.42331,[5.00000 0.00000 0.00000],[1.30000 0.00000 0.00000],-0.01559,-0.02250,-0.02468,0.00000,0.00000,0.01739,-0.03347,0.15183,-0.00152,0.97435,2.69496,0.00000,1.44364,1.99853,1.98545,-0.82145,2.13972,2.67398,-0.86184,2.18683,2.06169,2.06169,57.68784,11.98130,57.68783474,11.98130035,A,143325.40
18:23:05.816847,2.73216,0.01471,1.42331,1.42331,[5.00000 0.00000 0.00000],[1.30000 0.00000 0.00000],-0.01762,-0.02499,-0.03293,0.00000,0.00000,-0.00766,-0.03850,0.21631,-0.07015,0.92964,2.72040,0.00000,1.43957,2.00965,1.99512,-0.83565,2.16976,2.67398,-0.86184,2.18683,2.06169,2.06169,57.68784,11.98130,57.68783501,11.98130011,A,143325.40
18:23:05.843801,2.75910,0.01416,1.42331,1.42331,[5.00000 0.00000 0.00000],[1.30000 0.00000 0.00000],-0.01864,-0.02643,-0.04331,0.00000,0.00000,-0.05225,-0.03728,-0.03447,0.01214,1.01669,2.74776,0.00488,1.43632,2.01915,2.00377,-0.85005,2.19959,2.67398,-0.86184,2.18683,2.06169,2.06169,57.68784,11.98130,57.68783528,11.98129986,A,143325.40
18:23:05.885352,2.80066,0.02841,1.35857,1.35857,[5.00000 0.00000 0.00000],[1.30000 0.00000 0.00000],-0.02047,-0.02652,-0.03507,0.00000,0.00000,0.02579,-0.03423,0.27755,-0.05472,1.00766,2.77634,0.00244,1.42077,2.00777,1.99235,-0.87649,2.25601,2.79585,-0.91137,2.31656,1.93552,1.93552,57.68784,11.98130,57.68783579,11.98129942,A,143325.50
18:23:05.912222,2.82751,0.01286,1.35857,1.35857,[5.00000 0.00000 0.00000],[1.30000 0.00000 0.00000],-0.02189,-0.02652,-0.03156,0.00000,0.00000,0.02670,-0.03087,0.11468,-0.01177,0.97405,2.81626,0.00000,1.40833,1.99863,1.98321,-0.89043,2.28623,2.79585,-0.91137,2.31656,1.93552,1.93552,57.68784,11.98130,57.68783606,11.98129919,A,143325.50
18:23:05.937957,2.85324,0.01239,1.35857,1.35857,[5.00000 0.00000 0.00000],[1.30000 0.00000 0.00000],-0.02330,-0.02652,-0.02590,0.00000,0.00000,-0.00063,-0.03652,0.19935,-0.04892,0.97716,2.84292,0.00000,1.39838,1.99085,1.97543,-0.90366,2.31560,2.79585,-0.91137,2.31656,1.93552,1.93552,57.68784,11.98130,57.68783632,11.98129896,A,143325.50
18:23:05.963353,2.87866,0.01350,1.35857,1.35857,[5.00000 0.00000 0.00000],[1.30000 0.00000 0.00000],-0.02467,-0.02652,-0.01017,0.00000,0.00000,0.01815,-0.03316,0.03355,-0.08040,1.04359,2.86842,0.00000,1.39041,1.98424,1.96881,-0.91608,2.34374,2.79585,-0.91137,2.31656,1.93552,1.93552,57.68784,11.98130,57.68783658,11.98129875,A,143325.50
18:23:06.004448,2.91975,0.02754,1.35857,1.35857,[5.00000 0.00000 0.00000],[1.30000 0.00000 0.00000],-0.02478,-0.02652,-0.01567,0.00000,0.00000,0.01357,-0.02033,0.18465,0.01434,0.95270,2.89435,0.00000,1.38405,2.00572,1.99030,-0.93997,2.39683,2.91489,-0.99062,2.44629,2.11919,2.11919,57.68784,11.98130,57.68783706,11.98129835,A,143325.60
18:23:06.029769,2.94507,0.01202,1.85514,1.85514,[5.00000 0.00000 0.00000],[1.30000 0.00000 0.00000],-0.02590,-0.02652,0.01533,0.00000,0.00000,0.02655,-0.01132,0.23973,-0.11566,0.94129,2.93331,0.00000,1.47826,2.02450,2.00908,-0.95342,2.42378,2.91489,-0.99062,2.44629,2.11919,2.11919,57.68784,11.98130,57.68783730,11.98129813,A,143325.60
18:23:06.050663,2.96596,0.01206,1.85514,1.85514,[5.00000 0.00000 0.00000],[1.30000 0.00000 0.00000],-0.02620,-0.02638,0.00250,0.00000,0.00000,-0.02828,-0.01300,0.19782,-0.03154,0.96728,2.95429,0.00000,1.55364,2.04051,2.02517,-0.96551,2.44673,2.91489,-0.99062,2.44629,2.11919,2.11919,57.68784,11.98130,57.68783750,11.98129792,A,143325.60
18:23:06.073694,2.98900,0.01273,1.85514,1.85514,[5.00000 0.00000 0.00000],[1.30000 0.00000 0.00000],-0.02555,-0.02476,0.01792,0.00000,0.00000,-0.01560,-0.01147,-0.00403,0.00787,1.06628,2.97774,0.00000,1.61394,2.05387,2.03946,-0.97966,2.47310,2.91489,-0.99062,2.44629,2.11919,2.11919,57.68784,11.98130,57.68783774,11.98129768,A,143325.60
18:23:06.101891,3.01717,0.01234,1.85514,1.85514,[5.00000 0.00000 0.00000],[1.30000 0.00000 0.00000],-0.02575,-0.02049,0.01747,0.00000,0.00000,-0.02965,-0.00674,0.21460,-0.05368,0.97685,3.00810,0.00000,1.66218,2.06470,2.05279,-0.99773,2.50638,2.91489,-0.99062,2.44629,2.11919,2.11919,57.68784,11.98130,57.68783804,11.98129738,A,143325.60
18:23:06.142993,3.05830,0.02730,1.85514,1.85514,[5.00000 0.00000 0.00000],[1.30000 0.00000 0.00000],-0.02472,-0.01763,0.03029,0.00000,0.00000,-0.00140,-0.00277,0.06448,0.01061,0.98704,3.03408,0.00000,1.70077,2.04834,2.03808,-1.02977,2.56703,3.05339,-1.05006,2.59455,1.95208,1.95208,57.68784,11.98130,57.68783859,11.98129684,A,143325.70
18:23:06.164003,3.07930,0.00913,1.87190,1.87190,[5.00000 0.00000 0.00000],[1.30000 0.00000 0.00000],-0.02342,-0.01670,0.03029,0.00000,0.00000,-0.01087,-0.00185,-0.00012,0.01098,0.99942,3.06971,0.00000,1.73500,2.03497,2.02526,-1.04338,2.59337,3.05339,-1.05006,2.59455,1.95208,1.95208,57.68784,11.98130,57.68783882,11.98129661,A,143325.70
18:23:06.175735,3.09103,0.01005,1.87190,1.87190,[5.00000 0.00000 0.00000],[1.30000 0.00000 0.00000],-0.02333,-0.01670,0.03197,0.00000,0.00000,0.00685,-0.00246,-0.00701,-0.02178,1.03999,3.08068,0.00000,1.76238,2.02383,2.01412,-1.04936,2.60498,3.05339,-1.05006,2.59455,1.95208,1.95208,57.68784,11.98130,57.68783893,11.98129651,A,143325.70
18:23:06.200992,3.11630,0.01258,1.87190,1.87190,[5.00000 0.00000 0.00000],[1.30000 0.00000 0.00000],-0.02273,-0.01670,0.03167,0.00000,0.00000,0.01326,-0.00918,0.30085,-0.01629,0.95520,3.10618,0.00000,1.78428,2.01403,2.00432,-1.06566,2.63871,3.05339,-1.05006,2.59455,1.95208,1.95208,57.68784,11.98130,57.68783923,11.98129624,A,143325.70
18:23:06.223072,3.13837,0.00995,1.87190,1.87190,[5.00000 0.00000 0.00000],[1.30000 0.00000 0.00000],-0.02202,-0.01670,0.03243,0.00000,0.00000,-0.01972,-0.00384,0.02123,-0.00311,0.99863,3.12869,0.00000,1.80180,2.00580,1.99609,-1.07763,2.66405,3.05339,-1.05006,2.59455,1.95208,1.95208,57.68784,11.98130,57.68783946,11.98129604,A,143325.70
18:23:06.234675,3.14997,0.01060,1.87190,1.87190,[5.00000 0.00000 0.00000],[1.30000 0.00000 0.00000],-0.02205,-0.01670,0.03595,0.00000,0.00000,-0.00461,0.00151,0.02336,-0.03044,1.00680,3.13974,0.00000,1.81582,1.99901,1.98930,-1.08218,2.67365,3.05339,-1.05006,2.59455,1.95208,1.95208,57.68784,11.98130,57.68783954,11.98129596,A,143325.70
18:23:06.285905,3.20121,0.03781,1.87190,1.87190,[5.00000 0.00000 0.00000],[1.30000 0.00000 0.00000],-0.02199,-0.01670,0.02846,0.00000,0.00000,0.00883,0.00380,0.20185,-0.04447,0.96020,3.16510,0.00244,1.82704,2.00121,1.99150,-1.12324,2.76468,3.19623,-1.19865,2.90960,2.01150,2.01150,57.68784,11.98129,57.68784036,11.98129527,A,143325.90
18:23:06.308907,3.22421,0.01226,1.86190,1.86190,[5.00000 0.00000 0.00000],[1.30000 0.00000 0.00000],-0.02090,-0.01670,0.02587,0.00000,0.00000,-0.00506,-0.00903,0.33330,-0.01049,0.91116,3.21319,0.00000,1.83401,2.00377,1.99406,-1.14105,2.80330,3.19623,-1.19865,2.90960,2.01150,2.01150,57.68784,11.98129,57.68784071,11.98129497,A,143325.90
18:23:06.331123,3.24640,0.01183,1.86190,1.86190,[5.00000 0.00000 0.00000],[1.30000 0.00000 0.00000],-0.02092,-0.01670,0.01915,0.00000,0.00000,-0.03469,-0.01285,0.06442,-0.03087,1.04237,3.23504,0.00000,1.83959,2.00599,1.99628,-1.15648,2.83648,3.19623,-1.19865,2.90960,2.01150,2.01150,57.68784,11.98129,57.68784101,11.98129471,A,143325.90
18:23:06.356324,3.27163,0.01400,1.86190,1.86190,[5.00000 0.00000 0.00000],[1.30000 0.00000 0.00000],-0.02103,-0.01670,0.02694,0.00000,0.00000,0.01143,-0.00552,0.06997,-0.05405,1.00668,3.26033,0.00000,1.84405,2.00778,1.99807,-1.17427,2.87473,3.19623,-1.19865,2.90960,2.01150,2.01150,57.68784,11.98129,57.68784135,11.98129441,A,143325.90
18:23:06.382786,3.29808,0.01458,2.19649,2.19649,[5.00000 0.00000 0.00000],[1.30000 0.00000 0.00000],-0.02074,-0.01670,0.00754,0.00000,0.00000,-0.01132,0.00395,0.09083,0.00220,0.92500,3.28696,0.00977,1.91454,2.00929,1.99958,-1.19145,2.91155,3.19623,-1.19865,2.90960,2.01150,2.01150,57.68784,11.98129,57.68784168,11.98129412,A,143325.90
18:23:06.422485,3.33777,0.02737,2.19649,2.19649,[5.00000 0.00000 0.00000],[1.30000 0.00000 0.00000],-0.02039,-0.01670,0.01121,0.00000,0.00000,-0.01270,-0.00033,0.07161,0.00152,0.98765,3.31277,0.00000,1.97093,2.02379,2.01408,-1.22655,2.98478,3.33272,-1.30762,3.09493,2.10233,2.10233,57.68784,11.98129,57.68784234,11.98129353,A,143326.00
18:23:06.448347,3.36287,0.01233,2.19649,2.19649,[5.00000 0.00000 0.00000],[1.30000 0.00000 0.00000],-0.02107,-0.01670,-0.01109,0.00000,0.00000,0.00654,-0.03912,0.07533,-0.01818,1.01101,3.35372,0.00000,2.01604,2.03647,2.02676,-1.24917,3.02940,3.33272,-1.30762,3.09493,2.10233,2.10233,57.68784,11.98129,57.68784274,11.98129315,A,143326.00
18:23:06.475760,3.39107,0.01384,2.19649,2.19649,[5.00000 0.00000 0.00000],[1.30000 0.00000 0.00000],-0.02120,-0.01670,-0.02346,0.00000,0.00000,-0.01316,-0.04385,0.11499,0.02519,0.90030,3.37997,0.00000,2.05213,2.04720,2.03749,-1.27238,3.07404,3.33272,-1.30762,3.09493,2.10233,2.10233,57.68784,11.98129,57.68784315,11.98129276,A,143326.00
18:23:06.499641,3.41494,0.01230,2.15745,2.15745,[5.00000 0.00000 0.00000],[1.30000 0.00000 0.00000],-0.02195,-0.01670,-0.01735,0.00000,0.00000,-0.02950,-0.03682,0.01177,-0.02599,1.05829,3.40471,0.00244,2.07319,2.05642,2.04671,-1.29189,3.11031,3.33272,-1.30762,3.09493,2.10233,2.10233,57.68784,11.98129,57.68784347,11.98129243,A,143326.00
18:23:06.540329,3.45563,0.02791,2.15745,2.15745,[5.00000 0.00000 0.00000],[1.30000 0.00000 0.00000],-0.02242,-0.01695,-0.01338,0.00000,0.00000,0.01082,-0.03163,0.01690,-0.01360,1.01345,3.42974,0.00000,2.09004,2.03324,2.02338,-1.33120,3.18775,3.45061,-1.37696,3.29878,1.89868,1.89868,57.68785,11.98129,57.68784417,11.98129177,A,143326.10
18:23:06.564914,3.48021,0.01287,2.15745,2.15745,[5.00000 0.00000 0.00000],[1.30000 0.00000 0.00000],-0.02324,-0.01786,0.01319,0.00000,0.00000,0.00105,-0.03194,0.13579,-0.08766,0.93873,3.46838,0.00244,2.10353,2.01407,2.00368,-1.35160,3.23055,3.45061,-1.37696,3.29878,1.89868,1.89868,57.68785,11.98129,57.68784455,11.98129143,A,143326.10
18:23:06.591761,3.50703,0.01292,2.62405,2.62405,[5.00000 0.00000 0.00000],[1.30000 0.00000 0.00000],-0.02244,-0.01786,0.00785,0.00000,0.00000,-0.02629,-0.03224,0.04709,0.03123,1.02651,3.49601,0.00000,2.20763,1.99766,1.98727,-1.37283,3.27716,3.45061,-1.37696,3.29878,1.89868,1.89868,57.68785,11.98129,57.68784497,11.98129107,A,143326.10
18:23:06.620638,3.53594,0.01453,2.62405,2.62405,[5.00000 0.00000 0.00000],[1.30000 0.00000 0.00000],-0.02067,-0.01786,0.02449,0.00000,0.00000,0.00547,-0.02430,0.12346,0.06783,1.06616,3.52515,0.00000,2.29091,1.98361,1.97323,-1.39498,3.32785,3.45061,-1.37696,3.29878,1.89868,1.89868,57.68785,11.98129,57.68784543,11.98129070,A,143326.10
18:23:06.672781,3.58809,0.03920,2.62405,2.62405,[5.00000 0.00000 0.00000],[1.30000 0.00000 0.00000],-0.01993,-0.01786,0.01197,0.00000,0.00000,-0.00598,-0.02232,0.14939,0.02050,0.96417,3.55280,0.00488,2.35754,1.98569,1.97530,-1.44568,3.44637,3.58313,-1.54537,3.66943,1.99726,1.99726,57.68785,11.98129,57.68784649,11.98128984,A,143326.30
18:23:06.699590,3.61489,0.01402,2.62405,2.62405,[5.00000 0.00000 0.00000],[1.30000 0.00000 0.00000],-0.01928,-0.01792,0.01930,0.00000,0.00000,0.00700,-0.04507,0.07290,-0.02757,1.05140,3.60343,0.00488,2.41084,1.98826,1.97785,-1.47109,3.50522,3.58313,-1.54537,3.66943,1.99726,1.99726,57.68785,11.98129,57.68784702,11.98128942,A,143326.30
18:23:06.722994,3.63829,0.01285,1.93058,1.93058,[5.00000 0.00000 0.00000],[1.30000 0.00000 0.00000],-0.01908,-0.01854,0.02098,0.00000,0.00000,0.02044,-0.04217,0.12615,-0.02007,0.96258,3.62813,0.00244,2.31479,1.99061,1.97983,-1.49244,3.55434,3.58313,-1.54537,3.66943,1.99726,1.99726,57.68785,11.98129,57.68784746,11.98128906,A,143326.30
18:23:06.750605,3.66590,0.01368,1.93058,1.93058,[5.00000 0.00000 0.00000],[1.30000 0.00000 0.00000],-0.01902,-0.02007,0.01411,0.00000,0.00000,-0.01591,-0.03759,0.05520,-0.02184,0.94721,3.65563,0.00488,2.23795,1.99257,1.98091,-1.51671,3.60999,3.58313,-1.54537,3.66943,1.99726,1.99726,57.68785,11.98129,57.68784797,11.98128865,A,143326.30
18:23:06.791246,3.70657,0.02822,1.93058,1.93058,[5.00000 0.00000 0.00000],[1.30000 0.00000 0.00000],-0.01872,-0.02193,0.01670,0.00000,0.00000,-0.02079,-0.03698,-0.01665,-0.00897,1.05036,3.68117,0.00000,2.17647,2.00357,1.99081,-1.55544,3.69683,3.70115,-1.63452,3.83622,2.06169,2.06169,57.68785,11.98129,57.68784875,11.98128800,A,143326.40
18:23:06.815805,3.73111,0.01398,2.51168,2.51168,[5.00000 0.00000 0.00000],[1.30000 0.00000 0.00000],-0.01875,-0.02290,0.00250,0.00000,0.00000,0.01708,-0.04721,0.06496,-0.01446,0.95441,3.72070,0.00977,2.24352,2.01354,2.00023,-1.57714,3.74354,3.70115,-1.63452,3.83622,2.06169,2.06169,57.68785,11.98129,57.68784917,11.98128763,A,143326.40
18:23:06.846519,3.76172,0.01468,2.51168,2.51168,[5.00000 0.00000 0.00000],[1.30000 0.00000 0.00000],-0.01932,-0.02290,-0.00116,0.00000,0.00000,-0.01652,-0.05011,0.11444,-0.04032,0.94141,3.75027,0.00733,2.29715,2.02177,2.00846,-1.60311,3.79861,3.70115,-1.63452,3.83622,2.06169,2.06169,57.68785,11.98129,57.68784966,11.98128720,A,143326.40
18:23:06.871596,3.78690,0.01267,2.51168,2.51168,[5.00000 0.00000 0.00000],[1.30000 0.00000 0.00000],-0.02009,-0.02290,0.00342,0.00000,0.00000,-0.00720,-0.04110,0.09278,-0.06692,1.05188,3.77658,0.00488,2.34006,2.02885,2.01553,-1.62626,3.84661,3.70115,-1.63452,3.83622,2.06169,2.06169,57.68785,11.98129,57.68785009,11.98128681,A,143326.40
18:23:06.914578,3.82988,0.02920,2.51168,2.51168,[5.00000 0.00000 0.00000],[1.30000 0.00000 0.00000],-0.02024,-0.02290,0.00800,0.00000,0.00000,0.03464,-0.03514,-0.00610,-0.03251,1.01016,3.80415,0.00733,2.37438,2.00586,1.99254,-1.66920,3.93917,3.82445,-1.70387,4.05861,1.87305,1.87305,57.68785,11.98129,57.68785093,11.98128608,A,143326.50
18:23:06.941117,3.85641,0.01452,2.09577,2.09577,[5.00000 0.00000 0.00000],[1.30000 0.00000 0.00000],-0.02020,-0.02290,0.01334,0.00000,0.00000,0.01235,-0.03957,0.14914,-0.03611,0.97203,3.84502,0.00733,2.31866,1.98704,1.97373,-1.69145,3.99087,3.82445,-1.70387,4.05861,1.87305,1.87305,57.68785,11.98129,57.68785139,11.98128571,A,143326.50
18:23:06.965626,3.88093,0.01098,2.09577,2.09577,[5.00000 0.00000 0.00000],[1.30000 0.00000 0.00000],-0.01985,-0.02290,0.01716,0.00000,0.00000,0.03495,-0.03301,0.11651,-0.00897,0.97746,3.87008,0.00488,2.27408,1.97107,1.95775,-1.71132,4.03942,3.82445,-1.70387,4.05861,1.87305,1.87305,57.68785,11.98129,57.68785183,11.98128537,A,143326.50
18:23:06.991247,3.90652,0.01247,2.09577,2.09577,[5.00000 0.00000 0.00000],[1.30000 0.00000 0.00000],-0.02005,-0.02290,0.02373,0.00000,0.00000,0.03571,-0.01697,0.02074,-0.06082,1.02901,3.89729,0.00488,2.23842,1.95749,1.94417,-1.72951,4.08592,3.82445,-1.70387,4.05861,1.87305,1.87305,57.68785,11.98129,57.68785225,11.98128507,A,143326.50
18:23:07.036503,3.95181,0.02952,2.60533,2.60533,[5.00000 0.00000 0.00000],[1.30000 0.00000 0.00000],-0.01857,-0.02250,0.03320,0.00000,0.00000,0.04869,-0.00613,0.11163,0.03129,0.99528,3.92435,0.00244,2.31180,1.97949,1.96641,-1.76819,4.18194,3.94697,-1.81284,4.24394,2.10233,2.10233,57.68785,11.98128,57.68785311,11.98128442,A,143326.60
18:23:07.064268,3.97957,0.01519,2.60533,2.60533,[5.00000 0.00000 0.00000],[1.30000 0.00000 0.00000],-0.01717,-0.01517,0.04786,0.00000,0.00000,-0.02980,-0.00262,0.13463,-0.04862,1.00741,3.96863,0.01465,2.37051,1.99835,1.98953,-1.79003,4.23199,3.94697,-1.81284,4.24394,2.10233,2.10233,57.68785,11.98128,57.68785356,11.98128405,A,143326.60
18:23:07.085514,4.00082,0.01023,2.60533,2.60533,[5.00000 0.00000 0.00000],[1.30000 0.00000 0.00000],-0.01604,-0.01019,0.05595,0.00000,0.00000,-0.03790,-0.00307,0.08522,-0.00476,0.99979,3.99082,0.01465,2.41747,2.01434,2.00841,-1.80834,4.27117,3.94697,-1.81284,4.24394,2.10233,2.10233,57.68785,11.98128,57.68785391,11.98128374,A,143326.60
18:23:07.115452,4.03076,0.01304,2.49544,2.49544,[5.00000 0.00000 0.00000],[1.30000 0.00000 0.00000],-0.01299,-0.00546,0.07565,0.00000,0.00000,0.00639,0.02380,0.11285,0.05636,0.89908,4.02025,0.00733,2.43307,2.02754,2.02437,-1.83366,4.32344,3.94697,-1.81284,4.24394,2.10233,2.10233,57.68785,11.98128,57.68785438,11.98128332,A,143326.60
18:23:07.167474,4.08278,0.03772,2.49544,2.49544,[5.00000 0.00000 0.00000],[1.30000 0.00000 0.00000],-0.01237,-0.00374,0.06557,0.00000,0.00000,-0.01881,0.03342,0.07552,-0.06411,0.94276,4.04786,0.00244,2.44554,2.01021,2.00804,-1.89150,4.44623,4.07794,-1.97134,4.68872,1.91312,1.91312,57.68786,11.98128,57.68785549,11.98128234,A,143326.80
18:23:07.193103,4.10840,0.01452,2.49544,2.49544,[5.00000 0.00000 0.00000],[1.30000 0.00000 0.00000],-0.01143,-0.00357,0.02358,0.00000,0.00000,-0.00766,-0.02797,0.07003,-0.00250,0.99912,4.09669,0.00733,2.45552,1.99582,1.99375,-1.91589,4.50201,4.07794,-1.97134,4.68872,1.91312,1.91312,57.68786,11.98128,57.68785599,11.98128193,A,143326.80
18:23:07.217445,4.13274,0.01285,2.34968,2.34968,[5.00000 0.00000 0.00000],[1.30000 0.00000 0.00000],-0.00933,-0.00359,-0.00529,0.00000,0.00000,-0.00125,-0.02980,0.07229,0.16000,0.98826,4.12221,0.01954,2.43435,1.98359,1.98150,-1.93859,4.55560,4.07794,-1.97134,4.68872,1.91312,1.91312,57.68786,11.98128,57.68785647,11.98128155,A,143326.80
18:23:07.246483,4.16177,0.01345,2.34968,2.34968,[5.00000 0.00000 0.00000],[1.30000 0.00000 0.00000],-0.01092,-0.00509,-0.00590,0.00000,0.00000,-0.04202,-0.02720,0.00085,-0.07997,0.97301,4.15096,0.00244,2.41742,1.97330,1.97034,-1.96343,4.61554,4.07794,-1.97134,4.68872,1.91312,1.91312,57.68786,11.98128,57.68785701,11.98128113,A,143326.80
18:23:07.286517,4.20181,0.02695,2.34968,2.34968,[5.00000 0.00000 0.00000],[1.30000 0.00000 0.00000],-0.01004,-0.00877,-0.01888,0.00000,0.00000,-0.04798,-0.01422,-0.14561,0.10644,1.05621,4.17651,0.01221,2.40387,1.98118,1.97608,-2.00416,4.71320,4.19671,-2.07040,4.89258,2.02313,2.02313,57.68786,11.98128,57.68785789,11.98128045,A,143326.90
18:23:07.312311,4.22762,0.01255,2.71252,2.71252,[5.00000 0.00000 0.00000],[1.30000 0.00000 0.00000],-0.01135,-0.01288,-0.03415,0.00000,0.00000,-0.01698,-0.02186,-0.00537,0.00952,0.98112,4.21715,0.01221,2.46560,1.98824,1.98075,-2.02831,4.77074,4.19671,-2.07040,4.89258,2.02313,2.02313,57.68786,11.98128,57.68785840,11.98128004,A,143326.90
18:23:07.339621,4.25493,0.01416,2.71252,2.71252,[5.00000 0.00000 0.00000],[1.30000 0.00000 0.00000],-0.01191,-0.01378,-0.04576,0.00000,0.00000,-0.00277,-0.03255,0.04740,0.04673,0.95447,4.24438,0.00977,2.51498,1.99413,1.98612,-2.05205,4.82660,4.19671,-2.07040,4.89258,2.02313,2.02313,57.68786,11.98128,57.68785891,11.98127964,A,143326.90
18:23:07.359836,4.27514,0.01159,2.71252,2.71252,[5.00000 0.00000 0.00000],[1.30000 0.00000 0.00000],-0.01474,-0.01576,-0.03751,0.00000,0.00000,-0.01255,-0.05393,0.12255,-0.12694,0.95014,4.26577,0.00733,2.55449,1.99941,1.99025,-2.06962,4.86767,4.19671,-2.07040,4.89258,2.02313,2.02313,57.68786,11.98128,57.68785928,11.98127935,A,143326.90
18:23:07.401390,4.31670,0.02883,2.71252,2.71252,[5.00000 0.00000 0.00000],[1.30000 0.00000 0.00000],-0.01621,-0.01942,-0.06149,0.00000,0.00000,-0.01881,-0.06248,0.05362,0.00116,1.00260,4.29096,0.00244,2.58610,1.99747,1.98618,-2.11362,4.96770,4.31172,-2.15955,5.09643,1.98308,1.98308,57.68786,11.98128,57.68786018,11.98127861,A,143327.00
18:23:07.427608,4.34290,0.01258,2.57453,2.57453,[5.00000 0.00000 0.00000],[1.30000 0.00000 0.00000],-0.01770,-0.02176,-0.03247,0.00000,0.00000,0.00227,-0.04324,0.07796,-0.01330,1.03493,4.33288,0.00733,2.58378,1.99637,1.98371,-2.13826,5.02479,4.31172,-2.15955,5.09643,1.98308,1.98308,57.68786,11.98128,57.68786069,11.98127819,A,143327.00
18:23:07.453603,4.36890,0.01356,2.57453,2.57453,[5.00000 0.00000 0.00000],[1.30000 0.00000 0.00000],-0.01852,-0.02176,-0.02743,0.00000,0.00000,-0.01331,-0.03438,0.22521,-0.01385,0.88163,4.35823,0.00488,2.58193,1.99535,1.98269,-2.16131,5.07857,4.31172,-2.15955,5.09643,1.98308,1.98308,57.68786,11.98128,57.68786117,11.98127780,A,143327.00
18:23:07.481472,4.39678,0.01376,2.57453,2.57453,[5.00000 0.00000 0.00000],[1.30000 0.00000 0.00000],-0.01908,-0.02176,-0.02560,0.00000,0.00000,-0.01743,-0.03713,-0.01427,0.00262,0.95630,4.38619,0.00977,2.58045,1.99434,1.98169,-2.18634,5.13694,4.31172,-2.15955,5.09643,1.98308,1.98308,57.68786,11.98128,57.68786170,11.98127738,A,143327.00
18:23:07.521924,4.43723,0.02723,2.99433,2.99433,[5.00000 0.00000 0.00000],[1.30000 0.00000 0.00000],-0.01935,-0.02176,-0.02346,0.00000,0.00000,0.02960,-0.04110,0.09388,0.01336,1.09208,4.41177,0.00977,2.66323,1.99943,1.98678,-2.22855,5.23350,4.43243,-2.26852,5.31882,2.02640,2.02640,57.68786,11.98128,57.68786257,11.98127667,A,143327.10
18:23:07.548102,4.46340,0.01457,2.99433,2.99433,[5.00000 0.00000 0.00000],[1.30000 0.00000 0.00000],-0.02016,-0.02176,-0.01766,0.00000,0.00000,0.01907,-0.03728,0.09528,-0.01781,0.90847,4.45219,0.01221,2.72945,2.00445,1.99179,-2.25276,5.28804,4.43243,-2.26852,5.31882,2.02640,2.02640,57.68786,11.98128,57.68786306,11.98127627,A,143327.10
18:23:07.573167,4.48847,0.01368,2.99433,2.99433,[5.00000 0.00000 0.00000],[1.30000 0.00000 0.00000],-0.02020,-0.02176,-0.00178,0.00000,0.00000,-0.02476,-0.03820,-0.01873,-0.01171,1.00924,4.47803,0.01465,2.78242,2.00867,1.99602,-2.27688,5.34168,4.43243,-2.26852,5.31882,2.02640,2.02640,57.68786,11.98128,57.68786354,11.98127586,A,143327.10
18:23:07.599221,4.51449,0.01265,2.22418,2.22418,[5.00000 0.00000 0.00000],[1.30000 0.00000 0.00000],-0.02062,-0.02176,0.01426,0.00000,0.00000,0.01662,-0.02583,0.02532,-0.05893,1.01589,4.50531,0.00244,2.67077,2.01219,1.99953,-2.30180,5.39649,4.43243,-2.26852,5.31882,2.02640,2.02640,57.68786,11.98128,57.68786403,11.98127544,A,143327.10
18:23:07.637862,4.55317,0.02628,2.22418,2.22418,[5.00000 0.00000 0.00000],[1.30000 0.00000 0.00000],-0.01921,-0.02176,0.02037,0.00000,0.00000,0.00395,-0.01621,0.18465,0.04941,0.86766,4.52852,0.00977,2.58145,2.00910,1.99645,-2.34524,5.49156,4.54833,-2.36758,5.54121,1.98985,1.98985,57.68787,11.98127,57.68786489,11.98127471,A,143327.20
18:23:07.663175,4.57847,0.01243,2.22418,2.22418,[5.00000 0.00000 0.00000],[1.30000 0.00000 0.00000],-0.01676,-0.02106,0.04175,0.00000,0.00000,-0.02629,-0.00643,0.00537,0.05661,1.07756,4.56803,0.01954,2.51000,2.00718,1.99493,-2.36766,5.54104,4.54833,-2.36758,5.54121,1.98985,1.98985,57.68787,11.98127,57.68786533,11.98127433,A,143327.20
18:23:07.689596,4.60490,0.01260,2.80664,2.80664,[5.00000 0.00000 0.00000],[1.30000 0.00000 0.00000],-0.01566,-0.01786,0.05244,0.00000,0.00000,0.02319,-0.00139,-0.02959,-0.02135,1.05469,4.59410,0.01954,2.56933,2.00522,1.99484,-2.39069,5.59206,4.54833,-2.36758,5.54121,1.98985,1.98985,57.68787,11.98127,57.68786579,11.98127394,A,143327.20
18:23:07.716693,4.63199,0.01335,2.80664,2.80664,[5.00000 0.00000 0.00000],[1.30000 0.00000 0.00000],-0.01432,-0.01497,0.05458,0.00000,0.00000,-0.01102,-0.00384,0.08595,-0.00762,0.95331,4.62102,0.00977,2.61679,2.00346,1.99475,-2.41213,5.63957,4.54833,-2.36758,5.54121,1.98985,1.98985,57.68787,11.98127,57.68786622,11.98127358,A,143327.20
18:23:07.765556,4.68086,0.03793,2.80664,2.80664,[5.00000 0.00000 0.00000],[1.30000 0.00000 0.00000],-0.01403,-0.01409,0.05687,0.00000,0.00000,-0.01621,-0.01132,-0.02843,-0.07674,1.11697,4.64509,0.02930,2.65476,1.99845,1.99025,-2.46846,5.76578,4.67605,-2.55580,5.98599,1.97112,1.97112,57.68787,11.98127,57.68786735,11.98127264,A,143327.40
18:23:07.792146,4.70745,0.01266,2.28951,2.28951,[5.00000 0.00000 0.00000],[1.30000 0.00000 0.00000],-0.01220,-0.01409,0.05168,0.00000,0.00000,0.02029,-0.00460,0.02214,-0.04691,0.92537,4.69701,0.00488,2.58171,1.99494,1.98674,-2.49648,5.82984,4.67605,-2.55580,5.98599,1.97112,1.97112,57.68787,11.98127,57.68786793,11.98127216,A,143327.40
18:23:07.817618,4.73292,0.01258,2.28951,2.28951,[5.00000 0.00000 0.00000],[1.30000 0.00000 0.00000],-0.01127,-0.01409,0.03411,0.00000,0.00000,0.01678,-0.00262,0.02519,0.01128,0.98491,4.72241,0.00244,2.52327,1.99202,1.98382,-2.52060,5.88554,4.67605,-2.55580,5.98599,1.97112,1.97112,57.68787,11.98127,57.68786843,11.98127176,A,143327.40
18:23:07.844229,4.75953,0.01444,2.28951,2.28951,[5.00000 0.00000 0.00000],[1.30000 0.00000 0.00000],-0.01031,-0.01409,0.02113,0.00000,0.00000,0.04213,-0.02445,0.02074,0.03739,1.06225,4.74853,0.02442,2.47652,1.98951,1.98131,-2.54463,5.94137,4.67605,-2.55580,5.98599,1.97112,1.97112,57.68787,11.98127,57.68786893,11.98127135,A,143327.40
18:23:07.882657,4.79795,0.02734,2.28951,2.28951,[5.00000 0.00000 0.00000],[1.30000 0.00000 0.00000],-0.01071,-0.01409,0.00555,0.00000,0.00000,0.03724,-0.02904,-0.02599,-0.02836,1.05146,4.77229,0.04151,2.43912,1.98015,1.97195,-2.58406,6.03473,4.79277,-2.64496,6.22692,1.92523,1.92523,57.68787,11.98127,57.68786977,11.98127069,A,143327.50
18:23:07.906870,4.82217,0.01300,2.86304,2.86304,[5.00000 0.00000 0.00000],[1.30000 0.00000 0.00000],-0.00961,-0.01409,0.01227,0.00000,0.00000,-0.06661,-0.01514,0.11010,0.04605,0.98375,4.81030,0.01221,2.52390,1.97260,1.96440,-2.60639,6.08980,4.79277,-2.64496,6.22692,1.92523,1.92523,57.68787,11.98127,57.68787027,11.98127032,A,143327.50
18:23:07.932939,4.84823,0.01122,2.86304,2.86304,[5.00000 0.00000 0.00000],[1.30000 0.00000 0.00000],-0.01011,-0.01409,0.00067,0.00000,0.00000,-0.04324,-0.02018,0.14128,-0.02867,0.99320,4.83768,0.03175,2.59173,1.96610,1.95790,-2.63005,6.14898,4.79277,-2.64496,6.22692,1.92523,1.92523,57.68787,11.98127,57.68787080,11.98126992,A,143327.50
18:23:07.957885,4.87319,0.01402,2.86304,2.86304,[5.00000 0.00000 0.00000],[1.30000 0.00000 0.00000],-0.00984,-0.01409,-0.00422,0.00000,0.00000,-0.01194,-0.02552,-0.22387,0.02971,1.00705,4.86151,0.04151,2.64599,1.96062,1.95242,-2.65091,6.20221,4.79277,-2.64496,6.22692,1.92523,1.92523,57.68787,11.98127,57.68787128,11.98126957,A,143327.50
18:23:07.997273,4.91258,0.02777,2.64118,2.64118,[5.00000 0.00000 0.00000],[1.30000 0.00000 0.00000],-0.01082,-0.01409,-0.00223,0.00000,0.00000,0.02838,-0.03606,0.00293,-0.05429,0.97783,4.88789,0.00977,2.64503,1.96519,1.95699,-2.69099,6.30285,4.90775,-2.74402,6.44931,1.98985,1.98985,57.68787,11.98127,57.68787218,11.98126889,A,143327.60
18:23:08.022454,4.93749,0.01313,2.64118,2.64118,[5.00000 0.00000 0.00000],[1.30000 0.00000 0.00000],-0.01117,-0.01409,-0.01094,0.00000,0.00000,-0.00033,-0.01315,0.04136,0.01135,1.09257,4.92527,0.02198,2.64426,1.96957,1.96137,-2.71241,6.35632,4.90775,-2.74402,6.44931,1.98985,1.98985,57.68787,11.98127,57.68787266,11.98126853,A,143327.60
18:23:08.049118,4.96372,0.01325,2.64118,2.64118,[5.00000 0.00000 0.00000],[1.30000 0.00000 0.00000],-0.01091,-0.01409,-0.01842,0.00000,0.00000,0.00838,-0.02293,0.03788,0.05624,1.01089,4.95284,0.02686,2.64364,1.97321,1.96501,-2.73610,6.41467,4.90775,-2.74402,6.44931,1.98985,1.98985,57.68787,11.98127,57.68787319,11.98126813,A,143327.60
18:23:08.073922,4.98922,0.01330,2.52205,2.52205,[5.00000 0.00000 0.00000],[1.30000 0.00000 0.00000],-0.01078,-0.01409,-0.01766,0.00000,0.00000,-0.01163,-0.02171,-0.01854,0.04404,0.96892,4.97928,0.02930,2.61932,1.97629,1.96809,-2.75913,6.47082,4.90775,-2.74402,6.44931,1.98985,1.98985,57.68787,11.98127,57.68787369,11.98126775,A,143327.60
18:23:08.117008,5.03231,0.02886,2.52205,2.52205,[5.00000 0.00000 0.00000],[1.30000 0.00000 0.00000],-0.01114,-0.01409,-0.03461,0.00000,0.00000,-0.03652,-0.01682,0.01257,0.04429,0.98137,5.00696,0.01221,2.59987,1.96873,1.96054,-2.80253,6.57640,5.02701,-2.83318,6.69023,1.92523,1.92523,57.68788,11.98127,57.68787464,11.98126702,A,143327.70
18:23:08.143127,5.05844,0.01647,2.52205,2.52205,[5.00000 0.00000 0.00000],[1.30000 0.00000 0.00000],0.00000,-0.01409,-0.00636,0.00000,0.00000,0.01387,-0.00369,-0.06997,-0.14744,1.07232,5.04402,0.03419,2.52205,1.97957,1.97138,-2.83318,6.69023,5.02701,-2.83318,6.69023,1.92523,1.92523,57.68788,11.98127,57.68787506,11.98126671,A,143327.70
18:23:08.172976,5.08828,0.01461,2.76207,2.76207,[5.00000 0.00000 0.00000],[1.30000 0.00000 0.00000],-0.00080,-0.01756,-0.02056,0.10801,0.00000,0.01250,-0.00353,0.04630,0.00146,0.88102,5.07607,0.01221,2.57005,1.97216,1.96194,-2.86156,6.75726,5.02701,-2.83318,6.69023,1.92523,1.92523,57.68788,11.98127,57.68787627,11.98126602,A,143327.70
18:23:08.196502,5.11180,0.01249,2.76207,2.76207,[5.00000 0.00000 0.00000],[1.30000 0.00000 0.00000],-0.00124,-0.01756,-0.00926,0.05432,0.00000,-0.01713,-0.00521,0.03068,-0.00159,0.96081,5.10082,0.00488,2.60845,1.96598,1.95577,-2.87884,6.79925,5.02701,-2.83318,6.69023,1.92523,1.92523,57.68788,11.98127,57.68787665,11.98126573,A,143327.70
18:23:08.239167,5.15447,0.02956,2.76207,2.76207,[5.00000 0.00000 0.00000],[1.30000 0.00000 0.00000],-0.00232,-0.01754,-0.02148,0.12246,0.00000,-0.00369,-0.01086,-0.08174,-0.02257,1.09184,5.12814,0.00977,2.63918,1.96537,1.95518,-2.91923,6.89894,5.14911,-2.93224,6.93115,1.96090,1.96090,57.68788,11.98126,57.68787754,11.98126505,A,143327.80
18:23:08.262593,5.17739,0.01119,2.71577,2.71577,[5.00000 0.00000 0.00000],[1.30000 0.00000 0.00000],-0.00362,-0.01621,-0.02835,0.16527,0.00000,0.02258,0.00029,0.06130,-0.00342,0.97508,5.16635,0.00000,2.65450,1.96547,1.95605,-2.93770,6.94459,5.14911,-2.93224,6.93115,1.96090,1.96090,57.68788,11.98126,57.68787795,11.98126474,A,143327.80
18:23:08.289571,5.20487,0.01398,2.71577,2.71577,[5.00000 0.00000 0.00000],[1.30000 0.00000 0.00000],-0.00383,-0.01281,-0.02148,0.13227,0.00000,0.01067,0.01327,0.04685,0.03782,0.97081,5.19473,0.00000,2.66675,1.96508,1.95763,-2.96184,7.00412,5.14911,-2.93224,6.93115,1.96090,1.96090,57.68788,11.98126,57.68787849,11.98126434,A,143327.80
18:23:08.315018,5.23028,0.01474,2.71577,2.71577,[5.00000 0.00000 0.00000],[1.30000 0.00000 0.00000],-0.00456,-0.00888,-0.03156,0.18739,0.00000,0.01632,0.01372,-0.05850,0.01714,0.98405,5.21918,0.00488,2.67656,1.96470,1.95954,-2.98036,7.04958,5.14911,-2.93224,6.93115,1.96090,1.96090,57.68788,11.98126,57.68787890,11.98126402,A,143327.80
18:23:08.364772,5.28008,0.03649,3.11904,3.11904,[5.00000 0.00000 0.00000],[1.30000 0.00000 0.00000],-0.00527,-0.00539,-0.02835,0.17602,0.00000,0.05373,0.00135,0.14207,0.01452,1.00022,5.24427,0.00977,2.76505,1.96584,1.96271,-3.03488,7.18161,5.27535,-3.13036,7.39446,1.97489,1.97489,57.68788,11.98126,57.68788009,11.98126311,A,143328.00
18:23:08.390699,5.30600,0.01377,3.11904,3.11904,[5.00000 0.00000 0.00000],[1.30000 0.00000 0.00000],-0.00525,0.00315,-0.02377,0.15293,0.00000,0.02624,0.02289,0.01006,0.09943,0.96209,5.29502,0.00733,2.83585,1.96668,1.96852,-3.06180,7.24585,5.27535,-3.13036,7.39446,1.97489,1.97489,57.68788,11.98126,57.68788066,11.98126265,A,143328.00
18:23:08.413665,5.32898,0.01002,3.11904,3.11904,[5.00000 0.00000 0.00000],[1.30000 0.00000 0.00000],-0.00642,0.00630,-0.01705,0.12697,0.00000,0.04289,0.02075,0.08760,-0.02952,1.09898,5.31957,0.00977,2.89249,1.96750,1.97116,-3.08670,7.30439,5.27535,-3.13036,7.39446,1.97489,1.97489,57.68788,11.98126,57.68788119,11.98126223,A,143328.00
18:23:08.436770,5.35206,0.01315,2.28682,2.28682,[5.00000 0.00000 0.00000],[1.30000 0.00000 0.00000],-0.00752,0.00862,-0.03568,0.22728,0.00000,0.07053,0.02732,-0.01476,-0.00439,1.04999,5.33983,0.00244,2.77136,1.96812,1.97313,-3.10965,7.35796,5.27535,-3.13036,7.39446,1.97489,1.97489,57.68788,11.98126,57.68788167,11.98126185,A,143328.00
18:23:08.461867,5.37717,0.01168,2.28682,2.28682,[5.00000 0.00000 0.00000],[1.30000 0.00000 0.00000],-0.00918,0.01249,-0.01964,0.15789,0.00000,0.01662,0.02915,0.10663,-0.04471,0.85376,5.36686,0.00000,2.67445,1.96846,1.97572,-3.13495,7.41679,5.27535,-3.13036,7.39446,1.97489,1.97489,57.68788,11.98126,57.68788220,11.98126142,A,143328.00
18:23:08.501720,5.41703,0.02752,2.28682,2.28682,[5.00000 0.00000 0.00000],[1.30000 0.00000 0.00000],-0.00806,0.01699,-0.01919,0.14830,0.00000,-0.03179,0.04182,-0.13109,0.12401,0.94940,5.39226,0.00244,2.59692,1.96296,1.97284,-3.17714,7.51607,5.41111,-3.22942,7.65392,1.93552,1.93552,57.68788,11.98126,57.68788309,11.98126071,A,143328.10
18:23:08.529360,5.44466,0.01469,2.86273,2.86273,[5.00000 0.00000 0.00000],[1.30000 0.00000 0.00000],-0.00840,0.02302,0.00510,0.02914,0.00000,0.08932,0.05893,0.07948,-0.00653,1.10056,5.43302,0.00488,2.65008,1.95762,1.97101,-3.20302,7.57767,5.41111,-3.22942,7.65392,1.93552,1.93552,57.68788,11.98126,57.68788365,11.98126028,A,143328.10
18:23:08.551542,5.46683,0.01172,2.86273,2.86273,[5.00000 0.00000 0.00000],[1.30000 0.00000 0.00000],-0.00886,0.02534,0.00800,0.01762,0.00000,0.05068,0.07405,0.05466,-0.00677,0.91561,5.45561,0.02930,2.69261,1.95293,1.96767,-3.22241,7.62420,5.41111,-3.22942,7.65392,1.93552,1.93552,57.68788,11.98126,57.68788407,11.98125995,A,143328.10
18:23:08.579053,5.49380,0.01319,2.86273,2.86273,[5.00000 0.00000 0.00000],[1.30000 0.00000 0.00000],-0.00777,0.02687,0.01395,-0.01925,0.00000,0.00502,0.07893,0.03154,0.08180,0.99686,5.48278,0.01954,2.72664,1.94919,1.96481,-3.24653,7.68241,5.41111,-3.22942,7.65392,1.93552,1.93552,57.68788,11.98126,57.68788459,11.98125955,A,143328.10
18:23:08.621969,5.53727,0.02833,2.86273,2.86273,[5.00000 0.00000 0.00000],[1.30000 0.00000 0.00000],-0.00674,0.02701,0.02556,-0.08397,0.00000,0.02411,0.08245,-0.04343,0.05484,0.99424,5.51187,0.02442,2.75386,1.95526,1.97097,-3.29343,7.79504,5.53240,-3.32849,7.87631,1.98985,1.98985,57.68789,11.98126,57.68788560,11.98125876,A,143328.20
18:23:08.641748,5.55705,0.01034,2.35328,2.35328,[5.00000 0.00000 0.00000],[1.30000 0.00000 0.00000],-0.00508,0.02681,0.02174,-0.07569,0.00000,0.06732,0.08046,0.03257,0.08412,0.92824,5.54798,0.13431,2.67374,1.95909,1.97469,-3.31341,7.84221,5.53240,-3.32849,7.87631,1.98985,1.98985,57.68789,11.98126,57.68788603,11.98125842,A,143328.20
18:23:08.664517,5.57981,0.01262,2.35328,2.35328,[5.00000 0.00000 0.00000],[1.30000 0.00000 0.00000],-0.00475,0.02540,0.02571,-0.09768,0.00000,0.03877,0.07130,0.08516,0.01806,0.98613,5.56873,0.08303,2.60965,1.96250,1.97727,-3.33320,7.88845,5.53240,-3.32849,7.87631,1.98985,1.98985,57.68789,11.98126,57.68788644,11.98125809,A,143328.20
18:23:08.690878,5.60618,0.01333,2.35328,2.35328,[5.00000 0.00000 0.00000],[1.30000 0.00000 0.00000],-0.00345,0.02282,0.03549,-0.15500,0.00000,0.00441,0.08413,0.05948,0.06326,1.11276,5.59412,0.10745,2.55838,1.96585,1.97912,-3.35762,7.94513,5.53240,-3.32849,7.87631,1.98985,1.98985,57.68789,11.98126,57.68788695,11.98125768,A,143328.20
18:23:08.719095,5.63438,0.01498,2.92067,2.92067,[5.00000 0.00000 0.00000],[1.30000 0.00000 0.00000],-0.00262,0.01980,0.04099,-0.18788,0.00000,-0.01881,0.09619,0.03611,0.01366,0.95935,5.62268,0.46642,2.63084,1.96875,1.98026,-3.37922,7.99498,5.53240,-3.32849,7.87631,1.98985,1.98985,57.68789,11.98126,57.68788740,11.98125731,A,143328.20
18:23:08.771901,5.68720,0.03972,2.92067,2.92067,[5.00000 0.00000 0.00000],[1.30000 0.00000 0.00000],-0.00113,0.01496,0.03701,-0.17772,0.00000,-0.04416,0.09879,-0.06808,0.05496,0.87511,5.65180,0.58364,2.68880,1.97606,1.98476,-3.44115,8.13542,5.68243,-3.55633,8.35815,2.01249,2.01249,57.68789,11.98125,57.68788866,11.98125627,A,143328.40
18:23:08.796747,5.71203,0.01427,2.75285,2.75285,[5.00000 0.00000 0.00000],[1.30000 0.00000 0.00000],-0.00100,0.00474,0.00769,-0.03194,0.00000,0.00288,0.05847,-0.16470,0.01049,1.05896,5.70098,0.98657,2.70161,1.98175,1.98450,-3.46873,8.19622,5.68243,-3.55633,8.35815,2.01249,2.01249,57.68789,11.98125,57.68788921,11.98125581,A,143328.40
18:23:08.819945,5.73524,0.01320,2.75285,2.75285,[5.00000 0.00000 0.00000],[1.30000 0.00000 0.00000],-0.00137,0.00148,0.00494,-0.01579,0.00000,0.01922,0.03908,0.18544,-0.00830,1.09538,5.72371,0.12943,2.71186,1.98642,1.98729,-3.49451,8.25307,5.68243,-3.55633,8.35815,2.01249,2.01249,57.68789,11.98125,57.68788972,11.98125537,A,143328.40
18:23:08.845054,5.76036,0.01295,2.75285,2.75285,[5.00000 0.00000 0.00000],[1.30000 0.00000 0.00000],-0.00259,-0.00072,-0.01033,0.06846,0.00000,-0.00140,0.01708,-0.01677,-0.04130,0.99808,5.74865,0.05617,2.72006,1.99046,1.99004,-3.52072,8.31058,5.68243,-3.55633,8.35815,2.01249,2.01249,57.68789,11.98125,57.68789024,11.98125493,A,143328.40
18:23:08.885586,5.80089,0.02752,2.75285,2.75285,[5.00000 0.00000 0.00000],[1.30000 0.00000 0.00000],-0.00269,-0.00191,-0.02285,0.13175,0.00000,-0.06905,0.01907,0.02434,0.05069,0.92738,5.77587,0.06838,2.72662,1.97529,1.97418,-3.56858,8.41952,5.79614,-3.63558,8.59907,1.88859,1.88859,57.68789,11.98125,57.68789122,11.98125413,A,143328.50
18:23:08.912865,5.82816,0.01480,2.55763,2.55763,[5.00000 0.00000 0.00000],[1.30000 0.00000 0.00000],-0.00302,-0.00098,-0.00178,0.02854,0.00000,-0.00628,0.03678,-0.04099,0.00366,0.94227,5.81640,0.01709,2.69282,1.96229,1.96172,-3.59473,8.48192,5.79614,-3.63558,8.59907,1.88859,1.88859,57.68789,11.98125,57.68789178,11.98125369,A,143328.50
18:23:08.938906,5.85420,0.01370,2.55763,2.55763,[5.00000 0.00000 0.00000],[1.30000 0.00000 0.00000],-0.00392,0.00112,-0.02407,0.14584,0.00000,0.00013,0.02869,-0.01836,0.00213,0.95825,5.84154,0.02198,2.66578,1.95109,1.95174,-3.61815,8.53964,5.79614,-3.63558,8.59907,1.88859,1.88859,57.68789,11.98125,57.68789230,11.98125329,A,143328.50
18:23:08.964866,5.88015,0.01516,2.55763,2.55763,[5.00000 0.00000 0.00000],[1.30000 0.00000 0.00000],-0.00610,0.00228,-0.01842,0.13174,0.00000,0.00120,0.01220,0.28011,-0.08979,0.98869,5.86856,0.00000,2.64415,1.94157,1.94289,-3.64022,8.59554,5.79614,-3.63558,8.59907,1.88859,1.88859,57.68789,11.98125,57.68789280,11.98125292,A,143328.50
18:23:09.004245,5.91955,0.02628,2.90418,2.90418,[5.00000 0.00000 0.00000],[1.30000 0.00000 0.00000],-0.00585,0.00457,-0.03186,0.19732,0.00000,-0.03927,0.01602,-0.11712,0.10718,1.15083,5.89488,0.00488,2.69616,1.94944,1.95210,-3.68119,8.69938,5.91483,-3.74455,8.84000,1.99556,1.99556,57.68789,11.98125,57.68789374,11.98125223,A,143328.60
18:23:09.031013,5.94631,0.01402,2.90418,2.90418,[5.00000 0.00000 0.00000],[1.30000 0.00000 0.00000],-0.00627,0.01003,-0.02697,0.17561,0.00000,-0.01423,0.02839,0.05459,0.06295,0.88737,5.93557,0.00000,2.73776,1.95569,1.96152,-3.70585,8.76001,5.91483,-3.74455,8.84000,1.99556,1.99556,57.68789,11.98125,57.68789428,11.98125182,A,143328.60
18:23:09.056979,5.97226,0.01302,2.75586,2.75586,[5.00000 0.00000 0.00000],[1.30000 0.00000 0.00000],-0.00640,0.01357,-0.04805,0.28187,0.00000,-0.04187,0.02335,-0.15433,0.08577,0.88706,5.96016,0.00000,2.74138,1.96095,1.96884,-3.73020,8.81842,5.91483,-3.74455,8.84000,1.99556,1.99556,57.68789,11.98125,57.68789481,11.98125141,A,143328.60
18:23:09.082833,5.99813,0.01416,2.75586,2.75586,[5.00000 0.00000 0.00000],[1.30000 0.00000 0.00000],-0.00733,0.01793,-0.01430,0.11912,0.00000,0.06366,0.02594,-0.24046,-0.00952,1.15809,5.98722,0.00000,2.74428,1.96521,1.97564,-3.75440,8.87535,5.91483,-3.74455,8.84000,1.99556,1.99556,57.68789,11.98125,57.68789532,11.98125100,A,143328.60
18:23:09.120486,6.03580,0.02664,2.75586,2.75586,[5.00000 0.00000 0.00000],[1.30000 0.00000 0.00000],-0.00609,0.02350,-0.01873,0.13321,0.00000,0.05847,0.04702,0.18239,0.14305,1.00546,6.00911,0.00000,2.74660,1.96814,1.98181,-3.79498,8.96899,6.03006,-3.84361,9.06239,1.98985,1.98985,57.68790,11.98125,57.68789616,11.98125032,A,143328.70
18:23:09.145653,6.06070,0.01393,3.20635,3.20635,[5.00000 0.00000 0.00000],[1.30000 0.00000 0.00000],-0.00588,0.02789,0.00769,-0.00023,0.00000,-0.04538,0.07527,-0.17690,0.03684,1.07567,6.04914,0.00000,2.83855,1.96998,1.98620,-3.81967,9.02473,6.03006,-3.84361,9.06239,1.98985,1.98985,57.68790,11.98125,57.68789666,11.98124990,A,143328.70
18:23:09.172161,6.08746,0.01405,3.20635,3.20635,[5.00000 0.00000 0.00000],[1.30000 0.00000 0.00000],-0.00603,0.03064,0.02159,-0.06876,0.00000,0.00410,0.08046,0.09376,-0.00616,1.07848,6.07663,0.01954,2.91211,1.97173,1.98955,-3.84772,9.08749,6.03006,-3.84361,9.06239,1.98985,1.98985,57.68790,11.98125,57.68789723,11.98124943,A,143328.70
18:23:09.199563,6.11487,0.01398,3.20635,3.20635,[5.00000 0.00000 0.00000],[1.30000 0.00000 0.00000],-0.00483,0.03109,0.02235,-0.08040,0.00000,0.02640,0.08672,-0.08442,0.08058,0.90347,6.10328,0.04884,2.97096,1.97322,1.99130,-3.87270,9.14283,6.03006,-3.84361,9.06239,1.98985,1.98985,57.68790,11.98125,57.68789772,11.98124901,A,143328.70
18:23:09.241750,6.15706,0.02828,3.20635,3.20635,[5.00000 0.00000 0.00000],[1.30000 0.00000 0.00000],-0.00176,0.03038,0.03381,-0.15761,0.00000,0.03861,0.09039,-0.10309,0.18520,0.95868,6.13017,0.19048,3.01804,1.97018,1.98785,-3.92275,9.25514,6.15228,-3.93277,9.28478,1.95208,1.95208,57.68790,11.98125,57.68789873,11.98124817,A,143328.80
18:23:09.265152,6.18046,0.01279,2.36013,2.36013,[5.00000 0.00000 0.00000],[1.30000 0.00000 0.00000],-0.00074,0.02591,0.03793,-0.18481,0.00000,0.00700,0.09329,0.11804,0.00573,1.06292,6.16886,0.06593,2.88645,1.96650,1.98157,-3.94539,9.30658,6.15228,-3.93277,9.28478,1.95208,1.95208,57.68790,11.98125,57.68789920,11.98124779,A,143328.80
18:23:09.292290,6.20759,0.01414,2.36013,2.36013,[5.00000 0.00000 0.00000],[1.30000 0.00000 0.00000],0.00043,0.02110,0.06038,-0.30468,0.00000,0.00059,0.08779,-0.00409,-0.00037,1.02260,6.19708,0.31990,2.78119,1.96380,1.97606,-3.97051,9.36462,6.15228,-3.93277,9.28478,1.95208,1.95208,57.68790,11.98125,57.68789972,11.98124737,A,143328.80
18:23:09.321440,6.23674,0.01453,2.91492,2.91492,[5.00000 0.00000 0.00000],[1.30000 0.00000 0.00000],0.00156,0.01513,0.04602,-0.24024,0.00000,-0.03377,0.09192,0.03367,0.02934,0.92122,6.22357,1.10379,2.80793,1.96179,1.97059,-3.99438,9.42067,6.15228,-3.93277,9.28478,1.95208,1.95208,57.68790,11.98125,57.68790022,11.98124696,A,143328.80
18:23:09.373193,6.28850,0.03929,2.91492,2.91492,[5.00000 0.00000 0.00000],[1.30000 0.00000 0.00000],0.00243,0.00743,0.04587,-0.24514,0.00000,-0.02385,0.09451,0.03995,0.00250,0.95922,6.25249,1.26984,2.82933,1.96524,1.96956,-4.05489,9.56385,6.28380,-4.14080,9.76662,1.97836,1.97836,57.68790,11.98124,57.68790151,11.98124595,A,143329.00
18:23:09.397252,6.31255,0.01332,2.91492,2.91492,[5.00000 0.00000 0.00000],[1.30000 0.00000 0.00000],0.00014,-0.00531,0.00433,-0.02260,0.00000,0.05511,0.02945,0.13591,-0.12969,0.89981,6.30098,0.52259,2.84645,1.96797,1.96489,-4.07974,9.62278,6.28380,-4.14080,9.76662,1.97836,1.97836,57.68790,11.98124,57.68790204,11.98124553,A,143329.00
18:23:09.422805,6.33810,0.01451,2.42282,2.42282,[5.00000 0.00000 0.00000],[1.30000 0.00000 0.00000],-0.00161,-0.01122,-0.03247,0.17282,0.00000,-0.02110,0.00074,-0.03654,-0.04343,0.96246,6.32570,0.18315,2.76172,1.97027,1.96375,-4.10479,9.68287,6.28380,-4.14080,9.76662,1.97836,1.97836,57.68790,11.98124,57.68790258,11.98124511,A,143329.00
18:23:09.447441,6.36274,0.01389,2.42282,2.42282,[5.00000 0.00000 0.00000],[1.30000 0.00000 0.00000],-0.00244,-0.01247,-0.04377,0.23475,0.00000,0.00288,-0.00674,-0.04758,0.03581,1.03493,6.35116,0.00000,2.69394,1.97208,1.96483,-4.12826,9.73932,6.28380,-4.14080,9.76662,1.97836,1.97836,57.68790,11.98124,57.68790309,11.98124471,A,143329.00
18:23:09.473309,6.38861,0.01366,2.42282,2.42282,[5.00000 0.00000 0.00000],[1.30000 0.00000 0.00000],-0.00329,-0.00936,-0.05232,0.28300,0.00000,0.02395,0.00044,-0.06216,0.05161,1.02138,6.37711,0.00488,2.63972,1.97328,1.96784,-4.15108,9.79406,6.28380,-4.14080,9.76662,1.97836,1.97836,57.68790,11.98124,57.68790358,11.98124433,A,143329.00
18:23:09.512652,6.42796,0.02717,2.42282,2.42282,[5.00000 0.00000 0.00000],[1.30000 0.00000 0.00000],-0.00517,-0.00364,-0.05019,0.28454,0.00000,0.02701,0.00456,-0.04374,-0.01989,0.95233,6.40293,0.00000,2.59634,1.97696,1.97484,-4.19414,9.89540,6.42320,-4.25967,10.02608,2.00042,2.00042,57.68791,11.98124,57.68790449,11.98124360,A,143329.10
18:23:09.537800,6.45310,0.01413,3.01160,3.01160,[5.00000 0.00000 0.00000],[1.30000 0.00000 0.00000],-0.00777,0.00570,-0.05706,0.33582,0.00000,-0.04660,-0.02201,-0.02068,-0.00281,0.96130,6.44210,0.00000,2.67939,1.97983,1.98315,-4.21811,9.95033,6.42320,-4.25967,10.02608,2.00042,2.00042,57.68791,11.98124,57.68790499,11.98124320,A,143329.10
18:23:09.565514,6.48041,0.01411,3.01160,3.01160,[5.00000 0.00000 0.00000],[1.30000 0.00000 0.00000],-0.00901,0.01329,-0.04942,0.30571,0.00000,-0.00445,-0.00445,-0.16263,0.03105,1.02242,6.46875,0.00000,2.74583,1.98205,1.98977,-4.24605,10.01326,6.42320,-4.25967,10.02608,2.00042,2.00042,57.68791,11.98124,57.68790555,11.98124273,A,143329.10
18:23:09.592830,6.50813,0.01068,2.77694,2.77694,[5.00000 0.00000 0.00000],[1.30000 0.00000 0.00000],-0.00856,0.02192,-0.01033,0.10727,0.00000,0.01876,0.04961,-0.05624,0.07985,0.99436,6.49842,0.00000,2.75205,1.98356,1.99631,-4.27297,10.07282,6.42320,-4.25967,10.02608,2.00042,2.00042,57.68791,11.98124,57.68790609,11.98124228,A,143329.10
18:23:09.633075,6.54838,0.02642,2.77694,2.77694,[5.00000 0.00000 0.00000],[1.30000 0.00000 0.00000],-0.00755,0.02684,0.01426,-0.02222,0.00000,0.00593,0.08535,0.07418,0.07747,1.02004,6.52435,0.00000,2.75703,1.98936,2.00497,-4.31930,10.17327,6.54364,-4.36864,10.24847,2.02640,2.02640,57.68791,11.98124,57.68790699,11.98124150,A,143329.20
18:23:09.658543,6.57381,0.01246,2.77694,2.77694,[5.00000 0.00000 0.00000],[1.30000 0.00000 0.00000],-0.00683,0.03197,0.03869,-0.14905,0.00000,-0.00903,0.08978,0.00726,-0.01519,0.99284,6.56400,0.11477,2.76101,1.99331,2.01190,-4.34556,10.22834,6.54364,-4.36864,10.24847,2.02640,2.02640,57.68791,11.98124,57.68790749,11.98124105,A,143329.20
18:23:09.688227,6.60353,0.01470,2.60408,2.60408,[5.00000 0.00000 0.00000],[1.30000 0.00000 0.00000],-0.00570,0.03123,0.02495,-0.08769,0.00000,-0.03713,0.07374,0.03111,0.06423,0.98405,6.59206,0.10012,2.72963,1.99725,2.01541,-4.37590,10.29117,6.54364,-4.36864,10.24847,2.02640,2.02640,57.68791,11.98124,57.68790805,11.98124054,A,143329.20
18:23:09.712392,6.62770,0.01319,2.60408,2.60408,[5.00000 0.00000 0.00000],[1.30000 0.00000 0.00000],-0.00496,0.02809,0.07489,-0.34220,0.00000,-0.02476,0.09283,0.01781,-0.03758,0.98491,6.61698,0.03907,2.70452,2.00047,2.01681,-4.39854,10.33731,6.54364,-4.36864,10.24847,2.02640,2.02640,57.68791,11.98124,57.68790847,11.98124016,A,143329.20
18:23:09.764334,6.67964,0.03835,2.60408,2.60408,[5.00000 0.00000 0.00000],[1.30000 0.00000 0.00000],-0.00417,0.02339,0.07138,-0.32980,0.00000,0.01006,0.12322,-0.03282,-0.03514,0.94330,6.64340,0.56166,2.68443,2.00539,2.01900,-4.46485,10.47401,6.67491,-4.59648,10.71178,2.02784,2.02784,57.68791,11.98124,57.68790970,11.98123905,A,143329.40
18:23:09.787575,6.70288,0.00937,2.92361,2.92361,[5.00000 0.00000 0.00000],[1.30000 0.00000 0.00000],-0.00201,0.00525,0.05916,-0.28271,0.00000,0.07847,0.08382,-0.01604,-0.02769,0.89060,6.69469,1.24054,2.73227,2.00928,2.01233,-4.49469,10.53428,6.67491,-4.59648,10.71178,2.02784,2.02784,57.68791,11.98124,57.68791024,11.98123855,A,143329.40
18:23:09.801113,6.71642,0.01256,2.92361,2.92361,[5.00000 0.00000 0.00000],[1.30000 0.00000 0.00000],-0.00178,0.00168,0.04755,-0.22617,0.00000,0.08596,0.06320,0.09516,0.00817,0.94038,6.70448,1.13309,2.77053,2.01202,2.01300,-4.51081,10.56649,6.67491,-4.59648,10.71178,2.02784,2.02784,57.68791,11.98124,57.68791053,11.98123827,A,143329.40
18:23:09.825924,6.74123,0.01375,2.92361,2.92361,[5.00000 0.00000 0.00000],[1.30000 0.00000 0.00000],-0.00184,-0.00474,-0.00804,0.05212,0.00000,0.06091,0.02182,-0.04862,0.03227,1.10880,6.72893,0.37851,2.80115,2.01488,2.01212,-4.53787,10.62187,6.67491,-4.59648,10.71178,2.02784,2.02784,57.68791,11.98124,57.68791102,11.98123782,A,143329.40
18:23:09.851286,6.76656,0.01423,2.92361,2.92361,[5.00000 0.00000 0.00000],[1.30000 0.00000 0.00000],-0.00447,-0.01040,-0.02590,0.15858,0.00000,0.02823,0.00166,0.10998,-0.12944,1.12935,6.75551,0.13187,2.82564,2.01752,2.01147,-4.56463,10.67680,6.67491,-4.59648,10.71178,2.02784,2.02784,57.68791,11.98124,57.68791152,11.98123737,A,143329.40
18:23:09.891402,6.80670,0.02768,2.76635,2.76635,[5.00000 0.00000 0.00000],[1.30000 0.00000 0.00000],-0.00559,-0.01049,-0.03446,0.20864,0.00000,-0.02782,0.00013,-0.10907,-0.00238,0.95032,6.78176,0.00488,2.81378,2.01429,2.00819,-4.61660,10.78585,6.80193,-4.70545,10.95270,1.99556,1.99556,57.68791,11.98123,57.68791250,11.98123649,A,143329.50
18:23:09.919666,6.83497,0.01514,2.76635,2.76635,[5.00000 0.00000 0.00000],[1.30000 0.00000 0.00000],-0.00856,-0.00534,-0.05599,0.33562,0.00000,0.05740,0.00609,-0.16122,-0.02775,0.88749,6.82300,0.00244,2.80429,2.01142,2.00832,-4.64835,10.85260,6.80193,-4.70545,10.95270,1.99556,1.99556,57.68791,11.98123,57.68791310,11.98123596,A,143329.50
18:23:09.947454,6.86276,0.01510,3.24768,3.24768,[5.00000 0.00000 0.00000],[1.30000 0.00000 0.00000],-0.00943,0.00001,-0.06195,0.37105,0.00000,0.09222,-0.03392,-0.01836,0.06423,0.92061,6.85044,0.00000,2.89297,2.00878,2.00878,-4.67797,10.91483,6.80193,-4.70545,10.95270,1.99556,1.99556,57.68791,11.98123,57.68791366,11.98123546,A,143329.50
18:23:09.973622,6.88892,0.01389,3.24768,3.24768,[5.00000 0.00000 0.00000],[1.30000 0.00000 0.00000],-0.01192,0.00808,-0.06164,0.38571,0.00000,0.05511,-0.02613,0.07521,-0.03550,1.08470,6.87802,0.00000,2.96391,2.00609,2.01079,-4.70599,10.97363,6.80193,-4.70545,10.95270,1.99556,1.99556,57.68791,11.98123,57.68791419,11.98123499,A,143329.50
18:23:10.011412,6.92671,0.02609,3.24768,3.24768,[5.00000 0.00000 0.00000],[1.30000 0.00000 0.00000],-0.01182,0.01719,-0.04591,0.30639,0.00000,0.02319,0.01067,0.14115,0.11925,1.15333,6.90141,0.00000,3.02067,2.02446,2.03446,-4.75634,11.07611,6.92196,-4.83423,11.15656,2.13421,2.13421,57.68792,11.98123,57.68791511,11.98123414,A,143329.60
18:23:10.039871,6.95454,0.01269,2.36239,2.36239,[5.00000 0.00000 0.00000],[1.30000 0.00000 0.00000],-0.01159,0.03083,0.01258,0.01243,0.00000,0.02014,0.07328,0.11651,0.00817,0.84668,6.94435,0.00000,2.88901,2.03917,2.05711,-4.79174,11.14312,6.92196,-4.83423,11.15656,2.13421,2.13421,57.68792,11.98123,57.68791571,11.98123355,A,143329.60
18:23:10.064372,6.97965,0.01224,2.36239,2.36239,[5.00000 0.00000 0.00000],[1.30000 0.00000 0.00000],-0.01023,0.03664,0.02846,-0.07580,0.00000,-0.01881,0.09054,-0.07887,0.06899,0.88907,6.96848,0.02442,2.78369,2.05164,2.07295,-4.82133,11.19574,6.92196,-4.83423,11.15656,2.13421,2.13421,57.68792,11.98123,57.68791619,11.98123305,A,143329.60
18:23:10.090611,7.00590,0.01464,2.36239,2.36239,[5.00000 0.00000 0.00000],[1.30000 0.00000 0.00000],-0.00844,0.03848,0.06053,-0.24778,0.00000,-0.01911,0.10795,-0.10059,0.05234,1.02535,6.99364,0.16117,2.69943,2.06234,2.08472,-4.85006,11.24494,6.92196,-4.83423,11.15656,2.13421,2.13421,57.68792,11.98123,57.68791663,11.98123257,A,143329.60
18:23:10.129048,7.04435,0.02625,3.05120,3.05120,[5.00000 0.00000 0.00000],[1.30000 0.00000 0.00000],-0.00739,0.03596,0.06374,-0.27068,0.00000,0.00838,0.11727,0.05057,0.00964,1.12521,7.01821,0.28571,2.76978,2.06199,2.08290,-4.90306,11.33645,7.03962,-4.96301,11.39748,2.06169,2.06169,57.68792,11.98123,57.68791745,11.98123168,A,143329.70
18:23:10.153186,7.06848,0.01357,3.05120,3.05120,[5.00000 0.00000 0.00000],[1.30000 0.00000 0.00000],-0.00308,0.02710,0.08497,-0.06445,0.05236,-0.03897,0.14353,0.10358,0.09729,0.92988,7.05804,0.96947,2.82607,2.06108,2.07684,-4.93241,11.38637,7.03962,-4.96301,11.39748,2.06169,2.06169,57.68792,11.98123,57.68791790,11.98123118,A,143329.70
18:23:10.178309,7.09339,0.01246,3.05120,3.05120,[5.00000 0.00000 0.00000],[1.30000 0.00000 0.00000],0.00099,0.02130,0.09993,-0.16575,0.05236,-0.05393,0.14567,0.02111,0.12749,0.84662,7.08284,0.84982,2.87109,2.06063,2.07301,-4.96418,11.44150,7.03962,-4.96301,11.39748,2.06169,2.06169,57.68792,11.98123,57.68791840,11.98123065,A,143329.70
18:23:10.204507,7.11981,0.01480,3.05120,3.05120,[5.00000 0.00000 0.00000],[1.30000 0.00000 0.00000],0.00116,0.01793,0.05534,0.05608,0.05236,-0.09776,0.09207,-0.08936,-0.03312,0.87175,7.10790,0.52747,2.90711,2.06028,2.07070,-4.99465,11.49490,7.03962,-4.96301,11.39748,2.06169,2.06169,57.68792,11.98123,57.68791888,11.98123013,A,143329.70
18:23:10.244886,7.16019,0.02725,2.48380,2.48380,[5.00000 0.00000 0.00000],[1.30000 0.00000 0.00000],0.00337,0.01459,0.06924,-0.02775,0.05236,0.03189,0.05175,0.00085,0.06527,1.28539,7.13604,0.21490,2.82245,2.05583,2.06431,-5.05020,11.59578,7.15542,-5.08189,11.63840,2.02916,2.02916,57.68792,11.98123,57.68791978,11.98122920,A,143329.80
18:23:10.267619,7.18292,0.01144,2.48380,2.48380,[5.00000 0.00000 0.00000],[1.30000 0.00000 0.00000],0.00520,0.01413,0.02953,0.15891,0.05236,-0.00323,0.05923,0.03172,0.08272,0.97405,7.17343,0.13187,2.75472,2.05122,2.05944,-5.07785,11.64637,7.15542,-5.08189,11.63840,2.02916,2.02916,57.68792,11.98123,57.68792024,11.98122873,A,143329.80
18:23:10.292699,7.20799,0.01194,3.02207,3.02207,[5.00000 0.00000 0.00000],[1.30000 0.00000 0.00000],0.00801,0.01377,0.04648,0.05585,0.05236,-0.10937,0.05694,0.05539,0.15311,0.98814,7.19771,0.00000,2.80819,2.04734,2.05534,-5.10486,11.69640,7.15542,-5.08189,11.63840,2.02916,2.02916,57.68792,11.98123,57.68792069,11.98122828,A,143329.80
18:23:10.319781,7.23470,0.01402,3.02207,3.02207,[5.00000 0.00000 0.00000],[1.30000 0.00000 0.00000],0.00852,0.01626,0.06588,-0.04441,0.05236,-0.12540,0.05832,-0.05020,-0.03520,0.96984,7.22438,0.02930,2.85097,2.04390,2.05336,-5.13455,11.75209,7.15542,-5.08189,11.63840,2.02916,2.02916,57.68792,11.98123,57.68792119,11.98122778,A,143329.80
18:23:10.361137,7.27644,0.02722,3.02207,3.02207,[5.00000 0.00000 0.00000],[1.30000 0.00000 0.00000],0.01081,0.01674,0.04832,0.02852,0.05236,-0.03270,0.05511,-0.12706,0.10486,0.92555,7.25167,0.14164,2.88519,2.03142,2.04115,-5.18919,11.85833,7.27157,-5.18095,11.87932,1.96090,1.96090,57.68792,11.98123,57.68792214,11.98122686,A,143329.90
18:23:10.386892,7.30219,0.01295,2.85364,2.85364,[5.00000 0.00000 0.00000],[1.30000 0.00000 0.00000],0.01291,0.01544,0.07000,-0.09360,0.05236,0.02747,0.04076,-0.04288,0.01122,0.87102,7.28972,0.03419,2.87888,2.02027,2.02924,-5.21562,11.91217,7.27157,-5.18095,11.87932,1.96090,1.96090,57.68792,11.98123,57.68792263,11.98122642,A,143329.90
18:23:10.415142,7.32991,0.01451,2.85364,2.85364,[5.00000 0.00000 0.00000],[1.30000 0.00000 0.00000],0.01354,0.01481,0.07412,-0.11830,0.05236,0.00792,0.04167,-0.02940,-0.06814,1.23287,7.31905,0.15629,2.87383,2.01085,2.01946,-5.24265,11.96881,7.27157,-5.18095,11.87932,1.96090,1.96090,57.68792,11.98123,57.68792314,11.98122596,A,143329.90
18:23:10.441040,7.35633,0.01389,2.85364,2.85364,[5.00000 0.00000 0.00000],[1.30000 0.00000 0.00000],0.01510,0.01181,0.08115,-0.16356,0.05236,-0.01132,0.04396,0.06326,0.01287,1.21469,7.34497,0.15385,2.86979,2.00305,2.00992,-5.26691,12.02113,7.27157,-5.18095,11.87932,1.96090,1.96090,57.68792,11.98123,57.68792361,11.98122555,A,143329.90
18:23:10.491068,7.40637,0.03823,2.85364,2.85364,[5.00000 0.00000 0.00000],[1.30000 0.00000 0.00000],0.01809,0.00808,0.07535,-0.15395,0.05236,-0.05332,0.03556,-0.05691,0.11499,1.02559,7.37174,0.12698,2.86656,2.00975,2.01445,-5.33078,12.15716,7.40162,-5.40879,12.32410,2.04420,2.04420,57.68793,11.98122,57.68792483,11.98122448,A,143330.10
18:23:10.513000,7.42748,0.01073,2.61383,2.61383,[5.00000 0.00000 0.00000],[1.30000 0.00000 0.00000],0.02228,-0.00061,0.09642,-0.28659,0.05236,-0.00018,0.03572,-0.19026,0.02495,0.84894,7.41795,0.10256,2.81601,2.01530,2.01494,-5.35699,12.21244,7.40162,-5.40879,12.32410,2.04420,2.04420,57.68793,11.98122,57.68792533,11.98122404,A,143330.10
18:23:10.540078,7.45539,0.01461,2.61383,2.61383,[5.00000 0.00000 0.00000],[1.30000 0.00000 0.00000],0.02530,-0.00610,0.10726,-0.36043,0.05236,0.02151,0.03388,-0.05734,0.05490,0.93891,7.44437,0.33944,2.77558,2.02014,2.01659,-5.38670,12.27501,7.40162,-5.40879,12.32410,2.04420,2.04420,57.68793,11.98122,57.68792589,11.98122354,A,143330.10
18:23:10.565485,7.48079,0.01329,2.98720,2.98720,[5.00000 0.00000 0.00000],[1.30000 0.00000 0.00000],0.02779,-0.01338,0.11062,-0.39341,0.05236,0.04900,0.03098,0.02794,0.02550,1.15351,7.46985,1.33089,2.81790,2.02461,2.01683,-5.41520,12.33480,7.40162,-5.40879,12.32410,2.04420,2.04420,57.68793,11.98122,57.68792643,11.98122306,A,143330.10
18:23:10.607473,7.52278,0.02727,2.98720,2.98720,[5.00000 0.00000 0.00000],[1.30000 0.00000 0.00000],0.02992,-0.02447,0.09627,-0.33549,0.05236,0.02624,0.02044,0.06094,0.00122,1.11624,7.49786,0.94261,2.85176,2.03590,2.02167,-5.46826,12.44344,7.51802,-5.54748,12.56503,2.09312,2.09312,57.68793,11.98122,57.68792741,11.98122217,A,143330.20
18:23:10.633322,7.54862,0.01273,2.98720,2.98720,[5.00000 0.00000 0.00000],[1.30000 0.00000 0.00000],0.03083,-0.03956,0.04419,-0.08099,0.05236,-0.04721,-0.05882,-0.04825,-0.03447,0.85406,7.53951,1.22344,2.87885,2.04670,2.02369,-5.50045,12.50783,7.51802,-5.54748,12.56503,2.09312,2.09312,57.68793,11.98122,57.68792799,11.98122162,A,143330.20
18:23:10.663121,7.57842,0.01432,2.83322,2.83322,[5.00000 0.00000 0.00000],[1.30000 0.00000 0.00000],0.03205,-0.04765,0.02800,-0.00798,0.05236,0.03586,-0.09348,-0.04837,0.05954,1.04334,7.56626,0.57631,2.86972,2.05559,2.02787,-5.53448,12.57579,7.51802,-5.54748,12.56503,2.09312,2.09312,57.68793,11.98122,57.68792860,11.98122105,A,143330.20
18:23:10.685523,7.60083,0.01105,2.83322,2.83322,[5.00000 0.00000 0.00000],[1.30000 0.00000 0.00000],0.03200,-0.05110,0.01059,0.07935,0.05236,0.07145,-0.10845,0.13060,0.00079,0.93226,7.58964,0.01709,2.86242,2.06364,2.03390,-5.55948,12.62477,7.51802,-5.54748,12.56503,2.09312,2.09312,57.68793,11.98122,57.68792904,11.98122063,A,143330.20
18:23:10.726600,7.64144,0.02887,2.83322,2.83322,[5.00000 0.00000 0.00000],[1.30000 0.00000 0.00000],0.03136,-0.05243,0.01121,0.08048,0.05236,0.02640,-0.10112,-0.02153,-0.04117,1.06658,7.61599,0.00244,2.85658,2.06393,2.03342,-5.60965,12.72266,7.63472,-5.66635,12.78742,2.06169,2.06169,57.68793,11.98122,57.68792992,11.98121979,A,143330.30
18:23:10.754935,7.67023,0.01462,3.28833,3.28833,[5.00000 0.00000 0.00000],[1.30000 0.00000 0.00000],0.03063,-0.05048,-0.01109,0.19668,0.05236,0.01387,-0.11211,0.15665,-0.01385,0.81716,7.65883,0.00000,2.94293,2.06509,2.03572,-5.64423,12.78957,7.63472,-5.66635,12.78742,2.06169,2.06169,57.68793,11.98122,57.68793052,11.98121921,A,143330.30
18:23:10.779116,7.69439,0.01271,3.28833,3.28833,[5.00000 0.00000 0.00000],[1.30000 0.00000 0.00000],0.03019,-0.04873,-0.02438,0.26600,0.05236,-0.05775,-0.13075,-0.12133,0.00665,0.76262,7.68432,0.00000,3.01201,2.06641,2.03806,-5.67302,12.84465,7.63472,-5.66635,12.78742,2.06169,2.06169,57.68793,11.98122,57.68793101,11.98121872,A,143330.30
18:23:10.805881,7.72118,0.01442,3.28833,3.28833,[5.00000 0.00000 0.00000],[1.30000 0.00000 0.00000],0.03024,-0.04394,-0.01109,0.19924,0.05236,-0.00583,-0.12479,-0.22906,0.03965,1.04322,7.70861,0.00000,3.06728,2.06707,2.04151,-5.70197,12.89982,7.63472,-5.66635,12.78742,2.06169,2.06169,57.68793,11.98122,57.68793151,11.98121823,A,143330.30
18:23:10.845678,7.76098,0.02784,2.41778,2.41778,[5.00000 0.00000 0.00000],[1.30000 0.00000 0.00000],0.02975,-0.03837,0.00189,0.13750,0.05236,0.03189,-0.11440,0.14390,0.00177,1.08135,7.73591,0.00000,2.93738,2.07052,2.04820,-5.75758,13.00541,7.75623,-5.80504,13.02834,2.09312,2.09312,57.68793,11.98122,57.68793246,11.98121730,A,143330.40
18:23:10.871413,7.78671,0.01432,2.41778,2.41778,[5.00000 0.00000 0.00000],[1.30000 0.00000 0.00000],0.03110,-0.03129,0.04694,-0.09654,0.05236,-0.06936,-0.06554,-0.07271,0.00945,1.01351,7.77488,0.00000,2.83346,2.07494,2.05674,-5.78616,13.05721,7.75623,-5.80504,13.02834,2.09312,2.09312,57.68793,11.98122,57.68793293,11.98121682,A,143330.40
18:23:10.899528,7.81414,0.01354,2.99382,2.99382,[5.00000 0.00000 0.00000],[1.30000 0.00000 0.00000],0.03148,-0.02922,0.05885,-0.15857,0.05236,-0.02873,-0.05576,-0.08107,-0.05173,1.02596,7.80338,0.04151,2.86553,2.07862,2.06162,-5.81766,13.11362,7.75623,-5.80504,13.02834,2.09312,2.09312,57.68793,11.98122,57.68793343,11.98121629,A,143330.40
18:23:10.916908,7.83221,0.00871,2.99382,2.99382,[5.00000 0.00000 0.00000],[1.30000 0.00000 0.00000],0.03338,-0.02976,0.05717,-0.16253,0.05236,0.00089,-0.05408,0.03355,0.08174,0.95788,7.82326,0.24176,2.89119,2.08244,2.06513,-5.83675,13.14626,7.75623,-5.80504,13.02834,2.09312,2.09312,57.68793,11.98122,57.68793373,11.98121597,A,143330.40
18:23:10.926585,7.84188,0.00807,2.99382,2.99382,[5.00000 0.00000 0.00000],[1.30000 0.00000 0.00000],0.03546,-0.03112,0.07397,-0.16253,0.05236,0.00807,-0.05759,-0.09406,0.10675,0.87285,7.83327,0.17827,2.91171,2.08629,2.06819,-5.84476,13.15815,7.75623,-5.80504,13.02834,2.09312,2.09312,57.68793,11.98122,57.68793383,11.98121583,A,143330.40
18:23:10.941826,7.85712,0.01291,2.99382,2.99382,[5.00000 0.00000 0.00000],[1.30000 0.00000 0.00000],0.03646,-0.03324,0.09184,-0.35584,0.05236,0.03541,-0.04690,-0.09900,0.02105,0.94532,7.84619,0.07570,2.92814,2.08948,2.07014,-5.85727,13.17838,7.75623,-5.80504,13.02834,2.09312,2.09312,57.68793,11.98122,57.68793402,11.98121562,A,143330.40
18:23:10.992053,7.90736,0.03708,2.99382,2.99382,[5.00000 0.00000 0.00000],[1.30000 0.00000 0.00000],0.03740,-0.03933,0.08848,-0.34514,0.05236,0.02945,-0.05485,0.02190,-0.05331,0.94025,7.87185,0.21490,2.94127,2.08520,2.06233,-5.93304,13.31504,7.90260,-6.06260,13.51018,2.06169,2.06169,57.68794,11.98121,57.68793525,11.98121435,A,143330.60
18:23:11.011915,7.92721,0.01126,2.51052,2.51052,[5.00000 0.00000 0.00000],[1.30000 0.00000 0.00000],0.04058,-0.05470,0.07962,-0.32156,0.05236,-0.02553,-0.05271,-0.12511,0.02129,1.11374,7.91574,1.24298,2.85512,2.08514,2.05331,-5.95974,13.36258,7.90260,-6.06260,13.51018,2.06169,2.06169,57.68794,11.98121,57.68793567,11.98121390,A,143330.60
18:23:11.034587,7.94988,0.01125,2.51052,2.51052,[5.00000 0.00000 0.00000],[1.30000 0.00000 0.00000],0.04067,-0.06299,0.06343,-0.24122,0.05236,-0.01163,-0.07623,0.04630,-0.06582,1.04225,7.94041,1.97314,2.78620,2.08464,2.04798,-5.99194,13.42162,7.90260,-6.06260,13.51018,2.06169,2.06169,57.68794,11.98121,57.68793620,11.98121336,A,143330.60
18:23:11.063032,7.97800,0.01519,2.51052,2.51052,[5.00000 0.00000 0.00000],[1.30000 0.00000 0.00000],0.04089,-0.07134,0.03763,-0.11354,0.05236,-0.02461,-0.11715,-0.07729,-0.02422,0.93964,7.96679,1.05739,2.73106,2.08434,2.04281,-6.02433,13.48187,7.90260,-6.06260,13.51018,2.06169,2.06169,57.68794,11.98121,57.68793675,11.98121281,A,143330.60
18:23:11.085046,8.00035,0.01149,3.08074,3.08074,[5.00000 0.00000 0.00000],[1.30000 0.00000 0.00000],0.03969,-0.07700,0.01426,0.01108,0.05236,-0.00186,-0.16114,-0.02190,-0.09473,0.93495,7.98999,0.13431,2.80100,2.08474,2.03991,-6.05022,13.53024,7.90260,-6.06260,13.51018,2.06169,2.06169,57.68794,11.98121,57.68793718,11.98121237,A,143330.60
18:23:11.128808,8.04411,0.02861,3.08074,3.08074,[5.00000 0.00000 0.00000],[1.30000 0.00000 0.00000],0.03914,-0.08065,-0.00101,0.09098,0.05236,-0.00766,-0.17885,-0.03026,-0.03581,0.93855,8.01948,0.00733,2.85695,2.08169,2.03472,-6.10733,13.64003,8.03897,-6.19138,13.75111,2.06169,2.06169,57.68794,11.98121,57.68793817,11.98121141,A,143330.70
18:23:11.154682,8.06998,0.01375,3.08074,3.08074,[5.00000 0.00000 0.00000],[1.30000 0.00000 0.00000],0.03995,-0.08096,-0.01124,0.13690,0.05236,-0.03316,-0.14999,0.03050,0.07729,0.96630,8.05766,0.00244,2.90171,2.08220,2.03505,-6.13688,13.69624,8.03897,-6.19138,13.75111,2.06169,2.06169,57.68794,11.98121,57.68793867,11.98121092,A,143330.70
18:23:11.179740,8.09504,0.01191,2.83319,2.83319,[5.00000 0.00000 0.00000],[1.30000 0.00000 0.00000],0.03698,-0.07926,-0.01399,0.16997,0.05236,-0.01392,-0.16816,0.02348,-0.17330,1.10087,8.08451,0.00000,2.88800,2.08207,2.03592,-6.16780,13.75530,8.03897,-6.19138,13.75111,2.06169,2.06169,57.68794,11.98121,57.68793920,11.98121040,A,143330.70
18:23:11.206888,8.12219,0.01406,2.83319,2.83319,[5.00000 0.00000 0.00000],[1.30000 0.00000 0.00000],0.03707,-0.07652,-0.02911,0.24494,0.05236,0.00379,-0.20237,0.08613,0.06985,1.03993,8.10970,0.00000,2.87704,2.08165,2.03710,-6.19842,13.81375,8.03897,-6.19138,13.75111,2.06169,2.06169,57.68794,11.98121,57.68793973,11.98120988,A,143330.70
18:23:11.247213,8.16251,0.02767,2.83319,2.83319,[5.00000 0.00000 0.00000],[1.30000 0.00000 0.00000],0.03496,-0.07224,-0.03889,0.30750,0.05236,-0.04080,-0.20313,0.03123,-0.05569,0.91915,8.13743,0.00000,2.86827,2.07864,2.03658,-6.25122,13.91558,8.15775,-6.30035,13.95496,2.06169,2.06169,57.68794,11.98121,57.68794065,11.98120899,A,143330.80
18:23:11.273067,8.18837,0.01410,2.67703,2.67703,[5.00000 0.00000 0.00000],[1.30000 0.00000 0.00000],0.03601,-0.06290,0.00311,0.09069,0.05236,-0.00522,-0.16052,-0.01671,0.08449,1.00095,8.17667,0.00000,2.83002,2.07814,2.04153,-6.28117,13.97226,8.15775,-6.30035,13.95496,2.06169,2.06169,57.68794,11.98121,57.68794116,11.98120849,A,143330.80
18:23:11.296157,8.21144,0.01282,2.67703,2.67703,[5.00000 0.00000 0.00000],[1.30000 0.00000 0.00000],0.03558,-0.05818,0.00953,0.06141,0.05236,0.00639,-0.14418,-0.01934,-0.01946,0.87968,8.19996,0.00000,2.79943,2.07825,2.04439,-6.30532,14.01695,8.15775,-6.30035,13.95496,2.06169,2.06169,57.68794,11.98121,57.68794156,11.98120808,A,143330.80
18:23:11.323036,8.23834,0.01480,2.67703,2.67703,[5.00000 0.00000 0.00000],[1.30000 0.00000 0.00000],0.03679,-0.05535,0.02083,-0.00294,0.05236,-0.00033,-0.12265,-0.17172,0.07485,1.02998,8.22638,0.00000,2.77495,2.07782,2.04561,-6.33304,14.06844,8.15775,-6.30035,13.95496,2.06169,2.06169,57.68794,11.98121,57.68794202,11.98120762,A,143330.80
18:23:11.375158,8.29046,0.03810,2.94780,2.94780,[5.00000 0.00000 0.00000],[1.30000 0.00000 0.00000],0.03648,-0.05388,0.04648,-0.12921,0.05236,0.00334,-0.11395,0.09315,-0.09241,1.09300,8.25574,0.01465,2.80952,2.07664,2.04529,-6.40632,14.20654,8.28570,-6.57772,14.45534,2.07696,2.07696,57.68795,11.98120,57.68794326,11.98120638,A,143331.00
18:23:11.400229,8.31496,0.01414,2.94780,2.94780,[5.00000 0.00000 0.00000],[1.30000 0.00000 0.00000],0.03802,-0.05410,0.04862,-0.14988,0.05236,-0.02767,-0.12952,0.08985,-0.03044,0.88749,8.30386,0.21490,2.83717,2.07909,2.04761,-6.44020,14.26825,8.28570,-6.57772,14.45534,2.07696,2.07696,57.68795,11.98120,57.68794382,11.98120581,A,143331.00
18:23:11.426768,8.34206,0.01303,2.85297,2.85297,[5.00000 0.00000 0.00000],[1.30000 0.00000 0.00000],0.03925,-0.05790,0.03075,-0.06858,0.05236,-0.02721,-0.13075,-0.18324,0.05173,1.00748,8.33102,0.07082,2.84033,2.08105,2.04736,-6.47731,14.33613,8.28570,-6.57772,14.45534,2.07696,2.07696,57.68795,11.98120,57.68794443,11.98120519,A,143331.00
18:23:11.453641,8.36894,0.01375,2.85297,2.85297,[5.00000 0.00000 0.00000],[1.30000 0.00000 0.00000],0.04017,-0.06231,0.06374,-0.23947,0.05236,0.03617,-0.12006,0.03873,-0.02739,1.02608,8.35739,0.03663,2.84286,2.08301,2.04675,-6.51147,14.39853,8.28570,-6.57772,14.45534,2.07696,2.07696,57.68795,11.98120,57.68794499,11.98120461,A,143331.00
18:23:11.497230,8.41253,0.02949,2.85297,2.85297,[5.00000 0.00000 0.00000],[1.30000 0.00000 0.00000],0.04230,-0.06633,0.04618,-0.16548,0.05236,0.00593,-0.13212,0.17757,0.07320,1.00241,8.38672,0.10745,2.84488,2.06110,2.02249,-6.57241,14.51654,8.40747,-6.67679,14.71480,1.93552,1.93552,57.68795,11.98120,57.68794605,11.98120359,A,143331.10
18:23:11.521928,8.43723,0.01286,3.31169,3.31169,[5.00000 0.00000 0.00000],[1.30000 0.00000 0.00000],0.04358,-0.07448,0.04832,-0.18454,0.05236,-0.02049,-0.13472,0.10962,-0.03788,1.00711,8.42539,0.41026,2.93824,2.04579,2.00243,-6.60282,14.57837,8.40747,-6.67679,14.71480,1.93552,1.93552,57.68795,11.98120,57.68794661,11.98120308,A,143331.10
18:23:11.549842,8.46514,0.01409,3.31169,3.31169,[5.00000 0.00000 0.00000],[1.30000 0.00000 0.00000],0.04432,-0.07983,0.04465,-0.17099,0.05236,-0.03988,-0.13105,-0.04301,-0.04063,0.92269,8.45333,0.43468,3.01293,2.03236,1.98587,-6.63437,14.64568,8.40747,-6.67679,14.71480,1.93552,1.93552,57.68795,11.98120,57.68794721,11.98120255,A,143331.10
18:23:11.577084,8.49238,0.01531,3.31169,3.31169,[5.00000 0.00000 0.00000],[1.30000 0.00000 0.00000],0.04668,-0.08515,0.04007,-0.16340,0.05236,0.01067,-0.14602,-0.09870,0.07808,1.01480,8.48108,0.57387,3.07268,2.02106,1.97147,-6.66380,14.71109,8.40747,-6.67679,14.71480,1.93552,1.93552,57.68795,11.98120,57.68794780,11.98120205,A,143331.10
18:23:11.618362,8.53365,0.02772,2.41855,2.41855,[5.00000 0.00000 0.00000],[1.30000 0.00000 0.00000],0.04688,-0.09036,0.00403,0.01549,0.05236,0.04518,-0.18007,0.06027,0.02714,0.91994,8.50856,0.52991,2.94186,2.02237,1.96973,-6.71629,14.83169,8.52882,-6.79566,14.95572,2.02916,2.02916,57.68795,11.98120,57.68794888,11.98120117,A,143331.20
18:23:11.644891,8.56018,0.01388,2.41855,2.41855,[5.00000 0.00000 0.00000],[1.30000 0.00000 0.00000],0.04627,-0.09619,-0.00514,0.06527,0.05236,-0.01957,-0.19916,0.06905,-0.00110,1.03261,8.54914,0.12210,2.83720,2.02727,1.97123,-6.74521,14.89706,8.52882,-6.79566,14.95572,2.02916,2.02916,57.68795,11.98120,57.68794947,11.98120068,A,143331.20
18:23:11.665232,8.57983,0.01041,2.41855,2.41855,[5.00000 0.00000 0.00000],[1.30000 0.00000 0.00000],0.04592,-0.09698,-0.01384,0.11106,0.05236,-0.01881,-0.20726,-0.09699,0.01982,1.02236,8.56907,0.03907,2.75347,2.03245,1.97594,-6.76638,14.94405,8.52882,-6.79566,14.95572,2.02916,2.02916,57.68795,11.98120,57.68794990,11.98120033,A,143331.20
18:23:11.689639,8.60494,0.01412,3.02359,3.02359,[5.00000 0.00000 0.00000],[1.30000 0.00000 0.00000],0.04587,-0.09695,-0.02025,0.14347,0.05236,0.01143,-0.21520,0.05649,0.01677,0.91537,8.59323,0.00733,2.80749,2.03615,1.97965,-6.79017,14.99669,8.52882,-6.79566,14.95572,2.02916,2.02916,57.68795,11.98120,57.68795037,11.98119993,A,143331.20
18:23:11.712773,8.62743,0.01277,3.02359,3.02359,[5.00000 0.00000 0.00000],[1.30000 0.00000 0.00000],0.04549,-0.09537,-0.02789,0.18409,0.05236,0.01464,-0.21336,-0.09998,0.01019,0.94080,8.61666,0.00733,2.85071,2.03965,1.98408,-6.81037,15.04064,8.52882,-6.79566,14.95572,2.02916,2.02916,57.68795,11.98120,57.68795076,11.98119959,A,143331.20
18:23:11.747949,8.66325,0.02680,3.02359,3.02359,[5.00000 0.00000 0.00000],[1.30000 0.00000 0.00000],0.04436,-0.09206,-0.03171,0.21054,0.05236,0.03174,-0.21489,0.01232,-0.02861,1.07708,8.63787,0.00488,2.88529,2.01584,1.96221,-6.85018,15.13205,8.65811,-6.86500,15.17811,1.87305,1.87305,57.68795,11.98120,57.68795159,11.98119892,A,143331.30
18:23:11.776593,8.69190,0.01404,2.47841,2.47841,[5.00000 0.00000 0.00000],[1.30000 0.00000 0.00000],0.04244,-0.08563,-0.05446,0.33678,0.05236,-0.00399,-0.25506,0.00409,0.05173,1.03310,8.68020,0.00000,2.80391,1.99696,1.94709,-6.87720,15.19804,8.65811,-6.86500,15.17811,1.87305,1.87305,57.68795,11.98120,57.68795218,11.98119846,A,143331.30
18:23:11.800050,8.71535,0.01143,2.47841,2.47841,[5.00000 0.00000 0.00000],[1.30000 0.00000 0.00000],0.04120,-0.08074,-0.04561,0.30055,0.05236,0.01235,-0.23734,-0.00518,0.01696,1.04133,8.70415,0.00000,2.73881,1.98195,1.93494,-6.89576,15.24556,8.65811,-6.86500,15.17811,1.87305,1.87305,57.68795,11.98120,57.68795261,11.98119815,A,143331.30
18:23:11.818860,8.73416,0.00963,2.47841,2.47841,[5.00000 0.00000 0.00000],[1.30000 0.00000 0.00000],0.04043,-0.07423,-0.03400,0.24757,0.05236,-0.00002,-0.20634,-0.13255,0.02227,0.97069,8.72570,0.00000,2.68673,1.96936,1.92615,-6.90973,15.28286,8.65811,-6.86500,15.17811,1.87305,1.87305,57.68795,11.98120,57.68795294,11.98119791,A,143331.30
18:23:11.827689,8.74299,0.00781,2.47841,2.47841,[5.00000 0.00000 0.00000],[1.30000 0.00000 0.00000],0.04104,-0.07216,-0.02316,0.24757,0.05236,-0.00583,-0.18801,-0.01659,0.08485,1.01046,8.73487,0.00000,2.64507,1.96018,1.91817,-6.91373,15.29444,8.65811,-6.86500,15.17811,1.87305,1.87305,57.68795,11.98120,57.68795305,11.98119785,A,143331.30
18:23:11.842431,8.75745,0.01204,2.47841,2.47841,[5.00000 0.00000 0.00000],[1.30000 0.00000 0.00000],0.04163,-0.06913,0.00158,0.06181,0.05236,0.00975,-0.17595,-0.11413,0.06594,0.97515,8.74589,0.00000,2.61174,1.95166,1.91142,-6.92028,15.31344,8.65811,-6.86500,15.17811,1.87305,1.87305,57.68795,11.98120,57.68795322,11.98119774,A,143331.30
18:23:11.894535,8.80982,0.03769,3.07326,3.07326,[5.00000 0.00000 0.00000],[1.30000 0.00000 0.00000],0.04331,-0.06525,0.02220,-0.05220,0.05236,0.01952,-0.14235,-0.02843,0.07521,0.91396,8.77360,0.00000,2.70404,1.94919,1.91121,-6.96973,15.45154,8.80485,-7.05322,15.65995,1.94319,1.94319,57.68796,11.98120,57.68795446,11.98119690,A,143331.50
18:23:11.920735,8.83603,0.01452,3.07326,3.07326,[5.00000 0.00000 0.00000],[1.30000 0.00000 0.00000],0.04594,-0.06126,0.04908,-0.20364,0.05236,-0.01820,-0.13243,0.02342,0.03788,1.10947,8.82486,0.09768,2.77788,1.95077,1.91511,-6.99279,15.51527,8.80485,-7.05322,15.65995,1.94319,1.94319,57.68796,11.98120,57.68795503,11.98119652,A,143331.50
18:23:11.948901,8.86420,0.01380,2.83649,2.83649,[5.00000 0.00000 0.00000],[1.30000 0.00000 0.00000],0.04675,-0.06254,0.04786,-0.20280,0.05236,-0.01468,-0.14281,0.09949,-0.00482,0.98796,8.85251,0.47863,2.78960,1.95210,1.91570,-7.01700,15.58158,8.80485,-7.05322,15.65995,1.94319,1.94319,57.68796,11.98120,57.68795563,11.98119611,A,143331.50
18:23:11.975397,8.89069,0.01372,2.83649,2.83649,[5.00000 0.00000 0.00000],[1.30000 0.00000 0.00000],0.04807,-0.06995,0.05656,-0.25493,0.05236,-0.02110,-0.13746,0.02470,0.00677,0.92433,8.87985,0.05861,2.79898,1.95379,1.91307,-7.04020,15.64504,8.80485,-7.05322,15.65995,1.94319,1.94319,57.68796,11.98120,57.68795620,11.98119572,A,143331.50
18:23:12.014908,8.93021,0.02736,2.83649,2.83649,[5.00000 0.00000 0.00000],[1.30000 0.00000 0.00000],0.05074,-0.07425,0.06908,-0.33486,0.05236,-0.02721,-0.11944,-0.05716,0.08137,0.93104,8.90408,0.24176,2.80648,1.95687,1.91364,-7.08079,15.75558,8.92523,-7.16219,15.91941,1.96842,1.96842,57.68796,11.98119,57.68795719,11.98119504,A,143331.60
18:23:12.040232,8.95553,0.01278,2.64969,2.64969,[5.00000 0.00000 0.00000],[1.30000 0.00000 0.00000],0.05313,-0.08606,0.06588,-0.33442,0.05236,0.02059,-0.13075,-0.05033,0.01397,1.11520,8.94512,0.85470,2.77512,1.96276,1.91264,-7.10438,15.81845,8.92523,-7.16219,15.91941,1.96842,1.96842,57.68796,11.98119,57.68795776,11.98119464,A,143331.60
18:23:12.068581,8.98388,0.01337,2.64969,2.64969,[5.00000 0.00000 0.00000],[1.30000 0.00000 0.00000],0.05342,-0.09602,0.02709,-0.14235,0.05236,-0.03805,-0.17824,0.08265,-0.02129,0.74420,8.97314,1.06716,2.75004,1.96770,1.91175,-7.12879,15.88399,8.92523,-7.16219,15.91941,1.96842,1.96842,57.68796,11.98119,57.68795835,11.98119423,A,143331.60
18:23:12.094982,9.01026,0.01257,2.64969,2.64969,[5.00000 0.00000 0.00000],[1.30000 0.00000 0.00000],0.05336,-0.10281,0.00861,-0.04953,0.05236,-0.05882,-0.21596,-0.18831,0.00451,1.09605,8.99873,0.26618,2.72997,1.97256,1.91264,-7.14938,15.93906,8.92523,-7.16219,15.91941,1.96842,1.96842,57.68796,11.98119,57.68795884,11.98119388,A,143331.60
18:23:12.135294,9.05060,0.02668,2.97754,2.97754,[5.00000 0.00000 0.00000],[1.30000 0.00000 0.00000],0.05196,-0.10675,-0.01995,0.10237,0.05236,0.03877,-0.23963,0.30476,-0.05600,1.16571,9.02570,0.04640,2.77948,1.95791,1.89569,-7.18822,16.04728,9.04548,-7.24144,16.17886,1.86724,1.86724,57.68796,11.98119,57.68795982,11.98119323,A,143331.70
18:23:12.162562,9.07786,0.01410,2.97754,2.97754,[5.00000 0.00000 0.00000],[1.30000 0.00000 0.00000],0.05158,-0.10997,-0.02606,0.13536,0.05236,-0.02492,-0.24146,-0.04673,0.03989,1.00339,9.06627,0.00488,2.81909,1.94897,1.88486,-7.20989,16.11030,9.04548,-7.24144,16.17886,1.86724,1.86724,57.68796,11.98119,57.68796038,11.98119286,A,143331.70
18:23:12.188130,9.10343,0.01346,2.97754,2.97754,[5.00000 0.00000 0.00000],[1.30000 0.00000 0.00000],0.04853,-0.10836,-0.04698,0.25981,0.05236,-0.03683,-0.23826,-0.08760,-0.11773,0.81447,9.09254,0.00000,2.85078,1.94120,1.87803,-7.22944,16.16904,9.04548,-7.24144,16.17886,1.86724,1.86724,57.68796,11.98119,57.68796091,11.98119254,A,143331.70
18:23:12.214999,9.13026,0.01303,2.87175,2.87175,[5.00000 0.00000 0.00000],[1.30000 0.00000 0.00000],0.04567,-0.10505,-0.07004,0.39366,0.05236,-0.02904,-0.26682,-0.06826,-0.06710,0.92238,9.11925,0.00000,2.85498,1.93388,1.87265,-7.24943,16.23067,9.04548,-7.24144,16.17886,1.86724,1.86724,57.68796,11.98119,57.68796147,11.98119220,A,143331.70
18:23:12.268240,9.18354,0.03985,2.87175,2.87175,[5.00000 0.00000 0.00000],[1.30000 0.00000 0.00000],0.04318,-0.09806,-0.06317,0.37548,0.05236,0.01387,-0.28758,-0.00037,-0.04990,1.08659,9.14625,0.00000,2.85833,1.93111,1.87397,-7.30100,16.38912,9.17864,-7.43956,16.69777,1.93552,1.93552,57.68797,11.98119,57.68796289,11.98119133,A,143331.90
18:23:12.294553,9.20985,0.01366,3.35194,3.35194,[5.00000 0.00000 0.00000],[1.30000 0.00000 0.00000],0.04311,-0.07878,-0.01613,0.14079,0.05236,-0.05744,-0.21260,-0.00049,0.04673,1.01705,9.19876,0.00000,2.95705,1.93390,1.88803,-7.32649,16.46387,9.17864,-7.43956,16.69777,1.93552,1.93552,57.68797,11.98119,57.68796356,11.98119090,A,143331.90
18:23:12.321827,9.23713,0.01340,3.35194,3.35194,[5.00000 0.00000 0.00000],[1.30000 0.00000 0.00000],0.04343,-0.07154,0.01945,-0.03921,0.05236,-0.00522,-0.16220,0.02873,-0.01421,0.97289,9.22597,0.00000,3.03603,1.93628,1.89463,-7.35306,16.53927,9.17864,-7.43956,16.69777,1.93552,1.93552,57.68797,11.98119,57.68796424,11.98119046,A,143331.90
18:23:12.347452,9.26275,0.01373,3.35194,3.35194,[5.00000 0.00000 0.00000],[1.30000 0.00000 0.00000],0.04638,-0.06828,0.03946,-0.15844,0.05236,0.00150,-0.12998,-0.01763,0.10907,0.86260,9.25158,0.00488,3.09921,1.93874,1.89899,-7.37675,16.60490,9.17864,-7.43956,16.69777,1.93552,1.93552,57.68797,11.98119,57.68796483,11.98119006,A,143331.90
18:23:12.389744,9.30505,0.02778,2.43856,2.43856,[5.00000 0.00000 0.00000],[1.30000 0.00000 0.00000],0.04774,-0.06808,0.08145,-0.37725,0.05236,-0.00109,-0.13426,0.11779,-0.02629,1.03956,9.28043,0.39560,2.96708,1.92215,1.88252,-7.42283,16.73843,9.30032,-7.50891,16.95723,1.83196,1.83196,57.68797,11.98119,57.68796603,11.98118928,A,143332.00
18:23:12.415352,9.33065,0.01414,2.43856,2.43856,[5.00000 0.00000 0.00000],[1.30000 0.00000 0.00000],0.05121,-0.07527,0.05351,-0.26006,0.05236,-0.01300,-0.13976,-0.00348,0.13414,1.01492,9.31913,1.65812,2.86138,1.91198,1.86816,-7.44574,16.80713,9.30032,-7.50891,16.95723,1.83196,1.83196,57.68797,11.98119,57.68796665,11.98118890,A,143332.00
18:23:12.442324,9.35741,0.01437,2.43856,2.43856,[5.00000 0.00000 0.00000],[1.30000 0.00000 0.00000],0.05255,-0.08342,0.08741,-0.43826,0.05236,-0.04355,-0.12204,-0.04355,-0.02281,1.00851,9.34464,1.14530,2.77681,1.90373,1.85515,-7.46656,16.87224,9.30032,-7.50891,16.95723,1.83196,1.83196,57.68797,11.98119,57.68796724,11.98118855,A,143332.00
18:23:12.468454,9.38375,0.01408,3.01915,3.01915,[5.00000 0.00000 0.00000],[1.30000 0.00000 0.00000],0.05430,-0.09248,0.06007,-0.31300,0.05236,-0.01835,-0.12708,-0.03721,0.00756,0.88358,9.37151,1.36752,2.82528,1.89706,1.84318,-7.48589,16.93539,9.30032,-7.50891,16.95723,1.83196,1.83196,57.68797,11.98119,57.68796780,11.98118822,A,143332.00
18:23:12.508361,9.42367,0.02704,3.01915,3.01915,[5.00000 0.00000 0.00000],[1.30000 0.00000 0.00000],0.05655,-0.10406,0.02358,-0.14513,0.05236,0.00303,-0.17274,-0.07107,0.10852,0.99302,9.39818,1.45055,2.86405,1.88651,1.82586,-7.51805,17.04899,9.41892,-7.57825,17.23521,1.81526,1.81526,57.68797,11.98119,57.68796883,11.98118768,A,143332.10
18:23:12.534812,9.45011,0.01404,3.01915,3.01915,[5.00000 0.00000 0.00000],[1.30000 0.00000 0.00000],0.05542,-0.11611,-0.03201,0.14016,0.05236,0.07099,-0.26025,-0.04374,0.00531,1.03053,9.43874,0.35165,2.89507,1.88109,1.81337,-7.53628,17.11666,9.41892,-7.57825,17.23521,1.81526,1.81526,57.68797,11.98119,57.68796943,11.98118737,A,143332.10
18:23:12.558689,9.47399,0.01150,2.46665,2.46665,[5.00000 0.00000 0.00000],[1.30000 0.00000 0.00000],0.05549,-0.11948,-0.04270,0.19319,0.05236,0.01204,-0.26132,0.05563,0.10333,1.07372,9.46295,0.00000,2.80939,1.87644,1.80674,-7.55226,17.17868,9.41892,-7.57825,17.23521,1.81526,1.81526,57.68797,11.98119,57.68796999,11.98118710,A,143332.10
18:23:12.587578,9.50288,0.01410,2.46665,2.46665,[5.00000 0.00000 0.00000],[1.30000 0.00000 0.00000],0.05337,-0.11821,-0.05538,0.27032,0.05236,-0.06707,-0.25781,0.03379,-0.01525,1.03895,9.49160,0.00000,2.74084,1.87152,1.80257,-7.56882,17.24498,9.41892,-7.57825,17.23521,1.81526,1.81526,57.68797,11.98119,57.68797059,11.98118683,A,143332.10
18:23:12.628427,9.54374,0.02720,2.46665,2.46665,[5.00000 0.00000 0.00000],[1.30000 0.00000 0.00000],0.05144,-0.11283,-0.07172,0.36461,0.05236,-0.01362,-0.25613,-0.13133,0.01281,0.98076,9.51767,0.00000,2.68600,1.85956,1.79377,-7.59566,17.35685,9.53899,-7.62778,17.45760,1.78994,1.78994,57.68797,11.98119,57.68797159,11.98118637,A,143332.20
18:23:12.653754,9.56906,0.01286,3.14514,3.14514,[5.00000 0.00000 0.00000],[1.30000 0.00000 0.00000],0.04830,-0.10208,-0.06363,-0.33614,-0.05236,0.04182,-0.30393,0.19166,-0.04984,0.83271,9.55950,0.00000,2.77783,1.85300,1.79351,-7.60995,17.41783,9.53899,-7.62778,17.45760,1.78994,1.78994,57.68797,11.98119,57.68797214,11.98118613,A,143332.20
18:23:12.682447,9.59774,0.01391,3.14514,3.14514,[5.00000 0.00000 0.00000],[1.30000 0.00000 0.00000],0.04691,-0.09910,-0.06637,-0.31338,-0.05236,-0.00247,-0.27781,0.11645,0.02422,1.11831,9.58578,0.45177,2.85129,1.84710,1.78935,-7.62499,17.48230,9.53899,-7.62778,17.45760,1.78994,1.78994,57.68797,11.98119,57.68797272,11.98118588,A,143332.20
18:23:12.709652,9.62493,0.01191,3.14514,3.14514,[5.00000 0.00000 0.00000],[1.30000 0.00000 0.00000],0.04681,-0.10672,-0.03400,-0.47463,-0.05236,-0.01942,-0.20161,0.10193,0.06307,1.19401,9.61327,0.11722,2.91006,1.84271,1.78050,-7.63958,17.54613,9.53899,-7.62778,17.45760,1.78994,1.78994,57.68797,11.98119,57.68797330,11.98118563,A,143332.20
18:23:12.751179,9.66649,0.02816,2.78067,2.78067,[5.00000 0.00000 0.00000],[1.30000 0.00000 0.00000],0.04592,-0.11603,-0.03110,-0.48335,-0.05236,-0.02156,-0.19748,0.12535,-0.01604,0.92598,9.63865,0.28816,2.88418,1.84730,1.77964,-7.66608,17.66331,9.66062,-7.70703,17.71706,1.86724,1.86724,57.68797,11.98118,57.68797435,11.98118519,A,143332.30
18:23:12.778440,9.69373,0.01458,2.78067,2.78067,[5.00000 0.00000 0.00000],[1.30000 0.00000 0.00000],0.04225,-0.13655,-0.07630,-0.23345,-0.05236,-0.02293,-0.25154,-0.18788,-0.04709,0.93550,9.68230,0.46154,2.86348,1.85658,1.77686,-7.68112,17.72733,9.66062,-7.70703,17.71706,1.86724,1.86724,57.68797,11.98118,57.68797493,11.98118494,A,143332.30
18:23:12.804780,9.72008,0.01444,2.78067,2.78067,[5.00000 0.00000 0.00000],[1.30000 0.00000 0.00000],0.03963,-0.14719,-0.10196,-0.08816,-0.05236,0.02441,-0.25689,-0.05081,-0.01348,1.03029,9.71027,0.93529,2.84692,1.86399,1.77799,-7.69603,17.79193,9.66062,-7.70703,17.71706,1.86724,1.86724,57.68797,11.98118,57.68797551,11.98118469,A,143332.30
18:23:12.826718,9.74202,0.01222,2.70939,2.70939,[5.00000 0.00000 0.00000],[1.30000 0.00000 0.00000],0.03674,-0.15183,-0.12853,0.06350,-0.05236,0.03800,-0.28132,0.02769,-0.04721,0.97081,9.73116,0.60317,2.81941,1.87213,1.78339,-7.70672,17.83642,9.66062,-7.70703,17.71706,1.86724,1.86724,57.68797,11.98118,57.68797591,11.98118451,A,143332.30
18:23:12.879936,9.79524,0.03885,2.70939,2.70939,[5.00000 0.00000 0.00000],[1.30000 0.00000 0.00000],0.03159,-0.15412,-0.19114,0.41003,-0.05236,-0.00842,-0.33905,0.02647,-0.02086,1.06445,9.75917,0.06349,2.79741,1.85675,1.76665,-7.74176,17.99207,9.78951,-7.82591,18.25450,1.78848,1.78848,57.68798,11.98118,57.68797731,11.98118392,A,143332.50
18:23:12.905118,9.82042,0.01454,3.00091,3.00091,[5.00000 0.00000 0.00000],[1.30000 0.00000 0.00000],0.02112,-0.15217,-0.24139,0.72930,-0.05236,-0.00751,-0.33386,-0.01037,0.02129,0.92360,9.80894,0.00000,2.83811,1.85312,1.76418,-7.75684,18.06001,9.78951,-7.82591,18.25450,1.78848,1.78848,57.68798,11.98118,57.68797792,11.98118366,A,143332.50
18:23:12.929961,9.84526,0.01319,3.00091,3.00091,[5.00000 0.00000 0.00000],[1.30000 0.00000 0.00000],0.01499,-0.13966,-0.23100,0.71725,-0.05236,-0.01560,-0.31156,-0.10742,-0.08333,0.94623,9.83443,0.00000,2.87067,1.84846,1.76690,-7.77193,18.12912,9.78951,-7.82591,18.25450,1.78848,1.78848,57.68798,11.98118,57.68797854,11.98118341,A,143332.50
18:23:12.958793,9.87409,0.01516,3.00091,3.00091,[5.00000 0.00000 0.00000],[1.30000 0.00000 0.00000],0.00882,-0.12322,-0.27987,1.00167,-0.05236,0.03067,-0.33248,-0.09931,0.04142,1.02645,9.86174,0.00000,2.89672,1.84290,1.77101,-7.78777,18.20154,9.78951,-7.82591,18.25450,1.78848,1.78848,57.68798,11.98118,57.68797919,11.98118314,A,143332.50
18:23:12.999191,9.91450,0.02542,2.83306,2.83306,[5.00000 0.00000 0.00000],[1.30000 0.00000 0.00000],0.00119,-0.09930,-0.27498,1.02683,-0.05236,0.05144,-0.33248,0.02538,-0.02190,1.08836,9.89034,0.00000,2.88399,1.82862,1.77076,-7.81374,18.32356,9.90970,-7.87544,18.51396,1.75943,1.75943,57.68798,11.98118,57.68798029,11.98118270,A,143332.60
18:23:13.026812,9.94211,0.01377,2.83306,2.83306,[5.00000 0.00000 0.00000],[1.30000 0.00000 0.00000],-0.00853,-0.06138,-0.17450,0.58758,-0.05236,0.00883,-0.19794,0.10309,-0.19502,0.91146,9.93005,0.00000,2.87380,1.81866,1.78294,-7.82952,18.39571,9.90970,-7.87544,18.51396,1.75943,1.75943,57.68798,11.98118,57.68798094,11.98118244,A,143332.60
18:23:13.055985,9.97129,0.01332,3.34089,3.34089,[5.00000 0.00000 0.00000],[1.30000 0.00000 0.00000],-0.01046,-0.03760,-0.12578,0.35653,-0.05236,-0.00491,-0.11181,-0.03739,0.09644,0.99040,9.95965,0.00000,2.96722,1.80937,1.78750,-7.84806,18.47702,9.90970,-7.87544,18.51396,1.75943,1.75943,57.68798,11.98118,57.68798167,11.98118213,A,143332.60
18:23:13.081763,9.99706,0.01209,3.34089,3.34089,[5.00000 0.00000 0.00000],[1.30000 0.00000 0.00000],-0.01060,-0.02328,-0.06164,0.03676,-0.05236,0.03984,-0.04629,-0.08876,0.09662,1.03401,9.98666,0.00000,3.04195,1.80207,1.78853,-7.86297,18.54039,9.90970,-7.87544,18.51396,1.75943,1.75943,57.68798,11.98118,57.68798224,11.98118188,A,143332.60
18:23:13.123701,10.03901,0.02870,3.34089,3.34089,[5.00000 0.00000 0.00000],[1.30000 0.00000 0.00000],-0.01024,-0.01306,-0.03430,-0.10226,-0.05236,-0.00186,0.01693,0.01818,0.09187,1.02382,10.01475,0.54945,3.10174,1.80552,1.79793,-7.89288,18.66873,10.03425,-7.94478,18.77341,1.83196,1.83196,57.68798,11.98118,57.68798339,11.98118137,A,143332.70
18:23:13.150624,10.06592,0.01263,2.43518,2.43518,[5.00000 0.00000 0.00000],[1.30000 0.00000 0.00000],-0.00894,-0.01224,0.02571,-0.41083,-0.05236,0.00777,0.04992,-0.05362,0.02641,0.98832,10.05529,0.48840,2.96843,1.80986,1.80274,-7.91101,18.74117,10.03425,-7.94478,18.77341,1.83196,1.83196,57.68798,11.98118,57.68798404,11.98118107,A,143332.70
18:23:13.175311,10.09060,0.01089,2.43518,2.43518,[5.00000 0.00000 0.00000],[1.30000 0.00000 0.00000],-0.00754,-0.01672,0.02770,-0.42979,-0.05236,-0.00002,0.05358,-0.00659,0.05026,0.93263,10.08042,0.77411,2.86178,1.81404,1.80432,-7.92681,18.80254,10.03425,-7.94478,18.77341,1.83196,1.83196,57.68798,11.98118,57.68798460,11.98118080,A,143332.70
18:23:13.202674,10.11797,0.01456,2.43518,2.43518,[5.00000 0.00000 0.00000],[1.30000 0.00000 0.00000],-0.00706,-0.02775,0.02617,-0.42529,-0.05236,0.01800,0.05908,-0.02391,-0.01049,0.98039,10.10710,1.45788,2.77646,1.81823,1.80209,-7.94404,18.86975,10.03425,-7.94478,18.77341,1.83196,1.83196,57.68798,11.98118,57.68798520,11.98118051,A,143332.70
18:23:13.244015,10.15932,0.02558,2.99708,2.99708,[5.00000 0.00000 0.00000],[1.30000 0.00000 0.00000],-0.00588,-0.04023,-0.01796,-0.21233,-0.05236,0.01616,0.02335,0.05569,0.11242,1.09696,10.13468,2.00000,2.82059,1.80510,1.78169,-7.97011,18.98004,10.15457,-7.98441,19.03286,1.72235,1.72235,57.68799,11.98118,57.68798619,11.98118007,A,143332.80
18:23:13.268520,10.18312,0.01313,2.99708,2.99708,[5.00000 0.00000 0.00000],[1.30000 0.00000 0.00000],-0.01035,-0.05580,-0.09692,0.21149,-0.05236,0.02014,-0.04477,-0.04319,-0.07509,1.00278,10.17335,1.36020,2.85589,1.79581,1.76334,-7.98248,19.03713,10.15457,-7.98441,19.03286,1.72235,1.72235,57.68799,11.98118,57.68798670,11.98117987,A,143332.80
18:23:13.292040,10.20734,0.01169,2.99708,2.99708,[5.00000 0.00000 0.00000],[1.30000 0.00000 0.00000],-0.01427,-0.05979,-0.11555,0.33015,-0.05236,0.02884,-0.08386,0.00275,-0.09870,0.92793,10.19830,0.00000,2.88412,1.78729,1.75249,-7.99458,19.09846,10.15457,-7.98441,19.03286,1.72235,1.72235,57.68799,11.98118,57.68798726,11.98117966,A,143332.80
18:23:13.320537,10.23584,0.01578,2.99708,2.99708,[5.00000 0.00000 0.00000],[1.30000 0.00000 0.00000],-0.01944,-0.05512,-0.16503,0.61117,-0.05236,-0.01026,-0.10707,-0.01598,-0.08491,0.90640,10.22474,0.00000,2.90672,1.77927,1.74720,-8.00604,19.16033,10.15457,-7.98441,19.03286,1.72235,1.72235,57.68799,11.98118,57.68798781,11.98117947,A,143332.80
18:23:13.359245,10.27455,0.02853,2.55712,2.55712,[5.00000 0.00000 0.00000],[1.30000 0.00000 0.00000],-0.02327,-0.04694,-0.18320,0.72691,-0.05236,0.01372,-0.09730,-0.16635,0.01665,1.09532,10.24873,0.00000,2.83680,1.75765,1.73034,-8.02417,19.27101,10.26963,-8.00422,19.32938,1.63751,1.63751,57.68799,11.98118,57.68798881,11.98117916,A,143332.90
18:23:13.385188,10.30049,0.01326,2.55712,2.55712,[5.00000 0.00000 0.00000],[1.30000 0.00000 0.00000],-0.02974,-0.02283,-0.18885,0.79725,-0.05236,0.01219,-0.09302,-0.11846,0.05276,1.02919,10.28854,0.00000,2.78086,1.73950,1.72622,-8.03240,19.33125,10.26963,-8.00422,19.32938,1.63751,1.63751,57.68799,11.98118,57.68798935,11.98117903,A,143332.90
18:23:13.412182,10.32747,0.01499,3.07574,3.07574,[5.00000 0.00000 0.00000],[1.30000 0.00000 0.00000],-0.03105,-0.00406,-0.15556,0.63930,-0.05236,-0.00735,-0.06431,-0.00622,0.16116,0.91457,10.31500,0.00000,2.83984,1.72349,1.72113,-8.04026,19.39036,10.26963,-8.00422,19.32938,1.63751,1.63751,57.68799,11.98118,57.68798988,11.98117889,A,143332.90
18:23:13.438052,10.35335,0.01304,3.07574,3.07574,[5.00000 0.00000 0.00000],[1.30000 0.00000 0.00000],-0.03581,0.01408,-0.12456,0.51523,-0.05236,-0.05576,-0.01697,-0.00275,-0.09302,0.91103,10.34067,0.00000,2.88702,1.70917,1.71736,-8.04775,19.44865,10.26963,-8.00422,19.32938,1.63751,1.63751,57.68799,11.98118,57.68799041,11.98117877,A,143332.90
18:23:13.486600,10.40190,0.03666,3.07574,3.07574,[5.00000 0.00000 0.00000],[1.30000 0.00000 0.00000],-0.03735,0.02902,-0.07050,0.25492,-0.05236,-0.00796,0.05435,-0.18782,0.02129,1.04499,10.36492,0.00000,2.92476,1.70329,1.72017,-8.06764,19.59983,10.39706,-8.06366,19.88536,1.67730,1.67730,57.68799,11.98118,57.68799177,11.98117843,A,143333.10
18:23:13.511989,10.42669,0.01422,2.87737,2.87737,[5.00000 0.00000 0.00000],[1.30000 0.00000 0.00000],-0.03725,0.05339,0.01457,-0.17101,-0.05236,-0.01316,0.14201,-0.01324,-0.01720,0.98985,10.41528,0.00244,2.91529,1.69603,1.72709,-8.07599,19.67089,10.39706,-8.06366,19.88536,1.67730,1.67730,57.68799,11.98118,57.68799240,11.98117829,A,143333.10
18:23:13.539214,10.45451,0.01531,2.87737,2.87737,[5.00000 0.00000 0.00000],[1.30000 0.00000 0.00000],-0.03601,0.05829,0.03014,-0.25701,-0.05236,-0.06447,0.15972,0.05624,0.06307,1.05682,10.43997,0.36386,2.90770,1.69091,1.72483,-8.08579,19.74773,10.39706,-8.06366,19.88536,1.67730,1.67730,57.68799,11.98118,57.68799310,11.98117813,A,143333.10
