Description :  ; walk_time = 2.0 ; speed_up_time = 3.0 ; balancing_time = 0.0
RealTime,Time,CalculationTime,MeasuredVelocity,FilteredVelocity,BalancingGainsInner,BalancingGainsOuter,Roll,SteeringAngle,RollRate,ControlInput,BalancingSetpoint,gy,gz,ax,ay,az,imu_read_timing,SteerMotorCurrent,v_estimated,yaw_estimated,heading_estimated,x_estimated,y_estimated,GPS_timestamp,x_GPS,y_GPS,theta_GPS,theta_GPS_noUnwrap,latitude,longitude,lat_estimated,lon_estimated,status,NMEA timestamp,DirectionGains,LateralPositionGains,distance_travelled,x_ref,y_ref,heading_ref,lateral_error,heading_error
18:15:16.640928,0.08729,0.08724,0.00000,1.50000,"[5.00000,0.00000,0.00000]","[1.30000,0.00000,0.00000]",-0.00009,0.01025,0.06997,0.00000,0.00000,0.00172,0.01619,0.08235,-0.02660,0.97942,0.00001,0.01954,0.00000,-0.00596,0.00000,0.00000,0.00000,0.01564,0.00000,0.00000,0.00000,0.00000,57.78142,12.77352,57.78142483,12.77352117,A,134101.90,"[-0.20000,-0.00000,-0.00000]","[-0.10000,-0.00000,-0.00000]",0.00000,0.00000,0.00000,0.00000,0.00000,0.00000
18:15:16.663211,0.10986,0.00998,0.00000,0.00000,"[5.00000,0.00000,0.00000]","[1.30000,0.00000,0.00000]",0.00692,0.01025,0.07867,0.00000,0.00000,0.00340,0.01192,0.10998,-0.04270,0.95203,0.10384,0.02198,0.00000,-0.00596,0.00000,0.00000,0.00000,0.01564,0.00000,0.00000,0.00000,0.00000,57.78142,12.77352,57.78142483,12.77352117,A,134101.90,"[-0.20000,-0.00000,-0.00000]","[-0.10000,-0.00000,-0.00000]",0.14972,0.00000,0.00000,0.00000,0.00000,0.00000
18:15:16.711098,0.15693,0.04587,0.00000,1.50000,"[5.00000,0.00000,0.00000]","[1.30000,0.00000,0.00000]",0.00680,0.01025,0.07516,0.00000,0.00000,0.00263,0.01039,0.13145,-0.01043,0.95062,0.11088,0.04640,0.00000,-0.00596,0.00000,0.00000,0.00000,0.12778,-0.00988,0.05560,1.74668,1.74668,57.78143,12.77352,57.78142483,12.77352117,A,134102.00,"[-0.20000,-0.00000,-0.00000]","[-0.10000,-0.00000,-0.00000]",0.14972,0.00000,0.00000,0.00000,0.00000,0.00000
18:15:16.732013,0.17866,0.00712,0.00000,0.00000,"[5.00000,0.00000,0.00000]","[1.30000,0.00000,0.00000]",0.01067,0.01025,0.07867,0.00000,0.00000,-0.00638,0.00550,0.10986,-0.03306,0.99595,0.17329,0.02930,0.00000,0.25604,0.26200,-0.00049,0.00278,0.12778,-0.00988,0.05560,1.74668,1.74668,57.78143,12.77352,57.78142486,12.77352116,A,134102.00,"[-0.20000,-0.00000,-0.00000]","[-0.10000,-0.00000,-0.00000]",0.24038,0.00000,0.00000,0.00000,0.00000,0.00000
18:15:16.740368,0.18701,0.00508,0.00000,0.00000,"[5.00000,0.00000,0.00000]","[1.30000,0.00000,0.00000]",0.01082,0.01025,0.07929,0.00000,0.00000,-0.00485,0.00718,0.07558,0.00128,0.98625,0.18170,0.01954,0.00000,0.47875,0.48470,-0.00096,0.00542,0.12778,-0.00988,0.05560,1.74668,1.74668,57.78143,12.77352,57.78142488,12.77352115,A,134102.00,"[-0.20000,-0.00000,-0.00000]","[-0.10000,-0.00000,-0.00000]",0.24038,0.00000,0.00000,0.00000,0.00000,0.00000
18:15:16.751065,0.19771,0.00536,0.00000,0.00000,"[5.00000,0.00000,0.00000]","[1.30000,0.00000,0.00000]",0.01110,0.01025,0.08371,0.00000,0.00000,-0.00912,0.00535,0.07698,-0.00317,0.98448,0.19211,0.03175,0.00000,0.66804,0.67400,-0.00141,0.00793,0.12778,-0.00988,0.05560,1.74668,1.74668,57.78143,12.77352,57.78142490,12.77352114,A,134102.00,"[-0.20000,-0.00000,-0.00000]","[-0.10000,-0.00000,-0.00000]",0.24038,0.00000,0.00000,0.00000,0.00000,0.00000
18:15:16.761806,0.20843,0.00584,0.00000,0.00000,"[5.00000,0.00000,0.00000]","[1.30000,0.00000,0.00000]",0.01140,0.01025,0.08280,0.00000,0.00000,-0.00210,0.00810,0.06399,-0.00134,0.97740,0.20272,0.03419,0.00000,0.82894,0.83490,-0.00183,0.01031,0.12778,-0.00988,0.05560,1.74668,1.74668,57.78143,12.77352,57.78142493,12.77352114,A,134102.00,"[-0.20000,-0.00000,-0.00000]","[-0.10000,-0.00000,-0.00000]",0.24038,0.00000,0.00000,0.00000,0.00000,0.00000
18:15:16.771486,0.21813,0.00514,0.00000,0.00000,"[5.00000,0.00000,0.00000]","[1.30000,0.00000,0.00000]",0.01186,0.01025,0.08845,0.00000,0.00000,0.00401,0.00856,0.06783,0.00927,0.98747,0.21257,0.05128,0.00000,0.96571,0.97167,-0.00224,0.01258,0.12778,-0.00988,0.05560,1.74668,1.74668,57.78143,12.77352,57.78142495,12.77352113,A,134102.00,"[-0.20000,-0.00000,-0.00000]","[-0.10000,-0.00000,-0.00000]",0.24038,0.00000,0.00000,0.00000,0.00000,0.00000
18:15:16.833903,0.28051,0.05711,0.00000,1.50000,"[5.00000,0.00000,0.00000]","[1.30000,0.00000,0.00000]",0.01211,0.01025,0.08753,0.00000,0.00000,0.00263,0.01176,0.09803,-0.00799,0.96014,0.22319,0.01709,0.00000,1.08196,1.08792,-0.00262,0.01473,0.24067,-0.03952,0.12973,1.95118,1.95118,57.78143,12.77352,57.78142497,12.77352112,A,134102.10,"[-0.20000,-0.00000,-0.00000]","[-0.10000,-0.00000,-0.00000]",0.24038,0.00000,0.00000,0.00000,0.00000,0.00000
18:15:16.856771,0.30341,0.00855,0.00000,0.00000,"[5.00000,0.00000,0.00000]","[1.30000,0.00000,0.00000]",0.01734,0.01025,0.07791,0.00000,0.00000,-0.00836,0.01100,0.10748,0.00256,0.98521,0.29801,0.02442,0.00000,1.21145,1.21741,-0.00446,0.02048,0.24067,-0.03952,0.12973,1.95118,1.95118,57.78143,12.77352,57.78142502,12.77352109,A,134102.10,"[-0.20000,-0.00000,-0.00000]","[-0.10000,-0.00000,-0.00000]",0.34753,0.00000,0.00000,0.00000,0.00000,0.00000
18:15:16.863534,0.31018,0.00506,0.00000,0.00000,"[5.00000,0.00000,0.00000]","[1.30000,0.00000,0.00000]",0.01706,0.01025,0.08173,0.00000,0.00000,-0.00561,0.01650,0.07393,-0.01263,1.00772,0.30466,0.02930,0.00000,1.32152,1.32747,-0.00622,0.02594,0.24067,-0.03952,0.12973,1.95118,1.95118,57.78143,12.77352,57.78142507,12.77352106,A,134102.10,"[-0.20000,-0.00000,-0.00000]","[-0.10000,-0.00000,-0.00000]",0.34753,0.00000,0.00000,0.00000,0.00000,0.00000
18:15:16.874748,0.32139,0.00588,0.00000,0.00000,"[5.00000,0.00000,0.00000]","[1.30000,0.00000,0.00000]",0.01721,0.01025,0.07852,0.00000,0.00000,-0.00011,0.01100,0.05258,-0.00482,0.97862,0.31576,0.02442,0.00000,1.41507,1.42103,-0.00788,0.03113,0.24067,-0.03952,0.12973,1.95118,1.95118,57.78143,12.77352,57.78142511,12.77352103,A,134102.10,"[-0.20000,-0.00000,-0.00000]","[-0.10000,-0.00000,-0.00000]",0.34753,0.00000,0.00000,0.00000,0.00000,0.00000
18:15:16.889991,0.33578,0.00987,9.03779,0.00000,"[5.00000,0.00000,0.00000]","[1.30000,0.00000,0.00000]",0.01794,0.01025,0.08631,0.00000,0.00000,-0.00699,0.01268,0.08644,0.00665,0.96429,0.33046,0.02442,0.00000,1.49460,1.50055,-0.00946,0.03606,0.24067,-0.03952,0.12973,1.95118,1.95118,57.78143,12.77352,57.78142516,12.77352101,A,134102.10,"[-0.20000,-0.00000,-0.00000]","[-0.10000,-0.00000,-0.00000]",0.34753,0.00000,0.00000,0.00000,0.00000,0.00000
18:15:16.955359,0.40085,0.06298,9.03779,1.50000,"[5.00000,0.00000,0.00000]","[1.30000,0.00000,0.00000]",0.01893,0.01025,0.08509,0.00000,0.00000,-0.01722,0.01787,0.09156,0.03398,0.97996,0.34371,0.03907,0.00000,1.56219,1.56815,-0.01097,0.04074,0.36184,-0.06916,0.22239,1.88040,1.88040,57.78143,12.77352,57.78142520,12.77352098,A,134102.20,"[-0.20000,-0.00000,-0.00000]","[-0.10000,-0.00000,-0.00000]",0.34753,0.00000,0.00000,0.00000,0.00000,0.00000
18:15:16.978036,0.42467,0.00974,9.03779,1.50000,"[5.00000,0.00000,0.00000]","[1.30000,0.00000,0.00000]",0.02439,0.01025,0.07898,0.00000,0.00000,0.00080,0.01024,0.05368,0.01842,0.99363,0.41905,0.02930,0.30000,1.60903,1.61499,-0.01388,0.04983,0.36184,-0.06916,0.22239,1.88040,1.88040,57.78143,12.77352,57.78142528,12.77352093,A,134102.20,"[-0.20000,-0.00000,-0.00000]","[-0.10000,-0.00000,-0.00000]",0.46309,0.00000,0.00000,0.00000,0.00000,0.00000
18:15:16.991907,0.43855,0.01268,9.03779,1.50000,"[5.00000,0.00000,0.00000]","[1.30000,0.00000,0.00000]",0.02457,0.01025,0.07012,0.00000,0.00000,0.00034,0.01436,0.05850,-0.00207,0.99235,0.43318,0.02930,0.54000,1.64887,1.65483,-0.01679,0.06190,0.36184,-0.06916,0.22239,1.88040,1.88040,57.78143,12.77352,57.78142539,12.77352088,A,134102.20,"[-0.20000,-0.00000,-0.00000]","[-0.10000,-0.00000,-0.00000]",0.47947,0.00000,0.00000,0.00000,0.00000,0.00000
18:15:17.071142,0.51776,0.06623,9.03779,1.50000,"[5.00000,0.00000,0.00000]","[1.30000,0.00000,0.00000]",0.02582,0.01025,0.05775,0.00000,0.00000,-0.00577,0.01772,0.03727,0.03941,1.02090,0.45835,0.03175,0.73200,1.68280,1.68876,-0.02042,0.08187,0.47531,-0.08893,0.31505,1.78091,1.78091,57.78143,12.77352,57.78142557,12.77352082,A,134102.30,"[-0.20000,-0.00000,-0.00000]","[-0.10000,-0.00000,-0.00000]",0.51792,0.00000,0.00000,0.00000,0.00000,0.00000
18:15:17.094250,0.54089,0.01126,9.03779,1.50000,"[5.00000,0.00000,0.00000]","[1.30000,0.00000,0.00000]",0.02840,0.00773,0.03469,0.00000,0.00000,-0.00699,-0.00122,0.07210,0.05069,0.99887,0.53439,0.02930,0.88560,1.69725,1.70175,-0.02992,0.14480,0.47531,-0.08893,0.31505,1.78091,1.78091,57.78143,12.77352,57.78142614,12.77352066,A,134102.30,"[-0.20000,-0.00000,-0.00000]","[-0.10000,-0.00000,-0.00000]",0.63504,0.00000,0.00000,0.00000,0.00000,0.00000
18:15:17.120029,0.56667,0.01238,9.03779,1.50000,"[5.00000,0.00000,0.00000]","[1.30000,0.00000,0.00000]",0.02843,0.00473,0.02568,0.00000,0.00000,-0.00653,0.00657,0.05819,0.01098,0.98991,0.56129,0.01954,1.00848,1.70951,1.71226,-0.03551,0.17333,0.47531,-0.08893,0.31505,1.78091,1.78091,57.78143,12.77352,57.78142639,12.77352057,A,134102.30,"[-0.20000,-0.00000,-0.00000]","[-0.10000,-0.00000,-0.00000]",0.67198,0.00000,0.00000,0.00000,0.00000,0.00000
18:15:17.198681,0.64531,0.06457,9.03779,1.50000,"[5.00000,0.00000,0.00000]","[1.30000,0.00000,0.00000]",0.02807,0.00221,0.01912,0.00000,0.00000,0.00493,0.00947,0.02477,-0.00079,0.97667,0.58518,0.03175,1.10678,1.72011,1.72139,-0.04125,0.20198,0.61405,-0.16797,0.51891,1.94069,1.94069,57.78143,12.77352,57.78142665,12.77352047,A,134102.50,"[-0.20000,-0.00000,-0.00000]","[-0.10000,-0.00000,-0.00000]",0.71161,0.00000,0.00000,0.00000,0.00000,0.00000
18:15:17.212439,0.65908,0.00788,9.03779,1.50000,"[5.00000,0.00000,0.00000]","[1.30000,0.00000,0.00000]",0.02786,-0.00014,-0.00211,0.00000,0.00000,-0.01264,-0.00366,0.05520,0.04831,1.00083,0.65293,0.02198,1.18543,1.75333,1.75325,-0.05800,0.28648,0.61405,-0.16797,0.51891,1.94069,1.94069,57.78143,12.77352,57.78142741,12.77352019,A,134102.50,"[-0.20000,-0.00000,-0.00000]","[-0.10000,-0.00000,-0.00000]",0.81727,0.00000,0.00000,0.00000,0.00000,0.00000
18:15:17.222706,0.66935,0.00776,9.03779,1.50000,"[5.00000,0.00000,0.00000]","[1.30000,0.00000,0.00000]",0.02732,-0.00014,0.00537,0.00000,0.00000,-0.01676,0.00031,0.03648,0.01189,0.96880,0.66359,0.02198,1.24834,1.78144,1.78136,-0.06515,0.30706,0.61405,-0.16797,0.51891,1.94069,1.94069,57.78143,12.77352,57.78142759,12.77352007,A,134102.50,"[-0.20000,-0.00000,-0.00000]","[-0.10000,-0.00000,-0.00000]",0.83281,0.00000,0.00000,0.00000,0.00000,0.00000
18:15:17.232880,0.67952,0.00736,9.03779,1.50000,"[5.00000,0.00000,0.00000]","[1.30000,0.00000,0.00000]",0.02677,-0.00014,0.00094,0.00000,0.00000,-0.02134,0.00489,0.03575,0.01482,1.00455,0.67418,0.03175,1.29867,1.80534,1.80526,-0.07238,0.32739,0.61405,-0.16797,0.51891,1.94069,1.94069,57.78143,12.77352,57.78142778,12.77351995,A,134102.50,"[-0.20000,-0.00000,-0.00000]","[-0.10000,-0.00000,-0.00000]",0.84861,0.00000,0.00000,0.00000,0.00000,0.00000
18:15:17.243541,0.69019,0.00762,9.03779,1.50000,"[5.00000,0.00000,0.00000]","[1.30000,0.00000,0.00000]",0.02600,-0.00014,-0.00288,0.00000,0.00000,-0.01248,0.00443,0.01677,0.00177,0.98314,0.68460,0.03175,1.33894,1.82566,1.82557,-0.07963,0.34732,0.61405,-0.16797,0.51891,1.94069,1.94069,57.78143,12.77352,57.78142796,12.77351982,A,134102.50,"[-0.20000,-0.00000,-0.00000]","[-0.10000,-0.00000,-0.00000]",0.86416,0.00000,0.00000,0.00000,0.00000,0.00000
18:15:17.253969,0.70061,0.00781,9.03779,1.50000,"[5.00000,0.00000,0.00000]","[1.30000,0.00000,0.00000]",0.02526,-0.00014,-0.00379,0.00000,0.00000,-0.00653,0.00779,0.02660,0.00390,0.96722,0.69498,0.05617,1.37115,1.84292,1.84284,-0.08672,0.36618,0.61405,-0.16797,0.51891,1.94069,1.94069,57.78143,12.77352,57.78142813,12.77351970,A,134102.50,"[-0.20000,-0.00000,-0.00000]","[-0.10000,-0.00000,-0.00000]",0.87946,0.00000,0.00000,0.00000,0.00000,0.00000
18:15:17.264410,0.71105,0.00785,9.03779,1.50000,"[5.00000,0.00000,0.00000]","[1.30000,0.00000,0.00000]",0.02488,-0.00014,0.00033,0.00000,0.00000,-0.00317,0.00734,0.01684,0.02342,0.96947,0.70572,0.04151,1.39692,1.85760,1.85752,-0.09383,0.38475,0.61405,-0.16797,0.51891,1.94069,1.94069,57.78143,12.77352,57.78142829,12.77351958,A,134102.50,"[-0.20000,-0.00000,-0.00000]","[-0.10000,-0.00000,-0.00000]",0.89501,0.00000,0.00000,0.00000,0.00000,0.00000
18:15:17.306192,0.75282,0.03922,9.03779,1.50000,"[5.00000,0.00000,0.00000]","[1.30000,0.00000,0.00000]",0.02449,-0.00014,0.00216,0.00000,0.00000,0.00034,0.01070,0.02470,0.02153,0.97679,0.71558,0.02930,1.41754,1.87008,1.86999,-0.10057,0.40174,0.73267,-0.20749,0.61157,1.97395,1.97395,57.78143,12.77352,57.78142845,12.77351947,A,134102.60,"[-0.20000,-0.00000,-0.00000]","[-0.10000,-0.00000,-0.00000]",0.91056,0.00000,0.00000,0.00000,0.00000,0.00000
18:15:17.319310,0.76595,0.00729,9.03779,1.50000,"[5.00000,0.00000,0.00000]","[1.30000,0.00000,0.00000]",0.02429,-0.00014,0.00461,0.00000,0.00000,-0.00912,0.01008,0.04215,0.02190,0.99290,0.76031,0.02198,1.43403,1.88566,1.88558,-0.12284,0.46708,0.73267,-0.20749,0.61157,1.97395,1.97395,57.78143,12.77352,57.78142903,12.77351909,A,134102.60,"[-0.20000,-0.00000,-0.00000]","[-0.10000,-0.00000,-0.00000]",0.97812,0.00000,0.00000,0.00000,0.00000,0.00000
18:15:17.330072,0.77672,0.00765,9.03779,1.50000,"[5.00000,0.00000,0.00000]","[1.30000,0.00000,0.00000]",0.02380,-0.00014,0.00736,0.00000,0.00000,-0.01325,0.00657,0.05771,0.01110,0.98613,0.77112,0.01709,1.44722,1.89892,1.89884,-0.13075,0.48561,0.73267,-0.20749,0.61157,1.97395,1.97395,57.78143,12.77352,57.78142920,12.77351896,A,134102.60,"[-0.20000,-0.00000,-0.00000]","[-0.10000,-0.00000,-0.00000]",0.99368,0.00000,0.00000,0.00000,0.00000,0.00000
18:15:17.340406,0.78705,0.00757,9.03779,1.50000,"[5.00000,0.00000,0.00000]","[1.30000,0.00000,0.00000]",0.02334,-0.00014,0.00980,0.00000,0.00000,-0.01142,0.01039,-0.00903,0.01110,1.00943,0.78169,0.02442,1.45778,1.91018,1.91010,-0.13837,0.50301,0.73267,-0.20749,0.61157,1.97395,1.97395,57.78143,12.77352,57.78142936,12.77351883,A,134102.60,"[-0.20000,-0.00000,-0.00000]","[-0.10000,-0.00000,-0.00000]",1.00922,0.00000,0.00000,0.00000,0.00000,0.00000
18:15:17.351204,0.79785,0.00797,9.03779,1.50000,"[5.00000,0.00000,0.00000]","[1.30000,0.00000,0.00000]",0.02295,-0.00014,0.01637,0.00000,0.00000,-0.00210,0.01131,0.02391,0.01049,1.00912,0.79203,0.03419,1.46622,1.91976,1.91968,-0.14576,0.51960,0.73267,-0.20749,0.61157,1.97395,1.97395,57.78143,12.77352,57.78142951,12.77351871,A,134102.60,"[-0.20000,-0.00000,-0.00000]","[-0.10000,-0.00000,-0.00000]",1.02477,0.00000,0.00000,0.00000,0.00000,0.00000
18:15:17.361464,0.80809,0.00775,9.03779,1.50000,"[5.00000,0.00000,0.00000]","[1.30000,0.00000,0.00000]",0.02273,-0.00014,0.01331,0.00000,0.00000,-0.00057,0.01406,0.00189,0.02483,1.01961,0.80219,0.01954,1.47298,1.92790,1.92782,-0.15262,0.53456,0.73267,-0.20749,0.61157,1.97395,1.97395,57.78143,12.77352,57.78142964,12.77351859,A,134102.60,"[-0.20000,-0.00000,-0.00000]","[-0.10000,-0.00000,-0.00000]",1.04040,0.00000,0.00000,0.00000,0.00000,0.00000
18:15:17.374933,0.82153,0.01080,9.03779,1.50000,"[5.00000,0.00000,0.00000]","[1.30000,0.00000,0.00000]",0.02240,-0.00014,0.01835,0.00000,0.00000,0.00538,0.01207,0.04136,0.01257,1.00583,0.81269,0.03419,1.47838,1.93482,1.93474,-0.15946,0.54938,0.73267,-0.20749,0.61157,1.97395,1.97395,57.78143,12.77352,57.78142977,12.77351848,A,134102.60,"[-0.20000,-0.00000,-0.00000]","[-0.10000,-0.00000,-0.00000]",1.05595,0.00000,0.00000,0.00000,0.00000,0.00000
18:15:17.450715,0.89735,0.06198,9.03779,1.50000,"[5.00000,0.00000,0.00000]","[1.30000,0.00000,0.00000]",0.02284,-0.00014,0.02522,0.00000,0.00000,0.00263,0.01665,0.04203,0.02885,0.97277,0.84060,0.02198,1.48271,1.94070,1.94062,-0.17480,0.58647,0.85856,-0.24702,0.72277,1.91230,1.91230,57.78143,12.77352,57.78143011,12.77351822,A,134102.70,"[-0.20000,-0.00000,-0.00000]","[-0.10000,-0.00000,-0.00000]",1.09284,0.00000,0.00000,0.00000,0.00000,0.00000
18:15:17.474670,0.92131,0.00975,9.03779,1.50000,"[5.00000,0.00000,0.00000]","[1.30000,0.00000,0.00000]",0.02454,-0.00014,0.03362,0.00000,0.00000,0.00050,0.00963,0.02745,-0.00439,0.99930,0.91563,0.03907,1.48616,1.93644,1.93636,-0.21514,0.68802,0.85856,-0.24702,0.72277,1.91230,1.91230,57.78143,12.77352,57.78143102,12.77351754,A,134102.70,"[-0.20000,-0.00000,-0.00000]","[-0.10000,-0.00000,-0.00000]",1.20711,0.00000,0.00000,0.00000,0.00000,0.00000
18:15:17.488456,0.93510,0.01260,9.03779,1.50000,"[5.00000,0.00000,0.00000]","[1.30000,0.00000,0.00000]",0.02517,-0.00014,0.03805,0.00000,0.00000,-0.00439,0.01039,0.05783,0.05490,0.99186,0.92974,0.01954,1.48893,1.93283,1.93275,-0.22278,0.70558,0.85856,-0.24702,0.72277,1.91230,1.91230,57.78143,12.77352,57.78143118,12.77351741,A,134102.70,"[-0.20000,-0.00000,-0.00000]","[-0.10000,-0.00000,-0.00000]",1.22349,0.00000,0.00000,0.00000,0.00000,0.00000
18:15:17.566633,1.01284,0.06543,9.03779,1.50000,"[5.00000,0.00000,0.00000]","[1.30000,0.00000,0.00000]",0.02564,-0.00014,0.05057,0.00000,0.00000,-0.00912,0.01650,0.03471,-0.00104,0.97295,0.95448,0.02686,1.49115,1.92976,1.92968,-0.23551,0.73684,0.97283,-0.29642,0.83396,1.98889,1.98889,57.78143,12.77352,57.78143146,12.77351719,A,134102.80,"[-0.20000,-0.00000,-0.00000]","[-0.10000,-0.00000,-0.00000]",1.26082,0.00000,0.00000,0.00000,0.00000,0.00000
18:15:17.588463,1.03511,0.00657,1.15969,1.15969,"[5.00000,0.00000,0.00000]","[1.30000,0.00000,0.00000]",0.02881,-0.00014,0.04859,0.00000,0.00000,-0.00806,0.00688,0.02281,0.02202,1.00479,1.02973,0.02930,1.42485,1.93863,1.93855,-0.27431,0.83701,0.97283,-0.29642,0.83396,1.98889,1.98889,57.78143,12.77352,57.78143236,12.77351654,A,134102.80,"[-0.20000,-0.00000,-0.00000]","[-0.10000,-0.00000,-0.00000]",1.38108,0.00000,0.00000,0.00000,0.00000,0.00000
18:15:17.597650,1.04428,0.00535,1.15969,1.15969,"[5.00000,0.00000,0.00000]","[1.30000,0.00000,0.00000]",0.02866,-0.00014,0.04554,0.00000,0.00000,-0.00118,0.00443,0.01726,0.01629,0.99704,1.03873,0.02930,1.37182,1.94618,1.94610,-0.27892,0.84595,0.97283,-0.29642,0.83396,1.98889,1.98889,57.78143,12.77352,57.78143244,12.77351646,A,134102.80,"[-0.20000,-0.00000,-0.00000]","[-0.10000,-0.00000,-0.00000]",1.39310,0.00000,0.00000,0.00000,0.00000,0.00000
18:15:17.607856,1.05450,0.00516,1.15969,1.15969,"[5.00000,0.00000,0.00000]","[1.30000,0.00000,0.00000]",0.02932,-0.00014,0.04447,0.00000,0.00000,-0.00332,0.00673,0.05722,0.06612,0.97301,1.04891,0.02686,1.32940,1.95260,1.95252,-0.28394,0.85589,0.97283,-0.29642,0.83396,1.98889,1.98889,57.78143,12.77352,57.78143253,12.77351638,A,134102.80,"[-0.20000,-0.00000,-0.00000]","[-0.10000,-0.00000,-0.00000]",1.40512,0.00000,0.00000,0.00000,0.00000,0.00000
18:15:17.618611,1.06526,0.00552,1.15969,1.15969,"[5.00000,0.00000,0.00000]","[1.30000,0.00000,0.00000]",0.02963,-0.00014,0.04966,0.00000,0.00000,-0.00271,0.00810,0.07076,0.03776,0.95520,1.05953,0.01954,1.29546,1.95806,1.95797,-0.28860,0.86485,0.97283,-0.29642,0.83396,1.98889,1.98889,57.78143,12.77352,57.78143261,12.77351630,A,134102.80,"[-0.20000,-0.00000,-0.00000]","[-0.10000,-0.00000,-0.00000]",1.41714,0.00000,0.00000,0.00000,0.00000,0.00000
18:15:17.681278,1.12746,0.05731,1.15969,1.50000,"[5.00000,0.00000,0.00000]","[1.30000,0.00000,0.00000]",0.02959,-0.00014,0.04813,0.00000,0.00000,-0.00989,0.00581,0.03812,0.01787,0.96770,1.06997,0.04151,1.26830,1.96269,1.96261,-0.29285,0.87275,1.08684,-0.33594,0.94516,1.91230,1.91230,57.78143,12.77352,57.78143268,12.77351623,A,134102.90,"[-0.20000,-0.00000,-0.00000]","[-0.10000,-0.00000,-0.00000]",1.42916,0.00000,0.00000,0.00000,0.00000,0.00000
18:15:17.704221,1.15086,0.00919,1.15969,1.15969,"[5.00000,0.00000,0.00000]","[1.30000,0.00000,0.00000]",0.03292,-0.00014,0.05729,0.00000,0.00000,-0.01019,0.00443,0.05234,-0.00384,0.96532,1.14452,0.02930,1.24658,1.95514,1.95505,-0.32849,0.95742,1.08684,-0.33594,0.94516,1.91230,1.91230,57.78143,12.77352,57.78143344,12.77351563,A,134102.90,"[-0.20000,-0.00000,-0.00000]","[-0.10000,-0.00000,-0.00000]",1.53642,0.00000,0.00000,0.00000,0.00000,0.00000
18:15:17.710809,1.15745,0.00511,1.15969,1.15969,"[5.00000,0.00000,0.00000]","[1.30000,0.00000,0.00000]",0.03275,-0.00014,0.05974,0.00000,0.00000,-0.01523,0.01024,0.04160,0.01659,0.98033,1.15187,0.02930,1.22920,1.94872,1.94864,-0.33089,0.96183,1.08684,-0.33594,0.94516,1.91230,1.91230,57.78143,12.77352,57.78143348,12.77351559,A,134102.90,"[-0.20000,-0.00000,-0.00000]","[-0.10000,-0.00000,-0.00000]",1.54878,0.00000,0.00000,0.00000,0.00000,0.00000
18:15:17.721427,1.16783,0.00508,1.15969,1.15969,"[5.00000,0.00000,0.00000]","[1.30000,0.00000,0.00000]",0.03324,-0.00014,0.05959,0.00000,0.00000,-0.01508,0.01238,0.06533,0.04587,0.94733,1.16252,0.02686,1.21530,1.94327,1.94319,-0.33486,0.97036,1.08684,-0.33594,0.94516,1.91230,1.91230,57.78143,12.77352,57.78143356,12.77351552,A,134102.90,"[-0.20000,-0.00000,-0.00000]","[-0.10000,-0.00000,-0.00000]",1.56079,0.00000,0.00000,0.00000,0.00000,0.00000
18:15:17.731620,1.17826,0.00512,1.15969,1.15969,"[5.00000,0.00000,0.00000]","[1.30000,0.00000,0.00000]",0.03369,-0.00014,0.06722,0.00000,0.00000,-0.01768,0.01635,0.05819,0.04136,0.95678,1.17271,0.02198,1.20418,1.93864,1.93856,-0.33845,0.97816,1.08684,-0.33594,0.94516,1.91230,1.91230,57.78143,12.77352,57.78143363,12.77351546,A,134102.90,"[-0.20000,-0.00000,-0.00000]","[-0.10000,-0.00000,-0.00000]",1.57281,0.00000,0.00000,0.00000,0.00000,0.00000
18:15:17.803543,1.25016,0.06661,1.15969,1.50000,"[5.00000,0.00000,0.00000]","[1.30000,0.00000,0.00000]",0.03455,-0.00014,0.07241,0.00000,0.00000,-0.01218,0.02093,0.06374,0.06051,0.94404,1.18354,0.02198,1.19528,1.93470,1.93462,-0.34196,0.98594,1.21218,-0.43475,1.20461,1.93466,1.93466,57.78144,12.77351,57.78143370,12.77351540,A,134103.10,"[-0.20000,-0.00000,-0.00000]","[-0.10000,-0.00000,-0.00000]",1.58483,0.00000,0.00000,0.00000,0.00000,0.00000
18:15:17.825511,1.27213,0.00909,1.15969,1.15969,"[5.00000,0.00000,0.00000]","[1.30000,0.00000,0.00000]",0.03987,-0.00014,0.07043,0.00000,0.00000,-0.01859,0.02627,0.01555,0.03318,0.98186,1.26579,0.01954,1.18816,1.93470,1.93461,-0.37891,1.08172,1.21218,-0.43475,1.20461,1.93466,1.93466,57.78144,12.77351,57.78143456,12.77351478,A,134103.10,"[-0.20000,-0.00000,-0.00000]","[-0.10000,-0.00000,-0.00000]",1.70403,0.00000,0.00000,0.00000,0.00000,0.00000
18:15:17.831749,1.27840,0.00501,1.15969,1.15969,"[5.00000,0.00000,0.00000]","[1.30000,0.00000,0.00000]",0.03958,-0.00014,0.07562,0.00000,0.00000,-0.01203,0.02429,0.02946,0.00909,0.94953,1.27289,0.03663,1.18247,1.93470,1.93462,-0.38362,1.09290,1.21218,-0.43475,1.20461,1.93466,1.93466,57.78144,12.77351,57.78143466,12.77351470,A,134103.10,"[-0.20000,-0.00000,-0.00000]","[-0.10000,-0.00000,-0.00000]",1.71601,0.00000,0.00000,0.00000,0.00000,0.00000
18:15:17.842527,1.28918,0.00539,1.15969,1.15969,"[5.00000,0.00000,0.00000]","[1.30000,0.00000,0.00000]",0.03959,-0.00014,0.07241,0.00000,0.00000,-0.01447,0.02139,0.09327,0.01336,0.95721,1.28356,0.05617,1.17791,1.93471,1.93463,-0.38965,1.10763,1.21218,-0.43475,1.20461,1.93466,1.93466,57.78144,12.77351,57.78143479,12.77351459,A,134103.10,"[-0.20000,-0.00000,-0.00000]","[-0.10000,-0.00000,-0.00000]",1.72803,0.00000,0.00000,0.00000,0.00000,0.00000
18:15:17.852649,1.29930,0.00511,1.15969,1.15969,"[5.00000,0.00000,0.00000]","[1.30000,0.00000,0.00000]",0.03975,-0.00014,0.06417,0.00000,0.00000,-0.01523,0.01742,0.06222,0.03105,0.99826,1.29399,0.04640,1.17427,1.93471,1.93463,-0.39524,1.12122,1.21218,-0.43475,1.20461,1.93466,1.93466,57.78144,12.77351,57.78143492,12.77351450,A,134103.10,"[-0.20000,-0.00000,-0.00000]","[-0.10000,-0.00000,-0.00000]",1.74004,0.00000,0.00000,0.00000,0.00000,0.00000
18:15:17.863460,1.31010,0.00562,1.15969,1.15969,"[5.00000,0.00000,0.00000]","[1.30000,0.00000,0.00000]",0.03988,-0.00014,0.06065,0.00000,0.00000,-0.00592,0.01161,0.04227,0.03300,1.00522,1.30412,0.02198,1.17135,1.93472,1.93463,-0.40054,1.13412,1.21218,-0.43475,1.20461,1.93466,1.93466,57.78144,12.77351,57.78143503,12.77351441,A,134103.10,"[-0.20000,-0.00000,-0.00000]","[-0.10000,-0.00000,-0.00000]",1.75194,0.00000,0.00000,0.00000,0.00000,0.00000
18:15:17.925857,1.37247,0.05759,1.15969,1.50000,"[5.00000,0.00000,0.00000]","[1.30000,0.00000,0.00000]",0.04094,-0.00014,0.05332,0.00000,0.00000,-0.00149,0.01008,0.02068,0.09858,1.00211,1.31467,0.01709,1.16902,1.93472,1.93464,-0.40547,1.14610,1.33149,-0.47427,1.31581,1.91230,1.91230,57.78144,12.77351,57.78143514,12.77351433,A,134103.20,"[-0.20000,-0.00000,-0.00000]","[-0.10000,-0.00000,-0.00000]",1.76396,0.00000,0.00000,0.00000,0.00000,0.00000
18:15:17.946954,1.39360,0.00691,1.15969,1.15969,"[5.00000,0.00000,0.00000]","[1.30000,0.00000,0.00000]",0.04334,-0.00014,0.03317,0.00000,0.00000,0.00447,0.01039,0.00848,0.06588,0.99216,1.38781,0.02198,1.16716,1.93136,1.93128,-0.43712,1.22868,1.33149,-0.47427,1.31581,1.91230,1.91230,57.78144,12.77351,57.78143588,12.77351379,A,134103.20,"[-0.20000,-0.00000,-0.00000]","[-0.10000,-0.00000,-0.00000]",1.87163,0.00000,0.00000,0.00000,0.00000,0.00000
18:15:17.955730,1.40237,0.00528,1.15969,1.15969,"[5.00000,0.00000,0.00000]","[1.30000,0.00000,0.00000]",0.04300,-0.00014,0.02950,0.00000,0.00000,0.01088,0.00764,0.03764,0.02739,0.96819,1.39667,0.03175,1.16566,1.92851,1.92843,-0.44157,1.23992,1.33149,-0.47427,1.31581,1.91230,1.91230,57.78144,12.77351,57.78143598,12.77351372,A,134103.20,"[-0.20000,-0.00000,-0.00000]","[-0.10000,-0.00000,-0.00000]",1.88365,0.00000,0.00000,0.00000,0.00000,0.00000
18:15:17.966557,1.41320,0.00570,1.15969,1.15969,"[5.00000,0.00000,0.00000]","[1.30000,0.00000,0.00000]",0.04354,-0.00014,0.01957,0.00000,0.00000,0.01058,0.00505,0.06448,0.08955,1.00351,1.40756,0.01954,1.16447,1.92609,1.92601,-0.44660,1.25278,1.33149,-0.47427,1.31581,1.91230,1.91230,57.78144,12.77351,57.78143610,12.77351363,A,134103.20,"[-0.20000,-0.00000,-0.00000]","[-0.10000,-0.00000,-0.00000]",1.89567,0.00000,0.00000,0.00000,0.00000,0.00000
18:15:17.976401,1.42305,0.00515,1.15969,1.15969,"[5.00000,0.00000,0.00000]","[1.30000,0.00000,0.00000]",0.04348,-0.00014,0.01438,0.00000,0.00000,0.01516,-0.00137,0.03160,0.05411,0.99192,1.41773,0.03907,1.16351,1.92404,1.92395,-0.45109,1.26432,1.33149,-0.47427,1.31581,1.91230,1.91230,57.78144,12.77351,57.78143620,12.77351356,A,134103.20,"[-0.20000,-0.00000,-0.00000]","[-0.10000,-0.00000,-0.00000]",1.90769,0.00000,0.00000,0.00000,0.00000,0.00000
18:15:18.034999,1.48163,0.05328,1.15969,1.50000,"[5.00000,0.00000,0.00000]","[1.30000,0.00000,0.00000]",0.04337,-0.00014,0.00995,0.00000,0.00000,0.01485,-0.00244,0.03995,0.05435,0.99839,1.42795,0.03175,1.16275,1.92229,1.92221,-0.45548,1.27566,1.44508,-0.53355,1.44553,1.99944,1.99944,57.78144,12.77351,57.78143631,12.77351348,A,134103.30,"[-0.20000,-0.00000,-0.00000]","[-0.10000,-0.00000,-0.00000]",1.91977,0.00000,0.00000,0.00000,0.00000,0.00000
18:15:18.057458,1.50386,0.00660,1.34466,1.34466,"[5.00000,0.00000,0.00000]","[1.30000,0.00000,0.00000]",0.04223,-0.00088,-0.01234,0.00000,0.00000,0.00844,0.00443,0.05777,0.04758,0.96880,1.49852,0.04151,1.19913,1.93393,1.93342,-0.48544,1.35522,1.44508,-0.53355,1.44553,1.99944,1.99944,57.78144,12.77351,57.78143702,12.77351298,A,134103.30,"[-0.20000,-0.00000,-0.00000]","[-0.10000,-0.00000,-0.00000]",2.02311,0.00000,0.00000,0.00000,0.00000,0.00000
18:15:18.066690,1.51333,0.00567,1.34466,1.34466,"[5.00000,0.00000,0.00000]","[1.30000,0.00000,0.00000]",0.04248,-0.00127,-0.00501,0.00000,0.00000,0.01119,0.00260,0.03989,0.08204,0.94666,1.50770,0.03419,1.22824,1.94386,1.94312,-0.49084,1.36762,1.44508,-0.53355,1.44553,1.99944,1.99944,57.78144,12.77351,57.78143713,12.77351289,A,134103.30,"[-0.20000,-0.00000,-0.00000]","[-0.10000,-0.00000,-0.00000]",2.03705,0.00000,0.00000,0.00000,0.00000,0.00000
18:15:18.076429,1.52308,0.00501,1.34466,1.34466,"[5.00000,0.00000,0.00000]","[1.30000,0.00000,0.00000]",0.04297,-0.00158,-0.00486,0.00000,0.00000,0.00645,0.00642,0.02220,0.09790,0.95111,1.51775,0.03419,1.25152,1.95233,1.95141,-0.49636,1.38018,1.44508,-0.53355,1.44553,1.99944,1.99944,57.78144,12.77351,57.78143725,12.77351279,A,134103.30,"[-0.20000,-0.00000,-0.00000]","[-0.10000,-0.00000,-0.00000]",2.05099,0.00000,0.00000,0.00000,0.00000,0.00000
18:15:18.087092,1.53374,0.00537,1.34466,1.34466,"[5.00000,0.00000,0.00000]","[1.30000,0.00000,0.00000]",0.04312,-0.00164,0.00125,0.00000,0.00000,0.00401,0.00657,0.07119,0.07241,0.94971,1.52797,0.03175,1.27015,1.95953,1.95857,-0.50195,1.39277,1.44508,-0.53355,1.44553,1.99944,1.99944,57.78144,12.77351,57.78143736,12.77351270,A,134103.30,"[-0.20000,-0.00000,-0.00000]","[-0.10000,-0.00000,-0.00000]",2.06479,0.00000,0.00000,0.00000,0.00000,0.00000
18:15:18.097445,1.54384,0.00507,1.34466,1.34466,"[5.00000,0.00000,0.00000]","[1.30000,0.00000,0.00000]",0.04210,-0.00164,0.00858,0.00000,0.00000,0.00416,0.01100,0.01098,-0.00592,0.98411,1.53855,0.03175,1.28505,1.96564,1.96469,-0.50735,1.40476,1.44508,-0.53355,1.44553,1.99944,1.99944,57.78144,12.77351,57.78143747,12.77351261,A,134103.30,"[-0.20000,-0.00000,-0.00000]","[-0.10000,-0.00000,-0.00000]",2.07873,0.00000,0.00000,0.00000,0.00000,0.00000
18:15:18.158918,1.60553,0.05636,1.34466,1.50000,"[5.00000,0.00000,0.00000]","[1.30000,0.00000,0.00000]",0.04164,-0.00164,0.00445,0.00000,0.00000,0.00004,0.01344,0.07137,0.03202,0.97954,1.54874,0.03663,1.29697,1.97084,1.96989,-0.51261,1.41632,1.56587,-0.58296,1.57526,1.93466,1.93466,57.78144,12.77351,57.78143757,12.77351252,A,134103.40,"[-0.20000,-0.00000,-0.00000]","[-0.10000,-0.00000,-0.00000]",2.09267,0.00000,0.00000,0.00000,0.00000,0.00000
18:15:18.182257,1.62890,0.00740,1.34466,1.34466,"[5.00000,0.00000,0.00000]","[1.30000,0.00000,0.00000]",0.04484,-0.00164,0.04309,0.00000,0.00000,0.00172,0.00963,0.00549,0.06625,0.96850,1.62325,0.04151,1.30651,1.96545,1.96449,-0.55085,1.50660,1.56587,-0.58296,1.57526,1.93466,1.93466,57.78144,12.77351,57.78143838,12.77351187,A,134103.40,"[-0.20000,-0.00000,-0.00000]","[-0.10000,-0.00000,-0.00000]",2.19900,0.00000,0.00000,0.00000,0.00000,0.00000
18:15:18.190670,1.63732,0.00523,1.34466,1.34466,"[5.00000,0.00000,0.00000]","[1.30000,0.00000,0.00000]",0.04464,-0.00164,0.04370,0.00000,0.00000,0.00141,0.00306,-0.04221,0.03141,0.98240,1.63168,0.04151,1.31414,1.96096,1.96001,-0.55548,1.51730,1.56587,-0.58296,1.57526,1.93466,1.93466,57.78144,12.77351,57.78143848,12.77351180,A,134103.40,"[-0.20000,-0.00000,-0.00000]","[-0.10000,-0.00000,-0.00000]",2.21294,0.00000,0.00000,0.00000,0.00000,0.00000
18:15:18.200961,1.64761,0.00512,1.34466,1.34466,"[5.00000,0.00000,0.00000]","[1.30000,0.00000,0.00000]",0.04550,-0.00164,0.04767,0.00000,0.00000,0.00386,0.00505,0.01366,0.09272,0.99826,1.64229,0.03663,1.32025,1.95715,1.95619,-0.56089,1.53005,1.56587,-0.58296,1.57526,1.93466,1.93466,57.78144,12.77351,57.78143859,12.77351171,A,134103.40,"[-0.20000,-0.00000,-0.00000]","[-0.10000,-0.00000,-0.00000]",2.22688,0.00000,0.00000,0.00000,0.00000,0.00000
18:15:18.211262,1.65791,0.00518,1.34466,1.34466,"[5.00000,0.00000,0.00000]","[1.30000,0.00000,0.00000]",0.04573,-0.00164,0.04706,0.00000,0.00000,-0.00134,0.00062,0.03428,0.05392,0.98680,1.65234,0.03419,1.32513,1.95390,1.95295,-0.56590,1.54194,1.56587,-0.58296,1.57526,1.93466,1.93466,57.78144,12.77351,57.78143870,12.77351162,A,134103.40,"[-0.20000,-0.00000,-0.00000]","[-0.10000,-0.00000,-0.00000]",2.24060,0.00000,0.00000,0.00000,0.00000,0.00000
18:15:18.272366,1.71876,0.05563,1.34466,1.50000,"[5.00000,0.00000,0.00000]","[1.30000,0.00000,0.00000]",0.04587,-0.00164,0.03988,0.00000,0.00000,-0.00714,0.00306,0.00116,0.05215,1.01528,1.66294,0.02930,1.32904,1.95115,1.95019,-0.57078,1.55363,1.67982,-0.64224,1.72352,1.95118,1.95118,57.78144,12.77351,57.78143881,12.77351154,A,134103.50,"[-0.20000,-0.00000,-0.00000]","[-0.10000,-0.00000,-0.00000]",2.25454,0.00000,0.00000,0.00000,0.00000,0.00000
18:15:18.295812,1.74245,0.00839,1.34466,1.34466,"[5.00000,0.00000,0.00000]","[1.30000,0.00000,0.00000]",0.04724,-0.00164,0.02156,0.00000,0.00000,0.00554,0.00169,0.05795,0.05392,0.93641,1.73640,0.01954,1.33216,1.95118,1.95023,-0.60789,1.64623,1.67982,-0.64224,1.72352,1.95118,1.95118,57.78144,12.77351,57.78143964,12.77351091,A,134103.50,"[-0.20000,-0.00000,-0.00000]","[-0.10000,-0.00000,-0.00000]",2.36091,0.00000,0.00000,0.00000,0.00000,0.00000
18:15:18.302800,1.74944,0.00520,1.34466,1.34466,"[5.00000,0.00000,0.00000]","[1.30000,0.00000,0.00000]",0.04675,-0.00164,0.01805,0.00000,0.00000,0.00080,0.00291,-0.00018,0.02965,0.98015,1.74382,0.03419,1.33466,1.95132,1.95036,-0.61192,1.65590,1.67982,-0.64224,1.72352,1.95118,1.95118,57.78144,12.77351,57.78143973,12.77351084,A,134103.50,"[-0.20000,-0.00000,-0.00000]","[-0.10000,-0.00000,-0.00000]",2.37456,0.00000,0.00000,0.00000,0.00000,0.00000
18:15:18.313367,1.75976,0.00512,1.34466,1.34466,"[5.00000,0.00000,0.00000]","[1.30000,0.00000,0.00000]",0.04696,-0.00164,0.01728,0.00000,0.00000,0.00325,0.00107,-0.02324,0.07088,0.97234,1.75446,0.02442,1.33666,1.95143,1.95047,-0.61746,1.66937,1.67982,-0.64224,1.72352,1.95118,1.95118,57.78144,12.77351,57.78143985,12.77351075,A,134103.50,"[-0.20000,-0.00000,-0.00000]","[-0.10000,-0.00000,-0.00000]",2.38850,0.00000,0.00000,0.00000,0.00000,0.00000
18:15:18.323546,1.77020,0.00515,1.34466,1.34466,"[5.00000,0.00000,0.00000]","[1.30000,0.00000,0.00000]",0.04684,-0.00164,0.01408,0.00000,0.00000,0.01103,0.00092,0.03642,0.05380,0.99631,1.76462,0.02930,1.33826,1.95152,1.95056,-0.62266,1.68199,1.67982,-0.64224,1.72352,1.95118,1.95118,57.78144,12.77351,57.78143996,12.77351066,A,134103.50,"[-0.20000,-0.00000,-0.00000]","[-0.10000,-0.00000,-0.00000]",2.40244,0.00000,0.00000,0.00000,0.00000,0.00000
18:15:18.397865,1.84448,0.06903,1.34466,1.50000,"[5.00000,0.00000,0.00000]","[1.30000,0.00000,0.00000]",0.04653,-0.00164,0.00613,0.00000,0.00000,0.00325,-0.00274,0.05344,0.04740,1.01797,1.77525,0.01709,1.33954,1.95160,1.95064,-0.62769,1.69422,1.80473,-0.75093,1.98298,1.96749,1.96749,57.78144,12.77351,57.78144007,12.77351058,A,134103.70,"[-0.20000,-0.00000,-0.00000]","[-0.10000,-0.00000,-0.00000]",2.41637,0.00000,0.00000,0.00000,0.00000,0.00000
18:15:18.418899,1.86555,0.00873,1.34466,1.34466,"[5.00000,0.00000,0.00000]","[1.30000,0.00000,0.00000]",0.04521,-0.00459,-0.01540,0.00000,0.00000,-0.00149,0.00092,-0.00567,0.06612,0.97661,1.85986,0.02442,1.34057,1.95425,1.95158,-0.67281,1.80623,1.80473,-0.75093,1.98298,1.96749,1.96749,57.78144,12.77351,57.78144108,12.77350982,A,134103.70,"[-0.20000,-0.00000,-0.00000]","[-0.10000,-0.00000,-0.00000]",2.53838,0.00000,0.00000,0.00000,0.00000,0.00000
18:15:18.425738,1.87238,0.00535,1.34466,1.34466,"[5.00000,0.00000,0.00000]","[1.30000,0.00000,0.00000]",0.04477,-0.00501,-0.01387,0.00000,0.00000,0.00431,-0.00534,0.01135,0.04404,0.95361,1.86683,0.02198,1.34138,1.95665,1.95374,-0.67901,1.82082,1.80473,-0.75093,1.98298,1.96749,1.96749,57.78144,12.77351,57.78144121,12.77350971,A,134103.70,"[-0.20000,-0.00000,-0.00000]","[-0.10000,-0.00000,-0.00000]",2.55209,0.00000,0.00000,0.00000,0.00000,0.00000
18:15:18.435879,1.88253,0.00510,1.34466,1.34466,"[5.00000,0.00000,0.00000]","[1.30000,0.00000,0.00000]",0.04499,-0.00552,-0.02044,0.00000,0.00000,0.00859,-0.00366,0.02251,0.09284,0.95160,1.87720,0.02198,1.34204,1.95871,1.95551,-0.68672,1.83913,1.80473,-0.75093,1.98298,1.96749,1.96749,57.78144,12.77351,57.78144137,12.77350958,A,134103.70,"[-0.20000,-0.00000,-0.00000]","[-0.10000,-0.00000,-0.00000]",2.56602,0.00000,0.00000,0.00000,0.00000,0.00000
18:15:18.446769,1.89341,0.00559,1.34466,1.34466,"[5.00000,0.00000,0.00000]","[1.30000,0.00000,0.00000]",0.04462,-0.00600,-0.02242,0.00000,0.00000,0.00340,-0.00839,0.01238,0.05642,0.95605,1.88764,0.03175,1.34256,1.96051,1.95702,-0.69407,1.85655,1.80473,-0.75093,1.98298,1.96749,1.96749,57.78144,12.77351,57.78144153,12.77350946,A,134103.70,"[-0.20000,-0.00000,-0.00000]","[-0.10000,-0.00000,-0.00000]",2.57996,0.00000,0.00000,0.00000,0.00000,0.00000
18:15:18.456844,1.90349,0.00526,1.34466,1.34466,"[5.00000,0.00000,0.00000]","[1.30000,0.00000,0.00000]",0.04451,-0.00634,-0.02945,0.00000,0.00000,0.00615,-0.01191,-0.00622,0.08089,0.99393,1.89816,0.02930,1.34298,1.96206,1.95837,-0.70091,1.87269,1.80473,-0.75093,1.98298,1.96749,1.96749,57.78144,12.77351,57.78144167,12.77350934,A,134103.70,"[-0.20000,-0.00000,-0.00000]","[-0.10000,-0.00000,-0.00000]",2.59390,0.00000,0.00000,0.00000,0.00000,0.00000
18:15:18.516539,1.96317,0.05466,1.34466,1.50000,"[5.00000,0.00000,0.00000]","[1.30000,0.00000,0.00000]",0.04395,-0.00659,-0.02624,0.00000,0.00000,0.00859,-0.01007,0.00360,0.04801,0.99924,1.90813,0.02686,1.34332,1.96340,1.95956,-0.70747,1.88816,1.92538,-0.81021,2.13124,1.95118,1.95118,57.78144,12.77351,57.78144181,12.77350923,A,134103.80,"[-0.20000,-0.00000,-0.00000]","[-0.10000,-0.00000,-0.00000]",2.60768,0.00000,0.00000,0.00000,0.00000,0.00000
18:15:18.536477,1.98312,0.00675,1.58288,1.58288,"[5.00000,0.00000,0.00000]","[1.30000,0.00000,0.00000]",0.04080,-0.00914,-0.03006,0.00000,0.00000,0.01470,-0.01145,-0.01318,-0.00586,0.97820,1.97774,0.02442,1.39123,1.96192,1.95660,-0.74519,1.97986,1.92538,-0.81021,2.13124,1.95118,1.95118,57.78144,12.77351,57.78144264,12.77350860,A,134103.80,"[-0.20000,-0.00000,-0.00000]","[-0.10000,-0.00000,-0.00000]",2.70796,0.00000,0.00000,0.00000,0.00000,0.00000
18:15:18.545705,1.99234,0.00556,1.58288,1.58288,"[5.00000,0.00000,0.00000]","[1.30000,0.00000,0.00000]",0.04013,-0.00971,-0.03327,0.00000,0.00000,0.01271,-0.01206,0.03141,0.03788,0.98515,1.98658,0.02442,1.42956,1.96109,1.95545,-0.75193,1.99603,1.92538,-0.81021,2.13124,1.95118,1.95118,57.78144,12.77351,57.78144278,12.77350848,A,134103.80,"[-0.20000,-0.00000,-0.00000]","[-0.10000,-0.00000,-0.00000]",2.72438,0.00000,0.00000,0.00000,0.00000,0.00000
18:15:18.555774,2.00242,0.00524,1.58288,1.58288,"[5.00000,0.00000,0.00000]","[1.30000,0.00000,0.00000]",0.03937,-0.01030,-0.03266,0.00000,0.00000,0.00752,-0.01236,0.00220,0.03422,1.00833,1.99688,0.03175,1.46023,1.96042,1.95443,-0.75918,2.01349,1.92538,-0.81021,2.13124,1.95118,1.95118,57.78144,12.77351,57.78144294,12.77350836,A,134103.80,"[-0.20000,-0.00000,-0.00000]","[-0.10000,-0.00000,-0.00000]",2.74078,0.00000,0.00000,0.00000,0.00000,0.00000
18:15:18.570539,2.01716,0.00949,1.58288,1.58288,"[5.00000,0.00000,0.00000]","[1.30000,0.00000,0.00000]",0.03840,-0.01081,-0.02869,0.00000,0.00000,0.00966,-0.00855,0.04063,0.01665,1.00034,2.00747,0.01954,1.48476,1.95988,1.95359,-0.76620,2.03045,1.92538,-0.81021,2.13124,1.95118,1.95118,57.78144,12.77351,57.78144309,12.77350824,A,134103.80,"[-0.20000,-0.00000,-0.00000]","[-0.10000,-0.00000,-0.00000]",2.75735,0.00000,0.00000,0.00000,0.00000,0.00000
18:15:18.577974,2.02461,0.00583,1.58288,1.58288,"[5.00000,0.00000,0.00000]","[1.30000,0.00000,0.00000]",0.03725,-0.01132,-0.03067,0.00000,0.00000,0.00263,-0.00748,0.05100,0.00677,0.99491,2.01863,0.01954,1.50438,1.95946,1.95288,-0.77297,2.04684,1.92538,-0.81021,2.13124,1.95118,1.95118,57.78144,12.77351,57.78144324,12.77350813,A,134103.80,"[-0.20000,-0.00000,-0.00000]","[-0.10000,-0.00000,-0.00000]",2.77490,0.00000,0.00000,0.00000,0.00000,0.00000
18:15:18.642689,2.08931,0.06013,1.58288,1.50000,"[5.00000,0.00000,0.00000]","[1.30000,0.00000,0.00000]",0.03671,-0.01169,-0.03647,0.00000,0.00000,-0.00454,-0.00732,0.01330,0.04740,0.99631,2.02875,0.02930,1.52008,1.95913,1.95233,-0.77938,2.06238,2.04576,-0.87937,2.26096,2.06061,2.06061,57.78145,12.77351,57.78144338,12.77350802,A,134103.90,"[-0.20000,-0.00000,-0.00000]","[-0.10000,-0.00000,-0.00000]",2.79130,0.00000,0.00000,0.00000,0.00000,0.00000
18:15:18.664537,2.11118,0.00954,1.58288,1.58288,"[5.00000,0.00000,0.00000]","[1.30000,0.00000,0.00000]",0.03255,-0.01203,-0.04961,0.00000,0.00000,0.01027,-0.01725,-0.14402,0.03239,1.04444,2.10541,0.03419,1.53264,1.97442,1.96743,-0.82454,2.17241,2.04576,-0.87937,2.26096,2.06061,2.06061,57.78145,12.77351,57.78144437,12.77350726,A,134103.90,"[-0.20000,-0.00000,-0.00000]","[-0.10000,-0.00000,-0.00000]",2.89995,0.00000,0.00000,0.00000,0.00000,0.00000
18:15:18.671775,2.11842,0.00551,1.58288,1.58288,"[5.00000,0.00000,0.00000]","[1.30000,0.00000,0.00000]",0.03212,-0.01203,-0.04747,0.00000,0.00000,0.00355,-0.02153,-0.27871,0.04813,1.00961,2.11245,0.04640,1.54269,1.98833,1.98133,-0.83022,2.18384,2.04576,-0.87937,2.26096,2.06061,2.06061,57.78145,12.77351,57.78144447,12.77350716,A,134103.90,"[-0.20000,-0.00000,-0.00000]","[-0.10000,-0.00000,-0.00000]",2.91776,0.00000,0.00000,0.00000,0.00000,0.00000
18:15:18.682447,2.12909,0.00578,1.58288,1.58288,"[5.00000,0.00000,0.00000]","[1.30000,0.00000,0.00000]",0.03157,-0.01203,-0.03907,0.00000,0.00000,0.01317,-0.02855,-0.06252,0.04691,1.03224,2.12312,0.02198,1.55073,2.00010,1.99311,-0.83773,2.19932,2.04576,-0.87937,2.26096,2.06061,2.06061,57.78145,12.77351,57.78144461,12.77350704,A,134103.90,"[-0.20000,-0.00000,-0.00000]","[-0.10000,-0.00000,-0.00000]",2.93417,0.00000,0.00000,0.00000,0.00000,0.00000
18:15:18.692560,2.13920,0.00550,1.58288,1.58288,"[5.00000,0.00000,0.00000]","[1.30000,0.00000,0.00000]",0.03268,-0.01203,-0.03082,0.00000,0.00000,0.03501,-0.01740,-0.33343,0.13707,0.91921,2.13349,0.02442,1.55716,2.01011,2.00312,-0.84486,2.21363,2.04576,-0.87937,2.26096,2.06061,2.06061,57.78145,12.77351,57.78144474,12.77350692,A,134103.90,"[-0.20000,-0.00000,-0.00000]","[-0.10000,-0.00000,-0.00000]",2.95057,0.00000,0.00000,0.00000,0.00000,0.00000
18:15:18.751922,2.19809,0.05384,1.58288,1.50000,"[5.00000,0.00000,0.00000]","[1.30000,0.00000,0.00000]",0.03206,-0.01203,-0.00837,0.00000,0.00000,0.04249,-0.01511,0.08857,0.01677,0.87608,2.14385,0.02198,1.56231,2.01862,2.01162,-0.85191,2.22754,2.16086,-0.93866,2.40922,1.95118,1.95118,57.78145,12.77351,57.78144487,12.77350680,A,134104.00,"[-0.20000,-0.00000,-0.00000]","[-0.10000,-0.00000,-0.00000]",2.96720,0.00000,0.00000,0.00000,0.00000,0.00000
18:15:18.773647,2.22028,0.00816,1.58288,1.58288,"[5.00000,0.00000,0.00000]","[1.30000,0.00000,0.00000]",0.03139,-0.01203,-0.00517,0.00000,0.00000,0.00034,-0.02687,-0.05173,0.03471,1.04249,2.21427,0.03419,1.56642,2.00860,2.00161,-0.89955,2.32840,2.16086,-0.93866,2.40922,1.95118,1.95118,57.78145,12.77351,57.78144577,12.77350599,A,134104.00,"[-0.20000,-0.00000,-0.00000]","[-0.10000,-0.00000,-0.00000]",3.06864,0.00000,0.00000,0.00000,0.00000,0.00000
18:15:18.781561,2.22819,0.00578,1.58288,1.58288,"[5.00000,0.00000,0.00000]","[1.30000,0.00000,0.00000]",0.03081,-0.01203,-0.00868,0.00000,0.00000,0.00538,-0.02397,-0.13572,0.02056,1.04334,2.22225,0.01465,1.56971,2.00095,1.99396,-0.90533,2.34077,2.16086,-0.93866,2.40922,1.95118,1.95118,57.78145,12.77351,57.78144588,12.77350590,A,134104.00,"[-0.20000,-0.00000,-0.00000]","[-0.10000,-0.00000,-0.00000]",3.08487,0.00000,0.00000,0.00000,0.00000,0.00000
18:15:18.791606,2.23825,0.00560,1.58288,1.58288,"[5.00000,0.00000,0.00000]","[1.30000,0.00000,0.00000]",0.03007,-0.01203,-0.01601,0.00000,0.00000,0.00065,-0.02412,-0.16006,0.01421,1.02126,2.23229,0.05617,1.57235,1.99442,1.98743,-0.91206,2.35542,2.16086,-0.93866,2.40922,1.95118,1.95118,57.78145,12.77351,57.78144602,12.77350578,A,134104.00,"[-0.20000,-0.00000,-0.00000]","[-0.10000,-0.00000,-0.00000]",3.10102,0.00000,0.00000,0.00000,0.00000,0.00000
18:15:18.802167,2.24881,0.00576,1.58288,1.58288,"[5.00000,0.00000,0.00000]","[1.30000,0.00000,0.00000]",0.03049,-0.01206,-0.02288,0.00000,0.00000,0.00645,-0.02443,-0.06991,0.09650,1.00436,2.24286,0.01954,1.57445,1.98887,1.98186,-0.91857,2.36981,2.16086,-0.93866,2.40922,1.95118,1.95118,57.78145,12.77351,57.78144615,12.77350567,A,134104.00,"[-0.20000,-0.00000,-0.00000]","[-0.10000,-0.00000,-0.00000]",3.11742,0.00000,0.00000,0.00000,0.00000,0.00000
18:15:18.812304,2.25895,0.00549,1.58288,1.58288,"[5.00000,0.00000,0.00000]","[1.30000,0.00000,0.00000]",0.03024,-0.01223,-0.00654,0.00000,0.00000,-0.00134,-0.01847,0.02757,0.03831,0.93922,2.25321,0.01465,1.57614,1.98416,1.97705,-0.92470,2.38356,2.16086,-0.93866,2.40922,1.95118,1.95118,57.78145,12.77351,57.78144627,12.77350557,A,134104.00,"[-0.20000,-0.00000,-0.00000]","[-0.10000,-0.00000,-0.00000]",3.13383,0.00000,0.00000,0.00000,0.00000,0.00000
18:15:18.875280,2.32191,0.05805,1.58288,1.50000,"[5.00000,0.00000,0.00000]","[1.30000,0.00000,0.00000]",0.03049,-0.01268,-0.00471,0.00000,0.00000,-0.01722,-0.01252,0.01427,0.06893,0.95813,2.26363,0.03175,1.57749,1.98020,1.97282,-0.93051,2.39672,2.28065,-0.99794,2.53895,1.99944,1.99944,57.78145,12.77350,57.78144639,12.77350547,A,134104.10,"[-0.20000,-0.00000,-0.00000]","[-0.10000,-0.00000,-0.00000]",3.15024,0.00000,0.00000,0.00000,0.00000,0.00000
18:15:18.898321,2.34496,0.00989,1.58288,1.58288,"[5.00000,0.00000,0.00000]","[1.30000,0.00000,0.00000]",0.02880,-0.02423,-0.02685,0.00000,0.00000,-0.00454,-0.03100,-0.08388,0.07076,1.00546,2.33895,0.04640,1.57857,1.98411,1.97003,-0.97684,2.50486,2.28065,-0.99794,2.53895,1.99944,1.99944,57.78145,12.77350,57.78144736,12.77350469,A,134104.10,"[-0.20000,-0.00000,-0.00000]","[-0.10000,-0.00000,-0.00000]",3.25704,0.00000,0.00000,0.00000,0.00000,0.00000
18:15:18.904849,2.35149,0.00532,1.58288,1.58288,"[5.00000,0.00000,0.00000]","[1.30000,0.00000,0.00000]",0.02875,-0.02496,-0.02487,0.00000,0.00000,-0.00439,-0.03558,0.00189,0.05539,0.99515,2.34581,0.05617,1.57943,1.98845,1.97393,-0.98084,2.51355,2.28065,-0.99794,2.53895,1.99944,1.99944,57.78145,12.77350,57.78144744,12.77350462,A,134104.10,"[-0.20000,-0.00000,-0.00000]","[-0.10000,-0.00000,-0.00000]",3.27457,0.00000,0.00000,0.00000,0.00000,0.00000
18:15:18.915416,2.36206,0.00562,1.58288,1.58288,"[5.00000,0.00000,0.00000]","[1.30000,0.00000,0.00000]",0.02898,-0.02578,-0.03296,0.00000,0.00000,-0.00897,-0.03466,0.05020,0.08510,0.98924,2.35605,0.04884,1.58012,1.99210,1.97711,-0.98670,2.52655,2.28065,-0.99794,2.53895,1.99944,1.99944,57.78145,12.77350,57.78144756,12.77350452,A,134104.10,"[-0.20000,-0.00000,-0.00000]","[-0.10000,-0.00000,-0.00000]",3.29076,0.00000,0.00000,0.00000,0.00000,0.00000
18:15:18.925945,2.37258,0.00575,1.58288,1.58288,"[5.00000,0.00000,0.00000]","[1.30000,0.00000,0.00000]",0.02925,-0.02643,-0.02334,0.00000,0.00000,-0.02043,-0.03313,0.04557,0.08125,0.99210,2.36664,0.02686,1.58067,1.99525,1.97988,-0.99233,2.53895,2.28065,-0.99794,2.53895,1.99944,1.99944,57.78145,12.77350,57.78144767,12.77350443,A,134104.10,"[-0.20000,-0.00000,-0.00000]","[-0.10000,-0.00000,-0.00000]",3.30716,0.00000,0.00000,0.00000,0.00000,0.00000
18:15:19.001892,2.44849,0.07126,1.58288,1.50000,"[5.00000,0.00000,0.00000]","[1.30000,0.00000,0.00000]",0.02970,-0.02700,-0.02090,0.00000,0.00000,-0.02944,-0.03023,-0.03715,0.09626,1.03480,2.37681,0.03907,1.58112,1.99797,1.98227,-0.99775,2.55082,2.40499,-1.10663,2.77987,1.99459,1.99459,57.78145,12.77350,57.78144777,12.77350434,A,134104.30,"[-0.20000,-0.00000,-0.00000]","[-0.10000,-0.00000,-0.00000]",3.32356,0.00000,0.00000,0.00000,0.00000,0.00000
18:15:19.023764,2.47041,0.00780,1.58288,1.58288,"[5.00000,0.00000,0.00000]","[1.30000,0.00000,0.00000]",0.02769,-0.02771,-0.02105,0.00000,0.00000,-0.00500,-0.00824,0.00714,0.03501,0.98186,2.46438,0.02198,1.58147,1.99718,1.98106,-1.05462,2.68011,2.40499,-1.10663,2.77987,1.99459,1.99459,57.78145,12.77350,57.78144894,12.77350338,A,134104.30,"[-0.20000,-0.00000,-0.00000]","[-0.10000,-0.00000,-0.00000]",3.45159,0.00000,0.00000,0.00000,0.00000,0.00000
18:15:19.031896,2.47854,0.00553,1.58288,1.58288,"[5.00000,0.00000,0.00000]","[1.30000,0.00000,0.00000]",0.02731,-0.02771,-0.01967,0.00000,0.00000,-0.00241,-0.01007,0.07710,0.03062,0.97929,2.47259,0.02686,1.58175,1.99901,1.98289,-1.06089,2.69355,2.40499,-1.10663,2.77987,1.99459,1.99459,57.78145,12.77350,57.78144906,12.77350327,A,134104.30,"[-0.20000,-0.00000,-0.00000]","[-0.10000,-0.00000,-0.00000]",3.46800,0.00000,0.00000,0.00000,0.00000,0.00000
18:15:19.042576,2.48922,0.00581,1.58288,1.58288,"[5.00000,0.00000,0.00000]","[1.30000,0.00000,0.00000]",0.02719,-0.02771,-0.01998,0.00000,0.00000,-0.00424,-0.01038,0.10992,0.05100,0.98198,2.48322,0.03419,1.58198,2.00048,1.98437,-1.06837,2.70973,2.40499,-1.10663,2.77987,1.99459,1.99459,57.78145,12.77350,57.78144920,12.77350315,A,134104.30,"[-0.20000,-0.00000,-0.00000]","[-0.10000,-0.00000,-0.00000]",3.48440,0.00000,0.00000,0.00000,0.00000,0.00000
18:15:19.052625,2.49927,0.00546,1.58288,1.58288,"[5.00000,0.00000,0.00000]","[1.30000,0.00000,0.00000]",0.02687,-0.02771,-0.02563,0.00000,0.00000,-0.00653,-0.01374,0.12401,0.04191,0.99747,2.49358,0.03175,1.58216,2.00175,1.98563,-1.07530,2.72467,2.40499,-1.10663,2.77987,1.99459,1.99459,57.78145,12.77350,57.78144934,12.77350303,A,134104.30,"[-0.20000,-0.00000,-0.00000]","[-0.10000,-0.00000,-0.00000]",3.50081,0.00000,0.00000,0.00000,0.00000,0.00000
18:15:19.119193,2.56582,0.06148,1.58288,1.50000,"[5.00000,0.00000,0.00000]","[1.30000,0.00000,0.00000]",0.02549,-0.02771,-0.02945,0.00000,0.00000,-0.00302,-0.02031,0.12590,-0.02605,0.99302,2.50394,0.01221,1.58230,2.00281,1.98670,-1.08208,2.73926,2.52122,-1.15603,2.90960,1.93466,1.93466,57.78145,12.77350,57.78144947,12.77350291,A,134104.40,"[-0.20000,-0.00000,-0.00000]","[-0.10000,-0.00000,-0.00000]",3.51743,0.00000,0.00000,0.00000,0.00000,0.00000
18:15:19.141577,2.58820,0.01007,1.28411,1.28411,"[5.00000,0.00000,0.00000]","[1.30000,0.00000,0.00000]",0.02206,-0.02771,-0.03418,0.00000,0.00000,-0.01539,0.00016,0.11151,-0.00836,0.98021,2.58148,0.02686,1.52267,1.99256,1.97644,-1.13164,2.85163,2.52122,-1.15603,2.90960,1.93466,1.93466,57.78145,12.77350,57.78145048,12.77350208,A,134104.40,"[-0.20000,-0.00000,-0.00000]","[-0.10000,-0.00000,-0.00000]",3.62806,0.00000,0.00000,0.00000,0.00000,0.00000
18:15:19.163936,2.61058,0.00938,1.28411,1.28411,"[5.00000,0.00000,0.00000]","[1.30000,0.00000,0.00000]",0.02268,-0.02771,-0.04854,0.00000,0.00000,-0.00515,-0.01099,0.03550,0.16025,1.00418,2.60458,0.00000,1.47495,1.98563,1.96951,-1.14502,2.88284,2.52122,-1.15603,2.90960,1.93466,1.93466,57.78145,12.77350,57.78145076,12.77350185,A,134104.40,"[-0.20000,-0.00000,-0.00000]","[-0.10000,-0.00000,-0.00000]",3.65766,0.00000,0.00000,0.00000,0.00000,0.00000
18:15:19.171590,2.61823,0.00589,1.28411,1.28411,"[5.00000,0.00000,0.00000]","[1.30000,0.00000,0.00000]",0.02338,-0.02771,-0.04900,0.00000,0.00000,-0.00149,-0.01175,0.24662,0.11584,1.00516,2.61223,0.00488,1.43679,1.98023,1.96411,-1.14863,2.89143,2.52122,-1.15603,2.90960,1.93466,1.93466,57.78145,12.77350,57.78145084,12.77350179,A,134104.40,"[-0.20000,-0.00000,-0.00000]","[-0.10000,-0.00000,-0.00000]",3.67195,0.00000,0.00000,0.00000,0.00000,0.00000
18:15:19.234454,2.68108,0.05834,1.28411,1.50000,"[5.00000,0.00000,0.00000]","[1.30000,0.00000,0.00000]",0.02306,-0.02771,-0.04243,0.00000,0.00000,-0.01233,-0.02183,0.32909,0.05173,1.00174,2.62256,0.00488,1.40625,1.97557,1.95945,-1.15332,2.90277,2.63937,-1.20543,3.02080,1.98889,1.98889,57.78145,12.77350,57.78145094,12.77350171,A,134104.50,"[-0.20000,-0.00000,-0.00000]","[-0.10000,-0.00000,-0.00000]",3.68526,0.00000,0.00000,0.00000,0.00000,0.00000
18:15:19.255930,2.70257,0.00809,1.28411,1.28411,"[5.00000,0.00000,0.00000]","[1.30000,0.00000,0.00000]",0.02075,-0.02771,-0.02044,0.00000,0.00000,-0.01325,0.00566,0.12603,-0.01092,0.98966,2.69639,0.00488,1.38182,1.97791,1.96179,-1.19242,2.99779,2.63937,-1.20543,3.02080,1.98889,1.98889,57.78145,12.77350,57.78145179,12.77350105,A,134104.50,"[-0.20000,-0.00000,-0.00000]","[-0.10000,-0.00000,-0.00000]",3.79282,0.00000,0.00000,0.00000,0.00000,0.00000
18:15:19.263699,2.71034,0.00557,1.28411,1.28411,"[5.00000,0.00000,0.00000]","[1.30000,0.00000,0.00000]",0.01995,-0.02771,-0.02594,0.00000,0.00000,-0.01294,0.00947,0.12615,0.00165,0.97472,2.70436,0.00488,1.36228,1.98181,1.96569,-1.19595,3.00593,2.63937,-1.20543,3.02080,1.98889,1.98889,57.78145,12.77350,57.78145187,12.77350099,A,134104.50,"[-0.20000,-0.00000,-0.00000]","[-0.10000,-0.00000,-0.00000]",3.80599,0.00000,0.00000,0.00000,0.00000,0.00000
18:15:19.274418,2.72106,0.00588,1.28411,1.28411,"[5.00000,0.00000,0.00000]","[1.30000,0.00000,0.00000]",0.01890,-0.02771,-0.02410,0.00000,0.00000,-0.01661,0.00886,0.13682,-0.01214,0.97380,2.71508,0.00000,1.34665,1.98505,1.96893,-1.20075,3.01704,2.63937,-1.20543,3.02080,1.98889,1.98889,57.78145,12.77350,57.78145197,12.77350091,A,134104.50,"[-0.20000,-0.00000,-0.00000]","[-0.10000,-0.00000,-0.00000]",3.81930,0.00000,0.00000,0.00000,0.00000,0.00000
18:15:19.284430,2.73107,0.00550,1.28411,1.28411,"[5.00000,0.00000,0.00000]","[1.30000,0.00000,0.00000]",0.01828,-0.02771,-0.02838,0.00000,0.00000,-0.00592,-0.00167,0.19837,0.01690,0.97149,2.72537,0.00244,1.33414,1.98781,1.97170,-1.20508,3.02698,2.63937,-1.20543,3.02080,1.98889,1.98889,57.78145,12.77350,57.78145206,12.77350084,A,134104.50,"[-0.20000,-0.00000,-0.00000]","[-0.10000,-0.00000,-0.00000]",3.83261,0.00000,0.00000,0.00000,0.00000,0.00000
18:15:19.343796,2.79043,0.05428,1.28411,1.50000,"[5.00000,0.00000,0.00000]","[1.30000,0.00000,0.00000]",0.01776,-0.02771,-0.02212,0.00000,0.00000,-0.00622,-0.00702,0.15628,0.01806,0.93629,2.73575,0.00977,1.32413,1.99016,1.97404,-1.20936,3.03672,2.75315,-1.27460,3.16906,2.00729,2.00729,57.78145,12.77350,57.78145214,12.77350077,A,134104.60,"[-0.20000,-0.00000,-0.00000]","[-0.10000,-0.00000,-0.00000]",3.84614,0.00000,0.00000,0.00000,0.00000,0.00000
18:15:19.366035,2.81268,0.00850,1.28411,1.28411,"[5.00000,0.00000,0.00000]","[1.30000,0.00000,0.00000]",0.01585,-0.02760,-0.01555,0.00000,0.00000,-0.02547,-0.00626,0.13219,-0.01610,0.98387,2.80668,0.00977,1.31613,1.99328,1.97723,-1.24644,3.12261,2.75315,-1.27460,3.16906,2.00729,2.00729,57.78145,12.77350,57.78145292,12.77350014,A,134104.60,"[-0.20000,-0.00000,-0.00000]","[-0.10000,-0.00000,-0.00000]",3.94814,0.00000,0.00000,0.00000,0.00000,0.00000
18:15:19.374150,2.82079,0.00587,1.28411,1.28411,"[5.00000,0.00000,0.00000]","[1.30000,0.00000,0.00000]",0.01443,-0.02760,-0.01357,0.00000,0.00000,-0.01584,-0.00503,0.15250,-0.04935,0.96856,2.81481,0.00488,1.30973,1.99762,1.98157,-1.25098,3.13220,2.75315,-1.27460,3.16906,2.00729,2.00729,57.78145,12.77350,57.78145300,12.77350007,A,134104.60,"[-0.20000,-0.00000,-0.00000]","[-0.10000,-0.00000,-0.00000]",3.96189,0.00000,0.00000,0.00000,0.00000,0.00000
18:15:19.384176,2.83082,0.00551,1.28411,1.28411,"[5.00000,0.00000,0.00000]","[1.30000,0.00000,0.00000]",0.01408,-0.02760,-0.02395,0.00000,0.00000,-0.01218,-0.00290,0.13158,0.02806,1.02712,2.82488,0.00000,1.30460,2.00125,1.98520,-1.25640,3.14377,2.75315,-1.27460,3.16906,2.00729,2.00729,57.78145,12.77350,57.78145311,12.77349997,A,134104.60,"[-0.20000,-0.00000,-0.00000]","[-0.10000,-0.00000,-0.00000]",3.97520,0.00000,0.00000,0.00000,0.00000,0.00000
18:15:19.394869,2.84151,0.00580,1.28411,1.28411,"[5.00000,0.00000,0.00000]","[1.30000,0.00000,0.00000]",0.01381,-0.02760,-0.02731,0.00000,0.00000,-0.00500,-0.00824,0.10205,0.03660,1.01626,2.83551,0.00000,1.30050,2.00433,1.98828,-1.26162,3.15483,2.75315,-1.27460,3.16906,2.00729,2.00729,57.78145,12.77350,57.78145321,12.77349989,A,134104.60,"[-0.20000,-0.00000,-0.00000]","[-0.10000,-0.00000,-0.00000]",3.98851,0.00000,0.00000,0.00000,0.00000,0.00000
18:15:19.404952,2.85160,0.00549,1.28411,1.28411,"[5.00000,0.00000,0.00000]","[1.30000,0.00000,0.00000]",0.01363,-0.02760,-0.02731,0.00000,0.00000,-0.00149,-0.01603,0.18227,0.04093,0.99448,2.84589,0.00000,1.29723,2.00696,1.99091,-1.26644,3.16496,2.75315,-1.27460,3.16906,2.00729,2.00729,57.78145,12.77350,57.78145330,12.77349980,A,134104.60,"[-0.20000,-0.00000,-0.00000]","[-0.10000,-0.00000,-0.00000]",4.00182,0.00000,0.00000,0.00000,0.00000,0.00000
18:15:19.471844,2.91847,0.06211,1.28411,1.50000,"[5.00000,0.00000,0.00000]","[1.30000,0.00000,0.00000]",0.01282,-0.02760,-0.01998,0.00000,0.00000,-0.00195,-0.01939,0.12621,-0.00586,0.97966,2.85597,0.00244,1.29460,2.00920,1.99315,-1.27103,3.17452,2.87299,-1.32400,3.29878,1.93466,1.93466,57.78145,12.77350,57.78145338,12.77349973,A,134104.70,"[-0.20000,-0.00000,-0.00000]","[-0.10000,-0.00000,-0.00000]",4.01494,0.00000,0.00000,0.00000,0.00000,0.00000
18:15:19.493672,2.94030,0.00730,1.28411,1.28411,"[5.00000,0.00000,0.00000]","[1.30000,0.00000,0.00000]",0.01066,-0.02760,-0.01937,0.00000,0.00000,0.00615,-0.01786,0.13627,-0.01086,1.03072,2.93430,0.00488,1.29250,1.99841,1.98236,-1.31213,3.26630,2.87299,-1.32400,3.29878,1.93466,1.93466,57.78145,12.77350,57.78145421,12.77349903,A,134104.70,"[-0.20000,-0.00000,-0.00000]","[-0.10000,-0.00000,-0.00000]",4.12987,0.00000,0.00000,0.00000,0.00000,0.00000
18:15:19.502565,2.94921,0.00581,1.28411,1.28411,"[5.00000,0.00000,0.00000]","[1.30000,0.00000,0.00000]",0.00987,-0.02760,-0.01769,0.00000,0.00000,0.01119,-0.01786,0.17178,-0.01147,1.00882,2.94321,0.00977,1.29083,1.99107,1.97502,-1.31621,3.27592,2.87299,-1.32400,3.29878,1.93466,1.93466,57.78145,12.77350,57.78145429,12.77349896,A,134104.70,"[-0.20000,-0.00000,-0.00000]","[-0.10000,-0.00000,-0.00000]",4.14317,0.00000,0.00000,0.00000,0.00000,0.00000
18:15:19.512616,2.95926,0.00545,1.28411,1.28411,"[5.00000,0.00000,0.00000]","[1.30000,0.00000,0.00000]",0.00900,-0.02760,-0.02120,0.00000,0.00000,0.00065,-0.02458,0.08699,-0.01269,0.97807,2.95356,0.00733,1.28948,1.98480,1.96875,-1.32060,3.28641,2.87299,-1.32400,3.29878,1.93466,1.93466,57.78145,12.77350,57.78145439,12.77349889,A,134104.70,"[-0.20000,-0.00000,-0.00000]","[-0.10000,-0.00000,-0.00000]",4.15648,0.00000,0.00000,0.00000,0.00000,0.00000
18:15:19.523289,2.96993,0.00558,1.28411,1.28411,"[5.00000,0.00000,0.00000]","[1.30000,0.00000,0.00000]",0.00915,-0.02760,-0.02334,0.00000,0.00000,0.00141,-0.02336,0.18416,0.05557,0.99436,2.96394,0.00488,1.28841,1.97946,1.96341,-1.32486,3.29676,2.87299,-1.32400,3.29878,1.93466,1.93466,57.78145,12.77350,57.78145448,12.77349882,A,134104.70,"[-0.20000,-0.00000,-0.00000]","[-0.10000,-0.00000,-0.00000]",4.16997,0.00000,0.00000,0.00000,0.00000,0.00000
18:15:19.596298,3.04293,0.06818,1.64701,1.50000,"[5.00000,0.00000,0.00000]","[1.30000,0.00000,0.00000]",0.00929,-0.02760,-0.01922,0.00000,0.00000,0.00141,-0.02840,0.10712,0.04874,0.97271,2.97460,0.02442,1.36013,1.97492,1.95887,-1.32885,3.30660,3.00349,-1.46233,3.61384,1.98452,1.98452,57.78146,12.77350,57.78145457,12.77349875,A,134104.90,"[-0.20000,-0.00000,-0.00000]","[-0.10000,-0.00000,-0.00000]",4.18328,0.00000,0.00000,0.00000,0.00000,0.00000
18:15:19.617626,3.06426,0.00675,1.64701,1.64701,"[5.00000,0.00000,0.00000]","[1.30000,0.00000,0.00000]",0.00824,-0.02760,-0.01357,0.00000,0.00000,0.00355,-0.02657,0.15073,0.03489,1.07275,3.05827,0.00733,1.41750,1.97649,1.96044,-1.37558,3.41993,3.00349,-1.46233,3.61384,1.98452,1.98452,57.78146,12.77350,57.78145559,12.77349796,A,134104.90,"[-0.20000,-0.00000,-0.00000]","[-0.10000,-0.00000,-0.00000]",4.30685,0.00000,0.00000,0.00000,0.00000,0.00000
18:15:19.627049,3.07369,0.00561,1.64701,1.64701,"[5.00000,0.00000,0.00000]","[1.30000,0.00000,0.00000]",0.00795,-0.02760,-0.01036,0.00000,0.00000,0.01394,-0.03374,0.17208,0.01476,1.04188,3.06770,0.01221,1.46341,1.97988,1.96384,-1.38382,3.43912,3.00349,-1.46233,3.61384,1.98452,1.98452,57.78146,12.77350,57.78145576,12.77349782,A,134104.90,"[-0.20000,-0.00000,-0.00000]","[-0.10000,-0.00000,-0.00000]",4.32392,0.00000,0.00000,0.00000,0.00000,0.00000
18:15:19.637580,3.08422,0.00573,1.64701,1.64701,"[5.00000,0.00000,0.00000]","[1.30000,0.00000,0.00000]",0.00695,-0.02760,-0.01326,0.00000,0.00000,0.00615,-0.03512,0.13133,-0.03123,0.98692,3.07829,0.00488,1.50013,1.98273,1.96668,-1.39228,3.45881,3.00349,-1.46233,3.61384,1.98452,1.98452,57.78146,12.77350,57.78145594,12.77349768,A,134104.90,"[-0.20000,-0.00000,-0.00000]","[-0.10000,-0.00000,-0.00000]",4.34099,0.00000,0.00000,0.00000,0.00000,0.00000
18:15:19.647801,3.09444,0.00572,1.64701,1.64701,"[5.00000,0.00000,0.00000]","[1.30000,0.00000,0.00000]",0.00578,-0.02760,-0.02059,0.00000,0.00000,0.00416,-0.03680,0.16787,-0.03758,0.96685,3.08832,0.00000,1.52950,1.98515,1.96911,-1.40033,3.47745,3.00349,-1.46233,3.61384,1.98452,1.98452,57.78146,12.77350,57.78145611,12.77349755,A,134104.90,"[-0.20000,-0.00000,-0.00000]","[-0.10000,-0.00000,-0.00000]",4.35779,0.00000,0.00000,0.00000,0.00000,0.00000
18:15:19.708056,3.15469,0.05573,1.64701,1.50000,"[5.00000,0.00000,0.00000]","[1.30000,0.00000,0.00000]",0.00576,-0.02760,-0.01784,0.00000,0.00000,-0.00744,-0.04031,0.17641,0.03581,1.01699,3.09885,0.01221,1.55301,1.98721,1.97116,-1.40814,3.49545,3.11616,-1.55126,3.79916,2.01818,2.01818,57.78146,12.77349,57.78145627,12.77349741,A,134105.00,"[-0.20000,-0.00000,-0.00000]","[-0.10000,-0.00000,-0.00000]",4.37459,0.00000,0.00000,0.00000,0.00000,0.00000
18:15:19.730752,3.17739,0.00764,1.64701,1.64701,"[5.00000,0.00000,0.00000]","[1.30000,0.00000,0.00000]",0.00584,-0.02847,0.00048,0.00000,0.00000,0.00798,-0.05940,0.23143,0.02751,1.03279,3.17136,0.00488,1.57181,1.99210,1.97554,-1.45598,3.60676,3.11616,-1.55126,3.79916,2.01818,2.01818,57.78146,12.77349,57.78145727,12.77349661,A,134105.00,"[-0.20000,-0.00000,-0.00000]","[-0.10000,-0.00000,-0.00000]",4.48075,0.00000,0.00000,0.00000,0.00000,0.00000
18:15:19.739097,3.18574,0.00566,1.64701,1.64701,"[5.00000,0.00000,0.00000]","[1.30000,0.00000,0.00000]",0.00514,-0.02938,-0.00410,0.00000,0.00000,0.01409,-0.06490,0.24064,-0.02013,0.99210,3.17971,0.00488,1.58685,1.99836,1.98128,-1.46443,3.62499,3.11616,-1.55126,3.79916,2.01818,2.01818,57.78146,12.77349,57.78145743,12.77349646,A,134105.00,"[-0.20000,-0.00000,-0.00000]","[-0.10000,-0.00000,-0.00000]",4.49773,0.00000,0.00000,0.00000,0.00000,0.00000
18:15:19.749768,3.19641,0.00592,1.64701,1.64701,"[5.00000,0.00000,0.00000]","[1.30000,0.00000,0.00000]",0.00307,-0.03088,-0.01051,0.00000,0.00000,-0.00378,-0.07483,0.21143,-0.10669,0.98728,3.19042,0.00244,1.59888,2.00373,1.98577,-1.47396,3.64562,3.11616,-1.55126,3.79916,2.01818,2.01818,57.78146,12.77349,57.78145762,12.77349630,A,134105.00,"[-0.20000,-0.00000,-0.00000]","[-0.10000,-0.00000,-0.00000]",4.51480,0.00000,0.00000,0.00000,0.00000,0.00000
18:15:19.759915,3.20656,0.00585,1.64701,1.64701,"[5.00000,0.00000,0.00000]","[1.30000,0.00000,0.00000]",0.00301,-0.03246,-0.02303,0.00000,0.00000,-0.01783,-0.07238,0.18794,0.03318,1.04847,3.20036,0.00488,1.60851,2.00844,1.98955,-1.48281,3.66462,3.11616,-1.55126,3.79916,2.01818,2.01818,57.78146,12.77349,57.78145779,12.77349615,A,134105.00,"[-0.20000,-0.00000,-0.00000]","[-0.10000,-0.00000,-0.00000]",4.53159,0.00000,0.00000,0.00000,0.00000,0.00000
18:15:19.822704,3.26932,0.05819,1.64701,1.50000,"[5.00000,0.00000,0.00000]","[1.30000,0.00000,0.00000]",0.00245,-0.03419,-0.02471,0.00000,0.00000,-0.01416,-0.06459,0.05691,-0.00037,1.01876,3.21106,0.00244,1.61621,2.01255,1.99267,-1.49149,3.68316,3.22840,-1.63030,4.00302,1.94069,1.94069,57.78146,12.77349,57.78145796,12.77349601,A,134105.10,"[-0.20000,-0.00000,-0.00000]","[-0.10000,-0.00000,-0.00000]",4.54867,0.00000,0.00000,0.00000,0.00000,0.00000
18:15:19.843643,3.29029,0.00936,1.64701,1.64701,"[5.00000,0.00000,0.00000]","[1.30000,0.00000,0.00000]",0.00117,-0.04291,-0.01357,0.00000,0.00000,0.02478,-0.07238,0.31201,-0.00293,0.99845,3.28377,0.01221,1.62237,2.00264,1.97768,-1.54268,3.79775,3.22840,-1.63030,4.00302,1.94069,1.94069,57.78146,12.77349,57.78145899,12.77349514,A,134105.10,"[-0.20000,-0.00000,-0.00000]","[-0.10000,-0.00000,-0.00000]",4.65335,0.00000,0.00000,0.00000,0.00000,0.00000
18:15:19.850862,3.29751,0.00601,2.32317,2.32317,"[5.00000,0.00000,0.00000]","[1.30000,0.00000,0.00000]",0.00201,-0.04296,-0.00761,0.00000,0.00000,0.01760,-0.07085,0.26157,0.06564,0.99094,3.29150,0.01465,1.76253,1.99683,1.97184,-1.55023,3.81535,3.22840,-1.63030,4.00302,1.94069,1.94069,57.78146,12.77349,57.78145915,12.77349502,A,134105.10,"[-0.20000,-0.00000,-0.00000]","[-0.10000,-0.00000,-0.00000]",4.67071,0.00000,0.00000,0.00000,0.00000,0.00000
18:15:19.860704,3.30735,0.00545,2.32317,2.32317,"[5.00000,0.00000,0.00000]","[1.30000,0.00000,0.00000]",0.00097,-0.04296,-0.00975,0.00000,0.00000,0.00630,-0.06673,0.15036,-0.05813,1.05756,3.30165,0.00000,1.87466,1.99171,1.96672,-1.55952,3.83721,3.22840,-1.63030,4.00302,1.94069,1.94069,57.78146,12.77349,57.78145934,12.77349486,A,134105.10,"[-0.20000,-0.00000,-0.00000]","[-0.10000,-0.00000,-0.00000]",4.69479,0.00000,0.00000,0.00000,0.00000,0.00000
18:15:19.871528,3.31817,0.00582,2.32317,2.32317,"[5.00000,0.00000,0.00000]","[1.30000,0.00000,0.00000]",0.00011,-0.04296,-0.01112,0.00000,0.00000,0.00966,-0.05986,0.09248,-0.04410,1.04334,3.31195,0.00244,1.96436,1.98730,1.96230,-1.56892,3.85951,3.22840,-1.63030,4.00302,1.94069,1.94069,57.78146,12.77349,57.78145954,12.77349470,A,134105.10,"[-0.20000,-0.00000,-0.00000]","[-0.10000,-0.00000,-0.00000]",4.71899,0.00000,0.00000,0.00000,0.00000,0.00000
18:15:19.881866,3.32851,0.00575,2.32317,2.32317,"[5.00000,0.00000,0.00000]","[1.30000,0.00000,0.00000]",0.00050,-0.04296,-0.01799,0.00000,0.00000,0.00554,-0.04902,0.24772,0.04892,1.07634,3.32256,0.00733,2.03612,1.98353,1.95854,-1.57793,3.88109,3.22840,-1.63030,4.00302,1.94069,1.94069,57.78146,12.77349,57.78145974,12.77349455,A,134105.10,"[-0.20000,-0.00000,-0.00000]","[-0.10000,-0.00000,-0.00000]",4.74307,0.00000,0.00000,0.00000,0.00000,0.00000
18:15:19.942692,3.38885,0.05539,2.32317,1.50000,"[5.00000,0.00000,0.00000]","[1.30000,0.00000,0.00000]",0.00078,-0.04296,-0.00639,0.00000,0.00000,-0.00195,-0.03527,0.04459,0.02861,0.99894,3.33273,0.00977,2.09353,1.98031,1.95532,-1.58669,3.90222,3.34970,-1.70935,4.20687,1.94069,1.94069,57.78146,12.77349,57.78145993,12.77349440,A,134105.20,"[-0.20000,-0.00000,-0.00000]","[-0.10000,-0.00000,-0.00000]",4.76714,0.00000,0.00000,0.00000,0.00000,0.00000
18:15:19.962598,3.40924,0.00875,2.32317,2.32317,"[5.00000,0.00000,0.00000]","[1.30000,0.00000,0.00000]",0.00024,-0.03747,-0.01616,0.00000,0.00000,0.02722,-0.04245,0.15646,0.04813,1.01681,3.40316,0.01465,2.13946,1.97309,1.95129,-1.64392,4.04372,3.34970,-1.70935,4.20687,1.94069,1.94069,57.78146,12.77349,57.78146120,12.77349344,A,134105.20,"[-0.20000,-0.00000,-0.00000]","[-0.10000,-0.00000,-0.00000]",4.86811,0.00000,0.00000,0.00000,0.00000,0.00000
18:15:19.970091,3.41672,0.00600,2.32317,2.32317,"[5.00000,0.00000,0.00000]","[1.30000,0.00000,0.00000]",0.00054,-0.03535,-0.02624,0.00000,0.00000,0.02585,-0.04199,0.12529,0.04349,1.02584,3.41056,0.00000,2.17620,1.97100,1.95044,-1.65118,4.06185,3.34970,-1.70935,4.20687,1.94069,1.94069,57.78146,12.77349,57.78146136,12.77349331,A,134105.20,"[-0.20000,-0.00000,-0.00000]","[-0.10000,-0.00000,-0.00000]",4.89184,0.00000,0.00000,0.00000,0.00000,0.00000
18:15:19.979993,3.42664,0.00552,2.32317,2.32317,"[5.00000,0.00000,0.00000]","[1.30000,0.00000,0.00000]",0.00072,-0.03260,-0.03067,0.00000,0.00000,0.01607,-0.03894,0.03361,0.04459,1.03029,3.42071,0.00488,2.20559,1.96882,1.94986,-1.66053,4.08524,3.34970,-1.70935,4.20687,1.94069,1.94069,57.78146,12.77349,57.78146157,12.77349316,A,134105.20,"[-0.20000,-0.00000,-0.00000]","[-0.10000,-0.00000,-0.00000]",4.91591,0.00000,0.00000,0.00000,0.00000,0.00000
18:15:19.990673,3.43732,0.00579,2.32317,2.32317,"[5.00000,0.00000,0.00000]","[1.30000,0.00000,0.00000]",0.00112,-0.02977,-0.02762,0.00000,0.00000,0.01119,-0.03176,0.19422,0.05978,1.02883,3.43131,0.00000,2.22911,1.96674,1.94942,-1.66965,4.10810,3.34970,-1.70935,4.20687,1.94069,1.94069,57.78146,12.77349,57.78146178,12.77349300,A,134105.20,"[-0.20000,-0.00000,-0.00000]","[-0.10000,-0.00000,-0.00000]",4.94000,0.00000,0.00000,0.00000,0.00000,0.00000
18:15:20.000724,3.44736,0.00544,2.32317,2.32317,"[5.00000,0.00000,0.00000]","[1.30000,0.00000,0.00000]",0.00147,-0.02734,-0.02471,0.00000,0.00000,-0.01386,-0.01954,0.07351,0.05392,1.00449,3.44167,0.00000,2.24792,1.96481,1.94891,-1.67813,4.12937,3.34970,-1.70935,4.20687,1.94069,1.94069,57.78146,12.77349,57.78146197,12.77349286,A,134105.20,"[-0.20000,-0.00000,-0.00000]","[-0.10000,-0.00000,-0.00000]",4.96407,0.00000,0.00000,0.00000,0.00000,0.00000
18:15:20.059045,3.50568,0.05333,2.32317,1.50000,"[5.00000,0.00000,0.00000]","[1.30000,0.00000,0.00000]",0.00167,-0.02527,-0.02303,0.00000,0.00000,-0.02562,-0.01084,0.18208,0.04349,0.99698,3.45195,0.00733,2.26297,1.96301,1.94831,-1.68641,4.15015,3.46903,-1.80815,4.42926,1.98889,1.98889,57.78146,12.77349,57.78146216,12.77349272,A,134105.30,"[-0.20000,-0.00000,-0.00000]","[-0.10000,-0.00000,-0.00000]",4.98822,0.00000,0.00000,0.00000,0.00000,0.00000
18:15:20.082136,3.52877,0.00948,2.32317,2.32317,"[5.00000,0.00000,0.00000]","[1.30000,0.00000,0.00000]",-0.00081,-0.02069,-0.03327,0.00000,0.00000,0.00462,-0.00015,0.13274,0.00421,0.95587,3.52215,0.00000,2.27501,1.96579,1.95376,-1.74697,4.30147,3.46903,-1.80815,4.42926,1.98889,1.98889,57.78146,12.77349,57.78146352,12.77349170,A,134105.30,"[-0.20000,-0.00000,-0.00000]","[-0.10000,-0.00000,-0.00000]",5.08860,0.00000,0.00000,0.00000,0.00000,0.00000
18:15:20.088773,3.53541,0.00544,2.32317,2.32317,"[5.00000,0.00000,0.00000]","[1.30000,0.00000,0.00000]",-0.00059,-0.02066,-0.02365,0.00000,0.00000,0.01332,-0.00213,0.06167,0.04026,0.98131,3.52974,0.00488,2.28464,1.97088,1.95886,-1.75422,4.31827,3.46903,-1.80815,4.42926,1.98889,1.98889,57.78146,12.77349,57.78146367,12.77349158,A,134105.30,"[-0.20000,-0.00000,-0.00000]","[-0.10000,-0.00000,-0.00000]",5.11336,0.00000,0.00000,0.00000,0.00000,0.00000
18:15:20.099340,3.54599,0.00563,2.32317,2.32317,"[5.00000,0.00000,0.00000]","[1.30000,0.00000,0.00000]",-0.00218,-0.02043,-0.02013,0.00000,0.00000,0.01027,-0.00061,0.10364,-0.08351,1.07702,3.53997,0.00488,2.29235,1.97507,1.96318,-1.76389,4.34089,3.46903,-1.80815,4.42926,1.98889,1.98889,57.78146,12.77349,57.78146387,12.77349141,A,134105.30,"[-0.20000,-0.00000,-0.00000]","[-0.10000,-0.00000,-0.00000]",5.13741,0.00000,0.00000,0.00000,0.00000,0.00000
18:15:20.109849,3.55649,0.00573,2.32317,2.32317,"[5.00000,0.00000,0.00000]","[1.30000,0.00000,0.00000]",-0.00248,-0.02007,-0.02762,0.00000,0.00000,0.00920,0.00016,0.12237,0.01403,1.06494,3.55055,0.01221,2.29851,1.97860,1.96693,-1.77319,4.36242,3.46903,-1.80815,4.42926,1.98889,1.98889,57.78146,12.77349,57.78146407,12.77349126,A,134105.30,"[-0.20000,-0.00000,-0.00000]","[-0.10000,-0.00000,-0.00000]",5.16148,0.00000,0.00000,0.00000,0.00000,0.00000
18:15:20.119993,3.56663,0.00548,2.32317,2.32317,"[5.00000,0.00000,0.00000]","[1.30000,0.00000,0.00000]",-0.00231,-0.01964,-0.02792,0.00000,0.00000,-0.00195,0.00779,0.06368,0.04593,1.04914,3.56074,0.01221,2.30344,1.98157,1.97015,-1.78203,4.38273,3.46903,-1.80815,4.42926,1.98889,1.98889,57.78146,12.77349,57.78146425,12.77349111,A,134105.30,"[-0.20000,-0.00000,-0.00000]","[-0.10000,-0.00000,-0.00000]",5.18555,0.00000,0.00000,0.00000,0.00000,0.00000
18:15:20.181929,3.62786,0.05627,2.32317,1.50000,"[5.00000,0.00000,0.00000]","[1.30000,0.00000,0.00000]",-0.00315,-0.01916,-0.03540,0.00000,0.00000,-0.01371,0.00352,0.18574,-0.01800,1.07439,3.57143,0.01221,2.30739,1.98405,1.97290,-1.79077,4.40267,3.58841,-1.89708,4.65165,1.95118,1.95118,57.78147,12.77349,57.78146443,12.77349096,A,134105.40,"[-0.20000,-0.00000,-0.00000]","[-0.10000,-0.00000,-0.00000]",5.20972,0.00000,0.00000,0.00000,0.00000,0.00000
18:15:20.204570,3.65121,0.00951,2.39018,2.39018,"[5.00000,0.00000,0.00000]","[1.30000,0.00000,0.00000]",-0.00243,-0.01319,0.00690,0.00000,0.00000,0.00493,0.02979,0.02117,0.02995,1.01114,3.64542,0.00733,2.32394,1.97792,1.97025,-1.85782,4.56027,3.58841,-1.89708,4.65165,1.95118,1.95118,57.78147,12.77349,57.78146584,12.77348983,A,134105.40,"[-0.20000,-0.00000,-0.00000]","[-0.10000,-0.00000,-0.00000]",5.31485,0.00000,0.00000,0.00000,0.00000,0.00000
18:15:20.211726,3.65837,0.00556,2.39018,2.39018,"[5.00000,0.00000,0.00000]","[1.30000,0.00000,0.00000]",-0.00143,-0.01279,-0.00150,0.00000,0.00000,0.01623,0.02505,0.05203,0.08467,1.00790,3.65239,0.00244,2.33719,1.97491,1.96747,-1.86420,4.57531,3.58841,-1.89708,4.65165,1.95118,1.95118,57.78147,12.77349,57.78146598,12.77348972,A,134105.40,"[-0.20000,-0.00000,-0.00000]","[-0.10000,-0.00000,-0.00000]",5.34134,0.00000,0.00000,0.00000,0.00000,0.00000
18:15:20.222381,3.66902,0.00582,2.39018,2.39018,"[5.00000,0.00000,0.00000]","[1.30000,0.00000,0.00000]",-0.00076,-0.01259,0.01606,0.00000,0.00000,0.03012,0.02765,0.11651,0.04972,0.98570,3.66304,0.00244,2.34779,1.97226,1.96493,-1.87323,4.59677,3.58841,-1.89708,4.65165,1.95118,1.95118,57.78147,12.77349,57.78146617,12.77348957,A,134105.40,"[-0.20000,-0.00000,-0.00000]","[-0.10000,-0.00000,-0.00000]",5.36612,0.00000,0.00000,0.00000,0.00000,0.00000
18:15:20.232456,3.67909,0.00549,2.39018,2.39018,"[5.00000,0.00000,0.00000]","[1.30000,0.00000,0.00000]",-0.00057,-0.01259,0.01652,0.00000,0.00000,0.02020,0.01253,0.20691,0.01995,1.02114,3.67339,0.00000,2.35627,1.97001,1.96269,-1.88157,4.61669,3.58841,-1.89708,4.65165,1.95118,1.95118,57.78147,12.77349,57.78146635,12.77348943,A,134105.40,"[-0.20000,-0.00000,-0.00000]","[-0.10000,-0.00000,-0.00000]",5.39090,0.00000,0.00000,0.00000,0.00000,0.00000
18:15:20.304969,3.75158,0.06740,2.39018,1.50000,"[5.00000,0.00000,0.00000]","[1.30000,0.00000,0.00000]",-0.00018,-0.01259,0.00736,0.00000,0.00000,0.00279,0.00184,0.23448,0.03776,0.97295,3.68379,0.01221,2.36305,1.96810,1.96077,-1.88973,4.63630,3.71177,-2.10457,5.15203,1.96389,1.96389,57.78147,12.77349,57.78146653,12.77348929,A,134105.60,"[-0.20000,-0.00000,-0.00000]","[-0.10000,-0.00000,-0.00000]",5.41608,0.00000,0.00000,0.00000,0.00000,0.00000
18:15:20.328252,3.77489,0.00935,2.39018,2.39018,"[5.00000,0.00000,0.00000]","[1.30000,0.00000,0.00000]",-0.00157,-0.01667,-0.02212,0.00000,0.00000,0.00386,-0.02764,-0.02025,0.05155,1.09946,3.76793,0.00488,2.36847,1.96711,1.95741,-1.97079,4.83317,3.71177,-2.10457,5.15203,1.96389,1.96389,57.78147,12.77349,57.78146830,12.77348792,A,134105.60,"[-0.20000,-0.00000,-0.00000]","[-0.10000,-0.00000,-0.00000]",5.53808,0.00000,0.00000,0.00000,0.00000,0.00000
18:15:20.335316,3.78196,0.00557,2.39018,2.39018,"[5.00000,0.00000,0.00000]","[1.30000,0.00000,0.00000]",-0.00157,-0.01854,-0.02365,0.00000,0.00000,0.02417,-0.02519,0.13188,0.02775,1.03297,3.77596,0.00000,2.37281,1.96809,1.95731,-1.98176,4.85963,3.71177,-2.10457,5.15203,1.96389,1.96389,57.78147,12.77349,57.78146854,12.77348774,A,134105.60,"[-0.20000,-0.00000,-0.00000]","[-0.10000,-0.00000,-0.00000]",5.56398,0.00000,0.00000,0.00000,0.00000,0.00000
18:15:20.346129,3.79277,0.00598,2.39018,2.39018,"[5.00000,0.00000,0.00000]","[1.30000,0.00000,0.00000]",-0.00015,-0.02055,-0.02166,0.00000,0.00000,0.01149,-0.02703,0.14707,0.12493,1.00766,3.78660,0.00488,2.37629,1.96898,1.95703,-1.99519,4.89217,3.71177,-2.10457,5.15203,1.96389,1.96389,57.78147,12.77349,57.78146883,12.77348751,A,134105.60,"[-0.20000,-0.00000,-0.00000]","[-0.10000,-0.00000,-0.00000]",5.58875,0.00000,0.00000,0.00000,0.00000,0.00000
18:15:20.356191,3.80283,0.00564,2.39018,2.39018,"[5.00000,0.00000,0.00000]","[1.30000,0.00000,0.00000]",-0.00033,-0.02250,-0.00730,0.00000,0.00000,0.00691,-0.03100,0.22607,0.00592,0.95715,3.79691,0.01221,2.37907,1.96987,1.95678,-2.00788,4.92292,3.71177,-2.10457,5.15203,1.96389,1.96389,57.78147,12.77349,57.78146911,12.77348730,A,134105.60,"[-0.20000,-0.00000,-0.00000]","[-0.10000,-0.00000,-0.00000]",5.61353,0.00000,0.00000,0.00000,0.00000,0.00000
18:15:20.418817,3.86514,0.05755,2.39018,1.50000,"[5.00000,0.00000,0.00000]","[1.30000,0.00000,0.00000]",-0.00118,-0.02462,-0.01280,0.00000,0.00000,-0.00378,-0.04031,0.06698,-0.03581,1.02370,3.80753,0.01221,2.38129,1.97078,1.95646,-2.02006,4.95243,3.82484,-2.20338,5.41149,1.93466,1.93466,57.78147,12.77348,57.78146937,12.77348709,A,134105.70,"[-0.20000,-0.00000,-0.00000]","[-0.10000,-0.00000,-0.00000]",5.63830,0.00000,0.00000,0.00000,0.00000,0.00000
18:15:20.440167,3.88680,0.00723,2.82567,2.82567,"[5.00000,0.00000,0.00000]","[1.30000,0.00000,0.00000]",-0.00439,-0.03623,-0.05251,0.00000,0.00000,0.00813,-0.08063,0.08003,0.03263,0.95624,3.88014,0.00977,2.47016,1.96546,1.94439,-2.08929,5.12334,3.82484,-2.20338,5.41149,1.93466,1.93466,57.78147,12.77348,57.78147091,12.77348592,A,134105.70,"[-0.20000,-0.00000,-0.00000]","[-0.10000,-0.00000,-0.00000]",5.74527,0.00000,0.00000,0.00000,0.00000,0.00000
18:15:20.449326,3.89576,0.00578,2.82567,2.82567,"[5.00000,0.00000,0.00000]","[1.30000,0.00000,0.00000]",-0.00359,-0.03662,-0.03647,0.00000,0.00000,0.00431,-0.07696,0.06088,0.07418,1.00729,3.88993,0.00733,2.54127,1.96357,1.94227,-2.10106,5.15323,3.82484,-2.20338,5.41149,1.93466,1.93466,57.78147,12.77348,57.78147118,12.77348573,A,134105.70,"[-0.20000,-0.00000,-0.00000]","[-0.10000,-0.00000,-0.00000]",5.77456,0.00000,0.00000,0.00000,0.00000,0.00000
18:15:20.459311,3.90595,0.00560,2.82567,2.82567,"[5.00000,0.00000,0.00000]","[1.30000,0.00000,0.00000]",-0.00403,-0.03674,-0.01983,0.00000,0.00000,0.00004,-0.07116,0.10352,-0.01982,1.01327,3.89995,0.01465,2.59815,1.96187,1.94050,-2.11342,5.18473,3.82484,-2.20338,5.41149,1.93466,1.93466,57.78147,12.77348,57.78147146,12.77348552,A,134105.70,"[-0.20000,-0.00000,-0.00000]","[-0.10000,-0.00000,-0.00000]",5.80377,0.00000,0.00000,0.00000,0.00000,0.00000
18:15:20.469843,3.91648,0.00573,2.82567,2.82567,"[5.00000,0.00000,0.00000]","[1.30000,0.00000,0.00000]",-0.00516,-0.03674,-0.01738,0.00000,0.00000,-0.00057,-0.06627,0.09687,-0.06972,1.06006,3.91055,0.00977,2.64365,1.96039,1.93902,-2.12554,5.21574,3.82484,-2.20338,5.41149,1.93466,1.93466,57.78147,12.77348,57.78147174,12.77348531,A,134105.70,"[-0.20000,-0.00000,-0.00000]","[-0.10000,-0.00000,-0.00000]",5.83305,0.00000,0.00000,0.00000,0.00000,0.00000
18:15:20.528779,3.97541,0.05426,2.82567,1.50000,"[5.00000,0.00000,0.00000]","[1.30000,0.00000,0.00000]",-0.00716,-0.03674,-0.01952,0.00000,0.00000,0.00523,-0.06948,0.05990,-0.12950,1.03547,3.92074,0.01221,2.68005,1.95913,1.93776,-2.13707,5.24531,3.93770,-2.31206,5.67094,1.96749,1.96749,57.78148,12.77348,57.78147201,12.77348512,A,134105.80,"[-0.20000,-0.00000,-0.00000]","[-0.10000,-0.00000,-0.00000]",5.86234,0.00000,0.00000,0.00000,0.00000,0.00000
18:15:20.548534,3.99518,0.00876,2.82567,2.82567,"[5.00000,0.00000,0.00000]","[1.30000,0.00000,0.00000]",-0.00702,-0.03674,0.00430,0.00000,0.00000,0.00951,-0.04993,0.13865,-0.01720,0.97502,3.98865,0.00977,2.70918,1.95879,1.93742,-2.20606,5.42332,3.93770,-2.31206,5.67094,1.96749,1.96749,57.78148,12.77348,57.78147361,12.77348395,A,134105.80,"[-0.20000,-0.00000,-0.00000]","[-0.10000,-0.00000,-0.00000]",5.96019,0.00000,0.00000,0.00000,0.00000,0.00000
18:15:20.555761,4.00241,0.00568,2.82567,2.82567,"[5.00000,0.00000,0.00000]","[1.30000,0.00000,0.00000]",-0.00835,-0.03674,-0.00013,0.00000,0.00000,0.00416,-0.05894,0.20667,-0.09620,1.01650,3.99630,0.00000,2.73248,1.96292,1.94156,-2.21606,5.44795,3.93770,-2.31206,5.67094,1.96749,1.96749,57.78148,12.77348,57.78147383,12.77348379,A,134105.80,"[-0.20000,-0.00000,-0.00000]","[-0.10000,-0.00000,-0.00000]",5.98929,0.00000,0.00000,0.00000,0.00000,0.00000
18:15:20.566269,4.01291,0.00578,2.82567,2.82567,"[5.00000,0.00000,0.00000]","[1.30000,0.00000,0.00000]",-0.00843,-0.03674,-0.00181,0.00000,0.00000,-0.01355,-0.05925,0.12121,-0.01269,0.98295,4.00694,0.01465,2.75111,1.96619,1.94482,-2.22883,5.47961,3.93770,-2.31206,5.67094,1.96749,1.96749,57.78148,12.77348,57.78147411,12.77348357,A,134105.80,"[-0.20000,-0.00000,-0.00000]","[-0.10000,-0.00000,-0.00000]",6.01859,0.00000,0.00000,0.00000,0.00000,0.00000
18:15:20.576598,4.02324,0.00571,2.82567,2.82567,"[5.00000,0.00000,0.00000]","[1.30000,0.00000,0.00000]",-0.00738,-0.03674,-0.00746,0.00000,0.00000,-0.02012,-0.05329,0.09479,0.07515,1.08665,4.01753,0.01465,2.76603,1.96893,1.94756,-2.24142,5.51063,3.93770,-2.31206,5.67094,1.96749,1.96749,57.78148,12.77348,57.78147439,12.77348336,A,134105.80,"[-0.20000,-0.00000,-0.00000]","[-0.10000,-0.00000,-0.00000]",6.04787,0.00000,0.00000,0.00000,0.00000,0.00000
18:15:20.587244,4.03389,0.00566,2.82567,2.82567,"[5.00000,0.00000,0.00000]","[1.30000,0.00000,0.00000]",-0.00633,-0.03674,0.00705,0.00000,0.00000,-0.00836,-0.04398,-0.01976,0.06161,1.04542,4.02785,0.01709,2.77795,1.97127,1.94991,-2.25323,5.53956,3.93770,-2.31206,5.67094,1.96749,1.96749,57.78148,12.77348,57.78147465,12.77348316,A,134105.80,"[-0.20000,-0.00000,-0.00000]","[-0.10000,-0.00000,-0.00000]",6.07800,0.00000,0.00000,0.00000,0.00000,0.00000
18:15:20.649719,4.09634,0.05771,2.82567,1.50000,"[5.00000,0.00000,0.00000]","[1.30000,0.00000,0.00000]",-0.00770,-0.03654,0.02751,0.00000,0.00000,-0.00103,-0.03878,0.17159,-0.11303,0.95819,4.03842,0.01221,2.78750,1.97325,1.95200,-2.26447,5.56697,4.05523,-2.42075,5.94893,1.94350,1.94350,57.78148,12.77348,57.78147490,12.77348297,A,134105.90,"[-0.20000,-0.00000,-0.00000]","[-0.10000,-0.00000,-0.00000]",6.10728,0.00000,0.00000,0.00000,0.00000,0.00000
18:15:20.674092,4.12073,0.01039,3.26061,1.50000,"[5.00000,0.00000,0.00000]","[1.30000,0.00000,0.00000]",-0.00594,-0.02349,0.02400,0.00000,0.00000,0.00722,-0.01893,0.08845,0.01092,0.97149,4.11361,0.02198,2.53000,1.96531,1.95165,-2.34463,5.76657,4.05523,-2.42075,5.94893,1.94350,1.94350,57.78148,12.77348,57.78147669,12.77348162,A,134105.90,"[-0.20000,-0.00000,-0.00000]","[-0.10000,-0.00000,-0.00000]",6.21481,0.00000,0.00000,0.00000,0.00000,0.00000
18:15:20.695025,4.14166,0.00923,3.26061,1.50000,"[5.00000,0.00000,0.00000]","[1.30000,0.00000,0.00000]",-0.00509,-0.01925,0.00629,0.00000,0.00000,-0.01584,0.00535,-0.03239,0.06753,1.06677,4.13486,0.02198,2.32400,1.96291,1.95172,-2.36484,5.81666,4.05523,-2.42075,5.94893,1.94350,1.94350,57.78148,12.77348,57.78147714,12.77348128,A,134105.90,"[-0.20000,-0.00000,-0.00000]","[-0.10000,-0.00000,-0.00000]",6.24791,0.00000,0.00000,0.00000,0.00000,0.00000
18:15:20.706027,4.15266,0.00981,3.26061,1.50000,"[5.00000,0.00000,0.00000]","[1.30000,0.00000,0.00000]",-0.00423,-0.01738,0.00003,0.00000,0.00000,0.00767,0.01039,-0.03709,0.07564,1.02175,4.14663,0.01954,2.15920,1.96122,1.95111,-2.37500,5.84166,4.05523,-2.42075,5.94893,1.94350,1.94350,57.78148,12.77348,57.78147737,12.77348111,A,134105.90,"[-0.20000,-0.00000,-0.00000]","[-0.10000,-0.00000,-0.00000]",6.26352,0.00000,0.00000,0.00000,0.00000,0.00000
18:15:20.772424,4.21881,0.06494,3.26061,1.50000,"[5.00000,0.00000,0.00000]","[1.30000,0.00000,0.00000]",-0.00384,-0.01585,-0.00074,0.00000,0.00000,0.01378,0.01848,0.02373,0.04148,0.95014,4.15803,0.01954,2.02736,1.95968,1.95046,-2.38460,5.86531,4.17486,-2.52944,6.24545,1.92213,1.92213,57.78148,12.77348,57.78147758,12.77348094,A,134106.00,"[-0.20000,-0.00000,-0.00000]","[-0.10000,-0.00000,-0.00000]",6.28002,0.00000,0.00000,0.00000,0.00000,0.00000
18:15:20.795296,4.24193,0.00934,3.26061,1.50000,"[5.00000,0.00000,0.00000]","[1.30000,0.00000,0.00000]",-0.00263,-0.01192,0.02981,0.00000,0.00000,-0.03493,0.01940,-0.08156,-0.05575,1.07555,4.23522,0.01954,1.92189,1.95329,1.94636,-2.44566,6.01920,4.17486,-2.52944,6.24545,1.92213,1.92213,57.78148,12.77348,57.78147897,12.77347991,A,134106.00,"[-0.20000,-0.00000,-0.00000]","[-0.10000,-0.00000,-0.00000]",6.39808,0.00000,0.00000,0.00000,0.00000,0.00000
18:15:20.806822,4.25346,0.01009,3.26061,1.50000,"[5.00000,0.00000,0.00000]","[1.30000,0.00000,0.00000]",-0.00339,-0.01192,0.02614,0.00000,0.00000,-0.02195,0.01482,-0.06082,-0.05276,1.05457,4.24655,0.05617,1.83751,1.94951,1.94258,-2.45560,6.04509,4.17486,-2.52944,6.24545,1.92213,1.92213,57.78148,12.77348,57.78147920,12.77347975,A,134106.00,"[-0.20000,-0.00000,-0.00000]","[-0.10000,-0.00000,-0.00000]",6.41422,0.00000,0.00000,0.00000,0.00000,0.00000
18:15:20.885853,4.33159,0.06522,3.26061,1.50000,"[5.00000,0.00000,0.00000]","[1.30000,0.00000,0.00000]",-0.00354,-0.01192,0.01713,0.00000,0.00000,-0.01752,-0.00091,-0.03007,-0.01690,0.94739,4.27035,0.04151,1.77001,1.94610,1.93917,-2.47278,6.08970,4.28857,-2.62824,6.52344,1.91230,1.91230,57.78148,12.77348,57.78147960,12.77347946,A,134106.10,"[-0.20000,-0.00000,-0.00000]","[-0.10000,-0.00000,-0.00000]",6.44868,0.00000,0.00000,0.00000,0.00000,0.00000
18:15:20.904840,4.35148,0.00664,2.89857,2.89857,"[5.00000,0.00000,0.00000]","[1.30000,0.00000,0.00000]",-0.00374,-0.01200,0.00827,0.00000,0.00000,-0.01340,-0.04413,-0.03886,-0.04532,1.10489,4.34573,0.04884,1.99572,1.94095,1.93397,-2.52429,6.22469,4.28857,-2.62824,6.52344,1.91230,1.91230,57.78148,12.77348,57.78148081,12.77347859,A,134106.10,"[-0.20000,-0.00000,-0.00000]","[-0.10000,-0.00000,-0.00000]",6.56635,0.00000,0.00000,0.00000,0.00000,0.00000
18:15:20.914393,4.36103,0.00579,2.89857,2.89857,"[5.00000,0.00000,0.00000]","[1.30000,0.00000,0.00000]",-0.00258,-0.01217,0.00491,0.00000,0.00000,-0.00424,-0.04214,-0.10352,0.09723,1.10739,4.35508,0.04151,2.17629,1.93758,1.93051,-2.53457,6.25301,4.28857,-2.62824,6.52344,1.91230,1.91230,57.78148,12.77348,57.78148107,12.77347841,A,134106.10,"[-0.20000,-0.00000,-0.00000]","[-0.10000,-0.00000,-0.00000]",6.59639,0.00000,0.00000,0.00000,0.00000,0.00000
18:15:20.924514,4.37116,0.00551,2.89857,2.89857,"[5.00000,0.00000,0.00000]","[1.30000,0.00000,0.00000]",-0.00398,-0.01245,0.01744,0.00000,0.00000,0.00034,-0.04260,0.01305,-0.09955,1.08732,4.36543,0.04640,2.32074,1.93471,1.92747,-2.54534,6.28270,4.28857,-2.62824,6.52344,1.91230,1.91230,57.78148,12.77348,57.78148134,12.77347823,A,134106.10,"[-0.20000,-0.00000,-0.00000]","[-0.10000,-0.00000,-0.00000]",6.62644,0.00000,0.00000,0.00000,0.00000,0.00000
18:15:20.935375,4.38202,0.00582,2.89857,2.89857,"[5.00000,0.00000,0.00000]","[1.30000,0.00000,0.00000]",-0.00417,-0.01271,0.01499,0.00000,0.00000,-0.00363,-0.03634,-0.00390,-0.01116,0.99686,4.37580,0.04151,2.43631,1.93228,1.92489,-2.55609,6.31248,4.28857,-2.62824,6.52344,1.91230,1.91230,57.78148,12.77348,57.78148160,12.77347805,A,134106.10,"[-0.20000,-0.00000,-0.00000]","[-0.10000,-0.00000,-0.00000]",6.65691,0.00000,0.00000,0.00000,0.00000,0.00000
18:15:21.007613,4.45424,0.06764,2.89857,1.50000,"[5.00000,0.00000,0.00000]","[1.30000,0.00000,0.00000]",-0.00300,-0.01291,0.01545,0.00000,0.00000,0.00141,-0.02504,-0.16635,0.08150,1.03279,4.38641,0.06349,2.52876,1.93022,1.92271,-2.56639,6.34114,4.41423,-2.85550,7.11648,1.93674,1.93674,57.78149,12.77347,57.78148186,12.77347788,A,134106.30,"[-0.20000,-0.00000,-0.00000]","[-0.10000,-0.00000,-0.00000]",6.68695,0.00000,0.00000,0.00000,0.00000,0.00000
18:15:21.028456,4.47510,0.00709,2.89857,2.89857,"[5.00000,0.00000,0.00000]","[1.30000,0.00000,0.00000]",-0.00421,-0.01653,-0.00303,0.00000,0.00000,0.01409,-0.03069,-0.00549,-0.05661,1.06707,4.46932,0.03419,2.60272,1.93068,1.92107,-2.64805,6.56292,4.41423,-2.85550,7.11648,1.93674,1.93674,57.78149,12.77347,57.78148386,12.77347650,A,134106.30,"[-0.20000,-0.00000,-0.00000]","[-0.10000,-0.00000,-0.00000]",6.80903,0.00000,0.00000,0.00000,0.00000,0.00000
18:15:21.037522,4.48415,0.00574,2.89857,2.89857,"[5.00000,0.00000,0.00000]","[1.30000,0.00000,0.00000]",-0.00397,-0.01698,-0.01066,0.00000,0.00000,0.01012,-0.03863,0.05978,0.03306,1.05658,4.47821,0.05861,2.66189,1.93284,1.92297,-2.66442,6.60701,4.41423,-2.85550,7.11648,1.93674,1.93674,57.78149,12.77347,57.78148425,12.77347622,A,134106.30,"[-0.20000,-0.00000,-0.00000]","[-0.10000,-0.00000,-0.00000]",6.83907,0.00000,0.00000,0.00000,0.00000,0.00000
18:15:21.047763,4.49440,0.00576,2.89857,2.89857,"[5.00000,0.00000,0.00000]","[1.30000,0.00000,0.00000]",-0.00418,-0.01758,-0.01540,0.00000,0.00000,0.00660,-0.04550,0.12182,0.00506,1.02895,4.48829,0.04396,2.70923,1.93468,1.92446,-2.68136,6.65259,4.41423,-2.85550,7.11648,1.93674,1.93674,57.78149,12.77347,57.78148466,12.77347594,A,134106.30,"[-0.20000,-0.00000,-0.00000]","[-0.10000,-0.00000,-0.00000]",6.86864,0.00000,0.00000,0.00000,0.00000,0.00000
18:15:21.058441,4.50508,0.00604,2.89857,2.89857,"[5.00000,0.00000,0.00000]","[1.30000,0.00000,0.00000]",-0.00420,-0.01828,-0.01723,0.00000,0.00000,-0.00149,-0.04688,0.02696,0.01934,1.03676,4.49897,0.04151,2.74709,1.93628,1.92565,-2.69766,6.69636,4.41423,-2.85550,7.11648,1.93674,1.93674,57.78149,12.77347,57.78148506,12.77347566,A,134106.30,"[-0.20000,-0.00000,-0.00000]","[-0.10000,-0.00000,-0.00000]",6.89867,0.00000,0.00000,0.00000,0.00000,0.00000
18:15:21.068295,4.51494,0.00549,2.89857,2.89857,"[5.00000,0.00000,0.00000]","[1.30000,0.00000,0.00000]",-0.00477,-0.01908,-0.01402,0.00000,0.00000,-0.01264,-0.04581,-0.04868,-0.02117,0.98405,4.50923,0.05617,2.77739,1.93770,1.92661,-2.71327,6.73818,4.41423,-2.85550,7.11648,1.93674,1.93674,57.78149,12.77347,57.78148543,12.77347540,A,134106.30,"[-0.20000,-0.00000,-0.00000]","[-0.10000,-0.00000,-0.00000]",6.92871,0.00000,0.00000,0.00000,0.00000,0.00000
18:15:21.128711,4.57535,0.05551,2.89857,1.50000,"[5.00000,0.00000,0.00000]","[1.30000,0.00000,0.00000]",-0.00498,-0.02001,-0.01387,0.00000,0.00000,-0.01462,-0.04795,-0.03691,0.00067,0.95355,4.51983,0.07082,2.80162,1.93895,1.92732,-2.72850,6.77895,4.53685,-2.95430,7.39446,1.91230,1.91230,57.78149,12.77347,57.78148580,12.77347514,A,134106.40,"[-0.20000,-0.00000,-0.00000]","[-0.10000,-0.00000,-0.00000]",6.95875,0.00000,0.00000,0.00000,0.00000,0.00000
18:15:21.151222,4.59787,0.01007,3.03597,1.50000,"[5.00000,0.00000,0.00000]","[1.30000,0.00000,0.00000]",-0.00912,-0.02539,-0.02319,0.00000,0.00000,0.00279,-0.05879,0.07302,-0.15232,0.99650,4.59182,0.04884,2.54130,1.93427,1.91951,-2.80476,6.98416,4.53685,-2.95430,7.39446,1.91230,1.91230,57.78149,12.77347,57.78148764,12.77347386,A,134106.40,"[-0.20000,-0.00000,-0.00000]","[-0.10000,-0.00000,-0.00000]",7.06065,0.00000,0.00000,0.00000,0.00000,0.00000
18:15:21.176928,4.62357,0.01186,3.03597,1.50000,"[5.00000,0.00000,0.00000]","[1.30000,0.00000,0.00000]",-0.00982,-0.02598,-0.03693,0.00000,0.00000,-0.01539,-0.05940,-0.21545,0.02922,1.06286,4.61779,0.04151,2.33304,1.93211,1.91700,-2.83194,7.05886,4.53685,-2.95430,7.39446,1.91230,1.91230,57.78149,12.77347,57.78148832,12.77347340,A,134106.40,"[-0.20000,-0.00000,-0.00000]","[-0.10000,-0.00000,-0.00000]",7.09426,0.00000,0.00000,0.00000,0.00000,0.00000
18:15:21.255771,4.70197,0.06494,3.03597,1.50000,"[5.00000,0.00000,0.00000]","[1.30000,0.00000,0.00000]",-0.01141,-0.02618,-0.04457,0.00000,0.00000,0.00722,-0.06704,-0.00903,-0.02495,0.97954,4.64211,0.05372,2.16643,1.93041,1.91518,-2.85498,7.12257,4.65922,-3.06299,7.67245,1.94350,1.94350,57.78149,12.77347,57.78148889,12.77347301,A,134106.50,"[-0.20000,-0.00000,-0.00000]","[-0.10000,-0.00000,-0.00000]",7.13220,0.00000,0.00000,0.00000,0.00000,0.00000
18:15:21.278823,4.72546,0.00892,3.03597,1.50000,"[5.00000,0.00000,0.00000]","[1.30000,0.00000,0.00000]",-0.01700,-0.02624,-0.06656,0.00000,0.00000,-0.00974,-0.05497,0.03001,-0.02672,1.00443,4.71941,0.06838,2.03315,1.93150,1.91624,-2.91785,7.29634,4.65922,-3.06299,7.67245,1.94350,1.94350,57.78149,12.77347,57.78149045,12.77347195,A,134106.50,"[-0.20000,-0.00000,-0.00000]","[-0.10000,-0.00000,-0.00000]",7.25143,0.00000,0.00000,0.00000,0.00000,0.00000
18:15:21.289665,4.73629,0.00966,3.03597,1.50000,"[5.00000,0.00000,0.00000]","[1.30000,0.00000,0.00000]",-0.01688,-0.02624,-0.07450,0.00000,0.00000,-0.02134,-0.05024,-0.01677,0.06124,0.99589,4.72980,0.06105,1.92652,1.93526,1.92000,-2.93054,7.33024,4.65922,-3.06299,7.67245,1.94350,1.94350,57.78149,12.77347,57.78149076,12.77347173,A,134106.50,"[-0.20000,-0.00000,-0.00000]","[-0.10000,-0.00000,-0.00000]",7.26655,0.00000,0.00000,0.00000,0.00000,0.00000
18:15:21.299499,4.74614,0.00833,3.03597,1.50000,"[5.00000,0.00000,0.00000]","[1.30000,0.00000,0.00000]",-0.01771,-0.02624,-0.07771,0.00000,0.00000,-0.01859,-0.04734,-0.13835,0.00049,1.03419,4.74009,0.06349,1.84121,1.93848,1.92323,-2.94218,7.36113,4.65922,-3.06299,7.67245,1.94350,1.94350,57.78149,12.77347,57.78149103,12.77347154,A,134106.50,"[-0.20000,-0.00000,-0.00000]","[-0.10000,-0.00000,-0.00000]",7.28328,0.00000,0.00000,0.00000,0.00000,0.00000
18:15:21.308611,4.75525,0.00698,3.03597,1.50000,"[5.00000,0.00000,0.00000]","[1.30000,0.00000,0.00000]",-0.01827,-0.02624,-0.07771,0.00000,0.00000,0.00141,-0.04779,-0.13292,0.01086,0.92317,4.74950,0.04151,1.77297,1.94126,1.92601,-2.95264,7.38871,4.65922,-3.06299,7.67245,1.94350,1.94350,57.78149,12.77347,57.78149128,12.77347136,A,134106.50,"[-0.20000,-0.00000,-0.00000]","[-0.10000,-0.00000,-0.00000]",7.29893,0.00000,0.00000,0.00000,0.00000,0.00000
18:15:21.351169,4.79780,0.03913,3.03597,1.50000,"[5.00000,0.00000,0.00000]","[1.30000,0.00000,0.00000]",-0.01820,-0.02624,-0.07603,0.00000,0.00000,0.00065,-0.05375,-0.12706,0.05496,0.94800,4.75988,0.05128,1.71838,1.94359,1.92833,-2.96318,7.41646,4.77704,-3.17168,7.95044,1.94350,1.94350,57.78150,12.77347,57.78149153,12.77347118,A,134106.60,"[-0.20000,-0.00000,-0.00000]","[-0.10000,-0.00000,-0.00000]",7.31448,0.00000,0.00000,0.00000,0.00000,0.00000
18:15:21.364350,4.81099,0.00666,3.23240,1.50000,"[5.00000,0.00000,0.00000]","[1.30000,0.00000,0.00000]",-0.02160,-0.02624,-0.10306,0.00000,0.00000,0.00706,-0.03909,-0.08467,0.08211,1.00699,4.80521,0.04884,1.67470,1.94443,1.92917,-2.99827,7.50916,4.77704,-3.17168,7.95044,1.94350,1.94350,57.78150,12.77347,57.78149236,12.77347059,A,134106.60,"[-0.20000,-0.00000,-0.00000]","[-0.10000,-0.00000,-0.00000]",7.38292,0.00000,0.00000,0.00000,0.00000,0.00000
18:15:21.376459,4.82310,0.00837,3.23240,1.50000,"[5.00000,0.00000,0.00000]","[1.30000,0.00000,0.00000]",-0.02079,-0.02624,-0.09252,0.00000,0.00000,-0.00851,-0.03069,-0.09412,0.13414,1.08238,4.81679,0.05128,1.63976,1.94625,1.93100,-3.01250,7.54608,4.77704,-3.17168,7.95044,1.94350,1.94350,57.78150,12.77347,57.78149270,12.77347035,A,134106.60,"[-0.20000,-0.00000,-0.00000]","[-0.10000,-0.00000,-0.00000]",7.39847,0.00000,0.00000,0.00000,0.00000,0.00000
18:15:21.385837,4.83248,0.00758,3.23240,1.50000,"[5.00000,0.00000,0.00000]","[1.30000,0.00000,0.00000]",-0.02098,-0.02624,-0.07740,0.00000,0.00000,-0.00790,-0.03100,-0.12395,0.03678,1.03730,4.82651,0.04640,1.61181,1.94790,1.93264,-3.02452,7.57706,4.77704,-3.17168,7.95044,1.94350,1.94350,57.78150,12.77347,57.78149298,12.77347015,A,134106.60,"[-0.20000,-0.00000,-0.00000]","[-0.10000,-0.00000,-0.00000]",7.41370,0.00000,0.00000,0.00000,0.00000,0.00000
18:15:21.396456,4.84310,0.00780,3.23240,1.50000,"[5.00000,0.00000,0.00000]","[1.30000,0.00000,0.00000]",-0.02334,-0.02624,-0.06305,0.00000,0.00000,-0.00439,-0.03710,-0.09205,-0.11108,0.97075,4.83734,0.05617,1.58945,1.94924,1.93398,-3.03679,7.60871,4.77704,-3.17168,7.95044,1.94350,1.94350,57.78150,12.77347,57.78149326,12.77346994,A,134106.60,"[-0.20000,-0.00000,-0.00000]","[-0.10000,-0.00000,-0.00000]",7.42924,0.00000,0.00000,0.00000,0.00000,0.00000
18:15:21.406331,4.85297,0.00727,3.23240,1.50000,"[5.00000,0.00000,0.00000]","[1.30000,0.00000,0.00000]",-0.02477,-0.02624,-0.07114,0.00000,0.00000,0.00004,-0.03390,-0.13701,-0.05173,0.95837,4.84695,0.05372,1.57156,1.95043,1.93517,-3.04772,7.63682,4.77704,-3.17168,7.95044,1.94350,1.94350,57.78150,12.77347,57.78149351,12.77346976,A,134106.60,"[-0.20000,-0.00000,-0.00000]","[-0.10000,-0.00000,-0.00000]",7.44478,0.00000,0.00000,0.00000,0.00000,0.00000
18:15:21.416550,4.86319,0.00696,3.23240,1.50000,"[5.00000,0.00000,0.00000]","[1.30000,0.00000,0.00000]",-0.02549,-0.02624,-0.07939,0.00000,0.00000,0.00859,-0.03817,-0.17165,0.00159,1.00089,4.85745,0.06105,1.55725,1.95141,1.93615,-3.05855,7.66465,4.77704,-3.17168,7.95044,1.94350,1.94350,57.78150,12.77347,57.78149376,12.77346957,A,134106.60,"[-0.20000,-0.00000,-0.00000]","[-0.10000,-0.00000,-0.00000]",7.46053,0.00000,0.00000,0.00000,0.00000,0.00000
18:15:21.427379,4.87402,0.00739,3.23240,1.50000,"[5.00000,0.00000,0.00000]","[1.30000,0.00000,0.00000]",-0.02809,-0.02624,-0.07649,0.00000,0.00000,0.03333,-0.04306,-0.18050,-0.12340,0.96423,4.86782,0.05617,1.54580,1.95226,1.93700,-3.06875,7.69080,4.77704,-3.17168,7.95044,1.94350,1.94350,57.78150,12.77347,57.78149400,12.77346940,A,134106.60,"[-0.20000,-0.00000,-0.00000]","[-0.10000,-0.00000,-0.00000]",7.47608,0.00000,0.00000,0.00000,0.00000,0.00000
18:15:21.491972,4.93859,0.06155,3.23240,1.50000,"[5.00000,0.00000,0.00000]","[1.30000,0.00000,0.00000]",-0.02802,-0.02624,-0.07404,0.00000,0.00000,0.03516,-0.03894,-0.05398,0.04343,0.93019,4.87825,0.08303,1.53664,1.95299,1.93773,-3.07820,7.71501,4.90643,-3.37917,8.50641,1.92799,1.92799,57.78150,12.77346,57.78149422,12.77346924,A,134106.80,"[-0.20000,-0.00000,-0.00000]","[-0.10000,-0.00000,-0.00000]",7.49163,0.00000,0.00000,0.00000,0.00000,0.00000
18:15:21.515913,4.96255,0.01034,3.23240,1.50000,"[5.00000,0.00000,0.00000]","[1.30000,0.00000,0.00000]",-0.03018,-0.02624,-0.04961,0.00000,0.00000,-0.02959,-0.01404,-0.10303,0.10340,1.00424,4.95655,0.07814,1.52931,1.94924,1.93399,-3.13332,7.85885,4.90643,-3.37917,8.50641,1.92799,1.92799,57.78150,12.77346,57.78149551,12.77346831,A,134106.80,"[-0.20000,-0.00000,-0.00000]","[-0.10000,-0.00000,-0.00000]",7.60435,0.00000,0.00000,0.00000,0.00000,0.00000
18:15:21.539416,4.98606,0.01117,3.23240,1.50000,"[5.00000,0.00000,0.00000]","[1.30000,0.00000,0.00000]",-0.03186,-0.02624,-0.04075,0.00000,0.00000,-0.00607,-0.03084,-0.09980,-0.05819,0.96313,4.98000,0.05372,1.52345,1.94771,1.93245,-3.15667,7.92031,4.90643,-3.37917,8.50641,1.92799,1.92799,57.78150,12.77346,57.78149606,12.77346792,A,134106.80,"[-0.20000,-0.00000,-0.00000]","[-0.10000,-0.00000,-0.00000]",7.63832,0.00000,0.00000,0.00000,0.00000,0.00000
18:15:21.617338,5.06334,0.06282,3.23240,1.50000,"[5.00000,0.00000,0.00000]","[1.30000,0.00000,0.00000]",-0.03161,-0.02624,-0.04472,0.00000,0.00000,-0.02867,-0.03252,0.03483,0.08284,1.03413,5.00558,0.04396,1.51876,1.94635,1.93109,-3.17984,7.98145,5.02283,-3.47797,8.78440,1.91230,1.91230,57.78150,12.77346,57.78149661,12.77346753,A,134106.90,"[-0.20000,-0.00000,-0.00000]","[-0.10000,-0.00000,-0.00000]",7.67528,0.00000,0.00000,0.00000,0.00000,0.00000
18:15:21.650781,5.09687,0.01964,3.23240,1.50000,"[5.00000,0.00000,0.00000]","[1.30000,0.00000,0.00000]",0.00000,-0.02553,-0.03372,0.00000,0.00000,0.02799,-0.01221,-0.16513,0.08204,0.94367,5.08333,0.08547,1.50000,1.96263,1.94779,-3.47797,8.78440,5.02283,-3.47797,8.78440,1.91230,1.91230,57.78150,12.77346,57.78149790,12.77346663,A,134106.90,"[-0.20000,-0.00000,-0.00000]","[-0.10000,-0.00000,-0.00000]",7.79031,0.00000,0.00000,0.00000,0.00000,0.00000
18:15:21.677459,5.12387,0.01424,2.64454,2.64454,"[5.00000,0.00000,0.00000]","[1.30000,0.00000,0.00000]",-0.00231,-0.01604,-0.03846,0.12060,-0.01334,-0.00118,-0.02428,-0.03508,-0.06911,1.08336,5.11278,0.05861,1.72891,1.95570,1.94638,-3.49243,8.82092,5.02283,-3.47797,8.78440,1.91230,1.91230,57.78150,12.77346,57.78150416,12.77346226,A,134106.90,"[-0.20000,-0.00000,-0.00000]","[-0.10000,-0.00000,-0.00000]",7.83889,-3.12823,7.18765,1.98129,0.31784,0.03492
18:15:21.714952,5.16159,0.02710,2.64454,2.64454,"[5.00000,0.00000,0.00000]","[1.30000,0.00000,0.00000]",-0.00319,-0.01601,-0.04900,0.17165,-0.01447,-0.01936,-0.02046,-0.17653,0.02763,1.01059,5.13534,0.01465,1.91204,1.95017,1.94086,-3.50412,8.85056,5.15384,-3.56690,9.04385,1.90099,1.90099,57.78151,12.77346,57.78150443,12.77346206,A,134107.00,"[-0.20000,-0.00000,-0.00000]","[-0.10000,-0.00000,-0.00000]",7.90457,-3.15444,7.24787,1.98129,0.31895,0.04044
18:15:21.736794,5.18343,0.00983,2.64454,2.64454,"[5.00000,0.00000,0.00000]","[1.30000,0.00000,0.00000]",-0.00564,-0.01295,-0.01876,0.02894,-0.01562,0.04173,-0.01725,-0.05765,-0.08638,0.86297,5.17690,0.00244,2.05854,1.94302,1.93549,-3.53331,8.92738,5.15384,-3.56690,9.04385,1.90099,1.90099,57.78151,12.77346,57.78150512,12.77346157,A,134107.00,"[-0.20000,-0.00000,-0.00000]","[-0.10000,-0.00000,-0.00000]",8.00798,-3.19571,7.34269,1.98129,0.32285,0.04580
18:15:21.744535,5.19118,0.00595,2.64454,2.64454,"[5.00000,0.00000,0.00000]","[1.30000,0.00000,0.00000]",-0.00809,-0.01162,-0.03006,0.02894,-0.01562,0.04234,-0.02901,-0.01287,-0.12352,0.90030,5.18482,0.03419,2.17574,1.93761,1.93085,-3.53927,8.94441,5.15384,-3.56690,9.04385,1.90099,1.90099,57.78151,12.77346,57.78150527,12.77346147,A,134107.00,"[-0.20000,-0.00000,-0.00000]","[-0.10000,-0.00000,-0.00000]",8.03867,-3.20796,7.37083,1.98129,0.32418,0.05044
18:15:21.755518,5.20216,0.00653,2.64454,2.64454,"[5.00000,0.00000,0.00000]","[1.30000,0.00000,0.00000]",-0.00862,-0.01012,-0.05113,0.19868,-0.01738,0.03470,-0.03313,-0.08638,0.01128,1.00369,5.19539,0.04151,2.26950,1.93284,1.92695,-3.54690,8.96598,5.15384,-3.56690,9.04385,1.90099,1.90099,57.78151,12.77346,57.78150547,12.77346134,A,134107.00,"[-0.20000,-0.00000,-0.00000]","[-0.10000,-0.00000,-0.00000]",8.06608,-3.21890,7.39597,1.98129,0.32579,0.05434
18:15:21.765596,5.21186,0.00584,2.64454,2.64454,"[5.00000,0.00000,0.00000]","[1.30000,0.00000,0.00000]",-0.00916,-0.00913,-0.04900,0.19868,-0.01738,0.02600,-0.03283,0.11895,0.00909,1.08952,5.20575,0.02930,2.34451,1.92872,1.92341,-3.55415,8.98670,5.15384,-3.56690,9.04385,1.90099,1.90099,57.78151,12.77346,57.78150565,12.77346121,A,134107.00,"[-0.20000,-0.00000,-0.00000]","[-0.10000,-0.00000,-0.00000]",8.09349,-3.22984,7.42110,1.98129,0.32740,0.05789
18:15:21.776503,5.22314,0.00679,2.64454,2.64454,"[5.00000,0.00000,0.00000]","[1.30000,0.00000,0.00000]",-0.00848,-0.00826,-0.03159,0.09104,-0.01877,0.00325,-0.02336,0.10687,0.08772,1.13027,5.21597,0.00733,2.40451,1.92514,1.92034,-3.56131,9.00726,5.15384,-3.56690,9.04385,1.90099,1.90099,57.78151,12.77346,57.78150584,12.77346109,A,134107.00,"[-0.20000,-0.00000,-0.00000]","[-0.10000,-0.00000,-0.00000]",8.12073,-3.24071,7.44608,1.98129,0.32905,0.06095
18:15:21.786378,5.23302,0.00627,2.64454,2.64454,"[5.00000,0.00000,0.00000]","[1.30000,0.00000,0.00000]",-0.00827,-0.00726,-0.02349,0.09104,-0.01877,-0.02974,-0.02000,0.12005,0.04862,1.13857,5.22654,0.01465,2.45252,1.92203,1.91781,-3.56807,9.02686,5.15384,-3.56690,9.04385,1.90099,1.90099,57.78151,12.77346,57.78150601,12.77346098,A,134107.00,"[-0.20000,-0.00000,-0.00000]","[-0.10000,-0.00000,-0.00000]",8.14814,-3.25165,7.47121,1.98129,0.33068,0.06349
18:15:21.796617,5.24325,0.00612,2.64454,2.64454,"[5.00000,0.00000,0.00000]","[1.30000,0.00000,0.00000]",-0.00865,-0.00627,-0.03021,0.07878,-0.01977,-0.04486,-0.01649,0.02074,0.00836,1.08098,5.23672,0.02442,2.49093,1.91931,1.91566,-3.57467,9.04614,5.15384,-3.56690,9.04385,1.90099,1.90099,57.78151,12.77346,57.78150619,12.77346087,A,134107.00,"[-0.20000,-0.00000,-0.00000]","[-0.10000,-0.00000,-0.00000]",8.17553,-3.26258,7.49633,1.98129,0.33231,0.06563
18:15:21.807285,5.25392,0.00639,2.64454,2.64454,"[5.00000,0.00000,0.00000]","[1.30000,0.00000,0.00000]",-0.01049,-0.00534,-0.03098,0.09195,-0.02017,-0.05250,-0.01298,-0.08699,-0.08882,1.00314,5.24732,0.00977,2.52165,1.91693,1.91383,-3.58117,9.06521,5.15384,-3.56690,9.04385,1.90099,1.90099,57.78151,12.77346,57.78150636,12.77346076,A,134107.00,"[-0.20000,-0.00000,-0.00000]","[-0.10000,-0.00000,-0.00000]",8.20294,-3.27352,7.52146,1.98129,0.33396,0.06747
18:15:21.835761,5.28240,0.02447,2.64454,2.64454,"[5.00000,0.00000,0.00000]","[1.30000,0.00000,0.00000]",-0.01110,-0.00455,-0.04350,0.15619,-0.02053,-0.03402,-0.00595,-0.20289,0.00067,0.95721,5.25772,0.01709,2.54623,1.91485,1.91221,-3.58718,9.08295,5.27460,-3.66571,9.30331,1.93466,1.93466,57.78151,12.77346,57.78150652,12.77346066,A,134107.10,"[-0.20000,-0.00000,-0.00000]","[-0.10000,-0.00000,-0.00000]",8.23035,-3.28445,7.54659,1.98129,0.33553,0.06909
18:15:21.855736,5.30237,0.00807,2.64454,2.64454,"[5.00000,0.00000,0.00000]","[1.30000,0.00000,0.00000]",-0.01343,-0.00163,-0.01280,0.02283,-0.01976,0.02860,-0.01236,-0.02031,-0.10187,0.91232,5.29557,0.00000,2.56589,1.91766,1.91671,-3.62033,9.17623,5.27460,-3.66571,9.30331,1.93466,1.93466,57.78151,12.77346,57.78150736,12.77346010,A,134107.10,"[-0.20000,-0.00000,-0.00000]","[-0.10000,-0.00000,-0.00000]",8.32649,-3.32282,7.63474,1.98129,0.34236,0.06459
18:15:21.864190,5.31083,0.00606,2.64454,2.64454,"[5.00000,0.00000,0.00000]","[1.30000,0.00000,0.00000]",-0.01409,-0.00053,-0.02288,0.02283,-0.01976,0.02737,-0.01557,-0.15183,-0.01952,0.98808,5.30442,0.01709,2.58162,1.92023,1.91993,-3.62806,9.19773,5.27460,-3.66571,9.30331,1.93466,1.93466,57.78151,12.77346,57.78150755,12.77345997,A,134107.10,"[-0.20000,-0.00000,-0.00000]","[-0.10000,-0.00000,-0.00000]",8.35411,-3.33384,7.66007,1.98129,0.34385,0.06137
18:15:21.874939,5.32158,0.00642,2.64454,2.64454,"[5.00000,0.00000,0.00000]","[1.30000,0.00000,0.00000]",-0.01656,0.00043,-0.03052,0.13904,-0.01865,0.01913,-0.01802,0.06740,-0.13829,1.03194,5.31498,0.02930,2.59421,1.92235,1.92260,-3.63709,9.22264,5.27460,-3.66571,9.30331,1.93466,1.93466,57.78151,12.77346,57.78150777,12.77345982,A,134107.10,"[-0.20000,-0.00000,-0.00000]","[-0.10000,-0.00000,-0.00000]",8.38153,-3.34478,7.68521,1.98129,0.34551,0.05869
18:15:21.885027,5.33167,0.00611,2.64454,2.64454,"[5.00000,0.00000,0.00000]","[1.30000,0.00000,0.00000]",-0.01785,0.00091,-0.03708,0.18268,-0.01827,0.00416,-0.01359,-0.00500,-0.05716,1.10325,5.32537,0.01709,2.60427,1.92413,1.92466,-3.64565,9.24610,5.27460,-3.66571,9.30331,1.93466,1.93466,57.78151,12.77346,57.78150799,12.77345967,A,134107.10,"[-0.20000,-0.00000,-0.00000]","[-0.10000,-0.00000,-0.00000]",8.40894,-3.35572,7.71034,1.98129,0.34703,0.05664
18:15:21.895830,5.34247,0.00635,2.64454,2.64454,"[5.00000,0.00000,0.00000]","[1.30000,0.00000,0.00000]",-0.01771,0.00157,-0.03708,0.18401,-0.01793,-0.00454,-0.00748,0.15012,0.04624,1.10599,5.33572,0.00000,2.61233,1.92558,1.92649,-3.65400,9.26885,5.27460,-3.66571,9.30331,1.93466,1.93466,57.78151,12.77346,57.78150819,12.77345953,A,134107.10,"[-0.20000,-0.00000,-0.00000]","[-0.10000,-0.00000,-0.00000]",8.43677,-3.36683,7.73586,1.98129,0.34845,0.05480
18:15:21.906241,5.35287,0.00636,2.64454,2.64454,"[5.00000,0.00000,0.00000]","[1.30000,0.00000,0.00000]",-0.01787,0.00281,-0.02517,0.12776,-0.01758,-0.01814,0.00046,-0.05514,0.01598,1.06134,5.34630,0.00000,2.61877,1.92673,1.92836,-3.66183,9.29007,5.27460,-3.66571,9.30331,1.93466,1.93466,57.78151,12.77346,57.78150838,12.77345940,A,134107.10,"[-0.20000,-0.00000,-0.00000]","[-0.10000,-0.00000,-0.00000]",8.46417,-3.37776,7.76099,1.98129,0.34974,0.05293
18:15:21.916286,5.36293,0.00619,2.65683,2.65683,"[5.00000,0.00000,0.00000]","[1.30000,0.00000,0.00000]",-0.01832,0.00434,-0.02609,0.13735,-0.01726,-0.02149,0.00520,-0.06704,-0.00366,1.10178,5.35637,0.00000,2.62638,1.92758,1.93011,-3.66926,9.31009,5.27460,-3.66571,9.30331,1.93466,1.93466,57.78151,12.77346,57.78150856,12.77345927,A,134107.10,"[-0.20000,-0.00000,-0.00000]","[-0.10000,-0.00000,-0.00000]",8.49114,-3.38852,7.78571,1.98129,0.35092,0.05119
18:15:21.926881,5.37352,0.00639,2.65683,2.65683,"[5.00000,0.00000,0.00000]","[1.30000,0.00000,0.00000]",-0.01974,0.00553,-0.02212,0.12835,-0.01701,-0.00974,0.00489,-0.01763,-0.07198,1.02443,5.36694,0.00000,2.63247,1.92823,1.93145,-3.67659,9.32974,5.27460,-3.66571,9.30331,1.93466,1.93466,57.78151,12.77346,57.78150874,12.77345915,A,134107.10,"[-0.20000,-0.00000,-0.00000]","[-0.10000,-0.00000,-0.00000]",8.51869,-3.39952,7.81098,1.98129,0.35204,0.04985
18:15:21.964323,5.41096,0.03343,2.65683,2.65683,"[5.00000,0.00000,0.00000]","[1.30000,0.00000,0.00000]",-0.02119,0.00624,-0.04289,0.24268,-0.01685,-0.01447,0.00123,-0.07015,-0.05411,0.92385,5.37734,0.00244,2.63734,1.92875,1.93237,-3.68367,9.34864,5.40524,-3.85344,9.80369,1.92972,1.92972,57.78151,12.77346,57.78150891,12.77345903,A,134107.30,"[-0.20000,-0.00000,-0.00000]","[-0.10000,-0.00000,-0.00000]",8.54623,-3.41051,7.83622,1.98129,0.35309,0.04892
18:15:21.976836,5.42347,0.00663,2.65683,2.65683,"[5.00000,0.00000,0.00000]","[1.30000,0.00000,0.00000]",-0.02298,0.01076,-0.03602,0.22219,-0.01650,0.01012,0.00978,-0.17916,-0.01696,0.99515,5.41655,0.00000,2.64124,1.92841,1.93467,-3.72534,9.45912,5.40524,-3.85344,9.80369,1.92972,1.92972,57.78151,12.77346,57.78150990,12.77345833,A,134107.30,"[-0.20000,-0.00000,-0.00000]","[-0.10000,-0.00000,-0.00000]",8.65061,-3.45216,7.93194,1.98129,0.35897,0.04662
18:15:21.986987,5.43362,0.00639,2.65683,2.65683,"[5.00000,0.00000,0.00000]","[1.30000,0.00000,0.00000]",-0.02277,0.01260,-0.03831,0.23245,-0.01648,0.05273,0.01696,-0.24138,0.05636,1.16065,5.42703,0.00244,2.64436,1.92769,1.93502,-3.73930,9.49618,5.40524,-3.85344,9.80369,1.92972,1.92972,57.78151,12.77346,57.78151023,12.77345809,A,134107.30,"[-0.20000,-0.00000,-0.00000]","[-0.10000,-0.00000,-0.00000]",8.67816,-3.46316,7.95719,1.98129,0.36096,0.04628
18:15:21.997473,5.44386,0.00623,2.65683,2.65683,"[5.00000,0.00000,0.00000]","[1.30000,0.00000,0.00000]",-0.02338,0.01464,-0.03861,0.23821,-0.01643,0.08342,0.02581,-0.11425,-0.00506,1.14991,5.43756,0.01954,2.64685,1.92692,1.93544,-3.75263,9.53157,5.40524,-3.85344,9.80369,1.92972,1.92972,57.78151,12.77346,57.78151055,12.77345787,A,134107.30,"[-0.20000,-0.00000,-0.00000]","[-0.10000,-0.00000,-0.00000]",8.70569,-3.47415,7.98244,1.98129,0.36285,0.04586
18:15:22.008330,5.45497,0.00651,2.65683,2.65683,"[5.00000,0.00000,0.00000]","[1.30000,0.00000,0.00000]",-0.02464,0.01654,-0.04686,0.28786,-0.01640,0.07731,0.02444,0.07308,-0.04746,1.12966,5.44811,0.00000,2.64885,1.92615,1.93577,-3.76554,9.56580,5.40524,-3.85344,9.80369,1.92972,1.92972,57.78151,12.77346,57.78151086,12.77345765,A,134107.30,"[-0.20000,-0.00000,-0.00000]","[-0.10000,-0.00000,-0.00000]",8.73436,-3.48558,8.00872,1.98129,0.36467,0.04552
18:15:22.018634,5.46527,0.00643,2.65683,2.65683,"[5.00000,0.00000,0.00000]","[1.30000,0.00000,0.00000]",-0.02635,0.01877,-0.05648,0.34748,-0.01634,0.04662,0.02154,0.21923,-0.05856,0.92690,5.45869,0.00000,2.65045,1.92532,1.93624,-3.77736,9.59711,5.40524,-3.85344,9.80369,1.92972,1.92972,57.78151,12.77346,57.78151114,12.77345745,A,134107.30,"[-0.20000,-0.00000,-0.00000]","[-0.10000,-0.00000,-0.00000]",8.76189,-3.49657,8.03397,1.98129,0.36634,0.04506
18:15:22.028691,5.47533,0.00608,2.65683,2.65683,"[5.00000,0.00000,0.00000]","[1.30000,0.00000,0.00000]",-0.02612,0.02143,-0.05831,0.35580,-0.01624,-0.01172,0.02398,0.09052,0.05929,0.89334,5.46882,0.00000,2.65172,1.92443,1.93689,-3.78889,9.62765,5.40524,-3.85344,9.80369,1.92972,1.92972,57.78151,12.77346,57.78151142,12.77345726,A,134107.30,"[-0.20000,-0.00000,-0.00000]","[-0.10000,-0.00000,-0.00000]",8.78942,-3.50756,8.05922,1.98129,0.36795,0.04440
18:15:22.039506,5.48615,0.00650,2.65683,2.65683,"[5.00000,0.00000,0.00000]","[1.30000,0.00000,0.00000]",-0.02664,0.02480,-0.04716,0.30446,-0.01608,-0.04074,0.03162,-0.04886,0.01171,0.89688,5.47941,0.00000,2.65274,1.92342,1.93784,-3.79988,9.65670,5.40524,-3.85344,9.80369,1.92972,1.92972,57.78151,12.77346,57.78151168,12.77345707,A,134107.30,"[-0.20000,-0.00000,-0.00000]","[-0.10000,-0.00000,-0.00000]",8.81696,-3.51855,8.08447,1.98129,0.36946,0.04345
18:15:22.049672,5.49631,0.00627,2.65683,2.65683,"[5.00000,0.00000,0.00000]","[1.30000,0.00000,0.00000]",-0.02723,0.02820,-0.04991,0.30446,-0.01593,-0.04776,0.03528,-0.10931,0.01037,0.88218,5.48984,0.00000,2.65356,1.92231,1.93871,-3.81003,9.68348,5.40524,-3.85344,9.80369,1.92972,1.92972,57.78151,12.77346,57.78151192,12.77345690,A,134107.30,"[-0.20000,-0.00000,-0.00000]","[-0.10000,-0.00000,-0.00000]",8.84450,-3.52954,8.10972,1.98129,0.37084,0.04259
18:15:22.079083,5.52572,0.02525,2.65683,2.65683,"[5.00000,0.00000,0.00000]","[1.30000,0.00000,0.00000]",-0.02656,0.03117,-0.04839,0.31158,-0.01584,-0.01508,0.04689,-0.26718,0.08894,0.94684,5.50010,0.00000,2.65422,1.92117,1.93930,-3.81990,9.70947,5.51868,-3.93248,10.04461,1.88782,1.88782,57.78152,12.77345,57.78151215,12.77345673,A,134107.40,"[-0.20000,-0.00000,-0.00000]","[-0.10000,-0.00000,-0.00000]",8.87212,-3.54056,8.13504,1.98129,0.37216,0.04200
18:15:22.092115,5.53875,0.00631,2.65683,2.65683,"[5.00000,0.00000,0.00000]","[1.30000,0.00000,0.00000]",-0.02797,0.04031,-0.05648,0.35885,-0.01621,0.00706,0.05315,0.22899,0.04715,1.03273,5.53216,0.00000,2.65474,1.91449,1.93793,-3.85279,9.79681,5.51868,-3.93248,10.04461,1.88782,1.88782,57.78152,12.77345,57.78151294,12.77345618,A,134107.40,"[-0.20000,-0.00000,-0.00000]","[-0.10000,-0.00000,-0.00000]",8.95701,-3.57444,8.21289,1.98129,0.37687,0.04336
18:15:22.102582,5.54922,0.00638,2.65683,2.65683,"[5.00000,0.00000,0.00000]","[1.30000,0.00000,0.00000]",-0.02791,0.04331,-0.05633,0.35044,-0.01733,0.00034,0.05880,-0.12176,0.06771,1.07659,5.54263,0.00000,2.65516,1.90737,1.93257,-3.86438,9.82898,5.51868,-3.93248,10.04461,1.88782,1.88782,57.78152,12.77345,57.78151323,12.77345598,A,134107.40,"[-0.20000,-0.00000,-0.00000]","[-0.10000,-0.00000,-0.00000]",8.98455,-3.58543,8.23813,1.98129,0.37908,0.04873
18:15:22.112821,5.55946,0.00639,2.65683,2.65683,"[5.00000,0.00000,0.00000]","[1.30000,0.00000,0.00000]",-0.02848,0.04654,-0.04991,0.31610,-0.01825,0.02233,0.07224,-0.05862,0.01891,1.12740,5.55294,0.00000,2.65549,1.90112,1.92820,-3.87559,9.86039,5.51868,-3.93248,10.04461,1.88782,1.88782,57.78152,12.77345,57.78151351,12.77345579,A,134107.40,"[-0.20000,-0.00000,-0.00000]","[-0.10000,-0.00000,-0.00000]",9.01165,-3.59625,8.26299,1.98129,0.38133,0.05310
18:15:22.123219,5.56986,0.00639,2.65683,2.65683,"[5.00000,0.00000,0.00000]","[1.30000,0.00000,0.00000]",-0.02997,0.04985,-0.03571,0.24969,-0.01902,0.03684,0.08751,-0.05880,-0.05423,1.06140,5.56326,0.00000,2.65576,1.89554,1.92454,-3.88578,9.88927,5.51868,-3.93248,10.04461,1.88782,1.88782,57.78152,12.77345,57.78151377,12.77345562,A,134107.40,"[-0.20000,-0.00000,-0.00000]","[-0.10000,-0.00000,-0.00000]",9.03919,-3.60723,8.28824,1.98129,0.38351,0.05675
18:15:22.133536,5.58016,0.00630,2.65683,2.65683,"[5.00000,0.00000,0.00000]","[1.30000,0.00000,0.00000]",-0.02987,0.05279,-0.05312,0.33166,-0.01971,0.02096,0.08660,0.16751,0.06545,0.93330,5.57363,0.00000,2.65597,1.89059,1.92131,-3.89540,9.91675,5.51868,-3.93248,10.04461,1.88782,1.88782,57.78152,12.77345,57.78151402,12.77345546,A,134107.40,"[-0.20000,-0.00000,-0.00000]","[-0.10000,-0.00000,-0.00000]",9.06673,-3.61822,8.31349,1.98129,0.38566,0.05999
18:15:22.144034,5.59067,0.00634,2.65683,2.65683,"[5.00000,0.00000,0.00000]","[1.30000,0.00000,0.00000]",-0.03017,0.05551,-0.04335,0.28082,-0.02031,-0.01814,0.09102,0.26639,0.03581,0.77031,5.58393,0.00000,2.65615,1.88621,1.91851,-3.90464,9.94335,5.51868,-3.93248,10.04461,1.88782,1.88782,57.78152,12.77345,57.78151426,12.77345530,A,134107.40,"[-0.20000,-0.00000,-0.00000]","[-0.10000,-0.00000,-0.00000]",9.09445,-3.62929,8.33890,1.98129,0.38780,0.06278
18:15:22.155036,5.60168,0.00695,2.65683,2.65683,"[5.00000,0.00000,0.00000]","[1.30000,0.00000,0.00000]",-0.03096,0.05882,-0.03189,0.22579,-0.02076,-0.07617,0.08965,0.12523,0.00885,0.73438,5.59489,0.00000,2.65628,1.88228,1.91651,-3.91357,9.96922,5.51868,-3.93248,10.04461,1.88782,1.88782,57.78152,12.77345,57.78151449,12.77345515,A,134107.40,"[-0.20000,-0.00000,-0.00000]","[-0.10000,-0.00000,-0.00000]",9.12198,-3.64027,8.36415,1.98129,0.38994,0.06479
18:15:22.164427,5.61107,0.00595,2.65683,2.65683,"[5.00000,0.00000,0.00000]","[1.30000,0.00000,0.00000]",-0.03130,0.06154,-0.03266,0.22579,-0.02076,-0.09571,0.10156,-0.17684,0.02885,0.95142,5.60470,0.00000,2.65639,1.87861,1.91443,-3.92102,9.99104,5.51868,-3.93248,10.04461,1.88782,1.88782,57.78152,12.77345,57.78151468,12.77345503,A,134107.40,"[-0.20000,-0.00000,-0.00000]","[-0.10000,-0.00000,-0.00000]",9.14951,-3.65126,8.38939,1.98129,0.39182,0.06687
18:15:22.192160,5.63880,0.02328,2.65683,2.65683,"[5.00000,0.00000,0.00000]","[1.30000,0.00000,0.00000]",-0.03216,0.06366,-0.01815,0.15919,-0.02163,-0.02944,0.10446,-0.31635,-0.02239,1.15815,5.61529,0.00000,2.65648,1.87548,1.91253,-3.92889,10.01411,5.63308,-4.02141,10.28553,1.92439,1.92439,57.78152,12.77345,57.78151489,12.77345489,A,134107.50,"[-0.20000,-0.00000,-0.00000]","[-0.10000,-0.00000,-0.00000]",9.17707,-3.66226,8.41466,1.98129,0.39381,0.06877
18:15:22.204555,5.65092,0.00630,2.74976,2.74976,"[5.00000,0.00000,0.00000]","[1.30000,0.00000,0.00000]",-0.03273,0.06972,-0.00349,0.09941,-0.02012,0.06219,0.11470,0.24437,0.00305,1.05750,5.64431,0.00000,2.67514,1.88010,1.92068,-3.95634,10.09184,5.63308,-4.02141,10.28553,1.92439,1.92439,57.78152,12.77345,57.78151559,12.77345443,A,134107.50,"[-0.20000,-0.00000,-0.00000]","[-0.10000,-0.00000,-0.00000]",9.25433,-3.69309,8.48550,1.98129,0.39966,0.06061
18:15:22.217516,5.66413,0.00875,2.74976,2.74976,"[5.00000,0.00000,0.00000]","[1.30000,0.00000,0.00000]",-0.03263,0.07102,-0.00639,0.11623,-0.01967,0.00554,0.11912,0.16025,0.04788,1.06396,5.65564,0.00000,2.69006,1.88182,1.92316,-3.96766,10.12363,5.63308,-4.02141,10.28553,1.92439,1.92439,57.78152,12.77345,57.78151588,12.77345424,A,134107.50,"[-0.20000,-0.00000,-0.00000]","[-0.10000,-0.00000,-0.00000]",9.28383,-3.70486,8.51255,1.98129,0.40197,0.05813
18:15:22.225788,5.67242,0.00629,2.74976,2.74976,"[5.00000,0.00000,0.00000]","[1.30000,0.00000,0.00000]",-0.03270,0.07207,-0.00944,0.11623,-0.01967,-0.00256,0.13211,-0.03447,0.03977,0.95032,5.66597,0.00000,2.70200,1.88307,1.92502,-3.97757,10.15137,5.63308,-4.02141,10.28553,1.92439,1.92439,57.78152,12.77345,57.78151613,12.77345407,A,134107.50,"[-0.20000,-0.00000,-0.00000]","[-0.10000,-0.00000,-0.00000]",9.31336,-3.71665,8.53963,1.98129,0.40395,0.05627
18:15:22.235951,5.68259,0.00622,2.74976,2.74976,"[5.00000,0.00000,0.00000]","[1.30000,0.00000,0.00000]",-0.03178,0.07314,0.00675,0.04907,-0.01905,-0.00179,0.14646,-0.16019,0.09315,0.97252,5.67599,0.00000,2.71155,1.88406,1.92664,-3.98707,10.17786,5.63308,-4.02141,10.28553,1.92439,1.92439,57.78152,12.77345,57.78151637,12.77345391,A,134107.50,"[-0.20000,-0.00000,-0.00000]","[-0.10000,-0.00000,-0.00000]",9.34143,-3.72785,8.56536,1.98129,0.40580,0.05465
18:15:22.246712,5.69335,0.00658,2.74976,2.74976,"[5.00000,0.00000,0.00000]","[1.30000,0.00000,0.00000]",-0.03250,0.07447,0.02125,-0.01698,-0.01877,0.01363,0.15608,0.07149,-0.01476,0.88218,5.68656,0.00000,2.71919,1.88486,1.92822,-3.99643,10.20381,5.63308,-4.02141,10.28553,1.92439,1.92439,57.78152,12.77345,57.78151660,12.77345375,A,134107.50,"[-0.20000,-0.00000,-0.00000]","[-0.10000,-0.00000,-0.00000]",9.36993,-3.73922,8.59150,1.98129,0.40757,0.05308
18:15:22.256904,5.70354,0.00638,2.74976,2.74976,"[5.00000,0.00000,0.00000]","[1.30000,0.00000,0.00000]",-0.03301,0.07512,0.02385,-0.02552,-0.01859,0.01149,0.15975,0.06856,-0.00171,0.84906,5.69688,0.00000,2.72530,1.88552,1.92926,-4.00551,10.22886,5.63308,-4.02141,10.28553,1.92439,1.92439,57.78152,12.77345,57.78151682,12.77345360,A,134107.50,"[-0.20000,-0.00000,-0.00000]","[-0.10000,-0.00000,-0.00000]",9.39844,-3.75060,8.61763,1.98129,0.40925,0.05203
18:15:22.267304,5.71395,0.00638,2.74976,2.74976,"[5.00000,0.00000,0.00000]","[1.30000,0.00000,0.00000]",-0.03259,0.07512,0.01423,0.02036,-0.01852,-0.00989,0.16448,0.08235,0.05575,0.86583,5.70735,0.00000,2.73020,1.88606,1.92980,-4.01389,10.25193,5.63308,-4.02141,10.28553,1.92439,1.92439,57.78152,12.77345,57.78151703,12.77345346,A,134107.50,"[-0.20000,-0.00000,-0.00000]","[-0.10000,-0.00000,-0.00000]",9.42694,-3.76197,8.64377,1.98129,0.41077,0.05150
18:15:22.277982,5.72462,0.00666,2.74976,2.74976,"[5.00000,0.00000,0.00000]","[1.30000,0.00000,0.00000]",-0.03194,0.07515,0.01682,0.00355,-0.01845,-0.01905,0.15975,0.02836,0.07064,0.96429,5.71773,0.00000,2.73411,1.88651,1.93026,-4.02186,10.27385,5.63308,-4.02141,10.28553,1.92439,1.92439,57.78152,12.77345,57.78151723,12.77345333,A,134107.50,"[-0.20000,-0.00000,-0.00000]","[-0.10000,-0.00000,-0.00000]",9.45545,-3.77335,8.66991,1.98129,0.41221,0.05103
18:15:22.304828,5.75146,0.02312,2.74976,2.74976,"[5.00000,0.00000,0.00000]","[1.30000,0.00000,0.00000]",-0.03251,0.07515,0.02721,-0.04435,-0.01840,0.00126,0.14799,-0.24607,-0.02056,1.07250,5.72795,0.00000,2.73724,1.88691,1.93067,-4.02956,10.29497,5.74569,-4.11033,10.50792,1.95118,1.95118,57.78152,12.77345,57.78151742,12.77345320,A,134107.60,"[-0.20000,-0.00000,-0.00000]","[-0.10000,-0.00000,-0.00000]",9.48391,-3.78471,8.69601,1.98129,0.41358,0.05063
18:15:22.318263,5.76490,0.00658,2.74976,2.74976,"[5.00000,0.00000,0.00000]","[1.30000,0.00000,0.00000]",-0.03388,0.07552,-0.01509,0.18536,-0.01698,0.01745,0.12539,0.17958,-0.03001,1.11264,5.75828,0.02442,2.73974,1.89422,1.93819,-4.05925,10.37379,5.74569,-4.11033,10.50792,1.95118,1.95118,57.78152,12.77345,57.78151813,12.77345270,A,134107.60,"[-0.20000,-0.00000,-0.00000]","[-0.10000,-0.00000,-0.00000]",9.56630,-3.81758,8.77155,1.98129,0.41782,0.04310
18:15:22.328002,5.77464,0.00609,2.74976,2.74976,"[5.00000,0.00000,0.00000]","[1.30000,0.00000,0.00000]",-0.03413,0.07558,-0.00547,0.18536,-0.01698,-0.02211,0.13226,0.18032,0.02464,1.02791,5.76818,0.00000,2.74174,1.89741,1.94141,-4.06939,10.40022,5.74569,-4.11033,10.50792,1.95118,1.95118,57.78152,12.77345,57.78151836,12.77345252,A,134107.60,"[-0.20000,-0.00000,-0.00000]","[-0.10000,-0.00000,-0.00000]",9.59433,-3.82877,8.79725,1.98129,0.41906,0.03988
18:15:22.338696,5.78533,0.00638,2.74976,2.74976,"[5.00000,0.00000,0.00000]","[1.30000,0.00000,0.00000]",-0.03451,0.07620,0.00262,0.10872,-0.01577,-0.04853,0.13546,0.11187,0.01348,0.95416,5.77875,0.00000,2.74335,1.90013,1.94449,-4.07947,10.42629,5.74569,-4.11033,10.50792,1.95118,1.95118,57.78152,12.77345,57.78151860,12.77345235,A,134107.60,"[-0.20000,-0.00000,-0.00000]","[-0.10000,-0.00000,-0.00000]",9.62284,-3.84015,8.82340,1.98129,0.42022,0.03680
