Description :  ; walk_time = 2.0 ; speed_up_time = 3.0 ; balancing_time = 0.0
RealTime,Time,CalculationTime,MeasuredVelocity,BalancingGainsInner,BalancingGainsOuter,Roll,SteeringAngle,RollRate,ControlInput,BalancingSetpoint,gy,gz,ax,ay,az,imu_read_timing,SteerMotorCurrent,v_estimated,yaw_estimated,heading_estimated,x_estimated,y_estimated,GPS_timestamp,x_GPS,y_GPS,theta_GPS,latitude,longitude,lat_estimated,lon_estimated,status,NMEA timestamp,DirectionGains,LateralPositionGains,distance_travelled,x_ref,y_ref,heading_ref,lateral_error,heading_error
17:20:44.377897,0.05352,0.05348,0.00000,"[5.00000,0.00000,0.00000]","[1.00000,0.00000,0.00000]",-0.00014,-0.12167,0.03063,0.00000,0.00000,0.00834,-0.03948,-0.05514,-0.00897,1.03358,0.00001,0.98413,0.00000,0.03628,0.00000,0.00000,0.00000,0.01540,0.00000,0.00000,0.00000,57.68784,11.98135,57.68784433,11.98134567,A,102635.70,"[-0.20000,-0.00000,0.00000]","[-0.10000,-0.00000,-0.00000]",0.00000,0.00000,0.00000,0.00000,0.00000,0.00000
17:20:44.401770,0.07874,0.00907,0.00000,"[5.00000,0.00000,0.00000]","[1.00000,0.00000,0.00000]",0.00152,-0.11995,0.03780,0.00000,0.00000,0.01109,-0.03856,0.01434,-0.04727,0.99948,0.07222,1.43346,0.00000,0.03620,0.00044,0.00000,0.00000,0.01540,0.00000,0.00000,0.00000,57.68784,11.98135,57.68784433,11.98134567,A,102635.70,"[-0.20000,-0.00000,0.00000]","[-0.10000,-0.00000,-0.00000]",0.00000,0.00000,0.00000,0.00000,0.00000,0.00000
17:20:44.406926,0.08390,0.00397,0.00000,"[5.00000,0.00000,0.00000]","[1.00000,0.00000,0.00000]",0.00088,-0.11969,0.04009,0.00000,0.00000,0.00636,-0.03871,0.02538,-0.04160,1.01162,0.08014,1.40171,0.00000,0.03620,0.00044,0.00000,0.00000,0.01540,0.00000,0.00000,0.00000,57.68784,11.98135,57.68784433,11.98134567,A,102635.70,"[-0.20000,-0.00000,0.00000]","[-0.10000,-0.00000,-0.00000]",0.00000,0.00000,0.00000,0.00000,0.00000,0.00000
17:20:44.416175,0.09316,0.00296,0.00000,"[5.00000,0.00000,0.00000]","[1.00000,0.00000,0.00000]",0.00035,-0.11944,0.03872,0.00000,0.00000,-0.00617,-0.04039,-0.00403,-0.03691,1.00613,0.08942,1.46032,0.00000,0.03620,0.00044,0.00000,0.00000,0.01540,0.00000,0.00000,0.00000,57.68784,11.98135,57.68784433,11.98134567,A,102635.70,"[-0.20000,-0.00000,0.00000]","[-0.10000,-0.00000,-0.00000]",0.00000,0.00000,0.00000,0.00000,0.00000,0.00000
17:20:44.426751,0.10373,0.00313,0.00000,"[5.00000,0.00000,0.00000]","[1.00000,0.00000,0.00000]",0.00010,-0.11918,0.04086,0.00000,0.00000,-0.00281,-0.04223,-0.04727,-0.02373,1.00412,0.09999,1.17216,0.00000,0.03620,0.00044,0.00000,0.00000,0.01540,0.00000,0.00000,0.00000,57.68784,11.98135,57.68784433,11.98134567,A,102635.70,"[-0.20000,-0.00000,0.00000]","[-0.10000,-0.00000,-0.00000]",0.00000,0.00000,0.00000,0.00000,0.00000,0.00000
17:20:44.437289,0.11425,0.00325,0.00000,"[5.00000,0.00000,0.00000]","[1.00000,0.00000,0.00000]",0.00000,-0.11898,0.04712,0.00000,0.00000,0.00834,-0.03887,-0.04801,-0.01714,0.99351,0.11018,1.51893,0.00000,0.03620,0.00044,0.00000,0.00000,0.01540,0.00000,0.00000,0.00000,57.68784,11.98135,57.68784433,11.98134567,A,102635.70,"[-0.20000,-0.00000,0.00000]","[-0.10000,-0.00000,-0.00000]",0.00000,0.00000,0.00000,0.00000,0.00000,0.00000
17:20:44.464517,0.14149,0.02008,0.00000,"[5.00000,0.00000,0.00000]","[1.00000,0.00000,0.00000]",-0.00011,-0.11884,0.04727,0.00000,0.00000,0.01170,-0.04101,-0.01903,-0.01958,0.98143,0.12095,0.84493,0.00000,0.03620,0.00044,0.00000,0.00000,0.13625,-0.02972,0.07413,1.95208,57.68785,11.98135,57.68784433,11.98134567,A,102635.80,"[-0.20000,-0.00000,0.00000]","[-0.10000,-0.00000,-0.00000]",0.00000,0.00000,0.00000,0.00000,0.00000,0.00000
17:20:44.479633,0.15660,0.00700,0.00000,"[5.00000,0.00000,0.00000]","[1.00000,0.00000,0.00000]",0.00078,-0.11873,0.04422,0.00000,0.00000,0.01018,-0.03658,-0.04752,-0.00647,0.99900,0.15088,0.19048,0.00000,0.32889,0.29350,-0.00149,0.00371,0.13625,-0.02972,0.07413,1.95208,57.68785,11.98135,57.68784437,11.98134564,A,102635.80,"[-0.20000,-0.00000,0.00000]","[-0.10000,-0.00000,-0.00000]",0.00000,0.00000,0.00000,0.00000,0.00000,0.00000
17:20:44.486159,0.16314,0.00314,0.00000,"[5.00000,0.00000,0.00000]","[1.00000,0.00000,0.00000]",0.00068,-0.11873,0.04330,0.00000,0.00000,0.01079,-0.03780,-0.02464,-0.00903,0.98863,0.15940,0.12210,0.00000,0.32889,0.29350,-0.00149,0.00371,0.13625,-0.02972,0.07413,1.95208,57.68785,11.98135,57.68784437,11.98134564,A,102635.80,"[-0.20000,-0.00000,0.00000]","[-0.10000,-0.00000,-0.00000]",0.00000,0.00000,0.00000,0.00000,0.00000,0.00000
17:20:44.496371,0.17335,0.00311,0.00000,"[5.00000,0.00000,0.00000]","[1.00000,0.00000,0.00000]",0.00064,-0.11873,0.04315,0.00000,0.00000,0.01124,-0.03658,-0.01122,-0.00921,0.98216,0.16946,0.09035,0.00000,0.32889,0.29350,-0.00149,0.00371,0.13625,-0.02972,0.07413,1.95208,57.68785,11.98135,57.68784437,11.98134564,A,102635.80,"[-0.20000,-0.00000,0.00000]","[-0.10000,-0.00000,-0.00000]",0.00000,0.00000,0.00000,0.00000,0.00000,0.00000
17:20:44.506780,0.18377,0.00313,0.00000,"[5.00000,0.00000,0.00000]","[1.00000,0.00000,0.00000]",0.00044,-0.11867,0.04743,0.00000,0.00000,0.00743,-0.03841,-0.00037,-0.02458,0.99741,0.18004,0.52503,0.00000,0.32889,0.29350,-0.00149,0.00371,0.13625,-0.02972,0.07413,1.95208,57.68785,11.98135,57.68784437,11.98134564,A,102635.80,"[-0.20000,-0.00000,0.00000]","[-0.10000,-0.00000,-0.00000]",0.00000,0.00000,0.00000,0.00000,0.00000,0.00000
17:20:44.517322,0.19430,0.00327,0.00000,"[5.00000,0.00000,0.00000]","[1.00000,0.00000,0.00000]",0.00016,-0.11859,0.04391,0.00000,0.00000,0.00284,-0.03703,-0.02178,-0.02702,1.03657,0.19021,0.84005,0.00000,0.32889,0.29350,-0.00149,0.00371,0.13625,-0.02972,0.07413,1.95208,57.68785,11.98135,57.68784437,11.98134564,A,102635.80,"[-0.20000,-0.00000,0.00000]","[-0.10000,-0.00000,-0.00000]",0.00000,0.00000,0.00000,0.00000,0.00000,0.00000
17:20:44.527585,0.20457,0.00314,0.00000,"[5.00000,0.00000,0.00000]","[1.00000,0.00000,0.00000]",0.00023,-0.11842,0.04162,0.00000,0.00000,-0.00128,-0.04131,-0.02672,-0.00366,1.04237,0.20084,1.44567,0.00000,0.32889,0.29350,-0.00149,0.00371,0.13625,-0.02972,0.07413,1.95208,57.68785,11.98135,57.68784437,11.98134564,A,102635.80,"[-0.20000,-0.00000,0.00000]","[-0.10000,-0.00000,-0.00000]",0.00000,0.00000,0.00000,0.00000,0.00000,0.00000
17:20:44.537979,0.21496,0.00313,0.00000,"[5.00000,0.00000,0.00000]","[1.00000,0.00000,0.00000]",0.00015,-0.11819,0.03979,0.00000,0.00000,-0.00632,-0.03994,-0.04819,-0.01122,1.01376,0.21121,1.42857,0.00000,0.32889,0.29350,-0.00149,0.00371,0.13625,-0.02972,0.07413,1.95208,57.68785,11.98135,57.68784437,11.98134564,A,102635.80,"[-0.20000,-0.00000,0.00000]","[-0.10000,-0.00000,-0.00000]",0.00000,0.00000,0.00000,0.00000,0.00000,0.00000
17:20:44.548291,0.22527,0.00310,0.00000,"[5.00000,0.00000,0.00000]","[1.00000,0.00000,0.00000]",0.00028,-0.11794,0.04086,0.00000,0.00000,0.00178,-0.03642,-0.07954,0.00207,1.03767,0.22154,1.10379,0.00000,0.32889,0.29350,-0.00149,0.00371,0.13625,-0.02972,0.07413,1.95208,57.68785,11.98135,57.68784437,11.98134564,A,102635.80,"[-0.20000,-0.00000,0.00000]","[-0.10000,-0.00000,-0.00000]",0.00000,0.00000,0.00000,0.00000,0.00000,0.00000
17:20:44.558704,0.23568,0.00311,0.00000,"[5.00000,0.00000,0.00000]","[1.00000,0.00000,0.00000]",0.00033,-0.11763,0.04086,0.00000,0.00000,0.02270,-0.03688,-0.08851,-0.00323,1.02797,0.23196,1.22100,0.00000,0.32889,0.29350,-0.00149,0.00371,0.13625,-0.02972,0.07413,1.95208,57.68785,11.98135,57.68784437,11.98134564,A,102635.80,"[-0.20000,-0.00000,0.00000]","[-0.10000,-0.00000,-0.00000]",0.00000,0.00000,0.00000,0.00000,0.00000,0.00000
17:20:44.585286,0.26225,0.01928,0.00000,"[5.00000,0.00000,0.00000]","[1.00000,0.00000,0.00000]",0.00024,-0.11731,0.04071,0.00000,0.00000,0.03430,-0.03627,-0.00415,-0.01171,0.96484,0.24216,1.35531,0.00000,0.32889,0.29350,-0.00149,0.00371,0.25758,-0.04953,0.16679,1.78144,57.68785,11.98134,57.68784437,11.98134564,A,102635.90,"[-0.20000,-0.00000,0.00000]","[-0.10000,-0.00000,-0.00000]",0.00000,0.00000,0.00000,0.00000,0.00000,0.00000
17:20:44.603874,0.28084,0.00796,0.00000,"[5.00000,0.00000,0.00000]","[1.00000,0.00000,0.00000]",0.00098,-0.11686,0.02375,0.00000,0.00000,-0.01609,-0.03276,-0.06978,0.01940,0.97722,0.27485,3.02564,0.00000,0.55200,0.51717,-0.00389,0.01186,0.25758,-0.04953,0.16679,1.78144,57.68785,11.98134,57.68784444,11.98134560,A,102635.90,"[-0.20000,-0.00000,0.00000]","[-0.10000,-0.00000,-0.00000]",0.00000,0.00000,0.00000,0.00000,0.00000,0.00000
17:20:44.609249,0.28623,0.00316,0.00000,"[5.00000,0.00000,0.00000]","[1.00000,0.00000,0.00000]",0.00074,-0.11686,0.02971,0.00000,0.00000,-0.00937,-0.03597,-0.11736,-0.00903,1.04755,0.28228,3.09158,0.00000,0.55200,0.51717,-0.00389,0.01186,0.25758,-0.04953,0.16679,1.78144,57.68785,11.98134,57.68784444,11.98134560,A,102635.90,"[-0.20000,-0.00000,0.00000]","[-0.10000,-0.00000,-0.00000]",0.00000,0.00000,0.00000,0.00000,0.00000,0.00000
17:20:44.619621,0.29660,0.00313,0.00000,"[5.00000,0.00000,0.00000]","[1.00000,0.00000,0.00000]",0.00034,-0.11686,0.02757,0.00000,0.00000,0.01033,-0.04116,-0.04368,-0.02538,1.06744,0.29287,3.12821,0.00000,0.55200,0.51717,-0.00389,0.01186,0.25758,-0.04953,0.16679,1.78144,57.68785,11.98134,57.68784444,11.98134560,A,102635.90,"[-0.20000,-0.00000,0.00000]","[-0.10000,-0.00000,-0.00000]",0.00000,0.00000,0.00000,0.00000,0.00000,0.00000
17:20:44.630010,0.30699,0.00312,0.00000,"[5.00000,0.00000,0.00000]","[1.00000,0.00000,0.00000]",-0.00092,-0.11686,0.01230,0.00000,0.00000,0.01796,-0.04650,0.07204,-0.07046,0.99375,0.30324,3.12576,0.00000,0.55200,0.51717,-0.00389,0.01186,0.25758,-0.04953,0.16679,1.78144,57.68785,11.98134,57.68784444,11.98134560,A,102635.90,"[-0.20000,-0.00000,0.00000]","[-0.10000,-0.00000,-0.00000]",0.00000,0.00000,0.00000,0.00000,0.00000,0.00000
17:20:44.640121,0.31710,0.00293,0.00000,"[5.00000,0.00000,0.00000]","[1.00000,0.00000,0.00000]",-0.00162,-0.11686,0.00604,0.00000,0.00000,0.00071,-0.04940,0.04734,-0.03044,0.98332,0.31337,3.14530,0.00000,0.55200,0.51717,-0.00389,0.01186,0.25758,-0.04953,0.16679,1.78144,57.68785,11.98134,57.68784444,11.98134560,A,102635.90,"[-0.20000,-0.00000,0.00000]","[-0.10000,-0.00000,-0.00000]",0.00000,0.00000,0.00000,0.00000,0.00000,0.00000
17:20:44.650714,0.32769,0.00311,0.00000,"[5.00000,0.00000,0.00000]","[1.00000,0.00000,0.00000]",-0.00123,-0.11686,-0.00205,0.00000,0.00000,-0.01609,-0.04727,-0.03782,0.04563,0.97454,0.32397,3.15263,0.00000,0.55200,0.51717,-0.00389,0.01186,0.25758,-0.04953,0.16679,1.78144,57.68785,11.98134,57.68784444,11.98134560,A,102635.90,"[-0.20000,-0.00000,0.00000]","[-0.10000,-0.00000,-0.00000]",0.00000,0.00000,0.00000,0.00000,0.00000,0.00000
17:20:44.661136,0.33811,0.00313,0.00000,"[5.00000,0.00000,0.00000]","[1.00000,0.00000,0.00000]",-0.00075,-0.11686,0.00207,0.00000,0.00000,-0.02235,-0.04650,-0.07741,0.04996,0.98741,0.33417,3.14774,0.00000,0.55200,0.51717,-0.00389,0.01186,0.25758,-0.04953,0.16679,1.78144,57.68785,11.98134,57.68784444,11.98134560,A,102635.90,"[-0.20000,-0.00000,0.00000]","[-0.10000,-0.00000,-0.00000]",0.00000,0.00000,0.00000,0.00000,0.00000,0.00000
17:20:44.671511,0.34850,0.00312,0.00000,"[5.00000,0.00000,0.00000]","[1.00000,0.00000,0.00000]",-0.00104,-0.11686,0.01108,0.00000,0.00000,-0.01899,-0.04085,-0.03782,-0.00647,0.97765,0.34476,3.15018,0.00000,0.55200,0.51717,-0.00389,0.01186,0.25758,-0.04953,0.16679,1.78144,57.68785,11.98134,57.68784444,11.98134560,A,102635.90,"[-0.20000,-0.00000,0.00000]","[-0.10000,-0.00000,-0.00000]",0.00000,0.00000,0.00000,0.00000,0.00000,0.00000
17:20:44.698423,0.37538,0.01961,0.00000,"[5.00000,0.00000,0.00000]","[1.00000,0.00000,0.00000]",-0.00208,-0.11686,0.01032,0.00000,0.00000,-0.01304,-0.03780,-0.00079,-0.05612,0.98655,0.35514,3.14286,0.00000,0.55200,0.51717,-0.00389,0.01186,0.37023,-0.08916,0.25945,1.97489,57.68785,11.98134,57.68784444,11.98134560,A,102636.00,"[-0.20000,-0.00000,0.00000]","[-0.10000,-0.00000,-0.00000]",0.00000,0.00000,0.00000,0.00000,0.00000,0.00000
17:20:44.714086,0.39105,0.00761,0.00000,"[5.00000,0.00000,0.00000]","[1.00000,0.00000,0.00000]",-0.00228,-0.11686,-0.01778,0.00000,0.00000,0.00407,-0.04437,-0.11932,0.04136,1.03261,0.38432,3.14530,0.00000,0.77065,0.73582,-0.00815,0.02424,0.37023,-0.08916,0.25945,1.97489,57.68785,11.98134,57.68784455,11.98134553,A,102636.00,"[-0.20000,-0.00000,0.00000]","[-0.10000,-0.00000,-0.00000]",0.00000,0.00000,0.00000,0.00000,0.00000,0.00000
17:20:44.719977,0.39696,0.00295,0.00000,"[5.00000,0.00000,0.00000]","[1.00000,0.00000,0.00000]",-0.00208,-0.11686,-0.01610,0.00000,0.00000,0.02087,-0.04803,-0.10888,0.04301,1.04310,0.39323,3.15263,0.00000,0.77065,0.73582,-0.00815,0.02424,0.37023,-0.08916,0.25945,1.97489,57.68785,11.98134,57.68784455,11.98134553,A,102636.00,"[-0.20000,-0.00000,0.00000]","[-0.10000,-0.00000,-0.00000]",0.00000,0.00000,0.00000,0.00000,0.00000,0.00000
17:20:44.730567,0.40755,0.00314,0.00000,"[5.00000,0.00000,0.00000]","[1.00000,0.00000,0.00000]",-0.00242,-0.11686,-0.01519,0.00000,0.00000,0.03186,-0.05032,0.00311,0.00750,1.00973,0.40382,3.14774,0.00000,0.77065,0.73582,-0.00815,0.02424,0.37023,-0.08916,0.25945,1.97489,57.68785,11.98134,57.68784455,11.98134553,A,102636.00,"[-0.20000,-0.00000,0.00000]","[-0.10000,-0.00000,-0.00000]",0.00000,0.00000,0.00000,0.00000,0.00000,0.00000
17:20:44.740959,0.41793,0.00312,0.00000,"[5.00000,0.00000,0.00000]","[1.00000,0.00000,0.00000]",-0.00345,-0.11686,-0.01962,0.00000,0.00000,0.01415,-0.04834,0.08473,-0.03678,0.98985,0.41399,3.15263,0.00000,0.77065,0.73582,-0.00815,0.02424,0.37023,-0.08916,0.25945,1.97489,57.68785,11.98134,57.68784455,11.98134553,A,102636.00,"[-0.20000,-0.00000,0.00000]","[-0.10000,-0.00000,-0.00000]",0.00000,0.00000,0.00000,0.00000,0.00000,0.00000
17:20:44.751422,0.42840,0.00313,0.00000,"[5.00000,0.00000,0.00000]","[1.00000,0.00000,0.00000]",-0.00503,-0.11686,-0.03443,0.00000,0.00000,-0.01640,-0.04757,0.03575,-0.06368,0.99698,0.42466,3.13797,0.00000,0.77065,0.73582,-0.00815,0.02424,0.37023,-0.08916,0.25945,1.97489,57.68785,11.98134,57.68784455,11.98134553,A,102636.00,"[-0.20000,-0.00000,0.00000]","[-0.10000,-0.00000,-0.00000]",0.00000,0.00000,0.00000,0.00000,0.00000,0.00000
17:20:44.761812,0.43879,0.00312,0.00000,"[5.00000,0.00000,0.00000]","[1.00000,0.00000,0.00000]",-0.00583,-0.11686,-0.03978,0.00000,0.00000,-0.02022,-0.04528,-0.06204,-0.01031,1.03633,0.43504,3.15263,0.00000,0.77065,0.73582,-0.00815,0.02424,0.37023,-0.08916,0.25945,1.97489,57.68785,11.98134,57.68784455,11.98134553,A,102636.00,"[-0.20000,-0.00000,0.00000]","[-0.10000,-0.00000,-0.00000]",0.00000,0.00000,0.00000,0.00000,0.00000,0.00000
17:20:44.772135,0.44912,0.00295,0.00000,"[5.00000,0.00000,0.00000]","[1.00000,0.00000,0.00000]",-0.00619,-0.11686,-0.04879,0.00000,0.00000,-0.00571,-0.04650,-0.11297,0.02580,1.05926,0.44539,3.14530,0.00000,0.77065,0.73582,-0.00815,0.02424,0.37023,-0.08916,0.25945,1.97489,57.68785,11.98134,57.68784455,11.98134553,A,102636.00,"[-0.20000,-0.00000,0.00000]","[-0.10000,-0.00000,-0.00000]",0.00000,0.00000,0.00000,0.00000,0.00000,0.00000
17:20:44.782702,0.45969,0.00313,0.00000,"[5.00000,0.00000,0.00000]","[1.00000,0.00000,0.00000]",-0.00665,-0.11686,-0.04527,0.00000,0.00000,0.01919,-0.04574,-0.07161,0.01574,1.03066,0.45595,3.14530,0.00000,0.77065,0.73582,-0.00815,0.02424,0.37023,-0.08916,0.25945,1.97489,57.68785,11.98134,57.68784455,11.98134553,A,102636.00,"[-0.20000,-0.00000,0.00000]","[-0.10000,-0.00000,-0.00000]",0.00000,0.00000,0.00000,0.00000,0.00000,0.00000
17:20:44.793149,0.47013,0.00317,0.00000,"[5.00000,0.00000,0.00000]","[1.00000,0.00000,0.00000]",-0.00800,-0.11686,-0.05230,0.00000,0.00000,0.02087,-0.04788,-0.00250,-0.03867,0.96087,0.46614,3.15751,0.00000,0.77065,0.73582,-0.00815,0.02424,0.37023,-0.08916,0.25945,1.97489,57.68785,11.98134,57.68784455,11.98134553,A,102636.00,"[-0.20000,-0.00000,0.00000]","[-0.10000,-0.00000,-0.00000]",0.00000,0.00000,0.00000,0.00000,0.00000,0.00000
17:20:44.831027,0.50799,0.03063,0.00000,"[5.00000,0.00000,0.00000]","[1.00000,0.00000,0.00000]",-0.00924,-0.11686,-0.05780,0.00000,0.00000,0.01735,-0.05215,0.02117,-0.02830,0.95508,0.47674,3.14530,0.00000,0.77065,0.73582,-0.00815,0.02424,0.50304,-0.15850,0.44478,1.92884,57.68785,11.98134,57.68784455,11.98134553,A,102636.20,"[-0.20000,-0.00000,0.00000]","[-0.10000,-0.00000,-0.00000]",0.00000,0.00000,0.00000,0.00000,0.00000,0.00000
17:20:44.852015,0.52899,0.00894,0.00000,"[5.00000,0.00000,0.00000]","[1.00000,0.00000,0.00000]",-0.01367,-0.11686,-0.08391,0.00000,0.00000,0.03201,-0.05857,-0.00116,-0.03587,1.05573,0.52212,3.13065,0.00000,0.94961,0.91478,-0.01567,0.04527,0.50304,-0.15850,0.44478,1.92884,57.68785,11.98134,57.68784474,11.98134540,A,102636.20,"[-0.20000,-0.00000,0.00000]","[-0.10000,-0.00000,-0.00000]",0.00000,0.00000,0.00000,0.00000,0.00000,0.00000
17:20:44.856820,0.53359,0.00292,0.00000,"[5.00000,0.00000,0.00000]","[1.00000,0.00000,0.00000]",-0.01483,-0.11686,-0.08712,0.00000,0.00000,0.02881,-0.06269,0.06521,-0.02672,1.04139,0.52984,3.15507,0.00000,0.94961,0.91478,-0.01567,0.04527,0.50304,-0.15850,0.44478,1.92884,57.68785,11.98134,57.68784474,11.98134540,A,102636.20,"[-0.20000,-0.00000,0.00000]","[-0.10000,-0.00000,-0.00000]",0.00000,0.00000,0.00000,0.00000,0.00000,0.00000
17:20:44.867220,0.54420,0.00314,0.00000,"[5.00000,0.00000,0.00000]","[1.00000,0.00000,0.00000]",-0.01630,-0.11686,-0.09964,0.00000,0.00000,0.00834,-0.06086,0.04544,-0.02251,1.02742,0.54047,3.16484,0.00000,0.94961,0.91478,-0.01567,0.04527,0.50304,-0.15850,0.44478,1.92884,57.68785,11.98134,57.68784474,11.98134540,A,102636.20,"[-0.20000,-0.00000,0.00000]","[-0.10000,-0.00000,-0.00000]",0.00000,0.00000,0.00000,0.00000,0.00000,0.00000
17:20:44.877628,0.55461,0.00315,0.00000,"[5.00000,0.00000,0.00000]","[1.00000,0.00000,0.00000]",-0.01735,-0.11686,-0.10468,0.00000,0.00000,0.00743,-0.06605,-0.05862,0.00628,1.04908,0.55086,3.14286,0.00000,0.94961,0.91478,-0.01567,0.04527,0.50304,-0.15850,0.44478,1.92884,57.68785,11.98134,57.68784474,11.98134540,A,102636.20,"[-0.20000,-0.00000,0.00000]","[-0.10000,-0.00000,-0.00000]",0.00000,0.00000,0.00000,0.00000,0.00000,0.00000
17:20:44.888122,0.56511,0.00299,0.00000,"[5.00000,0.00000,0.00000]","[1.00000,0.00000,0.00000]",-0.01869,-0.11686,-0.09689,0.00000,0.00000,0.01216,-0.06269,-0.08333,-0.01909,1.00131,0.56137,3.14530,0.00000,0.94961,0.91478,-0.01567,0.04527,0.50304,-0.15850,0.44478,1.92884,57.68785,11.98134,57.68784474,11.98134540,A,102636.20,"[-0.20000,-0.00000,0.00000]","[-0.10000,-0.00000,-0.00000]",0.00000,0.00000,0.00000,0.00000,0.00000,0.00000
17:20:44.898663,0.57564,0.00313,0.00000,"[5.00000,0.00000,0.00000]","[1.00000,0.00000,0.00000]",-0.02019,-0.11686,-0.10132,0.00000,0.00000,0.01751,-0.06223,-0.00287,-0.02617,0.94324,0.57191,3.14530,0.00000,0.94961,0.91478,-0.01567,0.04527,0.50304,-0.15850,0.44478,1.92884,57.68785,11.98134,57.68784474,11.98134540,A,102636.20,"[-0.20000,-0.00000,0.00000]","[-0.10000,-0.00000,-0.00000]",0.00000,0.00000,0.00000,0.00000,0.00000,0.00000
17:20:44.909060,0.58604,0.00313,0.00000,"[5.00000,0.00000,0.00000]","[1.00000,0.00000,0.00000]",-0.02228,-0.11686,-0.10682,0.00000,0.00000,0.00498,-0.06071,0.02818,-0.06179,0.91836,0.58208,3.15263,0.00000,0.94961,0.91478,-0.01567,0.04527,0.50304,-0.15850,0.44478,1.92884,57.68785,11.98134,57.68784474,11.98134540,A,102636.20,"[-0.20000,-0.00000,0.00000]","[-0.10000,-0.00000,-0.00000]",0.00000,0.00000,0.00000,0.00000,0.00000,0.00000
17:20:44.919454,0.59644,0.00313,0.00000,"[5.00000,0.00000,0.00000]","[1.00000,0.00000,0.00000]",-0.02399,-0.11689,-0.10865,0.00000,0.00000,-0.00036,-0.05796,-0.00396,-0.03733,0.95001,0.59270,2.65446,0.00000,0.94961,0.91478,-0.01567,0.04527,0.50304,-0.15850,0.44478,1.92884,57.68785,11.98134,57.68784474,11.98134540,A,102636.20,"[-0.20000,-0.00000,0.00000]","[-0.10000,-0.00000,-0.00000]",0.00000,0.00000,0.00000,0.00000,0.00000,0.00000
17:20:44.946224,0.62319,0.01948,0.00000,"[5.00000,0.00000,0.00000]","[1.00000,0.00000,0.00000]",-0.02514,-0.11697,-0.10575,0.00000,0.00000,-0.00006,-0.05826,-0.06728,-0.00750,1.00772,0.60309,1.65812,0.00000,0.94961,0.91478,-0.01567,0.04527,0.61809,-0.19812,0.51891,2.06169,57.68785,11.98134,57.68784474,11.98134540,A,102636.30,"[-0.20000,-0.00000,0.00000]","[-0.10000,-0.00000,-0.00000]",0.00000,0.00000,0.00000,0.00000,0.00000,0.00000
17:20:44.965929,0.64290,0.00611,0.00000,"[5.00000,0.00000,0.00000]","[1.00000,0.00000,0.00000]",-0.02922,-0.11726,-0.10728,0.00000,0.00000,0.01628,-0.06177,0.00756,-0.03953,1.03486,0.63690,0.32723,0.00000,1.12166,1.08671,-0.02479,0.06895,0.61809,-0.19812,0.51891,2.06169,57.68785,11.98134,57.68784495,11.98134525,A,102636.30,"[-0.20000,-0.00000,0.00000]","[-0.10000,-0.00000,-0.00000]",0.00000,0.00000,0.00000,0.00000,0.00000,0.00000
17:20:44.973760,0.65075,0.00356,0.00000,"[5.00000,0.00000,0.00000]","[1.00000,0.00000,0.00000]",-0.03044,-0.11726,-0.10819,0.00000,0.00000,0.00865,-0.06025,-0.00043,-0.02196,1.00967,0.64638,0.18071,0.00000,1.12166,1.08671,-0.02479,0.06895,0.61809,-0.19812,0.51891,2.06169,57.68785,11.98134,57.68784495,11.98134525,A,102636.30,"[-0.20000,-0.00000,0.00000]","[-0.10000,-0.00000,-0.00000]",0.00000,0.00000,0.00000,0.00000,0.00000,0.00000
17:20:44.984572,0.66155,0.00396,1.02190,"[5.00000,0.00000,0.00000]","[1.00000,0.00000,0.00000]",-0.03143,-0.11726,-0.10392,0.00000,0.00000,0.00346,-0.05826,0.00933,-0.00915,0.97704,0.65775,0.10256,0.00000,1.12166,1.08671,-0.02479,0.06895,0.61809,-0.19812,0.51891,2.06169,57.68785,11.98134,57.68784495,11.98134525,A,102636.30,"[-0.20000,-0.00000,0.00000]","[-0.10000,-0.00000,-0.00000]",0.00000,0.00000,0.00000,0.00000,0.00000,0.00000
17:20:44.994125,0.67111,0.00313,1.02190,"[5.00000,0.00000,0.00000]","[1.00000,0.00000,0.00000]",-0.03288,-0.11726,-0.09552,0.00000,0.00000,-0.00006,-0.05490,-0.05691,-0.05697,0.99229,0.66737,0.08791,0.00000,1.12166,1.08671,-0.02479,0.06895,0.61809,-0.19812,0.51891,2.06169,57.68785,11.98134,57.68784495,11.98134525,A,102636.30,"[-0.20000,-0.00000,0.00000]","[-0.10000,-0.00000,-0.00000]",0.01058,0.00000,0.00000,0.00000,0.00000,0.00000
17:20:45.004212,0.68119,0.00299,1.02190,"[5.00000,0.00000,0.00000]","[1.00000,0.00000,0.00000]",-0.03423,-0.11726,-0.09139,0.00000,0.00000,0.00407,-0.05536,-0.06869,-0.05228,0.99387,0.67745,0.07570,0.00000,1.12166,1.08671,-0.02479,0.06895,0.61809,-0.19812,0.51891,2.06169,57.68785,11.98134,57.68784495,11.98134525,A,102636.30,"[-0.20000,-0.00000,0.00000]","[-0.10000,-0.00000,-0.00000]",0.02097,0.00000,0.00000,0.00000,0.00000,0.00000
17:20:45.014724,0.69171,0.00311,1.02190,"[5.00000,0.00000,0.00000]","[1.00000,0.00000,0.00000]",-0.03555,-0.11726,-0.08590,0.00000,0.00000,0.02010,-0.05811,-0.03575,-0.05191,0.98448,0.68796,0.07082,0.00000,1.12166,1.08671,-0.02479,0.06895,0.61809,-0.19812,0.51891,2.06169,57.68785,11.98134,57.68784495,11.98134525,A,102636.30,"[-0.20000,-0.00000,0.00000]","[-0.10000,-0.00000,-0.00000]",0.03156,0.00000,0.00000,0.00000,0.00000,0.00000
17:20:45.025169,0.70214,0.00314,1.02190,"[5.00000,0.00000,0.00000]","[1.00000,0.00000,0.00000]",-0.03737,-0.11726,-0.08574,0.00000,0.00000,0.02102,-0.05124,0.02263,-0.08485,0.94483,0.69820,0.06349,0.00000,1.12166,1.08671,-0.02479,0.06895,0.61809,-0.19812,0.51891,2.06169,57.68785,11.98134,57.68784495,11.98134525,A,102636.30,"[-0.20000,-0.00000,0.00000]","[-0.10000,-0.00000,-0.00000]",0.04214,0.00000,0.00000,0.00000,0.00000,0.00000
17:20:45.035550,0.71253,0.00313,1.02190,"[5.00000,0.00000,0.00000]","[1.00000,0.00000,0.00000]",-0.03871,-0.11726,-0.08406,0.00000,0.00000,0.00926,-0.05383,0.01531,-0.05581,0.95526,0.70880,0.05617,0.00000,1.12166,1.08671,-0.02479,0.06895,0.61809,-0.19812,0.51891,2.06169,57.68785,11.98134,57.68784495,11.98134525,A,102636.30,"[-0.20000,-0.00000,0.00000]","[-0.10000,-0.00000,-0.00000]",0.05273,0.00000,0.00000,0.00000,0.00000,0.00000
17:20:45.062667,0.73962,0.01982,1.02190,"[5.00000,0.00000,0.00000]","[1.00000,0.00000,0.00000]",-0.04020,-0.11726,-0.07185,0.00000,0.00000,0.00544,-0.05231,-0.00092,-0.07570,0.95642,0.71919,0.06593,0.00000,1.12166,1.08671,-0.02479,0.06895,0.73460,-0.25756,0.63010,2.06169,57.68785,11.98134,57.68784495,11.98134525,A,102636.40,"[-0.20000,-0.00000,0.00000]","[-0.10000,-0.00000,-0.00000]",0.06331,0.00000,0.00000,0.00000,0.00000,0.00000
17:20:45.078891,0.75586,0.00721,1.02190,"[5.00000,0.00000,0.00000]","[1.00000,0.00000,0.00000]",-0.04256,-0.11726,-0.06055,0.00000,0.00000,0.01689,-0.05307,-0.00518,-0.06692,1.02712,0.74988,0.06593,0.20438,1.26791,1.23296,-0.03643,0.09701,0.73460,-0.25756,0.63010,2.06169,57.68785,11.98134,57.68784521,11.98134505,A,102636.40,"[-0.20000,-0.00000,0.00000]","[-0.10000,-0.00000,-0.00000]",0.09277,0.00000,0.00000,0.00000,0.00000,0.00000
17:20:45.085901,0.76288,0.00383,1.02190,"[5.00000,0.00000,0.00000]","[1.00000,0.00000,0.00000]",-0.04382,-0.11726,-0.05459,0.00000,0.00000,0.01231,-0.05857,-0.01147,-0.08906,1.03511,0.75824,0.06838,0.20438,1.26791,1.23296,-0.03643,0.09701,0.73460,-0.25756,0.63010,2.06169,57.68785,11.98134,57.68784521,11.98134505,A,102636.40,"[-0.20000,-0.00000,0.00000]","[-0.10000,-0.00000,-0.00000]",0.10335,0.00000,0.00000,0.00000,0.00000,0.00000
17:20:45.095598,0.77258,0.00313,1.02190,"[5.00000,0.00000,0.00000]","[1.00000,0.00000,0.00000]",-0.04438,-0.11726,-0.05123,0.00000,0.00000,0.01689,-0.05765,-0.01549,-0.03581,1.00577,0.76885,0.07570,0.20438,1.26791,1.23296,-0.03643,0.09701,0.73460,-0.25756,0.63010,2.06169,57.68785,11.98134,57.68784521,11.98134505,A,102636.40,"[-0.20000,-0.00000,0.00000]","[-0.10000,-0.00000,-0.00000]",0.11393,0.00000,0.00000,0.00000,0.00000,0.00000
17:20:45.106017,0.78300,0.00314,1.02190,"[5.00000,0.00000,0.00000]","[1.00000,0.00000,0.00000]",-0.04485,-0.11726,-0.04329,0.00000,0.00000,0.02346,-0.05276,-0.03074,-0.03605,1.02334,0.77925,0.06349,0.20438,1.26791,1.23296,-0.03643,0.09701,0.73460,-0.25756,0.63010,2.06169,57.68785,11.98134,57.68784521,11.98134505,A,102636.40,"[-0.20000,-0.00000,0.00000]","[-0.10000,-0.00000,-0.00000]",0.12452,0.00000,0.00000,0.00000,0.00000,0.00000
17:20:45.116160,0.79314,0.00296,1.02190,"[5.00000,0.00000,0.00000]","[1.00000,0.00000,0.00000]",-0.04556,-0.11726,-0.03810,0.00000,0.00000,0.02438,-0.05399,-0.00037,-0.05551,0.97643,0.78940,0.05617,0.20438,1.26791,1.23296,-0.03643,0.09701,0.73460,-0.25756,0.63010,2.06169,57.68785,11.98134,57.68784521,11.98134505,A,102636.40,"[-0.20000,-0.00000,0.00000]","[-0.10000,-0.00000,-0.00000]",0.13503,0.00000,0.00000,0.00000,0.00000,0.00000
17:20:45.126727,0.80371,0.00312,1.02190,"[5.00000,0.00000,0.00000]","[1.00000,0.00000,0.00000]",-0.04585,-0.11726,-0.03153,0.00000,0.00000,-0.00051,-0.04818,0.01366,-0.03251,0.97917,0.79997,0.06349,0.20438,1.26791,1.23296,-0.03643,0.09701,0.73460,-0.25756,0.63010,2.06169,57.68785,11.98134,57.68784521,11.98134505,A,102636.40,"[-0.20000,-0.00000,0.00000]","[-0.10000,-0.00000,-0.00000]",0.14562,0.00000,0.00000,0.00000,0.00000,0.00000
17:20:45.137248,0.81421,0.00323,1.02190,"[5.00000,0.00000,0.00000]","[1.00000,0.00000,0.00000]",-0.04601,-0.11726,-0.01824,0.00000,0.00000,-0.01609,-0.04696,-0.00049,-0.03331,0.97417,0.81017,0.06105,0.20438,1.26791,1.23296,-0.03643,0.09701,0.73460,-0.25756,0.63010,2.06169,57.68785,11.98134,57.68784521,11.98134505,A,102636.40,"[-0.20000,-0.00000,0.00000]","[-0.10000,-0.00000,-0.00000]",0.15620,0.00000,0.00000,0.00000,0.00000,0.00000
17:20:45.147526,0.82451,0.00312,1.02190,"[5.00000,0.00000,0.00000]","[1.00000,0.00000,0.00000]",-0.04710,-0.11726,-0.01748,0.00000,0.00000,-0.02174,-0.03871,-0.05161,-0.09510,0.98112,0.82078,0.05372,0.20438,1.26791,1.23296,-0.03643,0.09701,0.73460,-0.25756,0.63010,2.06169,57.68785,11.98134,57.68784521,11.98134505,A,102636.40,"[-0.20000,-0.00000,0.00000]","[-0.10000,-0.00000,-0.00000]",0.16678,0.00000,0.00000,0.00000,0.00000,0.00000
17:20:45.174610,0.85155,0.01976,1.02190,"[5.00000,0.00000,0.00000]","[1.00000,0.00000,0.00000]",-0.04803,-0.11726,-0.01320,0.00000,0.00000,-0.00632,-0.04055,-0.09876,-0.09180,1.02626,0.83116,0.06105,0.20438,1.26791,1.23296,-0.03643,0.09701,0.84630,-0.30709,0.74130,1.98985,57.68785,11.98134,57.68784521,11.98134505,A,102636.50,"[-0.20000,-0.00000,0.00000]","[-0.10000,-0.00000,-0.00000]",0.17737,0.00000,0.00000,0.00000,0.00000,0.00000
17:20:45.194041,0.87101,0.01032,1.02190,"[5.00000,0.00000,0.00000]","[1.00000,0.00000,0.00000]",-0.04844,-0.11726,-0.00923,0.00000,0.00000,0.02636,-0.04773,-0.00018,-0.04447,0.96966,0.86301,0.06349,0.36788,1.37937,1.34442,-0.04282,0.14957,0.84630,-0.30709,0.74130,1.98985,57.68785,11.98134,57.68784568,11.98134495,A,102636.50,"[-0.20000,-0.00000,0.00000]","[-0.10000,-0.00000,-0.00000]",0.20610,0.00000,0.00000,0.00000,0.00000,0.00000
17:20:45.212131,0.88910,0.00592,1.02190,"[5.00000,0.00000,0.00000]","[1.00000,0.00000,0.00000]",-0.05046,-0.11720,0.01077,0.00000,0.00000,0.00941,-0.04773,-0.05642,-0.18422,0.96356,0.88527,0.06349,0.36788,1.37937,1.34442,-0.04282,0.14957,0.84630,-0.30709,0.74130,1.98985,57.68785,11.98134,57.68784568,11.98134495,A,102636.50,"[-0.20000,-0.00000,0.00000]","[-0.10000,-0.00000,-0.00000]",0.22905,0.00000,0.00000,0.00000,0.00000,0.00000
17:20:45.221901,0.89886,0.00528,1.02190,"[5.00000,0.00000,0.00000]","[1.00000,0.00000,0.00000]",-0.04979,-0.11697,-0.00496,0.00000,0.00000,0.01369,-0.04757,-0.06503,0.00811,1.02779,0.89437,0.06593,0.36788,1.37937,1.34442,-0.04282,0.14957,0.84630,-0.30709,0.74130,1.98985,57.68785,11.98134,57.68784568,11.98134495,A,102636.50,"[-0.20000,-0.00000,0.00000]","[-0.10000,-0.00000,-0.00000]",0.23964,0.00000,0.00000,0.00000,0.00000,0.00000
17:20:45.229994,0.90698,0.00300,1.02190,"[5.00000,0.00000,0.00000]","[1.00000,0.00000,0.00000]",-0.05161,-0.11647,0.01413,0.00000,0.00000,0.01674,-0.03703,-0.04191,-0.17611,1.03432,0.90324,0.07082,0.36788,1.37937,1.34442,-0.04282,0.14957,0.84630,-0.30709,0.74130,1.98985,57.68785,11.98134,57.68784568,11.98134495,A,102636.50,"[-0.20000,-0.00000,0.00000]","[-0.10000,-0.00000,-0.00000]",0.25022,0.00000,0.00000,0.00000,0.00000,0.00000
17:20:45.240298,0.91728,0.00299,1.02190,"[5.00000,0.00000,0.00000]","[1.00000,0.00000,0.00000]",-0.05271,-0.11576,0.00192,0.00000,0.00000,0.02239,-0.03520,-0.00409,-0.12041,1.04279,0.91354,0.37851,0.36788,1.37937,1.34442,-0.04282,0.14957,0.84630,-0.30709,0.74130,1.98985,57.68785,11.98134,57.68784568,11.98134495,A,102636.50,"[-0.20000,-0.00000,0.00000]","[-0.10000,-0.00000,-0.00000]",0.26071,0.00000,0.00000,0.00000,0.00000,0.00000
17:20:45.251003,0.92798,0.00330,1.02190,"[5.00000,0.00000,0.00000]","[1.00000,0.00000,0.00000]",-0.05276,-0.11494,0.00482,0.00000,0.00000,0.01857,-0.03780,0.01342,-0.05045,1.03383,0.92424,1.00855,0.36788,1.37937,1.34442,-0.04282,0.14957,0.84630,-0.30709,0.74130,1.98985,57.68785,11.98134,57.68784568,11.98134495,A,102636.50,"[-0.20000,-0.00000,0.00000]","[-0.10000,-0.00000,-0.00000]",0.27130,0.00000,0.00000,0.00000,0.00000,0.00000
17:20:45.263268,0.94025,0.00517,1.02190,"[5.00000,0.00000,0.00000]","[1.00000,0.00000,0.00000]",-0.05168,-0.11403,-0.00618,0.00000,0.00000,0.01018,-0.04162,-0.04099,0.03642,1.03438,0.93608,1.20635,0.36788,1.37937,1.34442,-0.04282,0.14957,0.84630,-0.30709,0.74130,1.98985,57.68785,11.98134,57.68784568,11.98134495,A,102636.50,"[-0.20000,-0.00000,0.00000]","[-0.10000,-0.00000,-0.00000]",0.28188,0.00000,0.00000,0.00000,0.00000,0.00000
17:20:45.287809,0.96475,0.01928,1.02190,"[5.00000,0.00000,0.00000]","[1.00000,0.00000,0.00000]",-0.05133,-0.11341,0.00802,0.00000,0.00000,0.01063,-0.04253,-0.05453,-0.02287,1.00345,0.94486,1.15751,0.36788,1.37937,1.34442,-0.04282,0.14957,0.96008,-0.34672,0.79690,2.19000,57.68785,11.98134,57.68784568,11.98134495,A,102636.60,"[-0.20000,-0.00000,0.00000]","[-0.10000,-0.00000,-0.00000]",0.29246,0.00000,0.00000,0.00000,0.00000,0.00000
17:20:45.303912,0.98088,0.00623,1.02190,"[5.00000,0.00000,0.00000]","[1.00000,0.00000,0.00000]",-0.05146,-0.11103,0.01154,0.00000,0.00000,-0.00387,-0.03688,-0.09797,-0.07442,1.03920,0.97515,1.20879,0.49869,1.50229,1.46921,-0.04953,0.21875,0.96008,-0.34672,0.79690,2.19000,57.68785,11.98134,57.68784630,11.98134483,A,102636.60,"[-0.20000,-0.00000,0.00000]","[-0.10000,-0.00000,-0.00000]",0.32224,0.00000,0.00000,0.00000,0.00000,0.00000
17:20:45.311221,0.98820,0.00314,1.02190,"[5.00000,0.00000,0.00000]","[1.00000,0.00000,0.00000]",-0.05135,-0.11010,0.00772,0.00000,0.00000,0.01231,-0.03352,-0.11187,-0.03971,1.07189,0.98447,1.27717,0.49869,1.50229,1.46921,-0.04953,0.21875,0.96008,-0.34672,0.79690,2.19000,57.68785,11.98134,57.68784630,11.98134483,A,102636.60,"[-0.20000,-0.00000,0.00000]","[-0.10000,-0.00000,-0.00000]",0.33283,0.00000,0.00000,0.00000,0.00000,0.00000
17:20:45.321814,0.99862,0.00316,1.02190,"[5.00000,0.00000,0.00000]","[1.00000,0.00000,0.00000]",-0.05164,-0.10905,0.01887,0.00000,0.00000,0.03156,-0.02802,-0.00250,-0.07430,1.02205,0.99486,1.23321,0.49869,1.50229,1.46921,-0.04953,0.21875,0.96008,-0.34672,0.79690,2.19000,57.68785,11.98134,57.68784630,11.98134483,A,102636.60,"[-0.20000,-0.00000,0.00000]","[-0.10000,-0.00000,-0.00000]",0.34341,0.00000,0.00000,0.00000,0.00000,0.00000
17:20:45.331967,1.00895,0.00294,1.02190,"[5.00000,0.00000,0.00000]","[1.00000,0.00000,0.00000]",-0.05192,-0.10786,0.01261,0.00000,0.00000,0.01751,-0.02436,0.06374,-0.06246,0.91146,1.00521,1.27961,0.49869,1.50229,1.46921,-0.04953,0.21875,0.96008,-0.34672,0.79690,2.19000,57.68785,11.98134,57.68784630,11.98134483,A,102636.60,"[-0.20000,-0.00000,0.00000]","[-0.10000,-0.00000,-0.00000]",0.35415,0.00000,0.00000,0.00000,0.00000,0.00000
17:20:45.342759,1.01974,0.00328,1.02190,"[5.00000,0.00000,0.00000]","[1.00000,0.00000,0.00000]",-0.05197,-0.10656,0.01994,0.00000,0.00000,-0.00998,-0.02604,0.07973,-0.05191,0.86681,1.01601,1.20147,0.49869,1.50229,1.46921,-0.04953,0.21875,0.96008,-0.34672,0.79690,2.19000,57.68785,11.98134,57.68784630,11.98134483,A,102636.60,"[-0.20000,-0.00000,0.00000]","[-0.10000,-0.00000,-0.00000]",0.36480,0.00000,0.00000,0.00000,0.00000,0.00000
17:20:45.352926,1.02969,0.00300,1.02190,"[5.00000,0.00000,0.00000]","[1.00000,0.00000,0.00000]",-0.05065,-0.10529,0.01642,0.00000,0.00000,-0.02861,-0.01688,-0.09766,0.03465,0.95312,1.02595,1.21123,0.49869,1.50229,1.46921,-0.04953,0.21875,0.96008,-0.34672,0.79690,2.19000,57.68785,11.98134,57.68784630,11.98134483,A,102636.60,"[-0.20000,-0.00000,0.00000]","[-0.10000,-0.00000,-0.00000]",0.37520,0.00000,0.00000,0.00000,0.00000,0.00000
17:20:45.363620,1.04060,0.00351,1.02190,"[5.00000,0.00000,0.00000]","[1.00000,0.00000,0.00000]",-0.05033,-0.10401,0.03276,0.00000,0.00000,-0.02632,-0.01764,-0.11114,-0.04130,1.00851,1.03684,1.27473,0.49869,1.50229,1.46921,-0.04953,0.21875,0.96008,-0.34672,0.79690,2.19000,57.68785,11.98134,57.68784630,11.98134483,A,102636.60,"[-0.20000,-0.00000,0.00000]","[-0.10000,-0.00000,-0.00000]",0.38578,0.00000,0.00000,0.00000,0.00000,0.00000
17:20:45.373666,1.05065,0.00315,1.02190,"[5.00000,0.00000,0.00000]","[1.00000,0.00000,0.00000]",-0.05103,-0.10285,0.02528,0.00000,0.00000,-0.00693,-0.02100,-0.03178,-0.10346,1.00821,1.04689,1.29182,0.49869,1.50229,1.46921,-0.04953,0.21875,0.96008,-0.34672,0.79690,2.19000,57.68785,11.98134,57.68784630,11.98134483,A,102636.60,"[-0.20000,-0.00000,0.00000]","[-0.10000,-0.00000,-0.00000]",0.39638,0.00000,0.00000,0.00000,0.00000,0.00000
17:20:45.400310,1.07726,0.01922,1.02190,"[5.00000,0.00000,0.00000]","[1.00000,0.00000,0.00000]",-0.05180,-0.10175,0.01612,0.00000,0.00000,-0.00617,-0.02726,0.00433,-0.10498,1.03407,1.05725,1.20879,0.49869,1.50229,1.46921,-0.04953,0.21875,1.07246,-0.37644,0.88956,1.88115,57.68785,11.98134,57.68784630,11.98134483,A,102636.70,"[-0.20000,-0.00000,0.00000]","[-0.10000,-0.00000,-0.00000]",0.40710,0.00000,0.00000,0.00000,0.00000,0.00000
17:20:45.418751,1.09572,0.00584,1.02190,"[5.00000,0.00000,0.00000]","[1.00000,0.00000,0.00000]",-0.05088,-0.09815,0.02223,0.00000,0.00000,0.02926,-0.02787,-0.04947,-0.02708,1.07482,1.08974,1.24542,0.60333,1.55864,1.52942,-0.06046,0.30544,1.07246,-0.37644,0.88956,1.88115,57.68785,11.98134,57.68784708,11.98134465,A,102636.70,"[-0.20000,-0.00000,0.00000]","[-0.10000,-0.00000,-0.00000]",0.43904,0.00000,0.00000,0.00000,0.00000,0.00000
17:20:45.427690,1.10467,0.00380,1.02190,"[5.00000,0.00000,0.00000]","[1.00000,0.00000,0.00000]",-0.05130,-0.09660,0.02696,0.00000,0.00000,0.02392,-0.01963,0.03117,-0.08253,0.95191,1.10091,1.20879,0.60333,1.55864,1.52942,-0.06046,0.30544,1.07246,-0.37644,0.88956,1.88115,57.68785,11.98134,57.68784708,11.98134465,A,102636.70,"[-0.20000,-0.00000,0.00000]","[-0.10000,-0.00000,-0.00000]",0.45022,0.00000,0.00000,0.00000,0.00000,0.00000
17:20:45.437440,1.11442,0.00315,1.02190,"[5.00000,0.00000,0.00000]","[1.00000,0.00000,0.00000]",-0.05116,-0.09513,0.02528,0.00000,0.00000,-0.00051,-0.01733,0.03770,-0.04227,0.89432,1.11066,1.22833,0.60333,1.55864,1.52942,-0.06046,0.30544,1.07246,-0.37644,0.88956,1.88115,57.68785,11.98134,57.68784708,11.98134465,A,102636.70,"[-0.20000,-0.00000,0.00000]","[-0.10000,-0.00000,-0.00000]",0.46080,0.00000,0.00000,0.00000,0.00000,0.00000
17:20:45.447807,1.12479,0.00312,1.02190,"[5.00000,0.00000,0.00000]","[1.00000,0.00000,0.00000]",-0.05095,-0.09348,0.02024,0.00000,0.00000,-0.02251,-0.00619,0.01391,-0.03471,0.88096,1.12105,1.28694,0.60333,1.55864,1.52942,-0.06046,0.30544,1.07246,-0.37644,0.88956,1.88115,57.68785,11.98134,57.68784708,11.98134465,A,102636.70,"[-0.20000,-0.00000,0.00000]","[-0.10000,-0.00000,-0.00000]",0.47139,0.00000,0.00000,0.00000,0.00000,0.00000
17:20:45.458240,1.13522,0.00315,1.02190,"[5.00000,0.00000,0.00000]","[1.00000,0.00000,0.00000]",-0.05051,-0.09196,0.02757,0.00000,0.00000,-0.02724,-0.00145,-0.10279,-0.02702,0.95148,1.13148,1.28449,0.60333,1.55864,1.52942,-0.06046,0.30544,1.07246,-0.37644,0.88956,1.88115,57.68785,11.98134,57.68784708,11.98134465,A,102636.70,"[-0.20000,-0.00000,0.00000]","[-0.10000,-0.00000,-0.00000]",0.48197,0.00000,0.00000,0.00000,0.00000,0.00000
17:20:45.468291,1.14528,0.00297,1.02190,"[5.00000,0.00000,0.00000]","[1.00000,0.00000,0.00000]",-0.05012,-0.09051,0.02849,0.00000,0.00000,-0.00998,-0.00634,-0.09260,-0.03001,0.97746,1.14154,1.29915,0.60333,1.55864,1.52942,-0.06046,0.30544,1.07246,-0.37644,0.88956,1.88115,57.68785,11.98134,57.68784708,11.98134465,A,102636.70,"[-0.20000,-0.00000,0.00000]","[-0.10000,-0.00000,-0.00000]",0.49239,0.00000,0.00000,0.00000,0.00000,0.00000
17:20:45.479722,1.15670,0.00400,1.02190,"[5.00000,0.00000,0.00000]","[1.00000,0.00000,0.00000]",-0.05020,-0.08910,0.02925,0.00000,0.00000,0.00376,-0.00848,-0.06637,-0.06399,0.98759,1.15296,1.22589,0.60333,1.55864,1.52942,-0.06046,0.30544,1.07246,-0.37644,0.88956,1.88115,57.68785,11.98134,57.68784708,11.98134465,A,102636.70,"[-0.20000,-0.00000,0.00000]","[-0.10000,-0.00000,-0.00000]",0.50297,0.00000,0.00000,0.00000,0.00000,0.00000
17:20:45.489252,1.16623,0.00313,1.02190,"[5.00000,0.00000,0.00000]","[1.00000,0.00000,0.00000]",-0.05063,-0.08802,0.03368,0.00000,0.00000,0.01384,-0.01672,-0.01000,-0.08333,0.96240,1.16228,1.29426,0.60333,1.55864,1.52942,-0.06046,0.30544,1.07246,-0.37644,0.88956,1.88115,57.68785,11.98134,57.68784708,11.98134465,A,102636.70,"[-0.20000,-0.00000,0.00000]","[-0.10000,-0.00000,-0.00000]",0.51355,0.00000,0.00000,0.00000,0.00000,0.00000
17:20:45.527550,1.20452,0.03103,1.02190,"[5.00000,0.00000,0.00000]","[1.00000,0.00000,0.00000]",-0.05070,-0.08680,0.02421,0.00000,0.00000,0.01140,-0.01596,-0.07997,-0.06259,1.04914,1.17306,1.30159,0.60333,1.55864,1.52942,-0.06046,0.30544,1.19914,-0.47550,1.07488,2.06169,57.68785,11.98134,57.68784708,11.98134465,A,102636.90,"[-0.20000,-0.00000,0.00000]","[-0.10000,-0.00000,-0.00000]",0.52413,0.00000,0.00000,0.00000,0.00000,0.00000
17:20:45.545007,1.22197,0.00682,1.02190,"[5.00000,0.00000,0.00000]","[1.00000,0.00000,0.00000]",-0.04932,-0.07970,0.05033,0.00000,0.00000,0.00987,0.00114,0.00250,-0.09260,1.07750,1.21601,1.27961,0.68704,1.63192,1.60822,-0.07827,0.41504,1.19914,-0.47550,1.07488,2.06169,57.68785,11.98134,57.68784807,11.98134435,A,102636.90,"[-0.20000,-0.00000,0.00000]","[-0.10000,-0.00000,-0.00000]",0.56666,0.00000,0.00000,0.00000,0.00000,0.00000
17:20:45.551855,1.22884,0.00329,1.29212,"[5.00000,0.00000,0.00000]","[1.00000,0.00000,0.00000]",-0.04853,-0.07786,0.05262,0.00000,0.00000,0.00208,0.00588,0.05551,-0.01836,0.99589,1.22510,1.26496,0.68704,1.63192,1.60822,-0.07827,0.41504,1.19914,-0.47550,1.07488,2.06169,57.68785,11.98134,57.68784807,11.98134435,A,102636.90,"[-0.20000,-0.00000,0.00000]","[-0.10000,-0.00000,-0.00000]",0.57725,0.00000,0.00000,0.00000,0.00000,0.00000
17:20:45.562119,1.23910,0.00316,1.29212,"[5.00000,0.00000,0.00000]","[1.00000,0.00000,0.00000]",-0.04822,-0.07594,0.06697,0.00000,0.00000,-0.01884,0.00893,0.01513,-0.05941,0.92238,1.23535,1.26740,0.68704,1.63192,1.60822,-0.07827,0.41504,1.19914,-0.47550,1.07488,2.06169,57.68785,11.98134,57.68784807,11.98134435,A,102636.90,"[-0.20000,-0.00000,0.00000]","[-0.10000,-0.00000,-0.00000]",0.59063,0.00000,0.00000,0.00000,0.00000,0.00000
17:20:45.572192,1.24918,0.00297,1.29212,"[5.00000,0.00000,0.00000]","[1.00000,0.00000,0.00000]",-0.04801,-0.07412,0.06667,0.00000,0.00000,-0.02892,0.00786,-0.09778,-0.06326,0.91927,1.24544,1.27473,0.68704,1.63192,1.60822,-0.07827,0.41504,1.19914,-0.47550,1.07488,2.06169,57.68785,11.98134,57.68784807,11.98134435,A,102636.90,"[-0.20000,-0.00000,0.00000]","[-0.10000,-0.00000,-0.00000]",0.60383,0.00000,0.00000,0.00000,0.00000,0.00000
17:20:45.582736,1.25972,0.00311,1.29212,"[5.00000,0.00000,0.00000]","[1.00000,0.00000,0.00000]",-0.04773,-0.07243,0.07736,0.00000,0.00000,-0.02052,0.01367,-0.15903,-0.07283,1.00022,1.25599,1.28205,0.68704,1.63192,1.60822,-0.07827,0.41504,1.19914,-0.47550,1.07488,2.06169,57.68785,11.98134,57.68784807,11.98134435,A,102636.90,"[-0.20000,-0.00000,0.00000]","[-0.10000,-0.00000,-0.00000]",0.61722,0.00000,0.00000,0.00000,0.00000,0.00000
17:20:45.593163,1.27013,0.00312,1.29212,"[5.00000,0.00000,0.00000]","[1.00000,0.00000,0.00000]",-0.04795,-0.07081,0.07827,0.00000,0.00000,-0.00403,0.01168,-0.07424,-0.10138,0.96911,1.26619,1.28449,0.68704,1.63192,1.60822,-0.07827,0.41504,1.19914,-0.47550,1.07488,2.06169,57.68785,11.98134,57.68784807,11.98134435,A,102636.90,"[-0.20000,-0.00000,0.00000]","[-0.10000,-0.00000,-0.00000]",0.63060,0.00000,0.00000,0.00000,0.00000,0.00000
17:20:45.603548,1.28053,0.00312,1.29212,"[5.00000,0.00000,0.00000]","[1.00000,0.00000,0.00000]",-0.04738,-0.06912,0.08667,0.00000,0.00000,-0.00082,0.01810,0.03343,-0.05838,0.97752,1.27680,1.27473,0.68704,1.63192,1.60822,-0.07827,0.41504,1.19914,-0.47550,1.07488,2.06169,57.68785,11.98134,57.68784807,11.98134435,A,102636.90,"[-0.20000,-0.00000,0.00000]","[-0.10000,-0.00000,-0.00000]",0.64398,0.00000,0.00000,0.00000,0.00000,0.00000
17:20:45.621840,1.29882,0.01101,11.07580,"[5.00000,0.00000,0.00000]","[1.00000,0.00000,0.00000]",-0.03519,-0.06595,0.09645,0.00000,0.00000,-0.00342,0.01993,-0.06985,-0.00201,1.10373,1.29504,1.20391,0.68704,1.63192,1.60822,-0.07827,0.41504,1.19914,-0.47550,1.07488,2.06169,57.68785,11.98134,57.68784807,11.98134435,A,102636.90,"[-0.20000,-0.00000,0.00000]","[-0.10000,-0.00000,-0.00000]",0.65736,0.00000,0.00000,0.00000,0.00000,0.00000
17:20:45.647445,1.32441,0.01871,11.07580,"[5.00000,0.00000,0.00000]","[1.00000,0.00000,0.00000]",-0.02578,-0.06331,0.11050,0.00000,0.00000,0.00422,0.02237,-0.05026,-0.04130,1.06244,1.30623,1.26984,0.68704,1.63192,1.60822,-0.07827,0.41504,1.32147,-0.50522,1.20461,1.79600,57.68786,11.98134,57.68784807,11.98134435,A,102637.00,"[-0.20000,-0.00000,0.00000]","[-0.10000,-0.00000,-0.00000]",0.88207,0.00000,0.00000,0.00000,0.00000,0.00000
17:20:45.659732,1.33670,0.00618,11.07580,"[5.00000,0.00000,0.00000]","[1.00000,0.00000,0.00000]",-0.01507,-0.05663,0.11783,0.00000,0.00000,-0.00891,0.02252,-0.01452,-0.04465,0.97264,1.33099,1.23077,2.76479,1.65424,1.63741,-0.10238,0.52832,1.32147,-0.50522,1.20461,1.79600,57.68786,11.98134,57.68784908,11.98134394,A,102637.00,"[-0.20000,-0.00000,0.00000]","[-0.10000,-0.00000,-0.00000]",1.15671,0.00000,0.00000,0.00000,0.00000,0.00000
17:20:45.668535,1.34552,0.00459,11.07580,"[5.00000,0.00000,0.00000]","[1.00000,0.00000,0.00000]",-0.00553,-0.05329,0.11951,0.00000,0.00000,-0.01441,0.02970,-0.08021,0.03257,0.96203,1.34176,1.24298,2.76479,1.65424,1.63741,-0.10238,0.52832,1.32147,-0.50522,1.20461,1.79600,57.68786,11.98134,57.68784908,11.98134394,A,102637.00,"[-0.20000,-0.00000,0.00000]","[-0.10000,-0.00000,-0.00000]",1.27146,0.00000,0.00000,0.00000,0.00000,0.00000
17:20:45.679008,1.35599,0.00467,11.07580,"[5.00000,0.00000,0.00000]","[1.00000,0.00000,0.00000]",0.00361,-0.05010,0.13127,0.00000,0.00000,-0.00861,0.03337,-0.05642,0.03367,0.96374,1.35225,1.24054,2.76479,1.65424,1.63741,-0.10238,0.52832,1.32147,-0.50522,1.20461,1.79600,57.68786,11.98134,57.68784908,11.98134394,A,102637.00,"[-0.20000,-0.00000,0.00000]","[-0.10000,-0.00000,-0.00000]",1.38616,0.00000,0.00000,0.00000,0.00000,0.00000
17:20:45.689504,1.36648,0.00459,11.07580,"[5.00000,0.00000,0.00000]","[1.00000,0.00000,0.00000]",0.01103,-0.04704,0.13554,0.00000,0.00000,-0.00174,0.03657,-0.06545,-0.05118,1.00217,1.36271,1.25763,2.76479,1.65424,1.63741,-0.10238,0.52832,1.32147,-0.50522,1.20461,1.79600,57.68786,11.98134,57.68784908,11.98134394,A,102637.00,"[-0.20000,-0.00000,0.00000]","[-0.10000,-0.00000,-0.00000]",1.50082,0.00000,0.00000,0.00000,0.00000,0.00000
17:20:45.700020,1.37700,0.00471,11.07580,"[5.00000,0.00000,0.00000]","[1.00000,0.00000,0.00000]",0.01769,-0.04404,0.13478,0.00000,0.00000,0.00666,0.03642,-0.05051,-0.06515,1.01754,1.37325,1.23810,2.76479,1.65424,1.63741,-0.10238,0.52832,1.32147,-0.50522,1.20461,1.79600,57.68786,11.98134,57.68784908,11.98134394,A,102637.00,"[-0.20000,-0.00000,0.00000]","[-0.10000,-0.00000,-0.00000]",1.61557,0.00000,0.00000,0.00000,0.00000,0.00000
17:20:45.710060,1.38703,0.00450,11.07580,"[5.00000,0.00000,0.00000]","[1.00000,0.00000,0.00000]",0.02426,-0.04141,0.12653,0.00000,0.00000,0.01399,0.03642,-0.02885,-0.04069,0.98137,1.38328,1.24542,2.76479,1.65424,1.63741,-0.10238,0.52832,1.32147,-0.50522,1.20461,1.79600,57.68786,11.98134,57.68784908,11.98134394,A,102637.00,"[-0.20000,-0.00000,0.00000]","[-0.10000,-0.00000,-0.00000]",1.72846,0.00000,0.00000,0.00000,0.00000,0.00000
17:20:45.721871,1.39885,0.00592,11.07580,"[5.00000,0.00000,0.00000]","[1.00000,0.00000,0.00000]",0.03179,-0.03855,0.13066,0.00000,0.00000,0.01216,0.04253,-0.01488,0.05246,0.98393,1.39507,1.23810,2.76479,1.65424,1.63741,-0.10238,0.52832,1.32147,-0.50522,1.20461,1.79600,57.68786,11.98134,57.68784908,11.98134394,A,102637.00,"[-0.20000,-0.00000,0.00000]","[-0.10000,-0.00000,-0.00000]",1.84318,0.00000,0.00000,0.00000,0.00000,0.00000
17:20:45.730967,1.40795,0.00461,11.07580,"[5.00000,0.00000,0.00000]","[1.00000,0.00000,0.00000]",0.03840,-0.03634,0.13829,0.00000,0.00000,0.00132,0.04864,-0.02952,0.03196,0.98247,1.40419,1.26984,2.76479,1.65424,1.63741,-0.10238,0.52832,1.32147,-0.50522,1.20461,1.79600,57.68786,11.98134,57.68784908,11.98134394,A,102637.00,"[-0.20000,-0.00000,0.00000]","[-0.10000,-0.00000,-0.00000]",1.95789,0.00000,0.00000,0.00000,0.00000,0.00000
17:20:45.741492,1.41847,0.00458,11.07580,"[5.00000,0.00000,0.00000]","[1.00000,0.00000,0.00000]",0.04448,-0.03396,0.14455,0.00000,0.00000,-0.00296,0.05307,-0.03934,0.00976,0.99186,1.41469,1.26740,2.76479,1.65424,1.63741,-0.10238,0.52832,1.32147,-0.50522,1.20461,1.79600,57.68786,11.98134,57.68784908,11.98134394,A,102637.00,"[-0.20000,-0.00000,0.00000]","[-0.10000,-0.00000,-0.00000]",2.07259,0.00000,0.00000,0.00000,0.00000,0.00000
17:20:45.766781,1.44375,0.01946,11.07580,"[5.00000,0.00000,0.00000]","[1.00000,0.00000,0.00000]",0.04949,-0.03150,0.15204,0.00000,0.00000,-0.00418,0.05765,-0.02721,-0.04136,0.99491,1.42529,1.28205,2.76479,1.65424,1.63741,-0.10238,0.52832,1.44071,-0.54484,1.29727,1.97489,57.68786,11.98134,57.68784908,11.98134394,A,102637.10,"[-0.20000,-0.00000,0.00000]","[-0.10000,-0.00000,-0.00000]",2.18727,0.00000,0.00000,0.00000,0.00000,0.00000
17:20:45.779089,1.45605,0.00656,11.07580,"[5.00000,0.00000,0.00000]","[1.00000,0.00000,0.00000]",0.05610,-0.02660,0.13631,0.00000,0.00000,0.01216,0.05414,-0.00390,0.00165,0.97990,1.45009,1.26496,4.42699,1.68925,1.68135,-0.14501,0.87416,1.44071,-0.54484,1.29727,1.97489,57.68786,11.98134,57.68785219,11.98134323,A,102637.10,"[-0.20000,-0.00000,0.00000]","[-0.10000,-0.00000,-0.00000]",2.46613,0.00000,0.00000,0.00000,0.00000,0.00000
17:20:45.787533,1.46451,0.00462,11.07580,"[5.00000,0.00000,0.00000]","[1.00000,0.00000,0.00000]",0.06062,-0.02493,0.13310,0.00000,0.00000,0.00682,0.05398,-0.01348,0.01183,0.96654,1.46076,1.21123,4.42699,1.68925,1.68135,-0.14501,0.87416,1.44071,-0.54484,1.29727,1.97489,57.68786,11.98134,57.68785219,11.98134323,A,102637.10,"[-0.20000,-0.00000,0.00000]","[-0.10000,-0.00000,-0.00000]",2.58082,0.00000,0.00000,0.00000,0.00000,0.00000
17:20:45.797999,1.47498,0.00482,11.07580,"[5.00000,0.00000,0.00000]","[1.00000,0.00000,0.00000]",0.06478,-0.02358,0.13814,0.00000,0.00000,0.00498,0.04818,-0.01269,0.00567,0.96935,1.47121,1.20635,4.42699,1.68925,1.68135,-0.14501,0.87416,1.44071,-0.54484,1.29727,1.97489,57.68786,11.98134,57.68785219,11.98134323,A,102637.10,"[-0.20000,-0.00000,0.00000]","[-0.10000,-0.00000,-0.00000]",2.69417,0.00000,0.00000,0.00000,0.00000,0.00000
17:20:45.808290,1.48527,0.00471,11.07580,"[5.00000,0.00000,0.00000]","[1.00000,0.00000,0.00000]",0.06846,-0.02236,0.13432,0.00000,0.00000,-0.00601,0.04894,-0.03172,0.00262,1.00314,1.48152,1.30891,4.42699,1.68925,1.68135,-0.14501,0.87416,1.44071,-0.54484,1.29727,1.97489,57.68786,11.98134,57.68785219,11.98134323,A,102637.10,"[-0.20000,-0.00000,0.00000]","[-0.10000,-0.00000,-0.00000]",2.80886,0.00000,0.00000,0.00000,0.00000,0.00000
17:20:45.818576,1.49556,0.00460,11.07580,"[5.00000,0.00000,0.00000]","[1.00000,0.00000,0.00000]",0.07161,-0.02143,0.13554,0.00000,0.00000,-0.01365,0.05398,-0.03922,-0.02153,1.00211,1.49180,1.18437,4.42699,1.68925,1.68135,-0.14501,0.87416,1.44071,-0.54484,1.29727,1.97489,57.68786,11.98134,57.68785219,11.98134323,A,102637.10,"[-0.20000,-0.00000,0.00000]","[-0.10000,-0.00000,-0.00000]",2.92356,0.00000,0.00000,0.00000,0.00000,0.00000
17:20:45.830720,1.50770,0.00633,11.07580,"[5.00000,0.00000,0.00000]","[1.00000,0.00000,0.00000]",0.07489,-0.02052,0.13295,0.00000,0.00000,-0.02174,0.05627,-0.03605,-0.00958,1.02395,1.50394,1.29670,4.42699,1.68925,1.68135,-0.14501,0.87416,1.44071,-0.54484,1.29727,1.97489,57.68786,11.98134,57.68785219,11.98134323,A,102637.10,"[-0.20000,-0.00000,0.00000]","[-0.10000,-0.00000,-0.00000]",3.03831,0.00000,0.00000,0.00000,0.00000,0.00000
17:20:45.841133,1.51809,0.00648,11.07580,"[5.00000,0.00000,0.00000]","[1.00000,0.00000,0.00000]",0.07817,-0.02001,0.12348,0.00000,0.00000,-0.01258,0.05963,-0.03422,0.02965,1.03450,1.51376,1.13797,4.42699,1.68925,1.68135,-0.14501,0.87416,1.44071,-0.54484,1.29727,1.97489,57.68786,11.98134,57.68785219,11.98134323,A,102637.10,"[-0.20000,-0.00000,0.00000]","[-0.10000,-0.00000,-0.00000]",3.15130,0.00000,0.00000,0.00000,0.00000,0.00000
17:20:45.851658,1.52863,0.00648,11.07580,"[5.00000,0.00000,0.00000]","[1.00000,0.00000,0.00000]",0.08118,-0.01973,0.13081,0.00000,0.00000,-0.00953,0.05841,-0.03434,0.00323,1.04804,1.52481,1.58974,4.42699,1.68925,1.68135,-0.14501,0.87416,1.44071,-0.54484,1.29727,1.97489,57.68786,11.98134,57.68785219,11.98134323,A,102637.10,"[-0.20000,-0.00000,0.00000]","[-0.10000,-0.00000,-0.00000]",3.26753,0.00000,0.00000,0.00000,0.00000,0.00000
17:20:45.863082,1.53903,0.00648,11.07580,"[5.00000,0.00000,0.00000]","[1.00000,0.00000,0.00000]",0.08423,-0.01967,0.11737,0.00000,0.00000,0.00254,0.05918,-0.03691,0.01354,0.99668,1.53526,0.31746,4.42699,1.68925,1.68135,-0.14501,0.87416,1.44071,-0.54484,1.29727,1.97489,57.68786,11.98134,57.68785219,11.98134323,A,102637.10,"[-0.20000,-0.00000,0.00000]","[-0.10000,-0.00000,-0.00000]",3.38224,0.00000,0.00000,0.00000,0.00000,0.00000
17:20:45.889955,1.56657,0.02362,11.07580,"[5.00000,0.00000,0.00000]","[1.00000,0.00000,0.00000]",0.08738,-0.01967,0.11325,0.00000,0.00000,0.00346,0.05643,-0.02513,0.01183,0.94684,1.54612,0.14896,4.42699,1.68925,1.68135,-0.14501,0.87416,1.56211,-0.57456,1.40847,1.83196,57.68786,11.98134,57.68785219,11.98134323,A,102637.20,"[-0.20000,-0.00000,0.00000]","[-0.10000,-0.00000,-0.00000]",3.49693,0.00000,0.00000,0.00000,0.00000,0.00000
17:20:45.910288,1.58726,0.01052,11.07580,"[5.00000,0.00000,0.00000]","[1.00000,0.00000,0.00000]",0.09264,-0.01967,0.11050,0.00000,0.00000,-0.00158,0.04604,-0.03861,-0.00433,1.00424,1.58101,0.06593,5.75675,1.69973,1.69389,-0.22637,1.44034,1.56211,-0.57456,1.40847,1.83196,57.68786,11.98134,57.68785729,11.98134186,A,102637.20,"[-0.20000,-0.00000,0.00000]","[-0.10000,-0.00000,-0.00000]",3.87086,0.00000,0.00000,0.00000,0.00000,0.00000
17:20:45.929325,1.60475,0.00635,11.07580,"[5.00000,0.00000,0.00000]","[1.00000,0.00000,0.00000]",0.09523,-0.01967,0.08423,0.00000,0.00000,-0.00250,0.03734,-0.04654,-0.02086,1.08604,1.60101,0.07326,5.75675,1.69973,1.69389,-0.22637,1.44034,1.56211,-0.57456,1.40847,1.83196,57.68786,11.98134,57.68785729,11.98134186,A,102637.20,"[-0.20000,-0.00000,0.00000]","[-0.10000,-0.00000,-0.00000]",4.11053,0.00000,0.00000,0.00000,0.00000,0.00000
17:20:45.938316,1.61528,0.00648,11.07580,"[5.00000,0.00000,0.00000]","[1.00000,0.00000,0.00000]",0.09735,-0.01967,0.07415,0.00000,0.00000,0.00116,0.03871,-0.02257,0.00970,1.06311,1.61116,0.05861,5.75675,1.69973,1.69389,-0.22637,1.44034,1.56211,-0.57456,1.40847,1.83196,57.68786,11.98134,57.68785729,11.98134186,A,102637.20,"[-0.20000,-0.00000,0.00000]","[-0.10000,-0.00000,-0.00000]",4.22525,0.00000,0.00000,0.00000,0.00000,0.00000
17:20:45.949301,1.62627,0.00708,11.07580,"[5.00000,0.00000,0.00000]","[1.00000,0.00000,0.00000]",0.09966,-0.01967,0.06453,0.00000,0.00000,0.00269,0.03688,-0.02056,0.02373,1.03493,1.62197,0.06838,5.75675,1.69973,1.69389,-0.22637,1.44034,1.56211,-0.57456,1.40847,1.83196,57.68786,11.98134,57.68785729,11.98134186,A,102637.20,"[-0.20000,-0.00000,0.00000]","[-0.10000,-0.00000,-0.00000]",4.33993,0.00000,0.00000,0.00000,0.00000,0.00000
17:20:45.959153,1.63613,0.00654,11.07580,"[5.00000,0.00000,0.00000]","[1.00000,0.00000,0.00000]",0.10188,-0.01967,0.06102,0.00000,0.00000,-0.00617,0.03825,-0.02105,0.01482,0.99253,1.63237,0.05372,5.75675,1.69973,1.69389,-0.22637,1.44034,1.56211,-0.57456,1.40847,1.83196,57.68786,11.98134,57.68785729,11.98134186,A,102637.20,"[-0.20000,-0.00000,0.00000]","[-0.10000,-0.00000,-0.00000]",4.45464,0.00000,0.00000,0.00000,0.00000,0.00000
17:20:45.970242,1.64721,0.00722,11.07580,"[5.00000,0.00000,0.00000]","[1.00000,0.00000,0.00000]",0.10432,-0.01967,0.05598,0.00000,0.00000,-0.00617,0.03551,-0.01940,0.02910,0.97856,1.64340,0.06105,5.75675,1.69973,1.69389,-0.22637,1.44034,1.56211,-0.57456,1.40847,1.83196,57.68786,11.98134,57.68785729,11.98134186,A,102637.20,"[-0.20000,-0.00000,0.00000]","[-0.10000,-0.00000,-0.00000]",4.56935,0.00000,0.00000,0.00000,0.00000,0.00000
17:20:45.980576,1.65755,0.00732,11.07580,"[5.00000,0.00000,0.00000]","[1.00000,0.00000,0.00000]",0.10725,-0.01978,0.04956,0.00000,0.00000,-0.00861,0.03459,-0.00744,0.05575,0.92629,1.65377,0.07326,5.75675,1.69973,1.69389,-0.22637,1.44034,1.56211,-0.57456,1.40847,1.83196,57.68786,11.98134,57.68785729,11.98134186,A,102637.20,"[-0.20000,-0.00000,0.00000]","[-0.10000,-0.00000,-0.00000]",4.68220,0.00000,0.00000,0.00000,0.00000,0.00000
17:20:46.018561,1.69504,0.03441,11.07580,"[5.00000,0.00000,0.00000]","[1.00000,0.00000,0.00000]",0.10952,-0.02035,0.04620,0.00000,0.00000,-0.00693,0.02726,0.01982,0.00775,0.90134,1.66328,0.07814,5.75675,1.69973,1.69389,-0.22637,1.44034,1.69030,-0.65381,1.64939,1.88859,57.68786,11.98133,57.68785729,11.98134186,A,102637.40,"[-0.20000,-0.00000,0.00000]","[-0.10000,-0.00000,-0.00000]",4.79689,0.00000,0.00000,0.00000,0.00000,0.00000
17:20:46.037838,1.71481,0.01031,11.07580,"[5.00000,0.00000,0.00000]","[1.00000,0.00000,0.00000]",0.11288,-0.02952,0.02421,0.00000,0.00000,0.01628,0.02802,-0.05862,0.00476,1.13826,1.70878,1.19658,6.82056,1.71835,1.70958,-0.33198,2.13166,1.69030,-0.65381,1.64939,1.88859,57.68786,11.98133,57.68786350,11.98134008,A,102637.40,"[-0.20000,-0.00000,0.00000]","[-0.10000,-0.00000,-0.00000]",5.28252,0.00000,0.00000,0.00000,0.00000,0.00000
17:20:46.053921,1.73090,0.00636,11.07580,"[5.00000,0.00000,0.00000]","[1.00000,0.00000,0.00000]",0.11651,-0.03357,0.01245,0.00000,0.00000,0.03965,0.02650,0.02483,0.04307,1.10398,1.72712,1.25275,6.82056,1.71835,1.70958,-0.33198,2.13166,1.69030,-0.65381,1.64939,1.88859,57.68786,11.98133,57.68786350,11.98134008,A,102637.40,"[-0.20000,-0.00000,0.00000]","[-0.10000,-0.00000,-0.00000]",5.50412,0.00000,0.00000,0.00000,0.00000,0.00000
17:20:46.065633,1.74261,0.00768,11.07580,"[5.00000,0.00000,0.00000]","[1.00000,0.00000,0.00000]",0.12009,-0.03566,0.00008,0.00000,0.00000,0.01857,0.02329,0.05289,-0.01299,0.97441,1.73879,1.25031,6.82056,1.71835,1.70958,-0.33198,2.13166,1.69030,-0.65381,1.64939,1.88859,57.68786,11.98133,57.68786350,11.98134008,A,102637.40,"[-0.20000,-0.00000,0.00000]","[-0.10000,-0.00000,-0.00000]",5.61882,0.00000,0.00000,0.00000,0.00000,0.00000
17:20:46.074985,1.75197,0.00664,11.07580,"[5.00000,0.00000,0.00000]","[1.00000,0.00000,0.00000]",0.12546,-0.03753,-0.00328,0.00000,0.00000,0.00071,0.01901,0.04734,0.06454,0.89621,1.74822,1.28449,6.82056,1.71835,1.70958,-0.33198,2.13166,1.69030,-0.65381,1.64939,1.88859,57.68786,11.98133,57.68786350,11.98134008,A,102637.40,"[-0.20000,-0.00000,0.00000]","[-0.10000,-0.00000,-0.00000]",5.73350,0.00000,0.00000,0.00000,0.00000,0.00000
17:20:46.085946,1.76224,0.00652,11.07580,"[5.00000,0.00000,0.00000]","[1.00000,0.00000,0.00000]",0.13067,-0.03934,-0.00954,0.00000,0.00000,-0.02174,0.01397,-0.07777,0.04056,0.89463,1.75824,1.26740,6.82056,1.71835,1.70958,-0.33198,2.13166,1.69030,-0.65381,1.64939,1.88859,57.68786,11.98133,57.68786350,11.98134008,A,102637.40,"[-0.20000,-0.00000,0.00000]","[-0.10000,-0.00000,-0.00000]",5.84818,0.00000,0.00000,0.00000,0.00000,0.00000
17:20:46.095213,1.77218,0.00602,11.07580,"[5.00000,0.00000,0.00000]","[1.00000,0.00000,0.00000]",0.13624,-0.04087,-0.00862,0.00000,0.00000,-0.00937,0.01061,-0.08272,0.06094,0.90634,1.76837,1.18681,6.82056,1.71835,1.70958,-0.33198,2.13166,1.69030,-0.65381,1.64939,1.88859,57.68786,11.98133,57.68786350,11.98134008,A,102637.40,"[-0.20000,-0.00000,0.00000]","[-0.10000,-0.00000,-0.00000]",5.96332,0.00000,0.00000,0.00000,0.00000,0.00000
17:20:46.106210,1.78318,0.00677,11.07580,"[5.00000,0.00000,0.00000]","[1.00000,0.00000,0.00000]",0.14058,-0.04274,-0.00740,0.00000,0.00000,0.00346,0.00664,-0.05344,-0.04191,0.91323,1.77935,1.21123,6.82056,1.71835,1.70958,-0.33198,2.13166,1.69030,-0.65381,1.64939,1.88859,57.68786,11.98133,57.68786350,11.98134008,A,102637.40,"[-0.20000,-0.00000,0.00000]","[-0.10000,-0.00000,-0.00000]",6.07631,0.00000,0.00000,0.00000,0.00000,0.00000
17:20:46.133959,1.81090,0.02426,11.07580,"[5.00000,0.00000,0.00000]","[1.00000,0.00000,0.00000]",0.14462,-0.04460,-0.02206,0.00000,0.00000,0.01537,0.00130,-0.02861,-0.04075,0.97350,1.78967,1.23077,6.82056,1.71835,1.70958,-0.33198,2.13166,1.80569,-0.70334,1.76059,1.98985,57.68786,11.98133,57.68786350,11.98134008,A,102637.50,"[-0.20000,-0.00000,0.00000]","[-0.10000,-0.00000,-0.00000]",6.18921,0.00000,0.00000,0.00000,0.00000,0.00000
17:20:46.151303,1.82806,0.00892,11.07580,"[5.00000,0.00000,0.00000]","[1.00000,0.00000,0.00000]",0.14845,-0.05027,-0.02985,0.00000,0.00000,0.02636,-0.00771,-0.03135,0.00464,1.10294,1.82204,1.23810,7.67161,1.74394,1.72901,-0.45019,2.82639,1.80569,-0.70334,1.76059,1.98985,57.68786,11.98133,57.68786975,11.98133809,A,102637.50,"[-0.20000,-0.00000,0.00000]","[-0.10000,-0.00000,-0.00000]",6.54886,0.00000,0.00000,0.00000,0.00000,0.00000
17:20:46.156333,1.83332,0.00296,1.35569,"[5.00000,0.00000,0.00000]","[1.00000,0.00000,0.00000]",0.14672,-0.05199,-0.03015,0.00000,0.00000,0.01506,-0.00512,-0.00213,0.06490,1.05396,1.82958,1.22344,7.67161,1.74394,1.72901,-0.45019,2.82639,1.80569,-0.70334,1.76059,1.98985,57.68786,11.98133,57.68786975,11.98133809,A,102637.50,"[-0.20000,-0.00000,0.00000]","[-0.10000,-0.00000,-0.00000]",6.67302,0.00000,0.00000,0.00000,0.00000,0.00000
17:20:46.166920,1.84390,0.00314,1.35569,"[5.00000,0.00000,0.00000]","[1.00000,0.00000,0.00000]",0.14432,-0.05363,-0.02008,0.00000,0.00000,-0.00464,-0.00466,0.05350,0.01269,0.99973,1.84016,1.26740,7.67161,1.74394,1.72901,-0.45019,2.82639,1.80569,-0.70334,1.76059,1.98985,57.68786,11.98133,57.68786975,11.98133809,A,102637.50,"[-0.20000,-0.00000,0.00000]","[-0.10000,-0.00000,-0.00000]",6.68706,0.00000,0.00000,0.00000,0.00000,0.00000
17:20:46.177436,1.85442,0.00325,1.35569,"[5.00000,0.00000,0.00000]","[1.00000,0.00000,0.00000]",0.14219,-0.05511,-0.00862,0.00000,0.00000,-0.02678,-0.00160,0.02800,0.01976,0.97624,1.85035,1.28449,7.67161,1.74394,1.72901,-0.45019,2.82639,1.80569,-0.70334,1.76059,1.98985,57.68786,11.98133,57.68786975,11.98133809,A,102637.50,"[-0.20000,-0.00000,0.00000]","[-0.10000,-0.00000,-0.00000]",6.70110,0.00000,0.00000,0.00000,0.00000,0.00000
17:20:46.187861,1.86484,0.00328,1.35569,"[5.00000,0.00000,0.00000]","[1.00000,0.00000,0.00000]",0.13919,-0.05663,-0.01030,0.00000,0.00000,-0.03213,-0.00267,-0.06551,-0.03697,0.96478,1.86110,1.22100,7.67161,1.74394,1.72901,-0.45019,2.82639,1.80569,-0.70334,1.76059,1.98985,57.68786,11.98133,57.68786975,11.98133809,A,102637.50,"[-0.20000,-0.00000,0.00000]","[-0.10000,-0.00000,-0.00000]",6.71514,0.00000,0.00000,0.00000,0.00000,0.00000
17:20:46.198166,1.87514,0.00319,1.35569,"[5.00000,0.00000,0.00000]","[1.00000,0.00000,0.00000]",0.13572,-0.05816,-0.00771,0.00000,0.00000,-0.01792,-0.00069,-0.10218,-0.07155,0.94086,1.87122,1.26984,7.67161,1.74394,1.72901,-0.45019,2.82639,1.80569,-0.70334,1.76059,1.98985,57.68786,11.98133,57.68786975,11.98133809,A,102637.50,"[-0.20000,-0.00000,0.00000]","[-0.10000,-0.00000,-0.00000]",6.72918,0.00000,0.00000,0.00000,0.00000,0.00000
17:20:46.208321,1.88530,0.00311,1.35569,"[5.00000,0.00000,0.00000]","[1.00000,0.00000,0.00000]",0.13302,-0.05978,-0.00648,0.00000,0.00000,0.01231,-0.00771,-0.14536,-0.02745,0.95922,1.88157,1.21612,7.67161,1.74394,1.72901,-0.45019,2.82639,1.80569,-0.70334,1.76059,1.98985,57.68786,11.98133,57.68786975,11.98133809,A,102637.50,"[-0.20000,-0.00000,0.00000]","[-0.10000,-0.00000,-0.00000]",6.74300,0.00000,0.00000,0.00000,0.00000,0.00000
17:20:46.218728,1.89571,0.00312,1.35569,"[5.00000,0.00000,0.00000]","[1.00000,0.00000,0.00000]",0.13102,-0.06136,-0.00526,0.00000,0.00000,0.04072,-0.01168,-0.08308,0.01360,0.97399,1.89199,1.28694,7.67161,1.74394,1.72901,-0.45019,2.82639,1.80569,-0.70334,1.76059,1.98985,57.68786,11.98133,57.68786975,11.98133809,A,102637.50,"[-0.20000,-0.00000,0.00000]","[-0.10000,-0.00000,-0.00000]",6.75704,0.00000,0.00000,0.00000,0.00000,0.00000
17:20:46.229148,1.90612,0.00313,1.35569,"[5.00000,0.00000,0.00000]","[1.00000,0.00000,0.00000]",0.12900,-0.06272,0.00115,0.00000,0.00000,0.05156,-0.01229,0.01854,0.00628,0.96484,1.90218,1.29670,7.67161,1.74394,1.72901,-0.45019,2.82639,1.80569,-0.70334,1.76059,1.98985,57.68786,11.98133,57.68786975,11.98133809,A,102637.50,"[-0.20000,-0.00000,0.00000]","[-0.10000,-0.00000,-0.00000]",6.77108,0.00000,0.00000,0.00000,0.00000,0.00000
17:20:46.259440,1.93641,0.02302,1.35569,"[5.00000,0.00000,0.00000]","[1.00000,0.00000,0.00000]",0.12658,-0.06391,0.00604,0.00000,0.00000,0.03064,-0.01382,0.01031,-0.02660,1.00479,1.91419,1.19414,7.67161,1.74394,1.72901,-0.45019,2.82639,1.93166,-0.75287,1.89031,1.93552,57.68786,11.98133,57.68786975,11.98133809,A,102637.60,"[-0.20000,-0.00000,0.00000]","[-0.10000,-0.00000,-0.00000]",6.78512,0.00000,0.00000,0.00000,0.00000,0.00000
17:20:46.278050,1.95501,0.00977,1.35569,"[5.00000,0.00000,0.00000]","[1.00000,0.00000,0.00000]",0.12468,-0.06609,0.01032,0.00000,0.00000,-0.00128,-0.01703,0.00085,-0.01196,1.05567,1.94710,1.33578,6.40843,1.73878,1.71914,-0.60652,3.66462,1.93166,-0.75287,1.89031,1.93552,57.68786,11.98133,57.68787729,11.98133546,A,102637.60,"[-0.20000,-0.00000,0.00000]","[-0.10000,-0.00000,-0.00000]",6.82826,0.00000,0.00000,0.00000,0.00000,0.00000
17:20:46.282351,1.95934,0.00315,1.35569,"[5.00000,0.00000,0.00000]","[1.00000,0.00000,0.00000]",0.12232,-0.06645,0.01184,0.00000,0.00000,-0.00265,-0.01535,-0.04856,-0.02910,1.02462,1.95559,1.27473,6.40843,1.73878,1.71914,-0.60652,3.66462,1.93166,-0.75287,1.89031,1.93552,57.68786,11.98133,57.68787729,11.98133546,A,102637.60,"[-0.20000,-0.00000,0.00000]","[-0.10000,-0.00000,-0.00000]",6.84308,0.00000,0.00000,0.00000,0.00000,0.00000
17:20:46.294779,1.97176,0.00534,1.35569,"[5.00000,0.00000,0.00000]","[1.00000,0.00000,0.00000]",0.12126,-0.06694,0.00864,0.00000,0.00000,0.00972,-0.02085,-0.06899,0.05191,0.95575,1.96798,1.26984,6.40843,1.73878,1.71914,-0.60652,3.66462,1.93166,-0.75287,1.89031,1.93552,57.68786,11.98133,57.68787729,11.98133546,A,102637.60,"[-0.20000,-0.00000,0.00000]","[-0.10000,-0.00000,-0.00000]",6.85689,0.00000,0.00000,0.00000,0.00000,0.00000
17:20:46.302995,1.97998,0.00317,1.35569,"[5.00000,0.00000,0.00000]","[1.00000,0.00000,0.00000]",0.12042,-0.06739,0.01673,0.00000,0.00000,0.02270,-0.02024,-0.07192,0.06106,0.92671,1.97624,1.32601,6.40843,1.73878,1.71914,-0.60652,3.66462,1.93166,-0.75287,1.89031,1.93552,57.68786,11.98133,57.68787729,11.98133546,A,102637.60,"[-0.20000,-0.00000,0.00000]","[-0.10000,-0.00000,-0.00000]",6.87093,0.00000,0.00000,0.00000,0.00000,0.00000
17:20:46.313397,1.99038,0.00316,1.35569,"[5.00000,0.00000,0.00000]","[1.00000,0.00000,0.00000]",0.11853,-0.06801,0.02039,0.00000,0.00000,0.03858,-0.01840,-0.05594,-0.00952,0.88743,1.98642,1.19658,6.40843,1.73878,1.71914,-0.60652,3.66462,1.93166,-0.75287,1.89031,1.93552,57.68786,11.98133,57.68787729,11.98133546,A,102637.60,"[-0.20000,-0.00000,0.00000]","[-0.10000,-0.00000,-0.00000]",6.88497,0.00000,0.00000,0.00000,0.00000,0.00000
17:20:46.323764,2.00075,0.00314,1.35569,"[5.00000,0.00000,0.00000]","[1.00000,0.00000,0.00000]",0.11697,-0.06866,0.02650,0.00000,0.00000,0.04041,-0.01535,-0.01068,0.00439,0.90811,1.99702,1.21123,6.40843,1.73878,1.71914,-0.60652,3.66462,1.93166,-0.75287,1.89031,1.93552,57.68786,11.98133,57.68787729,11.98133546,A,102637.60,"[-0.20000,-0.00000,0.00000]","[-0.10000,-0.00000,-0.00000]",6.89901,0.00000,0.00000,0.00000,0.00000,0.00000
17:20:46.341146,2.01807,0.01007,1.35569,"[5.00000,0.00000,0.00000]","[1.00000,0.00000,0.00000]",0.11480,-0.06926,0.02543,0.00000,0.00000,0.02713,-0.01795,0.01244,-0.03428,0.99284,2.00741,1.16728,1.35569,1.97040,1.94982,-0.75287,1.89031,1.93166,-0.75287,1.89031,1.93552,57.68786,11.98133,57.68787729,11.98133546,A,102637.60,"[-0.20000,-0.00000,0.00000]","[-0.10000,-0.00000,-0.00000]",6.91304,0.00000,0.00000,0.00000,0.00000,0.00000
17:20:46.372142,2.04909,0.02275,1.35569,"[5.00000,0.00000,0.00000]","[1.00000,0.00000,0.00000]",0.11320,0.01555,0.03124,0.00000,0.00000,-0.00525,-0.01856,0.01488,-0.01299,1.11642,2.02832,1.13797,1.35569,1.97040,1.94982,-0.75287,1.89031,2.04356,-0.80240,2.00151,1.98985,57.68786,11.98133,57.68787729,11.98133546,A,102637.70,"[-0.20000,-0.00000,0.00000]","[-0.10000,-0.00000,-0.00000]",6.93787,0.00000,0.00000,0.00000,0.00000,0.00000
17:20:46.386847,2.06381,0.00631,1.35569,"[5.00000,0.00000,0.00000]","[1.00000,0.00000,0.00000]",0.11186,0.01454,0.01749,0.00000,0.00000,-0.02022,-0.01886,-0.06210,0.01391,0.95538,2.05702,1.15018,1.35569,1.96492,1.96923,-0.80599,2.02304,2.04356,-0.80240,2.00151,1.98985,57.68786,11.98133,57.68786253,11.98133211,A,102637.70,"[-0.20000,-0.00000,0.00000]","[-0.10000,-0.00000,-0.00000]",6.98007,0.00000,0.00000,0.00000,0.00000,0.00000
17:20:46.394784,2.07176,0.00385,1.35569,"[5.00000,0.00000,0.00000]","[1.00000,0.00000,0.00000]",0.11050,0.01408,0.01826,0.00000,0.00000,-0.00876,-0.02054,-0.11456,0.02891,0.91500,2.06764,1.27717,1.35569,1.96492,1.96923,-0.80599,2.02304,2.04356,-0.80240,2.00151,1.98985,57.68786,11.98133,57.68786253,11.98133211,A,102637.70,"[-0.20000,-0.00000,0.00000]","[-0.10000,-0.00000,-0.00000]",6.99411,0.00000,0.00000,0.00000,0.00000,0.00000
17:20:46.404519,2.08150,0.00332,1.35569,"[5.00000,0.00000,0.00000]","[1.00000,0.00000,0.00000]",0.10926,0.01355,0.02177,0.00000,0.00000,0.00941,-0.02848,-0.07918,0.03392,0.91146,2.07740,1.30647,1.35569,1.96492,1.96923,-0.80599,2.02304,2.04356,-0.80240,2.00151,1.98985,57.68786,11.98133,57.68786253,11.98133211,A,102637.70,"[-0.20000,-0.00000,0.00000]","[-0.10000,-0.00000,-0.00000]",7.00797,0.00000,0.00000,0.00000,0.00000,0.00000
17:20:46.415099,2.09207,0.00349,1.35569,"[5.00000,0.00000,0.00000]","[1.00000,0.00000,0.00000]",0.10755,0.01298,0.01826,0.00000,0.00000,0.02652,-0.02909,-0.01928,0.00592,0.96667,2.08799,1.25763,1.35569,1.96492,1.96923,-0.80599,2.02304,2.04356,-0.80240,2.00151,1.98985,57.68786,11.98133,57.68786253,11.98133211,A,102637.70,"[-0.20000,-0.00000,0.00000]","[-0.10000,-0.00000,-0.00000]",7.02201,0.00000,0.00000,0.00000,0.00000,0.00000
17:20:46.426529,2.10350,0.00452,1.35569,"[5.00000,0.00000,0.00000]","[1.00000,0.00000,0.00000]",0.10551,0.01236,0.02253,0.00000,0.00000,0.00850,-0.02421,0.06698,-0.02434,1.06457,2.09935,1.32845,1.35569,1.96492,1.96923,-0.80599,2.02304,2.04356,-0.80240,2.00151,1.98985,57.68786,11.98133,57.68786253,11.98133211,A,102637.70,"[-0.20000,-0.00000,0.00000]","[-0.10000,-0.00000,-0.00000]",7.03605,0.00000,0.00000,0.00000,0.00000,0.00000
17:20:46.437703,2.11467,0.00528,1.35569,"[5.00000,0.00000,0.00000]","[1.00000,0.00000,0.00000]",0.10338,0.01176,0.01123,0.00000,0.00000,-0.02602,-0.02589,0.01702,-0.02452,1.15003,2.10995,1.32845,1.35569,1.96492,1.96923,-0.80599,2.02304,2.04356,-0.80240,2.00151,1.98985,57.68786,11.98133,57.68786253,11.98133211,A,102637.70,"[-0.20000,-0.00000,0.00000]","[-0.10000,-0.00000,-0.00000]",7.05009,0.00000,0.00000,0.00000,0.00000,0.00000
17:20:46.446363,2.12334,0.00355,1.35569,"[5.00000,0.00000,0.00000]","[1.00000,0.00000,0.00000]",0.10153,0.01111,0.00085,0.00000,0.00000,-0.05198,-0.02512,-0.05008,0.00250,1.17730,2.11921,1.31868,1.35569,1.96492,1.96923,-0.80599,2.02304,2.04356,-0.80240,2.00151,1.98985,57.68786,11.98133,57.68786253,11.98133211,A,102637.70,"[-0.20000,-0.00000,0.00000]","[-0.10000,-0.00000,-0.00000]",7.06412,0.00000,0.00000,0.00000,0.00000,0.00000
17:20:46.456399,2.13337,0.00336,1.35569,"[5.00000,0.00000,0.00000]","[1.00000,0.00000,0.00000]",0.09930,0.01029,0.00329,0.00000,0.00000,-0.05061,-0.02604,-0.04642,-0.03062,1.14570,2.12926,1.28205,1.35569,1.96492,1.96923,-0.80599,2.02304,2.04356,-0.80240,2.00151,1.98985,57.68786,11.98133,57.68786253,11.98133211,A,102637.70,"[-0.20000,-0.00000,0.00000]","[-0.10000,-0.00000,-0.00000]",7.07792,0.00000,0.00000,0.00000,0.00000,0.00000
17:20:46.466931,2.14391,0.00350,1.35569,"[5.00000,0.00000,0.00000]","[1.00000,0.00000,0.00000]",0.09803,0.00924,-0.00435,0.00000,0.00000,-0.05381,-0.02802,-0.03154,0.04124,1.03401,2.13981,1.22344,1.35569,1.96492,1.96923,-0.80599,2.02304,2.04356,-0.80240,2.00151,1.98985,57.68786,11.98133,57.68786253,11.98133211,A,102637.70,"[-0.20000,-0.00000,0.00000]","[-0.10000,-0.00000,-0.00000]",7.09196,0.00000,0.00000,0.00000,0.00000,0.00000
17:20:46.496468,2.17343,0.02278,1.35569,"[5.00000,0.00000,0.00000]","[1.00000,0.00000,0.00000]",0.09631,0.00803,-0.00221,0.00000,0.00000,-0.04312,-0.03322,-0.05441,0.00677,0.90835,2.14990,1.23321,1.35569,1.96492,1.96923,-0.80599,2.02304,2.16674,-0.86184,2.13124,2.00042,57.68786,11.98133,57.68786253,11.98133211,A,102637.80,"[-0.20000,-0.00000,0.00000]","[-0.10000,-0.00000,-0.00000]",7.10577,0.00000,0.00000,0.00000,0.00000,0.00000
17:20:46.511064,2.18803,0.00689,1.35569,"[5.00000,0.00000,0.00000]","[1.00000,0.00000,0.00000]",0.09407,0.00398,0.00008,0.00000,0.00000,0.05080,-0.03780,-0.17050,-0.02275,0.72169,2.18163,1.29426,1.35569,1.97193,1.97312,-0.86980,2.17339,2.16674,-0.86184,2.13124,2.00042,57.68786,11.98133,57.68786388,11.98133103,A,102637.80,"[-0.20000,-0.00000,0.00000]","[-0.10000,-0.00000,-0.00000]",7.14707,0.00000,0.00000,0.00000,0.00000,0.00000
17:20:46.518140,2.19512,0.00352,1.35569,"[5.00000,0.00000,0.00000]","[1.00000,0.00000,0.00000]",0.09232,0.00285,-0.00267,0.00000,0.00000,0.08256,-0.03566,-0.16574,0.00055,0.80191,2.19101,1.29182,1.35569,1.97193,1.97312,-0.86980,2.17339,2.16674,-0.86184,2.13124,2.00042,57.68786,11.98133,57.68786388,11.98133103,A,102637.80,"[-0.20000,-0.00000,0.00000]","[-0.10000,-0.00000,-0.00000]",7.16119,0.00000,0.00000,0.00000,0.00000,0.00000
17:20:46.528839,2.20561,0.00336,1.35569,"[5.00000,0.00000,0.00000]","[1.00000,0.00000,0.00000]",0.09022,0.00180,0.00161,0.00000,0.00000,0.10975,-0.04345,-0.06063,-0.02525,0.91610,2.20150,1.30891,1.35569,1.97193,1.97312,-0.86980,2.17339,2.16674,-0.86184,2.13124,2.00042,57.68786,11.98133,57.68786388,11.98133103,A,102637.80,"[-0.20000,-0.00000,0.00000]","[-0.10000,-0.00000,-0.00000]",7.17557,0.00000,0.00000,0.00000,0.00000,0.00000
17:20:46.539519,2.21650,0.00384,1.35569,"[5.00000,0.00000,0.00000]","[1.00000,0.00000,0.00000]",0.08797,0.00089,-0.00511,0.00000,0.00000,0.10104,-0.03994,0.12371,-0.03550,1.02901,2.21238,1.32357,1.35569,1.97193,1.97312,-0.86980,2.17339,2.16674,-0.86184,2.13124,2.00042,57.68786,11.98133,57.68786388,11.98133103,A,102637.80,"[-0.20000,-0.00000,0.00000]","[-0.10000,-0.00000,-0.00000]",7.18960,0.00000,0.00000,0.00000,0.00000,0.00000
17:20:46.549581,2.22655,0.00350,1.35569,"[5.00000,0.00000,0.00000]","[1.00000,0.00000,0.00000]",0.08616,0.00019,-0.00236,0.00000,0.00000,0.06408,-0.04330,0.18532,-0.01220,1.16461,2.22225,1.22833,1.35569,1.97193,1.97312,-0.86980,2.17339,2.16674,-0.86184,2.13124,2.00042,57.68786,11.98133,57.68786388,11.98133103,A,102637.80,"[-0.20000,-0.00000,0.00000]","[-0.10000,-0.00000,-0.00000]",7.20364,0.00000,0.00000,0.00000,0.00000,0.00000
17:20:46.559991,2.23697,0.00351,1.35569,"[5.00000,0.00000,0.00000]","[1.00000,0.00000,0.00000]",0.08408,-0.00055,-0.01610,0.00000,0.00000,0.00727,-0.04635,0.12700,-0.02672,1.32791,2.23287,1.29426,1.35569,1.97193,1.97312,-0.86980,2.17339,2.16674,-0.86184,2.13124,2.00042,57.68786,11.98133,57.68786388,11.98133103,A,102637.80,"[-0.20000,-0.00000,0.00000]","[-0.10000,-0.00000,-0.00000]",7.21768,0.00000,0.00000,0.00000,0.00000,0.00000
17:20:46.570379,2.24735,0.00349,1.35569,"[5.00000,0.00000,0.00000]","[1.00000,0.00000,0.00000]",0.08237,-0.00131,-0.01717,0.00000,0.00000,-0.01915,-0.05338,0.00116,0.00323,1.34621,2.24324,1.19658,1.35569,1.97193,1.97312,-0.86980,2.17339,2.16674,-0.86184,2.13124,2.00042,57.68786,11.98133,57.68786388,11.98133103,A,102637.80,"[-0.20000,-0.00000,0.00000]","[-0.10000,-0.00000,-0.00000]",7.23172,0.00000,0.00000,0.00000,0.00000,0.00000
17:20:46.580517,2.25749,0.00331,1.35569,"[5.00000,0.00000,0.00000]","[1.00000,0.00000,0.00000]",0.08084,-0.00222,-0.02420,0.00000,0.00000,-0.04358,-0.05139,0.01982,0.02019,1.15870,2.25340,1.27961,1.35569,1.97193,1.97312,-0.86980,2.17339,2.16674,-0.86184,2.13124,2.00042,57.68786,11.98133,57.68786388,11.98133103,A,102637.80,"[-0.20000,-0.00000,0.00000]","[-0.10000,-0.00000,-0.00000]",7.24564,0.00000,0.00000,0.00000,0.00000,0.00000
17:20:46.608198,2.28517,0.02058,1.35569,"[5.00000,0.00000,0.00000]","[1.00000,0.00000,0.00000]",0.07972,-0.00329,-0.02008,0.00000,0.00000,-0.05015,-0.04803,-0.00268,0.04081,1.00644,2.26398,1.24786,1.35569,1.97193,1.97312,-0.86980,2.17339,2.27934,-0.90146,2.26096,1.86724,57.68786,11.98133,57.68786388,11.98133103,A,102637.90,"[-0.20000,-0.00000,0.00000]","[-0.10000,-0.00000,-0.00000]",7.25967,0.00000,0.00000,0.00000,0.00000,0.00000
17:20:46.625898,2.30287,0.00810,1.35569,"[5.00000,0.00000,0.00000]","[1.00000,0.00000,0.00000]",0.07844,-0.00646,-0.00862,0.00000,0.00000,-0.00128,-0.04055,-0.12206,0.02513,0.78281,2.29534,1.20635,1.35569,1.95699,1.95507,-0.92815,2.31118,2.27934,-0.90146,2.26096,1.86724,57.68786,11.98133,57.68786512,11.98133005,A,102637.90,"[-0.20000,-0.00000,0.00000]","[-0.10000,-0.00000,-0.00000]",7.30055,0.00000,0.00000,0.00000,0.00000,0.00000
17:20:46.631593,2.30857,0.00351,1.35569,"[5.00000,0.00000,0.00000]","[1.00000,0.00000,0.00000]",0.07641,-0.00743,-0.01137,0.00000,0.00000,0.01109,-0.03749,-0.08668,-0.02611,0.85211,2.30448,1.21368,1.35569,1.95699,1.95507,-0.92815,2.31118,2.27934,-0.90146,2.26096,1.86724,57.68786,11.98133,57.68786512,11.98133005,A,102637.90,"[-0.20000,-0.00000,0.00000]","[-0.10000,-0.00000,-0.00000]",7.31445,0.00000,0.00000,0.00000,0.00000,0.00000
17:20:46.642222,2.31920,0.00352,1.35569,"[5.00000,0.00000,0.00000]","[1.00000,0.00000,0.00000]",0.07419,-0.00825,-0.01855,0.00000,0.00000,0.02896,-0.04131,-0.10974,-0.04148,1.06103,2.31508,1.32357,1.35569,1.95699,1.95507,-0.92815,2.31118,2.27934,-0.90146,2.26096,1.86724,57.68786,11.98133,57.68786512,11.98133005,A,102637.90,"[-0.20000,-0.00000,0.00000]","[-0.10000,-0.00000,-0.00000]",7.32878,0.00000,0.00000,0.00000,0.00000,0.00000
17:20:46.652509,2.32948,0.00331,1.35569,"[5.00000,0.00000,0.00000]","[1.00000,0.00000,0.00000]",0.07174,-0.00893,-0.01733,0.00000,0.00000,0.02972,-0.04467,-0.00098,-0.06820,1.18206,2.32539,1.22344,1.35569,1.95699,1.95507,-0.92815,2.31118,2.27934,-0.90146,2.26096,1.86724,57.68786,11.98133,57.68786512,11.98133005,A,102637.90,"[-0.20000,-0.00000,0.00000]","[-0.10000,-0.00000,-0.00000]",7.34293,0.00000,0.00000,0.00000,0.00000,0.00000
17:20:46.663095,2.34007,0.00349,1.35569,"[5.00000,0.00000,0.00000]","[1.00000,0.00000,0.00000]",0.07003,-0.00941,-0.03672,0.00000,0.00000,0.01369,-0.05383,0.07509,0.00390,1.22579,2.33597,1.36020,1.35569,1.95699,1.95507,-0.92815,2.31118,2.27934,-0.90146,2.26096,1.86724,57.68786,11.98133,57.68786512,11.98133005,A,102637.90,"[-0.20000,-0.00000,0.00000]","[-0.10000,-0.00000,-0.00000]",7.35697,0.00000,0.00000,0.00000,0.00000,0.00000
17:20:46.673974,2.35096,0.00397,1.35569,"[5.00000,0.00000,0.00000]","[1.00000,0.00000,0.00000]",0.06851,-0.00972,-0.02924,0.00000,0.00000,-0.01212,-0.05796,0.03514,0.01141,1.19841,2.34681,1.02076,1.35569,1.95699,1.95507,-0.92815,2.31118,2.27934,-0.90146,2.26096,1.86724,57.68786,11.98133,57.68786512,11.98133005,A,102637.90,"[-0.20000,-0.00000,0.00000]","[-0.10000,-0.00000,-0.00000]",7.37101,0.00000,0.00000,0.00000,0.00000,0.00000
17:20:46.683919,2.36090,0.00350,1.39593,"[5.00000,0.00000,0.00000]","[1.00000,0.00000,0.00000]",0.06724,-0.00978,-0.02939,0.00000,0.00000,-0.02907,-0.06223,-0.00451,0.02434,1.08244,2.35679,1.38462,1.35569,1.95699,1.95507,-0.92815,2.31118,2.27934,-0.90146,2.26096,1.86724,57.68786,11.98133,57.68786512,11.98133005,A,102637.90,"[-0.20000,-0.00000,0.00000]","[-0.10000,-0.00000,-0.00000]",7.38505,0.00000,0.00000,0.00000,0.00000,0.00000
17:20:46.694315,2.37129,0.00348,1.39593,"[5.00000,0.00000,0.00000]","[1.00000,0.00000,0.00000]",0.06573,-0.00978,-0.02466,0.00000,0.00000,-0.03992,-0.06025,-0.03886,0.00213,0.91640,2.36718,1.29182,1.35569,1.95699,1.95507,-0.92815,2.31118,2.27934,-0.90146,2.26096,1.86724,57.68786,11.98133,57.68786512,11.98133005,A,102637.90,"[-0.20000,-0.00000,0.00000]","[-0.10000,-0.00000,-0.00000]",7.39951,0.00000,0.00000,0.00000,0.00000,0.00000
17:20:46.734097,2.41106,0.03288,1.39593,"[5.00000,0.00000,0.00000]","[1.00000,0.00000,0.00000]",0.06375,-0.00978,-0.02603,0.00000,0.00000,-0.04221,-0.05185,-0.07186,-0.02355,0.80368,2.37740,1.25763,1.35569,1.95699,1.95507,-0.92815,2.31118,2.40359,-1.00053,2.52042,1.93552,57.68787,11.98133,57.68786512,11.98133005,A,102638.10,"[-0.20000,-0.00000,0.00000]","[-0.10000,-0.00000,-0.00000]",7.41392,0.00000,0.00000,0.00000,0.00000,0.00000
17:20:46.756144,2.43239,0.00874,1.39593,"[5.00000,0.00000,0.00000]","[1.00000,0.00000,0.00000]",0.06127,-0.01051,-0.03367,0.00000,0.00000,-0.00174,-0.04131,-0.10309,0.02727,1.14107,2.42545,1.07937,1.36374,1.95337,1.95025,-0.99323,2.47362,2.40359,-1.00053,2.52042,1.93552,57.68787,11.98133,57.68786658,11.98132896,A,102638.10,"[-0.20000,-0.00000,0.00000]","[-0.10000,-0.00000,-0.00000]",7.47735,0.00000,0.00000,0.00000,0.00000,0.00000
17:20:46.761139,2.43811,0.00352,1.39593,"[5.00000,0.00000,0.00000]","[1.00000,0.00000,0.00000]",0.05980,-0.01068,-0.02374,0.00000,0.00000,0.01552,-0.04635,-0.10199,-0.00512,1.21030,2.43379,1.33089,1.36374,1.95337,1.95025,-0.99323,2.47362,2.40359,-1.00053,2.52042,1.93552,57.68787,11.98133,57.68786658,11.98132896,A,102638.10,"[-0.20000,-0.00000,0.00000]","[-0.10000,-0.00000,-0.00000]",7.49259,0.00000,0.00000,0.00000,0.00000,0.00000
17:20:46.771550,2.44853,0.00354,1.39593,"[5.00000,0.00000,0.00000]","[1.00000,0.00000,0.00000]",0.05822,-0.01077,-0.02679,0.00000,0.00000,0.01338,-0.05353,0.03733,-0.00939,1.22933,2.44442,2.95482,1.36374,1.95337,1.95025,-0.99323,2.47362,2.40359,-1.00053,2.52042,1.93552,57.68787,11.98133,57.68786658,11.98132896,A,102638.10,"[-0.20000,-0.00000,0.00000]","[-0.10000,-0.00000,-0.00000]",7.50705,0.00000,0.00000,0.00000,0.00000,0.00000
17:20:46.781939,2.45891,0.00352,1.39593,"[5.00000,0.00000,0.00000]","[1.00000,0.00000,0.00000]",0.05674,-0.01077,-0.03122,0.00000,0.00000,-0.00158,-0.05765,0.06130,0.00049,1.17657,2.45480,3.11111,1.36374,1.95337,1.95025,-0.99323,2.47362,2.40359,-1.00053,2.52042,1.93552,57.68787,11.98133,57.68786658,11.98132896,A,102638.10,"[-0.20000,-0.00000,0.00000]","[-0.10000,-0.00000,-0.00000]",7.52150,0.00000,0.00000,0.00000,0.00000,0.00000
17:20:46.792971,2.46993,0.00428,1.39593,"[5.00000,0.00000,0.00000]","[1.00000,0.00000,0.00000]",0.05493,-0.01077,-0.04008,0.00000,0.00000,-0.01976,-0.05215,0.03428,-0.01665,1.05542,2.46559,3.13553,1.36374,1.95337,1.95025,-0.99323,2.47362,2.40359,-1.00053,2.52042,1.93552,57.68787,11.98133,57.68786658,11.98132896,A,102638.10,"[-0.20000,-0.00000,0.00000]","[-0.10000,-0.00000,-0.00000]",7.53574,0.00000,0.00000,0.00000,0.00000,0.00000
17:20:46.806429,2.48340,0.00734,1.39593,"[5.00000,0.00000,0.00000]","[1.00000,0.00000,0.00000]",0.05385,-0.01077,-0.04252,0.00000,0.00000,-0.04007,-0.04146,-0.02470,0.03434,0.89450,2.47872,3.13797,1.36374,1.95337,1.95025,-0.99323,2.47362,2.40359,-1.00053,2.52042,1.93552,57.68787,11.98133,57.68786658,11.98132896,A,102638.10,"[-0.20000,-0.00000,0.00000]","[-0.10000,-0.00000,-0.00000]",7.55021,0.00000,0.00000,0.00000,0.00000,0.00000
17:20:46.812867,2.48963,0.00333,1.39593,"[5.00000,0.00000,0.00000]","[1.00000,0.00000,0.00000]",0.05241,-0.01077,-0.03474,0.00000,0.00000,-0.04098,-0.03795,-0.08333,-0.00671,0.86156,2.48552,3.16484,1.36374,1.95337,1.95025,-0.99323,2.47362,2.40359,-1.00053,2.52042,1.93552,57.68787,11.98133,57.68786658,11.98132896,A,102638.10,"[-0.20000,-0.00000,0.00000]","[-0.10000,-0.00000,-0.00000]",7.56443,0.00000,0.00000,0.00000,0.00000,0.00000
17:20:46.823334,2.50031,0.00361,1.39593,"[5.00000,0.00000,0.00000]","[1.00000,0.00000,0.00000]",0.05142,-0.01077,-0.03061,0.00000,0.00000,-0.02587,-0.02711,-0.11029,0.02214,0.83161,2.49610,3.13797,1.36374,1.95337,1.95025,-0.99323,2.47362,2.40359,-1.00053,2.52042,1.93552,57.68787,11.98133,57.68786658,11.98132896,A,102638.10,"[-0.20000,-0.00000,0.00000]","[-0.10000,-0.00000,-0.00000]",7.57889,0.00000,0.00000,0.00000,0.00000,0.00000
17:20:46.850946,2.52791,0.02081,1.39593,"[5.00000,0.00000,0.00000]","[1.00000,0.00000,0.00000]",0.04961,-0.01077,-0.02466,0.00000,0.00000,-0.01029,-0.02161,-0.13926,-0.02965,0.86791,2.50631,3.14042,1.36374,1.95337,1.95025,-0.99323,2.47362,2.52167,-1.06987,2.61308,2.21324,57.68787,11.98133,57.68786658,11.98132896,A,102638.20,"[-0.20000,-0.00000,0.00000]","[-0.10000,-0.00000,-0.00000]",7.59335,0.00000,0.00000,0.00000,0.00000,0.00000
17:20:46.865738,2.54271,0.00693,1.39593,"[5.00000,0.00000,0.00000]","[1.00000,0.00000,0.00000]",0.04711,-0.01077,-0.03321,0.00000,0.00000,0.00590,-0.03138,0.03361,-0.03422,1.06536,2.53633,3.16972,1.37017,1.99163,1.98843,-1.04901,2.61086,2.52167,-1.06987,2.61308,2.21324,57.68787,11.98133,57.68786781,11.98132802,A,102638.20,"[-0.20000,-0.00000,0.00000]","[-0.10000,-0.00000,-0.00000]",7.63334,0.00000,0.00000,0.00000,0.00000,0.00000
17:20:46.872500,2.54948,0.00331,1.39593,"[5.00000,0.00000,0.00000]","[1.00000,0.00000,0.00000]",0.04578,-0.01077,-0.03565,0.00000,0.00000,-0.00617,-0.03673,-0.09827,-0.00116,1.13326,2.54538,3.14774,1.37017,1.99163,1.98843,-1.04901,2.61086,2.52167,-1.06987,2.61308,2.21324,57.68787,11.98133,57.68786781,11.98132802,A,102638.20,"[-0.20000,-0.00000,0.00000]","[-0.10000,-0.00000,-0.00000]",7.64777,0.00000,0.00000,0.00000,0.00000,0.00000
17:20:46.883093,2.56007,0.00350,1.39593,"[5.00000,0.00000,0.00000]","[1.00000,0.00000,0.00000]",0.04449,-0.01077,-0.03458,0.00000,0.00000,-0.00342,-0.04162,-0.00403,0.00433,1.17004,2.55598,3.14042,1.37017,1.99163,1.98843,-1.04901,2.61086,2.52167,-1.06987,2.61308,2.21324,57.68787,11.98133,57.68786781,11.98132802,A,102638.20,"[-0.20000,-0.00000,0.00000]","[-0.10000,-0.00000,-0.00000]",7.66223,0.00000,0.00000,0.00000,0.00000,0.00000
17:20:46.893518,2.57049,0.00352,1.39593,"[5.00000,0.00000,0.00000]","[1.00000,0.00000,0.00000]",0.04339,-0.01074,-0.02893,0.00000,0.00000,-0.01960,-0.04207,0.10620,0.01074,1.08684,2.56616,2.03907,1.37017,1.99163,1.98843,-1.04901,2.61086,2.52167,-1.06987,2.61308,2.21324,57.68787,11.98133,57.68786781,11.98132802,A,102638.20,"[-0.20000,-0.00000,0.00000]","[-0.10000,-0.00000,-0.00000]",7.67668,0.00000,0.00000,0.00000,0.00000,0.00000
17:20:46.904024,2.58100,0.00350,1.39593,"[5.00000,0.00000,0.00000]","[1.00000,0.00000,0.00000]",0.04197,-0.01054,-0.03581,0.00000,0.00000,-0.05274,-0.03917,0.00689,-0.00689,1.00705,2.57690,1.44811,1.37017,1.99163,1.98843,-1.04901,2.61086,2.52167,-1.06987,2.61308,2.21324,57.68787,11.98133,57.68786781,11.98132802,A,102638.20,"[-0.20000,-0.00000,0.00000]","[-0.10000,-0.00000,-0.00000]",7.69132,0.00000,0.00000,0.00000,0.00000,0.00000
17:20:46.914364,2.59134,0.00343,1.39593,"[5.00000,0.00000,0.00000]","[1.00000,0.00000,0.00000]",0.04116,-0.01006,-0.03565,0.00000,0.00000,-0.06328,-0.02619,0.01861,0.02922,0.93098,2.58724,1.28694,1.37017,1.99163,1.98843,-1.04901,2.61086,2.52167,-1.06987,2.61308,2.21324,57.68787,11.98133,57.68786781,11.98132802,A,102638.20,"[-0.20000,-0.00000,0.00000]","[-0.10000,-0.00000,-0.00000]",7.70577,0.00000,0.00000,0.00000,0.00000,0.00000
17:20:46.924536,2.60152,0.00333,1.39593,"[5.00000,0.00000,0.00000]","[1.00000,0.00000,0.00000]",0.04007,-0.00932,-0.03397,0.00000,0.00000,-0.06206,-0.01520,-0.10303,0.00952,0.92104,2.59741,1.31380,1.37017,1.99163,1.98843,-1.04901,2.61086,2.52167,-1.06987,2.61308,2.21324,57.68787,11.98133,57.68786781,11.98132802,A,102638.20,"[-0.20000,-0.00000,0.00000]","[-0.10000,-0.00000,-0.00000]",7.72004,0.00000,0.00000,0.00000,0.00000,0.00000
17:20:46.935108,2.61208,0.00349,1.39593,"[5.00000,0.00000,0.00000]","[1.00000,0.00000,0.00000]",0.03923,-0.00847,-0.02863,0.00000,0.00000,-0.03793,-0.00909,-0.16793,0.02105,0.90841,2.60799,1.20147,1.37017,1.99163,1.98843,-1.04901,2.61086,2.52167,-1.06987,2.61308,2.21324,57.68787,11.98133,57.68786781,11.98132802,A,102638.20,"[-0.20000,-0.00000,0.00000]","[-0.10000,-0.00000,-0.00000]",7.73450,0.00000,0.00000,0.00000,0.00000,0.00000
17:20:46.945638,2.62261,0.00361,1.39593,"[5.00000,0.00000,0.00000]","[1.00000,0.00000,0.00000]",0.03849,-0.00765,-0.02420,0.00000,0.00000,-0.00830,-0.01077,-0.12706,0.02458,0.94898,2.61819,1.18681,1.37017,1.99163,1.98843,-1.04901,2.61086,2.52167,-1.06987,2.61308,2.21324,57.68787,11.98133,57.68786781,11.98132802,A,102638.20,"[-0.20000,-0.00000,0.00000]","[-0.10000,-0.00000,-0.00000]",7.74896,0.00000,0.00000,0.00000,0.00000,0.00000
17:20:46.973319,2.65028,0.02088,1.39593,"[5.00000,0.00000,0.00000]","[1.00000,0.00000,0.00000]",0.03707,-0.00692,-0.01366,0.00000,0.00000,0.01231,-0.01718,-0.01318,-0.02562,0.94733,2.62896,1.30891,1.37017,1.99163,1.98843,-1.04901,2.61086,2.64425,-1.10949,2.76134,1.83196,57.68787,11.98133,57.68786781,11.98132802,A,102638.30,"[-0.20000,-0.00000,0.00000]","[-0.10000,-0.00000,-0.00000]",7.76341,0.00000,0.00000,0.00000,0.00000,0.00000
17:20:46.987152,2.66412,0.00795,1.39593,"[5.00000,0.00000,0.00000]","[1.00000,0.00000,0.00000]",0.03510,-0.00516,-0.02847,0.00000,0.00000,-0.00953,-0.02940,-0.04898,-0.02251,1.11435,2.65769,1.30159,1.37533,1.96654,1.96500,-1.11513,2.76058,2.64425,-1.10949,2.76134,1.83196,57.68787,11.98133,57.68786916,11.98132691,A,102638.30,"[-0.20000,-0.00000,0.00000]","[-0.10000,-0.00000,-0.00000]",7.80075,0.00000,0.00000,0.00000,0.00000,0.00000
17:20:46.992898,2.66966,0.00331,1.39593,"[5.00000,0.00000,0.00000]","[1.00000,0.00000,0.00000]",0.03447,-0.00443,-0.02679,0.00000,0.00000,-0.01304,-0.03154,-0.02745,0.03001,1.10166,2.66555,1.32112,1.37533,1.96654,1.96500,-1.11513,2.76058,2.64425,-1.10949,2.76134,1.83196,57.68787,11.98133,57.68786916,11.98132691,A,102638.30,"[-0.20000,-0.00000,0.00000]","[-0.10000,-0.00000,-0.00000]",7.81491,0.00000,0.00000,0.00000,0.00000,0.00000
17:20:47.003627,2.68060,0.00385,1.39593,"[5.00000,0.00000,0.00000]","[1.00000,0.00000,0.00000]",0.03284,-0.00338,-0.03031,0.00000,0.00000,-0.02877,-0.02222,0.00415,-0.03367,1.06195,2.67648,1.22344,1.37533,1.96654,1.96500,-1.11513,2.76058,2.64425,-1.10949,2.76134,1.83196,57.68787,11.98133,57.68786916,11.98132691,A,102638.30,"[-0.20000,-0.00000,0.00000]","[-0.10000,-0.00000,-0.00000]",7.82936,0.00000,0.00000,0.00000,0.00000,0.00000
17:20:47.013866,2.69084,0.00368,1.39593,"[5.00000,0.00000,0.00000]","[1.00000,0.00000,0.00000]",0.03176,-0.00219,-0.02802,0.00000,0.00000,-0.03182,-0.01856,-0.01842,0.00030,1.05829,2.68672,1.29670,1.37533,1.96654,1.96500,-1.11513,2.76058,2.64425,-1.10949,2.76134,1.83196,57.68787,11.98133,57.68786916,11.98132691,A,102638.30,"[-0.20000,-0.00000,0.00000]","[-0.10000,-0.00000,-0.00000]",7.84382,0.00000,0.00000,0.00000,0.00000,0.00000
17:20:47.024107,2.70109,0.00352,1.39593,"[5.00000,0.00000,0.00000]","[1.00000,0.00000,0.00000]",0.03003,-0.00103,-0.02450,0.00000,0.00000,-0.03197,-0.01092,-0.07119,-0.04709,1.02382,2.69697,1.25519,1.37533,1.96654,1.96500,-1.11513,2.76058,2.64425,-1.10949,2.76134,1.83196,57.68787,11.98133,57.68786916,11.98132691,A,102638.30,"[-0.20000,-0.00000,0.00000]","[-0.10000,-0.00000,-0.00000]",7.85828,0.00000,0.00000,0.00000,0.00000,0.00000
17:20:47.034381,2.71136,0.00339,1.39593,"[5.00000,0.00000,0.00000]","[1.00000,0.00000,0.00000]",0.02913,-0.00010,-0.02053,0.00000,0.00000,-0.01792,-0.01138,-0.03068,0.00445,0.93464,2.70724,1.20147,1.37533,1.96654,1.96500,-1.11513,2.76058,2.64425,-1.10949,2.76134,1.83196,57.68787,11.98133,57.68786916,11.98132691,A,102638.30,"[-0.20000,-0.00000,0.00000]","[-0.10000,-0.00000,-0.00000]",7.87274,0.00000,0.00000,0.00000,0.00000,0.00000
17:20:47.044548,2.72153,0.00333,1.39593,"[5.00000,0.00000,0.00000]","[1.00000,0.00000,0.00000]",0.02760,0.00058,-0.02313,0.00000,0.00000,-0.00464,-0.01077,-0.06838,-0.03184,0.87590,2.71742,1.26007,1.37533,1.96654,1.96500,-1.11513,2.76058,2.64425,-1.10949,2.76134,1.83196,57.68787,11.98133,57.68786916,11.98132691,A,102638.30,"[-0.20000,-0.00000,0.00000]","[-0.10000,-0.00000,-0.00000]",7.88695,0.00000,0.00000,0.00000,0.00000,0.00000
17:20:47.057501,2.73447,0.00586,1.39593,"[5.00000,0.00000,0.00000]","[1.00000,0.00000,0.00000]",0.02638,0.00098,-0.02832,0.00000,0.00000,-0.00983,-0.00909,-0.04105,-0.00805,0.86266,2.72973,1.52137,1.37533,1.96654,1.96500,-1.11513,2.76058,2.64425,-1.10949,2.76134,1.83196,57.68787,11.98133,57.68786916,11.98132691,A,102638.30,"[-0.20000,-0.00000,0.00000]","[-0.10000,-0.00000,-0.00000]",7.90141,0.00000,0.00000,0.00000,0.00000,0.00000
17:20:47.065527,2.74250,0.00349,1.39593,"[5.00000,0.00000,0.00000]","[1.00000,0.00000,0.00000]",0.02571,0.00109,-0.02817,0.00000,0.00000,-0.01288,-0.01153,0.01074,0.01555,0.86260,2.73819,0.98413,1.37533,1.96654,1.96500,-1.11513,2.76058,2.64425,-1.10949,2.76134,1.83196,57.68787,11.98133,57.68786916,11.98132691,A,102638.30,"[-0.20000,-0.00000,0.00000]","[-0.10000,-0.00000,-0.00000]",7.91587,0.00000,0.00000,0.00000,0.00000,0.00000
17:20:47.093334,2.77030,0.02089,1.39593,"[5.00000,0.00000,0.00000]","[1.00000,0.00000,0.00000]",0.02474,0.00112,-0.02420,0.00000,0.00000,-0.02296,-0.01459,0.01135,-0.00030,0.93653,2.74889,2.80098,1.37533,1.96654,1.96500,-1.11513,2.76058,2.76411,-1.17884,2.90960,2.00828,57.68787,11.98133,57.68786916,11.98132691,A,102638.40,"[-0.20000,-0.00000,0.00000]","[-0.10000,-0.00000,-0.00000]",7.93032,0.00000,0.00000,0.00000,0.00000,0.00000
17:20:47.110618,2.78759,0.00887,1.39593,"[5.00000,0.00000,0.00000]","[1.00000,0.00000,0.00000]",0.02244,0.00149,-0.02802,0.00000,0.00000,-0.00830,-0.01397,-0.05557,-0.05917,1.15443,2.77962,1.37973,1.37945,1.97207,1.97251,-1.17844,2.91255,2.76411,-1.17884,2.90960,2.00828,57.68787,11.98133,57.68787053,11.98132584,A,102638.40,"[-0.20000,-0.00000,0.00000]","[-0.10000,-0.00000,-0.00000]",7.97119,0.00000,0.00000,0.00000,0.00000,0.00000
17:20:47.115354,2.79234,0.00357,1.39593,"[5.00000,0.00000,0.00000]","[1.00000,0.00000,0.00000]",0.02130,0.00180,-0.03183,0.00000,0.00000,-0.00082,-0.01138,-0.05807,-0.01598,1.13277,2.78823,1.35287,1.37945,1.97207,1.97251,-1.17844,2.91255,2.76411,-1.17884,2.90960,2.00828,57.68787,11.98133,57.68787053,11.98132584,A,102638.40,"[-0.20000,-0.00000,0.00000]","[-0.10000,-0.00000,-0.00000]",7.98519,0.00000,0.00000,0.00000,0.00000,0.00000
17:20:47.125707,2.80268,0.00352,1.39593,"[5.00000,0.00000,0.00000]","[1.00000,0.00000,0.00000]",0.02021,0.00228,-0.03229,0.00000,0.00000,0.00651,-0.01413,-0.01635,-0.00921,1.05743,2.79835,1.34066,1.37945,1.97207,1.97251,-1.17844,2.91255,2.76411,-1.17884,2.90960,2.00828,57.68787,11.98133,57.68787053,11.98132584,A,102638.40,"[-0.20000,-0.00000,0.00000]","[-0.10000,-0.00000,-0.00000]",7.99964,0.00000,0.00000,0.00000,0.00000,0.00000
17:20:47.135854,2.81283,0.00348,1.59584,"[5.00000,0.00000,0.00000]","[1.00000,0.00000,0.00000]",0.01981,0.00282,-0.02099,0.00000,0.00000,-0.00235,-0.01367,-0.02611,0.03038,1.01595,2.80874,1.33822,1.37945,1.97207,1.97251,-1.17844,2.91255,2.76411,-1.17884,2.90960,2.00828,57.68787,11.98133,57.68787053,11.98132584,A,102638.40,"[-0.20000,-0.00000,0.00000]","[-0.10000,-0.00000,-0.00000]",8.01382,0.00000,0.00000,0.00000,0.00000,0.00000
17:20:47.146267,2.82325,0.00349,1.59584,"[5.00000,0.00000,0.00000]","[1.00000,0.00000,0.00000]",0.01870,0.00333,-0.01702,0.00000,0.00000,-0.00937,-0.00970,-0.02678,-0.02025,0.97277,2.81913,1.18437,1.37945,1.97207,1.97251,-1.17844,2.91255,2.76411,-1.17884,2.90960,2.00828,57.68787,11.98133,57.68787053,11.98132584,A,102638.40,"[-0.20000,-0.00000,0.00000]","[-0.10000,-0.00000,-0.00000]",8.03035,0.00000,0.00000,0.00000,0.00000,0.00000
17:20:47.157373,2.83434,0.00417,1.59584,"[5.00000,0.00000,0.00000]","[1.00000,0.00000,0.00000]",0.01776,0.00375,-0.01717,0.00000,0.00000,-0.01854,-0.00680,-0.02867,-0.00988,0.94684,2.82955,1.35775,1.37945,1.97207,1.97251,-1.17844,2.91255,2.76411,-1.17884,2.90960,2.00828,57.68787,11.98133,57.68787053,11.98132584,A,102638.40,"[-0.20000,-0.00000,0.00000]","[-0.10000,-0.00000,-0.00000]",8.04690,0.00000,0.00000,0.00000,0.00000,0.00000
17:20:47.167113,2.84409,0.00352,1.59584,"[5.00000,0.00000,0.00000]","[1.00000,0.00000,0.00000]",0.01533,0.00404,-0.01183,0.00000,0.00000,-0.03197,-0.00420,-0.00933,-0.11273,0.98320,2.83999,1.03297,1.37945,1.97207,1.97251,-1.17844,2.91255,2.76411,-1.17884,2.90960,2.00828,57.68787,11.98133,57.68787053,11.98132584,A,102638.40,"[-0.20000,-0.00000,0.00000]","[-0.10000,-0.00000,-0.00000]",8.06342,0.00000,0.00000,0.00000,0.00000,0.00000
17:20:47.177507,2.85448,0.00351,1.59584,"[5.00000,0.00000,0.00000]","[1.00000,0.00000,0.00000]",0.01377,0.00412,-0.01687,0.00000,0.00000,-0.03915,-0.00542,-0.01610,-0.05173,0.93312,2.85016,0.58608,1.37945,1.97207,1.97251,-1.17844,2.91255,2.76411,-1.17884,2.90960,2.00828,57.68787,11.98133,57.68787053,11.98132584,A,102638.40,"[-0.20000,-0.00000,0.00000]","[-0.10000,-0.00000,-0.00000]",8.07995,0.00000,0.00000,0.00000,0.00000,0.00000
17:20:47.217153,2.89411,0.03274,1.59584,"[5.00000,0.00000,0.00000]","[1.00000,0.00000,0.00000]",0.01243,0.00412,-0.01778,0.00000,0.00000,-0.03488,-0.00222,-0.15360,-0.04258,1.02876,2.86078,0.21490,1.37945,1.97207,1.97251,-1.17844,2.91255,2.88784,-1.29771,3.13199,2.06169,57.68787,11.98132,57.68787053,11.98132584,A,102638.60,"[-0.20000,-0.00000,0.00000]","[-0.10000,-0.00000,-0.00000]",8.09647,0.00000,0.00000,0.00000,0.00000,0.00000
17:20:47.236502,2.91347,0.01012,13.01164,"[5.00000,0.00000,0.00000]","[1.00000,0.00000,0.00000]",0.01026,0.00423,-0.01336,0.00000,0.00000,0.06195,-0.02482,0.03575,0.00226,1.07299,2.90693,0.10989,3.70588,1.98552,1.98678,-1.24777,3.07269,2.88784,-1.29771,3.13199,2.06169,57.68787,11.98132,57.68787197,11.98132467,A,102638.60,"[-0.20000,-0.00000,0.00000]","[-0.10000,-0.00000,-0.00000]",8.16340,0.00000,0.00000,0.00000,0.00000,0.00000
17:20:47.252844,2.92961,0.00666,13.01164,"[5.00000,0.00000,0.00000]","[1.00000,0.00000,0.00000]",0.00783,0.00494,-0.00709,0.00000,0.00000,0.01353,-0.02054,0.02056,-0.03428,0.87663,2.92546,1.10867,3.70588,1.98552,1.98678,-1.24777,3.07269,2.88784,-1.29771,3.13199,2.06169,57.68787,11.98132,57.68787197,11.98132467,A,102638.60,"[-0.20000,-0.00000,0.00000]","[-0.10000,-0.00000,-0.00000]",8.44737,0.00000,0.00000,0.00000,0.00000,0.00000
17:20:47.264002,2.94097,0.00762,13.01164,"[5.00000,0.00000,0.00000]","[1.00000,0.00000,0.00000]",0.00642,0.00551,-0.00587,0.00000,0.00000,-0.01502,-0.00481,-0.00024,0.03257,0.80441,2.93683,1.12332,3.70588,1.98552,1.98678,-1.24777,3.07269,2.88784,-1.29771,3.13199,2.06169,57.68787,11.98132,57.68787197,11.98132467,A,102638.60,"[-0.20000,-0.00000,0.00000]","[-0.10000,-0.00000,-0.00000]",8.58218,0.00000,0.00000,0.00000,0.00000,0.00000
17:20:47.273679,2.95065,0.00690,13.01164,"[5.00000,0.00000,0.00000]","[1.00000,0.00000,0.00000]",0.00398,0.00605,-0.00740,0.00000,0.00000,-0.03197,0.00282,-0.01165,-0.00976,0.75298,2.94627,1.30891,3.70588,1.98552,1.98678,-1.24777,3.07269,2.88784,-1.29771,3.13199,2.06169,57.68787,11.98132,57.68787197,11.98132467,A,102638.60,"[-0.20000,-0.00000,0.00000]","[-0.10000,-0.00000,-0.00000]",8.71689,0.00000,0.00000,0.00000,0.00000,0.00000
17:20:47.282195,2.95917,0.00501,13.01164,"[5.00000,0.00000,0.00000]","[1.00000,0.00000,0.00000]",0.00170,0.00644,-0.00038,0.00000,0.00000,-0.03640,0.00450,0.01348,0.00390,0.71937,2.95502,1.41148,3.70588,1.98552,1.98678,-1.24777,3.07269,2.88784,-1.29771,3.13199,2.06169,57.68787,11.98132,57.68787197,11.98132467,A,102638.60,"[-0.20000,-0.00000,0.00000]","[-0.10000,-0.00000,-0.00000]",8.85170,0.00000,0.00000,0.00000,0.00000,0.00000
17:20:47.293104,2.97007,0.00551,13.01164,"[5.00000,0.00000,0.00000]","[1.00000,0.00000,0.00000]",-0.00195,0.00661,0.00696,0.00000,0.00000,-0.04312,0.00481,0.02074,-0.07039,0.73346,2.96572,0.83272,3.70588,1.98552,1.98678,-1.24777,3.07269,2.88784,-1.29771,3.13199,2.06169,57.68787,11.98132,57.68787197,11.98132467,A,102638.60,"[-0.20000,-0.00000,0.00000]","[-0.10000,-0.00000,-0.00000]",8.98643,0.00000,0.00000,0.00000,0.00000,0.00000
17:20:47.305423,2.98239,0.00743,13.01164,"[5.00000,0.00000,0.00000]","[1.00000,0.00000,0.00000]",-0.00450,0.00661,-0.00786,0.00000,0.00000,-0.04877,0.00008,-0.04301,-0.03172,0.88926,2.97800,0.22711,3.70588,1.98552,1.98678,-1.24777,3.07269,2.88784,-1.29771,3.13199,2.06169,57.68787,11.98132,57.68787197,11.98132467,A,102638.60,"[-0.20000,-0.00000,0.00000]","[-0.10000,-0.00000,-0.00000]",9.12115,0.00000,0.00000,0.00000,0.00000,0.00000
17:20:47.336338,3.01330,0.02793,13.01164,"[5.00000,0.00000,0.00000]","[1.00000,0.00000,0.00000]",-0.00647,0.00661,-0.00984,0.00000,0.00000,-0.03625,-0.01107,-0.08632,-0.01745,1.07384,2.98966,0.11233,3.70588,1.98552,1.98678,-1.24777,3.07269,3.00873,-1.35715,3.26172,2.00042,57.68787,11.98132,57.68787197,11.98132467,A,102638.70,"[-0.20000,-0.00000,0.00000]","[-0.10000,-0.00000,-0.00000]",9.25595,0.00000,0.00000,0.00000,0.00000,0.00000
17:20:47.354103,3.03108,0.00892,13.01164,"[5.00000,0.00000,0.00000]","[1.00000,0.00000,0.00000]",-0.00861,0.00661,-0.01015,0.00000,0.00000,0.00682,-0.03047,0.12901,-0.03013,1.21414,3.02464,0.06838,5.56704,1.98887,1.99083,-1.41752,3.45403,3.00873,-1.35715,3.26172,2.00042,57.68787,11.98132,57.68787540,11.98132182,A,102638.70,"[-0.20000,-0.00000,0.00000]","[-0.10000,-0.00000,-0.00000]",9.73417,0.00000,0.00000,0.00000,0.00000,0.00000
17:20:47.361868,3.03884,0.00659,13.01164,"[5.00000,0.00000,0.00000]","[1.00000,0.00000,0.00000]",-0.01105,0.00661,-0.01198,0.00000,0.00000,-0.01609,-0.02421,0.06728,-0.05331,1.05463,3.03444,0.06105,5.56704,1.98887,1.99083,-1.41752,3.45403,3.00873,-1.35715,3.26172,2.00042,57.68787,11.98132,57.68787540,11.98132182,A,102638.70,"[-0.20000,-0.00000,0.00000]","[-0.10000,-0.00000,-0.00000]",9.86533,0.00000,0.00000,0.00000,0.00000,0.00000
17:20:47.371593,3.04857,0.00608,13.01164,"[5.00000,0.00000,0.00000]","[1.00000,0.00000,0.00000]",-0.01358,0.00661,-0.00557,0.00000,0.00000,-0.04236,-0.00955,-0.02172,-0.04801,0.93544,3.04442,0.06593,5.56704,1.98887,1.99083,-1.41752,3.45403,3.00873,-1.35715,3.26172,2.00042,57.68787,11.98132,57.68787540,11.98132182,A,102638.70,"[-0.20000,-0.00000,0.00000]","[-0.10000,-0.00000,-0.00000]",9.99788,0.00000,0.00000,0.00000,0.00000,0.00000
17:20:47.381132,3.05810,0.00520,13.01164,"[5.00000,0.00000,0.00000]","[1.00000,0.00000,0.00000]",-0.01541,0.00661,-0.01626,0.00000,0.00000,-0.04938,0.00374,-0.12359,0.00409,0.89621,3.05375,0.06838,5.56704,1.98887,1.99083,-1.41752,3.45403,3.00873,-1.35715,3.26172,2.00042,57.68787,11.98132,57.68787540,11.98132182,A,102638.70,"[-0.20000,-0.00000,0.00000]","[-0.10000,-0.00000,-0.00000]",10.13271,0.00000,0.00000,0.00000,0.00000,0.00000
17:20:47.391329,3.06830,0.00500,13.01164,"[5.00000,0.00000,0.00000]","[1.00000,0.00000,0.00000]",-0.01625,0.00661,-0.00725,0.00000,0.00000,-0.03946,0.01764,-0.18428,0.05935,0.85577,3.06417,0.06105,5.56704,1.98887,1.99083,-1.41752,3.45403,3.00873,-1.35715,3.26172,2.00042,57.68787,11.98132,57.68787540,11.98132182,A,102638.70,"[-0.20000,-0.00000,0.00000]","[-0.10000,-0.00000,-0.00000]",10.26744,0.00000,0.00000,0.00000,0.00000,0.00000
17:20:47.402798,3.07897,0.00503,13.01164,"[5.00000,0.00000,0.00000]","[1.00000,0.00000,0.00000]",-0.01662,0.00661,-0.00404,0.00000,0.00000,-0.01197,0.02344,-0.16061,0.08253,0.89658,3.07482,0.06838,5.56704,1.98887,1.99083,-1.41752,3.45403,3.00873,-1.35715,3.26172,2.00042,57.68787,11.98132,57.68787540,11.98132182,A,102638.70,"[-0.20000,-0.00000,0.00000]","[-0.10000,-0.00000,-0.00000]",10.40530,0.00000,0.00000,0.00000,0.00000,0.00000
17:20:47.413197,3.09017,0.00582,13.01164,"[5.00000,0.00000,0.00000]","[1.00000,0.00000,0.00000]",-0.01863,0.00661,0.00497,0.00000,0.00000,0.01949,0.01916,-0.05130,-0.02428,0.91592,3.08582,0.05861,5.56704,1.98887,1.99083,-1.41752,3.45403,3.00873,-1.35715,3.26172,2.00042,57.68787,11.98132,57.68787540,11.98132182,A,102638.70,"[-0.20000,-0.00000,0.00000]","[-0.10000,-0.00000,-0.00000]",10.54011,0.00000,0.00000,0.00000,0.00000,0.00000
17:20:47.423677,3.10065,0.00556,13.01164,"[5.00000,0.00000,0.00000]","[1.00000,0.00000,0.00000]",-0.02121,0.00661,-0.00618,0.00000,0.00000,0.02423,0.00664,0.03483,-0.07094,1.01229,3.09652,0.06838,5.56704,1.98887,1.99083,-1.41752,3.45403,3.00873,-1.35715,3.26172,2.00042,57.68787,11.98132,57.68787540,11.98132182,A,102638.70,"[-0.20000,-0.00000,0.00000]","[-0.10000,-0.00000,-0.00000]",10.67921,0.00000,0.00000,0.00000,0.00000,0.00000
17:20:47.455880,3.13264,0.02714,13.01164,"[5.00000,0.00000,0.00000]","[1.00000,0.00000,0.00000]",-0.02290,0.00661,-0.01733,0.00000,0.00000,0.02652,-0.01443,0.03745,-0.01037,1.06640,3.10630,0.06838,5.56704,1.98887,1.99083,-1.41752,3.45403,3.12632,-1.40668,3.39145,1.93552,57.68787,11.98132,57.68787540,11.98132182,A,102638.80,"[-0.20000,-0.00000,0.00000]","[-0.10000,-0.00000,-0.00000]",10.81405,0.00000,0.00000,0.00000,0.00000,0.00000
17:20:47.477262,3.15422,0.01061,13.01164,"[5.00000,0.00000,0.00000]","[1.00000,0.00000,0.00000]",-0.02547,0.00757,-0.01641,0.00000,0.00000,-0.02296,-0.01382,0.05057,-0.02019,1.01955,3.14745,0.13919,7.05596,1.98398,1.98623,-1.67722,4.03359,3.12632,-1.40668,3.39145,1.93552,57.68787,11.98132,57.68788061,11.98131745,A,102638.80,"[-0.20000,-0.00000,0.00000]","[-0.10000,-0.00000,-0.00000]",11.30954,0.00000,0.00000,0.00000,0.00000,0.00000
17:20:47.494818,3.17178,0.00695,13.01164,"[5.00000,0.00000,0.00000]","[1.00000,0.00000,0.00000]",-0.02866,0.00882,-0.02618,0.00000,0.00000,-0.01227,0.00038,-0.11334,-0.04959,0.97954,3.16740,1.16728,7.05596,1.98398,1.98623,-1.67722,4.03359,3.12632,-1.40668,3.39145,1.93552,57.68787,11.98132,57.68788061,11.98131745,A,102638.80,"[-0.20000,-0.00000,0.00000]","[-0.10000,-0.00000,-0.00000]",11.58530,0.00000,0.00000,0.00000,0.00000,0.00000
17:20:47.506446,3.18342,0.00812,13.01164,"[5.00000,0.00000,0.00000]","[1.00000,0.00000,0.00000]",-0.03115,0.00919,-0.02832,0.00000,0.00000,0.01567,0.00282,-0.09833,-0.00811,0.94556,3.17922,1.57998,7.05596,1.98398,1.98623,-1.67722,4.03359,3.12632,-1.40668,3.39145,1.93552,57.68787,11.98132,57.68788061,11.98131745,A,102638.80,"[-0.20000,-0.00000,0.00000]","[-0.10000,-0.00000,-0.00000]",11.72079,0.00000,0.00000,0.00000,0.00000,0.00000
17:20:47.515221,3.19219,0.00660,13.01164,"[5.00000,0.00000,0.00000]","[1.00000,0.00000,0.00000]",-0.03213,0.00921,-0.02160,0.00000,0.00000,0.03598,0.00496,-0.06301,0.07948,0.91024,3.18804,0.37851,7.05596,1.98398,1.98623,-1.67722,4.03359,3.12632,-1.40668,3.39145,1.93552,57.68787,11.98132,57.68788061,11.98131745,A,102638.80,"[-0.20000,-0.00000,0.00000]","[-0.10000,-0.00000,-0.00000]",11.85412,0.00000,0.00000,0.00000,0.00000,0.00000
17:20:47.527179,3.20415,0.00815,13.01164,"[5.00000,0.00000,0.00000]","[1.00000,0.00000,0.00000]",-0.03448,0.00921,-0.01458,0.00000,0.00000,0.03446,-0.00390,0.04056,0.00232,0.85010,3.19905,0.16850,7.05596,1.98398,1.98623,-1.67722,4.03359,3.12632,-1.40668,3.39145,1.93552,57.68787,11.98132,57.68788061,11.98131745,A,102638.80,"[-0.20000,-0.00000,0.00000]","[-0.10000,-0.00000,-0.00000]",11.98886,0.00000,0.00000,0.00000,0.00000,0.00000
17:20:47.537188,3.21415,0.00753,13.01164,"[5.00000,0.00000,0.00000]","[1.00000,0.00000,0.00000]",-0.03639,0.00921,-0.01000,0.00000,0.00000,0.00468,-0.00130,0.00738,0.00970,0.94812,3.20976,0.11477,7.05596,1.98398,1.98623,-1.67722,4.03359,3.12632,-1.40668,3.39145,1.93552,57.68787,11.98132,57.68788061,11.98131745,A,102638.80,"[-0.20000,-0.00000,0.00000]","[-0.10000,-0.00000,-0.00000]",12.12670,0.00000,0.00000,0.00000,0.00000,0.00000
17:20:47.548349,3.22532,0.00830,13.01164,"[5.00000,0.00000,0.00000]","[1.00000,0.00000,0.00000]",-0.03937,0.00921,-0.00709,0.00000,0.00000,-0.00723,-0.01168,-0.01061,-0.08076,1.02962,3.22111,0.08791,7.05596,1.98398,1.98623,-1.67722,4.03359,3.12632,-1.40668,3.39145,1.93552,57.68787,11.98132,57.68788061,11.98131745,A,102638.80,"[-0.20000,-0.00000,0.00000]","[-0.10000,-0.00000,-0.00000]",12.26141,0.00000,0.00000,0.00000,0.00000,0.00000
17:20:47.574945,3.25190,0.02471,13.01164,"[5.00000,0.00000,0.00000]","[1.00000,0.00000,0.00000]",-0.04181,0.00921,-0.01656,0.00000,0.00000,-0.01090,-0.01336,-0.03904,-0.05728,1.13247,3.23076,0.06349,7.05596,1.98398,1.98623,-1.67722,4.03359,3.24595,-1.47602,3.48411,2.21324,57.68788,11.98132,57.68788061,11.98131745,A,102638.90,"[-0.20000,-0.00000,0.00000]","[-0.10000,-0.00000,-0.00000]",12.39340,0.00000,0.00000,0.00000,0.00000,0.00000
17:20:47.594946,3.27191,0.00961,13.01164,"[5.00000,0.00000,0.00000]","[1.00000,0.00000,0.00000]",-0.04386,0.00921,-0.02038,0.00000,0.00000,0.01353,-0.01382,0.02898,0.02489,0.99223,3.26442,0.06593,8.24709,2.02273,2.02547,-1.97868,4.71235,3.24595,-1.47602,3.48411,2.21324,57.68788,11.98132,57.68788671,11.98131238,A,102638.90,"[-0.20000,-0.00000,0.00000]","[-0.10000,-0.00000,-0.00000]",12.84982,0.00000,0.00000,0.00000,0.00000,0.00000
17:20:47.604142,3.28109,0.00775,13.01164,"[5.00000,0.00000,0.00000]","[1.00000,0.00000,0.00000]",-0.04594,0.00921,-0.02466,0.00000,0.00000,0.00727,-0.00328,-0.02617,0.00226,0.94208,3.27633,0.06593,8.24709,2.02273,2.02547,-1.97868,4.71235,3.24595,-1.47602,3.48411,2.21324,57.68788,11.98132,57.68788671,11.98131238,A,102638.90,"[-0.20000,-0.00000,0.00000]","[-0.10000,-0.00000,-0.00000]",12.99314,0.00000,0.00000,0.00000,0.00000,0.00000
17:20:47.614125,3.29110,0.00736,13.01164,"[5.00000,0.00000,0.00000]","[1.00000,0.00000,0.00000]",-0.04746,0.00921,-0.00343,0.00000,0.00000,0.00132,0.00328,-0.05167,0.01909,0.94800,3.28694,0.05617,8.24709,2.02273,2.02547,-1.97868,4.71235,3.24595,-1.47602,3.48411,2.21324,57.68788,11.98132,57.68788671,11.98131238,A,102638.90,"[-0.20000,-0.00000,0.00000]","[-0.10000,-0.00000,-0.00000]",13.12788,0.00000,0.00000,0.00000,0.00000,0.00000
17:20:47.625346,3.30228,0.00815,13.01164,"[5.00000,0.00000,0.00000]","[1.00000,0.00000,0.00000]",-0.04971,0.00921,-0.00511,0.00000,0.00000,0.00010,0.00450,-0.04227,-0.02794,0.94623,3.29705,0.06838,8.24709,2.02273,2.02547,-1.97868,4.71235,3.24595,-1.47602,3.48411,2.21324,57.68788,11.98132,57.68788671,11.98131238,A,102638.90,"[-0.20000,-0.00000,0.00000]","[-0.10000,-0.00000,-0.00000]",13.26234,0.00000,0.00000,0.00000,0.00000,0.00000
17:20:47.635148,3.31212,0.00759,13.01164,"[5.00000,0.00000,0.00000]","[1.00000,0.00000,0.00000]",-0.05194,0.00921,-0.00709,0.00000,0.00000,-0.00311,0.00328,-0.07314,-0.03904,1.01425,3.30715,0.06349,8.24709,2.02273,2.02547,-1.97868,4.71235,3.24595,-1.47602,3.48411,2.21324,57.68788,11.98132,57.68788671,11.98131238,A,102638.90,"[-0.20000,-0.00000,0.00000]","[-0.10000,-0.00000,-0.00000]",13.39710,0.00000,0.00000,0.00000,0.00000,0.00000
17:20:47.644209,3.32117,0.00624,13.01164,"[5.00000,0.00000,0.00000]","[1.00000,0.00000,0.00000]",-0.05447,0.00921,-0.01259,0.00000,0.00000,-0.00082,0.00542,0.05173,-0.05020,0.96886,3.31663,0.06349,8.24709,2.02273,2.02547,-1.97868,4.71235,3.24595,-1.47602,3.48411,2.21324,57.68788,11.98132,57.68788671,11.98131238,A,102638.90,"[-0.20000,-0.00000,0.00000]","[-0.10000,-0.00000,-0.00000]",13.53182,0.00000,0.00000,0.00000,0.00000,0.00000
17:20:47.655994,3.33297,0.00684,13.01164,"[5.00000,0.00000,0.00000]","[1.00000,0.00000,0.00000]",-0.05640,0.00921,-0.01870,0.00000,0.00000,-0.01533,-0.00435,-0.02568,-0.01342,1.01498,3.32881,0.06105,8.24709,2.02273,2.02547,-1.97868,4.71235,3.24595,-1.47602,3.48411,2.21324,57.68788,11.98132,57.68788671,11.98131238,A,102638.90,"[-0.20000,-0.00000,0.00000]","[-0.10000,-0.00000,-0.00000]",13.67697,0.00000,0.00000,0.00000,0.00000,0.00000
17:20:47.667477,3.34445,0.00792,13.01164,"[5.00000,0.00000,0.00000]","[1.00000,0.00000,0.00000]",-0.05848,0.00921,-0.00694,0.00000,0.00000,0.00147,-0.00741,-0.15006,-0.04758,1.08757,3.34027,0.05861,8.24709,2.02273,2.02547,-1.97868,4.71235,3.24595,-1.47602,3.48411,2.21324,57.68788,11.98132,57.68788671,11.98131238,A,102638.90,"[-0.20000,-0.00000,0.00000]","[-0.10000,-0.00000,-0.00000]",13.81169,0.00000,0.00000,0.00000,0.00000,0.00000
17:20:47.690208,3.36717,0.02045,1.52414,"[5.00000,0.00000,0.00000]","[1.00000,0.00000,0.00000]",-0.05859,0.00921,-0.01045,0.00000,0.00000,0.01094,-0.01123,-0.12151,-0.04233,1.07616,3.34591,0.06593,8.24709,2.02273,2.02547,-1.97868,4.71235,3.36111,-1.50574,3.63237,1.76862,57.68788,11.98132,57.68788671,11.98131238,A,102639.00,"[-0.20000,-0.00000,0.00000]","[-0.10000,-0.00000,-0.00000]",13.94389,0.00000,0.00000,0.00000,0.00000,0.00000
17:20:47.706124,3.38309,0.00778,1.52414,"[5.00000,0.00000,0.00000]","[1.00000,0.00000,0.00000]",-0.05902,0.00953,-0.01381,0.00000,0.00000,0.01842,-0.01138,0.02086,-0.03544,0.98716,3.37669,0.44444,6.90250,1.99063,1.99346,-2.33047,5.42638,3.36111,-1.50574,3.63237,1.76862,57.68788,11.98132,57.68789313,11.98130646,A,102639.00,"[-0.20000,-0.00000,0.00000]","[-0.10000,-0.00000,-0.00000]",13.98743,0.00000,0.00000,0.00000,0.00000,0.00000
17:20:47.713422,3.39039,0.00451,1.52414,"[5.00000,0.00000,0.00000]","[1.00000,0.00000,0.00000]",-0.05945,0.00953,-0.00939,0.00000,0.00000,0.01277,-0.00344,0.00799,-0.05417,0.91823,3.38598,1.03541,6.90250,1.99063,1.99346,-2.33047,5.42638,3.36111,-1.50574,3.63237,1.76862,57.68788,11.98132,57.68789313,11.98130646,A,102639.00,"[-0.20000,-0.00000,0.00000]","[-0.10000,-0.00000,-0.00000]",14.00321,0.00000,0.00000,0.00000,0.00000,0.00000
17:20:47.722859,3.39983,0.00355,1.52414,"[5.00000,0.00000,0.00000]","[1.00000,0.00000,0.00000]",-0.05968,0.00953,-0.01626,0.00000,0.00000,-0.00082,-0.00619,-0.05063,-0.03831,0.92982,3.39572,1.17705,6.90250,1.99063,1.99346,-2.33047,5.42638,3.36111,-1.50574,3.63237,1.76862,57.68788,11.98132,57.68789313,11.98130646,A,102639.00,"[-0.20000,-0.00000,0.00000]","[-0.10000,-0.00000,-0.00000]",14.01900,0.00000,0.00000,0.00000,0.00000,0.00000
17:20:47.733253,3.41022,0.00353,1.52414,"[5.00000,0.00000,0.00000]","[1.00000,0.00000,0.00000]",-0.05862,0.00953,-0.00832,0.00000,0.00000,0.00315,0.00313,-0.09815,0.03770,0.94983,3.40590,1.20635,6.90250,1.99063,1.99346,-2.33047,5.42638,3.36111,-1.50574,3.63237,1.76862,57.68788,11.98132,57.68789313,11.98130646,A,102639.00,"[-0.20000,-0.00000,0.00000]","[-0.10000,-0.00000,-0.00000]",14.03479,0.00000,0.00000,0.00000,0.00000,0.00000
17:20:47.743640,3.42062,0.00352,1.52414,"[5.00000,0.00000,0.00000]","[1.00000,0.00000,0.00000]",-0.05848,0.00953,-0.00358,0.00000,0.00000,0.02117,0.00206,-0.11169,-0.02379,0.98667,3.41651,1.22344,6.90250,1.99063,1.99346,-2.33047,5.42638,3.36111,-1.50574,3.63237,1.76862,57.68788,11.98132,57.68789313,11.98130646,A,102639.00,"[-0.20000,-0.00000,0.00000]","[-0.10000,-0.00000,-0.00000]",14.05056,0.00000,0.00000,0.00000,0.00000,0.00000
17:20:47.754086,3.43106,0.00356,1.52414,"[5.00000,0.00000,0.00000]","[1.00000,0.00000,0.00000]",-0.05845,0.00953,-0.00725,0.00000,0.00000,0.02484,0.00237,-0.01318,-0.02904,1.01358,3.42694,1.26984,6.90250,1.99063,1.99346,-2.33047,5.42638,3.36111,-1.50574,3.63237,1.76862,57.68788,11.98132,57.68789313,11.98130646,A,102639.00,"[-0.20000,-0.00000,0.00000]","[-0.10000,-0.00000,-0.00000]",14.06635,0.00000,0.00000,0.00000,0.00000,0.00000
17:20:47.764417,3.44140,0.00334,1.52414,"[5.00000,0.00000,0.00000]","[1.00000,0.00000,0.00000]",-0.05782,0.00953,-0.00771,0.00000,0.00000,0.02835,0.00160,0.05722,0.01214,1.02858,3.43729,1.27473,6.90250,1.99063,1.99346,-2.33047,5.42638,3.36111,-1.50574,3.63237,1.76862,57.68788,11.98132,57.68789313,11.98130646,A,102639.00,"[-0.20000,-0.00000,0.00000]","[-0.10000,-0.00000,-0.00000]",14.08236,0.00000,0.00000,0.00000,0.00000,0.00000
17:20:47.775028,3.45201,0.00354,1.52414,"[5.00000,0.00000,0.00000]","[1.00000,0.00000,0.00000]",-0.05728,0.00955,-0.01183,0.00000,0.00000,0.01766,-0.00054,-0.03105,0.01037,1.10825,3.44789,0.59585,6.90250,1.99063,1.99346,-2.33047,5.42638,3.36111,-1.50574,3.63237,1.76862,57.68788,11.98132,57.68789313,11.98130646,A,102639.00,"[-0.20000,-0.00000,0.00000]","[-0.10000,-0.00000,-0.00000]",14.09814,0.00000,0.00000,0.00000,0.00000,0.00000
17:20:47.802757,3.47972,0.02080,1.52414,"[5.00000,0.00000,0.00000]","[1.00000,0.00000,0.00000]",-0.05662,0.00970,-0.00450,0.00000,0.00000,0.01583,0.00359,-0.05392,0.01366,1.07732,3.45815,0.91575,6.90250,1.99063,1.99346,-2.33047,5.42638,3.47334,-1.56518,3.74356,2.06169,57.68788,11.98132,57.68789313,11.98130646,A,102639.10,"[-0.20000,-0.00000,0.00000]","[-0.10000,-0.00000,-0.00000]",14.11400,0.00000,0.00000,0.00000,0.00000,0.00000
17:20:47.822079,3.49905,0.00760,1.52414,"[5.00000,0.00000,0.00000]","[1.00000,0.00000,0.00000]",-0.05656,0.01145,-0.00694,0.00000,0.00000,0.01567,0.00450,-0.02757,-0.01269,0.92610,3.49262,1.20391,5.82683,2.00659,2.00999,-2.59835,6.02292,3.47334,-1.56518,3.74356,2.06169,57.68788,11.98132,57.68789850,11.98130195,A,102639.10,"[-0.20000,-0.00000,0.00000]","[-0.10000,-0.00000,-0.00000]",14.16354,0.00000,0.00000,0.00000,0.00000,0.00000
17:20:47.828579,3.50554,0.00352,1.52414,"[5.00000,0.00000,0.00000]","[1.00000,0.00000,0.00000]",-0.05630,0.01207,-0.00419,0.00000,0.00000,0.01613,0.00695,-0.06191,-0.01238,0.94050,3.50126,1.29426,5.82683,2.00659,2.00999,-2.59835,6.02292,3.47334,-1.56518,3.74356,2.06169,57.68788,11.98132,57.68789850,11.98130195,A,102639.10,"[-0.20000,-0.00000,0.00000]","[-0.10000,-0.00000,-0.00000]",14.17957,0.00000,0.00000,0.00000,0.00000,0.00000
17:20:47.838955,3.51594,0.00351,1.52414,"[5.00000,0.00000,0.00000]","[1.00000,0.00000,0.00000]",-0.05593,0.01287,-0.00908,0.00000,0.00000,0.02025,0.00237,-0.08198,-0.00134,0.92549,3.51184,1.25763,5.82683,2.00659,2.00999,-2.59835,6.02292,3.47334,-1.56518,3.74356,2.06169,57.68788,11.98132,57.68789850,11.98130195,A,102639.10,"[-0.20000,-0.00000,0.00000]","[-0.10000,-0.00000,-0.00000]",14.19536,0.00000,0.00000,0.00000,0.00000,0.00000
17:20:47.849487,3.52646,0.00363,1.52414,"[5.00000,0.00000,0.00000]","[1.00000,0.00000,0.00000]",-0.05536,0.01360,-0.00526,0.00000,0.00000,0.01919,0.00374,-0.08369,0.00909,0.96935,3.52204,1.20879,5.82683,2.00659,2.00999,-2.59835,6.02292,3.47334,-1.56518,3.74356,2.06169,57.68788,11.98132,57.68789850,11.98130195,A,102639.10,"[-0.20000,-0.00000,0.00000]","[-0.10000,-0.00000,-0.00000]",14.21113,0.00000,0.00000,0.00000,0.00000,0.00000
17:20:47.860000,3.53698,0.00374,1.52414,"[5.00000,0.00000,0.00000]","[1.00000,0.00000,0.00000]",-0.05501,0.01434,-0.00190,0.00000,0.00000,0.03110,0.00282,-0.05459,-0.00641,0.98118,3.53285,1.28938,5.82683,2.00659,2.00999,-2.59835,6.02292,3.47334,-1.56518,3.74356,2.06169,57.68788,11.98132,57.68789850,11.98130195,A,102639.10,"[-0.20000,-0.00000,0.00000]","[-0.10000,-0.00000,-0.00000]",14.22692,0.00000,0.00000,0.00000,0.00000,0.00000
17:20:47.870176,3.54715,0.00352,1.52414,"[5.00000,0.00000,0.00000]","[1.00000,0.00000,0.00000]",-0.05509,0.01496,0.00405,0.00000,0.00000,0.01888,0.00267,-0.00604,-0.04020,1.03529,3.54304,1.19170,5.82683,2.00659,2.00999,-2.59835,6.02292,3.47334,-1.56518,3.74356,2.06169,57.68788,11.98132,57.68789850,11.98130195,A,102639.10,"[-0.20000,-0.00000,0.00000]","[-0.10000,-0.00000,-0.00000]",14.24270,0.00000,0.00000,0.00000,0.00000,0.00000
17:20:47.880538,3.55752,0.00335,1.52414,"[5.00000,0.00000,0.00000]","[1.00000,0.00000,0.00000]",-0.05548,0.01558,-0.00465,0.00000,0.00000,0.00682,0.00450,0.04587,-0.05527,1.02077,3.55341,1.20635,5.82683,2.00659,2.00999,-2.59835,6.02292,3.47334,-1.56518,3.74356,2.06169,57.68788,11.98132,57.68789850,11.98130195,A,102639.10,"[-0.20000,-0.00000,0.00000]","[-0.10000,-0.00000,-0.00000]",14.25868,0.00000,0.00000,0.00000,0.00000,0.00000
17:20:47.891286,3.56826,0.00369,1.52414,"[5.00000,0.00000,0.00000]","[1.00000,0.00000,0.00000]",-0.05550,0.01609,-0.00297,0.00000,0.00000,-0.01304,0.00405,-0.02464,-0.03227,1.05066,3.56414,1.20635,5.82683,2.00659,2.00999,-2.59835,6.02292,3.47334,-1.56518,3.74356,2.06169,57.68788,11.98132,57.68789850,11.98130195,A,102639.10,"[-0.20000,-0.00000,0.00000]","[-0.10000,-0.00000,-0.00000]",14.27446,0.00000,0.00000,0.00000,0.00000,0.00000
17:20:47.931411,3.60837,0.03340,1.52414,"[5.00000,0.00000,0.00000]","[1.00000,0.00000,0.00000]",-0.05527,0.01652,-0.00679,0.00000,0.00000,-0.01304,0.01199,-0.07430,-0.01165,1.04383,3.57436,1.38462,5.82683,2.00659,2.00999,-2.59835,6.02292,3.60140,-1.68405,3.98448,2.02916,57.68788,11.98132,57.68789850,11.98130195,A,102639.30,"[-0.20000,-0.00000,0.00000]","[-0.10000,-0.00000,-0.00000]",14.29024,0.00000,0.00000,0.00000,0.00000,0.00000
17:20:47.949735,3.62670,0.00735,1.52414,"[5.00000,0.00000,0.00000]","[1.00000,0.00000,0.00000]",-0.05595,0.01782,-0.01229,0.00000,0.00000,0.01812,0.00511,0.02294,-0.03758,0.95935,3.61988,1.08181,4.96629,2.01566,2.02095,-2.84720,6.54800,3.60140,-1.68405,3.98448,2.02916,57.68788,11.98132,57.68790322,11.98129776,A,102639.30,"[-0.20000,-0.00000,0.00000]","[-0.10000,-0.00000,-0.00000]",14.35783,0.00000,0.00000,0.00000,0.00000,0.00000
17:20:47.956309,3.63328,0.00336,1.52414,"[5.00000,0.00000,0.00000]","[1.00000,0.00000,0.00000]",-0.05623,0.01807,-0.01870,0.00000,0.00000,0.00559,0.00634,0.00439,-0.03642,0.95191,3.62917,1.04762,4.96629,2.01566,2.02095,-2.84720,6.54800,3.60140,-1.68405,3.98448,2.02916,57.68788,11.98132,57.68790322,11.98129776,A,102639.30,"[-0.20000,-0.00000,0.00000]","[-0.10000,-0.00000,-0.00000]",14.37361,0.00000,0.00000,0.00000,0.00000,0.00000
17:20:47.966899,3.64387,0.00354,1.52414,"[5.00000,0.00000,0.00000]","[1.00000,0.00000,0.00000]",-0.05667,0.01833,-0.01534,0.00000,0.00000,-0.00372,0.00435,-0.10504,-0.04953,0.98655,3.63977,1.36752,4.96629,2.01566,2.02095,-2.84720,6.54800,3.60140,-1.68405,3.98448,2.02916,57.68788,11.98132,57.68790322,11.98129776,A,102639.30,"[-0.20000,-0.00000,0.00000]","[-0.10000,-0.00000,-0.00000]",14.38941,0.00000,0.00000,0.00000,0.00000,0.00000
17:20:47.977173,3.65415,0.00357,1.52414,"[5.00000,0.00000,0.00000]","[1.00000,0.00000,0.00000]",-0.05618,0.01855,-0.02069,0.00000,0.00000,0.00498,0.00160,-0.00177,0.01434,0.97923,3.64983,1.44567,4.96629,2.01566,2.02095,-2.84720,6.54800,3.60140,-1.68405,3.98448,2.02916,57.68788,11.98132,57.68790322,11.98129776,A,102639.30,"[-0.20000,-0.00000,0.00000]","[-0.10000,-0.00000,-0.00000]",14.40494,0.00000,0.00000,0.00000,0.00000,0.00000
