Description : again v3 p3  ; walk_time = 2.0 ; speed_up_time = 3.0 ; balancing_time = 0.0
RealTime,Time,CalculationTime,MeasuredVelocity,FilteredVelocity,BalancingGainsInner,BalancingGainsOuter,Roll,SteeringAngle,RollRate,ControlInput,BalancingSetpoint,gy,gz,ax,ay,az,imu_read_timing,SteerMotorCurrent,v_estimated,yaw_estimated,heading_estimated,x_estimated,y_estimated,GPS_timestamp,x_GPS,y_GPS,theta_GPS,theta_GPS_noUnwrap,latitude,longitude,lat_estimated,lon_estimated,status,NMEA timestamp
18:29:49.807103,0.05013,0.05008,0.00000,0.00000,[3.00000 0.00000 0.00000],[1.30000 0.00000 0.00000],-0.00059,-0.03246,-0.00774,0.00000,0.00000,0.00189,-0.00237,0.05893,-0.00945,0.98985,0.00001,0.01709,0.00000,0.01888,0.00000,0.00000,0.00000,0.01805,0.00000,0.00000,0.00000,0.00000,57.68866,11.98065,57.68866400,11.98065067,A,144009.40
18:29:49.834984,0.07802,0.01411,0.00000,0.00000,[3.00000 0.00000 0.00000],[1.30000 0.00000 0.00000],-0.00188,-0.03246,-0.01247,0.00000,0.00000,-0.00010,-0.00192,0.05838,-0.00708,0.99387,0.06727,0.00733,0.00000,0.01888,0.00000,0.00000,0.00000,0.01805,0.00000,0.00000,0.00000,0.00000,57.68866,11.98065,57.68866400,11.98065067,A,144009.40
18:29:49.861925,0.10500,0.01353,0.00000,0.00000,[3.00000 0.00000 0.00000],[1.30000 0.00000 0.00000],-0.00258,-0.03238,-0.00942,0.00000,0.00000,0.00143,0.00022,0.05844,-0.00689,0.98789,0.09415,0.01221,0.00000,0.01887,0.00004,0.00000,0.00000,0.01805,0.00000,0.00000,0.00000,0.00000,57.68866,11.98065,57.68866400,11.98065067,A,144009.40
18:29:49.901384,0.14446,0.02592,0.00000,0.00000,[3.00000 0.00000 0.00000],[1.30000 0.00000 0.00000],-0.00359,-0.03195,-0.01736,0.00000,0.00000,0.00341,-0.00085,0.05478,-0.01409,0.99460,0.12175,0.00977,0.00000,0.01883,0.00025,0.00050,0.00000,0.14084,0.00991,0.00000,0.00000,0.00000,57.68866,11.98065,57.68866400,11.98065067,A,144009.50
18:29:49.925047,0.16812,0.01142,0.00000,0.00000,[3.00000 0.00000 0.00000],[1.30000 0.00000 0.00000],-0.00452,-0.03088,-0.01446,0.00000,0.00000,0.00250,-0.00192,0.06082,-0.00482,0.99381,0.15955,0.01221,0.00000,0.01870,0.00074,0.00097,0.00000,0.14084,0.00991,0.00000,0.00000,0.00000,57.68866,11.98065,57.68866400,11.98065068,A,144009.50
18:29:49.953619,0.19666,0.01280,0.00000,0.00000,[3.00000 0.00000 0.00000],[1.30000 0.00000 0.00000],-0.00542,-0.03011,-0.01430,0.00000,0.00000,0.00341,-0.00237,0.06484,-0.01330,0.99021,0.18812,0.01221,0.00000,0.01852,0.00101,0.00141,0.00000,0.14084,0.00991,0.00000,0.00000,0.00000,57.68866,11.98065,57.68866400,11.98065069,A,144009.50
18:29:49.982790,0.22586,0.01384,0.00000,0.00000,[3.00000 0.00000 0.00000],[1.30000 0.00000 0.00000],-0.00631,-0.02938,-0.01049,0.00000,0.00000,0.00311,-0.00207,0.06069,-0.02159,0.99570,0.21514,0.00733,0.00000,0.01831,0.00122,0.00184,0.00000,0.14084,0.00991,0.00000,0.00000,0.00000,57.68866,11.98065,57.68866400,11.98065070,A,144009.50
18:29:50.021225,0.26430,0.02493,0.00000,0.00000,[3.00000 0.00000 0.00000],[1.30000 0.00000 0.00000],-0.00690,-0.02844,-0.00621,0.00000,0.00000,0.00234,0.00160,0.06832,-0.00964,0.99509,0.24180,0.01465,0.00000,0.01804,0.00150,0.00224,0.00000,0.26036,0.00991,0.00000,0.00000,0.00000,57.68866,11.98065,57.68866400,11.98065070,A,144009.60
18:29:50.042293,0.28491,0.01089,0.00000,0.00000,[3.00000 0.00000 0.00000],[1.30000 0.00000 0.00000],-0.00755,-0.02743,-0.00102,0.00000,0.00000,-0.00071,-0.00482,0.07290,-0.02361,0.99399,0.27498,0.01221,0.00000,0.01773,0.00178,0.00262,0.00000,0.26036,0.00991,0.00000,0.00000,0.00000,57.68866,11.98065,57.68866400,11.98065071,A,144009.60
18:29:50.067370,0.31042,0.01185,0.00000,0.00000,[3.00000 0.00000 0.00000],[1.30000 0.00000 0.00000],-0.00810,-0.02703,-0.00285,0.00000,0.00000,0.00265,-0.00543,0.07790,-0.01446,0.99137,0.30062,0.00977,0.00000,0.01743,0.00171,0.00299,0.00000,0.26036,0.00991,0.00000,0.00000,0.00000,57.68866,11.98065,57.68866400,11.98065072,A,144009.60
18:29:50.094917,0.33798,0.01204,0.00000,0.00000,[3.00000 0.00000 0.00000],[1.30000 0.00000 0.00000],-0.00856,-0.02689,0.00204,0.00000,0.00000,0.00311,-0.00115,0.08485,-0.01781,0.99247,0.32862,0.01465,0.00000,0.01716,0.00152,0.00333,0.00000,0.26036,0.00991,0.00000,0.00000,0.00000,57.68866,11.98065,57.68866400,11.98065072,A,144009.60
18:29:50.134684,0.37776,0.02606,0.00000,0.00000,[3.00000 0.00000 0.00000],[1.30000 0.00000 0.00000],-0.00892,-0.02689,0.00387,0.00000,0.00000,0.00143,-0.00573,0.09528,-0.01458,0.99320,0.35487,0.00977,0.00000,-0.14506,-0.16069,0.00416,-0.00093,0.37412,0.01981,-0.01853,-1.07992,-1.07992,57.68866,11.98065,57.68866399,11.98065074,A,144009.70
18:29:50.160566,0.40363,0.01283,0.00000,0.00000,[3.00000 0.00000 0.00000],[1.30000 0.00000 0.00000],-0.00912,-0.02689,0.00692,0.00000,0.00000,0.00021,-0.01138,0.10785,-0.01507,0.99198,0.39237,0.01465,0.00000,-0.28294,-0.29858,0.00494,-0.00181,0.37412,0.01981,-0.01853,-1.07992,-1.07992,57.68866,11.98065,57.68866398,11.98065075,A,144009.70
18:29:50.187716,0.43079,0.01333,0.00000,0.00000,[3.00000 0.00000 0.00000],[1.30000 0.00000 0.00000],-0.00922,-0.02686,0.00876,0.00000,0.00000,-0.00025,-0.00589,0.10388,-0.00714,0.99521,0.42063,0.00733,0.00000,-0.40014,-0.41576,0.00568,-0.00264,0.37412,0.01981,-0.01853,-1.07992,-1.07992,57.68866,11.98065,57.68866398,11.98065076,A,144009.70
18:29:50.213888,0.45696,0.01392,0.00000,0.00000,[3.00000 0.00000 0.00000],[1.30000 0.00000 0.00000],-0.00961,-0.02675,0.00372,0.00000,0.00000,0.00112,0.00022,0.11193,-0.01696,0.99277,0.44674,0.00733,0.00000,-0.49978,-0.51533,0.00639,-0.00344,0.37412,0.01981,-0.01853,-1.07992,-1.07992,57.68866,11.98065,57.68866397,11.98065077,A,144009.70
18:29:50.263823,0.50689,0.03655,0.00000,0.00000,[3.00000 0.00000 0.00000],[1.30000 0.00000 0.00000],-0.01007,-0.02655,-0.00041,0.00000,0.00000,-0.00071,-0.00436,0.12133,-0.01470,0.98674,0.47287,0.00488,0.00000,-0.58448,-0.59992,0.00805,-0.00605,0.50324,0.03962,-0.05560,-1.07992,-1.07992,57.68866,11.98065,57.68866395,11.98065080,A,144009.90
18:29:50.288917,0.53199,0.01251,0.00000,0.00000,[3.00000 0.00000 0.00000],[1.30000 0.00000 0.00000],-0.01069,-0.02508,-0.00423,0.00000,0.00000,-0.00376,-0.00757,0.11761,-0.01293,0.99113,0.52223,0.00977,0.00000,-0.65661,-0.67119,0.00963,-0.00852,0.50324,0.03962,-0.05560,-1.07992,-1.07992,57.68866,11.98065,57.68866392,11.98065083,A,144009.90
18:29:50.315150,0.55820,0.01335,0.00000,0.00000,[3.00000 0.00000 0.00000],[1.30000 0.00000 0.00000],-0.01136,-0.02386,-0.01369,0.00000,0.00000,-0.00010,-0.00390,0.12920,-0.00781,0.98930,0.54808,0.00244,0.00000,-0.71802,-0.73190,0.01113,-0.01088,0.50324,0.03962,-0.05560,-1.07992,-1.07992,57.68866,11.98065,57.68866390,11.98065085,A,144009.90
18:29:50.342481,0.58459,0.01039,0.00000,0.00000,[3.00000 0.00000 0.00000],[1.30000 0.00000 0.00000],-0.01203,-0.02244,-0.01385,0.00000,0.00000,-0.00499,-0.00268,0.12139,-0.00622,0.99473,0.57575,0.02442,0.00000,-0.77035,-0.78340,0.01256,-0.01311,0.50324,0.03962,-0.05560,-1.07992,-1.07992,57.68866,11.98065,57.68866388,11.98065088,A,144009.90
18:29:50.383318,0.62639,0.02591,0.00000,0.00000,[3.00000 0.00000 0.00000],[1.30000 0.00000 0.00000],-0.01309,-0.02154,-0.02561,0.00000,0.00000,0.00464,-0.00207,0.11846,-0.01293,0.99772,0.60231,0.01709,0.00000,-0.76573,-0.77825,0.01490,-0.01616,0.62272,0.05944,-0.07413,-0.75204,-0.75204,57.68866,11.98065,57.68866385,11.98065092,A,144010.00
18:29:50.410740,0.65381,0.01341,0.00000,0.00000,[3.00000 0.00000 0.00000],[1.30000 0.00000 0.00000],-0.01513,-0.02106,-0.03966,0.00000,0.00000,-0.00040,-0.00909,0.12499,-0.01702,0.98960,0.64370,0.01221,0.00000,-0.76184,-0.77408,0.01713,-0.01906,0.62272,0.05944,-0.07413,-0.75204,-0.75204,57.68866,11.98065,57.68866383,11.98065095,A,144010.00
18:29:50.435621,0.67870,0.01192,0.00000,0.00000,[3.00000 0.00000 0.00000],[1.30000 0.00000 0.00000],-0.01658,-0.02103,-0.04072,0.00000,0.00000,0.00005,-0.00955,0.12249,-0.01659,0.98320,0.66988,0.00977,0.00000,-0.75853,-0.77076,0.01924,-0.02182,0.62272,0.05944,-0.07413,-0.75204,-0.75204,57.68866,11.98065,57.68866380,11.98065099,A,144010.00
18:29:50.464622,0.70768,0.01366,0.00000,0.00000,[3.00000 0.00000 0.00000],[1.30000 0.00000 0.00000],-0.01801,-0.02103,-0.03737,0.00000,0.00000,-0.00010,-0.00757,0.12493,-0.01995,0.99772,0.69747,0.00733,0.00000,-0.75572,-0.76795,0.02125,-0.02443,0.62272,0.05944,-0.07413,-0.75204,-0.75204,57.68866,11.98065,57.68866378,11.98065102,A,144010.00
18:29:50.504109,0.74718,0.02682,0.00000,0.00000,[3.00000 0.00000 0.00000],[1.30000 0.00000 0.00000],-0.01942,-0.02103,-0.03630,0.00000,0.00000,-0.00101,-0.00757,0.11938,-0.02824,0.99247,0.72221,0.01954,0.00000,-0.80252,-0.81475,0.02366,-0.02784,0.74290,0.06934,-0.09266,-1.07992,-1.07992,57.68866,11.98065,57.68866375,11.98065106,A,144010.10
18:29:50.527370,0.77044,0.01187,0.00000,0.00000,[3.00000 0.00000 0.00000],[1.30000 0.00000 0.00000],-0.02127,-0.02063,-0.03584,0.00000,0.00000,-0.00514,-0.00512,0.12224,-0.02287,0.98503,0.76255,0.00488,0.00000,-0.84233,-0.85433,0.02594,-0.03108,0.74290,0.06934,-0.09266,-1.07992,-1.07992,57.68866,11.98065,57.68866372,11.98065110,A,144010.10
18:29:50.549691,0.79276,0.01047,0.00000,0.00000,[3.00000 0.00000 0.00000],[1.30000 0.00000 0.00000],-0.02233,-0.01944,-0.03156,0.00000,0.00000,-0.00269,-0.00390,0.10407,-0.02214,0.99589,0.78419,0.01465,0.00000,-0.87627,-0.88758,0.02811,-0.03416,0.74290,0.06934,-0.09266,-1.07992,-1.07992,57.68866,11.98065,57.68866369,11.98065114,A,144010.10
18:29:50.575817,0.81888,0.01343,0.00000,0.00000,[3.00000 0.00000 0.00000],[1.30000 0.00000 0.00000],-0.02361,-0.01755,-0.03217,0.00000,0.00000,-0.00636,-0.00726,0.11328,-0.02989,0.98881,0.80940,0.01954,0.00000,-0.90529,-0.91549,0.03017,-0.03709,0.74290,0.06934,-0.09266,-1.07992,-1.07992,57.68866,11.98065,57.68866367,11.98065117,A,144010.10
18:29:50.601598,0.84467,0.01179,0.00000,0.00000,[3.00000 0.00000 0.00000],[1.30000 0.00000 0.00000],-0.02478,-0.01610,-0.03294,0.00000,0.00000,0.00189,-0.00787,0.11193,-0.01824,0.98661,0.83644,0.00733,0.00000,-0.93008,-0.93944,0.03213,-0.03987,0.74290,0.06934,-0.09266,-1.07992,-1.07992,57.68866,11.98065,57.68866364,11.98065121,A,144010.10
18:29:50.643657,0.88673,0.02644,0.00000,0.00000,[3.00000 0.00000 0.00000],[1.30000 0.00000 0.00000],-0.02597,-0.01559,-0.02377,0.00000,0.00000,-0.01064,-0.00696,0.13585,-0.03636,0.97789,0.86337,0.00733,0.00000,-0.90201,-0.91108,0.03498,-0.04343,0.88283,0.08915,-0.11119,-0.75204,-0.75204,57.68866,11.98065,57.68866361,11.98065126,A,144010.20
18:29:50.669817,0.91289,0.01428,0.00000,0.00000,[3.00000 0.00000 0.00000],[1.30000 0.00000 0.00000],-0.02736,-0.01475,-0.02423,0.00000,0.00000,-0.01216,-0.00711,0.08113,-0.03178,1.01114,0.90282,0.02198,0.00000,-0.87823,-0.88680,0.03769,-0.04682,0.88283,0.08915,-0.11119,-0.75204,-0.75204,57.68866,11.98065,57.68866358,11.98065130,A,144010.20
18:29:50.686668,0.92974,0.00803,0.00000,0.00000,[3.00000 0.00000 0.00000],[1.30000 0.00000 0.00000],-0.02818,-0.01378,-0.02316,0.00000,0.00000,-0.01079,-0.00818,0.09229,-0.02922,0.99448,0.92136,0.01465,0.00000,-0.85810,-0.86611,0.04026,-0.05004,0.88283,0.08915,-0.11119,-0.75204,-0.75204,57.68866,11.98065,57.68866355,11.98065134,A,144010.20
18:29:50.696122,0.93919,0.00707,0.00000,0.00000,[3.00000 0.00000 0.00000],[1.30000 0.00000 0.00000],-0.02879,-0.01325,-0.02087,0.00000,0.00000,-0.00911,-0.01184,0.09675,-0.02959,0.98051,0.93186,0.01709,0.00000,-0.84104,-0.84874,0.04271,-0.05310,0.88283,0.08915,-0.11119,-0.75204,-0.75204,57.68866,11.98065,57.68866352,11.98065139,A,144010.20
18:29:50.710651,0.95372,0.01118,0.00000,0.00000,[3.00000 0.00000 0.00000],[1.30000 0.00000 0.00000],-0.02938,-0.01271,-0.02270,0.00000,0.00000,-0.00285,-0.01108,0.08394,-0.02550,0.97417,0.94316,0.02198,0.00000,-0.82658,-0.83397,0.04503,-0.05600,0.88283,0.08915,-0.11119,-0.75204,-0.75204,57.68866,11.98065,57.68866350,11.98065142,A,144010.20
18:29:50.740751,0.98382,0.01315,0.00000,0.00000,[3.00000 0.00000 0.00000],[1.30000 0.00000 0.00000],-0.03035,-0.01155,-0.01079,0.00000,0.00000,0.00143,-0.01337,0.09461,-0.04666,0.97069,0.97365,0.01221,0.00000,-0.81439,-0.82111,0.04724,-0.05876,0.88283,0.08915,-0.11119,-0.75204,-0.75204,57.68866,11.98065,57.68866347,11.98065146,A,144010.20
18:29:50.790661,1.03373,0.03688,0.00000,0.00000,[3.00000 0.00000 0.00000],[1.30000 0.00000 0.00000],-0.03086,-0.01070,-0.00682,0.00000,0.00000,-0.00269,-0.00787,0.09455,-0.02849,1.01473,1.00013,0.02442,0.00000,-0.86631,-0.87253,0.05131,-0.06602,1.03011,0.12878,-0.20386,-1.16671,-1.16671,57.68866,11.98065,57.68866341,11.98065153,A,144010.40
18:29:50.812800,1.05529,0.01171,0.00000,0.00000,[3.00000 0.00000 0.00000],[1.30000 0.00000 0.00000],-0.03093,-0.00869,0.00738,0.00000,0.00000,-0.01491,-0.00298,0.09339,-0.03245,0.99686,1.04495,0.01221,0.00000,-0.91061,-0.91566,0.05519,-0.07291,1.03011,0.12878,-0.20386,-1.16671,-1.16671,57.68866,11.98065,57.68866334,11.98065160,A,144010.40
18:29:50.839451,1.08252,0.01427,0.00000,0.00000,[3.00000 0.00000 0.00000],[1.30000 0.00000 0.00000],-0.03120,-0.00770,0.00448,0.00000,0.00000,-0.01659,-0.00558,0.09974,-0.03166,0.96929,1.07253,0.00977,0.00000,-0.94835,-0.95283,0.05887,-0.07946,1.03011,0.12878,-0.20386,-1.16671,-1.16671,57.68866,11.98065,57.68866329,11.98065166,A,144010.40
18:29:50.866717,1.10835,0.01189,0.00000,0.00000,[3.00000 0.00000 0.00000],[1.30000 0.00000 0.00000],-0.03122,-0.00634,0.00753,0.00000,0.00000,-0.00972,-0.00512,0.08638,-0.02117,0.99015,1.10061,0.01221,0.00000,-0.98055,-0.98424,0.06236,-0.08568,1.03011,0.12878,-0.20386,-1.16671,-1.16671,57.68866,11.98065,57.68866323,11.98065172,A,144010.40
18:29:50.907914,1.15086,0.02761,0.00000,0.00000,[3.00000 0.00000 0.00000],[1.30000 0.00000 0.00000],-0.03116,-0.00473,0.01089,0.00000,0.00000,-0.00483,-0.00405,0.10382,-0.02147,0.99357,1.12684,0.00733,0.00000,-1.01733,-1.02008,0.06667,-0.09437,1.14681,0.14859,-0.25945,-1.22848,-1.22848,57.68866,11.98065,57.68866315,11.98065179,A,144010.50
18:29:50.933975,1.17704,0.01294,0.60108,0.60108,[3.00000 0.00000 0.00000],[1.30000 0.00000 0.00000],-0.03130,-0.00260,0.00814,0.00000,0.00000,-0.00865,-0.00390,0.10266,-0.03758,1.00040,1.16744,0.00977,0.12022,-1.04878,-1.05029,0.07077,-0.10262,1.14681,0.14859,-0.25945,-1.22848,-1.22848,57.68866,11.98065,57.68866308,11.98065186,A,144010.50
18:29:50.962696,1.20576,0.01284,0.60108,0.60108,[3.00000 0.00000 0.00000],[1.30000 0.00000 0.00000],-0.03121,-0.00108,0.00998,0.00000,0.00000,-0.01415,-0.00054,0.11529,-0.01970,0.98905,1.19622,0.01221,0.21639,-1.07564,-1.07627,0.07613,-0.11302,1.14681,0.14859,-0.25945,-1.22848,-1.22848,57.68866,11.98065,57.68866298,11.98065195,A,144010.50
18:29:50.989769,1.23282,0.01340,0.60108,0.60108,[3.00000 0.00000 0.00000],[1.30000 0.00000 0.00000],-0.03118,0.00028,0.01639,0.00000,0.00000,-0.01354,-0.00008,0.09119,-0.03209,0.98332,1.22217,0.01221,0.29333,-1.09860,-1.09843,0.08201,-0.12452,1.14681,0.14859,-0.25945,-1.22848,-1.22848,57.68866,11.98065,57.68866288,11.98065205,A,144010.50
18:29:51.028430,1.27150,0.02723,0.60108,0.60108,[3.00000 0.00000 0.00000],[1.30000 0.00000 0.00000],-0.03103,0.00139,0.01395,0.00000,0.00000,-0.00987,0.00053,0.10571,-0.01958,0.99204,1.24780,0.00733,0.35488,-1.07667,-1.07586,0.09209,-0.14339,1.26766,0.18821,-0.31505,-0.95160,-0.95160,57.68866,11.98065,57.68866271,11.98065222,A,144010.60
18:29:51.053559,1.29663,0.01163,0.60108,0.60108,[3.00000 0.00000 0.00000],[1.30000 0.00000 0.00000],-0.03031,0.00447,0.02235,0.00000,0.00000,-0.01140,0.00450,0.09589,-0.01775,1.01199,1.28787,0.00977,0.40412,-1.05829,-1.05569,0.10043,-0.15852,1.26766,0.18821,-0.31505,-0.95160,-0.95160,57.68866,11.98065,57.68866257,11.98065236,A,144010.60
18:29:51.080023,1.32232,0.01196,0.60108,0.60108,[3.00000 0.00000 0.00000],[1.30000 0.00000 0.00000],-0.03009,0.00722,0.02739,0.00000,0.00000,-0.00667,0.00511,0.11736,-0.03678,0.99223,1.31377,0.02930,0.44351,-1.04288,-1.03869,0.10927,-0.17421,1.26766,0.18821,-0.31505,-0.95160,-0.95160,57.68866,11.98065,57.68866243,11.98065251,A,144010.60
18:29:51.107274,1.35035,0.01391,0.60108,0.60108,[3.00000 0.00000 0.00000],[1.30000 0.00000 0.00000],-0.02966,0.00985,0.02952,0.00000,0.00000,-0.01659,0.00343,0.09711,-0.02483,0.98521,1.33897,0.01954,0.47502,-1.03000,-1.02427,0.11816,-0.18965,1.26766,0.18821,-0.31505,-0.95160,-0.95160,57.68866,11.98065,57.68866229,11.98065265,A,144010.60
18:29:51.160146,1.40321,0.03848,0.60108,0.60108,[3.00000 0.00000 0.00000],[1.30000 0.00000 0.00000],-0.02900,0.01242,0.02998,0.00000,0.00000,-0.01476,0.00664,0.11309,-0.01940,0.98283,1.36877,0.01465,0.50023,-1.06756,-1.06033,0.13565,-0.22215,1.39948,0.22784,-0.44478,-1.27436,-1.27436,57.68866,11.98065,57.68866200,11.98065295,A,144010.80
18:29:51.184705,1.42778,0.01119,0.60108,0.60108,[3.00000 0.00000 0.00000],[1.30000 0.00000 0.00000],-0.02732,0.01500,0.03930,0.00000,0.00000,-0.01797,0.01015,0.08741,-0.02379,0.98582,1.42001,0.02198,0.52040,-1.09978,-1.09106,0.14549,-0.24261,1.39948,0.22784,-0.44478,-1.27436,-1.27436,57.68866,11.98065,57.68866182,11.98065311,A,144010.80
18:29:51.209856,1.45292,0.01284,0.60108,0.60108,[3.00000 0.00000 0.00000],[1.30000 0.00000 0.00000],-0.02705,0.01596,0.03319,0.00000,0.00000,-0.00941,0.00847,0.12108,-0.02873,0.96850,1.44079,0.01221,0.53654,-1.12724,-1.11796,0.15424,-0.26163,1.39948,0.22784,-0.44478,-1.27436,-1.27436,57.68866,11.98065,57.68866165,11.98065326,A,144010.80
18:29:51.236853,1.47941,0.01151,0.60108,0.60108,[3.00000 0.00000 0.00000],[1.30000 0.00000 0.00000],-0.02611,0.01692,0.02693,0.00000,0.00000,-0.01690,0.00633,0.09382,0.01159,0.98387,1.46881,0.01465,0.54944,-1.15064,-1.14080,0.16303,-0.28129,1.39948,0.22784,-0.44478,-1.27436,-1.27436,57.68866,11.98065,57.68866147,11.98065341,A,144010.80
18:29:51.274566,1.51763,0.02563,0.76317,0.76317,[3.00000 0.00000 0.00000],[1.30000 0.00000 0.00000],-0.02554,0.01738,0.03182,0.00000,0.00000,-0.00300,0.00847,0.10907,-0.01507,0.98966,1.49370,0.00977,0.59219,-1.14129,-1.13119,0.17640,-0.31095,1.51379,0.26746,-0.51891,-1.07992,-1.07992,57.68866,11.98066,57.68866120,11.98065363,A,144010.90
18:29:51.300013,1.54308,0.01328,0.76317,0.76317,[3.00000 0.00000 0.00000],[1.30000 0.00000 0.00000],-0.02471,0.01749,0.02326,0.00000,0.00000,-0.00010,0.01458,0.08229,-0.00390,0.96813,1.53285,0.00733,0.62639,-1.13344,-1.12327,0.18635,-0.33280,1.51379,0.26746,-0.51891,-1.07992,-1.07992,57.68866,11.98066,57.68866101,11.98065380,A,144010.90
18:29:51.323071,1.56612,0.01196,0.76317,0.76317,[3.00000 0.00000 0.00000],[1.30000 0.00000 0.00000],-0.02434,0.01749,0.01425,0.00000,0.00000,0.00968,0.01198,0.12853,0.00287,0.98527,1.55628,0.00977,0.65374,-1.12677,-1.11660,0.19561,-0.35295,1.51379,0.26746,-0.51891,-1.07992,-1.07992,57.68866,11.98066,57.68866083,11.98065396,A,144010.90
18:29:51.347990,1.59028,0.00941,0.76317,0.76317,[3.00000 0.00000 0.00000],[1.30000 0.00000 0.00000],-0.02405,0.01749,0.01547,0.00000,0.00000,0.00219,0.01168,0.07039,-0.00567,1.01351,1.58222,0.00977,0.67563,-1.12108,-1.11090,0.20544,-0.37403,1.51379,0.26746,-0.51891,-1.07992,-1.07992,57.68866,11.98066,57.68866064,11.98065412,A,144010.90
18:29:51.358450,1.60127,0.00845,0.76317,0.76317,[3.00000 0.00000 0.00000],[1.30000 0.00000 0.00000],-0.02437,0.01755,0.01364,0.00000,0.00000,0.01029,0.00923,0.11090,-0.03050,1.02144,1.59350,0.00733,0.69314,-1.11635,-1.10615,0.21114,-0.38652,1.51379,0.26746,-0.51891,-1.07992,-1.07992,57.68866,11.98066,57.68866052,11.98065422,A,144010.90
18:29:51.370065,1.61313,0.00976,0.76317,0.76317,[3.00000 0.00000 0.00000],[1.30000 0.00000 0.00000],-0.02469,0.01763,0.00448,0.00000,0.00000,0.01823,0.00908,0.10035,-0.02391,1.01089,1.60468,0.01954,0.70714,-1.11234,-1.10209,0.21669,-0.39859,1.51379,0.26746,-0.51891,-1.07992,-1.07992,57.68866,11.98066,57.68866042,11.98065431,A,144010.90
18:29:51.395455,1.63853,0.02343,0.76317,0.76317,[3.00000 0.00000 0.00000],[1.30000 0.00000 0.00000],-0.02480,0.01777,0.00295,0.00000,0.00000,0.01655,0.01030,0.09699,-0.00860,0.98491,1.61564,0.00977,0.71835,-1.12525,-1.11492,0.22789,-0.42249,1.63478,0.29718,-0.59304,-1.18952,-1.18952,57.68866,11.98066,57.68866020,11.98065450,A,144011.00
18:29:51.419707,1.66278,0.01101,0.76317,0.76317,[3.00000 0.00000 0.00000],[1.30000 0.00000 0.00000],-0.02472,0.01826,0.00234,0.00000,0.00000,0.01029,0.01244,0.13457,0.00018,1.00205,1.65321,0.01465,0.72731,-1.13628,-1.12566,0.23786,-0.44428,1.63478,0.29718,-0.59304,-1.18952,-1.18952,57.68866,11.98066,57.68866000,11.98065467,A,144011.00
18:29:51.438833,1.68190,0.00878,0.76317,0.76317,[3.00000 0.00000 0.00000],[1.30000 0.00000 0.00000],-0.02505,0.01843,-0.00163,0.00000,0.00000,-0.00697,0.01488,0.13853,-0.01891,1.00674,1.67455,0.00733,0.73449,-1.14571,-1.13499,0.24588,-0.46231,1.63478,0.29718,-0.59304,-1.18952,-1.18952,57.68866,11.98066,57.68865984,11.98065480,A,144011.00
18:29:51.448118,1.69119,0.00802,0.76317,0.76317,[3.00000 0.00000 0.00000],[1.30000 0.00000 0.00000],-0.02529,0.01848,-0.00239,0.00000,0.00000,-0.01537,0.01275,0.11663,-0.01415,0.99149,1.68286,0.01221,0.74022,-1.15383,-1.14308,0.25034,-0.47292,1.63478,0.29718,-0.59304,-1.18952,-1.18952,57.68866,11.98066,57.68865975,11.98065488,A,144011.00
18:29:51.461061,1.70413,0.01020,0.76317,0.76317,[3.00000 0.00000 0.00000],[1.30000 0.00000 0.00000],-0.02553,0.01868,0.00219,0.00000,0.00000,-0.02056,0.01687,0.10504,-0.01745,0.98942,1.69510,0.01465,0.74481,-1.16071,-1.14985,0.25549,-0.48509,1.63478,0.29718,-0.59304,-1.18952,-1.18952,57.68866,11.98066,57.68865964,11.98065497,A,144011.00
18:29:51.486310,1.72915,0.01169,1.01660,1.01660,[3.00000 0.00000 0.00000],[1.30000 0.00000 0.00000],-0.02570,0.01910,-0.00239,0.00000,0.00000,-0.00682,0.02237,0.09473,-0.00677,0.99979,1.72006,0.00977,0.79917,-1.16647,-1.15536,0.26404,-0.50493,1.63478,0.29718,-0.59304,-1.18952,-1.18952,57.68866,11.98066,57.68865946,11.98065511,A,144011.00
18:29:51.526544,1.76961,0.02625,1.01660,1.01660,[3.00000 0.00000 0.00000],[1.30000 0.00000 0.00000],-0.02583,0.01916,0.00051,0.00000,0.00000,-0.00514,0.01794,0.11279,-0.00891,1.00534,1.74585,0.01465,0.84265,-1.17117,-1.16003,0.27895,-0.53972,1.76552,0.32690,-0.66717,-1.18952,-1.18952,57.68866,11.98066,57.68865915,11.98065536,A,144011.10
18:29:51.549886,1.79296,0.01167,1.01660,1.01660,[3.00000 0.00000 0.00000],[1.30000 0.00000 0.00000],-0.02614,0.01916,-0.00697,0.00000,0.00000,-0.00147,0.00419,0.07759,-0.00335,0.99796,1.78335,0.01709,0.87744,-1.17536,-1.16422,0.28763,-0.56051,1.76552,0.32690,-0.66717,-1.18952,-1.18952,57.68866,11.98066,57.68865896,11.98065551,A,144011.10
18:29:51.574858,1.81721,0.01059,1.01660,1.01660,[3.00000 0.00000 0.00000],[1.30000 0.00000 0.00000],-0.02619,0.01916,-0.00392,0.00000,0.00000,0.00448,0.00343,0.09113,0.00335,0.99113,1.80811,0.02442,0.90527,-1.17889,-1.16774,0.29668,-0.58231,1.76552,0.32690,-0.66717,-1.18952,-1.18952,57.68866,11.98066,57.68865876,11.98065566,A,144011.10
18:29:51.597878,1.84095,0.01234,1.01660,1.01660,[3.00000 0.00000 0.00000],[1.30000 0.00000 0.00000],-0.02679,0.01916,-0.00713,0.00000,0.00000,-0.00667,0.00251,0.07229,-0.02763,0.95666,1.83176,0.00977,0.92754,-1.18188,-1.17073,0.30547,-0.60362,1.76552,0.32690,-0.66717,-1.18952,-1.18952,57.68866,11.98066,57.68865857,11.98065581,A,144011.10
18:29:51.624087,1.86716,0.01249,1.01660,1.01660,[3.00000 0.00000 0.00000],[1.30000 0.00000 0.00000],-0.02716,0.01916,-0.00713,0.00000,0.00000,0.00112,-0.00375,0.07723,-0.01336,0.97911,1.85723,0.01954,0.94535,-1.18439,-1.17325,0.31445,-0.62549,1.76552,0.32690,-0.66717,-1.18952,-1.18952,57.68866,11.98066,57.68865837,11.98065596,A,144011.10
18:29:51.674957,1.91803,0.03708,1.01660,1.01660,[3.00000 0.00000 0.00000],[1.30000 0.00000 0.00000],-0.02742,0.01916,0.00310,0.00000,0.00000,0.00204,-0.00512,0.08650,-0.02300,0.98850,1.88350,0.02442,0.95960,-1.16973,-1.15859,0.33662,-0.67662,1.91430,0.41605,-0.83396,-1.07992,-1.07992,57.68866,11.98066,57.68865791,11.98065633,A,144011.30
18:29:51.702385,1.94522,0.01372,1.01660,1.01660,[3.00000 0.00000 0.00000],[1.30000 0.00000 0.00000],-0.02695,0.01916,0.01899,0.00000,0.00000,0.02098,0.00099,0.07729,-0.03074,0.96374,1.93328,0.01221,0.97100,-1.15763,-1.14649,0.34875,-0.70315,1.91430,0.41605,-0.83396,-1.07992,-1.07992,57.68866,11.98066,57.68865768,11.98065653,A,144011.30
18:29:51.727172,1.97010,0.01329,1.07387,1.07387,[3.00000 0.00000 0.00000],[1.30000 0.00000 0.00000],-0.02674,0.01916,0.01578,0.00000,0.00000,0.02434,-0.00466,0.09260,-0.01318,0.99833,1.95920,0.01709,0.99157,-1.14735,-1.13621,0.36023,-0.72766,1.91430,0.41605,-0.83396,-1.07992,-1.07992,57.68866,11.98066,57.68865746,11.98065673,A,144011.30
18:29:51.751649,1.99472,0.01234,1.07387,1.07387,[3.00000 0.00000 0.00000],[1.30000 0.00000 0.00000],-0.02628,0.01916,0.02036,0.00000,0.00000,0.00555,-0.00818,0.08991,-0.00403,1.02931,1.98446,0.02686,1.00803,-1.13859,-1.12745,0.37183,-0.75195,1.91430,0.41605,-0.83396,-1.07992,-1.07992,57.68866,11.98066,57.68865724,11.98065692,A,144011.30
18:29:51.791413,2.03448,0.02691,1.07387,1.07387,[3.00000 0.00000 0.00000],[1.30000 0.00000 0.00000],-0.02572,0.01916,0.02723,0.00000,0.00000,0.00112,-0.00466,0.03904,-0.00903,1.00253,2.01073,0.00733,1.02120,-1.14394,-1.13280,0.39164,-0.79356,2.03071,0.45567,-0.92662,-1.16671,-1.16671,57.68866,11.98066,57.68865686,11.98065726,A,144011.40
18:29:51.819950,2.06301,0.01653,1.07387,1.07387,[3.00000 0.00000 0.00000],[1.30000 0.00000 0.00000],-0.02454,0.01908,0.02754,0.00000,0.00000,0.01991,0.00465,0.06722,0.00866,0.96776,2.04942,0.01221,1.03173,-1.14872,-1.13763,0.40341,-0.81851,2.03071,0.45567,-0.92662,-1.16671,-1.16671,57.68866,11.98066,57.68865664,11.98065745,A,144011.40
18:29:51.846650,2.08972,0.01334,1.07387,1.07387,[3.00000 0.00000 0.00000],[1.30000 0.00000 0.00000],-0.02419,0.01831,0.02571,0.00000,0.00000,0.01074,-0.01566,0.14469,-0.02403,0.98472,2.07904,0.03663,1.04016,-1.15264,-1.14199,0.41665,-0.84690,2.03071,0.45567,-0.92662,-1.16671,-1.16671,57.68866,11.98066,57.68865638,11.98065768,A,144011.40
18:29:51.875249,2.11831,0.01377,1.07387,1.07387,[3.00000 0.00000 0.00000],[1.30000 0.00000 0.00000],-0.02274,0.01794,0.02372,0.00000,0.00000,0.02021,-0.01551,-0.05575,0.05520,1.02956,2.10811,0.01954,1.04690,-1.15595,-1.14551,0.42937,-0.87444,2.03071,0.45567,-0.92662,-1.16671,-1.16671,57.68866,11.98066,57.68865614,11.98065789,A,144011.40
18:29:51.914865,2.15794,0.02661,1.33582,1.33582,[3.00000 0.00000 0.00000],[1.30000 0.00000 0.00000],-0.02086,0.01794,0.03533,0.00000,0.00000,0.01884,-0.00314,0.15988,0.07021,0.99570,2.13363,0.05128,1.10469,-1.16785,-1.15742,0.44860,-0.91778,2.15295,0.49530,-1.03782,-1.22848,-1.22848,57.68865,11.98066,57.68865575,11.98065821,A,144011.50
18:29:51.939381,2.18245,0.01325,1.33582,1.33582,[3.00000 0.00000 0.00000],[1.30000 0.00000 0.00000],-0.01999,0.01794,0.05136,0.00000,0.00000,0.02388,-0.00344,0.01708,-0.06844,1.04975,2.17193,0.01954,1.15091,-1.17820,-1.16777,0.45978,-0.94396,2.15295,0.49530,-1.03782,-1.22848,-1.22848,57.68865,11.98066,57.68865551,11.98065840,A,144011.50
18:29:51.967802,2.21086,0.01467,3.56091,1.33582,[3.00000 0.00000 0.00000],[1.30000 0.00000 0.00000],-0.01839,0.01794,0.07030,0.00000,0.00000,-0.01232,0.00160,0.01494,-0.01982,1.00266,2.20089,0.02930,1.18789,-1.18692,-1.17649,0.47250,-0.97431,2.15295,0.49530,-1.03782,-1.22848,-1.22848,57.68865,11.98066,57.68865524,11.98065862,A,144011.50
18:29:51.991055,2.23413,0.01214,3.56091,1.33582,[3.00000 0.00000 0.00000],[1.30000 0.00000 0.00000],-0.01916,0.01794,0.06801,0.00000,0.00000,0.01853,-0.01215,-0.15775,-0.15152,1.00223,2.22506,0.04884,1.21748,-1.19439,-1.18395,0.48275,-0.99939,2.15295,0.49530,-1.03782,-1.22848,-1.22848,57.68865,11.98066,57.68865501,11.98065879,A,144011.50
18:29:52.033994,2.27707,0.02946,3.56091,1.33582,[3.00000 0.00000 0.00000],[1.30000 0.00000 0.00000],-0.01650,0.01794,0.07931,0.00000,0.00000,0.00570,-0.00604,0.15579,0.03837,0.93409,2.25279,0.05372,1.24114,-1.15037,-1.13993,0.50452,-1.04961,2.27228,0.55473,-1.11195,-0.89497,-0.89497,57.68865,11.98066,57.68865456,11.98065916,A,144011.60
18:29:52.060844,2.30391,0.01524,3.56091,1.33582,[3.00000 0.00000 0.00000],[1.30000 0.00000 0.00000],-0.01305,0.01794,0.06923,0.00000,0.00000,-0.00773,-0.00543,-0.07643,0.06015,1.07378,2.29346,0.02930,1.26008,-1.11323,-1.10280,0.51875,-1.07824,2.27228,0.55473,-1.11195,-0.89497,-0.89497,57.68865,11.98066,57.68865430,11.98065939,A,144011.60
18:29:52.086540,2.32959,0.01342,3.56091,1.33582,[3.00000 0.00000 0.00000],[1.30000 0.00000 0.00000],-0.01182,0.01792,0.07809,0.00000,0.00000,0.03594,-0.00314,0.08028,-0.03715,0.92293,2.32007,0.04640,1.27523,-1.08166,-1.07124,0.53331,-1.10516,2.27228,0.55473,-1.11195,-0.89497,-0.89497,57.68865,11.98066,57.68865406,11.98065964,A,144011.60
18:29:52.116503,2.35902,0.01539,3.56091,1.33582,[3.00000 0.00000 0.00000],[1.30000 0.00000 0.00000],-0.00983,0.01726,0.04785,0.00000,0.00000,0.01899,-0.01444,0.03715,0.05935,0.97929,2.34786,0.01221,1.28734,-1.05471,-1.04467,0.54984,-1.13383,2.27228,0.55473,-1.11195,-0.89497,-0.89497,57.68865,11.98066,57.68865380,11.98065992,A,144011.60
18:29:52.168463,2.41154,0.03777,1.36826,1.36826,[3.00000 0.00000 0.00000],[1.30000 0.00000 0.00000],-0.00871,0.01619,0.05946,0.00000,0.00000,0.01670,-0.01337,0.15872,-0.01793,1.00272,2.37597,0.02442,1.30353,-1.06543,-1.05601,0.58638,-1.19682,2.40672,0.64389,-1.29727,-1.12241,-1.12241,57.68865,11.98066,57.68865324,11.98066053,A,144011.80
18:29:52.195497,2.43856,0.01371,1.36826,1.36826,[3.00000 0.00000 0.00000],[1.30000 0.00000 0.00000],-0.00671,0.01497,0.03869,0.00000,0.00000,0.01991,-0.00344,0.11505,0.01921,0.99955,2.42810,0.01221,1.31647,-1.07493,-1.06622,0.60316,-1.22644,2.40672,0.64389,-1.29727,-1.12241,-1.12241,57.68865,11.98066,57.68865297,11.98066081,A,144011.80
18:29:52.219105,2.46218,0.01175,1.36826,1.36826,[3.00000 0.00000 0.00000],[1.30000 0.00000 0.00000],-0.00639,0.01486,0.02204,0.00000,0.00000,0.00051,-0.01490,0.13408,0.00714,0.95807,2.45166,0.01465,1.32683,-1.08305,-1.07441,0.61759,-1.25241,2.40672,0.64389,-1.29727,-1.12241,-1.12241,57.68865,11.98066,57.68865274,11.98066106,A,144011.80
18:29:52.245386,2.48845,0.01359,1.36826,1.36826,[3.00000 0.00000 0.00000],[1.30000 0.00000 0.00000],-0.00580,0.01486,0.02739,0.00000,0.00000,0.01074,-0.01535,0.06448,0.01293,0.98936,2.47793,0.01465,1.33512,-1.08992,-1.08128,0.63228,-1.27934,2.40672,0.64389,-1.29727,-1.12241,-1.12241,57.68865,11.98066,57.68865249,11.98066130,A,144011.80
18:29:52.284048,2.52712,0.02689,1.36826,1.36826,[3.00000 0.00000 0.00000],[1.30000 0.00000 0.00000],-0.00553,0.01486,0.02067,0.00000,0.00000,0.00876,-0.01429,0.20356,0.00543,0.96783,2.50268,0.00488,1.34174,-1.12363,-1.11499,0.65655,-1.32749,2.52231,0.67361,-1.40847,-1.30964,-1.30964,57.68865,11.98066,57.68865206,11.98066171,A,144011.90
18:29:52.307816,2.55024,0.01120,1.36826,1.36826,[3.00000 0.00000 0.00000],[1.30000 0.00000 0.00000],-0.00500,0.01486,0.02525,0.00000,0.00000,0.00937,-0.00864,0.23259,-0.00647,0.92964,2.54102,0.00244,1.34705,-1.15253,-1.14389,0.66874,-1.35465,2.52231,0.67361,-1.40847,-1.30964,-1.30964,57.68865,11.98066,57.68865182,11.98066192,A,144011.90
18:29:52.329853,2.57292,0.01004,1.31010,1.31010,[3.00000 0.00000 0.00000],[1.30000 0.00000 0.00000],-0.00390,0.01486,0.02051,0.00000,0.00000,-0.03293,-0.00314,0.26309,0.06228,0.94190,2.56280,0.00000,1.33966,-1.17711,-1.16847,0.67912,-1.37964,2.52231,0.67361,-1.40847,-1.30964,-1.30964,57.68865,11.98066,57.68865159,11.98066209,A,144011.90
18:29:52.355618,2.59868,0.01456,1.31010,1.31010,[3.00000 0.00000 0.00000],[1.30000 0.00000 0.00000],-0.00398,0.01477,0.00814,0.00000,0.00000,-0.06958,-0.01001,0.13688,0.00451,0.99955,2.58710,0.00000,1.33375,-1.19797,-1.18938,0.68918,-1.40537,2.52231,0.67361,-1.40847,-1.30964,-1.30964,57.68865,11.98066,57.68865136,11.98066226,A,144011.90
18:29:52.379964,2.62304,0.01260,1.31010,1.31010,[3.00000 0.00000 0.00000],[1.30000 0.00000 0.00000],-0.00414,0.01441,0.01364,0.00000,0.00000,-0.01659,-0.01001,0.16885,-0.01226,1.05640,2.61309,0.00000,1.32902,-1.21565,-1.20728,0.69892,-1.43174,2.52231,0.67361,-1.40847,-1.30964,-1.30964,57.68865,11.98066,57.68865112,11.98066243,A,144011.90
18:29:52.421809,2.66488,0.02707,1.31010,1.31010,[3.00000 0.00000 0.00000],[1.30000 0.00000 0.00000],-0.00437,0.01336,-0.00300,0.00000,0.00000,0.01365,-0.01093,0.06332,0.01318,1.04871,2.64057,0.00000,1.32523,-1.21817,-1.21041,0.71772,-1.48367,2.66007,0.71323,-1.51966,-1.22848,-1.22848,57.68865,11.98066,57.68865066,11.98066274,A,144012.00
18:29:52.447587,2.69066,0.01405,1.31010,1.31010,[3.00000 0.00000 0.00000],[1.30000 0.00000 0.00000],-0.00516,0.01132,-0.01400,0.00000,0.00000,0.00357,-0.02207,0.39558,0.00403,0.88834,2.67867,0.00000,1.32221,-1.22042,-1.21383,0.72736,-1.51166,2.66007,0.71323,-1.51966,-1.22848,-1.22848,57.68865,11.98066,57.68865041,11.98066290,A,144012.00
18:29:52.473388,2.71646,0.01362,1.31010,1.31010,[3.00000 0.00000 0.00000],[1.30000 0.00000 0.00000],-0.00639,0.01095,-0.00835,0.00000,0.00000,-0.00911,-0.01474,0.01391,-0.04953,1.04786,2.70419,0.00244,1.31979,-1.22233,-1.21597,0.73641,-1.53822,2.66007,0.71323,-1.51966,-1.22848,-1.22848,57.68865,11.98066,57.68865017,11.98066306,A,144012.00
18:29:52.496514,2.73959,0.01043,1.31010,1.31010,[3.00000 0.00000 0.00000],[1.30000 0.00000 0.00000],-0.00656,0.01087,-0.02011,0.00000,0.00000,0.02770,-0.00986,0.23186,0.04459,1.03108,2.73082,0.00000,1.31785,-1.22398,-1.21766,0.74439,-1.56195,2.66007,0.71323,-1.51966,-1.22848,-1.22848,57.68865,11.98066,57.68864995,11.98066319,A,144012.00
18:29:52.537689,2.78076,0.02768,1.27891,1.27891,[3.00000 0.00000 0.00000],[1.30000 0.00000 0.00000],-0.00692,0.00974,-0.00682,0.00000,0.00000,0.03884,-0.01215,0.00762,0.00659,1.00479,2.75597,0.00000,1.31006,-1.19088,-1.18522,0.76296,-1.61102,2.77594,0.77267,-1.61233,-1.00047,-1.00047,57.68865,11.98066,57.68864951,11.98066350,A,144012.10
18:29:52.564491,2.80686,0.01233,1.27891,1.27891,[3.00000 0.00000 0.00000],[1.30000 0.00000 0.00000],-0.00765,0.00558,-0.01415,0.00000,0.00000,-0.02331,-0.02696,0.18172,0.00744,0.93434,2.79702,0.00000,1.30383,-1.16259,-1.15935,0.77425,-1.63771,2.77594,0.77267,-1.61233,-1.00047,-1.00047,57.68865,11.98066,57.68864927,11.98066369,A,144012.10
18:29:52.590921,2.83316,0.01205,1.27891,1.27891,[3.00000 0.00000 0.00000],[1.30000 0.00000 0.00000],-0.00830,0.00470,-0.00453,0.00000,0.00000,0.00448,-0.02299,0.16500,-0.01830,1.03779,2.82370,0.00000,1.29885,-1.13856,-1.13583,0.78536,-1.66209,2.77594,0.77267,-1.61233,-1.00047,-1.00047,57.68865,11.98066,57.68864905,11.98066388,A,144012.10
18:29:52.617275,2.86035,0.01267,1.27891,1.27891,[3.00000 0.00000 0.00000],[1.30000 0.00000 0.00000],-0.00892,0.00459,0.00326,0.00000,0.00000,-0.00941,-0.02223,0.16751,-0.02891,0.96234,2.84924,0.00000,1.29486,-1.11815,-1.11548,0.79664,-1.68524,2.77594,0.77267,-1.61233,-1.00047,-1.00047,57.68865,11.98066,57.68864884,11.98066407,A,144012.10
18:29:52.669377,2.91245,0.03829,1.27891,1.27891,[3.00000 0.00000 0.00000],[1.30000 0.00000 0.00000],-0.00912,0.00317,0.02632,0.00000,0.00000,0.00509,-0.02788,0.09492,-0.04551,1.01217,2.87701,0.00000,1.29167,-1.11246,-1.11062,0.83026,-1.75152,2.90767,0.91135,-1.87178,-1.07992,-1.07992,57.68865,11.98067,57.68864825,11.98066464,A,144012.30
18:29:52.696705,2.93978,0.01305,1.78925,1.78925,[3.00000 0.00000 0.00000],[1.30000 0.00000 0.00000],-0.00735,0.00011,0.02815,0.00000,0.00000,0.01487,-0.03231,0.04929,0.03636,0.94696,2.92836,0.00488,1.39119,-1.10752,-1.10745,0.84715,-1.78341,2.90767,0.91135,-1.87178,-1.07992,-1.07992,57.68865,11.98067,57.68864796,11.98066492,A,144012.30
18:29:52.720583,2.96366,0.01235,1.78925,1.78925,[3.00000 0.00000 0.00000],[1.30000 0.00000 0.00000],-0.00673,0.00008,0.02494,0.00000,0.00000,-0.00193,-0.03353,0.30689,0.01537,0.95746,2.95431,0.00000,1.47080,-1.10338,-1.10333,0.86269,-1.81251,2.90767,0.91135,-1.87178,-1.07992,-1.07992,57.68865,11.98067,57.68864770,11.98066518,A,144012.30
18:29:52.748835,2.99191,0.01342,1.78925,1.78925,[3.00000 0.00000 0.00000],[1.30000 0.00000 0.00000],-0.00654,-0.00034,0.03762,0.00000,0.00000,0.00784,-0.03383,0.00805,-0.03581,1.06878,2.98023,0.00000,1.53449,-1.09983,-1.10003,0.88059,-1.84613,2.90767,0.91135,-1.87178,-1.07992,-1.07992,57.68865,11.98067,57.68864740,11.98066548,A,144012.30
18:29:52.792094,3.03517,0.02825,1.78925,1.78925,[3.00000 0.00000 0.00000],[1.30000 0.00000 0.00000],-0.00602,-0.00122,0.02601,0.00000,0.00000,0.00433,-0.03826,0.37021,0.00195,1.04304,3.00975,0.00000,1.58544,-1.08918,-1.08988,0.91407,-1.90881,3.03037,1.00050,-2.02004,-1.02940,-1.02940,57.68865,11.98067,57.68864683,11.98066605,A,144012.40
18:29:52.815298,3.05837,0.01082,1.80965,1.80965,[3.00000 0.00000 0.00000],[1.30000 0.00000 0.00000],-0.00566,-0.00144,0.04357,0.00000,0.00000,-0.00422,-0.02818,0.19843,-0.06130,0.88578,3.04869,0.00244,1.63029,-1.08011,-1.08095,0.93237,-1.94117,3.03037,1.00050,-2.02004,-1.02940,-1.02940,57.68865,11.98067,57.68864654,11.98066635,A,144012.40
18:29:52.841202,3.08427,0.01351,1.80965,1.80965,[3.00000 0.00000 0.00000],[1.30000 0.00000 0.00000],-0.00518,-0.00161,0.02449,0.00000,0.00000,-0.02805,-0.03612,0.23497,0.01098,0.96526,3.07314,0.00000,1.66616,-1.07240,-1.07334,0.95194,-1.97544,3.03037,1.00050,-2.02004,-1.02940,-1.02940,57.68865,11.98067,57.68864623,11.98066668,A,144012.40
18:29:52.866831,3.10990,0.01278,1.80965,1.80965,[3.00000 0.00000 0.00000],[1.30000 0.00000 0.00000],-0.00397,-0.00198,0.01731,0.00000,0.00000,-0.01155,-0.04116,-0.00006,0.07625,1.08281,3.09873,0.00000,1.69486,-1.06582,-1.06697,0.97072,-2.00777,3.03037,1.00050,-2.02004,-1.02940,-1.02940,57.68865,11.98067,57.68864594,11.98066700,A,144012.40
18:29:52.890803,3.13387,0.01267,1.80965,1.80965,[3.00000 0.00000 0.00000],[1.30000 0.00000 0.00000],-0.00292,-0.00198,0.01838,0.00000,0.00000,-0.03079,-0.04987,0.19392,0.06167,1.00894,3.12293,0.00000,1.71782,-1.06024,-1.06139,0.98828,-2.03754,3.03037,1.00050,-2.02004,-1.02940,-1.02940,57.68865,11.98067,57.68864568,11.98066729,A,144012.40
18:29:52.928759,3.17183,0.02679,1.80965,1.80965,[3.00000 0.00000 0.00000],[1.30000 0.00000 0.00000],-0.00220,-0.00198,0.02632,0.00000,0.00000,-0.03354,-0.03994,0.08186,0.02684,0.97502,3.14690,0.00000,1.73618,-1.07112,-1.07227,1.02139,-2.09606,3.16705,1.06985,-2.16830,-1.13332,-1.13332,57.68864,11.98067,57.68864515,11.98066785,A,144012.50
18:29:52.953146,3.19555,0.01258,1.84942,1.84942,[3.00000 0.00000 0.00000],[1.30000 0.00000 0.00000],-0.00113,-0.00198,0.02907,0.00000,0.00000,-0.01629,-0.02864,0.17391,0.02117,1.02553,3.18494,0.00244,1.75883,-1.08032,-1.08148,1.03950,-2.12848,3.16705,1.06985,-2.16830,-1.13332,-1.13332,57.68864,11.98067,57.68864486,11.98066816,A,144012.50
18:29:52.977054,3.22012,0.01143,1.84942,1.84942,[3.00000 0.00000 0.00000],[1.30000 0.00000 0.00000],-0.00059,-0.00198,0.01807,0.00000,0.00000,-0.00468,-0.03841,0.13011,0.02775,0.94337,3.20962,0.00000,1.77695,-1.08815,-1.08931,1.05747,-2.16137,3.16705,1.06985,-2.16830,-1.13332,-1.13332,57.68864,11.98067,57.68864456,11.98066846,A,144012.50
18:29:53.004299,3.24737,0.01205,1.84942,1.84942,[3.00000 0.00000 0.00000],[1.30000 0.00000 0.00000],0.00055,-0.00198,0.01288,0.00000,0.00000,-0.00147,-0.04254,0.02977,0.08455,1.09971,3.23644,0.00244,1.79144,-1.09482,-1.09597,1.07758,-2.19902,3.16705,1.06985,-2.16830,-1.13332,-1.13332,57.68864,11.98067,57.68864422,11.98066880,A,144012.50
18:29:53.047242,3.29031,0.02906,1.84942,1.84942,[3.00000 0.00000 0.00000],[1.30000 0.00000 0.00000],0.00034,-0.00198,0.01044,0.00000,0.00000,0.02800,-0.02940,0.09870,-0.00909,1.03761,3.26481,0.00000,1.80304,-1.08577,-1.08692,1.11484,-2.26941,3.28414,1.16891,-2.33509,-1.03487,-1.03487,57.68864,11.98067,57.68864359,11.98066942,A,144012.60
18:29:53.069597,3.31267,0.01051,2.14802,2.14802,[3.00000 0.00000 0.00000],[1.30000 0.00000 0.00000],0.00125,-0.00198,0.02754,0.00000,0.00000,-0.00483,-0.01780,0.06936,0.01464,0.93092,3.30319,0.01954,1.87204,-1.07801,-1.07916,1.13314,-2.30239,3.28414,1.16891,-2.33509,-1.03487,-1.03487,57.68864,11.98067,57.68864329,11.98066973,A,144012.60
18:29:53.096603,3.33967,0.01375,2.14802,2.14802,[3.00000 0.00000 0.00000],[1.30000 0.00000 0.00000],0.00107,-0.00198,0.01532,0.00000,0.00000,0.01181,-0.03292,0.12804,-0.01336,1.01077,3.32919,0.00000,1.92723,-1.07143,-1.07258,1.15445,-2.34047,3.28414,1.16891,-2.33509,-1.03487,-1.03487,57.68864,11.98067,57.68864295,11.98067009,A,144012.60
18:29:53.121722,3.36478,0.01349,2.14802,2.14802,[3.00000 0.00000 0.00000],[1.30000 0.00000 0.00000],0.00159,-0.00198,0.00784,0.00000,0.00000,0.02846,-0.03841,0.11761,0.04557,0.97435,3.35368,0.00000,1.97139,-1.06583,-1.06698,1.17325,-2.37343,3.28414,1.16891,-2.33509,-1.03487,-1.03487,57.68864,11.98067,57.68864266,11.98067041,A,144012.60
18:29:53.173998,3.41707,0.03893,2.14802,2.14802,[3.00000 0.00000 0.00000],[1.30000 0.00000 0.00000],0.00135,-0.00198,0.01868,0.00000,0.00000,0.00815,-0.02284,0.21521,-0.02300,0.96575,3.38104,0.00488,2.00672,-1.08094,-1.08209,1.22740,-2.47430,3.41232,1.32740,-2.70574,-1.16671,-1.16671,57.68864,11.98067,57.68864175,11.98067132,A,144012.80
18:29:53.200394,3.44347,0.01287,2.10301,2.10301,[3.00000 0.00000 0.00000],[1.30000 0.00000 0.00000],0.00146,-0.00198,0.03059,0.00000,0.00000,0.00845,-0.01413,0.22735,-0.07619,1.07451,3.43251,0.00244,2.02597,-1.09370,-1.09485,1.25265,-2.52395,3.41232,1.32740,-2.70574,-1.16671,-1.16671,57.68864,11.98067,57.68864130,11.98067174,A,144012.80
18:29:53.227581,3.47065,0.01260,2.10301,2.10301,[3.00000 0.00000 0.00000],[1.30000 0.00000 0.00000],0.00252,-0.00190,0.02464,0.00000,0.00000,-0.01873,-0.02146,0.24498,0.04447,0.85809,3.45976,0.00000,2.04138,-1.10455,-1.10566,1.27677,-2.57259,3.41232,1.32740,-2.70574,-1.16671,-1.16671,57.68864,11.98067,57.68864086,11.98067215,A,144012.80
18:29:53.256273,3.49874,0.01274,2.62253,2.62253,[3.00000 0.00000 0.00000],[1.30000 0.00000 0.00000],0.00364,-0.00187,0.02739,0.00000,0.00000,-0.06271,-0.01841,0.15714,0.04880,1.01522,3.48881,0.00000,2.15761,-1.11379,-1.11487,1.30117,-2.62282,3.41232,1.32740,-2.70574,-1.16671,-1.16671,57.68864,11.98067,57.68864041,11.98067256,A,144012.80
18:29:53.295544,3.53862,0.02541,2.62253,2.62253,[3.00000 0.00000 0.00000],[1.30000 0.00000 0.00000],0.00385,-0.00187,0.01807,0.00000,0.00000,-0.01736,-0.01642,0.03623,0.01287,1.07927,3.51392,0.00000,2.25060,-1.11667,-1.11775,1.34037,-2.70457,3.53380,1.39674,-2.85400,-1.13332,-1.13332,57.68864,11.98067,57.68863968,11.98067322,A,144012.90
18:29:53.316432,3.55950,0.01240,2.62253,2.62253,[3.00000 0.00000 0.00000],[1.30000 0.00000 0.00000],0.00436,-0.00187,0.03227,0.00000,0.00000,-0.00269,-0.00573,0.07046,-0.01202,1.00144,3.54853,0.00000,2.32498,-1.11905,-1.12014,1.35825,-2.74298,3.53380,1.39674,-2.85400,-1.13332,-1.13332,57.68864,11.98067,57.68863933,11.98067352,A,144012.90
18:29:53.343799,3.58687,0.01366,2.62253,2.62253,[3.00000 0.00000 0.00000],[1.30000 0.00000 0.00000],0.00520,-0.00187,0.02403,0.00000,0.00000,-0.02392,-0.01337,-0.07094,0.04319,1.08781,3.57628,0.00000,2.38449,-1.12111,-1.12219,1.38342,-2.79657,3.53380,1.39674,-2.85400,-1.13332,-1.13332,57.68864,11.98067,57.68863885,11.98067394,A,144012.90
18:29:53.372477,3.61555,0.01431,1.95809,1.95809,[3.00000 0.00000 0.00000],[1.30000 0.00000 0.00000],0.00439,-0.00187,0.01532,0.00000,0.00000,-0.01766,-0.03307,0.14896,-0.05667,1.06774,3.60469,0.01221,2.29921,-1.12286,-1.12394,1.40820,-2.84953,3.53380,1.39674,-2.85400,-1.13332,-1.13332,57.68864,11.98067,57.68863837,11.98067436,A,144012.90
18:29:53.409763,3.65284,0.02501,1.95809,1.95809,[3.00000 0.00000 0.00000],[1.30000 0.00000 0.00000],0.00466,-0.00187,0.00585,0.00000,0.00000,-0.02667,-0.03032,0.05899,0.03569,0.95825,3.62872,0.00488,2.23099,-1.14082,-1.14190,1.44487,-2.93044,3.64807,1.46608,-3.05786,-1.24292,-1.24292,57.68864,11.98068,57.68863765,11.98067498,A,144013.00
18:29:53.438002,3.68107,0.01257,1.95809,1.95809,[3.00000 0.00000 0.00000],[1.30000 0.00000 0.00000],0.00514,-0.00187,0.02830,0.00000,0.00000,-0.01369,-0.01291,-0.06570,-0.01763,0.93623,3.67145,0.00733,2.17641,-1.15605,-1.15713,1.46842,-2.98600,3.64807,1.46608,-3.05786,-1.24292,-1.24292,57.68864,11.98068,57.68863715,11.98067537,A,144013.00
18:29:53.464185,3.70726,0.01091,1.95809,1.95809,[3.00000 0.00000 0.00000],[1.30000 0.00000 0.00000],0.00495,-0.00187,0.00081,0.00000,0.00000,0.03075,-0.02681,-0.10291,0.01537,1.01150,3.69755,0.00000,2.13274,-1.16899,-1.17007,1.48813,-3.03475,3.64807,1.46608,-3.05786,-1.24292,-1.24292,57.68864,11.98068,57.68863671,11.98067570,A,144013.00
18:29:53.489402,3.73247,0.01075,2.49079,2.49079,[3.00000 0.00000 0.00000],[1.30000 0.00000 0.00000],0.00455,-0.00187,-0.00988,0.00000,0.00000,0.02617,-0.04407,0.15018,0.01696,0.94428,3.72271,0.01221,2.20435,-1.17998,-1.18107,1.50407,-3.07615,3.64807,1.46608,-3.05786,-1.24292,-1.24292,57.68864,11.98068,57.68863634,11.98067597,A,144013.00
18:29:53.528023,3.77110,0.02589,2.49079,2.49079,[3.00000 0.00000 0.00000],[1.30000 0.00000 0.00000],0.00407,-0.00187,-0.01446,0.00000,0.00000,0.01533,-0.04819,0.16061,0.01964,1.03200,3.74704,0.00244,2.26164,-1.17070,-1.17179,1.53700,-3.15815,3.76630,1.56514,-3.26172,-1.11847,-1.11847,57.68863,11.98068,57.68863560,11.98067653,A,144013.10
18:29:53.555408,3.79847,0.01481,2.49079,2.49079,[3.00000 0.00000 0.00000],[1.30000 0.00000 0.00000],0.00223,-0.00190,-0.02301,0.00000,0.00000,0.03289,-0.04834,0.01677,-0.03324,1.00369,3.78798,0.00977,2.30747,-1.16278,-1.16388,1.55754,-3.20871,3.76630,1.56514,-3.26172,-1.11847,-1.11847,57.68863,11.98068,57.68863514,11.98067687,A,144013.10
18:29:53.578348,3.82057,0.01110,2.49079,2.49079,[3.00000 0.00000 0.00000],[1.30000 0.00000 0.00000],0.00139,-0.00266,-0.03248,0.00000,0.00000,0.03915,-0.05521,0.06991,0.01568,0.95026,3.81010,0.00488,2.34413,-1.15597,-1.15751,1.57614,-3.25364,3.76630,1.56514,-3.26172,-1.11847,-1.11847,57.68863,11.98068,57.68863474,11.98067719,A,144013.10
18:29:53.604685,3.84776,0.01343,2.08294,2.08294,[3.00000 0.00000 0.00000],[1.30000 0.00000 0.00000],0.00072,-0.00439,-0.04958,0.00000,0.00000,0.00250,-0.05262,-0.06643,0.07320,1.05060,3.83753,0.00488,2.29189,-1.15007,-1.15262,1.59640,-3.30149,3.76630,1.56514,-3.26172,-1.11847,-1.11847,57.68863,11.98068,57.68863431,11.98067753,A,144013.10
18:29:53.645789,3.88885,0.02886,2.08294,2.08294,[3.00000 0.00000 0.00000],[1.30000 0.00000 0.00000],-0.00142,-0.00558,-0.05309,0.00000,0.00000,0.02296,-0.05262,-0.09266,-0.02861,1.04096,3.86405,0.00977,2.25010,-1.13935,-1.14259,1.63501,-3.38783,3.88369,1.67411,-3.46558,-1.07992,-1.07992,57.68863,11.98068,57.68863353,11.98067818,A,144013.20
18:29:53.671647,3.91472,0.01173,2.08294,2.08294,[3.00000 0.00000 0.00000],[1.30000 0.00000 0.00000],-0.00382,-0.00603,-0.05325,0.00000,0.00000,0.00677,-0.05674,-0.06576,0.00250,1.00077,3.90452,0.00000,2.21667,-1.13012,-1.13363,1.65749,-3.43669,3.88369,1.67411,-3.46558,-1.07992,-1.07992,57.68863,11.98068,57.68863309,11.98067855,A,144013.20
18:29:53.698804,3.94187,0.01335,2.62185,2.62185,[3.00000 0.00000 0.00000],[1.30000 0.00000 0.00000],-0.00553,-0.00603,-0.03966,0.00000,0.00000,0.01777,-0.04758,-0.00567,-0.02806,0.99284,3.93066,0.00488,2.29771,-1.12229,-1.12580,1.67878,-3.48192,3.88369,1.67411,-3.46558,-1.07992,-1.07992,57.68863,11.98068,57.68863269,11.98067891,A,144013.20
18:29:53.723934,3.96701,0.01242,2.62185,2.62185,[3.00000 0.00000 0.00000],[1.30000 0.00000 0.00000],-0.00570,-0.00603,-0.03782,0.00000,0.00000,0.00601,-0.03383,-0.09638,0.06734,0.96972,3.95697,0.00733,2.36254,-1.11563,-1.11913,1.69837,-3.52266,3.88369,1.67411,-3.46558,-1.07992,-1.07992,57.68863,11.98068,57.68863232,11.98067924,A,144013.20
18:29:53.778589,4.02166,0.03879,2.62185,2.62185,[3.00000 0.00000 0.00000],[1.30000 0.00000 0.00000],-0.00622,-0.00603,-0.02729,0.00000,0.00000,0.03075,-0.02604,0.08790,0.03404,1.05109,3.98547,0.00488,2.41440,-1.12332,-1.12683,1.75920,-3.65045,4.01665,1.87223,-3.92889,-1.16671,-1.16671,57.68863,11.98068,57.68863117,11.98068026,A,144013.40
18:29:53.805385,4.04846,0.01436,2.43637,2.43637,[3.00000 0.00000 0.00000],[1.30000 0.00000 0.00000],-0.00712,-0.00603,-0.02744,0.00000,0.00000,0.00601,-0.00726,0.07460,0.04459,0.90878,4.03761,0.00733,2.41879,-1.12956,-1.13306,1.78774,-3.71249,4.01665,1.87223,-3.92889,-1.16671,-1.16671,57.68863,11.98068,57.68863061,11.98068075,A,144013.40
18:29:53.828596,4.07166,0.01127,2.43637,2.43637,[3.00000 0.00000 0.00000],[1.30000 0.00000 0.00000],-0.00763,-0.00487,-0.03294,0.00000,0.00000,0.02311,-0.00940,0.10498,0.03782,1.12484,4.06184,0.00244,2.42231,-1.13492,-1.13775,1.81169,-3.76546,4.01665,1.87223,-3.92889,-1.16671,-1.16671,57.68863,11.98068,57.68863014,11.98068115,A,144013.40
18:29:53.853796,4.09687,0.01015,2.43637,2.43637,[3.00000 0.00000 0.00000],[1.30000 0.00000 0.00000],-0.00802,-0.00226,-0.03996,0.00000,0.00000,0.04908,-0.02284,-0.00427,0.05630,0.98735,4.08743,0.01465,2.42512,-1.13969,-1.14101,1.83692,-3.82166,4.01665,1.87223,-3.92889,-1.16671,-1.16671,57.68863,11.98068,57.68862963,11.98068157,A,144013.40
18:29:53.897108,4.14018,0.02559,2.43637,2.43637,[3.00000 0.00000 0.00000],[1.30000 0.00000 0.00000],-0.00847,0.00187,-0.05004,0.00000,0.00000,0.02128,-0.00298,-0.00244,0.07143,0.89822,4.11548,0.01465,2.42737,-1.13106,-1.12998,1.88450,-3.92543,4.13517,1.97129,-4.11421,-1.07992,-1.07992,57.68863,11.98068,57.68862870,11.98068237,A,144013.50
18:29:53.919922,4.16300,0.00921,2.27375,2.27375,[3.00000 0.00000 0.00000],[1.30000 0.00000 0.00000],-0.01009,0.00535,-0.03523,0.00000,0.00000,0.00525,0.00939,0.09309,0.00299,0.94672,4.15532,0.02198,2.39665,-1.12379,-1.12068,1.90914,-3.97790,4.13517,1.97129,-4.11421,-1.07992,-1.07992,57.68863,11.98068,57.68862823,11.98068279,A,144013.50
18:29:53.933899,4.17697,0.01191,2.27375,2.27375,[3.00000 0.00000 0.00000],[1.30000 0.00000 0.00000],-0.01076,0.00555,-0.03614,0.00000,0.00000,0.01426,0.00969,-0.01781,-0.00384,1.02218,4.16554,0.00977,2.37207,-1.11760,-1.11438,1.92160,-4.00408,4.13517,1.97129,-4.11421,-1.07992,-1.07992,57.68863,11.98068,57.68862799,11.98068300,A,144013.50
18:29:53.960604,4.20368,0.01474,2.27375,2.27375,[3.00000 0.00000 0.00000],[1.30000 0.00000 0.00000],-0.01004,0.00569,-0.03660,0.00000,0.00000,0.01105,0.01030,0.11492,0.13780,1.07195,4.19210,0.00733,2.35240,-1.11222,-1.10891,1.94724,-4.05674,4.13517,1.97129,-4.11421,-1.07992,-1.07992,57.68863,11.98068,57.68862752,11.98068343,A,144013.50
18:29:53.988269,4.23134,0.01386,2.66277,2.66277,[3.00000 0.00000 0.00000],[1.30000 0.00000 0.00000],-0.01154,0.00727,-0.04683,0.00000,0.00000,-0.03950,0.01183,0.18605,0.00531,0.98832,4.22021,0.01709,2.41448,-1.10776,-1.10353,1.97317,-4.10929,4.13517,1.97129,-4.11421,-1.07992,-1.07992,57.68863,11.98068,57.68862704,11.98068387,A,144013.50
18:29:54.029156,4.27223,0.02833,2.66277,2.66277,[3.00000 0.00000 0.00000],[1.30000 0.00000 0.00000],-0.01274,0.00855,-0.03950,0.00000,0.00000,-0.04882,0.00099,-0.04368,0.00866,1.00009,4.24741,0.01465,2.46413,-1.11560,-1.11063,2.01878,-4.20147,4.26741,2.06044,-4.31807,-1.15853,-1.15853,57.68863,11.98069,57.68862622,11.98068463,A,144013.60
18:29:54.053136,4.29621,0.01245,2.66277,2.66277,[3.00000 0.00000 0.00000],[1.30000 0.00000 0.00000],-0.01477,0.01070,-0.02561,0.00000,0.00000,0.01105,0.01442,0.11291,-0.04331,0.86382,4.28681,0.02442,2.50386,-1.12263,-1.11641,2.04381,-4.25361,4.26741,2.06044,-4.31807,-1.15853,-1.15853,57.68863,11.98069,57.68862575,11.98068505,A,144013.60
18:29:54.082506,4.32481,0.01236,2.54321,2.54321,[3.00000 0.00000 0.00000],[1.30000 0.00000 0.00000],-0.01583,0.01172,-0.03553,0.00000,0.00000,-0.00789,0.01962,0.04630,0.01372,1.09458,4.31581,0.00733,2.51173,-1.12853,-1.12172,2.07144,-4.31170,4.26741,2.06044,-4.31807,-1.15853,-1.15853,57.68863,11.98069,57.68862522,11.98068552,A,144013.60
18:29:54.109605,4.35268,0.01321,2.54321,2.54321,[3.00000 0.00000 0.00000],[1.30000 0.00000 0.00000],-0.01729,0.01172,-0.04088,0.00000,0.00000,0.00937,0.00847,0.00592,-0.01360,1.12332,4.34221,0.02198,2.51803,-1.13351,-1.12669,2.09680,-4.36577,4.26741,2.06044,-4.31807,-1.15853,-1.15853,57.68863,11.98069,57.68862474,11.98068595,A,144013.60
18:29:54.152438,4.39551,0.02803,2.54321,2.54321,[3.00000 0.00000 0.00000],[1.30000 0.00000 0.00000],-0.01864,0.01172,-0.06027,0.00000,0.00000,0.01594,-0.00986,0.15018,0.02873,0.84589,4.36978,0.00488,2.52306,-1.14787,-1.14105,2.14176,-4.46448,4.39043,2.13969,-4.54046,-1.22848,-1.22848,57.68862,11.98069,57.68862385,11.98068670,A,144013.70
18:29:54.174724,4.41779,0.01287,3.02415,3.02415,[3.00000 0.00000 0.00000],[1.30000 0.00000 0.00000],-0.01968,0.01172,-0.05539,0.00000,0.00000,-0.01384,0.00022,0.05033,0.08223,1.01571,4.40700,0.00244,2.62328,-1.16058,-1.15377,2.15975,-4.50776,4.39043,2.13969,-4.54046,-1.22848,-1.22848,57.68862,11.98069,57.68862346,11.98068700,A,144013.70
18:29:54.199530,4.44257,0.01310,3.02415,3.02415,[3.00000 0.00000 0.00000],[1.30000 0.00000 0.00000],-0.02167,0.01172,-0.06592,0.00000,0.00000,0.03075,0.00526,0.06991,-0.00738,1.03255,4.43284,0.00244,2.70346,-1.17130,-1.16449,2.18053,-4.55857,4.39043,2.13969,-4.54046,-1.22848,-1.22848,57.68862,11.98069,57.68862300,11.98068735,A,144013.70
18:29:54.226844,4.46991,0.01400,3.02415,3.02415,[3.00000 0.00000 0.00000],[1.30000 0.00000 0.00000],-0.02242,0.01172,-0.06256,0.00000,0.00000,0.02571,0.01045,-0.00683,0.06875,0.94446,4.45978,0.01465,2.76760,-1.18033,-1.17352,2.20299,-4.61461,4.39043,2.13969,-4.54046,-1.22848,-1.22848,57.68862,11.98069,57.68862250,11.98068773,A,144013.70
18:29:54.279222,4.52229,0.03853,3.02415,3.02415,[3.00000 0.00000 0.00000],[1.30000 0.00000 0.00000],-0.02313,0.01172,-0.03660,0.00000,0.00000,0.00433,0.01809,0.22851,0.02965,1.03419,4.48686,0.01709,2.81891,-1.16769,-1.16088,2.26321,-4.75706,4.51737,2.36753,-4.98524,-1.09740,-1.09740,57.68862,11.98069,57.68862122,11.98068874,A,144013.90
18:29:54.307387,4.54952,0.01291,2.18164,2.18164,[3.00000 0.00000 0.00000],[1.30000 0.00000 0.00000],-0.02543,0.01209,-0.02866,0.00000,0.00000,-0.02377,0.02496,0.17318,-0.04392,0.93056,4.53973,0.02686,2.69145,-1.15762,-1.15059,2.29383,-4.82693,4.51737,2.36753,-4.98524,-1.09740,-1.09740,57.68862,11.98069,57.68862059,11.98068926,A,144013.90
18:29:54.333601,4.57666,0.01241,2.18164,2.18164,[3.00000 0.00000 0.00000],[1.30000 0.00000 0.00000],-0.02590,0.01299,-0.02255,0.00000,0.00000,-0.03354,0.02603,0.05734,0.01061,0.91177,4.56544,0.01709,2.58949,-1.14915,-1.14160,2.32211,-4.88990,4.51737,2.36753,-4.98524,-1.09740,-1.09740,57.68862,11.98069,57.68862002,11.98068974,A,144013.90
18:29:54.361696,4.60376,0.01346,2.74241,2.74241,[3.00000 0.00000 0.00000],[1.30000 0.00000 0.00000],-0.02468,0.01305,-0.02942,0.00000,0.00000,0.00738,0.01885,0.06228,0.12956,0.89822,4.59388,0.01954,2.62008,-1.14192,-1.13434,2.34925,-4.94899,4.51737,2.36753,-4.98524,-1.09740,-1.09740,57.68862,11.98069,57.68861949,11.98069019,A,144013.90
18:29:54.403180,4.64626,0.02790,2.74241,2.74241,[3.00000 0.00000 0.00000],[1.30000 0.00000 0.00000],-0.02506,0.01305,-0.01461,0.00000,0.00000,0.05320,0.02267,0.02891,0.00915,1.08763,4.62112,0.00488,2.64454,-1.13761,-1.13002,2.39911,-5.05504,4.64147,2.48640,-5.22616,-1.11244,-1.11244,57.68862,11.98069,57.68861854,11.98069103,A,144014.00
18:29:54.425094,4.66739,0.01026,2.74241,2.74241,[3.00000 0.00000 0.00000],[1.30000 0.00000 0.00000],-0.02651,0.01305,-0.02133,0.00000,0.00000,0.03426,0.02130,0.12676,-0.03995,1.07006,4.65854,0.00977,2.66412,-1.13448,-1.12690,2.42396,-5.10703,4.64147,2.48640,-5.22616,-1.11244,-1.11244,57.68862,11.98069,57.68861807,11.98069145,A,144014.00
18:29:54.453636,4.69671,0.01332,2.74241,2.74241,[3.00000 0.00000 0.00000],[1.30000 0.00000 0.00000],-0.02742,0.01305,-0.03248,0.00000,0.00000,-0.02499,0.00633,-0.03794,0.00342,0.96923,4.68535,0.01954,2.67978,-1.13165,-1.12406,2.45520,-5.17211,4.64147,2.48640,-5.22616,-1.11244,-1.11244,57.68862,11.98069,57.68861749,11.98069198,A,144014.00
18:29:54.477500,4.72055,0.01024,2.26626,2.26626,[3.00000 0.00000 0.00000],[1.30000 0.00000 0.00000],-0.02972,0.01305,-0.02744,0.00000,0.00000,-0.01476,0.00480,0.06051,-0.09790,0.93635,4.71108,0.01221,2.59707,-1.12937,-1.12178,2.47974,-5.22278,4.64147,2.48640,-5.22616,-1.11244,-1.11244,57.68862,11.98069,57.68861703,11.98069239,A,144014.00
18:29:54.498392,4.74124,0.00879,2.26626,2.26626,[3.00000 0.00000 0.00000],[1.30000 0.00000 0.00000],-0.03019,0.01339,-0.02637,0.00000,0.00000,0.02479,0.02527,-0.05990,0.00689,0.92995,4.73273,0.03663,2.53091,-1.12754,-1.11975,2.49968,-5.26365,4.64147,2.48640,-5.22616,-1.11244,-1.11244,57.68862,11.98069,57.68861666,11.98069272,A,144014.00
18:29:54.524466,4.76750,0.02500,2.26626,2.26626,[3.00000 0.00000 0.00000],[1.30000 0.00000 0.00000],-0.02954,0.01395,-0.01369,0.00000,0.00000,0.04617,0.04436,-0.01202,0.04758,0.88731,4.74320,0.01221,2.47798,-1.13614,-1.12802,2.52870,-5.32488,4.76170,2.58546,-5.46708,-1.18070,-1.18070,57.68861,11.98069,57.68861611,11.98069321,A,144014.10
18:29:54.543804,4.78688,0.00917,2.26626,2.26626,[3.00000 0.00000 0.00000],[1.30000 0.00000 0.00000],-0.03014,0.01636,-0.02530,0.00000,0.00000,0.03457,0.04359,-0.01275,0.02294,1.05054,4.77916,0.01465,2.43564,-1.14378,-1.13427,2.54986,-5.37062,4.76170,2.58546,-5.46708,-1.18070,-1.18070,57.68861,11.98069,57.68861570,11.98069357,A,144014.10
18:29:54.553287,4.79636,0.00850,2.79867,2.79867,[3.00000 0.00000 0.00000],[1.30000 0.00000 0.00000],-0.03105,0.01650,-0.02851,0.00000,0.00000,0.03976,0.03290,0.04050,-0.04032,1.04536,4.78858,0.01709,2.50824,-1.15054,-1.14094,2.55909,-5.39141,4.76170,2.58546,-5.46708,-1.18070,-1.18070,57.68861,11.98069,57.68861551,11.98069372,A,144014.10
18:29:54.562435,4.80526,0.00719,2.79867,2.79867,[3.00000 0.00000 0.00000],[1.30000 0.00000 0.00000],-0.03068,0.01650,-0.02927,0.00000,0.00000,0.04388,0.02786,0.17080,0.04740,1.03615,4.79759,0.00000,2.56633,-1.15628,-1.14669,2.56740,-5.41046,4.76170,2.58546,-5.46708,-1.18070,-1.18070,57.68861,11.98069,57.68861534,11.98069386,A,144014.10
18:29:54.573644,4.81672,0.00796,2.79867,2.79867,[3.00000 0.00000 0.00000],[1.30000 0.00000 0.00000],-0.02934,0.01653,-0.03767,0.00000,0.00000,0.02021,0.01778,-0.01220,0.12603,1.03968,4.80864,0.00733,2.61280,-1.16109,-1.15148,2.57791,-5.43457,4.76170,2.58546,-5.46708,-1.18070,-1.18070,57.68861,11.98069,57.68861513,11.98069404,A,144014.10
18:29:54.583568,4.82664,0.00746,2.79867,2.79867,[3.00000 0.00000 0.00000],[1.30000 0.00000 0.00000],-0.02937,0.01678,-0.03126,0.00000,0.00000,0.02067,0.01565,0.13810,0.02538,1.00217,4.81887,0.01221,2.64997,-1.16525,-1.15549,2.58613,-5.45378,4.76170,2.58546,-5.46708,-1.18070,-1.18070,57.68861,11.98069,57.68861495,11.98069418,A,144014.10
18:29:54.593816,4.83689,0.00716,2.79867,2.79867,[3.00000 0.00000 0.00000],[1.30000 0.00000 0.00000],-0.03111,0.01746,-0.03171,0.00000,0.00000,0.00891,0.02008,0.06887,-0.08973,1.01888,4.82925,0.01221,2.67971,-1.16881,-1.15866,2.59464,-5.47381,4.76170,2.58546,-5.46708,-1.18070,-1.18070,57.68861,11.98069,57.68861477,11.98069432,A,144014.10
18:29:54.611048,4.85411,0.01397,2.79867,2.79867,[3.00000 0.00000 0.00000],[1.30000 0.00000 0.00000],-0.03129,0.01868,-0.02164,0.00000,0.00000,0.00952,0.03199,-0.00482,0.01098,0.92818,4.84155,0.01954,2.70350,-1.17177,-1.16091,2.60744,-5.50382,4.76170,2.58546,-5.46708,-1.18070,-1.18070,57.68861,11.98069,57.68861450,11.98069454,A,144014.10
18:29:54.645824,4.88890,0.02458,2.79867,2.79867,[3.00000 0.00000 0.00000],[1.30000 0.00000 0.00000],-0.03161,0.02120,-0.02759,0.00000,0.00000,0.00647,0.04986,0.16104,0.02702,0.88956,4.86523,0.00977,2.72254,-1.14770,-1.13537,2.64742,-5.59190,4.88409,2.71424,-5.67094,-1.00739,-1.00739,57.68861,11.98070,57.68861371,11.98069521,A,144014.20
18:29:54.665334,4.90841,0.00960,2.61955,2.61955,[3.00000 0.00000 0.00000],[1.30000 0.00000 0.00000],-0.03189,0.02250,-0.01950,0.00000,0.00000,0.02159,0.04924,0.06588,0.03080,1.06384,4.89866,0.01709,2.70194,-1.12790,-1.11481,2.66918,-5.63545,4.88409,2.71424,-5.67094,-1.00739,-1.00739,57.68861,11.98070,57.68861332,11.98069558,A,144014.20
18:29:54.673735,4.91681,0.00713,2.61955,2.61955,[3.00000 0.00000 0.00000],[1.30000 0.00000 0.00000],-0.03143,0.02250,-0.02011,0.00000,0.00000,0.02663,0.04741,-0.01623,0.05289,1.05823,4.90921,0.02442,2.68546,-1.11149,-1.09840,2.67887,-5.65239,4.88409,2.71424,-5.67094,-1.00739,-1.00739,57.68861,11.98070,57.68861317,11.98069574,A,144014.20
18:29:54.685620,4.92869,0.00860,2.61955,2.61955,[3.00000 0.00000 0.00000],[1.30000 0.00000 0.00000],-0.03223,0.02250,-0.02576,0.00000,0.00000,0.03319,0.03718,0.14463,-0.03453,1.11636,4.91982,0.00488,2.67228,-1.09745,-1.08437,2.69059,-5.67278,4.88409,2.71424,-5.67094,-1.00739,-1.00739,57.68861,11.98070,57.68861298,11.98069594,A,144014.20
18:29:54.694883,4.93794,0.00757,2.61955,2.61955,[3.00000 0.00000 0.00000],[1.30000 0.00000 0.00000],-0.03274,0.02259,-0.02270,0.00000,0.00000,0.04159,0.04130,-0.02227,-0.01379,1.00217,4.92989,0.02442,2.66173,-1.08560,-1.07247,2.70005,-5.68834,4.88409,2.71424,-5.67094,-1.00739,-1.00739,57.68861,11.98070,57.68861284,11.98069609,A,144014.20
18:29:54.705095,4.94817,0.00739,2.61955,2.61955,[3.00000 0.00000 0.00000],[1.30000 0.00000 0.00000],-0.03348,0.02276,-0.02454,0.00000,0.00000,0.03029,0.03336,0.23448,-0.02379,0.91341,4.94052,0.02442,2.65330,-1.07548,-1.06224,2.71115,-5.70657,4.88409,2.71424,-5.67094,-1.00739,-1.00739,57.68861,11.98070,57.68861268,11.98069628,A,144014.20
18:29:54.715620,4.95870,0.00751,2.61955,2.61955,[3.00000 0.00000 0.00000],[1.30000 0.00000 0.00000],-0.03364,0.02293,-0.02209,0.00000,0.00000,0.00448,0.03519,-0.07655,0.00885,0.95130,4.95090,0.00977,2.64655,-1.06689,-1.05356,2.72155,-5.72316,4.88409,2.71424,-5.67094,-1.00739,-1.00739,57.68861,11.98070,57.68861253,11.98069646,A,144014.20
18:29:54.725974,4.96905,0.00722,2.61955,2.61955,[3.00000 0.00000 0.00000],[1.30000 0.00000 0.00000],-0.03331,0.02304,-0.02545,0.00000,0.00000,0.00998,0.03413,0.07308,0.04136,0.94007,4.96139,0.00977,2.64115,-1.05959,-1.04619,2.73176,-5.73915,4.88409,2.71424,-5.67094,-1.00739,-1.00739,57.68861,11.98070,57.68861239,11.98069663,A,144014.20
18:29:54.737829,4.98090,0.00866,2.61955,2.61955,[3.00000 0.00000 0.00000],[1.30000 0.00000 0.00000],-0.03346,0.02307,-0.00835,0.00000,0.00000,0.01914,0.03657,-0.05295,0.00030,1.02565,4.97242,0.01709,2.63683,-1.05337,-1.03995,2.74226,-5.75540,4.88409,2.71424,-5.67094,-1.00739,-1.00739,57.68861,11.98070,57.68861224,11.98069680,A,144014.20
18:29:54.775822,5.01889,0.03619,2.44696,2.44696,[3.00000 0.00000 0.00000],[1.30000 0.00000 0.00000],-0.03424,0.02307,-0.00728,0.00000,0.00000,0.04236,0.04375,0.03282,-0.04301,0.97612,4.98224,0.01465,2.59885,-1.08480,-1.07138,2.79469,-5.85338,5.01406,2.86283,-6.13425,-1.26045,-1.26045,57.68861,11.98070,57.68861136,11.98069769,A,144014.40
18:29:54.797761,5.04085,0.01093,2.44696,2.44696,[3.00000 0.00000 0.00000],[1.30000 0.00000 0.00000],0.00000,0.02307,0.00448,0.00000,0.00000,0.02220,0.04405,0.08089,-0.01232,0.91116,5.02965,0.00977,2.44696,-1.14756,-1.13415,2.86283,-6.13425,5.01406,2.86283,-6.13425,-1.26045,-1.26045,57.68861,11.98070,57.68861091,11.98069807,A,144014.40
18:29:54.814811,5.05788,0.00812,2.44696,2.44696,[3.00000 0.00000 0.00000],[1.30000 0.00000 0.00000],-0.00032,-0.00859,0.00158,-0.00350,0.00000,-0.00605,0.03917,0.09077,-0.00268,1.05853,5.04942,0.03663,2.44696,-1.16300,-1.16799,2.88043,-6.17197,5.01406,2.86283,-6.13425,-1.26045,-1.26045,57.68861,11.98070,57.68860849,11.98069913,A,144014.40
18:29:54.825240,5.06832,0.00815,2.44696,2.44696,[3.00000 0.00000 0.00000],[1.30000 0.00000 0.00000],-0.00157,-0.00859,-0.01110,0.03940,0.00000,-0.00560,0.04497,-0.01995,-0.06338,1.15406,5.06027,0.02930,2.44696,-1.17700,-1.18200,2.88761,-6.18900,5.01406,2.86283,-6.13425,-1.26045,-1.26045,57.68861,11.98070,57.68860834,11.98069925,A,144014.40
18:29:54.837333,5.08040,0.00983,2.73943,2.73943,[3.00000 0.00000 0.00000],[1.30000 0.00000 0.00000],-0.00268,-0.00859,-0.01385,0.05201,0.00000,0.02296,0.03993,-0.02501,-0.05325,1.12307,5.07009,0.01465,2.50545,-1.18889,-1.19389,2.89332,-6.20322,5.01406,2.86283,-6.13425,-1.26045,-1.26045,57.68861,11.98070,57.68860821,11.98069935,A,144014.40
18:29:54.847239,5.09031,0.00866,2.73943,2.73943,[3.00000 0.00000 0.00000],[1.30000 0.00000 0.00000],-0.00296,-0.00859,-0.01782,0.05201,0.00000,0.04556,0.03703,-0.07424,0.01208,1.06067,5.08119,0.00244,2.55225,-1.19900,-1.20399,2.89840,-6.21646,5.01406,2.86283,-6.13425,-1.26045,-1.26045,57.68861,11.98070,57.68860809,11.98069943,A,144014.40
18:29:54.857648,5.10072,0.00886,2.73943,2.73943,[3.00000 0.00000 0.00000],[1.30000 0.00000 0.00000],-0.00182,-0.00859,-0.02225,0.07383,0.00000,0.05702,0.03199,-0.02513,0.11163,1.01663,5.09276,0.01709,2.58968,-1.20761,-1.21261,2.90454,-6.23296,5.01406,2.86283,-6.13425,-1.26045,-1.26045,57.68861,11.98070,57.68860795,11.98069954,A,144014.40
18:29:54.869885,5.11296,0.01098,2.73943,2.73943,[3.00000 0.00000 0.00000],[1.30000 0.00000 0.00000],-0.00249,-0.00859,-0.01339,0.04986,0.00000,0.05595,0.02634,0.02538,-0.01854,0.93879,5.10149,0.01709,2.61963,-1.21493,-1.21992,2.90987,-6.24783,5.01406,2.86283,-6.13425,-1.26045,-1.26045,57.68861,11.98070,57.68860781,11.98069962,A,144014.40
18:29:54.901584,5.14466,0.02158,2.73943,2.73943,[3.00000 0.00000 0.00000],[1.30000 0.00000 0.00000],-0.00244,-0.00859,-0.00163,0.01440,0.00000,0.02067,0.02847,0.04862,0.02013,0.92086,5.12355,0.00733,2.64359,-1.18933,-1.19432,2.93969,-6.32360,5.13995,2.99160,-6.35664,-1.04591,-1.04591,57.68861,11.98070,57.68860713,11.98070013,A,144014.50
18:29:54.917717,5.16079,0.00828,2.73943,2.73943,[3.00000 0.00000 0.00000],[1.30000 0.00000 0.00000],-0.00415,-0.00859,-0.00285,0.02474,0.00000,-0.00392,0.03183,0.04709,-0.09449,1.02754,5.15288,0.00244,2.66276,-1.16731,-1.17230,2.95546,-6.35857,5.13995,2.99160,-6.35664,-1.04591,-1.04591,57.68861,11.98070,57.68860682,11.98070039,A,144014.50
18:29:54.928647,5.17172,0.00880,2.61621,2.61621,[3.00000 0.00000 0.00000],[1.30000 0.00000 0.00000],-0.00400,-0.00859,0.00341,0.00536,0.00000,-0.00224,0.04329,-0.06771,0.02605,1.08751,5.16263,0.00733,2.65345,-1.14850,-1.15349,2.96583,-6.37880,5.13995,2.99160,-6.35664,-1.04591,-1.04591,57.68861,11.98070,57.68860663,11.98070057,A,144014.50
18:29:54.938336,5.18117,0.00804,2.61621,2.61621,[3.00000 0.00000 0.00000],[1.30000 0.00000 0.00000],-0.00429,-0.00859,0.01410,0.00536,0.00000,0.03136,0.04497,0.00055,-0.01385,1.09501,5.17286,0.00488,2.64600,-1.13248,-1.13748,2.97455,-6.39446,5.13995,2.99160,-6.35664,-1.04591,-1.04591,57.68861,11.98070,57.68860649,11.98070071,A,144014.50
18:29:54.949811,5.19288,0.00934,2.61621,2.61621,[3.00000 0.00000 0.00000],[1.30000 0.00000 0.00000],-0.00519,-0.00859,0.01502,-0.02482,0.00000,0.04602,0.03626,0.11218,-0.05581,0.99155,5.18455,0.00000,2.64004,-1.11891,-1.12391,2.98568,-6.41478,5.13995,2.99160,-6.35664,-1.04591,-1.04591,57.68861,11.98070,57.68860631,11.98070090,A,144014.50
18:29:54.958844,5.20191,0.00773,2.61621,2.61621,[3.00000 0.00000 0.00000],[1.30000 0.00000 0.00000],-0.00595,-0.00859,0.01456,-0.02482,0.00000,0.04434,0.03061,0.03812,-0.04191,0.91939,5.19370,0.01709,2.63527,-1.10733,-1.11232,2.99355,-6.42767,5.13995,2.99160,-6.35664,-1.04591,-1.04591,57.68861,11.98070,57.68860619,11.98070103,A,144014.50
18:29:54.971632,5.21470,0.01011,2.61621,2.61621,[3.00000 0.00000 0.00000],[1.30000 0.00000 0.00000],-0.00606,-0.00859,0.00402,0.01157,0.00000,0.02235,0.03015,0.02684,0.00311,0.93666,5.20432,0.02442,2.63146,-1.09751,-1.10251,3.00293,-6.44333,5.13995,2.99160,-6.35664,-1.04591,-1.04591,57.68861,11.98070,57.68860605,11.98070119,A,144014.50
18:29:54.993660,5.23675,0.00915,2.61621,2.61621,[3.00000 0.00000 0.00000],[1.30000 0.00000 0.00000],-0.00585,-0.00859,0.01609,-0.02546,0.00000,-0.02927,0.02847,0.08369,0.00275,0.99027,5.22813,0.01221,2.62841,-1.08937,-1.09436,3.02541,-6.48455,5.13995,2.99160,-6.35664,-1.04591,-1.04591,57.68861,11.98070,57.68860568,11.98070157,A,144014.50
18:29:55.016849,5.25992,0.02191,3.07288,3.07288,[3.00000 0.00000 0.00000],[1.30000 0.00000 0.00000],-0.00526,-0.00859,0.02555,-0.05615,0.00000,-0.02774,0.03367,0.00714,0.03654,1.03078,5.23754,0.02198,2.71730,-1.11352,-1.11851,3.05214,-6.53760,5.25415,3.07085,-6.59757,-1.25301,-1.25301,57.68860,11.98070,57.68860521,11.98070202,A,144014.60
18:29:55.034633,5.27770,0.00904,3.07288,3.07288,[3.00000 0.00000 0.00000],[1.30000 0.00000 0.00000],-0.00601,-0.00859,0.01654,-0.02620,0.00000,-0.01751,0.03611,0.01610,-0.07625,1.06475,5.26946,0.09280,2.78842,-1.13396,-1.13896,3.07071,-6.57690,5.25415,3.07085,-6.59757,-1.25301,-1.25301,57.68860,11.98070,57.68860485,11.98070233,A,144014.60
18:29:55.043712,5.28679,0.00786,3.07288,3.07288,[3.00000 0.00000 0.00000],[1.30000 0.00000 0.00000],-0.00617,-0.00870,0.02494,-0.02620,0.00000,0.00861,0.03672,0.00085,-0.01458,0.98442,5.27889,0.04884,2.84531,-1.15119,-1.15625,3.07878,-6.59542,5.25415,3.07085,-6.59757,-1.25301,-1.25301,57.68860,11.98070,57.68860469,11.98070247,A,144014.60
18:29:55.054506,5.29756,0.00838,3.07288,3.07288,[3.00000 0.00000 0.00000],[1.30000 0.00000 0.00000],-0.00535,-0.00887,0.02571,-0.05624,0.00000,0.01242,0.03519,0.06740,0.04258,0.89359,5.28932,0.10256,2.89083,-1.16585,-1.17100,3.08779,-6.61691,5.25415,3.07085,-6.59757,-1.25301,-1.25301,57.68860,11.98070,57.68860449,11.98070262,A,144014.60
18:29:55.064354,5.30742,0.00784,3.07288,3.07288,[3.00000 0.00000 0.00000],[1.30000 0.00000 0.00000],-0.00558,-0.00921,0.04037,-0.09933,0.00000,0.00708,0.02863,0.03501,-0.02818,0.93251,5.29930,0.08547,2.92724,-1.17827,-1.18362,3.09540,-6.63595,5.25415,3.07085,-6.59757,-1.25301,-1.25301,57.68860,11.98070,57.68860432,11.98070275,A,144014.60
18:29:55.075852,5.31892,0.00909,3.07288,3.07288,[3.00000 0.00000 0.00000],[1.30000 0.00000 0.00000],-0.00570,-0.00977,0.04632,-0.11675,0.00000,0.00204,0.02557,0.05746,-0.02629,0.95825,5.30940,0.09035,2.95637,-1.18879,-1.19447,3.10273,-6.65502,5.25415,3.07085,-6.59757,-1.25301,-1.25301,57.68860,11.98070,57.68860415,11.98070287,A,144014.60
18:29:55.087710,5.33078,0.01086,3.07288,3.07288,[3.00000 0.00000 0.00000],[1.30000 0.00000 0.00000],-0.00657,-0.01065,0.03502,-0.07946,0.00000,-0.00667,0.02069,0.03154,-0.07588,1.03737,5.32068,0.12698,2.97967,-1.19772,-1.20391,3.11214,-6.67998,5.25415,3.07085,-6.59757,-1.25301,-1.25301,57.68860,11.98070,57.68860393,11.98070303,A,144014.60
18:29:55.104549,5.34762,0.00837,3.07288,3.07288,[3.00000 0.00000 0.00000],[1.30000 0.00000 0.00000],-0.00681,-0.01314,0.04556,-0.11014,0.00000,-0.00132,0.01076,0.10419,-0.06930,1.11105,5.33910,0.10989,2.99831,-1.20521,-1.21286,3.12502,-6.71476,5.25415,3.07085,-6.59757,-1.25301,-1.25301,57.68860,11.98070,57.68860361,11.98070324,A,144014.60
18:29:55.114025,5.35710,0.00753,2.26594,2.26594,[3.00000 0.00000 0.00000],[1.30000 0.00000 0.00000],-0.00616,-0.01473,0.03426,-0.11014,0.00000,-0.00697,0.01137,0.13249,0.03379,1.05030,5.34917,0.03663,2.85184,-1.21132,-1.21989,3.13002,-6.72951,5.25415,3.07085,-6.59757,-1.25301,-1.25301,57.68860,11.98070,57.68860348,11.98070333,A,144014.60
18:29:55.140679,5.38375,0.02378,2.26594,2.26594,[3.00000 0.00000 0.00000],[1.30000 0.00000 0.00000],-0.00573,-0.01617,0.04006,-0.09786,0.00000,-0.02896,0.00755,0.15409,0.00915,0.93653,5.36068,0.08059,2.73466,-1.19585,-1.20525,3.15594,-6.79762,5.37869,3.18972,-6.83849,-1.11244,-1.11244,57.68860,11.98070,57.68860287,11.98070376,A,144014.70
18:29:55.158405,5.40122,0.00812,2.26594,2.26594,[3.00000 0.00000 0.00000],[1.30000 0.00000 0.00000],-0.00341,-0.01985,0.06786,-0.19028,0.00000,-0.08363,0.01840,-0.03587,0.01690,0.91000,5.39335,0.10256,2.64092,-1.18211,-1.19366,3.17213,-6.83755,5.37869,3.18972,-6.83849,-1.11244,-1.11244,57.68860,11.98070,57.68860251,11.98070404,A,144014.70
18:29:55.168168,5.41124,0.00774,2.26594,2.26594,[3.00000 0.00000 0.00000],[1.30000 0.00000 0.00000],-0.00276,-0.02042,0.07656,-0.21892,0.00000,-0.07569,0.02298,-0.08400,0.00506,0.90615,5.40311,0.35165,2.56592,-1.17018,-1.18206,3.18023,-6.85581,5.37869,3.18972,-6.83849,-1.11244,-1.11244,57.68860,11.98070,57.68860234,11.98070417,A,144014.70
18:29:55.178598,5.42166,0.00788,2.26594,2.26594,[3.00000 0.00000 0.00000],[1.30000 0.00000 0.00000],-0.00249,-0.02141,0.08603,-0.24837,0.00000,-0.04607,0.02038,0.03953,-0.02550,0.91110,5.41332,0.98901,2.50593,-1.15998,-1.17243,3.18840,-6.87373,5.37869,3.18972,-6.83849,-1.11244,-1.11244,57.68860,11.98070,57.68860218,11.98070431,A,144014.70
18:29:55.193378,5.43645,0.01170,2.26594,2.26594,[3.00000 0.00000 0.00000],[1.30000 0.00000 0.00000],-0.00253,-0.02350,0.07794,-0.22393,0.00000,-0.01858,0.02435,-0.01025,-0.05167,0.95916,5.42560,1.71917,2.45793,-1.15123,-1.16490,3.19855,-6.89592,5.37869,3.18972,-6.83849,-1.11244,-1.11244,57.68860,11.98070,57.68860198,11.98070448,A,144014.70
18:29:55.210612,5.45315,0.00819,2.85404,2.85404,[3.00000 0.00000 0.00000],[1.30000 0.00000 0.00000],-0.00158,-0.02837,0.07427,-0.21665,0.00000,0.00112,0.03687,0.03306,-0.02696,0.98924,5.44472,0.59096,2.53715,-1.14359,-1.16009,3.21214,-6.92572,5.37869,3.18972,-6.83849,-1.11244,-1.11244,57.68860,11.98070,57.68860172,11.98070471,A,144014.70
18:29:55.219926,5.46300,0.00783,2.85404,2.85404,[3.00000 0.00000 0.00000],[1.30000 0.00000 0.00000],0.00168,-0.03041,0.06740,-0.21665,0.00000,-0.00208,0.04084,0.02623,0.18025,1.01412,5.45492,1.21368,2.60053,-1.13667,-1.15436,3.21845,-6.93842,5.37869,3.18972,-6.83849,-1.11244,-1.11244,57.68860,11.98070,57.68860160,11.98070482,A,144014.70
18:29:55.230410,5.47323,0.00751,2.85404,2.85404,[3.00000 0.00000 0.00000],[1.30000 0.00000 0.00000],0.00242,-0.03295,0.06786,-0.21300,0.00000,-0.00529,0.03061,0.04075,0.00952,1.09227,5.46526,0.93284,2.65123,-1.13065,-1.14982,3.22532,-6.95219,5.37869,3.18972,-6.83849,-1.11244,-1.11244,57.68860,11.98070,57.68860148,11.98070493,A,144014.70
18:29:55.266310,5.50924,0.03311,2.85404,2.85404,[3.00000 0.00000 0.00000],[1.30000 0.00000 0.00000],0.00268,-0.03570,0.07702,-0.24150,0.00000,0.00036,0.02206,0.06204,-0.03691,1.10861,5.47626,1.13065,2.69180,-1.13247,-1.15324,3.26931,-7.04868,5.50458,3.39775,-7.30180,-1.14878,-1.14878,57.68860,11.98071,57.68860061,11.98070567,A,144014.90
18:29:55.282858,5.52592,0.00786,2.85404,2.85404,[3.00000 0.00000 0.00000],[1.30000 0.00000 0.00000],0.00303,-0.04592,0.00173,-0.01700,0.00000,-0.04011,-0.04208,-0.09601,0.01549,1.01236,5.51772,0.54701,2.72425,-1.13194,-1.15865,3.29075,-7.09518,5.50458,3.39775,-7.30180,-1.14878,-1.14878,57.68860,11.98071,57.68860019,11.98070603,A,144014.90
18:29:55.297033,5.54011,0.01164,2.85404,2.85404,[3.00000 0.00000 0.00000],[1.30000 0.00000 0.00000],0.00300,-0.04861,0.00005,-0.01185,0.00000,-0.03813,-0.05002,0.08418,-0.00866,0.94904,5.52821,0.20024,2.75021,-1.13134,-1.15961,3.30856,-7.13402,5.50458,3.39775,-7.30180,-1.14878,-1.14878,57.68860,11.98071,57.68859984,11.98070633,A,144014.90
18:29:55.313937,5.55701,0.00752,2.29860,2.29860,[3.00000 0.00000 0.00000],[1.30000 0.00000 0.00000],0.00249,-0.05059,-0.01385,0.03182,0.00000,-0.01965,-0.04590,-0.01330,-0.00994,0.96386,5.54916,0.52747,2.65989,-1.13102,-1.16046,3.32873,-7.17843,5.50458,3.39775,-7.30180,-1.14878,-1.14878,57.68860,11.98071,57.68859944,11.98070667,A,144014.90
18:29:55.324587,5.56766,0.00777,2.29860,2.29860,[3.00000 0.00000 0.00000],[1.30000 0.00000 0.00000],0.00198,-0.05110,-0.02622,0.07093,0.00000,-0.00712,-0.04758,0.00744,-0.01214,0.95233,5.55962,0.10012,2.58763,-1.13007,-1.15980,3.34074,-7.20427,5.50458,3.39775,-7.30180,-1.14878,-1.14878,57.68860,11.98071,57.68859921,11.98070687,A,144014.90
18:29:55.335035,5.57810,0.00797,2.29860,2.29860,[3.00000 0.00000 0.00000],[1.30000 0.00000 0.00000],0.00083,-0.05121,-0.03645,0.10611,0.00000,0.00387,-0.04651,-0.10169,-0.04801,0.97935,5.56971,0.23443,2.52982,-1.12921,-1.15900,3.35161,-7.22754,5.50458,3.39775,-7.30180,-1.14878,-1.14878,57.68860,11.98071,57.68859900,11.98070706,A,144014.90
18:29:55.345240,5.58831,0.00778,2.29860,2.29860,[3.00000 0.00000 0.00000],[1.30000 0.00000 0.00000],-0.00011,-0.05169,-0.04302,0.12948,0.00000,0.01838,-0.04849,0.05490,-0.02983,0.94733,5.58028,0.01954,2.48358,-1.12845,-1.15853,3.36215,-7.25011,5.50458,3.39775,-7.30180,-1.14878,-1.14878,57.68860,11.98071,57.68859880,11.98070723,A,144014.90
18:29:55.356933,5.60000,0.00906,2.29860,2.29860,[3.00000 0.00000 0.00000],[1.30000 0.00000 0.00000],-0.00018,-0.05194,-0.04806,0.14487,0.00000,0.01853,-0.05246,-0.06374,0.02946,0.99503,5.59066,0.01954,2.44658,-1.12787,-1.15809,3.37292,-7.27326,5.50458,3.39775,-7.30180,-1.14878,-1.14878,57.68860,11.98071,57.68859859,11.98070742,A,144014.90
18:29:55.367072,5.61014,0.00914,2.29860,2.29860,[3.00000 0.00000 0.00000],[1.30000 0.00000 0.00000],0.00123,-0.05186,-0.04729,0.14487,0.00000,0.01548,-0.04544,0.04477,0.11254,0.89829,5.60080,0.00000,2.41699,-1.12725,-1.15742,3.38176,-7.29204,5.50458,3.39775,-7.30180,-1.14878,-1.14878,57.68860,11.98071,57.68859842,11.98070756,A,144014.90
18:29:55.391912,5.63499,0.02385,2.29860,2.29860,[3.00000 0.00000 0.00000],[1.30000 0.00000 0.00000],0.00043,-0.05141,-0.04256,0.12601,0.00000,0.01120,-0.04834,0.10382,-0.02196,1.02065,5.61086,0.00000,2.39331,-1.14372,-1.17363,3.40740,-7.35216,5.62842,3.47700,-7.54272,-1.25301,-1.25301,57.68860,11.98071,57.68859788,11.98070800,A,144015.00
18:29:55.407537,5.65061,0.00785,2.93728,2.93728,[3.00000 0.00000 0.00000],[1.30000 0.00000 0.00000],-0.00175,-0.04761,-0.07280,0.22522,0.00000,-0.00453,-0.05140,0.09254,-0.00268,1.00894,5.64259,0.00000,2.50210,-1.15718,-1.18488,3.42270,-7.38987,5.62842,3.47700,-7.54272,-1.25301,-1.25301,57.68860,11.98071,57.68859754,11.98070825,A,144015.00
18:29:55.418473,5.66128,0.00770,2.93728,2.93728,[3.00000 0.00000 0.00000],[1.30000 0.00000 0.00000],-0.00176,-0.04614,-0.07096,0.21974,0.00000,-0.02545,-0.05644,0.01720,0.04246,1.04584,5.65324,0.00000,2.58914,-1.16834,-1.19518,3.43359,-7.41763,5.62842,3.47700,-7.54272,-1.25301,-1.25301,57.68860,11.98071,57.68859729,11.98070844,A,144015.00
18:29:55.429143,5.67221,0.00791,2.93728,2.93728,[3.00000 0.00000 0.00000],[1.30000 0.00000 0.00000],-0.00238,-0.04456,-0.06821,0.21393,0.00000,-0.02499,-0.05659,-0.01299,-0.00079,1.03590,5.66418,0.00000,2.65877,-1.17793,-1.20385,3.44371,-7.44406,5.62842,3.47700,-7.54272,-1.25301,-1.25301,57.68860,11.98071,57.68859705,11.98070861,A,144015.00
18:29:55.439843,5.68292,0.00821,2.93728,2.93728,[3.00000 0.00000 0.00000],[1.30000 0.00000 0.00000],-0.00331,-0.04280,-0.06440,0.20609,0.00000,-0.01888,-0.05506,-0.03849,-0.02788,1.02151,5.67423,0.00000,2.71447,-1.18618,-1.21108,3.45291,-7.46859,5.62842,3.47700,-7.54272,-1.25301,-1.25301,57.68860,11.98071,57.68859683,11.98070876,A,144015.00
18:29:55.450439,5.69350,0.00838,2.93728,2.93728,[3.00000 0.00000 0.00000],[1.30000 0.00000 0.00000],-0.00514,-0.04057,-0.06470,0.21414,0.00000,-0.00621,-0.04788,0.00866,-0.08479,0.99857,5.68483,0.00000,2.75903,-1.19337,-1.21697,3.46154,-7.49203,5.62842,3.47700,-7.54272,-1.25301,-1.25301,57.68860,11.98071,57.68859662,11.98070891,A,144015.00
18:29:55.460699,5.70377,0.00845,2.93728,2.93728,[3.00000 0.00000 0.00000],[1.30000 0.00000 0.00000],-0.00600,-0.03844,-0.08410,0.27568,0.00000,-0.00529,-0.04819,0.07174,-0.00738,0.92641,5.69567,0.00977,2.79468,-1.19968,-1.22204,3.47018,-7.51588,5.62842,3.47700,-7.54272,-1.25301,-1.25301,57.68860,11.98071,57.68859641,11.98070905,A,144015.00
18:29:55.471089,5.71416,0.00839,2.93728,2.93728,[3.00000 0.00000 0.00000],[1.30000 0.00000 0.00000],-0.00828,-0.03669,-0.08440,0.28549,0.00000,-0.00850,-0.04788,0.13786,-0.10083,0.92903,5.70531,0.00000,2.82320,-1.20513,-1.22647,3.47798,-7.53772,5.62842,3.47700,-7.54272,-1.25301,-1.25301,57.68860,11.98071,57.68859621,11.98070918,A,144015.00
18:29:55.481822,5.72489,0.00871,2.65006,2.65006,[3.00000 0.00000 0.00000],[1.30000 0.00000 0.00000],-0.01007,-0.03479,-0.08547,0.29567,0.00000,-0.00483,-0.04605,0.06704,-0.05484,0.90542,5.71687,0.00000,2.78857,-1.20998,-1.23022,3.48623,-7.56112,5.62842,3.47700,-7.54272,-1.25301,-1.25301,57.68860,11.98071,57.68859600,11.98070932,A,144015.00
18:29:55.509400,5.75247,0.02544,2.65006,2.65006,[3.00000 0.00000 0.00000],[1.30000 0.00000 0.00000],-0.00962,-0.03222,-0.08791,0.30125,0.00000,-0.00499,-0.04529,-0.01214,0.08375,0.98875,5.72711,0.00000,2.76087,-1.20029,-1.21903,3.51363,-7.63597,5.74660,3.57606,-7.76511,-1.15175,-1.15175,57.68859,11.98071,57.68859533,11.98070978,A,144015.10
18:29:55.527589,5.77064,0.00882,2.65006,2.65006,[3.00000 0.00000 0.00000],[1.30000 0.00000 0.00000],-0.01191,-0.02350,-0.06287,0.23506,0.00000,0.03258,-0.04452,0.01098,-0.00933,1.09715,5.76147,0.00000,2.73871,-1.19195,-1.20562,3.53039,-7.67958,5.74660,3.57606,-7.76511,-1.15175,-1.15175,57.68859,11.98071,57.68859494,11.98071006,A,144015.10
18:29:55.537111,5.78018,0.00816,2.65006,2.65006,[3.00000 0.00000 0.00000],[1.30000 0.00000 0.00000],-0.01357,-0.02061,-0.04744,0.19526,0.00000,0.04266,-0.02849,0.02952,-0.07948,1.02193,5.77180,0.00000,2.72098,-1.18452,-1.19650,3.54039,-7.70405,5.74660,3.57606,-7.76511,-1.15175,-1.15175,57.68859,11.98071,57.68859472,11.98071023,A,144015.10
18:29:55.547200,5.79027,0.00784,2.65006,2.65006,[3.00000 0.00000 0.00000],[1.30000 0.00000 0.00000],-0.01377,-0.01815,-0.06134,0.23774,0.00000,0.03823,-0.01734,0.02458,0.02763,0.99674,5.78196,0.00000,2.70679,-1.17836,-1.18891,3.54988,-7.72671,5.74660,3.57606,-7.76511,-1.15175,-1.15175,57.68859,11.98071,57.68859451,11.98071039,A,144015.10
18:29:55.559077,5.80214,0.00930,2.65006,2.65006,[3.00000 0.00000 0.00000],[1.30000 0.00000 0.00000],-0.01440,-0.01597,-0.04928,0.20398,0.00000,0.02067,-0.00176,0.05758,-0.00586,0.98271,5.79255,0.00000,2.69545,-1.17329,-1.18258,3.55956,-7.74948,5.74660,3.57606,-7.76511,-1.15175,-1.15175,57.68859,11.98071,57.68859431,11.98071056,A,144015.10
18:29:55.568333,5.81141,0.00826,2.65006,2.65006,[3.00000 0.00000 0.00000],[1.30000 0.00000 0.00000],-0.01475,-0.01393,-0.04424,0.20398,0.00000,0.01563,0.01061,0.07985,0.00799,0.97075,5.80289,0.00000,2.68637,-1.16909,-1.17720,3.56805,-7.76900,5.74660,3.57606,-7.76511,-1.15175,-1.15175,57.68859,11.98071,57.68859413,11.98071070,A,144015.10
18:29:55.578452,5.82127,0.00754,2.48319,2.48319,[3.00000 0.00000 0.00000],[1.30000 0.00000 0.00000],-0.01572,-0.01164,-0.03187,0.15690,0.00000,0.00189,0.02573,-0.02275,-0.03800,0.97411,5.81327,0.00000,2.64573,-1.16570,-1.17247,3.57622,-7.78752,5.74660,3.57606,-7.76511,-1.15175,-1.15175,57.68859,11.98071,57.68859397,11.98071084,A,144015.10
18:29:55.590057,5.83313,0.00899,2.48319,2.48319,[3.00000 0.00000 0.00000],[1.30000 0.00000 0.00000],-0.01503,-0.00972,-0.03538,0.16477,0.00000,-0.00499,0.03413,0.02763,0.07588,1.02291,5.82384,0.00000,2.61322,-1.16295,-1.16860,3.58450,-7.80610,5.74660,3.57606,-7.76511,-1.15175,-1.15175,57.68859,11.98071,57.68859380,11.98071098,A,144015.10
18:29:55.601839,5.84491,0.01052,2.48319,2.48319,[3.00000 0.00000 0.00000],[1.30000 0.00000 0.00000],-0.01475,-0.00827,-0.03645,0.16686,0.00000,0.00036,0.02679,0.04734,0.04996,0.98161,5.83489,0.00000,2.58722,-1.16072,-1.16553,3.59318,-7.82544,5.74660,3.57606,-7.76511,-1.15175,-1.15175,57.68859,11.98071,57.68859362,11.98071112,A,144015.10
18:29:55.631474,5.87455,0.02080,2.48319,2.48319,[3.00000 0.00000 0.00000],[1.30000 0.00000 0.00000],-0.01407,-0.00516,-0.03767,0.16790,0.00000,-0.00147,0.02649,-0.03184,0.09986,1.01699,5.85340,0.00000,2.56641,-1.15851,-1.16151,3.62477,-7.89741,5.86987,3.68502,-8.00603,-1.14604,-1.14604,57.68859,11.98071,57.68859298,11.98071165,A,144015.20
18:29:55.648698,5.89178,0.00809,2.48319,2.48319,[3.00000 0.00000 0.00000],[1.30000 0.00000 0.00000],-0.01548,0.00053,-0.03233,0.15733,0.00000,0.03167,0.02481,0.07424,-0.01824,0.99619,5.88376,0.00488,2.54977,-1.15684,-1.15653,3.64256,-7.93689,5.86987,3.68502,-8.00603,-1.14604,-1.14604,57.68859,11.98071,57.68859262,11.98071195,A,144015.20
18:29:55.659493,5.90256,0.00864,2.48319,2.48319,[3.00000 0.00000 0.00000],[1.30000 0.00000 0.00000],-0.01644,0.00223,-0.03706,0.17528,0.00000,0.03136,0.03779,0.05935,-0.02971,1.01541,5.89384,0.01709,2.53645,-1.15540,-1.15411,3.65269,-7.95856,5.86987,3.68502,-8.00603,-1.14604,-1.14604,57.68859,11.98071,57.68859243,11.98071212,A,144015.20
18:29:55.669201,5.91227,0.00814,2.77976,2.77976,[3.00000 0.00000 0.00000],[1.30000 0.00000 0.00000],-0.01761,0.00390,-0.03034,0.15970,0.00000,0.04236,0.03764,0.09894,-0.04642,0.98869,5.90424,0.00000,2.58511,-1.15430,-1.15204,3.66242,-7.97926,5.86987,3.68502,-8.00603,-1.14604,-1.14604,57.68859,11.98071,57.68859224,11.98071229,A,144015.20
18:29:55.679093,5.92217,0.00763,2.77976,2.77976,[3.00000 0.00000 0.00000],[1.30000 0.00000 0.00000],-0.01723,0.00525,-0.03248,0.15970,0.00000,0.03075,0.04726,0.03257,0.05642,0.99467,5.91405,0.00244,2.62404,-1.15347,-1.15041,3.67134,-7.99810,5.86987,3.68502,-8.00603,-1.14604,-1.14604,57.68859,11.98071,57.68859207,11.98071244,A,144015.20
18:29:55.689526,5.93260,0.00765,2.77976,2.77976,[3.00000 0.00000 0.00000],[1.30000 0.00000 0.00000],-0.01724,0.00667,-0.01996,0.12712,0.00000,0.04175,0.05001,0.07027,0.02300,0.92433,5.92465,0.00000,2.65519,-1.15284,-1.14897,3.68100,-8.01859,5.86987,3.68502,-8.00603,-1.14604,-1.14604,57.68859,11.98071,57.68859189,11.98071260,A,144015.20
18:29:55.704598,5.94766,0.01231,2.77976,2.77976,[3.00000 0.00000 0.00000],[1.30000 0.00000 0.00000],-0.01642,0.00817,-0.00453,0.07764,0.00000,0.03716,0.05444,0.07302,0.06936,0.97277,5.93671,0.00977,2.68010,-1.15239,-1.14764,3.69295,-8.04413,5.86987,3.68502,-8.00603,-1.14604,-1.14604,57.68859,11.98071,57.68859166,11.98071280,A,144015.20
18:29:55.720836,5.96391,0.00780,2.77976,2.77976,[3.00000 0.00000 0.00000],[1.30000 0.00000 0.00000],-0.01801,0.01049,-0.00468,0.08427,0.00000,0.01319,0.06055,0.09687,-0.08375,0.98613,5.95591,0.00244,2.70003,-1.15212,-1.14602,3.70735,-8.07509,5.86987,3.68502,-8.00603,-1.14604,-1.14604,57.68859,11.98071,57.68859138,11.98071304,A,144015.20
18:29:55.745855,5.98894,0.02243,2.77976,2.77976,[3.00000 0.00000 0.00000],[1.30000 0.00000 0.00000],-0.01898,0.01137,-0.00988,0.10364,0.00000,0.00570,0.06039,0.05069,-0.04508,1.01412,5.96603,0.01465,2.71598,-1.15173,-1.14511,3.73574,-8.13686,5.98319,3.79399,-8.24696,-1.14604,-1.14604,57.68859,11.98071,57.68859082,11.98071352,A,144015.30
18:29:55.763120,6.00619,0.00845,2.65155,2.65155,[3.00000 0.00000 0.00000],[1.30000 0.00000 0.00000],-0.01863,0.01292,-0.00453,0.08626,0.00000,0.01013,0.05887,0.12072,0.04807,1.06726,5.99740,0.00000,2.70309,-1.15166,-1.14414,3.75465,-8.17766,5.98319,3.79399,-8.24696,-1.14604,-1.14604,57.68859,11.98071,57.68859046,11.98071384,A,144015.30
18:29:55.772856,6.01593,0.00778,2.65155,2.65155,[3.00000 0.00000 0.00000],[1.30000 0.00000 0.00000],-0.01960,0.01346,0.00280,0.06804,0.00000,0.00112,0.06406,0.02434,-0.05447,1.02980,6.00787,0.00244,2.69279,-1.15177,-1.14394,3.76568,-8.20106,5.98319,3.79399,-8.24696,-1.14604,-1.14604,57.68859,11.98071,57.68859025,11.98071402,A,144015.30
18:29:55.783316,6.02638,0.00783,2.65155,2.65155,[3.00000 0.00000 0.00000],[1.30000 0.00000 0.00000],-0.02016,0.01406,-0.00316,0.08811,0.00000,0.00158,0.06467,0.13676,-0.02159,0.97606,6.01807,0.00000,2.68454,-1.15191,-1.14374,3.77586,-8.22262,5.98319,3.79399,-8.24696,-1.14604,-1.14604,57.68859,11.98071,57.68859005,11.98071419,A,144015.30
18:29:55.793611,6.03668,0.00772,2.65155,2.65155,[3.00000 0.00000 0.00000],[1.30000 0.00000 0.00000],-0.02064,0.01482,-0.01095,0.11332,0.00000,-0.01247,0.07169,-0.05148,-0.00982,0.95331,6.02868,0.00000,2.67794,-1.15208,-1.14346,3.78603,-8.24420,5.98319,3.79399,-8.24696,-1.14604,-1.14604,57.68859,11.98071,57.68858986,11.98071437,A,144015.30
18:29:55.806666,6.04973,0.01036,2.65155,2.65155,[3.00000 0.00000 0.00000],[1.30000 0.00000 0.00000],-0.02022,0.01575,-0.00300,0.08785,0.00000,-0.01904,0.08238,0.05862,0.04343,1.00186,6.03923,0.00000,2.67266,-1.15228,-1.14312,3.79616,-8.26571,5.98319,3.79399,-8.24696,-1.14604,-1.14604,57.68859,11.98071,57.68858966,11.98071454,A,144015.30
18:29:55.826066,6.06915,0.00964,2.65155,2.65155,[3.00000 0.00000 0.00000],[1.30000 0.00000 0.00000],-0.02015,0.01751,-0.00255,0.08622,0.00000,-0.00621,0.08926,0.06606,0.02190,0.96179,6.05942,0.00977,2.66844,-1.15236,-1.14218,3.81342,-8.30288,5.98319,3.79399,-8.24696,-1.14604,-1.14604,57.68859,11.98071,57.68858933,11.98071483,A,144015.30
18:29:55.834965,6.07804,0.00766,3.08721,3.08721,[3.00000 0.00000 0.00000],[1.30000 0.00000 0.00000],-0.02105,0.01822,0.00158,0.08622,0.00000,-0.00850,0.09002,0.01604,-0.04276,1.00735,6.06990,0.00000,2.75220,-1.15276,-1.14217,3.81970,-8.31595,5.98319,3.79399,-8.24696,-1.14604,-1.14604,57.68859,11.98071,57.68858921,11.98071493,A,144015.30
18:29:55.870980,6.11406,0.03343,3.08721,3.08721,[3.00000 0.00000 0.00000],[1.30000 0.00000 0.00000],-0.02156,0.01878,-0.00041,0.08530,0.00000,-0.00086,0.09078,-0.00494,-0.01440,0.97996,6.08044,0.00000,2.81920,-1.14728,-1.13635,3.86721,-8.41752,6.10895,4.02183,-8.71027,-1.11376,-1.11376,57.68859,11.98072,57.68858830,11.98071573,A,144015.50
18:29:55.887597,6.13067,0.00791,3.08721,3.08721,[3.00000 0.00000 0.00000],[1.30000 0.00000 0.00000],-0.02116,0.02150,-0.01033,0.11354,0.00000,0.03106,0.07841,0.11834,0.07259,0.95807,6.12261,0.00000,2.87280,-1.14355,-1.13105,3.89141,-8.46765,6.10895,4.02183,-8.71027,-1.11376,-1.11376,57.68859,11.98072,57.68858785,11.98071614,A,144015.50
18:29:55.897815,6.14089,0.00771,3.08721,3.08721,[3.00000 0.00000 0.00000],[1.30000 0.00000 0.00000],-0.02175,0.02224,-0.00865,0.11079,0.00000,0.01029,0.08009,0.05496,-0.01275,1.01425,6.13288,0.00244,2.91568,-1.14063,-1.12770,3.90802,-8.50121,6.10895,4.02183,-8.71027,-1.11376,-1.11376,57.68859,11.98072,57.68858755,11.98071642,A,144015.50
18:29:55.912909,6.15598,0.01240,3.08721,3.08721,[3.00000 0.00000 0.00000],[1.30000 0.00000 0.00000],-0.02211,0.02311,-0.01201,0.12225,0.00000,0.01059,0.08635,-0.01171,0.00567,1.01425,6.14333,0.00488,2.94999,-1.13806,-1.12462,3.92734,-8.54040,6.10895,4.02183,-8.71027,-1.11376,-1.11376,57.68859,11.98072,57.68858719,11.98071674,A,144015.50
18:29:55.929646,6.17272,0.00786,3.08721,3.08721,[3.00000 0.00000 0.00000],[1.30000 0.00000 0.00000],-0.02187,0.02498,0.00036,0.08424,0.00000,-0.00010,0.10269,-0.02379,0.03819,1.05268,6.16465,0.00000,2.97743,-1.13580,-1.12127,3.95122,-8.58894,6.10895,4.02183,-8.71027,-1.11376,-1.11376,57.68859,11.98072,57.68858676,11.98071715,A,144015.50
18:29:55.940287,6.18336,0.00806,2.27288,2.27288,[3.00000 0.00000 0.00000],[1.30000 0.00000 0.00000],-0.02286,0.02594,0.00341,0.07893,0.00000,-0.01751,0.10132,0.19727,-0.05581,1.02077,6.17497,0.00000,2.83652,-1.13431,-1.11922,3.96472,-8.61567,6.10895,4.02183,-8.71027,-1.11376,-1.11376,57.68859,11.98072,57.68858652,11.98071737,A,144015.50
18:29:55.950873,6.19394,0.00813,2.27288,2.27288,[3.00000 0.00000 0.00000],[1.30000 0.00000 0.00000],-0.02314,0.02685,-0.00697,0.11115,0.00000,-0.02499,0.10880,-0.07906,-0.00055,1.03066,6.18536,0.00244,2.72379,-1.13313,-1.11752,3.97712,-8.64008,6.10895,4.02183,-8.71027,-1.11376,-1.11376,57.68859,11.98072,57.68858630,11.98071758,A,144015.50
18:29:55.960996,6.20407,0.00786,2.27288,2.27288,[3.00000 0.00000 0.00000],[1.30000 0.00000 0.00000],-0.02290,0.02770,-0.01400,0.13132,0.00000,-0.02499,0.10712,0.01421,0.03739,0.95081,6.19596,0.00244,2.63361,-1.13219,-1.11608,3.98892,-8.66321,6.10895,4.02183,-8.71027,-1.11376,-1.11376,57.68859,11.98072,57.68858609,11.98071778,A,144015.50
18:29:55.985134,6.22821,0.02159,2.27288,2.27288,[3.00000 0.00000 0.00000],[1.30000 0.00000 0.00000],-0.02221,0.02849,-0.01095,0.11945,0.00000,-0.01537,0.10651,-0.05783,0.06606,0.96734,6.20672,0.00000,2.56146,-1.13482,-1.11825,4.02106,-8.72876,6.22352,4.14070,-8.96972,-1.14118,-1.14118,57.68858,11.98072,57.68858550,11.98071832,A,144015.60
18:29:56.001329,6.24440,0.00766,2.27288,2.27288,[3.00000 0.00000 0.00000],[1.30000 0.00000 0.00000],-0.02152,0.03135,-0.00804,0.10804,0.00000,-0.01384,0.09445,0.01409,0.07015,0.87968,6.23654,0.00000,2.50375,-1.13774,-1.11951,4.04205,-8.77169,6.22352,4.14070,-8.96972,-1.14118,-1.14118,57.68858,11.98072,57.68858511,11.98071867,A,144015.60
18:29:56.013295,6.25601,0.00886,2.27288,2.27288,[3.00000 0.00000 0.00000],[1.30000 0.00000 0.00000],-0.02095,0.03240,-0.02011,0.14202,0.00000,-0.01705,0.08773,0.01470,0.06509,0.93519,6.24689,0.00244,2.45757,-1.14060,-1.12176,4.05562,-8.79941,6.22352,4.14070,-8.96972,-1.14118,-1.14118,57.68858,11.98072,57.68858486,11.98071890,A,144015.60
18:29:56.026350,6.26918,0.01158,2.27288,2.27288,[3.00000 0.00000 0.00000],[1.30000 0.00000 0.00000],-0.02132,0.03342,-0.01660,0.13295,0.00000,0.00402,0.08620,-0.09644,0.00445,1.05829,6.25791,0.00000,2.42064,-1.14298,-1.12354,4.07068,-8.83034,6.22352,4.14070,-8.96972,-1.14118,-1.14118,57.68858,11.98072,57.68858459,11.98071916,A,144015.60
18:29:56.043242,6.28632,0.00847,2.82586,2.82586,[3.00000 0.00000 0.00000],[1.30000 0.00000 0.00000],-0.02230,0.03514,-0.01186,0.12255,0.00000,0.02693,0.09949,0.11541,-0.02464,1.03224,6.27750,0.00000,2.50168,-1.14488,-1.12444,4.08908,-8.86837,6.22352,4.14070,-8.96972,-1.14118,-1.14118,57.68858,11.98072,57.68858424,11.98071946,A,144015.60
18:29:56.052797,6.29587,0.00778,2.82586,2.82586,[3.00000 0.00000 0.00000],[1.30000 0.00000 0.00000],-0.02350,0.03622,-0.02316,0.12255,0.00000,0.01869,0.10376,0.08107,-0.03934,1.02022,6.28786,0.00244,2.56651,-1.14697,-1.12591,4.09967,-8.89017,6.22352,4.14070,-8.96972,-1.14118,-1.14118,57.68858,11.98072,57.68858405,11.98071964,A,144015.60
18:29:56.063380,6.30645,0.00795,2.82586,2.82586,[3.00000 0.00000 0.00000],[1.30000 0.00000 0.00000],-0.02323,0.03707,-0.02835,0.17567,0.00000,0.00906,0.11109,0.04563,0.06381,1.03072,6.29802,0.00000,2.61838,-1.14878,-1.12722,4.11028,-8.91212,6.22352,4.14070,-8.96972,-1.14118,-1.14118,57.68858,11.98072,57.68858385,11.98071982,A,144015.60
18:29:56.074675,6.31775,0.00884,2.82586,2.82586,[3.00000 0.00000 0.00000],[1.30000 0.00000 0.00000],-0.02293,0.03806,-0.02713,0.17084,0.00000,0.00815,0.11904,-0.08741,0.06734,1.03096,6.30899,0.00000,2.65988,-1.15030,-1.12816,4.12166,-8.93574,6.22352,4.14070,-8.96972,-1.14118,-1.14118,57.68858,11.98072,57.68858364,11.98072001,A,144015.60
18:29:56.096901,6.33998,0.02086,2.82586,2.82586,[3.00000 0.00000 0.00000],[1.30000 0.00000 0.00000],-0.02325,0.03925,-0.01064,0.12259,0.00000,0.02006,0.11613,0.02361,0.01366,1.00180,6.31886,0.00000,2.69307,-1.14162,-1.11879,4.15094,-8.99578,6.33528,4.25957,-9.19211,-1.07992,-1.07992,57.68858,11.98072,57.68858310,11.98072051,A,144015.70
18:29:56.115339,6.35841,0.00979,2.82586,2.82586,[3.00000 0.00000 0.00000],[1.30000 0.00000 0.00000],-0.02458,0.04290,-0.01293,0.13466,0.00000,-0.01201,0.11155,-0.00098,-0.03166,0.96221,6.34870,0.00000,2.71963,-1.13495,-1.10999,4.17292,-9.03968,6.33528,4.25957,-9.19211,-1.07992,-1.07992,57.68858,11.98072,57.68858270,11.98072088,A,144015.70
18:29:56.125337,6.36842,0.00903,2.82586,2.82586,[3.00000 0.00000 0.00000],[1.30000 0.00000 0.00000],-0.02442,0.04443,-0.01018,0.12577,0.00000,-0.01003,0.11125,0.03129,0.04648,0.93940,6.35913,0.00000,2.74088,-1.12992,-1.10407,4.18591,-9.06475,6.33528,4.25957,-9.19211,-1.07992,-1.07992,57.68858,11.98072,57.68858248,11.98072109,A,144015.70
18:29:56.134324,6.37715,0.00749,2.31551,2.31551,[3.00000 0.00000 0.00000],[1.30000 0.00000 0.00000],-0.02386,0.04576,-0.00529,0.12577,0.00000,-0.01613,0.11934,-0.09955,0.06057,0.98979,6.36918,0.00000,2.65580,-1.12578,-1.09916,4.19780,-9.08740,6.33528,4.25957,-9.19211,-1.07992,-1.07992,57.68858,11.98072,57.68858228,11.98072129,A,144015.70
18:29:56.144925,6.38800,0.00793,2.31551,2.31551,[3.00000 0.00000 0.00000],[1.30000 0.00000 0.00000],-0.02351,0.04689,-0.00285,0.10023,0.00000,0.00021,0.13018,0.15598,0.04642,0.96002,6.38000,0.00000,2.58774,-1.12222,-1.09494,4.21074,-9.11195,6.33528,4.25957,-9.19211,-1.07992,-1.07992,57.68858,11.98072,57.68858205,11.98072151,A,144015.70
18:29:56.155188,6.39826,0.00780,2.31551,2.31551,[3.00000 0.00000 0.00000],[1.30000 0.00000 0.00000],-0.02371,0.04796,0.01410,0.10023,0.00000,-0.00254,0.14362,-0.02129,0.00018,0.98509,6.38998,0.00000,2.53330,-1.11934,-1.09144,4.22220,-9.13346,6.33528,4.25957,-9.19211,-1.07992,-1.07992,57.68858,11.98072,57.68858186,11.98072170,A,144015.70
18:29:56.165458,6.40853,0.00767,2.31551,2.31551,[3.00000 0.00000 0.00000],[1.30000 0.00000 0.00000],-0.02392,0.04907,0.01364,0.05237,0.00000,0.00662,0.15111,0.10028,-0.00110,1.00473,6.40058,0.00488,2.48974,-1.11692,-1.08837,4.23386,-9.15523,6.33528,4.25957,-9.19211,-1.07992,-1.07992,57.68858,11.98072,57.68858167,11.98072190,A,144015.70
18:29:56.177119,6.42019,0.00893,2.31551,2.31551,[3.00000 0.00000 0.00000],[1.30000 0.00000 0.00000],-0.02340,0.04994,0.00708,0.07003,0.00000,0.00861,0.16103,-0.04917,0.05392,1.03145,6.41135,0.00000,2.45489,-1.11487,-1.08581,4.24559,-9.17702,6.33528,4.25957,-9.19211,-1.07992,-1.07992,57.68858,11.98072,57.68858147,11.98072210,A,144015.70
18:29:56.186028,6.42910,0.00753,2.31551,2.31551,[3.00000 0.00000 0.00000],[1.30000 0.00000 0.00000],-0.02256,0.05077,0.00372,0.07003,0.00000,0.02479,0.15783,-0.03989,0.08021,1.05103,6.42113,0.00000,2.42701,-1.11341,-1.08387,4.25404,-9.19249,6.33528,4.25957,-9.19211,-1.07992,-1.07992,57.68858,11.98072,57.68858133,11.98072224,A,144015.70
18:29:56.212870,6.45595,0.02396,2.31551,2.31551,[3.00000 0.00000 0.00000],[1.30000 0.00000 0.00000],-0.02226,0.05127,0.01227,0.04999,0.00000,0.03839,0.14927,-0.05386,0.03709,1.02950,6.43170,0.00488,2.40471,-1.13464,-1.10481,4.28484,-9.25466,6.44833,4.34872,-9.45157,-1.23982,-1.23982,57.68858,11.98072,57.68858077,11.98072276,A,144015.80
18:29:56.231227,6.47430,0.00835,2.85294,2.85294,[3.00000 0.00000 0.00000],[1.30000 0.00000 0.00000],-0.02260,0.05334,0.01807,0.03392,0.00000,0.01899,0.13629,0.15384,-0.02507,0.99704,6.46612,0.00488,2.49436,-1.15360,-1.12257,4.30458,-9.29740,6.44833,4.34872,-9.45157,-1.23982,-1.23982,57.68858,11.98072,57.68858039,11.98072309,A,144015.80
18:29:56.241702,6.48477,0.00843,2.85294,2.85294,[3.00000 0.00000 0.00000],[1.30000 0.00000 0.00000],-0.02735,0.05405,0.01899,0.04971,0.00000,-0.00514,0.13583,0.14219,-0.27938,0.93092,6.47639,0.01709,2.56607,-1.17043,-1.13898,4.31539,-9.32301,6.44833,4.34872,-9.45157,-1.23982,-1.23982,57.68858,11.98072,57.68858016,11.98072327,A,144015.80
18:29:56.251323,6.49439,0.00785,2.85294,2.85294,[3.00000 0.00000 0.00000],[1.30000 0.00000 0.00000],-0.02686,0.05450,0.02571,0.04971,0.00000,-0.02774,0.14561,-0.00311,0.04972,0.94428,6.48610,0.00977,2.62345,-1.18482,-1.15311,4.32475,-9.34614,6.44833,4.34872,-9.45157,-1.23982,-1.23982,57.68858,11.98072,57.68857995,11.98072343,A,144015.80
18:29:56.261679,6.50475,0.00780,2.85294,2.85294,[3.00000 0.00000 0.00000],[1.30000 0.00000 0.00000],-0.02808,0.05470,0.03288,0.01085,0.00000,-0.03736,0.15523,0.09376,-0.06307,0.93830,6.49679,0.00733,2.66935,-1.19692,-1.16509,4.33476,-9.37127,6.44833,4.34872,-9.45157,-1.23982,-1.23982,57.68858,11.98072,57.68857972,11.98072360,A,144015.80
18:29:56.272222,6.51529,0.00793,2.85294,2.85294,[3.00000 0.00000 0.00000],[1.30000 0.00000 0.00000],-0.02893,0.05473,0.03808,-0.00139,0.00000,-0.04301,0.16409,-0.04349,-0.04538,0.95184,6.50718,0.00733,2.70607,-1.20723,-1.17539,4.34383,-9.39476,6.44833,4.34872,-9.45157,-1.23982,-1.23982,57.68858,11.98072,57.68857951,11.98072375,A,144015.80
18:29:56.282915,6.52599,0.00822,2.85294,2.85294,[3.00000 0.00000 0.00000],[1.30000 0.00000 0.00000],-0.02938,0.05473,0.04174,-0.01065,0.00000,-0.03263,0.17111,-0.02501,-0.02348,0.96758,6.51766,0.00977,2.73544,-1.21596,-1.18412,4.35253,-9.41787,6.44833,4.34872,-9.45157,-1.23982,-1.23982,57.68858,11.98072,57.68857930,11.98072390,A,144015.80
18:29:56.293244,6.53632,0.00814,2.85294,2.85294,[3.00000 0.00000 0.00000],[1.30000 0.00000 0.00000],-0.02927,0.05473,0.03960,-0.00467,0.00000,-0.00208,0.17172,-0.00677,0.01269,0.97661,6.52828,0.01954,2.75894,-1.22337,-1.19153,4.36071,-9.44011,6.44833,4.34872,-9.45157,-1.23982,-1.23982,57.68858,11.98072,57.68857910,11.98072404,A,144015.80
18:29:56.305206,6.54828,0.00946,2.85294,2.85294,[3.00000 0.00000 0.00000],[1.30000 0.00000 0.00000],-0.02996,0.05473,0.03624,0.00812,0.00000,0.00296,0.17172,-0.02257,-0.03770,0.99155,6.53852,0.02930,2.77774,-1.22970,-1.19786,4.36802,-9.46052,6.44833,4.34872,-9.45157,-1.23982,-1.23982,57.68858,11.98072,57.68857892,11.98072416,A,144015.80
18:29:56.331618,6.57469,0.02542,2.61618,2.61618,[3.00000 0.00000 0.00000],[1.30000 0.00000 0.00000],-0.03075,0.05473,0.03853,0.00432,0.00000,0.01380,0.16317,0.00458,-0.05264,0.99021,6.54909,0.02442,2.74543,-1.21425,-1.18241,4.39558,-9.52984,6.56854,4.46760,-9.69249,-1.11244,-1.11244,57.68858,11.98073,57.68857830,11.98072462,A,144015.90
18:29:56.351906,6.59495,0.01127,2.61618,2.61618,[3.00000 0.00000 0.00000],[1.30000 0.00000 0.00000],-0.02806,0.05473,0.02830,0.02453,0.00000,-0.00621,0.14576,0.02580,0.14488,1.05792,6.58457,0.02442,2.71958,-1.20183,-1.16999,4.41628,-9.57975,6.56854,4.46760,-9.69249,-1.11244,-1.11244,57.68858,11.98073,57.68857785,11.98072497,A,144015.90
18:29:56.369628,6.61270,0.00775,2.61618,2.61618,[3.00000 0.00000 0.00000],[1.30000 0.00000 0.00000],-0.02760,0.05473,0.04678,-0.03271,0.00000,-0.01277,0.15126,-0.00842,-0.00543,1.06292,6.60476,0.01465,2.69890,-1.19131,-1.15947,4.43613,-9.62618,6.56854,4.46760,-9.69249,-1.11244,-1.11244,57.68858,11.98073,57.68857743,11.98072530,A,144015.90
18:29:56.381206,6.62428,0.00891,2.61618,2.61618,[3.00000 0.00000 0.00000],[1.30000 0.00000 0.00000],-0.02747,0.05473,0.04709,-0.03413,0.00000,-0.00697,0.16485,-0.00256,0.00317,1.06683,6.61509,0.02198,2.68235,-1.18323,-1.15139,4.44734,-9.65160,6.56854,4.46760,-9.69249,-1.11244,-1.11244,57.68858,11.98073,57.68857720,11.98072549,A,144015.90
18:29:56.392600,6.63567,0.00913,2.61618,2.61618,[3.00000 0.00000 0.00000],[1.30000 0.00000 0.00000],-0.02749,0.05473,0.06419,-0.08537,0.00000,-0.00682,0.17814,0.01226,-0.02037,1.01480,6.62615,0.05861,2.66912,-1.17652,-1.14467,4.45670,-9.67237,6.56854,4.46760,-9.69249,-1.11244,-1.11244,57.68858,11.98073,57.68857701,11.98072565,A,144015.90
18:29:56.401949,6.64503,0.00837,2.61618,2.61618,[3.00000 0.00000 0.00000],[1.30000 0.00000 0.00000],-0.02678,0.05473,0.05442,-0.08537,0.00000,-0.00865,0.19005,0.01501,0.03837,0.97667,6.63650,0.09280,2.65853,-1.17079,-1.13895,4.46590,-9.69242,6.56854,4.46760,-9.69249,-1.11244,-1.11244,57.68858,11.98073,57.68857683,11.98072580,A,144015.90
18:29:56.412899,6.65597,0.00890,2.52476,2.52476,[3.00000 0.00000 0.00000],[1.30000 0.00000 0.00000],-0.02539,0.05442,0.06465,-0.09491,0.00000,-0.00987,0.19371,0.02312,0.06850,0.94276,6.64788,0.13431,2.63178,-1.16585,-1.13418,4.47523,-9.71249,6.56854,4.46760,-9.69249,-1.11244,-1.11244,57.68858,11.98073,57.68857665,11.98072596,A,144015.90
18:29:56.425792,6.66886,0.01157,2.52476,2.52476,[3.00000 0.00000 0.00000],[1.30000 0.00000 0.00000],-0.02537,0.05388,0.07442,-0.12434,0.00000,-0.00728,0.19158,-0.08760,-0.01220,0.93812,6.65701,0.15140,2.61037,-1.16151,-1.13016,4.48507,-9.73339,6.56854,4.46760,-9.69249,-1.11244,-1.11244,57.68858,11.98073,57.68857647,11.98072613,A,144015.90
18:29:56.475845,6.71891,0.03937,2.52476,2.52476,[3.00000 0.00000 0.00000],[1.30000 0.00000 0.00000],-0.02439,0.05099,0.07244,-0.12219,0.00000,-0.00025,0.17798,0.00762,-0.01543,0.92732,6.68016,0.18071,2.59325,-1.15385,-1.12418,4.54591,-9.86124,6.71208,4.69543,-10.15580,-1.11376,-1.11376,57.68857,11.98073,57.68857532,11.98072715,A,144016.10
18:29:56.493481,6.73655,0.00819,2.52476,2.52476,[3.00000 0.00000 0.00000],[1.30000 0.00000 0.00000],-0.02123,0.04584,0.06236,-0.10430,0.00000,0.02296,0.16668,0.07393,0.03691,0.98698,6.72864,0.55922,2.57955,-1.15029,-1.12363,4.57020,-9.91107,6.71208,4.69543,-10.15580,-1.11376,-1.11376,57.68857,11.98073,57.68857487,11.98072756,A,144016.10
18:29:56.503326,6.74640,0.00783,2.77124,2.77124,[3.00000 0.00000 0.00000],[1.30000 0.00000 0.00000],-0.01976,0.04454,0.06389,-0.10430,0.00000,0.00784,0.16821,0.01647,0.08686,0.95441,6.73815,1.34066,2.61789,-1.14802,-1.12212,4.58466,-9.94041,6.71208,4.69543,-10.15580,-1.11376,-1.11376,57.68857,11.98073,57.68857460,11.98072780,A,144016.10
18:29:56.513563,6.75664,0.00766,2.77124,2.77124,[3.00000 0.00000 0.00000],[1.30000 0.00000 0.00000],-0.01957,0.04278,0.05762,-0.09655,0.00000,-0.01354,0.16577,0.15128,0.00659,0.93257,6.74868,0.55433,2.64856,-1.14587,-1.12099,4.59952,-9.97054,6.71208,4.69543,-10.15580,-1.11376,-1.11376,57.68857,11.98073,57.68857433,11.98072805,A,144016.10
18:29:56.524169,6.76724,0.00786,2.77124,2.77124,[3.00000 0.00000 0.00000],[1.30000 0.00000 0.00000],-0.01920,0.04174,0.05992,-0.10489,0.00000,-0.02392,0.17188,-0.14451,0.01531,1.04023,6.75911,0.72283,2.67310,-1.14399,-1.11971,4.61354,-9.99890,6.71208,4.69543,-10.15580,-1.11376,-1.11376,57.68857,11.98073,57.68857408,11.98072829,A,144016.10
18:29:56.534553,6.77762,0.00783,2.77124,2.77124,[3.00000 0.00000 0.00000],[1.30000 0.00000 0.00000],-0.01853,0.04043,0.06343,-0.11803,0.00000,-0.01079,0.16470,0.09559,0.03373,1.05731,6.76933,0.68620,2.69273,-1.14231,-1.11879,4.62677,-10.02561,6.71208,4.69543,-10.15580,-1.11376,-1.11376,57.68857,11.98073,57.68857384,11.98072851,A,144016.10
18:29:56.549394,6.79246,0.01227,2.77124,2.77124,[3.00000 0.00000 0.00000],[1.30000 0.00000 0.00000],-0.01750,0.03845,0.05686,-0.10234,0.00000,-0.01506,0.15447,-0.03660,0.06271,1.10331,6.78007,0.36874,2.70843,-1.14045,-1.11809,4.64306,-10.05859,6.71208,4.69543,-10.15580,-1.11376,-1.11376,57.68857,11.98073,57.68857354,11.98072879,A,144016.10
18:29:56.566062,6.80914,0.00763,2.77124,2.77124,[3.00000 0.00000 0.00000],[1.30000 0.00000 0.00000],-0.01681,0.03537,0.05488,-0.09906,0.00000,-0.00483,0.12850,0.06899,0.00122,0.92171,6.80117,0.20757,2.72099,-1.13832,-1.11775,4.66348,-10.10006,6.71208,4.69543,-10.15580,-1.11376,-1.11376,57.68857,11.98073,57.68857317,11.98072913,A,144016.10
18:29:56.592965,6.83604,0.02413,2.77124,2.77124,[3.00000 0.00000 0.00000],[1.30000 0.00000 0.00000],-0.01602,0.03421,0.04327,-0.06733,0.00000,-0.01323,0.11751,0.06521,0.04758,0.83015,6.81163,0.11477,2.73104,-1.13564,-1.11574,4.69942,-10.17322,6.83132,4.81430,-10.39673,-1.11244,-1.11244,57.68857,11.98073,57.68857251,11.98072973,A,144016.20
18:29:56.608640,6.85171,0.00783,2.67109,2.67109,[3.00000 0.00000 0.00000],[1.30000 0.00000 0.00000],-0.01387,0.03033,0.03945,-0.06425,0.00000,0.01074,0.11629,0.00665,0.08601,0.98844,6.84367,0.16361,2.71905,-1.13387,-1.11623,4.72053,-10.21579,6.83132,4.81430,-10.39673,-1.11244,-1.11244,57.68857,11.98073,57.68857213,11.98073009,A,144016.20
18:29:56.619119,6.86219,0.00807,2.67109,2.67109,[3.00000 0.00000 0.00000],[1.30000 0.00000 0.00000],-0.01338,0.02937,0.05579,-0.11520,0.00000,0.01991,0.12621,0.00537,0.02428,0.97435,6.85370,0.08303,2.70946,-1.13271,-1.11563,4.73460,-10.24405,6.83132,4.81430,-10.39673,-1.11244,-1.11244,57.68857,11.98073,57.68857187,11.98073033,A,144016.20
18:29:56.629262,6.87234,0.00781,2.67109,2.67109,[3.00000 0.00000 0.00000],[1.30000 0.00000 0.00000],-0.01313,0.02846,0.05717,-0.12031,0.00000,0.00265,0.13278,0.07320,0.00488,1.03017,6.86427,0.27106,2.70179,-1.13166,-1.11511,4.74804,-10.27100,6.83132,4.81430,-10.39673,-1.11244,-1.11244,57.68857,11.98073,57.68857163,11.98073055,A,144016.20
18:29:56.640289,6.88319,0.00801,2.67109,2.67109,[3.00000 0.00000 0.00000],[1.30000 0.00000 0.00000],-0.01373,0.02713,0.05625,-0.11520,0.00000,0.00219,0.12957,0.06338,-0.05819,1.09117,6.87488,0.16361,2.69565,-1.13067,-1.11489,4.76090,-10.29676,6.83132,4.81430,-10.39673,-1.11244,-1.11244,57.68857,11.98073,57.68857140,11.98073077,A,144016.20
18:29:56.654283,6.89714,0.01141,2.67109,2.67109,[3.00000 0.00000 0.00000],[1.30000 0.00000 0.00000],-0.01354,0.02529,0.03472,-0.05133,0.00000,0.00066,0.12484,-0.03977,0.00994,1.10142,6.88719,0.06105,2.69073,-1.12955,-1.11484,4.77589,-10.32689,6.83132,4.81430,-10.39673,-1.11244,-1.11244,57.68857,11.98073,57.68857113,11.98073102,A,144016.20
18:29:56.671185,6.91425,0.00797,3.10596,3.10596,[3.00000 0.00000 0.00000],[1.30000 0.00000 0.00000],-0.01222,0.02275,0.04067,-0.07436,0.00000,0.02266,0.11293,0.13115,0.06869,1.02797,6.90596,0.03907,2.77378,-1.12822,-1.11499,4.79460,-10.36462,6.83132,4.81430,-10.39673,-1.11244,-1.11244,57.68857,11.98073,57.68857079,11.98073134,A,144016.20
18:29:56.682769,6.92558,0.00888,3.10596,3.10596,[3.00000 0.00000 0.00000],[1.30000 0.00000 0.00000],-0.01245,0.02198,0.04678,-0.09178,0.00000,0.00418,0.10560,0.13396,-0.01751,0.99741,6.91643,0.49573,2.84022,-1.12738,-1.11459,4.80528,-10.38600,6.83132,4.81430,-10.39673,-1.11244,-1.11244,57.68857,11.98073,57.68857060,11.98073151,A,144016.20
18:29:56.705306,6.94838,0.02107,3.10596,3.10596,[3.00000 0.00000 0.00000],[1.30000 0.00000 0.00000],-0.01163,0.02133,0.03838,-0.06980,0.00000,-0.01736,0.10743,-0.00671,0.05508,0.93544,6.92705,0.11722,2.89337,-1.13868,-1.12628,4.83780,-10.45467,6.94373,4.92327,-10.67471,-1.19722,-1.19722,57.68857,11.98073,57.68856998,11.98073206,A,144016.30
18:29:56.721290,6.96435,0.00788,3.10596,3.10596,[3.00000 0.00000 0.00000],[1.30000 0.00000 0.00000],-0.01195,0.01856,0.03243,-0.05069,0.00000,-0.03751,0.10086,0.07247,-0.05039,0.92458,6.95624,0.10989,2.93588,-1.14846,-1.13767,4.85824,-10.49962,6.94373,4.92327,-10.67471,-1.19722,-1.19722,57.68857,11.98073,57.68856957,11.98073241,A,144016.30
18:29:56.731603,6.97468,0.00779,3.10596,3.10596,[3.00000 0.00000 0.00000],[1.30000 0.00000 0.00000],-0.01181,0.01774,0.03288,-0.05258,0.00000,-0.03156,0.10163,-0.10193,0.01342,1.03261,6.96660,0.36630,2.96990,-1.15699,-1.14668,4.87105,-10.52905,6.94373,4.92327,-10.67471,-1.19722,-1.19722,57.68857,11.98073,57.68856931,11.98073262,A,144016.30
18:29:56.742783,6.98585,0.00856,3.10596,3.10596,[3.00000 0.00000 0.00000],[1.30000 0.00000 0.00000],-0.01075,0.01683,0.04403,-0.09015,0.00000,-0.01705,0.10422,0.03129,0.06655,1.00571,6.97719,0.19292,2.99711,-1.16415,-1.15436,4.88402,-10.55927,6.94373,4.92327,-10.67471,-1.19722,-1.19722,57.68857,11.98073,57.68856904,11.98073284,A,144016.30
18:29:56.755784,6.99886,0.01110,3.10596,3.10596,[3.00000 0.00000 0.00000],[1.30000 0.00000 0.00000],-0.00875,0.01590,0.04464,-0.09981,0.00000,-0.00682,0.11064,-0.09772,0.13884,1.10569,6.98883,0.37851,3.01888,-1.17013,-1.16088,4.89737,-10.59079,6.94373,4.92327,-10.67471,-1.19722,-1.19722,57.68857,11.98073,57.68856875,11.98073306,A,144016.30
18:29:56.774057,7.01713,0.00759,2.28024,2.28024,[3.00000 0.00000 0.00000],[1.30000 0.00000 0.00000],-0.00844,0.01338,0.04571,-0.10423,0.00000,0.03350,0.09842,0.02794,-0.01909,1.01223,7.00917,0.05861,2.87115,-1.17477,-1.16699,4.91750,-10.63832,6.94373,4.92327,-10.67471,-1.19722,-1.19722,57.68857,11.98073,57.68856833,11.98073340,A,144016.30
18:29:56.784620,7.02769,0.00775,2.28024,2.28024,[3.00000 0.00000 0.00000],[1.30000 0.00000 0.00000],-0.00783,0.01259,0.03945,-0.08780,0.00000,0.02968,0.09155,-0.02843,0.03343,0.95538,7.01968,0.43468,2.75297,-1.17900,-1.17168,4.92680,-10.66124,6.94373,4.92327,-10.67471,-1.19722,-1.19722,57.68857,11.98073,57.68856812,11.98073356,A,144016.30
18:29:56.795266,7.03833,0.00781,2.28024,2.28024,[3.00000 0.00000 0.00000],[1.30000 0.00000 0.00000],-0.00716,0.01159,0.03426,0.05523,0.03336,0.02586,0.08345,0.06820,0.03904,0.88468,7.03010,0.10256,2.65843,-1.18253,-1.17578,4.93522,-10.68230,6.94373,4.92327,-10.67471,-1.19722,-1.19722,57.68857,11.98073,57.68856793,11.98073370,A,144016.30
18:29:56.818708,7.06178,0.02085,2.28024,2.28024,[3.00000 0.00000 0.00000],[1.30000 0.00000 0.00000],-0.00663,0.01060,0.03426,0.12728,0.05236,-0.00208,0.07918,0.17721,0.03099,0.91024,7.04063,0.03663,2.58279,-1.17833,-1.17217,4.96095,-10.74431,7.05701,5.02233,-10.89710,-1.15175,-1.15175,57.68857,11.98074,57.68856737,11.98073413,A,144016.40
18:29:56.834986,7.07803,0.00818,2.28024,2.28024,[3.00000 0.00000 0.00000],[1.30000 0.00000 0.00000],-0.00599,0.00995,0.03548,0.12111,0.05236,-0.04362,0.06849,-0.05765,-0.00207,0.98661,7.06949,0.00977,2.52228,-1.17493,-1.16915,4.97725,-10.78335,7.05701,5.02233,-10.89710,-1.15175,-1.15175,57.68857,11.98074,57.68856702,11.98073441,A,144016.40
18:29:56.845462,7.08853,0.00847,2.28024,2.28024,[3.00000 0.00000 0.00000],[1.30000 0.00000 0.00000],-0.00570,0.00998,0.04525,0.09066,0.05236,-0.03125,0.07475,-0.08717,0.01019,1.08934,7.08042,0.00000,2.47387,-1.17215,-1.16635,4.98820,-10.80952,7.05701,5.02233,-10.89710,-1.15175,-1.15175,57.68857,11.98074,57.68856679,11.98073459,A,144016.40
18:29:56.855741,7.09881,0.00856,2.28024,2.28024,[3.00000 0.00000 0.00000],[1.30000 0.00000 0.00000],-0.00573,0.01024,0.04021,0.10591,0.05236,-0.00147,0.07566,-0.16464,-0.00579,1.14082,7.09012,0.00000,2.43515,-1.16984,-1.16388,4.99743,-10.83146,7.05701,5.02233,-10.89710,-1.15175,-1.15175,57.68857,11.98074,57.68856659,11.98073475,A,144016.40
18:29:56.865262,7.10833,0.00768,2.82981,2.82981,[3.00000 0.00000 0.00000],[1.30000 0.00000 0.00000],-0.00693,0.01080,0.04052,0.10591,0.05236,0.03274,0.07826,-0.00384,-0.08827,1.07891,7.10040,0.00488,2.51408,-1.16793,-1.16164,5.00561,-10.85086,7.05701,5.02233,-10.89710,-1.15175,-1.15175,57.68857,11.98074,57.68856642,11.98073489,A,144016.40
18:29:56.876594,7.11967,0.00836,2.82981,2.82981,[3.00000 0.00000 0.00000],[1.30000 0.00000 0.00000],-0.00678,0.01148,0.03670,0.12054,0.05236,0.05167,0.07811,0.06173,0.00958,0.95062,7.11101,0.00000,2.57723,-1.16632,-1.15965,5.01490,-10.87266,7.05701,5.02233,-10.89710,-1.15175,-1.15175,57.68857,11.98074,57.68856622,11.98073504,A,144016.40
18:29:56.886413,7.12923,0.00748,2.82981,2.82981,[3.00000 0.00000 0.00000],[1.30000 0.00000 0.00000],-0.00519,0.01230,0.02357,0.12054,0.05236,0.04083,0.07322,0.13932,0.10327,0.87779,7.12130,0.00000,2.62774,-1.16504,-1.15788,5.02290,-10.89138,7.05701,5.02233,-10.89710,-1.15175,-1.15175,57.68857,11.98074,57.68856605,11.98073518,A,144016.40
18:29:56.896952,7.14003,0.00775,2.82981,2.82981,[3.00000 0.00000 0.00000],[1.30000 0.00000 0.00000],-0.00374,0.01329,0.03502,0.11372,0.05236,0.02495,0.06986,0.03385,0.08632,0.84637,7.13208,0.00000,2.66816,-1.16400,-1.15627,5.03152,-10.91140,7.05701,5.02233,-10.89710,-1.15175,-1.15175,57.68857,11.98074,57.68856587,11.98073532,A,144016.40
18:29:56.907527,7.15060,0.00792,2.82981,2.82981,[3.00000 0.00000 0.00000],[1.30000 0.00000 0.00000],-0.00393,0.01434,0.03792,0.10577,0.05236,0.02052,0.06192,0.01263,-0.00653,0.93476,7.14221,0.00000,2.70049,-1.16319,-1.15485,5.03961,-10.93012,7.05701,5.02233,-10.89710,-1.15175,-1.15175,57.68857,11.98074,57.68856570,11.98073546,A,144016.40
18:29:56.931220,7.17430,0.02120,2.82981,2.82981,[3.00000 0.00000 0.00000],[1.30000 0.00000 0.00000],-0.00399,0.01575,0.03731,0.10781,0.05236,0.01563,0.05932,0.01549,0.00146,1.01321,7.15282,0.00244,2.72635,-1.15632,-1.14715,5.06773,-10.99268,7.16962,5.14120,-11.13803,-1.11244,-1.11244,57.68856,11.98074,57.68856514,11.98073593,A,144016.50
18:29:56.953167,7.19624,0.01011,2.82981,2.82981,[3.00000 0.00000 0.00000],[1.30000 0.00000 0.00000],-0.00305,0.01842,0.02540,0.13990,0.05236,-0.02087,0.05703,0.00982,0.03825,1.07921,7.18809,0.00000,2.74704,-1.15071,-1.14000,5.09268,-11.04712,7.16962,5.14120,-11.13803,-1.11244,-1.11244,57.68856,11.98074,57.68856465,11.98073635,A,144016.50
18:29:56.969316,7.21239,0.00779,2.34291,2.34291,[3.00000 0.00000 0.00000],[1.30000 0.00000 0.00000],-0.00218,0.01884,0.04755,0.07007,0.05236,-0.01949,0.05581,0.07948,0.04002,1.09025,7.20438,0.00000,2.66622,-1.14609,-1.13513,5.11035,-11.08484,7.16962,5.14120,-11.13803,-1.11244,-1.11244,57.68856,11.98074,57.68856431,11.98073665,A,144016.50
18:29:56.979824,7.22289,0.00788,2.34291,2.34291,[3.00000 0.00000 0.00000],[1.30000 0.00000 0.00000],-0.00216,0.02000,0.04755,0.07000,0.05236,-0.01613,0.06207,-0.06832,0.00037,1.02193,7.21474,0.00000,2.60155,-1.14248,-1.13085,5.12063,-11.10626,7.16962,5.14120,-11.13803,-1.11244,-1.11244,57.68856,11.98074,57.68856412,11.98073682,A,144016.50
18:29:56.990603,7.23366,0.00808,2.34291,2.34291,[3.00000 0.00000 0.00000],[1.30000 0.00000 0.00000],-0.00275,0.02091,0.05320,0.05535,0.05236,-0.01552,0.05993,0.19233,-0.03886,0.90896,7.22511,0.00000,2.54982,-1.13946,-1.12730,5.13092,-11.12753,7.16962,5.14120,-11.13803,-1.11244,-1.11244,57.68856,11.98074,57.68856393,11.98073699,A,144016.50
18:29:57.000415,7.24349,0.00780,2.34291,2.34291,[3.00000 0.00000 0.00000],[1.30000 0.00000 0.00000],-0.00186,0.02108,0.04021,0.09082,0.05236,-0.03446,0.06711,-0.01684,0.05899,0.91732,7.23549,0.00000,2.50844,-1.13692,-1.12467,5.13999,-11.14605,7.16962,5.14120,-11.13803,-1.11244,-1.11244,57.68856,11.98074,57.68856376,11.98073715,A,144016.50
18:29:57.024733,7.26777,0.02184,2.34291,2.34291,[3.00000 0.00000 0.00000],[1.30000 0.00000 0.00000],-0.00184,0.02161,0.04449,0.07792,0.05236,-0.03843,0.06574,-0.04221,0.00525,0.90792,7.24549,0.00000,2.47533,-1.13482,-1.12225,5.14842,-11.16317,7.16962,5.14120,-11.13803,-1.11244,-1.11244,57.68856,11.98074,57.68856361,11.98073729,A,144016.50
18:29:57.177630,7.42070,0.12959,2.88164,2.88164,[3.00000 0.00000 0.00000],[1.30000 0.00000 0.00000],0.00461,0.02572,0.09718,-0.10530,0.05236,0.05152,0.08727,0.23503,0.07082,0.89822,7.30721,0.00244,2.55660,-1.11431,-1.09936,5.33822,-11.54799,7.41602,5.56716,-11.84226,-1.02682,-1.02682,57.68856,11.98074,57.68856015,11.98074048,A,144016.80
18:29:57.204318,7.44739,0.01434,2.50350,2.50350,[3.00000 0.00000 0.00000],[1.30000 0.00000 0.00000],0.02490,0.03234,0.17155,-0.40757,0.05236,0.01013,0.08788,0.07997,-0.05838,0.97563,7.43675,0.01465,2.54598,-1.10285,-1.08404,5.37595,-11.61426,7.41602,5.56716,-11.84226,-1.02682,-1.02682,57.68856,11.98074,57.68855955,11.98074112,A,144016.80
18:29:57.232423,7.47549,0.01391,2.50350,2.50350,[3.00000 0.00000 0.00000],[1.30000 0.00000 0.00000],0.02876,0.02906,0.16712,-0.40934,0.05236,0.00632,0.09170,0.06844,0.04459,1.08110,7.46223,0.19780,2.53748,-1.09261,-1.07571,5.41101,-11.67384,7.41602,5.56716,-11.84226,-1.02682,-1.02682,57.68856,11.98074,57.68855901,11.98074171,A,144016.80
18:29:57.261100,7.50415,0.01570,2.69632,2.69632,[3.00000 0.00000 0.00000],[1.30000 0.00000 0.00000],0.03260,0.01561,0.21309,-0.56221,0.05236,0.01227,0.09002,0.17879,-0.11779,1.03267,7.49310,0.08303,2.56925,-1.08271,-1.07363,5.44813,-11.73655,7.41602,5.56716,-11.84226,-1.02682,-1.02682,57.68856,11.98074,57.68855845,11.98074233,A,144016.80
18:29:57.298471,7.54154,0.02692,2.69632,2.69632,[3.00000 0.00000 0.00000],[1.30000 0.00000 0.00000],0.03712,0.00517,0.19278,-0.51889,0.05236,-0.05034,0.08101,-0.04801,0.04959,0.88663,7.51726,1.08181,2.59466,-1.08166,-1.07866,5.50280,-11.83180,7.53674,5.69594,-12.08318,-1.07992,-1.07992,57.68856,11.98075,57.68855759,11.98074325,A,144016.90
18:29:57.323084,7.56578,0.01250,2.69632,2.69632,[3.00000 0.00000 0.00000],[1.30000 0.00000 0.00000],0.04275,-0.01430,0.18636,-0.52161,0.05236,-0.02056,0.05734,-0.01202,-0.03324,0.92665,7.55516,1.07204,2.61500,-1.07995,-1.08826,5.53671,-11.88961,7.53674,5.69594,-12.08318,-1.07992,-1.07992,57.68856,11.98075,57.68855707,11.98074382,A,144016.90
18:29:57.344407,7.58748,0.01182,2.81132,2.81132,[3.00000 0.00000 0.00000],[1.30000 0.00000 0.00000],0.04600,-0.02710,0.16239,-0.46236,0.05236,0.02540,0.02741,0.03971,0.03343,1.03920,7.57718,0.52991,2.65426,-1.07812,-1.09387,5.56713,-11.94216,7.53674,5.69594,-12.08318,-1.07992,-1.07992,57.68856,11.98075,57.68855660,11.98074433,A,144016.90
18:29:57.360650,7.60373,0.00822,2.81132,2.81132,[3.00000 0.00000 0.00000],[1.30000 0.00000 0.00000],0.04949,-0.03768,0.14437,-0.42192,0.05236,0.02189,-0.01810,0.01147,0.12432,1.15741,7.59566,0.27595,2.68567,-1.07585,-1.09777,5.58991,-11.98083,7.53674,5.69594,-12.08318,-1.07992,-1.07992,57.68856,11.98075,57.68855625,11.98074472,A,144016.90
18:29:57.371980,7.61505,0.00863,2.81132,2.81132,[3.00000 0.00000 0.00000],[1.30000 0.00000 0.00000],0.04900,-0.04314,0.14666,-0.42687,0.05236,0.02205,-0.04208,-0.02123,-0.09565,1.13930,7.60608,0.20757,2.71080,-1.07338,-1.09847,5.60581,-12.00665,7.53674,5.69594,-12.08318,-1.07992,-1.07992,57.68856,11.98075,57.68855602,11.98074498,A,144016.90
18:29:57.384211,7.62727,0.01064,2.81132,2.81132,[3.00000 0.00000 0.00000],[1.30000 0.00000 0.00000],0.04970,-0.04767,0.12558,-0.36636,0.05236,0.01258,-0.06132,0.10120,0.00787,1.13899,7.61645,1.33578,2.73091,-1.07100,-1.09874,5.62121,-12.03180,7.53674,5.69594,-12.08318,-1.07992,-1.07992,57.68856,11.98075,57.68855580,11.98074524,A,144016.90
18:29:57.419929,7.66301,0.02585,2.81132,2.81132,[3.00000 0.00000 0.00000],[1.30000 0.00000 0.00000],0.04966,-0.05710,0.08206,-0.23564,0.05236,-0.03874,-0.10042,0.15585,-0.08070,0.93934,7.63832,0.25885,2.74699,-1.06071,-1.09393,5.67308,-12.12620,7.65822,5.83462,-12.30557,-1.01320,-1.01320,57.68855,11.98075,57.68855495,11.98074612,A,144017.00
18:29:57.447327,7.69040,0.01416,2.67782,2.67782,[3.00000 0.00000 0.00000],[1.30000 0.00000 0.00000],0.05304,-0.07275,0.08710,-0.26397,0.05236,-0.03568,-0.09981,-0.05771,0.01574,0.91945,7.67950,0.02442,2.73316,-1.04991,-1.09226,5.70886,-12.18877,7.65822,5.83462,-12.30557,-1.01320,-1.01320,57.68855,11.98075,57.68855438,11.98074672,A,144017.00
