Description :  ; walk_time = 2.0 ; speed_up_time = 3.0 ; balancing_time = 0.0
RealTime,Time,CalculationTime,MeasuredVelocity,FilteredVelocity,BalancingGainsInner,BalancingGainsOuter,Roll,SteeringAngle,RollRate,ControlInput,BalancingSetpoint,gy,gz,ax,ay,az,imu_read_timing,SteerMotorCurrent,v_estimated,yaw_estimated,heading_estimated,x_estimated,y_estimated,GPS_timestamp,x_GPS,y_GPS,theta_GPS,theta_GPS_noUnwrap,latitude,longitude,lat_estimated,lon_estimated,status,NMEA timestamp,DirectionGains,LateralPositionGains,distance_travelled,x_ref,y_ref,heading_ref,lateral_error,heading_error
18:26:49.056010,0.02581,0.02574,0.00000,0.00000,[5.00000 0.00000 0.00000],[1.30000 0.00000 0.00000],-0.00025,0.02703,0.00782,0.00000,0.00000,-0.00286,-0.00058,0.00281,0.00262,0.99942,0.00001,3.01099,0.00000,0.00000,0.00000,0.00000,0.00000,0.00000,0.00000,0.00000,0.00000,0.00000,0.00000,0.00000,0.00000000,0.00000000,No status,0.0,"[-0.20000,-0.00000,-0.00000]","[-0.10000,-0.00000,-0.00000]",0.00000,0.00000,0.00000,0.00000,0.00000,0.00000
18:26:49.097546,0.06735,0.02608,0.00000,0.00000,[5.00000 0.00000 0.00000],[1.30000 0.00000 0.00000],-0.00011,0.02706,0.01301,0.00000,0.00000,-0.00179,0.00003,0.00415,-0.00079,1.00028,0.04058,1.16239,0.00000,-0.00236,0.01338,0.00000,0.00000,0.00000,0.00000,0.00000,0.00000,0.00000,0.00000,0.00000,0.00000000,0.00000000,No status,0.0,"[-0.20000,-0.00000,-0.00000]","[-0.10000,-0.00000,-0.00000]",0.00000,0.00000,0.00000,0.00000,0.00000,0.00000
18:26:49.136171,0.10599,0.02793,0.00000,0.00000,[5.00000 0.00000 0.00000],[1.30000 0.00000 0.00000],0.00009,0.02706,0.01225,0.00000,0.00000,-0.00209,0.00003,0.00915,0.00671,0.99625,0.07946,1.15995,0.00000,-0.00437,0.01137,0.00000,0.00000,0.00000,0.00000,0.00000,0.00000,0.00000,0.00000,0.00000,0.00000000,0.00000000,No status,0.0,"[-0.20000,-0.00000,-0.00000]","[-0.10000,-0.00000,-0.00000]",0.00000,0.00000,0.00000,0.00000,0.00000,0.00000
18:26:49.173440,0.14327,0.02383,0.00000,0.00000,[5.00000 0.00000 0.00000],[1.30000 0.00000 0.00000],0.00055,0.02706,0.01683,0.00000,0.00000,-0.00362,-0.00271,0.00756,0.00860,0.99997,0.12130,1.14286,0.00000,-0.00607,0.00966,0.00000,0.00000,0.00000,0.00000,0.00000,0.00000,0.00000,0.00000,0.00000,0.00000000,0.00000000,No status,0.0,"[-0.20000,-0.00000,-0.00000]","[-0.10000,-0.00000,-0.00000]",0.00000,0.00000,0.00000,0.00000,0.00000,0.00000
18:26:49.221382,0.19007,0.03329,0.00000,0.00000,[5.00000 0.00000 0.00000],[1.30000 0.00000 0.00000],0.00075,0.02706,0.01317,0.00000,0.00000,-0.00255,0.00049,0.01311,0.00708,0.99698,0.15790,1.14530,0.00000,-0.00752,0.00821,0.00000,0.00000,0.00000,0.00000,0.00000,0.00000,0.00000,0.00000,0.00000,0.00000000,0.00000000,No status,0.0,"[-0.20000,-0.00000,-0.00000]","[-0.10000,-0.00000,-0.00000]",0.00000,0.00000,0.00000,0.00000,0.00000,0.00000
18:26:49.263091,0.23291,0.03233,0.00000,0.00000,[5.00000 0.00000 0.00000],[1.30000 0.00000 0.00000],0.00080,0.02706,0.00828,0.00000,0.00000,0.00279,-0.00180,0.01385,0.00433,0.99930,0.20211,1.14286,0.00000,-0.00875,0.00698,0.00000,0.00000,0.00000,0.00000,0.00000,0.00000,0.00000,0.00000,0.00000,0.00000000,0.00000000,No status,0.0,"[-0.20000,-0.00000,-0.00000]","[-0.10000,-0.00000,-0.00000]",0.00000,0.00000,0.00000,0.00000,0.00000,0.00000
18:26:49.302882,0.27214,0.02702,0.00000,0.00000,[5.00000 0.00000 0.00000],[1.30000 0.00000 0.00000],0.00063,0.02706,0.00415,0.00000,0.00000,0.00127,-0.00271,0.02105,0.00159,0.99717,0.24820,1.15751,0.00000,-0.00980,0.00593,0.00000,0.00000,0.00000,0.00000,0.00000,0.00000,0.00000,0.00000,0.00000,0.00000000,0.00000000,No status,0.0,"[-0.20000,-0.00000,-0.00000]","[-0.10000,-0.00000,-0.00000]",0.00000,0.00000,0.00000,0.00000,0.00000,0.00000
18:26:49.339598,0.30942,0.02795,0.00000,0.00000,[5.00000 0.00000 0.00000],[1.30000 0.00000 0.00000],0.00028,0.02706,-0.00302,0.00000,0.00000,0.00249,-0.00287,0.03678,0.00891,0.99113,0.28332,1.15263,0.00000,-0.01069,0.00504,0.00000,0.00000,0.00000,0.00000,0.00000,0.00000,0.00000,0.00000,0.00000,0.00000000,0.00000000,No status,0.0,"[-0.20000,-0.00000,-0.00000]","[-0.10000,-0.00000,-0.00000]",0.00000,0.00000,0.00000,0.00000,0.00000,0.00000
18:26:49.374444,0.34427,0.02405,0.00000,0.00000,[5.00000 0.00000 0.00000],[1.30000 0.00000 0.00000],-0.00039,0.02706,-0.01784,0.00000,0.00000,0.00340,-0.00348,0.06149,0.02422,1.00278,0.32107,1.12576,0.00000,-0.01145,0.00429,0.00000,0.00000,0.00000,0.00000,0.00000,0.00000,0.00000,0.00000,0.00000,0.00000000,0.00000000,No status,0.0,"[-0.20000,-0.00000,-0.00000]","[-0.10000,-0.00000,-0.00000]",0.00000,0.00000,0.00000,0.00000,0.00000,0.00000
18:26:49.412058,0.38190,0.02532,0.00000,0.00000,[5.00000 0.00000 0.00000],[1.30000 0.00000 0.00000],-0.00193,0.02706,-0.02960,0.00000,0.00000,0.00233,-0.01325,0.06771,-0.00647,0.99320,0.35804,1.13553,0.00000,-0.01209,0.00364,0.00000,0.00000,0.00000,0.00000,0.00000,0.00000,0.00000,0.00000,0.00000,0.00000000,0.00000000,No status,0.0,"[-0.20000,-0.00000,-0.00000]","[-0.10000,-0.00000,-0.00000]",0.00000,0.00000,0.00000,0.00000,0.00000,0.00000
18:26:49.447430,0.41642,0.02270,0.00000,0.00000,[5.00000 0.00000 0.00000],[1.30000 0.00000 0.00000],-0.00312,0.02706,-0.03158,0.00000,0.00000,-0.00072,-0.00867,0.07308,0.02086,1.00522,0.39539,1.13797,0.00000,-0.01264,0.00310,0.00000,0.00000,0.00000,0.00000,0.00000,0.00000,0.00000,0.00000,0.00000,0.00000000,0.00000000,No status,0.0,"[-0.20000,-0.00000,-0.00000]","[-0.10000,-0.00000,-0.00000]",0.00000,0.00000,0.00000,0.00000,0.00000,0.00000
18:26:49.493340,0.46316,0.03230,0.00000,0.00000,[5.00000 0.00000 0.00000],[1.30000 0.00000 0.00000],-0.00440,0.02706,-0.02333,0.00000,0.00000,-0.00041,0.00523,0.08650,-0.00805,0.99247,0.43156,1.12332,0.00000,-0.01310,0.00263,0.00000,0.00000,0.00000,0.00000,0.00000,0.00000,0.00000,0.00000,0.00000,0.00000000,0.00000000,No status,0.0,"[-0.20000,-0.00000,-0.00000]","[-0.10000,-0.00000,-0.00000]",0.00000,0.00000,0.00000,0.00000,0.00000,0.00000
18:26:49.536034,0.50489,0.02995,0.00000,0.00000,[5.00000 0.00000 0.00000],[1.30000 0.00000 0.00000],-0.00615,0.02706,-0.02807,0.00000,0.00000,0.00096,-0.00791,0.08345,-0.01482,0.99765,0.47608,1.11600,0.00000,-0.01350,0.00224,0.00000,0.00000,0.00000,0.00000,0.00000,0.00000,0.00000,0.00000,0.00000,0.00000000,0.00000000,No status,0.0,"[-0.20000,-0.00000,-0.00000]","[-0.10000,-0.00000,-0.00000]",0.00000,0.00000,0.00000,0.00000,0.00000,0.00000
18:26:49.574700,0.54394,0.02620,0.00000,0.00000,[5.00000 0.00000 0.00000],[1.30000 0.00000 0.00000],-0.00756,0.02706,-0.02471,0.00000,0.00000,0.00050,-0.00455,0.09229,-0.00653,0.99668,0.51843,1.15263,0.00000,-0.01383,0.00190,0.00000,0.00000,0.00000,0.00000,0.00000,0.00000,0.00000,0.00000,0.00000,0.00000000,0.00000000,No status,0.0,"[-0.20000,-0.00000,-0.00000]","[-0.10000,-0.00000,-0.00000]",0.00000,0.00000,0.00000,0.00000,0.00000,0.00000
18:26:49.610130,0.57996,0.02145,0.00000,0.00000,[5.00000 0.00000 0.00000],[1.30000 0.00000 0.00000],-0.00841,0.02706,-0.00837,0.00000,0.00000,-0.00179,-0.00042,0.07314,-0.01732,1.00260,0.55950,1.14774,0.00000,-0.01412,0.00162,0.00000,0.00000,0.00000,0.00000,0.00000,0.00000,0.00000,0.00000,0.00000,0.00000000,0.00000000,No status,0.0,"[-0.20000,-0.00000,-0.00000]","[-0.10000,-0.00000,-0.00000]",0.00000,0.00000,0.00000,0.00000,0.00000,0.00000
18:26:49.642163,0.61200,0.02049,0.00000,0.00000,[5.00000 0.00000 0.00000],[1.30000 0.00000 0.00000],-0.00883,0.02706,-0.00592,0.00000,0.00000,0.00447,-0.00165,0.06978,0.00104,0.99930,0.59240,1.14042,0.00000,-0.01436,0.00137,0.00000,0.00000,0.00000,0.00000,0.00000,0.00000,0.00000,0.00000,0.00000,0.00000000,0.00000000,No status,0.0,"[-0.20000,-0.00000,-0.00000]","[-0.10000,-0.00000,-0.00000]",0.00000,0.00000,0.00000,0.00000,0.00000,0.00000
18:26:49.677808,0.64762,0.02498,0.00000,0.00000,[5.00000 0.00000 0.00000],[1.30000 0.00000 0.00000],-0.00923,0.02706,0.00018,0.00000,0.00000,0.00295,0.00553,0.07235,-0.01110,0.99198,0.62391,1.14530,0.00000,-0.01457,0.00117,0.00000,0.00000,0.00000,0.00000,0.00000,0.00000,0.00000,0.00000,0.00000,0.00000000,0.00000000,No status,0.0,"[-0.20000,-0.00000,-0.00000]","[-0.10000,-0.00000,-0.00000]",0.00000,0.00000,0.00000,0.00000,0.00000,0.00000
18:26:49.723681,0.69350,0.03091,0.00000,0.00000,[5.00000 0.00000 0.00000],[1.30000 0.00000 0.00000],-0.00952,0.02706,-0.00195,0.00000,0.00000,0.00692,0.00187,0.04856,0.00104,1.01528,0.66482,1.15263,0.00000,-0.01474,0.00099,0.00000,0.00000,0.00000,0.00000,0.00000,0.00000,0.00000,0.00000,0.00000,0.00000000,0.00000000,No status,0.0,"[-0.20000,-0.00000,-0.00000]","[-0.10000,-0.00000,-0.00000]",0.00000,0.00000,0.00000,0.00000,0.00000,0.00000
18:26:49.766088,0.73591,0.02650,0.00000,0.00000,[5.00000 0.00000 0.00000],[1.30000 0.00000 0.00000],-0.00987,0.02706,0.00064,0.00000,0.00000,0.00554,-0.00149,0.05270,-0.00994,0.99375,0.70983,1.13065,0.00000,-0.01489,0.00084,0.00000,0.00000,0.00000,0.00000,0.00000,0.00000,0.00000,0.00000,0.00000,0.00000000,0.00000000,No status,0.0,"[-0.20000,-0.00000,-0.00000]","[-0.10000,-0.00000,-0.00000]",0.00000,0.00000,0.00000,0.00000,0.00000,0.00000
18:26:49.807431,0.77727,0.03042,0.00000,0.00000,[5.00000 0.00000 0.00000],[1.30000 0.00000 0.00000],-0.01046,0.02706,-0.01203,0.00000,0.00000,0.01196,-0.00103,0.06307,0.00604,1.01894,0.74874,1.15263,0.00000,-0.01502,0.00072,0.00000,0.00000,0.00000,0.00000,0.00000,0.00000,0.00000,0.00000,0.00000,0.00000000,0.00000000,No status,0.0,"[-0.20000,-0.00000,-0.00000]","[-0.10000,-0.00000,-0.00000]",0.00000,0.00000,0.00000,0.00000,0.00000,0.00000
18:26:49.846178,0.81601,0.02491,0.00000,0.00000,[5.00000 0.00000 0.00000],[1.30000 0.00000 0.00000],-0.01141,0.02706,-0.01402,0.00000,0.00000,0.00692,-0.00913,0.05478,-0.00817,0.95691,0.79297,1.14042,0.00000,-0.01513,0.00061,0.00000,0.00000,0.00000,0.00000,0.00000,0.00000,0.00000,0.00000,0.00000,0.00000000,0.00000000,No status,0.0,"[-0.20000,-0.00000,-0.00000]","[-0.10000,-0.00000,-0.00000]",0.00000,0.00000,0.00000,0.00000,0.00000,0.00000
18:26:49.891767,0.86159,0.02935,0.00000,0.00000,[5.00000 0.00000 0.00000],[1.30000 0.00000 0.00000],-0.01218,0.02706,-0.01478,0.00000,0.00000,0.01929,0.00232,0.05636,0.00110,1.00400,0.83293,1.15507,0.00000,-0.01522,0.00052,0.00000,0.00000,0.00000,0.00000,0.00000,0.00000,0.00000,0.00000,0.00000,0.00000000,0.00000000,No status,0.0,"[-0.20000,-0.00000,-0.00000]","[-0.10000,-0.00000,-0.00000]",0.00000,0.00000,0.00000,0.00000,0.00000,0.00000
18:26:49.934907,0.90395,0.03079,0.00000,0.00000,[5.00000 0.00000 0.00000],[1.30000 0.00000 0.00000],-0.01284,0.02706,-0.00852,0.00000,0.00000,0.01028,0.00309,0.09241,-0.00787,1.01541,0.87551,1.14286,0.00000,-0.01530,0.00044,0.00000,0.00000,0.00000,0.00000,0.00000,0.00000,0.00000,0.00000,0.00000,0.00000000,0.00000000,No status,0.0,"[-0.20000,-0.00000,-0.00000]","[-0.10000,-0.00000,-0.00000]",0.00000,0.00000,0.00000,0.00000,0.00000,0.00000
18:26:49.974703,0.94453,0.02810,0.00000,0.00000,[5.00000 0.00000 0.00000],[1.30000 0.00000 0.00000],-0.01337,0.02706,-0.00058,0.00000,0.00000,-0.00255,-0.00271,0.05594,-0.02178,0.98655,0.91762,1.14042,0.00000,-0.01536,0.00037,0.00000,0.00000,0.00000,0.00000,0.00000,0.00000,0.00000,0.00000,0.00000,0.00000000,0.00000000,No status,0.0,"[-0.20000,-0.00000,-0.00000]","[-0.10000,-0.00000,-0.00000]",0.00000,0.00000,0.00000,0.00000,0.00000,0.00000
18:26:50.022915,0.99274,0.02866,0.00000,0.00000,[5.00000 0.00000 0.00000],[1.30000 0.00000 0.00000],-0.01270,0.02751,0.02141,0.00000,0.00000,0.00860,-0.00287,0.08479,-0.01183,0.99107,0.96553,1.36996,0.00000,-0.01546,0.00054,0.00000,0.00000,0.00000,0.00000,0.00000,0.00000,0.00000,0.00000,0.00000,0.00000000,0.00000000,No status,0.0,"[-0.20000,-0.00000,-0.00000]","[-0.10000,-0.00000,-0.00000]",0.00000,0.00000,0.00000,0.00000,0.00000,0.00000
18:26:50.060436,1.03008,0.02469,0.00000,0.00000,[5.00000 0.00000 0.00000],[1.30000 0.00000 0.00000],-0.01191,0.02751,0.02401,0.00000,0.00000,-0.01248,-0.00363,0.08290,-0.00275,1.00717,1.00841,1.16484,0.00000,-0.01554,0.00046,0.00000,0.00000,0.00000,0.00000,0.00000,0.00000,0.00000,0.00000,0.00000,0.00000000,0.00000000,No status,0.0,"[-0.20000,-0.00000,-0.00000]","[-0.10000,-0.00000,-0.00000]",0.00000,0.00000,0.00000,0.00000,0.00000,0.00000
18:26:50.107371,1.07719,0.03531,0.00000,0.00000,[5.00000 0.00000 0.00000],[1.30000 0.00000 0.00000],-0.01074,0.02757,0.04081,0.00000,0.00000,0.00753,-0.00226,0.04776,-0.00500,0.95282,1.04428,0.31990,0.00000,-0.01561,0.00042,0.00000,0.00000,0.00000,0.00000,0.00000,0.00000,0.00000,0.00000,0.00000,0.00000000,0.00000000,No status,0.0,"[-0.20000,-0.00000,-0.00000]","[-0.10000,-0.00000,-0.00000]",0.00000,0.00000,0.00000,0.00000,0.00000,0.00000
18:26:50.151540,1.12136,0.03258,0.00000,0.00000,[5.00000 0.00000 0.00000],[1.30000 0.00000 0.00000],-0.00897,0.02924,0.04798,0.00000,0.00000,-0.01553,0.00355,0.07082,-0.01080,1.05933,1.08926,1.08181,0.00000,-0.01582,0.00118,0.00000,0.00000,0.00000,0.00000,0.00000,0.00000,0.00000,0.00000,0.00000,0.00000000,0.00000000,No status,0.0,"[-0.20000,-0.00000,-0.00000]","[-0.10000,-0.00000,-0.00000]",0.00000,0.00000,0.00000,0.00000,0.00000,0.00000
18:26:50.190797,1.16062,0.02857,0.00000,0.00000,[5.00000 0.00000 0.00000],[1.30000 0.00000 0.00000],-0.00644,0.03181,0.05974,0.00000,0.00000,-0.00057,-0.01157,0.07857,0.01739,0.96825,1.13175,1.11844,0.00000,-0.01622,0.00228,0.00000,0.00000,0.00000,0.00000,0.00000,0.00000,0.00000,0.00000,0.00000,0.00000000,0.00000000,No status,0.0,"[-0.20000,-0.00000,-0.00000]","[-0.10000,-0.00000,-0.00000]",0.00000,0.00000,0.00000,0.00000,0.00000,0.00000
18:26:50.234804,1.20386,0.03002,0.00000,0.00000,[5.00000 0.00000 0.00000],[1.30000 0.00000 0.00000],-0.00418,0.03552,0.05684,0.00000,0.00000,0.00081,0.00492,0.08143,0.00677,1.00796,1.17505,1.21368,0.00000,-0.01689,0.00377,0.00000,0.00000,0.00000,0.00000,0.00000,0.00000,0.00000,0.00000,0.00000,0.00000000,0.00000000,No status,0.0,"[-0.20000,-0.00000,-0.00000]","[-0.10000,-0.00000,-0.00000]",0.00000,0.00000,0.00000,0.00000,0.00000,0.00000
18:26:50.270929,1.23906,0.02274,0.00000,0.00000,[5.00000 0.00000 0.00000],[1.30000 0.00000 0.00000],-0.00170,0.03750,0.06494,0.00000,0.00000,0.00386,0.00950,0.08583,0.00641,1.00973,1.21725,1.25275,0.00000,-0.01763,0.00419,0.00000,0.00000,0.00000,0.00000,0.00000,0.00000,0.00000,0.00000,0.00000,0.00000000,0.00000000,No status,0.0,"[-0.20000,-0.00000,-0.00000]","[-0.10000,-0.00000,-0.00000]",0.00000,0.00000,0.00000,0.00000,0.00000,0.00000
18:26:50.315118,1.28393,0.03180,0.00000,0.00000,[5.00000 0.00000 0.00000],[1.30000 0.00000 0.00000],0.00016,0.03974,0.05745,0.00000,0.00000,-0.01126,0.00599,0.05411,0.01281,0.97002,1.25265,1.20391,0.00000,-0.01845,0.00466,0.00000,0.00000,0.00000,0.00000,0.00000,0.00000,0.00000,0.00000,0.00000,0.00000000,0.00000000,No status,0.0,"[-0.20000,-0.00000,-0.00000]","[-0.10000,-0.00000,-0.00000]",0.00000,0.00000,0.00000,0.00000,0.00000,0.00000
18:26:50.349860,1.31968,0.02666,0.00000,0.00000,[5.00000 0.00000 0.00000],[1.30000 0.00000 0.00000],0.00191,0.04356,0.04004,0.00000,0.00000,0.01272,0.00507,0.10187,0.03135,0.99741,1.29436,1.17460,0.00000,-0.01948,0.00585,0.00000,0.00000,0.00000,0.00000,0.00000,0.00000,0.00000,0.00000,0.00000,0.00000000,0.00000000,No status,0.0,"[-0.20000,-0.00000,-0.00000]","[-0.10000,-0.00000,-0.00000]",0.00000,0.00000,0.00000,0.00000,0.00000,0.00000
18:26:50.394431,1.36425,0.03410,0.00000,0.00000,[5.00000 0.00000 0.00000],[1.30000 0.00000 0.00000],0.00290,0.04659,0.02935,0.00000,0.00000,0.00753,0.01454,0.05758,0.02062,1.01162,1.33182,1.21368,0.00000,-0.02063,0.00648,0.00000,0.00000,0.00000,0.00000,0.00000,0.00000,0.00000,0.00000,0.00000,0.00000000,0.00000000,No status,0.0,"[-0.20000,-0.00000,-0.00000]","[-0.10000,-0.00000,-0.00000]",0.00000,0.00000,0.00000,0.00000,0.00000,0.00000
18:26:50.438728,1.40770,0.02854,0.00000,0.00000,[5.00000 0.00000 0.00000],[1.30000 0.00000 0.00000],0.00356,0.04871,0.00706,0.00000,0.00000,0.00020,0.01805,0.04764,0.04715,0.96618,1.38050,1.13309,0.00000,-0.02178,0.00655,0.00000,0.00000,0.00000,0.00000,0.00000,0.00000,0.00000,0.00000,0.00000,0.00000000,0.00000000,No status,0.0,"[-0.20000,-0.00000,-0.00000]","[-0.10000,-0.00000,-0.00000]",0.00000,0.00000,0.00000,0.00000,0.00000,0.00000
18:26:50.486508,1.45634,0.03205,0.00000,0.00000,[5.00000 0.00000 0.00000],[1.30000 0.00000 0.00000],0.00281,0.05103,-0.02120,0.00000,0.00000,0.00539,0.01103,0.08973,0.04044,1.00211,1.42492,1.29915,0.00000,-0.02297,0.00672,0.00000,0.00000,0.00000,0.00000,0.00000,0.00000,0.00000,0.00000,0.00000,0.00000000,0.00000000,No status,0.0,"[-0.20000,-0.00000,-0.00000]","[-0.10000,-0.00000,-0.00000]",0.00000,0.00000,0.00000,0.00000,0.00000,0.00000
18:26:50.534046,1.50386,0.03544,0.00000,0.00000,[5.00000 0.00000 0.00000],[1.30000 0.00000 0.00000],0.00129,0.05140,-0.01936,0.00000,0.00000,-0.01156,0.00950,0.07674,-0.01434,0.98545,1.47192,1.16728,0.00000,-0.02401,0.00589,0.00000,0.00000,0.00000,0.00000,0.00000,0.00000,0.00000,0.00000,0.00000,0.00000000,0.00000000,No status,0.0,"[-0.20000,-0.00000,-0.00000]","[-0.10000,-0.00000,-0.00000]",0.00000,0.00000,0.00000,0.00000,0.00000,0.00000
18:26:50.577372,1.54720,0.02971,0.00000,0.00000,[5.00000 0.00000 0.00000],[1.30000 0.00000 0.00000],0.00065,0.05140,-0.01127,0.00000,0.00000,0.00386,0.01225,0.01903,0.01824,0.98259,1.51904,1.18437,0.00000,-0.02489,0.00501,0.00000,0.00000,0.00000,0.00000,0.00000,0.00000,0.00000,0.00000,0.00000,0.00000000,0.00000000,No status,0.0,"[-0.20000,-0.00000,-0.00000]","[-0.10000,-0.00000,-0.00000]",0.00000,0.00000,0.00000,0.00000,0.00000,0.00000
18:26:50.625179,1.59415,0.03440,0.00000,0.00000,[5.00000 0.00000 0.00000],[1.30000 0.00000 0.00000],-0.00001,0.05140,-0.00715,0.00000,0.00000,0.00844,0.00645,0.04526,0.00128,1.03932,1.56242,1.16972,0.00000,-0.02565,0.00426,0.00000,0.00000,0.00000,0.00000,0.00000,0.00000,0.00000,0.00000,0.00000,0.00000000,0.00000000,No status,0.0,"[-0.20000,-0.00000,-0.00000]","[-0.10000,-0.00000,-0.00000]",0.00000,0.00000,0.00000,0.00000,0.00000,0.00000
18:26:50.662627,1.63246,0.02640,0.00000,0.00000,[5.00000 0.00000 0.00000],[1.30000 0.00000 0.00000],-0.00001,0.05140,-0.00363,0.00000,0.00000,-0.00912,0.00462,0.08034,0.03440,0.96508,1.60740,1.16972,0.00000,-0.02628,0.00362,0.00000,0.00000,0.00000,0.00000,0.00000,0.00000,0.00000,0.00000,0.00000,0.00000000,0.00000000,No status,0.0,"[-0.20000,-0.00000,-0.00000]","[-0.10000,-0.00000,-0.00000]",0.00000,0.00000,0.00000,0.00000,0.00000,0.00000
18:26:50.696028,1.66586,0.02571,0.00000,0.00000,[5.00000 0.00000 0.00000],[1.30000 0.00000 0.00000],-0.00030,0.05140,0.01332,0.00000,0.00000,0.02295,0.00630,-0.02446,-0.02428,1.04383,1.63987,1.16728,0.00000,-0.02683,0.00308,0.00000,0.00000,0.00000,0.00000,0.00000,0.00000,0.00000,0.00000,0.00000,0.00000000,0.00000000,No status,0.0,"[-0.20000,-0.00000,-0.00000]","[-0.10000,-0.00000,-0.00000]",0.00000,0.00000,0.00000,0.00000,0.00000,0.00000
18:26:50.743356,1.71319,0.03101,0.00000,0.00000,[5.00000 0.00000 0.00000],[1.30000 0.00000 0.00000],0.00052,0.05126,0.01378,0.00000,0.00000,-0.03279,-0.00485,0.02977,0.03569,0.88731,1.68284,1.41636,0.00000,-0.02728,0.00255,0.00000,0.00000,0.00000,0.00000,0.00000,0.00000,0.00000,0.00000,0.00000,0.00000000,0.00000000,No status,0.0,"[-0.20000,-0.00000,-0.00000]","[-0.10000,-0.00000,-0.00000]",0.00000,0.00000,0.00000,0.00000,0.00000,0.00000
18:26:50.773761,1.74360,0.01906,0.00000,0.00000,[5.00000 0.00000 0.00000],[1.30000 0.00000 0.00000],0.00056,0.04738,0.02156,0.00000,0.00000,0.01929,-0.00745,0.09327,-0.03575,1.11404,1.72499,1.15263,0.00000,-0.02732,0.00024,0.00000,0.00000,0.00000,0.00000,0.00000,0.00000,0.00000,0.00000,0.00000,0.00000000,0.00000000,No status,0.0,"[-0.20000,-0.00000,-0.00000]","[-0.10000,-0.00000,-0.00000]",0.00000,0.00000,0.00000,0.00000,0.00000,0.00000
18:26:50.797446,1.76728,0.01732,0.00000,0.00000,[5.00000 0.00000 0.00000],[1.30000 0.00000 0.00000],0.00182,0.04503,0.02355,0.00000,0.00000,-0.00118,-0.00898,0.05508,0.06588,0.92531,1.74957,1.22100,0.00000,-0.02715,-0.00096,0.00000,0.00000,0.00000,0.00000,0.00000,0.00000,0.00000,0.00000,0.00000,0.00000000,0.00000000,No status,0.0,"[-0.20000,-0.00000,-0.00000]","[-0.10000,-0.00000,-0.00000]",0.00000,0.00000,0.00000,0.00000,0.00000,0.00000
18:26:50.836672,1.80539,0.03168,0.00000,0.00000,[5.00000 0.00000 0.00000],[1.30000 0.00000 0.00000],0.00223,0.04446,0.03348,0.00000,0.00000,-0.02638,-0.00119,0.06484,-0.00012,0.90981,1.77425,3.01099,0.00000,-0.02696,-0.00109,0.00000,0.00000,0.00000,0.00000,0.00000,0.00000,0.00000,0.00000,0.00000,0.00000000,0.00000000,No status,0.0,"[-0.20000,-0.00000,-0.00000]","[-0.10000,-0.00000,-0.00000]",0.00000,0.00000,0.00000,0.00000,0.00000,0.00000
18:26:50.875241,1.84506,0.02584,0.00000,0.00000,[5.00000 0.00000 0.00000],[1.30000 0.00000 0.00000],0.00358,0.04446,0.01622,0.00000,0.00000,0.01913,-0.00073,-0.01202,0.06954,1.03346,1.82046,3.11600,0.00000,-0.02679,-0.00093,0.00000,0.00000,0.00000,0.00000,0.00000,0.00000,0.00000,0.00000,0.00000,0.00000000,0.00000000,No status,0.0,"[-0.20000,-0.00000,-0.00000]","[-0.10000,-0.00000,-0.00000]",0.00000,0.00000,0.00000,0.00000,0.00000,0.00000
18:26:50.912793,1.88262,0.02671,0.00000,0.00000,[5.00000 0.00000 0.00000],[1.30000 0.00000 0.00000],0.00412,0.04446,0.02859,0.00000,0.00000,-0.00118,-0.00516,0.06222,-0.00384,1.01138,1.85665,3.11355,0.00000,-0.02665,-0.00079,0.00000,0.00000,0.00000,0.00000,0.00000,0.00000,0.00000,0.00000,0.00000,0.00000000,0.00000000,No status,0.0,"[-0.20000,-0.00000,-0.00000]","[-0.10000,-0.00000,-0.00000]",0.00000,0.00000,0.00000,0.00000,0.00000,0.00000
18:26:50.958271,1.92809,0.03087,0.00000,0.00000,[5.00000 0.00000 0.00000],[1.30000 0.00000 0.00000],0.00484,0.04446,0.00553,0.00000,0.00000,0.01394,-0.00928,-0.04374,0.06344,1.03340,1.89896,3.11111,0.00000,-0.02654,-0.00067,0.00000,0.00000,0.00000,0.00000,0.00000,0.00000,0.00000,0.00000,0.00000,0.00000000,0.00000000,No status,0.0,"[-0.20000,-0.00000,-0.00000]","[-0.10000,-0.00000,-0.00000]",0.00000,0.00000,0.00000,0.00000,0.00000,0.00000
18:26:51.001676,1.97150,0.03306,0.00000,0.00000,[5.00000 0.00000 0.00000],[1.30000 0.00000 0.00000],0.00535,0.04446,0.01943,0.00000,0.00000,-0.00866,-0.00898,-0.00030,0.00994,0.91463,1.94019,3.11600,0.00000,-0.02644,-0.00057,0.00000,0.00000,0.00000,0.00000,0.00000,0.00000,0.00000,0.00000,0.00000,0.00000000,0.00000000,No status,0.0,"[-0.20000,-0.00000,-0.00000]","[-0.10000,-0.00000,-0.00000]",0.00000,0.00000,0.00000,0.00000,0.00000,0.00000
18:26:51.045842,2.01566,0.03209,0.00000,0.00000,[5.00000 0.00000 0.00000],[1.30000 0.00000 0.00000],0.00577,0.04446,0.01057,0.00000,0.00000,0.03257,-0.00348,0.04807,0.02849,1.05402,1.98527,3.11111,0.00000,-0.02635,-0.00048,0.00000,0.00000,0.00000,0.00000,0.00000,0.00000,0.00000,0.00000,0.00000,0.00000000,0.00000000,No status,0.0,"[-0.20000,-0.00000,-0.00000]","[-0.10000,-0.00000,-0.00000]",0.00000,0.00000,0.00000,0.00000,0.00000,0.00000
18:26:51.083412,2.05324,0.02642,0.00000,0.00000,[5.00000 0.00000 0.00000],[1.30000 0.00000 0.00000],0.00677,0.04446,0.02218,0.00000,0.00000,-0.00881,0.00370,-0.06082,0.03556,1.05274,2.02843,3.12821,0.00000,-0.02628,-0.00041,0.00000,0.00000,0.00000,0.00000,0.00000,0.00000,0.00000,0.00000,0.00000,0.00000000,0.00000000,No status,0.0,"[-0.20000,-0.00000,-0.00000]","[-0.10000,-0.00000,-0.00000]",0.00000,0.00000,0.00000,0.00000,0.00000,0.00000
18:26:51.130360,2.10018,0.03383,0.00000,0.00000,[5.00000 0.00000 0.00000],[1.30000 0.00000 0.00000],0.00721,0.04446,0.00507,0.00000,0.00000,0.00844,0.00798,0.04453,0.04679,0.98375,2.06757,3.11355,0.00000,-0.02622,-0.00035,0.00000,0.00000,0.00000,0.00000,0.00000,0.00000,0.00000,0.00000,0.00000,0.00000000,0.00000000,No status,0.0,"[-0.20000,-0.00000,-0.00000]","[-0.10000,-0.00000,-0.00000]",0.00000,0.00000,0.00000,0.00000,0.00000,0.00000
18:26:51.170182,2.14001,0.02962,0.00000,0.00000,[5.00000 0.00000 0.00000],[1.30000 0.00000 0.00000],0.00737,0.04446,0.01652,0.00000,0.00000,-0.00225,-0.00180,0.04538,-0.00488,0.98143,2.11153,3.12821,0.00000,-0.02616,-0.00030,0.00000,0.00000,0.00000,0.00000,0.00000,0.00000,0.00000,0.00000,0.00000,0.00000000,0.00000000,No status,0.0,"[-0.20000,-0.00000,-0.00000]","[-0.10000,-0.00000,-0.00000]",0.00000,0.00000,0.00000,0.00000,0.00000,0.00000
18:26:51.207957,2.17778,0.02844,0.00000,0.00000,[5.00000 0.00000 0.00000],[1.30000 0.00000 0.00000],0.00828,0.04446,-0.00852,0.00000,0.00000,0.01593,-0.00210,-0.10583,0.11962,1.04151,2.14981,3.11844,0.00000,-0.02612,-0.00025,0.00000,0.00000,0.00000,0.00000,0.00000,0.00000,0.00000,0.00000,0.00000,0.00000000,0.00000000,No status,0.0,"[-0.20000,-0.00000,-0.00000]","[-0.10000,-0.00000,-0.00000]",0.00000,0.00000,0.00000,0.00000,0.00000,0.00000
18:26:51.250488,2.22031,0.02923,0.00000,0.00000,[5.00000 0.00000 0.00000],[1.30000 0.00000 0.00000],0.00794,0.04446,0.00782,0.00000,0.00000,-0.03554,0.01790,-0.00152,-0.01196,0.97332,2.19244,3.11355,0.00000,-0.02608,-0.00022,0.00000,0.00000,0.00000,0.00000,0.00000,0.00000,0.00000,0.00000,0.00000,0.00000000,0.00000000,No status,0.0,"[-0.20000,-0.00000,-0.00000]","[-0.10000,-0.00000,-0.00000]",0.00000,0.00000,0.00000,0.00000,0.00000,0.00000
18:26:51.287407,2.25725,0.02566,0.00000,0.00000,[5.00000 0.00000 0.00000],[1.30000 0.00000 0.00000],0.00819,0.04446,0.01255,0.00000,0.00000,0.00478,-0.00791,0.07784,0.01677,1.03175,2.23307,3.13065,0.00000,-0.02605,-0.00018,0.00000,0.00000,0.00000,0.00000,0.00000,0.00000,0.00000,0.00000,0.00000,0.00000000,0.00000000,No status,0.0,"[-0.20000,-0.00000,-0.00000]","[-0.10000,-0.00000,-0.00000]",0.00000,0.00000,0.00000,0.00000,0.00000,0.00000
18:26:51.328848,2.29867,0.03062,0.00000,0.00000,[5.00000 0.00000 0.00000],[1.30000 0.00000 0.00000],0.00887,0.04446,0.02477,0.00000,0.00000,-0.00026,-0.00852,0.05325,0.01806,0.98186,2.26947,3.13309,0.00000,-0.02602,-0.00016,0.00000,0.00000,0.00000,0.00000,0.00000,0.00000,0.00000,0.00000,0.00000,0.00000000,0.00000000,No status,0.0,"[-0.20000,-0.00000,-0.00000]","[-0.10000,-0.00000,-0.00000]",0.00000,0.00000,0.00000,0.00000,0.00000,0.00000
18:26:51.371735,2.34156,0.02902,0.00000,0.00000,[5.00000 0.00000 0.00000],[1.30000 0.00000 0.00000],0.01039,0.04446,0.03943,0.00000,0.00000,-0.02577,0.01347,-0.03416,0.02281,0.97777,2.31265,3.13065,0.00000,-0.02600,-0.00013,0.00000,0.00000,0.00000,0.00000,0.00000,0.00000,0.00000,0.00000,0.00000,0.00000000,0.00000000,No status,0.0,"[-0.20000,-0.00000,-0.00000]","[-0.10000,-0.00000,-0.00000]",0.00000,0.00000,0.00000,0.00000,0.00000,0.00000
18:26:51.413218,2.38305,0.03084,0.00000,0.00000,[5.00000 0.00000 0.00000],[1.30000 0.00000 0.00000],0.01209,0.04446,0.04585,0.00000,0.00000,-0.00515,0.01103,0.09333,0.02641,1.04591,2.35352,3.11844,0.00000,-0.02598,-0.00011,0.00000,0.00000,0.00000,0.00000,0.00000,0.00000,0.00000,0.00000,0.00000,0.00000000,0.00000000,No status,0.0,"[-0.20000,-0.00000,-0.00000]","[-0.10000,-0.00000,-0.00000]",0.00000,0.00000,0.00000,0.00000,0.00000,0.00000
18:26:51.445807,2.41563,0.02476,0.00000,0.00000,[5.00000 0.00000 0.00000],[1.30000 0.00000 0.00000],0.01375,0.04492,0.04218,0.00000,0.00000,-0.00881,0.00966,0.02513,0.03886,0.97210,2.39233,1.39683,0.00000,-0.02600,0.00013,0.00000,0.00000,0.00000,0.00000,0.00000,0.00000,0.00000,0.00000,0.00000,0.00000000,0.00000000,No status,0.0,"[-0.20000,-0.00000,-0.00000]","[-0.10000,-0.00000,-0.00000]",0.00000,0.00000,0.00000,0.00000,0.00000,0.00000
18:26:51.485116,2.45495,0.02693,0.00000,0.00000,[5.00000 0.00000 0.00000],[1.30000 0.00000 0.00000],0.01517,0.04551,0.03439,0.00000,0.00000,-0.02378,0.00859,0.01702,0.04605,1.04572,2.43179,1.54335,0.00000,-0.02607,0.00040,0.00000,0.00000,0.00000,0.00000,0.00000,0.00000,0.00000,0.00000,0.00000,0.00000000,0.00000000,No status,0.0,"[-0.20000,-0.00000,-0.00000]","[-0.10000,-0.00000,-0.00000]",0.00000,0.00000,0.00000,0.00000,0.00000,0.00000
18:26:51.529038,2.49886,0.03293,0.00000,0.00000,[5.00000 0.00000 0.00000],[1.30000 0.00000 0.00000],0.01642,0.04554,0.03516,0.00000,0.00000,-0.01706,0.01027,-0.03331,0.03806,0.95130,2.46762,0.06838,0.00000,-0.02613,0.00036,0.00000,0.00000,0.00000,0.00000,0.00000,0.00000,0.00000,0.00000,0.00000,0.00000000,0.00000000,No status,0.0,"[-0.20000,-0.00000,-0.00000]","[-0.10000,-0.00000,-0.00000]",0.00000,0.00000,0.00000,0.00000,0.00000,0.00000
18:26:51.570140,2.53997,0.03001,0.00000,0.00000,[5.00000 0.00000 0.00000],[1.30000 0.00000 0.00000],0.01778,0.04588,0.02431,0.00000,0.00000,-0.01935,0.01561,0.06710,0.06326,0.99643,2.51064,0.73748,0.00000,-0.02622,0.00047,0.00000,0.00000,0.00000,0.00000,0.00000,0.00000,0.00000,0.00000,0.00000,0.00000000,0.00000000,No status,0.0,"[-0.20000,-0.00000,-0.00000]","[-0.10000,-0.00000,-0.00000]",0.00000,0.00000,0.00000,0.00000,0.00000,0.00000
18:26:51.609129,2.57817,0.02500,0.00000,0.00000,[5.00000 0.00000 0.00000],[1.30000 0.00000 0.00000],0.01866,0.04670,0.01255,0.00000,0.00000,0.01486,0.01256,-0.01946,0.06765,1.04798,2.55436,0.83272,0.00000,-0.02636,0.00081,0.00000,0.00000,0.00000,0.00000,0.00000,0.00000,0.00000,0.00000,0.00000,0.00000000,0.00000000,No status,0.0,"[-0.20000,-0.00000,-0.00000]","[-0.10000,-0.00000,-0.00000]",0.00000,0.00000,0.00000,0.00000,0.00000,0.00000
18:26:51.654387,2.62419,0.03281,0.00000,0.00000,[5.00000 0.00000 0.00000],[1.30000 0.00000 0.00000],0.01840,0.04729,0.01301,0.00000,0.00000,-0.01416,0.01836,0.09388,-0.00653,1.08251,2.59220,2.32723,0.00000,-0.02653,0.00098,0.00000,0.00000,0.00000,0.00000,0.00000,0.00000,0.00000,0.00000,0.00000,0.00000000,0.00000000,No status,0.0,"[-0.20000,-0.00000,-0.00000]","[-0.10000,-0.00000,-0.00000]",0.00000,0.00000,0.00000,0.00000,0.00000,0.00000
18:26:51.696853,2.66667,0.03144,0.00000,0.00000,[5.00000 0.00000 0.00000],[1.30000 0.00000 0.00000],0.02005,0.04732,0.02584,0.00000,0.00000,0.02738,0.00385,-0.01958,0.06801,0.88310,2.63715,1.18437,0.00000,-0.02668,0.00085,0.00000,0.00000,0.00000,0.00000,0.00000,0.00000,0.00000,0.00000,0.00000,0.00000000,0.00000000,No status,0.0,"[-0.20000,-0.00000,-0.00000]","[-0.10000,-0.00000,-0.00000]",0.00000,0.00000,0.00000,0.00000,0.00000,0.00000
18:26:51.746237,2.71606,0.03580,0.00000,0.00000,[5.00000 0.00000 0.00000],[1.30000 0.00000 0.00000],0.02080,0.04732,0.01271,0.00000,0.00000,-0.04394,0.01469,0.00403,0.06210,1.12874,2.68435,1.17705,0.00000,-0.02681,0.00072,0.00000,0.00000,0.00000,0.00000,0.00000,0.00000,0.00000,0.00000,0.00000,0.00000000,0.00000000,No status,0.0,"[-0.20000,-0.00000,-0.00000]","[-0.10000,-0.00000,-0.00000]",0.00000,0.00000,0.00000,0.00000,0.00000,0.00000
18:26:51.789497,2.75933,0.03086,0.00000,0.00000,[5.00000 0.00000 0.00000],[1.30000 0.00000 0.00000],0.02126,0.04732,0.01622,0.00000,0.00000,-0.01767,-0.00134,0.08058,0.02403,0.87145,2.73013,1.16972,0.00000,-0.02692,0.00061,0.00000,0.00000,0.00000,0.00000,0.00000,0.00000,0.00000,0.00000,0.00000,0.00000000,0.00000000,No status,0.0,"[-0.20000,-0.00000,-0.00000]","[-0.10000,-0.00000,-0.00000]",0.00000,0.00000,0.00000,0.00000,0.00000,0.00000
18:26:51.825341,2.79416,0.02570,0.00000,0.00000,[5.00000 0.00000 0.00000],[1.30000 0.00000 0.00000],0.02184,0.04732,0.02737,0.00000,0.00000,0.02799,-0.00562,-0.03733,0.01318,1.01156,2.76991,1.18437,0.00000,-0.02701,0.00052,0.00000,0.00000,0.00000,0.00000,0.00000,0.00000,0.00000,0.00000,0.00000,0.00000000,0.00000000,No status,0.0,"[-0.20000,-0.00000,-0.00000]","[-0.10000,-0.00000,-0.00000]",0.00000,0.00000,0.00000,0.00000,0.00000,0.00000
18:26:51.871892,2.84172,0.03158,0.00000,0.00000,[5.00000 0.00000 0.00000],[1.30000 0.00000 0.00000],0.02344,0.04732,0.03180,0.00000,0.00000,-0.00729,0.00202,-0.05234,0.06679,1.02864,2.81223,1.16728,0.00000,-0.02709,0.00044,0.00000,0.00000,0.00000,0.00000,0.00000,0.00000,0.00000,0.00000,0.00000,0.00000000,0.00000000,No status,0.0,"[-0.20000,-0.00000,-0.00000]","[-0.10000,-0.00000,-0.00000]",0.00000,0.00000,0.00000,0.00000,0.00000,0.00000
18:26:51.913781,2.88361,0.02804,0.00000,0.00000,[5.00000 0.00000 0.00000],[1.30000 0.00000 0.00000],0.02330,0.04673,0.02813,0.00000,0.00000,-0.02806,-0.00821,0.03959,-0.04618,1.04292,2.85690,1.22100,0.00000,-0.02710,0.00008,0.00000,0.00000,0.00000,0.00000,0.00000,0.00000,0.00000,0.00000,0.00000,0.00000000,0.00000000,No status,0.0,"[-0.20000,-0.00000,-0.00000]","[-0.10000,-0.00000,-0.00000]",0.00000,0.00000,0.00000,0.00000,0.00000,0.00000
18:26:51.954313,2.92414,0.03054,0.00000,0.00000,[5.00000 0.00000 0.00000],[1.30000 0.00000 0.00000],0.02465,0.04412,0.03684,0.00000,0.00000,0.02814,-0.00974,0.08363,0.04355,0.95258,2.89497,1.21368,0.00000,-0.02689,-0.00122,0.00000,0.00000,0.00000,0.00000,0.00000,0.00000,0.00000,0.00000,0.00000,0.00000000,0.00000000,No status,0.0,"[-0.20000,-0.00000,-0.00000]","[-0.10000,-0.00000,-0.00000]",0.00000,0.00000,0.00000,0.00000,0.00000,0.00000
18:26:51.997932,2.96776,0.03133,0.00000,0.00000,[5.00000 0.00000 0.00000],[1.30000 0.00000 0.00000],0.02458,0.04177,0.01973,0.00000,0.00000,-0.00393,-0.01738,-0.04160,-0.01080,1.04426,2.93733,1.18681,0.00000,-0.02650,-0.00220,0.00000,0.00000,0.00000,0.00000,0.00000,0.00000,0.00000,0.00000,0.00000,0.00000000,0.00000000,No status,0.0,"[-0.20000,-0.00000,-0.00000]","[-0.10000,-0.00000,-0.00000]",0.00000,0.00000,0.00000,0.00000,0.00000,0.00000
18:26:52.034456,3.00428,0.02422,0.00000,0.00000,[5.00000 0.00000 0.00000],[1.30000 0.00000 0.00000],0.02462,0.03589,0.01362,0.00000,0.00000,0.00401,-0.02455,0.09113,0.01177,0.92055,2.98117,1.18926,0.00000,-0.02566,-0.00478,0.00000,0.00000,0.00000,0.00000,0.00000,0.00000,0.00000,0.00000,0.00000,0.00000000,0.00000000,No status,0.0,"[-0.20000,-0.00000,-0.00000]","[-0.10000,-0.00000,-0.00000]",0.00000,0.00000,0.00000,0.00000,0.00000,0.00000
18:26:52.079623,3.04945,0.02963,0.00000,0.00000,[5.00000 0.00000 0.00000],[1.30000 0.00000 0.00000],0.02441,0.03147,0.00538,0.00000,0.00000,-0.02317,-0.02226,-0.02727,0.02336,1.06951,3.01963,1.14774,0.00000,-0.02455,-0.00625,0.00000,0.00000,0.00000,0.00000,0.00000,0.00000,0.00000,0.00000,0.00000,0.00000000,0.00000000,No status,0.0,"[-0.20000,-0.00000,-0.00000]","[-0.10000,-0.00000,-0.00000]",0.00000,0.00000,0.00000,0.00000,0.00000,0.00000
18:26:52.122667,3.09249,0.02905,0.00000,0.00000,[5.00000 0.00000 0.00000],[1.30000 0.00000 0.00000],0.02361,0.02400,-0.02242,0.00000,0.00000,-0.02286,-0.03494,-0.14585,0.06661,1.06872,3.06509,1.19658,0.00000,-0.02296,-0.00901,0.00000,0.00000,0.00000,0.00000,0.00000,0.00000,0.00000,0.00000,0.00000,0.00000000,0.00000000,No status,0.0,"[-0.20000,-0.00000,-0.00000]","[-0.10000,-0.00000,-0.00000]",0.00000,0.00000,0.00000,0.00000,0.00000,0.00000
18:26:52.161993,3.13183,0.02769,0.00000,0.00000,[5.00000 0.00000 0.00000],[1.30000 0.00000 0.00000],0.02127,0.02250,-0.03265,0.00000,0.00000,-0.01431,-0.02898,0.10583,-0.01781,1.08318,3.10754,1.31868,0.00000,-0.02148,-0.00840,0.00000,0.00000,0.00000,0.00000,0.00000,0.00000,0.00000,0.00000,0.00000,0.00000000,0.00000000,No status,0.0,"[-0.20000,-0.00000,-0.00000]","[-0.10000,-0.00000,-0.00000]",0.00000,0.00000,0.00000,0.00000,0.00000,0.00000
18:26:52.193110,3.16294,0.02459,0.00000,0.00000,[5.00000 0.00000 0.00000],[1.30000 0.00000 0.00000],0.02124,0.02174,-0.02807,0.00000,0.00000,0.03105,-0.02730,-0.00152,0.08882,0.88749,3.13784,1.16239,0.00000,-0.02016,-0.00752,0.00000,0.00000,0.00000,0.00000,0.00000,0.00000,0.00000,0.00000,0.00000,0.00000000,0.00000000,No status,0.0,"[-0.20000,-0.00000,-0.00000]","[-0.10000,-0.00000,-0.00000]",0.00000,0.00000,0.00000,0.00000,0.00000,0.00000
18:26:52.230213,3.20004,0.03069,0.00000,0.00000,[5.00000 0.00000 0.00000],[1.30000 0.00000 0.00000],0.01999,0.02117,-0.03494,0.00000,0.00000,-0.02592,-0.02516,0.01202,0.03422,1.00479,3.16903,0.87179,0.00000,-0.01898,-0.00667,0.00000,0.00000,0.00000,0.00000,0.00000,0.00000,0.00000,0.00000,0.00000,0.00000000,0.00000000,No status,0.0,"[-0.20000,-0.00000,-0.00000]","[-0.10000,-0.00000,-0.00000]",0.00000,0.00000,0.00000,0.00000,0.00000,0.00000
18:26:52.276619,3.24641,0.03165,0.00000,0.00000,[5.00000 0.00000 0.00000],[1.30000 0.00000 0.00000],0.01783,0.01908,-0.03601,0.00000,0.00000,-0.01141,-0.03295,0.05405,0.01391,1.00680,3.21695,1.13797,0.00000,-0.01780,-0.00670,0.00000,0.00000,0.00000,0.00000,0.00000,0.00000,0.00000,0.00000,0.00000,0.00000000,0.00000000,No status,0.0,"[-0.20000,-0.00000,-0.00000]","[-0.10000,-0.00000,-0.00000]",0.00000,0.00000,0.00000,0.00000,0.00000,0.00000
18:26:52.315975,3.28580,0.02888,0.00000,0.00000,[5.00000 0.00000 0.00000],[1.30000 0.00000 0.00000],0.01615,0.01325,-0.03219,0.00000,0.00000,0.01043,-0.03570,0.04380,0.01507,0.84180,3.25842,1.15507,0.00000,-0.01628,-0.00858,0.00000,0.00000,0.00000,0.00000,0.00000,0.00000,0.00000,0.00000,0.00000,0.00000000,0.00000000,No status,0.0,"[-0.20000,-0.00000,-0.00000]","[-0.10000,-0.00000,-0.00000]",0.00000,0.00000,0.00000,0.00000,0.00000,0.00000
18:26:52.357617,3.32743,0.02852,0.00000,0.00000,[5.00000 0.00000 0.00000],[1.30000 0.00000 0.00000],0.01410,0.00606,-0.04746,0.00000,0.00000,0.00661,-0.06548,0.03654,0.03251,1.11929,3.29845,1.18926,0.00000,-0.01437,-0.01085,0.00000,0.00000,0.00000,0.00000,0.00000,0.00000,0.00000,0.00000,0.00000,0.00000000,0.00000000,No status,0.0,"[-0.20000,-0.00000,-0.00000]","[-0.10000,-0.00000,-0.00000]",0.00000,0.00000,0.00000,0.00000,0.00000,0.00000
18:26:52.391272,3.36110,0.02657,0.00000,0.00000,[5.00000 0.00000 0.00000],[1.30000 0.00000 0.00000],0.01369,0.00226,-0.01921,0.00000,0.00000,0.02173,-0.04425,-0.06924,0.05948,1.01254,3.33596,1.19414,0.00000,-0.01241,-0.01109,0.00000,0.00000,0.00000,0.00000,0.00000,0.00000,0.00000,0.00000,0.00000,0.00000000,0.00000000,No status,0.0,"[-0.20000,-0.00000,-0.00000]","[-0.10000,-0.00000,-0.00000]",0.00000,0.00000,0.00000,0.00000,0.00000,0.00000
18:26:52.439839,3.40966,0.03489,0.00000,0.00000,[5.00000 0.00000 0.00000],[1.30000 0.00000 0.00000],0.01292,-0.00218,-0.01921,0.00000,0.00000,-0.04287,-0.04960,0.04453,0.03294,0.93367,3.37430,1.16972,0.00000,-0.01036,-0.01163,0.00000,0.00000,0.00000,0.00000,0.00000,0.00000,0.00000,0.00000,0.00000,0.00000000,0.00000000,No status,0.0,"[-0.20000,-0.00000,-0.00000]","[-0.10000,-0.00000,-0.00000]",0.00000,0.00000,0.00000,0.00000,0.00000,0.00000
18:26:52.476766,3.44616,0.02596,0.00000,0.00000,[5.00000 0.00000 0.00000],[1.30000 0.00000 0.00000],0.01161,-0.00504,-0.01570,0.00000,0.00000,0.04128,-0.07251,0.24260,-0.00049,0.90121,3.42214,1.29426,0.00000,-0.00837,-0.01129,0.00000,0.00000,0.00000,0.00000,0.00000,0.00000,0.00000,0.00000,0.00000,0.00000000,0.00000000,No status,0.0,"[-0.20000,-0.00000,-0.00000]","[-0.10000,-0.00000,-0.00000]",0.00000,0.00000,0.00000,0.00000,0.00000,0.00000
18:26:52.511694,3.48076,0.02512,0.00000,0.00000,[5.00000 0.00000 0.00000],[1.30000 0.00000 0.00000],0.01306,-0.00504,0.01805,0.00000,0.00000,0.03960,-0.04380,-0.28402,0.11084,1.20688,3.45700,1.18193,0.00000,-0.00667,-0.00960,0.00000,0.00000,0.00000,0.00000,0.00000,0.00000,0.00000,0.00000,0.00000,0.00000000,0.00000000,No status,0.0,"[-0.20000,-0.00000,-0.00000]","[-0.10000,-0.00000,-0.00000]",0.00000,0.00000,0.00000,0.00000,0.00000,0.00000
18:26:52.546080,3.51590,0.02532,0.00000,0.00000,[5.00000 0.00000 0.00000],[1.30000 0.00000 0.00000],0.01311,-0.00504,-0.02165,0.00000,0.00000,-0.04287,-0.05632,-0.05819,0.07777,0.86547,3.49135,1.16484,0.00000,-0.00523,-0.00816,0.00000,0.00000,0.00000,0.00000,0.00000,0.00000,0.00000,0.00000,0.00000,0.00000000,0.00000000,No status,0.0,"[-0.20000,-0.00000,-0.00000]","[-0.10000,-0.00000,-0.00000]",0.00000,0.00000,0.00000,0.00000,0.00000,0.00000
18:26:52.587445,3.55727,0.02831,0.00000,0.00000,[5.00000 0.00000 0.00000],[1.30000 0.00000 0.00000],0.01408,-0.00504,0.02813,0.00000,0.00000,-0.02088,-0.04822,-0.11358,0.02806,1.01711,3.53192,1.14530,0.00000,-0.00401,-0.00694,0.00000,0.00000,0.00000,0.00000,0.00000,0.00000,0.00000,0.00000,0.00000,0.00000000,0.00000000,No status,0.0,"[-0.20000,-0.00000,-0.00000]","[-0.10000,-0.00000,-0.00000]",0.00000,0.00000,0.00000,0.00000,0.00000,0.00000
18:26:52.629633,3.59946,0.02757,0.00000,0.00000,[5.00000 0.00000 0.00000],[1.30000 0.00000 0.00000],0.01572,-0.00504,-0.02517,0.00000,0.00000,-0.00270,-0.05983,-0.28957,0.26706,1.20219,3.57489,1.17216,0.00000,-0.00297,-0.00590,0.00000,0.00000,0.00000,0.00000,0.00000,0.00000,0.00000,0.00000,0.00000,0.00000000,0.00000000,No status,0.0,"[-0.20000,-0.00000,-0.00000]","[-0.10000,-0.00000,-0.00000]",0.00000,0.00000,0.00000,0.00000,0.00000,0.00000
18:26:52.669993,3.63981,0.02790,0.00000,0.00000,[5.00000 0.00000 0.00000],[1.30000 0.00000 0.00000],0.01363,-0.00504,-0.00241,0.00000,0.00000,-0.01370,-0.04822,0.22100,-0.07991,0.85613,3.61269,1.16239,0.00000,-0.00208,-0.00501,0.00000,0.00000,0.00000,0.00000,0.00000,0.00000,0.00000,0.00000,0.00000,0.00000000,0.00000000,No status,0.0,"[-0.20000,-0.00000,-0.00000]","[-0.10000,-0.00000,-0.00000]",0.00000,0.00000,0.00000,0.00000,0.00000,0.00000
18:26:52.713328,3.68315,0.03354,0.00000,0.00000,[5.00000 0.00000 0.00000],[1.30000 0.00000 0.00000],0.01357,-0.00504,-0.03448,0.00000,0.00000,0.00875,-0.04318,-0.11157,0.12462,1.02504,3.65096,1.17216,0.00000,-0.00133,-0.00426,0.00000,0.00000,0.00000,0.00000,0.00000,0.00000,0.00000,0.00000,0.00000,0.00000000,0.00000000,No status,0.0,"[-0.20000,-0.00000,-0.00000]","[-0.10000,-0.00000,-0.00000]",0.00000,0.00000,0.00000,0.00000,0.00000,0.00000
18:26:52.760056,3.72987,0.03243,0.00000,0.00000,[5.00000 0.00000 0.00000],[1.30000 0.00000 0.00000],0.01241,-0.00504,-0.04807,0.00000,0.00000,0.01211,-0.03662,-0.04105,0.10949,0.97984,3.69862,1.15995,0.00000,-0.00069,-0.00362,0.00000,0.00000,0.00000,0.00000,0.00000,0.00000,0.00000,0.00000,0.00000,0.00000000,0.00000000,No status,0.0,"[-0.20000,-0.00000,-0.00000]","[-0.10000,-0.00000,-0.00000]",0.00000,0.00000,0.00000,0.00000,0.00000,0.00000
18:26:52.804510,3.77413,0.03080,0.00000,0.00000,[5.00000 0.00000 0.00000],[1.30000 0.00000 0.00000],0.00964,-0.00504,-0.05602,0.00000,0.00000,-0.01095,-0.03616,-0.14018,0.02672,1.08263,3.74538,1.16484,0.00000,-0.00015,-0.00308,0.00000,0.00000,0.00000,0.00000,0.00000,0.00000,0.00000,0.00000,0.00000,0.00000000,0.00000000,No status,0.0,"[-0.20000,-0.00000,-0.00000]","[-0.10000,-0.00000,-0.00000]",0.00000,0.00000,0.00000,0.00000,0.00000,0.00000
18:26:52.849589,3.81941,0.02950,0.00000,0.00000,[5.00000 0.00000 0.00000],[1.30000 0.00000 0.00000],0.00800,-0.00461,-0.03066,0.00000,0.00000,0.02998,-0.03891,0.07954,0.01928,0.96898,3.79263,1.20879,0.00000,0.00028,-0.00241,0.00000,0.00000,0.00000,0.00000,0.00000,0.00000,0.00000,0.00000,0.00000,0.00000000,0.00000000,No status,0.0,"[-0.20000,-0.00000,-0.00000]","[-0.10000,-0.00000,-0.00000]",0.00000,0.00000,0.00000,0.00000,0.00000,0.00000
18:26:52.882755,3.85259,0.02273,0.00000,0.00000,[5.00000 0.00000 0.00000],[1.30000 0.00000 0.00000],0.00608,-0.00399,-0.05602,0.00000,0.00000,-0.01889,-0.03280,-0.05252,0.04929,1.01852,3.83170,3.05983,0.00000,0.00058,-0.00174,0.00000,0.00000,0.00000,0.00000,0.00000,0.00000,0.00000,0.00000,0.00000,0.00000000,0.00000000,No status,0.0,"[-0.20000,-0.00000,-0.00000]","[-0.10000,-0.00000,-0.00000]",0.00000,0.00000,0.00000,0.00000,0.00000,0.00000
18:26:52.925463,3.89514,0.03085,0.00000,0.00000,[5.00000 0.00000 0.00000],[1.30000 0.00000 0.00000],0.00441,-0.00388,-0.04914,0.00000,0.00000,0.02341,-0.05525,0.01421,0.03196,1.03840,3.86637,1.30891,0.00000,0.00083,-0.00142,0.00000,0.00000,0.00000,0.00000,0.00000,0.00000,0.00000,0.00000,0.00000,0.00000000,0.00000000,No status,0.0,"[-0.20000,-0.00000,-0.00000]","[-0.10000,-0.00000,-0.00000]",0.00000,0.00000,0.00000,0.00000,0.00000,0.00000
18:26:52.974495,3.94432,0.03458,0.00000,0.00000,[5.00000 0.00000 0.00000],[1.30000 0.00000 0.00000],0.00241,-0.00198,-0.03922,0.00000,0.00000,0.01532,-0.02868,0.08552,0.01141,0.95495,3.91156,1.05006,0.00000,0.00088,-0.00027,0.00000,0.00000,0.00000,0.00000,0.00000,0.00000,0.00000,0.00000,0.00000,0.00000000,0.00000000,No status,0.0,"[-0.20000,-0.00000,-0.00000]","[-0.10000,-0.00000,-0.00000]",0.00000,0.00000,0.00000,0.00000,0.00000,0.00000
18:26:53.012443,3.98147,0.02790,0.00000,0.00000,[5.00000 0.00000 0.00000],[1.30000 0.00000 0.00000],0.00086,-0.00173,-0.04029,0.00000,0.00000,0.01455,-0.03479,0.00049,0.03758,1.02388,3.95428,3.10867,0.00000,0.00090,-0.00010,0.00000,0.00000,0.00000,0.00000,0.00000,0.00000,0.00000,0.00000,0.00000,0.00000000,0.00000000,No status,0.0,"[-0.20000,-0.00000,-0.00000]","[-0.10000,-0.00000,-0.00000]",0.00000,0.00000,0.00000,0.00000,0.00000,0.00000
18:26:53.058637,4.02811,0.03417,0.00000,0.00000,[5.00000 0.00000 0.00000],[1.30000 0.00000 0.00000],-0.00020,-0.00074,-0.03784,0.00000,0.00000,-0.00194,-0.03448,-0.03526,0.05606,0.96258,3.99591,1.29670,0.00000,0.00083,0.00040,0.00000,0.00000,0.00000,0.00000,0.00000,0.00000,0.00000,0.00000,0.00000,0.00000000,0.00000000,No status,0.0,"[-0.20000,-0.00000,-0.00000]","[-0.10000,-0.00000,-0.00000]",0.00000,0.00000,0.00000,0.00000,0.00000,0.00000
18:26:53.099021,4.06885,0.02784,0.00000,0.00000,[5.00000 0.00000 0.00000],[1.30000 0.00000 0.00000],-0.00167,0.00238,-0.03280,0.00000,0.00000,0.00524,-0.03799,0.12176,0.02513,0.94770,4.04221,1.12821,0.00000,0.00050,0.00188,0.00000,0.00000,0.00000,0.00000,0.00000,0.00000,0.00000,0.00000,0.00000,0.00000000,0.00000000,No status,0.0,"[-0.20000,-0.00000,-0.00000]","[-0.10000,-0.00000,-0.00000]",0.00000,0.00000,0.00000,0.00000,0.00000,0.00000
18:26:53.138187,4.10801,0.02635,0.00000,0.00000,[5.00000 0.00000 0.00000],[1.30000 0.00000 0.00000],-0.00381,0.00543,-0.01402,0.00000,0.00000,0.02295,-0.03585,0.10590,-0.07985,0.96795,4.08304,1.17216,0.00000,-0.00005,0.00311,0.00000,0.00000,0.00000,0.00000,0.00000,0.00000,0.00000,0.00000,0.00000,0.00000000,0.00000000,No status,0.0,"[-0.20000,-0.00000,-0.00000]","[-0.10000,-0.00000,-0.00000]",0.00000,0.00000,0.00000,0.00000,0.00000,0.00000
18:26:53.185866,4.15569,0.03525,0.00000,0.00000,[5.00000 0.00000 0.00000],[1.30000 0.00000 0.00000],-0.00333,0.00708,-0.00883,0.00000,0.00000,-0.00423,-0.01860,0.02233,0.07216,0.95929,4.12094,1.25031,0.00000,-0.00066,0.00345,0.00000,0.00000,0.00000,0.00000,0.00000,0.00000,0.00000,0.00000,0.00000,0.00000000,0.00000000,No status,0.0,"[-0.20000,-0.00000,-0.00000]","[-0.10000,-0.00000,-0.00000]",0.00000,0.00000,0.00000,0.00000,0.00000,0.00000
18:26:53.229694,4.19952,0.03207,0.00000,0.00000,[5.00000 0.00000 0.00000],[1.30000 0.00000 0.00000],-0.00381,0.00880,-0.00822,0.00000,0.00000,-0.00774,-0.03081,-0.05136,0.01519,1.05164,4.16808,1.19414,0.00000,-0.00133,0.00379,0.00000,0.00000,0.00000,0.00000,0.00000,0.00000,0.00000,0.00000,0.00000,0.00000000,0.00000000,No status,0.0,"[-0.20000,-0.00000,-0.00000]","[-0.10000,-0.00000,-0.00000]",0.00000,0.00000,0.00000,0.00000,0.00000,0.00000
18:26:53.275172,4.24500,0.03197,0.00000,0.00000,[5.00000 0.00000 0.00000],[1.30000 0.00000 0.00000],-0.00340,0.01619,-0.00867,0.00000,0.00000,0.00279,-0.01035,-0.00970,0.07241,0.96252,4.21573,1.16972,0.00000,-0.00254,0.00687,0.00000,0.00000,0.00000,0.00000,0.00000,0.00000,0.00000,0.00000,0.00000,0.00000000,0.00000000,No status,0.0,"[-0.20000,-0.00000,-0.00000]","[-0.10000,-0.00000,-0.00000]",0.00000,0.00000,0.00000,0.00000,0.00000,0.00000
18:26:53.316045,4.28587,0.03013,0.00000,0.00000,[5.00000 0.00000 0.00000],[1.30000 0.00000 0.00000],-0.00317,0.02414,-0.00012,0.00000,0.00000,0.03318,0.00080,0.10949,0.03593,0.97954,4.25645,1.15018,0.00000,-0.00427,0.00977,0.00000,0.00000,0.00000,0.00000,0.00000,0.00000,0.00000,0.00000,0.00000,0.00000000,0.00000000,No status,0.0,"[-0.20000,-0.00000,-0.00000]","[-0.10000,-0.00000,-0.00000]",0.00000,0.00000,0.00000,0.00000,0.00000,0.00000
18:26:53.362599,4.33186,0.03392,0.00000,0.00000,[5.00000 0.00000 0.00000],[1.30000 0.00000 0.00000],-0.00340,0.03074,-0.00088,0.00000,0.00000,-0.01706,0.00981,-0.06954,0.00933,1.03456,4.29982,1.12332,0.00000,-0.00631,0.01157,0.00000,0.00000,0.00000,0.00000,0.00000,0.00000,0.00000,0.00000,0.00000,0.00000000,0.00000000,No status,0.0,"[-0.20000,-0.00000,-0.00000]","[-0.10000,-0.00000,-0.00000]",0.00000,0.00000,0.00000,0.00000,0.00000,0.00000
18:26:53.404534,4.37394,0.02632,0.00000,0.00000,[5.00000 0.00000 0.00000],[1.30000 0.00000 0.00000],-0.00341,0.03365,-0.00211,0.00000,0.00000,-0.00897,-0.00760,-0.03154,0.02666,0.99552,4.34827,1.13553,0.00000,-0.00830,0.01127,0.00000,0.00000,0.00000,0.00000,0.00000,0.00000,0.00000,0.00000,0.00000,0.00000000,0.00000000,No status,0.0,"[-0.20000,-0.00000,-0.00000]","[-0.10000,-0.00000,-0.00000]",0.00000,0.00000,0.00000,0.00000,0.00000,0.00000
18:26:53.440912,4.41072,0.02206,0.00000,0.00000,[5.00000 0.00000 0.00000],[1.30000 0.00000 0.00000],-0.00328,0.03583,0.00446,0.00000,0.00000,-0.01538,0.00843,0.00805,0.01787,0.99564,4.38980,1.03785,0.00000,-0.01018,0.01066,0.00000,0.00000,0.00000,0.00000,0.00000,0.00000,0.00000,0.00000,0.00000,0.00000000,0.00000000,No status,0.0,"[-0.20000,-0.00000,-0.00000]","[-0.10000,-0.00000,-0.00000]",0.00000,0.00000,0.00000,0.00000,0.00000,0.00000
18:26:53.491213,4.46104,0.03674,0.00000,0.00000,[5.00000 0.00000 0.00000],[1.30000 0.00000 0.00000],-0.00286,0.03589,0.01301,0.00000,0.00000,-0.00820,0.00339,-0.00677,0.01800,1.00741,4.42637,1.18926,0.00000,-0.01178,0.00909,0.00000,0.00000,0.00000,0.00000,0.00000,0.00000,0.00000,0.00000,0.00000,0.00000000,0.00000000,No status,0.0,"[-0.20000,-0.00000,-0.00000]","[-0.10000,-0.00000,-0.00000]",0.00000,0.00000,0.00000,0.00000,0.00000,0.00000
18:26:53.526294,4.49612,0.02644,0.00000,0.00000,[5.00000 0.00000 0.00000],[1.30000 0.00000 0.00000],-0.00260,0.03589,0.01484,0.00000,0.00000,-0.00576,-0.01508,0.01379,-0.00299,0.96520,4.47014,1.18681,0.00000,-0.01315,0.00773,0.00000,0.00000,0.00000,0.00000,0.00000,0.00000,0.00000,0.00000,0.00000,0.00000000,0.00000000,No status,0.0,"[-0.20000,-0.00000,-0.00000]","[-0.10000,-0.00000,-0.00000]",0.00000,0.00000,0.00000,0.00000,0.00000,0.00000
18:26:53.564934,4.53477,0.02730,0.00000,0.00000,[5.00000 0.00000 0.00000],[1.30000 0.00000 0.00000],-0.00233,0.03589,0.01851,0.00000,0.00000,-0.00148,-0.01982,0.00372,-0.00494,1.02663,4.50701,1.16728,0.00000,-0.01431,0.00657,0.00000,0.00000,0.00000,0.00000,0.00000,0.00000,0.00000,0.00000,0.00000,0.00000000,0.00000000,No status,0.0,"[-0.20000,-0.00000,-0.00000]","[-0.10000,-0.00000,-0.00000]",0.00000,0.00000,0.00000,0.00000,0.00000,0.00000
18:26:53.604633,4.57446,0.02579,0.00000,0.00000,[5.00000 0.00000 0.00000],[1.30000 0.00000 0.00000],-0.00150,0.03518,0.01897,0.00000,0.00000,-0.00041,-0.02532,0.01238,0.02092,0.97978,4.55186,1.19170,0.00000,-0.01523,0.00523,0.00000,0.00000,0.00000,0.00000,0.00000,0.00000,0.00000,0.00000,0.00000,0.00000000,0.00000000,No status,0.0,"[-0.20000,-0.00000,-0.00000]","[-0.10000,-0.00000,-0.00000]",0.00000,0.00000,0.00000,0.00000,0.00000,0.00000
18:26:53.641760,4.61159,0.02717,0.00000,0.00000,[5.00000 0.00000 0.00000],[1.30000 0.00000 0.00000],-0.00090,0.02935,0.02218,0.00000,0.00000,0.02127,-0.03066,-0.01769,0.01311,0.97393,4.58577,1.16239,0.00000,-0.01551,0.00156,0.00000,0.00000,0.00000,0.00000,0.00000,0.00000,0.00000,0.00000,0.00000,0.00000000,0.00000000,No status,0.0,"[-0.20000,-0.00000,-0.00000]","[-0.10000,-0.00000,-0.00000]",0.00000,0.00000,0.00000,0.00000,0.00000,0.00000
18:26:53.685387,4.65521,0.02931,0.00000,0.00000,[5.00000 0.00000 0.00000],[1.30000 0.00000 0.00000],-0.00020,0.02454,0.01011,0.00000,0.00000,-0.00958,-0.02135,-0.03843,0.04520,1.03779,4.62649,1.17949,0.00000,-0.01532,-0.00105,0.00000,0.00000,0.00000,0.00000,0.00000,0.00000,0.00000,0.00000,0.00000,0.00000000,0.00000000,No status,0.0,"[-0.20000,-0.00000,-0.00000]","[-0.10000,-0.00000,-0.00000]",0.00000,0.00000,0.00000,0.00000,0.00000,0.00000
18:26:53.717783,4.68762,0.02148,0.00000,0.00000,[5.00000 0.00000 0.00000],[1.30000 0.00000 0.00000],-0.00035,0.02035,-0.00104,0.00000,0.00000,0.00188,-0.04838,0.02617,0.01757,1.01010,4.66613,1.20391,0.00000,-0.01480,-0.00296,0.00000,0.00000,0.00000,0.00000,0.00000,0.00000,0.00000,0.00000,0.00000,0.00000000,0.00000000,No status,0.0,"[-0.20000,-0.00000,-0.00000]","[-0.10000,-0.00000,-0.00000]",0.00000,0.00000,0.00000,0.00000,0.00000,0.00000
18:26:53.750430,4.72025,0.02441,0.00000,0.00000,[5.00000 0.00000 0.00000],[1.30000 0.00000 0.00000],-0.00042,0.01913,-0.00348,0.00000,0.00000,0.01165,-0.03784,-0.06027,0.02647,1.01571,4.69559,0.90354,0.00000,-0.01425,-0.00312,0.00000,0.00000,0.00000,0.00000,0.00000,0.00000,0.00000,0.00000,0.00000,0.00000000,0.00000000,No status,0.0,"[-0.20000,-0.00000,-0.00000]","[-0.10000,-0.00000,-0.00000]",0.00000,0.00000,0.00000,0.00000,0.00000,0.00000
18:26:53.777522,4.74735,0.01949,0.00000,0.00000,[5.00000 0.00000 0.00000],[1.30000 0.00000 0.00000],-0.00043,0.01910,-0.01081,0.00000,0.00000,0.00508,-0.02425,-0.00659,0.04691,0.99930,4.72884,2.95971,0.00000,-0.01378,-0.00267,0.00000,0.00000,0.00000,0.00000,0.00000,0.00000,0.00000,0.00000,0.00000,0.00000000,0.00000000,No status,0.0,"[-0.20000,-0.00000,-0.00000]","[-0.10000,-0.00000,-0.00000]",0.00000,0.00000,0.00000,0.00000,0.00000,0.00000
18:26:53.812506,4.78216,0.02205,0.00000,0.00000,[5.00000 0.00000 0.00000],[1.30000 0.00000 0.00000],-0.00092,0.01905,-0.01264,0.00000,0.00000,0.00539,-0.02272,0.04856,0.01787,0.95075,4.76158,0.07326,0.00000,-0.01337,-0.00229,0.00000,0.00000,0.00000,0.00000,0.00000,0.00000,0.00000,0.00000,0.00000,0.00000000,0.00000000,No status,0.0,"[-0.20000,-0.00000,-0.00000]","[-0.10000,-0.00000,-0.00000]",0.00000,0.00000,0.00000,0.00000,0.00000,0.00000
18:26:53.843025,4.81287,0.02318,0.00000,0.00000,[5.00000 0.00000 0.00000],[1.30000 0.00000 0.00000],-0.00131,0.01905,-0.01585,0.00000,0.00000,0.01470,-0.03066,-0.03355,0.02910,1.02602,4.79090,0.04640,0.00000,-0.01303,-0.00195,0.00000,0.00000,0.00000,0.00000,0.00000,0.00000,0.00000,0.00000,0.00000,0.00000000,0.00000000,No status,0.0,"[-0.20000,-0.00000,-0.00000]","[-0.10000,-0.00000,-0.00000]",0.00000,0.00000,0.00000,0.00000,0.00000,0.00000
18:26:53.886026,4.85585,0.03268,0.00000,0.00000,[5.00000 0.00000 0.00000],[1.30000 0.00000 0.00000],-0.00173,0.01905,-0.01157,0.00000,0.00000,0.01501,-0.02486,0.04551,0.02013,0.99149,4.82422,0.02198,0.00000,-0.01273,-0.00166,0.00000,0.00000,0.00000,0.00000,0.00000,0.00000,0.00000,0.00000,0.00000,0.00000000,0.00000000,No status,0.0,"[-0.20000,-0.00000,-0.00000]","[-0.10000,-0.00000,-0.00000]",0.00000,0.00000,0.00000,0.00000,0.00000,0.00000
18:26:53.930853,4.90068,0.03100,0.00000,0.00000,[5.00000 0.00000 0.00000],[1.30000 0.00000 0.00000],-0.00181,0.01987,-0.00592,0.00000,0.00000,0.00692,0.00385,0.02086,0.03709,1.02327,4.87242,0.05372,0.00000,-0.01256,-0.00100,0.00000,0.00000,0.00000,0.00000,0.00000,0.00000,0.00000,0.00000,0.00000,0.00000000,0.00000000,No status,0.0,"[-0.20000,-0.00000,-0.00000]","[-0.10000,-0.00000,-0.00000]",0.00000,0.00000,0.00000,0.00000,0.00000,0.00000
18:26:53.970514,4.93960,0.02736,0.00000,0.00000,[5.00000 0.00000 0.00000],[1.30000 0.00000 0.00000],-0.00157,0.02870,0.00247,0.00000,0.00000,-0.01569,-0.00226,0.03739,0.03184,0.98173,4.91191,1.11355,0.00000,-0.01318,0.00351,0.00000,0.00000,0.00000,0.00000,0.00000,0.00000,0.00000,0.00000,0.00000,0.00000000,0.00000000,No status,0.0,"[-0.20000,-0.00000,-0.00000]","[-0.10000,-0.00000,-0.00000]",0.00000,0.00000,0.00000,0.00000,0.00000,0.00000
18:26:54.012493,4.98213,0.02805,0.00000,0.00000,[5.00000 0.00000 0.00000],[1.30000 0.00000 0.00000],-0.00031,0.04622,0.01194,0.00000,0.00000,0.01196,0.02569,-0.03526,0.07326,1.01870,4.95699,1.12576,0.00000,-0.01523,0.01165,0.00000,0.00000,0.00000,0.00000,0.00000,0.00000,0.00000,0.00000,0.00000,0.00000000,0.00000000,No status,0.0,"[-0.20000,-0.00000,-0.00000]","[-0.10000,-0.00000,-0.00000]",0.00000,0.00000,0.00000,0.00000,0.00000,0.00000
18:26:54.048903,5.01873,0.02616,0.00000,0.00000,[5.00000 0.00000 0.00000],[1.30000 0.00000 0.00000],0.00159,0.06481,0.04646,0.00000,0.00000,0.00982,0.07609,0.07930,0.03995,1.01961,4.99359,1.14042,0.00000,-0.01861,0.01912,0.00000,0.00000,0.00000,0.00000,0.00000,0.00000,0.00000,0.00000,0.00000,0.00000000,0.00000000,No status,0.0,"[-0.20000,-0.00000,-0.00000]","[-0.10000,-0.00000,-0.00000]",0.00000,0.00000,0.00000,0.00000,0.00000,0.00000
18:26:54.096164,5.06597,0.03429,0.00000,3.50000,[5.00000 0.00000 0.00000],[1.30000 0.00000 0.00000],0.00283,0.08675,0.05501,0.00000,0.00000,-0.04394,0.08556,-0.00494,0.04392,0.98905,5.03633,1.17460,0.70000,-0.02339,0.02713,0.00000,0.00000,0.00000,0.00000,0.00000,0.00000,0.00000,0.00000,0.00000,0.00000000,0.00000000,No status,0.0,"[-0.20000,-0.00000,-0.00000]","[-0.10000,-0.00000,-0.00000]",0.00000,0.00000,0.00000,0.00000,0.00000,0.00000
18:26:54.139460,5.10852,0.03006,0.00000,3.50000,[5.00000 0.00000 0.00000],[1.30000 0.00000 0.00000],0.00472,0.10911,0.07272,0.00000,0.00000,-0.02088,0.09731,-0.00848,0.04868,0.95325,5.08234,1.15751,1.26000,-0.02744,0.03617,0.02933,0.00080,0.00000,0.00000,0.00000,0.00000,0.00000,0.00000,0.00000,0.00000000,0.00000000,No status,0.0,"[-0.20000,-0.00000,-0.00000]","[-0.10000,-0.00000,-0.00000]",0.16614,0.00000,0.00000,0.00000,0.00000,0.00000
18:26:54.178536,5.14747,0.03032,0.00000,3.50000,[5.00000 0.00000 0.00000],[1.30000 0.00000 0.00000],0.00702,0.12569,0.10220,0.00000,0.00000,-0.03493,0.12236,-0.00250,0.05289,1.04578,5.12033,1.14286,1.70800,-0.03075,0.04259,0.06987,0.00228,0.00000,0.00000,0.00000,0.00000,0.00000,0.00000,0.00000,0.00000000,0.00000000,No status,0.0,"[-0.20000,-0.00000,-0.00000]","[-0.10000,-0.00000,-0.00000]",0.30147,0.00000,0.00000,0.00000,0.00000,0.00000
18:26:54.223033,5.19286,0.03105,0.00000,3.50000,[5.00000 0.00000 0.00000],[1.30000 0.00000 0.00000],0.00932,0.13718,0.09242,0.00000,0.00000,-0.00148,0.12053,-0.00665,0.05972,1.01510,5.16394,1.15751,2.06640,-0.03151,0.04859,0.13409,0.00505,0.00000,0.00000,0.00000,0.00000,0.00000,0.00000,0.00000,0.00000000,0.00000000,No status,0.0,"[-0.20000,-0.00000,-0.00000]","[-0.10000,-0.00000,-0.00000]",0.45769,0.00000,0.00000,0.00000,0.00000,0.00000
18:26:54.266499,5.23633,0.02844,0.00000,3.50000,[5.00000 0.00000 0.00000],[1.30000 0.00000 0.00000],0.01123,0.14174,0.09533,0.00000,0.00000,-0.02515,0.12144,-0.03520,0.01122,0.99833,5.21105,1.00122,2.35312,-0.02966,0.05313,0.21643,0.00913,0.00000,0.00000,0.00000,0.00000,0.00000,0.00000,0.00000,0.00000000,0.00000000,No status,0.0,"[-0.20000,-0.00000,-0.00000]","[-0.10000,-0.00000,-0.00000]",0.61887,0.00000,0.00000,0.00000,0.00000,0.00000
18:26:54.307510,5.27734,0.03013,0.00000,3.50000,[5.00000 0.00000 0.00000],[1.30000 0.00000 0.00000],0.01232,0.14185,0.07776,0.00000,0.00000,-0.01034,0.11152,0.00811,0.05368,1.01120,5.24995,1.18193,2.58250,-0.02852,0.05433,0.28788,0.01304,0.00000,0.00000,0.00000,0.00000,0.00000,0.00000,0.00000,0.00000000,0.00000000,No status,0.0,"[-0.20000,-0.00000,-0.00000]","[-0.10000,-0.00000,-0.00000]",0.75643,0.00000,0.00000,0.00000,0.00000,0.00000
18:26:54.352422,5.32207,0.03108,0.00000,3.50000,[5.00000 0.00000 0.00000],[1.30000 0.00000 0.00000],0.01282,0.14165,0.04921,0.00000,0.00000,-0.01584,0.10449,0.02007,0.07576,1.01480,5.29299,1.21123,2.76600,-0.02569,0.05704,0.37231,0.01777,0.00000,0.00000,0.00000,0.00000,0.00000,0.00000,0.00000,0.00000000,0.00000000,No status,0.0,"[-0.20000,-0.00000,-0.00000]","[-0.10000,-0.00000,-0.00000]",0.90956,0.00000,0.00000,0.00000,0.00000,0.00000
18:26:54.406451,5.37628,0.03742,0.00000,3.50000,[5.00000 0.00000 0.00000],[1.30000 0.00000 0.00000],0.01154,0.12971,0.02462,0.00000,0.00000,0.01608,0.07517,0.10687,0.01867,0.88651,5.34261,1.15018,2.91280,-0.01931,0.05640,0.47908,0.02404,0.00000,0.00000,0.00000,0.00000,0.00000,0.00000,0.00000,0.00000000,0.00000000,No status,0.0,"[-0.20000,-0.00000,-0.00000]","[-0.10000,-0.00000,-0.00000]",1.07699,0.00000,0.00000,0.00000,0.00000,0.00000
18:26:54.451754,5.42158,0.03490,0.00000,3.50000,[5.00000 0.00000 0.00000],[1.30000 0.00000 0.00000],0.00997,0.11358,0.00232,0.00000,0.00000,0.01272,0.05868,0.05026,0.04020,0.99784,5.39055,1.15751,3.03024,-0.01351,0.05272,0.58174,0.02998,0.00000,0.00000,0.00000,0.00000,0.00000,0.00000,0.00000,0.00000000,0.00000000,No status,0.0,"[-0.20000,-0.00000,-0.00000]","[-0.10000,-0.00000,-0.00000]",1.24429,0.00000,0.00000,0.00000,0.00000,0.00000
18:26:54.493270,5.46310,0.03118,0.00000,3.50000,[5.00000 0.00000 0.00000],[1.30000 0.00000 0.00000],0.00876,0.10090,-0.00088,0.00000,0.00000,0.01990,0.04325,-0.12853,0.05545,1.09983,5.43497,1.15507,3.12419,-0.00967,0.04913,0.67257,0.03481,0.00000,0.00000,0.00000,0.00000,0.00000,0.00000,0.00000,0.00000000,0.00000000,No status,0.0,"[-0.20000,-0.00000,-0.00000]","[-0.10000,-0.00000,-0.00000]",1.40254,0.00000,0.00000,0.00000,0.00000,0.00000
18:26:54.543147,5.51297,0.03581,0.00000,3.50000,[5.00000 0.00000 0.00000],[1.30000 0.00000 0.00000],0.00868,0.09518,0.01103,0.00000,0.00000,-0.02561,0.06387,-0.10077,0.09315,0.93708,5.47969,1.11355,3.19935,-0.00676,0.04870,0.76315,0.03918,0.00000,0.00000,0.00000,0.00000,0.00000,0.00000,0.00000,0.00000000,0.00000000,No status,0.0,"[-0.20000,-0.00000,-0.00000]","[-0.10000,-0.00000,-0.00000]",1.56082,0.00000,0.00000,0.00000,0.00000,0.00000
18:26:54.585061,5.55490,0.03017,0.00000,3.50000,[5.00000 0.00000 0.00000],[1.30000 0.00000 0.00000],0.00802,0.08949,0.00568,0.00000,0.00000,-0.00301,0.03623,-0.00689,0.06185,1.07433,5.52605,1.15018,3.25948,-0.00364,0.04849,0.85863,0.04373,0.00000,0.00000,0.00000,0.00000,0.00000,0.00000,0.00000,0.00000000,0.00000000,No status,0.0,"[-0.20000,-0.00000,-0.00000]","[-0.10000,-0.00000,-0.00000]",1.72723,0.00000,0.00000,0.00000,0.00000,0.00000
18:26:54.629340,5.59916,0.03220,0.00000,3.50000,[5.00000 0.00000 0.00000],[1.30000 0.00000 0.00000],0.00753,0.08683,0.00660,0.00000,0.00000,-0.01798,0.03424,0.08015,0.07064,0.95178,5.56915,1.12332,3.30759,-0.00216,0.04841,0.93780,0.04747,0.00000,0.00000,0.00000,0.00000,0.00000,0.00000,0.00000,0.00000000,0.00000000,No status,0.0,"[-0.20000,-0.00000,-0.00000]","[-0.10000,-0.00000,-0.00000]",1.87495,0.00000,0.00000,0.00000,0.00000,0.00000
18:26:54.667770,5.63761,0.02438,0.00000,3.50000,[5.00000 0.00000 0.00000],[1.30000 0.00000 0.00000],0.00702,0.08179,0.01164,0.00000,0.00000,-0.00057,0.03333,-0.04203,0.04520,1.01571,5.61653,1.19902,3.34607,0.00063,0.04827,1.03291,0.05198,0.00000,0.00000,0.00000,0.00000,0.00000,0.00000,0.00000,0.00000000,0.00000000,No status,0.0,"[-0.20000,-0.00000,-0.00000]","[-0.10000,-0.00000,-0.00000]",2.03680,0.00000,0.00000,0.00000,0.00000,0.00000
18:26:54.716487,5.68612,0.03551,0.00000,3.50000,[5.00000 0.00000 0.00000],[1.30000 0.00000 0.00000],0.00676,0.07990,0.00278,0.00000,0.00000,0.00233,0.02966,0.08693,0.08833,0.91805,5.65271,1.91697,3.37685,0.00051,0.04704,1.09024,0.05464,0.00000,0.00000,0.00000,0.00000,0.00000,0.00000,0.00000,0.00000000,0.00000000,No status,0.0,"[-0.20000,-0.00000,-0.00000]","[-0.10000,-0.00000,-0.00000]",2.16756,0.00000,0.00000,0.00000,0.00000,0.00000
18:26:54.764169,5.73399,0.03224,0.00000,3.50000,[5.00000 0.00000 0.00000],[1.30000 0.00000 0.00000],0.00551,0.07843,0.00950,0.00000,0.00000,-0.02607,0.02737,0.01074,-0.01220,1.09257,5.70454,1.20391,3.40148,0.00321,0.04888,1.19030,0.05919,0.00000,0.00000,0.00000,0.00000,0.00000,0.00000,0.00000,0.00000000,0.00000000,No status,0.0,"[-0.20000,-0.00000,-0.00000]","[-0.10000,-0.00000,-0.00000]",2.34643,0.00000,0.00000,0.00000,0.00000,0.00000
18:26:54.817231,5.78645,0.03927,0.00000,3.50000,[5.00000 0.00000 0.00000],[1.30000 0.00000 0.00000],0.00516,0.07395,0.00721,0.00000,0.00000,0.01104,0.02706,0.06484,0.06185,0.94977,5.75040,1.12088,3.42119,0.00463,0.04769,1.26748,0.06291,0.00000,0.00000,0.00000,0.00000,0.00000,0.00000,0.00000,0.00000000,0.00000000,No status,0.0,"[-0.20000,-0.00000,-0.00000]","[-0.10000,-0.00000,-0.00000]",2.50534,0.00000,0.00000,0.00000,0.00000,0.00000
18:26:54.860562,5.83039,0.03145,0.00000,3.50000,[5.00000 0.00000 0.00000],[1.30000 0.00000 0.00000],0.00381,0.06742,-0.02211,0.00000,0.00000,-0.01767,0.01027,-0.07564,0.08375,1.04243,5.80175,1.16728,3.43695,0.00727,0.04651,1.36393,0.06740,0.00000,0.00000,0.00000,0.00000,0.00000,0.00000,0.00000,0.00000000,0.00000000,No status,0.0,"[-0.20000,-0.00000,-0.00000]","[-0.10000,-0.00000,-0.00000]",2.68583,0.00000,0.00000,0.00000,0.00000,0.00000
18:26:54.900483,5.87012,0.03016,0.00000,3.50000,[5.00000 0.00000 0.00000],[1.30000 0.00000 0.00000],0.00160,0.05921,-0.02562,0.00000,0.00000,0.00951,0.00294,0.10199,0.00726,1.05353,5.84269,1.12576,3.44956,0.00760,0.04206,1.42117,0.06986,0.00000,0.00000,0.00000,0.00000,0.00000,0.00000,0.00000,0.00000000,0.00000000,No status,0.0,"[-0.20000,-0.00000,-0.00000]","[-0.10000,-0.00000,-0.00000]",2.82991,0.00000,0.00000,0.00000,0.00000,0.00000
18:26:54.940013,5.90984,0.02618,0.00000,3.50000,[5.00000 0.00000 0.00000],[1.30000 0.00000 0.00000],0.00004,0.05086,-0.02669,0.00000,0.00000,-0.00713,0.00065,-0.08015,0.04904,0.90914,5.88524,1.15995,3.45965,0.00813,0.03773,1.48261,0.07195,0.00000,0.00000,0.00000,0.00000,0.00000,0.00000,0.00000,0.00000000,0.00000000,No status,0.0,"[-0.20000,-0.00000,-0.00000]","[-0.10000,-0.00000,-0.00000]",2.98276,0.00000,0.00000,0.00000,0.00000,0.00000
18:26:54.978319,5.94815,0.03084,0.00000,3.50000,[5.00000 0.00000 0.00000],[1.30000 0.00000 0.00000],-0.00182,0.04220,-0.04609,0.00000,0.00000,0.03838,-0.02242,0.14195,0.05100,0.96471,5.92081,1.15263,3.46772,0.00745,0.03199,1.51487,0.07237,0.00000,0.00000,0.00000,0.00000,0.00000,0.00000,0.00000,0.00000000,0.00000000,No status,0.0,"[-0.20000,-0.00000,-0.00000]","[-0.10000,-0.00000,-0.00000]",3.10048,0.00000,0.00000,0.00000,0.00000,0.00000
18:26:55.013832,5.98367,0.02341,0.00000,3.50000,[5.00000 0.00000 0.00000],[1.30000 0.00000 0.00000],-0.00453,0.03710,-0.04807,0.00000,0.00000,-0.03126,-0.01417,0.02086,0.01006,0.96715,5.96171,1.21856,3.47417,0.00732,0.02890,1.56765,0.07286,0.00000,0.00000,0.00000,0.00000,0.00000,0.00000,0.00000,0.00000000,0.00000000,No status,0.0,"[-0.20000,-0.00000,-0.00000]","[-0.10000,-0.00000,-0.00000]",3.25073,0.00000,0.00000,0.00000,0.00000,0.00000
18:26:55.059234,6.02906,0.02942,0.00000,3.50000,[5.00000 0.00000 0.00000],[1.30000 0.00000 0.00000],-0.00754,0.03360,-0.04197,0.00000,0.00000,-0.00255,-0.02684,0.02855,-0.03465,0.99436,6.00210,1.13553,3.47934,0.00674,0.02628,1.60879,0.07267,0.00000,0.00000,0.00000,0.00000,0.00000,0.00000,0.00000,0.00000000,0.00000000,No status,0.0,"[-0.20000,-0.00000,-0.00000]","[-0.10000,-0.00000,-0.00000]",3.38843,0.00000,0.00000,0.00000,0.00000,0.00000
18:26:55.101151,6.07099,0.03036,0.00000,3.50000,[5.00000 0.00000 0.00000],[1.30000 0.00000 0.00000],-0.00957,0.03048,-0.03555,0.00000,0.00000,-0.00103,-0.03387,0.01793,0.01092,0.96471,6.04378,0.95726,3.48347,0.00648,0.02421,1.65892,0.07247,0.00000,0.00000,0.00000,0.00000,0.00000,0.00000,0.00000,0.00000000,0.00000000,No status,0.0,"[-0.20000,-0.00000,-0.00000]","[-0.10000,-0.00000,-0.00000]",3.53013,0.00000,0.00000,0.00000,0.00000,0.00000
18:26:55.145933,6.11576,0.03144,0.00000,3.50000,[5.00000 0.00000 0.00000],[1.30000 0.00000 0.00000],-0.01086,0.03045,-0.04319,0.00000,0.00000,0.00524,-0.00959,-0.02806,0.08583,1.08336,6.08661,1.17705,3.48678,0.00607,0.02378,1.71158,0.07213,0.00000,0.00000,0.00000,0.00000,0.00000,0.00000,0.00000,0.00000000,0.00000000,No status,0.0,"[-0.20000,-0.00000,-0.00000]","[-0.10000,-0.00000,-0.00000]",3.68291,0.00000,0.00000,0.00000,0.00000,0.00000
18:26:55.196560,6.16638,0.03481,0.00000,3.50000,[5.00000 0.00000 0.00000],[1.30000 0.00000 0.00000],-0.01232,0.03000,-0.03418,0.00000,0.00000,-0.01110,-0.01799,-0.03172,0.05478,0.93574,6.13542,0.85470,3.48942,0.00612,0.02357,1.77694,0.07212,0.00000,0.00000,0.00000,0.00000,0.00000,0.00000,0.00000,0.00000000,0.00000000,No status,0.0,"[-0.20000,-0.00000,-0.00000]","[-0.10000,-0.00000,-0.00000]",3.84760,0.00000,0.00000,0.00000,0.00000,0.00000
18:26:55.234854,6.20469,0.02458,0.00000,3.50000,[5.00000 0.00000 0.00000],[1.30000 0.00000 0.00000],-0.01454,0.03000,-0.03479,0.00000,0.00000,0.00081,-0.04273,0.01000,0.00811,1.01461,6.18498,1.17949,3.49154,0.00628,0.02373,1.84621,0.07224,0.00000,0.00000,0.00000,0.00000,0.00000,0.00000,0.00000,0.00000000,0.00000000,No status,0.0,"[-0.20000,-0.00000,-0.00000]","[-0.10000,-0.00000,-0.00000]",4.01804,0.00000,0.00000,0.00000,0.00000,0.00000
18:26:55.281753,6.25159,0.03456,0.00000,3.50000,[5.00000 0.00000 0.00000],[1.30000 0.00000 0.00000],-0.01545,0.03000,-0.03234,0.00000,0.00000,-0.01691,-0.01799,0.03038,0.05179,1.02547,6.21879,1.16484,3.49323,0.00527,0.02271,1.86295,0.07121,0.00000,0.00000,0.00000,0.00000,0.00000,0.00000,0.00000,0.00000000,0.00000000,No status,0.0,"[-0.20000,-0.00000,-0.00000]","[-0.10000,-0.00000,-0.00000]",4.14717,0.00000,0.00000,0.00000,0.00000,0.00000
18:26:55.323973,6.29380,0.02971,0.00000,3.50000,[5.00000 0.00000 0.00000],[1.30000 0.00000 0.00000],-0.01786,0.02720,-0.05632,0.00000,0.00000,-0.01752,-0.03601,-0.05612,0.05209,1.01156,6.26617,1.19902,3.49458,0.00550,0.02132,1.91543,0.07096,0.00000,0.00000,0.00000,0.00000,0.00000,0.00000,0.00000,0.00000000,0.00000000,No status,0.0,"[-0.20000,-0.00000,-0.00000]","[-0.10000,-0.00000,-0.00000]",4.31178,0.00000,0.00000,0.00000,0.00000,0.00000
18:26:55.366035,6.33586,0.03057,0.00000,3.50000,[5.00000 0.00000 0.00000],[1.30000 0.00000 0.00000],-0.02017,0.02208,-0.05525,0.00000,0.00000,-0.00041,-0.04410,-0.08101,0.02184,0.94300,6.30658,1.20391,3.49567,0.00541,0.01825,1.94505,0.07009,0.00000,0.00000,0.00000,0.00000,0.00000,0.00000,0.00000,0.00000000,0.00000000,No status,0.0,"[-0.20000,-0.00000,-0.00000]","[-0.10000,-0.00000,-0.00000]",4.45589,0.00000,0.00000,0.00000,0.00000,0.00000
18:26:55.407270,6.37709,0.03056,0.00000,3.50000,[5.00000 0.00000 0.00000],[1.30000 0.00000 0.00000],-0.02282,0.02151,-0.06258,0.00000,0.00000,0.05212,-0.01844,0.10022,0.02111,0.95502,6.34825,1.17949,3.49653,0.00496,0.01746,1.97793,0.06896,0.00000,0.00000,0.00000,0.00000,0.00000,0.00000,0.00000,0.00000000,0.00000000,No status,0.0,"[-0.20000,-0.00000,-0.00000]","[-0.10000,-0.00000,-0.00000]",4.60016,0.00000,0.00000,0.00000,0.00000,0.00000
18:26:55.451636,6.42148,0.03006,0.00000,3.50000,[5.00000 0.00000 0.00000],[1.30000 0.00000 0.00000],-0.02656,0.02038,-0.07220,0.00000,0.00000,0.01058,-0.03372,0.07168,0.00030,1.12972,6.39672,1.19170,3.49723,0.00493,0.01678,2.02783,0.06811,0.00000,0.00000,0.00000,0.00000,0.00000,0.00000,0.00000,0.00000000,0.00000000,No status,0.0,"[-0.20000,-0.00000,-0.00000]","[-0.10000,-0.00000,-0.00000]",4.75719,0.00000,0.00000,0.00000,0.00000,0.00000
18:26:55.490647,6.46048,0.02585,0.00000,3.50000,[5.00000 0.00000 0.00000],[1.30000 0.00000 0.00000],-0.02888,0.01857,-0.06426,0.00000,0.00000,0.01562,-0.04303,-0.02123,0.02739,0.83600,6.43623,0.99878,3.49778,0.00455,0.01535,2.05162,0.06680,0.00000,0.00000,0.00000,0.00000,0.00000,0.00000,0.00000,0.00000000,0.00000000,No status,0.0,"[-0.20000,-0.00000,-0.00000]","[-0.10000,-0.00000,-0.00000]",4.90833,0.00000,0.00000,0.00000,0.00000,0.00000
18:26:55.519446,6.48928,0.02124,0.00000,3.50000,[5.00000 0.00000 0.00000],[1.30000 0.00000 0.00000],-0.03076,0.01857,-0.05113,0.00000,0.00000,0.00783,-0.01402,-0.10224,0.00360,0.91592,6.46984,1.17705,3.49823,0.00374,0.01453,2.05198,0.06504,0.00000,0.00000,0.00000,0.00000,0.00000,0.00000,0.00000,0.00000000,0.00000000,No status,0.0,"[-0.20000,-0.00000,-0.00000]","[-0.10000,-0.00000,-0.00000]",5.02520,0.00000,0.00000,0.00000,0.00000,0.00000
18:26:55.545662,6.51550,0.01953,0.00000,3.50000,[5.00000 0.00000 0.00000],[1.30000 0.00000 0.00000],-0.03101,0.01857,-0.04471,0.00000,0.00000,0.09030,-0.02135,0.01446,0.08449,1.18871,6.49647,1.17216,3.49858,0.00271,0.01351,2.02934,0.06295,0.00000,0.00000,0.00000,0.00000,0.00000,0.00000,0.00000,0.00000000,0.00000000,No status,0.0,"[-0.20000,-0.00000,-0.00000]","[-0.10000,-0.00000,-0.00000]",5.12290,0.00000,0.00000,0.00000,0.00000,0.00000
18:26:55.571975,6.54181,0.01992,0.00000,3.50000,[5.00000 0.00000 0.00000],[1.30000 0.00000 0.00000],-0.03192,0.01857,-0.03066,0.00000,0.00000,0.01379,-0.03036,0.16531,0.00458,1.10495,6.52303,1.16728,3.49886,0.00188,0.01268,2.01057,0.06092,0.00000,0.00000,0.00000,0.00000,0.00000,0.00000,0.00000,0.00000000,0.00000000,No status,0.0,"[-0.20000,-0.00000,-0.00000]","[-0.10000,-0.00000,-0.00000]",5.21356,0.00000,0.00000,0.00000,0.00000,0.00000
18:26:55.597804,6.56734,0.01818,0.00000,3.50000,[5.00000 0.00000 0.00000],[1.30000 0.00000 0.00000],-0.03290,0.01857,-0.03173,0.00000,0.00000,-0.09647,-0.01936,-0.03861,0.00122,1.01333,6.54960,1.15263,3.49909,0.00116,0.01195,1.99154,0.05891,0.00000,0.00000,0.00000,0.00000,0.00000,0.00000,0.00000,0.00000000,0.00000000,No status,0.0,"[-0.20000,-0.00000,-0.00000]","[-0.10000,-0.00000,-0.00000]",5.30891,0.00000,0.00000,0.00000,0.00000,0.00000
18:26:55.625084,6.59492,0.01994,0.00000,3.50000,[5.00000 0.00000 0.00000],[1.30000 0.00000 0.00000],-0.03428,0.01857,-0.03357,0.00000,0.00000,-0.02592,-0.02364,-0.01177,-0.02105,0.92293,6.57563,1.18681,3.49927,0.00051,0.01131,1.97145,0.05691,0.00000,0.00000,0.00000,0.00000,0.00000,0.00000,0.00000,0.00000000,0.00000000,No status,0.0,"[-0.20000,-0.00000,-0.00000]","[-0.10000,-0.00000,-0.00000]",5.39922,0.00000,0.00000,0.00000,0.00000,0.00000
18:26:55.651217,6.62105,0.01970,0.00000,3.50000,[5.00000 0.00000 0.00000],[1.30000 0.00000 0.00000],-0.03419,0.01857,-0.02333,0.00000,0.00000,0.04632,-0.04089,-0.07954,0.05087,0.86681,6.60194,1.15751,3.49942,-0.00007,0.01073,1.95013,0.05494,0.00000,0.00000,0.00000,0.00000,0.00000,0.00000,0.00000,0.00000000,0.00000000,No status,0.0,"[-0.20000,-0.00000,-0.00000]","[-0.10000,-0.00000,-0.00000]",5.49143,0.00000,0.00000,0.00000,0.00000,0.00000
18:26:55.679468,6.64929,0.01999,0.00000,3.50000,[5.00000 0.00000 0.00000],[1.30000 0.00000 0.00000],-0.03388,0.01857,-0.00699,0.00000,0.00000,0.05288,-0.02394,-0.00427,0.04185,0.95252,6.63093,1.17949,3.49953,-0.00038,0.01041,1.94223,0.05316,0.00000,0.00000,0.00000,0.00000,0.00000,0.00000,0.00000,0.00000000,0.00000000,No status,0.0,"[-0.20000,-0.00000,-0.00000]","[-0.10000,-0.00000,-0.00000]",5.58917,0.00000,0.00000,0.00000,0.00000,0.00000
18:26:55.705625,6.67547,0.01780,0.00000,3.50000,[5.00000 0.00000 0.00000],[1.30000 0.00000 0.00000],-0.03466,0.01857,0.00141,0.00000,0.00000,0.00676,0.00339,0.15512,-0.05581,1.17907,6.65814,1.19170,3.49963,-0.00074,0.01006,1.92874,0.05137,0.00000,0.00000,0.00000,0.00000,0.00000,0.00000,0.00000,0.00000000,0.00000000,No status,0.0,"[-0.20000,-0.00000,-0.00000]","[-0.10000,-0.00000,-0.00000]",5.68839,0.00000,0.00000,0.00000,0.00000,0.00000
18:26:55.729215,6.69905,0.01722,0.00000,3.50000,[5.00000 0.00000 0.00000],[1.30000 0.00000 0.00000],-0.03285,0.01857,-0.00577,0.00000,0.00000,-0.04180,0.00156,-0.04178,0.14237,1.02834,6.68229,1.19170,3.49970,-0.00121,0.00959,1.90413,0.04952,0.00000,0.00000,0.00000,0.00000,0.00000,0.00000,0.00000,0.00000000,0.00000000,No status,0.0,"[-0.20000,-0.00000,-0.00000]","[-0.10000,-0.00000,-0.00000]",5.77287,0.00000,0.00000,0.00000,0.00000,0.00000
18:26:55.761935,6.73178,0.02579,0.00000,3.50000,[5.00000 0.00000 0.00000],[1.30000 0.00000 0.00000],-0.03277,0.01927,0.01820,0.00000,0.00000,0.00401,-0.01218,0.01244,-0.00756,0.85418,6.70636,1.06960,3.49976,-0.00165,0.00955,1.88192,0.04775,0.00000,0.00000,0.00000,0.00000,0.00000,0.00000,0.00000,0.00000000,0.00000000,No status,0.0,"[-0.20000,-0.00000,-0.00000]","[-0.10000,-0.00000,-0.00000]",5.85733,0.00000,0.00000,0.00000,0.00000,0.00000
18:26:55.786388,6.75622,0.01780,0.00000,3.50000,[5.00000 0.00000 0.00000],[1.30000 0.00000 0.00000],-0.03283,0.02309,-0.01387,0.00000,0.00000,-0.01477,-0.01753,-0.15921,0.04093,0.99308,6.73876,1.15507,3.49981,-0.00191,0.01152,1.88846,0.04632,0.00000,0.00000,0.00000,0.00000,0.00000,0.00000,0.00000,0.00000000,0.00000000,No status,0.0,"[-0.20000,-0.00000,-0.00000]","[-0.10000,-0.00000,-0.00000]",5.97079,0.00000,0.00000,0.00000,0.00000,0.00000
18:26:55.810680,6.78052,0.01726,0.00000,3.50000,[5.00000 0.00000 0.00000],[1.30000 0.00000 0.00000],-0.03268,0.02694,-0.00990,0.00000,0.00000,0.03914,-0.01554,0.04648,0.04636,1.04578,6.76407,1.18437,3.49985,-0.00259,0.01308,1.87123,0.04489,0.00000,0.00000,0.00000,0.00000,0.00000,0.00000,0.00000,0.00000000,0.00000000,No status,0.0,"[-0.20000,-0.00000,-0.00000]","[-0.10000,-0.00000,-0.00000]",6.05765,0.00000,0.00000,0.00000,0.00000,0.00000
18:26:55.834497,6.80418,0.01705,0.00000,3.50000,[5.00000 0.00000 0.00000],[1.30000 0.00000 0.00000],-0.03232,0.02949,0.00354,0.00000,0.00000,-0.01645,0.00950,0.05392,0.04191,1.09342,6.78759,1.21856,3.49988,-0.00326,0.01389,1.84979,0.04359,0.00000,0.00000,0.00000,0.00000,0.00000,0.00000,0.00000,0.00000000,0.00000000,No status,0.0,"[-0.20000,-0.00000,-0.00000]","[-0.10000,-0.00000,-0.00000]",6.14112,0.00000,0.00000,0.00000,0.00000,0.00000
18:26:55.862395,6.83223,0.02125,0.00000,3.50000,[5.00000 0.00000 0.00000],[1.30000 0.00000 0.00000],-0.03215,0.03065,0.00141,0.00000,0.00000,-0.01920,0.03119,-0.03977,0.03245,1.05829,6.81221,1.12332,3.49990,-0.00371,0.01412,1.83304,0.04247,0.00000,0.00000,0.00000,0.00000,0.00000,0.00000,0.00000,0.00000000,0.00000000,No status,0.0,"[-0.20000,-0.00000,-0.00000]","[-0.10000,-0.00000,-0.00000]",6.22451,0.00000,0.00000,0.00000,0.00000,0.00000
18:26:55.887455,6.85729,0.01933,0.00000,3.50000,[5.00000 0.00000 0.00000],[1.30000 0.00000 0.00000],-0.03174,0.03071,-0.00379,0.00000,0.00000,-0.00148,0.00920,0.02092,0.05563,0.93208,6.83829,0.08547,3.49992,-0.00391,0.01395,1.82189,0.04148,0.00000,0.00000,0.00000,0.00000,0.00000,0.00000,0.00000,0.00000000,0.00000000,No status,0.0,"[-0.20000,-0.00000,-0.00000]","[-0.10000,-0.00000,-0.00000]",6.31884,0.00000,0.00000,0.00000,0.00000,0.00000
18:26:55.912876,6.88271,0.01726,0.00000,3.50000,[5.00000 0.00000 0.00000],[1.30000 0.00000 0.00000],-0.03229,0.03181,-0.01066,0.00000,0.00000,0.01822,-0.00714,-0.04618,0.00921,0.94892,6.86600,1.06471,3.49994,-0.00407,0.01443,1.81559,0.04059,0.00000,0.00000,0.00000,0.00000,0.00000,0.00000,0.00000,0.00000000,0.00000000,No status,0.0,"[-0.20000,-0.00000,-0.00000]","[-0.10000,-0.00000,-0.00000]",6.41502,0.00000,0.00000,0.00000,0.00000,0.00000
18:26:55.936885,6.90672,0.01755,0.00000,3.50000,[5.00000 0.00000 0.00000],[1.30000 0.00000 0.00000],-0.03367,0.03396,-0.02013,0.00000,0.00000,0.01654,-0.01050,0.09345,-0.03459,1.01297,6.88963,1.12576,3.49995,-0.00466,0.01510,1.79622,0.03959,0.00000,0.00000,0.00000,0.00000,0.00000,0.00000,0.00000,0.00000000,0.00000000,No status,0.0,"[-0.20000,-0.00000,-0.00000]","[-0.10000,-0.00000,-0.00000]",6.49795,0.00000,0.00000,0.00000,0.00000,0.00000
18:26:55.961925,6.93176,0.01856,0.00000,3.50000,[5.00000 0.00000 0.00000],[1.30000 0.00000 0.00000],-0.03386,0.03510,-0.01585,0.00000,0.00000,0.00539,-0.00317,-0.00769,0.03953,1.04755,6.91362,1.52869,3.49996,-0.00511,0.01530,1.77852,0.03870,0.00000,0.00000,0.00000,0.00000,0.00000,0.00000,0.00000,0.00000000,0.00000000,No status,0.0,"[-0.20000,-0.00000,-0.00000]","[-0.10000,-0.00000,-0.00000]",6.58200,0.00000,0.00000,0.00000,0.00000,0.00000
18:26:55.983538,6.95338,0.01576,0.00000,3.50000,[5.00000 0.00000 0.00000],[1.30000 0.00000 0.00000],-0.03457,0.03510,-0.00990,0.00000,0.00000,0.01226,-0.00058,0.01946,-0.00604,1.01309,6.93792,1.18193,3.49997,-0.00542,0.01500,1.76255,0.03788,0.00000,0.00000,0.00000,0.00000,0.00000,0.00000,0.00000,0.00000000,0.00000000,No status,0.0,"[-0.20000,-0.00000,-0.00000]","[-0.10000,-0.00000,-0.00000]",6.66737,0.00000,0.00000,0.00000,0.00000,0.00000
18:26:56.014585,6.98443,0.02490,0.00000,3.50000,[5.00000 0.00000 0.00000],[1.30000 0.00000 0.00000],-0.03433,0.03510,-0.00959,0.00000,0.00000,0.00127,-0.00149,0.01141,0.05490,0.94105,6.95987,1.17705,3.49997,-0.00586,0.01455,1.74034,0.03698,0.00000,0.00000,0.00000,0.00000,0.00000,0.00000,0.00000,0.00000000,0.00000000,No status,0.0,"[-0.20000,-0.00000,-0.00000]","[-0.10000,-0.00000,-0.00000]",6.74398,0.00000,0.00000,0.00000,0.00000,0.00000
18:26:56.038489,7.00833,0.01713,0.00000,3.50000,[5.00000 0.00000 0.00000],[1.30000 0.00000 0.00000],-0.03528,0.03510,-0.01234,0.00000,0.00000,0.01257,-0.00989,-0.03416,-0.01324,1.03688,6.99169,1.16728,3.49998,-0.00558,0.01483,1.74356,0.03644,0.00000,0.00000,0.00000,0.00000,0.00000,0.00000,0.00000,0.00000000,0.00000000,No status,0.0,"[-0.20000,-0.00000,-0.00000]","[-0.10000,-0.00000,-0.00000]",6.85477,0.00000,0.00000,0.00000,0.00000,0.00000
18:26:56.063227,7.03307,0.01797,0.00000,3.50000,[5.00000 0.00000 0.00000],[1.30000 0.00000 0.00000],-0.03579,0.03510,-0.00852,0.00000,0.00000,0.01852,-0.00837,0.01745,0.00110,1.10398,7.01557,1.15751,3.49998,-0.00581,0.01461,1.72967,0.03570,0.00000,0.00000,0.00000,0.00000,0.00000,0.00000,0.00000,0.00000000,0.00000000,No status,0.0,"[-0.20000,-0.00000,-0.00000]","[-0.10000,-0.00000,-0.00000]",6.93830,0.00000,0.00000,0.00000,0.00000,0.00000
18:26:56.084941,7.05478,0.01585,0.00000,3.50000,[5.00000 0.00000 0.00000],[1.30000 0.00000 0.00000],-0.03568,0.03510,0.00156,0.00000,0.00000,0.05151,-0.00775,0.04270,0.02977,1.00162,7.03927,1.17949,3.49999,-0.00601,0.01440,1.71592,0.03498,0.00000,0.00000,0.00000,0.00000,0.00000,0.00000,0.00000,0.00000000,0.00000000,No status,0.0,"[-0.20000,-0.00000,-0.00000]","[-0.10000,-0.00000,-0.00000]",7.02167,0.00000,0.00000,0.00000,0.00000,0.00000
18:26:56.120494,7.09016,0.02969,0.00000,3.50000,[5.00000 0.00000 0.00000],[1.30000 0.00000 0.00000],-0.03501,0.03510,-0.00318,0.00000,0.00000,-0.03371,-0.00088,-0.01568,0.07149,0.90005,7.06844,1.15995,3.49999,-0.00569,0.01472,1.72097,0.03454,0.00000,0.00000,0.00000,0.00000,0.00000,0.00000,0.00000,0.00000000,0.00000000,No status,0.0,"[-0.20000,-0.00000,-0.00000]","[-0.10000,-0.00000,-0.00000]",7.09698,0.00000,0.00000,0.00000,0.00000,0.00000
18:26:56.144173,7.11402,0.01721,0.00000,3.50000,[5.00000 0.00000 0.00000],[1.30000 0.00000 0.00000],-0.03545,0.03510,-0.00012,0.00000,0.00000,-0.00744,0.00095,0.07912,0.00518,0.77604,7.09729,1.16239,3.49999,-0.00574,0.01467,1.71378,0.03398,0.00000,0.00000,0.00000,0.00000,0.00000,0.00000,0.00000,0.00000000,0.00000000,No status,0.0,"[-0.20000,-0.00000,-0.00000]","[-0.10000,-0.00000,-0.00000]",7.22408,0.00000,0.00000,0.00000,0.00000,0.00000
18:26:56.168470,7.13813,0.01714,0.00000,3.50000,[5.00000 0.00000 0.00000],[1.30000 0.00000 0.00000],-0.03522,0.03510,-0.00272,0.00000,0.00000,-0.05432,-0.00516,-0.02763,0.04483,1.02828,7.12149,1.18681,3.49999,-0.00594,0.01447,1.70141,0.03335,0.00000,0.00000,0.00000,0.00000,0.00000,0.00000,0.00000,0.00000000,0.00000000,No status,0.0,"[-0.20000,-0.00000,-0.00000]","[-0.10000,-0.00000,-0.00000]",7.30867,0.00000,0.00000,0.00000,0.00000,0.00000
18:26:56.192150,7.16199,0.01722,0.00000,3.50000,[5.00000 0.00000 0.00000],[1.30000 0.00000 0.00000],-0.03556,0.03510,0.01408,0.00000,0.00000,0.02494,-0.01157,-0.02727,-0.03141,1.20884,7.14523,1.16728,3.49999,-0.00615,0.01426,1.68816,0.03272,0.00000,0.00000,0.00000,0.00000,0.00000,0.00000,0.00000,0.00000000,0.00000000,No status,0.0,"[-0.20000,-0.00000,-0.00000]","[-0.10000,-0.00000,-0.00000]",7.39182,0.00000,0.00000,0.00000,0.00000,0.00000
18:26:56.218077,7.18792,0.01715,0.00000,3.50000,[5.00000 0.00000 0.00000],[1.30000 0.00000 0.00000],-0.03485,0.03510,-0.00012,0.00000,0.00000,0.00371,-0.00394,0.02830,0.07613,1.09355,7.17155,1.16728,3.50000,-0.00609,0.01432,1.68420,0.03224,0.00000,0.00000,0.00000,0.00000,0.00000,0.00000,0.00000,0.00000000,0.00000000,No status,0.0,"[-0.20000,-0.00000,-0.00000]","[-0.10000,-0.00000,-0.00000]",7.48271,0.00000,0.00000,0.00000,0.00000,0.00000
18:26:56.241949,7.21179,0.01736,0.00000,3.50000,[5.00000 0.00000 0.00000],[1.30000 0.00000 0.00000],-0.03400,0.03549,0.01683,0.00000,0.00000,-0.03981,0.03042,0.11877,0.05331,0.84479,7.19476,0.99390,3.50000,-0.00633,0.01431,1.67106,0.03164,0.00000,0.00000,0.00000,0.00000,0.00000,0.00000,0.00000,0.00000000,0.00000000,No status,0.0,"[-0.20000,-0.00000,-0.00000]","[-0.10000,-0.00000,-0.00000]",7.56546,0.00000,0.00000,0.00000,0.00000,0.00000
18:26:56.267240,7.23706,0.01957,0.00000,3.50000,[5.00000 0.00000 0.00000],[1.30000 0.00000 0.00000],-0.03410,0.03674,0.02752,0.00000,0.00000,-0.05616,0.03165,-0.06124,-0.01885,0.97789,7.21779,1.20879,3.50000,-0.00667,0.01469,1.65685,0.03105,0.00000,0.00000,0.00000,0.00000,0.00000,0.00000,0.00000,0.00000000,0.00000000,No status,0.0,"[-0.20000,-0.00000,-0.00000]","[-0.10000,-0.00000,-0.00000]",7.64607,0.00000,0.00000,0.00000,0.00000,0.00000
18:26:56.295414,7.26525,0.01707,0.00000,3.50000,[5.00000 0.00000 0.00000],[1.30000 0.00000 0.00000],-0.03439,0.03770,-0.00944,0.00000,0.00000,-0.04134,-0.00623,0.10638,0.03013,0.88541,7.24858,1.33089,3.50000,-0.00624,0.01569,1.66917,0.03090,0.00000,0.00000,0.00000,0.00000,0.00000,0.00000,0.00000,0.00000000,0.00000000,No status,0.0,"[-0.20000,-0.00000,-0.00000]","[-0.10000,-0.00000,-0.00000]",7.75342,0.00000,0.00000,0.00000,0.00000,0.00000
18:26:56.319995,7.28984,0.01697,0.00000,3.50000,[5.00000 0.00000 0.00000],[1.30000 0.00000 0.00000],-0.03357,0.03897,0.00293,0.00000,0.00000,-0.02241,-0.00684,-0.19776,0.08430,1.11831,7.27341,1.12821,3.50000,-0.00646,0.01621,1.66210,0.03055,0.00000,0.00000,0.00000,0.00000,0.00000,0.00000,0.00000,0.00000000,0.00000000,No status,0.0,"[-0.20000,-0.00000,-0.00000]","[-0.10000,-0.00000,-0.00000]",7.83977,0.00000,0.00000,0.00000,0.00000,0.00000
18:26:56.343792,7.31363,0.01719,0.00000,3.50000,[5.00000 0.00000 0.00000],[1.30000 0.00000 0.00000],-0.03395,0.04070,0.00568,0.00000,0.00000,0.02814,0.01790,0.03843,-0.01415,1.29106,7.29691,1.22100,3.50000,-0.00689,0.01678,1.65006,0.03018,0.00000,0.00000,0.00000,0.00000,0.00000,0.00000,0.00000,0.00000000,0.00000000,No status,0.0,"[-0.20000,-0.00000,-0.00000]","[-0.10000,-0.00000,-0.00000]",7.92220,0.00000,0.00000,0.00000,0.00000,0.00000
18:26:56.376983,7.34682,0.02683,0.00000,3.50000,[5.00000 0.00000 0.00000],[1.30000 0.00000 0.00000],-0.03348,0.04149,-0.00348,0.00000,0.00000,0.03242,0.02279,0.03989,0.07247,1.09367,7.32039,0.83272,3.50000,-0.00720,0.01694,1.63956,0.02987,0.00000,0.00000,0.00000,0.00000,0.00000,0.00000,0.00000,0.00000000,0.00000000,No status,0.0,"[-0.20000,-0.00000,-0.00000]","[-0.10000,-0.00000,-0.00000]",8.00453,0.00000,0.00000,0.00000,0.00000,0.00000
18:26:56.403679,7.37352,0.02017,0.00000,3.50000,[5.00000 0.00000 0.00000],[1.30000 0.00000 0.00000],-0.03355,0.04169,0.00446,0.00000,0.00000,-0.03890,0.02126,0.12694,0.02635,0.69223,7.35379,1.21856,3.50000,-0.00637,0.01789,1.66249,0.03016,0.00000,0.00000,0.00000,0.00000,0.00000,0.00000,0.00000,0.00000000,0.00000000,No status,0.0,"[-0.20000,-0.00000,-0.00000]","[-0.10000,-0.00000,-0.00000]",8.12122,0.00000,0.00000,0.00000,0.00000,0.00000
18:26:56.427453,7.39729,0.01695,0.00000,3.50000,[5.00000 0.00000 0.00000],[1.30000 0.00000 0.00000],-0.03391,0.04206,-0.01616,0.00000,0.00000,-0.01217,0.00614,-0.05459,0.03947,0.82808,7.38083,0.87912,3.50000,-0.00639,0.01807,1.66220,0.03013,0.00000,0.00000,0.00000,0.00000,0.00000,0.00000,0.00000,0.00000000,0.00000000,No status,0.0,"[-0.20000,-0.00000,-0.00000]","[-0.10000,-0.00000,-0.00000]",8.21562,0.00000,0.00000,0.00000,0.00000,0.00000
18:26:56.453650,7.42349,0.01897,0.00000,3.50000,[5.00000 0.00000 0.00000],[1.30000 0.00000 0.00000],-0.03546,0.04206,-0.02349,0.00000,0.00000,0.00844,-0.00653,-0.00488,-0.04227,1.14192,7.40548,1.14286,3.50000,-0.00662,0.01784,1.65483,0.02999,0.00000,0.00000,0.00000,0.00000,0.00000,0.00000,0.00000,0.00000000,0.00000000,No status,0.0,"[-0.20000,-0.00000,-0.00000]","[-0.10000,-0.00000,-0.00000]",8.30014,0.00000,0.00000,0.00000,0.00000,0.00000
18:26:56.485910,7.45575,0.02219,0.00000,3.50000,[5.00000 0.00000 0.00000],[1.30000 0.00000 0.00000],-0.03570,0.04206,-0.02288,0.00000,0.00000,-0.00332,0.00950,0.17903,0.06722,1.03322,7.43904,1.15263,3.50000,-0.00586,0.01861,1.67727,0.03037,0.00000,0.00000,0.00000,0.00000,0.00000,0.00000,0.00000,0.00000000,0.00000000,No status,0.0,"[-0.20000,-0.00000,-0.00000]","[-0.10000,-0.00000,-0.00000]",8.40173,0.00000,0.00000,0.00000,0.00000,0.00000
18:26:56.512017,7.48186,0.01976,0.00000,3.50000,[5.00000 0.00000 0.00000],[1.30000 0.00000 0.00000],-0.03644,0.04206,-0.01509,0.00000,0.00000,-0.05661,0.02065,-0.01586,0.00775,0.94385,7.46253,1.17949,3.50000,-0.00632,0.01815,1.66465,0.03018,0.00000,0.00000,0.00000,0.00000,0.00000,0.00000,0.00000,0.00000000,0.00000000,No status,0.0,"[-0.20000,-0.00000,-0.00000]","[-0.10000,-0.00000,-0.00000]",8.50154,0.00000,0.00000,0.00000,0.00000,0.00000
18:26:56.537531,7.50737,0.01760,0.00000,3.50000,[5.00000 0.00000 0.00000],[1.30000 0.00000 0.00000],-0.03734,0.04206,-0.01997,0.00000,0.00000,-0.00011,0.01103,-0.04587,0.00915,0.95300,7.49036,1.15751,3.50000,-0.00624,0.01823,1.66697,0.03022,0.00000,0.00000,0.00000,0.00000,0.00000,0.00000,0.00000,0.00000000,0.00000000,No status,0.0,"[-0.20000,-0.00000,-0.00000]","[-0.10000,-0.00000,-0.00000]",8.59826,0.00000,0.00000,0.00000,0.00000,0.00000
18:26:56.562662,7.53250,0.01871,0.00000,3.50000,[5.00000 0.00000 0.00000],[1.30000 0.00000 0.00000],-0.03813,0.04206,-0.02593,0.00000,0.00000,0.03471,-0.01249,-0.00348,0.01995,0.92616,7.51426,1.14774,3.50000,-0.00660,0.01786,1.65605,0.03003,0.00000,0.00000,0.00000,0.00000,0.00000,0.00000,0.00000,0.00000000,0.00000000,No status,0.0,"[-0.20000,-0.00000,-0.00000]","[-0.10000,-0.00000,-0.00000]",8.68231,0.00000,0.00000,0.00000,0.00000,0.00000
18:26:56.592431,7.56208,0.01870,0.00000,3.50000,[5.00000 0.00000 0.00000],[1.30000 0.00000 0.00000],-0.03942,0.04206,-0.02685,0.00000,0.00000,0.02204,-0.00699,0.07881,-0.00689,1.07366,7.54429,1.17705,3.50000,-0.00624,0.01822,1.66602,0.03019,0.00000,0.00000,0.00000,0.00000,0.00000,0.00000,0.00000,0.00000000,0.00000000,No status,0.0,"[-0.20000,-0.00000,-0.00000]","[-0.10000,-0.00000,-0.00000]",8.78575,0.00000,0.00000,0.00000,0.00000,0.00000
18:26:56.617768,7.58760,0.01856,0.00000,3.50000,[5.00000 0.00000 0.00000],[1.30000 0.00000 0.00000],-0.04000,0.04206,-0.02181,0.00000,0.00000,-0.02271,0.01821,0.05209,0.02324,1.11173,7.56950,1.18193,3.50000,-0.00643,0.01803,1.66036,0.03009,0.00000,0.00000,0.00000,0.00000,0.00000,0.00000,0.00000,0.00000000,0.00000000,No status,0.0,"[-0.20000,-0.00000,-0.00000]","[-0.10000,-0.00000,-0.00000]",8.87547,0.00000,0.00000,0.00000,0.00000,0.00000
18:26:56.639790,7.60963,0.01589,0.00000,3.50000,[5.00000 0.00000 0.00000],[1.30000 0.00000 0.00000],-0.04065,0.04206,-0.02242,0.00000,0.00000,-0.00362,0.01744,-0.02550,0.02153,0.95130,7.59411,1.15263,3.50000,-0.00673,0.01774,1.65098,0.02992,0.00000,0.00000,0.00000,0.00000,0.00000,0.00000,0.00000,0.00000000,0.00000000,No status,0.0,"[-0.20000,-0.00000,-0.00000]","[-0.10000,-0.00000,-0.00000]",8.96185,0.00000,0.00000,0.00000,0.00000,0.00000
18:26:56.661825,7.63166,0.01600,0.00000,3.50000,[5.00000 0.00000 0.00000],[1.30000 0.00000 0.00000],-0.04042,0.04206,-0.02898,0.00000,0.00000,0.00646,-0.00653,-0.04727,0.08070,0.91610,7.61593,1.16484,3.50000,-0.00725,0.01722,1.63387,0.02958,0.00000,0.00000,0.00000,0.00000,0.00000,0.00000,0.00000,0.00000000,0.00000000,No status,0.0,"[-0.20000,-0.00000,-0.00000]","[-0.10000,-0.00000,-0.00000]",9.03851,0.00000,0.00000,0.00000,0.00000,0.00000
18:26:56.689133,7.65898,0.01900,0.00000,3.50000,[5.00000 0.00000 0.00000],[1.30000 0.00000 0.00000],-0.04186,0.04206,-0.02914,0.00000,0.00000,0.00661,-0.01478,-0.00647,-0.01464,0.95026,7.64271,1.14286,3.50000,-0.00701,0.01746,1.63835,0.02959,0.00000,0.00000,0.00000,0.00000,0.00000,0.00000,0.00000,0.00000000,0.00000000,No status,0.0,"[-0.20000,-0.00000,-0.00000]","[-0.10000,-0.00000,-0.00000]",9.12352,0.00000,0.00000,0.00000,0.00000,0.00000
18:26:56.713440,7.68327,0.01840,0.00000,3.50000,[5.00000 0.00000 0.00000],[1.30000 0.00000 0.00000],-0.04250,0.04206,-0.03082,0.00000,0.00000,0.06800,-0.00669,0.06326,0.02763,1.05408,7.66525,1.16972,3.50000,-0.00749,0.01698,1.62183,0.02925,0.00000,0.00000,0.00000,0.00000,0.00000,0.00000,0.00000,0.00000000,0.00000000,No status,0.0,"[-0.20000,-0.00000,-0.00000]","[-0.10000,-0.00000,-0.00000]",9.21058,0.00000,0.00000,0.00000,0.00000,0.00000
18:26:56.734724,7.70457,0.01558,0.00000,3.50000,[5.00000 0.00000 0.00000],[1.30000 0.00000 0.00000],-0.04251,0.04206,-0.02303,0.00000,0.00000,-0.03875,0.00889,0.08857,0.05984,0.96112,7.68936,1.14530,3.50000,-0.00764,0.01683,1.61384,0.02903,0.00000,0.00000,0.00000,0.00000,0.00000,0.00000,0.00000,0.00000000,0.00000000,No status,0.0,"[-0.20000,-0.00000,-0.00000]","[-0.10000,-0.00000,-0.00000]",9.29489,0.00000,0.00000,0.00000,0.00000,0.00000
18:26:56.756782,7.72662,0.01602,0.00000,3.50000,[5.00000 0.00000 0.00000],[1.30000 0.00000 0.00000],-0.04287,0.04206,-0.01157,0.00000,0.00000,-0.04928,0.01989,-0.06222,0.01385,1.13247,7.71076,1.16239,3.50000,-0.00807,0.01640,1.59717,0.02865,0.00000,0.00000,0.00000,0.00000,0.00000,0.00000,0.00000,0.00000000,0.00000000,No status,0.0,"[-0.20000,-0.00000,-0.00000]","[-0.10000,-0.00000,-0.00000]",9.37047,0.00000,0.00000,0.00000,0.00000,0.00000
18:26:56.785057,7.75489,0.02234,0.00000,3.50000,[5.00000 0.00000 0.00000],[1.30000 0.00000 0.00000],-0.04453,0.04206,-0.01814,0.00000,0.00000,-0.01294,0.00584,0.07564,-0.06234,1.02767,7.73292,1.17949,3.50000,-0.00836,0.01611,1.58363,0.02831,0.00000,0.00000,0.00000,0.00000,0.00000,0.00000,0.00000,0.00000000,0.00000000,No status,0.0,"[-0.20000,-0.00000,-0.00000]","[-0.10000,-0.00000,-0.00000]",9.44722,0.00000,0.00000,0.00000,0.00000,0.00000
18:26:56.806611,7.77645,0.01575,0.00000,3.50000,[5.00000 0.00000 0.00000],[1.30000 0.00000 0.00000],-0.04449,0.04206,-0.03158,0.00000,0.00000,0.00921,-0.02272,-0.17275,0.08357,1.00101,7.76107,1.18193,3.50000,-0.00822,0.01624,1.58234,0.02815,0.00000,0.00000,0.00000,0.00000,0.00000,0.00000,0.00000,0.00000000,0.00000000,No status,0.0,"[-0.20000,-0.00000,-0.00000]","[-0.10000,-0.00000,-0.00000]",9.54566,0.00000,0.00000,0.00000,0.00000,0.00000
18:26:56.829746,7.79959,0.01582,0.00000,3.50000,[5.00000 0.00000 0.00000],[1.30000 0.00000 0.00000],-0.04505,0.04206,-0.02349,0.00000,0.00000,0.03853,-0.02180,0.07015,0.02391,0.90195,7.78426,1.15751,3.50000,-0.00836,0.01611,1.57348,0.02788,0.00000,0.00000,0.00000,0.00000,0.00000,0.00000,0.00000,0.00000000,0.00000000,No status,0.0,"[-0.20000,-0.00000,-0.00000]","[-0.10000,-0.00000,-0.00000]",9.62633,0.00000,0.00000,0.00000,0.00000,0.00000
18:26:56.851352,7.82120,0.01594,0.00000,3.50000,[5.00000 0.00000 0.00000],[1.30000 0.00000 0.00000],-0.04553,0.04206,-0.01723,0.00000,0.00000,-0.01981,0.00889,0.08693,0.01525,0.96996,7.80579,1.18437,3.50000,-0.00863,0.01583,1.56030,0.02754,0.00000,0.00000,0.00000,0.00000,0.00000,0.00000,0.00000,0.00000000,0.00000000,No status,0.0,"[-0.20000,-0.00000,-0.00000]","[-0.10000,-0.00000,-0.00000]",9.70147,0.00000,0.00000,0.00000,0.00000,0.00000
18:26:56.878601,7.84843,0.02129,0.00000,3.50000,[5.00000 0.00000 0.00000],[1.30000 0.00000 0.00000],-0.04612,0.04206,-0.00241,0.00000,0.00000,-0.01752,0.02371,-0.05551,-0.02007,1.11923,7.82768,1.16728,3.50000,-0.00886,0.01561,1.54795,0.02721,0.00000,0.00000,0.00000,0.00000,0.00000,0.00000,0.00000,0.00000000,0.00000000,No status,0.0,"[-0.20000,-0.00000,-0.00000]","[-0.10000,-0.00000,-0.00000]",9.77792,0.00000,0.00000,0.00000,0.00000,0.00000
18:26:56.900810,7.87065,0.01645,0.00000,3.50000,[5.00000 0.00000 0.00000],[1.30000 0.00000 0.00000],-0.04649,0.04206,0.00324,0.00000,0.00000,0.00631,0.01057,0.08918,-0.00586,0.93849,7.85457,1.16728,3.50000,-0.00847,0.01599,1.55379,0.02714,0.00000,0.00000,0.00000,0.00000,0.00000,0.00000,0.00000,0.00000000,0.00000000,No status,0.0,"[-0.20000,-0.00000,-0.00000]","[-0.10000,-0.00000,-0.00000]",9.87260,0.00000,0.00000,0.00000,0.00000,0.00000
18:26:56.923995,7.89384,0.01723,0.00000,3.50000,[5.00000 0.00000 0.00000],[1.30000 0.00000 0.00000],-0.04680,0.04206,0.00354,0.00000,0.00000,-0.00225,-0.00149,0.02135,-0.00134,0.92305,7.87697,1.17460,3.50000,-0.00866,0.01580,1.54360,0.02687,0.00000,0.00000,0.00000,0.00000,0.00000,0.00000,0.00000,0.00000000,0.00000000,No status,0.0,"[-0.20000,-0.00000,-0.00000]","[-0.10000,-0.00000,-0.00000]",9.95097,0.00000,0.00000,0.00000,0.00000,0.00000
18:26:56.947419,7.91726,0.01749,0.00000,3.50000,[5.00000 0.00000 0.00000],[1.30000 0.00000 0.00000],-0.04760,0.04206,0.00293,0.00000,0.00000,-0.00179,0.00294,-0.01153,-0.04038,1.04560,7.90022,1.16239,3.50000,-0.00885,0.01562,1.53319,0.02658,0.00000,0.00000,0.00000,0.00000,0.00000,0.00000,0.00000,0.00000000,0.00000000,No status,0.0,"[-0.20000,-0.00000,-0.00000]","[-0.10000,-0.00000,-0.00000]",10.03198,0.00000,0.00000,0.00000,0.00000,0.00000
18:26:56.969120,7.93896,0.01584,0.00000,3.50000,[5.00000 0.00000 0.00000],[1.30000 0.00000 0.00000],-0.04756,0.04206,0.00156,0.00000,0.00000,0.01272,0.01256,0.08991,0.01940,1.02968,7.92347,1.17216,3.50000,-0.00886,0.01560,1.52768,0.02636,0.00000,0.00000,0.00000,0.00000,0.00000,0.00000,0.00000,0.00000000,0.00000000,No status,0.0,"[-0.20000,-0.00000,-0.00000]","[-0.10000,-0.00000,-0.00000]",10.11357,0.00000,0.00000,0.00000,0.00000,0.00000
18:26:56.995193,7.96504,0.01664,0.00000,3.50000,[5.00000 0.00000 0.00000],[1.30000 0.00000 0.00000],-0.04710,0.04206,0.02691,0.00000,0.00000,-0.00209,0.01576,-0.02977,0.00592,0.97441,7.94916,1.18193,3.50000,-0.00861,0.01586,1.53057,0.02628,0.00000,0.00000,0.00000,0.00000,0.00000,0.00000,0.00000,0.00000000,0.00000000,No status,0.0,"[-0.20000,-0.00000,-0.00000]","[-0.10000,-0.00000,-0.00000]",10.20201,0.00000,0.00000,0.00000,0.00000,0.00000
18:26:57.015153,7.98499,0.01434,0.00000,3.50000,[5.00000 0.00000 0.00000],[1.30000 0.00000 0.00000],-0.04743,0.04206,0.02019,0.00000,0.00000,0.00875,0.01500,0.04490,-0.02788,0.97124,7.97068,1.15751,3.50000,-0.00887,0.01559,1.51855,0.02599,0.00000,0.00000,0.00000,0.00000,0.00000,0.00000,0.00000,0.00000000,0.00000000,No status,0.0,"[-0.20000,-0.00000,-0.00000]","[-0.10000,-0.00000,-0.00000]",10.27979,0.00000,0.00000,0.00000,0.00000,0.00000
18:26:57.034595,8.00444,0.01395,0.00000,3.50000,[5.00000 0.00000 0.00000],[1.30000 0.00000 0.00000],-0.04735,0.04206,0.01591,0.00000,0.00000,0.00569,0.00920,0.02849,0.00525,0.98802,7.99055,1.16239,3.50000,-0.00928,0.01519,1.50172,0.02561,0.00000,0.00000,0.00000,0.00000,0.00000,0.00000,0.00000,0.00000000,0.00000000,No status,0.0,"[-0.20000,-0.00000,-0.00000]","[-0.10000,-0.00000,-0.00000]",10.34917,0.00000,0.00000,0.00000,0.00000,0.00000
18:26:57.064602,8.03444,0.02475,0.00000,3.50000,[5.00000 0.00000 0.00000],[1.30000 0.00000 0.00000],-0.04694,0.04206,0.02752,0.00000,0.00000,0.00967,0.00400,-0.01586,0.01220,1.00748,8.00991,1.15018,3.50000,-0.00968,0.01479,1.48400,0.02520,0.00000,0.00000,0.00000,0.00000,0.00000,0.00000,0.00000,0.00000000,0.00000000,No status,0.0,"[-0.20000,-0.00000,-0.00000]","[-0.10000,-0.00000,-0.00000]",10.41628,0.00000,0.00000,0.00000,0.00000,0.00000
18:26:57.086455,8.05630,0.01603,0.00000,3.50000,[5.00000 0.00000 0.00000],[1.30000 0.00000 0.00000],-0.04636,0.04206,0.02859,0.00000,0.00000,0.01974,0.01011,0.11883,0.00415,0.94568,8.04061,1.15995,3.50000,-0.00880,0.01566,1.50432,0.02534,0.00000,0.00000,0.00000,0.00000,0.00000,0.00000,0.00000,0.00000000,0.00000000,No status,0.0,"[-0.20000,-0.00000,-0.00000]","[-0.10000,-0.00000,-0.00000]",10.52322,0.00000,0.00000,0.00000,0.00000,0.00000
18:26:57.107827,8.07767,0.01573,0.00000,3.50000,[5.00000 0.00000 0.00000],[1.30000 0.00000 0.00000],-0.04561,0.04206,0.02737,0.00000,0.00000,-0.00942,0.02187,-0.01751,0.03190,1.02364,8.06225,1.17216,3.50000,-0.00900,0.01547,1.49492,0.02510,0.00000,0.00000,0.00000,0.00000,0.00000,0.00000,0.00000,0.00000000,0.00000000,No status,0.0,"[-0.20000,-0.00000,-0.00000]","[-0.10000,-0.00000,-0.00000]",10.59901,0.00000,0.00000,0.00000,0.00000,0.00000
18:26:57.131218,8.10106,0.01731,0.00000,3.50000,[5.00000 0.00000 0.00000],[1.30000 0.00000 0.00000],-0.04579,0.04206,0.02584,0.00000,0.00000,-0.00194,0.01729,0.02129,-0.02769,0.99576,8.08442,1.16239,3.50000,-0.00915,0.01531,1.48630,0.02487,0.00000,0.00000,0.00000,0.00000,0.00000,0.00000,0.00000,0.00000000,0.00000000,No status,0.0,"[-0.20000,-0.00000,-0.00000]","[-0.10000,-0.00000,-0.00000]",10.67528,0.00000,0.00000,0.00000,0.00000,0.00000
18:26:57.152901,8.12274,0.01580,0.00000,3.50000,[5.00000 0.00000 0.00000],[1.30000 0.00000 0.00000],-0.04489,0.04206,0.02935,0.00000,0.00000,-0.00774,0.01378,-0.02605,0.03745,0.97771,8.10744,1.16239,3.50000,-0.00932,0.01514,1.47697,0.02462,0.00000,0.00000,0.00000,0.00000,0.00000,0.00000,0.00000,0.00000000,0.00000000,No status,0.0,"[-0.20000,-0.00000,-0.00000]","[-0.10000,-0.00000,-0.00000]",10.75638,0.00000,0.00000,0.00000,0.00000,0.00000
18:26:57.184557,8.15439,0.01699,0.00000,3.50000,[5.00000 0.00000 0.00000],[1.30000 0.00000 0.00000],-0.04418,0.04206,0.01851,0.00000,0.00000,-0.00423,0.00706,-0.00275,0.03300,0.93971,8.13846,1.17460,3.50000,-0.00842,0.01605,1.50008,0.02486,0.00000,0.00000,0.00000,0.00000,0.00000,0.00000,0.00000,0.00000000,0.00000000,No status,0.0,"[-0.20000,-0.00000,-0.00000]","[-0.10000,-0.00000,-0.00000]",10.86228,0.00000,0.00000,0.00000,0.00000,0.00000
18:26:57.206567,8.17641,0.01612,0.00000,3.50000,[5.00000 0.00000 0.00000],[1.30000 0.00000 0.00000],-0.04364,0.04211,0.01866,0.00000,0.00000,-0.01477,0.01332,0.03733,0.03215,1.01358,8.16078,1.40171,3.50000,-0.00864,0.01585,1.49189,0.02469,0.00000,0.00000,0.00000,0.00000,0.00000,0.00000,0.00000,0.00000000,0.00000000,No status,0.0,"[-0.20000,-0.00000,-0.00000]","[-0.10000,-0.00000,-0.00000]",10.94295,0.00000,0.00000,0.00000,0.00000,0.00000
18:26:57.229794,8.19963,0.01751,0.00000,3.50000,[5.00000 0.00000 0.00000],[1.30000 0.00000 0.00000],-0.04340,0.04211,0.01805,0.00000,0.00000,-0.01798,0.00981,-0.02135,0.01171,1.08586,8.18248,1.20391,3.50000,-0.00886,0.01564,1.48329,0.02450,0.00000,0.00000,0.00000,0.00000,0.00000,0.00000,0.00000,0.00000000,0.00000000,No status,0.0,"[-0.20000,-0.00000,-0.00000]","[-0.10000,-0.00000,-0.00000]",11.01927,0.00000,0.00000,0.00000,0.00000,0.00000
18:26:57.251570,8.22142,0.01588,0.00000,3.50000,[5.00000 0.00000 0.00000],[1.30000 0.00000 0.00000],-0.04344,0.04211,0.01103,0.00000,0.00000,-0.00729,0.00752,0.08583,0.00531,0.98149,8.20606,1.17705,3.50000,-0.00887,0.01563,1.48044,0.02439,0.00000,0.00000,0.00000,0.00000,0.00000,0.00000,0.00000,0.00000000,0.00000000,No status,0.0,"[-0.20000,-0.00000,-0.00000]","[-0.10000,-0.00000,-0.00000]",11.10115,0.00000,0.00000,0.00000,0.00000,0.00000
18:26:57.282031,8.25187,0.02428,0.00000,3.50000,[5.00000 0.00000 0.00000],[1.30000 0.00000 0.00000],-0.04329,0.04211,0.01225,0.00000,0.00000,-0.01385,0.00843,-0.02733,0.01708,0.93763,8.22948,1.17460,3.50000,-0.00889,0.01561,1.47717,0.02428,0.00000,0.00000,0.00000,0.00000,0.00000,0.00000,0.00000,0.00000000,0.00000000,No status,0.0,"[-0.20000,-0.00000,-0.00000]","[-0.10000,-0.00000,-0.00000]",11.17825,0.00000,0.00000,0.00000,0.00000,0.00000
18:26:57.303719,8.27356,0.01577,0.00000,3.50000,[5.00000 0.00000 0.00000],[1.30000 0.00000 0.00000],-0.04422,0.04211,0.00156,0.00000,0.00000,-0.01141,0.00339,0.06393,-0.03703,0.95703,8.25819,1.17949,3.50000,-0.00864,0.01585,1.48232,0.02430,0.00000,0.00000,0.00000,0.00000,0.00000,0.00000,0.00000,0.00000000,0.00000000,No status,0.0,"[-0.20000,-0.00000,-0.00000]","[-0.10000,-0.00000,-0.00000]",11.28388,0.00000,0.00000,0.00000,0.00000,0.00000
18:26:57.328526,8.29836,0.01860,0.00000,3.50000,[5.00000 0.00000 0.00000],[1.30000 0.00000 0.00000],-0.04429,0.04211,0.00385,0.00000,0.00000,-0.00515,0.00767,0.04392,0.01324,0.99900,8.27999,1.16728,3.50000,-0.00888,0.01562,1.47348,0.02412,0.00000,0.00000,0.00000,0.00000,0.00000,0.00000,0.00000,0.00000000,0.00000000,No status,0.0,"[-0.20000,-0.00000,-0.00000]","[-0.10000,-0.00000,-0.00000]",11.36012,0.00000,0.00000,0.00000,0.00000,0.00000
18:26:57.358035,8.32786,0.02351,0.00000,3.50000,[5.00000 0.00000 0.00000],[1.30000 0.00000 0.00000],-0.04403,0.04211,0.00247,0.00000,0.00000,0.00921,0.00553,-0.06661,0.03611,1.05420,8.30475,1.17216,3.50000,-0.00873,0.01577,1.47603,0.02410,0.00000,0.00000,0.00000,0.00000,0.00000,0.00000,0.00000,0.00000000,0.00000000,No status,0.0,"[-0.20000,-0.00000,-0.00000]","[-0.10000,-0.00000,-0.00000]",11.44669,0.00000,0.00000,0.00000,0.00000,0.00000
18:26:57.390003,8.35984,0.02596,0.00000,3.50000,[5.00000 0.00000 0.00000],[1.30000 0.00000 0.00000],-0.04425,0.04211,-0.01035,0.00000,0.00000,0.01196,0.00675,0.03062,0.03019,0.92921,8.33527,1.17216,3.50000,-0.00855,0.01595,1.47982,0.02412,0.00000,0.00000,0.00000,0.00000,0.00000,0.00000,0.00000,0.00000000,0.00000000,No status,0.0,"[-0.20000,-0.00000,-0.00000]","[-0.10000,-0.00000,-0.00000]",11.54995,0.00000,0.00000,0.00000,0.00000,0.00000
18:26:57.412866,8.38270,0.01698,0.00000,3.50000,[5.00000 0.00000 0.00000],[1.30000 0.00000 0.00000],-0.04464,0.04211,-0.01753,0.00000,0.00000,0.00967,-0.01478,-0.03483,0.03367,1.02224,8.36667,1.17949,3.50000,-0.00831,0.01619,1.48600,0.02419,0.00000,0.00000,0.00000,0.00000,0.00000,0.00000,0.00000,0.00000000,0.00000000,No status,0.0,"[-0.20000,-0.00000,-0.00000]","[-0.10000,-0.00000,-0.00000]",11.66133,0.00000,0.00000,0.00000,0.00000,0.00000
18:26:57.438666,8.40850,0.01798,0.00000,3.50000,[5.00000 0.00000 0.00000],[1.30000 0.00000 0.00000],-0.04541,0.04211,-0.02853,0.00000,0.00000,0.01425,-0.01554,0.03373,0.01659,1.04316,8.39136,1.16484,3.50000,-0.00828,0.01622,1.48689,0.02420,0.00000,0.00000,0.00000,0.00000,0.00000,0.00000,0.00000,0.00000000,0.00000000,No status,0.0,"[-0.20000,-0.00000,-0.00000]","[-0.10000,-0.00000,-0.00000]",11.74802,0.00000,0.00000,0.00000,0.00000,0.00000
18:26:57.462721,8.43256,0.01714,0.00000,3.50000,[5.00000 0.00000 0.00000],[1.30000 0.00000 0.00000],-0.04714,0.04211,-0.02578,0.00000,0.00000,0.00631,-0.00348,0.05051,-0.04801,0.97228,8.41640,1.18681,3.50000,-0.00818,0.01632,1.48961,0.02424,0.00000,0.00000,0.00000,0.00000,0.00000,0.00000,0.00000,0.00000000,0.00000000,No status,0.0,"[-0.20000,-0.00000,-0.00000]","[-0.10000,-0.00000,-0.00000]",11.83380,0.00000,0.00000,0.00000,0.00000,0.00000
18:26:57.492722,8.46256,0.02352,0.00000,3.50000,[5.00000 0.00000 0.00000],[1.30000 0.00000 0.00000],-0.04827,0.04211,-0.03112,0.00000,0.00000,-0.00087,0.00080,-0.01659,-0.00238,0.94263,8.44082,1.23810,3.50000,-0.00817,0.01633,1.49017,0.02425,0.00000,0.00000,0.00000,0.00000,0.00000,0.00000,0.00000,0.00000000,0.00000000,No status,0.0,"[-0.20000,-0.00000,-0.00000]","[-0.10000,-0.00000,-0.00000]",11.91638,0.00000,0.00000,0.00000,0.00000,0.00000
18:26:57.517494,8.48733,0.01900,0.00000,3.50000,[5.00000 0.00000 0.00000],[1.30000 0.00000 0.00000],-0.04919,0.04127,-0.03616,0.00000,0.00000,0.03471,-0.02394,-0.04325,0.02361,1.06134,8.46934,1.14286,3.50000,-0.00794,0.01607,1.49527,0.02434,0.00000,0.00000,0.00000,0.00000,0.00000,0.00000,0.00000,0.00000000,0.00000000,No status,0.0,"[-0.20000,-0.00000,-0.00000]","[-0.10000,-0.00000,-0.00000]",12.01880,0.00000,0.00000,0.00000,0.00000,0.00000
18:26:57.540488,8.51017,0.01656,0.00000,3.50000,[5.00000 0.00000 0.00000],[1.30000 0.00000 0.00000],-0.04960,0.04030,-0.03586,0.00000,0.00000,0.02677,-0.02440,-0.01775,0.04862,1.05713,8.49432,0.89133,3.50000,-0.00788,0.01556,1.49457,0.02431,0.00000,0.00000,0.00000,0.00000,0.00000,0.00000,0.00000,0.00000000,0.00000000,No status,0.0,"[-0.20000,-0.00000,-0.00000]","[-0.10000,-0.00000,-0.00000]",12.10721,0.00000,0.00000,0.00000,0.00000,0.00000
18:26:57.562091,8.53193,0.01588,0.00000,3.50000,[5.00000 0.00000 0.00000],[1.30000 0.00000 0.00000],-0.05073,0.04025,-0.02593,0.00000,0.00000,0.00600,-0.00562,0.09607,-0.01800,0.94239,8.51643,1.18926,3.50000,-0.00815,0.01526,1.48549,0.02412,0.00000,0.00000,0.00000,0.00000,0.00000,0.00000,0.00000,0.00000000,0.00000000,No status,0.0,"[-0.20000,-0.00000,-0.00000]","[-0.10000,-0.00000,-0.00000]",12.18568,0.00000,0.00000,0.00000,0.00000,0.00000
18:26:57.585196,8.55503,0.01709,0.00000,3.50000,[5.00000 0.00000 0.00000],[1.30000 0.00000 0.00000],-0.05094,0.04022,-0.01875,0.00000,0.00000,0.00172,0.00462,-0.07088,0.02739,1.01839,8.53833,0.58120,3.50000,-0.00835,0.01504,1.47790,0.02393,0.00000,0.00000,0.00000,0.00000,0.00000,0.00000,0.00000,0.00000000,0.00000000,No status,0.0,"[-0.20000,-0.00000,-0.00000]","[-0.10000,-0.00000,-0.00000]",12.26220,0.00000,0.00000,0.00000,0.00000,0.00000
18:26:57.610862,8.58071,0.01610,0.00000,3.50000,[5.00000 0.00000 0.00000],[1.30000 0.00000 0.00000],-0.05160,0.03979,-0.01570,0.00000,0.00000,-0.00194,-0.00974,-0.05276,-0.00159,1.00058,8.56547,1.59463,3.50000,-0.00796,0.01518,1.48723,0.02399,0.00000,0.00000,0.00000,0.00000,0.00000,0.00000,0.00000,0.00000000,0.00000000,No status,0.0,"[-0.20000,-0.00000,-0.00000]","[-0.10000,-0.00000,-0.00000]",12.35548,0.00000,0.00000,0.00000,0.00000,0.00000
18:26:57.632634,8.60247,0.01651,0.00000,3.50000,[5.00000 0.00000 0.00000],[1.30000 0.00000 0.00000],-0.05195,0.03979,-0.01157,0.00000,0.00000,0.00508,-0.01524,-0.00159,0.00885,0.91677,8.58616,1.18437,3.50000,-0.00833,0.01482,1.47453,0.02372,0.00000,0.00000,0.00000,0.00000,0.00000,0.00000,0.00000,0.00000000,0.00000000,No status,0.0,"[-0.20000,-0.00000,-0.00000]","[-0.10000,-0.00000,-0.00000]",12.43014,0.00000,0.00000,0.00000,0.00000,0.00000
18:26:57.651851,8.62169,0.01411,0.00000,3.50000,[5.00000 0.00000 0.00000],[1.30000 0.00000 0.00000],-0.05210,0.03979,0.00675,0.00000,0.00000,0.00844,-0.01340,0.01915,-0.00586,0.98857,8.60792,1.15995,3.50000,-0.00854,0.01461,1.46600,0.02350,0.00000,0.00000,0.00000,0.00000,0.00000,0.00000,0.00000,0.00000000,0.00000000,No status,0.0,"[-0.20000,-0.00000,-0.00000]","[-0.10000,-0.00000,-0.00000]",12.50574,0.00000,0.00000,0.00000,0.00000,0.00000
18:26:57.671695,8.64154,0.01451,0.00000,3.50000,[5.00000 0.00000 0.00000],[1.30000 0.00000 0.00000],-0.05260,0.03979,0.01271,0.00000,0.00000,0.01379,-0.00470,0.07009,-0.03995,1.04426,8.62707,1.16728,3.50000,-0.00892,0.01422,1.45092,0.02318,0.00000,0.00000,0.00000,0.00000,0.00000,0.00000,0.00000,0.00000000,0.00000000,No status,0.0,"[-0.20000,-0.00000,-0.00000]","[-0.10000,-0.00000,-0.00000]",12.57376,0.00000,0.00000,0.00000,0.00000,0.00000
18:26:57.692840,8.66268,0.01586,0.00000,3.50000,[5.00000 0.00000 0.00000],[1.30000 0.00000 0.00000],-0.05237,0.03979,0.02172,0.00000,0.00000,-0.00423,0.00003,0.03831,0.00037,0.98747,8.64685,1.17705,3.50000,-0.00926,0.01389,1.43644,0.02285,0.00000,0.00000,0.00000,0.00000,0.00000,0.00000,0.00000,0.00000000,0.00000000,No status,0.0,"[-0.20000,-0.00000,-0.00000]","[-0.10000,-0.00000,-0.00000]",12.64293,0.00000,0.00000,0.00000,0.00000,0.00000
18:26:57.714352,8.68420,0.01519,0.00000,3.50000,[5.00000 0.00000 0.00000],[1.30000 0.00000 0.00000],-0.05102,0.03979,0.04524,0.00000,0.00000,-0.02439,0.00065,0.01214,0.03654,0.93977,8.66932,1.17216,3.50000,-0.00921,0.01394,1.43352,0.02266,0.00000,0.00000,0.00000,0.00000,0.00000,0.00000,0.00000,0.00000000,0.00000000,No status,0.0,"[-0.20000,-0.00000,-0.00000]","[-0.10000,-0.00000,-0.00000]",12.72050,0.00000,0.00000,0.00000,0.00000,0.00000
18:26:57.734305,8.70415,0.01492,0.00000,3.50000,[5.00000 0.00000 0.00000],[1.30000 0.00000 0.00000],-0.05050,0.03979,0.05470,0.00000,0.00000,-0.02836,0.00141,-0.05124,-0.02135,0.96996,8.68946,1.14774,3.50000,-0.00948,0.01367,1.42056,0.02235,0.00000,0.00000,0.00000,0.00000,0.00000,0.00000,0.00000,0.00000000,0.00000000,No status,0.0,"[-0.20000,-0.00000,-0.00000]","[-0.10000,-0.00000,-0.00000]",12.79121,0.00000,0.00000,0.00000,0.00000,0.00000
18:26:57.754350,8.72419,0.01447,0.00000,3.50000,[5.00000 0.00000 0.00000],[1.30000 0.00000 0.00000],-0.04933,0.03979,0.06219,0.00000,0.00000,-0.00438,0.00217,-0.02409,0.00909,0.98661,8.71002,1.16484,3.50000,-0.00963,0.01351,1.41076,0.02207,0.00000,0.00000,0.00000,0.00000,0.00000,0.00000,0.00000,0.00000000,0.00000000,No status,0.0,"[-0.20000,-0.00000,-0.00000]","[-0.10000,-0.00000,-0.00000]",12.86286,0.00000,0.00000,0.00000,0.00000,0.00000
18:26:57.773758,8.74360,0.01440,0.00000,3.50000,[5.00000 0.00000 0.00000],[1.30000 0.00000 0.00000],-0.04773,0.03979,0.06936,0.00000,0.00000,0.01180,0.00355,-0.00848,0.03379,0.98210,8.72952,1.16484,3.50000,-0.00988,0.01327,1.39787,0.02174,0.00000,0.00000,0.00000,0.00000,0.00000,0.00000,0.00000,0.00000000,0.00000000,No status,0.0,"[-0.20000,-0.00000,-0.00000]","[-0.10000,-0.00000,-0.00000]",12.93098,0.00000,0.00000,0.00000,0.00000,0.00000
18:26:57.797398,8.76607,0.01724,0.00000,3.50000,[5.00000 0.00000 0.00000],[1.30000 0.00000 0.00000],-0.04629,0.03979,0.07135,0.00000,0.00000,-0.00072,0.00110,0.07405,0.02092,1.01071,8.74922,1.15995,3.50000,-0.01006,0.01309,1.38637,0.02143,0.00000,0.00000,0.00000,0.00000,0.00000,0.00000,0.00000,0.00000000,0.00000000,No status,0.0,"[-0.20000,-0.00000,-0.00000]","[-0.10000,-0.00000,-0.00000]",12.99959,0.00000,0.00000,0.00000,0.00000,0.00000
18:26:57.823212,8.79305,0.01573,0.00000,3.50000,[5.00000 0.00000 0.00000],[1.30000 0.00000 0.00000],-0.04436,0.04033,0.06845,0.00000,0.00000,-0.04516,0.01561,-0.00061,0.01806,1.08507,8.77780,1.05983,3.50000,-0.00934,0.01412,1.40510,0.02151,0.00000,0.00000,0.00000,0.00000,0.00000,0.00000,0.00000,0.00000000,0.00000000,No status,0.0,"[-0.20000,-0.00000,-0.00000]","[-0.10000,-0.00000,-0.00000]",13.09921,0.00000,0.00000,0.00000,0.00000,0.00000
18:26:57.845893,8.81573,0.01685,0.00000,3.50000,[5.00000 0.00000 0.00000],[1.30000 0.00000 0.00000],-0.04297,0.04118,0.06035,0.00000,0.00000,-0.02729,0.01836,-0.00781,0.03050,1.02456,8.79902,1.30647,3.50000,-0.00952,0.01443,1.39897,0.02134,0.00000,0.00000,0.00000,0.00000,0.00000,0.00000,0.00000,0.00000000,0.00000000,No status,0.0,"[-0.20000,-0.00000,-0.00000]","[-0.10000,-0.00000,-0.00000]",13.17459,0.00000,0.00000,0.00000,0.00000,0.00000
18:26:57.865917,8.83576,0.01441,0.00000,3.50000,[5.00000 0.00000 0.00000],[1.30000 0.00000 0.00000],-0.04147,0.04138,0.04921,0.00000,0.00000,-0.00225,0.00706,-0.04862,0.05008,0.92970,8.82162,1.03053,3.50000,-0.00956,0.01451,1.39585,0.02124,0.00000,0.00000,0.00000,0.00000,0.00000,0.00000,0.00000,0.00000000,0.00000000,No status,0.0,"[-0.20000,-0.00000,-0.00000]","[-0.10000,-0.00000,-0.00000]",13.25316,0.00000,0.00000,0.00000,0.00000,0.00000
18:26:57.890160,8.86001,0.01582,0.00000,3.50000,[5.00000 0.00000 0.00000],[1.30000 0.00000 0.00000],-0.04040,0.04138,0.04065,0.00000,0.00000,0.02539,0.00370,0.08406,0.03416,0.95001,8.84519,1.16728,3.50000,-0.00944,0.01463,1.39735,0.02121,0.00000,0.00000,0.00000,0.00000,0.00000,0.00000,0.00000,0.00000000,0.00000000,No status,0.0,"[-0.20000,-0.00000,-0.00000]","[-0.10000,-0.00000,-0.00000]",13.33303,0.00000,0.00000,0.00000,0.00000,0.00000
18:26:57.910291,8.88013,0.01498,0.00000,3.50000,[5.00000 0.00000 0.00000],[1.30000 0.00000 0.00000],-0.03999,0.04138,0.03668,0.00000,0.00000,0.01302,0.00385,0.06917,0.00360,1.02010,8.86568,1.15995,3.50000,-0.00967,0.01440,1.38858,0.02104,0.00000,0.00000,0.00000,0.00000,0.00000,0.00000,0.00000,0.00000000,0.00000000,No status,0.0,"[-0.20000,-0.00000,-0.00000]","[-0.10000,-0.00000,-0.00000]",13.40635,0.00000,0.00000,0.00000,0.00000,0.00000
18:26:57.929716,8.89956,0.01438,0.00000,3.50000,[5.00000 0.00000 0.00000],[1.30000 0.00000 0.00000],-0.03921,0.04138,0.02676,0.00000,0.00000,-0.01385,0.00920,0.04898,0.04447,1.05219,8.88541,1.16484,3.50000,-0.00995,0.01412,1.37746,0.02083,0.00000,0.00000,0.00000,0.00000,0.00000,0.00000,0.00000,0.00000000,0.00000000,No status,0.0,"[-0.20000,-0.00000,-0.00000]","[-0.10000,-0.00000,-0.00000]",13.47634,0.00000,0.00000,0.00000,0.00000,0.00000
18:26:57.950338,8.92019,0.01559,0.00000,3.50000,[5.00000 0.00000 0.00000],[1.30000 0.00000 0.00000],-0.03917,0.04138,0.02111,0.00000,0.00000,-0.02271,0.00477,-0.00037,0.00189,0.99143,8.90609,1.15507,3.50000,-0.01008,0.01399,1.37021,0.02066,0.00000,0.00000,0.00000,0.00000,0.00000,0.00000,0.00000,0.00000000,0.00000000,No status,0.0,"[-0.20000,-0.00000,-0.00000]","[-0.10000,-0.00000,-0.00000]",13.54421,0.00000,0.00000,0.00000,0.00000,0.00000
18:26:57.969740,8.93958,0.01437,0.00000,3.50000,[5.00000 0.00000 0.00000],[1.30000 0.00000 0.00000],-0.03995,0.04138,0.00370,0.00000,0.00000,0.00310,-0.00485,-0.01568,-0.02525,0.94721,8.92542,1.16484,3.50000,-0.01036,0.01371,1.35839,0.02042,0.00000,0.00000,0.00000,0.00000,0.00000,0.00000,0.00000,0.00000000,0.00000000,No status,0.0,"[-0.20000,-0.00000,-0.00000]","[-0.10000,-0.00000,-0.00000]",13.61631,0.00000,0.00000,0.00000,0.00000,0.00000
18:26:58.003121,8.97296,0.02274,0.00000,3.50000,[5.00000 0.00000 0.00000],[1.30000 0.00000 0.00000],-0.04023,0.04138,-0.00898,0.00000,0.00000,0.00799,-0.01829,-0.05795,0.02775,0.96532,8.95764,1.17705,3.50000,-0.00919,0.01488,1.39045,0.02077,0.00000,0.00000,0.00000,0.00000,0.00000,0.00000,0.00000,0.00000000,0.00000000,No status,0.0,"[-0.20000,-0.00000,-0.00000]","[-0.10000,-0.00000,-0.00000]",13.70369,0.00000,0.00000,0.00000,0.00000,0.00000
18:26:58.025083,8.99492,0.01592,0.00000,3.50000,[5.00000 0.00000 0.00000],[1.30000 0.00000 0.00000],-0.04096,0.04135,-0.02089,0.00000,0.00000,0.02265,-0.02211,0.11919,0.00775,1.00931,8.97940,0.49573,3.50000,-0.00932,0.01473,1.38606,0.02070,0.00000,0.00000,0.00000,0.00000,0.00000,0.00000,0.00000,0.00000000,0.00000000,No status,0.0,"[-0.20000,-0.00000,-0.00000]","[-0.10000,-0.00000,-0.00000]",13.80436,0.00000,0.00000,0.00000,0.00000,0.00000
18:26:58.049593,9.01944,0.01884,0.00000,3.50000,[5.00000 0.00000 0.00000],[1.30000 0.00000 0.00000],-0.04189,0.04042,-0.03204,0.00000,0.00000,-0.00164,-0.02516,0.00988,0.00555,1.07012,9.00094,1.17949,3.50000,-0.00934,0.01416,1.38223,0.02063,0.00000,0.00000,0.00000,0.00000,0.00000,0.00000,0.00000,0.00000000,0.00000000,No status,0.0,"[-0.20000,-0.00000,-0.00000]","[-0.10000,-0.00000,-0.00000]",13.87986,0.00000,0.00000,0.00000,0.00000,0.00000
18:26:58.070537,9.04038,0.01515,0.00000,3.50000,[5.00000 0.00000 0.00000],[1.30000 0.00000 0.00000],-0.04269,0.03727,-0.03723,0.00000,0.00000,0.00203,-0.01982,-0.01647,0.02727,1.01602,9.02557,1.17460,3.50000,-0.00881,0.01287,1.38886,0.02067,0.00000,0.00000,0.00000,0.00000,0.00000,0.00000,0.00000,0.00000000,0.00000000,No status,0.0,"[-0.20000,-0.00000,-0.00000]","[-0.10000,-0.00000,-0.00000]",13.96601,0.00000,0.00000,0.00000,0.00000,0.00000
18:26:58.120667,9.09049,0.04493,0.00000,3.50000,[5.00000 0.00000 0.00000],[1.30000 0.00000 0.00000],-0.04382,0.03425,-0.04716,0.00000,0.00000,-0.00912,-0.01035,0.00579,0.00592,0.93794,9.04571,1.14530,3.50000,-0.00874,0.01118,1.37933,0.02041,0.00000,0.00000,0.00000,0.00000,0.00000,0.00000,0.00000,0.00000000,0.00000000,No status,0.0,"[-0.20000,-0.00000,-0.00000]","[-0.10000,-0.00000,-0.00000]",14.03709,0.00000,0.00000,0.00000,0.00000,0.00000
18:26:58.213259,9.18156,0.08104,0.00000,3.50000,[5.00000 0.00000 0.00000],[1.30000 0.00000 0.00000],-0.04864,0.02842,-0.06732,0.00000,0.00000,0.01440,-0.03372,0.00494,-0.01360,1.02919,9.11338,1.16484,3.50000,-0.00485,0.01168,1.50019,0.02151,0.00000,0.00000,0.00000,0.00000,0.00000,0.00000,0.00000,0.00000000,0.00000000,No status,0.0,"[-0.20000,-0.00000,-0.00000]","[-0.10000,-0.00000,-0.00000]",14.22933,0.00000,0.00000,0.00000,0.00000,0.00000
18:26:58.282078,9.25189,0.04309,0.00000,3.50000,[5.00000 0.00000 0.00000],[1.30000 0.00000 0.00000],-0.05542,0.02607,-0.06579,0.00000,0.00000,0.02051,-0.02089,0.09156,-0.03129,0.95428,9.20955,0.02198,3.50000,-0.00013,0.01503,1.70872,0.02375,0.00000,0.00000,0.00000,0.00000,0.00000,0.00000,0.00000,0.00000000,0.00000000,No status,0.0,"[-0.20000,-0.00000,-0.00000]","[-0.10000,-0.00000,-0.00000]",14.60821,0.00000,0.00000,0.00000,0.00000,0.00000
18:26:58.318218,9.28802,0.02489,0.00000,3.50000,[5.00000 0.00000 0.00000],[1.30000 0.00000 0.00000],-0.05855,0.02607,-0.05938,0.00000,0.00000,0.00295,-0.01478,0.00842,-0.00043,1.06854,9.26450,0.00977,3.50000,0.00082,0.01598,1.78102,0.02493,0.00000,0.00000,0.00000,0.00000,0.00000,0.00000,0.00000,0.00000000,0.00000000,No status,0.0,"[-0.20000,-0.00000,-0.00000]","[-0.10000,-0.00000,-0.00000]",14.79518,0.00000,0.00000,0.00000,0.00000,0.00000
18:26:58.366059,9.33558,0.03161,0.00000,3.50000,[5.00000 0.00000 0.00000],[1.30000 0.00000 0.00000],-0.06034,0.02607,-0.05098,0.00000,0.00000,0.00310,-0.00943,-0.00409,0.01720,0.96136,9.30740,0.02686,3.50000,0.00120,0.01636,1.82902,0.02587,0.00000,0.00000,0.00000,0.00000,0.00000,0.00000,0.00000,0.00000000,0.00000000,No status,0.0,"[-0.20000,-0.00000,-0.00000]","[-0.10000,-0.00000,-0.00000]",14.94077,0.00000,0.00000,0.00000,0.00000,0.00000
18:26:58.409290,9.37912,0.03375,0.00000,3.50000,[5.00000 0.00000 0.00000],[1.30000 0.00000 0.00000],-0.06188,0.02768,-0.03983,0.00000,0.00000,0.01134,0.01454,-0.04935,-0.00750,1.03029,9.34705,0.18315,3.50000,0.00119,0.01729,1.86489,0.02666,0.00000,0.00000,0.00000,0.00000,0.00000,0.00000,0.00000,0.00000000,0.00000000,No status,0.0,"[-0.20000,-0.00000,-0.00000]","[-0.10000,-0.00000,-0.00000]",15.08559,0.00000,0.00000,0.00000,0.00000,0.00000
18:26:58.447583,9.41741,0.02822,0.00000,3.50000,[5.00000 0.00000 0.00000],[1.30000 0.00000 0.00000],-0.06301,0.03422,-0.03326,0.00000,0.00000,-0.00377,0.00599,0.07137,0.01946,0.98125,9.39151,1.15995,3.50000,0.00098,0.02088,1.90869,0.02770,0.00000,0.00000,0.00000,0.00000,0.00000,0.00000,0.00000,0.00000000,0.00000000,No status,0.0,"[-0.20000,-0.00000,-0.00000]","[-0.10000,-0.00000,-0.00000]",15.23891,0.00000,0.00000,0.00000,0.00000,0.00000
