Description : same again previous inttryp v3 p3  ; walk_time = 2.0 ; speed_up_time = 3.0 ; balancing_time = 0.0
RealTime,Time,CalculationTime,MeasuredVelocity,FilteredVelocity,BalancingGainsInner,BalancingGainsOuter,Roll,SteeringAngle,RollRate,ControlInput,BalancingSetpoint,gy,gz,ax,ay,az,imu_read_timing,SteerMotorCurrent,v_estimated,yaw_estimated,heading_estimated,x_estimated,y_estimated,GPS_timestamp,x_GPS,y_GPS,theta_GPS,theta_GPS_noUnwrap,latitude,longitude,lat_estimated,lon_estimated,status,NMEA timestamp
18:37:39.791006,0.05880,0.05876,0.00000,0.00000,[3.00000 0.00000 0.00000],[1.30000 0.00000 0.00000],-0.00035,0.01823,0.01552,0.00000,0.00000,-0.00269,0.00376,0.05039,-0.00921,0.99674,0.00001,0.02198,0.00000,-0.01060,0.00000,0.00000,0.00000,0.02763,0.00000,0.00000,0.00000,0.00000,57.68783,11.98133,57.68782517,11.98133200,A,144759.40
18:37:39.806692,0.07450,0.00739,0.00000,0.00000,[3.00000 0.00000 0.00000],[1.30000 0.00000 0.00000],-0.00039,0.01823,0.00560,0.00000,0.00000,-0.00620,-0.00128,0.05026,-0.00268,0.98832,0.06706,0.01221,0.00000,-0.01060,0.00000,0.00000,0.00000,0.02763,0.00000,0.00000,0.00000,0.00000,57.68783,11.98133,57.68782517,11.98133200,A,144759.40
18:37:39.817507,0.08533,0.00781,0.00000,0.00000,[3.00000 0.00000 0.00000],[1.30000 0.00000 0.00000],-0.00089,0.01823,0.00651,0.00000,0.00000,-0.00940,0.00269,0.04246,-0.01385,0.98637,0.07811,0.01221,0.00000,-0.01060,0.00000,0.00000,0.00000,0.02763,0.00000,0.00000,0.00000,0.00000,57.68783,11.98133,57.68782517,11.98133200,A,144759.40
18:37:39.827144,0.09496,0.00704,0.00000,0.00000,[3.00000 0.00000 0.00000],[1.30000 0.00000 0.00000],-0.00098,0.01823,0.01537,0.00000,0.00000,-0.00559,0.00147,0.05307,0.00848,1.00510,0.08768,0.01221,0.00000,-0.01060,0.00000,0.00000,0.00000,0.02763,0.00000,0.00000,0.00000,0.00000,57.68783,11.98133,57.68782517,11.98133200,A,144759.40
18:37:39.837438,0.10526,0.00677,0.00000,0.00000,[3.00000 0.00000 0.00000],[1.30000 0.00000 0.00000],-0.00161,0.01823,0.00804,0.00000,0.00000,-0.00589,0.00224,0.09626,-0.02367,0.99131,0.09804,0.02198,0.00000,-0.01060,0.00000,0.00000,0.00000,0.02763,0.00000,0.00000,0.00000,0.00000,57.68783,11.98133,57.68782517,11.98133200,A,144759.40
18:37:39.848378,0.11619,0.00729,0.00000,0.00000,[3.00000 0.00000 0.00000],[1.30000 0.00000 0.00000],-0.00253,0.01823,0.00804,0.00000,0.00000,-0.00391,0.00453,-0.04124,-0.04313,0.98082,0.10866,0.00977,0.00000,-0.01060,0.00000,0.00000,0.00000,0.02763,0.00000,0.00000,0.00000,0.00000,57.68783,11.98133,57.68782517,11.98133200,A,144759.40
18:37:39.858469,0.12602,0.00671,0.00000,0.00000,[3.00000 0.00000 0.00000],[1.30000 0.00000 0.00000],-0.00368,0.01823,0.01079,0.00000,0.00000,0.00251,-0.00342,0.12828,-0.06173,0.99088,0.11885,0.01221,0.00000,-0.01060,0.00000,0.00000,0.00000,0.02763,0.00000,0.00000,0.00000,0.00000,57.68783,11.98133,57.68782517,11.98133200,A,144759.40
18:37:39.883404,0.15122,0.02150,0.00000,0.00000,[3.00000 0.00000 0.00000],[1.30000 0.00000 0.00000],-0.00438,0.01823,0.01430,0.00000,0.00000,-0.00299,0.00025,0.01787,-0.03532,0.98362,0.12947,0.01954,0.00000,0.29865,0.30925,-0.00050,0.00093,0.14741,-0.00991,0.01853,2.06169,2.06169,57.68783,11.98133,57.68782518,11.98133199,A,144759.50
18:37:39.898590,0.16640,0.00702,0.00000,0.00000,[3.00000 0.00000 0.00000],[1.30000 0.00000 0.00000],-0.00476,0.01823,0.01629,0.00000,0.00000,-0.00101,0.00666,0.01226,-0.03642,0.99912,0.15906,0.01221,0.00000,0.56152,0.57212,-0.00097,0.00181,0.14741,-0.00991,0.01853,2.06169,2.06169,57.68783,11.98133,57.68782518,11.98133198,A,144759.50
18:37:39.909099,0.17692,0.00712,0.00000,0.00000,[3.00000 0.00000 0.00000],[1.30000 0.00000 0.00000],-0.00534,0.01823,0.01186,0.00000,0.00000,0.00006,0.00132,0.04520,-0.02702,0.99759,0.16970,0.01221,0.00000,0.78495,0.79555,-0.00141,0.00264,0.14741,-0.00991,0.01853,2.06169,2.06169,57.68783,11.98133,57.68782519,11.98133198,A,144759.50
18:37:39.919439,0.18726,0.00706,0.00000,0.00000,[3.00000 0.00000 0.00000],[1.30000 0.00000 0.00000],-0.00557,0.01823,0.00743,0.00000,0.00000,0.00312,0.00254,0.04551,-0.00085,0.99955,0.17990,0.01221,0.00000,0.97487,0.98547,-0.00184,0.00344,0.14741,-0.00991,0.01853,2.06169,2.06169,57.68783,11.98133,57.68782520,11.98133197,A,144759.50
18:37:39.929566,0.19738,0.00680,0.00000,0.00000,[3.00000 0.00000 0.00000],[1.30000 0.00000 0.00000],-0.00595,0.01823,0.00575,0.00000,0.00000,-0.00223,0.00529,0.04673,-0.01031,0.99418,0.19015,0.01465,0.00000,1.13631,1.14691,-0.00224,0.00419,0.14741,-0.00991,0.01853,2.06169,2.06169,57.68783,11.98133,57.68782520,11.98133196,A,144759.50
18:37:39.940215,0.20803,0.00704,0.00000,0.00000,[3.00000 0.00000 0.00000],[1.30000 0.00000 0.00000],-0.00608,0.01823,0.01904,0.00000,0.00000,0.00144,-0.00036,0.02409,-0.00335,0.99601,0.20076,0.02198,0.00000,1.27352,1.28412,-0.00262,0.00491,0.14741,-0.00991,0.01853,2.06169,2.06169,57.68783,11.98133,57.68782521,11.98133196,A,144759.50
18:37:39.952675,0.22049,0.00909,0.00000,0.00000,[3.00000 0.00000 0.00000],[1.30000 0.00000 0.00000],-0.00612,0.01823,0.00942,0.00000,0.00000,0.00281,0.00392,0.05112,0.00909,0.98472,0.21096,0.00733,0.00000,1.39016,1.40076,-0.00299,0.00559,0.14741,-0.00991,0.01853,2.06169,2.06169,57.68783,11.98133,57.68782522,11.98133195,A,144759.50
18:37:39.965360,0.23317,0.01012,0.00000,0.00000,[3.00000 0.00000 0.00000],[1.30000 0.00000 0.00000],-0.00632,0.01823,0.00606,0.00000,0.00000,-0.00177,0.00315,0.05161,0.00055,0.99277,0.22267,0.01221,0.00000,1.48930,1.49990,-0.00333,0.00624,0.14741,-0.00991,0.01853,2.06169,2.06169,57.68783,11.98133,57.68782522,11.98133194,A,144759.50
18:37:40.004819,0.27264,0.02691,0.00000,0.00000,[3.00000 0.00000 0.00000],[1.30000 0.00000 0.00000],-0.00672,0.01823,-0.00189,0.00000,0.00000,0.00129,0.00086,0.04258,-0.00488,1.00101,0.24801,0.00977,0.00000,1.49993,1.51053,-0.00366,0.00778,0.26899,-0.00991,0.03706,1.57080,1.57080,57.68783,11.98133,57.68782524,11.98133194,A,144759.60
18:37:40.032565,0.30038,0.01339,0.00000,0.00000,[3.00000 0.00000 0.00000],[1.30000 0.00000 0.00000],-0.00740,0.01823,0.00300,0.00000,0.00000,0.00235,0.00361,0.06051,-0.03587,0.99210,0.29013,0.00733,0.00000,1.50897,1.51957,-0.00397,0.00924,0.26899,-0.00991,0.03706,1.57080,1.57080,57.68783,11.98133,57.68782525,11.98133193,A,144759.60
18:37:40.056398,0.32419,0.01298,1.06180,1.06180,[3.00000 0.00000 0.00000],[1.30000 0.00000 0.00000],-0.00798,0.01823,0.00086,0.00000,0.00000,-0.00635,-0.00235,0.07100,-0.02043,0.99277,0.31408,0.00977,0.21236,1.51666,1.52725,-0.00427,0.01063,0.26899,-0.00991,0.03706,1.57080,1.57080,57.68783,11.98133,57.68782526,11.98133193,A,144759.60
18:37:40.081326,0.34914,0.01166,1.06180,1.06180,[3.00000 0.00000 0.00000],[1.30000 0.00000 0.00000],-0.00854,0.01823,-0.00219,0.00000,0.00000,-0.01597,-0.00403,0.04032,-0.01604,1.00668,0.34005,0.00733,0.38225,1.52325,1.53385,-0.00435,0.01651,0.26899,-0.00991,0.03706,1.57080,1.57080,57.68783,11.98133,57.68782532,11.98133193,A,144759.60
18:37:40.121995,0.38981,0.02574,1.06180,1.06180,[3.00000 0.00000 0.00000],[1.30000 0.00000 0.00000],-0.00891,0.01823,0.00529,0.00000,0.00000,0.00449,0.00498,0.05075,-0.01519,0.98783,0.36626,0.00977,0.51816,1.52899,1.53959,-0.00411,0.03266,0.38602,-0.00991,0.05560,1.57080,1.57080,57.68783,11.98133,57.68782546,11.98133193,A,144759.70
18:37:40.148118,0.41593,0.01298,1.06180,1.06180,[3.00000 0.00000 0.00000],[1.30000 0.00000 0.00000],-0.00941,0.01823,-0.00418,0.00000,0.00000,0.00251,0.00636,0.04496,-0.00543,0.98521,0.40505,0.01465,0.62689,1.53383,1.54443,-0.00406,0.04472,0.38602,-0.00991,0.05560,1.57080,1.57080,57.68783,11.98133,57.68782557,11.98133193,A,144759.70
18:37:40.171458,0.43775,0.00938,1.06180,1.06180,[3.00000 0.00000 0.00000],[1.30000 0.00000 0.00000],-0.01007,0.01823,-0.00021,0.00000,0.00000,-0.00192,-0.00784,0.05563,-0.02708,1.00882,0.42972,0.00977,0.71387,1.53796,1.54856,-0.00403,0.05750,0.38602,-0.00991,0.05560,1.57080,1.57080,57.68783,11.98133,57.68782568,11.98133193,A,144759.70
18:37:40.183547,0.45136,0.01066,1.06180,1.06180,[3.00000 0.00000 0.00000],[1.30000 0.00000 0.00000],-0.01086,0.01823,0.00392,0.00000,0.00000,0.00037,-0.00815,0.07283,-0.03947,1.00162,0.44151,0.01954,0.78345,1.54139,1.55199,-0.00417,0.06399,0.38602,-0.00991,0.05560,1.57080,1.57080,57.68783,11.98133,57.68782574,11.98133193,A,144759.70
18:37:40.209970,0.47778,0.01238,1.06180,1.06180,[3.00000 0.00000 0.00000],[1.30000 0.00000 0.00000],-0.01113,0.01823,0.00544,0.00000,0.00000,-0.00360,0.00483,0.02891,-0.01232,1.01968,0.46763,0.00977,0.83912,1.54445,1.55505,-0.00414,0.08061,0.38602,-0.00991,0.05560,1.57080,1.57080,57.68783,11.98133,57.68782589,11.98133193,A,144759.70
18:37:40.261432,0.52925,0.03789,1.06180,1.06180,[3.00000 0.00000 0.00000],[1.30000 0.00000 0.00000],-0.01138,0.01823,0.01476,0.00000,0.00000,0.00098,0.01293,0.09662,-0.02550,0.96478,0.49352,0.00488,0.88366,1.62101,1.63161,-0.00578,0.12285,0.52554,-0.04953,0.12973,2.06169,2.06169,57.68783,11.98133,57.68782627,11.98133190,A,144759.90
18:37:40.285862,0.55368,0.01211,1.06180,1.06180,[3.00000 0.00000 0.00000],[1.30000 0.00000 0.00000],-0.01169,0.01735,0.00865,0.00000,0.00000,0.00022,-0.01991,0.06545,-0.03562,0.99839,0.54534,0.00977,0.91929,1.68587,1.69596,-0.00912,0.14208,0.52554,-0.04953,0.12973,2.06169,2.06169,57.68783,11.98133,57.68782644,11.98133185,A,144759.90
18:37:40.309640,0.57746,0.01165,1.06180,1.06180,[3.00000 0.00000 0.00000],[1.30000 0.00000 0.00000],-0.01172,0.01633,0.01354,0.00000,0.00000,0.00281,-0.01120,0.05319,-0.00622,0.99936,0.56677,0.01465,0.94779,1.74105,1.75055,-0.01331,0.15867,0.52554,-0.04953,0.12973,2.06169,2.06169,57.68783,11.98133,57.68782659,11.98133178,A,144759.90
18:37:40.334959,0.60278,0.01349,1.06180,1.06180,[3.00000 0.00000 0.00000],[1.30000 0.00000 0.00000],-0.01139,0.01531,0.02621,0.00000,0.00000,0.00037,0.00544,0.04929,-0.00775,1.00839,0.59237,0.01221,0.97059,1.78804,1.79695,-0.01843,0.17544,0.52554,-0.04953,0.12973,2.06169,2.06169,57.68783,11.98133,57.68782674,11.98133169,A,144759.90
18:37:40.375178,0.64299,0.02616,1.06180,1.06180,[3.00000 0.00000 0.00000],[1.30000 0.00000 0.00000],-0.01126,0.01390,0.02988,0.00000,0.00000,-0.00711,0.00666,0.08522,-0.02818,0.98472,0.61853,0.01465,0.98883,1.79384,1.80192,-0.02844,0.20962,0.63894,-0.05944,0.16679,1.83196,1.83196,57.68783,11.98133,57.68782705,11.98133152,A,144800.00
18:37:40.401912,0.66973,0.01269,1.06180,1.06180,[3.00000 0.00000 0.00000],[1.30000 0.00000 0.00000],-0.01070,0.01112,0.02927,0.00000,0.00000,-0.00146,-0.01197,0.06301,-0.02733,0.99430,0.65997,0.01954,1.00342,1.79883,1.80530,-0.03514,0.22934,0.63894,-0.05944,0.16679,1.83196,1.83196,57.68783,11.98133,57.68782723,11.98133141,A,144800.00
18:37:40.421569,0.68938,0.01023,1.06180,1.06180,[3.00000 0.00000 0.00000],[1.30000 0.00000 0.00000],-0.01092,0.01027,0.02102,0.00000,0.00000,-0.00543,-0.01869,0.06021,-0.02684,0.98814,0.67985,0.02198,1.01510,1.80304,1.80901,-0.03997,0.24137,0.63894,-0.05944,0.16679,1.83196,1.83196,57.68783,11.98133,57.68782734,11.98133133,A,144800.00
18:37:40.447600,0.71541,0.01178,0.62435,0.62435,[3.00000 0.00000 0.00000],[1.30000 0.00000 0.00000],-0.01058,0.00883,0.02469,0.00000,0.00000,0.00159,-0.01288,0.03514,-0.00494,0.99149,0.70518,0.02198,0.93695,1.80678,1.81192,-0.04616,0.25912,0.63894,-0.05944,0.16679,1.83196,1.83196,57.68783,11.98133,57.68782750,11.98133122,A,144800.00
18:37:40.472892,0.74010,0.01226,0.62435,0.62435,[3.00000 0.00000 0.00000],[1.30000 0.00000 0.00000],-0.01034,0.00614,0.03080,0.00000,0.00000,-0.00207,-0.00540,0.07765,-0.01891,0.95935,0.72987,0.01221,0.87443,1.81016,1.81373,-0.05147,0.27339,0.63894,-0.05944,0.16679,1.83196,1.83196,57.68783,11.98133,57.68782763,11.98133113,A,144800.00
18:37:40.510670,0.77848,0.02542,0.62435,0.62435,[3.00000 0.00000 0.00000],[1.30000 0.00000 0.00000],-0.01014,0.00306,0.02805,0.00000,0.00000,-0.00925,-0.00372,0.02965,-0.01775,0.98881,0.75488,0.00733,0.82442,1.89695,1.89873,-0.06024,0.29879,0.77478,-0.07925,0.18532,2.38956,2.38956,57.68783,11.98133,57.68782785,11.98133099,A,144800.10
18:37:40.537783,0.80559,0.01222,0.62435,0.62435,[3.00000 0.00000 0.00000],[1.30000 0.00000 0.00000],-0.00977,-0.00065,0.02102,0.00000,0.00000,-0.00605,-0.01640,0.06509,-0.01653,1.00723,0.79491,0.01465,0.78440,1.97094,1.97056,-0.06687,0.30980,0.77478,-0.07925,0.18532,2.38956,2.38956,57.68783,11.98133,57.68782795,11.98133087,A,144800.10
18:37:40.559362,0.82718,0.01021,0.62435,0.62435,[3.00000 0.00000 0.00000],[1.30000 0.00000 0.00000],-0.00955,-0.00184,0.01980,0.00000,0.00000,-0.00696,-0.02098,0.04978,-0.00134,0.97685,0.81881,0.01465,0.75239,2.03389,2.03282,-0.07313,0.31694,0.77478,-0.07925,0.18532,2.38956,2.38956,57.68783,11.98133,57.68782802,11.98133077,A,144800.10
18:37:40.587575,0.85538,0.01164,0.62435,0.62435,[3.00000 0.00000 0.00000],[1.30000 0.00000 0.00000],-0.00924,-0.00294,0.02652,0.00000,0.00000,-0.00299,-0.01579,0.04514,-0.01214,0.98631,0.84617,0.00977,0.72679,2.08747,2.08576,-0.08118,0.32590,0.77478,-0.07925,0.18532,2.38956,2.38956,57.68783,11.98133,57.68782810,11.98133063,A,144800.10
18:37:40.627028,0.89485,0.02625,0.62435,0.62435,[3.00000 0.00000 0.00000],[1.30000 0.00000 0.00000],-0.00892,-0.00396,0.02499,0.00000,0.00000,-0.00879,-0.00983,0.04972,-0.00549,0.98991,0.87174,0.00977,0.70630,2.06160,2.05930,-0.09528,0.34498,0.89107,-0.09906,0.24092,1.91312,1.91312,57.68783,11.98133,57.68782827,11.98133040,A,144800.20
18:37:40.649741,0.91756,0.01116,0.62435,0.62435,[3.00000 0.00000 0.00000],[1.30000 0.00000 0.00000],-0.00803,-0.00419,0.02973,0.00000,0.00000,-0.00543,-0.00891,0.07460,0.00238,0.99155,0.90914,0.01221,0.68991,2.03965,2.03722,-0.10203,0.35212,0.89107,-0.09906,0.24092,1.91312,1.91312,57.68783,11.98133,57.68782833,11.98133028,A,144800.20
18:37:40.675159,0.94188,0.01207,0.62435,0.62435,[3.00000 0.00000 0.00000],[1.30000 0.00000 0.00000],-0.00790,-0.00419,0.01491,0.00000,0.00000,-0.01032,-0.01655,0.06972,0.00189,0.98003,0.93253,0.01709,0.67680,2.02099,2.01856,-0.10818,0.35908,0.89107,-0.09906,0.24092,1.91312,1.91312,57.68783,11.98133,57.68782840,11.98133018,A,144800.20
18:37:40.700529,0.96834,0.01168,0.62435,0.62435,[3.00000 0.00000 0.00000],[1.30000 0.00000 0.00000],-0.00794,-0.00419,0.00987,0.00000,0.00000,-0.00269,-0.01823,0.01708,-0.00317,1.03389,0.95874,0.00977,0.66631,2.00513,2.00269,-0.11403,0.36630,0.89107,-0.09906,0.24092,1.91312,1.91312,57.68783,11.98133,57.68782846,11.98133008,A,144800.20
18:37:40.741447,1.00927,0.02628,0.62435,0.62435,[3.00000 0.00000 0.00000],[1.30000 0.00000 0.00000],-0.00793,-0.00419,0.01232,0.00000,0.00000,-0.00162,-0.00983,0.08101,-0.00439,0.98289,0.98528,0.01221,0.65792,2.04164,2.03920,-0.12520,0.38452,1.00556,-0.12878,0.27799,2.24663,2.24663,57.68783,11.98133,57.68782862,11.98132989,A,144800.30
18:37:40.761078,1.02890,0.00896,0.78461,0.78461,[3.00000 0.00000 0.00000],[1.30000 0.00000 0.00000],-0.00764,-0.00419,0.01247,0.00000,0.00000,0.00312,-0.01059,0.02525,0.00647,1.00345,1.02122,0.01221,0.68326,2.07272,2.07028,-0.13039,0.38910,1.00556,-0.12878,0.27799,2.24663,2.24663,57.68783,11.98133,57.68782867,11.98132981,A,144800.30
18:37:40.771728,1.03955,0.00922,0.78461,0.78461,[3.00000 0.00000 0.00000],[1.30000 0.00000 0.00000],-0.00797,-0.00419,0.00880,0.00000,0.00000,0.00816,-0.01136,0.05575,-0.01019,0.98240,1.02989,0.01465,0.70353,2.09915,2.09672,-0.13294,0.38836,1.00556,-0.12878,0.27799,2.24663,2.24663,57.68783,11.98133,57.68782866,11.98132976,A,144800.30
18:37:40.783945,1.05176,0.00942,0.78461,0.78461,[3.00000 0.00000 0.00000],[1.30000 0.00000 0.00000],-0.00821,-0.00419,0.01064,0.00000,0.00000,0.00419,-0.00678,0.09296,-0.00744,0.95861,1.04194,0.01465,0.71975,2.12162,2.11918,-0.13581,0.38814,1.00556,-0.12878,0.27799,2.24663,2.24663,57.68783,11.98133,57.68782866,11.98132972,A,144800.30
18:37:40.795448,1.06327,0.01048,0.78461,0.78461,[3.00000 0.00000 0.00000],[1.30000 0.00000 0.00000],-0.00834,-0.00419,0.00697,0.00000,0.00000,-0.00238,-0.00754,0.08473,0.00189,0.96807,1.05373,0.01709,0.73272,2.14072,2.13828,-0.13845,0.38754,1.00556,-0.12878,0.27799,2.24663,2.24663,57.68783,11.98133,57.68782865,11.98132967,A,144800.30
18:37:40.816699,1.08451,0.01053,0.78461,0.78461,[3.00000 0.00000 0.00000],[1.30000 0.00000 0.00000],-0.00850,-0.00419,0.00865,0.00000,0.00000,-0.00253,-0.00754,0.03050,-0.00756,1.00760,1.07685,0.01221,0.74310,2.15693,2.15449,-0.14515,0.39333,1.00556,-0.12878,0.27799,2.24663,2.24663,57.68783,11.98133,57.68782870,11.98132956,A,144800.30
18:37:40.871809,1.13963,0.03981,3.79171,0.78461,[3.00000 0.00000 0.00000],[1.30000 0.00000 0.00000],-0.00861,-0.00419,0.00529,0.00000,0.00000,-0.00482,-0.00387,0.07436,-0.00177,1.02535,1.10563,0.02198,0.75140,2.12396,2.12152,-0.16757,0.42548,1.13586,-0.17831,0.40771,1.93552,1.93552,57.68783,11.98133,57.68782899,11.98132918,A,144800.50
18:37:40.895054,1.16255,0.01377,3.79171,0.78461,[3.00000 0.00000 0.00000],[1.30000 0.00000 0.00000],-0.00855,-0.00419,0.00987,0.00000,0.00000,-0.00177,-0.00891,0.04136,-0.01092,0.98362,1.15308,0.01465,0.75804,2.09601,2.09358,-0.17534,0.43637,1.13586,-0.17831,0.40771,1.93552,1.93552,57.68783,11.98133,57.68782909,11.98132905,A,144800.50
18:37:40.924868,1.19268,0.01610,3.79171,0.78461,[3.00000 0.00000 0.00000],[1.30000 0.00000 0.00000],-0.00867,-0.00419,0.00514,0.00000,0.00000,-0.00528,-0.00693,0.06094,-0.00177,0.97704,1.18265,0.01221,0.76336,2.07224,2.06981,-0.18525,0.45188,1.13586,-0.17831,0.40771,1.93552,1.93552,57.68783,11.98133,57.68782923,11.98132888,A,144800.50
18:37:40.953601,1.22141,0.01592,3.79171,0.78461,[3.00000 0.00000 0.00000],[1.30000 0.00000 0.00000],-0.00870,-0.00419,0.01079,0.00000,0.00000,-0.00192,-0.00632,0.03263,-0.00756,1.01010,1.21197,0.01709,0.76761,2.05204,2.04960,-0.19372,0.46584,1.13586,-0.17831,0.40771,1.93552,1.93552,57.68783,11.98133,57.68782936,11.98132874,A,144800.50
18:37:40.997588,1.26541,0.03052,3.79171,0.78461,[3.00000 0.00000 0.00000],[1.30000 0.00000 0.00000],-0.00883,-0.00419,0.01094,0.00000,0.00000,-0.00467,-0.00235,0.06411,-0.01397,0.98850,1.24198,0.02198,0.77101,2.05375,2.05132,-0.20918,0.49409,1.26167,-0.21794,0.48184,2.06169,2.06169,57.68783,11.98133,57.68782961,11.98132848,A,144800.60
18:37:41.020506,1.28832,0.01310,3.79171,0.78461,[3.00000 0.00000 0.00000],[1.30000 0.00000 0.00000],-0.00881,-0.00419,0.00544,0.00000,0.00000,0.00129,-0.01059,0.04227,0.00293,0.99155,1.27962,0.00733,0.77373,2.05526,2.05282,-0.21666,0.50699,1.26167,-0.21794,0.48184,2.06169,2.06169,57.68783,11.98133,57.68782973,11.98132835,A,144800.60
18:37:41.051265,1.31909,0.01739,3.79171,0.78461,[3.00000 0.00000 0.00000],[1.30000 0.00000 0.00000],-0.00908,-0.00419,0.00239,0.00000,0.00000,-0.00330,-0.01823,0.03916,-0.00653,1.01412,1.30757,0.01954,0.77591,2.05652,2.05409,-0.22558,0.52267,1.26167,-0.21794,0.48184,2.06169,2.06169,57.68783,11.98133,57.68782987,11.98132820,A,144800.60
18:37:41.073544,1.34136,0.01073,1.01686,1.01686,[3.00000 0.00000 0.00000],[1.30000 0.00000 0.00000],-0.00898,-0.00419,0.01247,0.00000,0.00000,-0.00070,-0.01701,0.06204,0.00159,1.00131,1.33238,0.01465,0.82410,2.05762,2.05518,-0.23174,0.53309,1.26167,-0.21794,0.48184,2.06169,2.06169,57.68783,11.98133,57.68782996,11.98132810,A,144800.60
18:37:41.115152,1.38297,0.02665,1.01686,1.01686,[3.00000 0.00000 0.00000],[1.30000 0.00000 0.00000],-0.00879,-0.00419,0.01675,0.00000,0.00000,-0.00039,-0.00632,0.01982,-0.00116,1.01955,1.35869,0.01221,0.86265,2.07321,2.07078,-0.24806,0.56185,1.37919,-0.26747,0.55597,2.15984,2.15984,57.68783,11.98133,57.68783022,11.98132783,A,144800.70
18:37:41.137193,1.40501,0.01004,1.01686,1.01686,[3.00000 0.00000 0.00000],[1.30000 0.00000 0.00000],-0.00834,-0.00419,0.01949,0.00000,0.00000,-0.00391,-0.01197,0.02416,-0.00378,0.99772,1.39687,0.00733,0.89349,2.08652,2.08408,-0.25695,0.57606,1.37919,-0.26747,0.55597,2.15984,2.15984,57.68783,11.98133,57.68783035,11.98132768,A,144800.70
18:37:41.165812,1.43361,0.01246,1.01686,1.01686,[3.00000 0.00000 0.00000],[1.30000 0.00000 0.00000],-0.00797,-0.00419,0.02484,0.00000,0.00000,-0.00345,-0.01319,0.02037,-0.00396,1.00565,1.42425,0.01221,0.91816,2.09781,2.09537,-0.26827,0.59420,1.37919,-0.26747,0.55597,2.15984,2.15984,57.68783,11.98133,57.68783051,11.98132749,A,144800.70
18:37:41.189261,1.45708,0.01215,1.01686,1.01686,[3.00000 0.00000 0.00000],[1.30000 0.00000 0.00000],-0.00751,-0.00419,0.02560,0.00000,0.00000,-0.00177,-0.01059,0.03044,0.00970,0.99991,1.44641,0.01221,0.93790,2.10742,2.10499,-0.27719,0.60778,1.37919,-0.26747,0.55597,2.15984,2.15984,57.68783,11.98133,57.68783063,11.98132734,A,144800.70
18:37:41.213104,1.48092,0.01247,1.01686,1.01686,[3.00000 0.00000 0.00000],[1.30000 0.00000 0.00000],-0.00678,-0.00419,0.03813,0.00000,0.00000,0.00465,-0.00403,0.01019,0.00268,1.00034,1.47150,0.01709,0.95369,2.11559,2.11315,-0.28610,0.62107,1.37919,-0.26747,0.55597,2.15984,2.15984,57.68783,11.98133,57.68783075,11.98132719,A,144800.70
18:37:41.264086,1.53190,0.03715,1.01686,1.01686,[3.00000 0.00000 0.00000],[1.30000 0.00000 0.00000],-0.00604,-0.00419,0.03354,0.00000,0.00000,0.01136,0.00208,0.03892,0.00982,0.98466,1.49727,0.01465,0.96632,2.07326,2.07083,-0.31019,0.66346,1.52815,-0.30709,0.70423,1.83196,1.83196,57.68783,11.98133,57.68783113,11.98132678,A,144800.90
18:37:41.291324,1.55838,0.01240,1.13297,1.13297,[3.00000 0.00000 0.00000],[1.30000 0.00000 0.00000],-0.00513,-0.00419,0.02896,0.00000,0.00000,0.00724,-0.02006,0.07027,-0.01757,0.97319,1.54834,0.01465,0.99965,2.03736,2.03493,-0.32045,0.68457,1.52815,-0.30709,0.70423,1.83196,1.83196,57.68783,11.98133,57.68783132,11.98132661,A,144800.90
18:37:41.314430,1.58202,0.01167,1.13297,1.13297,[3.00000 0.00000 0.00000],[1.30000 0.00000 0.00000],-0.00475,-0.00419,0.03080,0.00000,0.00000,0.00220,-0.01044,0.01653,-0.00421,0.99503,1.57221,0.01709,1.02632,2.00685,2.00442,-0.32837,0.70270,1.52815,-0.30709,0.70423,1.83196,1.83196,57.68783,11.98133,57.68783149,11.98132648,A,144800.90
18:37:41.340477,1.60829,0.01324,1.13297,1.13297,[3.00000 0.00000 0.00000],[1.30000 0.00000 0.00000],-0.00391,-0.00408,0.04255,0.00000,0.00000,0.00800,0.00101,0.06948,0.00098,0.99033,1.59877,0.01465,1.04765,1.98090,1.97853,-0.33684,0.72336,1.52815,-0.30709,0.70423,1.83196,1.83196,57.68783,11.98133,57.68783167,11.98132633,A,144800.90
18:37:41.380724,1.64854,0.02630,1.13297,1.13297,[3.00000 0.00000 0.00000],[1.30000 0.00000 0.00000],-0.00296,-0.00303,0.04882,0.00000,0.00000,-0.00956,0.00666,0.04532,0.00079,0.99204,1.62478,0.01221,1.06471,1.97672,1.97496,-0.35210,0.76145,1.64478,-0.33681,0.77836,1.95208,1.95208,57.68783,11.98133,57.68783201,11.98132608,A,144801.00
18:37:41.404375,1.67219,0.01212,1.13297,1.13297,[3.00000 0.00000 0.00000],[1.30000 0.00000 0.00000],-0.00132,-0.00037,0.04378,0.00000,0.00000,0.00632,-0.00510,0.05228,0.02202,1.01809,1.66274,0.00977,1.07837,1.97301,1.97279,-0.35941,0.78116,1.64478,-0.33681,0.77836,1.95208,1.95208,57.68783,11.98133,57.68783219,11.98132595,A,144801.00
18:37:41.430724,1.69853,0.01385,1.13297,1.13297,[3.00000 0.00000 0.00000],[1.30000 0.00000 0.00000],-0.00036,0.00235,0.03904,0.00000,0.00000,-0.00207,-0.00876,0.03886,0.02135,0.98539,1.68838,0.00733,1.08929,1.96966,1.97102,-0.36718,0.80197,1.64478,-0.33681,0.77836,1.95208,1.95208,57.68783,11.98133,57.68783238,11.98132582,A,144801.00
18:37:41.457805,1.72562,0.01202,1.13297,1.13297,[3.00000 0.00000 0.00000],[1.30000 0.00000 0.00000],0.00069,0.00594,0.04576,0.00000,0.00000,-0.00742,0.00590,0.06734,0.01525,0.97838,1.71489,0.01221,1.09802,1.96655,1.97000,-0.37506,0.82300,1.64478,-0.33681,0.77836,1.95208,1.95208,57.68783,11.98133,57.68783257,11.98132569,A,144801.00
18:37:41.495957,1.76378,0.02512,1.13297,1.13297,[3.00000 0.00000 0.00000],[1.30000 0.00000 0.00000],0.00182,0.00940,0.04912,0.00000,0.00000,-0.01796,0.01369,0.08278,0.01909,0.98979,1.74042,0.02930,1.10501,1.98017,1.98564,-0.38989,0.85946,1.76001,-0.37644,0.85249,2.06169,2.06169,57.68783,11.98133,57.68783290,11.98132544,A,144801.10
18:37:41.518387,1.78598,0.01161,1.13738,1.13738,[3.00000 0.00000 0.00000],[1.30000 0.00000 0.00000],0.00309,0.01271,0.05095,0.00000,0.00000,-0.01047,0.01858,0.03331,-0.00952,0.99637,1.77676,0.00977,1.11149,1.99143,1.99882,-0.39687,0.87650,1.76001,-0.37644,0.85249,2.06169,2.06169,57.68783,11.98133,57.68783305,11.98132532,A,144801.10
18:37:41.545068,1.81287,0.01460,1.13738,1.13738,[3.00000 0.00000 0.00000],[1.30000 0.00000 0.00000],0.00388,0.01381,0.04011,0.00000,0.00000,0.00159,0.01338,-0.01598,0.01440,0.95556,1.80213,0.01465,1.11666,2.00100,2.00903,-0.40584,0.89719,1.76001,-0.37644,0.85249,2.06169,2.06169,57.68783,11.98133,57.68783324,11.98132517,A,144801.10
18:37:41.568783,1.83658,0.01008,1.13738,1.13738,[3.00000 0.00000 0.00000],[1.30000 0.00000 0.00000],0.00489,0.01412,0.03629,0.00000,0.00000,0.03427,0.00575,0.01482,0.03489,0.96520,1.82786,0.01954,1.12081,2.00911,2.01733,-0.41394,0.91539,1.76001,-0.37644,0.85249,2.06169,2.06169,57.68783,11.98133,57.68783340,11.98132504,A,144801.10
18:37:41.609802,1.87762,0.02517,1.13738,1.13738,[3.00000 0.00000 0.00000],[1.30000 0.00000 0.00000],0.00582,0.01412,0.03018,0.00000,0.00000,0.02664,0.01094,0.07094,0.04264,1.03145,1.85410,0.01221,1.12412,2.01624,2.02445,-0.43357,0.95651,1.87393,-0.43587,0.96369,2.06169,2.06169,57.68783,11.98132,57.68783377,11.98132471,A,144801.20
18:37:41.630046,1.89783,0.01140,1.13738,1.13738,[3.00000 0.00000 0.00000],[1.30000 0.00000 0.00000],0.00632,0.01421,0.02652,0.00000,0.00000,-0.00009,0.01079,0.04740,0.00647,1.03938,1.88769,0.00977,1.12677,2.02201,2.03028,-0.44153,0.97296,1.87393,-0.43587,0.96369,2.06169,2.06169,57.68783,11.98132,57.68783392,11.98132457,A,144801.20
18:37:41.654992,1.92280,0.01394,1.13738,1.13738,[3.00000 0.00000 0.00000],[1.30000 0.00000 0.00000],0.00729,0.01452,0.02973,0.00000,0.00000,-0.01215,0.01751,0.04551,0.05215,1.02138,1.91156,0.02198,1.12889,2.02695,2.03539,-0.45120,0.99260,1.87393,-0.43587,0.96369,2.06169,2.06169,57.68783,11.98132,57.68783409,11.98132441,A,144801.20
18:37:41.679657,1.94747,0.01289,1.13738,1.13738,[3.00000 0.00000 0.00000],[1.30000 0.00000 0.00000],0.00812,0.01460,0.02347,0.00000,0.00000,-0.02177,0.01934,0.05667,0.04917,0.97881,1.93634,0.01221,1.13059,2.03113,2.03963,-0.46037,1.01098,1.87393,-0.43587,0.96369,2.06169,2.06169,57.68783,11.98132,57.68783426,11.98132425,A,144801.20
18:37:41.701704,1.96950,0.01237,1.13738,1.13738,[3.00000 0.00000 0.00000],[1.30000 0.00000 0.00000],0.00829,0.01460,0.01995,0.00000,0.00000,-0.01994,0.00987,0.02544,0.01562,0.98478,1.95899,0.01954,1.13195,2.03466,2.04315,-0.46782,1.02574,1.87393,-0.43587,0.96369,2.06169,2.06169,57.68783,11.98132,57.68783439,11.98132413,A,144801.20
18:37:41.739001,2.00682,0.02652,1.16231,1.16231,[3.00000 0.00000 0.00000],[1.30000 0.00000 0.00000],0.00844,0.01460,0.00880,0.00000,0.00000,-0.01093,0.00880,0.01110,0.03019,0.99168,1.98365,0.01465,1.13802,2.02711,2.03560,-0.48637,1.06280,2.00306,-0.48540,1.07488,1.98985,1.98985,57.68783,11.98132,57.68783472,11.98132382,A,144801.30
18:37:41.767378,2.03518,0.01605,1.16231,1.16231,[3.00000 0.00000 0.00000],[1.30000 0.00000 0.00000],0.00857,0.01460,0.00835,0.00000,0.00000,-0.00727,0.00666,0.06185,0.02202,0.98003,2.02142,0.00977,1.14288,2.02050,2.02899,-0.49622,1.08313,2.00306,-0.48540,1.07488,1.98985,1.98985,57.68783,11.98132,57.68783491,11.98132365,A,144801.30
18:37:41.796301,2.06412,0.01390,1.16231,1.16231,[3.00000 0.00000 0.00000],[1.30000 0.00000 0.00000],0.00729,0.01460,-0.00891,0.00000,0.00000,-0.02269,0.00697,0.05539,-0.03032,0.94074,2.05220,0.03419,1.14677,2.01498,2.02348,-0.50959,1.11093,2.00306,-0.48540,1.07488,1.98985,1.98985,57.68783,11.98132,57.68783516,11.98132343,A,144801.30
18:37:41.820189,2.08801,0.01198,1.16231,1.16231,[3.00000 0.00000 0.00000],[1.30000 0.00000 0.00000],0.00585,0.01460,-0.00967,0.00000,0.00000,-0.01047,0.00437,0.11560,-0.04563,1.00851,2.07909,0.04151,1.14987,2.01021,2.01870,-0.51872,1.13039,2.00306,-0.48540,1.07488,1.98985,1.98985,57.68783,11.98132,57.68783533,11.98132327,A,144801.30
18:37:41.872721,2.14053,0.03754,1.16231,1.16231,[3.00000 0.00000 0.00000],[1.30000 0.00000 0.00000],0.00359,0.01460,-0.02647,0.00000,0.00000,-0.00559,-0.00815,0.01641,-0.07619,1.03096,2.10483,0.01709,1.15236,2.00085,2.00934,-0.54555,1.18877,2.13561,-0.57456,1.29727,1.95208,1.95208,57.68784,11.98132,57.68783586,11.98132282,A,144801.50
18:37:41.898803,2.16662,0.01286,1.38838,1.38838,[3.00000 0.00000 0.00000],[1.30000 0.00000 0.00000],0.00322,0.01460,-0.02708,0.00000,0.00000,-0.01735,-0.02220,-0.15714,0.09559,1.01351,2.15448,0.01709,1.19957,1.99253,2.00102,-0.55719,1.21591,2.13561,-0.57456,1.29727,1.95208,1.95208,57.68784,11.98132,57.68783610,11.98132263,A,144801.50
18:37:41.924715,2.19253,0.01223,1.38838,1.38838,[3.00000 0.00000 0.00000],[1.30000 0.00000 0.00000],0.00150,0.01460,0.01720,0.00000,0.00000,-0.02132,0.01842,0.18361,-0.10827,0.91152,2.18434,0.03419,1.23733,1.98550,1.99399,-0.56948,1.24486,2.13561,-0.57456,1.29727,1.95208,1.95208,57.68784,11.98132,57.68783636,11.98132242,A,144801.50
18:37:41.952683,2.21988,0.01229,1.38838,1.38838,[3.00000 0.00000 0.00000],[1.30000 0.00000 0.00000],0.00771,0.01460,0.00880,0.00000,0.00000,-0.01994,0.01842,-0.40632,0.45536,0.99955,2.20971,0.02686,1.26754,1.97954,1.98803,-0.58153,1.27367,2.13561,-0.57456,1.29727,1.95208,1.95208,57.68784,11.98132,57.68783662,11.98132222,A,144801.50
18:37:41.994565,2.26237,0.02876,1.38838,1.38838,[3.00000 0.00000 0.00000],[1.30000 0.00000 0.00000],0.00567,0.01460,0.03904,0.00000,0.00000,-0.02422,-0.01151,0.13798,-0.15500,0.89487,2.23723,0.03907,1.29171,1.97814,1.98663,-0.60353,1.32545,2.25737,-0.61418,1.38994,1.97489,1.97489,57.68784,11.98132,57.68783709,11.98132185,A,144801.60
18:37:42.021990,2.28980,0.01221,1.38838,1.38838,[3.00000 0.00000 0.00000],[1.30000 0.00000 0.00000],0.00820,0.01460,0.02377,0.00000,0.00000,-0.00421,-0.00708,0.04917,0.14268,1.06103,2.28028,0.02930,1.31104,1.97672,1.98521,-0.61631,1.35640,2.25737,-0.61418,1.38994,1.97489,1.97489,57.68784,11.98132,57.68783737,11.98132163,A,144801.60
18:37:42.045743,2.31356,0.01201,1.38838,1.38838,[3.00000 0.00000 0.00000],[1.30000 0.00000 0.00000],0.00941,0.01460,0.04210,0.00000,0.00000,-0.01185,0.00346,0.08912,0.04599,0.97014,2.30493,0.02442,1.32651,1.97549,1.98399,-0.62758,1.38395,2.25737,-0.61418,1.38994,1.97489,1.97489,57.68784,11.98132,57.68783761,11.98132144,A,144801.60
18:37:42.071491,2.33869,0.01162,1.34646,1.34646,[3.00000 0.00000 0.00000],[1.30000 0.00000 0.00000],0.00928,0.01438,0.02759,0.00000,0.00000,-0.02620,0.00071,0.01391,-0.01501,1.01266,2.32839,0.02686,1.33050,1.97446,1.98282,-0.63796,1.40945,2.25737,-0.61418,1.38994,1.97489,1.97489,57.68784,11.98132,57.68783784,11.98132127,A,144801.60
18:37:42.111199,2.37902,0.02672,1.34646,1.34646,[3.00000 0.00000 0.00000],[1.30000 0.00000 0.00000],0.00911,0.01223,0.03293,0.00000,0.00000,-0.00085,-0.01288,0.03270,-0.03300,1.01687,2.35455,0.01465,1.33369,1.98703,1.99414,-0.65943,1.45908,2.37420,-0.67362,1.50113,2.06169,2.06169,57.68784,11.98132,57.68783829,11.98132091,A,144801.70
18:37:42.133794,2.40160,0.01072,1.34646,1.34646,[3.00000 0.00000 0.00000],[1.30000 0.00000 0.00000],0.00921,0.00716,-0.00799,0.00000,0.00000,-0.02834,-0.02159,0.06259,0.05832,0.95916,2.39108,0.01221,1.33624,1.99783,2.00199,-0.66999,1.48304,2.37420,-0.67362,1.50113,2.06169,2.06169,57.68784,11.98132,57.68783850,11.98132073,A,144801.70
18:37:42.158928,2.42674,0.01193,1.34646,1.34646,[3.00000 0.00000 0.00000],[1.30000 0.00000 0.00000],0.00875,0.00422,0.00453,0.00000,0.00000,-0.01704,-0.01594,0.09138,-0.00378,0.99814,2.41697,0.03175,1.33829,2.00720,2.00965,-0.68212,1.50991,2.37420,-0.67362,1.50113,2.06169,2.06169,57.68784,11.98132,57.68783875,11.98132052,A,144801.70
18:37:42.185485,2.45330,0.01228,1.34646,1.34646,[3.00000 0.00000 0.00000],[1.30000 0.00000 0.00000],0.00868,0.00161,-0.01349,0.00000,0.00000,-0.02620,-0.03060,0.06222,0.05161,1.00931,2.44228,0.02198,1.33992,2.01533,2.01627,-0.69457,1.53690,2.37420,-0.67362,1.50113,2.06169,2.06169,57.68784,11.98132,57.68783899,11.98132031,A,144801.70
18:37:42.225794,2.49361,0.02658,1.34646,1.34646,[3.00000 0.00000 0.00000],[1.30000 0.00000 0.00000],0.00771,-0.00037,-0.00402,0.00000,0.00000,-0.02575,-0.03106,0.06740,-0.02446,1.02431,2.46946,0.00977,1.34123,2.01319,2.01298,-0.71776,1.58613,2.48882,-0.73306,1.63086,2.00042,2.00042,57.68784,11.98132,57.68783943,11.98131992,A,144801.80
18:37:42.251696,2.51951,0.01183,1.60805,1.60805,[3.00000 0.00000 0.00000],[1.30000 0.00000 0.00000],0.00693,-0.00198,-0.00845,0.00000,0.00000,-0.03124,-0.02541,0.10858,0.00281,0.97203,2.51110,0.00733,1.39459,2.01144,2.01029,-0.73143,1.61564,2.48882,-0.73306,1.63086,2.00042,2.00042,57.68784,11.98132,57.68783970,11.98131969,A,144801.80
18:37:42.280032,2.54784,0.01414,1.60805,1.60805,[3.00000 0.00000 0.00000],[1.30000 0.00000 0.00000],0.00641,-0.00325,-0.01716,0.00000,0.00000,-0.02590,-0.03503,0.09546,0.02684,1.01376,2.53773,0.00733,1.43728,2.01002,2.00813,-0.74529,1.64570,2.48882,-0.73306,1.63086,2.00042,2.00042,57.68784,11.98132,57.68783997,11.98131946,A,144801.80
18:37:42.301777,2.56959,0.01024,1.60805,1.60805,[3.00000 0.00000 0.00000],[1.30000 0.00000 0.00000],0.00613,-0.00365,-0.00540,0.00000,0.00000,-0.01063,-0.02800,0.03355,0.01909,0.99546,2.56051,0.00244,1.47144,2.00883,2.00671,-0.75575,1.66863,2.48882,-0.73306,1.63086,2.00042,2.00042,57.68784,11.98132,57.68784017,11.98131928,A,144801.80
18:37:42.340430,2.60824,0.02677,1.60805,1.60805,[3.00000 0.00000 0.00000],[1.30000 0.00000 0.00000],0.00610,-0.00365,-0.01303,0.00000,0.00000,-0.00605,-0.01762,0.16244,0.04715,0.98442,2.58369,0.00000,1.49876,2.00616,2.00404,-0.77889,1.71910,2.60342,-0.78259,1.74205,1.98985,1.98985,57.68784,11.98132,57.68784063,11.98131890,A,144801.90
18:37:42.365176,2.63299,0.01419,1.60805,1.60805,[3.00000 0.00000 0.00000],[1.30000 0.00000 0.00000],0.00586,-0.00365,-0.00876,0.00000,0.00000,-0.02956,-0.02480,0.06795,0.03428,0.95935,2.62143,0.00000,1.52062,2.00395,2.00183,-0.79083,1.74567,2.60342,-0.78259,1.74205,1.98985,1.98985,57.68784,11.98132,57.68784087,11.98131869,A,144801.90
18:37:42.392394,2.66021,0.01282,1.60805,1.60805,[3.00000 0.00000 0.00000],[1.30000 0.00000 0.00000],0.00452,-0.00365,-0.01945,0.00000,0.00000,-0.02972,-0.03335,0.26303,-0.02196,0.96697,2.65052,0.00000,1.53810,2.00206,1.99993,-0.80508,1.77737,2.60342,-0.78259,1.74205,1.98985,1.98985,57.68784,11.98132,57.68784115,11.98131845,A,144801.90
18:37:42.419521,2.68733,0.01378,1.29744,1.29744,[3.00000 0.00000 0.00000],[1.30000 0.00000 0.00000],0.00427,-0.00365,-0.01532,0.00000,0.00000,-0.05705,-0.03029,0.10443,0.03721,0.96624,2.67664,0.00733,1.48997,2.00045,1.99832,-0.81847,1.80732,2.60342,-0.78259,1.74205,1.98985,1.98985,57.68784,11.98132,57.68784142,11.98131823,A,144801.90
18:37:42.457850,2.72567,0.02630,1.29744,1.29744,[3.00000 0.00000 0.00000],[1.30000 0.00000 0.00000],0.00334,-0.00365,-0.01395,0.00000,0.00000,-0.03308,-0.02235,0.13926,-0.01226,1.04359,2.70059,0.00488,1.45147,2.01981,2.01768,-0.84209,1.85778,2.72065,-0.85193,1.85325,2.12840,2.12840,57.68784,11.98132,57.68784187,11.98131783,A,144802.00
18:37:42.486657,2.75444,0.01365,1.29744,1.29744,[3.00000 0.00000 0.00000],[1.30000 0.00000 0.00000],0.00181,-0.00365,-0.01716,0.00000,0.00000,0.01503,-0.02831,0.14329,-0.02684,0.97051,2.74246,0.00000,1.42066,2.03632,2.03420,-0.85689,1.88741,2.72065,-0.85193,1.85325,2.12840,2.12840,57.68784,11.98132,57.68784214,11.98131758,A,144802.00
18:37:42.510392,2.77800,0.01231,1.29744,1.29744,[3.00000 0.00000 0.00000],[1.30000 0.00000 0.00000],0.00140,-0.00365,-0.03655,0.00000,0.00000,-0.02132,-0.02999,0.22649,0.05563,0.93074,2.76794,0.00000,1.39602,2.05037,2.04825,-0.86930,1.91103,2.72065,-0.85193,1.85325,2.12840,2.12840,57.68784,11.98132,57.68784235,11.98131737,A,144802.00
18:37:42.538626,2.80643,0.01456,1.85289,1.85289,[3.00000 0.00000 0.00000],[1.30000 0.00000 0.00000],-0.00057,-0.00365,-0.02067,0.00000,0.00000,-0.01658,-0.02632,0.11877,-0.07100,1.01254,2.79498,0.00000,1.48739,2.06230,2.06018,-0.88396,1.93815,2.72065,-0.85193,1.85325,2.12840,2.12840,57.68784,11.98132,57.68784260,11.98131713,A,144802.00
18:37:42.589052,2.85687,0.03590,1.85289,1.85289,[3.00000 0.00000 0.00000],[1.30000 0.00000 0.00000],-0.00206,-0.00365,-0.05411,0.00000,0.00000,-0.01658,-0.01624,0.19593,0.02141,0.96624,2.82270,0.00000,1.56049,2.04588,2.04376,-0.92128,2.01067,2.85206,-0.97081,2.14977,1.95208,1.95208,57.68784,11.98132,57.68784325,11.98131650,A,144802.20
18:37:42.615157,2.88297,0.01161,1.85289,1.85289,[3.00000 0.00000 0.00000],[1.30000 0.00000 0.00000],-0.00513,-0.00365,-0.05396,0.00000,0.00000,0.00312,-0.02632,0.21222,-0.00348,1.03462,2.87345,0.00000,1.61897,2.03203,2.02991,-0.93995,2.04927,2.85206,-0.97081,2.14977,1.95208,1.95208,57.68784,11.98132,57.68784360,11.98131619,A,144802.20
18:37:42.641103,2.90892,0.01314,1.85289,1.85289,[3.00000 0.00000 0.00000],[1.30000 0.00000 0.00000],-0.00647,-0.00365,-0.06511,0.00000,0.00000,0.00419,-0.03121,0.08973,0.03385,0.91311,2.89870,0.00000,1.66576,2.02026,2.01813,-0.95727,2.08621,2.85206,-0.97081,2.14977,1.95208,1.95208,57.68784,11.98132,57.68784393,11.98131589,A,144802.20
18:37:42.667389,2.93521,0.01487,1.85289,1.85289,[3.00000 0.00000 0.00000],[1.30000 0.00000 0.00000],-0.00919,-0.00365,-0.06557,0.00000,0.00000,-0.01292,-0.02144,0.23046,-0.05033,0.87633,2.92362,0.00244,1.70318,2.01025,2.00813,-0.97273,2.12019,2.85206,-0.97081,2.14977,1.95208,1.95208,57.68784,11.98132,57.68784423,11.98131563,A,144802.20
18:37:42.707703,2.97552,0.02631,1.67313,1.67313,[3.00000 0.00000 0.00000],[1.30000 0.00000 0.00000],-0.01020,-0.00365,-0.06007,0.00000,0.00000,0.02129,-0.01487,0.01800,0.05832,1.08421,2.95055,0.00000,1.69717,2.02673,2.02461,-1.00308,2.18481,2.97069,-1.05006,2.27950,2.11919,2.11919,57.68785,11.98131,57.68784482,11.98131512,A,144802.30
18:37:42.733173,3.00099,0.01104,1.67313,1.67313,[3.00000 0.00000 0.00000],[1.30000 0.00000 0.00000],-0.01333,-0.00365,-0.09489,0.00000,0.00000,0.00037,-0.03671,0.13115,0.06588,1.00449,2.99237,0.00000,1.69236,2.04081,2.03869,-1.02209,2.22369,2.97069,-1.05006,2.27950,2.11919,2.11919,57.68785,11.98131,57.68784516,11.98131480,A,144802.30
18:37:42.760264,3.02808,0.01224,1.67313,1.67313,[3.00000 0.00000 0.00000],[1.30000 0.00000 0.00000],-0.01567,-0.00365,-0.06786,0.00000,0.00000,0.00190,-0.03426,0.09071,-0.02952,0.94483,3.01800,0.00000,1.68852,2.05278,2.05066,-1.04000,2.25916,2.97069,-1.05006,2.27950,2.11919,2.11919,57.68785,11.98131,57.68784548,11.98131450,A,144802.30
18:37:42.786319,3.05390,0.01276,1.67313,1.67313,[3.00000 0.00000 0.00000],[1.30000 0.00000 0.00000],-0.01774,-0.00365,-0.07763,0.00000,0.00000,0.00297,-0.03075,0.09150,0.00537,0.99686,3.04462,0.00488,1.68544,2.06296,2.06083,-1.05758,2.29300,2.97069,-1.05006,2.27950,2.11919,2.11919,57.68785,11.98131,57.68784579,11.98131421,A,144802.30
18:37:42.825897,3.09371,0.02644,2.20998,2.20998,[3.00000 0.00000 0.00000],[1.30000 0.00000 0.00000],-0.01944,-0.00365,-0.06801,0.00000,0.00000,0.04160,-0.01288,0.11425,0.00024,0.95739,3.06891,0.00000,1.79035,2.04837,2.04625,-1.09017,2.35597,3.08891,-1.11940,2.44629,1.96480,1.96480,57.68785,11.98131,57.68784635,11.98131366,A,144802.40
18:37:42.852132,3.11995,0.01312,2.20998,2.20998,[3.00000 0.00000 0.00000],[1.30000 0.00000 0.00000],-0.02201,-0.00365,-0.06389,0.00000,0.00000,0.00892,-0.03839,0.12456,0.00439,1.02998,3.10987,0.00000,1.87427,2.03605,2.03392,-1.10923,2.39466,3.08891,-1.11940,2.44629,1.96480,1.96480,57.68785,11.98131,57.68784670,11.98131334,A,144802.40
18:37:42.878931,3.14674,0.01415,2.20998,2.20998,[3.00000 0.00000 0.00000],[1.30000 0.00000 0.00000],-0.02463,-0.00365,-0.07168,0.00000,0.00000,0.00739,-0.03991,0.08558,-0.05033,1.03974,3.13639,0.00488,1.94141,2.02556,2.02344,-1.12861,2.43503,3.08891,-1.11940,2.44629,1.96480,1.96480,57.68785,11.98131,57.68784707,11.98131301,A,144802.40
18:37:42.905109,3.17291,0.01200,2.18647,2.18647,[3.00000 0.00000 0.00000],[1.30000 0.00000 0.00000],-0.02562,-0.00365,-0.06251,0.00000,0.00000,0.00449,-0.02312,0.04526,0.04185,1.04499,3.16259,0.00244,1.99042,2.01664,2.01452,-1.14732,2.47501,3.08891,-1.11940,2.44629,1.96480,1.96480,57.68785,11.98131,57.68784742,11.98131270,A,144802.40
18:37:42.945766,3.21358,0.02681,2.18647,2.18647,[3.00000 0.00000 0.00000],[1.30000 0.00000 0.00000],-0.02769,-0.00365,-0.03701,0.00000,0.00000,-0.00574,-0.00968,0.23942,-0.07686,0.98918,3.18866,0.00733,2.02963,2.02350,2.02138,-1.18262,2.54986,3.20857,-1.19865,2.59455,2.06169,2.06169,57.68785,11.98131,57.68784810,11.98131210,A,144802.50
18:37:42.970508,3.23735,0.01098,2.18647,2.18647,[3.00000 0.00000 0.00000],[1.30000 0.00000 0.00000],-0.02933,-0.00365,-0.01899,0.00000,0.00000,0.01534,-0.01258,0.14561,-0.05844,0.92598,3.22920,0.01221,2.06100,2.02942,2.02730,-1.20197,2.59044,3.20857,-1.19865,2.59455,2.06169,2.06169,57.68785,11.98131,57.68784846,11.98131178,A,144802.50
18:37:42.997535,3.26535,0.01391,2.18647,2.18647,[3.00000 0.00000 0.00000],[1.30000 0.00000 0.00000],-0.03063,-0.00365,-0.02143,0.00000,0.00000,0.00465,-0.01395,0.05191,-0.05636,0.97185,3.25420,0.00244,2.08609,2.03444,2.03232,-1.22311,2.63403,3.20857,-1.19865,2.59455,2.06169,2.06169,57.68785,11.98131,57.68784886,11.98131142,A,144802.50
18:37:43.024642,3.29246,0.01314,2.11968,2.11968,[3.00000 0.00000 0.00000],[1.30000 0.00000 0.00000],-0.03023,-0.00272,-0.00387,0.00000,0.00000,0.03091,0.00269,0.13890,0.02647,0.98930,3.28145,0.00244,2.09281,2.03864,2.03706,-1.24246,2.67341,3.20857,-1.19865,2.59455,2.06169,2.06169,57.68785,11.98131,57.68784921,11.98131110,A,144802.50
18:37:43.077394,3.34521,0.03877,2.11968,2.11968,[3.00000 0.00000 0.00000],[1.30000 0.00000 0.00000],-0.03061,0.00006,0.00010,0.00000,0.00000,-0.01735,0.01323,0.02922,-0.03050,0.96917,3.30956,0.00488,2.09818,2.03435,2.03438,-1.29346,2.77615,3.34041,-1.34724,2.90960,2.01150,2.01150,57.68785,11.98131,57.68785013,11.98131024,A,144802.70
18:37:43.106513,3.37431,0.01538,2.11968,2.11968,[3.00000 0.00000 0.00000],[1.30000 0.00000 0.00000],-0.03009,0.00535,0.02056,0.00000,0.00000,-0.02681,0.00758,0.06051,-0.04447,1.09629,3.36233,0.00977,2.10248,2.03046,2.03357,-1.31743,2.82538,3.34041,-1.34724,2.90960,2.01150,2.01150,57.68785,11.98131,57.68785058,11.98130984,A,144802.70
18:37:43.131766,3.39958,0.01393,2.47919,2.47919,[3.00000 0.00000 0.00000],[1.30000 0.00000 0.00000],-0.02860,0.00815,0.02301,0.00000,0.00000,-0.00650,0.01858,0.07277,0.05484,0.96002,3.38960,0.00244,2.17782,2.02709,2.03183,-1.33888,2.86961,3.34041,-1.34724,2.90960,2.01150,2.01150,57.68785,11.98131,57.68785097,11.98130947,A,144802.70
18:37:43.159705,3.42751,0.01430,2.47919,2.47919,[3.00000 0.00000 0.00000],[1.30000 0.00000 0.00000],-0.02618,0.00979,0.04561,0.00000,0.00000,-0.03628,0.02942,-0.03672,0.07625,0.90432,3.41572,0.00000,2.23810,2.02420,2.02989,-1.36055,2.91440,3.34041,-1.34724,2.90960,2.01150,2.01150,57.68785,11.98131,57.68785138,11.98130911,A,144802.70
18:37:43.200986,3.46849,0.02765,2.47919,2.47919,[3.00000 0.00000 0.00000],[1.30000 0.00000 0.00000],-0.02595,0.01016,0.04561,0.00000,0.00000,-0.03155,0.02530,0.02525,-0.06100,0.97826,3.44286,0.00733,2.28631,2.01780,2.02371,-1.40248,3.00150,3.46365,-1.43640,3.11346,1.98308,1.98308,57.68785,11.98131,57.68785216,11.98130840,A,144802.80
18:37:43.225651,3.49347,0.01224,2.44882,2.44882,[3.00000 0.00000 0.00000],[1.30000 0.00000 0.00000],-0.02426,0.01169,0.04821,0.00000,0.00000,0.01335,0.01842,0.09876,-0.01446,1.05079,3.48430,0.01221,2.31882,2.01194,2.01874,-1.42446,3.04876,3.46365,-1.43640,3.11346,1.98308,1.98308,57.68785,11.98131,57.68785258,11.98130803,A,144802.80
18:37:43.252510,3.52033,0.01293,2.44882,2.44882,[3.00000 0.00000 0.00000],[1.30000 0.00000 0.00000],-0.02367,0.01319,0.05462,0.00000,0.00000,-0.01047,0.01919,0.18086,-0.04380,0.90085,3.51085,0.00244,2.34482,2.00695,2.01462,-1.44829,3.10036,3.46365,-1.43640,3.11346,1.98308,1.98308,57.68785,11.98131,57.68785305,11.98130763,A,144802.80
18:37:43.278804,3.54661,0.01222,2.44882,2.44882,[3.00000 0.00000 0.00000],[1.30000 0.00000 0.00000],-0.02262,0.01364,0.05324,0.00000,0.00000,-0.03445,0.02438,0.02074,-0.01086,0.99900,3.53629,0.01221,2.36562,2.00269,2.01062,-1.46908,3.14599,3.46365,-1.43640,3.11346,1.98308,1.98308,57.68785,11.98131,57.68785346,11.98130728,A,144802.80
18:37:43.332442,3.60026,0.03494,2.91872,2.91872,[3.00000 0.00000 0.00000],[1.30000 0.00000 0.00000],-0.02067,0.01432,0.07004,0.00000,0.00000,0.02725,0.03446,0.05856,-0.03697,0.97704,3.57543,0.00244,2.47624,1.99853,2.00685,-1.52188,3.26088,3.59544,-1.51565,3.29878,1.97489,1.97489,57.68785,11.98131,57.68785449,11.98130640,A,144802.90
18:37:43.356799,3.62461,0.01332,2.91872,2.91872,[3.00000 0.00000 0.00000],[1.30000 0.00000 0.00000],-0.01768,0.01480,0.06058,0.00000,0.00000,-0.01231,0.02163,0.08760,0.05838,0.95794,3.61392,0.00000,2.56474,1.99422,2.00283,-1.54159,3.30575,3.59544,-1.51565,3.29878,1.97489,1.97489,57.68785,11.98131,57.68785490,11.98130606,A,144802.90
18:37:43.381240,3.64905,0.01244,2.91872,2.91872,[3.00000 0.00000 0.00000],[1.30000 0.00000 0.00000],-0.01614,0.01480,0.06042,0.00000,0.00000,-0.01444,0.01201,0.07418,0.02550,1.08610,3.63813,0.01221,2.63553,1.99058,1.99919,-1.56055,3.34933,3.59544,-1.51565,3.29878,1.97489,1.97489,57.68785,11.98131,57.68785529,11.98130574,A,144802.90
18:37:43.407054,3.67487,0.01325,2.91872,2.91872,[3.00000 0.00000 0.00000],[1.30000 0.00000 0.00000],-0.01540,0.01480,0.03858,0.00000,0.00000,0.02236,-0.00418,-0.03928,-0.00207,1.02346,3.66563,0.00488,2.69217,1.98761,1.99622,-1.58267,3.40016,3.59544,-1.51565,3.29878,1.97489,1.97489,57.68785,11.98131,57.68785575,11.98130537,A,144802.90
18:37:43.449731,3.71755,0.02730,2.12649,2.12649,[3.00000 0.00000 0.00000],[1.30000 0.00000 0.00000],-0.01510,0.01480,0.03965,0.00000,0.00000,0.00632,-0.01013,0.09583,-0.02946,0.88499,3.69210,0.01709,2.57903,1.98221,1.99082,-1.62745,3.50260,3.71273,-1.60481,3.52117,1.95208,1.95208,57.68786,11.98131,57.68785667,11.98130462,A,144803.00
18:37:43.475948,3.74376,0.01415,2.12649,2.12649,[3.00000 0.00000 0.00000],[1.30000 0.00000 0.00000],-0.01404,0.01469,0.04057,0.00000,0.00000,-0.03491,-0.01334,-0.00964,-0.02300,1.03547,3.73265,0.02198,2.48852,1.97701,1.98555,-1.64746,3.55086,3.71273,-1.60481,3.52117,1.95208,1.95208,57.68786,11.98131,57.68785710,11.98130428,A,144803.00
18:37:43.500974,3.76879,0.01086,2.75979,2.75979,[3.00000 0.00000 0.00000],[1.30000 0.00000 0.00000],-0.01321,0.01398,0.03706,0.00000,0.00000,0.01259,-0.00983,-0.13804,0.01189,1.13027,3.75862,0.00733,2.54278,1.97265,1.98078,-1.66659,3.59767,3.71273,-1.60481,3.52117,1.95208,1.95208,57.68786,11.98131,57.68785752,11.98130396,A,144803.00
18:37:43.525811,3.79363,0.01286,2.75979,2.75979,[3.00000 0.00000 0.00000],[1.30000 0.00000 0.00000],-0.01260,0.01370,0.02438,0.00000,0.00000,0.02037,-0.00265,0.13280,0.02172,0.96118,3.78277,0.01709,2.58618,1.96891,1.97688,-1.68342,3.63967,3.71273,-1.60481,3.52117,1.95208,1.95208,57.68786,11.98131,57.68785790,11.98130368,A,144803.00
18:37:43.544672,3.81248,0.00799,2.75979,2.75979,[3.00000 0.00000 0.00000],[1.30000 0.00000 0.00000],-0.01089,0.01370,0.02957,0.00000,0.00000,-0.00452,-0.00601,-0.03617,0.09363,1.02468,3.80489,0.01954,2.62090,1.96565,1.97361,-1.69629,3.67284,3.71273,-1.60481,3.52117,1.95208,1.95208,57.68786,11.98131,57.68785820,11.98130346,A,144803.00
18:37:43.581927,3.84974,0.03512,2.75979,2.75979,[3.00000 0.00000 0.00000],[1.30000 0.00000 0.00000],-0.01116,0.01361,0.04057,0.00000,0.00000,0.00465,-0.01151,0.01452,-0.02105,1.01199,3.81421,0.01465,2.64868,1.96802,1.97594,-1.73548,3.76742,3.84483,-1.78312,3.92889,1.98308,1.98308,57.68786,11.98130,57.68785905,11.98130280,A,144803.20
18:37:43.609335,3.87715,0.01381,2.75979,2.75979,[3.00000 0.00000 0.00000],[1.30000 0.00000 0.00000],-0.00868,0.01319,0.02515,0.00000,0.00000,0.02358,-0.01838,0.04642,0.10211,0.99894,3.86603,0.01221,2.67090,1.96975,1.97742,-1.76096,3.82934,3.84483,-1.78312,3.92889,1.98308,1.98308,57.68786,11.98130,57.68785960,11.98130237,A,144803.20
18:37:43.630533,3.89833,0.01033,2.25106,2.25106,[3.00000 0.00000 0.00000],[1.30000 0.00000 0.00000],-0.00752,0.01319,0.04271,0.00000,0.00000,0.02679,-0.00143,0.14164,0.03300,1.01297,3.88961,0.01221,2.58693,1.97110,1.97877,-1.78125,3.87887,3.84483,-1.78312,3.92889,1.98308,1.98308,57.68786,11.98130,57.68786005,11.98130203,A,144803.20
18:37:43.656938,3.92476,0.01412,2.25106,2.25106,[3.00000 0.00000 0.00000],[1.30000 0.00000 0.00000],-0.00637,0.01319,0.05248,0.00000,0.00000,-0.00192,0.00498,-0.03349,0.01525,0.96044,3.91387,0.01465,2.51976,1.97231,1.97998,-1.80336,3.93231,3.84483,-1.78312,3.92889,1.98308,1.98308,57.68786,11.98130,57.68786053,11.98130166,A,144803.20
18:37:43.679376,3.94717,0.01002,2.25106,2.25106,[3.00000 0.00000 0.00000],[1.30000 0.00000 0.00000],-0.00595,0.01316,0.05309,0.00000,0.00000,0.01152,-0.00540,0.11614,-0.03148,1.03749,3.93736,0.01221,2.46602,1.97326,1.98091,-1.82099,3.97514,3.84483,-1.78312,3.92889,1.98308,1.98308,57.68786,11.98130,57.68786092,11.98130136,A,144803.20
18:37:43.717118,3.98494,0.02464,2.86912,2.86912,[3.00000 0.00000 0.00000],[1.30000 0.00000 0.00000],-0.00439,0.01305,0.04485,0.00000,0.00000,0.01854,-0.02189,0.11511,0.05929,0.93330,3.96068,0.01465,2.54664,1.96031,1.96790,-1.85779,4.06475,3.98013,-1.86237,4.16981,1.88859,1.88859,57.68786,11.98130,57.68786172,11.98130074,A,144803.30
18:37:43.739246,4.00705,0.01234,2.86912,2.86912,[3.00000 0.00000 0.00000],[1.30000 0.00000 0.00000],-0.00222,0.01302,0.03599,0.00000,0.00000,-0.02284,-0.02556,-0.10010,0.08125,0.87523,3.99549,0.02442,2.61114,1.94884,1.95641,-1.87404,4.10820,3.98013,-1.86237,4.16981,1.88859,1.88859,57.68786,11.98130,57.68786211,11.98130047,A,144803.30
18:37:43.765138,4.03295,0.01378,2.86912,2.86912,[3.00000 0.00000 0.00000],[1.30000 0.00000 0.00000],-0.00246,0.01251,0.04469,0.00000,0.00000,0.00862,-0.01609,0.00756,-0.06155,1.04103,4.02065,0.01465,2.66273,1.93926,1.94654,-1.89392,4.16168,3.98013,-1.86237,4.16981,1.88859,1.88859,57.68786,11.98130,57.68786259,11.98130014,A,144803.30
18:37:43.793892,4.06105,0.01297,2.63870,2.63870,[3.00000 0.00000 0.00000],[1.30000 0.00000 0.00000],-0.00210,0.01056,0.01629,0.00000,0.00000,-0.01124,-0.01762,0.07960,0.02275,1.12283,4.04971,0.01221,2.65793,1.93138,1.93751,-1.91629,4.22280,3.98013,-1.86237,4.16981,1.88859,1.88859,57.68786,11.98130,57.68786314,11.98129976,A,144803.30
18:37:43.834881,4.10269,0.02765,2.63870,2.63870,[3.00000 0.00000 0.00000],[1.30000 0.00000 0.00000],-0.00221,0.00826,0.01507,0.00000,0.00000,-0.02376,-0.02739,0.09504,-0.00781,0.99723,4.07784,0.02930,2.65408,1.94615,1.95096,-1.95563,4.32617,4.09769,-1.98124,4.41073,2.02916,2.02916,57.68786,11.98130,57.68786407,11.98129910,A,144803.40
18:37:43.862736,4.13055,0.01431,2.63870,2.63870,[3.00000 0.00000 0.00000],[1.30000 0.00000 0.00000],-0.00123,0.00795,0.01232,0.00000,0.00000,-0.03873,-0.02541,-0.02147,0.05423,0.91329,4.11942,0.03907,2.65100,1.95831,1.96294,-1.98020,4.38868,4.09769,-1.98124,4.41073,2.02916,2.02916,57.68786,11.98130,57.68786464,11.98129868,A,144803.40
18:37:43.890493,4.15802,0.01406,2.52101,2.52101,[3.00000 0.00000 0.00000],[1.30000 0.00000 0.00000],-0.00026,0.00795,0.02240,0.00000,0.00000,0.00449,-0.00800,0.06045,0.05173,1.02937,4.14790,0.02930,2.62500,1.96862,1.97324,-2.00322,4.44531,4.09769,-1.98124,4.41073,2.02916,2.02916,57.68786,11.98130,57.68786514,11.98129830,A,144803.40
18:37:43.918763,4.18657,0.01449,2.52101,2.52101,[3.00000 0.00000 0.00000],[1.30000 0.00000 0.00000],0.00121,0.00795,0.02789,0.00000,0.00000,-0.00314,0.00010,0.13792,0.07436,0.99576,4.17645,0.00977,2.60420,1.97738,1.98201,-2.02605,4.49981,4.09769,-1.98124,4.41073,2.02916,2.02916,57.68786,11.98130,57.68786563,11.98129791,A,144803.40
18:37:43.967801,4.23562,0.03613,2.52101,2.52101,[3.00000 0.00000 0.00000],[1.30000 0.00000 0.00000],0.00205,0.00795,0.01064,0.00000,0.00000,-0.05003,-0.00678,0.12212,0.07009,1.02083,4.20071,0.01954,2.58756,1.97586,1.98049,-2.08006,4.62521,4.23081,-2.15955,4.83698,1.96700,1.96700,57.68787,11.98130,57.68786676,11.98129700,A,144803.60
18:37:43.995300,4.26310,0.01463,2.82560,2.82560,[3.00000 0.00000 0.00000],[1.30000 0.00000 0.00000],0.00272,0.00795,0.01400,0.00000,0.00000,-0.03430,-0.02174,-0.09235,0.02934,1.01492,4.25248,0.02686,2.63517,1.97419,1.97882,-2.10650,4.68754,4.23081,-2.15955,4.83698,1.96700,1.96700,57.68787,11.98130,57.68786732,11.98129656,A,144803.60
18:37:44.021367,4.28919,0.01319,2.82560,2.82560,[3.00000 0.00000 0.00000],[1.30000 0.00000 0.00000],0.00323,0.00795,0.00835,0.00000,0.00000,-0.00452,-0.00494,0.11017,0.04410,0.83125,4.27993,0.01954,2.67326,1.97279,1.97741,-2.13273,4.74954,4.23081,-2.15955,4.83698,1.96700,1.96700,57.68787,11.98130,57.68786788,11.98129612,A,144803.60
18:37:44.045989,4.31380,0.01289,2.82560,2.82560,[3.00000 0.00000 0.00000],[1.30000 0.00000 0.00000],0.00324,0.00795,0.00697,0.00000,0.00000,-0.00284,-0.00418,0.11444,0.02141,0.91829,4.30348,0.02198,2.70373,1.97155,1.97618,-2.15488,4.80224,4.23081,-2.15955,4.83698,1.96700,1.96700,57.68787,11.98130,57.68786835,11.98129575,A,144803.60
18:37:44.088704,4.35652,0.02842,2.69980,2.69980,[3.00000 0.00000 0.00000],[1.30000 0.00000 0.00000],0.00211,0.00753,-0.00341,0.00000,0.00000,0.02282,-0.04389,0.02324,-0.04209,1.12557,4.33014,0.01465,2.70294,1.97797,1.98235,-2.20061,4.90910,4.35131,-2.23880,5.00377,2.01436,2.01436,57.68787,11.98129,57.68786932,11.98129498,A,144803.70
18:37:44.111870,4.37968,0.01164,2.69980,2.69980,[3.00000 0.00000 0.00000],[1.30000 0.00000 0.00000],-0.00054,0.00376,-0.02953,0.00000,0.00000,0.02709,-0.04755,0.11999,-0.06911,0.98832,4.37051,0.01954,2.70231,1.98340,1.98559,-2.22333,4.96151,4.35131,-2.23880,5.00377,2.01436,2.01436,57.68787,11.98129,57.68786979,11.98129459,A,144803.70
18:37:44.139277,4.40709,0.01497,2.69980,2.69980,[3.00000 0.00000 0.00000],[1.30000 0.00000 0.00000],-0.00164,0.00096,-0.05931,0.00000,0.00000,-0.04117,-0.03442,0.04276,0.04673,0.88914,4.39642,0.02198,2.70181,1.98814,1.98870,-2.24876,5.01961,4.35131,-2.23880,5.00377,2.01436,2.01436,57.68787,11.98129,57.68787031,11.98129417,A,144803.70
18:37:44.164560,4.43237,0.01345,3.10454,3.10454,[3.00000 0.00000 0.00000],[1.30000 0.00000 0.00000],-0.00255,-0.00297,-0.05488,0.00000,0.00000,-0.02116,-0.03976,-0.00177,0.05356,1.05194,4.42161,0.02198,2.78236,1.99238,1.99065,-2.27156,5.07129,4.35131,-2.23880,5.00377,2.01436,2.01436,57.68787,11.98129,57.68787077,11.98129378,A,144803.70
18:37:44.205966,4.47378,0.02738,3.10454,3.10454,[3.00000 0.00000 0.00000],[1.30000 0.00000 0.00000],-0.00458,-0.00558,-0.06435,0.00000,0.00000,0.00862,-0.05015,-0.14219,-0.00268,0.93708,4.44897,0.00733,2.84679,1.99309,1.98985,-2.31888,5.17742,4.46884,-2.34777,5.24469,1.99556,1.99556,57.68787,11.98129,57.68787173,11.98129299,A,144803.80
18:37:44.231823,4.49965,0.01298,3.10454,3.10454,[3.00000 0.00000 0.00000],[1.30000 0.00000 0.00000],-0.00653,-0.00603,-0.07015,0.00000,0.00000,0.05214,-0.04251,0.08961,0.07405,1.03596,4.48931,0.01954,2.89834,1.99373,1.99023,-2.34446,5.23497,4.46884,-2.34777,5.24469,1.99556,1.99556,57.68787,11.98129,57.68787225,11.98129256,A,144803.80
18:37:44.257574,4.52539,0.01340,2.35258,2.35258,[3.00000 0.00000 0.00000],[1.30000 0.00000 0.00000],-0.00897,-0.00603,-0.07473,0.00000,0.00000,-0.00879,-0.03762,-0.04124,-0.02043,0.92494,4.51489,0.02198,2.78919,1.99424,1.99074,-2.36972,5.29173,4.46884,-2.34777,5.24469,1.99556,1.99556,57.68787,11.98129,57.68787276,11.98129213,A,144803.80
18:37:44.285045,4.55286,0.01425,2.35258,2.35258,[3.00000 0.00000 0.00000],[1.30000 0.00000 0.00000],-0.01108,-0.00603,-0.07091,0.00000,0.00000,-0.04163,-0.04129,-0.00366,-0.00342,0.97874,4.54161,0.03175,2.70187,1.99467,1.99116,-2.39436,5.34703,4.46884,-2.34777,5.24469,1.99556,1.99556,57.68787,11.98129,57.68787325,11.98129172,A,144803.80
18:37:44.325448,4.59327,0.02891,2.35258,2.35258,[3.00000 0.00000 0.00000],[1.30000 0.00000 0.00000],-0.01293,-0.00603,-0.06251,0.00000,0.00000,0.01136,-0.04373,-0.01909,-0.00384,1.04304,4.56813,0.03907,2.63201,1.99558,1.99207,-2.43953,5.44785,4.58822,-2.46665,5.50415,2.00042,2.00042,57.68787,11.98129,57.68787416,11.98129096,A,144803.90
18:37:44.352817,4.62063,0.01480,2.90028,2.90028,[3.00000 0.00000 0.00000],[1.30000 0.00000 0.00000],-0.01535,-0.00603,-0.05671,0.00000,0.00000,0.00297,-0.02907,0.10504,-0.00122,0.88798,4.60928,0.04151,2.68567,1.99656,1.99306,-2.46444,5.50322,4.58822,-2.46665,5.50415,2.00042,2.00042,57.68787,11.98129,57.68787466,11.98129054,A,144803.90
18:37:44.379813,4.64763,0.01256,2.90028,2.90028,[3.00000 0.00000 0.00000],[1.30000 0.00000 0.00000],-0.01567,-0.00603,-0.02510,0.00000,0.00000,-0.00849,-0.02449,-0.10669,0.03751,1.16754,4.63805,0.03419,2.72859,1.99737,1.99387,-2.49015,5.56026,4.58822,-2.46665,5.50415,2.00042,2.00042,57.68787,11.98129,57.68787517,11.98129010,A,144803.90
18:37:44.406769,4.67458,0.01318,2.90028,2.90028,[3.00000 0.00000 0.00000],[1.30000 0.00000 0.00000],-0.01733,-0.00603,-0.03396,0.00000,0.00000,0.03748,-0.02754,0.19306,-0.04959,1.02962,4.66391,0.00733,2.76293,1.99808,1.99457,-2.51334,5.61156,4.58822,-2.46665,5.50415,2.00042,2.00042,57.68787,11.98129,57.68787563,11.98128971,A,144803.90
18:37:44.447705,4.71552,0.02395,2.35728,2.35728,[3.00000 0.00000 0.00000],[1.30000 0.00000 0.00000],-0.01824,-0.00603,-0.03243,0.00000,0.00000,0.00159,-0.01991,0.06118,0.00244,0.86614,4.69208,0.00977,2.68180,2.00236,1.99885,-2.56007,5.71399,4.71071,-2.57561,5.72654,2.02640,2.02640,57.68788,11.98129,57.68787655,11.98128893,A,144804.00
18:37:44.473667,4.74147,0.01333,2.35728,2.35728,[3.00000 0.00000 0.00000],[1.30000 0.00000 0.00000],-0.01934,-0.00592,-0.01212,0.00000,0.00000,-0.00162,-0.00235,-0.00500,-0.03849,1.01449,4.73136,0.04151,2.61690,2.00621,2.00277,-2.58447,5.76640,4.71071,-2.57561,5.72654,2.02640,2.02640,57.68788,11.98129,57.68787703,11.98128852,A,144804.00
18:37:44.501749,4.76958,0.01323,2.35728,2.35728,[3.00000 0.00000 0.00000],[1.30000 0.00000 0.00000],-0.02105,-0.00484,-0.01303,0.00000,0.00000,0.02984,0.00178,0.06728,-0.09150,1.03956,4.75836,0.02686,2.56497,2.00939,2.00657,-2.60896,5.81848,4.71071,-2.57561,5.72654,2.02640,2.02640,57.68788,11.98129,57.68787749,11.98128811,A,144804.00
18:37:44.520244,4.78742,0.00848,3.00028,3.00028,[3.00000 0.00000 0.00000],[1.30000 0.00000 0.00000],-0.02128,-0.00314,-0.02327,0.00000,0.00000,0.03152,-0.00632,0.12194,0.01592,0.95800,4.77866,0.00488,2.65203,2.01207,2.01025,-2.62295,5.84751,4.71071,-2.57561,5.72654,2.02640,2.02640,57.68788,11.98129,57.68787775,11.98128787,A,144804.00
18:37:44.532525,4.80034,0.01117,3.00028,3.00028,[3.00000 0.00000 0.00000],[1.30000 0.00000 0.00000],-0.02289,-0.00201,-0.01197,0.00000,0.00000,0.01534,-0.02006,0.12456,-0.08802,0.90323,4.78947,0.01954,2.72168,2.01435,2.01318,-2.62954,5.86053,4.71071,-2.57561,5.72654,2.02640,2.02640,57.68788,11.98129,57.68787787,11.98128776,A,144804.00
18:37:44.582963,4.85078,0.03653,3.00028,3.00028,[3.00000 0.00000 0.00000],[1.30000 0.00000 0.00000],-0.02304,0.00173,-0.02434,0.00000,0.00000,-0.02743,-0.00800,0.11761,0.03575,1.01583,4.81615,0.00733,2.77740,2.00598,2.00698,-2.69142,5.99333,4.84593,-2.77374,6.20838,1.96090,1.96090,57.68788,11.98129,57.68787907,11.98128672,A,144804.20
18:37:44.610537,4.87755,0.01294,2.69832,2.69832,[3.00000 0.00000 0.00000],[1.30000 0.00000 0.00000],-0.02321,0.00832,-0.00005,0.00000,0.00000,0.01702,0.02407,0.11938,-0.00384,0.96593,4.86792,0.02930,2.76159,1.99858,2.00342,-2.72220,6.06128,4.84593,-2.77374,6.20838,1.96090,1.96090,57.68788,11.98129,57.68787968,11.98128620,A,144804.20
18:37:44.636196,4.90401,0.01245,2.69832,2.69832,[3.00000 0.00000 0.00000],[1.30000 0.00000 0.00000],-0.02361,0.00925,-0.01823,0.00000,0.00000,-0.00742,0.02850,0.05173,0.01147,0.95087,4.89433,0.01954,2.74893,1.99252,1.99790,-2.75070,6.12478,4.84593,-2.77374,6.20838,1.96090,1.96090,57.68788,11.98129,57.68788025,11.98128572,A,144804.20
18:37:44.663263,4.93108,0.01308,2.69832,2.69832,[3.00000 0.00000 0.00000],[1.30000 0.00000 0.00000],-0.02457,0.01090,-0.00326,0.00000,0.00000,-0.01338,0.02667,-0.00616,-0.05362,1.04889,4.91935,0.02198,2.73881,1.98728,1.99362,-2.77810,6.18663,4.84593,-2.77374,6.20838,1.96090,1.96090,57.68788,11.98129,57.68788080,11.98128526,A,144804.20
18:37:44.705696,4.97351,0.02734,2.69832,2.69832,[3.00000 0.00000 0.00000],[1.30000 0.00000 0.00000],-0.02621,0.01390,-0.00433,0.00000,0.00000,-0.01002,0.03156,-0.01220,-0.09949,1.05713,4.94817,0.02686,2.73071,1.98170,1.98978,-2.82624,6.29640,4.96867,-2.86289,6.43077,1.95208,1.95208,57.68788,11.98128,57.68788179,11.98128445,A,144804.30
18:37:44.731309,4.99912,0.01327,2.59427,2.59427,[3.00000 0.00000 0.00000],[1.30000 0.00000 0.00000],-0.02555,0.01625,0.00239,0.00000,0.00000,-0.00788,0.03522,0.09638,0.03941,0.84119,4.98853,0.03663,2.70342,1.97643,1.98587,-2.85030,6.35302,4.96867,-2.86289,6.43077,1.95208,1.95208,57.68788,11.98128,57.68788230,11.98128405,A,144804.30
18:37:44.756081,5.02390,0.01502,2.59427,2.59427,[3.00000 0.00000 0.00000],[1.30000 0.00000 0.00000],-0.02480,0.01636,-0.01212,0.00000,0.00000,-0.06362,0.03431,-0.12432,0.07924,1.01754,5.01331,0.02198,2.68159,1.97206,1.98157,-2.87366,6.40849,4.96867,-2.86289,6.43077,1.95208,1.95208,57.68788,11.98128,57.68788280,11.98128365,A,144804.30
18:37:44.789028,5.05685,0.01996,2.59427,2.59427,[3.00000 0.00000 0.00000],[1.30000 0.00000 0.00000],0.00000,0.01636,0.00499,0.00000,0.00000,0.01564,0.03278,-0.08406,-0.01806,1.10880,5.03993,0.03175,2.59427,1.98013,1.98964,-2.86289,6.43077,4.96867,-2.86289,6.43077,1.95208,1.95208,57.68788,11.98128,57.68788327,11.98128328,A,144804.30
18:37:44.829661,5.09748,0.02617,2.84587,2.84587,[3.00000 0.00000 0.00000],[1.30000 0.00000 0.00000],0.00149,-0.01064,0.01552,-0.05239,0.00000,0.00800,0.03736,-0.01135,0.07576,0.91280,5.07268,0.03907,2.64459,1.98482,1.97863,-2.91453,6.54658,5.09261,-2.97186,6.67170,1.99556,1.99556,57.68789,11.98128,57.68788404,11.98128296,A,144804.40
18:37:44.857407,5.12522,0.01320,2.84587,2.84587,[3.00000 0.00000 0.00000],[1.30000 0.00000 0.00000],0.00144,-0.01064,0.01522,-0.05127,0.00000,0.00648,0.02087,-0.01305,-0.02702,1.00626,5.11499,0.09524,2.68484,1.98685,1.98066,-2.94159,6.60882,5.09261,-2.97186,6.67170,1.99556,1.99556,57.68789,11.98128,57.68788460,11.98128251,A,144804.40
18:37:44.884804,5.15262,0.01334,2.79476,2.79476,[3.00000 0.00000 0.00000],[1.30000 0.00000 0.00000],0.00046,-0.01138,0.02087,-0.06441,0.00000,0.02480,0.00224,-0.05246,-0.08802,1.05658,5.14205,0.06105,2.70683,1.98865,1.98204,-2.96694,6.66683,5.09261,-2.97186,6.67170,1.99556,1.99556,57.68789,11.98128,57.68788512,11.98128208,A,144804.40
18:37:44.910013,5.17783,0.01318,2.79476,2.79476,[3.00000 0.00000 0.00000],[1.30000 0.00000 0.00000],0.00076,-0.01347,-0.00341,0.00729,0.00000,0.07581,0.00590,0.04618,0.03812,0.93293,5.16711,0.10989,2.72441,1.99037,1.98254,-2.98940,6.71801,5.09261,-2.97186,6.67170,1.99556,1.99556,57.68789,11.98128,57.68788558,11.98128170,A,144804.40
18:37:44.962644,5.23046,0.03815,2.79476,2.79476,[3.00000 0.00000 0.00000],[1.30000 0.00000 0.00000],0.00207,-0.01593,0.00804,-0.03218,0.00000,0.01152,0.01293,-0.00647,0.07820,0.89475,5.19384,0.02198,2.73848,1.98596,1.97670,-3.05113,6.86045,5.22563,-3.16999,7.15354,1.96090,1.96090,57.68789,11.98128,57.68788686,11.98128067,A,144804.60
18:37:44.989495,5.25730,0.01259,3.18894,3.18894,[3.00000 0.00000 0.00000],[1.30000 0.00000 0.00000],-0.00002,-0.01653,0.00041,-0.00113,0.00000,0.06451,-0.00510,0.22417,-0.13030,1.01553,5.24592,0.05617,2.82857,1.98293,1.97332,-3.07989,6.92822,5.22563,-3.16999,7.15354,1.96090,1.96090,57.68789,11.98128,57.68788747,11.98128018,A,144804.60
18:37:45.014920,5.28273,0.01388,3.18894,3.18894,[3.00000 0.00000 0.00000],[1.30000 0.00000 0.00000],0.00006,-0.01653,0.00667,-0.02022,0.00000,0.03992,-0.01487,0.05966,0.00220,0.84924,5.27067,0.06593,2.90065,1.98033,1.97072,-3.10679,6.99207,5.22563,-3.16999,7.15354,1.96090,1.96090,57.68789,11.98128,57.68788805,11.98127973,A,144804.60
18:37:45.041356,5.30918,0.01534,3.18894,3.18894,[3.00000 0.00000 0.00000],[1.30000 0.00000 0.00000],-0.00051,-0.01661,0.01568,-0.04503,0.00000,0.00449,0.00804,-0.04666,-0.05380,0.97789,5.29716,0.08059,2.95831,1.97804,1.96838,-3.13504,7.05951,5.22563,-3.16999,7.15354,1.96090,1.96090,57.68789,11.98128,57.68788865,11.98127925,A,144804.60
18:37:45.080051,5.34787,0.02628,2.36829,2.36829,[3.00000 0.00000 0.00000],[1.30000 0.00000 0.00000],0.00020,-0.01726,0.01888,-0.05744,0.00000,0.04970,0.01644,-0.09662,0.03727,1.17968,5.32396,0.08547,2.84030,1.97430,1.96427,-3.18150,7.17118,5.34314,-3.25914,7.37593,1.95208,1.95208,57.68789,11.98128,57.68788966,11.98127847,A,144804.70
18:37:45.104575,5.37239,0.01365,2.36829,2.36829,[3.00000 0.00000 0.00000],[1.30000 0.00000 0.00000],0.00150,-0.01998,0.04118,-0.12941,0.00000,0.04405,0.01690,0.03349,0.00232,0.89115,5.36042,0.08547,2.74590,1.97195,1.96033,-3.20711,7.23378,5.34314,-3.25914,7.37593,1.95208,1.95208,57.68789,11.98128,57.68789022,11.98127804,A,144804.70
18:37:45.130589,5.39840,0.01424,2.36829,2.36829,[3.00000 0.00000 0.00000],[1.30000 0.00000 0.00000],0.00188,-0.02134,0.02713,-0.08873,0.00000,0.00571,0.01827,0.02428,-0.00433,0.95227,5.38586,0.55922,2.67038,1.96994,1.95753,-3.23146,7.29385,5.34314,-3.25914,7.37593,1.95208,1.95208,57.68789,11.98128,57.68789076,11.98127763,A,144804.70
18:37:45.157286,5.42510,0.01330,2.87995,2.87995,[3.00000 0.00000 0.00000],[1.30000 0.00000 0.00000],0.00282,-0.02426,0.02591,-0.08874,0.00000,0.00862,0.02056,-0.06875,0.02495,1.02968,5.41456,0.71551,2.71229,1.96834,1.95423,-3.25650,7.35603,5.34314,-3.25914,7.37593,1.95208,1.95208,57.68789,11.98128,57.68789132,11.98127721,A,144804.70
18:37:45.180524,5.44833,0.01298,2.87995,2.87995,[3.00000 0.00000 0.00000],[1.30000 0.00000 0.00000],0.00340,-0.02646,0.01445,-0.05664,0.00000,0.03855,0.00804,0.02281,0.02751,1.01687,5.43675,0.82295,2.74582,1.96730,1.95191,-3.27465,7.40171,5.34314,-3.25914,7.37593,1.95208,1.95208,57.68789,11.98128,57.68789173,11.98127691,A,144804.70
18:37:45.219799,5.48761,0.02676,2.87995,2.87995,[3.00000 0.00000 0.00000],[1.30000 0.00000 0.00000],0.00363,-0.02938,-0.00754,0.00843,0.00000,0.03091,-0.00815,0.06326,0.03257,0.94690,5.46193,0.42735,2.77265,1.96680,1.94972,-3.31676,7.50712,5.48288,-3.35820,7.61685,1.96090,1.96090,57.68789,11.98128,57.68789268,11.98127620,A,144804.80
18:37:45.247190,5.51500,0.01436,2.44796,2.44796,[3.00000 0.00000 0.00000],[1.30000 0.00000 0.00000],0.00285,-0.03221,-0.01807,0.04310,0.00000,-0.01521,-0.01441,-0.12298,0.01165,1.03761,5.50473,0.15629,2.70771,1.96727,1.94854,-3.34232,7.57161,5.48288,-3.35820,7.61685,1.96090,1.96090,57.68789,11.98128,57.68789326,11.98127577,A,144804.80
18:37:45.277143,5.54496,0.01370,2.44796,2.44796,[3.00000 0.00000 0.00000],[1.30000 0.00000 0.00000],0.00185,-0.03351,-0.02067,0.05481,0.00000,0.03000,-0.01273,0.03172,-0.01641,0.95807,5.53408,0.04396,2.65576,1.96748,1.94799,-3.36906,7.63926,5.48288,-3.35820,7.61685,1.96090,1.96090,57.68789,11.98128,57.68789387,11.98127532,A,144804.80
18:37:45.306471,5.57428,0.01414,2.44796,2.44796,[3.00000 0.00000 0.00000],[1.30000 0.00000 0.00000],0.00086,-0.03396,-0.02342,0.06689,0.00000,0.02175,-0.01762,-0.07479,-0.01446,0.94611,5.56126,0.01709,2.61420,1.96788,1.94813,-3.39076,7.69429,5.48288,-3.35820,7.61685,1.96090,1.96090,57.68789,11.98128,57.68789436,11.98127495,A,144804.80
18:37:45.347571,5.61539,0.02731,2.96778,2.96778,[3.00000 0.00000 0.00000],[1.30000 0.00000 0.00000],-0.00109,-0.03396,-0.02296,0.07312,0.00000,0.02496,-0.03152,0.08876,-0.08827,1.06079,5.59104,0.02442,2.68492,1.97218,1.95243,-3.43380,7.80142,5.61068,-3.46717,7.85777,1.99556,1.99556,57.68790,11.98127,57.68789533,11.98127423,A,144804.90
18:37:45.372047,5.63986,0.01148,2.96778,2.96778,[3.00000 0.00000 0.00000],[1.30000 0.00000 0.00000],-0.00169,-0.03348,-0.04266,0.13456,0.00000,-0.02926,-0.01716,0.01873,0.07784,1.08421,5.63054,0.01954,2.74149,1.97711,1.95764,-3.45661,7.85690,5.61068,-3.46717,7.85777,1.99556,1.99556,57.68790,11.98127,57.68789583,11.98127384,A,144804.90
18:37:45.402579,5.67038,0.01485,2.96778,2.96778,[3.00000 0.00000 0.00000],[1.30000 0.00000 0.00000],-0.00356,-0.03184,-0.03854,0.12949,0.00000,-0.03735,-0.00845,0.13316,-0.05209,0.93586,5.65869,0.00244,2.78675,1.98090,1.96238,-3.48260,7.91946,5.61068,-3.46717,7.85777,1.99556,1.99556,57.68790,11.98127,57.68789639,11.98127341,A,144804.90
18:37:45.426697,5.69346,0.01122,2.78346,2.78346,[3.00000 0.00000 0.00000],[1.30000 0.00000 0.00000],-0.00455,-0.02859,-0.04480,0.15213,0.00000,-0.04896,-0.01823,-0.15476,0.01214,0.98375,5.68453,0.00733,2.78609,1.98414,1.96751,-3.50419,7.97054,5.61068,-3.46717,7.85777,1.99556,1.99556,57.68790,11.98127,57.68789685,11.98127304,A,144804.90
18:37:45.479754,5.74757,0.03930,2.78346,2.78346,[3.00000 0.00000 0.00000],[1.30000 0.00000 0.00000],-0.00701,-0.02488,-0.03105,0.12050,0.00000,0.04206,-0.01304,0.07418,-0.10870,1.05231,5.71213,0.00000,2.78556,1.97974,1.96528,-3.56571,8.11661,5.74283,-3.66530,8.33962,1.96090,1.96090,57.68790,11.98127,57.68789816,11.98127201,A,144805.10
18:37:45.507199,5.77434,0.01350,2.62642,2.62642,[3.00000 0.00000 0.00000],[1.30000 0.00000 0.00000],-0.01023,-0.01834,-0.03365,0.14084,0.00000,-0.04178,-0.01075,0.10419,-0.09644,1.02388,5.76344,0.01221,2.75373,1.97738,1.96671,-3.59331,8.18211,5.74283,-3.66530,8.33962,1.96090,1.96090,57.68790,11.98127,57.68789875,11.98127154,A,144805.10
18:37:45.535555,5.80306,0.01386,2.62642,2.62642,[3.00000 0.00000 0.00000],[1.30000 0.00000 0.00000],-0.00986,-0.01576,-0.04908,0.18566,0.00000,-0.05507,-0.00876,-0.04160,0.13042,1.05030,5.79226,0.00000,2.72827,1.97535,1.96618,-3.62220,8.25049,5.74283,-3.66530,8.33962,1.96090,1.96090,57.68790,11.98127,57.68789937,11.98127106,A,144805.10
18:37:45.562643,5.83045,0.01458,2.62642,2.62642,[3.00000 0.00000 0.00000],[1.30000 0.00000 0.00000],-0.01124,-0.01234,-0.03273,0.14204,0.00000,-0.02071,-0.01563,-0.05771,-0.02495,1.01089,5.82011,0.00000,2.70790,1.97348,1.96631,-3.64862,8.31307,5.74283,-3.66530,8.33962,1.96090,1.96090,57.68790,11.98127,57.68789993,11.98127061,A,144805.10
18:37:45.604777,5.87259,0.02843,2.90556,2.90556,[3.00000 0.00000 0.00000],[1.30000 0.00000 0.00000],-0.01250,-0.00900,-0.05137,0.20284,0.00000,-0.00543,-0.01151,0.01885,0.01281,0.82039,5.84793,0.00000,2.74743,1.97658,1.97134,-3.69517,8.42290,5.86788,-3.77426,8.58054,1.99556,1.99556,57.68790,11.98127,57.68790092,11.98126983,A,144805.20
18:37:45.629729,5.89754,0.01312,2.90556,2.90556,[3.00000 0.00000 0.00000],[1.30000 0.00000 0.00000],-0.01357,-0.00476,-0.01532,0.09890,0.00000,0.06497,0.00621,0.00891,-0.02574,1.11673,5.88706,0.00000,2.77906,1.97944,1.97667,-3.72145,8.48350,5.86788,-3.77426,8.58054,1.99556,1.99556,57.68790,11.98127,57.68790146,11.98126939,A,144805.20
18:37:45.658337,5.92595,0.01391,2.90556,2.90556,[3.00000 0.00000 0.00000],[1.30000 0.00000 0.00000],-0.01330,-0.00088,-0.02311,0.12122,0.00000,-0.00009,0.00407,0.16189,0.06539,0.94111,5.91427,0.00000,2.80436,1.98170,1.98119,-3.74924,8.54687,5.86788,-3.77426,8.58054,1.99556,1.99556,57.68790,11.98127,57.68790203,11.98126892,A,144805.20
18:37:45.682877,5.95069,0.01412,2.81898,2.81898,[3.00000 0.00000 0.00000],[1.30000 0.00000 0.00000],-0.01423,0.00252,-0.01746,0.10787,0.00000,-0.03201,0.01155,-0.07521,-0.02043,1.07659,5.94013,0.00000,2.80728,1.98352,1.98498,-3.77302,8.60033,5.86788,-3.77426,8.58054,1.99556,1.99556,57.68790,11.98127,57.68790251,11.98126852,A,144805.20
18:37:45.721147,5.98896,0.02658,2.81898,2.81898,[3.00000 0.00000 0.00000],[1.30000 0.00000 0.00000],-0.01437,0.00492,-0.00066,0.05805,0.00000,0.02129,0.04087,0.02379,0.00476,1.04804,5.96382,0.00000,2.80962,1.98424,1.98710,-3.81845,8.70241,5.98425,-3.87333,8.80293,1.98985,1.98985,57.68790,11.98127,57.68790343,11.98126776,A,144805.30
18:37:45.746492,6.01429,0.01300,3.25756,3.25756,[3.00000 0.00000 0.00000],[1.30000 0.00000 0.00000],-0.01409,0.00855,0.00880,0.02855,0.00000,0.01610,0.03919,0.05087,0.01318,0.87535,6.00294,0.00000,2.89921,1.98455,1.98952,-3.84404,8.75909,5.98425,-3.87333,8.80293,1.98985,1.98985,57.68790,11.98127,57.68790394,11.98126733,A,144805.30
18:37:45.773664,6.04146,0.01495,3.25756,3.25756,[3.00000 0.00000 0.00000],[1.30000 0.00000 0.00000],-0.01365,0.00979,0.02408,-0.01898,0.00000,0.01763,0.04484,0.01098,0.00641,1.01644,6.02953,0.00000,2.97088,1.98493,1.99062,-3.87220,8.82127,5.98425,-3.87333,8.80293,1.98985,1.98985,57.68790,11.98127,57.68790450,11.98126685,A,144805.30
18:37:45.799163,6.06695,0.01402,3.25756,3.25756,[3.00000 0.00000 0.00000],[1.30000 0.00000 0.00000],-0.01329,0.01067,0.02881,-0.03460,0.00000,0.01243,0.05889,0.13652,-0.00775,1.08495,6.05642,0.01221,3.02822,1.98522,1.99143,-3.89843,8.87900,5.98425,-3.87333,8.80293,1.98985,1.98985,57.68790,11.98127,57.68790502,11.98126641,A,144805.30
18:37:45.840019,6.10784,0.02795,3.25756,3.25756,[3.00000 0.00000 0.00000],[1.30000 0.00000 0.00000],-0.01210,0.01070,0.02545,-0.02915,0.00000,0.01518,0.06027,-0.01775,0.05813,1.07470,6.08348,0.05861,3.07409,1.98162,1.98784,-3.95008,8.99444,6.10311,-3.97239,9.04385,1.96090,1.96090,57.68791,11.98127,57.68790606,11.98126554,A,144805.40
18:37:45.865368,6.13318,0.01320,2.40063,2.40063,[3.00000 0.00000 0.00000],[1.30000 0.00000 0.00000],-0.01062,0.01056,0.03614,-0.06701,0.00000,-0.01047,0.05065,0.21850,0.02287,0.82679,6.12137,0.17094,2.93940,1.97810,1.98424,-3.97608,9.05308,6.10311,-3.97239,9.04385,1.96090,1.96090,57.68791,11.98127,57.68790658,11.98126510,A,144805.40
18:37:45.890729,6.15854,0.01313,2.40063,2.40063,[3.00000 0.00000 0.00000],[1.30000 0.00000 0.00000],-0.00989,0.00962,0.03690,-0.07216,0.00000,-0.03720,0.05996,-0.17647,0.00628,0.99107,6.14662,0.08791,2.83164,1.97522,1.98081,-4.00208,9.11229,6.10311,-3.97239,9.04385,1.96090,1.96090,57.68791,11.98127,57.68790712,11.98126467,A,144805.40
18:37:45.917799,6.18562,0.01213,2.40063,2.40063,[3.00000 0.00000 0.00000],[1.30000 0.00000 0.00000],-0.00952,0.00691,0.03919,-0.08047,0.00000,0.04924,0.06256,-0.03886,-0.03776,1.09117,6.17649,0.10256,2.74544,1.97296,1.97698,-4.02701,9.16965,6.10311,-3.97239,9.04385,1.96090,1.96090,57.68791,11.98127,57.68790763,11.98126425,A,144805.40
18:37:45.969657,6.23747,0.03762,2.97370,2.97370,[3.00000 0.00000 0.00000],[1.30000 0.00000 0.00000],-0.00775,0.00396,0.02912,-0.05711,0.00000,0.01014,0.05813,0.14231,0.07472,0.86309,6.20246,0.06838,2.79109,1.97151,1.97382,-4.08593,9.30775,6.23275,-4.17051,9.52570,1.96090,1.96090,57.68791,11.98126,57.68790887,11.98126326,A,144805.60
18:37:45.994515,6.26231,0.01326,2.97370,2.97370,[3.00000 0.00000 0.00000],[1.30000 0.00000 0.00000],-0.00591,0.00014,0.05508,-0.14217,0.00000,-0.01017,0.06607,0.09351,-0.03569,1.06140,6.25038,0.21734,2.82761,1.97008,1.97016,-4.11132,9.36830,6.23275,-4.17051,9.52570,1.96090,1.96090,57.68791,11.98126,57.68790942,11.98126283,A,144805.60
18:37:46.022776,6.29059,0.01409,2.97370,2.97370,[3.00000 0.00000 0.00000],[1.30000 0.00000 0.00000],-0.00480,-0.00235,0.03370,-0.08236,0.00000,0.00556,0.06745,-0.05484,0.02849,1.01205,6.27879,0.25153,2.85683,1.96891,1.96755,-4.13988,9.43682,6.23275,-4.17051,9.52570,1.96090,1.96090,57.68791,11.98126,57.68791003,11.98126235,A,144805.60
18:37:46.052225,6.32003,0.01481,2.43331,2.43331,[3.00000 0.00000 0.00000],[1.30000 0.00000 0.00000],-0.00465,-0.00575,0.04164,-0.10677,0.00000,0.01778,0.05233,-0.03324,-0.05094,0.94538,6.30826,0.16850,2.77213,1.96809,1.96474,-4.16793,9.50454,6.23275,-4.17051,9.52570,1.96090,1.96090,57.68791,11.98126,57.68791064,11.98126188,A,144805.60
18:37:46.093479,6.36129,0.02729,2.43331,2.43331,[3.00000 0.00000 0.00000],[1.30000 0.00000 0.00000],-0.00319,-0.00869,0.01888,-0.04421,0.00000,0.00678,0.04148,-0.12840,0.07991,1.01736,6.33641,0.32723,2.70436,1.96729,1.96224,-4.21348,9.61502,6.35626,-4.26957,9.76662,1.96090,1.96090,57.68791,11.98126,57.68791164,11.98126111,A,144805.70
18:37:46.122398,6.38997,0.01436,3.06840,3.06840,[3.00000 0.00000 0.00000],[1.30000 0.00000 0.00000],-0.00263,-0.01316,0.01094,-0.02258,0.00000,0.04496,0.02194,0.09272,0.01739,0.97826,6.37889,0.37851,2.77717,1.96704,1.95939,-4.24125,9.68308,6.35626,-4.26957,9.76662,1.96090,1.96090,57.68791,11.98126,57.68791225,11.98126064,A,144805.70
18:37:46.149649,6.41746,0.01449,3.06840,3.06840,[3.00000 0.00000 0.00000],[1.30000 0.00000 0.00000],-0.00326,-0.01540,-0.00998,0.04264,0.00000,-0.02819,0.01033,0.07960,-0.01434,0.93592,6.40560,0.09768,2.83542,1.96684,1.95789,-4.26573,9.74358,6.35626,-4.26957,9.76662,1.96090,1.96090,57.68791,11.98126,57.68791279,11.98126023,A,144805.70
18:37:46.175739,6.44355,0.01283,3.06840,3.06840,[3.00000 0.00000 0.00000],[1.30000 0.00000 0.00000],-0.00368,-0.01650,-0.01090,0.04703,0.00000,-0.03659,0.00697,-0.04727,0.00037,1.05274,6.43265,0.06105,2.88201,1.96662,1.95702,-4.29019,9.80426,6.35626,-4.26957,9.76662,1.96090,1.96090,57.68791,11.98126,57.68791334,11.98125982,A,144805.70
18:37:46.217216,6.48503,0.02724,2.78829,2.78829,[3.00000 0.00000 0.00000],[1.30000 0.00000 0.00000],-0.00326,-0.01673,-0.01930,0.07060,0.00000,0.00037,0.00666,-0.06533,0.07338,1.00540,6.46016,0.09280,2.86327,1.99281,1.98308,-4.33745,9.91579,6.48033,-4.38845,9.95195,2.14113,2.14113,57.68791,11.98126,57.68791434,11.98125902,A,144805.80
18:37:46.245419,6.51322,0.01292,2.78829,2.78829,[3.00000 0.00000 0.00000],[1.30000 0.00000 0.00000],-0.00447,-0.01673,-0.01074,0.04968,0.00000,0.02205,0.01445,0.00537,-0.04069,1.01785,6.50307,0.02686,2.84827,2.01564,2.00591,-4.36707,9.97949,6.48033,-4.38845,9.95195,2.14113,2.14113,57.68791,11.98126,57.68791491,11.98125853,A,144805.80
18:37:46.270926,6.53874,0.01380,2.78829,2.78829,[3.00000 0.00000 0.00000],[1.30000 0.00000 0.00000],-0.00370,-0.01670,-0.01258,0.05216,0.00000,0.01808,0.01522,0.00756,0.08186,1.00772,6.52741,0.00488,2.83628,2.03514,2.02543,-4.39320,10.03204,6.48033,-4.38845,9.95195,2.14113,2.14113,57.68791,11.98126,57.68791539,11.98125809,A,144805.80
18:37:46.299100,6.56689,0.01345,2.63395,2.63395,[3.00000 0.00000 0.00000],[1.30000 0.00000 0.00000],-0.00318,-0.01650,-0.00876,0.03868,0.00000,0.04741,0.00773,-0.14707,0.06063,0.97069,6.55632,0.00977,2.79581,2.05160,2.04200,-4.42281,10.08909,6.48033,-4.38845,9.95195,2.14113,2.14113,57.68791,11.98126,57.68791590,11.98125759,A,144805.80
18:37:46.338833,6.60665,0.02822,2.63395,2.63395,[3.00000 0.00000 0.00000],[1.30000 0.00000 0.00000],-0.00279,-0.01608,-0.00525,0.02663,0.00000,0.04466,0.01430,0.05331,0.04008,0.88169,6.58165,0.00244,2.76344,2.04787,2.03852,-4.47438,10.18726,6.60183,-4.49742,10.17434,2.02640,2.02640,57.68792,11.98126,57.68791678,11.98125672,A,144805.90
18:37:46.359241,6.62706,0.01166,2.63395,2.63395,[3.00000 0.00000 0.00000],[1.30000 0.00000 0.00000],-0.00312,-0.01557,-0.00433,0.02517,0.00000,0.02679,0.02102,-0.04416,0.00177,1.09605,6.61691,0.00977,2.73754,2.04545,2.03640,-4.49561,10.22635,6.60183,-4.49742,10.17434,2.02640,2.02640,57.68792,11.98126,57.68791713,11.98125636,A,144805.90
18:37:46.387272,6.65508,0.01321,2.90587,2.90587,[3.00000 0.00000 0.00000],[1.30000 0.00000 0.00000],-0.00228,-0.01540,-0.01273,0.04707,0.00000,0.03855,0.02484,0.00348,0.09821,1.08299,6.64396,0.01954,2.77121,2.04315,2.03420,-4.52481,10.28170,6.60183,-4.49742,10.17434,2.02640,2.02640,57.68792,11.98126,57.68791763,11.98125587,A,144805.90
18:37:46.415902,6.68371,0.01500,2.90587,2.90587,[3.00000 0.00000 0.00000],[1.30000 0.00000 0.00000],-0.00166,-0.01537,-0.00967,0.03551,0.00000,0.03840,0.01751,-0.05368,0.06405,0.91982,6.67212,0.00488,2.79814,2.04118,2.03224,-4.55338,10.33625,6.60183,-4.49742,10.17434,2.02640,2.02640,57.68792,11.98126,57.68791812,11.98125539,A,144805.90
18:37:46.465045,6.73287,0.03791,2.90587,2.90587,[3.00000 0.00000 0.00000],[1.30000 0.00000 0.00000],-0.00255,-0.01537,-0.00876,0.03622,0.00000,0.01381,0.00987,0.08930,-0.02898,0.81691,6.69651,0.01709,2.81968,2.03605,2.02711,-4.61812,10.46530,6.72814,-4.70545,10.61912,2.00828,2.00828,57.68792,11.98125,57.68791928,11.98125430,A,144806.10
18:37:46.490973,6.75878,0.01434,2.83048,2.83048,[3.00000 0.00000 0.00000],[1.30000 0.00000 0.00000],-0.00250,-0.01486,-0.01655,0.05939,0.00000,0.07703,0.01674,-0.00018,0.07369,1.02535,6.74790,0.00488,2.82184,2.03247,2.02383,-4.64871,10.52641,6.72814,-4.70545,10.61912,2.00828,2.00828,57.68792,11.98125,57.68791983,11.98125379,A,144806.10
18:37:46.518527,6.78633,0.01370,2.83048,2.83048,[3.00000 0.00000 0.00000],[1.30000 0.00000 0.00000],-0.00328,-0.01401,-0.02418,0.08534,0.00000,0.03336,0.01629,0.01336,0.00256,0.99997,6.77425,0.00244,2.82357,2.02930,2.02115,-4.68042,10.59036,6.72814,-4.70545,10.61912,2.00828,2.00828,57.68792,11.98125,57.68792041,11.98125325,A,144806.10
18:37:46.545847,6.81364,0.01364,3.27396,3.27396,[3.00000 0.00000 0.00000],[1.30000 0.00000 0.00000],-0.00457,-0.01299,-0.03289,0.11648,0.00000,-0.00146,0.01338,-0.01159,-0.01562,1.05036,6.80241,0.00733,2.91365,2.02659,2.01904,-4.70915,10.64862,6.72814,-4.70545,10.61912,2.00828,2.00828,57.68792,11.98125,57.68792093,11.98125277,A,144806.10
18:37:46.586925,6.85474,0.02775,3.27396,3.27396,[3.00000 0.00000 0.00000],[1.30000 0.00000 0.00000],-0.00562,-0.01101,-0.02953,0.11050,0.00000,0.01549,0.01445,0.03636,-0.00744,0.97691,6.82950,0.00244,2.98571,1.99381,1.98741,-4.75958,10.75744,6.84990,-4.75498,10.82297,1.80915,1.80915,57.68792,11.98125,57.68792191,11.98125192,A,144806.20
18:37:46.611425,6.87924,0.01276,3.27396,3.27396,[3.00000 0.00000 0.00000],[1.30000 0.00000 0.00000],-0.00650,-0.00736,-0.03487,0.12998,0.00000,0.03168,0.01812,-0.06612,0.04215,0.98686,6.86850,0.00244,3.04336,1.96623,1.96195,-4.78412,10.81669,6.84990,-4.75498,10.82297,1.80915,1.80915,57.68792,11.98125,57.68792244,11.98125151,A,144806.20
18:37:46.641701,6.90952,0.01439,2.40999,2.40999,[3.00000 0.00000 0.00000],[1.30000 0.00000 0.00000],-0.00751,-0.00436,-0.02220,0.09587,0.00000,0.02862,0.02102,0.00958,-0.00933,1.02657,6.89725,0.00000,2.91669,1.94261,1.94008,-4.81179,10.88763,6.84990,-4.75498,10.82297,1.80915,1.80915,57.68792,11.98125,57.68792308,11.98125104,A,144806.20
18:37:46.666994,6.93481,0.01499,2.40999,2.40999,[3.00000 0.00000 0.00000],[1.30000 0.00000 0.00000],-0.00784,-0.00176,-0.02892,0.11732,0.00000,-0.00513,0.02331,-0.01128,0.04538,1.01528,6.92384,0.00733,2.81535,1.92254,1.92152,-4.83038,10.93979,6.84990,-4.75498,10.82297,1.80915,1.80915,57.68792,11.98125,57.68792355,11.98125073,A,144806.20
18:37:46.708024,6.97584,0.02920,2.40999,2.40999,[3.00000 0.00000 0.00000],[1.30000 0.00000 0.00000],-0.00852,0.00045,-0.02800,0.11723,0.00000,-0.05003,0.02789,0.10480,0.01854,0.88804,6.95063,0.00000,2.73428,1.93745,1.93771,-4.86837,11.04473,6.97037,-4.85404,11.02683,2.02313,2.02313,57.68792,11.98125,57.68792449,11.98125009,A,144806.30
18:37:46.727164,6.99498,0.01029,3.03016,3.03016,[3.00000 0.00000 0.00000],[1.30000 0.00000 0.00000],-0.00883,0.00396,-0.03121,0.12806,0.00000,-0.07064,0.02774,-0.05075,0.06076,0.88968,6.98453,0.00488,2.79345,1.94997,1.95227,-4.88118,11.07905,6.97037,-4.85404,11.02683,2.02313,2.02313,57.68792,11.98125,57.68792480,11.98124988,A,144806.30
18:37:46.756004,7.02379,0.01562,3.03016,3.03016,[3.00000 0.00000 0.00000],[1.30000 0.00000 0.00000],-0.00992,0.00654,-0.01807,0.09290,0.00000,0.00205,0.03812,-0.30146,-0.02275,1.21414,7.01302,0.00000,2.84079,1.96058,1.96438,-4.90504,11.13930,6.97037,-4.85404,11.02683,2.02313,2.02313,57.68792,11.98125,57.68792534,11.98124948,A,144806.30
18:37:46.782303,7.04990,0.01380,3.03016,3.03016,[3.00000 0.00000 0.00000],[1.30000 0.00000 0.00000],-0.01075,0.00917,-0.00967,0.11536,0.01139,0.06252,0.05309,0.22314,-0.01830,1.00650,7.03763,0.00733,2.87867,1.96947,1.97480,-4.92575,11.18968,6.97037,-4.85404,11.02683,2.02313,2.02313,57.68792,11.98125,57.68792580,11.98124913,A,144806.30
18:37:46.823159,7.09098,0.02719,3.03016,3.03016,[3.00000 0.00000 0.00000],[1.30000 0.00000 0.00000],-0.01037,0.01095,-0.02036,0.30575,0.05236,-0.06667,0.05202,-0.00152,0.07936,0.92927,7.06559,0.00244,2.90897,1.97134,1.97771,-4.96961,11.29228,7.08625,-4.94320,11.23069,1.98308,1.98308,57.68793,11.98125,57.68792672,11.98124839,A,144806.40
18:37:46.852337,7.12015,0.01395,2.45522,2.45522,[3.00000 0.00000 0.00000],[1.30000 0.00000 0.00000],-0.01183,0.01712,-0.01563,0.29724,0.05236,-0.02911,0.05645,-0.03745,-0.03209,1.05201,7.10891,0.00000,2.81822,1.97221,1.98217,-4.99646,11.35456,7.08625,-4.94320,11.23069,1.98308,1.98308,57.68793,11.98125,57.68792728,11.98124794,A,144806.40
18:37:46.878938,7.14597,0.01237,2.45522,2.45522,[3.00000 0.00000 0.00000],[1.30000 0.00000 0.00000],-0.01122,0.02360,-0.00326,0.25774,0.05236,0.03595,0.05431,0.09528,0.06277,0.85491,7.13597,0.00000,2.74562,1.97260,1.98632,-5.01825,11.40442,7.08625,-4.94320,11.23069,1.98308,1.98308,57.68793,11.98125,57.68792773,11.98124757,A,144806.40
18:37:46.906945,7.17476,0.01418,3.10285,3.10285,[3.00000 0.00000 0.00000],[1.30000 0.00000 0.00000],-0.01125,0.03091,0.03522,0.14240,0.05236,0.05306,0.06653,0.06210,-0.02373,0.94318,7.16311,0.00000,2.81706,1.97267,1.99065,-5.04091,11.45559,7.08625,-4.94320,11.23069,1.98308,1.98308,57.68793,11.98125,57.68792819,11.98124719,A,144806.40
18:37:46.948261,7.21607,0.02767,3.10285,3.10285,[3.00000 0.00000 0.00000],[1.30000 0.00000 0.00000],-0.00969,0.03682,0.04347,0.11156,0.05236,-0.00879,0.10715,0.09998,0.06966,1.09269,7.19145,0.00000,2.87422,1.98539,2.00681,-5.08516,11.55241,7.21093,-5.05216,11.43454,2.06169,2.06169,57.68793,11.98125,57.68792906,11.98124644,A,144806.50
18:37:46.973219,7.24103,0.01325,3.10285,3.10285,[3.00000 0.00000 0.00000],[1.30000 0.00000 0.00000],-0.00776,0.04172,0.07279,0.01609,0.05236,-0.04774,0.13937,-0.08333,-0.00750,1.11715,7.22911,0.00000,2.91995,1.99474,2.01901,-5.10630,11.59544,7.21093,-5.05216,11.43454,2.06169,2.06169,57.68793,11.98125,57.68792945,11.98124609,A,144806.50
18:37:46.999416,7.26722,0.01414,2.81385,2.81385,[3.00000 0.00000 0.00000],[1.30000 0.00000 0.00000],-0.00601,0.04500,0.08852,-0.03793,0.05236,-0.02391,0.12319,0.02001,0.00622,0.99930,7.25611,0.01954,2.89873,2.00292,2.02909,-5.13109,11.64458,7.21093,-5.05216,11.43454,2.06169,2.06169,57.68793,11.98125,57.68792989,11.98124567,A,144806.50
18:37:47.022545,7.29035,0.01303,2.81385,2.81385,[3.00000 0.00000 0.00000],[1.30000 0.00000 0.00000],-0.00391,0.04582,0.09692,-0.07130,0.05236,-0.01124,0.13021,-0.11315,0.04441,0.98655,7.27876,0.03175,2.88175,2.00959,2.03624,-5.15055,11.68151,7.21093,-5.05216,11.43454,2.06169,2.06169,57.68793,11.98125,57.68793022,11.98124534,A,144806.50
18:37:47.047934,7.31575,0.01405,2.81385,2.81385,[3.00000 0.00000 0.00000],[1.30000 0.00000 0.00000],-0.00149,0.04568,0.10899,-0.11696,0.05236,-0.01215,0.14808,0.05155,0.03141,0.99436,7.30408,0.10256,2.86817,2.01557,2.04214,-5.17271,11.72308,7.21093,-5.05216,11.43454,2.06169,2.06169,57.68793,11.98125,57.68793059,11.98124497,A,144806.50
18:37:47.099953,7.36776,0.03743,2.65729,2.65729,[3.00000 0.00000 0.00000],[1.30000 0.00000 0.00000],0.00243,0.04378,0.12640,-0.18444,0.05236,-0.00101,0.14502,0.05008,0.09370,1.10642,7.33089,0.21245,2.82599,2.01319,2.03866,-5.23913,11.85356,7.36252,-5.26019,11.89786,1.99282,1.99282,57.68793,11.98124,57.68793177,11.98124385,A,144806.70
18:37:47.125379,7.39319,0.01396,2.65729,2.65729,[3.00000 0.00000 0.00000],[1.30000 0.00000 0.00000],0.00958,0.03634,0.13174,-0.22838,0.05236,-0.04484,0.12655,-0.05697,0.09058,1.02456,7.38137,0.14164,2.79225,2.00884,2.02998,-5.26501,11.90492,7.36252,-5.26019,11.89786,1.99282,1.99282,57.68793,11.98124,57.68793223,11.98124342,A,144806.70
18:37:47.151181,7.41882,0.01342,2.65729,2.65729,[3.00000 0.00000 0.00000],[1.30000 0.00000 0.00000],0.01432,0.03139,0.15847,-0.32704,0.05236,0.02236,0.13739,0.05838,0.09052,0.94147,7.40768,0.18315,2.76526,2.00538,2.02363,-5.29107,11.95776,7.36252,-5.26019,11.89786,1.99282,1.99282,57.68793,11.98124,57.68793271,11.98124298,A,144806.70
18:37:47.178851,7.44666,0.01505,3.00764,3.00764,[3.00000 0.00000 0.00000],[1.30000 0.00000 0.00000],0.01884,0.02465,0.15770,-0.34238,0.05236,0.03229,0.13892,0.02318,0.07881,0.97027,7.43455,0.67155,2.81374,2.00288,2.01722,-5.31705,12.01132,7.36252,-5.26019,11.89786,1.99282,1.99282,57.68793,11.98124,57.68793319,11.98124254,A,144806.70
18:37:47.218403,7.48594,0.02597,3.00764,3.00764,[3.00000 0.00000 0.00000],[1.30000 0.00000 0.00000],0.02391,0.01605,0.16091,-0.37177,0.05236,0.01869,0.10990,-0.05264,0.10041,1.04432,7.46267,1.09158,2.85252,2.00699,2.01632,-5.36426,12.10997,7.48128,-5.36916,12.12025,2.02640,2.02640,57.68793,11.98124,57.68793407,11.98124175,A,144806.80
18:37:47.240144,7.50796,0.01314,3.00764,3.00764,[3.00000 0.00000 0.00000],[1.30000 0.00000 0.00000],0.02701,0.00209,0.12609,-0.27940,0.05236,-0.00009,0.06745,0.03965,-0.02751,1.12868,7.49660,0.49573,2.88354,2.01030,2.01152,-5.38443,12.15220,7.48128,-5.36916,12.12025,2.02640,2.02640,57.68793,11.98124,57.68793445,11.98124141,A,144806.80
18:37:47.265185,7.53300,0.01450,2.83234,2.83234,[3.00000 0.00000 0.00000],[1.30000 0.00000 0.00000],0.03121,-0.00637,0.12319,-0.28710,0.05236,0.00816,0.03308,0.06838,0.11468,0.90975,7.52158,0.56654,2.87330,2.01336,2.00966,-5.40862,12.20351,7.48128,-5.36916,12.12025,2.02640,2.02640,57.68793,11.98124,57.68793492,11.98124100,A,144806.80
18:37:47.290637,7.55844,0.01336,2.83234,2.83234,[3.00000 0.00000 0.00000],[1.30000 0.00000 0.00000],0.03322,-0.01373,0.10608,-0.24359,0.05236,-0.05217,0.00300,-0.02458,-0.00250,0.79678,7.54754,0.34188,2.86511,2.01621,2.00823,-5.43272,12.25489,7.48128,-5.36916,12.12025,2.02640,2.02640,57.68793,11.98124,57.68793538,11.98124060,A,144806.80
18:37:47.333753,7.60157,0.02820,3.34249,3.34249,[3.00000 0.00000 0.00000],[1.30000 0.00000 0.00000],0.03641,-0.02307,0.09478,-0.22215,0.05236,-0.03079,-0.01197,-0.09443,0.06814,1.01284,7.57687,0.18803,2.96059,1.99552,1.98210,-5.48197,12.36398,7.59651,-5.43851,12.34264,1.87305,1.87305,57.68794,11.98124,57.68793636,11.98123977,A,144806.90
18:37:47.357558,7.62537,0.01273,3.34249,3.34249,[3.00000 0.00000 0.00000],[1.30000 0.00000 0.00000],0.03981,-0.03419,0.09066,-0.22303,0.05236,0.02771,-0.02220,-0.03215,0.03636,1.04420,7.61422,0.09524,3.03697,1.97912,1.95924,-5.50229,12.41446,7.59651,-5.43851,12.34264,1.87305,1.87305,57.68794,11.98124,57.68793681,11.98123943,A,144806.90
18:37:47.384072,7.65188,0.01279,3.34249,3.34249,[3.00000 0.00000 0.00000],[1.30000 0.00000 0.00000],0.04255,-0.04064,0.08073,-0.20393,0.05236,-0.02071,-0.04129,0.09010,0.06637,1.02559,7.64168,0.23443,3.09807,1.96489,1.94125,-5.52565,12.47576,7.59651,-5.43851,12.34264,1.87305,1.87305,57.68794,11.98124,57.68793736,11.98123903,A,144806.90
18:37:47.410926,7.67870,0.01240,3.34249,3.34249,[3.00000 0.00000 0.00000],[1.30000 0.00000 0.00000],0.04444,-0.04605,0.08852,-0.23467,0.05236,-0.02941,-0.04877,-0.03361,-0.00616,1.07976,7.66905,0.26618,3.14696,1.95289,1.92610,-5.54698,12.53524,7.59651,-5.43851,12.34264,1.87305,1.87305,57.68794,11.98124,57.68793790,11.98123867,A,144806.90
18:37:47.432031,7.69984,0.01170,2.39363,2.39363,[3.00000 0.00000 0.00000],[1.30000 0.00000 0.00000],0.04687,-0.05072,0.07783,-0.21209,0.05236,-0.01017,-0.05412,-0.04404,0.10407,1.00772,7.68951,0.36142,2.99629,1.94339,1.91388,-5.56049,12.57664,7.59651,-5.43851,12.34264,1.87305,1.87305,57.68794,11.98124,57.68793827,11.98123845,A,144806.90
18:37:47.484709,7.75253,0.03853,2.39363,2.39363,[3.00000 0.00000 0.00000],[1.30000 0.00000 0.00000],0.04684,-0.05675,0.08318,-0.22802,0.05236,0.00022,-0.07229,0.12432,-0.09010,0.76738,7.71728,0.59096,2.87576,1.95761,1.92459,-5.61421,12.72321,7.74721,-5.65644,12.76888,2.04344,2.04344,57.68794,11.98124,57.68793959,11.98123754,A,144807.10
18:37:47.512318,7.78013,0.01252,3.07211,3.07211,[3.00000 0.00000 0.00000],[1.30000 0.00000 0.00000],0.04912,-0.06844,0.05431,-0.15031,0.05236,0.00785,-0.09932,0.04551,-0.02300,1.02181,7.77139,0.74725,2.91503,1.97340,1.93356,-5.64033,12.79049,7.74721,-5.65644,12.76888,2.04344,2.04344,57.68794,11.98124,57.68794019,11.98123710,A,144807.10
18:37:47.539481,7.80729,0.01445,3.07211,3.07211,[3.00000 0.00000 0.00000],[1.30000 0.00000 0.00000],0.05230,-0.07458,0.03538,-0.10588,0.05236,-0.03659,-0.11108,-0.00964,0.19154,1.08464,7.79642,0.94994,2.94644,1.98703,1.94361,-5.66367,12.84878,7.74721,-5.65644,12.76888,2.04344,2.04344,57.68794,11.98124,57.68794072,11.98123671,A,144807.10
18:37:47.566825,7.83463,0.01409,3.07211,3.07211,[3.00000 0.00000 0.00000],[1.30000 0.00000 0.00000],0.05273,-0.07908,0.03965,-0.12040,0.05236,-0.02972,-0.12208,-0.07887,-0.02660,1.00723,7.82343,0.13187,2.97158,1.99851,1.95246,-5.68770,12.90716,7.74721,-5.65644,12.76888,2.04344,2.04344,57.68794,11.98124,57.68794124,11.98123631,A,144807.10
18:37:47.608275,7.87609,0.02874,3.07211,3.07211,[3.00000 0.00000 0.00000],[1.30000 0.00000 0.00000],0.05281,-0.08389,0.02087,-0.06435,0.05236,-0.03537,-0.14895,-0.09498,-0.02538,0.93098,7.85169,0.12454,2.99168,2.00819,1.95934,-5.73565,13.01962,7.87131,-5.78522,13.00981,2.06169,2.06169,57.68794,11.98123,57.68794225,11.98123550,A,144807.20
18:37:47.631817,7.89963,0.01237,2.47416,2.47416,[3.00000 0.00000 0.00000],[1.30000 0.00000 0.00000],0.05237,-0.08896,0.01659,-0.04982,0.05236,0.02679,-0.15674,0.04124,-0.03751,0.99155,7.88872,0.08791,2.88818,2.02027,1.96845,-5.75969,13.07179,7.87131,-5.78522,13.00981,2.06169,2.06169,57.68794,11.98123,57.68794272,11.98123510,A,144807.20
18:37:47.658826,7.92664,0.01401,2.47416,2.47416,[3.00000 0.00000 0.00000],[1.30000 0.00000 0.00000],0.05309,-0.09105,0.00789,-0.02651,0.05236,0.03626,-0.16209,0.01214,0.07625,1.10068,7.91493,0.05617,2.80538,2.03004,1.97700,-5.78554,13.12720,7.87131,-5.78522,13.00981,2.06169,2.06169,57.68794,11.98123,57.68794322,11.98123466,A,144807.20
18:37:47.686900,7.95471,0.01372,3.06829,3.06829,[3.00000 0.00000 0.00000],[1.30000 0.00000 0.00000],0.05281,-0.09255,0.01781,-0.05521,0.05236,-0.00345,-0.16377,0.10370,-0.04740,1.06768,7.94518,0.04884,2.85796,2.03807,1.98415,-5.81229,13.18354,7.87131,-5.78522,13.00981,2.06169,2.06169,57.68794,11.98123,57.68794373,11.98123421,A,144807.20
18:37:47.728362,7.99618,0.02694,3.06829,3.06829,[3.00000 0.00000 0.00000],[1.30000 0.00000 0.00000],0.05235,-0.09354,-0.00570,0.01716,0.05236,-0.08897,-0.16759,0.07320,-0.02043,0.94605,7.97150,0.10745,2.90003,2.03604,1.98154,-5.86028,13.28626,7.99142,-5.88429,13.21366,2.02313,2.02313,57.68794,11.98123,57.68794465,11.98123340,A,144807.30
18:37:47.756655,8.02447,0.01572,3.06829,3.06829,[3.00000 0.00000 0.00000],[1.30000 0.00000 0.00000],0.05242,-0.09648,-0.00402,0.01182,0.05236,-0.02437,-0.18041,-0.13310,0.01336,0.95971,8.01295,0.02442,2.93368,2.03757,1.98135,-5.88867,13.34505,7.99142,-5.88429,13.21366,2.02313,2.02313,57.68794,11.98123,57.68794518,11.98123293,A,144807.30
18:37:47.782782,8.05059,0.01432,2.86233,2.86233,[3.00000 0.00000 0.00000],[1.30000 0.00000 0.00000],0.05194,-0.09671,0.00285,-0.00689,0.05236,0.00465,-0.16881,-0.00293,-0.02532,1.03389,8.03949,0.05128,2.91941,2.03920,1.98285,-5.91316,13.39525,7.99142,-5.88429,13.21366,2.02313,2.02313,57.68794,11.98123,57.68794563,11.98123251,A,144807.30
18:37:47.807812,8.07562,0.01194,2.86233,2.86233,[3.00000 0.00000 0.00000],[1.30000 0.00000 0.00000],0.05142,-0.09671,0.00560,-0.01312,0.05236,0.02312,-0.17033,0.01494,-0.03087,1.10117,8.06634,0.07570,2.90799,2.04027,1.98392,-5.93815,13.44665,7.99142,-5.88429,13.21366,2.02313,2.02313,57.68794,11.98123,57.68794610,11.98123209,A,144807.30
18:37:47.850021,8.11784,0.02920,2.86233,2.86233,[3.00000 0.00000 0.00000],[1.30000 0.00000 0.00000],0.05087,-0.09674,-0.00708,0.02704,0.05236,-0.02254,-0.18118,0.04020,-0.01330,1.02340,8.09244,0.07814,2.89886,2.03870,1.98233,-5.98594,13.54866,8.11269,-6.00316,13.45459,2.02916,2.02916,57.68795,11.98123,57.68794701,11.98123129,A,144807.40
18:37:47.877884,8.14570,0.01368,2.66576,2.66576,[3.00000 0.00000 0.00000],[1.30000 0.00000 0.00000],0.05051,-0.09787,-0.01242,0.04446,0.05236,-0.03644,-0.19171,-0.06826,0.02733,0.99033,8.13489,0.09768,2.85224,2.04091,1.98388,-6.01287,13.60369,8.11269,-6.00316,13.45459,2.02916,2.02916,57.68795,11.98123,57.68794751,11.98123084,A,144807.40
18:37:47.903116,8.17093,0.01466,2.66576,2.66576,[3.00000 0.00000 0.00000],[1.30000 0.00000 0.00000],0.04959,-0.09793,0.00438,-0.00231,0.05236,-0.02391,-0.18286,-0.02281,-0.05240,0.94129,8.15982,0.03419,2.81495,2.04346,1.98640,-6.03474,13.64722,8.11269,-6.00316,13.45459,2.02916,2.02916,57.68795,11.98123,57.68794790,11.98123047,A,144807.40
18:37:47.931334,8.19915,0.01290,2.66576,2.66576,[3.00000 0.00000 0.00000],[1.30000 0.00000 0.00000],0.04896,-0.09793,-0.00479,0.02763,0.05236,0.01595,-0.17018,-0.09662,-0.01610,1.01821,8.18881,0.06838,2.78511,2.04469,1.98763,-6.06057,13.69972,8.11269,-6.00316,13.45459,2.02916,2.02916,57.68795,11.98123,57.68794837,11.98123003,A,144807.40
18:37:47.978614,8.24643,0.03496,2.96695,2.96695,[3.00000 0.00000 0.00000],[1.30000 0.00000 0.00000],0.04902,-0.09793,-0.01792,0.06680,0.05236,0.02007,-0.18087,-0.04002,0.04252,1.09269,8.21188,0.02930,2.82148,2.03970,1.98264,-6.11921,13.82435,8.24163,-6.25082,13.97350,2.01609,2.01609,57.68795,11.98123,57.68794949,11.98122905,A,144807.60
18:37:48.003570,8.27138,0.01459,2.96695,2.96695,[3.00000 0.00000 0.00000],[1.30000 0.00000 0.00000],0.04654,-0.09790,-0.03243,0.12000,0.05236,-0.03124,-0.20882,-0.01604,-0.06118,0.97045,8.26019,0.02198,2.85057,2.04057,1.98352,-6.14756,13.88165,8.24163,-6.25082,13.97350,2.01609,2.01609,57.68795,11.98123,57.68795001,11.98122857,A,144807.60
18:37:48.030793,8.29860,0.01293,2.84156,2.84156,[3.00000 0.00000 0.00000],[1.30000 0.00000 0.00000],0.04627,-0.09663,-0.03487,0.12836,0.05236,-0.02071,-0.19523,-0.09693,0.05679,1.01254,8.28930,0.00488,2.84877,2.04010,1.98380,-6.18029,13.94918,8.24163,-6.25082,13.97350,2.01609,2.01609,57.68795,11.98123,57.68795061,11.98122802,A,144807.60
18:37:48.053841,8.32165,0.01214,2.84156,2.84156,[3.00000 0.00000 0.00000],[1.30000 0.00000 0.00000],0.04442,-0.09504,-0.02434,0.10397,0.05236,0.02847,-0.19843,0.02147,-0.08284,1.02303,8.31077,0.00000,2.84733,2.04062,1.98525,-6.20611,14.00129,8.24163,-6.25082,13.97350,2.01609,2.01609,57.68795,11.98123,57.68795108,11.98122759,A,144807.60
18:37:48.094841,8.36266,0.02888,2.84156,2.84156,[3.00000 0.00000 0.00000],[1.30000 0.00000 0.00000],0.04343,-0.09289,-0.03961,0.15364,0.05236,0.02526,-0.20210,0.15317,0.00512,0.93537,8.33745,0.00000,2.84617,2.03005,1.97593,-6.25651,14.10998,8.35782,-6.35978,14.23295,1.96842,1.96842,57.68795,11.98122,57.68795206,11.98122674,A,144807.70
18:37:48.120883,8.38869,0.01411,3.32209,3.32209,[3.00000 0.00000 0.00000],[1.30000 0.00000 0.00000],0.04226,-0.08958,-0.05152,0.19394,0.05236,-0.03369,-0.20317,-0.08729,0.05703,1.08000,8.37850,0.00000,2.94136,2.02410,1.97192,-6.28637,14.17371,8.35782,-6.35978,14.23295,1.96842,1.96842,57.68795,11.98122,57.68795263,11.98122624,A,144807.70
18:37:48.147412,8.41522,0.01421,3.32209,3.32209,[3.00000 0.00000 0.00000],[1.30000 0.00000 0.00000],0.04199,-0.08581,-0.05137,0.19453,0.05236,0.03122,-0.19126,-0.03587,0.06045,1.02907,8.40408,0.00000,3.01750,2.01887,1.96889,-6.31449,14.23431,8.35782,-6.35978,14.23295,1.96842,1.96842,57.68795,11.98122,57.68795318,11.98122576,A,144807.70
18:37:48.171227,8.43904,0.01099,3.32209,3.32209,[3.00000 0.00000 0.00000],[1.30000 0.00000 0.00000],0.04209,-0.08171,-0.01884,0.09657,0.05236,0.03366,-0.17232,-0.10846,0.02037,0.90927,8.42999,0.00000,3.07842,2.01404,1.96645,-6.34229,14.29497,8.35782,-6.35978,14.23295,1.96842,1.96842,57.68795,11.98122,57.68795372,11.98122529,A,144807.70
18:37:48.190311,8.45790,0.00951,3.32209,3.32209,[3.00000 0.00000 0.00000],[1.30000 0.00000 0.00000],0.04293,-0.07843,0.00071,0.03465,0.05236,0.02847,-0.15552,-0.02379,0.04093,0.92769,8.44873,0.00000,3.12716,2.01109,1.96542,-6.36108,14.33476,8.35782,-6.35978,14.23295,1.96842,1.96842,57.68795,11.98122,57.68795408,11.98122498,A,144807.70
18:37:48.219588,8.48740,0.02823,2.41790,2.41790,[3.00000 0.00000 0.00000],[1.30000 0.00000 0.00000],0.04214,-0.07755,0.00743,0.01759,0.05236,0.03610,-0.14666,0.06612,-0.02952,0.90585,8.45993,0.00000,2.98530,2.01029,1.96514,-6.39942,14.42084,8.48265,-6.46875,14.47387,1.99556,1.99556,57.68796,11.98122,57.68795486,11.98122433,A,144807.80
18:37:48.245559,8.51337,0.01346,2.41790,2.41790,[3.00000 0.00000 0.00000],[1.30000 0.00000 0.00000],0.04319,-0.07506,0.00697,0.01486,0.05236,-0.01200,-0.14666,0.15366,0.08601,1.04218,8.50268,0.01954,2.87182,2.01087,1.96717,-6.42687,14.48113,8.48265,-6.46875,14.47387,1.99556,1.99556,57.68796,11.98122,57.68795540,11.98122387,A,144807.80
18:37:48.272930,8.54075,0.01277,2.41790,2.41790,[3.00000 0.00000 0.00000],[1.30000 0.00000 0.00000],0.04190,-0.07461,0.00285,0.03224,0.05236,-0.02010,-0.15720,-0.10187,-0.05948,0.98905,8.53224,0.00488,2.78104,2.01094,1.96750,-6.45638,14.54627,8.48265,-6.46875,14.47387,1.99556,1.99556,57.68796,11.98122,57.68795598,11.98122337,A,144807.80
18:37:48.299594,8.56740,0.01412,2.97334,2.97334,[3.00000 0.00000 0.00000],[1.30000 0.00000 0.00000],0.04223,-0.07458,-0.00479,0.05388,0.05236,-0.01887,-0.13949,0.10882,0.02940,0.87992,8.55692,0.00488,2.81950,2.01166,1.96824,-6.48016,14.59794,8.48265,-6.46875,14.47387,1.99556,1.99556,57.68796,11.98122,57.68795645,11.98122297,A,144807.80
18:37:48.341025,8.60884,0.02844,2.97334,2.97334,[3.00000 0.00000 0.00000],[1.30000 0.00000 0.00000],0.04410,-0.07458,0.01995,-0.02765,0.05236,0.01732,-0.12177,-0.11779,0.10602,1.02218,8.58382,0.00488,2.85027,2.00628,1.96287,-6.52801,14.70681,8.60409,-6.58763,14.75186,1.97489,1.97489,57.68796,11.98122,57.68795743,11.98122217,A,144807.90
18:37:48.368502,8.63578,0.01348,2.97334,2.97334,[3.00000 0.00000 0.00000],[1.30000 0.00000 0.00000],0.04490,-0.07410,0.00529,0.01323,0.05236,0.03763,-0.13307,0.10791,0.04795,0.95160,8.62431,0.01221,2.87488,2.00444,1.96130,-6.55470,14.76640,8.60409,-6.58763,14.75186,1.97489,1.97489,57.68796,11.98122,57.68795796,11.98122172,A,144807.90
18:37:48.392111,8.65992,0.01334,2.49079,2.49079,[3.00000 0.00000 0.00000],[1.30000 0.00000 0.00000],0.04531,-0.07410,0.00560,0.01071,0.05236,0.01091,-0.15094,-0.13188,0.05508,1.06219,8.64871,0.03175,2.79806,2.00313,1.95999,-6.57844,14.81935,8.60409,-6.58763,14.75186,1.97489,1.97489,57.68796,11.98122,57.68795844,11.98122132,A,144807.90
18:37:48.418758,8.68656,0.01308,2.49079,2.49079,[3.00000 0.00000 0.00000],[1.30000 0.00000 0.00000],0.04488,-0.07410,-0.01013,0.05958,0.05236,0.02389,-0.15995,0.08058,0.02757,1.10685,8.67622,0.04640,2.73661,2.00176,1.95862,-6.60261,14.87381,8.60409,-6.58763,14.75186,1.97489,1.97489,57.68796,11.98122,57.68795893,11.98122091,A,144807.90
18:37:48.470819,8.73863,0.03764,2.49079,2.49079,[3.00000 0.00000 0.00000],[1.30000 0.00000 0.00000],0.04553,-0.07410,0.00880,0.00023,0.05236,-0.00207,-0.14605,0.06301,0.05911,0.99576,8.70244,0.00977,2.68744,1.98734,1.94420,-6.66053,15.01452,8.73381,-6.76594,15.25224,1.91312,1.91312,57.68796,11.98122,57.68796020,11.98121994,A,144808.10
18:37:48.497220,8.76503,0.01383,3.04957,3.04957,[3.00000 0.00000 0.00000],[1.30000 0.00000 0.00000],0.04626,-0.07401,-0.00891,0.05052,0.05236,-0.02880,-0.15109,-0.15152,0.09400,1.01394,8.75322,0.00000,2.75987,1.97929,1.93620,-6.68719,15.08099,8.73381,-6.76594,15.25224,1.91312,1.91312,57.68796,11.98122,57.68796079,11.98121949,A,144808.10
18:37:48.523629,8.79144,0.01266,3.04957,3.04957,[3.00000 0.00000 0.00000],[1.30000 0.00000 0.00000],0.04586,-0.07398,-0.00112,0.02871,0.05236,0.01915,-0.16804,-0.02013,-0.01226,0.97405,8.78054,0.00244,2.81781,1.97259,1.92952,-6.71119,15.14198,8.73381,-6.76594,15.25224,1.91312,1.91312,57.68796,11.98122,57.68796134,11.98121909,A,144808.10
18:37:48.548911,8.81672,0.01207,2.85581,2.85581,[3.00000 0.00000 0.00000],[1.30000 0.00000 0.00000],0.04593,-0.07339,-0.00723,0.04677,0.05236,-0.01842,-0.15430,-0.00159,0.03806,1.00888,8.80637,0.00244,2.82541,1.96680,1.92408,-6.73388,15.20073,8.73381,-6.76594,15.25224,1.91312,1.91312,57.68796,11.98122,57.68796187,11.98121871,A,144808.10
18:37:48.566997,8.83481,0.01022,2.85581,2.85581,[3.00000 0.00000 0.00000],[1.30000 0.00000 0.00000],0.04506,-0.07333,0.00331,0.01855,0.05236,-0.04132,-0.14941,-0.04160,-0.04063,1.08781,8.82525,0.00000,2.83149,1.96292,1.92022,-6.74903,15.24004,8.73381,-6.76594,15.25224,1.91312,1.91312,57.68796,11.98122,57.68796222,11.98121845,A,144808.10
18:37:48.604456,8.87227,0.02694,2.85581,2.85581,[3.00000 0.00000 0.00000],[1.30000 0.00000 0.00000],0.04541,-0.07333,-0.00815,0.05153,0.05236,-0.01307,-0.15109,-0.13048,0.06307,1.07250,8.84766,0.00244,2.83635,1.94950,1.90681,-6.78664,15.34364,8.86716,-6.84519,15.51169,1.86724,1.86724,57.68796,11.98122,57.68796316,11.98121782,A,144808.20
18:37:48.622912,8.89073,0.00989,2.85581,2.85581,[3.00000 0.00000 0.00000],[1.30000 0.00000 0.00000],0.04528,-0.07311,0.00407,0.01541,0.05236,-0.01536,-0.15460,-0.02684,0.00024,0.95935,8.88069,0.00733,2.84024,1.94136,1.89880,-6.80218,15.38817,8.86716,-6.84519,15.51169,1.86724,1.86724,57.68796,11.98122,57.68796356,11.98121756,A,144808.20
18:37:48.635484,8.90330,0.01158,2.63941,2.63941,[3.00000 0.00000 0.00000],[1.30000 0.00000 0.00000],0.04492,-0.07288,-0.00112,0.03237,0.05236,-0.02315,-0.15644,-0.03837,0.00598,1.02681,8.89201,0.01221,2.80008,1.93523,1.89280,-6.81214,15.41729,8.86716,-6.84519,15.51169,1.86724,1.86724,57.68796,11.98122,57.68796382,11.98121739,A,144808.20
18:37:48.660071,8.92788,0.01269,2.63941,2.63941,[3.00000 0.00000 0.00000],[1.30000 0.00000 0.00000],0.04485,-0.07262,0.00880,0.00289,0.05236,-0.02880,-0.14926,0.15768,0.00756,0.99534,8.91669,0.00488,2.76794,1.92825,1.88597,-6.83120,15.47418,8.86716,-6.84519,15.51169,1.86724,1.86724,57.68796,11.98122,57.68796433,11.98121707,A,144808.20
18:37:48.686441,8.95424,0.01361,2.63941,2.63941,[3.00000 0.00000 0.00000],[1.30000 0.00000 0.00000],0.04451,-0.07262,0.00758,0.00788,0.05236,-0.03705,-0.15231,-0.04093,-0.01080,0.93043,8.94300,0.01465,2.74224,1.92214,1.87986,-6.85001,15.53161,8.86716,-6.84519,15.51169,1.86724,1.86724,57.68796,11.98122,57.68796485,11.98121675,A,144808.20
18:37:48.728099,8.99591,0.02838,2.63941,2.63941,[3.00000 0.00000 0.00000],[1.30000 0.00000 0.00000],0.04426,-0.07262,0.00453,0.01799,0.05236,0.00129,-0.14743,-0.04849,-0.00085,0.93330,8.97169,0.01221,2.72167,1.92288,1.88060,-6.88684,15.64481,8.99114,-6.93434,15.75261,1.92523,1.92523,57.68797,11.98122,57.68796586,11.98121613,A,144808.30
18:37:48.754854,9.02266,0.01409,2.94602,2.94602,[3.00000 0.00000 0.00000],[1.30000 0.00000 0.00000],0.04511,-0.07262,0.02011,-0.03204,0.05236,-0.02300,-0.15094,-0.00933,0.02318,1.04542,9.01163,0.00488,2.76654,1.92626,1.88398,-6.90708,15.70600,8.99114,-6.93434,15.75261,1.92523,1.92523,57.68797,11.98122,57.68796641,11.98121579,A,144808.30
18:37:48.779993,9.04780,0.01313,2.94602,2.94602,[3.00000 0.00000 0.00000],[1.30000 0.00000 0.00000],0.04465,-0.07262,-0.01181,0.06552,0.05236,-0.04117,-0.16331,0.14030,0.00708,1.02456,9.03661,0.02686,2.80244,1.92914,1.88686,-6.92646,15.76395,8.99114,-6.93434,15.75261,1.92523,1.92523,57.68797,11.98122,57.68796694,11.98121547,A,144808.30
18:37:48.807962,9.07576,0.01478,2.91259,2.91259,[3.00000 0.00000 0.00000],[1.30000 0.00000 0.00000],0.04562,-0.07274,-0.00051,0.02781,0.05236,-0.04224,-0.15903,-0.06795,0.09296,1.06451,9.06424,0.01465,2.82447,1.93126,1.88892,-6.94688,15.82462,8.99114,-6.93434,15.75261,1.92523,1.92523,57.68797,11.98122,57.68796748,11.98121512,A,144808.30
18:37:48.848066,9.11588,0.02906,2.91259,2.91259,[3.00000 0.00000 0.00000],[1.30000 0.00000 0.00000],0.04630,-0.07274,0.00529,0.00775,0.05236,-0.00757,-0.15018,-0.17056,0.05722,1.02071,9.09070,0.00733,2.84209,1.91417,1.87182,-6.98309,15.93627,9.11069,-7.00369,16.03060,1.81526,1.81526,57.68797,11.98121,57.68796848,11.98121451,A,144808.40
18:37:48.872350,9.14016,0.01345,2.91259,2.91259,[3.00000 0.00000 0.00000],[1.30000 0.00000 0.00000],0.04721,-0.07274,0.00621,0.00145,0.05236,0.00510,-0.15094,0.05508,0.05746,0.93641,9.12894,0.00000,2.85619,1.90268,1.86034,-6.99982,15.99155,9.11069,-7.00369,16.03060,1.81526,1.81526,57.68797,11.98121,57.68796898,11.98121423,A,144808.40
18:37:48.899150,9.16696,0.01427,3.30989,3.30989,[3.00000 0.00000 0.00000],[1.30000 0.00000 0.00000],0.04745,-0.07274,0.01186,-0.01643,0.05236,-0.00146,-0.14834,-0.05112,0.00616,1.08379,9.15543,0.00244,2.94693,1.89250,1.85015,-7.01728,16.05146,9.11069,-7.00369,16.03060,1.81526,1.81526,57.68797,11.98121,57.68796952,11.98121394,A,144808.40
18:37:48.923246,9.19106,0.01118,3.30989,3.30989,[3.00000 0.00000 0.00000],[1.30000 0.00000 0.00000],0.04749,-0.07274,-0.00234,0.02602,0.05236,-0.00956,-0.15522,0.03410,0.01208,0.99851,9.18172,0.00977,3.01952,1.88374,1.84140,-7.03373,16.11015,9.11069,-7.00369,16.03060,1.81526,1.81526,57.68797,11.98121,57.68797005,11.98121366,A,144808.40
18:37:48.975304,9.24312,0.03886,3.30989,3.30989,[3.00000 0.00000 0.00000],[1.30000 0.00000 0.00000],0.04800,-0.07274,0.01125,-0.01675,0.05236,-0.03109,-0.14376,-0.14201,0.01739,0.96221,9.20740,0.00733,3.07760,1.86780,1.82546,-7.07598,16.26825,9.23836,-7.10275,16.47538,1.78994,1.78994,57.68797,11.98121,57.68797147,11.98121295,A,144808.60
18:37:49.001384,9.26917,0.01423,2.45054,2.45054,[3.00000 0.00000 0.00000],[1.30000 0.00000 0.00000],0.04756,-0.07274,0.00575,0.00147,0.05236,0.01686,-0.15873,0.06588,-0.01409,0.92909,9.25780,0.03419,2.95219,1.85889,1.81655,-7.09325,16.33983,9.23836,-7.10275,16.47538,1.78994,1.78994,57.68797,11.98121,57.68797211,11.98121266,A,144808.60
18:37:49.027910,9.29572,0.01225,2.45054,2.45054,[3.00000 0.00000 0.00000],[1.30000 0.00000 0.00000],0.04827,-0.07274,0.03324,-0.08376,0.05236,0.00587,-0.15552,-0.08119,0.02287,0.99961,9.28531,0.02442,2.85186,1.85110,1.80876,-7.11005,16.41169,9.23836,-7.10275,16.47538,1.78994,1.78994,57.68797,11.98121,57.68797276,11.98121238,A,144808.60
18:37:49.053441,9.32125,0.00918,2.99370,2.99370,[3.00000 0.00000 0.00000],[1.30000 0.00000 0.00000],0.04815,-0.07285,0.01812,-0.03796,0.05236,0.02053,-0.14682,-0.02946,-0.01934,1.05689,9.31227,0.12210,2.88023,1.84446,1.80205,-7.12563,16.48060,9.23836,-7.10275,16.47538,1.78994,1.78994,57.68797,11.98121,57.68797338,11.98121212,A,144808.60
18:37:49.064701,9.33252,0.00997,2.99370,2.99370,[3.00000 0.00000 0.00000],[1.30000 0.00000 0.00000],0.04797,-0.07319,0.01308,-0.02213,0.05236,0.02083,-0.14682,0.04032,0.00024,1.05664,9.32212,0.19536,2.90292,1.84158,1.79897,-7.12889,16.49905,9.23836,-7.10275,16.47538,1.78994,1.78994,57.68797,11.98121,57.68797355,11.98121206,A,144808.60
18:37:49.074717,9.34253,0.00901,2.99370,2.99370,[3.00000 0.00000 0.00000],[1.30000 0.00000 0.00000],0.04863,-0.07390,0.01613,-0.02213,0.05236,0.02022,-0.15231,0.21301,0.04423,0.95197,9.33341,0.11477,2.92108,1.83906,1.79604,-7.13247,16.51889,9.23836,-7.10275,16.47538,1.78994,1.78994,57.68797,11.98121,57.68797372,11.98121200,A,144808.60
18:37:49.101263,9.36908,0.02553,2.99370,2.99370,[3.00000 0.00000 0.00000],[1.30000 0.00000 0.00000],0.04845,-0.07466,0.01445,-0.02812,0.05236,-0.01078,-0.15354,-0.02818,-0.00793,0.94178,9.34442,0.04640,2.93560,1.85083,1.80737,-7.15156,16.60004,9.36435,-7.19190,16.73484,1.90178,1.90178,57.68798,11.98121,57.68797445,11.98121168,A,144808.70
18:37:49.123621,9.39040,0.00907,2.99370,2.99370,[3.00000 0.00000 0.00000],[1.30000 0.00000 0.00000],0.04852,-0.07659,0.02805,-0.06916,0.05236,0.00403,-0.14834,0.04972,-0.04917,1.00382,9.38223,0.05617,2.94722,1.86205,1.81746,-7.16613,16.65886,9.36435,-7.19190,16.73484,1.90178,1.90178,57.68798,11.98121,57.68797498,11.98121143,A,144808.70
18:37:49.136935,9.40474,0.01220,2.99370,2.99370,[3.00000 0.00000 0.00000],[1.30000 0.00000 0.00000],0.04776,-0.07687,0.01491,-0.02680,0.05236,0.01625,-0.15216,-0.15287,-0.04477,1.04908,9.39280,0.08303,2.95652,1.87309,1.82833,-7.17412,16.68927,9.36435,-7.19190,16.73484,1.90178,1.90178,57.68798,11.98121,57.68797526,11.98121130,A,144808.70
18:37:49.161354,9.42916,0.01024,2.49173,2.49173,[3.00000 0.00000 0.00000],[1.30000 0.00000 0.00000],0.04857,-0.07789,0.00880,-0.01163,0.05236,0.03244,-0.17049,-0.08150,0.06777,0.98173,9.42127,0.13431,2.86356,1.88044,1.83509,-7.19097,16.75217,9.36435,-7.19190,16.73484,1.90178,1.90178,57.68798,11.98121,57.68797582,11.98121102,A,144808.70
18:37:49.187425,9.45524,0.01464,2.49173,2.49173,[3.00000 0.00000 0.00000],[1.30000 0.00000 0.00000],0.04865,-0.07913,0.00193,0.00867,0.05236,0.03381,-0.17400,-0.01269,0.03392,0.99076,9.44394,0.04151,2.78919,1.88684,1.84076,-7.20701,16.81037,9.36435,-7.19190,16.73484,1.90178,1.90178,57.68798,11.98121,57.68797635,11.98121075,A,144808.70
18:37:49.226720,9.49454,0.02719,2.49173,2.49173,[3.00000 0.00000 0.00000],[1.30000 0.00000 0.00000],0.04827,-0.07984,0.01583,-0.03153,0.05236,-0.00773,-0.15613,-0.05624,-0.02001,1.02437,9.46992,0.04396,2.72970,1.87310,1.82661,-7.23546,16.91431,9.48969,-7.24144,16.95723,1.78994,1.78994,57.68798,11.98121,57.68797728,11.98121027,A,144808.80
18:37:49.252947,9.52076,0.01316,3.09679,3.09679,[3.00000 0.00000 0.00000],[1.30000 0.00000 0.00000],0.04893,-0.07993,0.00331,0.00347,0.05236,-0.02849,-0.16529,-0.09205,0.04063,0.96545,9.50909,0.10745,2.80312,1.86398,1.81744,-7.25054,16.97299,9.48969,-7.24144,16.95723,1.78994,1.78994,57.68798,11.98121,57.68797781,11.98121001,A,144808.80
18:37:49.275180,9.54299,0.01270,3.09679,3.09679,[3.00000 0.00000 0.00000],[1.30000 0.00000 0.00000],0.05005,-0.08052,-0.00586,0.02659,0.05236,-0.04025,-0.17339,-0.02952,0.08156,0.92629,9.53169,0.05617,2.86185,1.85693,1.81005,-7.26174,17.01848,9.48969,-7.24144,16.95723,1.78994,1.78994,57.68798,11.98121,57.68797822,11.98120983,A,144808.80
18:37:49.302505,9.57030,0.01326,3.09679,3.09679,[3.00000 0.00000 0.00000],[1.30000 0.00000 0.00000],0.04906,-0.08120,0.00483,-0.41006,-0.05236,-0.00482,-0.17858,-0.10077,-0.06496,1.03633,9.56087,0.07082,2.90884,1.84975,1.80247,-7.27669,17.08086,9.48969,-7.24144,16.95723,1.78994,1.78994,57.68798,11.98121,57.68797878,11.98120957,A,144808.80
18:37:49.342048,9.60986,0.02747,2.83102,2.83102,[3.00000 0.00000 0.00000],[1.30000 0.00000 0.00000],0.04917,-0.08465,-0.00036,-0.39489,-0.05236,0.00831,-0.16545,-0.06246,0.02702,1.02858,9.58568,0.20757,2.89328,1.85067,1.80137,-7.30261,17.18939,9.60514,-7.31078,17.19815,1.85105,1.85105,57.68798,11.98121,57.68797975,11.98120914,A,144808.90
18:37:49.368017,9.63550,0.01260,2.83102,2.83102,[3.00000 0.00000 0.00000],[1.30000 0.00000 0.00000],0.05000,-0.10059,0.00331,-0.40914,-0.05236,-0.01842,-0.16713,-0.00970,0.05765,1.03108,9.62429,0.14408,2.88083,1.85555,1.79693,-7.31677,17.24840,9.60514,-7.31078,17.19815,1.85105,1.85105,57.68798,11.98121,57.68798029,11.98120890,A,144808.90
18:37:49.393750,9.66156,0.01270,2.83102,2.83102,[3.00000 0.00000 0.00000],[1.30000 0.00000 0.00000],0.04894,-0.11035,-0.00784,-0.37155,-0.05236,-0.03781,-0.17201,0.15110,-0.05655,0.98466,9.65132,0.86935,2.87087,1.85950,1.79516,-7.33086,17.30843,9.60514,-7.31078,17.19815,1.85105,1.85105,57.68798,11.98121,57.68798083,11.98120866,A,144808.90
18:37:49.422668,9.68972,0.01392,2.67369,2.67369,[3.00000 0.00000 0.00000],[1.30000 0.00000 0.00000],0.04843,-0.12125,-0.02036,-0.33200,-0.05236,-0.04132,-0.18912,0.08009,0.00067,0.94617,9.67955,0.65201,2.83143,1.86294,1.79221,-7.34510,17.36973,9.60514,-7.31078,17.19815,1.85105,1.85105,57.68798,11.98121,57.68798138,11.98120842,A,144808.90
18:37:49.471685,9.73950,0.03820,2.67369,2.67369,[3.00000 0.00000 0.00000],[1.30000 0.00000 0.00000],0.04608,-0.13096,-0.04846,-0.23852,-0.05236,-0.01399,-0.21493,-0.07222,-0.08272,0.95361,9.70450,1.17460,2.79988,1.86197,1.78553,-7.37876,17.51065,9.73478,-7.44947,17.66146,1.86165,1.86165,57.68798,11.98121,57.68798264,11.98120786,A,144809.10
18:37:49.500515,9.76832,0.01369,2.97761,2.97761,[3.00000 0.00000 0.00000],[1.30000 0.00000 0.00000],0.03787,-0.14873,-0.13902,0.06517,-0.05236,0.03183,-0.29801,-0.07137,-0.10693,1.02486,9.75709,1.09646,2.83543,1.86838,1.78147,-7.39601,17.58110,9.73478,-7.44947,17.66146,1.86165,1.86165,57.68798,11.98121,57.68798328,11.98120757,A,144809.10
18:37:49.528586,9.79640,0.01396,2.97761,2.97761,[3.00000 0.00000 0.00000],[1.30000 0.00000 0.00000],0.03407,-0.15436,-0.17369,0.18399,-0.05236,0.01381,-0.29556,-0.09650,0.00921,0.98954,9.78479,0.00244,2.86387,1.87327,1.78304,-7.41243,17.64940,9.73478,-7.44947,17.66146,1.86165,1.86165,57.68798,11.98121,57.68798389,11.98120729,A,144809.10
18:37:49.552463,9.82024,0.01447,2.97761,2.97761,[3.00000 0.00000 0.00000],[1.30000 0.00000 0.00000],0.02862,-0.15422,-0.20515,0.29963,-0.05236,0.00755,-0.32030,0.10907,-0.10651,0.93025,9.80808,0.00244,2.88662,1.87849,1.78834,-7.42575,17.70318,9.73478,-7.44947,17.66146,1.86165,1.86165,57.68798,11.98121,57.68798438,11.98120707,A,144809.10
18:37:49.594787,9.86260,0.02766,2.89372,2.89372,[3.00000 0.00000 0.00000],[1.30000 0.00000 0.00000],0.02135,-0.14907,-0.24012,0.43291,-0.05236,0.00159,-0.32595,-0.01543,-0.07692,0.96508,9.83728,0.00000,2.88804,1.84673,1.75962,-7.45288,17.82661,9.85778,-7.47918,17.95798,1.67069,1.67069,57.68799,11.98121,57.68798549,11.98120661,A,144809.20
18:37:49.623972,9.89179,0.01428,2.89372,2.89372,[3.00000 0.00000 0.00000],[1.30000 0.00000 0.00000],0.01066,-0.13608,-0.27250,0.57173,-0.05236,0.03259,-0.32534,0.09107,0.00482,0.95306,9.88042,0.00000,2.88918,1.82404,1.74459,-7.46743,17.90240,9.85778,-7.47918,17.95798,1.67069,1.67069,57.68799,11.98121,57.68798617,11.98120636,A,144809.20
18:37:49.651710,9.91952,0.01381,3.30994,3.30994,[3.00000 0.00000 0.00000],[1.30000 0.00000 0.00000],0.00335,-0.12275,-0.29052,0.65431,-0.05236,0.00724,-0.30931,-0.05624,-0.01177,1.03822,9.90921,0.00000,2.97333,1.80433,1.73272,-7.48014,17.97425,9.85778,-7.47918,17.95798,1.67069,1.67069,57.68799,11.98121,57.68798681,11.98120615,A,144809.20
18:37:49.675655,9.94297,0.01235,3.30994,3.30994,[3.00000 0.00000 0.00000],[1.30000 0.00000 0.00000],-0.00120,-0.11049,-0.27372,0.62163,-0.05236,0.05138,-0.28182,0.04795,0.02898,0.98125,9.93186,0.00000,3.04065,1.78864,1.72421,-7.48903,18.02816,9.85778,-7.47918,17.95798,1.67069,1.67069,57.68799,11.98121,57.68798730,11.98120600,A,144809.20
18:37:49.715979,9.98380,0.02864,3.30994,3.30994,[3.00000 0.00000 0.00000],[1.30000 0.00000 0.00000],-0.00673,-0.09436,-0.23463,0.52592,-0.05236,0.04374,-0.22012,0.08577,-0.02794,0.87096,9.95864,0.00000,3.09451,1.79847,1.74349,-7.51061,18.15473,9.97902,-7.55843,18.21744,1.86724,1.86724,57.68799,11.98120,57.68798844,11.98120564,A,144809.30
18:37:49.741704,10.00952,0.01212,3.30994,3.30994,[3.00000 0.00000 0.00000],[1.30000 0.00000 0.00000],-0.01345,-0.07129,-0.20240,0.45546,-0.05236,0.06588,-0.12849,-0.14835,0.02574,0.99973,9.99782,0.00000,3.13759,1.81009,1.76859,-7.52449,18.22375,9.97902,-7.55843,18.21744,1.86724,1.86724,57.68799,11.98120,57.68798906,11.98120540,A,144809.30
18:37:49.761824,10.02964,0.01525,2.41767,2.41767,[3.00000 0.00000 0.00000],[1.30000 0.00000 0.00000],-0.01718,-0.06060,-0.19141,0.43700,-0.05236,0.06207,-0.11184,0.05960,-0.00415,1.07037,10.01859,0.00000,2.99361,1.82133,1.78607,-7.53547,18.26973,9.97902,-7.55843,18.21744,1.86724,1.86724,57.68799,11.98120,57.68798947,11.98120522,A,144809.30
18:37:49.788975,10.05679,0.01503,2.41767,2.41767,[3.00000 0.00000 0.00000],[1.30000 0.00000 0.00000],-0.02106,-0.04786,-0.16621,0.37654,-0.05236,-0.00559,-0.08008,0.14902,0.01946,0.94501,10.04576,0.00000,2.87842,1.82925,1.80141,-7.55086,18.33226,9.97902,-7.55843,18.21744,1.86724,1.86724,57.68799,11.98120,57.68799003,11.98120496,A,144809.30
18:37:49.812971,10.08079,0.01326,2.41767,2.41767,[3.00000 0.00000 0.00000],[1.30000 0.00000 0.00000],-0.02514,-0.03705,-0.15903,0.37093,-0.05236,-0.05018,-0.04587,-0.09351,-0.04868,0.99351,10.06854,0.01465,2.78627,1.83617,1.81462,-7.56360,18.37918,9.97902,-7.55843,18.21744,1.86724,1.86724,57.68799,11.98120,57.68799045,11.98120475,A,144809.30
18:37:49.865747,10.13356,0.03853,3.06248,3.06248,[3.00000 0.00000 0.00000],[1.30000 0.00000 0.00000],-0.02812,-0.02655,-0.15643,0.37478,-0.05236,0.03030,-0.03045,0.04050,0.06368,0.87895,10.09729,0.00244,2.84151,1.83255,1.81712,-7.60250,18.52762,10.12886,-7.68721,18.71781,1.82270,1.82270,57.68799,11.98120,57.68799179,11.98120409,A,144809.50
18:37:49.892412,10.16022,0.01375,3.06248,3.06248,[3.00000 0.00000 0.00000],[1.30000 0.00000 0.00000],-0.03476,-0.00940,-0.14987,0.38098,-0.05236,0.02694,0.01323,-0.09717,0.05539,1.02480,10.14885,0.00488,2.88570,1.83068,1.82521,-7.62110,18.59427,10.12886,-7.68721,18.71781,1.82270,1.82270,57.68799,11.98120,57.68799239,11.98120378,A,144809.50
18:37:49.920168,10.18798,0.01367,3.06248,3.06248,[3.00000 0.00000 0.00000],[1.30000 0.00000 0.00000],-0.03891,-0.00014,-0.15613,0.41594,-0.05236,-0.00543,0.02010,-0.06600,-0.00409,1.12271,10.17647,0.00000,2.92106,1.82902,1.82894,-7.64079,18.66343,10.12886,-7.68721,18.71781,1.82270,1.82270,57.68799,11.98120,57.68799301,11.98120345,A,144809.50
