Description :  ; walk_time = 2.0 ; speed_up_time = 3.0 ; balancing_time = 0.0
RealTime,Time,CalculationTime,MeasuredVelocity,FilteredVelocity,BalancingGainsInner,BalancingGainsOuter,Roll,SteeringAngle,RollRate,ControlInput,BalancingSetpoint,gy,gz,ax,ay,az,imu_read_timing,SteerMotorCurrent,v_estimated,yaw_estimated,heading_estimated,x_estimated,y_estimated,GPS_timestamp,x_GPS,y_GPS,theta_GPS,theta_GPS_noUnwrap,latitude,longitude,lat_estimated,lon_estimated,status,NMEA timestamp,DirectionGains,LateralPositionGains,distance_travelled,x_ref,y_ref,heading_ref,lateral_error,heading_error
17:45:42.110840,0.08670,0.08665,0.00000,1.50000,"[5.00000,0.00000,0.00000]","[1.30000,0.00000,0.00000]",-0.00137,-0.06286,0.00827,0.00000,0.00000,0.00009,-0.07031,0.05826,-0.07027,0.97344,0.00001,0.02686,0.00000,0.03658,0.00000,0.00000,0.00000,0.01565,0.00000,0.00000,0.00000,0.00000,57.78144,12.77352,57.78143783,12.77352283,A,131127.30,"[-0.20000,-0.00000,-0.00000]","[-0.10000,-0.00000,-0.00000]",0.00000,0.00000,0.00000,0.00000,0.00000,0.00000
17:45:42.133693,0.10957,0.00961,0.00000,0.00000,"[5.00000,0.00000,0.00000]","[1.30000,0.00000,0.00000]",-0.00126,-0.06286,0.01698,0.00000,0.00000,-0.00740,-0.07856,0.06527,-0.08320,0.97307,0.10374,0.03907,0.00000,0.03658,0.00000,0.00000,0.00000,0.01565,0.00000,0.00000,0.00000,0.00000,57.78144,12.77352,57.78143783,12.77352283,A,131127.30,"[-0.20000,-0.00000,-0.00000]","[-0.10000,-0.00000,-0.00000]",0.14983,0.00000,0.00000,0.00000,0.00000,0.00000
17:45:42.200332,0.17573,0.06493,0.00000,1.50000,"[5.00000,0.00000,0.00000]","[1.30000,0.00000,0.00000]",-0.00225,-0.06286,0.01301,0.00000,0.00000,0.00253,-0.07459,0.08326,-0.04551,0.94306,0.11046,0.03175,0.00000,0.03658,0.00000,0.00000,0.00000,0.13853,-0.07904,0.12973,2.11804,2.11804,57.78144,12.77352,57.78143783,12.77352283,A,131127.50,"[-0.20000,-0.00000,-0.00000]","[-0.10000,-0.00000,-0.00000]",0.14983,0.00000,0.00000,0.00000,0.00000,0.00000
17:45:42.223342,0.19923,0.00916,0.00000,0.00000,"[5.00000,0.00000,0.00000]","[1.30000,0.00000,0.00000]",-0.00293,-0.06286,-0.00013,0.00000,0.00000,0.00650,-0.08253,0.05618,-0.02263,0.99936,0.19353,0.02442,0.00000,0.35429,0.31771,-0.00395,0.00649,0.13853,-0.07904,0.12973,2.11804,2.11804,57.78144,12.77352,57.78143789,12.77352277,A,131127.50,"[-0.20000,-0.00000,-0.00000]","[-0.10000,-0.00000,-0.00000]",0.26870,0.00000,0.00000,0.00000,0.00000,0.00000
17:45:42.229926,0.20582,0.00537,0.00000,0.00000,"[5.00000,0.00000,0.00000]","[1.30000,0.00000,0.00000]",-0.00388,-0.06286,-0.00074,0.00000,0.00000,0.00818,-0.08375,0.04959,-0.04136,1.00790,0.20018,0.03175,0.00000,0.62434,0.58776,-0.00771,0.01265,0.13853,-0.07904,0.12973,2.11804,2.11804,57.78144,12.77352,57.78143795,12.77352270,A,131127.50,"[-0.20000,-0.00000,-0.00000]","[-0.10000,-0.00000,-0.00000]",0.26870,0.00000,0.00000,0.00000,0.00000,0.00000
17:45:42.240391,0.21628,0.00543,0.00000,0.00000,"[5.00000,0.00000,0.00000]","[1.30000,0.00000,0.00000]",-0.00463,-0.06286,0.00033,0.00000,0.00000,0.01444,-0.08543,0.08632,-0.02959,0.99863,0.21054,0.02442,0.00000,0.85388,0.81730,-0.01127,0.01850,0.13853,-0.07904,0.12973,2.11804,2.11804,57.78144,12.77352,57.78143800,12.77352264,A,131127.50,"[-0.20000,-0.00000,-0.00000]","[-0.10000,-0.00000,-0.00000]",0.26870,0.00000,0.00000,0.00000,0.00000,0.00000
17:45:42.250835,0.22673,0.00531,0.00000,0.00000,"[5.00000,0.00000,0.00000]","[1.30000,0.00000,0.00000]",-0.00610,-0.06286,-0.00303,0.00000,0.00000,0.01414,-0.08436,0.08894,-0.07405,0.97508,0.22092,0.02442,0.00000,1.04899,1.01241,-0.01466,0.02406,0.13853,-0.07904,0.12973,2.11804,2.11804,57.78144,12.77352,57.78143805,12.77352259,A,131127.50,"[-0.20000,-0.00000,-0.00000]","[-0.10000,-0.00000,-0.00000]",0.26870,0.00000,0.00000,0.00000,0.00000,0.00000
17:45:42.261024,0.23692,0.00509,0.00000,0.00000,"[5.00000,0.00000,0.00000]","[1.30000,0.00000,0.00000]",-0.00746,-0.06286,-0.00715,0.00000,0.00000,0.00803,-0.08833,0.10705,-0.06692,0.98661,0.23153,0.02198,0.00000,1.21484,1.17825,-0.01788,0.02935,0.13853,-0.07904,0.12973,2.11804,2.11804,57.78144,12.77352,57.78143810,12.77352253,A,131127.50,"[-0.20000,-0.00000,-0.00000]","[-0.10000,-0.00000,-0.00000]",0.26870,0.00000,0.00000,0.00000,0.00000,0.00000
17:45:42.323317,0.29919,0.05697,0.00000,1.50000,"[5.00000,0.00000,0.00000]","[1.30000,0.00000,0.00000]",-0.00873,-0.06286,-0.01311,0.00000,0.00000,0.00299,-0.08299,0.06600,-0.05722,0.97594,0.24171,0.01709,0.00000,1.35580,1.31922,-0.02094,0.03437,0.25856,-0.10869,0.22239,1.88040,1.88040,57.78144,12.77352,57.78143814,12.77352248,A,131127.60,"[-0.20000,-0.00000,-0.00000]","[-0.10000,-0.00000,-0.00000]",0.26870,0.00000,0.00000,0.00000,0.00000,0.00000
17:45:42.344907,0.32080,0.00697,0.00000,0.00000,"[5.00000,0.00000,0.00000]","[1.30000,0.00000,0.00000]",-0.01199,-0.06286,-0.03250,0.00000,0.00000,0.02147,-0.08329,0.07979,-0.04416,0.98509,0.31521,0.01709,0.00000,1.43998,1.40340,-0.02533,0.04377,0.25856,-0.10869,0.22239,1.88040,1.88040,57.78144,12.77352,57.78143823,12.77352241,A,131127.60,"[-0.20000,-0.00000,-0.00000]","[-0.10000,-0.00000,-0.00000]",0.37608,0.00000,0.00000,0.00000,0.00000,0.00000
17:45:42.353827,0.32972,0.00548,0.00000,0.00000,"[5.00000,0.00000,0.00000]","[1.30000,0.00000,0.00000]",-0.01307,-0.06283,-0.03586,0.00000,0.00000,0.01459,-0.07703,0.09498,-0.03697,0.95630,0.32407,0.02442,0.00000,1.51153,1.47496,-0.02949,0.05270,0.25856,-0.10869,0.22239,1.88040,1.88040,57.78144,12.77352,57.78143831,12.77352234,A,131127.60,"[-0.20000,-0.00000,-0.00000]","[-0.10000,-0.00000,-0.00000]",0.37608,0.00000,0.00000,0.00000,0.00000,0.00000
17:45:42.363847,0.33974,0.00510,0.00000,0.00000,"[5.00000,0.00000,0.00000]","[1.30000,0.00000,0.00000]",-0.01417,-0.06278,-0.03922,0.00000,0.00000,0.00955,-0.07306,0.07729,-0.03508,0.98838,0.33430,0.02442,0.00000,1.57234,1.53581,-0.03345,0.06118,0.25856,-0.10869,0.22239,1.88040,1.88040,57.78144,12.77352,57.78143838,12.77352227,A,131127.60,"[-0.20000,-0.00000,-0.00000]","[-0.10000,-0.00000,-0.00000]",0.37608,0.00000,0.00000,0.00000,0.00000,0.00000
17:45:42.374775,0.35066,0.00562,0.00000,0.00000,"[5.00000,0.00000,0.00000]","[1.30000,0.00000,0.00000]",-0.01487,-0.06241,-0.03861,0.00000,0.00000,0.00650,-0.07230,0.06930,-0.00994,1.01022,0.34480,0.02686,0.00000,1.62400,1.58768,-0.03722,0.06924,0.25856,-0.10869,0.22239,1.88040,1.88040,57.78144,12.77352,57.78143846,12.77352221,A,131127.60,"[-0.20000,-0.00000,-0.00000]","[-0.10000,-0.00000,-0.00000]",0.37608,0.00000,0.00000,0.00000,0.00000,0.00000
17:45:42.434714,0.41033,0.05490,0.00000,1.50000,"[5.00000,0.00000,0.00000]","[1.30000,0.00000,0.00000]",-0.01618,-0.06173,-0.03342,0.00000,0.00000,0.00681,-0.06848,0.03483,-0.05649,1.03358,0.35514,0.01954,0.00000,1.66785,1.63192,-0.04079,0.07690,0.37190,-0.14821,0.29652,2.06061,2.06061,57.78144,12.77352,57.78143852,12.77352215,A,131127.70,"[-0.20000,-0.00000,-0.00000]","[-0.10000,-0.00000,-0.00000]",0.37608,0.00000,0.00000,0.00000,0.00000,0.00000
17:45:42.455851,0.43174,0.00982,0.00000,0.00000,"[5.00000,0.00000,0.00000]","[1.30000,0.00000,0.00000]",-0.02061,-0.05666,-0.04426,0.00000,0.00000,-0.00816,-0.07978,0.07948,-0.07942,0.94495,0.42523,0.03175,0.00000,1.73171,1.69874,-0.04616,0.08788,0.37190,-0.14821,0.29652,2.06061,2.06061,57.78144,12.77352,57.78143862,12.77352205,A,131127.70,"[-0.20000,-0.00000,-0.00000]","[-0.10000,-0.00000,-0.00000]",0.47576,0.00000,0.00000,0.00000,0.00000,0.00000
17:45:42.462537,0.43843,0.00551,0.00000,0.00000,"[5.00000,0.00000,0.00000]","[1.30000,0.00000,0.00000]",-0.02230,-0.05635,-0.04884,0.00000,0.00000,-0.00999,-0.07520,0.04240,-0.08119,0.95721,0.43263,0.01954,0.00000,1.78596,1.75317,-0.05126,0.09831,0.37190,-0.14821,0.29652,2.06061,2.06061,57.78144,12.77352,57.78143872,12.77352197,A,131127.70,"[-0.20000,-0.00000,-0.00000]","[-0.10000,-0.00000,-0.00000]",0.47576,0.00000,0.00000,0.00000,0.00000,0.00000
17:45:42.472392,0.44828,0.00496,0.00000,0.00000,"[5.00000,0.00000,0.00000]","[1.30000,0.00000,0.00000]",-0.02362,-0.05590,-0.05098,0.00000,0.00000,-0.00404,-0.07291,0.01385,-0.05124,0.99564,0.44291,0.02686,0.00000,1.83204,1.79951,-0.05611,0.10822,0.37190,-0.14821,0.29652,2.06061,2.06061,57.78144,12.77352,57.78143881,12.77352189,A,131127.70,"[-0.20000,-0.00000,-0.00000]","[-0.10000,-0.00000,-0.00000]",0.47576,0.00000,0.00000,0.00000,0.00000,0.00000
17:45:42.482957,0.45885,0.00519,0.00000,0.00000,"[5.00000,0.00000,0.00000]","[1.30000,0.00000,0.00000]",-0.02502,-0.05542,-0.04350,0.00000,0.00000,0.01414,-0.07398,-0.00037,-0.06246,0.98704,0.45318,0.02930,0.00000,1.87116,1.83891,-0.06072,0.11764,0.37190,-0.14821,0.29652,2.06061,2.06061,57.78144,12.77352,57.78143889,12.77352181,A,131127.70,"[-0.20000,-0.00000,-0.00000]","[-0.10000,-0.00000,-0.00000]",0.47576,0.00000,0.00000,0.00000,0.00000,0.00000
17:45:42.493781,0.46966,0.00560,0.00000,0.00000,"[5.00000,0.00000,0.00000]","[1.30000,0.00000,0.00000]",-0.02642,-0.05485,-0.04823,0.00000,0.00000,0.01139,-0.07291,0.05948,-0.05838,0.98070,0.46393,0.03419,0.00000,1.90436,1.87245,-0.06509,0.12658,0.37190,-0.14821,0.29652,2.06061,2.06061,57.78144,12.77352,57.78143897,12.77352174,A,131127.70,"[-0.20000,-0.00000,-0.00000]","[-0.10000,-0.00000,-0.00000]",0.47576,0.00000,0.00000,0.00000,0.00000,0.00000
17:45:42.552450,0.52832,0.05386,0.00000,1.50000,"[5.00000,0.00000,0.00000]","[1.30000,0.00000,0.00000]",-0.02779,-0.05414,-0.04701,0.00000,0.00000,0.00849,-0.07505,0.03861,-0.06307,1.00961,0.47395,0.03175,0.00000,1.93253,1.90102,-0.06925,0.13508,0.49083,-0.20749,0.38918,2.13995,2.13995,57.78144,12.77352,57.78143905,12.77352167,A,131127.80,"[-0.20000,-0.00000,-0.00000]","[-0.10000,-0.00000,-0.00000]",0.47576,0.00000,0.00000,0.00000,0.00000,0.00000
17:45:42.576416,0.55230,0.00851,0.00000,0.00000,"[5.00000,0.00000,0.00000]","[1.30000,0.00000,0.00000]",-0.03215,-0.04435,-0.04090,0.00000,0.00000,0.00650,-0.06741,0.06039,-0.09321,0.94782,0.54681,0.01954,0.00000,1.96751,1.94171,-0.07616,0.14778,0.49083,-0.20749,0.38918,2.13995,2.13995,57.78144,12.77352,57.78143916,12.77352155,A,131127.80,"[-0.20000,-0.00000,-0.00000]","[-0.10000,-0.00000,-0.00000]",0.57973,0.00000,0.00000,0.00000,0.00000,0.00000
17:45:42.583234,0.55912,0.00514,0.00000,0.00000,"[5.00000,0.00000,0.00000]","[1.30000,0.00000,0.00000]",-0.03299,-0.04347,-0.04212,0.00000,0.00000,0.00146,-0.06650,0.05960,-0.04209,0.92921,0.55346,0.03419,0.00000,1.99717,1.97188,-0.08273,0.15985,0.49083,-0.20749,0.38918,2.13995,2.13995,57.78144,12.77352,57.78143927,12.77352144,A,131127.80,"[-0.20000,-0.00000,-0.00000]","[-0.10000,-0.00000,-0.00000]",0.57973,0.00000,0.00000,0.00000,0.00000,0.00000
17:45:42.593840,0.56973,0.00535,0.00000,0.00000,"[5.00000,0.00000,0.00000]","[1.30000,0.00000,0.00000]",-0.03486,-0.04231,-0.04563,0.00000,0.00000,-0.00190,-0.06237,0.02306,-0.09845,0.96703,0.56410,0.02930,0.00000,2.02228,1.99767,-0.08896,0.17132,0.49083,-0.20749,0.38918,2.13995,2.13995,57.78144,12.77352,57.78143937,12.77352133,A,131127.80,"[-0.20000,-0.00000,-0.00000]","[-0.10000,-0.00000,-0.00000]",0.57973,0.00000,0.00000,0.00000,0.00000,0.00000
17:45:42.603985,0.57987,0.00509,0.00000,0.00000,"[5.00000,0.00000,0.00000]","[1.30000,0.00000,0.00000]",-0.03627,-0.04135,-0.05022,0.00000,0.00000,0.00803,-0.06222,0.00671,-0.06606,0.94788,0.57448,0.02686,0.00000,2.04354,2.01949,-0.09489,0.18221,0.49083,-0.20749,0.38918,2.13995,2.13995,57.78144,12.77352,57.78143947,12.77352123,A,131127.80,"[-0.20000,-0.00000,-0.00000]","[-0.10000,-0.00000,-0.00000]",0.57973,0.00000,0.00000,0.00000,0.00000,0.00000
17:45:42.614790,0.59068,0.00520,0.00000,0.00000,"[5.00000,0.00000,0.00000]","[1.30000,0.00000,0.00000]",-0.03757,-0.04042,-0.03983,0.00000,0.00000,0.00818,-0.05855,0.01336,-0.06869,0.96520,0.58500,0.02686,0.00000,2.06153,2.03802,-0.10052,0.19256,0.49083,-0.20749,0.38918,2.13995,2.13995,57.78144,12.77352,57.78143957,12.77352114,A,131127.80,"[-0.20000,-0.00000,-0.00000]","[-0.10000,-0.00000,-0.00000]",0.57973,0.00000,0.00000,0.00000,0.00000,0.00000
17:45:42.675001,0.65087,0.05499,0.00000,1.50000,"[5.00000,0.00000,0.00000]","[1.30000,0.00000,0.00000]",-0.03884,-0.03960,-0.05037,0.00000,0.00000,0.01566,-0.06283,0.07698,-0.06039,0.96142,0.59558,0.03419,0.00000,2.07675,2.05371,-0.10587,0.20239,0.61236,-0.24702,0.50038,1.91230,1.91230,57.78144,12.77352,57.78143965,12.77352105,A,131127.90,"[-0.20000,-0.00000,-0.00000]","[-0.10000,-0.00000,-0.00000]",0.57973,0.00000,0.00000,0.00000,0.00000,0.00000
17:45:42.695851,0.67174,0.00764,0.00000,0.00000,"[5.00000,0.00000,0.00000]","[1.30000,0.00000,0.00000]",-0.04400,-0.03626,-0.06075,0.00000,0.00000,0.00833,-0.06161,0.02477,-0.07485,0.93129,0.66537,0.03907,0.00000,2.05524,2.03416,-0.11293,0.21729,0.61236,-0.24702,0.50038,1.91230,1.91230,57.78144,12.77352,57.78143979,12.77352093,A,131127.90,"[-0.20000,-0.00000,-0.00000]","[-0.10000,-0.00000,-0.00000]",0.68202,0.00000,0.00000,0.00000,0.00000,0.00000
17:45:42.703496,0.67939,0.00511,1.11767,1.11767,"[5.00000,0.00000,0.00000]","[1.30000,0.00000,0.00000]",-0.04538,-0.03589,-0.06793,0.00000,0.00000,0.00665,-0.06130,0.00500,-0.07290,0.93586,0.67374,0.01709,0.22353,2.03693,2.01606,-0.11963,0.23145,0.61236,-0.24702,0.50038,1.91230,1.91230,57.78144,12.77352,57.78143991,12.77352082,A,131127.90,"[-0.20000,-0.00000,-0.00000]","[-0.10000,-0.00000,-0.00000]",0.68202,0.00000,0.00000,0.00000,0.00000,0.00000
17:45:42.714262,0.69015,0.00547,1.11767,1.11767,"[5.00000,0.00000,0.00000]","[1.30000,0.00000,0.00000]",-0.04662,-0.03541,-0.06366,0.00000,0.00000,0.01200,-0.05596,-0.00659,-0.05832,0.92830,0.68446,0.03663,0.40236,2.02128,2.00068,-0.12680,0.24656,0.61236,-0.24702,0.50038,1.91230,1.91230,57.78144,12.77352,57.78144005,12.77352069,A,131127.90,"[-0.20000,-0.00000,-0.00000]","[-0.10000,-0.00000,-0.00000]",0.69361,0.00000,0.00000,0.00000,0.00000,0.00000
17:45:42.724257,0.70014,0.00506,1.11767,1.11767,"[5.00000,0.00000,0.00000]","[1.30000,0.00000,0.00000]",-0.04763,-0.03498,-0.06778,0.00000,0.00000,0.01322,-0.05779,0.01684,-0.04557,0.95508,0.69475,0.02442,0.54542,2.00790,1.98755,-0.13412,0.26211,0.61236,-0.24702,0.50038,1.91230,1.91230,57.78144,12.77352,57.78144019,12.77352057,A,131127.90,"[-0.20000,-0.00000,-0.00000]","[-0.10000,-0.00000,-0.00000]",0.70519,0.00000,0.00000,0.00000,0.00000,0.00000
17:45:42.735040,0.71093,0.00522,1.11767,1.11767,"[5.00000,0.00000,0.00000]","[1.30000,0.00000,0.00000]",-0.04955,-0.03459,-0.06427,0.00000,0.00000,0.01872,-0.05810,0.03934,-0.10779,0.97264,0.70525,0.01709,0.65987,1.99645,1.97634,-0.14160,0.27817,0.61236,-0.24702,0.50038,1.91230,1.91230,57.78144,12.77352,57.78144033,12.77352044,A,131127.90,"[-0.20000,-0.00000,-0.00000]","[-0.10000,-0.00000,-0.00000]",0.71702,0.00000,0.00000,0.00000,0.00000,0.00000
17:45:42.806343,0.78156,0.06545,1.11767,1.50000,"[5.00000,0.00000,0.00000]","[1.30000,0.00000,0.00000]",-0.05130,-0.03416,-0.07129,0.00000,0.00000,0.01780,-0.05810,0.05832,-0.09333,0.99442,0.71622,0.02442,0.75143,1.98666,1.96679,-0.14907,0.29442,0.74429,-0.35570,0.70423,2.06061,2.06061,57.78144,12.77352,57.78144048,12.77352032,A,131128.10,"[-0.20000,-0.00000,-0.00000]","[-0.10000,-0.00000,-0.00000]",0.72861,0.00000,0.00000,0.00000,0.00000,0.00000
17:45:42.830325,0.80621,0.01524,11.67149,1.50000,"[5.00000,0.00000,0.00000]","[1.30000,0.00000,0.00000]",-0.05913,-0.02839,-0.08519,0.00000,0.00000,0.01643,-0.05993,0.02519,-0.08034,0.96203,0.80045,0.03175,0.90114,1.99867,1.98216,-0.18204,0.36905,0.74429,-0.35570,0.70423,2.06061,2.06061,57.78144,12.77352,57.78144115,12.77351976,A,131128.10,"[-0.20000,-0.00000,-0.00000]","[-0.10000,-0.00000,-0.00000]",0.84088,0.00000,0.00000,0.00000,0.00000,0.00000
17:45:42.855670,0.83156,0.01281,11.67149,1.50000,"[5.00000,0.00000,0.00000]","[1.30000,0.00000,0.00000]",-0.06184,-0.02706,-0.08305,0.00000,0.00000,0.01322,-0.05260,0.00067,-0.08198,1.00296,0.82590,0.02442,1.02091,2.00988,1.99414,-0.19871,0.40412,0.74429,-0.35570,0.70423,2.06061,2.06061,57.78144,12.77352,57.78144147,12.77351948,A,131128.10,"[-0.20000,-0.00000,-0.00000]","[-0.10000,-0.00000,-0.00000]",0.88250,0.00000,0.00000,0.00000,0.00000,0.00000
17:45:42.927943,0.90379,0.06148,11.67149,1.50000,"[5.00000,0.00000,0.00000]","[1.30000,0.00000,0.00000]",-0.06432,-0.02593,-0.08305,0.00000,0.00000,0.02177,-0.05077,0.08528,-0.07881,0.99778,0.84950,0.02198,1.11673,2.01931,2.00423,-0.21516,0.43821,0.86648,-0.41499,0.81543,2.06061,2.06061,57.78145,12.77352,57.78144177,12.77351920,A,131128.20,"[-0.20000,-0.00000,-0.00000]","[-0.10000,-0.00000,-0.00000]",0.91781,0.00000,0.00000,0.00000,0.00000,0.00000
17:45:42.956037,0.93192,0.01319,11.67149,1.50000,"[5.00000,0.00000,0.00000]","[1.30000,0.00000,0.00000]",-0.07105,-0.02041,-0.07099,0.00000,0.00000,0.01398,-0.04863,0.02952,-0.12993,0.96722,0.92648,0.03175,1.19339,2.02568,2.01381,-0.25855,0.52923,0.86648,-0.41499,0.81543,2.06061,2.06061,57.78145,12.77352,57.78144259,12.77351847,A,131128.20,"[-0.20000,-0.00000,-0.00000]","[-0.10000,-0.00000,-0.00000]",1.03241,0.00000,0.00000,0.00000,0.00000,0.00000
17:45:42.980438,0.95632,0.01069,11.67149,1.50000,"[5.00000,0.00000,0.00000]","[1.30000,0.00000,0.00000]",-0.07327,-0.01942,-0.06701,0.00000,0.00000,0.02040,-0.04206,0.08699,-0.08863,0.97362,0.95086,0.03419,1.25471,2.03221,2.02092,-0.27735,0.56669,0.86648,-0.41499,0.81543,2.06061,2.06061,57.78145,12.77352,57.78144293,12.77351815,A,131128.20,"[-0.20000,-0.00000,-0.00000]","[-0.10000,-0.00000,-0.00000]",1.07271,0.00000,0.00000,0.00000,0.00000,0.00000
17:45:43.054047,1.02988,0.06028,11.67149,1.50000,"[5.00000,0.00000,0.00000]","[1.30000,0.00000,0.00000]",-0.07568,-0.01930,-0.05449,0.00000,0.00000,0.01215,-0.04450,0.05514,-0.13414,1.00272,0.97325,0.02198,1.30377,2.03778,2.02656,-0.29492,0.60123,0.99107,-0.47427,0.92662,2.06061,2.06061,57.78145,12.77351,57.78144324,12.77351786,A,131128.30,"[-0.20000,-0.00000,-0.00000]","[-0.10000,-0.00000,-0.00000]",1.10675,0.00000,0.00000,0.00000,0.00000,0.00000
17:45:43.080022,1.05591,0.01045,11.67149,1.50000,"[5.00000,0.00000,0.00000]","[1.30000,0.00000,0.00000]",-0.07908,-0.01438,-0.03281,0.00000,0.00000,0.00482,-0.04985,0.01519,-0.11572,1.01126,1.05046,0.04640,1.34301,2.04108,2.03271,-0.34444,0.70024,0.99107,-0.47427,0.92662,2.06061,2.06061,57.78145,12.77351,57.78144413,12.77351702,A,131128.30,"[-0.20000,-0.00000,-0.00000]","[-0.10000,-0.00000,-0.00000]",1.22238,0.00000,0.00000,0.00000,0.00000,0.00000
17:45:43.107494,1.08338,0.01376,11.67149,1.50000,"[5.00000,0.00000,0.00000]","[1.30000,0.00000,0.00000]",-0.08067,-0.01177,-0.02456,0.00000,0.00000,0.02269,-0.04267,0.07485,-0.11749,0.98667,1.07772,0.02930,1.37441,2.04467,2.03782,-0.36541,0.74064,0.99107,-0.47427,0.92662,2.06061,2.06061,57.78145,12.77351,57.78144449,12.77351667,A,131128.30,"[-0.20000,-0.00000,-0.00000]","[-0.10000,-0.00000,-0.00000]",1.25859,0.00000,0.00000,0.00000,0.00000,0.00000
17:45:43.189525,1.16540,0.07140,11.67149,1.50000,"[5.00000,0.00000,0.00000]","[1.30000,0.00000,0.00000]",-0.08161,-0.01002,-0.01494,0.00000,0.00000,0.00849,-0.02954,0.05691,-0.09437,0.95062,1.09979,0.03907,1.39953,2.04769,2.04187,-0.38264,0.77333,1.12767,-0.58296,1.16755,1.99459,1.99459,57.78145,12.77351,57.78144479,12.77351638,A,131128.50,"[-0.20000,-0.00000,-0.00000]","[-0.10000,-0.00000,-0.00000]",1.29511,0.00000,0.00000,0.00000,0.00000,0.00000
17:45:43.212224,1.18811,0.01013,11.67149,1.50000,"[5.00000,0.00000,0.00000]","[1.30000,0.00000,0.00000]",-0.08242,0.00017,-0.00914,0.00000,0.00000,0.01643,-0.03412,0.05319,-0.06130,0.99887,1.18267,0.01954,1.41962,2.03887,2.03897,-0.44159,0.88911,1.12767,-0.58296,1.16755,1.99459,1.99459,57.78145,12.77351,57.78144583,12.77351538,A,131128.50,"[-0.20000,-0.00000,-0.00000]","[-0.10000,-0.00000,-0.00000]",1.42106,0.00000,0.00000,0.00000,0.00000,0.00000
17:45:43.235777,1.21167,0.01204,11.67149,1.50000,"[5.00000,0.00000,0.00000]","[1.30000,0.00000,0.00000]",-0.08362,0.00396,0.01499,0.00000,0.00000,0.00986,-0.02694,0.07186,-0.15787,0.97673,1.20598,0.03907,1.43570,2.03189,2.03419,-0.46191,0.92924,1.12767,-0.58296,1.16755,1.99459,1.99459,57.78145,12.77351,57.78144619,12.77351504,A,131128.50,"[-0.20000,-0.00000,-0.00000]","[-0.10000,-0.00000,-0.00000]",1.45350,0.00000,0.00000,0.00000,0.00000,0.00000
17:45:43.315496,1.29137,0.06454,11.67149,1.50000,"[5.00000,0.00000,0.00000]","[1.30000,0.00000,0.00000]",-0.08462,0.00674,0.00430,0.00000,0.00000,-0.00220,-0.02022,0.03233,-0.12718,0.95880,1.23170,0.03419,1.44856,2.02581,2.02972,-0.48240,0.97005,1.24846,-0.63236,1.31581,1.89244,1.89244,57.78145,12.77351,57.78144656,12.77351470,A,131128.60,"[-0.20000,-0.00000,-0.00000]","[-0.10000,-0.00000,-0.00000]",1.49426,0.00000,0.00000,0.00000,0.00000,0.00000
17:45:43.331948,1.30784,0.00730,1.36048,1.36048,"[5.00000,0.00000,0.00000]","[1.30000,0.00000,0.00000]",-0.08550,0.00971,-0.00394,0.00000,0.00000,0.01765,-0.01686,0.01555,-0.10150,1.02315,1.30239,0.03419,1.43094,2.00545,2.01110,-0.53189,1.07232,1.24846,-0.63236,1.31581,1.89244,1.89244,57.78145,12.77351,57.78144748,12.77351386,A,131128.60,"[-0.20000,-0.00000,-0.00000]","[-0.10000,-0.00000,-0.00000]",1.60479,0.00000,0.00000,0.00000,0.00000,0.00000
17:45:43.340335,1.31622,0.00529,1.36048,1.36048,"[5.00000,0.00000,0.00000]","[1.30000,0.00000,0.00000]",-0.08565,0.01042,-0.00547,0.00000,0.00000,0.01276,-0.01870,0.02050,-0.06863,1.03023,1.31064,0.04151,1.41685,1.98766,1.99371,-0.54065,1.09242,1.24846,-0.63236,1.31581,1.89244,1.89244,57.78145,12.77351,57.78144766,12.77351371,A,131128.60,"[-0.20000,-0.00000,-0.00000]","[-0.10000,-0.00000,-0.00000]",1.61889,0.00000,0.00000,0.00000,0.00000,0.00000
17:45:43.351015,1.32690,0.00542,1.36048,1.36048,"[5.00000,0.00000,0.00000]","[1.30000,0.00000,0.00000]",-0.08637,0.01135,-0.00287,0.00000,0.00000,0.01261,-0.01931,0.05411,-0.10529,1.00046,1.32118,0.01954,1.40557,1.97248,1.97908,-0.54997,1.11411,1.24846,-0.63236,1.31581,1.89244,1.89244,57.78145,12.77351,57.78144785,12.77351356,A,131128.60,"[-0.20000,-0.00000,-0.00000]","[-0.10000,-0.00000,-0.00000]",1.63319,0.00000,0.00000,0.00000,0.00000,0.00000
17:45:43.361482,1.33700,0.00511,1.36048,1.36048,"[5.00000,0.00000,0.00000]","[1.30000,0.00000,0.00000]",-0.08687,0.01234,-0.01250,0.00000,0.00000,0.00833,-0.02480,0.05301,-0.08430,0.98857,1.33160,0.03175,1.39655,1.95950,1.96667,-0.55850,1.13440,1.24846,-0.63236,1.31581,1.89244,1.89244,57.78145,12.77351,57.78144804,12.77351341,A,131128.60,"[-0.20000,-0.00000,-0.00000]","[-0.10000,-0.00000,-0.00000]",1.64729,0.00000,0.00000,0.00000,0.00000,0.00000
17:45:43.371514,1.34741,0.00512,1.36048,1.36048,"[5.00000,0.00000,0.00000]","[1.30000,0.00000,0.00000]",-0.08777,0.01339,-0.00883,0.00000,0.00000,0.00345,-0.02725,0.06106,-0.11267,0.98277,1.34177,0.02198,1.38934,1.94838,1.95616,-0.56649,1.15374,1.24846,-0.63236,1.31581,1.89244,1.89244,57.78145,12.77351,57.78144821,12.77351328,A,131128.60,"[-0.20000,-0.00000,-0.00000]","[-0.10000,-0.00000,-0.00000]",1.66139,0.00000,0.00000,0.00000,0.00000,0.00000
17:45:43.429044,1.40492,0.05223,1.36048,1.50000,"[5.00000,0.00000,0.00000]","[1.30000,0.00000,0.00000]",-0.08911,0.01443,-0.01082,0.00000,0.00000,-0.00526,-0.02541,0.03569,-0.13756,0.95794,1.35242,0.03175,1.38357,1.93885,1.94724,-0.57407,1.17241,1.36929,-0.68176,1.44553,1.93466,1.93466,57.78145,12.77351,57.78144838,12.77351315,A,131128.70,"[-0.20000,-0.00000,-0.00000]","[-0.10000,-0.00000,-0.00000]",1.67549,0.00000,0.00000,0.00000,0.00000,0.00000
17:45:43.452286,1.42817,0.00970,1.36048,1.36048,"[5.00000,0.00000,0.00000]","[1.30000,0.00000,0.00000]",-0.09058,0.01625,-0.01509,0.00000,0.00000,0.01841,-0.01656,0.06374,-0.09241,1.00632,1.42178,0.05372,1.37895,1.93780,1.94724,-0.61197,1.26834,1.36929,-0.68176,1.44553,1.93466,1.93466,57.78145,12.77351,57.78144924,12.77351251,A,131128.70,"[-0.20000,-0.00000,-0.00000]","[-0.10000,-0.00000,-0.00000]",1.77413,0.00000,0.00000,0.00000,0.00000,0.00000
17:45:43.458882,1.43477,0.00512,1.36048,1.36048,"[5.00000,0.00000,0.00000]","[1.30000,0.00000,0.00000]",-0.09127,0.01627,-0.01463,0.00000,0.00000,0.01215,-0.01686,0.08101,-0.09998,0.97771,1.42911,0.02686,1.37525,1.93598,1.94545,-0.61767,1.28277,1.36929,-0.68176,1.44553,1.93466,1.93466,57.78145,12.77351,57.78144937,12.77351241,A,131128.70,"[-0.20000,-0.00000,-0.00000]","[-0.10000,-0.00000,-0.00000]",1.78932,0.00000,0.00000,0.00000,0.00000,0.00000
17:45:43.469534,1.44541,0.00536,1.36048,1.36048,"[5.00000,0.00000,0.00000]","[1.30000,0.00000,0.00000]",-0.09189,0.01636,-0.01586,0.00000,0.00000,0.00131,-0.01671,0.02782,-0.09668,1.02102,1.43979,0.02198,1.37230,1.93450,1.94401,-0.62501,1.30143,1.36929,-0.68176,1.44553,1.93466,1.93466,57.78145,12.77351,57.78144954,12.77351229,A,131128.70,"[-0.20000,-0.00000,-0.00000]","[-0.10000,-0.00000,-0.00000]",1.80342,0.00000,0.00000,0.00000,0.00000,0.00000
17:45:43.479650,1.45554,0.00509,1.36048,1.36048,"[5.00000,0.00000,0.00000]","[1.30000,0.00000,0.00000]",-0.09261,0.01650,-0.01463,0.00000,0.00000,0.00345,-0.01549,0.04374,-0.10285,0.99174,1.44994,0.02686,1.36993,1.93323,1.94282,-0.63193,1.31906,1.36929,-0.68176,1.44553,1.93466,1.93466,57.78145,12.77351,57.78144970,12.77351217,A,131128.70,"[-0.20000,-0.00000,-0.00000]","[-0.10000,-0.00000,-0.00000]",1.81752,0.00000,0.00000,0.00000,0.00000,0.00000
17:45:43.490497,1.46638,0.00553,1.36048,1.36048,"[5.00000,0.00000,0.00000]","[1.30000,0.00000,0.00000]",-0.09385,0.01667,-0.01524,0.00000,0.00000,-0.00556,-0.01503,0.06618,-0.13127,0.95020,1.46069,0.02686,1.36804,1.93213,1.94183,-0.63857,1.33602,1.36929,-0.68176,1.44553,1.93466,1.93466,57.78145,12.77351,57.78144985,12.77351206,A,131128.70,"[-0.20000,-0.00000,-0.00000]","[-0.10000,-0.00000,-0.00000]",1.83162,0.00000,0.00000,0.00000,0.00000,0.00000
17:45:43.549419,1.52512,0.05386,1.36048,1.50000,"[5.00000,0.00000,0.00000]","[1.30000,0.00000,0.00000]",-0.09440,0.01678,-0.02013,0.00000,0.00000,-0.01290,-0.01182,0.02660,-0.08510,0.94782,1.47091,0.02686,1.36653,1.93119,1.94095,-0.64457,1.35138,1.48758,-0.74105,1.57526,1.99944,1.99944,57.78145,12.77351,57.78144999,12.77351196,A,131128.80,"[-0.20000,-0.00000,-0.00000]","[-0.10000,-0.00000,-0.00000]",1.84573,0.00000,0.00000,0.00000,0.00000,0.00000
17:45:43.570590,1.54648,0.00730,1.36048,1.36048,"[5.00000,0.00000,0.00000]","[1.30000,0.00000,0.00000]",-0.09704,0.01678,-0.03082,0.00000,0.00000,-0.01106,-0.02022,0.10120,-0.09937,0.95898,1.54000,0.02930,1.36532,1.94110,1.95086,-0.68102,1.44407,1.48758,-0.74105,1.57526,1.99944,1.99944,57.78145,12.77351,57.78145082,12.77351135,A,131128.80,"[-0.20000,-0.00000,-0.00000]","[-0.10000,-0.00000,-0.00000]",1.94757,0.00000,0.00000,0.00000,0.00000,0.00000
17:45:43.578884,1.55477,0.00519,1.36048,1.36048,"[5.00000,0.00000,0.00000]","[1.30000,0.00000,0.00000]",-0.09724,0.01678,-0.02853,0.00000,0.00000,-0.01641,-0.01549,-0.05990,-0.06332,0.95807,1.54910,0.04884,1.36435,1.94850,1.95826,-0.68704,1.45819,1.48758,-0.74105,1.57526,1.99944,1.99944,57.78145,12.77351,57.78145095,12.77351124,A,131128.80,"[-0.20000,-0.00000,-0.00000]","[-0.10000,-0.00000,-0.00000]",1.96167,0.00000,0.00000,0.00000,0.00000,0.00000
17:45:43.589414,1.56505,0.00507,1.36048,1.36048,"[5.00000,0.00000,0.00000]","[1.30000,0.00000,0.00000]",-0.09771,0.01681,-0.01463,0.00000,0.00000,-0.01335,-0.00556,0.00714,-0.08729,0.95556,1.55967,0.03663,1.36358,1.95482,1.96459,-0.69392,1.47427,1.48758,-0.74105,1.57526,1.99944,1.99944,57.78145,12.77351,57.78145109,12.77351113,A,131128.80,"[-0.20000,-0.00000,-0.00000]","[-0.10000,-0.00000,-0.00000]",1.97577,0.00000,0.00000,0.00000,0.00000,0.00000
17:45:43.599579,1.57547,0.00509,1.36048,1.36048,"[5.00000,0.00000,0.00000]","[1.30000,0.00000,0.00000]",-0.09901,0.01681,-0.01280,0.00000,0.00000,-0.01564,0.00070,-0.01171,-0.14219,0.94721,1.56987,0.01709,1.36296,1.96019,1.96996,-0.70046,1.48940,1.48758,-0.74105,1.57526,1.99944,1.99944,57.78145,12.77351,57.78145123,12.77351102,A,131128.80,"[-0.20000,-0.00000,-0.00000]","[-0.10000,-0.00000,-0.00000]",1.98987,0.00000,0.00000,0.00000,0.00000,0.00000
17:45:43.610276,1.58616,0.00538,1.36048,1.36048,"[5.00000,0.00000,0.00000]","[1.30000,0.00000,0.00000]",-0.10047,0.01681,-0.01524,0.00000,0.00000,-0.01030,-0.00388,0.08333,-0.14500,0.90975,1.58049,0.02686,1.36246,1.96476,1.97453,-0.70684,1.50401,1.48758,-0.74105,1.57526,1.99944,1.99944,57.78145,12.77351,57.78145136,12.77351091,A,131128.80,"[-0.20000,-0.00000,-0.00000]","[-0.10000,-0.00000,-0.00000]",2.00397,0.00000,0.00000,0.00000,0.00000,0.00000
17:45:43.671453,1.64647,0.05528,1.36048,1.50000,"[5.00000,0.00000,0.00000]","[1.30000,0.00000,0.00000]",-0.10130,0.01681,-0.02914,0.00000,0.00000,-0.01519,-0.00541,-0.03379,-0.10834,0.99406,1.59087,0.02198,1.36206,1.96863,1.97841,-0.71279,1.51750,1.60765,-0.79045,1.72352,1.89244,1.89244,57.78145,12.77351,57.78145148,12.77351081,A,131128.90,"[-0.20000,-0.00000,-0.00000]","[-0.10000,-0.00000,-0.00000]",2.01807,0.00000,0.00000,0.00000,0.00000,0.00000
17:45:43.691938,1.66783,0.00652,1.36048,1.36048,"[5.00000,0.00000,0.00000]","[1.30000,0.00000,0.00000]",-0.10284,0.02046,-0.02700,0.00000,0.00000,-0.01320,-0.00312,-0.00378,-0.04984,1.00534,1.66239,0.03419,1.36175,1.95660,1.96850,-0.75246,1.61068,1.60765,-0.79045,1.72352,1.89244,1.89244,57.78145,12.77351,57.78145232,12.77351014,A,131128.90,"[-0.20000,-0.00000,-0.00000]","[-0.10000,-0.00000,-0.00000]",2.12322,0.00000,0.00000,0.00000,0.00000,0.00000
17:45:43.700908,1.67680,0.00509,1.36048,1.36048,"[5.00000,0.00000,0.00000]","[1.30000,0.00000,0.00000]",-0.10299,0.02168,-0.02089,0.00000,0.00000,-0.00297,-0.00174,-0.05740,-0.07229,0.99601,1.67143,0.03175,1.36149,1.94524,1.95784,-0.75799,1.62495,1.60765,-0.79045,1.72352,1.89244,1.89244,57.78145,12.77351,57.78145245,12.77351005,A,131128.90,"[-0.20000,-0.00000,-0.00000]","[-0.10000,-0.00000,-0.00000]",2.13732,0.00000,0.00000,0.00000,0.00000,0.00000
17:45:43.711303,1.68719,0.00525,1.36048,1.36048,"[5.00000,0.00000,0.00000]","[1.30000,0.00000,0.00000]",-0.10344,0.02295,-0.01845,0.00000,0.00000,-0.00144,-0.00235,0.01403,-0.08869,0.95203,1.68145,0.02930,1.36129,1.93550,1.94884,-0.76365,1.63978,1.60765,-0.79045,1.72352,1.89244,1.89244,57.78145,12.77351,57.78145258,12.77350995,A,131128.90,"[-0.20000,-0.00000,-0.00000]","[-0.10000,-0.00000,-0.00000]",2.15119,0.00000,0.00000,0.00000,0.00000,0.00000
17:45:43.721942,1.69782,0.00548,1.36048,1.36048,"[5.00000,0.00000,0.00000]","[1.30000,0.00000,0.00000]",-0.10481,0.02409,-0.01616,0.00000,0.00000,0.00192,-0.00113,0.00488,-0.14213,0.91073,1.69207,0.04396,1.36113,1.92713,1.94114,-0.76905,1.65419,1.60765,-0.79045,1.72352,1.89244,1.89244,57.78145,12.77351,57.78145271,12.77350986,A,131128.90,"[-0.20000,-0.00000,-0.00000]","[-0.10000,-0.00000,-0.00000]",2.16529,0.00000,0.00000,0.00000,0.00000,0.00000
17:45:43.731926,1.70782,0.00507,1.36048,1.36048,"[5.00000,0.00000,0.00000]","[1.30000,0.00000,0.00000]",-0.10604,0.02493,-0.01402,0.00000,0.00000,-0.00175,-0.00220,-0.02910,-0.14073,0.94074,1.70241,0.01465,1.36100,1.91996,1.93446,-0.77414,1.66802,1.60765,-0.79045,1.72352,1.89244,1.89244,57.78145,12.77351,57.78145283,12.77350978,A,131128.90,"[-0.20000,-0.00000,-0.00000]","[-0.10000,-0.00000,-0.00000]",2.17939,0.00000,0.00000,0.00000,0.00000,0.00000
17:45:43.802148,1.77802,0.06469,1.36048,1.50000,"[5.00000,0.00000,0.00000]","[1.30000,0.00000,0.00000]",-0.10708,0.02573,-0.01891,0.00000,0.00000,-0.00037,-0.00556,-0.02342,-0.12694,0.94160,1.71283,0.03175,1.36089,1.91381,1.92877,-0.77893,1.68123,1.74072,-0.90902,2.00151,1.97395,1.97395,57.78146,12.77351,57.78145295,12.77350969,A,131129.10,"[-0.20000,-0.00000,-0.00000]","[-0.10000,-0.00000,-0.00000]",2.19349,0.00000,0.00000,0.00000,0.00000,0.00000
17:45:43.822094,1.79798,0.00773,1.51854,1.51854,"[5.00000,0.00000,0.00000]","[1.30000,0.00000,0.00000]",-0.10824,0.03351,-0.00104,0.00000,0.00000,-0.00892,0.00834,-0.00976,-0.13408,0.90262,1.79161,0.02198,1.39242,1.92189,1.94138,-0.82012,1.78997,1.74072,-0.90902,2.00151,1.97395,1.97395,57.78146,12.77351,57.78145393,12.77350900,A,131129.10,"[-0.20000,-0.00000,-0.00000]","[-0.10000,-0.00000,-0.00000]",2.30884,0.00000,0.00000,0.00000,0.00000,0.00000
17:45:43.830330,1.80622,0.00556,1.51854,1.51854,"[5.00000,0.00000,0.00000]","[1.30000,0.00000,0.00000]",-0.10874,0.03422,-0.00104,0.00000,0.00000,-0.00877,0.01154,-0.03385,-0.09998,0.91573,1.80038,0.03175,1.41765,1.92692,1.94682,-0.82749,1.80807,1.74072,-0.90902,2.00151,1.97395,1.97395,57.78146,12.77351,57.78145409,12.77350888,A,131129.10,"[-0.20000,-0.00000,-0.00000]","[-0.10000,-0.00000,-0.00000]",2.32459,0.00000,0.00000,0.00000,0.00000,0.00000
17:45:43.840471,1.81636,0.00531,1.51854,1.51854,"[5.00000,0.00000,0.00000]","[1.30000,0.00000,0.00000]",-0.10950,0.03493,-0.00761,0.00000,0.00000,-0.00526,0.00192,-0.04685,-0.11376,0.92031,1.81074,0.02442,1.43782,1.93122,1.95154,-0.83561,1.82798,1.74072,-0.90902,2.00151,1.97395,1.97395,57.78146,12.77351,57.78145427,12.77350874,A,131129.10,"[-0.20000,-0.00000,-0.00000]","[-0.10000,-0.00000,-0.00000]",2.34032,0.00000,0.00000,0.00000,0.00000,0.00000
17:45:43.851012,1.82689,0.00550,1.51854,1.51854,"[5.00000,0.00000,0.00000]","[1.30000,0.00000,0.00000]",-0.11006,0.03569,-0.00104,0.00000,0.00000,-0.00419,0.01551,-0.01305,-0.10687,0.93629,1.82113,0.03175,1.45397,1.93483,1.95559,-0.84355,1.84733,1.74072,-0.90902,2.00151,1.97395,1.97395,57.78146,12.77351,57.78145445,12.77350860,A,131129.10,"[-0.20000,-0.00000,-0.00000]","[-0.10000,-0.00000,-0.00000]",2.35598,0.00000,0.00000,0.00000,0.00000,0.00000
17:45:43.861004,1.83690,0.00510,1.51854,1.51854,"[5.00000,0.00000,0.00000]","[1.30000,0.00000,0.00000]",-0.10994,0.03643,-0.00104,0.00000,0.00000,-0.00633,0.01979,-0.03129,-0.06875,0.98375,1.83152,0.04151,1.46688,1.93784,1.95903,-0.85110,1.86561,1.74072,-0.90902,2.00151,1.97395,1.97395,57.78146,12.77351,57.78145461,12.77350848,A,131129.10,"[-0.20000,-0.00000,-0.00000]","[-0.10000,-0.00000,-0.00000]",2.37173,0.00000,0.00000,0.00000,0.00000,0.00000
17:45:43.917648,1.89352,0.05131,1.51854,1.50000,"[5.00000,0.00000,0.00000]","[1.30000,0.00000,0.00000]",-0.11052,0.03719,0.00430,0.00000,0.00000,-0.00556,0.01597,-0.02300,-0.12420,1.02700,1.84169,0.03175,1.47721,1.94034,1.96198,-0.85844,1.88326,1.85864,-0.96830,2.14977,1.95118,1.95118,57.78146,12.77351,57.78145477,12.77350835,A,131129.20,"[-0.20000,-0.00000,-0.00000]","[-0.10000,-0.00000,-0.00000]",2.38746,0.00000,0.00000,0.00000,0.00000,0.00000
17:45:43.939165,1.91505,0.00667,1.51854,1.51854,"[5.00000,0.00000,0.00000]","[1.30000,0.00000,0.00000]",-0.10997,0.04313,0.01499,0.00000,0.00000,-0.00129,0.01826,0.03526,-0.09894,0.92421,1.90936,0.02198,1.48548,1.94087,1.96596,-0.89906,1.98175,1.85864,-0.96830,2.14977,1.95118,1.95118,57.78146,12.77351,57.78145566,12.77350767,A,131129.20,"[-0.20000,-0.00000,-0.00000]","[-0.10000,-0.00000,-0.00000]",2.48669,0.00000,0.00000,0.00000,0.00000,0.00000
17:45:43.948421,1.92430,0.00552,1.51854,1.51854,"[5.00000,0.00000,0.00000]","[1.30000,0.00000,0.00000]",-0.11098,0.04393,0.01790,0.00000,0.00000,-0.00175,0.02315,0.01043,-0.14494,0.92897,1.91867,0.02686,1.49209,1.93893,1.96448,-0.90646,1.99961,1.85864,-0.96830,2.14977,1.95118,1.95118,57.78146,12.77351,57.78145582,12.77350754,A,131129.20,"[-0.20000,-0.00000,-0.00000]","[-0.10000,-0.00000,-0.00000]",2.50243,0.00000,0.00000,0.00000,0.00000,0.00000
17:45:43.958630,1.93452,0.00523,1.51854,1.51854,"[5.00000,0.00000,0.00000]","[1.30000,0.00000,0.00000]",-0.11177,0.04469,0.01881,0.00000,0.00000,0.00818,0.02575,0.03544,-0.13579,0.94538,1.92883,0.02442,1.49738,1.93727,1.96327,-0.91410,2.01807,1.85864,-0.96830,2.14977,1.95118,1.95118,57.78146,12.77351,57.78145598,12.77350741,A,131129.20,"[-0.20000,-0.00000,-0.00000]","[-0.10000,-0.00000,-0.00000]",2.51810,0.00000,0.00000,0.00000,0.00000,0.00000
17:45:43.968889,1.94478,0.00508,1.51854,1.51854,"[5.00000,0.00000,0.00000]","[1.30000,0.00000,0.00000]",-0.11177,0.04528,0.01866,0.00000,0.00000,0.00497,0.02590,0.00409,-0.09223,1.00601,1.93941,0.03175,1.50161,1.93583,1.96217,-0.92145,2.03586,1.85864,-0.96830,2.14977,1.95118,1.95118,57.78146,12.77351,57.78145614,12.77350729,A,131129.20,"[-0.20000,-0.00000,-0.00000]","[-0.10000,-0.00000,-0.00000]",2.53383,0.00000,0.00000,0.00000,0.00000,0.00000
17:45:43.979211,1.95510,0.00517,1.51854,1.51854,"[5.00000,0.00000,0.00000]","[1.30000,0.00000,0.00000]",-0.11179,0.04568,0.02446,0.00000,0.00000,0.00543,0.02727,0.04319,-0.10437,1.07683,1.94946,0.01954,1.50500,1.93456,1.96114,-0.92830,2.05248,1.85864,-0.96830,2.14977,1.95118,1.95118,57.78146,12.77351,57.78145629,12.77350717,A,131129.20,"[-0.20000,-0.00000,-0.00000]","[-0.10000,-0.00000,-0.00000]",2.54932,0.00000,0.00000,0.00000,0.00000,0.00000
17:45:44.037612,2.01348,0.05315,1.51854,1.50000,"[5.00000,0.00000,0.00000]","[1.30000,0.00000,0.00000]",-0.11206,0.04599,0.02492,0.00000,0.00000,0.00619,0.02361,-0.01141,-0.12670,1.10251,1.96006,0.04151,1.50771,1.93348,1.96024,-0.93498,2.06870,1.97682,-1.02758,2.29803,1.95118,1.95118,57.78146,12.77351,57.78145644,12.77350706,A,131129.30,"[-0.20000,-0.00000,-0.00000]","[-0.10000,-0.00000,-0.00000]",2.56505,0.00000,0.00000,0.00000,0.00000,0.00000
17:45:44.060227,2.03610,0.01006,1.51854,1.51854,"[5.00000,0.00000,0.00000]","[1.30000,0.00000,0.00000]",-0.10900,0.04800,0.04920,0.00000,0.00000,-0.01625,0.01857,-0.02532,-0.07954,0.87675,2.02723,0.04396,1.50987,1.93530,1.96323,-0.97518,2.16685,1.97682,-1.02758,2.29803,1.95118,1.95118,57.78146,12.77351,57.78145732,12.77350638,A,131129.30,"[-0.20000,-0.00000,-0.00000]","[-0.10000,-0.00000,-0.00000]",2.66357,0.00000,0.00000,0.00000,0.00000,0.00000
17:45:44.083142,2.05903,0.00821,1.51854,1.51854,"[5.00000,0.00000,0.00000]","[1.30000,0.00000,0.00000]",-0.10738,0.04845,0.06646,0.00000,0.00000,0.00283,0.02208,0.04246,-0.07601,0.96569,2.05292,0.03419,1.51161,1.93474,1.96293,-0.99091,2.20507,1.97682,-1.02758,2.29803,1.95118,1.95118,57.78146,12.77351,57.78145766,12.77350612,A,131129.30,"[-0.20000,-0.00000,-0.00000]","[-0.10000,-0.00000,-0.00000]",2.70119,0.00000,0.00000,0.00000,0.00000,0.00000
17:45:44.090978,2.06687,0.00575,1.51854,1.51854,"[5.00000,0.00000,0.00000]","[1.30000,0.00000,0.00000]",-0.10709,0.04854,0.06356,0.00000,0.00000,0.00757,0.01628,0.26193,-0.06454,0.76165,2.06080,0.02442,1.51299,1.93328,1.96152,-0.99592,2.21742,1.97682,-1.02758,2.29803,1.95118,1.95118,57.78146,12.77351,57.78145778,12.77350603,A,131129.30,"[-0.20000,-0.00000,-0.00000]","[-0.10000,-0.00000,-0.00000]",2.71676,0.00000,0.00000,0.00000,0.00000,0.00000
17:45:44.101433,2.07702,0.00551,1.51854,1.51854,"[5.00000,0.00000,0.00000]","[1.30000,0.00000,0.00000]",-0.10635,0.04857,0.07547,0.00000,0.00000,0.00497,0.03063,-0.54034,-0.07576,1.00754,2.07123,0.02198,1.51410,1.93218,1.96044,-1.00209,2.23258,1.97682,-1.02758,2.29803,1.95118,1.95118,57.78146,12.77351,57.78145791,12.77350593,A,131129.30,"[-0.20000,-0.00000,-0.00000]","[-0.10000,-0.00000,-0.00000]",2.73249,0.00000,0.00000,0.00000,0.00000,0.00000
17:45:44.161313,2.13643,0.05468,1.51854,1.50000,"[5.00000,0.00000,0.00000]","[1.30000,0.00000,0.00000]",-0.10805,0.04857,0.07150,0.00000,0.00000,0.02086,0.01429,0.27670,-0.24973,1.04871,2.08128,0.02198,1.51499,1.93124,1.95950,-1.00788,2.24685,2.09833,-1.08687,2.46482,1.91230,1.91230,57.78146,12.77350,57.78145804,12.77350583,A,131129.40,"[-0.20000,-0.00000,-0.00000]","[-0.10000,-0.00000,-0.00000]",2.74798,0.00000,0.00000,0.00000,0.00000,0.00000
17:45:44.181555,2.15743,0.00720,1.51854,1.51854,"[5.00000,0.00000,0.00000]","[1.30000,0.00000,0.00000]",-0.10024,0.05168,0.09822,0.00000,0.00000,-0.02511,0.03124,0.00994,-0.00482,0.97094,2.15138,0.04884,1.51570,1.92760,1.95767,-1.04897,2.34842,2.09833,-1.08687,2.46482,1.91230,1.91230,57.78146,12.77350,57.78145895,12.77350514,A,131129.40,"[-0.20000,-0.00000,-0.00000]","[-0.10000,-0.00000,-0.00000]",2.85066,0.00000,0.00000,0.00000,0.00000,0.00000
17:45:44.190466,2.16635,0.00572,1.51854,1.51854,"[5.00000,0.00000,0.00000]","[1.30000,0.00000,0.00000]",-0.10264,0.05171,0.10953,0.00000,0.00000,-0.03840,0.03201,0.01470,-0.32623,1.08775,2.16033,0.04396,1.51627,1.92120,1.95129,-1.05475,2.36378,2.09833,-1.08687,2.46482,1.91230,1.91230,57.78146,12.77350,57.78145909,12.77350504,A,131129.40,"[-0.20000,-0.00000,-0.00000]","[-0.10000,-0.00000,-0.00000]",2.86640,0.00000,0.00000,0.00000,0.00000,0.00000
17:45:44.200621,2.17651,0.00548,1.51854,1.51854,"[5.00000,0.00000,0.00000]","[1.30000,0.00000,0.00000]",-0.10209,0.05171,0.08097,0.00000,0.00000,-0.02954,0.04163,-0.37338,-0.10016,1.13545,2.17073,0.01465,1.51672,1.91584,1.94593,-1.06084,2.38006,2.09833,-1.08687,2.46482,1.91230,1.91230,57.78146,12.77350,57.78145924,12.77350494,A,131129.40,"[-0.20000,-0.00000,-0.00000]","[-0.10000,-0.00000,-0.00000]",2.88214,0.00000,0.00000,0.00000,0.00000,0.00000
17:45:44.211454,2.18734,0.00578,1.51854,1.51854,"[5.00000,0.00000,0.00000]","[1.30000,0.00000,0.00000]",-0.10087,0.05171,0.07394,0.00000,0.00000,0.01795,0.03659,-0.25535,-0.04056,1.08458,2.18108,0.01465,1.51708,1.91130,1.94138,-1.06668,2.39581,2.09833,-1.08687,2.46482,1.91230,1.91230,57.78146,12.77350,57.78145938,12.77350484,A,131129.40,"[-0.20000,-0.00000,-0.00000]","[-0.10000,-0.00000,-0.00000]",2.89809,0.00000,0.00000,0.00000,0.00000,0.00000
17:45:44.221856,2.19774,0.00575,1.70365,1.70365,"[5.00000,0.00000,0.00000]","[1.30000,0.00000,0.00000]",-0.09897,0.05171,0.08341,0.00000,0.00000,0.04086,0.02743,-0.07692,0.00506,0.95154,2.19171,0.02198,1.55440,1.90742,1.93751,-1.07206,2.41052,2.09833,-1.08687,2.46482,1.91230,1.91230,57.78146,12.77350,57.78145951,12.77350475,A,131129.40,"[-0.20000,-0.00000,-0.00000]","[-0.10000,-0.00000,-0.00000]",2.91386,0.00000,0.00000,0.00000,0.00000,0.00000
17:45:44.293723,2.26960,0.06721,1.70365,1.50000,"[5.00000,0.00000,0.00000]","[1.30000,0.00000,0.00000]",-0.09661,0.05171,0.09914,0.00000,0.00000,0.00345,0.01353,0.11974,0.02934,0.97685,2.20188,0.04151,1.58425,1.90414,1.93423,-1.07725,2.42480,2.23009,-1.19555,2.77987,1.90299,1.90299,57.78146,12.77350,57.78145964,12.77350466,A,131129.60,"[-0.20000,-0.00000,-0.00000]","[-0.10000,-0.00000,-0.00000]",2.93152,0.00000,0.00000,0.00000,0.00000,0.00000
17:45:44.308051,2.28394,0.00566,1.70365,1.70365,"[5.00000,0.00000,0.00000]","[1.30000,0.00000,0.00000]",-0.08963,0.05171,0.09593,0.00000,0.00000,-0.03015,0.01551,-0.18233,-0.07491,1.01797,2.27792,0.07082,1.60813,1.90395,1.93404,-1.12288,2.54699,2.23009,-1.19555,2.77987,1.90299,1.90299,57.78146,12.77350,57.78146074,12.77350389,A,131129.60,"[-0.20000,-0.00000,-0.00000]","[-0.10000,-0.00000,-0.00000]",3.04532,0.00000,0.00000,0.00000,0.00000,0.00000
17:45:44.318613,2.29450,0.00582,1.70365,1.70365,"[5.00000,0.00000,0.00000]","[1.30000,0.00000,0.00000]",-0.08957,0.05162,0.08524,0.00000,0.00000,-0.00572,0.00666,-0.15213,-0.11297,1.04347,2.28841,0.02442,1.62723,1.89983,1.92986,-1.13112,2.57077,2.23009,-1.19555,2.77987,1.90299,1.90299,57.78146,12.77350,57.78146095,12.77350375,A,131129.60,"[-0.20000,-0.00000,-0.00000]","[-0.10000,-0.00000,-0.00000]",3.06297,0.00000,0.00000,0.00000,0.00000,0.00000
17:45:44.328681,2.30457,0.00550,1.70365,1.70365,"[5.00000,0.00000,0.00000]","[1.30000,0.00000,0.00000]",-0.08927,0.05117,0.08830,0.00000,0.00000,0.00467,-0.00526,-0.07375,-0.09675,1.03249,2.29880,0.04396,1.64252,1.89635,1.92612,-1.13887,2.59328,2.23009,-1.19555,2.77987,1.90299,1.90299,57.78146,12.77350,57.78146116,12.77350362,A,131129.60,"[-0.20000,-0.00000,-0.00000]","[-0.10000,-0.00000,-0.00000]",3.08063,0.00000,0.00000,0.00000,0.00000,0.00000
17:45:44.339527,2.31542,0.00577,1.70365,1.70365,"[5.00000,0.00000,0.00000]","[1.30000,0.00000,0.00000]",-0.08801,0.05010,0.07639,0.00000,0.00000,0.00100,-0.01534,0.01208,-0.02135,1.01486,2.30916,0.02442,1.65474,1.89351,1.92266,-1.14638,2.61520,2.23009,-1.19555,2.77987,1.90299,1.90299,57.78146,12.77350,57.78146135,12.77350350,A,131129.60,"[-0.20000,-0.00000,-0.00000]","[-0.10000,-0.00000,-0.00000]",3.09859,0.00000,0.00000,0.00000,0.00000,0.00000
17:45:44.350242,2.32613,0.00609,1.70365,1.70365,"[5.00000,0.00000,0.00000]","[1.30000,0.00000,0.00000]",-0.08694,0.04837,0.07532,0.00000,0.00000,0.00253,-0.02221,-0.03306,-0.03422,0.99912,2.32010,0.03175,1.66453,1.89125,1.91939,-1.15355,2.63627,2.23009,-1.19555,2.77987,1.90299,1.90299,57.78146,12.77350,57.78146154,12.77350338,A,131129.60,"[-0.20000,-0.00000,-0.00000]","[-0.10000,-0.00000,-0.00000]",3.11624,0.00000,0.00000,0.00000,0.00000,0.00000
17:45:44.391624,2.36751,0.03706,1.70365,1.50000,"[5.00000,0.00000,0.00000]","[1.30000,0.00000,0.00000]",-0.08674,0.04636,0.07471,0.00000,0.00000,0.00039,-0.02221,-0.08900,-0.08442,0.98228,2.32992,0.04396,1.67235,1.88944,1.91641,-1.16000,2.65542,2.34689,-1.23508,2.90960,1.86652,1.86652,57.78146,12.77350,57.78146171,12.77350327,A,131129.70,"[-0.20000,-0.00000,-0.00000]","[-0.10000,-0.00000,-0.00000]",3.13389,0.00000,0.00000,0.00000,0.00000,0.00000
17:45:44.403242,2.37913,0.00584,1.70365,1.70365,"[5.00000,0.00000,0.00000]","[1.30000,0.00000,0.00000]",-0.08411,0.03855,0.06310,0.00000,0.00000,-0.01641,-0.00083,-0.00836,-0.05447,0.98491,2.37290,0.02930,1.67861,1.88498,1.90740,-1.18575,2.72922,2.34689,-1.23508,2.90960,1.86652,1.86652,57.78146,12.77350,57.78146238,12.77350283,A,131129.70,"[-0.20000,-0.00000,-0.00000]","[-0.10000,-0.00000,-0.00000]",3.19789,0.00000,0.00000,0.00000,0.00000,0.00000
17:45:44.413518,2.38940,0.00570,1.70365,1.70365,"[5.00000,0.00000,0.00000]","[1.30000,0.00000,0.00000]",-0.08400,0.03665,0.06951,0.00000,0.00000,-0.00984,-0.01198,-0.04343,-0.09254,1.00632,2.38340,0.02930,1.68362,1.87941,1.90073,-1.19259,2.75075,2.34689,-1.23508,2.90960,1.86652,1.86652,57.78146,12.77350,57.78146257,12.77350272,A,131129.70,"[-0.20000,-0.00000,-0.00000]","[-0.10000,-0.00000,-0.00000]",3.21555,0.00000,0.00000,0.00000,0.00000,0.00000
17:45:44.423626,2.39951,0.00558,1.70365,1.70365,"[5.00000,0.00000,0.00000]","[1.30000,0.00000,0.00000]",-0.08504,0.03464,0.05882,0.00000,0.00000,0.00543,-0.01808,-0.05185,-0.16061,1.00162,2.39348,0.03175,1.68762,1.87484,1.89499,-1.19902,2.77127,2.34689,-1.23508,2.90960,1.86652,1.86652,57.78146,12.77350,57.78146276,12.77350261,A,131129.70,"[-0.20000,-0.00000,-0.00000]","[-0.10000,-0.00000,-0.00000]",3.23293,0.00000,0.00000,0.00000,0.00000,0.00000
17:45:44.434153,2.41004,0.00571,1.70365,1.70365,"[5.00000,0.00000,0.00000]","[1.30000,0.00000,0.00000]",-0.08609,0.03260,0.03485,0.00000,0.00000,0.02162,-0.02786,0.00250,-0.14311,0.96892,2.40405,0.04884,1.69083,1.87111,1.89008,-1.20520,2.79120,2.34689,-1.23508,2.90960,1.86652,1.86652,57.78146,12.77350,57.78146294,12.77350250,A,131129.70,"[-0.20000,-0.00000,-0.00000]","[-0.10000,-0.00000,-0.00000]",3.25058,0.00000,0.00000,0.00000,0.00000,0.00000
17:45:44.444298,2.42019,0.00549,1.70365,1.70365,"[5.00000,0.00000,0.00000]","[1.30000,0.00000,0.00000]",-0.08597,0.03079,0.02859,0.00000,0.00000,0.01032,-0.03381,0.09455,-0.06374,0.97203,2.41438,0.03175,1.69339,1.86809,1.88600,-1.21103,2.81023,2.34689,-1.23508,2.90960,1.86652,1.86652,57.78146,12.77350,57.78146311,12.77350241,A,131129.70,"[-0.20000,-0.00000,-0.00000]","[-0.10000,-0.00000,-0.00000]",3.26819,0.00000,0.00000,0.00000,0.00000,0.00000
17:45:44.455065,2.43096,0.00585,1.70365,1.70365,"[5.00000,0.00000,0.00000]","[1.30000,0.00000,0.00000]",-0.08481,0.02918,0.02416,0.00000,0.00000,-0.00312,-0.03381,0.06930,0.00653,0.97203,2.42482,0.04640,1.69545,1.86564,1.88261,-1.21654,2.82842,2.34689,-1.23508,2.90960,1.86652,1.86652,57.78146,12.77350,57.78146327,12.77350231,A,131129.70,"[-0.20000,-0.00000,-0.00000]","[-0.10000,-0.00000,-0.00000]",3.28586,0.00000,0.00000,0.00000,0.00000,0.00000
17:45:44.465435,2.44109,0.00559,1.70365,1.70365,"[5.00000,0.00000,0.00000]","[1.30000,0.00000,0.00000]",-0.08478,0.02791,0.03271,0.00000,0.00000,-0.00847,-0.03305,0.09058,-0.07283,0.98192,2.43532,0.05861,1.69709,1.86365,1.87988,-1.22162,2.84534,2.34689,-1.23508,2.90960,1.86652,1.86652,57.78146,12.77350,57.78146342,12.77350223,A,131129.70,"[-0.20000,-0.00000,-0.00000]","[-0.10000,-0.00000,-0.00000]",3.30351,0.00000,0.00000,0.00000,0.00000,0.00000
17:45:44.522694,2.49856,0.05283,1.70365,1.50000,"[5.00000,0.00000,0.00000]","[1.30000,0.00000,0.00000]",-0.08537,0.02677,0.03164,0.00000,0.00000,-0.01228,-0.03427,0.03855,-0.10785,0.95050,2.44526,0.03663,1.69840,1.86203,1.87760,-1.22630,2.86112,2.46217,-1.28448,3.03933,1.93466,1.93466,57.78147,12.77350,57.78146356,12.77350215,A,131129.80,"[-0.20000,-0.00000,-0.00000]","[-0.10000,-0.00000,-0.00000]",3.32088,0.00000,0.00000,0.00000,0.00000,0.00000
17:45:44.543517,2.51941,0.00819,1.70365,1.70365,"[5.00000,0.00000,0.00000]","[1.30000,0.00000,0.00000]",-0.08485,0.01636,0.00766,0.00000,0.00000,-0.01503,-0.04145,0.04252,-0.05539,0.97856,2.51327,0.02686,1.69945,1.87371,1.88322,-1.26133,2.97142,2.46217,-1.28448,3.03933,1.93466,1.93466,57.78147,12.77350,57.78146456,12.77350156,A,131129.80,"[-0.20000,-0.00000,-0.00000]","[-0.10000,-0.00000,-0.00000]",3.41907,0.00000,0.00000,0.00000,0.00000,0.00000
17:45:44.551691,2.52758,0.00603,1.70365,1.70365,"[5.00000,0.00000,0.00000]","[1.30000,0.00000,0.00000]",-0.08502,0.01531,0.00217,0.00000,0.00000,-0.00755,-0.03687,0.06478,-0.06966,1.00260,2.52144,0.01221,1.70029,1.88164,1.89055,-1.26550,2.98415,2.46217,-1.28448,3.03933,1.93466,1.93466,57.78147,12.77350,57.78146467,12.77350149,A,131129.80,"[-0.20000,-0.00000,-0.00000]","[-0.10000,-0.00000,-0.00000]",3.43662,0.00000,0.00000,0.00000,0.00000,0.00000
17:45:44.561799,2.53768,0.00573,1.70365,1.70365,"[5.00000,0.00000,0.00000]","[1.30000,0.00000,0.00000]",-0.08521,0.01438,0.00934,0.00000,0.00000,-0.00098,-0.03412,0.06124,-0.07698,1.01675,2.53166,0.01709,1.70096,1.88850,1.89686,-1.27057,2.99934,2.46217,-1.28448,3.03933,1.93466,1.93466,57.78147,12.77350,57.78146481,12.77350140,A,131129.80,"[-0.20000,-0.00000,-0.00000]","[-0.10000,-0.00000,-0.00000]",3.45427,0.00000,0.00000,0.00000,0.00000,0.00000
17:45:44.574425,2.55031,0.00609,1.70365,1.70365,"[5.00000,0.00000,0.00000]","[1.30000,0.00000,0.00000]",-0.08557,0.01350,0.00507,0.00000,0.00000,0.00955,-0.03687,0.10028,-0.08882,1.03108,2.54409,0.01709,1.70150,1.89444,1.90229,-1.27679,3.01769,2.46217,-1.28448,3.03933,1.93466,1.93466,57.78147,12.77350,57.78146497,12.77350130,A,131129.80,"[-0.20000,-0.00000,-0.00000]","[-0.10000,-0.00000,-0.00000]",3.47512,0.00000,0.00000,0.00000,0.00000,0.00000
17:45:44.584222,2.56011,0.00550,1.70365,1.70365,"[5.00000,0.00000,0.00000]","[1.30000,0.00000,0.00000]",-0.08617,0.01282,-0.00028,0.00000,0.00000,0.02101,-0.04160,0.18831,-0.09827,1.00186,2.55411,0.01465,1.70193,1.89950,1.90695,-1.28162,3.03169,2.46217,-1.28448,3.03933,1.93466,1.93466,57.78147,12.77350,57.78146510,12.77350121,A,131129.80,"[-0.20000,-0.00000,-0.00000]","[-0.10000,-0.00000,-0.00000]",3.49277,0.00000,0.00000,0.00000,0.00000,0.00000
17:45:44.643156,2.61903,0.05401,1.70365,1.50000,"[5.00000,0.00000,0.00000]","[1.30000,0.00000,0.00000]",-0.08707,0.01206,-0.00562,0.00000,0.00000,0.00574,-0.05199,0.16793,-0.11157,0.96905,2.56470,0.02686,1.70227,1.90386,1.91087,-1.28635,3.04518,2.58154,-1.33388,3.16906,1.93466,1.93466,57.78147,12.77350,57.78146522,12.77350114,A,131129.90,"[-0.20000,-0.00000,-0.00000]","[-0.10000,-0.00000,-0.00000]",3.51042,0.00000,0.00000,0.00000,0.00000,0.00000
17:45:44.662862,2.63875,0.00754,1.70365,1.70365,"[5.00000,0.00000,0.00000]","[1.30000,0.00000,0.00000]",-0.08863,0.00807,-0.01784,0.00000,0.00000,0.00558,-0.05321,-0.04599,-0.09290,1.06317,2.63096,0.02198,1.70255,1.90875,1.91344,-1.32336,3.14927,2.58154,-1.33388,3.16906,1.93466,1.93466,57.78147,12.77350,57.78146616,12.77350051,A,131129.90,"[-0.20000,-0.00000,-0.00000]","[-0.10000,-0.00000,-0.00000]",3.60967,0.00000,0.00000,0.00000,0.00000,0.00000
17:45:44.671714,2.64760,0.00616,1.70365,1.70365,"[5.00000,0.00000,0.00000]","[1.30000,0.00000,0.00000]",-0.08946,0.00753,-0.01921,0.00000,0.00000,0.02574,-0.06008,0.06307,-0.10364,0.99040,2.64153,0.00733,1.70277,1.91205,1.91643,-1.32761,3.16070,2.58154,-1.33388,3.16906,1.93466,1.93466,57.78147,12.77350,57.78146626,12.77350044,A,131129.90,"[-0.20000,-0.00000,-0.00000]","[-0.10000,-0.00000,-0.00000]",3.62705,0.00000,0.00000,0.00000,0.00000,0.00000
17:45:44.681705,2.65758,0.00575,1.70365,1.70365,"[5.00000,0.00000,0.00000]","[1.30000,0.00000,0.00000]",-0.08998,0.00733,-0.02624,0.00000,0.00000,0.02559,-0.06069,0.40925,-0.08455,1.04816,2.65157,0.01221,1.70295,1.91488,1.91914,-1.33230,3.17328,2.58154,-1.33388,3.16906,1.93466,1.93466,57.78147,12.77350,57.78146637,12.77350036,A,131129.90,"[-0.20000,-0.00000,-0.00000]","[-0.10000,-0.00000,-0.00000]",3.64470,0.00000,0.00000,0.00000,0.00000,0.00000
17:45:44.691834,2.66772,0.00548,1.70365,1.70365,"[5.00000,0.00000,0.00000]","[1.30000,0.00000,0.00000]",-0.08997,0.00733,-0.01601,0.00000,0.00000,0.00283,-0.05840,0.18831,-0.04978,0.95447,2.66171,0.00000,1.70309,1.91728,1.92155,-1.33701,3.18581,2.58154,-1.33388,3.16906,1.93466,1.93466,57.78147,12.77350,57.78146648,12.77350028,A,131129.90,"[-0.20000,-0.00000,-0.00000]","[-0.10000,-0.00000,-0.00000]",3.66237,0.00000,0.00000,0.00000,0.00000,0.00000
17:45:44.702659,2.67854,0.00590,1.70365,1.70365,"[5.00000,0.00000,0.00000]","[1.30000,0.00000,0.00000]",-0.09168,0.00733,-0.01494,0.00000,0.00000,-0.01152,-0.05031,0.42005,-0.16824,0.99857,2.67235,0.00488,1.70320,1.91933,1.92359,-1.34165,3.19809,2.58154,-1.33388,3.16906,1.93466,1.93466,57.78147,12.77350,57.78146659,12.77350020,A,131129.90,"[-0.20000,-0.00000,-0.00000]","[-0.10000,-0.00000,-0.00000]",3.68002,0.00000,0.00000,0.00000,0.00000,0.00000
17:45:44.758405,2.73429,0.05125,1.70365,1.50000,"[5.00000,0.00000,0.00000]","[1.30000,0.00000,0.00000]",-0.09283,0.00733,-0.02288,0.00000,0.00000,-0.02649,-0.04695,0.04874,-0.13188,1.03718,2.68272,0.00733,1.70329,1.92107,1.92533,-1.34585,3.20909,2.69943,-1.38328,3.31732,1.89244,1.89244,57.78147,12.77350,57.78146669,12.77350013,A,131130.00,"[-0.20000,-0.00000,-0.00000]","[-0.10000,-0.00000,-0.00000]",3.69767,0.00000,0.00000,0.00000,0.00000,0.00000
17:45:44.781324,2.75699,0.00870,1.36473,1.36473,"[5.00000,0.00000,0.00000]","[1.30000,0.00000,0.00000]",-0.09372,0.00733,-0.01295,0.00000,0.00000,0.01078,-0.04298,-0.00964,-0.07064,1.02523,2.75041,0.00000,1.63558,1.91674,1.92100,-1.38477,3.31458,2.69943,-1.38328,3.31732,1.89244,1.89244,57.78147,12.77350,57.78146764,12.77349948,A,131130.00,"[-0.20000,-0.00000,-0.00000]","[-0.10000,-0.00000,-0.00000]",3.79552,0.00000,0.00000,0.00000,0.00000,0.00000
17:45:44.787983,2.76387,0.00545,1.36473,1.36473,"[5.00000,0.00000,0.00000]","[1.30000,0.00000,0.00000]",-0.09376,0.00733,-0.01143,0.00000,0.00000,0.02238,-0.04298,0.12578,-0.06710,1.01974,2.75789,0.00488,1.58141,1.91250,1.91676,-1.38733,3.32193,2.69943,-1.38328,3.31732,1.89244,1.89244,57.78147,12.77350,57.78146771,12.77349943,A,131130.00,"[-0.20000,-0.00000,-0.00000]","[-0.10000,-0.00000,-0.00000]",3.80933,0.00000,0.00000,0.00000,0.00000,0.00000
17:45:44.798675,2.77456,0.00574,1.36473,1.36473,"[5.00000,0.00000,0.00000]","[1.30000,0.00000,0.00000]",-0.09389,0.00733,-0.00807,0.00000,0.00000,0.01902,-0.03213,0.14567,-0.06856,0.97069,2.76851,0.00000,1.53807,1.90893,1.91319,-1.39153,3.33392,2.69943,-1.38328,3.31732,1.89244,1.89244,57.78147,12.77350,57.78146782,12.77349936,A,131130.00,"[-0.20000,-0.00000,-0.00000]","[-0.10000,-0.00000,-0.00000]",3.82347,0.00000,0.00000,0.00000,0.00000,0.00000
17:45:44.808791,2.78468,0.00546,1.36473,1.36473,"[5.00000,0.00000,0.00000]","[1.30000,0.00000,0.00000]",-0.09459,0.00736,-0.00425,0.00000,0.00000,0.01276,-0.02725,0.26578,-0.10681,0.94873,2.77890,0.00733,1.50341,1.90588,1.91016,-1.39522,3.34460,2.69943,-1.38328,3.31732,1.89244,1.89244,57.78147,12.77350,57.78146791,12.77349930,A,131130.00,"[-0.20000,-0.00000,-0.00000]","[-0.10000,-0.00000,-0.00000]",3.83762,0.00000,0.00000,0.00000,0.00000,0.00000
17:45:44.819449,2.79534,0.00562,1.36473,1.36473,"[5.00000,0.00000,0.00000]","[1.30000,0.00000,0.00000]",-0.09420,0.00750,0.00140,0.00000,0.00000,0.00314,-0.02083,0.05380,-0.04343,0.98918,2.78926,0.00000,1.47567,1.90328,1.90764,-1.39870,3.35479,2.69943,-1.38328,3.31732,1.89244,1.89244,57.78147,12.77350,57.78146800,12.77349924,A,131130.00,"[-0.20000,-0.00000,-0.00000]","[-0.10000,-0.00000,-0.00000]",3.85189,0.00000,0.00000,0.00000,0.00000,0.00000
17:45:44.883821,2.85931,0.05919,1.36473,1.50000,"[5.00000,0.00000,0.00000]","[1.30000,0.00000,0.00000]",-0.09415,0.00795,0.01576,0.00000,0.00000,0.01841,-0.01778,0.09986,-0.07601,0.99814,2.79982,0.00000,1.45348,1.90103,1.90566,-1.40188,3.36418,2.81646,-1.44257,3.44704,1.99944,1.99944,57.78147,12.77350,57.78146809,12.77349919,A,131130.10,"[-0.20000,-0.00000,-0.00000]","[-0.10000,-0.00000,-0.00000]",3.86604,0.00000,0.00000,0.00000,0.00000,0.00000
17:45:44.903276,2.87916,0.00715,1.36473,1.36473,"[5.00000,0.00000,0.00000]","[1.30000,0.00000,0.00000]",-0.09184,0.01930,0.04905,0.00000,0.00000,0.00314,-0.02221,0.15378,-0.13542,0.90817,2.87303,0.00000,1.43573,1.91472,1.92595,-1.43634,3.46153,2.81646,-1.44257,3.44704,1.99944,1.99944,57.78147,12.77350,57.78146896,12.77349860,A,131130.10,"[-0.20000,-0.00000,-0.00000]","[-0.10000,-0.00000,-0.00000]",3.97384,0.00000,0.00000,0.00000,0.00000,0.00000
17:45:44.911981,2.88787,0.00547,1.36473,1.36473,"[5.00000,0.00000,0.00000]","[1.30000,0.00000,0.00000]",-0.09245,0.02106,0.04477,0.00000,0.00000,-0.00098,-0.01732,0.14768,-0.11834,0.90390,2.88189,0.00000,1.42153,1.92573,1.93798,-1.43986,3.46944,2.81646,-1.44257,3.44704,1.99944,1.99944,57.78147,12.77350,57.78146903,12.77349855,A,131130.10,"[-0.20000,-0.00000,-0.00000]","[-0.10000,-0.00000,-0.00000]",3.98798,0.00000,0.00000,0.00000,0.00000,0.00000
17:45:44.922669,2.89856,0.00576,1.36473,1.36473,"[5.00000,0.00000,0.00000]","[1.30000,0.00000,0.00000]",-0.09241,0.02301,0.04493,0.00000,0.00000,-0.00618,-0.00831,0.06881,-0.09083,0.97496,2.89251,0.01465,1.41017,1.93497,1.94835,-1.44419,3.47922,2.81646,-1.44257,3.44704,1.99944,1.99944,57.78147,12.77350,57.78146912,12.77349847,A,131130.10,"[-0.20000,-0.00000,-0.00000]","[-0.10000,-0.00000,-0.00000]",4.00212,0.00000,0.00000,0.00000,0.00000,0.00000
17:45:44.932756,2.90865,0.00544,1.36473,1.36473,"[5.00000,0.00000,0.00000]","[1.30000,0.00000,0.00000]",-0.09148,0.02474,0.05775,0.00000,0.00000,0.00513,0.00421,0.05594,-0.04172,1.00186,2.90290,0.00488,1.40109,1.94269,1.95707,-1.44822,3.48800,2.81646,-1.44257,3.44704,1.99944,1.99944,57.78147,12.77350,57.78146920,12.77349840,A,131130.10,"[-0.20000,-0.00000,-0.00000]","[-0.10000,-0.00000,-0.00000]",4.01626,0.00000,0.00000,0.00000,0.00000,0.00000
17:45:45.008669,2.98455,0.07095,1.36473,1.50000,"[5.00000,0.00000,0.00000]","[1.30000,0.00000,0.00000]",-0.09116,0.02635,0.06676,0.00000,0.00000,0.01643,0.00498,0.18629,-0.08619,0.98948,2.91328,0.00244,1.39382,1.94912,1.96445,-1.45227,3.49660,2.94126,-1.57102,3.79916,1.92058,1.92058,57.78147,12.77350,57.78146928,12.77349834,A,131130.30,"[-0.20000,-0.00000,-0.00000]","[-0.10000,-0.00000,-0.00000]",4.03040,0.00000,0.00000,0.00000,0.00000,0.00000
17:45:45.028614,3.00450,0.00692,1.36473,1.36473,"[5.00000,0.00000,0.00000]","[1.30000,0.00000,0.00000]",-0.08188,0.03512,0.11304,0.00000,0.00000,-0.02862,0.00421,-0.01665,-0.06911,0.91354,2.99866,0.00244,1.38800,1.94404,1.96447,-1.50054,3.61365,2.94126,-1.57102,3.79916,1.92058,1.92058,57.78147,12.77350,57.78147033,12.77349752,A,131130.30,"[-0.20000,-0.00000,-0.00000]","[-0.10000,-0.00000,-0.00000]",4.15634,0.00000,0.00000,0.00000,0.00000,0.00000
17:45:45.037813,3.01370,0.00572,1.36473,1.36473,"[5.00000,0.00000,0.00000]","[1.30000,0.00000,0.00000]",-0.08132,0.03524,0.11426,0.00000,0.00000,-0.01122,0.00131,0.01623,-0.07546,0.92409,3.00768,0.02198,1.38335,1.93771,1.95820,-1.50772,3.63172,2.94126,-1.57102,3.79916,1.92058,1.92058,57.78147,12.77350,57.78147049,12.77349740,A,131130.30,"[-0.20000,-0.00000,-0.00000]","[-0.10000,-0.00000,-0.00000]",4.17049,0.00000,0.00000,0.00000,0.00000,0.00000
17:45:45.048179,3.02406,0.00569,1.36473,1.36473,"[5.00000,0.00000,0.00000]","[1.30000,0.00000,0.00000]",-0.08098,0.03524,0.11441,0.00000,0.00000,0.00345,-0.00953,0.08406,-0.10266,0.97081,3.01785,0.00000,1.37962,1.93237,1.95286,-1.51506,3.65033,2.94126,-1.57102,3.79916,1.92058,1.92058,57.78147,12.77350,57.78147066,12.77349728,A,131130.30,"[-0.20000,-0.00000,-0.00000]","[-0.10000,-0.00000,-0.00000]",4.18462,0.00000,0.00000,0.00000,0.00000,0.00000
17:45:45.058835,3.03472,0.00594,1.36473,1.36473,"[5.00000,0.00000,0.00000]","[1.30000,0.00000,0.00000]",-0.08075,0.03524,0.12083,0.00000,0.00000,0.02086,-0.01152,0.17739,-0.11804,0.98143,3.02848,0.00733,1.37665,1.92783,1.94832,-1.52198,3.66803,2.94126,-1.57102,3.79916,1.92058,1.92058,57.78147,12.77350,57.78147082,12.77349716,A,131130.30,"[-0.20000,-0.00000,-0.00000]","[-0.10000,-0.00000,-0.00000]",4.19877,0.00000,0.00000,0.00000,0.00000,0.00000
17:45:45.124119,3.09950,0.06032,1.36473,1.50000,"[5.00000,0.00000,0.00000]","[1.30000,0.00000,0.00000]",-0.08078,0.03524,0.12037,0.00000,0.00000,0.00833,-0.01320,0.10858,-0.13072,0.96356,3.03887,0.00244,1.37426,1.92396,1.94446,-1.52837,3.68452,3.05556,-1.64018,3.98448,1.92799,1.92799,57.78147,12.77350,57.78147097,12.77349705,A,131130.40,"[-0.20000,-0.00000,-0.00000]","[-0.10000,-0.00000,-0.00000]",4.21291,0.00000,0.00000,0.00000,0.00000,0.00000
17:45:45.147373,3.12326,0.00913,1.96297,1.96297,"[5.00000,0.00000,0.00000]","[1.30000,0.00000,0.00000]",-0.07427,0.03521,0.09471,0.00000,0.00000,-0.01045,-0.02786,0.03495,-0.08278,0.89133,3.11654,0.00244,1.49200,1.92421,1.94469,-1.57015,3.79182,3.05556,-1.64018,3.98448,1.92799,1.92799,57.78147,12.77350,57.78147193,12.77349635,A,131130.40,"[-0.20000,-0.00000,-0.00000]","[-0.10000,-0.00000,-0.00000]",4.32529,0.00000,0.00000,0.00000,0.00000,0.00000
17:45:45.155410,3.13130,0.00557,1.96297,1.96297,"[5.00000,0.00000,0.00000]","[1.30000,0.00000,0.00000]",-0.07419,0.03478,0.08585,0.00000,0.00000,-0.00022,-0.03595,-0.00653,-0.07296,0.90371,3.12524,0.01221,1.58620,1.92199,1.94222,-1.57686,3.80963,3.05556,-1.64018,3.98448,1.92799,1.92799,57.78147,12.77350,57.78147209,12.77349623,A,131130.40,"[-0.20000,-0.00000,-0.00000]","[-0.10000,-0.00000,-0.00000]",4.34803,0.00000,0.00000,0.00000,0.00000,0.00000
17:45:45.165986,3.14187,0.00575,1.96297,1.96297,"[5.00000,0.00000,0.00000]","[1.30000,0.00000,0.00000]",-0.07346,0.03374,0.07700,0.00000,0.00000,0.00894,-0.04512,0.19252,-0.03733,0.87626,3.13586,0.00244,1.66155,1.92029,1.93992,-1.58472,3.83042,3.05556,-1.64018,3.98448,1.92799,1.92799,57.78147,12.77350,57.78147228,12.77349610,A,131130.40,"[-0.20000,-0.00000,-0.00000]","[-0.10000,-0.00000,-0.00000]",4.36838,0.00000,0.00000,0.00000,0.00000,0.00000
17:45:45.176068,3.15196,0.00543,1.96297,1.96297,"[5.00000,0.00000,0.00000]","[1.30000,0.00000,0.00000]",-0.07398,0.03227,0.06722,0.00000,0.00000,0.00604,-0.05077,0.04599,-0.10699,0.90963,3.14600,0.00000,1.72183,1.91899,1.93775,-1.59238,3.85077,3.05556,-1.64018,3.98448,1.92799,1.92799,57.78147,12.77350,57.78147246,12.77349597,A,131130.40,"[-0.20000,-0.00000,-0.00000]","[-0.10000,-0.00000,-0.00000]",4.38873,0.00000,0.00000,0.00000,0.00000,0.00000
17:45:45.241656,3.21753,0.06060,1.96297,1.50000,"[5.00000,0.00000,0.00000]","[1.30000,0.00000,0.00000]",-0.07290,0.03045,0.05714,0.00000,0.00000,0.00665,-0.05519,0.34398,-0.00720,0.97716,3.15677,0.00488,1.77006,1.91805,1.93576,-1.59995,3.87092,3.17370,-1.68958,4.18834,1.80855,1.80855,57.78148,12.77349,57.78147265,12.77349585,A,131130.50,"[-0.20000,-0.00000,-0.00000]","[-0.10000,-0.00000,-0.00000]",4.40907,0.00000,0.00000,0.00000,0.00000,0.00000
17:45:45.261737,3.23762,0.00823,1.96297,1.96297,"[5.00000,0.00000,0.00000]","[1.30000,0.00000,0.00000]",-0.06974,0.02573,0.06249,0.00000,0.00000,0.00375,-0.04191,0.15567,-0.12956,0.96606,3.23090,0.00488,1.80864,1.90225,1.91721,-1.64768,4.00000,3.17370,-1.68958,4.18834,1.80855,1.80855,57.78148,12.77349,57.78147381,12.77349504,A,131130.50,"[-0.20000,-0.00000,-0.00000]","[-0.10000,-0.00000,-0.00000]",4.51773,0.00000,0.00000,0.00000,0.00000,0.00000
17:45:45.269541,3.24542,0.00574,1.96297,1.96297,"[5.00000,0.00000,0.00000]","[1.30000,0.00000,0.00000]",-0.07023,0.02573,0.05562,0.00000,0.00000,0.02009,-0.03901,0.08808,-0.09955,0.98332,3.23940,0.00244,1.83951,1.88616,1.90112,-1.65332,4.01923,3.17370,-1.68958,4.18834,1.80855,1.80855,57.78148,12.77349,57.78147398,12.77349494,A,131130.50,"[-0.20000,-0.00000,-0.00000]","[-0.10000,-0.00000,-0.00000]",4.53786,0.00000,0.00000,0.00000,0.00000,0.00000
17:45:45.279598,3.25549,0.00557,1.96297,1.96297,"[5.00000,0.00000,0.00000]","[1.30000,0.00000,0.00000]",-0.06996,0.02573,0.04538,0.00000,0.00000,0.01536,-0.03977,0.26169,-0.04782,0.97899,3.24945,0.00244,1.86420,1.87256,1.88753,-1.65982,4.04136,3.17370,-1.68958,4.18834,1.80855,1.80855,57.78148,12.77349,57.78147418,12.77349484,A,131130.50,"[-0.20000,-0.00000,-0.00000]","[-0.10000,-0.00000,-0.00000]",4.55787,0.00000,0.00000,0.00000,0.00000,0.00000
17:45:45.290148,3.26604,0.00573,1.96297,1.96297,"[5.00000,0.00000,0.00000]","[1.30000,0.00000,0.00000]",-0.07144,0.02573,0.05042,0.00000,0.00000,-0.00037,-0.04435,0.17263,-0.16458,0.95520,3.26003,0.00244,1.88395,1.86102,1.87598,-1.66604,4.06312,3.17370,-1.68958,4.18834,1.80855,1.80855,57.78148,12.77349,57.78147437,12.77349473,A,131130.50,"[-0.20000,-0.00000,-0.00000]","[-0.10000,-0.00000,-0.00000]",4.57821,0.00000,0.00000,0.00000,0.00000,0.00000
17:45:45.351133,3.32701,0.05648,1.96297,1.50000,"[5.00000,0.00000,0.00000]","[1.30000,0.00000,0.00000]",-0.07051,0.02573,0.03149,0.00000,0.00000,-0.01076,-0.03717,0.22417,0.00201,0.98100,3.27030,0.00488,1.89975,1.85121,1.86617,-1.67180,4.08395,3.28703,-1.76863,4.39220,1.94069,1.94069,57.78148,12.77349,57.78147456,12.77349463,A,131130.60,"[-0.20000,-0.00000,-0.00000]","[-0.10000,-0.00000,-0.00000]",4.59821,0.00000,0.00000,0.00000,0.00000,0.00000
17:45:45.371655,3.34754,0.00913,1.96297,1.96297,"[5.00000,0.00000,0.00000]","[1.30000,0.00000,0.00000]",-0.06692,0.02573,0.04264,0.00000,0.00000,-0.01030,-0.03076,0.00860,0.00268,1.02297,3.34140,0.00977,1.91240,1.86490,1.87986,-1.71307,4.21906,3.28703,-1.76863,4.39220,1.94069,1.94069,57.78148,12.77349,57.78147578,12.77349394,A,131130.60,"[-0.20000,-0.00000,-0.00000]","[-0.10000,-0.00000,-0.00000]",4.70000,0.00000,0.00000,0.00000,0.00000,0.00000
17:45:45.379035,3.35492,0.00595,1.96297,1.96297,"[5.00000,0.00000,0.00000]","[1.30000,0.00000,0.00000]",-0.06504,0.02573,0.04340,0.00000,0.00000,-0.00969,-0.02480,-0.02836,0.06887,0.98088,3.34873,0.00488,1.92251,1.87421,1.88917,-1.71874,4.23677,3.28703,-1.76863,4.39220,1.94069,1.94069,57.78148,12.77349,57.78147594,12.77349384,A,131130.60,"[-0.20000,-0.00000,-0.00000]","[-0.10000,-0.00000,-0.00000]",4.72069,0.00000,0.00000,0.00000,0.00000,0.00000
17:45:45.388794,3.36468,0.00532,1.96297,1.96297,"[5.00000,0.00000,0.00000]","[1.30000,0.00000,0.00000]",-0.06563,0.02573,0.06783,0.00000,0.00000,0.00253,-0.02511,0.26218,-0.11212,0.96002,3.35890,0.00000,1.93060,1.88224,1.89720,-1.72587,4.25862,3.28703,-1.76863,4.39220,1.94069,1.94069,57.78148,12.77349,57.78147613,12.77349372,A,131130.60,"[-0.20000,-0.00000,-0.00000]","[-0.10000,-0.00000,-0.00000]",4.74103,0.00000,0.00000,0.00000,0.00000,0.00000
17:45:45.399274,3.37517,0.00554,1.96297,1.96297,"[5.00000,0.00000,0.00000]","[1.30000,0.00000,0.00000]",-0.06548,0.02573,0.05378,0.00000,0.00000,-0.01015,-0.01778,0.19929,-0.05337,0.92061,3.36913,0.00733,1.93707,1.88907,1.90403,-1.73299,4.28001,3.28703,-1.76863,4.39220,1.94069,1.94069,57.78148,12.77349,57.78147632,12.77349360,A,131130.60,"[-0.20000,-0.00000,-0.00000]","[-0.10000,-0.00000,-0.00000]",4.76110,0.00000,0.00000,0.00000,0.00000,0.00000
17:45:45.409866,3.38575,0.00573,2.62107,2.62107,"[5.00000,0.00000,0.00000]","[1.30000,0.00000,0.00000]",-0.06541,0.02573,0.05455,0.00000,0.00000,-0.01503,-0.01778,-0.00823,-0.05893,0.98497,3.37974,0.02198,2.07387,1.89489,1.90985,-1.73993,4.30053,3.28703,-1.76863,4.39220,1.94069,1.94069,57.78148,12.77349,57.78147651,12.77349348,A,131130.60,"[-0.20000,-0.00000,-0.00000]","[-0.10000,-0.00000,-0.00000]",4.78144,0.00000,0.00000,0.00000,0.00000,0.00000
17:45:45.474301,3.45017,0.05975,2.62107,1.50000,"[5.00000,0.00000,0.00000]","[1.30000,0.00000,0.00000]",-0.06555,0.02573,0.05088,0.00000,0.00000,0.00100,-0.01793,0.05045,-0.07064,1.01565,3.38989,0.00000,2.18331,1.89984,1.91481,-1.74686,4.32070,3.40672,-1.83779,4.61459,1.87232,1.87232,57.78148,12.77349,57.78147669,12.77349337,A,131130.70,"[-0.20000,-0.00000,-0.00000]","[-0.10000,-0.00000,-0.00000]",4.80859,0.00000,0.00000,0.00000,0.00000,0.00000
17:45:45.496886,3.47278,0.00944,2.62107,2.62107,"[5.00000,0.00000,0.00000]","[1.30000,0.00000,0.00000]",-0.06257,0.02573,0.05012,0.00000,0.00000,0.00681,-0.01671,0.18983,-0.07210,0.93379,3.46594,0.00000,2.27087,1.89655,1.91152,-1.80336,4.48040,3.40672,-1.83779,4.61459,1.87232,1.87232,57.78148,12.77349,57.78147813,12.77349241,A,131130.70,"[-0.20000,-0.00000,-0.00000]","[-0.10000,-0.00000,-0.00000]",4.91793,0.00000,0.00000,0.00000,0.00000,0.00000
17:45:45.503807,3.47970,0.00548,2.62107,2.62107,"[5.00000,0.00000,0.00000]","[1.30000,0.00000,0.00000]",-0.06275,0.02573,0.04386,0.00000,0.00000,0.00222,-0.02022,0.19453,-0.05307,0.94416,3.47370,0.00733,2.34091,1.89089,1.90585,-1.80866,4.49720,3.40672,-1.83779,4.61459,1.87232,1.87232,57.78148,12.77349,57.78147828,12.77349232,A,131130.70,"[-0.20000,-0.00000,-0.00000]","[-0.10000,-0.00000,-0.00000]",4.94640,0.00000,0.00000,0.00000,0.00000,0.00000
17:45:45.514503,3.49039,0.00578,2.62107,2.62107,"[5.00000,0.00000,0.00000]","[1.30000,0.00000,0.00000]",-0.06081,0.02573,0.05256,0.00000,0.00000,0.00314,-0.01350,0.03934,0.06332,0.89951,3.48434,0.02198,2.39694,1.88624,1.90121,-1.81643,4.52121,3.40672,-1.83779,4.61459,1.87232,1.87232,57.78148,12.77349,57.78147849,12.77349219,A,131130.70,"[-0.20000,-0.00000,-0.00000]","[-0.10000,-0.00000,-0.00000]",4.97356,0.00000,0.00000,0.00000,0.00000,0.00000
17:45:45.524583,3.50047,0.00546,2.62107,2.62107,"[5.00000,0.00000,0.00000]","[1.30000,0.00000,0.00000]",-0.05961,0.02573,0.06447,0.00000,0.00000,-0.00495,-0.01304,0.21326,0.01470,0.94160,3.49469,0.02442,2.44177,1.88229,1.89725,-1.82365,4.54381,3.40672,-1.83779,4.61459,1.87232,1.87232,57.78148,12.77349,57.78147870,12.77349207,A,131130.70,"[-0.20000,-0.00000,-0.00000]","[-0.10000,-0.00000,-0.00000]",5.00073,0.00000,0.00000,0.00000,0.00000,0.00000
17:45:45.595164,3.57104,0.06532,2.62107,1.50000,"[5.00000,0.00000,0.00000]","[1.30000,0.00000,0.00000]",-0.06004,0.02573,0.07700,0.00000,0.00000,-0.00786,-0.01228,0.13652,-0.08967,0.88755,3.50524,0.00244,2.47763,1.87896,1.89392,-1.83089,4.56665,3.53322,-2.00576,5.11497,1.89466,1.89466,57.78148,12.77349,57.78147890,12.77349195,A,131130.90,"[-0.20000,-0.00000,-0.00000]","[-0.10000,-0.00000,-0.00000]",5.02868,0.00000,0.00000,0.00000,0.00000,0.00000
17:45:45.615370,3.59125,0.00717,2.62107,2.62107,"[5.00000,0.00000,0.00000]","[1.30000,0.00000,0.00000]",-0.05449,0.02573,0.07944,0.00000,0.00000,-0.01671,-0.02771,0.06606,-0.06917,1.02181,3.58515,0.00244,2.50632,1.88274,1.89770,-1.89783,4.76787,3.53322,-2.00576,5.11497,1.89466,1.89466,57.78148,12.77349,57.78148071,12.77349082,A,131130.90,"[-0.20000,-0.00000,-0.00000]","[-0.10000,-0.00000,-0.00000]",5.14621,0.00000,0.00000,0.00000,0.00000,0.00000
17:45:45.624059,3.59995,0.00546,2.62107,2.62107,"[5.00000,0.00000,0.00000]","[1.30000,0.00000,0.00000]",-0.05433,0.02573,0.08249,0.00000,0.00000,-0.01946,-0.02465,0.06472,-0.05106,0.98057,3.59397,0.00977,2.52927,1.88261,1.89758,-1.90854,4.80088,3.53322,-2.00576,5.11497,1.89466,1.89466,57.78148,12.77349,57.78148101,12.77349064,A,131130.90,"[-0.20000,-0.00000,-0.00000]","[-0.10000,-0.00000,-0.00000]",5.17338,0.00000,0.00000,0.00000,0.00000,0.00000
17:45:45.634989,3.61088,0.00575,2.62107,2.62107,"[5.00000,0.00000,0.00000]","[1.30000,0.00000,0.00000]",-0.05343,0.02573,0.08387,0.00000,0.00000,-0.02191,-0.00739,0.05026,-0.01488,1.00912,3.60479,0.00000,2.54763,1.88260,1.89757,-1.92023,4.83674,3.53322,-2.00576,5.11497,1.89466,1.89466,57.78148,12.77349,57.78148133,12.77349044,A,131130.90,"[-0.20000,-0.00000,-0.00000]","[-0.10000,-0.00000,-0.00000]",5.20118,0.00000,0.00000,0.00000,0.00000,0.00000
17:45:45.645600,3.62146,0.00560,2.62107,2.62107,"[5.00000,0.00000,0.00000]","[1.30000,0.00000,0.00000]",-0.05262,0.02578,0.09410,0.00000,0.00000,0.00757,0.00009,-0.06960,-0.02397,0.96667,3.61536,0.00000,2.56232,1.88257,1.89757,-1.93110,4.87012,3.53322,-2.00576,5.11497,1.89466,1.89466,57.78148,12.77349,57.78148163,12.77349026,A,131130.90,"[-0.20000,-0.00000,-0.00000]","[-0.10000,-0.00000,-0.00000]",5.22833,0.00000,0.00000,0.00000,0.00000,0.00000
17:45:45.655817,3.63171,0.00595,2.62107,2.62107,"[5.00000,0.00000,0.00000]","[1.30000,0.00000,0.00000]",-0.05104,0.02598,0.09013,0.00000,0.00000,0.01872,0.00299,0.13804,0.03068,0.96221,3.62567,0.00977,2.57407,1.88254,1.89765,-1.94153,4.90209,3.53322,-2.00576,5.11497,1.89466,1.89466,57.78148,12.77349,57.78148192,12.77349008,A,131130.90,"[-0.20000,-0.00000,-0.00000]","[-0.10000,-0.00000,-0.00000]",5.25505,0.00000,0.00000,0.00000,0.00000,0.00000
17:45:45.717593,3.69346,0.05730,2.62107,1.50000,"[5.00000,0.00000,0.00000]","[1.30000,0.00000,0.00000]",-0.05124,0.02638,0.10036,0.00000,0.00000,0.00558,-0.00663,0.13591,-0.08778,0.95886,3.63587,0.00000,2.58347,1.88246,1.89780,-1.95116,4.93168,3.65255,-2.09469,5.37442,1.90099,1.90099,57.78149,12.77349,57.78148218,12.77348992,A,131131.00,"[-0.20000,-0.00000,-0.00000]","[-0.10000,-0.00000,-0.00000]",5.28221,0.00000,0.00000,0.00000,0.00000,0.00000
17:45:45.737021,3.71291,0.00821,2.56397,2.56397,"[5.00000,0.00000,0.00000]","[1.30000,0.00000,0.00000]",-0.04740,0.03108,0.05806,0.00000,0.00000,-0.01137,-0.01610,0.07790,-0.02653,1.02822,3.70708,0.00000,2.57957,1.88603,1.90410,-2.01310,5.11528,3.65255,-2.09469,5.37442,1.90099,1.90099,57.78149,12.77349,57.78148384,12.77348888,A,131131.00,"[-0.20000,-0.00000,-0.00000]","[-0.10000,-0.00000,-0.00000]",5.38499,0.00000,0.00000,0.00000,0.00000,0.00000
17:45:45.744468,3.72036,0.00548,2.56397,2.56397,"[5.00000,0.00000,0.00000]","[1.30000,0.00000,0.00000]",-0.04729,0.03108,0.06127,0.00000,0.00000,-0.00648,-0.01656,0.11145,-0.02843,0.99162,3.71458,0.00244,2.57645,1.88590,1.90397,-2.02175,5.14144,3.65255,-2.09469,5.37442,1.90099,1.90099,57.78149,12.77349,57.78148407,12.77348873,A,131131.00,"[-0.20000,-0.00000,-0.00000]","[-0.10000,-0.00000,-0.00000]",5.41104,0.00000,0.00000,0.00000,0.00000,0.00000
17:45:45.755352,3.73124,0.00582,2.56397,2.56397,"[5.00000,0.00000,0.00000]","[1.30000,0.00000,0.00000]",-0.04613,0.03108,0.05256,0.00000,0.00000,0.00421,-0.01167,-0.05508,0.03691,1.08232,3.72518,0.00733,2.57395,1.88597,1.90405,-2.03247,5.17353,3.65255,-2.09469,5.37442,1.90099,1.90099,57.78149,12.77349,57.78148436,12.77348855,A,131131.00,"[-0.20000,-0.00000,-0.00000]","[-0.10000,-0.00000,-0.00000]",5.43799,0.00000,0.00000,0.00000,0.00000,0.00000
17:45:45.765637,3.74152,0.00568,2.56397,2.56397,"[5.00000,0.00000,0.00000]","[1.30000,0.00000,0.00000]",-0.04612,0.03108,0.05638,0.00000,0.00000,0.02131,-0.01167,0.22387,-0.04246,1.00473,3.73553,0.01221,2.57196,1.88601,1.90408,-2.04223,5.20277,3.65255,-2.09469,5.37442,1.90099,1.90099,57.78149,12.77349,57.78148462,12.77348838,A,131131.00,"[-0.20000,-0.00000,-0.00000]","[-0.10000,-0.00000,-0.00000]",5.46458,0.00000,0.00000,0.00000,0.00000,0.00000
17:45:45.775803,3.75169,0.00563,2.56397,2.56397,"[5.00000,0.00000,0.00000]","[1.30000,0.00000,0.00000]",-0.04656,0.03108,0.04935,0.00000,0.00000,0.01597,-0.01030,0.19014,-0.06069,0.92763,3.74559,0.00000,2.57036,1.88603,1.90411,-2.05149,5.23054,3.65255,-2.09469,5.37442,1.90099,1.90099,57.78149,12.77349,57.78148487,12.77348823,A,131131.00,"[-0.20000,-0.00000,-0.00000]","[-0.10000,-0.00000,-0.00000]",5.49072,0.00000,0.00000,0.00000,0.00000,0.00000
17:45:45.833509,3.80825,0.05179,2.56397,1.50000,"[5.00000,0.00000,0.00000]","[1.30000,0.00000,0.00000]",-0.04547,0.03108,0.04370,0.00000,0.00000,0.01337,-0.01564,0.12438,0.03447,0.86657,3.75618,0.00000,2.56908,1.88607,1.90414,-2.06044,5.25735,3.77290,-2.18361,5.65241,1.88040,1.88040,57.78149,12.77349,57.78148511,12.77348808,A,131131.10,"[-0.20000,-0.00000,-0.00000]","[-0.10000,-0.00000,-0.00000]",5.51729,0.00000,0.00000,0.00000,0.00000,0.00000
17:45:45.855569,3.83146,0.00747,2.56397,2.56397,"[5.00000,0.00000,0.00000]","[1.30000,0.00000,0.00000]",-0.04590,0.03108,-0.00303,0.00000,0.00000,-0.02954,-0.03504,-0.02013,-0.02129,1.07256,3.82535,0.00000,2.56806,1.88647,1.90455,-2.12028,5.43212,3.77290,-2.18361,5.65241,1.88040,1.88040,57.78149,12.77349,57.78148669,12.77348707,A,131131.10,"[-0.20000,-0.00000,-0.00000]","[-0.10000,-0.00000,-0.00000]",5.61774,0.00000,0.00000,0.00000,0.00000,0.00000
17:45:45.864024,3.83991,0.00553,2.56397,2.56397,"[5.00000,0.00000,0.00000]","[1.30000,0.00000,0.00000]",-0.04483,0.03108,-0.01341,0.00000,0.00000,-0.01793,-0.03213,-0.13017,0.07668,1.03987,3.83388,0.01465,2.56724,1.88323,1.90131,-2.12860,5.45801,3.77290,-2.18361,5.65241,1.88040,1.88040,57.78149,12.77349,57.78148692,12.77348693,A,131131.10,"[-0.20000,-0.00000,-0.00000]","[-0.10000,-0.00000,-0.00000]",5.64431,0.00000,0.00000,0.00000,0.00000,0.00000
17:45:45.874669,3.85056,0.00577,2.56397,2.56397,"[5.00000,0.00000,0.00000]","[1.30000,0.00000,0.00000]",-0.04633,0.03108,-0.01188,0.00000,0.00000,-0.00282,-0.03901,0.09254,-0.08912,0.94910,3.84449,0.00977,2.56658,1.88060,1.89868,-2.13815,5.48752,3.77290,-2.18361,5.65241,1.88040,1.88040,57.78149,12.77349,57.78148718,12.77348677,A,131131.10,"[-0.20000,-0.00000,-0.00000]","[-0.10000,-0.00000,-0.00000]",5.67089,0.00000,0.00000,0.00000,0.00000,0.00000
17:45:45.884754,3.86064,0.00546,2.56397,2.56397,"[5.00000,0.00000,0.00000]","[1.30000,0.00000,0.00000]",-0.04570,0.03108,-0.02089,0.00000,0.00000,0.00329,-0.03534,-0.00012,0.05100,0.98399,3.85487,0.02686,2.56606,1.87835,1.89643,-2.14696,5.51499,3.77290,-2.18361,5.65241,1.88040,1.88040,57.78149,12.77349,57.78148743,12.77348662,A,131131.10,"[-0.20000,-0.00000,-0.00000]","[-0.10000,-0.00000,-0.00000]",5.69746,0.00000,0.00000,0.00000,0.00000,0.00000
17:45:45.895290,3.87118,0.00559,2.56397,2.56397,"[5.00000,0.00000,0.00000]","[1.30000,0.00000,0.00000]",-0.04501,0.03108,-0.02655,0.00000,0.00000,0.01566,-0.04267,0.04910,0.05783,0.95971,3.86512,0.00733,2.56564,1.87645,1.89452,-2.15541,5.54147,3.77290,-2.18361,5.65241,1.88040,1.88040,57.78149,12.77349,57.78148767,12.77348648,A,131131.10,"[-0.20000,-0.00000,-0.00000]","[-0.10000,-0.00000,-0.00000]",5.72406,0.00000,0.00000,0.00000,0.00000,0.00000
17:45:45.961538,3.93741,0.06141,2.56397,1.50000,"[5.00000,0.00000,0.00000]","[1.30000,0.00000,0.00000]",-0.04745,0.03108,-0.03174,0.00000,0.00000,0.04086,-0.04771,-0.03526,-0.13316,0.92403,3.87577,0.00977,2.56531,1.87484,1.89291,-2.16350,5.56693,3.89249,-2.26266,5.93040,1.84783,1.84783,57.78149,12.77348,57.78148790,12.77348634,A,131131.20,"[-0.20000,-0.00000,-0.00000]","[-0.10000,-0.00000,-0.00000]",5.75063,0.00000,0.00000,0.00000,0.00000,0.00000
17:45:45.986968,3.96286,0.01051,3.01621,1.50000,"[5.00000,0.00000,0.00000]","[1.30000,0.00000,0.00000]",-0.05526,0.02980,-0.09053,0.00000,0.00000,0.02345,-0.04527,0.18666,-0.05990,0.98155,3.95592,0.01221,2.35225,1.87284,1.89017,-2.22933,5.76749,3.89249,-2.26266,5.93040,1.84783,1.84783,57.78149,12.77348,57.78148970,12.77348523,A,131131.20,"[-0.20000,-0.00000,-0.00000]","[-0.10000,-0.00000,-0.00000]",5.86511,0.00000,0.00000,0.00000,0.00000,0.00000
17:45:46.010006,3.98586,0.01014,3.01621,1.50000,"[5.00000,0.00000,0.00000]","[1.30000,0.00000,0.00000]",-0.05813,0.02941,-0.10871,0.00000,0.00000,0.02757,-0.04847,-0.08363,-0.04453,0.88493,3.97918,0.02198,2.18180,1.86758,1.88468,-2.24530,5.81887,3.89249,-2.26266,5.93040,1.84783,1.84783,57.78149,12.77348,57.78149016,12.77348496,A,131131.20,"[-0.20000,-0.00000,-0.00000]","[-0.10000,-0.00000,-0.00000]",5.90014,0.00000,0.00000,0.00000,0.00000,0.00000
17:45:46.095783,4.07166,0.07192,3.01621,1.50000,"[5.00000,0.00000,0.00000]","[1.30000,0.00000,0.00000]",-0.06112,0.02915,-0.11115,0.00000,0.00000,0.01017,-0.05458,0.03550,-0.04191,1.06109,4.00490,0.02442,2.04544,1.86321,1.88016,-2.26148,5.87164,4.03373,-2.47015,6.50490,1.91738,1.91738,57.78150,12.77348,57.78149064,12.77348469,A,131131.40,"[-0.20000,-0.00000,-0.00000]","[-0.10000,-0.00000,-0.00000]",5.93614,0.00000,0.00000,0.00000,0.00000,0.00000
17:45:46.120315,4.09621,0.01042,3.01621,1.50000,"[5.00000,0.00000,0.00000]","[1.30000,0.00000,0.00000]",-0.07416,0.02612,-0.12596,0.00000,0.00000,0.02895,-0.06573,-0.04319,-0.18794,0.95441,4.09035,0.04396,1.93635,1.87270,1.88789,-2.32080,6.05625,4.03373,-2.47015,6.50490,1.91738,1.91738,57.78150,12.77348,57.78149230,12.77348369,A,131131.40,"[-0.20000,-0.00000,-0.00000]","[-0.10000,-0.00000,-0.00000]",6.06516,0.00000,0.00000,0.00000,0.00000,0.00000
17:45:46.144090,4.11998,0.01115,3.01621,1.50000,"[5.00000,0.00000,0.00000]","[1.30000,0.00000,0.00000]",-0.07704,0.02143,-0.13543,0.00000,0.00000,0.01979,-0.07215,0.03617,-0.03556,1.00626,4.11308,0.06105,1.84908,1.87831,1.89077,-2.34026,6.11522,4.03373,-2.47015,6.50490,1.91738,1.91738,57.78150,12.77348,57.78149283,12.77348336,A,131131.40,"[-0.20000,-0.00000,-0.00000]","[-0.10000,-0.00000,-0.00000]",6.09969,0.00000,0.00000,0.00000,0.00000,0.00000
17:45:46.219852,4.19571,0.06019,3.37485,1.50000,"[5.00000,0.00000,0.00000]","[1.30000,0.00000,0.00000]",-0.08274,0.01441,-0.13253,0.00000,0.00000,0.00757,-0.09521,0.05167,-0.20899,1.06848,4.14032,0.03663,1.77926,1.88363,1.89201,-2.36025,6.17543,4.15753,-2.58872,6.80142,1.95118,1.95118,57.78150,12.77348,57.78149337,12.77348302,A,131131.50,"[-0.20000,-0.00000,-0.00000]","[-0.10000,-0.00000,-0.00000]",6.13969,0.00000,0.00000,0.00000,0.00000,0.00000
17:45:46.245567,4.22145,0.01116,3.37485,1.50000,"[5.00000,0.00000,0.00000]","[1.30000,0.00000,0.00000]",-0.09255,0.00376,-0.13482,0.00000,0.00000,0.03536,-0.11903,0.07930,-0.04081,0.86833,4.21537,0.05128,1.72341,1.89482,1.89701,-2.41061,6.32374,4.15753,-2.58872,6.80142,1.95118,1.95118,57.78150,12.77348,57.78149470,12.77348217,A,131131.50,"[-0.20000,-0.00000,-0.00000]","[-0.10000,-0.00000,-0.00000]",6.25180,0.00000,0.00000,0.00000,0.00000,0.00000
17:45:46.270109,4.24599,0.01176,3.37485,1.50000,"[5.00000,0.00000,0.00000]","[1.30000,0.00000,0.00000]",-0.09625,0.00376,-0.12932,0.00000,0.00000,0.01536,-0.09475,0.11462,-0.11200,0.99235,4.23909,0.05617,1.67873,1.90305,1.90524,-2.43102,6.38163,4.15753,-2.58872,6.80142,1.95118,1.95118,57.78150,12.77348,57.78149522,12.77348183,A,131131.50,"[-0.20000,-0.00000,-0.00000]","[-0.10000,-0.00000,-0.00000]",6.28769,0.00000,0.00000,0.00000,0.00000,0.00000
17:45:46.345872,4.32111,0.06320,3.37485,1.50000,"[5.00000,0.00000,0.00000]","[1.30000,0.00000,0.00000]",-0.09810,0.00376,-0.11329,0.00000,0.00000,0.00513,-0.06344,-0.04813,-0.02599,1.00992,4.26174,0.04396,1.64298,1.91004,1.91222,-2.44941,6.43285,4.27905,-2.69741,7.11648,1.90299,1.90299,57.78150,12.77348,57.78149569,12.77348152,A,131131.60,"[-0.20000,-0.00000,-0.00000]","[-0.10000,-0.00000,-0.00000]",6.32317,0.00000,0.00000,0.00000,0.00000,0.00000
17:45:46.371847,4.34774,0.01096,3.37485,1.50000,"[5.00000,0.00000,0.00000]","[1.30000,0.00000,0.00000]",-0.10790,0.00396,-0.11634,0.00000,0.00000,0.04254,-0.05733,0.05533,-0.11883,1.01815,4.34165,0.04151,1.61439,1.90899,1.91129,-2.50252,6.58159,4.27905,-2.69741,7.11648,1.90299,1.90299,57.78150,12.77348,57.78149702,12.77348062,A,131131.60,"[-0.20000,-0.00000,-0.00000]","[-0.10000,-0.00000,-0.00000]",6.44141,0.00000,0.00000,0.00000,0.00000,0.00000
17:45:46.394778,4.37066,0.01038,3.37485,1.50000,"[5.00000,0.00000,0.00000]","[1.30000,0.00000,0.00000]",-0.11221,0.00498,-0.11512,0.00000,0.00000,0.02544,-0.05611,0.05972,-0.19947,1.00174,4.36456,0.04396,1.59151,1.90775,1.91065,-2.52295,6.63850,4.27905,-2.69741,7.11648,1.90299,1.90299,57.78150,12.77348,57.78149753,12.77348028,A,131131.60,"[-0.20000,-0.00000,-0.00000]","[-0.10000,-0.00000,-0.00000]",6.47663,0.00000,0.00000,0.00000,0.00000,0.00000
17:45:46.467435,4.44331,0.06017,2.89618,1.50000,"[5.00000,0.00000,0.00000]","[1.30000,0.00000,0.00000]",-0.11443,0.00617,-0.12535,0.00000,0.00000,0.00818,-0.05749,-0.10364,-0.06734,1.00668,4.38453,0.05372,1.85244,1.90661,1.91019,-2.54069,6.68791,4.40150,-2.80609,7.41300,1.92213,1.92213,57.78150,12.77348,57.78149798,12.77347998,A,131131.70,"[-0.20000,-0.00000,-0.00000]","[-0.10000,-0.00000,-0.00000]",6.51088,0.00000,0.00000,0.00000,0.00000,0.00000
17:45:46.490205,4.46609,0.00928,2.89618,2.89618,"[5.00000,0.00000,0.00000]","[1.30000,0.00000,0.00000]",-0.12057,0.01557,-0.07984,0.00000,0.00000,0.03063,-0.03809,-0.01921,-0.08290,0.90554,4.46000,0.04884,2.06119,1.90820,1.91725,-2.59692,6.84583,4.40150,-2.80609,7.41300,1.92213,1.92213,57.78150,12.77348,57.78149940,12.77347903,A,131131.70,"[-0.20000,-0.00000,-0.00000]","[-0.10000,-0.00000,-0.00000]",6.62135,0.00000,0.00000,0.00000,0.00000,0.00000
17:45:46.496837,4.47273,0.00543,2.89618,2.89618,"[5.00000,0.00000,0.00000]","[1.30000,0.00000,0.00000]",-0.12240,0.01715,-0.06961,0.00000,0.00000,0.02177,-0.03672,0.06576,-0.15714,0.89798,4.46698,0.05617,2.22819,1.90891,1.91889,-2.61081,6.88372,4.40150,-2.80609,7.41300,1.92213,1.92213,57.78150,12.77348,57.78149974,12.77347879,A,131131.70,"[-0.20000,-0.00000,-0.00000]","[-0.10000,-0.00000,-0.00000]",6.65167,0.00000,0.00000,0.00000,0.00000,0.00000
17:45:46.507277,4.48316,0.00556,2.89618,2.89618,"[5.00000,0.00000,0.00000]","[1.30000,0.00000,0.00000]",-0.12235,0.01919,-0.08244,0.00000,0.00000,-0.00419,-0.02862,0.05868,-0.02568,0.98588,4.47710,0.06838,2.36179,1.90946,1.92062,-2.62663,6.92685,4.40150,-2.80609,7.41300,1.92213,1.92213,57.78150,12.77348,57.78150013,12.77347853,A,131131.70,"[-0.20000,-0.00000,-0.00000]","[-0.10000,-0.00000,-0.00000]",6.68142,0.00000,0.00000,0.00000,0.00000,0.00000
17:45:46.517819,4.49370,0.00570,2.89618,2.89618,"[5.00000,0.00000,0.00000]","[1.30000,0.00000,0.00000]",-0.12210,0.02097,-0.06259,0.00000,0.00000,-0.00511,-0.02144,-0.07924,-0.02263,0.99210,4.48771,0.08547,2.46867,1.90982,1.92201,-2.64217,6.96918,4.40150,-2.80609,7.41300,1.92213,1.92213,57.78150,12.77348,57.78150051,12.77347826,A,131131.70,"[-0.20000,-0.00000,-0.00000]","[-0.10000,-0.00000,-0.00000]",6.71144,0.00000,0.00000,0.00000,0.00000,0.00000
17:45:46.596878,4.57275,0.07435,2.89618,1.50000,"[5.00000,0.00000,0.00000]","[1.30000,0.00000,0.00000]",-0.12133,0.02244,-0.05968,0.00000,0.00000,-0.00602,-0.01427,0.04032,0.00909,1.03743,4.49789,0.06593,2.55417,1.91003,1.92308,-2.65717,7.00992,4.52563,-3.01358,8.00603,1.90736,1.90736,57.78151,12.77347,57.78150088,12.77347801,A,131131.90,"[-0.20000,-0.00000,-0.00000]","[-0.10000,-0.00000,-0.00000]",6.74145,0.00000,0.00000,0.00000,0.00000,0.00000
17:45:46.618054,4.59394,0.00896,2.89618,2.89618,"[5.00000,0.00000,0.00000]","[1.30000,0.00000,0.00000]",-0.12612,0.04183,-0.04961,0.00000,0.00000,0.01307,0.01444,-0.01141,-0.10443,1.07897,4.58782,0.05617,2.62257,1.90971,1.93404,-2.74865,7.26010,4.52563,-3.01358,8.00603,1.90736,1.90736,57.78151,12.77347,57.78150312,12.77347647,A,131131.90,"[-0.20000,-0.00000,-0.00000]","[-0.10000,-0.00000,-0.00000]",6.87129,0.00000,0.00000,0.00000,0.00000,0.00000
17:45:46.624857,4.60075,0.00538,2.89618,2.89618,"[5.00000,0.00000,0.00000]","[1.30000,0.00000,0.00000]",-0.12412,0.04381,-0.06610,0.00000,0.00000,0.00009,0.01948,-0.13932,0.09705,1.05646,4.59498,0.09035,2.67730,1.90597,1.93145,-2.76662,7.30982,4.52563,-3.01358,8.00603,1.90736,1.90736,57.78151,12.77347,57.78150357,12.77347617,A,131131.90,"[-0.20000,-0.00000,-0.00000]","[-0.10000,-0.00000,-0.00000]",6.90133,0.00000,0.00000,0.00000,0.00000,0.00000
17:45:46.635429,4.61132,0.00568,2.89618,2.89618,"[5.00000,0.00000,0.00000]","[1.30000,0.00000,0.00000]",-0.12516,0.04616,-0.04961,0.00000,0.00000,-0.01641,0.01429,-0.01196,-0.10388,0.99900,4.60516,0.07814,2.72107,1.90288,1.92973,-2.78652,7.36466,4.52563,-3.01358,8.00603,1.90736,1.90736,57.78151,12.77347,57.78150407,12.77347583,A,131131.90,"[-0.20000,-0.00000,-0.00000]","[-0.10000,-0.00000,-0.00000]",6.93094,0.00000,0.00000,0.00000,0.00000,0.00000
17:45:46.646081,4.62197,0.00593,3.12424,3.12424,"[5.00000,0.00000,0.00000]","[1.30000,0.00000,0.00000]",-0.12498,0.04834,-0.06014,0.00000,0.00000,-0.01351,0.03170,-0.07942,-0.00793,1.00528,4.61575,0.07814,2.80171,1.90013,1.92825,-2.80564,7.41742,4.52563,-3.01358,8.00603,1.90736,1.90736,57.78151,12.77347,57.78150454,12.77347551,A,131131.90,"[-0.20000,-0.00000,-0.00000]","[-0.10000,-0.00000,-0.00000]",6.96096,0.00000,0.00000,0.00000,0.00000,0.00000
17:45:46.704116,4.67999,0.05356,3.12424,1.50000,"[5.00000,0.00000,0.00000]","[1.30000,0.00000,0.00000]",-0.12367,0.05007,-0.05846,0.00000,0.00000,-0.00556,0.04041,-0.08839,0.06667,0.94459,4.62650,0.06105,2.86621,1.89772,1.92685,-2.82420,7.46872,4.64312,-3.11239,8.32109,1.87470,1.87470,57.78151,12.77347,57.78150500,12.77347519,A,131132.00,"[-0.20000,-0.00000,-0.00000]","[-0.10000,-0.00000,-0.00000]",6.99334,0.00000,0.00000,0.00000,0.00000,0.00000
17:45:46.726343,4.70223,0.01022,3.12424,1.50000,"[5.00000,0.00000,0.00000]","[1.30000,0.00000,0.00000]",-0.12856,0.05338,-0.05755,0.00000,0.00000,-0.00648,0.04315,-0.02111,-0.16647,1.08007,4.69615,0.06349,2.59297,1.89681,1.92787,-2.90302,7.68452,4.64312,-3.11239,8.32109,1.87470,1.87470,57.78151,12.77347,57.78150694,12.77347386,A,131132.00,"[-0.20000,-0.00000,-0.00000]","[-0.10000,-0.00000,-0.00000]",7.09167,0.00000,0.00000,0.00000,0.00000,0.00000
17:45:46.749372,4.72503,0.01018,3.12424,1.50000,"[5.00000,0.00000,0.00000]","[1.30000,0.00000,0.00000]",-0.13029,0.05338,-0.08442,0.00000,0.00000,-0.02007,0.01170,-0.07332,-0.09357,1.11886,4.71898,0.05372,2.37438,1.89097,1.92202,-2.93142,7.76442,4.64312,-3.11239,8.32109,1.87470,1.87470,57.78151,12.77347,57.78150766,12.77347339,A,131132.00,"[-0.20000,-0.00000,-0.00000]","[-0.10000,-0.00000,-0.00000]",7.12588,0.00000,0.00000,0.00000,0.00000,0.00000
17:45:46.826246,4.80179,0.06163,3.12424,1.50000,"[5.00000,0.00000,0.00000]","[1.30000,0.00000,0.00000]",-0.13114,0.05338,-0.07832,0.00000,0.00000,-0.02633,-0.00724,-0.11675,-0.02714,0.94025,4.74296,0.07082,2.19950,1.88598,1.91704,-2.95798,7.84005,4.76032,-3.20132,8.61761,1.86216,1.86216,57.78152,12.77347,57.78150834,12.77347294,A,131132.10,"[-0.20000,-0.00000,-0.00000]","[-0.10000,-0.00000,-0.00000]",7.16043,0.00000,0.00000,0.00000,0.00000,0.00000
17:45:46.852385,4.82827,0.01211,3.12424,1.50000,"[5.00000,0.00000,0.00000]","[1.30000,0.00000,0.00000]",-0.13797,0.05055,-0.07587,0.00000,0.00000,0.00436,-0.00098,-0.08522,-0.16568,1.04615,4.82242,0.05861,2.05960,1.88469,1.91410,-3.02478,8.03036,4.76032,-3.20132,8.61761,1.86216,1.86216,57.78152,12.77347,57.78151005,12.77347181,A,131132.10,"[-0.20000,-0.00000,-0.00000]","[-0.10000,-0.00000,-0.00000]",7.27440,0.00000,0.00000,0.00000,0.00000,0.00000
17:45:46.875862,4.85175,0.01091,3.12424,1.50000,"[5.00000,0.00000,0.00000]","[1.30000,0.00000,0.00000]",-0.13871,0.04843,-0.06136,0.00000,0.00000,-0.00495,-0.00022,-0.05722,-0.06069,1.00772,4.84567,0.10012,1.94768,1.87873,1.90690,-3.04773,8.09922,4.76032,-3.20132,8.61761,1.86216,1.86216,57.78152,12.77347,57.78151067,12.77347142,A,131132.10,"[-0.20000,-0.00000,-0.00000]","[-0.10000,-0.00000,-0.00000]",7.31138,0.00000,0.00000,0.00000,0.00000,0.00000
17:45:46.950794,4.92666,0.06235,3.18093,1.50000,"[5.00000,0.00000,0.00000]","[1.30000,0.00000,0.00000]",-0.13916,0.04797,-0.07312,0.00000,0.00000,-0.01748,0.00772,-0.13951,-0.02312,0.91311,4.86837,0.07570,1.85814,1.87350,1.90141,-3.06802,8.16123,4.88528,-3.30012,8.89559,1.91230,1.91230,57.78152,12.77347,57.78151123,12.77347108,A,131132.20,"[-0.20000,-0.00000,-0.00000]","[-0.10000,-0.00000,-0.00000]",7.34656,0.00000,0.00000,0.00000,0.00000,0.00000
17:45:46.976618,4.95250,0.01058,3.18093,1.50000,"[5.00000,0.00000,0.00000]","[1.30000,0.00000,0.00000]",-0.14554,0.04763,-0.07114,0.00000,0.00000,0.01307,-0.01549,-0.14128,-0.17068,1.01980,4.94655,0.08547,1.78652,1.88018,1.90789,-3.12322,8.32499,4.88528,-3.30012,8.89559,1.91230,1.91230,57.78152,12.77347,57.78151270,12.77347015,A,131132.20,"[-0.20000,-0.00000,-0.00000]","[-0.10000,-0.00000,-0.00000]",7.46292,0.00000,0.00000,0.00000,0.00000,0.00000
17:45:46.998365,4.97426,0.00933,3.18093,1.50000,"[5.00000,0.00000,0.00000]","[1.30000,0.00000,0.00000]",-0.14578,0.04752,-0.07389,0.00000,0.00000,0.02040,0.00009,-0.03715,-0.02050,0.91213,4.96817,0.06838,1.72921,1.88210,1.90974,-3.14320,8.38528,4.88528,-3.30012,8.89559,1.91230,1.91230,57.78152,12.77347,57.78151324,12.77346981,A,131132.20,"[-0.20000,-0.00000,-0.00000]","[-0.10000,-0.00000,-0.00000]",7.49741,0.00000,0.00000,0.00000,0.00000,0.00000
17:45:47.009613,4.98549,0.01006,3.18093,1.50000,"[5.00000,0.00000,0.00000]","[1.30000,0.00000,0.00000]",-0.14626,0.04752,-0.05846,0.00000,0.00000,0.00528,-0.00022,-0.02007,-0.09760,0.93653,4.97849,0.06349,1.68337,1.88299,1.91063,-3.15558,8.42366,4.88528,-3.30012,8.89559,1.91230,1.91230,57.78152,12.77347,57.78151359,12.77346960,A,131132.20,"[-0.20000,-0.00000,-0.00000]","[-0.10000,-0.00000,-0.00000]",7.51314,0.00000,0.00000,0.00000,0.00000,0.00000
17:45:47.095394,5.07083,0.07378,3.18093,1.50000,"[5.00000,0.00000,0.00000]","[1.30000,0.00000,0.00000]",-0.14742,0.04752,-0.05602,0.00000,0.00000,-0.02420,0.00635,-0.12108,-0.08747,0.88938,5.00335,0.05128,1.64670,1.88455,1.91219,-3.17463,8.48069,5.03123,-3.47797,9.45157,1.88040,1.88040,57.78152,12.77346,57.78151410,12.77346928,A,131132.40,"[-0.20000,-0.00000,-0.00000]","[-0.10000,-0.00000,-0.00000]",7.54553,0.00000,0.00000,0.00000,0.00000,0.00000
17:45:47.127194,5.10307,0.01883,3.18093,1.50000,"[5.00000,0.00000,0.00000]","[1.30000,0.00000,0.00000]",0.00000,0.04752,-0.06045,0.00000,0.00000,-0.01580,0.03185,-0.08693,-0.06143,0.99619,5.08883,0.06105,1.50000,1.89575,1.92340,-3.47797,9.45157,5.03123,-3.47797,9.45157,1.88040,1.88040,57.78152,12.77346,57.78151566,12.77346828,A,131132.40,"[-0.20000,-0.00000,-0.00000]","[-0.10000,-0.00000,-0.00000]",7.67627,0.00000,0.00000,0.00000,0.00000,0.00000
17:45:47.158482,5.13436,0.01809,3.18093,1.50000,"[5.00000,0.00000,0.00000]","[1.30000,0.00000,0.00000]",-0.00543,0.07480,-0.05739,0.18223,-0.02154,-0.00892,0.05140,-0.10370,-0.16903,0.86986,5.12324,0.05617,1.50000,1.88859,1.93214,-3.49362,9.49409,5.03123,-3.47797,9.45157,1.88040,1.88040,57.78152,12.77346,57.78152322,12.77346390,A,131132.40,"[-0.20000,-0.00000,-0.00000]","[-0.10000,-0.00000,-0.00000]",7.72429,-3.08250,7.08258,1.98129,0.58539,0.04915
17:45:47.196580,5.17246,0.02679,2.56883,2.56883,"[5.00000,0.00000,0.00000]","[1.30000,0.00000,0.00000]",-0.00947,0.07511,-0.07328,0.28037,-0.02270,0.02666,0.03781,-0.10096,-0.08827,1.01510,5.14890,0.01221,1.71377,1.88274,1.92647,-3.50459,9.52305,5.16587,-3.56690,9.71102,1.90099,1.90099,57.78153,12.77346,57.78152348,12.77346372,A,131132.50,"[-0.20000,-0.00000,-0.00000]","[-0.10000,-0.00000,-0.00000]",7.76836,-3.10009,7.12298,1.98129,0.58689,0.05482
17:45:47.218720,5.19461,0.00810,2.56883,2.56883,"[5.00000,0.00000,0.00000]","[1.30000,0.00000,0.00000]",-0.01369,0.08142,-0.07786,0.33381,-0.02222,0.01811,0.04025,-0.08607,-0.02672,1.07494,5.18791,0.01954,1.88478,1.88188,1.92930,-3.52865,9.58884,5.16587,-3.56690,9.71102,1.90099,1.90099,57.78153,12.77346,57.78152407,12.77346331,A,131132.50,"[-0.20000,-0.00000,-0.00000]","[-0.10000,-0.00000,-0.00000]",7.87322,-3.14193,7.21913,1.98129,0.59108,0.05200
17:45:47.227099,5.20299,0.00626,2.56883,2.56883,"[5.00000,0.00000,0.00000]","[1.30000,0.00000,0.00000]",-0.01612,0.08352,-0.05968,0.33381,-0.02222,0.02574,0.04819,0.00281,-0.07509,1.02157,5.19648,0.00000,2.02159,1.87822,1.92686,-3.53482,9.60632,5.16587,-3.56690,9.71102,1.90099,1.90099,57.78153,12.77346,57.78152423,12.77346321,A,131132.50,"[-0.20000,-0.00000,-0.00000]","[-0.10000,-0.00000,-0.00000]",7.89943,-3.15239,7.24316,1.98129,0.59240,0.05443
17:45:47.237679,5.21355,0.00642,2.56883,2.56883,"[5.00000,0.00000,0.00000]","[1.30000,0.00000,0.00000]",-0.01820,0.08657,-0.05235,0.23038,-0.02303,0.00742,0.06377,-0.05386,-0.04691,0.99997,5.20683,0.00488,2.13104,1.87511,1.92553,-3.54197,9.62645,5.16587,-3.56690,9.71102,1.90099,1.90099,57.78153,12.77346,57.78152441,12.77346309,A,131132.50,"[-0.20000,-0.00000,-0.00000]","[-0.10000,-0.00000,-0.00000]",7.92606,-3.16302,7.26758,1.98129,0.59388,0.05576
17:45:47.249619,5.22549,0.00792,2.56883,2.56883,"[5.00000,0.00000,0.00000]","[1.30000,0.00000,0.00000]",-0.02325,0.08986,-0.05403,0.27053,-0.02319,0.00543,0.07171,-0.01739,-0.20466,0.85851,5.21872,0.02198,2.21860,1.87254,1.92488,-3.55043,9.65017,5.16587,-3.56690,9.71102,1.90099,1.90099,57.78153,12.77346,57.78152462,12.77346294,A,131132.50,"[-0.20000,-0.00000,-0.00000]","[-0.10000,-0.00000,-0.00000]",7.95281,-3.17369,7.29210,1.98129,0.59558,0.05641
17:45:47.259459,5.23535,0.00737,2.56883,2.56883,"[5.00000,0.00000,0.00000]","[1.30000,0.00000,0.00000]",-0.02712,0.09317,-0.07037,0.37622,-0.02337,-0.00816,0.07981,-0.03806,-0.13652,0.87968,5.22866,0.02442,2.28864,1.86985,1.92413,-3.55712,9.66907,5.16587,-3.56690,9.71102,1.90099,1.90099,57.78153,12.77346,57.78152479,12.77346283,A,131132.50,"[-0.20000,-0.00000,-0.00000]","[-0.10000,-0.00000,-0.00000]",7.97943,-3.18432,7.31652,1.98129,0.59700,0.05717
17:45:47.268392,5.24428,0.00591,2.56883,2.56883,"[5.00000,0.00000,0.00000]","[1.30000,0.00000,0.00000]",-0.03071,0.09572,-0.06946,0.37622,-0.02337,-0.01381,0.08561,-0.04166,-0.12700,0.88889,5.23787,0.00733,2.34468,1.86728,1.92305,-3.56298,9.68572,5.16587,-3.56690,9.71102,1.90099,1.90099,57.78153,12.77346,57.78152494,12.77346273,A,131132.50,"[-0.20000,-0.00000,-0.00000]","[-0.10000,-0.00000,-0.00000]",8.00605,-3.19494,7.34093,1.98129,0.59827,0.05824
17:45:47.279303,5.25518,0.00642,2.56883,2.56883,"[5.00000,0.00000,0.00000]","[1.30000,0.00000,0.00000]",-0.03301,0.09877,-0.06457,0.38325,-0.02372,-0.01290,0.08821,-0.12298,-0.05490,0.95172,5.24845,0.00000,2.38951,1.86513,1.92269,-3.56977,9.70494,5.16587,-3.56690,9.71102,1.90099,1.90099,57.78153,12.77346,57.78152511,12.77346262,A,131132.50,"[-0.20000,-0.00000,-0.00000]","[-0.10000,-0.00000,-0.00000]",8.03268,-3.20557,7.36534,1.98129,0.59971,0.05861
17:45:47.289719,5.26560,0.00644,2.56883,2.56883,"[5.00000,0.00000,0.00000]","[1.30000,0.00000,0.00000]",-0.03445,0.10223,-0.05907,0.36485,-0.02376,-0.00068,0.08637,-0.08522,-0.00793,1.01321,5.25898,0.00000,2.42537,1.86304,1.92262,-3.57622,9.72319,5.16587,-3.56690,9.71102,1.90099,1.90099,57.78153,12.77346,57.78152528,12.77346251,A,131132.50,"[-0.20000,-0.00000,-0.00000]","[-0.10000,-0.00000,-0.00000]",8.05930,-3.21619,7.38975,1.98129,0.60108,0.05867
17:45:47.318570,5.29445,0.02487,2.56883,2.56883,"[5.00000,0.00000,0.00000]","[1.30000,0.00000,0.00000]",-0.03592,0.10605,-0.05358,0.34710,-0.02373,0.00192,0.08775,-0.00799,-0.01488,1.02401,5.26941,0.02442,2.45406,1.86105,1.92287,-3.58262,9.74130,5.28632,-3.64594,9.95195,1.88782,1.88782,57.78153,12.77346,57.78152544,12.77346240,A,131132.60,"[-0.20000,-0.00000,-0.00000]","[-0.10000,-0.00000,-0.00000]",8.08599,-3.22684,7.41422,1.98129,0.60244,0.05843
17:45:47.337768,5.31365,0.00677,2.56883,2.56883,"[5.00000,0.00000,0.00000]","[1.30000,0.00000,0.00000]",-0.04068,0.11759,-0.07282,0.48292,-0.02240,-0.04787,0.06087,-0.05862,-0.09028,1.02931,5.30672,0.00000,2.47702,1.86158,1.93017,-3.61418,9.82911,5.28632,-3.64594,9.95195,1.88782,1.88782,57.78153,12.77346,57.78152623,12.77346187,A,131132.60,"[-0.20000,-0.00000,-0.00000]","[-0.10000,-0.00000,-0.00000]",8.18177,-3.26507,7.50205,1.98129,0.60854,0.05112
17:45:47.347811,5.32370,0.00628,2.56883,2.56883,"[5.00000,0.00000,0.00000]","[1.30000,0.00000,0.00000]",-0.04278,0.12119,-0.05770,0.41713,-0.02299,-0.04237,0.07049,-0.10035,-0.04965,0.98893,5.31692,0.00000,2.49538,1.85670,1.92740,-3.62263,9.85352,5.28632,-3.64594,9.95195,1.88782,1.88782,57.78153,12.77346,57.78152645,12.77346173,A,131132.60,"[-0.20000,-0.00000,-0.00000]","[-0.10000,-0.00000,-0.00000]",8.20875,-3.27583,7.52678,1.98129,0.61054,0.05389
17:45:47.358564,5.33445,0.00663,2.56883,2.56883,"[5.00000,0.00000,0.00000]","[1.30000,0.00000,0.00000]",-0.04550,0.12560,-0.03449,0.31609,-0.02340,-0.04542,0.07981,0.01025,-0.09229,0.91457,5.32752,0.00000,2.51007,1.85227,1.92556,-3.63078,9.87718,5.28632,-3.64594,9.95195,1.88782,1.88782,57.78153,12.77346,57.78152666,12.77346159,A,131132.60,"[-0.20000,-0.00000,-0.00000]","[-0.10000,-0.00000,-0.00000]",8.23536,-3.28645,7.55119,1.98129,0.61251,0.05573
17:45:47.368243,5.34413,0.00609,2.56883,2.56883,"[5.00000,0.00000,0.00000]","[1.30000,0.00000,0.00000]",-0.04803,0.13007,-0.02990,0.31609,-0.02340,-0.03672,0.09004,-0.05478,-0.07546,0.86175,5.33768,0.00977,2.52182,1.84811,1.92403,-3.63827,9.89911,5.28632,-3.64594,9.95195,1.88782,1.88782,57.78153,12.77346,57.78152686,12.77346146,A,131132.60,"[-0.20000,-0.00000,-0.00000]","[-0.10000,-0.00000,-0.00000]",8.26156,-3.29691,7.57521,1.98129,0.61439,0.05726
17:45:47.378893,5.35478,0.00634,2.56883,2.56883,"[5.00000,0.00000,0.00000]","[1.30000,0.00000,0.00000]",-0.05296,0.13313,-0.02303,0.30243,-0.02415,-0.02252,0.10119,-0.15689,-0.21313,0.82405,5.34813,0.00000,2.53122,1.84446,1.92218,-3.64565,9.92071,5.28632,-3.64594,9.95195,1.88782,1.88782,57.78153,12.77346,57.78152705,12.77346134,A,131132.60,"[-0.20000,-0.00000,-0.00000]","[-0.10000,-0.00000,-0.00000]",8.28819,-3.30753,7.59962,1.98129,0.61624,0.05911
17:45:47.389021,5.36491,0.00607,2.56883,2.56883,"[5.00000,0.00000,0.00000]","[1.30000,0.00000,0.00000]",-0.05529,0.13664,-0.02746,0.33787,-0.02443,0.00635,0.10974,-0.18977,-0.07509,0.90847,5.35855,0.01709,2.53874,1.84116,1.92094,-3.65281,9.94178,5.28632,-3.64594,9.95195,1.88782,1.88782,57.78153,12.77346,57.78152724,12.77346122,A,131132.60,"[-0.20000,-0.00000,-0.00000]","[-0.10000,-0.00000,-0.00000]",8.31481,-3.31816,7.62404,1.98129,0.61808,0.06035
17:45:47.402452,5.37833,0.00895,2.56883,2.56883,"[5.00000,0.00000,0.00000]","[1.30000,0.00000,0.00000]",-0.05823,0.13964,-0.00501,0.24345,-0.02463,0.03552,0.11753,0.02605,-0.13841,0.95624,5.37076,0.00000,2.54476,1.83862,1.92017,-3.66112,9.96598,5.28632,-3.64594,9.95195,1.88782,1.88782,57.78153,12.77346,57.78152746,12.77346108,A,131132.60,"[-0.20000,-0.00000,-0.00000]","[-0.10000,-0.00000,-0.00000]",8.34184,-3.32894,7.64882,1.98129,0.62012,0.06113
17:45:47.409857,5.38574,0.00616,2.56883,2.56883,"[5.00000,0.00000,0.00000]","[1.30000,0.00000,0.00000]",-0.05954,0.14301,-0.00135,0.24345,-0.02463,0.03032,0.12333,0.06783,-0.04227,1.00912,5.37928,0.00000,2.54957,1.83502,1.91855,-3.66524,9.97867,5.28632,-3.64594,9.95195,1.88782,1.88782,57.78153,12.77346,57.78152757,12.77346101,A,131132.60,"[-0.20000,-0.00000,-0.00000]","[-0.10000,-0.00000,-0.00000]",8.36798,-3.33938,7.67279,1.98129,0.62141,0.06274
17:45:47.438276,5.41416,0.02436,2.56883,2.56883,"[5.00000,0.00000,0.00000]","[1.30000,0.00000,0.00000]",-0.06106,0.14536,-0.00333,0.24946,-0.02525,0.01139,0.12654,0.10401,-0.05697,1.01986,5.38933,0.00000,2.55343,1.83245,1.91737,-3.67113,9.99624,5.40620,-3.72499,10.21140,1.86652,1.86652,57.78153,12.77346,57.78152773,12.77346091,A,131132.70,"[-0.20000,-0.00000,-0.00000]","[-0.10000,-0.00000,-0.00000]",8.39417,-3.34983,7.69680,1.98129,0.62302,0.06393
17:45:47.460412,5.43629,0.00997,2.58223,2.58223,"[5.00000,0.00000,0.00000]","[1.30000,0.00000,0.00000]",-0.06389,0.15456,-0.00379,0.27893,-0.02390,0.00283,0.13265,0.06301,-0.11108,0.90805,5.42966,0.00000,2.55919,1.83455,1.92489,-3.70537,10.09435,5.40620,-3.72499,10.21140,1.86652,1.86652,57.78153,12.77346,57.78152861,12.77346033,A,131132.70,"[-0.20000,-0.00000,-0.00000]","[-0.10000,-0.00000,-0.00000]",8.48793,-3.38724,7.78277,1.98129,0.63078,0.05640
17:45:47.468254,5.44414,0.00597,2.58223,2.58223,"[5.00000,0.00000,0.00000]","[1.30000,0.00000,0.00000]",-0.06425,0.15671,0.00293,0.27893,-0.02390,-0.00053,0.13463,-0.04258,0.03483,0.82082,5.43767,0.00000,2.56379,1.82736,1.91898,-3.71140,10.11386,5.40620,-3.72499,10.21140,1.86652,1.86652,57.78153,12.77346,57.78152879,12.77346023,A,131132.70,"[-0.20000,-0.00000,-0.00000]","[-0.10000,-0.00000,-0.00000]",8.51850,-3.39944,7.81080,1.98129,0.63303,0.06232
17:45:47.479006,5.45489,0.00633,2.58223,2.58223,"[5.00000,0.00000,0.00000]","[1.30000,0.00000,0.00000]",-0.06751,0.15889,0.03424,0.09852,-0.02602,-0.00587,0.13234,0.01751,-0.13658,0.78580,5.44826,0.00000,2.56748,1.82184,1.91475,-3.71918,10.13829,5.40620,-3.72499,10.21140,1.86652,1.86652,57.78153,12.77346,57.78152901,12.77346010,A,131132.70,"[-0.20000,-0.00000,-0.00000]","[-0.10000,-0.00000,-0.00000]",8.54526,-3.41012,7.83534,1.98129,0.63565,0.06654
17:45:47.489377,5.46502,0.00605,2.58223,2.58223,"[5.00000,0.00000,0.00000]","[1.30000,0.00000,0.00000]",-0.06936,0.16158,0.03332,0.11042,-0.02674,-0.00404,0.13387,-0.14701,-0.07668,0.88060,5.45867,0.00000,2.57043,1.81692,1.91141,-3.72638,10.16125,5.40620,-3.72499,10.21140,1.86652,1.86652,57.78153,12.77346,57.78152922,12.77345998,A,131132.70,"[-0.20000,-0.00000,-0.00000]","[-0.10000,-0.00000,-0.00000]",8.57202,-3.42080,7.85988,1.98129,0.63821,0.06988
17:45:47.499773,5.47566,0.00617,2.58223,2.58223,"[5.00000,0.00000,0.00000]","[1.30000,0.00000,0.00000]",-0.07167,0.16226,0.04141,0.07978,-0.02754,-0.00022,0.13112,-0.12389,-0.13774,0.99479,5.46900,0.00000,2.57279,1.81277,1.90767,-3.73331,10.18351,5.40620,-3.72499,10.21140,1.86652,1.86652,57.78153,12.77346,57.78152942,12.77345986,A,131132.70,"[-0.20000,-0.00000,-0.00000]","[-0.10000,-0.00000,-0.00000]",8.59912,-3.43162,7.88472,1.98129,0.64074,0.07363
17:45:47.510437,5.48632,0.00644,2.58223,2.58223,"[5.00000,0.00000,0.00000]","[1.30000,0.00000,0.00000]",-0.07296,0.16344,0.04172,0.08251,-0.02817,0.00619,0.14792,-0.02867,-0.08790,1.10270,5.47959,0.00000,2.57468,1.80914,1.90474,-3.73981,10.20463,5.40620,-3.72499,10.21140,1.86652,1.86652,57.78153,12.77346,57.78152961,12.77345975,A,131132.70,"[-0.20000,-0.00000,-0.00000]","[-0.10000,-0.00000,-0.00000]",8.62588,-3.44230,7.90926,1.98129,0.64321,0.07655
17:45:47.520197,5.49609,0.00598,2.58223,2.58223,"[5.00000,0.00000,0.00000]","[1.30000,0.00000,0.00000]",-0.07459,0.16361,0.03805,0.08251,-0.02817,-0.00618,0.16991,0.05179,-0.12743,1.19401,5.48966,0.00000,2.57619,1.80599,1.90169,-3.74572,10.22416,5.40620,-3.72499,10.21140,1.86652,1.86652,57.78153,12.77346,57.78152978,12.77345965,A,131132.70,"[-0.20000,-0.00000,-0.00000]","[-0.10000,-0.00000,-0.00000]",8.65220,-3.45280,7.93340,1.98129,0.64558,0.07961
17:45:47.530995,5.50688,0.00637,2.58223,2.58223,"[5.00000,0.00000,0.00000]","[1.30000,0.00000,0.00000]",-0.07608,0.16486,0.05027,0.05286,-0.02927,-0.02710,0.18274,-0.01885,-0.13243,1.21372,5.50022,0.00000,2.57740,1.80327,1.89971,-3.75148,10.24330,5.40620,-3.72499,10.21140,1.86652,1.86652,57.78153,12.77346,57.78152995,12.77345955,A,131132.70,"[-0.20000,-0.00000,-0.00000]","[-0.10000,-0.00000,-0.00000]",8.67897,-3.46348,7.95794,1.98129,0.64794,0.08158
17:45:47.568394,5.54428,0.03338,2.58223,2.58223,"[5.00000,0.00000,0.00000]","[1.30000,0.00000,0.00000]",-0.07626,0.16562,0.04111,0.09706,-0.02970,-0.04527,0.18930,0.09290,-0.01372,1.16083,5.51074,0.00000,2.57836,1.80091,1.89781,-3.75689,10.26144,5.53835,-3.88308,10.67471,1.89962,1.89962,57.78153,12.77346,57.78153012,12.77345946,A,131132.90,"[-0.20000,-0.00000,-0.00000]","[-0.10000,-0.00000,-0.00000]",8.70574,-3.47417,7.98249,1.98129,0.65022,0.08349
17:45:47.580451,5.55633,0.00620,2.58223,2.58223,"[5.00000,0.00000,0.00000]","[1.30000,0.00000,0.00000]",-0.07664,0.16636,0.05424,0.04879,-0.02741,-0.04527,0.16380,-0.11334,-0.07704,0.78007,5.54974,0.00000,2.57914,1.81292,1.91025,-3.79248,10.36844,5.53835,-3.88308,10.67471,1.89962,1.89962,57.78153,12.77346,57.78153108,12.77345886,A,131132.90,"[-0.20000,-0.00000,-0.00000]","[-0.10000,-0.00000,-0.00000]",8.80702,-3.51458,8.07535,1.98129,0.66028,0.07104
17:45:47.590983,5.56686,0.00633,2.58223,2.58223,"[5.00000,0.00000,0.00000]","[1.30000,0.00000,0.00000]",-0.07960,0.16724,0.04600,0.11082,-0.02717,-0.03809,0.15204,-0.05893,-0.12950,0.77940,5.56024,0.00000,2.57975,1.81395,1.91180,-3.80393,10.40334,5.53835,-3.88308,10.67471,1.89962,1.89962,57.78153,12.77346,57.78153139,12.77345867,A,131132.90,"[-0.20000,-0.00000,-0.00000]","[-0.10000,-0.00000,-0.00000]",8.83380,-3.52527,8.09990,1.98129,0.66371,0.06950
17:45:47.601532,5.57740,0.00647,2.58223,2.58223,"[5.00000,0.00000,0.00000]","[1.30000,0.00000,0.00000]",-0.08290,0.16746,0.04340,0.14618,-0.02703,-0.00587,0.13845,-0.15964,-0.17983,0.87541,5.57081,0.00000,2.58025,1.81485,1.91284,-3.81492,10.43673,5.53835,-3.88308,10.67471,1.89962,1.89962,57.78153,12.77346,57.78153169,12.77345848,A,131132.90,"[-0.20000,-0.00000,-0.00000]","[-0.10000,-0.00000,-0.00000]",8.86056,-3.53595,8.12444,1.98129,0.66696,0.06846
17:45:47.614104,5.58999,0.00853,2.58223,2.58223,"[5.00000,0.00000,0.00000]","[1.30000,0.00000,0.00000]",-0.08488,0.16871,0.02156,0.27044,-0.02668,0.00726,0.13891,-0.02684,-0.09827,0.92256,5.58324,0.00000,2.58065,1.81619,1.91491,-3.82712,10.47331,5.53835,-3.88308,10.67471,1.89962,1.89962,57.78153,12.77346,57.78153202,12.77345828,A,131132.90,"[-0.20000,-0.00000,-0.00000]","[-0.10000,-0.00000,-0.00000]",8.88766,-3.54676,8.14929,1.98129,0.67037,0.06638
17:45:47.621981,5.59787,0.00620,2.58223,2.58223,"[5.00000,0.00000,0.00000]","[1.30000,0.00000,0.00000]",-0.08597,0.16967,0.02523,0.27044,-0.02668,-0.00053,0.13540,0.02934,-0.05710,1.03633,5.59140,0.00000,2.58096,1.81586,1.91515,-3.83515,10.49799,5.53835,-3.88308,10.67471,1.89962,1.89962,57.78153,12.77346,57.78153224,12.77345814,A,131132.90,"[-0.20000,-0.00000,-0.00000]","[-0.10000,-0.00000,-0.00000]",8.91396,-3.55726,8.17341,1.98129,0.67286,0.06615
17:45:47.632579,5.60847,0.00657,2.58223,2.58223,"[5.00000,0.00000,0.00000]","[1.30000,0.00000,0.00000]",-0.08794,0.17196,0.03469,0.22628,-0.02644,-0.00709,0.14059,0.02898,-0.15116,1.13771,5.60143,0.00000,2.58122,1.81602,1.91667,-3.84440,10.52592,5.53835,-3.88308,10.67471,1.89962,1.89962,57.78153,12.77346,57.78153250,12.77345799,A,131132.90,"[-0.20000,-0.00000,-0.00000]","[-0.10000,-0.00000,-0.00000]",8.94029,-3.56777,8.19755,1.98129,0.67553,0.06463
17:45:47.642758,5.61864,0.00636,2.58223,2.58223,"[5.00000,0.00000,0.00000]","[1.30000,0.00000,0.00000]",-0.08913,0.17420,0.02523,0.28270,-0.02623,-0.01732,0.14624,0.05527,-0.09187,1.17663,5.61199,0.00000,2.58142,1.81595,1.91792,-3.85310,10.55216,5.53835,-3.88308,10.67471,1.89962,1.89962,57.78153,12.77346,57.78153273,12.77345784,A,131132.90,"[-0.20000,-0.00000,-0.00000]","[-0.10000,-0.00000,-0.00000]",8.96705,-3.57845,8.22209,1.98129,0.67801,0.06337
17:45:47.653078,5.62897,0.00628,2.58223,2.58223,"[5.00000,0.00000,0.00000]","[1.30000,0.00000,0.00000]",-0.08948,0.17649,0.02309,0.29699,-0.02602,-0.03290,0.15693,0.10401,-0.02141,1.16772,5.62236,0.00000,2.58158,1.81588,1.91922,-3.86180,10.57818,5.53835,-3.88308,10.67471,1.89962,1.89962,57.78153,12.77346,57.78153297,12.77345769,A,131132.90,"[-0.20000,-0.00000,-0.00000]","[-0.10000,-0.00000,-0.00000]",8.99382,-3.58913,8.24663,1.98129,0.68042,0.06208
17:45:47.663510,5.63940,0.00631,2.58223,2.58223,"[5.00000,0.00000,0.00000]","[1.30000,0.00000,0.00000]",-0.09082,0.17901,0.02965,0.27418,-0.02583,-0.04573,0.16701,0.10022,-0.08522,1.05609,5.63276,0.00000,2.58171,1.81557,1.92040,-3.86992,10.60243,5.53835,-3.88308,10.67471,1.89962,1.89962,57.78153,12.77346,57.78153318,12.77345756,A,131132.90,"[-0.20000,-0.00000,-0.00000]","[-0.10000,-0.00000,-0.00000]",9.02060,-3.59981,8.27118,1.98129,0.68266,0.06089
17:45:47.689852,5.66573,0.02224,2.58223,2.58223,"[5.00000,0.00000,0.00000]","[1.30000,0.00000,0.00000]",-0.08985,0.18173,0.01545,0.34008,-0.02565,-0.06467,0.17739,-0.10992,0.08979,0.98759,5.64320,0.00000,2.58181,1.81510,1.92154,-3.87764,10.62541,5.65989,-3.95224,10.93417,1.83131,1.83131,57.78154,12.77346,57.78153339,12.77345743,A,131133.00,"[-0.20000,-0.00000,-0.00000]","[-0.10000,-0.00000,-0.00000]",9.04736,-3.61049,8.29572,1.98129,0.68475,0.05975
17:45:47.702484,5.67837,0.00646,2.58223,2.58223,"[5.00000,0.00000,0.00000]","[1.30000,0.00000,0.00000]",-0.08985,0.18937,0.03271,0.25247,-0.02585,-0.03626,0.18396,-0.17043,-0.00677,0.89627,5.67168,0.00000,2.58190,1.81019,1.92118,-3.90387,10.70236,5.65989,-3.95224,10.93417,1.83131,1.83131,57.78154,12.77346,57.78153408,12.77345698,A,131133.00,"[-0.20000,-0.00000,-0.00000]","[-0.10000,-0.00000,-0.00000]",9.12070,-3.63976,8.36298,1.98129,0.69140,0.06011
17:45:47.714606,5.69049,0.00818,2.58223,2.58223,"[5.00000,0.00000,0.00000]","[1.30000,0.00000,0.00000]",-0.09111,0.19271,0.04050,0.21072,-0.02754,-0.00663,0.18258,-0.20039,-0.08613,1.07433,5.68344,0.00000,2.58196,1.80016,1.91314,-3.91497,10.73771,5.65989,-3.95224,10.93417,1.83131,1.83131,57.78154,12.77346,57.78153440,12.77345680,A,131133.00,"[-0.20000,-0.00000,-0.00000]","[-0.10000,-0.00000,-0.00000]",9.14746,-3.65044,8.38751,1.98129,0.69533,0.06815
17:45:47.722942,5.69883,0.00630,2.67898,2.67898,"[5.00000,0.00000,0.00000]","[1.30000,0.00000,0.00000]",-0.09325,0.19469,0.03149,0.21072,-0.02754,0.03155,0.18793,-0.16183,-0.13426,1.09721,5.69233,0.00000,2.60137,1.79022,1.90438,-3.92242,10.76320,5.65989,-3.95224,10.93417,1.83131,1.83131,57.78154,12.77346,57.78153463,12.77345667,A,131133.00,"[-0.20000,-0.00000,-0.00000]","[-0.10000,-0.00000,-0.00000]",9.17384,-3.66097,8.41169,1.98129,0.69867,0.07691
17:45:47.733338,5.70899,0.00606,2.67898,2.67898,"[5.00000,0.00000,0.00000]","[1.30000,0.00000,0.00000]",-0.09351,0.19707,0.02416,0.28709,-0.03076,0.05598,0.18762,0.17995,0.00195,1.14662,5.70263,0.00000,2.61689,1.78215,1.89773,-3.93059,10.79101,5.65989,-3.95224,10.93417,1.83131,1.83131,57.78154,12.77346,57.78153488,12.77345653,A,131133.00,"[-0.20000,-0.00000,-0.00000]","[-0.10000,-0.00000,-0.00000]",9.20160,-3.67205,8.43715,1.98129,0.70228,0.08356
17:45:47.744109,5.72000,0.00655,2.67898,2.67898,"[5.00000,0.00000,0.00000]","[1.30000,0.00000,0.00000]",-0.09535,0.19919,0.03393,0.24250,-0.03194,0.01994,0.19679,0.18343,-0.09357,0.98948,5.71311,0.00000,2.62931,1.77534,1.89219,-3.93863,10.81869,5.65989,-3.95224,10.93417,1.83131,1.83131,57.78154,12.77346,57.78153513,12.77345640,A,131133.00,"[-0.20000,-0.00000,-0.00000]","[-0.10000,-0.00000,-0.00000]",9.22972,-3.68327,8.46294,1.98129,0.70595,0.08910
17:45:47.754468,5.73035,0.00650,2.67898,2.67898,"[5.00000,0.00000,0.00000]","[1.30000,0.00000,0.00000]",-0.09654,0.20259,0.03454,0.24130,-0.03285,-0.03748,0.20595,0.27609,-0.03367,0.89694,5.72369,0.00000,2.63924,1.76914,1.88802,-3.94586,10.84413,5.65989,-3.95224,10.93417,1.83131,1.83131,57.78154,12.77346,57.78153536,12.77345627,A,131133.00,"[-0.20000,-0.00000,-0.00000]","[-0.10000,-0.00000,-0.00000]",9.25749,-3.69435,8.48840,1.98129,0.70948,0.09328
17:45:47.764285,5.74017,0.00592,2.67898,2.67898,"[5.00000,0.00000,0.00000]","[1.30000,0.00000,0.00000]",-0.09723,0.20462,0.03928,0.24130,-0.03285,-0.08040,0.22260,0.03038,-0.00073,0.86968,5.73374,0.00000,2.64719,1.76375,1.88384,-3.95265,10.86836,5.65989,-3.95224,10.93417,1.83131,1.83131,57.78154,12.77346,57.78153557,12.77345616,A,131133.00,"[-0.20000,-0.00000,-0.00000]","[-0.10000,-0.00000,-0.00000]",9.28528,-3.70544,8.51388,1.98129,0.71292,0.09745
17:45:47.775083,5.75097,0.00632,2.67898,2.67898,"[5.00000,0.00000,0.00000]","[1.30000,0.00000,0.00000]",-0.09741,0.20720,0.05149,0.15188,-0.03444,-0.10178,0.23268,0.03837,0.01775,0.89316,5.74434,0.00000,2.65355,1.75910,1.88074,-3.95929,10.89222,5.65989,-3.95224,10.93417,1.83131,1.83131,57.78154,12.77346,57.78153579,12.77345605,A,131133.00,"[-0.20000,-0.00000,-0.00000]","[-0.10000,-0.00000,-0.00000]",9.31305,-3.71652,8.53934,1.98129,0.71635,0.10056
17:45:47.801651,5.77754,0.02249,2.67898,2.67898,"[5.00000,0.00000,0.00000]","[1.30000,0.00000,0.00000]",-0.09773,0.20893,0.08158,-0.00071,-0.03509,-0.09063,0.26047,-0.14841,-0.02348,0.98631,5.75525,0.00000,2.65863,1.75517,1.87784,-3.96577,10.91566,5.77195,-4.03129,11.15656,1.91230,1.91230,57.78154,12.77345,57.78153600,12.77345594,A,131133.10,"[-0.20000,-0.00000,-0.00000]","[-0.10000,-0.00000,-0.00000]",9.34082,-3.72760,8.56480,1.98129,0.71976,0.10345
17:45:47.814063,5.78995,0.00651,2.67898,2.67898,"[5.00000,0.00000,0.00000]","[1.30000,0.00000,0.00000]",-0.09680,0.21320,0.10418,-0.09721,-0.03162,-0.01549,0.28704,0.20953,-0.06527,0.95465,5.78325,0.00000,2.66270,1.77080,1.89603,-3.98907,10.99084,5.77195,-4.03129,11.15656,1.91230,1.91230,57.78154,12.77345,57.78153668,12.77345555,A,131133.10,"[-0.20000,-0.00000,-0.00000]","[-0.10000,-0.00000,-0.00000]",9.41681,-3.75793,8.63449,1.98129,0.72841,0.08527
17:45:47.824046,5.79993,0.00627,2.67898,2.67898,"[5.00000,0.00000,0.00000]","[1.30000,0.00000,0.00000]",-0.09937,0.21328,0.09471,-0.02589,-0.03050,-0.04634,0.27589,0.01714,-0.17513,0.97728,5.79319,0.00488,2.66596,1.77668,1.90196,-3.99777,11.01867,5.77195,-4.03129,11.15656,1.91230,1.91230,57.78154,12.77345,57.78153693,12.77345540,A,131133.10,"[-0.20000,-0.00000,-0.00000]","[-0.10000,-0.00000,-0.00000]",9.44412,-3.76883,8.65952,1.98129,0.73153,0.07933
17:45:47.834732,5.81062,0.00655,2.67898,2.67898,"[5.00000,0.00000,0.00000]","[1.30000,0.00000,0.00000]",-0.09931,0.21323,0.08066,0.05024,-0.02954,-0.05031,0.26918,-0.10102,-0.00500,1.05981,5.80377,0.00977,2.66856,1.78182,1.90706,-4.00640,11.04580,5.77195,-4.03129,11.15656,1.91230,1.91230,57.78154,12.77345,57.78153717,12.77345525,A,131133.10,"[-0.20000,-0.00000,-0.00000]","[-0.10000,-0.00000,-0.00000]",9.47192,-3.77992,8.68502,1.98129,0.73444,0.07423
17:45:47.846021,5.82187,0.00741,2.67898,2.67898,"[5.00000,0.00000,0.00000]","[1.30000,0.00000,0.00000]",-0.10000,0.21326,0.08387,0.04419,-0.02869,-0.02145,0.26643,-0.03928,-0.04715,0.99741,5.81397,0.00733,2.67065,1.78632,1.91158,-4.01498,11.07233,5.77195,-4.03129,11.15656,1.91230,1.91230,57.78154,12.77345,57.78153741,12.77345511,A,131133.10,"[-0.20000,-0.00000,-0.00000]","[-0.10000,-0.00000,-0.00000]",9.49969,-3.79100,8.71047,1.98129,0.73716,0.06972
17:45:47.855462,5.83135,0.00648,2.67898,2.67898,"[5.00000,0.00000,0.00000]","[1.30000,0.00000,0.00000]",-0.10018,0.21343,0.09486,-0.00493,-0.02797,-0.02343,0.25955,0.25626,0.00659,0.79788,5.82471,0.00000,2.67231,1.79006,1.91542,-4.02310,11.09712,5.77195,-4.03129,11.15656,1.91230,1.91230,57.78154,12.77345,57.78153763,12.77345497,A,131133.10,"[-0.20000,-0.00000,-0.00000]","[-0.10000,-0.00000,-0.00000]",9.52746,-3.80208,8.73594,1.98129,0.73962,0.06587
17:45:47.865448,5.84109,0.00582,2.67898,2.67898,"[5.00000,0.00000,0.00000]","[1.30000,0.00000,0.00000]",-0.10134,0.21362,0.11075,-0.00493,-0.02797,-0.08681,0.26765,0.26492,-0.06088,0.83363,5.83491,0.00733,2.67365,1.79304,1.91852,-4.03050,11.11958,5.77195,-4.03129,11.15656,1.91230,1.91230,57.78154,12.77345,57.78153783,12.77345485,A,131133.10,"[-0.20000,-0.00000,-0.00000]","[-0.10000,-0.00000,-0.00000]",9.55522,-3.81316,8.76140,1.98129,0.74179,0.06277
17:45:47.875906,5.85179,0.00619,2.67898,2.67898,"[5.00000,0.00000,0.00000]","[1.30000,0.00000,0.00000]",-0.10131,0.21382,0.11472,-0.08977,-0.02688,-0.13705,0.26902,0.17635,-0.00982,0.92098,5.84513,0.00977,2.67471,1.79569,1.92129,-4.03787,11.14165,5.77195,-4.03129,11.15656,1.91230,1.91230,57.78154,12.77345,57.78153803,12.77345472,A,131133.10,"[-0.20000,-0.00000,-0.00000]","[-0.10000,-0.00000,-0.00000]",9.58285,-3.82419,8.78673,1.98129,0.74384,0.06000
17:45:47.886544,5.86243,0.00643,2.67898,2.67898,"[5.00000,0.00000,0.00000]","[1.30000,0.00000,0.00000]",-0.10147,0.21388,0.12128,-0.11877,-0.02645,-0.12743,0.28078,-0.08558,-0.06191,1.11118,5.85578,0.04396,2.67557,1.79800,1.92363,-4.04503,11.16288,5.77195,-4.03129,11.15656,1.91230,1.91230,57.78154,12.77345,57.78153822,12.77345460,A,131133.10,"[-0.20000,-0.00000,-0.00000]","[-0.10000,-0.00000,-0.00000]",9.61061,-3.83527,8.81218,1.98129,0.74575,0.05767
17:45:47.896579,5.87246,0.00607,2.67898,2.67898,"[5.00000,0.00000,0.00000]","[1.30000,0.00000,0.00000]",-0.10122,0.21374,0.11182,-0.07097,-0.02612,-0.08162,0.28750,-0.27114,-0.03062,1.19438,5.86590,0.12943,2.67625,1.79988,1.92542,-4.05170,11.18253,5.77195,-4.03129,11.15656,1.91230,1.91230,57.78154,12.77345,57.78153840,12.77345449,A,131133.10,"[-0.20000,-0.00000,-0.00000]","[-0.10000,-0.00000,-0.00000]",9.63837,-3.84635,8.83764,1.98129,0.74748,0.05587
17:45:47.924888,5.90076,0.02397,2.67898,2.67898,"[5.00000,0.00000,0.00000]","[1.30000,0.00000,0.00000]",-0.10175,0.21311,0.11075,-0.06057,-0.02588,-0.02206,0.27696,-0.08265,-0.08821,1.14485,5.87650,0.17582,2.67680,1.80164,1.92681,-4.05829,11.20179,5.89333,-4.10045,11.37895,1.87232,1.87232,57.78154,12.77345,57.78153857,12.77345438,A,131133.20,"[-0.20000,-0.00000,-0.00000]","[-0.10000,-0.00000,-0.00000]",9.66614,-3.85743,8.86310,1.98129,0.74912,0.05448
17:45:47.939229,5.91511,0.00668,2.67898,2.67898,"[5.00000,0.00000,0.00000]","[1.30000,0.00000,0.00000]",-0.10069,0.20966,0.08845,0.04677,-0.02546,-0.04466,0.24413,0.03032,-0.05581,0.95672,5.90823,0.06838,2.67723,1.80639,1.92950,-4.08672,11.28145,5.89333,-4.10045,11.37895,1.87232,1.87232,57.78154,12.77345,57.78153929,12.77345390,A,131133.20,"[-0.20000,-0.00000,-0.00000]","[-0.10000,-0.00000,-0.00000]",9.75088,-3.89124,8.94080,1.98129,0.75484,0.05180
