Description : v2 p5 ptev failed toucjed ; walk_time = 2.0 ; speed_up_time = 3.0 ; balancing_time = 0.0
RealTime,Time,CalculationTime,MeasuredVelocity,FilteredVelocity,BalancingGainsInner,BalancingGainsOuter,Roll,SteeringAngle,RollRate,ControlInput,BalancingSetpoint,gy,gz,ax,ay,az,imu_read_timing,SteerMotorCurrent,v_estimated,yaw_estimated,heading_estimated,x_estimated,y_estimated,GPS_timestamp,x_GPS,y_GPS,theta_GPS,theta_GPS_noUnwrap,latitude,longitude,lat_estimated,lon_estimated,status,NMEA timestamp
18:52:56.606314,0.06045,0.06041,0.00000,0.00000,[5.00000 0.00000 0.00000],[1.30000 0.00000 0.00000],-0.00032,0.00354,0.00777,0.00000,0.00000,0.00157,-0.00360,0.02489,-0.00207,0.99046,0.00001,0.02930,0.00000,-0.00206,0.00000,0.00000,0.00000,0.02784,0.00000,0.00000,0.00000,0.00000,57.68930,11.98012,57.68930217,11.98011883,A,150316.20
18:52:56.633280,0.08764,0.01391,0.00000,0.00000,[5.00000 0.00000 0.00000],[1.30000 0.00000 0.00000],-0.00006,0.00354,0.00701,0.00000,0.00000,0.00279,-0.00115,0.03184,0.00647,0.99625,0.07630,0.01954,0.00000,-0.00206,0.00000,0.00000,0.00000,0.02784,0.00000,0.00000,0.00000,0.00000,57.68930,11.98012,57.68930217,11.98011883,A,150316.20
18:52:56.656097,0.11046,0.01182,0.00000,0.00000,[5.00000 0.00000 0.00000],[1.30000 0.00000 0.00000],-0.00041,0.00354,0.00396,0.00000,0.00000,-0.00332,0.00022,0.02885,-0.00488,0.99186,0.10192,0.00977,0.00000,-0.00206,0.00000,0.00000,0.00000,0.02784,0.00000,0.00000,0.00000,0.00000,57.68930,11.98012,57.68930217,11.98011883,A,150316.20
18:52:56.692837,0.14720,0.02441,0.00000,0.00000,[5.00000 0.00000 0.00000],[1.30000 0.00000 0.00000],-0.00097,0.00354,-0.00643,0.00000,0.00000,-0.00179,-0.00146,0.03495,-0.00354,0.99424,0.12492,0.01954,0.00000,-0.00206,0.00000,0.00000,0.00000,0.14355,0.00000,0.00000,0.00000,0.00000,57.68930,11.98012,57.68930217,11.98011883,A,150316.30
18:52:56.717399,0.17176,0.01296,0.00000,0.00000,[5.00000 0.00000 0.00000],[1.30000 0.00000 0.00000],-0.00151,0.00354,-0.01040,0.00000,0.00000,-0.00057,-0.00360,0.04246,0.01287,0.99418,0.16227,0.01465,0.00000,-0.00206,0.00000,0.00000,0.00000,0.14355,0.00000,0.00000,0.00000,0.00000,57.68930,11.98012,57.68930217,11.98011883,A,150316.30
18:52:56.741935,0.19627,0.01224,0.00000,0.00000,[5.00000 0.00000 0.00000],[1.30000 0.00000 0.00000],-0.00222,0.00354,-0.01605,0.00000,0.00000,0.00340,-0.00375,0.04483,0.00183,0.99143,0.18669,0.00977,0.00000,-0.00206,0.00000,0.00000,0.00000,0.14355,0.00000,0.00000,0.00000,0.00000,57.68930,11.98012,57.68930217,11.98011883,A,150316.30
18:52:56.768534,0.22290,0.01251,0.00000,0.00000,[5.00000 0.00000 0.00000],[1.30000 0.00000 0.00000],-0.00325,0.00354,-0.02582,0.00000,0.00000,0.00645,-0.00238,0.04996,-0.00134,0.99412,0.21320,0.01465,0.00000,-0.00206,0.00000,0.00000,0.00000,0.14355,0.00000,0.00000,0.00000,0.00000,57.68930,11.98012,57.68930217,11.98011883,A,150316.30
18:52:56.806912,0.26128,0.02508,0.00000,0.00000,[5.00000 0.00000 0.00000],[1.30000 0.00000 0.00000],-0.00415,0.00354,-0.02720,0.00000,0.00000,0.00508,0.00190,0.05563,0.00500,0.99680,0.23784,0.01709,0.00000,-0.00206,0.00000,0.00000,0.00000,0.25764,0.00000,0.00000,0.00000,0.00000,57.68930,11.98012,57.68930217,11.98011883,A,150316.40
18:52:56.829234,0.28360,0.00972,0.00000,0.00000,[5.00000 0.00000 0.00000],[1.30000 0.00000 0.00000],-0.00565,0.00354,-0.03499,0.00000,0.00000,0.00645,0.00037,0.06655,0.00622,0.99058,0.27520,0.02198,0.00000,-0.00206,0.00000,0.00000,0.00000,0.25764,0.00000,0.00000,0.00000,0.00000,57.68930,11.98012,57.68930217,11.98011883,A,150316.40
18:52:56.841201,0.29557,0.01098,0.00000,0.00000,[5.00000 0.00000 0.00000],[1.30000 0.00000 0.00000],-0.00636,0.00354,-0.03499,0.00000,0.00000,0.00523,0.00526,0.06509,-0.00189,0.99149,0.28683,0.01709,0.00000,-0.00206,0.00000,0.00000,0.00000,0.25764,0.00000,0.00000,0.00000,0.00000,57.68930,11.98012,57.68930217,11.98011883,A,150316.40
18:52:56.865488,0.31985,0.01134,0.00000,0.00000,[5.00000 0.00000 0.00000],[1.30000 0.00000 0.00000],-0.00778,0.00354,-0.04583,0.00000,0.00000,0.00263,0.00266,0.06527,-0.00689,0.99223,0.30980,0.01709,0.00000,-0.00206,0.00000,0.00000,0.00000,0.25764,0.00000,0.00000,0.00000,0.00000,57.68930,11.98012,57.68930217,11.98011883,A,150316.40
18:52:56.888681,0.34305,0.00998,0.00000,0.00000,[5.00000 0.00000 0.00000],[1.30000 0.00000 0.00000],-0.00924,0.00354,-0.05011,0.00000,0.00000,0.00722,0.00648,0.07107,-0.00342,0.99717,0.33328,0.01954,0.00000,-0.00206,0.00000,0.00000,0.00000,0.25764,0.00000,0.00000,0.00000,0.00000,57.68930,11.98012,57.68930217,11.98011883,A,150316.40
18:52:56.901422,0.35578,0.01074,0.00000,0.00000,[5.00000 0.00000 0.00000],[1.30000 0.00000 0.00000],-0.01010,0.00354,-0.04766,0.00000,0.00000,0.00722,0.00831,0.07857,-0.00573,0.99723,0.34495,0.01465,0.00000,-0.00206,0.00000,0.00000,0.00000,0.25764,0.00000,0.00000,0.00000,0.00000,57.68930,11.98012,57.68930217,11.98011883,A,150316.40
18:52:56.932356,0.38672,0.02227,0.00000,0.00000,[5.00000 0.00000 0.00000],[1.30000 0.00000 0.00000],-0.01145,0.00354,-0.05606,0.00000,0.00000,0.00477,0.00740,0.08089,-0.00470,0.99387,0.36416,0.01221,0.00000,-0.00206,0.00000,0.00000,0.00000,0.38308,0.00000,0.00000,0.00000,0.00000,57.68930,11.98012,57.68930217,11.98011883,A,150316.50
18:52:56.956556,0.41092,0.01099,0.00000,0.00000,[5.00000 0.00000 0.00000],[1.30000 0.00000 0.00000],-0.01415,0.00354,-0.06171,0.00000,0.00000,0.00630,-0.00131,0.08314,-0.01293,0.99332,0.40203,0.02442,0.00000,-0.00206,0.00000,0.00000,0.00000,0.38308,0.00000,0.00000,0.00000,0.00000,57.68930,11.98012,57.68930217,11.98011883,A,150316.50
18:52:56.975039,0.42845,0.00962,0.00000,0.00000,[5.00000 0.00000 0.00000],[1.30000 0.00000 0.00000],-0.01560,0.00354,-0.06049,0.00000,0.00000,0.00416,0.00098,0.08625,-0.01513,0.99406,0.42000,0.01221,0.00000,-0.00206,0.00000,0.00000,0.00000,0.38308,0.00000,0.00000,0.00000,0.00000,57.68930,11.98012,57.68930217,11.98011883,A,150316.50
18:52:56.986678,0.44103,0.00966,0.00000,0.00000,[5.00000 0.00000 0.00000],[1.30000 0.00000 0.00000],-0.01672,0.00354,-0.06064,0.00000,0.00000,0.00767,-0.00024,0.08583,-0.01757,0.99284,0.43210,0.00977,0.00000,-0.00206,0.00000,0.00000,0.00000,0.38308,0.00000,0.00000,0.00000,0.00000,57.68930,11.98012,57.68930217,11.98011883,A,150316.50
18:52:56.998742,0.45205,0.00931,0.00000,0.00000,[5.00000 0.00000 0.00000],[1.30000 0.00000 0.00000],-0.01770,0.00354,-0.05805,0.00000,0.00000,0.00386,0.00037,0.09052,-0.01549,0.98857,0.44305,0.01709,0.00000,-0.00206,0.00000,0.00000,0.00000,0.38308,0.00000,0.00000,0.00000,0.00000,57.68930,11.98012,57.68930217,11.98011883,A,150316.50
18:52:57.009445,0.46381,0.00966,0.00000,0.00000,[5.00000 0.00000 0.00000],[1.30000 0.00000 0.00000],-0.01867,0.00354,-0.05652,0.00000,0.00000,0.00340,0.00358,0.09272,-0.01555,0.98869,0.45437,0.01221,0.00000,-0.00206,0.00000,0.00000,0.00000,0.38308,0.00000,0.00000,0.00000,0.00000,57.68930,11.98012,57.68930217,11.98011883,A,150316.50
18:52:57.021442,0.47517,0.01005,0.00000,0.00000,[5.00000 0.00000 0.00000],[1.30000 0.00000 0.00000],-0.01969,0.00354,-0.05698,0.00000,0.00000,0.00065,0.00358,0.09241,-0.02074,0.98869,0.46528,0.00733,0.00000,-0.00206,0.00000,0.00000,0.00000,0.38308,0.00000,0.00000,0.00000,0.00000,57.68930,11.98012,57.68930217,11.98011883,A,150316.50
18:52:57.069352,0.52371,0.03598,0.00000,0.00000,[5.00000 0.00000 0.00000],[1.30000 0.00000 0.00000],-0.02150,0.00354,-0.05545,0.00000,0.00000,-0.00607,0.00282,0.07924,-0.02263,0.99790,0.49098,0.01221,0.00000,-0.16405,-0.16199,0.00050,-0.00093,0.52009,0.00991,-0.01853,-1.07992,-1.07992,57.68930,11.98012,57.68930216,11.98011884,A,150316.70
18:52:57.091396,0.54576,0.01056,0.00000,0.00000,[5.00000 0.00000 0.00000],[1.30000 0.00000 0.00000],-0.02416,0.00354,-0.05041,0.00000,0.00000,0.00508,0.00358,0.09022,-0.02135,0.99412,0.53700,0.01465,0.00000,-0.30174,-0.29968,0.00097,-0.00181,0.52009,0.00991,-0.01853,-1.07992,-1.07992,57.68930,11.98012,57.68930215,11.98011885,A,150316.70
18:52:57.116317,0.57068,0.01268,0.00000,0.00000,[5.00000 0.00000 0.00000],[1.30000 0.00000 0.00000],-0.02576,0.00354,-0.05316,0.00000,0.00000,0.00233,-0.00238,0.07326,-0.02751,0.99247,0.55966,0.01465,0.00000,-0.41877,-0.41672,0.00141,-0.00264,0.52009,0.00991,-0.01853,-1.07992,-1.07992,57.68930,11.98012,57.68930214,11.98011886,A,150316.70
18:52:57.142969,0.59733,0.01301,0.00000,0.00000,[5.00000 0.00000 0.00000],[1.30000 0.00000 0.00000],-0.02746,0.00354,-0.05179,0.00000,0.00000,0.00462,0.00053,0.09028,-0.02159,0.98521,0.58673,0.01465,0.00000,-0.51825,-0.51620,0.00184,-0.00344,0.52009,0.00991,-0.01853,-1.07992,-1.07992,57.68930,11.98012,57.68930214,11.98011886,A,150316.70
18:52:57.168482,0.62285,0.01264,0.00000,0.00000,[5.00000 0.00000 0.00000],[1.30000 0.00000 0.00000],-0.02917,0.00354,-0.04873,0.00000,0.00000,-0.00409,0.00404,0.06509,-0.02855,0.99784,0.61430,0.01954,0.00000,-0.60281,-0.60076,0.00224,-0.00419,0.52009,0.00991,-0.01853,-1.07992,-1.07992,57.68930,11.98012,57.68930213,11.98011887,A,150316.70
18:52:57.209455,0.66382,0.02529,0.00000,0.00000,[5.00000 0.00000 0.00000],[1.30000 0.00000 0.00000],-0.03054,0.00354,-0.04705,0.00000,0.00000,0.00141,0.00511,0.06917,-0.01751,0.99711,0.63973,0.01221,0.00000,-0.51270,-0.51064,0.00312,-0.00491,0.66020,0.01981,-0.01853,0.00000,0.00000,57.68930,11.98012,57.68930212,11.98011889,A,150316.80
18:52:57.233881,0.68825,0.01036,0.00000,0.00000,[5.00000 0.00000 0.00000],[1.30000 0.00000 0.00000],-0.03287,0.00354,-0.05041,0.00000,0.00000,-0.00241,-0.00070,0.04599,-0.02733,0.98338,0.68010,0.00977,0.00000,-0.43610,-0.43405,0.00395,-0.00559,0.66020,0.01981,-0.01853,0.00000,0.00000,57.68930,11.98012,57.68930212,11.98011890,A,150316.80
18:52:57.260572,0.71493,0.01307,0.00000,0.00000,[5.00000 0.00000 0.00000],[1.30000 0.00000 0.00000],-0.03433,0.00354,-0.04491,0.00000,0.00000,0.00599,0.00098,0.06881,-0.03459,1.00168,0.70427,0.00977,0.00000,-0.37100,-0.36894,0.00475,-0.00624,0.66020,0.01981,-0.01853,0.00000,0.00000,57.68930,11.98012,57.68930211,11.98011891,A,150316.80
18:52:57.280541,0.73490,0.00922,0.00000,0.00000,[5.00000 0.00000 0.00000],[1.30000 0.00000 0.00000],-0.03551,0.00354,-0.04125,0.00000,0.00000,0.00798,0.00572,0.07198,-0.02666,0.99552,0.72697,0.00977,0.00000,-0.31566,-0.31360,0.00550,-0.00685,0.66020,0.01981,-0.01853,0.00000,0.00000,57.68930,11.98012,57.68930211,11.98011893,A,150316.80
18:52:57.292217,0.74658,0.00937,0.00000,0.00000,[5.00000 0.00000 0.00000],[1.30000 0.00000 0.00000],-0.03617,0.00354,-0.03682,0.00000,0.00000,0.00767,0.00572,0.06905,-0.02910,0.99412,0.73773,0.01465,0.00000,-0.26862,-0.26656,0.00622,-0.00744,0.66020,0.01981,-0.01853,0.00000,0.00000,57.68930,11.98012,57.68930210,11.98011894,A,150316.80
18:52:57.303116,0.75747,0.00913,0.00000,0.00000,[5.00000 0.00000 0.00000],[1.30000 0.00000 0.00000],-0.03683,0.00354,-0.03285,0.00000,0.00000,0.00508,0.00694,0.07918,-0.03221,0.98442,0.74832,0.01221,0.00000,-0.22863,-0.22657,0.00690,-0.00799,0.66020,0.01981,-0.01853,0.00000,0.00000,57.68930,11.98012,57.68930209,11.98011895,A,150316.80
18:52:57.326685,0.78104,0.02254,0.00000,0.00000,[5.00000 0.00000 0.00000],[1.30000 0.00000 0.00000],-0.03753,0.00354,-0.02995,0.00000,0.00000,0.00294,0.00404,0.08150,-0.03843,0.98173,0.75810,0.00733,0.00000,-0.35663,-0.35458,0.00804,-0.00944,0.77728,0.02972,-0.03706,-1.07992,-1.07992,57.68930,11.98012,57.68930208,11.98011897,A,150316.90
18:52:57.350969,0.80444,0.01107,0.00000,0.00000,[5.00000 0.00000 0.00000],[1.30000 0.00000 0.00000],-0.03906,0.00354,-0.03178,0.00000,0.00000,-0.00470,0.00144,0.06283,-0.03806,1.00357,0.79518,0.01465,0.00000,-0.46544,-0.46338,0.00912,-0.01083,0.77728,0.02972,-0.03706,-1.07992,-1.07992,57.68930,11.98012,57.68930207,11.98011899,A,150316.90
18:52:57.374814,0.82918,0.01078,0.00000,0.00000,[5.00000 0.00000 0.00000],[1.30000 0.00000 0.00000],-0.03972,0.00354,-0.01865,0.00000,0.00000,0.00202,-0.00070,0.06930,-0.02672,0.99576,0.82103,0.01465,0.00000,-0.55792,-0.55586,0.01015,-0.01214,0.77728,0.02972,-0.03706,-1.07992,-1.07992,57.68930,11.98012,57.68930206,11.98011900,A,150316.90
18:52:57.398319,0.85245,0.00885,0.00000,0.00000,[5.00000 0.00000 0.00000],[1.30000 0.00000 0.00000],-0.04021,0.00354,-0.00689,0.00000,0.00000,0.00050,0.00114,0.07832,-0.03660,0.98497,0.84417,0.01465,0.00000,-0.63653,-0.63447,0.01113,-0.01338,0.77728,0.02972,-0.03706,-1.07992,-1.07992,57.68930,11.98012,57.68930205,11.98011902,A,150316.90
18:52:57.409651,0.86402,0.00910,0.00000,0.00000,[5.00000 0.00000 0.00000],[1.30000 0.00000 0.00000],-0.04064,0.00354,-0.00566,0.00000,0.00000,-0.00317,0.00633,0.07771,-0.03941,0.98253,0.85524,0.01221,0.00000,-0.70335,-0.70129,0.01206,-0.01457,0.77728,0.02972,-0.03706,-1.07992,-1.07992,57.68930,11.98012,57.68930204,11.98011904,A,150316.90
18:52:57.420827,0.87519,0.00899,0.00000,0.00000,[5.00000 0.00000 0.00000],[1.30000 0.00000 0.00000],-0.04111,0.00354,-0.00307,0.00000,0.00000,-0.00577,0.00434,0.07149,-0.04447,0.98478,0.86641,0.02442,0.00000,-0.76014,-0.75808,0.01294,-0.01569,0.77728,0.02972,-0.03706,-1.07992,-1.07992,57.68930,11.98012,57.68930203,11.98011905,A,150316.90
18:52:57.446444,0.90055,0.02312,0.00000,0.00000,[5.00000 0.00000 0.00000],[1.30000 0.00000 0.00000],-0.04156,0.00354,-0.00078,0.00000,0.00000,-0.00042,0.00450,0.06362,-0.04563,0.99253,0.87749,0.01954,0.00000,-0.84287,-0.84082,0.01428,-0.01861,0.89704,0.03962,-0.07413,-1.30964,-1.30964,57.68930,11.98012,57.68930200,11.98011907,A,150317.00
18:52:57.473739,0.92810,0.01407,0.00000,0.00000,[5.00000 0.00000 0.00000],[1.30000 0.00000 0.00000],-0.04151,0.00354,0.00777,0.00000,0.00000,0.00126,0.00282,0.05520,-0.03385,0.99180,0.91687,0.01465,0.00000,-0.91320,-0.91114,0.01554,-0.02139,0.89704,0.03962,-0.07413,-1.30964,-1.30964,57.68930,11.98012,57.68930197,11.98011909,A,150317.00
18:52:57.499682,0.95405,0.01432,0.00000,0.00000,[5.00000 0.00000 0.00000],[1.30000 0.00000 0.00000],-0.04148,0.00354,0.01281,0.00000,0.00000,0.00080,0.00404,0.07296,-0.03666,0.98253,0.94328,0.00977,0.00000,-0.97297,-0.97092,0.01675,-0.02403,0.89704,0.03962,-0.07413,-1.30964,-1.30964,57.68930,11.98012,57.68930195,11.98011912,A,150317.00
18:52:57.525320,0.97969,0.01228,0.00000,0.00000,[5.00000 0.00000 0.00000],[1.30000 0.00000 0.00000],-0.04137,0.00354,0.01801,0.00000,0.00000,-0.00149,-0.00207,0.07765,-0.04197,0.99863,0.97102,0.01465,0.00000,-1.02378,-1.02173,0.01789,-0.02653,0.89704,0.03962,-0.07413,-1.30964,-1.30964,57.68930,11.98012,57.68930193,11.98011913,A,150317.00
18:52:57.577064,1.03143,0.03737,0.00000,0.00000,[5.00000 0.00000 0.00000],[1.30000 0.00000 0.00000],-0.04108,0.00354,0.02014,0.00000,0.00000,-0.00836,0.00297,0.06442,-0.03227,1.00461,0.99690,0.01465,0.00000,-1.03251,-1.03046,0.02046,-0.03169,1.02767,0.06934,-0.12973,-1.07992,-1.07992,57.68930,11.98012,57.68930188,11.98011918,A,150317.20
18:52:57.603266,1.05762,0.01239,0.00000,0.00000,[5.00000 0.00000 0.00000],[1.30000 0.00000 0.00000],-0.03936,0.00354,0.03419,0.00000,0.00000,-0.00790,0.00709,0.05606,-0.01757,0.99180,1.04851,0.01465,0.00000,-1.03993,-1.03788,0.02291,-0.03659,1.02767,0.06934,-0.12973,-1.07992,-1.07992,57.68930,11.98012,57.68930184,11.98011922,A,150317.20
18:52:57.630013,1.08438,0.01380,0.00000,0.00000,[5.00000 0.00000 0.00000],[1.30000 0.00000 0.00000],-0.03875,0.00354,0.04122,0.00000,0.00000,-0.00042,-0.00115,0.06966,-0.04154,1.00138,1.07342,0.01465,0.00000,-1.04624,-1.04418,0.02523,-0.04125,1.02767,0.06934,-0.12973,-1.07992,-1.07992,57.68930,11.98012,57.68930180,11.98011926,A,150317.20
18:52:57.656085,1.11045,0.01241,0.00000,0.00000,[5.00000 0.00000 0.00000],[1.30000 0.00000 0.00000],-0.03805,0.00354,0.03343,0.00000,0.00000,-0.00103,0.00388,0.05911,-0.02440,0.99595,1.09953,0.00977,0.00000,-1.05160,-1.04954,0.02743,-0.04567,1.02767,0.06934,-0.12973,-1.07992,-1.07992,57.68930,11.98012,57.68930176,11.98011929,A,150317.20
18:52:57.676947,1.13131,0.01045,0.00000,0.00000,[5.00000 0.00000 0.00000],[1.30000 0.00000 0.00000],-0.03754,0.00354,0.03618,0.00000,0.00000,-0.00134,0.00098,0.05984,-0.03129,0.98131,1.12148,0.01465,0.00000,-1.05616,-1.05410,0.02953,-0.04988,1.02767,0.06934,-0.12973,-1.07992,-1.07992,57.68930,11.98012,57.68930172,11.98011933,A,150317.20
18:52:57.714604,1.16896,0.02619,0.00000,0.00000,[5.00000 0.00000 0.00000],[1.30000 0.00000 0.00000],-0.03688,0.00354,0.03511,0.00000,0.00000,-0.00241,-0.00207,0.06606,-0.02111,0.98948,1.14436,0.00977,0.00000,-1.10721,-1.10516,0.03202,-0.05665,1.16523,0.07925,-0.18532,-1.39448,-1.39448,57.68930,11.98012,57.68930166,11.98011937,A,150317.30
18:52:57.738890,1.19325,0.01028,0.00000,0.00000,[5.00000 0.00000 0.00000],[1.30000 0.00000 0.00000],-0.03555,0.00354,0.03587,0.00000,0.00000,0.00294,-0.00436,0.06222,-0.01629,0.99912,1.18356,0.01221,0.00000,-1.15061,-1.14856,0.03438,-0.06308,1.16523,0.07925,-0.18532,-1.39448,-1.39448,57.68930,11.98012,57.68930160,11.98011941,A,150317.30
18:52:57.764434,1.21880,0.01360,0.00000,0.00000,[5.00000 0.00000 0.00000],[1.30000 0.00000 0.00000],-0.03479,0.00354,0.03511,0.00000,0.00000,-0.00363,-0.00085,0.06820,-0.01824,0.97508,1.20884,0.01465,0.00000,-1.18750,-1.18544,0.03662,-0.06920,1.16523,0.07925,-0.18532,-1.39448,-1.39448,57.68930,11.98012,57.68930154,11.98011945,A,150317.30
18:52:57.789619,1.24399,0.01309,0.00000,0.00000,[5.00000 0.00000 0.00000],[1.30000 0.00000 0.00000],-0.03403,0.00354,0.03847,0.00000,0.00000,-0.00271,0.00007,0.03196,-0.02062,1.01351,1.23305,0.01221,0.00000,-1.21886,-1.21680,0.03875,-0.07500,1.16523,0.07925,-0.18532,-1.39448,-1.39448,57.68930,11.98012,57.68930149,11.98011949,A,150317.30
18:52:57.828883,1.28325,0.02531,0.58864,0.58864,[5.00000 0.00000 0.00000],[1.30000 0.00000 0.00000],-0.03315,0.00354,0.03893,0.00000,0.00000,-0.00668,0.00663,0.05484,-0.01940,1.00113,1.25995,0.00977,0.11773,-1.22061,-1.21855,0.04177,-0.08330,1.27962,0.09906,-0.24092,-1.22848,-1.22848,57.68930,11.98012,57.68930142,11.98011954,A,150317.40
18:52:57.851247,1.30561,0.00959,0.58864,0.58864,[5.00000 0.00000 0.00000],[1.30000 0.00000 0.00000],-0.03215,0.00354,0.03206,0.00000,0.00000,-0.00775,-0.00345,0.07662,-0.02190,0.98771,1.29819,0.00733,0.21191,-1.22209,-1.22004,0.04541,-0.09330,1.27962,0.09906,-0.24092,-1.22848,-1.22848,57.68930,11.98012,57.68930133,11.98011960,A,150317.40
18:52:57.864622,1.31899,0.01095,0.58864,0.58864,[5.00000 0.00000 0.00000],[1.30000 0.00000 0.00000],-0.03200,0.00354,0.03267,0.00000,0.00000,-0.00485,-0.00513,0.05954,-0.01982,0.98295,1.30880,0.01221,0.28726,-1.22335,-1.22130,0.04875,-0.10248,1.27962,0.09906,-0.24092,-1.22848,-1.22848,57.68930,11.98012,57.68930125,11.98011965,A,150317.40
18:52:57.889338,1.34370,0.01216,0.58864,0.58864,[5.00000 0.00000 0.00000],[1.30000 0.00000 0.00000],-0.03144,0.00354,0.02885,0.00000,0.00000,-0.00867,-0.00467,0.04032,-0.01549,0.98375,1.33285,0.01221,0.34753,-1.22442,-1.22236,0.05321,-0.11473,1.27962,0.09906,-0.24092,-1.22848,-1.22848,57.68930,11.98012,57.68930113,11.98011973,A,150317.40
18:52:57.910711,1.36507,0.01013,0.58864,0.58864,[5.00000 0.00000 0.00000],[1.30000 0.00000 0.00000],-0.03082,0.00354,0.03083,0.00000,0.00000,-0.00577,0.00175,0.06076,-0.01177,0.97929,1.35597,0.01221,0.39575,-1.22532,-1.22326,0.05772,-0.12715,1.27962,0.09906,-0.24092,-1.22848,-1.22848,57.68930,11.98012,57.68930102,11.98011980,A,150317.40
18:52:57.949018,1.40338,0.02593,0.58864,0.58864,[5.00000 0.00000 0.00000],[1.30000 0.00000 0.00000],-0.03029,0.00354,0.03083,0.00000,0.00000,-0.00347,0.00220,0.05710,-0.01708,0.99601,1.37888,0.00733,0.43433,-1.20378,-1.20172,0.06551,-0.14776,1.39955,0.11887,-0.27799,-1.07992,-1.07992,57.68930,11.98012,57.68930084,11.98011994,A,150317.50
18:52:57.969543,1.42390,0.01052,0.58864,0.58864,[5.00000 0.00000 0.00000],[1.30000 0.00000 0.00000],-0.02973,0.00354,0.01969,0.00000,0.00000,-0.00210,-0.00421,0.06271,-0.01440,0.99753,1.41465,0.01954,0.46519,-1.18549,-1.18343,0.07084,-0.16114,1.39955,0.11887,-0.27799,-1.07992,-1.07992,57.68930,11.98012,57.68930072,11.98012003,A,150317.50
18:52:57.992314,1.44668,0.01058,0.58864,0.58864,[5.00000 0.00000 0.00000],[1.30000 0.00000 0.00000],-0.02943,0.00354,0.01663,0.00000,0.00000,-0.00882,-0.00925,0.05948,-0.01116,0.98783,1.43820,0.01221,0.48988,-1.16994,-1.16788,0.07681,-0.17574,1.39955,0.11887,-0.27799,-1.07992,-1.07992,57.68930,11.98012,57.68930059,11.98012013,A,150317.50
18:52:58.019987,1.47435,0.01195,0.58864,0.58864,[5.00000 0.00000 0.00000],[1.30000 0.00000 0.00000],-0.02934,0.00354,0.00976,0.00000,0.00000,-0.00149,-0.00833,0.07509,-0.01501,0.97624,1.46440,0.01709,0.50963,-1.15671,-1.15466,0.08331,-0.19118,1.39955,0.11887,-0.27799,-1.07992,-1.07992,57.68930,11.98012,57.68930045,11.98012024,A,150317.50
18:52:58.048175,1.50250,0.01363,0.58864,0.58864,[5.00000 0.00000 0.00000],[1.30000 0.00000 0.00000],-0.02926,0.00354,0.00503,0.00000,0.00000,-0.00164,-0.00299,0.04105,-0.00781,0.98649,1.49170,0.01221,0.52543,-1.14547,-1.14341,0.08975,-0.20606,1.39955,0.11887,-0.27799,-1.07992,-1.07992,57.68930,11.98012,57.68930031,11.98012034,A,150317.50
18:52:58.098655,1.55302,0.03824,0.58864,0.58864,[5.00000 0.00000 0.00000],[1.30000 0.00000 0.00000],-0.02923,0.00354,0.00396,0.00000,0.00000,0.00828,-0.00467,0.08168,-0.00958,0.99680,1.51855,0.01465,0.53807,-1.14665,-1.14460,0.10382,-0.23748,1.54895,0.16840,-0.38918,-1.15175,-1.15175,57.68930,11.98012,57.68930003,11.98012058,A,150317.70
18:52:58.121075,1.57544,0.00997,0.58864,0.58864,[5.00000 0.00000 0.00000],[1.30000 0.00000 0.00000],-0.02986,0.00147,-0.00796,0.00000,0.00000,0.00355,-0.01566,0.07204,-0.02135,0.99717,1.56689,0.01221,0.54819,-1.14752,-1.14666,0.11111,-0.25399,1.54895,0.16840,-0.38918,-1.15175,-1.15175,57.68930,11.98012,57.68929988,11.98012070,A,150317.70
18:52:58.131411,1.58578,0.00933,0.58864,0.58864,[5.00000 0.00000 0.00000],[1.30000 0.00000 0.00000],-0.03017,0.00085,-0.00704,0.00000,0.00000,-0.00439,-0.01108,0.08680,-0.02043,0.98167,1.57773,0.00733,0.55628,-1.14822,-1.14773,0.11572,-0.26462,1.54895,0.16840,-0.38918,-1.15175,-1.15175,57.68930,11.98012,57.68929979,11.98012078,A,150317.70
18:52:58.143072,1.59743,0.01063,0.58864,0.58864,[5.00000 0.00000 0.00000],[1.30000 0.00000 0.00000],-0.03052,0.00037,-0.00704,0.00000,0.00000,-0.00378,-0.00696,0.07936,-0.02391,0.97630,1.58729,0.01221,0.56275,-1.14878,-1.14857,0.11981,-0.27408,1.54895,0.16840,-0.38918,-1.15175,-1.15175,57.68930,11.98012,57.68929970,11.98012085,A,150317.70
18:52:58.171214,1.62557,0.01262,0.70968,0.70968,[5.00000 0.00000 0.00000],[1.30000 0.00000 0.00000],-0.03048,-0.00034,0.00273,0.00000,0.00000,-0.00332,-0.00436,0.03575,-0.00872,0.99576,1.61467,0.01221,0.59214,-1.14920,-1.14939,0.12738,-0.29128,1.54895,0.16840,-0.38918,-1.15175,-1.15175,57.68930,11.98012,57.68929955,11.98012098,A,150317.70
18:52:58.195918,1.65028,0.01145,0.70968,0.70968,[5.00000 0.00000 0.00000],[1.30000 0.00000 0.00000],-0.03080,-0.00093,-0.00292,0.00000,0.00000,-0.00546,-0.00711,0.07454,-0.02159,0.99729,1.64231,0.00977,0.61564,-1.14950,-1.15004,0.13461,-0.30774,1.54895,0.16840,-0.38918,-1.15175,-1.15175,57.68930,11.98012,57.68929940,11.98012110,A,150317.70
18:52:58.235031,1.68940,0.02612,0.70968,0.70968,[5.00000 0.00000 0.00000],[1.30000 0.00000 0.00000],-0.03095,-0.00116,-0.00200,0.00000,0.00000,-0.00363,-0.01184,0.04410,-0.01324,1.00223,1.66602,0.00733,0.63445,-1.17344,-1.17411,0.14622,-0.33547,1.68562,0.18821,-0.46331,-1.30964,-1.30964,57.68930,11.98012,57.68929915,11.98012129,A,150317.80
18:52:58.260944,1.71531,0.01184,0.70968,0.70968,[5.00000 0.00000 0.00000],[1.30000 0.00000 0.00000],-0.03098,-0.00116,-0.00017,0.00000,0.00000,-0.00607,-0.01215,0.06313,-0.00787,0.99784,1.70520,0.00733,0.64950,-1.19378,-1.19445,0.15345,-0.35412,1.68562,0.18821,-0.46331,-1.30964,-1.30964,57.68930,11.98012,57.68929898,11.98012142,A,150317.80
18:52:58.283418,1.73779,0.00889,0.70968,0.70968,[5.00000 0.00000 0.00000],[1.30000 0.00000 0.00000],-0.03089,-0.00116,0.00625,0.00000,0.00000,-0.00378,-0.00574,0.03648,-0.01080,0.99241,1.73041,0.02686,0.66153,-1.21107,-1.21174,0.15980,-0.37125,1.68562,0.18821,-0.46331,-1.30964,-1.30964,57.68930,11.98012,57.68929883,11.98012152,A,150317.80
18:52:58.295946,1.75031,0.01046,0.70968,0.70968,[5.00000 0.00000 0.00000],[1.30000 0.00000 0.00000],-0.03091,-0.00116,0.00808,0.00000,0.00000,-0.00286,-0.00451,0.05636,-0.01366,0.99265,1.74136,0.02686,0.67116,-1.22576,-1.22643,0.16335,-0.38152,1.68562,0.18821,-0.46331,-1.30964,-1.30964,57.68930,11.98012,57.68929874,11.98012158,A,150317.80
18:52:58.319760,1.77413,0.01161,0.70968,0.70968,[5.00000 0.00000 0.00000],[1.30000 0.00000 0.00000],-0.03081,-0.00116,0.00900,0.00000,0.00000,-0.00210,-0.00635,0.06777,-0.01232,0.98204,1.76359,0.01465,0.67887,-1.23825,-1.23893,0.16897,-0.39781,1.68562,0.18821,-0.46331,-1.30964,-1.30964,57.68930,11.98012,57.68929859,11.98012168,A,150317.80
18:52:58.370399,1.82446,0.03594,0.70968,0.70968,[5.00000 0.00000 0.00000],[1.30000 0.00000 0.00000],-0.03069,-0.00116,0.01281,0.00000,0.00000,-0.00561,-0.01017,0.05600,-0.02025,0.97356,1.79062,0.01465,0.68503,-1.21443,-1.21511,0.18414,-0.43823,1.82085,0.26746,-0.61157,-1.07992,-1.07992,57.68930,11.98012,57.68929823,11.98012193,A,150318.00
18:52:58.395060,1.84942,0.01138,0.70968,0.70968,[5.00000 0.00000 0.00000],[1.30000 0.00000 0.00000],-0.03008,-0.00116,0.01358,0.00000,0.00000,-0.00225,-0.01673,0.05484,-0.00933,1.01229,1.83945,0.00488,0.68996,-1.19417,-1.19484,0.19307,-0.45972,1.82085,0.26746,-0.61157,-1.07992,-1.07992,57.68930,11.98012,57.68929803,11.98012208,A,150318.00
18:52:58.421620,1.87598,0.01222,0.70968,0.70968,[5.00000 0.00000 0.00000],[1.30000 0.00000 0.00000],-0.02978,-0.00116,0.01709,0.00000,0.00000,-0.00760,-0.01246,0.06124,-0.01543,0.99515,1.86596,0.01465,0.69390,-1.17694,-1.17762,0.20258,-0.48198,1.82085,0.26746,-0.61157,-1.07992,-1.07992,57.68930,11.98012,57.68929783,11.98012224,A,150318.00
18:52:58.449917,1.90427,0.01387,0.70968,0.70968,[5.00000 0.00000 0.00000],[1.30000 0.00000 0.00000],-0.02932,-0.00116,0.01831,0.00000,0.00000,-0.00958,-0.00467,0.03544,-0.00622,0.99442,1.89269,0.01221,0.69706,-1.16230,-1.16298,0.21178,-0.50282,1.82085,0.26746,-0.61157,-1.07992,-1.07992,57.68930,11.98012,57.68929764,11.98012240,A,150318.00
18:52:58.491954,1.94632,0.02646,0.80367,0.80367,[5.00000 0.00000 0.00000],[1.30000 0.00000 0.00000],-0.02892,-0.00116,0.01342,0.00000,0.00000,-0.00134,-0.00558,0.06844,-0.00476,0.96173,1.92259,0.01221,0.71838,-1.19705,-1.19773,0.22576,-0.53581,1.94255,0.27736,-0.66717,-1.39448,-1.39448,57.68930,11.98012,57.68929735,11.98012263,A,150318.10
18:52:58.517637,1.97129,0.01087,0.80367,0.80367,[5.00000 0.00000 0.00000],[1.30000 0.00000 0.00000],-0.02858,-0.00116,0.00823,0.00000,0.00000,0.00309,-0.01414,0.04764,-0.00256,0.98533,1.96150,0.01221,0.73544,-1.22658,-1.22725,0.23408,-0.55704,1.94255,0.27736,-0.66717,-1.39448,-1.39448,57.68930,11.98012,57.68929716,11.98012277,A,150318.10
18:52:58.543726,1.99748,0.01129,0.80367,0.80367,[5.00000 0.00000 0.00000],[1.30000 0.00000 0.00000],-0.02851,-0.00116,0.01174,0.00000,0.00000,-0.00241,-0.01184,0.06600,-0.01946,0.99765,1.98779,0.00977,0.74908,-1.25168,-1.25235,0.24165,-0.57767,1.94255,0.27736,-0.66717,-1.39448,-1.39448,57.68930,11.98012,57.68929697,11.98012290,A,150318.10
18:52:58.562726,2.01709,0.00736,0.80367,0.80367,[5.00000 0.00000 0.00000],[1.30000 0.00000 0.00000],-0.02831,-0.00116,0.01342,0.00000,0.00000,0.00080,-0.00390,0.05636,-0.01043,1.00241,2.00995,0.00977,0.76000,-1.27301,-1.27368,0.24735,-0.59400,1.94255,0.27736,-0.66717,-1.39448,-1.39448,57.68930,11.98012,57.68929682,11.98012300,A,150318.10
18:52:58.580400,2.03474,0.01461,0.80367,0.80367,[5.00000 0.00000 0.00000],[1.30000 0.00000 0.00000],-0.02835,-0.00116,0.01174,0.00000,0.00000,-0.00134,-0.00115,0.07814,-0.01482,1.00382,2.02069,0.00977,0.76874,-1.29113,-1.29181,0.25104,-0.60482,1.94255,0.27736,-0.66717,-1.39448,-1.39448,57.68930,11.98012,57.68929673,11.98012306,A,150318.10
18:52:58.617078,2.07144,0.02477,0.80367,0.80367,[5.00000 0.00000 0.00000],[1.30000 0.00000 0.00000],-0.02811,-0.00116,0.01358,0.00000,0.00000,-0.00485,-0.00177,0.03562,-0.01098,0.99772,2.04692,0.01221,0.77572,-1.25938,-1.26005,0.26290,-0.64072,2.06649,0.32689,-0.75983,-1.07992,-1.07992,57.68930,11.98012,57.68929640,11.98012326,A,150318.20
18:52:58.640282,2.09465,0.01314,0.80367,0.80367,[5.00000 0.00000 0.00000],[1.30000 0.00000 0.00000],-0.02884,-0.00116,0.01984,0.00000,0.00000,0.00508,-0.00009,0.35563,-0.10455,1.04700,2.08330,0.07814,0.78131,-1.23237,-1.23304,0.27022,-0.65951,2.06649,0.32689,-0.75983,-1.07992,-1.07992,57.68930,11.98012,57.68929624,11.98012338,A,150318.20
18:52:58.663547,2.11791,0.01305,0.80367,0.80367,[5.00000 0.00000 0.00000],[1.30000 0.00000 0.00000],-0.02764,-0.00116,0.02274,0.00000,0.00000,-0.00134,0.01519,-0.09309,0.04044,1.01284,2.10701,0.02442,0.78578,-1.20942,-1.21009,0.27817,-0.67908,2.06649,0.32689,-0.75983,-1.07992,-1.07992,57.68930,11.98012,57.68929606,11.98012351,A,150318.20
18:52:58.691289,2.14564,0.01375,0.80367,0.80367,[5.00000 0.00000 0.00000],[1.30000 0.00000 0.00000],-0.02739,-0.00116,0.01510,0.00000,0.00000,0.00905,0.00053,0.05905,-0.01379,0.99601,2.13494,0.02198,0.78936,-1.18991,-1.19058,0.28689,-0.69980,2.06649,0.32689,-0.75983,-1.07992,-1.07992,57.68930,11.98012,57.68929587,11.98012366,A,150318.20
18:52:58.733175,2.18754,0.02597,0.98689,0.98689,[5.00000 0.00000 0.00000],[1.30000 0.00000 0.00000],-0.02793,-0.00108,0.00823,0.00000,0.00000,-0.00134,-0.01963,0.20142,-0.06240,1.14162,2.16369,0.01221,0.82887,-1.18636,-1.18699,0.30230,-0.73604,2.18253,0.36651,-0.85249,-1.16672,-1.16672,57.68929,11.98012,57.68929555,11.98012392,A,150318.30
18:52:58.759309,2.21367,0.01469,0.98689,0.98689,[5.00000 0.00000 0.00000],[1.30000 0.00000 0.00000],-0.02742,-0.00006,0.05252,0.00000,0.00000,0.01103,0.00083,0.24534,-0.09113,0.87791,2.20263,0.02686,0.86047,-1.18343,-1.18346,0.31214,-0.75827,2.18253,0.36651,-0.85249,-1.16672,-1.16672,57.68929,11.98012,57.68929535,11.98012409,A,150318.30
18:52:58.777349,2.23170,0.00944,0.98689,0.98689,[5.00000 0.00000 0.00000],[1.30000 0.00000 0.00000],-0.02852,0.00031,0.05313,0.00000,0.00000,-0.07556,0.02496,0.32733,-0.15360,1.06201,2.22201,0.01954,0.88576,-1.18095,-1.18077,0.31940,-0.77411,2.18253,0.36651,-0.85249,-1.16672,-1.16672,57.68929,11.98012,57.68929520,11.98012421,A,150318.30
18:52:58.789068,2.24343,0.01042,0.98689,0.98689,[5.00000 0.00000 0.00000],[1.30000 0.00000 0.00000],-0.03210,0.00031,0.03954,0.00000,0.00000,-0.04837,0.02099,-0.18916,-0.30896,1.11667,2.23243,0.00000,0.90598,-1.17884,-1.17866,0.32434,-0.78432,2.18253,0.36651,-0.85249,-1.16672,-1.16672,57.68929,11.98012,57.68929511,11.98012429,A,150318.30
18:52:58.814644,2.26750,0.01128,0.98689,0.98689,[5.00000 0.00000 0.00000],[1.30000 0.00000 0.00000],-0.02868,0.00042,0.08245,0.00000,0.00000,0.10037,0.00434,0.53881,0.07741,0.97161,2.25849,0.00488,0.92217,-1.17705,-1.17681,0.33338,-0.80448,2.18253,0.36651,-0.85249,-1.16672,-1.16672,57.68929,11.98012,57.68929493,11.98012444,A,150318.30
18:52:58.854377,2.30851,0.02618,0.98689,0.98689,[5.00000 0.00000 0.00000],[1.30000 0.00000 0.00000],-0.03346,0.00045,0.03618,0.00000,0.00000,-0.07937,-0.01475,0.83893,-0.26785,0.66459,2.28384,0.01221,0.93511,-1.20969,-1.20943,0.34881,-0.84159,2.30358,0.37642,-0.90809,-1.39448,-1.39448,57.68929,11.98013,57.68929460,11.98012470,A,150318.40
18:52:58.879110,2.33347,0.01233,0.98689,0.98689,[5.00000 0.00000 0.00000],[1.30000 0.00000 0.00000],-0.02877,0.00198,0.02503,0.00000,0.00000,0.09274,-0.02360,0.72749,0.33611,1.38568,2.32393,0.00244,0.94547,-1.23758,-1.23643,0.35735,-0.86387,2.30358,0.37642,-0.90809,-1.39448,-1.39448,57.68929,11.98013,57.68929440,11.98012485,A,150318.40
18:52:58.903991,2.35836,0.01265,0.98689,0.98689,[5.00000 0.00000 0.00000],[1.30000 0.00000 0.00000],-0.03011,0.00374,0.08719,0.00000,0.00000,-0.12107,0.01030,-0.22948,-0.24064,1.05841,2.34680,0.00000,0.95375,-1.26141,-1.25924,0.36434,-0.88347,2.30358,0.37642,-0.90809,-1.39448,-1.39448,57.68929,11.98013,57.68929422,11.98012496,A,150318.40
18:52:58.925517,2.37988,0.00969,0.98689,0.98689,[5.00000 0.00000 0.00000],[1.30000 0.00000 0.00000],-0.01969,0.00453,-0.00628,0.00000,0.00000,0.10495,0.02649,0.48562,0.84119,1.00125,2.36998,0.03175,0.96038,-1.28172,-1.27909,0.36974,-0.89959,2.30358,0.37642,-0.90809,-1.39448,-1.39448,57.68929,11.98013,57.68929408,11.98012505,A,150318.40
18:52:58.936587,2.39093,0.00906,0.98689,0.98689,[5.00000 0.00000 0.00000],[1.30000 0.00000 0.00000],-0.00925,0.00453,0.02381,0.00000,0.00000,0.03333,0.00343,0.68375,0.72090,0.88572,2.38131,0.00733,0.96568,-1.29900,-1.29637,0.37216,-0.90696,2.30358,0.37642,-0.90809,-1.39448,-1.39448,57.68929,11.98013,57.68929401,11.98012510,A,150318.40
18:52:58.949464,2.40383,0.01181,0.98689,0.98689,[5.00000 0.00000 0.00000],[1.30000 0.00000 0.00000],-0.00831,0.00453,0.07085,0.00000,0.00000,-0.09480,0.00388,0.22753,0.02068,0.88804,2.39318,0.02198,0.96993,-1.31369,-1.31105,0.37472,-0.91535,2.30358,0.37642,-0.90809,-1.39448,-1.39448,57.68929,11.98013,57.68929393,11.98012514,A,150318.40
18:52:59.001681,2.45605,0.03829,0.98308,0.98308,[5.00000 0.00000 0.00000],[1.30000 0.00000 0.00000],-0.01111,0.00453,0.00380,0.00000,0.00000,0.00874,-0.00360,-0.24363,-0.21106,1.18084,2.42048,0.00977,0.97256,-1.29687,-1.29424,0.39086,-0.97067,2.45092,0.45567,-1.11195,-1.20004,-1.20004,57.68929,11.98013,57.68929344,11.98012541,A,150318.60
18:52:59.025314,2.47967,0.01098,0.98308,0.98308,[5.00000 0.00000 0.00000],[1.30000 0.00000 0.00000],-0.00728,0.00453,0.01510,0.00000,0.00000,-0.06517,0.00450,-0.11346,0.23125,1.02736,2.46879,0.00000,0.97466,-1.28268,-1.28004,0.39898,-0.99495,2.45092,0.45567,-1.11195,-1.20004,-1.20004,57.68929,11.98013,57.68929322,11.98012555,A,150318.60
18:52:59.048931,2.50330,0.01284,0.98308,0.98308,[5.00000 0.00000 0.00000],[1.30000 0.00000 0.00000],-0.00797,0.00453,-0.01849,0.00000,0.00000,0.03837,-0.02574,0.17513,-0.00092,1.06414,2.49150,0.00244,0.97634,-1.27061,-1.26798,0.40734,-1.01926,2.45092,0.45567,-1.11195,-1.20004,-1.20004,57.68929,11.98013,57.68929300,11.98012569,A,150318.60
18:52:59.070441,2.52479,0.01222,0.98308,0.98308,[5.00000 0.00000 0.00000],[1.30000 0.00000 0.00000],-0.00683,0.00453,-0.01193,0.00000,0.00000,-0.01691,0.00679,0.18398,0.11084,1.00754,2.51304,0.00488,0.97769,-1.26036,-1.25773,0.41432,-1.03849,2.45092,0.45567,-1.11195,-1.20004,-1.20004,57.68929,11.98013,57.68929283,11.98012580,A,150318.60
18:52:59.097301,2.55166,0.01266,0.98308,0.98308,[5.00000 0.00000 0.00000],[1.30000 0.00000 0.00000],-0.00647,0.00447,-0.03086,0.00000,0.00000,0.05059,-0.01246,0.07393,0.09772,0.99643,2.54032,0.00244,0.97877,-1.25162,-1.24902,0.42360,-1.06444,2.45092,0.45567,-1.11195,-1.20004,-1.20004,57.68929,11.98013,57.68929259,11.98012596,A,150318.60
18:52:59.140207,2.59458,0.02905,0.98308,0.98308,[5.00000 0.00000 0.00000],[1.30000 0.00000 0.00000],-0.00952,0.00303,-0.03560,0.00000,0.00000,-0.04043,-0.01704,0.03349,-0.12212,1.00180,2.56768,0.00244,0.97963,-1.24244,-1.24068,0.43879,-1.10683,2.58917,0.48538,-1.18608,-1.18953,-1.18953,57.68929,11.98013,57.68929221,11.98012622,A,150318.70
18:52:59.166650,2.62056,0.01267,1.29327,1.29327,[5.00000 0.00000 0.00000],[1.30000 0.00000 0.00000],-0.01172,0.00192,-0.04354,0.00000,0.00000,0.02447,0.00999,0.26944,-0.00891,0.97063,2.61035,0.00488,1.04236,-1.23462,-1.23350,0.44789,-1.13056,2.58917,0.48538,-1.18608,-1.18953,-1.18953,57.68929,11.98013,57.68929200,11.98012637,A,150318.70
18:52:59.196477,2.65084,0.01511,1.29327,1.29327,[5.00000 0.00000 0.00000],[1.30000 0.00000 0.00000],-0.01150,0.00192,-0.04949,0.00000,0.00000,0.01424,0.00083,-0.05649,0.12218,1.02773,2.63821,0.00488,1.09254,-1.22799,-1.22687,0.45815,-1.15724,2.58917,0.48538,-1.18608,-1.18953,-1.18953,57.68929,11.98013,57.68929176,11.98012654,A,150318.70
18:52:59.225975,2.68034,0.01717,3.78533,1.29327,[5.00000 0.00000 0.00000],[1.30000 0.00000 0.00000],-0.01373,0.00192,-0.05682,0.00000,0.00000,0.00309,-0.00513,0.21899,-0.01501,0.94806,2.67019,0.00244,1.13269,-1.22235,-1.22123,0.46830,-1.18320,2.58917,0.48538,-1.18608,-1.18953,-1.18953,57.68929,11.98013,57.68929153,11.98012671,A,150318.70
18:52:59.278853,2.73321,0.03948,3.78533,1.29327,[5.00000 0.00000 0.00000],[1.30000 0.00000 0.00000],-0.01444,0.00192,-0.03819,0.00000,0.00000,0.02936,-0.00177,-0.06283,0.03300,1.00040,2.69786,0.00244,1.16480,-1.21286,-1.21174,0.49243,-1.24518,2.72820,0.57454,-1.38994,-1.15853,-1.15853,57.68929,11.98013,57.68929097,11.98012712,A,150318.90
18:52:59.305612,2.75997,0.01402,3.78533,1.29327,[5.00000 0.00000 0.00000],[1.30000 0.00000 0.00000],-0.01759,0.00192,-0.02705,0.00000,0.00000,0.00279,0.01885,0.02098,-0.10962,1.00119,2.74893,0.01465,1.19050,-1.20484,-1.20372,0.50548,-1.27624,2.72820,0.57454,-1.38994,-1.15853,-1.15853,57.68929,11.98013,57.68929069,11.98012734,A,150318.90
18:52:59.329675,2.78404,0.01120,3.78533,1.29327,[5.00000 0.00000 0.00000],[1.30000 0.00000 0.00000],-0.01701,0.00192,-0.02934,0.00000,0.00000,0.00920,0.01030,0.18544,0.10047,1.01480,2.77641,0.00733,1.21105,-1.19802,-1.19690,0.51826,-1.30619,2.72820,0.57454,-1.38994,-1.15853,-1.15853,57.68929,11.98013,57.68929042,11.98012755,A,150318.90
18:52:59.356857,2.81122,0.01414,3.78533,1.29327,[5.00000 0.00000 0.00000],[1.30000 0.00000 0.00000],-0.01801,0.00198,-0.01101,0.00000,0.00000,0.02035,0.01335,0.00628,-0.04392,1.04694,2.79945,0.00244,1.22749,-1.19223,-1.19108,0.53048,-1.33434,2.72820,0.57454,-1.38994,-1.15853,-1.15853,57.68929,11.98013,57.68929017,11.98012776,A,150318.90
18:52:59.397489,2.85185,0.02695,1.55414,1.55414,[5.00000 0.00000 0.00000],[1.30000 0.00000 0.00000],-0.01804,0.00286,-0.02170,0.00000,0.00000,0.02233,0.00801,0.14097,0.04282,0.96740,2.82699,0.00733,1.29282,-1.18476,-1.18309,0.55256,-1.38597,2.84704,0.63397,-1.51966,-1.14118,-1.14118,57.68929,11.98013,57.68928970,11.98012813,A,150319.00
18:52:59.421721,2.87608,0.01316,1.55414,1.55414,[5.00000 0.00000 0.00000],[1.30000 0.00000 0.00000],-0.01880,0.00359,-0.00933,0.00000,0.00000,0.00966,-0.00009,0.10358,-0.01867,0.96813,2.86632,0.02198,1.34509,-1.17848,-1.17639,0.56620,-1.41609,2.84704,0.63397,-1.51966,-1.14118,-1.14118,57.68929,11.98013,57.68928943,11.98012836,A,150319.00
18:52:59.444574,2.89893,0.01136,1.55414,1.55414,[5.00000 0.00000 0.00000],[1.30000 0.00000 0.00000],-0.01930,0.00359,0.01144,0.00000,0.00000,-0.01187,0.00831,0.05783,-0.04416,1.00229,2.88898,0.01954,1.38690,-1.17313,-1.17104,0.57936,-1.44476,2.84704,0.63397,-1.51966,-1.14118,-1.14118,57.68929,11.98013,57.68928917,11.98012858,A,150319.00
18:52:59.469568,2.92394,0.01005,1.55414,1.55414,[5.00000 0.00000 0.00000],[1.30000 0.00000 0.00000],-0.01979,0.00359,0.00273,0.00000,0.00000,-0.00821,0.00526,0.04117,-0.03178,1.02754,2.91543,0.00244,1.42034,-1.16856,-1.16647,0.59379,-1.47619,2.84704,0.63397,-1.51966,-1.14118,-1.14118,57.68929,11.98013,57.68928889,11.98012882,A,150319.00
18:52:59.495438,2.94981,0.01226,1.55414,1.55414,[5.00000 0.00000 0.00000],[1.30000 0.00000 0.00000],-0.01964,0.00359,0.01373,0.00000,0.00000,-0.01783,0.00404,0.11096,-0.00744,0.97673,2.94071,0.01954,1.44710,-1.16468,-1.16259,0.60836,-1.50772,2.84704,0.63397,-1.51966,-1.14118,-1.14118,57.68929,11.98013,57.68928861,11.98012907,A,150319.00
18:52:59.536122,2.99049,0.02845,1.55414,1.55414,[5.00000 0.00000 0.00000],[1.30000 0.00000 0.00000],-0.01951,0.00359,0.00289,0.00000,0.00000,-0.00241,0.00114,-0.01531,0.00982,0.99772,2.96367,0.01465,1.46851,-1.15213,-1.15004,0.63387,-1.56303,2.98565,0.69341,-1.63086,-1.07992,-1.07992,57.68929,11.98013,57.68928811,11.98012950,A,150319.10
18:52:59.556078,3.01016,0.01106,1.50949,1.50949,[5.00000 0.00000 0.00000],[1.30000 0.00000 0.00000],-0.01936,0.00359,0.00060,0.00000,0.00000,-0.02195,-0.00345,0.04404,0.01452,0.97563,2.99970,0.00488,1.47671,-1.14155,-1.13946,0.64646,-1.58789,2.98565,0.69341,-1.63086,-1.07992,-1.07992,57.68929,11.98013,57.68928789,11.98012971,A,150319.10
18:52:59.579432,3.03380,0.01075,1.50949,1.50949,[5.00000 0.00000 0.00000],[1.30000 0.00000 0.00000],-0.01944,0.00359,0.01358,0.00000,0.00000,-0.01615,-0.00360,0.07369,-0.02190,1.02596,3.02423,0.01709,1.48326,-1.13253,-1.13044,0.66194,-1.61858,2.98565,0.69341,-1.63086,-1.07992,-1.07992,57.68929,11.98013,57.68928761,11.98012997,A,150319.10
18:52:59.601501,3.05537,0.01036,1.50949,1.50949,[5.00000 0.00000 0.00000],[1.30000 0.00000 0.00000],-0.01937,0.00359,0.00823,0.00000,0.00000,-0.00943,0.00068,0.09229,-0.00104,1.06817,3.04551,0.01221,1.48851,-1.12488,-1.12279,0.67430,-1.64209,2.98565,0.69341,-1.63086,-1.07992,-1.07992,57.68929,11.98013,57.68928740,11.98013018,A,150319.10
18:52:59.627344,3.08170,0.01357,1.50949,1.50949,[5.00000 0.00000 0.00000],[1.30000 0.00000 0.00000],-0.01915,0.00359,0.01877,0.00000,0.00000,-0.01539,0.00358,0.03721,-0.01128,1.01303,3.07092,0.01954,1.49271,-1.11836,-1.11627,0.68897,-1.67005,2.98565,0.69341,-1.63086,-1.07992,-1.07992,57.68929,11.98013,57.68928715,11.98013043,A,150319.10
18:52:59.675057,3.12942,0.03751,1.50949,1.50949,[5.00000 0.00000 0.00000],[1.30000 0.00000 0.00000],-0.01916,0.00359,0.01129,0.00000,0.00000,-0.02363,-0.00024,0.12786,-0.01037,0.92738,3.09404,0.00977,1.49606,-1.12784,-1.12575,0.72331,-1.73982,3.12456,0.79246,-1.87178,-1.18071,-1.18071,57.68929,11.98013,57.68928652,11.98013100,A,150319.30
18:52:59.699529,3.15389,0.01381,1.50949,1.50949,[5.00000 0.00000 0.00000],[1.30000 0.00000 0.00000],-0.01909,0.00359,0.01908,0.00000,0.00000,-0.01416,0.00633,0.03367,-0.05094,1.02724,3.14211,0.01221,1.49875,-1.13600,-1.13391,0.73993,-1.77403,3.12456,0.79246,-1.87178,-1.18071,-1.18071,57.68929,11.98013,57.68928621,11.98013128,A,150319.30
18:52:59.727759,3.18212,0.01383,1.32200,1.32200,[5.00000 0.00000 0.00000],[1.30000 0.00000 0.00000],-0.01829,0.00359,0.01816,0.00000,0.00000,0.01073,0.01290,0.04429,0.02336,0.97027,3.17157,0.01954,1.46340,-1.14292,-1.14083,0.75743,-1.81077,3.12456,0.79246,-1.87178,-1.18071,-1.18071,57.68929,11.98013,57.68928588,11.98013158,A,150319.30
18:52:59.752026,3.20639,0.01198,1.32200,1.32200,[5.00000 0.00000 0.00000],[1.30000 0.00000 0.00000],-0.01831,0.00359,0.01083,0.00000,0.00000,0.00401,0.00358,0.10205,-0.01183,0.97838,3.19582,0.00733,1.43512,-1.14882,-1.14673,0.77138,-1.84040,3.12456,0.79246,-1.87178,-1.18071,-1.18071,57.68929,11.98013,57.68928562,11.98013181,A,150319.30
18:52:59.791696,3.24607,0.02639,1.32200,1.32200,[5.00000 0.00000 0.00000],[1.30000 0.00000 0.00000],-0.01884,0.00359,0.01022,0.00000,0.00000,-0.02470,-0.00574,0.05716,-0.04697,1.03285,3.22121,0.01221,1.41249,-1.14784,-1.14575,0.79750,-1.89741,3.24124,0.85190,-2.00151,-1.14118,-1.14118,57.68928,11.98013,57.68928510,11.98013225,A,150319.40
18:52:59.818046,3.27241,0.01376,1.32200,1.32200,[5.00000 0.00000 0.00000],[1.30000 0.00000 0.00000],-0.01824,0.00359,0.01006,0.00000,0.00000,-0.05280,-0.00146,0.07320,0.01940,0.98497,3.26202,0.01709,1.39440,-1.14707,-1.14498,0.81277,-1.93034,3.24124,0.85190,-2.00151,-1.14118,-1.14118,57.68928,11.98013,57.68928481,11.98013251,A,150319.40
18:52:59.843354,3.29771,0.01327,1.32200,1.32200,[5.00000 0.00000 0.00000],[1.30000 0.00000 0.00000],-0.01798,0.00359,0.01801,0.00000,0.00000,-0.04761,0.01564,0.01074,-0.00506,0.99320,3.28685,0.01709,1.37992,-1.14642,-1.14433,0.82696,-1.96086,3.24124,0.85190,-2.00151,-1.14118,-1.14118,57.68928,11.98013,57.68928453,11.98013275,A,150319.40
18:52:59.869995,3.32436,0.01383,1.66454,1.66454,[5.00000 0.00000 0.00000],[1.30000 0.00000 0.00000],-0.01683,0.00359,0.01663,0.00000,0.00000,-0.02883,0.01213,0.08265,0.05094,0.94739,3.31442,0.01221,1.43684,-1.14586,-1.14377,0.84090,-1.99083,3.24124,0.85190,-2.00151,-1.14118,-1.14118,57.68928,11.98013,57.68928426,11.98013298,A,150319.40
18:52:59.908467,3.36284,0.02666,1.66454,1.66454,[5.00000 0.00000 0.00000],[1.30000 0.00000 0.00000],-0.01623,0.00359,0.01449,0.00000,0.00000,-0.03600,0.00877,0.02385,0.02385,0.91189,3.33810,0.00733,1.48238,-1.14533,-1.14324,0.86520,-2.04351,3.35769,0.91133,-2.13124,-1.14118,-1.14118,57.68928,11.98013,57.68928379,11.98013339,A,150319.50
18:52:59.932289,3.38666,0.01130,1.66454,1.66454,[5.00000 0.00000 0.00000],[1.30000 0.00000 0.00000],-0.01616,0.00359,0.00365,0.00000,0.00000,-0.02653,-0.00864,0.03282,0.00464,1.03114,3.37623,0.00977,1.51881,-1.14494,-1.14285,0.87920,-2.07356,3.35769,0.91133,-2.13124,-1.14118,-1.14118,57.68928,11.98013,57.68928352,11.98013363,A,150319.50
18:52:59.957139,3.41149,0.01348,1.66454,1.66454,[5.00000 0.00000 0.00000],[1.30000 0.00000 0.00000],-0.01624,0.00359,0.01052,0.00000,0.00000,0.00294,-0.00085,0.04044,-0.01354,1.02071,3.40151,0.00488,1.54796,-1.14461,-1.14252,0.89387,-2.10509,3.35769,0.91133,-2.13124,-1.14118,-1.14118,57.68928,11.98013,57.68928324,11.98013387,A,150319.50
18:52:59.982476,3.43683,0.01195,1.66454,1.66454,[5.00000 0.00000 0.00000],[1.30000 0.00000 0.00000],-0.01602,0.00359,0.00396,0.00000,0.00000,-0.01264,0.00587,0.16342,0.01635,0.93239,3.42617,0.01221,1.57127,-1.14431,-1.14222,0.90841,-2.13634,3.35769,0.91133,-2.13124,-1.14118,-1.14118,57.68928,11.98013,57.68928295,11.98013412,A,150319.50
18:53:00.022974,3.47734,0.02800,1.66454,1.66454,[5.00000 0.00000 0.00000],[1.30000 0.00000 0.00000],-0.01590,0.00359,0.01281,0.00000,0.00000,-0.03356,0.00282,0.06759,-0.00421,0.98149,3.45215,0.00488,1.58993,-1.14281,-1.14072,0.93667,-2.19744,3.47248,0.98067,-2.27950,-1.13332,-1.13332,57.68928,11.98014,57.68928240,11.98013459,A,150319.60
18:53:00.047369,3.50172,0.01070,1.60032,1.60032,[5.00000 0.00000 0.00000],[1.30000 0.00000 0.00000],-0.01607,0.00359,0.00258,0.00000,0.00000,-0.00744,-0.00696,0.10748,-0.00872,0.98674,3.49144,0.02442,1.59200,-1.14162,-1.13953,0.95194,-2.23002,3.47248,0.98067,-2.27950,-1.13332,-1.13332,57.68928,11.98014,57.68928211,11.98013485,A,150319.60
18:53:00.071120,3.52548,0.01137,1.60032,1.60032,[5.00000 0.00000 0.00000],[1.30000 0.00000 0.00000],-0.01537,0.00359,0.00884,0.00000,0.00000,0.00080,-0.00192,-0.00018,0.04294,1.01791,3.51519,0.01465,1.59367,-1.14060,-1.13851,0.96649,-2.26101,3.47248,0.98067,-2.27950,-1.13332,-1.13332,57.68928,11.98014,57.68928183,11.98013509,A,150319.60
18:53:00.092643,3.54697,0.01236,1.60032,1.60032,[5.00000 0.00000 0.00000],[1.30000 0.00000 0.00000],-0.01488,0.00359,0.01312,0.00000,0.00000,-0.00622,0.00266,0.02898,0.02568,1.03102,3.53610,0.01465,1.59500,-1.13974,-1.13765,0.97848,-2.28637,3.47248,0.98067,-2.27950,-1.13332,-1.13332,57.68928,11.98014,57.68928160,11.98013530,A,150319.60
18:53:00.116008,3.57036,0.01278,1.60032,1.60032,[5.00000 0.00000 0.00000],[1.30000 0.00000 0.00000],-0.01522,0.00359,0.01297,0.00000,0.00000,-0.01508,-0.00039,0.07436,-0.03508,1.06530,3.55992,0.01709,1.59606,-1.13901,-1.13692,0.99156,-2.31408,3.47248,0.98067,-2.27950,-1.13332,-1.13332,57.68928,11.98014,57.68928136,11.98013552,A,150319.60
18:53:00.152597,3.60696,0.02646,1.60032,1.60032,[5.00000 0.00000 0.00000],[1.30000 0.00000 0.00000],-0.01461,0.00359,0.01770,0.00000,0.00000,-0.01386,0.00068,0.07997,0.02641,1.02718,3.58180,0.00733,1.59691,-1.14923,-1.14714,1.01618,-2.36782,3.60200,1.03020,-2.40922,-1.20608,-1.20608,57.68928,11.98014,57.68928087,11.98013593,A,150319.70
18:53:00.177982,3.63235,0.01231,1.53959,1.53959,[5.00000 0.00000 0.00000],[1.30000 0.00000 0.00000],-0.01368,0.00359,0.02992,0.00000,0.00000,-0.03845,0.00465,0.04746,-0.00494,0.93605,3.62131,0.01465,1.58545,-1.15798,-1.15589,1.03036,-2.39977,3.60200,1.03020,-2.40922,-1.20608,-1.20608,57.68928,11.98014,57.68928058,11.98013617,A,150319.70
18:53:00.202914,3.65728,0.01305,1.53959,1.53959,[5.00000 0.00000 0.00000],[1.30000 0.00000 0.00000],-0.01282,0.00359,0.04061,0.00000,0.00000,-0.03509,0.00724,0.01427,0.00238,0.97490,3.64623,0.02198,1.57627,-1.16542,-1.16333,1.04303,-2.42902,3.60200,1.03020,-2.40922,-1.20608,-1.20608,57.68928,11.98014,57.68928032,11.98013638,A,150319.70
18:53:00.224907,3.67927,0.01156,1.53959,1.53959,[5.00000 0.00000 0.00000],[1.30000 0.00000 0.00000],-0.01209,0.00359,0.04351,0.00000,0.00000,-0.03402,0.01152,0.08668,-0.00555,1.02041,3.66974,0.02930,1.56894,-1.17175,-1.16966,1.05386,-2.45460,3.60200,1.03020,-2.40922,-1.20608,-1.20608,57.68928,11.98014,57.68928009,11.98013656,A,150319.70
18:53:00.278661,3.73302,0.03807,1.53959,1.53959,[5.00000 0.00000 0.00000],[1.30000 0.00000 0.00000],-0.01059,0.00359,0.04076,0.00000,0.00000,-0.01416,-0.00238,0.00878,0.04069,1.05097,3.69735,0.00733,1.56307,-1.17110,-1.16901,1.08886,-2.53755,3.72801,1.14907,-2.68721,-1.16672,-1.16672,57.68928,11.98014,57.68927935,11.98013715,A,150319.90
18:53:00.299803,3.75417,0.01170,1.53959,1.53959,[5.00000 0.00000 0.00000],[1.30000 0.00000 0.00000],-0.00861,0.00359,0.05634,0.00000,0.00000,-0.02195,-0.00467,0.01440,-0.02501,1.00278,3.74377,0.02198,1.55837,-1.17068,-1.16859,1.10261,-2.57030,3.72801,1.14907,-2.68721,-1.16672,-1.16672,57.68928,11.98014,57.68927905,11.98013738,A,150319.90
18:53:00.325842,3.78018,0.01046,1.74149,1.74149,[5.00000 0.00000 0.00000],[1.30000 0.00000 0.00000],-0.00711,0.00359,0.06397,0.00000,0.00000,-0.02165,0.00266,0.08333,0.00403,0.96569,3.77064,0.01221,1.59499,-1.17030,-1.16821,1.11834,-2.60767,3.72801,1.14907,-2.68721,-1.16672,-1.16672,57.68928,11.98014,57.68927872,11.98013765,A,150319.90
18:53:00.351920,3.80628,0.01161,1.74149,1.74149,[5.00000 0.00000 0.00000],[1.30000 0.00000 0.00000],-0.00526,0.00359,0.07726,0.00000,0.00000,-0.01080,0.00801,-0.02629,0.01342,1.01101,3.79604,0.02198,1.62429,-1.16998,-1.16789,1.13367,-2.64403,3.72801,1.14907,-2.68721,-1.16672,-1.16672,57.68928,11.98014,57.68927839,11.98013791,A,150319.90
18:53:00.378728,3.83226,0.01169,1.74149,1.74149,[5.00000 0.00000 0.00000],[1.30000 0.00000 0.00000],-0.00328,0.00359,0.06932,0.00000,0.00000,0.02401,-0.00619,0.06460,0.03581,0.99265,3.82148,0.00977,1.64773,-1.16971,-1.16762,1.14757,-2.67699,3.72801,1.14907,-2.68721,-1.16672,-1.16672,57.68928,11.98014,57.68927809,11.98013814,A,150319.90
18:53:00.415989,3.87036,0.02641,1.74149,1.74149,[5.00000 0.00000 0.00000],[1.30000 0.00000 0.00000],-0.00185,0.00359,0.06794,0.00000,0.00000,0.00462,-0.01795,0.06069,0.01165,0.95575,3.84511,0.01954,1.66648,-1.18673,-1.18464,1.17246,-2.73821,3.86551,1.19860,-2.85400,-1.28214,-1.28214,57.68928,11.98014,57.68927754,11.98013856,A,150320.00
18:53:00.443298,3.89766,0.01389,1.74149,1.74149,[5.00000 0.00000 0.00000],[1.30000 0.00000 0.00000],0.00015,0.00348,0.05313,0.00000,0.00000,-0.01905,-0.02620,0.10504,0.00805,1.00461,3.88775,0.02198,1.68148,-1.20124,-1.19921,1.18785,-2.77864,3.86551,1.19860,-2.85400,-1.28214,-1.28214,57.68928,11.98014,57.68927718,11.98013882,A,150320.00
18:53:00.469536,3.92390,0.01241,1.66319,1.66319,[5.00000 0.00000 0.00000],[1.30000 0.00000 0.00000],0.00169,0.00207,0.05634,0.00000,0.00000,-0.01783,-0.02498,-0.00445,0.03526,1.05103,3.91329,0.01954,1.67783,-1.21345,-1.21225,1.20173,-2.81663,3.86551,1.19860,-2.85400,-1.28214,-1.28214,57.68928,11.98014,57.68927684,11.98013905,A,150320.00
18:53:00.494694,3.94904,0.01370,1.66319,1.66319,[5.00000 0.00000 0.00000],[1.30000 0.00000 0.00000],0.00292,0.00000,0.06214,0.00000,0.00000,0.00767,-0.01887,0.10388,0.01196,1.01998,3.93699,0.02198,1.67490,-1.22370,-1.22370,1.21326,-2.84969,3.86551,1.19860,-2.85400,-1.28214,-1.28214,57.68928,11.98014,57.68927654,11.98013925,A,150320.00
18:53:00.534833,3.98919,0.02807,1.66319,1.66319,[5.00000 0.00000 0.00000],[1.30000 0.00000 0.00000],0.00409,-0.00258,0.05695,0.00000,0.00000,0.01378,-0.02009,0.00665,0.00305,1.00479,3.96432,0.01709,1.67256,-1.19329,-1.19478,1.23769,-2.91500,3.98418,1.27785,-2.98373,-1.02242,-1.02242,57.68928,11.98014,57.68927595,11.98013966,A,150320.10
18:53:00.560730,4.01510,0.01282,1.66319,1.66319,[5.00000 0.00000 0.00000],[1.30000 0.00000 0.00000],0.00565,-0.00594,0.04427,0.00000,0.00000,0.02279,-0.03582,0.10931,0.01043,0.94983,4.00551,0.02198,1.67068,-1.16721,-1.17067,1.25275,-2.95152,3.98418,1.27785,-2.98373,-1.02242,-1.02242,57.68928,11.98014,57.68927562,11.98013991,A,150320.10
18:53:00.581389,4.03575,0.01030,1.66319,1.66319,[5.00000 0.00000 0.00000],[1.30000 0.00000 0.00000],0.00625,-0.00736,0.03343,0.00000,0.00000,0.00325,-0.03659,0.04282,0.01921,0.90603,4.02719,0.01465,1.66919,-1.14499,-1.14927,1.26563,-2.98060,3.98418,1.27785,-2.98373,-1.02242,-1.02242,57.68928,11.98014,57.68927536,11.98014013,A,150320.10
18:53:00.608088,4.06244,0.01370,1.98629,1.98629,[5.00000 0.00000 0.00000],[1.30000 0.00000 0.00000],0.00669,-0.00841,0.02671,0.00000,0.00000,-0.01004,-0.03567,0.06905,0.01342,0.95221,4.05186,0.01465,1.73261,-1.12608,-1.13097,1.28110,-3.01389,3.98418,1.27785,-2.98373,-1.02242,-1.02242,57.68928,11.98014,57.68927506,11.98014039,A,150320.10
18:53:00.630670,4.08503,0.01027,1.98629,1.98629,[5.00000 0.00000 0.00000],[1.30000 0.00000 0.00000],0.00717,-0.00928,0.02992,0.00000,0.00000,-0.00393,-0.02559,-0.01464,0.01543,1.04493,4.07503,0.00977,1.78334,-1.10994,-1.11534,1.29506,-3.04239,3.98418,1.27785,-2.98373,-1.02242,-1.02242,57.68928,11.98014,57.68927481,11.98014062,A,150320.10
18:53:00.680832,4.13520,0.03666,1.98629,1.98629,[5.00000 0.00000 0.00000],[1.30000 0.00000 0.00000],0.00810,-0.01044,0.02060,0.00000,0.00000,0.01363,-0.02376,0.03617,0.05612,0.99735,4.10000,0.01221,1.82393,-1.12156,-1.12763,1.33627,-3.12806,4.13016,1.39672,-3.28025,-1.18953,-1.18953,57.68927,11.98014,57.68927404,11.98014132,A,150320.30
18:53:00.703119,4.15748,0.01160,1.98629,1.98629,[5.00000 0.00000 0.00000],[1.30000 0.00000 0.00000],0.00813,-0.01653,-0.00398,0.00000,0.00000,-0.03020,-0.05033,0.01507,0.04099,0.98570,4.14754,0.01465,1.85641,-1.13058,-1.14020,1.35364,-3.16588,4.13016,1.39672,-3.28025,-1.18953,-1.18953,57.68927,11.98014,57.68927370,11.98014161,A,150320.30
18:53:00.729036,4.18340,0.01231,1.98629,1.98629,[5.00000 0.00000 0.00000],[1.30000 0.00000 0.00000],0.00683,-0.01936,-0.02078,0.00000,0.00000,-0.00577,-0.05965,0.04636,-0.02769,1.04298,4.17215,0.01954,1.88238,-1.13823,-1.14948,1.37166,-3.20614,4.13016,1.39672,-3.28025,-1.18953,-1.18953,57.68927,11.98014,57.68927333,11.98014191,A,150320.30
18:53:00.755148,4.20887,0.01160,1.45597,1.45597,[5.00000 0.00000 0.00000],[1.30000 0.00000 0.00000],0.00637,-0.02154,-0.02613,0.00000,0.00000,0.00645,-0.05934,0.02562,0.04227,0.98045,4.19893,0.03663,1.79710,-1.14467,-1.15719,1.38991,-3.24778,4.13016,1.39672,-3.28025,-1.18953,-1.18953,57.68927,11.98014,57.68927296,11.98014222,A,150320.30
18:53:00.794836,4.24920,0.02766,1.45597,1.45597,[5.00000 0.00000 0.00000],[1.30000 0.00000 0.00000],0.00557,-0.02392,-0.03117,0.00000,0.00000,-0.00302,-0.05415,0.05130,0.02385,0.96081,4.22422,0.01221,1.72887,-1.15627,-1.17018,1.41990,-3.31853,4.24428,1.45615,-3.44704,-1.22848,-1.22848,57.68927,11.98014,57.68927232,11.98014272,A,150320.40
18:53:00.819941,4.27431,0.01220,1.45597,1.45597,[5.00000 0.00000 0.00000],[1.30000 0.00000 0.00000],0.00399,-0.02975,-0.04293,0.00000,0.00000,-0.00729,-0.05812,0.04374,0.03355,1.03236,4.26428,0.02686,1.67429,-1.16517,-1.18247,1.43556,-3.35764,4.24428,1.45615,-3.44704,-1.22848,-1.22848,57.68927,11.98014,57.68927197,11.98014299,A,150320.40
18:53:00.845196,4.29956,0.01227,1.45597,1.45597,[5.00000 0.00000 0.00000],[1.30000 0.00000 0.00000],0.00285,-0.03272,-0.04781,0.00000,0.00000,-0.01355,-0.06041,0.07033,0.02623,0.97014,4.28973,0.02686,1.63063,-1.17262,-1.19165,1.44986,-3.39454,4.24428,1.45615,-3.44704,-1.22848,-1.22848,57.68927,11.98014,57.68927164,11.98014323,A,150320.40
18:53:00.867314,4.32167,0.01082,1.45597,1.45597,[5.00000 0.00000 0.00000],[1.30000 0.00000 0.00000],0.00105,-0.03393,-0.05713,0.00000,0.00000,-0.00729,-0.07263,-0.04441,-0.01806,1.01351,4.31131,0.01954,1.59569,-1.17879,-1.19853,1.46107,-3.42453,4.24428,1.45615,-3.44704,-1.22848,-1.22848,57.68927,11.98014,57.68927137,11.98014342,A,150320.40
18:53:00.893386,4.34775,0.01298,1.81304,1.81304,[5.00000 0.00000 0.00000],[1.30000 0.00000 0.00000],-0.00049,-0.03461,-0.06095,0.00000,0.00000,0.02631,-0.07385,0.09906,0.01629,0.97600,4.33721,0.01709,1.63916,-1.18421,-1.20434,1.47440,-3.46042,4.24428,1.45615,-3.44704,-1.22848,-1.22848,57.68927,11.98014,57.68927105,11.98014364,A,150320.40
18:53:00.936497,4.39086,0.02857,1.81304,1.81304,[5.00000 0.00000 0.00000],[1.30000 0.00000 0.00000],-0.00232,-0.03512,-0.05667,0.00000,0.00000,-0.00897,-0.06713,0.01177,-0.00287,0.96911,4.36534,0.02686,1.67394,-1.16723,-1.18765,1.49989,-3.52599,4.38573,1.52549,-3.57677,-1.07992,-1.07992,57.68927,11.98014,57.68927046,11.98014407,A,150320.50
18:53:00.956270,4.41064,0.01126,1.81304,1.81304,[5.00000 0.00000 0.00000],[1.30000 0.00000 0.00000],-0.00415,-0.03580,-0.05011,0.00000,0.00000,0.00645,-0.05598,0.00403,0.00665,1.07531,4.40032,0.01221,1.70176,-1.15173,-1.17256,1.51108,-3.55311,4.38573,1.52549,-3.57677,-1.07992,-1.07992,57.68927,11.98014,57.68927021,11.98014426,A,150320.50
18:53:00.979839,4.43420,0.01053,1.81304,1.81304,[5.00000 0.00000 0.00000],[1.30000 0.00000 0.00000],-0.00496,-0.03583,-0.04598,0.00000,0.00000,0.03440,-0.05919,0.01757,0.03099,1.00522,4.42498,0.00977,1.72401,-1.13879,-1.15964,1.52517,-3.58607,4.38573,1.52549,-3.57677,-1.07992,-1.07992,57.68927,11.98014,57.68926992,11.98014449,A,150320.50
18:53:01.003709,4.45808,0.01191,1.81304,1.81304,[5.00000 0.00000 0.00000],[1.30000 0.00000 0.00000],-0.00560,-0.03583,-0.04171,0.00000,0.00000,0.02233,-0.05903,0.06411,0.02385,0.87419,4.44730,0.01954,1.74182,-1.12775,-1.14860,1.53833,-3.61576,4.38573,1.52549,-3.57677,-1.07992,-1.07992,57.68927,11.98014,57.68926965,11.98014472,A,150320.50
18:53:01.031446,4.48579,0.01386,1.81304,1.81304,[5.00000 0.00000 0.00000],[1.30000 0.00000 0.00000],-0.00736,-0.03583,-0.04384,0.00000,0.00000,-0.01233,-0.05766,-0.02336,-0.02580,0.96374,4.47567,0.02442,1.75606,-1.11857,-1.13941,1.55403,-3.65018,4.38573,1.52549,-3.57677,-1.07992,-1.07992,57.68927,11.98014,57.68926934,11.98014498,A,150320.50
18:53:01.083579,4.53795,0.03737,1.48890,1.48890,[5.00000 0.00000 0.00000],[1.30000 0.00000 0.00000],-0.00845,-0.03583,-0.04003,0.00000,0.00000,0.02249,-0.06224,0.04593,0.01128,1.02828,4.50347,0.01709,1.70263,-1.12063,-1.14147,1.59545,-3.73951,4.53316,1.65427,-3.85476,-1.13699,-1.13699,57.68927,11.98015,57.68926854,11.98014568,A,150320.70
18:53:01.109607,4.56318,0.01191,1.48890,1.48890,[5.00000 0.00000 0.00000],[1.30000 0.00000 0.00000],-0.01099,-0.03583,-0.03865,0.00000,0.00000,-0.01264,-0.05445,0.08082,-0.03184,1.01492,4.55403,0.01709,1.65988,-1.12098,-1.14183,1.61372,-3.77876,4.53316,1.65427,-3.85476,-1.13699,-1.13699,57.68927,11.98015,57.68926818,11.98014598,A,150320.70
18:53:01.135589,4.58995,0.01308,1.48890,1.48890,[5.00000 0.00000 0.00000],[1.30000 0.00000 0.00000],-0.01218,-0.03583,-0.03835,0.00000,0.00000,-0.01737,-0.05537,-0.01934,-0.01074,1.04883,4.57868,0.02198,1.62569,-1.12124,-1.14208,1.63032,-3.81441,4.53316,1.65427,-3.85476,-1.13699,-1.13699,57.68927,11.98015,57.68926786,11.98014626,A,150320.70
18:53:01.160382,4.61475,0.01179,1.48890,1.48890,[5.00000 0.00000 0.00000],[1.30000 0.00000 0.00000],-0.01285,-0.03583,-0.01880,0.00000,0.00000,0.02142,-0.05827,-0.01183,-0.00641,0.99046,4.60498,0.02198,1.59833,-1.12145,-1.14229,1.64616,-3.84847,4.53316,1.65427,-3.85476,-1.13699,-1.13699,57.68927,11.98015,57.68926756,11.98014653,A,150320.70
18:53:01.200006,4.65438,0.02708,1.84710,1.84710,[5.00000 0.00000 0.00000],[1.30000 0.00000 0.00000],-0.01332,-0.03583,-0.01987,0.00000,0.00000,0.01317,-0.05980,0.06033,0.00067,0.95008,4.62868,0.01221,1.64808,-1.12171,-1.14255,1.67394,-3.90853,4.64954,1.72361,-4.00302,-1.13332,-1.13332,57.68927,11.98015,57.68926702,11.98014700,A,150320.80
18:53:01.225126,4.67949,0.01325,1.84710,1.84710,[5.00000 0.00000 0.00000],[1.30000 0.00000 0.00000],-0.01377,-0.03583,0.00167,0.00000,0.00000,-0.00546,-0.05293,0.08510,-0.03221,0.96282,4.66943,0.01221,1.68789,-1.12126,-1.14210,1.69033,-3.94372,4.64954,1.72361,-4.00302,-1.13332,-1.13332,57.68927,11.98015,57.68926670,11.98014727,A,150320.80
18:53:01.245577,4.69896,0.00958,1.84710,1.84710,[5.00000 0.00000 0.00000],[1.30000 0.00000 0.00000],-0.01444,-0.03583,0.00747,0.00000,0.00000,-0.01126,-0.04850,0.01159,-0.05539,1.01095,4.69053,0.02442,1.71973,-1.12072,-1.14156,1.70350,-3.97186,4.64954,1.72361,-4.00302,-1.13332,-1.13332,57.68927,11.98015,57.68926645,11.98014749,A,150320.80
18:53:01.256407,4.71077,0.00953,1.84710,1.84710,[5.00000 0.00000 0.00000],[1.30000 0.00000 0.00000],-0.01440,-0.03583,0.00701,0.00000,0.00000,0.00355,-0.05384,-0.00537,-0.00195,1.02864,4.70191,0.01465,1.74521,-1.11987,-1.14072,1.71036,-3.98622,4.64954,1.72361,-4.00302,-1.13332,-1.13332,57.68927,11.98015,57.68926632,11.98014761,A,150320.80
18:53:01.268232,4.72260,0.01010,1.84710,1.84710,[5.00000 0.00000 0.00000],[1.30000 0.00000 0.00000],-0.01431,-0.03583,0.00839,0.00000,0.00000,0.01500,-0.05354,0.01921,0.00006,1.00815,4.71255,0.00977,1.76558,-1.11917,-1.14001,1.71708,-4.00026,4.64954,1.72361,-4.00302,-1.13332,-1.13332,57.68927,11.98015,57.68926619,11.98014772,A,150320.80
18:53:01.286807,4.74117,0.00833,1.84710,1.84710,[5.00000 0.00000 0.00000],[1.30000 0.00000 0.00000],-0.01381,-0.03583,0.01908,0.00000,0.00000,-0.00409,-0.05598,0.09065,0.00744,0.94300,4.73250,0.01465,1.78189,-1.11890,-1.13974,1.72836,-4.02422,4.64954,1.72361,-4.00302,-1.13332,-1.13332,57.68927,11.98015,57.68926598,11.98014791,A,150320.80
18:53:01.299831,4.75420,0.01117,1.84710,1.84710,[5.00000 0.00000 0.00000],[1.30000 0.00000 0.00000],-0.01340,-0.03583,0.01862,0.00000,0.00000,-0.00836,-0.05476,0.05887,0.01397,0.93702,4.74273,0.00977,1.79493,-1.11842,-1.13926,1.73533,-4.03883,4.64954,1.72361,-4.00302,-1.13332,-1.13332,57.68927,11.98015,57.68926584,11.98014803,A,150320.80
18:53:01.339983,4.79435,0.02877,1.84710,1.84710,[5.00000 0.00000 0.00000],[1.30000 0.00000 0.00000],-0.01243,-0.03583,0.02961,0.00000,0.00000,-0.00668,-0.05033,-0.00494,0.01464,1.00558,4.76893,0.00977,1.80537,-1.11935,-1.14020,1.76562,-4.10399,4.78951,1.79295,-4.15128,-1.13332,-1.13332,57.68926,11.98015,57.68926526,11.98014854,A,150320.90
18:53:01.364786,4.81915,0.01338,1.69251,1.69251,[5.00000 0.00000 0.00000],[1.30000 0.00000 0.00000],-0.01097,-0.03583,0.02457,0.00000,0.00000,0.00660,-0.05919,-0.03959,0.04032,1.02474,4.80731,0.00733,1.78280,-1.11932,-1.14016,1.78190,-4.13882,4.78951,1.79295,-4.15128,-1.13332,-1.13332,57.68926,11.98015,57.68926495,11.98014881,A,150320.90
18:53:01.387309,4.84168,0.01143,1.69251,1.69251,[5.00000 0.00000 0.00000],[1.30000 0.00000 0.00000],-0.00994,-0.03583,0.02961,0.00000,0.00000,0.02188,-0.05766,0.05697,0.02513,1.01022,4.83257,0.01954,1.76474,-1.11920,-1.14004,1.79604,-4.16901,4.78951,1.79295,-4.15128,-1.13332,-1.13332,57.68926,11.98015,57.68926467,11.98014905,A,150320.90
18:53:01.413035,4.86740,0.01242,1.69251,1.69251,[5.00000 0.00000 0.00000],[1.30000 0.00000 0.00000],-0.00986,-0.03583,0.02442,0.00000,0.00000,0.00508,-0.06026,0.02959,-0.02775,0.97679,4.85729,0.02442,1.75029,-1.11922,-1.14006,1.81123,-4.20151,4.78951,1.79295,-4.15128,-1.13332,-1.13332,57.68926,11.98015,57.68926438,11.98014931,A,150320.90
18:53:01.436257,4.89061,0.01141,1.69251,1.69251,[5.00000 0.00000 0.00000],[1.30000 0.00000 0.00000],-0.00877,-0.03583,0.02381,0.00000,0.00000,0.01439,-0.05491,0.04752,0.03849,0.96972,4.88180,0.00977,1.73874,-1.11914,-1.13998,1.82421,-4.22925,4.78951,1.79295,-4.15128,-1.13332,-1.13332,57.68926,11.98015,57.68926413,11.98014953,A,150320.90
18:53:01.488472,4.94283,0.03951,1.69251,1.69251,[5.00000 0.00000 0.00000],[1.30000 0.00000 0.00000],-0.00846,-0.03583,0.02503,0.00000,0.00000,0.01119,-0.06713,0.05679,-0.01360,1.00223,4.90712,0.02442,1.72949,-1.12053,-1.14137,1.86534,-4.31797,4.93801,1.93163,-4.44780,-1.13332,-1.13332,57.68926,11.98015,57.68926333,11.98015022,A,150321.10
18:53:01.512535,4.96690,0.01230,1.59922,1.59922,[5.00000 0.00000 0.00000],[1.30000 0.00000 0.00000],-0.00700,-0.03583,0.03236,0.00000,0.00000,-0.00057,-0.05873,0.11761,-0.00323,0.96191,4.95834,0.01221,1.70344,-1.12032,-1.14116,1.88363,-4.35716,4.93801,1.93163,-4.44780,-1.13332,-1.13332,57.68926,11.98015,57.68926298,11.98015053,A,150321.10
18:53:01.539612,4.99397,0.01339,1.59922,1.59922,[5.00000 0.00000 0.00000],[1.30000 0.00000 0.00000],-0.00589,-0.03583,0.02961,0.00000,0.00000,-0.00912,-0.05170,-0.03172,0.03459,0.98308,4.98348,0.01221,1.68259,-1.12024,-1.14108,1.90232,-4.39726,4.93801,1.93163,-4.44780,-1.13332,-1.13332,57.68926,11.98015,57.68926262,11.98015084,A,150321.10
18:53:01.565583,5.01993,0.01145,1.59922,1.59922,[5.00000 0.00000 0.00000],[1.30000 0.00000 0.00000],-0.00499,-0.03583,0.03816,0.00000,0.00000,0.01562,-0.05125,0.05758,0.00622,0.99650,5.00936,0.00733,1.66592,-1.12006,-1.14090,1.91853,-4.43195,4.93801,1.93163,-4.44780,-1.13332,-1.13332,57.68926,11.98015,57.68926231,11.98015111,A,150321.10
18:53:01.593255,5.04763,0.01641,1.59922,1.59922,[5.00000 0.00000 0.00000],[1.30000 0.00000 0.00000],0.00000,-0.03583,0.03313,0.00000,0.00000,0.01989,-0.05415,-0.01775,0.01122,1.00833,5.03153,0.02442,1.59922,-1.14024,-1.16108,1.93163,-4.44780,4.93801,1.93163,-4.44780,-1.13332,-1.13332,57.68926,11.98015,57.68926205,11.98015134,A,150321.10
18:53:01.633451,5.08782,0.02853,1.59922,1.59922,[5.00000 0.00000 0.00000],[1.30000 0.00000 0.00000],0.00021,-0.04300,0.02534,-0.12807,0.00000,0.00202,-0.05201,0.10016,-0.02214,1.00748,5.06262,0.01954,1.59922,-1.14572,-1.17073,1.96081,-4.51556,5.08298,1.99107,-4.59606,-1.18953,-1.18953,57.68926,11.98015,57.68926156,11.98015182,A,150321.20
18:53:01.656840,5.11121,0.01392,1.76030,1.76030,[5.00000 0.00000 0.00000],[1.30000 0.00000 0.00000],0.00070,-0.04303,0.02579,-0.13351,0.00000,-0.00592,-0.05461,-0.00421,-0.01726,1.00668,5.09992,0.12698,1.63144,-1.14955,-1.17458,1.97415,-4.54754,5.08298,1.99107,-4.59606,-1.18953,-1.18953,57.68926,11.98015,57.68926127,11.98015205,A,150321.20
18:53:01.680707,5.13507,0.01215,1.76030,1.76030,[5.00000 0.00000 0.00000],[1.30000 0.00000 0.00000],0.00081,-0.04476,0.01495,-0.08003,0.00000,-0.00073,-0.06575,0.09113,-0.00317,0.95935,5.12441,0.19536,1.65721,-1.15270,-1.17874,1.98717,-4.57907,5.08298,1.99107,-4.59606,-1.18953,-1.18953,57.68926,11.98015,57.68926099,11.98015227,A,150321.20
18:53:01.705434,5.15979,0.01203,1.76030,1.76030,[5.00000 0.00000 0.00000],[1.30000 0.00000 0.00000],0.00168,-0.04903,0.01419,-0.08185,0.00000,-0.00179,-0.06835,-0.02025,0.04453,0.94977,5.14925,0.04640,1.67783,-1.15507,-1.18360,1.99972,-4.60981,5.08298,1.99107,-4.59606,-1.18953,-1.18953,57.68926,11.98015,57.68926071,11.98015248,A,150321.20
18:53:01.730431,5.18456,0.01345,1.76030,1.76030,[5.00000 0.00000 0.00000],[1.30000 0.00000 0.00000],0.00176,-0.05232,0.01419,-0.08239,0.00000,-0.01080,-0.07293,0.06435,-0.00512,0.97929,5.17420,0.04151,1.69432,-1.15699,-1.18743,2.01234,-4.64114,5.08298,1.99107,-4.59606,-1.18953,-1.18953,57.68926,11.98015,57.68926043,11.98015269,A,150321.20
18:53:01.779320,5.23369,0.03800,1.76030,1.76030,[5.00000 0.00000 0.00000],[1.30000 0.00000 0.00000],0.00238,-0.05435,0.00472,-0.03907,0.00000,-0.01172,-0.07110,-0.00238,0.04923,1.03944,5.19603,0.05861,1.70752,-1.15185,-1.18348,2.04719,-4.72556,5.22897,2.12975,-4.89258,-1.13332,-1.13332,57.68926,11.98015,57.68925967,11.98015328,A,150321.40
18:53:01.804756,5.25912,0.01220,1.72449,1.72449,[5.00000 0.00000 0.00000],[1.30000 0.00000 0.00000],0.00259,-0.05874,0.00487,-0.04119,0.00000,-0.00577,-0.08316,0.04447,0.00830,0.95447,5.24899,0.06349,1.71091,-1.14548,-1.17967,2.06504,-4.76755,5.22897,2.12975,-4.89258,-1.13332,-1.13332,57.68926,11.98015,57.68925929,11.98015358,A,150321.40
18:53:01.831417,5.28578,0.01376,1.72449,1.72449,[5.00000 0.00000 0.00000],[1.30000 0.00000 0.00000],0.00301,-0.06052,0.00900,-0.06456,0.00000,-0.00577,-0.07537,0.00055,0.02562,1.00388,5.27429,0.05372,1.71363,-1.14015,-1.17537,2.08308,-4.80970,5.22897,2.12975,-4.89258,-1.13332,-1.13332,57.68926,11.98015,57.68925891,11.98015388,A,150321.40
18:53:01.854632,5.30899,0.01203,1.72449,1.72449,[5.00000 0.00000 0.00000],[1.30000 0.00000 0.00000],0.00331,-0.06163,0.01449,-0.09399,0.00000,0.01149,-0.07614,-0.02568,0.01098,1.04218,5.29773,0.16361,1.71580,-1.13515,-1.17101,2.09685,-4.84124,5.22897,2.12975,-4.89258,-1.13332,-1.13332,57.68926,11.98015,57.68925863,11.98015411,A,150321.40
18:53:01.877675,5.33204,0.01356,1.72449,1.72449,[5.00000 0.00000 0.00000],[1.30000 0.00000 0.00000],0.00386,-0.06282,0.01220,-0.08609,0.00000,0.03440,-0.07858,0.00823,0.02934,1.00711,5.32236,0.11966,1.71754,-1.13097,-1.16753,2.11129,-4.87410,5.22897,2.12975,-4.89258,-1.13332,-1.13332,57.68926,11.98015,57.68925833,11.98015436,A,150321.40
18:53:01.919676,5.37405,0.02761,2.02684,2.02684,[5.00000 0.00000 0.00000],[1.30000 0.00000 0.00000],0.00446,-0.06604,0.02457,-0.15187,0.00000,0.00355,-0.07996,0.09925,0.00262,0.97874,5.34896,0.05617,1.77940,-1.14311,-1.18155,2.14150,-4.94502,5.36891,2.18918,-5.05937,-1.22848,-1.22848,57.68926,11.98016,57.68925770,11.98015486,A,150321.50
18:53:01.947775,5.40213,0.01457,2.02684,2.02684,[5.00000 0.00000 0.00000],[1.30000 0.00000 0.00000],0.00475,-0.07029,0.02289,-0.14536,0.00000,0.01363,-0.08026,-0.00891,-0.03825,1.00113,5.39061,0.44689,1.82889,-1.15179,-1.19271,2.15874,-4.98697,5.36891,2.18918,-5.05937,-1.22848,-1.22848,57.68926,11.98016,57.68925732,11.98015515,A,150321.50
18:53:01.976726,5.43109,0.01467,2.02684,2.02684,[5.00000 0.00000 0.00000],[1.30000 0.00000 0.00000],0.00520,-0.07442,0.01831,-0.12536,0.00000,0.02615,-0.08133,-0.00604,-0.00232,0.94404,5.41937,0.59096,1.86848,-1.15921,-1.20254,2.17656,-5.03161,5.36891,2.18918,-5.05937,-1.22848,-1.22848,57.68926,11.98016,57.68925692,11.98015545,A,150321.50
18:53:01.997069,5.45143,0.01184,2.02684,2.02684,[5.00000 0.00000 0.00000],[1.30000 0.00000 0.00000],0.00553,-0.07714,0.01159,-0.09387,0.00000,0.02463,-0.08194,0.03233,0.00854,0.99381,5.44073,0.44444,1.90015,-1.16467,-1.20958,2.18841,-5.06208,5.36891,2.18918,-5.05937,-1.22848,-1.22848,57.68926,11.98016,57.68925664,11.98015565,A,150321.50
18:53:02.033244,5.48761,0.02491,2.02684,2.02684,[5.00000 0.00000 0.00000],[1.30000 0.00000 0.00000],0.00587,-0.08017,0.00304,-0.05334,0.00000,0.01775,-0.09859,0.02336,0.02263,1.03480,5.46358,0.64469,1.92549,-1.14871,-1.19539,2.21396,-5.12679,5.48290,2.25852,-5.18910,-1.07992,-1.07992,57.68926,11.98016,57.68925606,11.98015608,A,150321.60
18:53:02.060647,5.51501,0.01450,1.46733,1.46733,[5.00000 0.00000 0.00000],[1.30000 0.00000 0.00000],0.00488,-0.08450,-0.00337,-0.01487,0.00000,0.02279,-0.11416,0.06143,-0.04105,0.97502,5.50293,0.24664,1.83386,-1.13361,-1.18282,2.23148,-5.16870,5.48290,2.25852,-5.18910,-1.07992,-1.07992,57.68926,11.98016,57.68925568,11.98015638,A,150321.60
18:53:02.085911,5.53986,0.01288,1.46733,1.46733,[5.00000 0.00000 0.00000],[1.30000 0.00000 0.00000],0.00417,-0.08693,-0.01834,0.06457,0.00000,-0.03096,-0.11691,0.01879,-0.00110,0.99369,5.52984,0.31013,1.76055,-1.12049,-1.17112,2.24736,-5.20526,5.48290,2.25852,-5.18910,-1.07992,-1.07992,57.68926,11.98016,57.68925535,11.98015665,A,150321.60
18:53:02.108170,5.56253,0.01218,1.46733,1.46733,[5.00000 0.00000 0.00000],[1.30000 0.00000 0.00000],0.00416,-0.08817,-0.00521,-0.00104,0.00000,-0.01539,-0.11279,-0.01507,0.02098,1.03517,5.55154,0.02930,1.70191,-1.10885,-1.16021,2.26028,-5.23372,5.48290,2.25852,-5.18910,-1.07992,-1.07992,57.68926,11.98016,57.68925510,11.98015686,A,150321.60
18:53:02.132587,5.58694,0.01311,1.46733,1.46733,[5.00000 0.00000 0.00000],[1.30000 0.00000 0.00000],0.00278,-0.08874,-0.01162,0.04004,0.00000,-0.00561,-0.11478,0.03916,-0.05856,0.94257,5.57575,0.07082,1.65499,-1.09909,-1.15078,2.27374,-5.26262,5.48290,2.25852,-5.18910,-1.07992,-1.07992,57.68926,11.98016,57.68925484,11.98015709,A,150321.60
18:53:02.181500,5.63587,0.03774,1.46733,1.46733,[5.00000 0.00000 0.00000],[1.30000 0.00000 0.00000],0.00284,-0.08874,-0.01116,0.03734,0.00000,0.00599,-0.12134,-0.05106,0.03148,0.95575,5.60036,0.03663,1.61746,-1.11320,-1.16489,2.30975,-5.34373,5.63114,2.37739,-5.50415,-1.21001,-1.21001,57.68925,11.98016,57.68925411,11.98015770,A,150321.80
18:53:02.203029,5.65740,0.01318,1.83845,1.83845,[5.00000 0.00000 0.00000],[1.30000 0.00000 0.00000],0.00201,-0.08874,-0.01116,0.04274,0.00000,0.00966,-0.12547,0.01031,-0.01952,1.02462,5.64583,0.01221,1.66166,-1.12182,-1.17351,2.32372,-5.37638,5.63114,2.37739,-5.50415,-1.21001,-1.21001,57.68925,11.98016,57.68925382,11.98015793,A,150321.80
18:53:02.226672,5.68103,0.01277,1.83845,1.83845,[5.00000 0.00000 0.00000],[1.30000 0.00000 0.00000],0.00250,-0.08874,-0.00063,-0.01314,0.00000,-0.02088,-0.11310,0.07851,0.03184,0.94324,5.66983,0.00977,1.69702,-1.12962,-1.18131,2.33940,-5.41374,5.63114,2.37739,-5.50415,-1.21001,-1.21001,57.68925,11.98016,57.68925348,11.98015819,A,150321.80
18:53:02.252669,5.70703,0.01402,1.83845,1.83845,[5.00000 0.00000 0.00000],[1.30000 0.00000 0.00000],0.00241,-0.08874,0.00319,-0.03161,0.00000,-0.02989,-0.11401,-0.11779,-0.00878,1.06183,5.69570,0.02442,1.72530,-1.13641,-1.18810,2.35494,-5.45149,5.63114,2.37739,-5.50415,-1.21001,-1.21001,57.68925,11.98016,57.68925314,11.98015846,A,150321.80
18:53:02.279345,5.73370,0.01207,1.83845,1.83845,[5.00000 0.00000 0.00000],[1.30000 0.00000 0.00000],0.00294,-0.08874,0.00304,-0.03429,0.00000,0.02905,-0.12501,0.00689,0.03373,1.03364,5.72339,0.08059,1.74793,-1.14246,-1.19415,2.37099,-5.49121,5.63114,2.37739,-5.50415,-1.21001,-1.21001,57.68925,11.98016,57.68925278,11.98015873,A,150321.80
18:53:02.314895,5.76926,0.02639,1.83845,1.83845,[5.00000 0.00000 0.00000],[1.30000 0.00000 0.00000],0.00396,-0.08883,0.01816,-0.11652,0.00000,0.03089,-0.12791,0.01434,0.04008,0.90945,5.74355,0.10012,1.76603,-1.14567,-1.19741,2.39507,-5.55184,5.76401,2.43683,-5.65241,-1.18953,-1.18953,57.68925,11.98016,57.68925224,11.98015913,A,150321.90
18:53:02.342769,5.79713,0.01433,1.83845,1.83845,[5.00000 0.00000 0.00000],[1.30000 0.00000 0.00000],0.00455,-0.09072,0.02076,-0.13336,0.00000,-0.00546,-0.10363,0.05020,-0.01452,1.06116,5.78588,0.16117,1.78052,-1.14697,-1.19982,2.41115,-5.59256,5.76401,2.43683,-5.65241,-1.18953,-1.18953,57.68925,11.98016,57.68925187,11.98015940,A,150321.90
18:53:02.363806,5.81816,0.01260,1.51411,1.51411,[5.00000 0.00000 0.00000],[1.30000 0.00000 0.00000],0.00567,-0.09330,0.02763,-0.17501,0.00000,0.01027,-0.10699,0.00598,0.05545,1.09074,5.80619,0.19292,1.72724,-1.14730,-1.20166,2.42322,-5.62328,5.76401,2.43683,-5.65241,-1.18953,-1.18953,57.68925,11.98016,57.68925160,11.98015960,A,150321.90
18:53:02.387678,5.84204,0.01234,1.51411,1.51411,[5.00000 0.00000 0.00000],[1.30000 0.00000 0.00000],0.00588,-0.09638,0.02030,-0.13972,0.00000,0.00599,-0.11355,0.05691,-0.00964,0.97716,5.83260,1.00122,1.68461,-1.14808,-1.20424,2.43813,-5.66152,5.76401,2.43683,-5.65241,-1.18953,-1.18953,57.68925,11.98016,57.68925125,11.98015986,A,150321.90
18:53:02.407372,5.86173,0.01178,1.51411,1.51411,[5.00000 0.00000 0.00000],[1.30000 0.00000 0.00000],0.00650,-0.09981,0.01266,-0.10554,0.00000,-0.01355,-0.11416,0.05679,0.03202,0.90622,5.85069,0.92308,1.65051,-1.14756,-1.20572,2.44754,-5.68576,5.76401,2.43683,-5.65241,-1.18953,-1.18953,57.68925,11.98016,57.68925103,11.98016001,A,150321.90
18:53:02.444867,5.89923,0.02600,1.51411,1.51411,[5.00000 0.00000 0.00000],[1.30000 0.00000 0.00000],0.00653,-0.10292,0.01419,-0.11340,0.00000,-0.00470,-0.12058,-0.05502,-0.00823,1.01778,5.87438,0.46886,1.62323,-1.14929,-1.20928,2.47033,-5.74475,5.89449,2.49626,-5.80067,-1.18953,-1.18953,57.68925,11.98016,57.68925050,11.98016040,A,150322.00
18:53:02.461450,5.91581,0.00852,1.51411,1.51411,[5.00000 0.00000 0.00000],[1.30000 0.00000 0.00000],0.00712,-0.10779,0.00518,-0.07218,0.00000,0.01928,-0.13799,0.00622,0.03745,0.97740,5.90699,0.27839,1.60141,-1.14770,-1.21054,2.47955,-5.76849,5.89449,2.49626,-5.80067,-1.18953,-1.18953,57.68925,11.98016,57.68925029,11.98016055,A,150322.00
18:53:02.473148,5.92749,0.00998,1.85252,1.85252,[5.00000 0.00000 0.00000],[1.30000 0.00000 0.00000],0.00787,-0.10932,-0.00429,-0.02970,0.00000,0.01867,-0.13997,0.02532,0.04953,0.95672,5.91697,0.32967,1.65163,-1.14543,-1.20916,2.48466,-5.78145,5.89449,2.49626,-5.80067,-1.18953,-1.18953,57.68925,11.98016,57.68925017,11.98016064,A,150322.00
18:53:02.484775,5.93914,0.01059,1.85252,1.85252,[5.00000 0.00000 0.00000],[1.30000 0.00000 0.00000],0.00747,-0.11070,-0.00307,-0.03320,0.00000,0.01012,-0.14654,-0.00512,-0.02409,0.94282,5.92903,0.28571,1.69181,-1.14350,-1.20805,2.48995,-5.79487,5.89449,2.49626,-5.80067,-1.18953,-1.18953,57.68925,11.98016,57.68925005,11.98016073,A,150322.00
18:53:02.507103,5.96146,0.01059,1.85252,1.85252,[5.00000 0.00000 0.00000],[1.30000 0.00000 0.00000],0.00769,-0.11254,-0.01437,0.02186,0.00000,-0.02531,-0.14517,0.03111,0.03709,1.00028,5.95278,0.07082,1.72395,-1.14336,-1.20898,2.50178,-5.82549,5.89449,2.49626,-5.80067,-1.18953,-1.18953,57.68925,11.98016,57.68924978,11.98016093,A,150322.00
18:53:02.526576,5.98093,0.01009,1.85252,1.85252,[5.00000 0.00000 0.00000],[1.30000 0.00000 0.00000],0.00822,-0.11435,-0.01559,0.02454,0.00000,-0.01737,-0.14960,-0.05929,0.06027,1.07165,5.97164,0.03663,1.74967,-1.14282,-1.20950,2.51173,-5.85126,5.89449,2.49626,-5.80067,-1.18953,-1.18953,57.68925,11.98016,57.68924954,11.98016109,A,150322.00
18:53:02.544335,5.99870,0.00999,1.85252,1.85252,[5.00000 0.00000 0.00000],[1.30000 0.00000 0.00000],0.00802,-0.11515,-0.01223,0.00906,0.00000,0.00813,-0.14975,0.00390,0.00152,1.05811,5.98829,0.00977,1.77024,-1.14195,-1.20910,2.51968,-5.87182,5.89449,2.49626,-5.80067,-1.18953,-1.18953,57.68925,11.98016,57.68924936,11.98016123,A,150322.00
18:53:02.577144,6.03151,0.03179,1.85252,1.85252,[5.00000 0.00000 0.00000],[1.30000 0.00000 0.00000],0.00761,-0.11520,-0.01941,0.04761,0.00000,0.01317,-0.15143,0.02977,-0.01415,0.97094,5.99946,0.01465,1.78669,-1.16610,-1.23328,2.54171,-5.93581,6.02684,2.57551,-6.13425,-1.33756,-1.33756,57.68925,11.98016,57.68924878,11.98016160,A,150322.20
18:53:02.599691,6.05405,0.00829,1.85252,1.85252,[5.00000 0.00000 0.00000],[1.30000 0.00000 0.00000],0.00654,-0.11520,-0.02460,0.08051,0.00000,-0.00470,-0.15448,-0.01446,0.00146,0.95191,6.04601,0.01954,1.79986,-1.18484,-1.25203,2.55484,-5.97831,6.02684,2.57551,-6.13425,-1.33756,-1.33756,57.68925,11.98016,57.68924840,11.98016182,A,150322.20
18:53:02.611223,6.06558,0.00941,1.85252,1.85252,[5.00000 0.00000 0.00000],[1.30000 0.00000 0.00000],0.00553,-0.11520,-0.02720,0.10002,0.00000,0.00477,-0.15754,0.00659,-0.04904,1.00882,6.05720,0.01465,1.81039,-1.19915,-1.26633,2.56102,-6.00171,6.02684,2.57551,-6.13425,-1.33756,-1.33756,57.68925,11.98016,57.68924819,11.98016192,A,150322.20
18:53:02.622464,6.07568,0.00910,1.72543,1.72543,[5.00000 0.00000 0.00000],[1.30000 0.00000 0.00000],0.00482,-0.11518,-0.03575,0.14745,0.00000,0.01103,-0.16242,0.00885,-0.02422,1.04865,6.06661,0.00488,1.79340,-1.21112,-1.27829,2.56605,-6.02204,6.02684,2.57551,-6.13425,-1.33756,-1.33756,57.68925,11.98016,57.68924801,11.98016201,A,150322.20
18:53:02.633508,6.08787,0.00972,1.72543,1.72543,[5.00000 0.00000 0.00000],[1.30000 0.00000 0.00000],0.00445,-0.11495,-0.03346,0.13835,0.00000,0.02600,-0.16609,0.01452,0.00518,1.05268,6.07884,0.00000,1.77980,-1.22161,-1.28865,2.57159,-6.04447,6.02684,2.57551,-6.13425,-1.33756,-1.33756,57.68925,11.98016,57.68924781,11.98016210,A,150322.20
18:53:02.646731,6.10109,0.01192,1.72543,1.72543,[5.00000 0.00000 0.00000],[1.30000 0.00000 0.00000],0.00473,-0.11407,-0.02506,0.09457,0.00000,0.02478,-0.16120,-0.00366,0.03947,1.03450,6.08992,0.00000,1.76893,-1.23041,-1.29693,2.57607,-6.06375,6.02684,2.57551,-6.13425,-1.33756,-1.33756,57.68925,11.98016,57.68924763,11.98016218,A,150322.20
18:53:02.671153,6.12551,0.01023,1.72543,1.72543,[5.00000 0.00000 0.00000],[1.30000 0.00000 0.00000],0.00376,-0.11110,-0.03728,0.16196,0.00000,0.00157,-0.16777,0.05435,0.00458,1.02669,6.11718,0.01221,1.76023,-1.24014,-1.30492,2.58631,-6.10383,6.02684,2.57551,-6.13425,-1.33756,-1.33756,57.68925,11.98016,57.68924727,11.98016235,A,150322.20
18:53:02.702599,6.15696,0.02367,1.72543,1.72543,[5.00000 0.00000 0.00000],[1.30000 0.00000 0.00000],0.00351,-0.10997,-0.04522,0.20325,0.00000,-0.00943,-0.16166,0.05948,0.03642,1.03956,6.13376,0.00000,1.75327,-1.22727,-1.29139,2.60192,-6.16115,6.15205,2.63494,-6.28251,-1.18953,-1.18953,57.68925,11.98016,57.68924676,11.98016261,A,150322.30
18:53:02.721747,6.17611,0.00946,1.72543,1.72543,[5.00000 0.00000 0.00000],[1.30000 0.00000 0.00000],0.00196,-0.10615,-0.03331,0.15377,0.00000,-0.00057,-0.17403,0.08418,-0.02879,0.95977,6.16707,0.00000,1.74770,-1.21482,-1.27669,2.61157,-6.19508,6.15205,2.63494,-6.28251,-1.18953,-1.18953,57.68925,11.98016,57.68924645,11.98016277,A,150322.30
18:53:02.733175,6.18752,0.01012,1.72543,1.72543,[5.00000 0.00000 0.00000],[1.30000 0.00000 0.00000],0.00195,-0.10473,-0.03774,0.17599,0.00000,-0.00714,-0.17082,-0.02916,0.02153,0.94995,6.17685,0.00000,1.74325,-1.20295,-1.26399,2.61652,-6.21195,6.15205,2.63494,-6.28251,-1.18953,-1.18953,57.68925,11.98016,57.68924630,11.98016286,A,150322.30
18:53:02.750354,6.20449,0.00804,1.72543,1.72543,[5.00000 0.00000 0.00000],[1.30000 0.00000 0.00000],0.00150,-0.10201,-0.02369,0.10866,0.00000,0.00783,-0.15876,-0.03575,0.00006,0.95770,6.19613,0.00000,1.73968,-1.19420,-1.25365,2.62551,-6.24095,6.15205,2.63494,-6.28251,-1.18953,-1.18953,57.68925,11.98016,57.68924604,11.98016301,A,150322.30
18:53:02.760735,6.21510,0.00825,1.72543,1.72543,[5.00000 0.00000 0.00000],[1.30000 0.00000 0.00000],0.00114,-0.10046,-0.01590,0.07206,0.00000,0.01455,-0.15143,0.07607,-0.01189,0.98009,6.20695,0.00000,1.73683,-1.18583,-1.24437,2.63035,-6.25634,6.15205,2.63494,-6.28251,-1.18953,-1.18953,57.68925,11.98016,57.68924590,11.98016309,A,150322.30
18:53:02.770401,6.22452,0.00749,1.62136,1.62136,[5.00000 0.00000 0.00000],[1.30000 0.00000 0.00000],0.00127,-0.09935,-0.02246,0.07206,0.00000,0.01455,-0.14058,-0.03800,0.02745,1.02096,6.21650,0.00000,1.71374,-1.17868,-1.23658,2.63462,-6.26957,6.15205,2.63494,-6.28251,-1.18953,-1.18953,57.68925,11.98016,57.68924578,11.98016316,A,150322.30
18:53:02.781464,6.23583,0.00840,1.62136,1.62136,[5.00000 0.00000 0.00000],[1.30000 0.00000 0.00000],0.00107,-0.09845,-0.01177,0.05190,0.00000,0.01638,-0.13585,0.02019,-0.00018,1.02321,6.22723,0.00000,1.69526,-1.17279,-1.23016,2.63923,-6.28344,6.15205,2.63494,-6.28251,-1.18953,-1.18953,57.68925,11.98016,57.68924566,11.98016324,A,150322.30
18:53:02.791508,6.24587,0.00825,1.62136,1.62136,[5.00000 0.00000 0.00000],[1.30000 0.00000 0.00000],0.00098,-0.09766,-0.00902,0.03877,0.00000,0.01882,-0.12989,-0.00506,0.00494,1.03602,6.23748,0.00000,1.68048,-1.16780,-1.22470,2.64351,-6.29608,6.15205,2.63494,-6.28251,-1.18953,-1.18953,57.68925,11.98016,57.68924554,11.98016331,A,150322.30
18:53:02.815268,6.26963,0.02160,1.62136,1.62136,[5.00000 0.00000 0.00000],[1.30000 0.00000 0.00000],0.00122,-0.09658,-0.00078,-0.00407,0.00000,0.01714,-0.12516,0.06265,0.02190,1.01266,6.24768,0.00244,1.66866,-1.19862,-1.25489,2.65643,-6.33758,6.26446,2.66466,-6.46784,-1.41180,-1.41180,57.68924,11.98016,57.68924517,11.98016353,A,150322.40
18:53:02.834814,6.28789,0.00824,1.62136,1.62136,[5.00000 0.00000 0.00000],[1.30000 0.00000 0.00000],0.00097,-0.09536,-0.01712,0.07929,0.00000,-0.02287,-0.13142,-0.00335,0.02300,0.97643,6.27987,0.00977,1.65920,-1.22424,-1.27980,2.66500,-6.36904,6.26446,2.66466,-6.46784,-1.41180,-1.41180,57.68924,11.98016,57.68924489,11.98016367,A,150322.40
18:53:02.847421,6.30178,0.01092,1.62136,1.62136,[5.00000 0.00000 0.00000],[1.30000 0.00000 0.00000],0.00136,-0.09517,-0.02537,0.11802,0.00000,-0.02837,-0.14181,0.04416,0.04886,1.00626,6.29064,0.00000,1.65163,-1.24515,-1.30059,2.66921,-6.38809,6.26446,2.66466,-6.46784,-1.41180,-1.41180,57.68924,11.98016,57.68924472,11.98016374,A,150322.40
18:53:02.863471,6.31783,0.00790,1.62136,1.62136,[5.00000 0.00000 0.00000],[1.30000 0.00000 0.00000],0.00101,-0.09457,-0.02094,0.09809,0.00000,-0.00149,-0.14822,0.01336,0.00872,1.01394,6.30950,0.00000,1.64558,-1.26356,-1.31866,2.67504,-6.41394,6.26446,2.66466,-6.46784,-1.41180,-1.41180,57.68924,11.98016,57.68924448,11.98016384,A,150322.40
18:53:02.873648,6.32801,0.00767,1.62136,1.62136,[5.00000 0.00000 0.00000],[1.30000 0.00000 0.00000],0.00028,-0.09386,-0.01636,0.07993,0.00000,0.00493,-0.14608,0.00885,-0.03227,0.98362,6.31996,0.00000,1.64074,-1.27859,-1.33327,2.67788,-6.42971,6.26446,2.66466,-6.46784,-1.41180,-1.41180,57.68924,11.98016,57.68924434,11.98016389,A,150322.40
18:53:02.884968,6.33905,0.00830,1.62136,1.62136,[5.00000 0.00000 0.00000],[1.30000 0.00000 0.00000],-0.00031,-0.09299,-0.01636,0.08380,0.00000,0.00370,-0.14333,0.03733,-0.02397,0.97344,6.33032,0.00244,1.63686,-1.29138,-1.34555,2.68023,-6.44405,6.26446,2.66466,-6.46784,-1.41180,-1.41180,57.68924,11.98016,57.68924421,11.98016393,A,150322.40
18:53:02.894659,6.34902,0.00806,1.62136,1.62136,[5.00000 0.00000 0.00000],[1.30000 0.00000 0.00000],-0.00010,-0.09211,-0.01529,0.08380,0.00000,0.00737,-0.13264,0.00988,0.02745,0.96941,6.34083,0.00000,1.63376,-1.30230,-1.35595,2.68223,-6.45737,6.26446,2.66466,-6.46784,-1.41180,-1.41180,57.68924,11.98016,57.68924409,11.98016396,A,150322.40
18:53:02.905252,6.35962,0.00825,1.82209,1.82209,[5.00000 0.00000 0.00000],[1.30000 0.00000 0.00000],0.00021,-0.09126,-0.01162,0.05672,0.00000,0.01180,-0.12379,0.01043,0.02507,0.95184,6.35100,0.00244,1.67143,-1.31171,-1.36487,2.68422,-6.47102,6.26446,2.66466,-6.46784,-1.41180,-1.41180,57.68924,11.98016,57.68924397,11.98016400,A,150322.40
18:53:02.928871,6.38324,0.02123,1.82209,1.82209,[5.00000 0.00000 0.00000],[1.30000 0.00000 0.00000],-0.00014,-0.09052,-0.00857,0.04373,0.00000,0.01394,-0.11355,-0.00018,-0.01824,0.95014,6.36146,0.00488,1.70156,-1.27951,-1.33224,2.69379,-6.51218,6.37853,2.73400,-6.61610,-1.13332,-1.13332,57.68924,11.98016,57.68924360,11.98016416,A,150322.50
18:53:02.949508,6.40387,0.01193,1.82209,1.82209,[5.00000 0.00000 0.00000],[1.30000 0.00000 0.00000],-0.00095,-0.08973,-0.01895,0.10091,0.00000,0.00095,-0.12715,0.03526,-0.01372,1.03932,6.39376,0.00000,1.72567,-1.25168,-1.30395,2.70231,-6.54413,6.37853,2.73400,-6.61610,-1.13332,-1.13332,57.68924,11.98016,57.68924331,11.98016430,A,150322.50
18:53:02.966002,6.42037,0.00761,1.82209,1.82209,[5.00000 0.00000 0.00000],[1.30000 0.00000 0.00000],-0.00179,-0.08950,-0.02521,0.13767,0.00000,0.00890,-0.14669,-0.00927,-0.02647,1.03944,6.41233,0.00000,1.74495,-1.22786,-1.28000,2.71051,-6.57194,6.37853,2.73400,-6.61610,-1.13332,-1.13332,57.68924,11.98016,57.68924306,11.98016444,A,150322.50
18:53:02.976639,6.43100,0.00784,1.82209,1.82209,[5.00000 0.00000 0.00000],[1.30000 0.00000 0.00000],-0.00181,-0.08860,-0.01849,0.10423,0.00000,0.01119,-0.14379,0.06411,0.00982,1.01071,6.42282,0.00000,1.76038,-1.20692,-1.25853,2.71571,-6.58759,6.37853,2.73400,-6.61610,-1.13332,-1.13332,57.68924,11.98016,57.68924292,11.98016453,A,150322.50
18:53:02.988353,6.44272,0.00932,1.82209,1.82209,[5.00000 0.00000 0.00000],[1.30000 0.00000 0.00000],-0.00184,-0.08727,-0.02598,0.14181,0.00000,0.00111,-0.14624,0.10724,0.01287,0.97069,6.43286,0.00000,1.77272,-1.18919,-1.24002,2.72078,-6.60190,6.37853,2.73400,-6.61610,-1.13332,-1.13332,57.68924,11.98016,57.68924279,11.98016461,A,150322.50
18:53:02.998916,6.45210,0.00781,1.82209,1.82209,[5.00000 0.00000 0.00000],[1.30000 0.00000 0.00000],-0.00229,-0.08611,-0.03056,0.14181,0.00000,-0.01844,-0.14440,0.01757,-0.00909,0.96551,6.44411,0.00000,1.78260,-1.17416,-1.22431,2.72563,-6.61479,6.37853,2.73400,-6.61610,-1.13332,-1.13332,57.68924,11.98016,57.68924268,11.98016469,A,150322.50
18:53:03.008007,6.46237,0.00787,1.82209,1.82209,[5.00000 0.00000 0.00000],[1.30000 0.00000 0.00000],-0.00262,-0.08540,-0.02964,0.16524,0.00000,-0.03249,-0.14333,0.01214,-0.00494,0.95715,6.45417,0.00000,1.79050,-1.16148,-1.21122,2.73063,-6.62754,6.37853,2.73400,-6.61610,-1.13332,-1.13332,57.68924,11.98016,57.68924256,11.98016478,A,150322.50
18:53:03.018691,6.47306,0.00801,1.82209,1.82209,[5.00000 0.00000 0.00000],[1.30000 0.00000 0.00000],-0.00247,-0.08444,-0.03102,0.17112,0.00000,-0.03035,-0.13845,-0.05624,0.02946,0.99393,6.46452,0.00000,1.79682,-1.15085,-1.20003,2.73593,-6.64064,6.37853,2.73400,-6.61610,-1.13332,-1.13332,57.68924,11.98016,57.68924245,11.98016487,A,150322.50
18:53:03.042924,6.49729,0.02183,1.82209,1.82209,[5.00000 0.00000 0.00000],[1.30000 0.00000 0.00000],-0.00265,-0.08300,-0.01910,0.11277,0.00000,-0.01554,-0.12715,-0.01732,0.00000,1.00144,6.47507,0.00000,1.80187,-1.16995,-1.21828,2.75176,-6.68269,6.49233,2.77362,-6.76436,-1.30964,-1.30964,57.68924,11.98017,57.68924207,11.98016513,A,150322.60
18:53:03.064473,6.51884,0.00929,1.74599,1.74599,[5.00000 0.00000 0.00000],[1.30000 0.00000 0.00000],-0.00323,-0.07929,-0.01269,0.08446,0.00000,0.01913,-0.11982,-0.06539,-0.00714,0.99961,6.51068,0.00000,1.79070,-1.18615,-1.23232,2.76447,-6.71835,6.49233,2.77362,-6.76436,-1.30964,-1.30964,57.68924,11.98017,57.68924175,11.98016535,A,150322.60
18:53:03.073537,6.52790,0.00808,1.74599,1.74599,[5.00000 0.00000 0.00000],[1.30000 0.00000 0.00000],-0.00317,-0.07801,-0.01361,0.08446,0.00000,0.02386,-0.11676,0.01555,0.01342,0.98802,6.51957,0.00000,1.78175,-1.19863,-1.24405,2.76904,-6.73234,6.49233,2.77362,-6.76436,-1.30964,-1.30964,57.68924,11.98017,57.68924162,11.98016542,A,150322.60
18:53:03.083682,6.53805,0.00782,1.74599,1.74599,[5.00000 0.00000 0.00000],[1.30000 0.00000 0.00000],-0.00359,-0.07700,-0.00139,0.03028,0.00000,0.02249,-0.11294,0.00134,-0.02550,1.01126,6.52987,0.00000,1.77460,-1.20937,-1.25420,2.77356,-6.74661,6.49233,2.77362,-6.76436,-1.30964,-1.30964,57.68924,11.98017,57.68924149,11.98016550,A,150322.60
18:53:03.095814,6.55018,0.00852,1.74599,1.74599,[5.00000 0.00000 0.00000],[1.30000 0.00000 0.00000],-0.00369,-0.07589,-0.01300,0.08895,0.00000,0.01607,-0.10668,0.10803,0.00488,0.97899,6.54192,0.00000,1.76888,-1.21882,-1.26301,2.77895,-6.76392,6.49233,2.77362,-6.76436,-1.30964,-1.30964,57.68924,11.98017,57.68924134,11.98016559,A,150322.60
18:53:03.105320,6.55969,0.00762,1.74599,1.74599,[5.00000 0.00000 0.00000],[1.30000 0.00000 0.00000],-0.00422,-0.07541,-0.01345,0.08895,0.00000,-0.00241,-0.10424,0.07210,-0.02501,0.97271,6.55172,0.00244,1.76430,-1.22661,-1.27052,2.78255,-6.77610,6.49233,2.77362,-6.76436,-1.30964,-1.30964,57.68924,11.98017,57.68924123,11.98016565,A,150322.60
18:53:03.117095,6.57146,0.00899,1.74599,1.74599,[5.00000 0.00000 0.00000],[1.30000 0.00000 0.00000],-0.00388,-0.07490,-0.01697,0.11005,0.00000,-0.02379,-0.09706,-0.01665,0.03794,1.02077,6.56310,0.00000,1.76064,-1.23344,-1.27705,2.78672,-6.79042,6.49233,2.77362,-6.76436,-1.30964,-1.30964,57.68924,11.98017,57.68924110,11.98016572,A,150322.60
18:53:03.126006,6.58037,0.00755,1.74599,1.74599,[5.00000 0.00000 0.00000],[1.30000 0.00000 0.00000],-0.00359,-0.07385,-0.01452,0.11005,0.00000,-0.02088,-0.09905,-0.02233,0.03172,1.03737,6.57230,0.00000,1.75771,-1.23912,-1.28211,2.78951,-6.80052,6.49233,2.77362,-6.76436,-1.30964,-1.30964,57.68924,11.98017,57.68924101,11.98016577,A,150322.60
18:53:03.137657,6.59202,0.00880,1.74599,1.74599,[5.00000 0.00000 0.00000],[1.30000 0.00000 0.00000],-0.00375,-0.07250,-0.00597,0.05420,0.00000,-0.00271,-0.10073,-0.03630,-0.00275,1.02730,6.58397,0.00000,1.75537,-1.24430,-1.28650,2.79333,-6.81425,6.49233,2.77362,-6.76436,-1.30964,-1.30964,57.68924,11.98017,57.68924088,11.98016583,A,150322.60
18:53:03.175683,6.63005,0.03650,1.74599,1.74599,[5.00000 0.00000 0.00000],[1.30000 0.00000 0.00000],-0.00426,-0.07165,-0.00658,0.06060,0.00000,-0.00103,-0.10561,0.08278,-0.02782,1.00229,6.59304,0.00244,1.75349,-1.26074,-1.30245,2.81219,-6.88431,6.62518,2.83306,-7.06088,-1.37298,-1.37298,57.68924,11.98017,57.68924025,11.98016615,A,150322.80
18:53:03.195021,6.64939,0.01078,2.02922,2.02922,[5.00000 0.00000 0.00000],[1.30000 0.00000 0.00000],-0.00582,-0.06966,-0.01513,0.11350,0.00000,0.02249,-0.10118,0.02086,-0.06039,0.95898,6.63896,0.00488,1.80864,-1.27304,-1.31359,2.82058,-6.91988,6.62518,2.83306,-7.06088,-1.37298,-1.37298,57.68924,11.98017,57.68923993,11.98016629,A,150322.80
18:53:03.210676,6.66503,0.00781,2.02922,2.02922,[5.00000 0.00000 0.00000],[1.30000 0.00000 0.00000],-0.00624,-0.06890,-0.01376,0.10936,0.00000,0.00935,-0.09446,0.07070,-0.01708,0.96478,6.65678,0.00000,1.85275,-1.28334,-1.32345,2.82743,-6.95057,6.62518,2.83306,-7.06088,-1.37298,-1.37298,57.68924,11.98017,57.68923966,11.98016641,A,150322.80
18:53:03.222015,6.67638,0.00802,2.02922,2.02922,[5.00000 0.00000 0.00000],[1.30000 0.00000 0.00000],-0.00569,-0.06805,-0.01345,0.10423,0.00000,-0.00699,-0.08683,0.05807,0.04136,0.98661,6.66835,0.00244,1.88805,-1.29176,-1.33137,2.83190,-6.97270,6.62518,2.83306,-7.06088,-1.37298,-1.37298,57.68924,11.98017,57.68923946,11.98016648,A,150322.80
18:53:03.233169,6.68753,0.00876,2.02922,2.02922,[5.00000 0.00000 0.00000],[1.30000 0.00000 0.00000],-0.00501,-0.06732,-0.01697,0.11738,0.00000,-0.01172,-0.09340,-0.02891,0.05496,1.03566,6.67833,0.00000,1.91628,-1.29881,-1.33799,2.83529,-6.99076,6.62518,2.83306,-7.06088,-1.37298,-1.37298,57.68924,11.98017,57.68923930,11.98016654,A,150322.80
18:53:03.242781,6.69714,0.00819,2.02922,2.02922,[5.00000 0.00000 0.00000],[1.30000 0.00000 0.00000],-0.00568,-0.06669,-0.02124,0.14316,0.00000,0.00080,-0.10073,0.02550,-0.03410,1.02108,6.68881,0.00000,1.93887,-1.30494,-1.34376,2.83881,-7.00957,6.62518,2.83306,-7.06088,-1.37298,-1.37298,57.68924,11.98017,57.68923913,11.98016660,A,150322.80
18:53:03.258329,6.71248,0.01312,2.02922,2.02922,[5.00000 0.00000 0.00000],[1.30000 0.00000 0.00000],-0.00668,-0.06593,-0.02628,0.17481,0.00000,-0.00286,-0.10790,0.06368,-0.05033,1.02309,6.70053,0.00000,1.95694,-1.31043,-1.34880,2.84304,-7.03170,6.62518,2.83306,-7.06088,-1.37298,-1.37298,57.68924,11.98017,57.68923893,11.98016667,A,150322.80
18:53:03.288704,6.74307,0.02102,2.02922,2.02922,[5.00000 0.00000 0.00000],[1.30000 0.00000 0.00000],-0.00609,-0.06383,-0.03819,0.23054,0.00000,-0.02256,-0.11340,0.06423,0.09180,1.02437,6.72182,0.00000,1.97139,-1.32029,-1.35744,2.85613,-7.09511,6.73838,2.86278,-7.22767,-1.39448,-1.39448,57.68924,11.98017,57.68923836,11.98016689,A,150322.90
18:53:03.306998,6.76136,0.00791,2.02922,2.02922,[5.00000 0.00000 0.00000],[1.30000 0.00000 0.00000],-0.00673,-0.05871,-0.01254,0.10642,0.00000,0.00645,-0.10286,0.03989,-0.01854,1.02748,6.75304,0.00000,1.98296,-1.32779,-1.36195,2.86285,-7.13122,6.73838,2.86278,-7.22767,-1.39448,-1.39448,57.68924,11.98017,57.68923803,11.98016700,A,150322.90
18:53:03.317692,6.77206,0.00820,2.02922,2.02922,[5.00000 0.00000 0.00000],[1.30000 0.00000 0.00000],-0.00752,-0.05665,-0.01895,0.14363,0.00000,0.00630,-0.09446,0.11529,-0.04069,0.99125,6.76386,0.00000,1.99221,-1.33361,-1.36658,2.86632,-7.15245,6.73838,2.86278,-7.22767,-1.39448,-1.39448,57.68924,11.98017,57.68923784,11.98016706,A,150322.90
18:53:03.327729,6.78210,0.00783,1.50417,1.50417,[5.00000 0.00000 0.00000],[1.30000 0.00000 0.00000],-0.00775,-0.05549,-0.02323,0.16654,0.00000,-0.00393,-0.09126,0.03611,0.00586,0.97826,6.77394,0.00000,1.89460,-1.33856,-1.37084,2.86916,-7.17077,6.73838,2.86278,-7.22767,-1.39448,-1.39448,57.68924,11.98017,57.68923768,11.98016711,A,150322.90
18:53:03.339296,6.79366,0.00871,1.50417,1.50417,[5.00000 0.00000 0.00000],[1.30000 0.00000 0.00000],-0.00785,-0.05430,-0.01727,0.13739,0.00000,-0.01065,-0.08576,-0.00030,0.01104,0.95532,6.78445,0.00000,1.81651,-1.34294,-1.37453,2.87222,-7.19028,6.73838,2.86278,-7.22767,-1.39448,-1.39448,57.68924,11.98017,57.68923750,11.98016716,A,150322.90
18:53:03.348625,6.80299,0.00780,1.50417,1.50417,[5.00000 0.00000 0.00000],[1.30000 0.00000 0.00000],-0.00656,-0.05288,-0.01132,0.13739,0.00000,-0.01569,-0.07446,0.04056,0.09504,0.94410,6.79492,0.00000,1.75405,-1.34661,-1.37738,2.87430,-7.20498,6.73838,2.86278,-7.22767,-1.39448,-1.39448,57.68924,11.98017,57.68923737,11.98016719,A,150322.90
18:53:03.363339,6.81770,0.01226,1.50417,1.50417,[5.00000 0.00000 0.00000],[1.30000 0.00000 0.00000],-0.00668,-0.05121,0.00533,0.01677,0.00000,-0.01569,-0.07003,0.01659,-0.00451,0.92293,6.80698,0.00000,1.70407,-1.35004,-1.37983,2.87707,-7.22321,6.73838,2.86278,-7.22767,-1.39448,-1.39448,57.68924,11.98017,57.68923721,11.98016724,A,150322.90
18:53:03.379675,6.83404,0.00788,1.50417,1.50417,[5.00000 0.00000 0.00000],[1.30000 0.00000 0.00000],-0.00772,-0.04875,-0.00276,0.06399,0.00000,-0.01920,-0.07156,0.01946,-0.05624,0.98314,6.82594,0.00000,1.66409,-1.35342,-1.38178,2.88097,-7.24730,6.73838,2.86278,-7.22767,-1.39448,-1.39448,57.68924,11.98017,57.68923699,11.98016731,A,150322.90
18:53:03.405348,6.85971,0.02314,1.50417,1.50417,[5.00000 0.00000 0.00000],[1.30000 0.00000 0.00000],-0.00799,-0.04815,-0.00796,0.09169,0.00000,-0.00607,-0.07400,0.02721,-0.00470,1.00754,6.83619,0.00000,1.63210,-1.36555,-1.39356,2.88827,-7.29240,6.85454,2.88259,-7.39446,-1.45257,-1.45257,57.68924,11.98017,57.68923658,11.98016743,A,150323.00
18:53:03.421230,6.87559,0.00800,1.50417,1.50417,[5.00000 0.00000 0.00000],[1.30000 0.00000 0.00000],-0.00784,-0.04592,0.00854,0.00827,0.00000,0.00599,-0.07064,0.05612,-0.00018,0.96368,6.86755,0.00000,1.60652,-1.37539,-1.40210,2.89175,-7.31849,6.85454,2.88259,-7.39446,-1.45257,-1.45257,57.68924,11.98017,57.68923635,11.98016749,A,150323.00
18:53:03.431542,6.88591,0.00791,1.50417,1.50417,[5.00000 0.00000 0.00000],[1.30000 0.00000 0.00000],-0.00826,-0.04507,0.02320,-0.06229,0.00000,0.00416,-0.07018,0.09986,-0.03410,0.96636,6.87745,0.01221,1.58605,-1.38348,-1.40970,2.89337,-7.33449,6.85454,2.88259,-7.39446,-1.45257,-1.45257,57.68924,11.98017,57.68923621,11.98016751,A,150323.00
18:53:03.442986,6.89708,0.00867,1.50417,1.50417,[5.00000 0.00000 0.00000],[1.30000 0.00000 0.00000],-0.00849,-0.04436,0.00457,0.03233,0.00000,-0.00821,-0.06667,0.02361,-0.01043,1.02883,6.88853,0.04884,1.56967,-1.39046,-1.41627,2.89509,-7.35139,6.85454,2.88259,-7.39446,-1.45257,-1.45257,57.68924,11.98017,57.68923605,11.98016754,A,150323.00
18:53:03.453060,6.90742,0.00890,1.85644,1.85644,[5.00000 0.00000 0.00000],[1.30000 0.00000 0.00000],-0.00883,-0.04408,0.00441,0.03529,0.00000,-0.00347,-0.06194,-0.03404,-0.02257,1.03462,6.89927,0.03663,1.62702,-1.39637,-1.42201,2.89641,-7.36608,6.85454,2.88259,-7.39446,-1.45257,-1.45257,57.68924,11.98017,57.68923592,11.98016757,A,150323.00
18:53:03.462582,6.91639,0.00754,1.85644,1.85644,[5.00000 0.00000 0.00000],[1.30000 0.00000 0.00000],-0.00912,-0.04408,0.00380,0.03529,0.00000,0.00294,-0.05797,0.05636,-0.01897,1.04176,6.90835,0.02442,1.67291,-1.40134,-1.42698,2.89737,-7.37850,6.85454,2.88259,-7.39446,-1.45257,-1.45257,57.68924,11.98017,57.68923581,11.98016758,A,150323.00
18:53:03.472968,6.92733,0.00825,1.85644,1.85644,[5.00000 0.00000 0.00000],[1.30000 0.00000 0.00000],-0.00876,-0.04408,-0.00154,0.06463,0.00000,-0.00210,-0.05995,0.03196,0.02922,1.02998,6.91915,0.01221,1.70961,-1.40565,-1.43129,2.89861,-7.39294,6.85454,2.88259,-7.39446,-1.45257,-1.45257,57.68924,11.98017,57.68923568,11.98016760,A,150323.00
18:53:03.483595,6.93796,0.00883,1.85644,1.85644,[5.00000 0.00000 0.00000],[1.30000 0.00000 0.00000],-0.00790,-0.04408,-0.00032,0.05294,0.00000,-0.00134,-0.05674,0.01952,0.06277,1.02706,6.92859,0.00488,1.73898,-1.40931,-1.43495,2.89972,-7.40660,6.85454,2.88259,-7.39446,-1.45257,-1.45257,57.68924,11.98017,57.68923556,11.98016762,A,150323.00
18:53:03.494435,6.94856,0.00921,1.85644,1.85644,[5.00000 0.00000 0.00000],[1.30000 0.00000 0.00000],-0.00727,-0.04408,0.01434,-0.02442,0.00000,-0.00302,-0.05293,-0.00140,0.03605,1.00436,6.93904,0.01465,1.76247,-1.41237,-1.43802,2.90052,-7.41815,6.85454,2.88259,-7.39446,-1.45257,-1.45257,57.68924,11.98017,57.68923545,11.98016764,A,150323.00
18:53:03.520967,6.97533,0.02526,1.85644,1.85644,[5.00000 0.00000 0.00000],[1.30000 0.00000 0.00000],-0.00790,-0.04408,0.02091,-0.05316,0.00000,0.01439,-0.05415,0.00006,-0.05405,0.99088,6.95142,0.02198,1.78126,-1.40728,-1.43292,2.90665,-7.46680,6.97061,2.91231,-7.56126,-1.39448,-1.39448,57.68923,11.98017,57.68923502,11.98016774,A,150323.10
18:53:03.538874,6.99324,0.01017,1.85644,1.85644,[5.00000 0.00000 0.00000],[1.30000 0.00000 0.00000],-0.00735,-0.04416,0.00365,0.02951,0.00000,0.02417,-0.05476,0.05935,0.03166,0.96270,6.98388,0.06593,1.79630,-1.40242,-1.42811,2.91058,-7.49780,6.97061,2.91231,-7.56126,-1.39448,-1.39448,57.68923,11.98017,57.68923474,11.98016780,A,150323.10
18:53:03.556243,7.01061,0.00946,1.85644,1.85644,[5.00000 0.00000 0.00000],[1.30000 0.00000 0.00000],-0.00683,-0.04473,0.00518,0.01853,0.00000,0.03028,-0.05873,-0.06814,0.03026,0.95184,7.00215,0.04396,1.80832,-1.39821,-1.42423,2.91434,-7.52654,6.97061,2.91231,-7.56126,-1.39448,-1.39448,57.68923,11.98017,57.68923448,11.98016787,A,150323.10
18:53:03.568680,7.02304,0.01145,1.85644,1.85644,[5.00000 0.00000 0.00000],[1.30000 0.00000 0.00000],-0.00637,-0.04496,0.01113,-0.01424,0.00000,0.03806,-0.06453,0.05612,0.02556,0.93592,7.01231,0.04640,1.81795,-1.39425,-1.42040,2.91644,-7.54318,6.97061,2.91231,-7.56126,-1.39448,-1.39448,57.68923,11.98017,57.68923433,11.98016790,A,150323.10
18:53:03.586050,7.04041,0.00880,1.85644,1.85644,[5.00000 0.00000 0.00000],[1.30000 0.00000 0.00000],-0.00687,-0.04513,0.01297,0.04805,0.01050,0.01974,-0.05949,0.06960,-0.04337,0.96734,7.03183,0.06349,1.82564,-1.39129,-1.41754,2.92025,-7.57061,6.97061,2.91231,-7.56126,-1.39448,-1.39448,57.68923,11.98017,57.68923408,11.98016797,A,150323.10
18:53:03.597004,7.05136,0.00969,1.85644,1.85644,[5.00000 0.00000 0.00000],[1.30000 0.00000 0.00000],-0.00694,-0.04524,0.00716,0.34966,0.05236,0.00844,-0.05537,0.07107,-0.00470,0.99631,7.04112,0.04151,1.83180,-1.38824,-1.41456,2.92169,-7.58201,6.97061,2.91231,-7.56126,-1.39448,-1.39448,57.68923,11.98017,57.68923398,11.98016799,A,150323.10
18:53:03.607980,7.06235,0.00996,1.85644,1.85644,[5.00000 0.00000 0.00000],[1.30000 0.00000 0.00000],-0.00647,-0.04527,-0.00017,0.38320,0.05236,0.00126,-0.05445,-0.02678,0.04014,1.07024,7.05413,0.00244,1.83673,-1.38581,-1.41214,2.92380,-7.59734,6.97061,2.91231,-7.56126,-1.39448,-1.39448,57.68923,11.98017,57.68923384,11.98016803,A,150323.10
18:53:03.618450,7.07256,0.00812,1.53821,1.53821,[5.00000 0.00000 0.00000],[1.30000 0.00000 0.00000],-0.00561,-0.04450,0.00991,0.32726,0.05236,0.01898,-0.05338,-0.00238,0.06649,1.09690,7.06416,0.00000,1.77703,-1.38372,-1.40961,2.92545,-7.60947,6.97061,2.91231,-7.56126,-1.39448,-1.39448,57.68923,11.98017,57.68923373,11.98016805,A,150323.10
18:53:03.643290,7.09765,0.02281,1.53821,1.53821,[5.00000 0.00000 0.00000],[1.30000 0.00000 0.00000],-0.00561,-0.04215,0.01174,0.31811,0.05236,0.02585,-0.05644,0.02056,0.00342,1.07891,7.07449,0.00000,1.72926,-1.38300,-1.40752,2.93252,-7.65375,7.09141,2.94202,-7.72805,-1.39448,-1.39448,57.68923,11.98017,57.68923333,11.98016817,A,150323.20
18:53:03.659523,7.11388,0.00794,1.53821,1.53821,[5.00000 0.00000 0.00000],[1.30000 0.00000 0.00000],-0.00577,-0.03248,0.00167,0.36952,0.05236,-0.00332,-0.06911,0.02202,-0.00140,0.97728,7.10552,0.00000,1.69105,-1.38266,-1.40155,2.93683,-7.68074,7.09141,2.94202,-7.72805,-1.39448,-1.39448,57.68923,11.98017,57.68923309,11.98016825,A,150323.20
18:53:03.672801,7.12717,0.01093,1.53821,1.53821,[5.00000 0.00000 0.00000],[1.30000 0.00000 0.00000],-0.00585,-0.02998,0.00671,0.34485,0.05236,-0.00073,-0.07599,0.00421,0.00268,0.99064,7.11632,0.00000,1.66048,-1.38226,-1.39969,2.93999,-7.70009,7.09141,2.94202,-7.72805,-1.39448,-1.39448,57.68923,11.98017,57.68923292,11.98016830,A,150323.20
18:53:03.690582,7.14491,0.00903,1.53821,1.53821,[5.00000 0.00000 0.00000],[1.30000 0.00000 0.00000],-0.00564,-0.02393,0.01694,0.29230,0.05236,0.00202,-0.06713,0.02525,0.00634,0.96081,7.13569,0.00000,1.63603,-1.38254,-1.39645,2.94398,-7.72402,7.09141,2.94202,-7.72805,-1.39448,-1.39448,57.68923,11.98017,57.68923270,11.98016837,A,150323.20
18:53:03.699763,7.15413,0.00790,1.53821,1.53821,[5.00000 0.00000 0.00000],[1.30000 0.00000 0.00000],-0.00552,-0.02101,0.02198,0.26634,0.05236,0.00309,-0.05751,0.05765,0.00726,0.95691,7.14593,0.00000,1.61647,-1.38273,-1.39495,2.94610,-7.73681,7.09141,2.94202,-7.72805,-1.39448,-1.39448,57.68923,11.98017,57.68923259,11.98016840,A,150323.20
18:53:03.710766,7.16513,0.00886,1.53821,1.53821,[5.00000 0.00000 0.00000],[1.30000 0.00000 0.00000],-0.00435,-0.01798,0.03664,0.18543,0.05236,-0.00118,-0.04132,0.01446,0.06545,0.96813,7.15671,0.00000,1.60081,-1.38315,-1.39361,2.94829,-7.74984,7.09141,2.94202,-7.72805,-1.39448,-1.39448,57.68923,11.98017,57.68923247,11.98016844,A,150323.20
18:53:03.720365,7.17473,0.00826,1.53821,1.53821,[5.00000 0.00000 0.00000],[1.30000 0.00000 0.00000],-0.00305,-0.01549,0.04717,0.18543,0.05236,0.00767,-0.03139,-0.02690,0.07564,1.01168,7.16612,0.00000,1.58829,-1.38366,-1.39267,2.95000,-7.76006,7.09141,2.94202,-7.72805,-1.39448,-1.39448,57.68923,11.98017,57.68923238,11.98016847,A,150323.20
18:53:03.732011,7.18639,0.00937,1.53821,1.53821,[5.00000 0.00000 0.00000],[1.30000 0.00000 0.00000],-0.00320,-0.01312,0.06657,0.02826,0.05236,0.02249,-0.01734,-0.06387,-0.03636,1.01907,7.17646,0.00000,1.57828,-1.38430,-1.39193,2.95199,-7.77174,7.09141,2.94202,-7.72805,-1.39448,-1.39448,57.68923,11.98017,57.68923227,11.98016850,A,150323.20
18:53:03.767970,7.22233,0.03497,1.90161,1.90161,[5.00000 0.00000 0.00000],[1.30000 0.00000 0.00000],-0.00271,-0.01113,0.06581,0.02894,0.05236,0.03180,-0.00619,0.08991,0.00427,0.97277,7.18704,0.00000,1.64294,-1.38973,-1.39620,2.96327,-7.83765,7.21705,2.99155,-8.06163,-1.42340,-1.42340,57.68923,11.98017,57.68923168,11.98016869,A,150323.40
18:53:03.786892,7.24125,0.00847,1.90161,1.90161,[5.00000 0.00000 0.00000],[1.30000 0.00000 0.00000],0.00167,-0.00774,0.08566,-0.09880,0.05236,-0.01386,-0.00283,0.02159,0.05398,1.00241,7.23288,0.00244,1.69468,-1.39433,-1.39883,2.96922,-7.87458,7.21705,2.99155,-8.06163,-1.42340,-1.42340,57.68923,11.98017,57.68923135,11.98016879,A,150323.40
18:53:03.797541,7.25190,0.00872,1.90161,1.90161,[5.00000 0.00000 0.00000],[1.30000 0.00000 0.00000],0.00190,-0.00720,0.08780,-0.11102,0.05236,-0.01126,-0.01093,0.03209,-0.01781,1.01797,7.24283,0.01465,1.73607,-1.39815,-1.40234,2.97285,-7.89837,7.21705,2.99155,-8.06163,-1.42340,-1.42340,57.68923,11.98017,57.68923113,11.98016885,A,150323.40
18:53:03.808716,7.26308,0.00968,1.90161,1.90161,[5.00000 0.00000 0.00000],[1.30000 0.00000 0.00000],0.00225,-0.00700,0.08169,-0.08272,0.05236,-0.00806,-0.01688,0.02336,-0.00659,1.02913,7.25288,0.11722,1.76918,-1.40139,-1.40546,2.97577,-7.91824,7.21705,2.99155,-8.06163,-1.42340,-1.42340,57.68923,11.98017,57.68923096,11.98016890,A,150323.40
18:53:03.817838,7.27220,0.00814,1.90161,1.90161,[5.00000 0.00000 0.00000],[1.30000 0.00000 0.00000],0.00356,-0.00726,0.07512,-0.08272,0.05236,-0.01050,-0.02299,-0.00799,0.06069,1.03822,7.26382,0.11722,1.79566,-1.40412,-1.40834,2.97850,-7.93703,7.21705,2.99155,-8.06163,-1.42340,-1.42340,57.68923,11.98017,57.68923079,11.98016895,A,150323.40
18:53:03.827980,7.28234,0.00787,1.90161,1.90161,[5.00000 0.00000 0.00000],[1.30000 0.00000 0.00000],0.00453,-0.00782,0.07925,-0.08530,0.05236,0.00447,-0.02589,-0.00171,0.03739,1.02462,7.27411,0.14408,1.81685,-1.40641,-1.41096,2.98133,-7.95655,7.21705,2.99155,-8.06163,-1.42340,-1.42340,57.68923,11.98017,57.68923061,11.98016899,A,150323.40
18:53:03.838581,7.29257,0.00755,1.90161,1.90161,[5.00000 0.00000 0.00000],[1.30000 0.00000 0.00000],0.00546,-0.00876,0.09146,-0.15247,0.05236,0.01562,-0.02330,-0.02757,0.02617,0.98381,7.28448,0.10256,1.83381,-1.40828,-1.41337,2.98415,-7.97610,7.21705,2.99155,-8.06163,-1.42340,-1.42340,57.68923,11.98017,57.68923044,11.98016904,A,150323.40
18:53:03.848892,7.30326,0.00784,1.90161,1.90161,[5.00000 0.00000 0.00000],[1.30000 0.00000 0.00000],0.00619,-0.00992,0.09574,-0.17856,0.05236,0.01928,-0.01979,0.06112,0.00817,0.94520,7.29507,0.21245,1.84737,-1.40978,-1.41555,2.98684,-7.99500,7.21705,2.99155,-8.06163,-1.42340,-1.42340,57.68923,11.98017,57.68923027,11.98016909,A,150323.40
18:53:03.859296,7.31366,0.00783,1.90161,1.90161,[5.00000 0.00000 0.00000],[1.30000 0.00000 0.00000],0.00653,-0.01130,0.09223,-0.16323,0.05236,0.00645,-0.01352,0.04111,-0.01098,0.93849,7.30526,0.19780,1.85822,-1.41095,-1.41753,2.98931,-8.01264,7.21705,2.99155,-8.06163,-1.42340,-1.42340,57.68923,11.98017,57.68923011,11.98016913,A,150323.40
18:53:03.886558,7.34092,0.02489,1.90161,1.90161,[5.00000 0.00000 0.00000],[1.30000 0.00000 0.00000],0.00699,-0.01309,0.09757,-0.19298,0.05236,0.00050,-0.00497,0.04825,-0.00897,0.93440,7.31581,0.11233,1.86690,-1.41821,-1.42582,2.99737,-8.06940,7.33609,3.01136,-8.24696,-1.46430,-1.46430,57.68923,11.98017,57.68922960,11.98016926,A,150323.50
18:53:03.902869,7.35723,0.00790,1.76000,1.76000,[5.00000 0.00000 0.00000],[1.30000 0.00000 0.00000],0.01045,-0.01943,0.10933,-0.27421,0.05236,0.01119,-0.00711,0.03764,0.02129,1.08873,7.34891,0.16850,1.84552,-1.42369,-1.43499,3.00172,-8.10326,7.33609,3.01136,-8.24696,-1.46430,-1.46430,57.68923,11.98017,57.68922929,11.98016934,A,150323.50
18:53:03.913708,7.36807,0.00834,1.76000,1.76000,[5.00000 0.00000 0.00000],[1.30000 0.00000 0.00000],0.01096,-0.02132,0.10521,-0.25696,0.05236,0.01684,-0.01551,0.07210,-0.01110,1.07885,7.35973,0.41514,1.82841,-1.42817,-1.44057,3.00441,-8.12658,7.33609,3.01136,-8.24696,-1.46430,-1.46430,57.68923,11.98017,57.68922908,11.98016938,A,150323.50
18:53:03.923558,7.37792,0.00800,1.76000,1.76000,[5.00000 0.00000 0.00000],[1.30000 0.00000 0.00000],0.01195,-0.02331,0.10521,-0.25696,0.05236,0.01913,-0.02254,-0.08021,0.02788,1.10203,7.36996,0.32479,1.81473,-1.43178,-1.44533,3.00651,-8.14600,7.33609,3.01136,-8.24696,-1.46430,-1.46430,57.68923,11.98017,57.68922891,11.98016942,A,150323.50
18:53:03.933519,7.38789,0.00756,1.76000,1.76000,[5.00000 0.00000 0.00000],[1.30000 0.00000 0.00000],0.01329,-0.02563,0.10322,-0.26218,0.05236,0.02844,-0.02971,0.02123,0.05496,1.05481,7.37996,0.74237,1.80378,-1.43468,-1.44958,3.00855,-8.16529,7.33609,3.01136,-8.24696,-1.46430,-1.46430,57.68923,11.98017,57.68922873,11.98016945,A,150323.50
18:53:03.944326,7.39869,0.00796,1.76000,1.76000,[5.00000 0.00000 0.00000],[1.30000 0.00000 0.00000],0.01431,-0.02829,0.10475,-0.27642,0.05236,0.02111,-0.03353,0.08680,0.02593,0.96722,7.39033,0.89621,1.79503,-1.43694,-1.45340,3.01044,-8.18374,7.33609,3.01136,-8.24696,-1.46430,-1.46430,57.68923,11.98017,57.68922857,11.98016948,A,150323.50
18:53:03.954750,7.40911,0.00805,1.76000,1.76000,[5.00000 0.00000 0.00000],[1.30000 0.00000 0.00000],0.01481,-0.03103,0.10261,-0.26898,0.05236,-0.00806,-0.03826,0.13682,-0.00561,0.92305,7.40066,1.09158,1.78802,-1.43865,-1.45670,3.01215,-8.20098,7.33609,3.01136,-8.24696,-1.46430,-1.46430,57.68923,11.98017,57.68922841,11.98016951,A,150323.50
18:53:03.966000,7.42036,0.00888,1.76000,1.76000,[5.00000 0.00000 0.00000],[1.30000 0.00000 0.00000],0.01549,-0.03415,0.09604,-0.24058,0.05236,-0.03616,-0.03888,0.02769,0.00915,0.94788,7.41112,0.32234,1.78242,-1.43986,-1.45972,3.01372,-8.21733,7.33609,3.01136,-8.24696,-1.46430,-1.46430,57.68923,11.98017,57.68922827,11.98016954,A,150323.50
18:53:03.979298,7.43365,0.01203,1.76000,1.76000,[5.00000 0.00000 0.00000],[1.30000 0.00000 0.00000],0.01646,-0.03630,0.09818,-0.25756,0.05236,-0.03677,-0.03918,-0.00140,0.02220,0.92659,7.42207,0.68864,1.77793,-1.44077,-1.46188,3.01529,-8.23396,7.33609,3.01136,-8.24696,-1.46430,-1.46430,57.68923,11.98017,57.68922812,11.98016957,A,150323.50
18:53:04.009882,7.46424,0.02283,1.76000,1.76000,[5.00000 0.00000 0.00000],[1.30000 0.00000 0.00000],0.01785,-0.04210,0.09070,-0.22917,0.05236,-0.02944,-0.04728,-0.06722,0.00958,0.98222,7.44101,0.26374,1.77435,-1.44798,-1.47247,3.02094,-8.29091,7.45797,3.02127,-8.39522,-1.50408,-1.50408,57.68923,11.98017,57.68922760,11.98016966,A,150323.60
18:53:04.027129,7.48149,0.00790,1.66041,1.66041,[5.00000 0.00000 0.00000],[1.30000 0.00000 0.00000],0.02146,-0.05118,0.09895,-0.29389,0.05236,0.02203,-0.06316,0.00738,0.06362,1.01260,7.47318,0.27839,1.75156,-1.45285,-1.48262,3.02370,-8.32402,7.45797,3.02127,-8.39522,-1.50408,-1.50408,57.68923,11.98017,57.68922731,11.98016971,A,150323.60
18:53:04.037343,7.49171,0.00770,1.66041,1.66041,[5.00000 0.00000 0.00000],[1.30000 0.00000 0.00000],0.02124,-0.05407,0.10139,-0.30469,0.05236,0.02447,-0.07522,-0.00750,-0.05008,0.98741,7.48364,0.30525,1.73333,-1.45637,-1.48783,3.02482,-8.34162,7.45797,3.02127,-8.39522,-1.50408,-1.50408,57.68923,11.98017,57.68922715,11.98016973,A,150323.60
18:53:04.048069,7.50243,0.00802,1.66041,1.66041,[5.00000 0.00000 0.00000],[1.30000 0.00000 0.00000],0.02233,-0.05699,0.08932,-0.25141,0.05236,0.02600,-0.08148,0.04258,0.04038,0.93598,7.49406,0.38095,1.71875,-1.45914,-1.49230,3.02579,-8.35804,7.45797,3.02127,-8.39522,-1.50408,-1.50408,57.68923,11.98017,57.68922700,11.98016974,A,150323.60
18:53:04.058360,7.51247,0.00762,1.66041,1.66041,[5.00000 0.00000 0.00000],[1.30000 0.00000 0.00000],0.02303,-0.06027,0.09100,-0.26436,0.05236,0.00828,-0.08439,0.10864,0.01580,0.92677,7.50436,0.31013,1.70708,-1.46121,-1.49628,3.02661,-8.37324,7.45797,3.02127,-8.39522,-1.50408,-1.50408,57.68923,11.98017,57.68922686,11.98016976,A,150323.60
18:53:04.069899,7.52426,0.00899,1.66041,1.66041,[5.00000 0.00000 0.00000],[1.30000 0.00000 0.00000],0.02437,-0.06330,0.08398,-0.23796,0.05236,-0.02043,-0.08652,0.08461,0.05966,0.94635,7.51503,0.37851,1.69775,-1.46277,-1.49961,3.02738,-8.38821,7.45797,3.02127,-8.39522,-1.50408,-1.50408,57.68923,11.98017,57.68922673,11.98016977,A,150323.60
18:53:04.081962,7.53631,0.01080,1.66041,1.66041,[5.00000 0.00000 0.00000],[1.30000 0.00000 0.00000],0.02463,-0.06587,0.09055,-0.27250,0.05236,-0.04318,-0.08439,0.03544,-0.00799,0.97197,7.52497,0.31502,1.69028,-1.46398,-1.50232,3.02818,-8.40406,7.45797,3.02127,-8.39522,-1.50408,-1.50408,57.68923,11.98017,57.68922659,11.98016978,A,150323.60
18:53:04.099502,7.55386,0.00901,1.66041,1.66041,[5.00000 0.00000 0.00000],[1.30000 0.00000 0.00000],0.02615,-0.07100,0.09467,-0.30297,0.05236,-0.05280,-0.09446,-0.00433,0.00726,1.03456,7.54548,0.65201,1.68430,-1.46516,-1.50649,3.02966,-8.43024,7.45797,3.02127,-8.39522,-1.50408,-1.50408,57.68923,11.98017,57.68922635,11.98016981,A,150323.60
18:53:04.123894,7.57826,0.02318,1.66041,1.66041,[5.00000 0.00000 0.00000],[1.30000 0.00000 0.00000],0.02615,-0.07422,0.09223,-0.29075,0.05236,-0.03493,-0.09950,-0.00159,-0.02287,1.04548,7.55478,0.23443,1.67953,-1.45270,-1.49591,3.03308,-8.47429,7.57348,3.05099,-8.58054,-1.41180,-1.41180,57.68923,11.98017,57.68922596,11.98016987,A,150323.70
18:53:04.139650,7.59402,0.00779,1.66041,1.66041,[5.00000 0.00000 0.00000],[1.30000 0.00000 0.00000],0.02910,-0.08367,0.09620,-0.32982,0.05236,-0.01126,-0.11325,-0.02050,0.02971,0.96783,7.58602,0.47375,1.67570,-1.44051,-1.48924,3.03560,-8.50125,7.57348,3.05099,-8.58054,-1.41180,-1.41180,57.68923,11.98017,57.68922571,11.98016991,A,150323.70
18:53:04.151291,7.60566,0.00887,1.66041,1.66041,[5.00000 0.00000 0.00000],[1.30000 0.00000 0.00000],0.03017,-0.08696,0.09375,-0.32456,0.05236,-0.01264,-0.11508,0.07100,0.03575,0.89890,7.59626,0.48840,1.67264,-1.42953,-1.48018,3.03753,-8.51937,7.57348,3.05099,-8.58054,-1.41180,-1.41180,57.68923,11.98017,57.68922555,11.98016994,A,150323.70
18:53:04.160556,7.61492,0.00792,1.85559,1.85559,[5.00000 0.00000 0.00000],[1.30000 0.00000 0.00000],0.03087,-0.09047,0.08795,-0.32456,0.05236,-0.01997,-0.11646,0.07540,0.01013,0.90249,7.60680,0.23932,1.70923,-1.41978,-1.47248,3.03929,-8.53445,7.57348,3.05099,-8.58054,-1.41180,-1.41180,57.68923,11.98017,57.68922541,11.98016997,A,150323.70
18:53:04.173059,7.62742,0.01018,1.85559,1.85559,[5.00000 0.00000 0.00000],[1.30000 0.00000 0.00000],0.03157,-0.09378,0.08749,-0.30230,0.05236,-0.03554,-0.11920,-0.03587,0.00823,0.96490,7.61824,0.49328,1.73851,-1.41157,-1.46620,3.04151,-8.55334,7.57348,3.05099,-8.58054,-1.41180,-1.41180,57.68923,11.98017,57.68922524,11.98017001,A,150323.70
18:53:04.188813,7.64318,0.00782,1.85559,1.85559,[5.00000 0.00000 0.00000],[1.30000 0.00000 0.00000],0.03304,-0.09984,0.07940,-0.27140,0.05236,-0.03264,-0.13051,0.00122,0.03843,1.00815,7.63507,0.31502,1.76192,-1.40452,-1.46270,3.04433,-8.57705,7.57348,3.05099,-8.58054,-1.41180,-1.41180,57.68923,11.98017,57.68922503,11.98017005,A,150323.70
18:53:04.202752,7.65711,0.00883,1.85559,1.85559,[5.00000 0.00000 0.00000],[1.30000 0.00000 0.00000],0.03467,-0.10408,0.08123,-0.29116,0.05236,-0.02287,-0.14394,-0.03227,0.06844,1.03712,7.64850,0.28327,1.78066,-1.39802,-1.45868,3.04676,-8.59651,7.57348,3.05099,-8.58054,-1.41180,-1.41180,57.68923,11.98017,57.68922486,11.98017010,A,150323.70
18:53:04.212870,7.66723,0.00799,1.85559,1.85559,[5.00000 0.00000 0.00000],[1.30000 0.00000 0.00000],0.03600,-0.10702,0.08841,-0.33568,0.05236,-0.00485,-0.15097,0.04947,0.05911,1.03218,7.65898,0.37118,1.79564,-1.39187,-1.45426,3.04855,-8.60979,7.57348,3.05099,-8.58054,-1.41180,-1.41180,57.68923,11.98017,57.68922474,11.98017013,A,150323.70
18:53:04.237572,7.69194,0.02228,1.85559,1.85559,[5.00000 0.00000 0.00000],[1.30000 0.00000 0.00000],0.03634,-0.11034,0.08795,-0.33560,0.05236,0.00386,-0.16181,0.06972,-0.01251,0.96325,7.66994,0.50061,1.80763,-1.40335,-1.46768,3.05361,-8.65462,7.68672,3.06089,-8.74733,-1.51148,-1.51148,57.68922,11.98017,57.68922433,11.98017021,A,150323.80
18:53:04.253973,7.70833,0.00775,1.85559,1.85559,[5.00000 0.00000 0.00000],[1.30000 0.00000 0.00000],0.03851,-0.12069,0.08291,-0.32454,0.05236,-0.01951,-0.17861,0.07906,0.00293,0.93873,7.70039,0.40049,1.81722,-1.41116,-1.48157,3.05655,-8.68416,7.68672,3.06089,-8.74733,-1.51148,-1.51148,57.68922,11.98017,57.68922407,11.98017026,A,150323.80
18:53:04.266502,7.72085,0.00936,1.85559,1.85559,[5.00000 0.00000 0.00000],[1.30000 0.00000 0.00000],0.03861,-0.12440,0.08688,-0.34506,0.05236,-0.02928,-0.17754,0.00085,-0.02812,0.97783,7.71128,0.63248,1.82490,-1.41678,-1.48937,3.05815,-8.70275,7.68672,3.06089,-8.74733,-1.51148,-1.51148,57.68922,11.98017,57.68922390,11.98017029,A,150323.80
18:53:04.278627,7.73298,0.01007,1.85559,1.85559,[5.00000 0.00000 0.00000],[1.30000 0.00000 0.00000],0.03956,-0.12825,0.07482,-0.29091,0.05236,-0.02684,-0.17983,0.00506,0.03544,1.02578,7.72267,0.61538,1.83104,-1.42122,-1.49607,3.05952,-8.72004,7.68672,3.06089,-8.74733,-1.51148,-1.51148,57.68922,11.98017,57.68922375,11.98017031,A,150323.80
18:53:04.295336,7.74970,0.00803,1.78570,1.78570,[5.00000 0.00000 0.00000],[1.30000 0.00000 0.00000],0.04101,-0.13533,0.07787,-0.31559,0.05236,-0.01859,-0.18900,-0.01299,0.03727,1.11453,7.74122,0.24664,1.82197,-1.42546,-1.50447,3.06149,-8.74681,7.68672,3.06089,-8.74733,-1.51148,-1.51148,57.68922,11.98017,57.68922350,11.98017034,A,150323.80
18:53:04.305483,7.75985,0.00777,1.78570,1.78570,[5.00000 0.00000 0.00000],[1.30000 0.00000 0.00000],0.04194,-0.13861,0.07726,-0.31855,0.05236,-0.00378,-0.19526,-0.00842,0.04105,1.05426,7.75172,0.44200,1.81472,-1.42782,-1.50876,3.06246,-8.76192,7.68672,3.06089,-8.74733,-1.51148,-1.51148,57.68922,11.98017,57.68922337,11.98017036,A,150323.80
18:53:04.316084,7.77045,0.00796,1.78570,1.78570,[5.00000 0.00000 0.00000],[1.30000 0.00000 0.00000],0.04286,-0.14198,0.08261,-0.35129,0.05236,-0.00088,-0.21083,0.01440,0.03666,1.04847,7.76225,0.22222,1.80891,-1.42950,-1.51242,3.06328,-8.77566,7.68672,3.06089,-8.74733,-1.51148,-1.51148,57.68922,11.98017,57.68922325,11.98017037,A,150323.80
18:53:04.326764,7.78112,0.00827,1.78570,1.78570,[5.00000 0.00000 0.00000],[1.30000 0.00000 0.00000],0.04284,-0.14574,0.07589,-0.31758,0.05236,0.00951,-0.21893,0.05039,-0.02202,1.06134,7.77236,0.21734,1.80427,-1.43065,-1.51579,3.06402,-8.78888,7.68672,3.06089,-8.74733,-1.51148,-1.51148,57.68922,11.98017,57.68922313,11.98017039,A,150323.80
18:53:04.350492,7.80485,0.02159,1.78570,1.78570,[5.00000 0.00000 0.00000],[1.30000 0.00000 0.00000],0.04286,-0.14939,0.07283,-0.30241,0.05236,0.00905,-0.22290,0.06576,-0.02245,0.98588,7.78298,0.33944,1.80056,-1.40793,-1.49522,3.06794,-8.83320,7.80000,3.10052,-8.91413,-1.33756,-1.33756,57.68922,11.98017,57.68922273,11.98017045,A,150323.90
18:53:04.368963,7.82332,0.00798,1.78570,1.78570,[5.00000 0.00000 0.00000],[1.30000 0.00000 0.00000],0.04589,-0.15998,0.07711,-0.34345,0.05236,-0.00622,-0.23160,0.03922,0.05862,0.95483,7.81519,0.28327,1.79759,-1.38662,-1.48017,3.07169,-8.86531,7.80000,3.10052,-8.91413,-1.33756,-1.33756,57.68922,11.98017,57.68922244,11.98017052,A,150323.90
18:53:04.384119,7.83848,0.01273,1.78570,1.78570,[5.00000 0.00000 0.00000],[1.30000 0.00000 0.00000],0.04697,-0.16369,0.08535,-0.39171,0.05236,-0.01187,-0.23649,0.04807,0.02885,0.99198,7.82756,0.28327,1.79521,-1.36735,-1.46310,3.07491,-8.88731,7.80000,3.10052,-8.91413,-1.33756,-1.33756,57.68922,11.98017,57.68922224,11.98017057,A,150323.90
18:53:04.401727,7.85609,0.00779,1.78570,1.78570,[5.00000 0.00000 0.00000],[1.30000 0.00000 0.00000],0.04802,-0.17150,0.07176,-0.33058,0.05236,-0.00607,-0.23893,-0.00476,0.00000,1.02443,7.84807,0.67888,1.79331,-1.35128,-1.45165,3.07909,-8.91545,7.80000,3.10052,-8.91413,-1.33756,-1.33756,57.68922,11.98017,57.68922199,11.98017064,A,150323.90
