Description : same again v3 p3 ; walk_time = 2.0 ; speed_up_time = 3.0 ; balancing_time = 0.0
RealTime,Time,CalculationTime,MeasuredVelocity,FilteredVelocity,BalancingGainsInner,BalancingGainsOuter,Roll,SteeringAngle,RollRate,ControlInput,BalancingSetpoint,gy,gz,ax,ay,az,imu_read_timing,SteerMotorCurrent,v_estimated,yaw_estimated,heading_estimated,x_estimated,y_estimated,GPS_timestamp,x_GPS,y_GPS,theta_GPS,theta_GPS_noUnwrap,latitude,longitude,lat_estimated,lon_estimated,status,NMEA timestamp
18:35:12.472923,0.04817,0.04813,0.00000,0.00000,[3.00000 0.00000 0.00000],[1.30000 0.00000 0.00000],-0.00073,-0.00968,0.02879,0.00000,0.00000,0.00710,-0.00681,0.07741,-0.04337,1.00235,0.00001,0.00977,0.00000,0.00563,0.00000,0.00000,0.00000,0.01642,0.00000,0.00000,0.00000,0.00000,57.68866,11.98067,57.68866200,11.98066650,A,144532.00
18:35:12.488896,0.06415,0.00801,0.00000,0.00000,[3.00000 0.00000 0.00000],[1.30000 0.00000 0.00000],-0.00025,-0.00968,0.03154,0.00000,0.00000,-0.00176,0.00800,0.08412,-0.05862,0.98308,0.05589,0.01221,0.00000,0.00563,0.00000,0.00000,0.00000,0.01642,0.00000,0.00000,0.00000,0.00000,57.68866,11.98067,57.68866200,11.98066650,A,144532.00
18:35:12.498446,0.07339,0.00684,0.00000,0.00000,[3.00000 0.00000 0.00000],[1.30000 0.00000 0.00000],-0.00127,-0.00968,0.03063,0.00000,0.00000,0.00359,0.00433,0.08540,-0.06313,0.98472,0.06593,0.00977,0.00000,0.00563,0.00000,0.00000,0.00000,0.01642,0.00000,0.00000,0.00000,0.00000,57.68866,11.98067,57.68866200,11.98066650,A,144532.00
18:35:12.509097,0.08436,0.00740,0.00000,0.00000,[3.00000 0.00000 0.00000],[1.30000 0.00000 0.00000],-0.00225,-0.00968,0.01978,0.00000,0.00000,0.00588,0.00067,0.09974,-0.05466,0.98448,0.07659,0.01221,0.00000,0.00563,0.00000,0.00000,0.00000,0.01642,0.00000,0.00000,0.00000,0.00000,57.68866,11.98067,57.68866200,11.98066650,A,144532.00
18:35:12.519113,0.09438,0.00701,0.00000,0.00000,[3.00000 0.00000 0.00000],[1.30000 0.00000 0.00000],-0.00299,-0.00968,0.01673,0.00000,0.00000,0.00466,-0.00055,0.10742,-0.03819,0.98600,0.08696,0.00977,0.00000,0.00563,0.00000,0.00000,0.00000,0.01642,0.00000,0.00000,0.00000,0.00000,57.68866,11.98067,57.68866200,11.98066650,A,144532.00
18:35:12.530492,0.10574,0.00756,0.00000,0.00000,[3.00000 0.00000 0.00000],[1.30000 0.00000 0.00000],-0.00365,-0.00968,0.01169,0.00000,0.00000,0.00389,-0.00697,0.10522,-0.02989,0.99027,0.09736,0.01709,0.00000,0.00563,0.00000,0.00000,0.00000,0.01642,0.00000,0.00000,0.00000,0.00000,57.68866,11.98067,57.68866200,11.98066650,A,144532.00
18:35:12.542473,0.11772,0.00957,0.00000,0.00000,[3.00000 0.00000 0.00000],[1.30000 0.00000 0.00000],-0.00422,-0.00968,0.01154,0.00000,0.00000,0.00389,-0.01323,0.10157,-0.02507,0.99223,0.10819,0.01465,0.00000,0.00563,0.00000,0.00000,0.00000,0.01642,0.00000,0.00000,0.00000,0.00000,57.68866,11.98067,57.68866200,11.98066650,A,144532.00
18:35:12.574868,0.15013,0.03137,0.00000,0.00000,[3.00000 0.00000 0.00000],[1.30000 0.00000 0.00000],-0.00487,-0.00968,0.01199,0.00000,0.00000,-0.00069,-0.01476,0.09510,-0.03056,0.99424,0.11813,0.00977,0.00000,-0.22999,-0.23562,0.00000,-0.00093,0.14624,0.00000,-0.01853,-1.57080,-1.57080,57.68866,11.98067,57.68866199,11.98066650,A,144532.20
18:35:12.591359,0.16660,0.00840,0.00000,0.00000,[3.00000 0.00000 0.00000],[1.30000 0.00000 0.00000],-0.00556,-0.00968,0.00894,0.00000,0.00000,-0.00038,-0.01399,0.10644,-0.04923,0.98899,0.15795,0.01221,0.00000,-0.43027,-0.43590,0.00000,-0.00181,0.14624,0.00000,-0.01853,-1.57080,-1.57080,57.68866,11.98067,57.68866198,11.98066650,A,144532.20
18:35:12.601463,0.17673,0.00811,0.00000,0.00000,[3.00000 0.00000 0.00000],[1.30000 0.00000 0.00000],-0.00652,-0.00968,0.01154,0.00000,0.00000,0.00115,-0.01262,0.10437,-0.05295,0.99479,0.16824,0.01465,0.00000,-0.60050,-0.60613,0.00000,-0.00264,0.14624,0.00000,-0.01853,-1.57080,-1.57080,57.68866,11.98067,57.68866198,11.98066650,A,144532.20
18:35:12.610780,0.18604,0.00701,0.00000,0.00000,[3.00000 0.00000 0.00000],[1.30000 0.00000 0.00000],-0.00747,-0.00968,0.01047,0.00000,0.00000,0.00405,-0.00498,0.10712,-0.05155,0.98875,0.17861,0.00977,0.00000,-0.74520,-0.75083,0.00000,-0.00344,0.14624,0.00000,-0.01853,-1.57080,-1.57080,57.68866,11.98067,57.68866197,11.98066650,A,144532.20
18:35:12.621136,0.19641,0.00697,0.00000,0.00000,[3.00000 0.00000 0.00000],[1.30000 0.00000 0.00000],-0.00831,-0.00968,0.00650,0.00000,0.00000,0.00130,0.00036,0.11139,-0.04270,0.99058,0.18904,0.01709,0.00000,-0.86820,-0.87383,0.00000,-0.00419,0.14624,0.00000,-0.01853,-1.57080,-1.57080,57.68866,11.98067,57.68866196,11.98066650,A,144532.20
18:35:12.631676,0.20695,0.00710,0.00000,0.00000,[3.00000 0.00000 0.00000],[1.30000 0.00000 0.00000],-0.00899,-0.00968,0.00665,0.00000,0.00000,0.00206,-0.00055,0.11193,-0.03337,0.98710,0.19948,0.01221,0.00000,-0.97274,-0.97837,0.00000,-0.00491,0.14624,0.00000,-0.01853,-1.57080,-1.57080,57.68866,11.98067,57.68866196,11.98066650,A,144532.20
18:35:12.645317,0.22059,0.01049,0.00000,0.00000,[3.00000 0.00000 0.00000],[1.30000 0.00000 0.00000],-0.00960,-0.00968,0.00818,0.00000,0.00000,0.00267,-0.00345,0.10559,-0.03074,0.99003,0.21032,0.01221,0.00000,-1.06161,-1.06724,0.00000,-0.00559,0.14624,0.00000,-0.01853,-1.57080,-1.57080,57.68866,11.98067,57.68866195,11.98066650,A,144532.20
18:35:12.663055,0.23832,0.00749,0.00000,0.00000,[3.00000 0.00000 0.00000],[1.30000 0.00000 0.00000],-0.01034,-0.00968,0.00298,0.00000,0.00000,-0.00176,-0.00865,0.10895,-0.03794,0.99003,0.23106,0.00977,0.00000,-1.13714,-1.14277,0.00000,-0.00624,0.14624,0.00000,-0.01853,-1.57080,-1.57080,57.68866,11.98067,57.68866194,11.98066650,A,144532.20
18:35:12.674413,0.24944,0.00819,0.00000,0.00000,[3.00000 0.00000 0.00000],[1.30000 0.00000 0.00000],-0.01116,-0.00968,-0.00038,0.00000,0.00000,-0.00115,-0.01812,0.11334,-0.04008,0.99381,0.24086,0.02198,0.00000,-1.20134,-1.20697,0.00000,-0.00685,0.14624,0.00000,-0.01853,-1.57080,-1.57080,57.68866,11.98067,57.68866194,11.98066650,A,144532.20
18:35:12.698616,0.27387,0.02168,0.00000,0.00000,[3.00000 0.00000 0.00000],[1.30000 0.00000 0.00000],-0.01198,-0.00968,-0.00450,0.00000,0.00000,-0.00008,-0.01628,0.11181,-0.03782,0.99619,0.25199,0.01709,0.00000,-1.02030,-1.02593,0.00050,-0.00744,0.27026,0.00991,-0.01853,0.00000,0.00000,57.68866,11.98067,57.68866193,11.98066651,A,144532.30
18:35:12.714861,0.29012,0.00746,0.00000,0.00000,[3.00000 0.00000 0.00000],[1.30000 0.00000 0.00000],-0.01302,-0.00968,-0.00633,0.00000,0.00000,0.00282,-0.00330,0.11273,-0.04337,0.98588,0.28284,0.01465,0.00000,-0.86641,-0.87204,0.00097,-0.00799,0.27026,0.00991,-0.01853,0.00000,0.00000,57.68866,11.98067,57.68866193,11.98066652,A,144532.30
18:35:12.724764,0.30003,0.00696,0.00000,0.00000,[3.00000 0.00000 0.00000],[1.30000 0.00000 0.00000],-0.01386,-0.00968,-0.00190,0.00000,0.00000,0.00466,-0.00147,0.11956,-0.04227,0.98454,0.29269,0.00977,0.00000,-0.73560,-0.74123,0.00141,-0.00852,0.27026,0.00991,-0.01853,0.00000,0.00000,57.68866,11.98067,57.68866192,11.98066652,A,144532.30
18:35:12.735281,0.31055,0.00707,0.00000,0.00000,[3.00000 0.00000 0.00000],[1.30000 0.00000 0.00000],-0.01485,-0.00965,-0.01259,0.00000,0.00000,-0.00191,0.00021,0.12133,-0.04575,0.98106,0.30307,0.01221,0.00000,-0.62442,-0.63003,0.00184,-0.00902,0.27026,0.00991,-0.01853,0.00000,0.00000,57.68866,11.98067,57.68866192,11.98066653,A,144532.30
18:35:12.752079,0.32734,0.01258,0.00000,0.00000,[3.00000 0.00000 0.00000],[1.30000 0.00000 0.00000],-0.01575,-0.00954,-0.00984,0.00000,0.00000,-0.00099,0.00296,0.11962,-0.04130,0.98417,0.31636,0.01954,0.00000,-0.52993,-0.53547,0.00224,-0.00949,0.27026,0.00991,-0.01853,0.00000,0.00000,57.68866,11.98067,57.68866191,11.98066654,A,144532.30
18:35:12.767974,0.34324,0.00713,0.00000,0.00000,[3.00000 0.00000 0.00000],[1.30000 0.00000 0.00000],-0.01687,-0.00920,-0.02008,0.00000,0.00000,-0.00084,-0.00239,0.10559,-0.04014,0.99131,0.33585,0.01954,0.00000,-0.44964,-0.45498,0.00262,-0.00995,0.27026,0.00991,-0.01853,0.00000,0.00000,57.68866,11.98067,57.68866191,11.98066654,A,144532.30
18:35:12.778019,0.35329,0.00694,0.00000,0.00000,[3.00000 0.00000 0.00000],[1.30000 0.00000 0.00000],-0.01786,-0.00903,-0.01977,0.00000,0.00000,-0.00176,-0.00758,0.10956,-0.04435,0.98832,0.34580,0.00977,0.00000,-0.38140,-0.38665,0.00299,-0.01038,0.27026,0.00991,-0.01853,0.00000,0.00000,57.68866,11.98067,57.68866191,11.98066655,A,144532.30
18:35:12.788858,0.36413,0.00736,0.00000,0.00000,[3.00000 0.00000 0.00000],[1.30000 0.00000 0.00000],-0.01877,-0.00894,-0.02298,0.00000,0.00000,-0.00038,-0.01384,0.11675,-0.03745,0.98655,0.35648,0.02198,0.00000,-0.32341,-0.32861,0.00333,-0.01078,0.27026,0.00991,-0.01853,0.00000,0.00000,57.68866,11.98067,57.68866190,11.98066656,A,144532.30
18:35:12.812965,0.38823,0.02105,0.00000,0.00000,[3.00000 0.00000 0.00000],[1.30000 0.00000 0.00000],-0.01971,-0.00894,-0.03016,0.00000,0.00000,0.00252,-0.01873,0.12157,-0.03520,0.98704,0.36722,0.01465,0.00000,-0.43611,-0.44131,0.00416,-0.01210,0.38461,0.01981,-0.03706,-1.07992,-1.07992,57.68866,11.98067,57.68866189,11.98066657,A,144532.40
18:35:12.828344,0.40361,0.00707,0.00000,0.00000,[3.00000 0.00000 0.00000],[1.30000 0.00000 0.00000],-0.02154,-0.00894,-0.03122,0.00000,0.00000,0.00084,-0.02178,0.09687,-0.05673,0.98295,0.39628,0.00733,0.00000,-0.53190,-0.53710,0.00494,-0.01335,0.38461,0.01981,-0.03706,-1.07992,-1.07992,57.68866,11.98067,57.68866188,11.98066658,A,144532.40
18:35:12.838735,0.41399,0.00704,0.00000,0.00000,[3.00000 0.00000 0.00000],[1.30000 0.00000 0.00000],-0.02273,-0.00894,-0.03046,0.00000,0.00000,-0.00313,-0.01964,0.11084,-0.05533,0.98216,0.40635,0.00488,0.00000,-0.61332,-0.61852,0.00568,-0.01453,0.38461,0.01981,-0.03706,-1.07992,-1.07992,57.68866,11.98067,57.68866187,11.98066660,A,144532.40
18:35:12.851387,0.42662,0.00926,0.00000,0.00000,[3.00000 0.00000 0.00000],[1.30000 0.00000 0.00000],-0.02364,-0.00894,-0.03352,0.00000,0.00000,-0.00053,-0.01353,0.11761,-0.03257,0.98021,0.41799,0.00977,0.00000,-0.68253,-0.68773,0.00639,-0.01566,0.38461,0.01981,-0.03706,-1.07992,-1.07992,57.68866,11.98067,57.68866186,11.98066661,A,144532.40
18:35:12.861590,0.43686,0.00879,0.00000,0.00000,[3.00000 0.00000 0.00000],[1.30000 0.00000 0.00000],-0.02456,-0.00894,-0.02924,0.00000,0.00000,-0.00481,-0.01017,0.12054,-0.03861,0.98808,0.42894,0.01465,0.00000,-0.74136,-0.74656,0.00706,-0.01673,0.38461,0.01981,-0.03706,-1.07992,-1.07992,57.68866,11.98067,57.68866185,11.98066662,A,144532.40
18:35:12.869670,0.44494,0.00679,0.00000,0.00000,[3.00000 0.00000 0.00000],[1.30000 0.00000 0.00000],-0.02526,-0.00894,-0.02756,0.00000,0.00000,-0.00389,-0.00880,0.09388,-0.03166,1.00009,0.43752,0.01465,0.00000,-0.79136,-0.79656,0.00770,-0.01775,0.38461,0.01981,-0.03706,-1.07992,-1.07992,57.68866,11.98067,57.68866184,11.98066663,A,144532.40
18:35:12.880702,0.45597,0.00741,0.00000,0.00000,[3.00000 0.00000 0.00000],[1.30000 0.00000 0.00000],-0.02629,-0.00894,-0.02496,0.00000,0.00000,-0.00695,-0.00880,0.10340,-0.05124,1.00339,0.44862,0.00977,0.00000,-0.83386,-0.83907,0.00830,-0.01871,0.38461,0.01981,-0.03706,-1.07992,-1.07992,57.68866,11.98067,57.68866183,11.98066664,A,144532.40
18:35:12.890986,0.46626,0.00728,0.00000,0.00000,[3.00000 0.00000 0.00000],[1.30000 0.00000 0.00000],-0.02751,-0.00894,-0.02481,0.00000,0.00000,-0.00649,-0.00575,0.10138,-0.06704,1.00003,0.45837,0.01221,0.00000,-0.86999,-0.87519,0.00888,-0.01963,0.38461,0.01981,-0.03706,-1.07992,-1.07992,57.68866,11.98067,57.68866182,11.98066665,A,144532.40
18:35:12.901809,0.47708,0.00770,0.00000,0.00000,[3.00000 0.00000 0.00000],[1.30000 0.00000 0.00000],-0.02866,-0.00894,-0.02130,0.00000,0.00000,-0.00664,-0.01384,0.11993,-0.06429,0.99296,0.46932,0.01709,0.00000,-0.90070,-0.90590,0.00943,-0.02050,0.38461,0.01981,-0.03706,-1.07992,-1.07992,57.68866,11.98067,57.68866182,11.98066666,A,144532.40
18:35:12.911649,0.48692,0.00713,0.00000,0.00000,[3.00000 0.00000 0.00000],[1.30000 0.00000 0.00000],-0.02965,-0.00894,-0.03290,0.00000,0.00000,-0.00741,-0.01781,0.11096,-0.04703,0.98613,0.47942,0.01465,0.00000,-0.92680,-0.93200,0.00995,-0.02133,0.38461,0.01981,-0.03706,-1.07992,-1.07992,57.68866,11.98067,57.68866181,11.98066667,A,144532.40
18:35:12.934803,0.51006,0.02002,0.00000,0.00000,[3.00000 0.00000 0.00000],[1.30000 0.00000 0.00000],-0.03049,-0.00894,-0.02710,0.00000,0.00000,-0.00787,-0.01980,0.09790,-0.04282,0.98179,0.48948,0.01221,0.00000,-0.94899,-0.95419,0.01093,-0.02304,0.50621,0.02972,-0.05560,-1.07992,-1.07992,57.68866,11.98067,57.68866179,11.98066668,A,144532.50
18:35:12.951250,0.52652,0.00824,0.00000,0.00000,[3.00000 0.00000 0.00000],[1.30000 0.00000 0.00000],-0.03195,-0.00894,-0.02618,0.00000,0.00000,-0.00206,-0.02346,0.09656,-0.05337,0.97771,0.51779,0.00977,0.00000,-0.96785,-0.97305,0.01187,-0.02467,0.50621,0.02972,-0.05560,-1.07992,-1.07992,57.68866,11.98067,57.68866178,11.98066670,A,144532.50
18:35:12.963052,0.53830,0.00981,0.00000,0.00000,[3.00000 0.00000 0.00000],[1.30000 0.00000 0.00000],-0.03280,-0.00894,-0.02298,0.00000,0.00000,-0.00909,-0.01689,0.10516,-0.04642,0.97594,0.52852,0.01465,0.00000,-0.98388,-0.98908,0.01277,-0.02622,0.50621,0.02972,-0.05560,-1.07992,-1.07992,57.68866,11.98067,57.68866176,11.98066671,A,144532.50
18:35:12.972293,0.54756,0.00822,0.00000,0.00000,[3.00000 0.00000 0.00000],[1.30000 0.00000 0.00000],-0.03361,-0.00894,-0.02389,0.00000,0.00000,-0.01229,-0.01506,0.09943,-0.04526,0.98051,0.53894,0.01954,0.00000,-0.99750,-1.00270,0.01361,-0.02769,0.50621,0.02972,-0.05560,-1.07992,-1.07992,57.68866,11.98067,57.68866175,11.98066673,A,144532.50
18:35:12.982607,0.55787,0.00754,0.00000,0.00000,[3.00000 0.00000 0.00000],[1.30000 0.00000 0.00000],-0.03439,-0.00894,-0.02710,0.00000,0.00000,-0.00771,-0.01247,0.07100,-0.04130,0.99186,0.54983,0.01954,0.00000,-1.00909,-1.01429,0.01442,-0.02908,0.50621,0.02972,-0.05560,-1.07992,-1.07992,57.68866,11.98067,57.68866174,11.98066674,A,144532.50
18:35:12.992623,0.56789,0.00717,0.00000,0.00000,[3.00000 0.00000 0.00000],[1.30000 0.00000 0.00000],-0.03503,-0.00894,-0.02130,0.00000,0.00000,-0.00389,-0.00911,0.07546,-0.03751,0.99796,0.56061,0.01221,0.00000,-1.01893,-1.02413,0.01518,-0.03041,0.50621,0.02972,-0.05560,-1.07992,-1.07992,57.68866,11.98067,57.68866173,11.98066676,A,144532.50
18:35:13.004013,0.57928,0.00814,0.00000,0.00000,[3.00000 0.00000 0.00000],[1.30000 0.00000 0.00000],-0.03564,-0.00894,-0.02191,0.00000,0.00000,-0.00588,-0.01353,0.08906,-0.03623,0.99826,0.57074,0.01465,0.00000,-1.02730,-1.03250,0.01591,-0.03167,0.50621,0.02972,-0.05560,-1.07992,-1.07992,57.68866,11.98067,57.68866172,11.98066677,A,144532.50
18:35:13.013348,0.58862,0.00689,0.00000,0.00000,[3.00000 0.00000 0.00000],[1.30000 0.00000 0.00000],-0.03647,-0.00894,-0.02344,0.00000,0.00000,0.00069,-0.01262,0.09485,-0.04984,0.99064,0.58116,0.01221,0.00000,-1.03441,-1.03961,0.01660,-0.03286,0.50621,0.02972,-0.05560,-1.07992,-1.07992,57.68866,11.98067,57.68866170,11.98066678,A,144532.50
18:35:13.023867,0.59914,0.00700,0.00000,0.00000,[3.00000 0.00000 0.00000],[1.30000 0.00000 0.00000],-0.03736,-0.00894,-0.02344,0.00000,0.00000,-0.00435,-0.01750,0.08796,-0.05478,0.98899,0.59176,0.01221,0.00000,-1.04046,-1.04566,0.01726,-0.03400,0.50621,0.02972,-0.05560,-1.07992,-1.07992,57.68866,11.98067,57.68866169,11.98066679,A,144532.50
18:35:13.047494,0.62276,0.02021,0.00000,0.00000,[3.00000 0.00000 0.00000],[1.30000 0.00000 0.00000],-0.03833,-0.00894,-0.03122,0.00000,0.00000,-0.00313,-0.01995,0.08424,-0.05600,0.98954,0.60195,0.01221,0.00000,-1.04560,-1.05080,0.01838,-0.03601,0.61890,0.03962,-0.07413,-1.07992,-1.07992,57.68866,11.98067,57.68866168,11.98066681,A,144532.60
18:35:13.070830,0.64609,0.01151,0.00000,0.00000,[3.00000 0.00000 0.00000],[1.30000 0.00000 0.00000],-0.03978,-0.00894,-0.02664,0.00000,0.00000,-0.00283,-0.02514,0.09790,-0.04709,0.98356,0.63765,0.01709,0.00000,-1.04996,-1.05516,0.01944,-0.03791,0.61890,0.03962,-0.07413,-1.07992,-1.07992,57.68866,11.98067,57.68866166,11.98066683,A,144532.60
18:35:13.085665,0.66094,0.00674,0.00000,0.00000,[3.00000 0.00000 0.00000],[1.30000 0.00000 0.00000],-0.04072,-0.00894,-0.01977,0.00000,0.00000,-0.00542,-0.02224,0.07259,-0.05655,0.99088,0.65373,0.02198,0.00000,-1.05368,-1.05888,0.02045,-0.03972,0.61890,0.03962,-0.07413,-1.07992,-1.07992,57.68866,11.98067,57.68866164,11.98066684,A,144532.60
18:35:13.096382,0.67166,0.00705,0.00000,0.00000,[3.00000 0.00000 0.00000],[1.30000 0.00000 0.00000],-0.04159,-0.00894,-0.01290,0.00000,0.00000,-0.00420,-0.01980,0.07296,-0.06539,0.99753,0.66425,0.01465,0.00000,-1.05683,-1.06203,0.02141,-0.04144,0.61890,0.03962,-0.07413,-1.07992,-1.07992,57.68866,11.98067,57.68866163,11.98066686,A,144532.60
18:35:13.108003,0.68327,0.00825,0.00000,0.00000,[3.00000 0.00000 0.00000],[1.30000 0.00000 0.00000],-0.04247,-0.00894,-0.01076,0.00000,0.00000,-0.00176,-0.01124,0.06588,-0.06753,1.00095,0.67573,0.01221,0.00000,-1.05951,-1.06471,0.02232,-0.04308,0.61890,0.03962,-0.07413,-1.07992,-1.07992,57.68866,11.98067,57.68866161,11.98066688,A,144532.60
18:35:13.117050,0.69231,0.00688,0.00000,0.00000,[3.00000 0.00000 0.00000],[1.30000 0.00000 0.00000],-0.04310,-0.00894,-0.00633,0.00000,0.00000,0.00069,-0.00987,0.07906,-0.05569,0.99210,0.68504,0.00977,0.00000,-1.06179,-1.06700,0.02318,-0.04463,0.61890,0.03962,-0.07413,-1.07992,-1.07992,57.68866,11.98067,57.68866160,11.98066689,A,144532.60
18:35:13.127620,0.70289,0.00705,0.00000,0.00000,[3.00000 0.00000 0.00000],[1.30000 0.00000 0.00000],-0.04380,-0.00894,-0.00190,0.00000,0.00000,0.00450,-0.00636,0.08869,-0.06277,0.98503,0.69548,0.01709,0.00000,-1.06373,-1.06893,0.02400,-0.04611,0.61890,0.03962,-0.07413,-1.07992,-1.07992,57.68866,11.98067,57.68866159,11.98066690,A,144532.60
18:35:13.137852,0.71312,0.00704,0.00000,0.00000,[3.00000 0.00000 0.00000],[1.30000 0.00000 0.00000],-0.04444,-0.00894,-0.00129,0.00000,0.00000,-0.00267,-0.01094,0.08894,-0.06002,0.97887,0.70552,0.00733,0.00000,-1.06538,-1.07058,0.02479,-0.04751,0.61890,0.03962,-0.07413,-1.07992,-1.07992,57.68866,11.98067,57.68866157,11.98066692,A,144532.60
18:35:13.174619,0.74988,0.03307,0.31578,0.31578,[3.00000 0.00000 0.00000],[1.30000 0.00000 0.00000],-0.04491,-0.00894,-0.00007,0.00000,0.00000,-0.00389,-0.00880,0.08052,-0.05026,0.98003,0.71641,0.01221,0.06316,-1.00116,-1.00636,0.02800,-0.05069,0.74537,0.08915,-0.11119,-0.64243,-0.64243,57.68866,11.98067,57.68866154,11.98066697,A,144532.80
18:35:13.191797,0.76707,0.00840,0.31578,0.31578,[3.00000 0.00000 0.00000],[1.30000 0.00000 0.00000],-0.04537,-0.00866,0.00039,0.00000,0.00000,-0.00787,-0.01521,0.10022,-0.05185,0.99253,0.75821,0.01465,0.11368,-0.94660,-0.95164,0.03155,-0.05448,0.74537,0.08915,-0.11119,-0.64243,-0.64243,57.68866,11.98067,57.68866151,11.98066703,A,144532.80
18:35:13.200815,0.77608,0.00700,0.31578,0.31578,[3.00000 0.00000 0.00000],[1.30000 0.00000 0.00000],-0.04582,-0.00804,0.00192,0.00000,0.00000,-0.00680,-0.00926,0.07814,-0.05191,0.99479,0.76871,0.01221,0.15410,-0.90028,-0.90495,0.03488,-0.05795,0.74537,0.08915,-0.11119,-0.64243,-0.64243,57.68866,11.98067,57.68866148,11.98066709,A,144532.80
18:35:13.211779,0.78705,0.00754,0.31578,0.31578,[3.00000 0.00000 0.00000],[1.30000 0.00000 0.00000],-0.04629,-0.00708,0.00329,0.00000,0.00000,-0.00664,-0.01216,0.08991,-0.05423,0.98259,0.77947,0.01465,0.18644,-0.86099,-0.86511,0.03838,-0.06161,0.74537,0.08915,-0.11119,-0.64243,-0.64243,57.68866,11.98067,57.68866145,11.98066715,A,144532.80
18:35:13.221525,0.79680,0.00683,0.31578,0.31578,[3.00000 0.00000 0.00000],[1.30000 0.00000 0.00000],-0.04699,-0.00594,-0.00083,0.00000,0.00000,-0.00176,-0.01399,0.09784,-0.06557,0.97264,0.78939,0.01465,0.21230,-0.82770,-0.83116,0.04182,-0.06516,0.74537,0.08915,-0.11119,-0.64243,-0.64243,57.68866,11.98067,57.68866141,11.98066720,A,144532.80
18:35:13.233186,0.80845,0.00808,0.31578,0.31578,[3.00000 0.00000 0.00000],[1.30000 0.00000 0.00000],-0.04769,-0.00478,-0.00740,0.00000,0.00000,-0.00206,-0.01750,0.10175,-0.06179,0.96526,0.79999,0.02198,0.23300,-0.79950,-0.80228,0.04551,-0.06891,0.74537,0.08915,-0.11119,-0.64243,-0.64243,57.68866,11.98067,57.68866138,11.98066727,A,144532.80
18:35:13.244054,0.81932,0.00854,0.31578,0.31578,[3.00000 0.00000 0.00000],[1.30000 0.00000 0.00000],-0.04805,-0.00374,-0.00419,0.00000,0.00000,-0.00313,-0.02285,0.11322,-0.04307,0.97057,0.81125,0.01709,0.24955,-0.77562,-0.77780,0.04899,-0.07237,0.74537,0.08915,-0.11119,-0.64243,-0.64243,57.68866,11.98067,57.68866135,11.98066732,A,144532.80
18:35:13.254885,0.83015,0.00896,2.51277,0.31578,[3.00000 0.00000 0.00000],[1.30000 0.00000 0.00000],-0.04827,-0.00266,-0.00282,0.00000,0.00000,-0.00496,-0.02041,0.10602,-0.03508,0.97569,0.82280,0.01465,0.26280,-0.75542,-0.75697,0.05248,-0.07576,0.74537,0.08915,-0.11119,-0.64243,-0.64243,57.68866,11.98067,57.68866132,11.98066738,A,144532.80
18:35:13.266629,0.84188,0.01046,2.51277,0.31578,[3.00000 0.00000 0.00000],[1.30000 0.00000 0.00000],-0.04847,-0.00170,-0.00374,0.00000,0.00000,-0.00664,-0.02071,0.09839,-0.03434,0.99113,0.83324,0.00733,0.27340,-0.73833,-0.73931,0.05591,-0.07905,0.74537,0.08915,-0.11119,-0.64243,-0.64243,57.68866,11.98067,57.68866129,11.98066744,A,144532.80
18:35:13.302454,0.87747,0.02267,2.51277,0.31578,[3.00000 0.00000 0.00000],[1.30000 0.00000 0.00000],-0.04874,0.00062,0.00329,0.00000,0.00000,-0.00023,-0.01247,0.09296,-0.04715,1.00784,0.85592,0.00488,0.28187,-0.82409,-0.82373,0.06465,-0.08851,0.87383,0.09906,-0.14826,-1.30964,-1.30964,57.68866,11.98067,57.68866120,11.98066759,A,144532.90
18:35:13.319579,0.89485,0.00816,2.51277,0.31578,[3.00000 0.00000 0.00000],[1.30000 0.00000 0.00000],-0.04897,0.00532,0.01322,0.00000,0.00000,-0.00725,0.00067,0.12230,-0.06637,0.99595,0.88748,0.00977,0.28865,-0.89738,-0.89429,0.06914,-0.09448,0.87383,0.09906,-0.14826,-1.30964,-1.30964,57.68866,11.98067,57.68866115,11.98066766,A,144532.90
18:35:13.331079,0.90634,0.00924,2.51277,0.31578,[3.00000 0.00000 0.00000],[1.30000 0.00000 0.00000],-0.04919,0.00736,0.01337,0.00000,0.00000,-0.00802,-0.00009,0.08662,-0.04959,1.01028,0.89887,0.01465,0.29408,-0.95985,-0.95558,0.07223,-0.09916,0.87383,0.09906,-0.14826,-1.30964,-1.30964,57.68866,11.98067,57.68866111,11.98066772,A,144532.90
18:35:13.340706,0.91598,0.00863,2.51277,0.31578,[3.00000 0.00000 0.00000],[1.30000 0.00000 0.00000],-0.04931,0.00928,0.01001,0.00000,0.00000,-0.00680,-0.00330,0.08693,-0.03947,1.00504,0.90864,0.01465,0.29842,-1.01312,-1.00772,0.07479,-0.10334,0.87383,0.09906,-0.14826,-1.30964,-1.30964,57.68866,11.98067,57.68866107,11.98066776,A,144532.90
18:35:13.351038,0.92630,0.00857,2.51277,0.31578,[3.00000 0.00000 0.00000],[1.30000 0.00000 0.00000],-0.04931,0.01135,0.01520,0.00000,0.00000,-0.00466,-0.00025,0.10931,-0.03459,0.99204,0.91892,0.00733,0.30189,-1.05857,-1.05197,0.07725,-0.10755,0.87383,0.09906,-0.14826,-1.30964,-1.30964,57.68866,11.98067,57.68866103,11.98066780,A,144532.90
18:35:13.361530,0.93680,0.00866,2.51277,0.31578,[3.00000 0.00000 0.00000],[1.30000 0.00000 0.00000],-0.04933,0.01356,0.01581,0.00000,0.00000,-0.00634,-0.00590,0.12249,-0.03611,0.99186,0.92936,0.01465,0.30467,-1.09739,-1.08951,0.07957,-0.11174,0.87383,0.09906,-0.14826,-1.30964,-1.30964,57.68866,11.98067,57.68866100,11.98066784,A,144532.90
18:35:13.376730,0.95149,0.01309,2.51277,0.31578,[3.00000 0.00000 0.00000],[1.30000 0.00000 0.00000],-0.04961,0.01588,0.01703,0.00000,0.00000,-0.00221,-0.00666,0.10260,-0.05588,0.98179,0.94154,0.00488,0.30689,-1.13058,-1.12135,0.08199,-0.11635,0.87383,0.09906,-0.14826,-1.30964,-1.30964,57.68866,11.98067,57.68866095,11.98066788,A,144532.90
18:35:13.395020,0.97029,0.00971,2.51277,0.31578,[3.00000 0.00000 0.00000],[1.30000 0.00000 0.00000],-0.05007,0.01995,0.00940,0.00000,0.00000,-0.00359,-0.00529,0.10102,-0.06698,0.96874,0.96286,0.00733,0.30867,-1.15912,-1.14752,0.08503,-0.12247,0.87383,0.09906,-0.14826,-1.30964,-1.30964,57.68866,11.98067,57.68866090,11.98066793,A,144532.90
18:35:13.418474,0.99373,0.02219,2.51277,0.31578,[3.00000 0.00000 0.00000],[1.30000 0.00000 0.00000],-0.05029,0.02176,0.00558,0.00000,0.00000,-0.00374,-0.00177,0.09028,-0.04282,0.97996,0.97254,0.03175,0.31009,-1.14904,-1.13638,0.08983,-0.13233,0.98991,0.12878,-0.20386,-1.07992,-1.07992,57.68866,11.98067,57.68866081,11.98066801,A,144533.00
18:35:13.435988,1.01126,0.00869,2.51277,0.31578,[3.00000 0.00000 0.00000],[1.30000 0.00000 0.00000],-0.05017,0.02743,0.01169,0.00000,0.00000,0.00023,0.00556,0.10693,-0.04117,0.99668,1.00395,0.01465,0.31123,-1.14098,-1.12503,0.09371,-0.14008,0.98991,0.12878,-0.20386,-1.07992,-1.07992,57.68866,11.98067,57.68866074,11.98066808,A,144533.00
18:35:13.446989,1.02225,0.00852,2.51277,0.31578,[3.00000 0.00000 0.00000],[1.30000 0.00000 0.00000],-0.05040,0.02943,0.00818,0.00000,0.00000,-0.00252,0.00632,0.09967,-0.04666,0.99674,1.01495,0.01465,0.31214,-1.13434,-1.11722,0.09659,-0.14563,0.98991,0.12878,-0.20386,-1.07992,-1.07992,57.68866,11.98067,57.68866069,11.98066813,A,144533.00
18:35:13.457374,1.03264,0.00869,2.51277,0.31578,[3.00000 0.00000 0.00000],[1.30000 0.00000 0.00000],-0.05060,0.03139,0.00573,0.00000,0.00000,-0.00512,0.00632,0.09467,-0.04215,0.99198,1.02536,0.01221,0.31287,-1.12885,-1.11060,0.09931,-0.15082,0.98991,0.12878,-0.20386,-1.07992,-1.07992,57.68866,11.98067,57.68866064,11.98066817,A,144533.00
18:35:13.467375,1.04264,0.00850,2.51277,0.31578,[3.00000 0.00000 0.00000],[1.30000 0.00000 0.00000],-0.05109,0.03311,-0.00267,0.00000,0.00000,-0.00512,0.00632,0.11157,-0.05588,0.98594,1.03524,0.01465,0.31345,-1.12434,-1.10508,0.10182,-0.15556,0.98991,0.12878,-0.20386,-1.07992,-1.07992,57.68866,11.98067,57.68866060,11.98066821,A,144533.00
18:35:13.482342,1.05737,0.01261,2.51277,0.31578,[3.00000 0.00000 0.00000],[1.30000 0.00000 0.00000],-0.05116,0.03518,-0.00144,0.00000,0.00000,-0.00909,0.00556,0.11669,-0.02989,0.99570,1.04852,0.00733,0.31391,-1.12065,-1.10019,0.10484,-0.16131,0.98991,0.12878,-0.20386,-1.07992,-1.07992,57.68866,11.98067,57.68866055,11.98066826,A,144533.00
18:35:13.500228,1.07549,0.00840,2.51277,0.31578,[3.00000 0.00000 0.00000],[1.30000 0.00000 0.00000],-0.05134,0.03900,-0.00206,0.00000,0.00000,-0.01749,0.01136,0.09382,-0.03623,1.02425,1.06813,0.00733,0.31429,-1.11782,-1.09513,0.10820,-0.16768,0.98991,0.12878,-0.20386,-1.07992,-1.07992,57.68866,11.98067,57.68866049,11.98066832,A,144533.00
18:35:13.511222,1.08647,0.00879,2.51277,0.31578,[3.00000 0.00000 0.00000],[1.30000 0.00000 0.00000],-0.05192,0.04098,-0.00053,0.00000,0.00000,-0.01306,0.01075,0.03965,-0.06594,1.01736,1.07878,0.01465,0.31459,-1.11563,-1.09179,0.11039,-0.17174,0.98991,0.12878,-0.20386,-1.07992,-1.07992,57.68866,11.98067,57.68866046,11.98066836,A,144533.00
18:35:13.537804,1.11308,0.02406,2.51277,0.31578,[3.00000 0.00000 0.00000],[1.30000 0.00000 0.00000],-0.05265,0.04288,-0.00572,0.00000,0.00000,-0.01245,0.01472,0.08241,-0.06960,0.98271,1.09144,0.01954,0.31482,-1.11377,-1.08883,0.11583,-0.18201,1.10932,0.14859,-0.24092,-1.07992,-1.07992,57.68866,11.98067,57.68866036,11.98066845,A,144533.10
18:35:13.555861,1.13113,0.00856,2.51277,0.31578,[3.00000 0.00000 0.00000],[1.30000 0.00000 0.00000],-0.05320,0.04681,-0.01366,0.00000,0.00000,0.00008,0.01640,0.08131,-0.03453,0.96063,1.12372,0.00977,0.31501,-1.11262,-1.08538,0.11967,-0.18916,1.10932,0.14859,-0.24092,-1.07992,-1.07992,57.68866,11.98067,57.68866030,11.98066851,A,144533.10
18:35:13.568036,1.14330,0.01033,2.51277,0.31578,[3.00000 0.00000 0.00000],[1.30000 0.00000 0.00000],-0.05364,0.04789,-0.01733,0.00000,0.00000,-0.00160,0.01350,0.07247,-0.04362,0.97124,1.13475,0.00733,0.31517,-1.11179,-1.08393,0.12237,-0.19411,1.10932,0.14859,-0.24092,-1.07992,-1.07992,57.68866,11.98067,57.68866025,11.98066856,A,144533.10
18:35:13.588881,1.16415,0.00912,0.75529,0.75529,[3.00000 0.00000 0.00000],[1.30000 0.00000 0.00000],-0.05440,0.05058,-0.02206,0.00000,0.00000,0.00527,0.01915,0.10736,-0.04514,1.00247,1.15680,0.01954,0.40319,-1.11121,-1.08179,0.12634,-0.20148,1.10932,0.14859,-0.24092,-1.07992,-1.07992,57.68866,11.98067,57.68866019,11.98066863,A,144533.10
18:35:13.597163,1.17243,0.00698,0.75529,0.75529,[3.00000 0.00000 0.00000],[1.30000 0.00000 0.00000],-0.05507,0.05168,-0.01779,0.00000,0.00000,0.00008,0.01655,0.09845,-0.06301,1.00479,1.16505,0.01465,0.47361,-1.11093,-1.08086,0.12861,-0.20562,1.10932,0.14859,-0.24092,-1.07992,-1.07992,57.68866,11.98067,57.68866015,11.98066866,A,144533.10
18:35:13.607613,1.18288,0.00702,0.75529,0.75529,[3.00000 0.00000 0.00000],[1.30000 0.00000 0.00000],-0.05528,0.05312,-0.02298,0.00000,0.00000,-0.00328,0.01808,0.09095,-0.02714,1.02456,1.17547,0.02198,0.52995,-1.11077,-1.07986,0.13135,-0.21067,1.10932,0.14859,-0.24092,-1.07992,-1.07992,57.68866,11.98067,57.68866011,11.98066871,A,144533.10
18:35:13.618431,1.19344,0.00734,0.75529,0.75529,[3.00000 0.00000 0.00000],[1.30000 0.00000 0.00000],-0.05587,0.05468,-0.02221,0.00000,0.00000,0.00221,0.01625,0.08375,-0.05331,1.02077,1.18588,0.01465,0.57502,-1.11073,-1.07891,0.13428,-0.21604,1.10932,0.14859,-0.24092,-1.07992,-1.07992,57.68866,11.98067,57.68866006,11.98066876,A,144533.10
18:35:13.628440,1.20371,0.00719,0.75529,0.75529,[3.00000 0.00000 0.00000],[1.30000 0.00000 0.00000],-0.05621,0.05638,-0.02160,0.00000,0.00000,-0.00053,0.02174,0.10236,-0.03666,1.00064,1.19615,0.01221,0.61107,-1.11084,-1.07803,0.13709,-0.22120,1.10932,0.14859,-0.24092,-1.07992,-1.07992,57.68866,11.98067,57.68866001,11.98066881,A,144533.10
18:35:13.652121,1.22739,0.02046,0.75529,0.75529,[3.00000 0.00000 0.00000],[1.30000 0.00000 0.00000],-0.05698,0.05805,-0.02359,0.00000,0.00000,-0.00787,0.02098,0.09254,-0.06326,0.98314,1.20633,0.01465,0.63992,-1.07519,-1.04141,0.14611,-0.23608,1.22312,0.19812,-0.29652,-0.84305,-0.84305,57.68866,11.98067,57.68865988,11.98066896,A,144533.20
18:35:13.667194,1.24246,0.00699,0.75529,0.75529,[3.00000 0.00000 0.00000],[1.30000 0.00000 0.00000],-0.05739,0.06235,-0.01779,0.00000,0.00000,-0.01275,0.03259,0.08125,-0.02269,0.98192,1.23519,0.01465,0.66299,-1.04545,-1.00917,0.15268,-0.24588,1.22312,0.19812,-0.29652,-0.84305,-0.84305,57.68866,11.98067,57.68865979,11.98066907,A,144533.20
18:35:13.679745,1.25501,0.00905,0.75529,0.75529,[3.00000 0.00000 0.00000],[1.30000 0.00000 0.00000],-0.05786,0.06351,-0.01885,0.00000,0.00000,-0.01016,0.02953,0.07802,-0.04813,0.98613,1.24539,0.01709,0.68145,-1.02035,-0.98339,0.15810,-0.25342,1.22312,0.19812,-0.29652,-0.84305,-0.84305,57.68866,11.98067,57.68865972,11.98066916,A,144533.20
18:35:13.690667,1.26592,0.00952,0.75529,0.75529,[3.00000 0.00000 0.00000],[1.30000 0.00000 0.00000],-0.05826,0.06445,-0.02191,0.00000,0.00000,-0.01153,0.02587,0.06740,-0.03867,0.98405,1.25747,0.01221,0.69622,-0.99911,-0.96160,0.16314,-0.26014,1.22312,0.19812,-0.29652,-0.84305,-0.84305,57.68866,11.98067,57.68865966,11.98066924,A,144533.20
18:35:13.698627,1.27389,0.00692,0.75529,0.75529,[3.00000 0.00000 0.00000],[1.30000 0.00000 0.00000],-0.05887,0.06490,-0.02145,0.00000,0.00000,-0.01397,0.02358,0.07039,-0.05752,0.97618,1.26632,0.01954,0.70804,-0.98117,-0.94339,0.16719,-0.26525,1.22312,0.19812,-0.29652,-0.84305,-0.84305,57.68866,11.98067,57.68865961,11.98066931,A,144533.20
18:35:13.708959,1.28423,0.00686,0.75529,0.75529,[3.00000 0.00000 0.00000],[1.30000 0.00000 0.00000],-0.05926,0.06515,-0.01977,0.00000,0.00000,-0.00634,0.02266,0.06515,-0.04233,0.97832,1.27697,0.01221,0.71749,-0.96584,-0.92792,0.17219,-0.27158,1.22312,0.19812,-0.29652,-0.84305,-0.84305,57.68866,11.98067,57.68865956,11.98066940,A,144533.20
18:35:13.720363,1.29563,0.00784,0.75529,0.75529,[3.00000 0.00000 0.00000],[1.30000 0.00000 0.00000],-0.06026,0.06524,-0.02069,0.00000,0.00000,0.00206,0.01747,0.05795,-0.08351,0.99101,1.28748,0.01221,0.72505,-0.95281,-0.91484,0.17711,-0.27767,1.22312,0.19812,-0.29652,-0.84305,-0.84305,57.68866,11.98067,57.68865950,11.98066948,A,144533.20
18:35:13.729600,1.30487,0.00683,0.75529,0.75529,[3.00000 0.00000 0.00000],[1.30000 0.00000 0.00000],-0.06093,0.06527,-0.01748,0.00000,0.00000,0.00756,0.01899,0.08070,-0.06496,0.98905,1.29748,0.02442,0.73110,-0.94179,-0.90380,0.18126,-0.28263,1.22312,0.19812,-0.29652,-0.84305,-0.84305,57.68866,11.98067,57.68865946,11.98066955,A,144533.20
18:35:13.740508,1.31578,0.00733,0.75529,0.75529,[3.00000 0.00000 0.00000],[1.30000 0.00000 0.00000],-0.06157,0.06529,-0.01534,0.00000,0.00000,0.00542,0.01945,0.08217,-0.06472,0.99534,1.30832,0.00977,0.73594,-0.93237,-0.89436,0.18587,-0.28811,1.22312,0.19812,-0.29652,-0.84305,-0.84305,57.68866,11.98067,57.68865941,11.98066963,A,144533.20
18:35:13.774466,1.34972,0.03050,0.75529,0.75529,[3.00000 0.00000 0.00000],[1.30000 0.00000 0.00000],-0.06177,0.06541,-0.01198,0.00000,0.00000,0.00756,0.02174,0.09113,-0.03855,0.99033,1.31867,0.00977,0.73981,-0.95907,-0.92100,0.20352,-0.31161,1.34593,0.25756,-0.40771,-1.07992,-1.07992,57.68866,11.98067,57.68865920,11.98066992,A,144533.40
18:35:13.795917,1.37118,0.00809,0.75529,0.75529,[3.00000 0.00000 0.00000],[1.30000 0.00000 0.00000],-0.06141,0.06665,0.01994,0.00000,0.00000,0.00466,0.03488,0.09705,-0.06795,0.98338,1.36375,0.00977,0.74291,-0.98232,-0.94352,0.21452,-0.32734,1.34593,0.25756,-0.40771,-1.07992,-1.07992,57.68866,11.98067,57.68865906,11.98067011,A,144533.40
18:35:13.805768,1.38104,0.00736,0.75529,0.75529,[3.00000 0.00000 0.00000],[1.30000 0.00000 0.00000],-0.06177,0.06696,0.02100,0.00000,0.00000,0.00053,0.03610,0.08442,-0.07107,0.99479,1.37350,0.01221,0.74538,-1.00251,-0.96353,0.21997,-0.33591,1.34593,0.25756,-0.40771,-1.07992,-1.07992,57.68866,11.98067,57.68865898,11.98067020,A,144533.40
18:35:13.816903,1.39217,0.00808,0.75529,0.75529,[3.00000 0.00000 0.00000],[1.30000 0.00000 0.00000],-0.06163,0.06728,0.02513,0.00000,0.00000,0.00466,0.03595,0.08339,-0.04362,1.00321,1.38477,0.00977,0.74737,-1.01965,-0.98049,0.22559,-0.34488,1.34593,0.25756,-0.40771,-1.07992,-1.07992,57.68866,11.98067,57.68865890,11.98067030,A,144533.40
18:35:13.827511,1.40278,0.00749,0.75529,0.75529,[3.00000 0.00000 0.00000],[1.30000 0.00000 0.00000],-0.06182,0.06767,0.02238,0.00000,0.00000,0.01596,0.03320,0.09345,-0.06106,0.99442,1.39524,0.00733,0.74895,-1.03429,-0.99490,0.23052,-0.35299,1.34593,0.25756,-0.40771,-1.07992,-1.07992,57.68866,11.98067,57.68865883,11.98067038,A,144533.40
18:35:13.838039,1.41331,0.00746,0.75529,0.75529,[3.00000 0.00000 0.00000],[1.30000 0.00000 0.00000],-0.06190,0.06807,0.03215,0.00000,0.00000,0.01611,0.03335,0.09492,-0.06076,0.98985,1.40567,0.00977,0.75022,-1.04675,-1.00713,0.23521,-0.36088,1.34593,0.25756,-0.40771,-1.07992,-1.07992,57.68866,11.98067,57.68865875,11.98067046,A,144533.40
18:35:13.848375,1.42365,0.00739,0.90513,0.90513,[3.00000 0.00000 0.00000],[1.30000 0.00000 0.00000],-0.06194,0.06838,0.02849,0.00000,0.00000,0.01932,0.03442,0.09638,-0.05411,0.99101,1.41588,0.00977,0.78120,-1.05740,-1.01760,0.23933,-0.36796,1.34593,0.25756,-0.40771,-1.07992,-1.07992,57.68866,11.98067,57.68865869,11.98067053,A,144533.40
18:35:13.858578,1.43384,0.00718,0.90513,0.90513,[3.00000 0.00000 0.00000],[1.30000 0.00000 0.00000],-0.06187,0.06855,0.02925,0.00000,0.00000,0.01718,0.03228,0.11352,-0.04660,0.97606,1.42606,0.01954,0.80599,-1.06644,-1.02654,0.24338,-0.37503,1.34593,0.25756,-0.40771,-1.07992,-1.07992,57.68866,11.98067,57.68865863,11.98067059,A,144533.40
18:35:13.868777,1.44405,0.00698,0.90513,0.90513,[3.00000 0.00000 0.00000],[1.30000 0.00000 0.00000],-0.06188,0.06858,0.02788,0.00000,0.00000,0.00710,0.02251,0.10577,-0.05045,0.96844,1.43669,0.00977,0.82581,-1.07410,-1.03418,0.24750,-0.38230,1.34593,0.25756,-0.40771,-1.07992,-1.07992,57.68866,11.98067,57.68865856,11.98067066,A,144533.40
18:35:13.895121,1.47039,0.02291,0.90513,0.90513,[3.00000 0.00000 0.00000],[1.30000 0.00000 0.00000],-0.06184,0.06858,0.03460,0.00000,0.00000,0.00466,0.02037,0.12200,-0.05191,0.96880,1.44709,0.01465,0.84168,-1.06069,-1.02077,0.25978,-0.40283,1.46646,0.29718,-0.46331,-0.95160,-0.95160,57.68866,11.98067,57.68865838,11.98067087,A,144533.50
18:35:13.911885,1.48716,0.00724,0.90513,0.90513,[3.00000 0.00000 0.00000],[1.30000 0.00000 0.00000],-0.06104,0.06858,0.04345,0.00000,0.00000,0.00115,0.01579,0.08650,-0.07082,0.97929,1.47971,0.01954,0.85437,-1.04969,-1.00977,0.26775,-0.41581,1.46646,0.29718,-0.46331,-0.95160,-0.95160,57.68866,11.98067,57.68865826,11.98067100,A,144533.50
18:35:13.922701,1.49796,0.00786,0.90513,0.90513,[3.00000 0.00000 0.00000],[1.30000 0.00000 0.00000],-0.06111,0.06858,0.05078,0.00000,0.00000,0.00435,0.01961,0.06167,-0.06930,0.99686,1.48959,0.01465,0.86452,-1.04062,-1.00070,0.27268,-0.42367,1.46646,0.29718,-0.46331,-0.95160,-0.95160,57.68866,11.98067,57.68865819,11.98067109,A,144533.50
18:35:13.932335,1.50761,0.00710,0.90513,0.90513,[3.00000 0.00000 0.00000],[1.30000 0.00000 0.00000],-0.06073,0.06858,0.05338,0.00000,0.00000,0.00359,0.02632,0.10114,-0.04368,1.00272,1.50014,0.00488,0.87264,-1.03291,-0.99300,0.27734,-0.43101,1.46646,0.29718,-0.46331,-0.95160,-0.95160,57.68866,11.98067,57.68865812,11.98067117,A,144533.50
18:35:13.942703,1.51796,0.00705,0.90513,0.90513,[3.00000 0.00000 0.00000],[1.30000 0.00000 0.00000],-0.06026,0.06858,0.06147,0.00000,0.00000,0.00145,0.03060,0.10407,-0.04197,1.00760,1.51032,0.00977,0.87914,-1.02634,-0.98642,0.28206,-0.43834,1.46646,0.29718,-0.46331,-0.95160,-0.95160,57.68866,11.98067,57.68865806,11.98067125,A,144533.50
18:35:13.953393,1.52867,0.00733,0.90513,0.90513,[3.00000 0.00000 0.00000],[1.30000 0.00000 0.00000],-0.05973,0.06858,0.07110,0.00000,0.00000,0.00069,0.03442,0.12261,-0.04721,1.01724,1.52129,0.01709,0.88434,-1.02071,-0.98079,0.28701,-0.44594,1.46646,0.29718,-0.46331,-0.95160,-0.95160,57.68866,11.98067,57.68865799,11.98067133,A,144533.50
18:35:13.963623,1.53889,0.00714,0.90513,0.90513,[3.00000 0.00000 0.00000],[1.30000 0.00000 0.00000],-0.05964,0.06858,0.07522,0.00000,0.00000,-0.00787,0.03472,0.10565,-0.07686,1.02822,1.53137,0.00977,0.88849,-1.01597,-0.97605,0.29127,-0.45242,1.46646,0.29718,-0.46331,-0.95160,-0.95160,57.68866,11.98067,57.68865793,11.98067140,A,144533.50
18:35:13.973571,1.54884,0.00684,0.90513,0.90513,[3.00000 0.00000 0.00000],[1.30000 0.00000 0.00000],-0.05961,0.06858,0.07140,0.00000,0.00000,-0.01107,0.02999,0.09418,-0.07796,1.02608,1.54142,0.01221,0.89182,-1.01194,-0.97202,0.29540,-0.45862,1.46646,0.29718,-0.46331,-0.95160,-0.95160,57.68866,11.98067,57.68865788,11.98067147,A,144533.50
18:35:13.987060,1.56232,0.00986,0.90513,0.90513,[3.00000 0.00000 0.00000],[1.30000 0.00000 0.00000],-0.05929,0.06858,0.06957,0.00000,0.00000,-0.01275,0.02571,0.11425,-0.06295,1.02327,1.55290,0.01221,0.89448,-1.00842,-0.96850,0.30033,-0.46596,1.46646,0.29718,-0.46331,-0.95160,-0.95160,57.68866,11.98067,57.68865781,11.98067155,A,144533.50
18:35:14.009912,1.58518,0.02146,0.90513,0.90513,[3.00000 0.00000 0.00000],[1.30000 0.00000 0.00000],-0.05843,0.06858,0.06422,0.00000,0.00000,-0.02329,0.02327,0.11999,-0.02147,1.02035,1.56430,0.01221,0.89661,-1.04060,-1.00069,0.31192,-0.48445,1.58160,0.32690,-0.53744,-1.18952,-1.18952,57.68866,11.98067,57.68865764,11.98067175,A,144533.60
18:35:14.026757,1.60202,0.00875,0.90513,0.90513,[3.00000 0.00000 0.00000],[1.30000 0.00000 0.00000],-0.05682,0.06858,0.06422,0.00000,0.00000,-0.03612,0.01640,0.05819,-0.04093,0.96874,1.59294,0.00488,0.89831,-1.06833,-1.02842,0.31869,-0.49649,1.58160,0.32690,-0.53744,-1.18952,-1.18952,57.68866,11.98067,57.68865753,11.98067186,A,144533.60
18:35:14.035248,1.61052,0.00703,0.90513,0.90513,[3.00000 0.00000 0.00000],[1.30000 0.00000 0.00000],-0.05631,0.06858,0.05506,0.00000,0.00000,-0.03596,0.02052,0.04410,-0.02867,0.96752,1.60307,0.00977,0.89968,-1.09220,-1.05228,0.32199,-0.50334,1.58160,0.32690,-0.53744,-1.18952,-1.18952,57.68866,11.98067,57.68865747,11.98067192,A,144533.60
18:35:14.045722,1.62098,0.00700,0.90513,0.90513,[3.00000 0.00000 0.00000],[1.30000 0.00000 0.00000],-0.05570,0.06858,0.05369,0.00000,0.00000,-0.02359,0.02480,0.03953,-0.02227,0.96654,1.61339,0.01221,0.90077,-1.11240,-1.07248,0.32580,-0.51129,1.58160,0.32690,-0.53744,-1.18952,-1.18952,57.68866,11.98067,57.68865740,11.98067198,A,144533.60
18:35:14.056209,1.63148,0.00709,0.90513,0.90513,[3.00000 0.00000 0.00000],[1.30000 0.00000 0.00000],-0.05510,0.06858,0.04666,0.00000,0.00000,-0.01718,0.01991,0.07747,-0.01726,0.94007,1.62401,0.01221,0.90164,-1.12957,-1.08965,0.32935,-0.51903,1.58160,0.32690,-0.53744,-1.18952,-1.18952,57.68866,11.98067,57.68865733,11.98067204,A,144533.60
18:35:14.066559,1.64182,0.00703,0.90513,0.90513,[3.00000 0.00000 0.00000],[1.30000 0.00000 0.00000],-0.05454,0.06858,0.04773,0.00000,0.00000,-0.01153,0.02205,0.07893,-0.01848,0.92482,1.63419,0.00733,0.90234,-1.14417,-1.10425,0.33249,-0.52620,1.58160,0.32690,-0.53744,-1.18952,-1.18952,57.68866,11.98067,57.68865727,11.98067209,A,144533.60
18:35:14.076928,1.65220,0.00699,0.90513,0.90513,[3.00000 0.00000 0.00000],[1.30000 0.00000 0.00000],-0.05414,0.06858,0.04086,0.00000,0.00000,-0.01260,0.01625,0.07838,-0.02562,0.95209,1.64482,0.00977,0.90289,-1.15656,-1.11664,0.33560,-0.53348,1.58160,0.32690,-0.53744,-1.18952,-1.18952,57.68866,11.98067,57.68865720,11.98067215,A,144533.60
18:35:14.091779,1.66704,0.01143,0.90513,0.90513,[3.00000 0.00000 0.00000],[1.30000 0.00000 0.00000],-0.05387,0.06858,0.03719,0.00000,0.00000,-0.00603,0.01701,0.07009,-0.03221,0.98936,1.65519,0.00977,0.90334,-1.16701,-1.12709,0.33914,-0.54183,1.58160,0.32690,-0.53744,-1.18952,-1.18952,57.68866,11.98067,57.68865713,11.98067221,A,144533.60
18:35:14.108337,1.68360,0.00712,0.96230,0.96230,[3.00000 0.00000 0.00000],[1.30000 0.00000 0.00000],-0.05317,0.06858,0.03505,0.00000,0.00000,0.00848,0.01563,0.09510,-0.02617,1.03395,1.67623,0.00977,0.91513,-1.17571,-1.13579,0.34386,-0.55282,1.58160,0.32690,-0.53744,-1.18952,-1.18952,57.68866,11.98067,57.68865703,11.98067229,A,144533.60
18:35:14.132404,1.70767,0.02077,0.96230,0.96230,[3.00000 0.00000 0.00000],[1.30000 0.00000 0.00000],-0.05275,0.06858,0.03307,0.00000,0.00000,0.00603,0.01258,0.14658,-0.01885,1.05091,1.68631,0.01221,0.92457,-1.16629,-1.12638,0.35366,-0.57427,1.70391,0.37643,-0.63010,-1.07992,-1.07992,57.68866,11.98067,57.68865684,11.98067245,A,144533.70
18:35:14.149012,1.72428,0.00765,0.96230,0.96230,[3.00000 0.00000 0.00000],[1.30000 0.00000 0.00000],-0.05207,0.06858,0.03047,0.00000,0.00000,-0.03535,0.02083,0.11834,-0.03928,1.02535,1.71678,0.01465,0.93211,-1.15863,-1.11872,0.36036,-0.58873,1.70391,0.37643,-0.63010,-1.07992,-1.07992,57.68866,11.98067,57.68865671,11.98067256,A,144533.70
18:35:14.158834,1.73410,0.00707,0.96230,0.96230,[3.00000 0.00000 0.00000],[1.30000 0.00000 0.00000],-0.05233,0.06858,0.02849,0.00000,0.00000,-0.03596,0.01976,0.08125,-0.05941,1.02181,1.72663,0.00977,0.93815,-1.15245,-1.11253,0.36414,-0.59695,1.70391,0.37643,-0.63010,-1.07992,-1.07992,57.68866,11.98067,57.68865663,11.98067263,A,144533.70
18:35:14.184593,1.75985,0.02240,0.96230,0.96230,[3.00000 0.00000 0.00000],[1.30000 0.00000 0.00000],-0.05226,0.06858,0.02635,0.00000,0.00000,-0.03596,0.02220,0.08247,-0.03599,1.00424,1.73705,0.02198,0.94298,-1.14687,-1.10695,0.37045,-0.61015,1.70391,0.37643,-0.63010,-1.07992,-1.07992,57.68866,11.98067,57.68865651,11.98067273,A,144533.70
18:35:14.339143,1.91440,0.12971,0.96230,0.96230,[3.00000 0.00000 0.00000],[1.30000 0.00000 0.00000],-0.05177,0.06804,0.01581,0.00000,0.00000,-0.01016,0.00601,0.05179,-0.05130,0.97673,1.79763,0.01709,0.94684,-1.14349,-1.10388,0.43528,-0.74063,1.91009,0.44577,-0.77836,-1.13332,-1.13332,57.68866,11.98067,57.68865534,11.98067382,A,144533.90
18:35:14.365019,1.94029,0.01298,1.02788,1.02788,[3.00000 0.00000 0.00000],[1.30000 0.00000 0.00000],-0.05448,0.03985,-0.01947,0.00000,0.00000,0.00328,-0.01460,0.09943,-0.03422,0.96618,1.92993,0.01465,0.96305,-1.14436,-1.12118,0.44498,-0.76071,1.91009,0.44577,-0.77836,-1.13332,-1.13332,57.68866,11.98067,57.68865516,11.98067399,A,144533.90
18:35:14.391705,1.96644,0.01197,1.02788,1.02788,[3.00000 0.00000 0.00000],[1.30000 0.00000 0.00000],-0.05530,0.03708,-0.02405,0.00000,0.00000,0.00359,-0.02010,0.07851,-0.03910,0.98515,1.95638,0.01954,0.97602,-1.14530,-1.12373,0.45404,-0.78029,1.91009,0.44577,-0.77836,-1.13332,-1.13332,57.68866,11.98067,57.68865498,11.98067414,A,144533.90
18:35:14.417606,1.99285,0.01168,1.02788,1.02788,[3.00000 0.00000 0.00000],[1.30000 0.00000 0.00000],-0.05621,0.03583,-0.01763,0.00000,0.00000,0.00084,-0.02377,0.09565,-0.05667,0.99826,1.98318,0.01954,0.98639,-1.14601,-1.12517,0.46281,-0.79936,1.91009,0.44577,-0.77836,-1.13332,-1.13332,57.68866,11.98067,57.68865481,11.98067429,A,144533.90
18:35:14.466465,2.04148,0.03566,1.02788,1.02788,[3.00000 0.00000 0.00000],[1.30000 0.00000 0.00000],-0.05690,0.03569,-0.00923,0.00000,0.00000,0.00130,-0.01918,0.06759,-0.05941,0.98521,2.00746,0.01465,0.99469,-1.16323,-1.14247,0.48384,-0.84634,2.03790,0.49530,-0.92662,-1.24838,-1.24838,57.68865,11.98067,57.68865439,11.98067464,A,144534.10
18:35:14.495120,2.07035,0.01734,1.02788,1.02788,[3.00000 0.00000 0.00000],[1.30000 0.00000 0.00000],-0.05630,0.03569,0.01887,0.00000,0.00000,0.00084,-0.00819,0.10986,-0.04941,0.98966,2.05660,0.01709,1.00132,-1.17856,-1.15780,0.49272,-0.86855,2.03790,0.49530,-0.92662,-1.24838,-1.24838,57.68865,11.98067,57.68865419,11.98067479,A,144534.10
18:35:14.523342,2.09861,0.01428,1.02788,1.02788,[3.00000 0.00000 0.00000],[1.30000 0.00000 0.00000],-0.05557,0.03569,0.02757,0.00000,0.00000,-0.00634,-0.00788,0.10327,-0.03587,1.00699,2.08737,0.03175,1.00664,-1.19137,-1.17061,0.50402,-0.89695,2.03790,0.49530,-0.92662,-1.24838,-1.24838,57.68865,11.98067,57.68865393,11.98067498,A,144534.10
18:35:14.550728,2.12599,0.01333,1.22589,1.22589,[3.00000 0.00000 0.00000],[1.30000 0.00000 0.00000],-0.05453,0.03569,0.02574,0.00000,0.00000,-0.00695,-0.00300,-0.00616,-0.00378,1.00369,2.11496,0.03663,1.05049,-1.20241,-1.18165,0.51242,-0.91932,2.03790,0.49530,-0.92662,-1.24838,-1.24838,57.68865,11.98067,57.68865373,11.98067512,A,144534.10
18:35:14.590968,2.16623,0.02788,1.22589,1.22589,[3.00000 0.00000 0.00000],[1.30000 0.00000 0.00000],-0.05568,0.03558,0.02268,0.00000,0.00000,0.00084,-0.02224,0.10455,-0.13389,0.94263,2.14147,0.01221,1.08557,-1.15832,-1.13762,0.52927,-0.95932,2.16123,0.55473,-1.00075,-0.89497,-0.89497,57.68865,11.98068,57.68865337,11.98067540,A,144534.20
18:35:14.617182,2.19245,0.01187,1.22589,1.22589,[3.00000 0.00000 0.00000],[1.30000 0.00000 0.00000],-0.05342,0.03481,0.00665,0.00000,0.00000,-0.00863,-0.03247,0.03239,0.10779,1.01949,2.18383,0.02686,1.11363,-1.12115,-1.10090,0.54114,-0.98430,2.16123,0.55473,-1.00075,-0.89497,-0.89497,57.68865,11.98068,57.68865315,11.98067560,A,144534.20
18:35:14.645657,2.22092,0.01372,1.22589,1.22589,[3.00000 0.00000 0.00000],[1.30000 0.00000 0.00000],-0.05064,0.03357,0.02864,0.00000,0.00000,0.01336,-0.00651,-0.02245,0.09766,0.86278,2.20956,0.05617,1.13608,-1.08946,-1.06993,0.55345,-1.00804,2.16123,0.55473,-1.00075,-0.89497,-0.89497,57.68865,11.98068,57.68865293,11.98067581,A,144534.20
18:35:14.672766,2.24803,0.01478,1.22589,1.22589,[3.00000 0.00000 0.00000],[1.30000 0.00000 0.00000],-0.04759,0.03161,0.01031,0.00000,0.00000,-0.01199,-0.01170,0.25846,0.16732,1.02205,2.23715,0.01221,1.15404,-1.06239,-1.04400,0.56556,-1.02968,2.16123,0.55473,-1.00075,-0.89497,-0.89497,57.68865,11.98068,57.68865274,11.98067602,A,144534.20
18:35:14.712436,2.28770,0.02788,1.22589,1.22589,[3.00000 0.00000 0.00000],[1.30000 0.00000 0.00000],-0.04557,0.03074,0.02925,0.00000,0.00000,-0.01443,-0.00483,0.20228,0.07601,1.14259,2.26229,0.00977,1.16841,-1.12432,-1.10644,0.58671,-1.06930,2.28284,0.56464,-1.09342,-1.46430,-1.46430,57.68865,11.98068,57.68865238,11.98067637,A,144534.30
18:35:14.739787,2.31505,0.01276,1.23991,1.23991,[3.00000 0.00000 0.00000],[1.30000 0.00000 0.00000],-0.04394,0.03071,0.04132,0.00000,0.00000,-0.01794,-0.01964,0.08833,-0.02275,0.91604,2.30555,0.01954,1.18271,-1.17734,-1.15948,0.59795,-1.09515,2.28284,0.56464,-1.09342,-1.46430,-1.46430,57.68865,11.98068,57.68865215,11.98067656,A,144534.30
18:35:14.765086,2.34035,0.01225,1.23991,1.23991,[3.00000 0.00000 0.00000],[1.30000 0.00000 0.00000],-0.04558,0.03071,0.02345,0.00000,0.00000,-0.03520,-0.02560,0.01604,-0.17446,1.06915,2.32919,0.02442,1.19415,-1.22249,-1.20463,0.60578,-1.11683,2.28284,0.56464,-1.09342,-1.46430,-1.46430,57.68865,11.98068,57.68865196,11.98067669,A,144534.30
18:35:14.790571,2.36583,0.01136,1.23991,1.23991,[3.00000 0.00000 0.00000],[1.30000 0.00000 0.00000],-0.04484,0.03071,0.03887,0.00000,0.00000,0.02069,-0.02086,0.00885,-0.03733,1.04554,2.35585,0.01954,1.20330,-1.26087,-1.24301,0.61232,-1.13808,2.28284,0.56464,-1.09342,-1.46430,-1.46430,57.68865,11.98068,57.68865177,11.98067680,A,144534.30
18:35:14.830843,2.40611,0.02612,1.23991,1.23991,[3.00000 0.00000 0.00000],[1.30000 0.00000 0.00000],-0.04471,0.03071,0.02757,0.00000,0.00000,-0.01489,-0.02163,0.17117,-0.04795,0.87114,2.38201,0.02442,1.21063,-1.25763,-1.23977,0.62622,-1.18348,2.40119,0.60426,-1.20461,-1.22848,-1.22848,57.68865,11.98068,57.68865136,11.98067704,A,144534.40
18:35:14.853756,2.42903,0.01123,1.23991,1.23991,[3.00000 0.00000 0.00000],[1.30000 0.00000 0.00000],-0.04347,0.03071,0.02162,0.00000,0.00000,-0.03871,-0.01552,0.17568,0.01226,0.96148,2.42025,0.01465,1.21648,-1.25535,-1.23749,0.63304,-1.20758,2.40119,0.60426,-1.20461,-1.22848,-1.22848,57.68865,11.98068,57.68865114,11.98067715,A,144534.40
18:35:14.881797,2.45707,0.01410,1.23991,1.23991,[3.00000 0.00000 0.00000],[1.30000 0.00000 0.00000],-0.04338,0.03071,0.03399,0.00000,0.00000,-0.05765,0.00678,0.14908,-0.06234,0.94574,2.44570,0.02686,1.22117,-1.25336,-1.23550,0.64037,-1.23274,2.40119,0.60426,-1.20461,-1.22848,-1.22848,57.68865,11.98068,57.68865091,11.98067727,A,144534.40
18:35:14.908563,2.48383,0.01297,1.52308,1.52308,[3.00000 0.00000 0.00000],[1.30000 0.00000 0.00000],-0.04187,0.03071,0.03139,0.00000,0.00000,-0.03566,-0.00101,-0.01354,0.03447,1.12374,2.47307,0.00977,1.28155,-1.25165,-1.23379,0.64758,-1.25721,2.40119,0.60426,-1.20461,-1.22848,-1.22848,57.68865,11.98068,57.68865069,11.98067740,A,144534.40
18:35:14.949433,2.52471,0.02746,1.52308,1.52308,[3.00000 0.00000 0.00000],[1.30000 0.00000 0.00000],-0.04226,0.03071,0.01734,0.00000,0.00000,0.00466,-0.01949,0.10724,-0.07576,1.12710,2.49871,0.00488,1.32986,-1.06545,-1.04759,0.66406,-1.29932,2.51950,0.66370,-1.20461,0.00000,0.00000,57.68865,11.98068,57.68865031,11.98067767,A,144534.50
18:35:14.976246,2.55151,0.01231,1.52308,1.52308,[3.00000 0.00000 0.00000],[1.30000 0.00000 0.00000],-0.04261,0.03071,0.01581,0.00000,0.00000,-0.00466,-0.02254,0.10754,-0.07070,0.90890,2.54057,0.01221,1.36850,-0.90764,-0.88978,0.67808,-1.31891,2.51950,0.66370,-1.20461,0.00000,0.00000,57.68865,11.98068,57.68865014,11.98067791,A,144534.50
18:35:15.001925,2.57719,0.01399,1.52308,1.52308,[3.00000 0.00000 0.00000],[1.30000 0.00000 0.00000],-0.04144,0.03071,0.01764,0.00000,0.00000,-0.02695,0.00052,0.14286,0.03385,0.95465,2.56712,0.01221,1.39942,-0.77346,-0.75560,0.69623,-1.33648,2.51950,0.66370,-1.20461,0.00000,0.00000,57.68865,11.98068,57.68864998,11.98067821,A,144534.50
18:35:15.027967,2.60323,0.01218,1.52308,1.52308,[3.00000 0.00000 0.00000],[1.30000 0.00000 0.00000],-0.04050,0.03071,0.03505,0.00000,0.00000,-0.00527,0.01976,0.08607,-0.00836,1.02998,2.59302,0.00244,1.42415,-0.65938,-0.64152,0.71713,-1.35112,2.51950,0.66370,-1.20461,0.00000,0.00000,57.68865,11.98068,57.68864985,11.98067857,A,144534.50
18:35:15.077917,2.65320,0.03807,1.52308,1.52308,[3.00000 0.00000 0.00000],[1.30000 0.00000 0.00000],-0.03972,0.03071,0.01612,0.00000,0.00000,0.00191,0.00800,0.29756,0.01647,1.02205,2.61715,0.00000,1.44394,-0.71801,-0.70015,0.77330,-1.39349,2.64784,0.78257,-1.40847,-1.04289,-1.04289,57.68865,11.98068,57.68864947,11.98067951,A,144534.70
18:35:15.104180,2.67944,0.01325,1.24017,1.24017,[3.00000 0.00000 0.00000],[1.30000 0.00000 0.00000],-0.03997,0.03071,0.01031,0.00000,0.00000,0.03688,-0.02239,0.25413,-0.06393,1.01473,2.66893,0.00000,1.40318,-0.76868,-0.75082,0.79741,-1.41417,2.64784,0.78257,-1.40847,-1.04289,-1.04289,57.68865,11.98068,57.68864928,11.98067992,A,144534.70
18:35:15.129949,2.70521,0.01207,1.24017,1.24017,[3.00000 0.00000 0.00000],[1.30000 0.00000 0.00000],-0.04017,0.03071,0.00695,0.00000,0.00000,0.00603,-0.00330,0.10028,-0.03599,0.95770,2.69680,0.00000,1.37058,-0.81169,-0.79383,0.82096,-1.43655,2.64784,0.78257,-1.40847,-1.04289,-1.04289,57.68865,11.98068,57.68864908,11.98068031,A,144534.70
18:35:15.154990,2.73026,0.01237,1.24017,1.24017,[3.00000 0.00000 0.00000],[1.30000 0.00000 0.00000],-0.04160,0.03071,0.01505,0.00000,0.00000,0.00145,0.00846,0.22009,-0.11261,0.86925,2.71986,0.00000,1.34450,-0.84841,-0.83055,0.83782,-1.45424,2.64784,0.78257,-1.40847,-1.04289,-1.04289,57.68865,11.98068,57.68864892,11.98068060,A,144534.70
18:35:15.196541,2.77181,0.02758,1.24017,1.24017,[3.00000 0.00000 0.00000],[1.30000 0.00000 0.00000],-0.04054,0.03071,0.01642,0.00000,0.00000,-0.03810,-0.01247,0.12291,0.02745,0.94446,2.74626,0.00000,1.32363,-0.89537,-0.87751,0.87203,-1.49527,2.76666,0.83210,-1.51966,-1.15175,-1.15175,57.68865,11.98068,57.68864855,11.98068117,A,144534.80
18:35:15.221583,2.79685,0.01367,1.24017,1.24017,[3.00000 0.00000 0.00000],[1.30000 0.00000 0.00000],-0.03956,0.03071,0.02498,0.00000,0.00000,0.00573,-0.01506,0.14128,-0.01171,1.05560,2.78549,0.00000,1.30694,-0.93587,-0.91801,0.88707,-1.51700,2.76666,0.83210,-1.51966,-1.15175,-1.15175,57.68865,11.98068,57.68864836,11.98068142,A,144534.80
18:35:15.250857,2.82613,0.01417,1.72224,1.72224,[3.00000 0.00000 0.00000],[1.30000 0.00000 0.00000],-0.03792,0.03071,0.04773,0.00000,0.00000,-0.00466,-0.00941,0.09522,0.01372,0.96709,2.81359,0.00000,1.39000,-0.97022,-0.95236,0.90232,-1.54068,2.76666,0.83210,-1.51966,-1.15175,-1.15175,57.68865,11.98068,57.68864814,11.98068168,A,144534.80
18:35:15.277649,2.85292,0.01397,1.72224,1.72224,[3.00000 0.00000 0.00000],[1.30000 0.00000 0.00000],-0.03593,0.03071,0.05934,0.00000,0.00000,-0.02695,-0.00590,0.21069,0.01800,0.94001,2.84142,0.00000,1.45645,-0.99938,-0.98152,0.91698,-1.56515,2.76666,0.83210,-1.51966,-1.15175,-1.15175,57.68865,11.98068,57.68864792,11.98068193,A,144534.80
18:35:15.318674,2.89394,0.02812,1.72224,1.72224,[3.00000 0.00000 0.00000],[1.30000 0.00000 0.00000],-0.03476,0.03071,0.07171,0.00000,0.00000,-0.02527,-0.00452,0.05228,-0.05893,1.02431,2.86931,0.00000,1.50961,-1.01994,-1.00208,0.94686,-1.61634,2.88875,0.91135,-1.68646,-1.12724,-1.12724,57.68865,11.98068,57.68864746,11.98068243,A,144534.90
18:35:15.345317,2.92058,0.01278,1.72224,1.72224,[3.00000 0.00000 0.00000],[1.30000 0.00000 0.00000],-0.03182,0.03071,0.07461,0.00000,0.00000,0.01214,-0.02086,0.17178,-0.00360,0.94873,2.90968,0.00000,1.55213,-1.03793,-1.02007,0.96278,-1.64754,2.88875,0.91135,-1.68646,-1.12724,-1.12724,57.68865,11.98068,57.68864718,11.98068270,A,144534.90
18:35:15.369416,2.94468,0.01247,1.72224,1.72224,[3.00000 0.00000 0.00000],[1.30000 0.00000 0.00000],-0.03076,0.03071,0.06789,0.00000,0.00000,0.01504,-0.02560,0.12505,-0.03550,0.95910,2.93405,0.00000,1.58615,-1.05324,-1.03538,0.97690,-1.67666,2.88875,0.91135,-1.68646,-1.12724,-1.12724,57.68865,11.98068,57.68864692,11.98068294,A,144534.90
18:35:15.393890,2.96915,0.01331,1.57446,1.57446,[3.00000 0.00000 0.00000],[1.30000 0.00000 0.00000],-0.02945,0.03071,0.05903,0.00000,0.00000,0.01458,-0.02132,0.12127,-0.00958,1.02785,2.95895,0.00000,1.58381,-1.06626,-1.04840,0.98994,-1.70465,2.88875,0.91135,-1.68646,-1.12724,-1.12724,57.68865,11.98068,57.68864667,11.98068316,A,144534.90
18:35:15.434866,3.01013,0.02814,1.57446,1.57446,[3.00000 0.00000 0.00000],[1.30000 0.00000 0.00000],-0.02849,0.03071,0.06178,0.00000,0.00000,0.02329,-0.02514,0.13255,-0.03947,1.03645,2.98436,0.00000,1.58194,-1.06957,-1.05171,1.01907,-1.76163,3.00501,0.98069,-1.81618,-1.07992,-1.07992,57.68865,11.98068,57.68864616,11.98068365,A,144535.00
18:35:15.458298,3.03334,0.01206,1.57446,1.57446,[3.00000 0.00000 0.00000],[1.30000 0.00000 0.00000],-0.02674,0.03071,0.06010,0.00000,0.00000,-0.00053,-0.01812,0.22387,-0.03819,0.93849,3.02501,0.00000,1.58045,-1.07302,-1.05516,1.03329,-1.79260,3.00501,0.98069,-1.81618,-1.07992,-1.07992,57.68865,11.98068,57.68864588,11.98068388,A,144535.00
18:35:15.486346,3.06138,0.01430,1.57446,1.57446,[3.00000 0.00000 0.00000],[1.30000 0.00000 0.00000],-0.02542,0.03071,0.04681,0.00000,0.00000,-0.00099,-0.01506,0.06954,0.01464,1.00705,3.05020,0.00000,1.57925,-1.07586,-1.05800,1.04866,-1.82555,3.00501,0.98069,-1.81618,-1.07992,-1.07992,57.68865,11.98068,57.68864558,11.98068414,A,144535.00
18:35:15.512306,3.08757,0.01283,2.07467,2.07467,[3.00000 0.00000 0.00000],[1.30000 0.00000 0.00000],-0.02437,0.03071,0.04437,0.00000,0.00000,0.01153,-0.01812,0.18215,0.00177,0.97490,3.07715,0.00000,1.67833,-1.07831,-1.06045,1.06245,-1.85559,3.00501,0.98069,-1.81618,-1.07992,-1.07992,57.68865,11.98068,57.68864531,11.98068438,A,144535.00
18:35:15.561750,3.13702,0.03653,2.07467,2.07467,[3.00000 0.00000 0.00000],[1.30000 0.00000 0.00000],-0.02367,0.03071,0.02513,0.00000,0.00000,0.01153,-0.02346,0.18001,0.01702,0.92110,3.10177,0.00488,1.75760,-1.08651,-1.06865,1.10358,-1.93693,3.13215,1.13919,-2.14977,-1.12724,-1.12724,57.68864,11.98069,57.68864458,11.98068507,A,144535.20
18:35:15.586912,3.16216,0.01335,2.07467,2.07467,[3.00000 0.00000 0.00000],[1.30000 0.00000 0.00000],-0.02260,0.03071,0.02513,0.00000,0.00000,0.00282,-0.03003,0.15604,-0.00043,0.99735,3.15234,0.00488,1.82101,-1.09443,-1.07657,1.12272,-1.97919,3.13215,1.13919,-2.14977,-1.12724,-1.12724,57.68864,11.98069,57.68864420,11.98068539,A,144535.20
18:35:15.610565,3.18582,0.00877,2.07467,2.07467,[3.00000 0.00000 0.00000],[1.30000 0.00000 0.00000],-0.02118,0.03071,0.01642,0.00000,0.00000,-0.00542,-0.02316,0.04752,0.08461,1.06189,3.17795,0.00000,1.87174,-1.10111,-1.08325,1.14192,-2.02182,3.13215,1.13919,-2.14977,-1.12724,-1.12724,57.68864,11.98069,57.68864382,11.98068571,A,144535.20
18:35:15.621509,3.19678,0.00946,2.07467,2.07467,[3.00000 0.00000 0.00000],[1.30000 0.00000 0.00000],-0.02069,0.03071,0.01978,0.00000,0.00000,0.00909,-0.01674,0.07686,0.03550,1.03413,3.18736,0.00000,1.91233,-1.10740,-1.08954,1.14792,-2.03978,3.13215,1.13919,-2.14977,-1.12724,-1.12724,57.68864,11.98069,57.68864366,11.98068581,A,144535.20
18:35:15.633287,3.20856,0.01049,1.99859,1.99859,[3.00000 0.00000 0.00000],[1.30000 0.00000 0.00000],-0.02075,0.03071,0.02406,0.00000,0.00000,0.00893,-0.00926,0.11151,-0.00665,0.97893,3.19829,0.00000,1.92958,-1.11270,-1.09484,1.15426,-2.05826,3.13215,1.13919,-2.14977,-1.12724,-1.12724,57.68864,11.98069,57.68864349,11.98068592,A,144535.20
18:35:15.659903,3.23516,0.01212,1.99859,1.99859,[3.00000 0.00000 0.00000],[1.30000 0.00000 0.00000],-0.02020,0.03071,0.02849,0.00000,0.00000,0.00603,-0.00376,0.11767,0.00140,0.95099,3.22507,0.00000,1.94338,-1.11654,-1.09868,1.17309,-2.10083,3.13215,1.13919,-2.14977,-1.12724,-1.12724,57.68864,11.98069,57.68864311,11.98068624,A,144535.20
18:35:15.697636,3.27291,0.02602,1.99859,1.99859,[3.00000 0.00000 0.00000],[1.30000 0.00000 0.00000],-0.01893,0.03071,0.02162,0.00000,0.00000,0.02207,-0.00727,0.19056,0.07039,1.06347,3.24785,0.00000,1.95443,-1.12666,-1.10880,1.20527,-2.17116,3.26775,1.20853,-2.31656,-1.17680,-1.17680,57.68864,11.98069,57.68864247,11.98068678,A,144535.30
18:35:15.720293,3.29555,0.00977,1.99859,1.99859,[3.00000 0.00000 0.00000],[1.30000 0.00000 0.00000],-0.01756,0.03074,0.02940,0.00000,0.00000,0.02573,-0.01338,0.19593,0.03416,0.96972,3.28535,0.00000,1.96326,-1.13601,-1.11814,1.22124,-2.21019,3.26775,1.20853,-2.31656,-1.17680,-1.17680,57.68864,11.98069,57.68864212,11.98068705,A,144535.30
18:35:15.732447,3.30771,0.00969,1.99859,1.99859,[3.00000 0.00000 0.00000],[1.30000 0.00000 0.00000],-0.01685,0.03096,0.03704,0.00000,0.00000,0.02023,0.00632,0.16189,0.03428,0.96685,3.29752,0.00000,1.97033,-1.14439,-1.12638,1.22875,-2.23225,3.26775,1.20853,-2.31656,-1.17680,-1.17680,57.68864,11.98069,57.68864192,11.98068717,A,144535.30
18:35:15.744493,3.31976,0.01105,1.99859,1.99859,[3.00000 0.00000 0.00000],[1.30000 0.00000 0.00000],-0.01593,0.03142,0.04422,0.00000,0.00000,0.01581,0.01533,0.14219,0.04416,0.95215,3.30907,0.00000,1.97598,-1.15161,-1.13334,1.23446,-2.25058,3.26775,1.20853,-2.31656,-1.17680,-1.17680,57.68864,11.98069,57.68864176,11.98068727,A,144535.30
18:35:15.768867,3.34413,0.01118,1.96417,1.96417,[3.00000 0.00000 0.00000],[1.30000 0.00000 0.00000],-0.01560,0.03272,0.04269,0.00000,0.00000,0.01413,0.01228,0.06149,-0.02733,0.94404,3.33421,0.00000,1.97362,-1.15729,-1.13826,1.24976,-2.28937,3.26775,1.20853,-2.31656,-1.17680,-1.17680,57.68864,11.98069,57.68864141,11.98068753,A,144535.30
18:35:15.796384,3.37077,0.01251,1.96417,1.96417,[3.00000 0.00000 0.00000],[1.30000 0.00000 0.00000],-0.01470,0.03371,0.04712,0.00000,0.00000,0.02436,0.00128,0.11743,-0.00061,0.96136,3.36044,0.00000,1.97173,-1.16202,-1.14242,1.26633,-2.33107,3.26775,1.20853,-2.31656,-1.17680,-1.17680,57.68864,11.98069,57.68864104,11.98068781,A,144535.30
18:35:15.835547,3.41082,0.02729,1.96417,1.96417,[3.00000 0.00000 0.00000],[1.30000 0.00000 0.00000],-0.01417,0.03464,0.04193,0.00000,0.00000,0.02711,-0.01231,0.10193,-0.01366,0.98497,3.38611,0.00000,1.97022,-1.15085,-1.13070,1.29771,-2.40398,3.40599,1.29768,-2.48335,-1.07992,-1.07992,57.68864,11.98069,57.68864038,11.98068833,A,144535.40
18:35:15.862041,3.43730,0.01336,2.27360,2.27360,[3.00000 0.00000 0.00000],[1.30000 0.00000 0.00000],-0.01283,0.03498,0.04788,0.00000,0.00000,0.03169,-0.00513,0.08534,-0.01128,0.98966,3.42625,0.00000,2.03089,-1.14214,-1.12179,1.31544,-2.44561,3.40599,1.29768,-2.48335,-1.07992,-1.07992,57.68864,11.98069,57.68864001,11.98068863,A,144535.40
18:35:15.886385,3.46143,0.01326,2.27360,2.27360,[3.00000 0.00000 0.00000],[1.30000 0.00000 0.00000],-0.01102,0.03498,0.04834,0.00000,0.00000,-0.00924,-0.00009,0.18666,0.06936,1.00796,3.45099,0.00000,2.07943,-1.13477,-1.11442,1.33189,-2.48346,3.40599,1.29768,-2.48335,-1.07992,-1.07992,57.68864,11.98069,57.68863967,11.98068891,A,144535.40
18:35:15.913726,3.48899,0.01365,2.27360,2.27360,[3.00000 0.00000 0.00000],[1.30000 0.00000 0.00000],-0.01039,0.03498,0.06422,0.00000,0.00000,-0.01458,-0.00880,0.11328,-0.04618,1.00870,3.47862,0.00244,2.11827,-1.12829,-1.10794,1.35126,-2.52640,3.40599,1.29768,-2.48335,-1.07992,-1.07992,57.68864,11.98069,57.68863928,11.98068923,A,144535.40
18:35:15.966969,3.54224,0.03913,2.27360,2.27360,[3.00000 0.00000 0.00000],[1.30000 0.00000 0.00000],-0.00966,0.03498,0.04513,0.00000,0.00000,-0.02802,-0.02438,-0.00665,-0.00073,0.89896,3.50579,0.00000,2.14933,-1.13858,-1.11823,1.40241,-2.63583,3.53737,1.43637,-2.83547,-1.19560,-1.19560,57.68864,11.98069,57.68863830,11.98069010,A,144535.60
18:35:15.992395,3.56766,0.01275,2.25909,2.25909,[3.00000 0.00000 0.00000],[1.30000 0.00000 0.00000],-0.00780,0.03498,0.04788,0.00000,0.00000,0.02802,-0.02865,0.09626,-0.00616,1.09593,3.55601,0.00244,2.17129,-1.14898,-1.12863,1.42345,-2.68559,3.53737,1.43637,-2.83547,-1.19560,-1.19560,57.68864,11.98069,57.68863785,11.98069045,A,144535.60
18:35:16.020213,3.59548,0.01467,2.25909,2.25909,[3.00000 0.00000 0.00000],[1.30000 0.00000 0.00000],-0.00662,0.03357,0.02910,0.00000,0.00000,0.01687,-0.04270,0.12243,0.05533,0.99442,3.58419,0.00244,2.18885,-1.15758,-1.13805,1.44490,-2.73704,3.53737,1.43637,-2.83547,-1.19560,-1.19560,57.68864,11.98069,57.68863739,11.98069081,A,144535.60
18:35:16.045513,3.62078,0.01180,2.25909,2.25909,[3.00000 0.00000 0.00000],[1.30000 0.00000 0.00000],-0.00660,0.02754,0.01398,0.00000,0.00000,-0.02146,-0.05431,0.10364,0.00695,0.94757,3.61101,0.00488,2.20290,-1.16447,-1.14845,1.46394,-2.78411,3.53737,1.43637,-2.83547,-1.19560,-1.19560,57.68864,11.98069,57.68863696,11.98069113,A,144535.60
18:35:16.088812,3.66408,0.02807,2.62016,2.62016,[3.00000 0.00000 0.00000],[1.30000 0.00000 0.00000],-0.00681,0.02140,0.00879,0.00000,0.00000,-0.01657,-0.06072,0.09766,-0.00018,1.00882,3.63907,0.00244,2.28635,-1.15885,-1.14640,1.50299,-2.87615,3.65923,1.51561,-3.00226,-1.12724,-1.12724,57.68864,11.98069,57.68863613,11.98069179,A,144535.70
18:35:16.114738,3.69000,0.01368,2.62016,2.62016,[3.00000 0.00000 0.00000],[1.30000 0.00000 0.00000],-0.00715,0.01559,-0.00328,0.00000,0.00000,-0.00038,-0.07370,0.02544,0.01257,0.94349,3.67865,0.00000,2.35311,-1.15471,-1.14565,1.52223,-2.92364,3.65923,1.51561,-3.00226,-1.12724,-1.12724,57.68864,11.98069,57.68863571,11.98069211,A,144535.70
18:35:16.141988,3.71724,0.01411,2.62016,2.62016,[3.00000 0.00000 0.00000],[1.30000 0.00000 0.00000],-0.00762,0.01217,-0.00801,0.00000,0.00000,-0.00603,-0.07661,0.00866,0.00732,0.96868,3.70581,0.00000,2.40652,-1.15100,-1.14393,1.54400,-2.97637,3.65923,1.51561,-3.00226,-1.12724,-1.12724,57.68864,11.98069,57.68863523,11.98069248,A,144535.70
18:35:16.167114,3.74237,0.01393,2.62016,2.62016,[3.00000 0.00000 0.00000],[1.30000 0.00000 0.00000],-0.00806,0.00903,-0.01443,0.00000,0.00000,0.00176,-0.07477,0.07369,0.01714,1.05762,3.73122,0.00488,2.44925,-1.14776,-1.14251,1.56287,-3.02228,3.65923,1.51561,-3.00226,-1.12724,-1.12724,57.68864,11.98069,57.68863482,11.98069280,A,144535.70
18:35:16.209503,3.78477,0.02714,2.00502,2.00502,[3.00000 0.00000 0.00000],[1.30000 0.00000 0.00000],-0.00944,0.00657,-0.02557,0.00000,0.00000,0.02344,-0.07981,0.04880,-0.02513,0.99625,3.75957,0.00000,2.36041,-1.14458,-1.14076,1.60470,-3.11774,3.77993,1.59486,-3.16906,-1.12724,-1.12724,57.68863,11.98069,57.68863396,11.98069350,A,144535.80
18:35:16.239170,3.81443,0.01436,2.00502,2.00502,[3.00000 0.00000 0.00000],[1.30000 0.00000 0.00000],-0.01148,0.00526,-0.03199,0.00000,0.00000,0.00160,-0.09432,0.21319,-0.02824,0.93300,3.80187,0.00977,2.28933,-1.14214,-1.13908,1.62826,-3.17276,3.77993,1.59486,-3.16906,-1.12724,-1.12724,57.68863,11.98069,57.68863347,11.98069390,A,144535.80
18:35:16.267783,3.84306,0.01470,2.00502,2.00502,[3.00000 0.00000 0.00000],[1.30000 0.00000 0.00000],-0.01260,0.00526,-0.02618,0.00000,0.00000,-0.01275,-0.08959,-0.00201,-0.00836,1.02236,3.83198,0.00977,2.23247,-1.14015,-1.13709,1.64841,-3.21993,3.77993,1.59486,-3.16906,-1.12724,-1.12724,57.68863,11.98069,57.68863304,11.98069423,A,144535.80
18:35:16.295381,3.87064,0.01389,2.50666,2.50666,[3.00000 0.00000 0.00000],[1.30000 0.00000 0.00000],-0.01338,0.00526,-0.02985,0.00000,0.00000,0.03490,-0.06897,0.03093,0.01696,1.00382,3.85973,0.00733,2.28731,-1.13847,-1.13541,1.66658,-3.26240,3.77993,1.59486,-3.16906,-1.12724,-1.12724,57.68863,11.98069,57.68863266,11.98069454,A,144535.80
18:35:16.336616,3.91189,0.02863,2.50666,2.50666,[3.00000 0.00000 0.00000],[1.30000 0.00000 0.00000],-0.01313,0.00526,-0.01183,0.00000,0.00000,0.03016,-0.06332,0.07094,0.04868,0.91927,3.88739,0.00488,2.33118,-1.12979,-1.12673,1.70491,-3.34646,3.90701,1.69392,-3.35438,-1.07992,-1.07992,57.68863,11.98069,57.68863190,11.98069518,A,144535.90
18:35:16.362329,3.93737,0.01300,2.50666,2.50666,[3.00000 0.00000 0.00000],[1.30000 0.00000 0.00000],-0.01418,0.00526,0.00298,0.00000,0.00000,0.00664,-0.06408,0.01616,-0.06637,1.03249,3.92672,0.01465,2.36627,-1.12257,-1.11951,1.72483,-3.38989,3.90701,1.69392,-3.35438,-1.07992,-1.07992,57.68863,11.98069,57.68863151,11.98069552,A,144535.90
18:35:16.390437,3.96490,0.01503,2.50666,2.50666,[3.00000 0.00000 0.00000],[1.30000 0.00000 0.00000],-0.01349,0.00526,0.00100,0.00000,0.00000,0.02711,-0.04683,0.04362,0.06204,1.07732,3.95317,0.00244,2.39435,-1.11642,-1.11335,1.74645,-3.43591,3.90701,1.69392,-3.35438,-1.07992,-1.07992,57.68863,11.98069,57.68863110,11.98069588,A,144535.90
18:35:16.417830,3.99310,0.01453,2.09340,2.09340,[3.00000 0.00000 0.00000],[1.30000 0.00000 0.00000],-0.01327,0.00617,0.03017,0.00000,0.00000,0.01855,-0.05003,0.16208,-0.02751,0.96356,3.98174,0.00488,2.33416,-1.11126,-1.10767,1.76774,-3.48041,3.90701,1.69392,-3.35438,-1.07992,-1.07992,57.68863,11.98069,57.68863070,11.98069624,A,144535.90
18:35:16.467941,4.04321,0.03923,2.09340,2.09340,[3.00000 0.00000 0.00000],[1.30000 0.00000 0.00000],-0.01278,0.00931,0.03658,0.00000,0.00000,0.01000,-0.04133,0.11279,-0.01366,0.96057,4.00737,0.00733,2.28601,-1.11238,-1.10697,1.82221,-3.59106,4.03818,1.90195,-3.78063,-1.11676,-1.11676,57.68863,11.98070,57.68862970,11.98069716,A,144536.10
18:35:16.493390,4.06866,0.01232,2.69033,2.69033,[3.00000 0.00000 0.00000],[1.30000 0.00000 0.00000],-0.00898,0.01891,0.07232,0.00000,0.00000,0.04727,-0.02361,0.15707,0.02818,0.95410,4.05959,0.00733,2.36687,-1.11433,-1.10334,1.84814,-3.64442,4.03818,1.90195,-3.78063,-1.11676,-1.11676,57.68863,11.98070,57.68862922,11.98069759,A,144536.10
18:35:16.520674,4.09594,0.01268,2.69033,2.69033,[3.00000 0.00000 0.00000],[1.30000 0.00000 0.00000],-0.00652,0.02114,0.07705,0.00000,0.00000,0.00252,-0.01582,0.11889,0.05929,0.91848,4.08510,0.00488,2.43156,-1.11580,-1.10351,1.87342,-3.69598,4.03818,1.90195,-3.78063,-1.11676,-1.11676,57.68863,11.98070,57.68862876,11.98069802,A,144536.10
18:35:16.547227,4.12189,0.01397,2.69033,2.69033,[3.00000 0.00000 0.00000],[1.30000 0.00000 0.00000],-0.00542,0.02148,0.07125,0.00000,0.00000,0.02314,-0.03171,-0.03776,-0.01970,1.05798,4.11120,0.00733,2.48332,-1.11699,-1.10449,1.89770,-3.74550,4.03818,1.90195,-3.78063,-1.11676,-1.11676,57.68863,11.98070,57.68862832,11.98069843,A,144536.10
18:35:16.587194,4.16247,0.02863,2.69033,2.69033,[3.00000 0.00000 0.00000],[1.30000 0.00000 0.00000],-0.00431,0.02148,0.06483,0.00000,0.00000,0.04329,-0.04637,-0.04471,-0.00683,0.98631,4.13777,0.00244,2.52472,-1.13218,-1.11969,1.94508,-3.84416,4.15768,1.99110,-4.02155,-1.21637,-1.21637,57.68863,11.98070,57.68862743,11.98069923,A,144536.20
18:35:16.614594,4.18985,0.01322,2.48072,2.48072,[3.00000 0.00000 0.00000],[1.30000 0.00000 0.00000],-0.00189,0.02148,0.08179,0.00000,0.00000,-0.01367,-0.04423,0.12298,-0.03495,1.09464,4.17937,0.01465,2.51592,-1.14576,-1.13326,1.97155,-3.90292,4.15768,1.99110,-4.02155,-1.21637,-1.21637,57.68863,11.98070,57.68862690,11.98069967,A,144536.20
18:35:16.642439,4.21745,0.01239,2.48072,2.48072,[3.00000 0.00000 0.00000],[1.30000 0.00000 0.00000],-0.00043,0.02148,0.07720,0.00000,0.00000,-0.03596,-0.05950,-0.02324,-0.01165,1.07458,4.20727,0.00733,2.50888,-1.15722,-1.14472,1.99806,-3.96344,4.15768,1.99110,-4.02155,-1.21637,-1.21637,57.68863,11.98070,57.68862636,11.98070012,A,144536.20
18:35:16.668421,4.24369,0.01233,2.48072,2.48072,[3.00000 0.00000 0.00000],[1.30000 0.00000 0.00000],0.00204,0.02148,0.07782,0.00000,0.00000,-0.03398,-0.05125,-0.01812,0.06795,0.91195,4.23201,0.00488,2.50325,-1.16706,-1.15456,2.02012,-4.01570,4.15768,1.99110,-4.02155,-1.21637,-1.21637,57.68863,11.98070,57.68862589,11.98070049,A,144536.20
18:35:16.706521,4.28177,0.02542,2.35901,2.35901,[3.00000 0.00000 0.00000],[1.30000 0.00000 0.00000],0.00406,0.02148,0.09003,0.00000,0.00000,0.00405,-0.05278,0.01580,0.02696,0.87913,4.25607,0.00244,2.47440,-1.13696,-1.12446,2.06003,-4.10426,4.27674,2.11988,-4.20687,-0.96352,-0.96352,57.68862,11.98070,57.68862509,11.98070116,A,144536.30
18:35:16.732421,4.30769,0.01271,2.35901,2.35901,[3.00000 0.00000 0.00000],[1.30000 0.00000 0.00000],0.00405,0.01732,0.03521,0.00000,0.00000,0.04131,-0.10104,0.09290,-0.05636,0.96209,4.29709,0.00977,2.45132,-1.11159,-1.10152,2.08529,-4.15592,4.27674,2.11988,-4.20687,-0.96352,-0.96352,57.68862,11.98070,57.68862462,11.98070158,A,144536.30
18:35:16.761778,4.33705,0.01624,2.35901,2.35901,[3.00000 0.00000 0.00000],[1.30000 0.00000 0.00000],0.00506,0.00931,0.02452,0.00000,0.00000,0.04406,-0.11433,0.14030,0.06137,1.08251,4.32404,0.02198,2.43286,-1.08944,-1.08402,2.11226,-4.20826,4.27674,2.11988,-4.20687,-0.96352,-0.96352,57.68862,11.98070,57.68862415,11.98070204,A,144536.30
18:35:16.788531,4.36379,0.01311,2.68941,2.68941,[3.00000 0.00000 0.00000],[1.30000 0.00000 0.00000],0.00438,0.00133,0.00558,0.00000,0.00000,-0.03994,-0.11188,0.14140,-0.03044,1.17053,4.35402,0.00733,2.48417,-1.07028,-1.06950,2.13788,-4.25587,4.27674,2.11988,-4.20687,-0.96352,-0.96352,57.68862,11.98070,57.68862373,11.98070247,A,144536.30
18:35:16.826963,4.40223,0.02674,2.68941,2.68941,[3.00000 0.00000 0.00000],[1.30000 0.00000 0.00000],0.00538,-0.00201,0.00711,0.00000,0.00000,-0.06116,-0.10455,0.08424,0.09266,1.10105,4.37687,0.01465,2.52522,-1.08137,-1.08254,2.18585,-4.34471,4.39734,2.22885,-4.44780,-1.14604,-1.14604,57.68862,11.98070,57.68862293,11.98070328,A,144536.40
18:35:16.854603,4.42909,0.01393,2.68941,2.68941,[3.00000 0.00000 0.00000],[1.30000 0.00000 0.00000],0.00456,-0.00416,0.00604,0.00000,0.00000,-0.03795,-0.11921,0.07601,-0.03379,0.75664,4.41872,0.02198,2.55806,-1.09080,-1.09322,2.21433,-4.39943,4.39734,2.22885,-4.44780,-1.14604,-1.14604,57.68862,11.98070,57.68862243,11.98070376,A,144536.40
18:35:16.883353,4.45861,0.01446,2.60216,2.60216,[3.00000 0.00000 0.00000],[1.30000 0.00000 0.00000],0.00447,-0.00459,-0.01580,0.00000,0.00000,0.01229,-0.12456,0.00409,0.04642,0.94520,4.44690,0.00488,2.56688,-1.09888,-1.10155,2.24318,-4.45620,4.39734,2.22885,-4.44780,-1.14604,-1.14604,57.68862,11.98070,57.68862192,11.98070424,A,144536.40
18:35:16.908243,4.48351,0.01260,2.60216,2.60216,[3.00000 0.00000 0.00000],[1.30000 0.00000 0.00000],0.00330,-0.00685,-0.03565,0.00000,0.00000,0.05948,-0.13021,0.05313,0.01110,1.07226,4.47353,0.01221,2.57393,-1.10556,-1.10954,2.26766,-4.50547,4.39734,2.22885,-4.44780,-1.14604,-1.14604,57.68862,11.98070,57.68862148,11.98070465,A,144536.40
18:35:16.950848,4.52611,0.02915,2.60216,2.60216,[3.00000 0.00000 0.00000],[1.30000 0.00000 0.00000],0.00214,-0.01073,-0.05703,0.00000,0.00000,0.02100,-0.12670,0.11663,0.04612,1.04914,4.50016,0.00977,2.57958,-1.12727,-1.13351,2.31409,-4.60398,4.52091,2.30809,-4.68872,-1.25301,-1.25301,57.68862,11.98071,57.68862060,11.98070543,A,144536.50
18:35:16.975521,4.55079,0.01408,3.04201,3.04201,[3.00000 0.00000 0.00000],[1.30000 0.00000 0.00000],-0.00127,-0.01313,-0.09124,0.00000,0.00000,-0.02344,-0.13601,0.03392,0.02062,0.94684,4.53897,0.00977,2.67207,-1.14540,-1.15304,2.33500,-4.65360,4.52091,2.30809,-4.68872,-1.25301,-1.25301,57.68862,11.98071,57.68862015,11.98070579,A,144536.50
18:35:17.001043,4.57631,0.01308,3.04201,3.04201,[3.00000 0.00000 0.00000],[1.30000 0.00000 0.00000],-0.00434,-0.01313,-0.10392,0.00000,0.00000,-0.01886,-0.12899,0.06356,-0.01153,0.81484,4.56531,0.01709,2.74605,-1.16098,-1.16861,2.35651,-4.70683,4.52091,2.30809,-4.68872,-1.25301,-1.25301,57.68862,11.98071,57.68861967,11.98070615,A,144536.50
18:35:17.025981,4.60125,0.01188,3.04201,3.04201,[3.00000 0.00000 0.00000],[1.30000 0.00000 0.00000],-0.00498,-0.01313,-0.09292,0.00000,0.00000,-0.01214,-0.10165,-0.07454,0.11913,1.02584,4.58957,0.01221,2.80525,-1.17421,-1.18185,2.37610,-4.75767,4.52091,2.30809,-4.68872,-1.25301,-1.25301,57.68862,11.98071,57.68861921,11.98070648,A,144536.50
18:35:17.075768,4.65103,0.03736,3.04201,3.04201,[3.00000 0.00000 0.00000],[1.30000 0.00000 0.00000],-0.00719,-0.01313,-0.10376,0.00000,0.00000,0.08071,-0.10089,-0.10169,0.05771,1.30333,4.61591,0.01954,2.85260,-1.16323,-1.17087,2.43119,-4.89224,4.64621,2.50621,-5.07790,-1.09992,-1.09992,57.68862,11.98071,57.68861800,11.98070740,A,144536.70
18:35:17.103165,4.67843,0.01384,2.23061,2.23061,[3.00000 0.00000 0.00000],[1.30000 0.00000 0.00000],-0.01454,-0.01313,-0.13751,0.00000,0.00000,0.01428,-0.11143,0.20917,-0.01519,0.70784,4.66674,0.01221,2.72820,-1.15321,-1.16085,2.45867,-4.95765,4.64621,2.50621,-5.07790,-1.09992,-1.09992,57.68862,11.98071,57.68861741,11.98070787,A,144536.70
18:35:17.126302,4.70134,0.01224,2.23061,2.23061,[3.00000 0.00000 0.00000],[1.30000 0.00000 0.00000],-0.01824,-0.01313,-0.13889,0.00000,0.00000,-0.03535,-0.11005,0.01464,-0.01604,0.88596,4.69142,0.02442,2.62868,-1.14460,-1.15224,2.48162,-5.01100,4.64621,2.50621,-5.07790,-1.09992,-1.09992,57.68862,11.98071,57.68861694,11.98070825,A,144536.70
18:35:17.154467,4.72972,0.01242,2.76148,2.76148,[3.00000 0.00000 0.00000],[1.30000 0.00000 0.00000],-0.02220,-0.01257,-0.12240,0.00000,0.00000,0.09140,-0.09035,-0.06283,-0.03873,1.05158,4.71979,0.01221,2.65524,-1.13745,-1.14476,2.50861,-5.07226,4.64621,2.50621,-5.07790,-1.09992,-1.09992,57.68862,11.98071,57.68861638,11.98070871,A,144536.70
18:35:17.195149,4.77042,0.02773,2.76148,2.76148,[3.00000 0.00000 0.00000],[1.30000 0.00000 0.00000],-0.02495,-0.00940,-0.13003,0.00000,0.00000,0.05796,-0.05461,0.19557,0.02373,0.82417,4.74523,0.01221,2.67649,-1.17987,-1.18533,2.55137,-5.17563,4.76558,2.54584,-5.33736,-1.41925,-1.41925,57.68861,11.98071,57.68861545,11.98070943,A,144536.80
18:35:17.221987,4.79726,0.01316,2.76148,2.76148,[3.00000 0.00000 0.00000],[1.30000 0.00000 0.00000],-0.03078,-0.00294,-0.12545,0.00000,0.00000,0.07170,-0.07706,-0.08052,-0.05801,1.33803,4.78739,0.03175,2.69349,-1.21595,-1.21766,2.57340,-5.23870,4.76558,2.54584,-5.33736,-1.41925,-1.41925,57.68861,11.98071,57.68861489,11.98070980,A,144536.80
18:35:17.250925,4.82619,0.01439,2.76148,2.76148,[3.00000 0.00000 0.00000],[1.30000 0.00000 0.00000],-0.03355,-0.00142,-0.14225,0.00000,0.00000,0.10453,-0.07569,-0.11529,0.06417,0.98600,4.81485,0.01221,2.70709,-1.24646,-1.24729,2.59334,-5.30148,4.76558,2.54584,-5.33736,-1.41925,-1.41925,57.68861,11.98071,57.68861432,11.98071013,A,144536.80
18:35:17.278754,4.85401,0.01445,2.25519,2.25519,[3.00000 0.00000 0.00000],[1.30000 0.00000 0.00000],-0.03722,0.00173,-0.14194,0.00000,0.00000,0.02955,-0.05263,0.12279,0.01159,0.70290,4.84374,0.01709,2.61671,-1.27260,-1.27160,2.61107,-5.36323,4.76558,2.54584,-5.33736,-1.41925,-1.41925,57.68861,11.98071,57.68861377,11.98071043,A,144536.80
18:35:17.318616,4.89388,0.02866,2.25519,2.25519,[3.00000 0.00000 0.00000],[1.30000 0.00000 0.00000],-0.03918,0.00487,-0.12438,0.00000,0.00000,-0.01275,-0.04606,-0.12438,0.05850,0.94782,4.86857,0.01709,2.54440,-1.23399,-1.23115,2.64339,-5.46593,4.88885,2.68452,-5.55975,-1.01320,-1.01320,57.68861,11.98071,57.68861284,11.98071097,A,144536.90
18:35:17.339893,4.91515,0.01064,2.25519,2.25519,[3.00000 0.00000 0.00000],[1.30000 0.00000 0.00000],-0.04339,0.00832,-0.10697,0.00000,0.00000,0.11416,-0.03919,0.14372,-0.03660,1.05530,4.90525,0.00733,2.48656,-1.20142,-1.19658,2.66041,-5.51298,4.88885,2.68452,-5.55975,-1.01320,-1.01320,57.68861,11.98071,57.68861242,11.98071126,A,144536.90
18:35:17.366026,4.94129,0.01304,2.81194,2.81194,[3.00000 0.00000 0.00000],[1.30000 0.00000 0.00000],-0.04637,0.01101,-0.09689,0.00000,0.00000,0.03367,-0.02651,-0.00366,-0.04166,0.90432,4.93092,0.00977,2.55164,-1.17380,-1.16740,2.68151,-5.56597,4.88885,2.68452,-5.55975,-1.01320,-1.01320,57.68861,11.98071,57.68861194,11.98071162,A,144536.90
18:35:17.391134,4.96640,0.01160,2.81194,2.81194,[3.00000 0.00000 0.00000],[1.30000 0.00000 0.00000],-0.04921,0.01206,-0.10972,0.00000,0.00000,-0.03994,-0.04606,0.10925,-0.02294,0.99948,4.95589,0.00977,2.60370,-1.15031,-1.14330,2.70218,-5.61373,4.88885,2.68452,-5.55975,-1.01320,-1.01320,57.68861,11.98071,57.68861151,11.98071196,A,144536.90
18:35:17.418461,4.99371,0.01370,2.81194,2.81194,[3.00000 0.00000 0.00000],[1.30000 0.00000 0.00000],-0.05113,0.01288,-0.10560,0.00000,0.00000,-0.00298,-0.04118,0.02190,0.03703,0.97106,4.98217,0.00977,2.64535,-1.13033,-1.12284,2.72518,-5.66346,4.88885,2.68452,-5.55975,-1.01320,-1.01320,57.68861,11.98071,57.68861107,11.98071235,A,144536.90
18:35:17.474323,5.04936,0.03939,2.64058,2.64058,[3.00000 0.00000 0.00000],[1.30000 0.00000 0.00000],-0.05482,0.01593,-0.09063,0.00000,0.00000,0.04100,-0.02193,-0.07491,-0.06850,0.89725,5.01346,0.00733,2.64439,-1.14697,-1.13770,2.79060,-5.80530,5.04458,2.84302,-6.02306,-1.24118,-1.24118,57.68861,11.98071,57.68860979,11.98071345,A,144537.10
18:35:17.508699,5.08396,0.02140,2.64058,2.64058,[3.00000 0.00000 0.00000],[1.30000 0.00000 0.00000],0.00000,0.01953,-0.08070,0.00000,0.00000,0.04375,-0.01491,-0.01537,-0.05612,1.08903,5.06524,0.02442,2.64058,-1.14114,-1.12978,2.84302,-6.02306,5.04458,2.84302,-6.02306,-1.24118,-1.24118,57.68861,11.98071,57.68860923,11.98071390,A,144537.10
18:35:17.538045,5.11330,0.01531,2.64058,2.64058,[3.00000 0.00000 0.00000],[1.30000 0.00000 0.00000],-0.00382,0.04896,-0.06497,0.20981,0.00000,0.00374,-0.01399,0.14097,-0.03550,0.91103,5.10269,0.22711,2.64058,-1.15909,-1.13060,2.88032,-6.10209,5.04458,2.84302,-6.02306,-1.24118,-1.24118,57.68861,11.98071,57.68860712,11.98071496,A,144537.10
18:35:17.563356,5.13862,0.01200,2.46650,2.46650,[3.00000 0.00000 0.00000],[1.30000 0.00000 0.00000],-0.00697,0.05117,-0.07857,0.26288,0.00000,-0.02650,-0.00804,-0.06411,-0.02782,0.90219,5.12786,0.04396,2.60576,-1.17366,-1.14389,2.90311,-6.15048,5.04458,2.84302,-6.02306,-1.24118,-1.24118,57.68861,11.98071,57.68860669,11.98071534,A,144537.10
18:35:17.601332,5.17660,0.02812,2.46650,2.46650,[3.00000 0.00000 0.00000],[1.30000 0.00000 0.00000],-0.01031,0.05641,-0.04940,0.18841,0.00000,0.00496,0.00678,-0.08150,-0.09553,0.98247,5.15241,0.05861,2.57791,-1.17071,-1.13789,2.94438,-6.24150,5.17186,2.95198,-6.26398,-1.14604,-1.14604,57.68861,11.98072,57.68860587,11.98071604,A,144537.20
18:35:17.627073,5.20230,0.01378,2.46650,2.46650,[3.00000 0.00000 0.00000],[1.30000 0.00000 0.00000],-0.01318,0.06300,-0.06803,0.25548,0.00000,0.02314,0.00724,0.04117,0.02836,1.08873,5.19123,0.01709,2.55563,-1.17018,-1.13352,2.96700,-6.29076,5.17186,2.95198,-6.26398,-1.14604,-1.14604,57.68861,11.98072,57.68860543,11.98071642,A,144537.20
18:35:17.653666,5.22892,0.01439,2.78118,2.78118,[3.00000 0.00000 0.00000],[1.30000 0.00000 0.00000],-0.01544,0.06606,-0.04329,0.19009,0.00000,-0.01367,0.01334,0.13072,-0.02166,1.01913,5.21819,0.00000,2.60074,-1.16949,-1.13104,2.99079,-6.34191,5.17186,2.95198,-6.26398,-1.14604,-1.14604,57.68861,11.98072,57.68860497,11.98071682,A,144537.20
18:35:17.682666,5.25793,0.01434,2.78118,2.78118,[3.00000 0.00000 0.00000],[1.30000 0.00000 0.00000],-0.01672,0.07251,-0.03520,0.17080,0.00000,-0.04543,0.01686,0.01415,0.03764,0.99125,5.24709,0.00244,2.63683,-1.16878,-1.12657,3.01798,-6.39994,5.17186,2.95198,-6.26398,-1.14604,-1.14604,57.68861,11.98072,57.68860444,11.98071728,A,144537.20
18:35:17.722432,5.29769,0.02774,2.78118,2.78118,[3.00000 0.00000 0.00000],[1.30000 0.00000 0.00000],-0.01717,0.07741,0.00405,0.05482,0.00000,-0.02375,0.03182,0.03349,0.02214,0.96191,5.27175,0.01954,2.66570,-1.19126,-1.14619,3.05883,-6.49079,5.29285,3.01142,-6.48637,-1.30964,-1.30964,57.68860,11.98072,57.68860363,11.98071796,A,144537.30
18:35:17.746840,5.32210,0.01291,2.68666,2.68666,[3.00000 0.00000 0.00000],[1.30000 0.00000 0.00000],-0.01626,0.08247,0.04361,-0.06741,0.00000,0.03795,0.06618,-0.05161,0.00537,1.01559,5.31092,0.01954,2.66989,-1.21310,-1.16507,3.07778,-6.53772,5.29285,3.01142,-6.48637,-1.30964,-1.30964,57.68860,11.98072,57.68860320,11.98071828,A,144537.30
18:35:17.774399,5.34944,0.01353,2.68666,2.68666,[3.00000 0.00000 0.00000],[1.30000 0.00000 0.00000],-0.01583,0.08358,0.05201,-0.09429,0.00000,-0.00099,0.06252,0.06960,-0.00701,0.97222,5.33908,0.04640,2.67324,-1.23099,-1.18232,3.09836,-6.59078,5.29285,3.01142,-6.48637,-1.30964,-1.30964,57.68860,11.98072,57.68860273,11.98071863,A,144537.30
18:35:17.800886,5.37615,0.01197,3.11614,3.11614,[3.00000 0.00000 0.00000],[1.30000 0.00000 0.00000],-0.01516,0.08329,0.06361,-0.13170,0.00000,-0.04498,0.05672,0.15738,0.00744,1.08312,5.36505,0.22711,2.76182,-1.24612,-1.19761,3.11701,-6.64174,5.29285,3.01142,-6.48637,-1.30964,-1.30964,57.68860,11.98072,57.68860227,11.98071894,A,144537.30
18:35:17.842818,5.41809,0.02825,3.11614,3.11614,[3.00000 0.00000 0.00000],[1.30000 0.00000 0.00000],-0.01548,0.08029,0.07369,-0.16070,0.00000,-0.05368,0.05534,0.04008,-0.08894,1.07512,5.39207,0.52991,2.83269,-1.25334,-1.20658,3.15411,-6.74600,5.41324,3.09067,-6.76436,-1.29309,-1.29309,57.68860,11.98072,57.68860133,11.98071957,A,144537.40
18:35:17.868883,5.44413,0.01346,3.11614,3.11614,[3.00000 0.00000 0.00000],[1.30000 0.00000 0.00000],-0.01359,0.07483,0.08041,-0.18823,0.00000,-0.06254,0.05213,0.01202,-0.00451,0.83149,5.43248,1.06471,2.88938,-1.26216,-1.21859,3.17186,-6.80180,5.41324,3.09067,-6.76436,-1.29309,-1.29309,57.68860,11.98072,57.68860083,11.98071987,A,144537.40
18:35:17.897376,5.47263,0.01383,3.11614,3.11614,[3.00000 0.00000 0.00000],[1.30000 0.00000 0.00000],-0.01378,0.06954,0.06041,-0.12746,0.00000,-0.01290,0.03763,-0.09644,-0.06137,1.01168,5.46124,0.55433,2.93473,-1.26886,-1.22838,3.19153,-6.86450,5.41324,3.09067,-6.76436,-1.29309,-1.29309,57.68860,11.98072,57.68860027,11.98072020,A,144537.40
18:35:17.922470,5.49772,0.01327,2.31362,2.31362,[3.00000 0.00000 0.00000],[1.30000 0.00000 0.00000],-0.01392,0.06447,0.03582,-0.05317,0.00000,0.02619,0.01594,0.11248,-0.02532,0.96331,5.48588,0.54212,2.81051,-1.27482,-1.23730,3.20698,-6.91699,5.41324,3.09067,-6.76436,-1.29309,-1.29309,57.68860,11.98072,57.68859979,11.98072046,A,144537.40
18:35:17.972599,5.54786,0.03871,2.31362,2.31362,[3.00000 0.00000 0.00000],[1.30000 0.00000 0.00000],-0.01392,0.06031,0.02055,-0.00735,0.00000,-0.02253,-0.01323,0.09418,0.00055,1.02693,5.51276,0.20024,2.71113,-1.26928,-1.23418,3.25203,-7.05690,5.54312,3.25907,-7.26474,-1.24615,-1.24615,57.68860,11.98072,57.68859854,11.98072122,A,144537.60
18:35:17.999838,5.57511,0.01311,2.84939,2.84939,[3.00000 0.00000 0.00000],[1.30000 0.00000 0.00000],-0.01667,0.05536,-0.00251,0.07254,0.00000,-0.01321,-0.02758,0.12346,-0.11431,0.91762,5.56391,0.02686,2.73878,-1.26766,-1.23544,3.27337,-7.12727,5.54312,3.25907,-7.26474,-1.24615,-1.24615,57.68860,11.98072,57.68859790,11.98072157,A,144537.60
18:35:18.019994,5.59526,0.01055,2.84939,2.84939,[3.00000 0.00000 0.00000],[1.30000 0.00000 0.00000],-0.01635,0.05485,-0.00908,0.09103,0.00000,-0.01046,-0.01476,0.06600,0.07046,0.81502,5.58440,0.02930,2.76090,-1.26731,-1.23539,3.28723,-7.17596,5.54312,3.25907,-7.26474,-1.24615,-1.24615,57.68860,11.98072,57.68859747,11.98072181,A,144537.60
18:35:18.044350,5.61962,0.01184,2.84939,2.84939,[3.00000 0.00000 0.00000],[1.30000 0.00000 0.00000],-0.01704,0.05491,0.01367,0.02544,0.00000,0.01810,-0.00712,0.00451,-0.01854,0.93147,5.60915,0.00733,2.77860,-1.26651,-1.23456,3.30446,-7.23387,5.54312,3.25907,-7.26474,-1.24615,-1.24615,57.68860,11.98072,57.68859694,11.98072210,A,144537.60
18:35:18.060463,5.63573,0.00794,2.84939,2.84939,[3.00000 0.00000 0.00000],[1.30000 0.00000 0.00000],-0.01763,0.05542,0.00466,0.05475,0.00000,0.03428,-0.01216,-0.01257,-0.00421,1.12460,5.62755,0.00244,2.79276,-1.26662,-1.23437,3.31513,-7.27244,5.54312,3.25907,-7.26474,-1.24615,-1.24615,57.68860,11.98072,57.68859660,11.98072228,A,144537.60
18:35:18.089961,5.66523,0.02652,2.84939,2.84939,[3.00000 0.00000 0.00000],[1.30000 0.00000 0.00000],-0.01889,0.05573,0.00222,0.06701,0.00000,0.03413,-0.01781,0.22082,-0.05344,1.15253,5.63901,0.00244,2.80408,-1.25106,-1.21863,3.34172,-7.35303,5.66056,3.35813,-7.48713,-1.15175,-1.15175,57.68859,11.98072,57.68859587,11.98072272,A,144537.70
18:35:18.117561,5.69282,0.01501,2.35228,2.35228,[3.00000 0.00000 0.00000],[1.30000 0.00000 0.00000],-0.02047,0.05658,-0.00206,0.08598,0.00000,-0.02497,-0.02468,0.09723,-0.06679,0.98972,5.68063,0.00000,2.71372,-1.23839,-1.20547,3.36407,-7.41833,5.66056,3.35813,-7.48713,-1.15175,-1.15175,57.68859,11.98072,57.68859529,11.98072310,A,144537.70
18:35:18.145206,5.72047,0.01414,2.35228,2.35228,[3.00000 0.00000 0.00000],[1.30000 0.00000 0.00000],-0.02050,0.05776,-0.00236,0.08702,0.00000,-0.03871,-0.00177,-0.06466,0.03215,0.87809,5.70779,0.00000,2.64144,-1.22778,-1.19417,3.38532,-7.47812,5.66056,3.35813,-7.48713,-1.15175,-1.15175,57.68859,11.98072,57.68859475,11.98072346,A,144537.70
18:35:18.171666,5.74693,0.01451,2.35228,2.35228,[3.00000 0.00000 0.00000],[1.30000 0.00000 0.00000],-0.02149,0.05975,0.00757,0.06112,0.00000,0.00985,-0.00391,0.05435,-0.04117,0.89883,5.73611,0.00000,2.58361,-1.21901,-1.18424,3.40509,-7.53200,5.66056,3.35813,-7.48713,-1.15175,-1.15175,57.68859,11.98072,57.68859426,11.98072379,A,144537.70
18:35:18.213647,5.78892,0.02766,2.89746,2.89746,[3.00000 0.00000 0.00000],[1.30000 0.00000 0.00000],-0.02302,0.06184,-0.00404,0.10191,0.00000,0.03459,-0.01292,0.12529,-0.04612,0.97563,5.76415,0.00733,2.64638,-1.23587,-1.19988,3.44379,-7.63598,5.78417,3.42747,-7.76511,-1.32634,-1.32634,57.68859,11.98072,57.68859333,11.98072444,A,144537.80
18:35:18.231925,5.80719,0.00987,2.89746,2.89746,[3.00000 0.00000 0.00000],[1.30000 0.00000 0.00000],-0.02253,0.06314,0.01429,0.04503,0.00000,0.00848,0.01686,0.03312,0.04801,1.12502,5.79696,0.00733,2.69659,-1.25314,-1.21639,3.45665,-7.67760,5.78417,3.42747,-7.76511,-1.32634,-1.32634,57.68859,11.98072,57.68859295,11.98072466,A,144537.80
18:35:18.245803,5.82045,0.01179,2.89746,2.89746,[3.00000 0.00000 0.00000],[1.30000 0.00000 0.00000],-0.02325,0.06402,0.01719,0.03912,0.00000,0.00313,0.02342,0.11828,-0.02257,1.12667,5.80944,0.00733,2.73677,-1.26856,-1.23130,3.46326,-7.70377,5.78417,3.42747,-7.76511,-1.32634,-1.32634,57.68859,11.98072,57.68859272,11.98072477,A,144537.80
18:35:18.272104,5.84735,0.01314,2.65199,2.65199,[3.00000 0.00000 0.00000],[1.30000 0.00000 0.00000],-0.02332,0.06555,0.01780,0.03756,0.00000,-0.00069,0.03060,0.02135,0.00384,0.98265,5.83672,0.01709,2.71981,-1.27996,-1.24181,3.48146,-7.76344,5.78417,3.42747,-7.76511,-1.32634,-1.32634,57.68859,11.98072,57.68859218,11.98072508,A,144537.80
18:35:18.297876,5.87314,0.01412,2.65199,2.65199,[3.00000 0.00000 0.00000],[1.30000 0.00000 0.00000],-0.02393,0.06563,0.00451,0.07981,0.00000,0.00389,0.00724,-0.05484,-0.00012,0.83137,5.86000,0.01709,2.70625,-1.28971,-1.25151,3.49737,-7.81805,5.78417,3.42747,-7.76511,-1.32634,-1.32634,57.68859,11.98072,57.68859169,11.98072534,A,144537.80
18:35:18.333549,5.90881,0.02592,2.65199,2.65199,[3.00000 0.00000 0.00000],[1.30000 0.00000 0.00000],-0.02458,0.06575,0.00451,0.08234,0.00000,0.02359,0.01258,-0.01921,-0.00854,0.94489,5.88400,0.00244,2.69540,-1.27988,-1.24161,3.52642,-7.91239,5.90410,3.51662,-8.00603,-1.21637,-1.21637,57.68859,11.98073,57.68859084,11.98072583,A,144537.90
18:35:18.360579,5.93583,0.01468,2.65199,2.65199,[3.00000 0.00000 0.00000],[1.30000 0.00000 0.00000],-0.02544,0.06705,-0.00984,0.12874,0.00000,0.03062,0.01319,-0.04813,0.00579,1.07201,5.92364,0.00000,2.68672,-1.27325,-1.23422,3.54461,-7.97176,5.90410,3.51662,-8.00603,-1.21637,-1.21637,57.68859,11.98073,57.68859031,11.98072614,A,144537.90
18:35:18.385241,5.95984,0.01221,2.48990,2.48990,[3.00000 0.00000 0.00000],[1.30000 0.00000 0.00000],-0.02694,0.06914,-0.02649,0.18454,0.00000,0.03199,0.00662,0.08046,-0.02745,1.09501,5.94852,0.00000,2.64735,-1.26779,-1.22755,3.56191,-8.02692,5.90410,3.51662,-8.00603,-1.21637,-1.21637,57.68859,11.98073,57.68858981,11.98072643,A,144537.90
18:35:18.411866,5.98712,0.01424,2.48990,2.48990,[3.00000 0.00000 0.00000],[1.30000 0.00000 0.00000],-0.02831,0.07203,-0.03550,0.21689,0.00000,-0.01031,-0.00086,0.08369,0.00598,0.97191,5.97479,0.00000,2.61586,-1.26330,-1.22137,3.57885,-8.07960,5.90410,3.51662,-8.00603,-1.21637,-1.21637,57.68859,11.98073,57.68858934,11.98072671,A,144537.90
18:35:18.452053,6.02732,0.02877,2.48990,2.48990,[3.00000 0.00000 0.00000],[1.30000 0.00000 0.00000],-0.03017,0.07670,-0.04268,0.24569,0.00000,-0.03062,0.00296,-0.03129,-0.01214,0.94135,6.00080,0.00244,2.59067,-1.26531,-1.22065,3.61263,-8.17878,6.02218,3.58596,-8.22842,-1.26855,-1.26855,57.68859,11.98073,57.68858845,11.98072728,A,144538.00
18:35:18.473949,6.04921,0.01325,2.79822,2.79822,[3.00000 0.00000 0.00000],[1.30000 0.00000 0.00000],-0.03237,0.08287,-0.03840,0.24145,0.00000,-0.03459,0.01441,-0.06301,-0.00878,1.01156,6.03656,0.00000,2.63218,-1.27056,-1.22230,3.62550,-8.22015,6.02218,3.58596,-8.22842,-1.26855,-1.26855,57.68859,11.98073,57.68858807,11.98072750,A,144538.00
18:35:18.500830,6.07609,0.01349,2.79822,2.79822,[3.00000 0.00000 0.00000],[1.30000 0.00000 0.00000],-0.03440,0.08870,-0.01488,0.17880,0.00000,0.10194,0.01014,0.06191,-0.06960,1.11807,6.06637,0.00000,2.66539,-1.27403,-1.22237,3.64455,-8.27843,6.02218,3.58596,-8.22842,-1.26855,-1.26855,57.68859,11.98073,57.68858755,11.98072782,A,144538.00
18:35:18.529489,6.10475,0.01496,2.79822,2.79822,[3.00000 0.00000 0.00000],[1.30000 0.00000 0.00000],-0.03553,0.09422,-0.02023,0.19926,0.00000,0.01214,0.02174,0.22503,0.01867,0.86022,6.09302,0.00000,2.69195,-1.27719,-1.22230,3.66262,-8.33375,6.02218,3.58596,-8.22842,-1.26855,-1.26855,57.68859,11.98073,57.68858705,11.98072812,A,144538.00
18:35:18.581637,6.15690,0.03873,2.66561,2.66561,[3.00000 0.00000 0.00000],[1.30000 0.00000 0.00000],-0.03532,0.09957,-0.00022,0.13843,0.00000,-0.07659,0.07214,-0.04752,0.06259,1.07305,6.12078,0.00000,2.68668,-1.27162,-1.21360,3.71197,-8.47671,6.15218,3.75437,-8.72880,-1.24615,-1.24615,57.68858,11.98073,57.68858577,11.98072895,A,144538.20
18:35:18.608153,6.18341,0.01460,2.66561,2.66561,[3.00000 0.00000 0.00000],[1.30000 0.00000 0.00000],-0.03548,0.10809,0.01780,0.08499,0.00000,0.03978,0.06725,-0.03385,-0.01092,0.91592,6.17272,0.00000,2.68247,-1.27280,-1.20979,3.73413,-8.54301,6.15218,3.75437,-8.72880,-1.24615,-1.24615,57.68858,11.98073,57.68858517,11.98072933,A,144538.20
18:35:18.637690,6.21292,0.01433,3.10569,3.10569,[3.00000 0.00000 0.00000],[1.30000 0.00000 0.00000],-0.03576,0.11270,0.01627,0.09065,0.00000,0.00130,0.07535,0.14640,0.03129,0.99973,6.20121,0.00977,2.76711,-1.27294,-1.20723,3.75913,-8.61582,6.15218,3.75437,-8.72880,-1.24615,-1.24615,57.68858,11.98073,57.68858452,11.98072975,A,144538.20
18:35:18.664831,6.24009,0.01412,3.10569,3.10569,[3.00000 0.00000 0.00000],[1.30000 0.00000 0.00000],-0.03550,0.11502,0.01673,0.08827,0.00000,-0.03703,0.09764,0.08388,0.06753,1.07756,6.22803,0.01709,2.83483,-1.27327,-1.20619,3.78201,-8.68225,6.15218,3.75437,-8.72880,-1.24615,-1.24615,57.68858,11.98073,57.68858392,11.98073013,A,144538.20
18:35:18.707824,6.28309,0.02797,3.10569,3.10569,[3.00000 0.00000 0.00000],[1.30000 0.00000 0.00000],-0.03659,0.11629,0.02055,0.08105,0.00000,0.00786,0.10849,0.00836,-0.01873,0.90780,6.25804,0.00000,2.88900,-1.25942,-1.19159,3.82590,-8.80226,6.27799,3.85343,-8.96972,-1.18070,-1.18070,57.68858,11.98073,57.68858284,11.98073087,A,144538.30
18:35:18.734481,6.30973,0.01324,2.28453,2.28453,[3.00000 0.00000 0.00000],[1.30000 0.00000 0.00000],-0.03672,0.11825,0.02559,0.06644,0.00000,-0.00680,0.08252,0.01281,-0.03648,0.96520,6.29998,0.00000,2.76811,-1.25214,-1.18317,3.85103,-8.87023,6.27799,3.85343,-8.96972,-1.18070,-1.18070,57.68858,11.98073,57.68858223,11.98073129,A,144538.30
18:35:18.764221,6.33948,0.01320,2.28453,2.28453,[3.00000 0.00000 0.00000],[1.30000 0.00000 0.00000],-0.03612,0.12043,0.01322,0.10123,0.00000,0.02451,0.09428,0.08101,0.05484,1.06231,6.32929,0.00488,2.67139,-1.24551,-1.17526,3.87761,-8.94001,6.27799,3.85343,-8.96972,-1.18070,-1.18070,57.68858,11.98073,57.68858160,11.98073174,A,144538.30
18:35:18.793450,6.36871,0.01318,2.28453,2.28453,[3.00000 0.00000 0.00000],[1.30000 0.00000 0.00000],-0.03496,0.12156,0.03689,0.02568,0.00000,-0.01749,0.10085,-0.02348,0.04831,1.06103,6.35837,0.00000,2.59402,-1.24030,-1.16939,3.90150,-9.00162,6.27799,3.85343,-8.96972,-1.18070,-1.18070,57.68858,11.98073,57.68858105,11.98073214,A,144538.30
18:35:18.835697,6.41097,0.02628,2.83728,2.83728,[3.00000 0.00000 0.00000],[1.30000 0.00000 0.00000],-0.03613,0.12280,0.02116,0.07745,0.00000,-0.00680,0.09749,0.03739,-0.04807,1.01565,6.38700,0.00000,2.64267,-1.24670,-1.17505,3.94204,-9.10482,6.40624,3.93267,-9.22918,-1.27436,-1.27436,57.68858,11.98073,57.68858012,11.98073282,A,144538.40
18:35:18.861800,6.43704,0.01474,2.83728,2.83728,[3.00000 0.00000 0.00000],[1.30000 0.00000 0.00000],-0.03504,0.12320,0.03567,0.02964,0.00000,-0.00496,0.10452,-0.04807,0.05777,0.93568,6.42485,0.00244,2.68159,-1.25644,-1.18456,3.96245,-9.16102,6.40624,3.93267,-9.22918,-1.27436,-1.27436,57.68858,11.98073,57.68857961,11.98073317,A,144538.40
18:35:18.888557,6.46322,0.01457,2.83728,2.83728,[3.00000 0.00000 0.00000],[1.30000 0.00000 0.00000],-0.03484,0.12495,0.03169,0.04079,0.00000,0.01550,0.10345,0.02678,0.02983,0.97911,6.45285,0.00000,2.71273,-1.26440,-1.19149,3.98319,-9.21909,6.40624,3.93267,-9.22918,-1.27436,-1.27436,57.68858,11.98073,57.68857909,11.98073352,A,144538.40
18:35:18.917475,6.49274,0.01536,2.83728,2.83728,[3.00000 0.00000 0.00000],[1.30000 0.00000 0.00000],-0.03410,0.12515,0.03780,0.01958,0.00000,0.00786,0.10574,-0.00067,0.05142,1.09050,6.48071,0.00000,2.73764,-1.27009,-1.19706,4.00632,-9.28397,6.40624,3.93267,-9.22918,-1.27436,-1.27436,57.68858,11.98073,57.68857851,11.98073391,A,144538.40
18:35:18.966588,6.54185,0.03834,2.29526,2.29526,[3.00000 0.00000 0.00000],[1.30000 0.00000 0.00000],-0.03405,0.12558,0.04483,-0.00171,0.00000,0.01535,0.10910,0.06771,-0.02769,1.01107,6.50663,0.01221,2.64916,-1.26648,-1.19321,4.05557,-9.42008,6.53704,4.09117,-9.71102,-1.25301,-1.25301,57.68857,11.98074,57.68857728,11.98073473,A,144538.60
18:35:18.991722,6.56697,0.01273,2.29526,2.29526,[3.00000 0.00000 0.00000],[1.30000 0.00000 0.00000],-0.03261,0.12572,0.04972,-0.02198,0.00000,0.01153,0.11398,-0.03666,-0.01354,0.92787,6.55587,0.00977,2.57838,-1.27037,-1.19701,4.07655,-9.48303,6.53704,4.09117,-9.71102,-1.25301,-1.25301,57.68857,11.98074,57.68857672,11.98073509,A,144538.60
18:35:19.018961,6.59422,0.01372,2.92973,2.92973,[3.00000 0.00000 0.00000],[1.30000 0.00000 0.00000],-0.03134,0.12572,0.04972,-0.02693,0.00000,0.00756,0.10039,0.03410,0.07832,0.95526,6.58319,0.01709,2.64865,-1.27308,-1.19972,4.09844,-9.54838,6.53704,4.09117,-9.71102,-1.25301,-1.25301,57.68857,11.98074,57.68857613,11.98073546,A,144538.60
18:35:19.045486,6.62075,0.01355,2.92973,2.92973,[3.00000 0.00000 0.00000],[1.30000 0.00000 0.00000],-0.03137,0.12569,0.05308,-0.03690,0.00000,0.00725,0.09764,-0.10602,-0.01305,1.01724,6.60984,0.05861,2.70487,-1.27532,-1.20197,4.11937,-9.61123,6.53704,4.09117,-9.71102,-1.25301,-1.25301,57.68857,11.98074,57.68857556,11.98073581,A,144538.60
18:35:19.085718,6.66098,0.02725,2.92973,2.92973,[3.00000 0.00000 0.00000],[1.30000 0.00000 0.00000],-0.03035,0.12527,0.06789,-0.08530,0.00000,0.00527,0.10940,0.10730,0.03215,1.01675,6.63630,0.09524,2.74984,-1.26235,-1.18925,4.15873,-9.72093,6.65628,4.19023,-9.95195,-1.18070,-1.18070,57.68857,11.98074,57.68857458,11.98073647,A,144538.70
18:35:19.111554,6.68682,0.01230,2.65251,2.65251,[3.00000 0.00000 0.00000],[1.30000 0.00000 0.00000],-0.02858,0.12289,0.07400,-0.11054,0.00000,-0.01122,0.11230,0.06832,-0.00714,1.01541,6.67554,0.05372,2.73037,-1.25541,-1.18371,4.18105,-9.78420,6.65628,4.19023,-9.95195,-1.18070,-1.18070,57.68857,11.98074,57.68857401,11.98073685,A,144538.70
18:35:19.136934,6.71220,0.01392,2.65251,2.65251,[3.00000 0.00000 0.00000],[1.30000 0.00000 0.00000],-0.02773,0.12091,0.08148,-0.13630,0.00000,-0.02283,0.09581,0.02989,-0.00836,0.98649,6.70044,0.11966,2.71480,-1.24924,-1.17871,4.20333,-9.84610,6.65628,4.19023,-9.95195,-1.18070,-1.18070,57.68857,11.98074,57.68857345,11.98073722,A,144538.70
18:35:19.164118,6.73938,0.01471,2.65251,2.65251,[3.00000 0.00000 0.00000],[1.30000 0.00000 0.00000],-0.02722,0.11661,0.06606,-0.09203,0.00000,0.00603,0.09887,0.01141,-0.01714,0.99003,6.72756,0.09524,2.70234,-1.24358,-1.17557,4.22531,-9.90614,6.65628,4.19023,-9.95195,-1.18070,-1.18070,57.68857,11.98074,57.68857291,11.98073759,A,144538.70
18:35:19.204274,6.77954,0.02769,2.65251,2.65251,[3.00000 0.00000 0.00000],[1.30000 0.00000 0.00000],-0.02615,0.11278,0.06025,-0.07878,0.00000,0.01611,0.09291,0.04374,0.03361,0.99040,6.75327,0.02686,2.69237,-1.25710,-1.19134,4.26523,-10.01326,6.77479,4.24967,-10.19287,-1.32892,-1.32892,57.68857,11.98074,57.68857195,11.98073826,A,144538.80
18:35:19.227936,6.80318,0.01215,2.49851,2.49851,[3.00000 0.00000 0.00000],[1.30000 0.00000 0.00000],-0.02367,0.10871,0.08438,-0.16084,0.00000,0.01458,0.08787,0.13420,0.00915,1.01193,6.79133,0.06838,2.65360,-1.27322,-1.20984,4.28199,-10.06621,6.77479,4.24967,-10.19287,-1.32892,-1.32892,57.68857,11.98074,57.68857147,11.98073854,A,144538.80
18:35:19.252550,6.82782,0.01335,2.49851,2.49851,[3.00000 0.00000 0.00000],[1.30000 0.00000 0.00000],-0.02138,0.10622,0.07064,-0.12851,0.00000,-0.05567,0.09551,-0.03349,0.08997,1.02437,6.81706,0.24908,2.62258,-1.28606,-1.22414,4.30040,-10.12561,6.77479,4.24967,-10.19287,-1.32892,-1.32892,57.68857,11.98074,57.68857094,11.98073885,A,144538.80
18:35:19.281304,6.85657,0.01385,2.49851,2.49851,[3.00000 0.00000 0.00000],[1.30000 0.00000 0.00000],-0.02002,0.10115,0.08362,-0.17277,0.00000,-0.01245,0.08711,0.06655,-0.01623,1.05316,6.84611,0.05617,2.59777,-1.29592,-1.23697,4.32008,-10.19046,6.77479,4.24967,-10.19287,-1.32892,-1.32892,57.68857,11.98074,57.68857036,11.98073918,A,144538.80
18:35:19.322919,6.89818,0.02779,2.80471,2.80471,[3.00000 0.00000 0.00000],[1.30000 0.00000 0.00000],-0.01910,0.09776,0.08469,-0.17956,0.00000,0.01016,0.08115,-0.05679,-0.01104,0.91592,6.87273,0.26862,2.63915,-1.27927,-1.22231,4.35437,-10.29739,6.89333,4.34872,-10.43379,-1.18070,-1.18070,57.68857,11.98074,57.68856939,11.98073976,A,144538.90
18:35:19.352261,6.92734,0.01555,2.80471,2.80471,[3.00000 0.00000 0.00000],[1.30000 0.00000 0.00000],-0.01769,0.09023,0.08148,-0.17544,0.00000,-0.00848,0.06252,0.03623,-0.07491,1.00998,6.91605,0.35897,2.67226,-1.26769,-1.21513,4.37507,-10.36194,6.89333,4.34872,-10.43379,-1.18070,-1.18070,57.68857,11.98074,57.68856881,11.98074011,A,144538.90
18:35:19.378635,6.95389,0.01230,2.69231,2.69231,[3.00000 0.00000 0.00000],[1.30000 0.00000 0.00000],-0.01550,0.08434,0.06102,-0.12260,0.00000,-0.01061,0.05885,-0.15762,0.09827,1.06689,6.94321,0.32479,2.67627,-1.25783,-1.20871,4.39447,-10.42131,6.89333,4.34872,-10.43379,-1.18070,-1.18070,57.68857,11.98074,57.68856828,11.98074044,A,144538.90
18:35:19.407984,6.98322,0.01434,2.69231,2.69231,[3.00000 0.00000 0.00000],[1.30000 0.00000 0.00000],-0.01466,0.07942,0.06529,-0.13870,0.00000,-0.00389,0.03457,0.10486,-0.00781,0.98625,6.97156,0.12454,2.67948,-1.24877,-1.20253,4.41604,-10.48492,6.89333,4.34872,-10.43379,-1.18070,-1.18070,57.68857,11.98074,57.68856771,11.98074080,A,144538.90
18:35:19.448781,7.02405,0.02832,2.69231,2.69231,[3.00000 0.00000 0.00000],[1.30000 0.00000 0.00000],-0.01442,0.07511,0.05002,-0.09382,0.00000,-0.02024,0.01548,0.08668,-0.01610,0.95630,6.99905,0.31990,2.68205,-1.24773,-1.20400,4.45355,-10.58971,7.01889,4.43788,-10.69325,-1.23982,-1.23982,57.68857,11.98074,57.68856676,11.98074143,A,144539.00
18:35:19.474953,7.05022,0.01483,3.14903,3.14903,[3.00000 0.00000 0.00000],[1.30000 0.00000 0.00000],-0.01349,0.06909,0.04742,-0.08967,0.00000,0.00145,0.01151,0.13688,0.01019,0.99924,7.03742,0.19292,2.77545,-1.24947,-1.20926,4.47179,-10.64442,7.01889,4.43788,-10.69325,-1.23982,-1.23982,57.68857,11.98074,57.68856627,11.98074174,A,144539.00
18:35:19.499418,7.07468,0.01241,3.14903,3.14903,[3.00000 0.00000 0.00000],[1.30000 0.00000 0.00000],-0.01268,0.06526,0.03032,-0.04152,0.00000,-0.00466,0.01533,0.04093,0.06777,0.97521,7.06305,0.04151,2.85016,-1.25073,-1.21275,4.48974,-10.69881,7.01889,4.43788,-10.69325,-1.23982,-1.23982,57.68857,11.98074,57.68856578,11.98074204,A,144539.00
18:35:19.523820,7.09908,0.01253,3.14903,3.14903,[3.00000 0.00000 0.00000],[1.30000 0.00000 0.00000],-0.01147,0.06263,0.03490,0.14422,0.05236,-0.00878,0.00479,-0.08924,0.09162,1.07146,7.08721,0.03175,2.90994,-1.25178,-1.21533,4.50637,-10.74988,7.01889,4.43788,-10.69325,-1.23982,-1.23982,57.68857,11.98074,57.68856532,11.98074232,A,144539.00
18:35:19.574996,7.15026,0.03865,3.14903,3.14903,[3.00000 0.00000 0.00000],[1.30000 0.00000 0.00000],-0.01161,0.06147,0.03490,0.14479,0.05236,0.02512,-0.02377,-0.05234,-0.01141,1.05780,7.11432,0.00000,2.95776,-1.24248,-1.20670,4.55989,-10.89920,7.14543,4.62609,-11.17509,-1.19841,-1.19841,57.68856,11.98074,57.68856398,11.98074322,A,144539.20
18:35:19.601498,7.17676,0.01427,2.28363,2.28363,[3.00000 0.00000 0.00000],[1.30000 0.00000 0.00000],-0.01022,0.06685,0.02375,0.17281,0.05236,-0.02024,-0.01644,-0.00976,0.05441,0.94263,7.16485,0.00000,2.82293,-1.23879,-1.19988,4.58488,-10.96987,7.14543,4.62609,-11.17509,-1.19841,-1.19841,57.68856,11.98074,57.68856335,11.98074364,A,144539.20
18:35:19.628772,7.20403,0.01371,2.28363,2.28363,[3.00000 0.00000 0.00000],[1.30000 0.00000 0.00000],-0.01016,0.06951,0.02100,0.18083,0.05236,-0.02039,-0.03201,-0.08491,0.00830,1.04871,7.19335,0.00000,2.71507,-1.23539,-1.19493,4.61070,-11.04123,7.14543,4.62609,-11.17509,-1.19841,-1.19841,57.68856,11.98074,57.68856270,11.98074407,A,144539.20
18:35:19.656750,7.23202,0.01288,2.85368,2.85368,[3.00000 0.00000 0.00000],[1.30000 0.00000 0.00000],-0.01041,0.07299,0.02650,0.16529,0.05236,0.01489,-0.04637,0.06753,-0.00012,1.01303,7.22040,0.00000,2.74279,-1.23292,-1.19043,4.63385,-11.10463,7.14543,4.62609,-11.17509,-1.19841,-1.19841,57.68856,11.98074,57.68856213,11.98074446,A,144539.20
18:35:19.694449,7.26971,0.02631,2.85368,2.85368,[3.00000 0.00000 0.00000],[1.30000 0.00000 0.00000],-0.00938,0.07704,0.04727,0.09898,0.05236,-0.02298,-0.02651,0.05203,0.05685,0.92287,7.24549,0.00000,2.76497,-1.22055,-1.17570,4.67424,-11.20826,7.26488,4.74496,-11.43454,-1.14118,-1.14118,57.68856,11.98075,57.68856120,11.98074514,A,144539.30
18:35:19.719789,7.29471,0.01234,2.85368,2.85368,[3.00000 0.00000 0.00000],[1.30000 0.00000 0.00000],-0.00727,0.08216,0.08072,-0.00960,0.05236,-0.02359,0.01899,-0.03111,0.00787,1.05579,7.28352,0.00000,2.78271,-1.21252,-1.16467,4.69899,-11.27044,7.26488,4.74496,-11.43454,-1.14118,-1.14118,57.68856,11.98075,57.68856064,11.98074556,A,144539.30
18:35:19.748704,7.32396,0.01458,2.85368,2.85368,[3.00000 0.00000 0.00000],[1.30000 0.00000 0.00000],-0.00329,0.08394,0.10698,-0.10392,0.05236,-0.00878,0.01716,-0.02037,0.13158,0.92476,7.31229,0.00000,2.79690,-1.20483,-1.15594,4.72798,-11.34070,7.26488,4.74496,-11.43454,-1.14118,-1.14118,57.68856,11.98075,57.68856001,11.98074605,A,144539.30
18:35:19.776491,7.35176,0.01471,2.34434,2.34434,[3.00000 0.00000 0.00000],[1.30000 0.00000 0.00000],-0.00076,0.08460,0.13233,-0.18984,0.05236,-0.00588,0.02510,0.05984,-0.00805,0.93001,7.33996,0.07082,2.70639,-1.19838,-1.14911,4.75528,-11.40545,7.26488,4.74496,-11.43454,-1.14118,-1.14118,57.68856,11.98075,57.68855943,11.98074651,A,144539.30
18:35:19.815674,7.39094,0.02732,2.34434,2.34434,[3.00000 0.00000 0.00000],[1.30000 0.00000 0.00000],0.00305,0.08343,0.12210,-0.17400,0.05236,0.00557,0.02907,-0.02983,0.11328,1.07488,7.36592,0.11722,2.63398,-1.20191,-1.15331,4.79934,-11.50840,7.38619,4.83412,-11.67547,-1.21637,-1.21637,57.68856,11.98075,57.68855850,11.98074725,A,144539.40
18:35:19.843458,7.41872,0.01363,2.91614,2.91614,[3.00000 0.00000 0.00000],[1.30000 0.00000 0.00000],0.00846,0.07356,0.14425,-0.26154,0.05236,0.00848,0.01334,0.08979,0.04240,0.92525,7.40805,0.07814,2.69041,-1.20664,-1.16382,4.82513,-11.57097,7.38619,4.83412,-11.67547,-1.21637,-1.21637,57.68856,11.98075,57.68855794,11.98074768,A,144539.40
18:35:19.870876,7.44614,0.01434,2.91614,2.91614,[3.00000 0.00000 0.00000],[1.30000 0.00000 0.00000],0.01235,0.06883,0.15845,-0.31929,0.05236,-0.05505,0.00632,0.07308,0.06673,0.87852,7.43416,0.77167,2.73556,-1.21063,-1.17057,4.84962,-11.63197,7.38619,4.83412,-11.67547,-1.21637,-1.21637,57.68856,11.98075,57.68855739,11.98074809,A,144539.40
18:35:19.897997,7.47326,0.01282,2.91614,2.91614,[3.00000 0.00000 0.00000],[1.30000 0.00000 0.00000],0.01639,0.06110,0.17464,-0.38364,0.05236,-0.02802,0.01395,-0.07497,0.02007,1.08696,7.46278,0.38095,2.77167,-1.21339,-1.17783,4.87387,-11.69330,7.38619,4.83412,-11.67547,-1.21637,-1.21637,57.68856,11.98075,57.68855684,11.98074850,A,144539.40
18:35:19.939036,7.51430,0.02709,2.68006,2.68006,[3.00000 0.00000 0.00000],[1.30000 0.00000 0.00000],0.01923,0.05298,0.15952,-0.34936,0.05236,-0.02375,-0.00345,-0.02227,-0.00567,0.98582,7.48840,1.02564,2.75335,-1.20707,-1.17624,4.91687,-11.80076,7.50937,4.94308,-11.93492,-1.17319,-1.17319,57.68855,11.98075,57.68855587,11.98074923,A,144539.50
18:35:19.964746,7.54001,0.01299,2.68006,2.68006,[3.00000 0.00000 0.00000],[1.30000 0.00000 0.00000],0.02430,0.03733,0.14959,-0.33934,0.05236,-0.02451,-0.04683,-0.06765,0.00171,1.00138,7.52935,1.20635,2.73869,-1.20293,-1.18121,4.93976,-11.85929,7.50937,4.94308,-11.93492,-1.17319,-1.17319,57.68855,11.98075,57.68855535,11.98074961,A,144539.50
18:35:19.992219,7.56748,0.01469,2.68006,2.68006,[3.00000 0.00000 0.00000],[1.30000 0.00000 0.00000],0.02688,0.02737,0.11569,-0.24771,0.05236,-0.03031,-0.08791,-0.02824,0.03569,1.07738,7.55611,0.27350,2.72696,-1.19909,-1.18317,4.96301,-11.91929,7.50937,4.94308,-11.93492,-1.17319,-1.17319,57.68855,11.98075,57.68855481,11.98075000,A,144539.50
18:35:20.016982,7.59225,0.01426,2.68006,2.68006,[3.00000 0.00000 0.00000],[1.30000 0.00000 0.00000],0.02982,0.01840,0.10683,-0.23259,0.05236,0.00450,-0.12700,0.07070,0.08485,0.98899,7.58073,0.55922,2.71758,-1.19561,-1.18491,4.98330,-11.97222,7.50937,4.94308,-11.93492,-1.17319,-1.17319,57.68855,11.98075,57.68855433,11.98075034,A,144539.50
18:35:20.067201,7.64247,0.03760,2.53099,2.53099,[3.00000 0.00000 0.00000],[1.30000 0.00000 0.00000],0.03138,0.01095,0.11554,-0.26477,0.05236,-0.01382,-0.13739,0.13054,-0.03556,0.96868,7.60720,0.20757,2.68026,-1.19519,-1.18883,5.03778,-12.11032,7.63771,5.13130,-12.41677,-1.19841,-1.19841,57.68855,11.98075,57.68855309,11.98075126,A,144539.70
18:35:20.092952,7.66822,0.01339,2.53099,2.53099,[3.00000 0.00000 0.00000],[1.30000 0.00000 0.00000],0.03525,-0.00337,0.10439,-0.24643,0.05236,-0.03444,-0.15571,0.15390,-0.02538,1.06341,7.65627,0.09280,2.65041,-1.19490,-1.19686,5.06366,-12.17843,7.63771,5.13130,-12.41677,-1.19841,-1.19841,57.68855,11.98075,57.68855248,11.98075170,A,144539.70
18:35:20.120442,7.69570,0.01484,2.79052,2.79052,[3.00000 0.00000 0.00000],[1.30000 0.00000 0.00000],0.03879,-0.01047,0.09171,-0.22221,0.05236,-0.00832,-0.17816,0.19233,0.11004,0.91866,7.68440,0.24664,2.67843,-1.19467,-1.20076,5.08893,-12.24612,7.63771,5.13130,-12.41677,-1.19841,-1.19841,57.68855,11.98075,57.68855187,11.98075212,A,144539.70
18:35:20.147834,7.72310,0.01291,2.79052,2.79052,[3.00000 0.00000 0.00000],[1.30000 0.00000 0.00000],0.04231,-0.01766,0.09095,-0.23365,0.05236,-0.02512,-0.18274,0.10773,0.10937,0.88011,7.71145,0.04151,2.70085,-1.19417,-1.20444,5.11257,-12.31014,7.63771,5.13130,-12.41677,-1.19841,-1.19841,57.68855,11.98075,57.68855129,11.98075252,A,144539.70
18:35:20.189029,7.76431,0.02798,2.79052,2.79052,[3.00000 0.00000 0.00000],[1.30000 0.00000 0.00000],0.04326,-0.02383,0.09614,-0.25294,0.05236,-0.00115,-0.19847,0.04233,-0.05911,1.03590,7.73880,0.08303,2.71878,-1.19679,-1.21065,5.15369,-12.42063,7.75900,5.22045,-12.65769,-1.21637,-1.21637,57.68855,11.98075,57.68855030,11.98075321,A,144539.80
18:35:20.215935,7.79120,0.01379,2.70630,2.70630,[3.00000 0.00000 0.00000],[1.30000 0.00000 0.00000],0.04622,-0.03408,0.08621,-0.23472,0.05236,-0.01321,-0.21863,-0.01177,0.00653,1.07201,7.78117,0.18803,2.71628,-1.19790,-1.21772,5.17876,-12.49021,7.75900,5.22045,-12.65769,-1.21637,-1.21637,57.68855,11.98075,57.68854967,11.98075363,A,144539.80
18:35:20.243859,7.81912,0.01384,2.70630,2.70630,[3.00000 0.00000 0.00000],[1.30000 0.00000 0.00000],0.04607,-0.04047,0.06361,-0.16632,0.05236,-0.03948,-0.23451,0.14189,-0.07796,1.05493,7.80781,0.21245,2.71429,-1.19887,-1.22241,5.20335,-12.55965,7.75900,5.22045,-12.65769,-1.21637,-1.21637,57.68855,11.98075,57.68854905,11.98075405,A,144539.80
18:35:20.271546,7.84681,0.01391,2.70630,2.70630,[3.00000 0.00000 0.00000],[1.30000 0.00000 0.00000],0.04746,-0.04664,0.06636,-0.17999,0.05236,-0.08056,-0.25421,0.07442,0.01336,0.94977,7.83518,0.15140,2.71269,-1.19943,-1.22657,5.22600,-12.62457,7.75900,5.22045,-12.65769,-1.21637,-1.21637,57.68855,11.98075,57.68854846,11.98075443,A,144539.80
18:35:20.310940,7.88597,0.02826,3.13807,3.13807,[3.00000 0.00000 0.00000],[1.30000 0.00000 0.00000],0.04747,-0.05222,0.04987,-0.13054,0.05236,-0.09369,-0.26918,-0.13743,-0.05362,1.05079,7.86049,0.15385,2.79777,-1.19454,-1.22492,5.26464,-12.73256,7.88100,5.32942,-12.91714,-1.17319,-1.17319,57.68855,11.98076,57.68854749,11.98075508,A,144539.90
18:35:20.334394,7.90940,0.01194,3.13807,3.13807,[3.00000 0.00000 0.00000],[1.30000 0.00000 0.00000],0.04953,-0.06091,0.04376,-0.12023,0.05236,-0.02146,-0.27865,0.13524,0.04105,0.97545,7.90080,0.07082,2.86583,-1.18838,-1.22382,5.28756,-12.79638,7.88100,5.32942,-12.91714,-1.17319,-1.17319,57.68855,11.98076,57.68854692,11.98075546,A,144539.90
18:35:20.361758,7.93702,0.01490,3.13807,3.13807,[3.00000 0.00000 0.00000],[1.30000 0.00000 0.00000],0.05152,-0.06447,0.05216,-0.15321,0.05236,-0.04253,-0.29270,0.00281,0.06557,0.95739,7.92526,0.04151,2.92027,-1.18339,-1.22091,5.31057,-12.86027,7.88100,5.32942,-12.91714,-1.17319,-1.17319,57.68855,11.98076,57.68854634,11.98075585,A,144539.90
18:35:20.386640,7.96191,0.01273,2.31067,2.31067,[3.00000 0.00000 0.00000],[1.30000 0.00000 0.00000],0.05069,-0.06759,0.02650,-0.07298,0.05236,-0.04971,-0.30537,0.02672,-0.05447,1.01772,7.95075,0.18559,2.79835,-1.17877,-1.21811,5.33074,-12.91582,7.88100,5.32942,-12.91714,-1.17319,-1.17319,57.68855,11.98076,57.68854585,11.98075619,A,144539.90
18:35:20.409617,7.98488,0.01205,2.31067,2.31067,[3.00000 0.00000 0.00000],[1.30000 0.00000 0.00000],0.05052,-0.07166,0.01474,-0.03706,0.05236,-0.03764,-0.32828,0.03227,0.00952,0.98869,7.97384,0.03419,2.70082,-1.17442,-1.21614,5.34871,-12.96489,7.88100,5.32942,-12.91714,-1.17319,-1.17319,57.68855,11.98076,57.68854540,11.98075649,A,144539.90
18:35:20.447624,8.02277,0.02587,2.31067,2.31067,[3.00000 0.00000 0.00000],[1.30000 0.00000 0.00000],0.04991,-0.07404,0.01764,-0.04338,0.05236,-0.03337,-0.33317,0.06557,-0.02714,0.92165,7.99805,0.04396,2.62279,-1.17939,-1.22249,5.38418,-13.06089,8.01777,5.41857,-13.15807,-1.21637,-1.21637,57.68854,11.98076,57.68854454,11.98075709,A,144540.00
18:35:20.474487,8.04974,0.01266,2.81158,2.81158,[3.00000 0.00000 0.00000],[1.30000 0.00000 0.00000],0.04955,-0.07551,-0.01641,0.06020,0.05236,-0.02634,-0.34722,0.10937,0.04795,1.02334,8.03989,0.07326,2.66055,-1.18180,-1.22577,5.40639,-13.12218,8.01777,5.41857,-13.15807,-1.21637,-1.21637,57.68854,11.98076,57.68854399,11.98075746,A,144540.00
18:35:20.502607,8.07786,0.01494,2.81158,2.81158,[3.00000 0.00000 0.00000],[1.30000 0.00000 0.00000],0.05000,-0.07764,0.00283,0.00070,0.05236,-0.04421,-0.36432,0.05545,0.04734,0.98789,8.06563,0.00000,2.69075,-1.18381,-1.22902,5.42773,-13.18167,8.01777,5.41857,-13.15807,-1.21637,-1.21637,57.68854,11.98076,57.68854345,11.98075782,A,144540.00
18:35:20.529543,8.10481,0.01456,2.81158,2.81158,[3.00000 0.00000 0.00000],[1.30000 0.00000 0.00000],0.04878,-0.07860,-0.01840,0.06915,0.05236,-0.03490,-0.36829,0.03495,-0.02544,1.04042,8.09230,0.00000,2.71492,-1.18527,-1.23104,5.44634,-13.23409,8.01777,5.41857,-13.15807,-1.21637,-1.21637,57.68854,11.98076,57.68854298,11.98075813,A,144540.00
18:35:20.581156,8.15642,0.03878,2.81158,2.81158,[3.00000 0.00000 0.00000],[1.30000 0.00000 0.00000],0.04855,-0.07863,-0.01916,0.07234,0.05236,-0.05108,-0.36341,0.00952,0.03440,0.94416,8.11890,0.00000,2.73425,-1.19032,-1.23610,5.49821,-13.37935,8.15167,5.60678,-13.65844,-1.21102,-1.21102,57.68854,11.98076,57.68854168,11.98075901,A,144540.20
18:35:20.606695,8.18196,0.01226,2.34952,2.34952,[3.00000 0.00000 0.00000],[1.30000 0.00000 0.00000],0.04752,-0.07789,-0.00710,0.04015,0.05236,-0.05597,-0.34218,-0.11755,-0.00543,1.03114,8.17213,0.00000,2.65731,-1.19020,-1.23555,5.52281,-13.44842,8.15167,5.60678,-13.65844,-1.21102,-1.21102,57.68854,11.98076,57.68854106,11.98075942,A,144540.20
18:35:20.635576,8.21084,0.01312,2.34952,2.34952,[3.00000 0.00000 0.00000],[1.30000 0.00000 0.00000],0.04818,-0.07608,0.01291,-0.02243,0.05236,-0.04146,-0.35715,0.00110,0.06057,1.03810,8.20035,0.00000,2.59575,-1.19070,-1.23500,5.54884,-13.52159,8.15167,5.60678,-13.65844,-1.21102,-1.21102,57.68854,11.98076,57.68854040,11.98075986,A,144540.20
18:35:20.664089,8.23935,0.01410,2.87765,2.87765,[3.00000 0.00000 0.00000],[1.30000 0.00000 0.00000],0.04555,-0.07546,0.03276,-0.07174,0.05236,-0.02558,-0.34768,0.07771,-0.20984,0.96410,8.22835,0.00000,2.65213,-1.19075,-1.23468,5.57170,-13.58562,8.15167,5.60678,-13.65844,-1.21102,-1.21102,57.68854,11.98076,57.68853982,11.98076024,A,144540.20
18:35:20.703647,8.27891,0.02769,2.87765,2.87765,[3.00000 0.00000 0.00000],[1.30000 0.00000 0.00000],0.04691,-0.07551,0.00711,-0.00006,0.05236,-0.07140,-0.34233,-0.00506,0.08888,0.94501,8.25399,0.02198,2.69723,-1.20241,-1.24637,5.60948,-13.69401,8.27413,5.68603,-13.91790,-1.27436,-1.27436,57.68854,11.98076,57.68853885,11.98076088,A,144540.30
18:35:20.731300,8.30656,0.01504,2.87765,2.87765,[3.00000 0.00000 0.00000],[1.30000 0.00000 0.00000],0.04656,-0.07786,0.01077,-0.00971,0.05236,-0.03902,-0.35638,-0.04593,-0.03398,1.02205,8.29512,0.01221,2.73331,-1.20983,-1.25517,5.63190,-13.76051,8.27413,5.68603,-13.91790,-1.27436,-1.27436,57.68854,11.98076,57.68853825,11.98076126,A,144540.30
18:35:20.753649,8.32891,0.01121,2.66890,2.66890,[3.00000 0.00000 0.00000],[1.30000 0.00000 0.00000],0.04826,-0.07860,0.03261,-0.08184,0.05236,-0.01550,-0.35974,0.02269,0.09278,1.02578,8.31793,0.02686,2.72043,-1.21581,-1.26158,5.65081,-13.81799,8.27413,5.68603,-13.91790,-1.27436,-1.27436,57.68854,11.98076,57.68853773,11.98076157,A,144540.30
18:35:20.781211,8.35646,0.01331,2.66890,2.66890,[3.00000 0.00000 0.00000],[1.30000 0.00000 0.00000],0.04760,-0.07945,0.04269,-0.10949,0.05236,-0.01718,-0.34508,0.03733,-0.09723,0.98655,8.34629,0.01465,2.71013,-1.22162,-1.26788,5.67229,-13.88472,8.27413,5.68603,-13.91790,-1.27436,-1.27436,57.68854,11.98076,57.68853713,11.98076194,A,144540.30
18:35:20.820961,8.39622,0.02753,2.66890,2.66890,[3.00000 0.00000 0.00000],[1.30000 0.00000 0.00000],0.04986,-0.08171,0.01276,-0.02853,0.05236,-0.02069,-0.35623,0.00500,0.15116,0.97502,8.37094,0.02930,2.70188,-1.23670,-1.28429,5.70548,-13.99289,8.39150,5.74547,-14.15882,-1.32892,-1.32892,57.68853,11.98076,57.68853616,11.98076249,A,144540.40
18:35:20.848026,8.42327,0.01297,2.66890,2.66890,[3.00000 0.00000 0.00000],[1.30000 0.00000 0.00000],0.04944,-0.08565,0.01978,-0.04797,0.05236,-0.06636,-0.36677,0.03794,-0.05874,1.00229,8.41280,0.02442,2.69529,-1.24696,-1.29684,5.72480,-14.06000,8.39150,5.74547,-14.15882,-1.32892,-1.32892,57.68853,11.98076,57.68853556,11.98076282,A,144540.40
18:35:20.876059,8.45132,0.01459,2.43564,2.43564,[3.00000 0.00000 0.00000],[1.30000 0.00000 0.00000],0.05046,-0.08681,0.01459,-0.03636,0.05236,-0.05521,-0.38143,-0.03733,0.08936,1.13387,8.43948,0.06105,2.64336,-1.25580,-1.30636,5.74260,-14.12457,8.39150,5.74547,-14.15882,-1.32892,-1.32892,57.68853,11.98076,57.68853497,11.98076312,A,144540.40
18:35:20.900257,8.47495,0.01350,2.43564,2.43564,[3.00000 0.00000 0.00000],[1.30000 0.00000 0.00000],0.04999,-0.08859,0.02055,-0.05241,0.05236,-0.04742,-0.38234,0.07735,-0.03263,1.01876,8.46382,0.03175,2.60181,-1.26251,-1.31411,5.75618,-14.17592,8.39150,5.74547,-14.15882,-1.32892,-1.32892,57.68853,11.98076,57.68853451,11.98076335,A,144540.40
18:35:20.939635,8.51490,0.02721,2.43564,2.43564,[3.00000 0.00000 0.00000],[1.30000 0.00000 0.00000],0.04978,-0.09074,0.03231,-0.08684,0.05236,-0.06223,-0.38387,0.05911,-0.03941,0.89121,8.48927,0.01709,2.56858,-1.26837,-1.32123,5.78384,-14.28225,8.51015,5.81481,-14.41828,-1.30964,-1.30964,57.68853,11.98076,57.68853356,11.98076381,A,144540.50
18:35:20.962563,8.53782,0.01205,2.80050,2.80050,[3.00000 0.00000 0.00000],[1.30000 0.00000 0.00000],0.05054,-0.09343,0.01994,-0.05269,0.05236,-0.07109,-0.38204,0.00207,0.01690,1.02858,8.52673,0.03907,2.61496,-1.26946,-1.32389,5.79608,-14.33102,8.51015,5.81481,-14.41828,-1.30964,-1.30964,57.68853,11.98076,57.68853312,11.98076402,A,144540.50
18:35:20.989363,8.56463,0.01332,2.80050,2.80050,[3.00000 0.00000 0.00000],[1.30000 0.00000 0.00000],0.05170,-0.09581,0.02421,-0.07007,0.05236,-0.05185,-0.38998,0.03318,0.05215,1.02907,8.55277,0.02198,2.65207,-1.27151,-1.32733,5.81180,-14.39400,8.51015,5.81481,-14.41828,-1.30964,-1.30964,57.68853,11.98076,57.68853255,11.98076428,A,144540.50
18:35:21.009406,8.58467,0.01044,2.80050,2.80050,[3.00000 0.00000 0.00000],[1.30000 0.00000 0.00000],0.05209,-0.09733,0.01780,-0.05235,0.05236,-0.06452,-0.39670,-0.04386,0.01629,1.02998,8.57381,0.03663,2.68176,-1.27193,-1.32865,5.82231,-14.43695,8.51015,5.81481,-14.41828,-1.30964,-1.30964,57.68853,11.98076,57.68853217,11.98076446,A,144540.50
18:35:21.038276,8.61334,0.01342,2.62173,2.62173,[3.00000 0.00000 0.00000],[1.30000 0.00000 0.00000],0.05267,-0.09915,0.01429,-0.04406,0.05236,-0.06987,-0.40846,0.09803,0.03562,1.04444,8.60199,0.02686,2.66975,-1.27365,-1.33143,5.83690,-14.49658,8.51015,5.81481,-14.41828,-1.30964,-1.30964,57.68853,11.98076,57.68853163,11.98076470,A,144540.50
18:35:21.083784,8.65905,0.03566,2.62173,2.62173,[3.00000 0.00000 0.00000],[1.30000 0.00000 0.00000],0.05358,-0.10070,0.01780,-0.05817,0.05236,-0.07598,-0.40250,0.04441,0.05191,0.97771,8.62454,0.02198,2.66015,-1.28995,-1.34863,5.86780,-14.62947,8.65430,5.91387,-14.93719,-1.38217,-1.38217,57.68853,11.98077,57.68853043,11.98076522,A,144540.70
