Description :  ; walk_time = 2.0 ; speed_up_time = 3.0 ; balancing_time = 0.0
RealTime,Time,CalculationTime,MeasuredVelocity,FilteredVelocity,BalancingGainsInner,BalancingGainsOuter,Roll,SteeringAngle,RollRate,ControlInput,BalancingSetpoint,gy,gz,ax,ay,az,imu_read_timing,SteerMotorCurrent,v_estimated,yaw_estimated,heading_estimated,x_estimated,y_estimated,GPS_timestamp,x_GPS,y_GPS,theta_GPS,theta_GPS_noUnwrap,latitude,longitude,lat_estimated,lon_estimated,status,NMEA timestamp,DirectionGains,LateralPositionGains,distance_travelled,x_ref,y_ref,heading_ref,lateral_error,heading_error
17:39:18.390174,0.09534,0.09530,3.73160,1.50000,"[5.00000,0.00000,0.00000]","[1.30000,0.00000,0.00000]",-0.00074,-0.05080,0.01044,0.00000,0.00000,0.00079,-0.06841,0.14323,-0.03154,0.99979,0.00001,0.03907,0.00000,0.02956,0.00000,0.00000,0.00000,0.01828,0.00000,0.00000,0.00000,0.00000,57.78144,12.77352,57.78143650,12.77351550,A,130503.60,"[-0.20000,-0.00000,-0.00000]","[-0.10000,-0.00000,-0.00000]",0.00000,0.00000,0.00000,0.00000,0.00000,0.00000
17:39:18.413408,0.11837,0.00947,3.73160,1.50000,"[5.00000,0.00000,0.00000]","[1.30000,0.00000,0.00000]",0.00014,-0.05963,0.00570,0.00000,0.00000,0.01148,-0.07635,0.06740,0.03062,1.01766,0.11081,0.02930,0.30000,0.03033,-0.00437,0.00000,0.00000,0.01828,0.00000,0.00000,0.00000,0.00000,57.78144,12.77352,57.78143650,12.77351550,A,130503.60,"[-0.20000,-0.00000,-0.00000]","[-0.10000,-0.00000,-0.00000]",0.16326,0.00000,0.00000,0.00000,0.00000,0.00000
17:39:18.475862,0.18104,0.06116,3.73160,1.50000,"[5.00000,0.00000,0.00000]","[1.30000,0.00000,0.00000]",-0.00012,-0.05963,0.00586,0.00000,0.00000,0.01179,-0.07727,0.14847,-0.00817,0.98661,0.12181,0.04884,0.54000,0.03087,-0.00384,0.00259,-0.00001,0.14078,-0.03952,0.07413,2.06061,2.06061,57.78144,12.77351,57.78143650,12.77351554,A,130503.70,"[-0.20000,-0.00000,-0.00000]","[-0.10000,-0.00000,-0.00000]",0.17969,0.00000,0.00000,0.00000,0.00000,0.00000
17:39:18.501433,0.20641,0.01182,3.73160,1.50000,"[5.00000,0.00000,0.00000]","[1.30000,0.00000,0.00000]",-0.00102,-0.05963,-0.00499,0.00000,0.00000,-0.00501,-0.07925,0.09010,-0.02172,0.99631,0.19900,0.02198,0.73200,0.33874,0.30403,0.03917,0.00355,0.14078,-0.03952,0.07413,2.06061,2.06061,57.78144,12.77351,57.78143653,12.77351616,A,130503.70,"[-0.20000,-0.00000,-0.00000]","[-0.10000,-0.00000,-0.00000]",0.29172,0.00000,0.00000,0.00000,0.00000,0.00000
17:39:18.521876,0.22709,0.00874,3.73160,1.50000,"[5.00000,0.00000,0.00000]","[1.30000,0.00000,0.00000]",-0.00147,-0.05963,-0.01736,0.00000,0.00000,0.00614,-0.08246,0.02824,0.00610,1.02163,0.21940,0.03419,0.88560,0.60162,0.56692,0.04761,0.01096,0.14078,-0.03952,0.07413,2.06061,2.06061,57.78144,12.77351,57.78143660,12.77351630,A,130503.70,"[-0.20000,-0.00000,-0.00000]","[-0.10000,-0.00000,-0.00000]",0.32733,0.00000,0.00000,0.00000,0.00000,0.00000
17:39:18.532584,0.23779,0.00922,3.73160,1.50000,"[5.00000,0.00000,0.00000]","[1.30000,0.00000,0.00000]",-0.00199,-0.05963,-0.02163,0.00000,0.00000,0.01209,-0.08490,0.06301,-0.00811,0.99168,0.22939,0.03663,1.00848,0.82532,0.79062,0.04973,0.01824,0.14078,-0.03952,0.07413,2.06061,2.06061,57.78144,12.77351,57.78143666,12.77351634,A,130503.70,"[-0.20000,-0.00000,-0.00000]","[-0.10000,-0.00000,-0.00000]",0.34264,0.00000,0.00000,0.00000,0.00000,0.00000
17:39:18.606597,0.31179,0.07252,3.73160,1.50000,"[5.00000,0.00000,0.00000]","[1.30000,0.00000,0.00000]",-0.00236,-0.05963,-0.01720,0.00000,0.00000,0.00995,-0.07986,0.10474,-0.00140,0.96130,0.24022,0.03907,1.10678,1.01546,0.98075,0.05073,0.02655,0.27066,-0.11857,0.25945,1.97395,1.97395,57.78144,12.77351,57.78143674,12.77351636,A,130503.90,"[-0.20000,-0.00000,-0.00000]","[-0.10000,-0.00000,-0.00000]",0.35866,0.00000,0.00000,0.00000,0.00000,0.00000
17:39:18.632388,0.33760,0.01067,3.73160,1.50000,"[5.00000,0.00000,0.00000]","[1.30000,0.00000,0.00000]",-0.00723,-0.05963,-0.05034,0.00000,0.00000,0.01026,-0.08414,0.02440,-0.01671,1.00241,0.33012,0.03175,1.18543,1.16019,1.12548,0.09320,0.11427,0.27066,-0.11857,0.25945,1.97395,1.97395,57.78144,12.77351,57.78143753,12.77351707,A,130503.90,"[-0.20000,-0.00000,-0.00000]","[-0.10000,-0.00000,-0.00000]",0.49012,0.00000,0.00000,0.00000,0.00000,0.00000
17:39:18.657651,0.36285,0.01157,3.73160,1.50000,"[5.00000,0.00000,0.00000]","[1.30000,0.00000,0.00000]",-0.00902,-0.05963,-0.06592,0.00000,0.00000,0.00354,-0.07941,0.09046,-0.00506,0.98356,0.35516,0.03175,1.24834,1.28624,1.25154,0.09388,0.14514,0.27066,-0.11857,0.25945,1.97395,1.97395,57.78144,12.77351,57.78143781,12.77351708,A,130503.90,"[-0.20000,-0.00000,-0.00000]","[-0.10000,-0.00000,-0.00000]",0.52662,0.00000,0.00000,0.00000,0.00000,0.00000
17:39:18.729910,0.43407,0.05510,0.87050,1.50000,"[5.00000,0.00000,0.00000]","[1.30000,0.00000,0.00000]",-0.01102,-0.05963,-0.07493,0.00000,0.00000,0.00721,-0.07345,0.07448,-0.00897,0.95453,0.37801,0.02686,1.17277,1.39345,1.35874,0.09110,0.17457,0.39677,-0.15809,0.37065,1.91230,1.91230,57.78144,12.77351,57.78143807,12.77351704,A,130504.00,"[-0.20000,-0.00000,-0.00000]","[-0.10000,-0.00000,-0.00000]",0.56810,0.00000,0.00000,0.00000,0.00000,0.00000
17:39:18.752273,0.45748,0.00777,0.87050,0.87050,"[5.00000,0.00000,0.00000]","[1.30000,0.00000,0.00000]",-0.01726,-0.05859,-0.09051,0.00000,0.00000,0.02523,-0.06566,0.06435,0.01659,1.01138,0.44908,0.02686,1.11232,1.47276,1.43867,0.09510,0.26083,0.39677,-0.15809,0.37065,1.91230,1.91230,57.78144,12.77351,57.78143885,12.77351710,A,130504.00,"[-0.20000,-0.00000,-0.00000]","[-0.10000,-0.00000,-0.00000]",0.67418,0.00000,0.00000,0.00000,0.00000,0.00000
17:39:18.760003,0.46522,0.00511,0.87050,0.87050,"[5.00000,0.00000,0.00000]","[1.30000,0.00000,0.00000]",-0.01823,-0.05782,-0.09173,0.00000,0.00000,0.01988,-0.06261,0.06179,-0.00854,0.99485,0.45782,0.02930,1.06395,1.54345,1.50980,0.08328,0.27261,0.39677,-0.15809,0.37065,1.91230,1.91230,57.78144,12.77351,57.78143895,12.77351690,A,130504.00,"[-0.20000,-0.00000,-0.00000]","[-0.10000,-0.00000,-0.00000]",0.68321,0.00000,0.00000,0.00000,0.00000,0.00000
17:39:18.770919,0.47613,0.00544,0.87050,0.87050,"[5.00000,0.00000,0.00000]","[1.30000,0.00000,0.00000]",-0.01935,-0.05669,-0.09265,0.00000,0.00000,0.01545,-0.06139,0.09126,-0.00811,0.95831,0.46820,0.02686,1.02526,1.60333,1.57034,0.07174,0.28621,0.39677,-0.15809,0.37065,1.91230,1.91230,57.78144,12.77351,57.78143907,12.77351671,A,130504.00,"[-0.20000,-0.00000,-0.00000]","[-0.10000,-0.00000,-0.00000]",0.69238,0.00000,0.00000,0.00000,0.00000,0.00000
17:39:18.781001,0.48622,0.00513,0.87050,0.87050,"[5.00000,0.00000,0.00000]","[1.30000,0.00000,0.00000]",-0.02017,-0.05544,-0.10059,0.00000,0.00000,0.00339,-0.06047,0.09870,0.01641,0.96587,0.47883,0.03907,0.99431,1.65416,1.62190,0.06025,0.29856,0.39677,-0.15809,0.37065,1.91230,1.91230,57.78144,12.77351,57.78143919,12.77351652,A,130504.00,"[-0.20000,-0.00000,-0.00000]","[-0.10000,-0.00000,-0.00000]",0.70141,0.00000,0.00000,0.00000,0.00000,0.00000
17:39:18.791333,0.49655,0.00522,0.87050,0.87050,"[5.00000,0.00000,0.00000]","[1.30000,0.00000,0.00000]",-0.02133,-0.05426,-0.09310,0.00000,0.00000,0.00782,-0.05925,0.05569,-0.01446,0.95868,0.48889,0.03907,0.96955,1.69728,1.66571,0.04893,0.31000,0.39677,-0.15809,0.37065,1.91230,1.91230,57.78144,12.77351,57.78143929,12.77351633,A,130504.00,"[-0.20000,-0.00000,-0.00000]","[-0.10000,-0.00000,-0.00000]",0.71028,0.00000,0.00000,0.00000,0.00000,0.00000
17:39:18.849514,0.55419,0.05202,0.87050,1.50000,"[5.00000,0.00000,0.00000]","[1.30000,0.00000,0.00000]",-0.02302,-0.05310,-0.09921,0.00000,0.00000,0.00217,-0.06047,0.07631,-0.04276,0.97667,0.49946,0.02198,0.94974,1.73383,1.70294,0.03784,0.32088,0.51826,-0.21737,0.48184,2.06061,2.06061,57.78144,12.77351,57.78143939,12.77351614,A,130504.10,"[-0.20000,-0.00000,-0.00000]","[-0.10000,-0.00000,-0.00000]",0.71931,0.00000,0.00000,0.00000,0.00000,0.00000
17:39:18.870759,0.57597,0.00907,0.87050,0.87050,"[5.00000,0.00000,0.00000]","[1.30000,0.00000,0.00000]",-0.03094,-0.04497,-0.11174,0.00000,0.00000,0.00980,-0.06001,0.06417,-0.02599,0.97045,0.56801,0.03175,0.93389,1.78428,1.75812,0.01713,0.38867,0.51826,-0.21737,0.48184,2.06061,2.06061,57.78144,12.77351,57.78144000,12.77351579,A,130504.10,"[-0.20000,-0.00000,-0.00000]","[-0.10000,-0.00000,-0.00000]",0.81704,0.00000,0.00000,0.00000,0.00000,0.00000
17:39:18.877607,0.58281,0.00541,0.87050,0.87050,"[5.00000,0.00000,0.00000]","[1.30000,0.00000,0.00000]",-0.03204,-0.04387,-0.10746,0.00000,0.00000,0.01438,-0.05955,0.03843,-0.03117,0.97490,0.57518,0.05128,0.92121,1.82941,1.80389,0.00460,0.39757,0.51826,-0.21737,0.48184,2.06061,2.06061,57.78144,12.77351,57.78144008,12.77351558,A,130504.10,"[-0.20000,-0.00000,-0.00000]","[-0.10000,-0.00000,-0.00000]",0.82616,0.00000,0.00000,0.00000,0.00000,0.00000
17:39:18.887662,0.59288,0.00508,0.87050,0.87050,"[5.00000,0.00000,0.00000]","[1.30000,0.00000,0.00000]",-0.03393,-0.04260,-0.11296,0.00000,0.00000,0.01225,-0.05971,0.08638,-0.05856,0.95087,0.58529,0.01709,0.91107,1.86755,1.84277,-0.00823,0.40909,0.51826,-0.21737,0.48184,2.06061,2.06061,57.78144,12.77351,57.78144018,12.77351536,A,130504.10,"[-0.20000,-0.00000,-0.00000]","[-0.10000,-0.00000,-0.00000]",0.83519,0.00000,0.00000,0.00000,0.00000,0.00000
17:39:18.898362,0.60358,0.00537,0.87050,0.87050,"[5.00000,0.00000,0.00000]","[1.30000,0.00000,0.00000]",-0.03562,-0.04152,-0.11174,0.00000,0.00000,0.00675,-0.05772,0.10809,-0.04551,0.96892,0.59590,0.02686,0.90295,1.89988,1.87573,-0.02070,0.41994,0.51826,-0.21737,0.48184,2.06061,2.06061,57.78144,12.77351,57.78144028,12.77351515,A,130504.10,"[-0.20000,-0.00000,-0.00000]","[-0.10000,-0.00000,-0.00000]",0.84421,0.00000,0.00000,0.00000,0.00000,0.00000
17:39:18.908418,0.61363,0.00502,0.87050,0.87050,"[5.00000,0.00000,0.00000]","[1.30000,0.00000,0.00000]",-0.03720,-0.04078,-0.12075,0.00000,0.00000,0.00339,-0.06322,0.05679,-0.03666,0.99479,0.60624,0.02930,0.89646,1.92732,1.90360,-0.03267,0.42983,0.51826,-0.21737,0.48184,2.06061,2.06061,57.78144,12.77351,57.78144037,12.77351495,A,130504.10,"[-0.20000,-0.00000,-0.00000]","[-0.10000,-0.00000,-0.00000]",0.85324,0.00000,0.00000,0.00000,0.00000,0.00000
17:39:18.967225,0.67242,0.05350,0.87050,1.50000,"[5.00000,0.00000,0.00000]","[1.30000,0.00000,0.00000]",-0.03839,-0.04033,-0.12456,0.00000,0.00000,0.00323,-0.05955,0.04984,-0.01104,1.02230,0.61644,0.04151,0.89127,1.95061,1.92714,-0.04426,0.43923,0.63533,-0.26678,0.59304,1.98889,1.98889,57.78144,12.77351,57.78144045,12.77351475,A,130504.20,"[-0.20000,-0.00000,-0.00000]","[-0.10000,-0.00000,-0.00000]",0.86219,0.00000,0.00000,0.00000,0.00000,0.00000
17:39:18.988927,0.69414,0.00872,0.87050,0.87050,"[5.00000,0.00000,0.00000]","[1.30000,0.00000,0.00000]",-0.04649,-0.03960,-0.11754,0.00000,0.00000,0.00430,-0.05070,0.09845,-0.01946,0.98308,0.68604,0.04396,0.88711,1.95801,1.93498,-0.07534,0.50053,0.63533,-0.26678,0.59304,1.98889,1.98889,57.78144,12.77351,57.78144100,12.77351423,A,130504.20,"[-0.20000,-0.00000,-0.00000]","[-0.10000,-0.00000,-0.00000]",0.96188,0.00000,0.00000,0.00000,0.00000,0.00000
17:39:18.995452,0.70067,0.00509,0.87050,0.87050,"[5.00000,0.00000,0.00000]","[1.30000,0.00000,0.00000]",-0.04725,-0.03931,-0.11510,0.00000,0.00000,-0.00257,-0.04795,0.03209,-0.02269,1.04328,0.69304,0.04151,0.88379,1.96595,1.94308,-0.08628,0.50875,0.63533,-0.26678,0.59304,1.98889,1.98889,57.78144,12.77351,57.78144108,12.77351404,A,130504.20,"[-0.20000,-0.00000,-0.00000]","[-0.10000,-0.00000,-0.00000]",0.97072,0.00000,0.00000,0.00000,0.00000,0.00000
17:39:19.006171,0.71139,0.00540,0.87050,0.87050,"[5.00000,0.00000,0.00000]","[1.30000,0.00000,0.00000]",-0.04849,-0.03877,-0.11372,0.00000,0.00000,0.00766,-0.05008,0.09919,-0.02928,1.02340,0.70368,0.04396,0.88113,1.97255,1.95000,-0.09795,0.51973,0.63533,-0.26678,0.59304,1.98889,1.98889,57.78144,12.77351,57.78144117,12.77351385,A,130504.20,"[-0.20000,-0.00000,-0.00000]","[-0.10000,-0.00000,-0.00000]",0.97975,0.00000,0.00000,0.00000,0.00000,0.00000
17:39:19.016238,0.72145,0.00507,0.87050,0.87050,"[5.00000,0.00000,0.00000]","[1.30000,0.00000,0.00000]",-0.04940,-0.03818,-0.10608,0.00000,0.00000,0.00155,-0.04978,0.01635,-0.01537,1.06951,0.71407,0.03663,0.87900,1.97813,1.95592,-0.10897,0.52987,0.63533,-0.26678,0.59304,1.98889,1.98889,57.78144,12.77351,57.78144127,12.77351366,A,130504.20,"[-0.20000,-0.00000,-0.00000]","[-0.10000,-0.00000,-0.00000]",0.98877,0.00000,0.00000,0.00000,0.00000,0.00000
17:39:19.027056,0.73228,0.00524,0.87050,0.87050,"[5.00000,0.00000,0.00000]","[1.30000,0.00000,0.00000]",-0.05109,-0.03736,-0.10105,0.00000,0.00000,0.00278,-0.05436,0.07003,-0.07174,1.02840,0.72459,0.03663,0.87730,1.98278,1.96105,-0.11961,0.53981,0.63533,-0.26678,0.59304,1.98889,1.98889,57.78144,12.77351,57.78144135,12.77351348,A,130504.20,"[-0.20000,-0.00000,-0.00000]","[-0.10000,-0.00000,-0.00000]",0.99801,0.00000,0.00000,0.00000,0.00000,0.00000
17:39:19.099562,0.80413,0.06668,0.87050,1.50000,"[5.00000,0.00000,0.00000]","[1.30000,0.00000,0.00000]",-0.05291,-0.03637,-0.09494,0.00000,0.00000,0.00308,-0.05100,0.07747,-0.08461,0.99881,0.73516,0.02686,0.87594,1.98667,1.96551,-0.12967,0.54905,0.76508,-0.38534,0.85249,1.99944,1.99944,57.78144,12.77351,57.78144144,12.77351331,A,130504.40,"[-0.20000,-0.00000,-0.00000]","[-0.10000,-0.00000,-0.00000]",1.00704,0.00000,0.00000,0.00000,0.00000,0.00000
17:39:19.121085,0.82630,0.00693,0.87050,0.87050,"[5.00000,0.00000,0.00000]","[1.30000,0.00000,0.00000]",-0.05768,-0.02043,-0.05569,0.00000,0.00000,0.02080,-0.03268,0.10980,-0.04301,1.04005,0.81889,0.03175,0.87485,1.98844,1.97656,-0.16861,0.62700,0.76508,-0.38534,0.85249,1.99944,1.99944,57.78144,12.77351,57.78144214,12.77351266,A,130504.40,"[-0.20000,-0.00000,-0.00000]","[-0.10000,-0.00000,-0.00000]",1.12989,0.00000,0.00000,0.00000,0.00000,0.00000
17:39:19.129941,0.83516,0.00538,0.87050,0.87050,"[5.00000,0.00000,0.00000]","[1.30000,0.00000,0.00000]",-0.05830,-0.01831,-0.05126,0.00000,0.00000,0.01392,-0.02641,0.06399,-0.04709,1.01297,0.82751,0.02442,0.87398,1.99160,1.98095,-0.18169,0.64350,0.76508,-0.38534,0.85249,1.99944,1.99944,57.78144,12.77351,57.78144229,12.77351244,A,130504.40,"[-0.20000,-0.00000,-0.00000]","[-0.10000,-0.00000,-0.00000]",1.13892,0.00000,0.00000,0.00000,0.00000,0.00000
17:39:19.140227,0.84544,0.00526,0.87050,0.87050,"[5.00000,0.00000,0.00000]","[1.30000,0.00000,0.00000]",-0.05808,-0.01591,-0.04347,0.00000,0.00000,0.00766,-0.01969,0.11096,0.00976,1.01333,0.83804,0.03663,0.87328,1.99406,1.98481,-0.19470,0.66046,0.76508,-0.38534,0.85249,1.99944,1.99944,57.78144,12.77351,57.78144244,12.77351222,A,130504.40,"[-0.20000,-0.00000,-0.00000]","[-0.10000,-0.00000,-0.00000]",1.14794,0.00000,0.00000,0.00000,0.00000,0.00000
17:39:19.150916,0.85613,0.00539,0.87050,0.87050,"[5.00000,0.00000,0.00000]","[1.30000,0.00000,0.00000]",-0.05799,-0.01344,-0.03141,0.00000,0.00000,0.00140,-0.01206,0.01177,-0.00732,1.00125,0.84827,0.01709,0.87273,1.99595,1.98814,-0.20706,0.67649,0.76508,-0.38534,0.85249,1.99944,1.99944,57.78144,12.77351,57.78144258,12.77351201,A,130504.40,"[-0.20000,-0.00000,-0.00000]","[-0.10000,-0.00000,-0.00000]",1.15711,0.00000,0.00000,0.00000,0.00000,0.00000
17:39:19.212476,0.91766,0.05651,0.87050,1.50000,"[5.00000,0.00000,0.00000]","[1.30000,0.00000,0.00000]",-0.05798,-0.01084,-0.02087,0.00000,0.00000,-0.00089,-0.00427,0.05423,-0.01800,0.95868,0.85885,0.02442,0.87228,1.99735,1.99105,-0.21879,0.69164,0.87786,-0.43475,0.98222,1.93466,1.93466,57.78145,12.77351,57.78144272,12.77351181,A,130504.50,"[-0.20000,-0.00000,-0.00000]","[-0.10000,-0.00000,-0.00000]",1.16613,0.00000,0.00000,0.00000,0.00000,0.00000
17:39:19.230335,0.93555,0.00746,1.37853,1.37853,"[5.00000,0.00000,0.00000]","[1.30000,0.00000,0.00000]",-0.05846,0.00815,-0.00575,0.00000,0.00000,0.00491,0.01543,0.06259,-0.03867,1.02266,0.92783,0.02686,0.97353,1.98677,1.99151,-0.25232,0.75703,0.87786,-0.43475,0.98222,1.93466,1.93466,57.78145,12.77351,57.78144331,12.77351124,A,130504.50,"[-0.20000,-0.00000,-0.00000]","[-0.10000,-0.00000,-0.00000]",1.26651,0.00000,0.00000,0.00000,0.00000,0.00000
17:39:19.238712,0.94392,0.00549,1.37853,1.37853,"[5.00000,0.00000,0.00000]","[1.30000,0.00000,0.00000]",-0.05852,0.01047,0.00112,0.00000,0.00000,0.00171,0.01940,0.08119,-0.03819,1.01949,0.93612,0.02686,1.05453,1.97807,1.98416,-0.26379,0.77354,0.87786,-0.43475,0.98222,1.93466,1.93466,57.78145,12.77351,57.78144346,12.77351105,A,130504.50,"[-0.20000,-0.00000,-0.00000]","[-0.10000,-0.00000,-0.00000]",1.28072,0.00000,0.00000,0.00000,0.00000,0.00000
17:39:19.248718,0.95393,0.00509,1.37853,1.37853,"[5.00000,0.00000,0.00000]","[1.30000,0.00000,0.00000]",-0.05849,0.01322,-0.00285,0.00000,0.00000,-0.00868,0.01574,0.07930,-0.02727,0.98399,0.94655,0.02442,1.11933,1.97048,1.97816,-0.27567,0.79158,0.87786,-0.43475,0.98222,1.93466,1.93466,57.78145,12.77351,57.78144362,12.77351085,A,130504.50,"[-0.20000,-0.00000,-0.00000]","[-0.10000,-0.00000,-0.00000]",1.29502,0.00000,0.00000,0.00000,0.00000,0.00000
17:39:19.259033,0.96425,0.00517,1.37853,1.37853,"[5.00000,0.00000,0.00000]","[1.30000,0.00000,0.00000]",-0.05911,0.01574,0.00189,0.00000,0.00000,-0.01387,0.01696,0.07771,-0.07357,0.99473,0.95659,0.03175,1.17117,1.96382,1.97297,-0.28712,0.80921,0.87786,-0.43475,0.98222,1.93466,1.93466,57.78145,12.77351,57.78144378,12.77351066,A,130504.50,"[-0.20000,-0.00000,-0.00000]","[-0.10000,-0.00000,-0.00000]",1.30908,0.00000,0.00000,0.00000,0.00000,0.00000
17:39:19.269601,0.97481,0.00533,1.37853,1.37853,"[5.00000,0.00000,0.00000]","[1.30000,0.00000,0.00000]",-0.05921,0.01809,0.00066,0.00000,0.00000,-0.00944,0.01513,0.04441,-0.03745,0.97472,0.96718,0.03907,1.21264,1.95799,1.96850,-0.29823,0.82664,0.87786,-0.43475,0.98222,1.93466,1.93466,57.78145,12.77351,57.78144393,12.77351047,A,130504.50,"[-0.20000,-0.00000,-0.00000]","[-0.10000,-0.00000,-0.00000]",1.32337,0.00000,0.00000,0.00000,0.00000,0.00000
17:39:19.325622,1.03082,0.05095,1.37853,1.50000,"[5.00000,0.00000,0.00000]","[1.30000,0.00000,0.00000]",-0.05976,0.02018,0.00387,0.00000,0.00000,-0.00959,0.01513,0.06094,-0.06924,0.97820,0.97735,0.02930,1.24582,1.95287,1.96460,-0.30894,0.84367,0.99632,-0.49403,1.13048,1.95118,1.95118,57.78145,12.77351,57.78144409,12.77351029,A,130504.60,"[-0.20000,-0.00000,-0.00000]","[-0.10000,-0.00000,-0.00000]",1.33765,0.00000,0.00000,0.00000,0.00000,0.00000
17:39:19.346344,1.05155,0.00678,1.37853,1.37853,"[5.00000,0.00000,0.00000]","[1.30000,0.00000,0.00000]",-0.05974,0.02912,-0.00361,0.00000,0.00000,0.00125,0.02475,0.00781,-0.01318,0.96343,1.04382,0.01954,1.27236,1.95127,1.96821,-0.34745,0.92842,0.99632,-0.49403,1.13048,1.95118,1.95118,57.78145,12.77351,57.78144485,12.77350964,A,130504.60,"[-0.20000,-0.00000,-0.00000]","[-0.10000,-0.00000,-0.00000]",1.43496,0.00000,0.00000,0.00000,0.00000,0.00000
17:39:19.354985,1.06020,0.00520,1.37853,1.37853,"[5.00000,0.00000,0.00000]","[1.30000,0.00000,0.00000]",-0.05947,0.02963,-0.00102,0.00000,0.00000,0.00491,0.02444,0.04544,-0.01092,0.93129,1.05254,0.04151,1.29359,1.94886,1.96609,-0.35788,0.94590,0.99632,-0.49403,1.13048,1.95118,1.95118,57.78145,12.77351,57.78144501,12.77350946,A,130504.60,"[-0.20000,-0.00000,-0.00000]","[-0.10000,-0.00000,-0.00000]",1.44902,0.00000,0.00000,0.00000,0.00000,0.00000
17:39:19.365618,1.07082,0.00542,1.37853,1.37853,"[5.00000,0.00000,0.00000]","[1.30000,0.00000,0.00000]",-0.05956,0.03023,0.00738,0.00000,0.00000,-0.00486,0.02902,-0.00372,-0.03928,0.96892,1.06313,0.03419,1.31058,1.94681,1.96439,-0.36875,0.96486,0.99632,-0.49403,1.13048,1.95118,1.95118,57.78145,12.77351,57.78144518,12.77350928,A,130504.60,"[-0.20000,-0.00000,-0.00000]","[-0.10000,-0.00000,-0.00000]",1.46331,0.00000,0.00000,0.00000,0.00000,0.00000
17:39:19.375884,1.08110,0.00530,1.37853,1.37853,"[5.00000,0.00000,0.00000]","[1.30000,0.00000,0.00000]",-0.05929,0.03088,-0.00117,0.00000,0.00000,-0.00135,0.02719,0.03928,-0.01110,0.98411,1.07369,0.03907,1.32417,1.94503,1.96299,-0.37922,0.98327,0.99632,-0.49403,1.13048,1.95118,1.95118,57.78145,12.77351,57.78144534,12.77350910,A,130504.60,"[-0.20000,-0.00000,-0.00000]","[-0.10000,-0.00000,-0.00000]",1.47760,0.00000,0.00000,0.00000,0.00000,0.00000
17:39:19.386365,1.09158,0.00537,1.37853,1.37853,"[5.00000,0.00000,0.00000]","[1.30000,0.00000,0.00000]",-0.06002,0.03164,0.00525,0.00000,0.00000,0.00049,0.03437,0.05887,-0.07851,0.95831,1.08392,0.02930,1.33504,1.94345,1.96185,-0.38903,1.00046,0.99632,-0.49403,1.13048,1.95118,1.95118,57.78145,12.77351,57.78144550,12.77350894,A,130504.60,"[-0.20000,-0.00000,-0.00000]","[-0.10000,-0.00000,-0.00000]",1.49188,0.00000,0.00000,0.00000,0.00000,0.00000
17:39:19.447792,1.15299,0.05638,1.37853,1.50000,"[5.00000,0.00000,0.00000]","[1.30000,0.00000,0.00000]",-0.06069,0.03249,0.00357,0.00000,0.00000,-0.00150,0.03834,0.07314,-0.07820,1.00382,1.09424,0.02930,1.34374,1.94203,1.96093,-0.39829,1.01670,1.11298,-0.54343,1.27874,1.89244,1.89244,57.78145,12.77351,57.78144564,12.77350878,A,130504.70,"[-0.20000,-0.00000,-0.00000]","[-0.10000,-0.00000,-0.00000]",1.50618,0.00000,0.00000,0.00000,0.00000,0.00000
17:39:19.470334,1.17555,0.00937,1.37853,1.37853,"[5.00000,0.00000,0.00000]","[1.30000,0.00000,0.00000]",-0.06104,0.03736,0.00891,0.00000,0.00000,0.00049,0.02979,0.10102,-0.08936,0.93074,1.16780,0.03663,1.35070,1.93365,1.95539,-0.44042,1.11460,1.11298,-0.54343,1.27874,1.89244,1.89244,57.78145,12.77351,57.78144652,12.77350807,A,130504.70,"[-0.20000,-0.00000,-0.00000]","[-0.10000,-0.00000,-0.00000]",1.61050,0.00000,0.00000,0.00000,0.00000,0.00000
17:39:19.477482,1.18268,0.00563,1.37853,1.37853,"[5.00000,0.00000,0.00000]","[1.30000,0.00000,0.00000]",-0.06244,0.03764,0.00036,0.00000,0.00000,-0.00165,0.02307,0.08095,-0.12401,0.99302,1.17488,0.02442,1.35626,1.92437,1.94627,-0.44797,1.12873,1.11298,-0.54343,1.27874,1.89244,1.89244,57.78145,12.77351,57.78144665,12.77350794,A,130504.70,"[-0.20000,-0.00000,-0.00000]","[-0.10000,-0.00000,-0.00000]",1.62545,0.00000,0.00000,0.00000,0.00000,0.00000
17:39:19.487241,1.19246,0.00519,1.37853,1.37853,"[5.00000,0.00000,0.00000]","[1.30000,0.00000,0.00000]",-0.06324,0.03795,-0.00453,0.00000,0.00000,-0.00165,0.01971,0.03904,-0.08064,0.98064,1.18482,0.02686,1.36071,1.91658,1.93865,-0.45652,1.14583,1.11298,-0.54343,1.27874,1.89244,1.89244,57.78145,12.77351,57.78144680,12.77350780,A,130504.70,"[-0.20000,-0.00000,-0.00000]","[-0.10000,-0.00000,-0.00000]",1.63950,0.00000,0.00000,0.00000,0.00000,0.00000
17:39:19.497896,1.20311,0.00543,1.37853,1.37853,"[5.00000,0.00000,0.00000]","[1.30000,0.00000,0.00000]",-0.06395,0.03810,-0.01186,0.00000,0.00000,0.00293,0.01971,0.04087,-0.07094,0.98594,1.19548,0.02930,1.36428,1.90996,1.93212,-0.46489,1.16292,1.11298,-0.54343,1.27874,1.89244,1.89244,57.78145,12.77351,57.78144696,12.77350766,A,130504.70,"[-0.20000,-0.00000,-0.00000]","[-0.10000,-0.00000,-0.00000]",1.65380,0.00000,0.00000,0.00000,0.00000,0.00000
17:39:19.507967,1.21318,0.00510,1.37853,1.37853,"[5.00000,0.00000,0.00000]","[1.30000,0.00000,0.00000]",-0.06382,0.03810,-0.01446,0.00000,0.00000,0.00217,0.02016,0.00531,-0.01519,1.02279,1.20578,0.04884,1.36713,1.90434,1.92650,-0.47275,1.17909,1.11298,-0.54343,1.27874,1.89244,1.89244,57.78145,12.77351,57.78144710,12.77350753,A,130504.70,"[-0.20000,-0.00000,-0.00000]","[-0.10000,-0.00000,-0.00000]",1.66809,0.00000,0.00000,0.00000,0.00000,0.00000
17:39:19.568344,1.27353,0.05488,1.37853,1.50000,"[5.00000,0.00000,0.00000]","[1.30000,0.00000,0.00000]",-0.06350,0.03810,-0.01232,0.00000,0.00000,0.01133,0.02062,0.03953,-0.00372,1.00253,1.21619,0.02930,1.36941,1.89956,1.92172,-0.48019,1.19460,1.23520,-0.59284,1.42700,1.89244,1.89244,57.78145,12.77351,57.78144724,12.77350740,A,130504.80,"[-0.20000,-0.00000,-0.00000]","[-0.10000,-0.00000,-0.00000]",1.68238,0.00000,0.00000,0.00000,0.00000,0.00000
17:39:19.591141,1.29636,0.00925,1.37853,1.37853,"[5.00000,0.00000,0.00000]","[1.30000,0.00000,0.00000]",-0.06539,0.03810,-0.01369,0.00000,0.00000,-0.00333,0.02994,0.02727,-0.09101,0.97325,1.28860,0.03907,1.37123,1.89789,1.92005,-0.51729,1.29217,1.23520,-0.59284,1.42700,1.89244,1.89244,57.78145,12.77351,57.78144812,12.77350677,A,130504.80,"[-0.20000,-0.00000,-0.00000]","[-0.10000,-0.00000,-0.00000]",1.78502,0.00000,0.00000,0.00000,0.00000,0.00000
17:39:19.597699,1.30291,0.00536,1.37853,1.37853,"[5.00000,0.00000,0.00000]","[1.30000,0.00000,0.00000]",-0.06580,0.03810,-0.01308,0.00000,0.00000,-0.00104,0.02765,-0.00500,-0.05630,0.99149,1.29528,0.02198,1.37269,1.89392,1.91608,-0.52310,1.30452,1.23520,-0.59284,1.42700,1.89244,1.89244,57.78145,12.77351,57.78144823,12.77350668,A,130504.80,"[-0.20000,-0.00000,-0.00000]","[-0.10000,-0.00000,-0.00000]",1.79939,0.00000,0.00000,0.00000,0.00000,0.00000
17:39:19.607824,1.31304,0.00509,1.37853,1.37853,"[5.00000,0.00000,0.00000]","[1.30000,0.00000,0.00000]",-0.06625,0.03810,-0.01415,0.00000,0.00000,-0.00242,0.02765,0.03373,-0.05606,1.00601,1.30544,0.02442,1.37386,1.89071,1.91287,-0.53040,1.32123,1.23520,-0.59284,1.42700,1.89244,1.89244,57.78145,12.77351,57.78144838,12.77350655,A,130504.80,"[-0.20000,-0.00000,-0.00000]","[-0.10000,-0.00000,-0.00000]",1.81368,0.00000,0.00000,0.00000,0.00000,0.00000
17:39:19.618771,1.32398,0.00521,1.75224,1.75224,"[5.00000,0.00000,0.00000]","[1.30000,0.00000,0.00000]",-0.06758,0.03810,-0.01491,0.00000,0.00000,0.00339,0.02643,0.04087,-0.10437,0.94867,1.31629,0.01465,1.44953,1.88799,1.91015,-0.53741,1.33745,1.23520,-0.59284,1.42700,1.89244,1.89244,57.78145,12.77351,57.78144853,12.77350643,A,130504.80,"[-0.20000,-0.00000,-0.00000]","[-0.10000,-0.00000,-0.00000]",1.82855,0.00000,0.00000,0.00000,0.00000,0.00000
17:39:19.629050,1.33427,0.00510,1.75224,1.75224,"[5.00000,0.00000,0.00000]","[1.30000,0.00000,0.00000]",-0.06819,0.03810,-0.01949,0.00000,0.00000,0.00598,0.02841,-0.01665,-0.06076,1.00888,1.32689,0.02686,1.51007,1.88568,1.90784,-0.54411,1.35304,1.23520,-0.59284,1.42700,1.89244,1.89244,57.78145,12.77351,57.78144867,12.77350632,A,130504.80,"[-0.20000,-0.00000,-0.00000]","[-0.10000,-0.00000,-0.00000]",1.84671,0.00000,0.00000,0.00000,0.00000,0.00000
17:39:19.699306,1.40404,0.06447,1.75224,1.50000,"[5.00000,0.00000,0.00000]","[1.30000,0.00000,0.00000]",-0.06904,0.03810,-0.02179,0.00000,0.00000,0.00873,0.02643,0.03538,-0.07619,0.99894,1.33706,0.03419,1.55851,1.88373,1.90589,-0.55054,1.36815,1.36727,-0.72128,1.74205,1.95793,1.95793,57.78145,12.77350,57.78144880,12.77350621,A,130505.00,"[-0.20000,-0.00000,-0.00000]","[-0.10000,-0.00000,-0.00000]",1.86487,0.00000,0.00000,0.00000,0.00000,0.00000
17:39:19.718699,1.42392,0.00765,1.75224,1.75224,"[5.00000,0.00000,0.00000]","[1.30000,0.00000,0.00000]",-0.06969,0.03810,-0.00789,0.00000,0.00000,0.00812,0.03284,0.02147,-0.03825,1.02645,1.41613,0.02198,1.59725,1.89491,1.91707,-0.59650,1.49429,1.36727,-0.72128,1.74205,1.95793,1.95793,57.78145,12.77350,57.78144994,12.77350544,A,130505.00,"[-0.20000,-0.00000,-0.00000]","[-0.10000,-0.00000,-0.00000]",1.97987,0.00000,0.00000,0.00000,0.00000,0.00000
17:39:19.726781,1.43200,0.00520,1.75224,1.75224,"[5.00000,0.00000,0.00000]","[1.30000,0.00000,0.00000]",-0.07044,0.03810,-0.00285,0.00000,0.00000,0.00950,0.03696,0.06374,-0.08491,1.00998,1.42431,0.02198,1.62825,1.90131,1.92347,-0.60586,1.51533,1.36727,-0.72128,1.74205,1.95793,1.95793,57.78145,12.77350,57.78145013,12.77350528,A,130505.00,"[-0.20000,-0.00000,-0.00000]","[-0.10000,-0.00000,-0.00000]",1.99826,0.00000,0.00000,0.00000,0.00000,0.00000
17:39:19.737564,1.44277,0.00551,1.75224,1.75224,"[5.00000,0.00000,0.00000]","[1.30000,0.00000,0.00000]",-0.07124,0.03810,-0.00544,0.00000,0.00000,0.01423,0.03483,0.05020,-0.08632,1.00034,1.43512,0.03419,1.65305,1.90688,1.92904,-0.61631,1.53939,1.36727,-0.72128,1.74205,1.95793,1.95793,57.78145,12.77350,57.78145034,12.77350510,A,130505.00,"[-0.20000,-0.00000,-0.00000]","[-0.10000,-0.00000,-0.00000]",2.01653,0.00000,0.00000,0.00000,0.00000,0.00000
17:39:19.747482,1.45270,0.00513,1.75224,1.75224,"[5.00000,0.00000,0.00000]","[1.30000,0.00000,0.00000]",-0.07099,0.03810,0.00173,0.00000,0.00000,0.00568,0.03269,0.04813,-0.02135,0.99906,1.44506,0.03907,1.67289,1.91160,1.93375,-0.62606,1.56153,1.36727,-0.72128,1.74205,1.95793,1.95793,57.78145,12.77350,57.78145054,12.77350494,A,130505.00,"[-0.20000,-0.00000,-0.00000]","[-0.10000,-0.00000,-0.00000]",2.03454,0.00000,0.00000,0.00000,0.00000,0.00000
17:39:19.758265,1.46348,0.00551,1.75224,1.75224,"[5.00000,0.00000,0.00000]","[1.30000,0.00000,0.00000]",-0.07115,0.03821,0.00525,0.00000,0.00000,0.00125,0.03391,0.03209,-0.04795,0.95404,1.45568,0.02442,1.68876,1.91562,1.93784,-0.63568,1.58337,1.36727,-0.72128,1.74205,1.95793,1.95793,57.78145,12.77350,57.78145074,12.77350478,A,130505.00,"[-0.20000,-0.00000,-0.00000]","[-0.10000,-0.00000,-0.00000]",2.05271,0.00000,0.00000,0.00000,0.00000,0.00000
17:39:19.818088,1.52327,0.05490,1.75224,1.50000,"[5.00000,0.00000,0.00000]","[1.30000,0.00000,0.00000]",-0.07168,0.03852,0.01792,0.00000,0.00000,-0.00058,0.03391,0.00030,-0.08034,0.95660,1.46605,0.01709,1.70145,1.91900,1.94140,-0.64470,1.60362,1.48501,-0.77069,1.89031,1.89244,1.89244,57.78145,12.77350,57.78145092,12.77350463,A,130505.10,"[-0.20000,-0.00000,-0.00000]","[-0.10000,-0.00000,-0.00000]",2.07087,0.00000,0.00000,0.00000,0.00000,0.00000
17:39:19.838058,1.54327,0.00817,1.75224,1.75224,"[5.00000,0.00000,0.00000]","[1.30000,0.00000,0.00000]",-0.06903,0.04294,0.03182,0.00000,0.00000,0.00568,0.03987,-0.00677,-0.00445,0.98283,1.53555,0.03175,1.71161,1.91455,1.93953,-0.69066,1.72003,1.48501,-0.77069,1.89031,1.89244,1.89244,57.78145,12.77350,57.78145197,12.77350385,A,130505.10,"[-0.20000,-0.00000,-0.00000]","[-0.10000,-0.00000,-0.00000]",2.17093,0.00000,0.00000,0.00000,0.00000,0.00000
17:39:19.845468,1.55043,0.00526,1.75224,1.75224,"[5.00000,0.00000,0.00000]","[1.30000,0.00000,0.00000]",-0.06808,0.04344,0.04052,0.00000,0.00000,0.00278,0.04246,0.08827,0.01006,0.98369,1.54304,0.02198,1.71974,1.90774,1.93301,-0.69784,1.73678,1.48501,-0.77069,1.89031,1.89244,1.89244,57.78145,12.77350,57.78145212,12.77350373,A,130505.10,"[-0.20000,-0.00000,-0.00000]","[-0.10000,-0.00000,-0.00000]",2.18853,0.00000,0.00000,0.00000,0.00000,0.00000
17:39:19.855514,1.56073,0.00517,1.75224,1.75224,"[5.00000,0.00000,0.00000]","[1.30000,0.00000,0.00000]",-0.06799,0.04424,0.04984,0.00000,0.00000,-0.00669,0.03956,0.07186,-0.05880,0.99857,1.55306,0.03663,1.72624,1.90204,1.92777,-0.70628,1.75711,1.48501,-0.77069,1.89031,1.89244,1.89244,57.78145,12.77350,57.78145230,12.77350359,A,130505.10,"[-0.20000,-0.00000,-0.00000]","[-0.10000,-0.00000,-0.00000]",2.20669,0.00000,0.00000,0.00000,0.00000,0.00000
17:39:19.866133,1.57135,0.00538,1.75224,1.75224,"[5.00000,0.00000,0.00000]","[1.30000,0.00000,0.00000]",-0.06806,0.04503,0.05182,0.00000,0.00000,-0.01585,0.04384,0.04215,-0.07143,0.98527,1.56367,0.03907,1.73144,1.89716,1.92335,-0.71441,1.77694,1.48501,-0.77069,1.89031,1.89244,1.89244,57.78145,12.77350,57.78145248,12.77350345,A,130505.10,"[-0.20000,-0.00000,-0.00000]","[-0.10000,-0.00000,-0.00000]",2.22485,0.00000,0.00000,0.00000,0.00000,0.00000
17:39:19.876572,1.58179,0.00536,1.75224,1.75224,"[5.00000,0.00000,0.00000]","[1.30000,0.00000,0.00000]",-0.06855,0.04571,0.05305,0.00000,0.00000,-0.01830,0.04720,-0.00159,-0.10108,0.99064,1.57436,0.03175,1.73560,1.89296,1.91955,-0.72214,1.79598,1.48501,-0.77069,1.89031,1.89244,1.89244,57.78145,12.77350,57.78145265,12.77350332,A,130505.10,"[-0.20000,-0.00000,-0.00000]","[-0.10000,-0.00000,-0.00000]",2.24312,0.00000,0.00000,0.00000,0.00000,0.00000
17:39:19.938209,1.64341,0.05649,1.75224,1.50000,"[5.00000,0.00000,0.00000]","[1.30000,0.00000,0.00000]",-0.06858,0.04625,0.05350,0.00000,0.00000,-0.01738,0.05025,-0.05191,-0.07107,1.01400,1.58445,0.03175,1.73892,1.88933,1.91624,-0.72925,1.81356,1.60335,-0.83985,2.05711,1.96389,1.96389,57.78146,12.77350,57.78145281,12.77350320,A,130505.20,"[-0.20000,-0.00000,-0.00000]","[-0.10000,-0.00000,-0.00000]",2.26144,0.00000,0.00000,0.00000,0.00000,0.00000
17:39:19.951606,1.65682,0.00762,1.75224,1.75224,"[5.00000,0.00000,0.00000]","[1.30000,0.00000,0.00000]",-0.06352,0.05143,0.08206,0.00000,0.00000,-0.01830,0.05010,-0.03611,-0.03745,0.97722,1.64847,0.04396,1.74159,1.89975,1.92967,-0.76977,1.92297,1.60335,-0.83985,2.05711,1.96389,1.96389,57.78146,12.77350,57.78145379,12.77350252,A,130505.20,"[-0.20000,-0.00000,-0.00000]","[-0.10000,-0.00000,-0.00000]",2.35482,0.00000,0.00000,0.00000,0.00000,0.00000
17:39:19.959499,1.66471,0.00512,1.75224,1.75224,"[5.00000,0.00000,0.00000]","[1.30000,0.00000,0.00000]",-0.06294,0.05284,0.08954,0.00000,0.00000,-0.01845,0.05376,0.00250,-0.03465,0.94928,1.65707,0.03663,1.74372,1.90515,1.93589,-0.77671,1.93884,1.60335,-0.83985,2.05711,1.96389,1.96389,57.78146,12.77350,57.78145394,12.77350240,A,130505.20,"[-0.20000,-0.00000,-0.00000]","[-0.10000,-0.00000,-0.00000]",2.37298,0.00000,0.00000,0.00000,0.00000,0.00000
17:39:19.970190,1.67541,0.00541,1.75224,1.75224,"[5.00000,0.00000,0.00000]","[1.30000,0.00000,0.00000]",-0.06186,0.05448,0.08741,0.00000,0.00000,-0.02120,0.05483,-0.00342,-0.01311,1.00321,1.66770,0.03663,1.74542,1.90979,1.94149,-0.78497,1.95811,1.60335,-0.83985,2.05711,1.96389,1.96389,57.78146,12.77350,57.78145411,12.77350226,A,130505.20,"[-0.20000,-0.00000,-0.00000]","[-0.10000,-0.00000,-0.00000]",2.39114,0.00000,0.00000,0.00000,0.00000,0.00000
17:39:19.980241,1.68546,0.00505,1.75224,1.75224,"[5.00000,0.00000,0.00000]","[1.30000,0.00000,0.00000]",-0.06103,0.05590,0.09642,0.00000,0.00000,-0.01234,0.05376,0.03166,-0.03233,0.97935,1.67808,0.02930,1.74678,1.91361,1.94614,-0.79272,1.97591,1.60335,-0.83985,2.05711,1.96389,1.96389,57.78146,12.77350,57.78145427,12.77350213,A,130505.20,"[-0.20000,-0.00000,-0.00000]","[-0.10000,-0.00000,-0.00000]",2.40933,0.00000,0.00000,0.00000,0.00000,0.00000
17:39:19.990896,1.69612,0.00519,1.75224,1.75224,"[5.00000,0.00000,0.00000]","[1.30000,0.00000,0.00000]",-0.06070,0.05709,0.10772,0.00000,0.00000,-0.01555,0.05269,0.00043,-0.07613,1.03389,1.68843,0.04396,1.74788,1.91679,1.95001,-0.80031,1.99327,1.60335,-0.83985,2.05711,1.96389,1.96389,57.78146,12.77350,57.78145443,12.77350200,A,130505.20,"[-0.20000,-0.00000,-0.00000]","[-0.10000,-0.00000,-0.00000]",2.42770,0.00000,0.00000,0.00000,0.00000,0.00000
17:39:20.048891,1.75407,0.05275,1.75224,1.50000,"[5.00000,0.00000,0.00000]","[1.30000,0.00000,0.00000]",-0.06003,0.05799,0.10772,0.00000,0.00000,-0.01311,0.05605,-0.02599,-0.05252,1.01254,1.69903,0.03907,1.74875,1.91943,1.95317,-0.80755,2.00967,1.71786,-0.89914,2.22390,1.91230,1.91230,57.78146,12.77350,57.78145457,12.77350188,A,130505.30,"[-0.20000,-0.00000,-0.00000]","[-0.10000,-0.00000,-0.00000]",2.44586,0.00000,0.00000,0.00000,0.00000,0.00000
17:39:20.071811,1.77703,0.00834,1.62593,1.62593,"[5.00000,0.00000,0.00000]","[1.30000,0.00000,0.00000]",-0.05107,0.06043,0.12635,0.00000,0.00000,0.00369,0.07468,0.03562,-0.00750,0.95422,1.76940,0.03663,1.72418,1.91824,1.95341,-0.85478,2.12643,1.71786,-0.89914,2.22390,1.91230,1.91230,57.78146,12.77350,57.78145562,12.77350108,A,130505.30,"[-0.20000,-0.00000,-0.00000]","[-0.10000,-0.00000,-0.00000]",2.54687,0.00000,0.00000,0.00000,0.00000,0.00000
17:39:20.078804,1.78403,0.00516,1.62593,1.62593,"[5.00000,0.00000,0.00000]","[1.30000,0.00000,0.00000]",-0.05052,0.06043,0.13017,0.00000,0.00000,-0.00410,0.07163,0.04136,-0.03611,1.00497,1.77635,0.01954,1.70453,1.91246,1.94763,-0.86004,2.13885,1.71786,-0.89914,2.22390,1.91230,1.91230,57.78146,12.77350,57.78145574,12.77350099,A,130505.30,"[-0.20000,-0.00000,-0.00000]","[-0.10000,-0.00000,-0.00000]",2.56338,0.00000,0.00000,0.00000,0.00000,0.00000
17:39:20.089373,1.79435,0.00509,1.62593,1.62593,"[5.00000,0.00000,0.00000]","[1.30000,0.00000,0.00000]",-0.04858,0.06043,0.12803,0.00000,0.00000,-0.00180,0.06415,-0.01098,0.02696,1.01217,1.78699,0.04884,1.68881,1.90782,1.94298,-0.86712,2.15606,1.71786,-0.89914,2.22390,1.91230,1.91230,57.78146,12.77350,57.78145589,12.77350087,A,130505.30,"[-0.20000,-0.00000,-0.00000]","[-0.10000,-0.00000,-0.00000]",2.58023,0.00000,0.00000,0.00000,0.00000,0.00000
17:39:20.099554,1.80477,0.00511,1.62593,1.62593,"[5.00000,0.00000,0.00000]","[1.30000,0.00000,0.00000]",-0.04778,0.06043,0.12543,0.00000,0.00000,-0.00104,0.05789,0.01653,-0.03971,0.98137,1.79714,0.03663,1.67623,1.90385,1.93902,-0.87364,2.17205,1.71786,-0.89914,2.22390,1.91230,1.91230,57.78146,12.77350,57.78145603,12.77350076,A,130505.30,"[-0.20000,-0.00000,-0.00000]","[-0.10000,-0.00000,-0.00000]",2.59707,0.00000,0.00000,0.00000,0.00000,0.00000
17:39:20.110255,1.81547,0.00542,1.62593,1.62593,"[5.00000,0.00000,0.00000]","[1.30000,0.00000,0.00000]",-0.04636,0.06043,0.12864,0.00000,0.00000,-0.01402,0.05941,-0.01318,-0.00579,1.03255,1.80777,0.04151,1.66617,1.90049,1.93566,-0.87986,2.18747,1.71786,-0.89914,2.22390,1.91230,1.91230,57.78146,12.77350,57.78145617,12.77350066,A,130505.30,"[-0.20000,-0.00000,-0.00000]","[-0.10000,-0.00000,-0.00000]",2.61392,0.00000,0.00000,0.00000,0.00000,0.00000
17:39:20.169440,1.87462,0.05416,1.62593,1.50000,"[5.00000,0.00000,0.00000]","[1.30000,0.00000,0.00000]",-0.04476,0.06043,0.12497,0.00000,0.00000,-0.00623,0.05758,0.02050,0.01330,1.02395,1.81814,0.02930,1.65812,1.89761,1.93277,-0.88552,2.20158,1.83681,-0.96830,2.40922,1.92799,1.92799,57.78146,12.77350,57.78145630,12.77350056,A,130505.40,"[-0.20000,-0.00000,-0.00000]","[-0.10000,-0.00000,-0.00000]",2.63078,0.00000,0.00000,0.00000,0.00000,0.00000
17:39:20.190580,1.89579,0.00757,1.62593,1.62593,"[5.00000,0.00000,0.00000]","[1.30000,0.00000,0.00000]",-0.03732,0.06043,0.12024,0.00000,0.00000,0.01484,0.05789,0.02641,-0.05911,0.94977,1.88805,0.04151,1.65169,1.90194,1.93711,-0.92768,2.31237,1.83681,-0.96830,2.40922,1.92799,1.92799,57.78146,12.77350,57.78145730,12.77349985,A,130505.40,"[-0.20000,-0.00000,-0.00000]","[-0.10000,-0.00000,-0.00000]",2.73240,0.00000,0.00000,0.00000,0.00000,0.00000
17:39:20.199029,1.90424,0.00548,1.62593,1.62593,"[5.00000,0.00000,0.00000]","[1.30000,0.00000,0.00000]",-0.03636,0.06043,0.11612,0.00000,0.00000,0.00843,0.05789,-0.02904,0.00213,0.95703,1.89629,0.03663,1.64653,1.90103,1.93619,-0.93316,2.32621,1.83681,-0.96830,2.40922,1.92799,1.92799,57.78146,12.77350,57.78145742,12.77349976,A,130505.40,"[-0.20000,-0.00000,-0.00000]","[-0.10000,-0.00000,-0.00000]",2.74948,0.00000,0.00000,0.00000,0.00000,0.00000
17:39:20.209672,1.91488,0.00543,1.62593,1.62593,"[5.00000,0.00000,0.00000]","[1.30000,0.00000,0.00000]",-0.03492,0.06043,0.10329,0.00000,0.00000,0.00064,0.05208,0.08723,0.02373,1.00125,1.90721,0.02198,1.64241,1.90043,1.93560,-0.93974,2.34297,1.83681,-0.96830,2.40922,1.92799,1.92799,57.78146,12.77350,57.78145757,12.77349965,A,130505.40,"[-0.20000,-0.00000,-0.00000]","[-0.10000,-0.00000,-0.00000]",2.76633,0.00000,0.00000,0.00000,0.00000,0.00000
17:39:20.219700,1.92492,0.00507,1.62593,1.62593,"[5.00000,0.00000,0.00000]","[1.30000,0.00000,0.00000]",-0.03415,0.06043,0.10222,0.00000,0.00000,-0.01005,0.04964,-0.03703,-0.01311,0.99503,1.91733,0.03663,1.63912,1.89992,1.93508,-0.94593,2.35873,1.83681,-0.96830,2.40922,1.92799,1.92799,57.78146,12.77350,57.78145771,12.77349954,A,130505.40,"[-0.20000,-0.00000,-0.00000]","[-0.10000,-0.00000,-0.00000]",2.78318,0.00000,0.00000,0.00000,0.00000,0.00000
17:39:20.230500,1.93572,0.00546,1.62593,1.62593,"[5.00000,0.00000,0.00000]","[1.30000,0.00000,0.00000]",-0.03284,0.06043,0.09443,0.00000,0.00000,-0.01173,0.05101,0.04990,0.02416,0.97874,1.92802,0.02686,1.63648,1.89950,1.93466,-0.95189,2.37397,1.83681,-0.96830,2.40922,1.92799,1.92799,57.78146,12.77350,57.78145785,12.77349944,A,130505.40,"[-0.20000,-0.00000,-0.00000]","[-0.10000,-0.00000,-0.00000]",2.80003,0.00000,0.00000,0.00000,0.00000,0.00000
17:39:20.291216,1.99642,0.05577,1.62593,1.50000,"[5.00000,0.00000,0.00000]","[1.30000,0.00000,0.00000]",-0.03203,0.06043,0.08893,0.00000,0.00000,-0.01815,0.04704,-0.09058,-0.00098,1.01095,1.93836,0.01465,1.63437,1.89910,1.93427,-0.95730,2.38778,1.97313,-1.07699,2.74281,1.88576,1.88576,57.78146,12.77350,57.78145797,12.77349935,A,130505.60,"[-0.20000,-0.00000,-0.00000]","[-0.10000,-0.00000,-0.00000]",2.81688,0.00000,0.00000,0.00000,0.00000,0.00000
17:39:20.302801,2.00801,0.00561,1.62593,1.62593,"[5.00000,0.00000,0.00000]","[1.30000,0.00000,0.00000]",-0.02768,0.06043,0.06572,0.00000,0.00000,-0.00287,0.05498,0.08699,0.02788,0.94916,2.00018,0.02442,1.63268,1.89621,1.93138,-0.99644,2.49270,1.97313,-1.07699,2.74281,1.88576,1.88576,57.78146,12.77350,57.78145892,12.77349869,A,130505.60,"[-0.20000,-0.00000,-0.00000]","[-0.10000,-0.00000,-0.00000]",2.90947,0.00000,0.00000,0.00000,0.00000,0.00000
17:39:20.314825,2.02003,0.00723,1.62593,1.62593,"[5.00000,0.00000,0.00000]","[1.30000,0.00000,0.00000]",-0.02707,0.06043,0.05534,0.00000,0.00000,-0.02364,0.05330,-0.02513,0.01379,0.95428,2.01051,0.03663,1.63133,1.88997,1.92513,-1.00492,2.51702,1.97313,-1.07699,2.74281,1.88576,1.88576,57.78146,12.77350,57.78145914,12.77349855,A,130505.60,"[-0.20000,-0.00000,-0.00000]","[-0.10000,-0.00000,-0.00000]",2.92632,0.00000,0.00000,0.00000,0.00000,0.00000
17:39:20.323393,2.02861,0.00558,1.62593,1.62593,"[5.00000,0.00000,0.00000]","[1.30000,0.00000,0.00000]",-0.02595,0.06043,0.05075,0.00000,0.00000,-0.03265,0.05636,-0.01183,0.05313,1.03358,2.02057,0.05617,1.63025,1.88467,1.91983,-1.01299,2.54038,1.97313,-1.07699,2.74281,1.88576,1.88576,57.78146,12.77350,57.78145935,12.77349841,A,130505.60,"[-0.20000,-0.00000,-0.00000]","[-0.10000,-0.00000,-0.00000]",2.94291,0.00000,0.00000,0.00000,0.00000,0.00000
17:39:20.334180,2.03938,0.00595,1.62593,1.62593,"[5.00000,0.00000,0.00000]","[1.30000,0.00000,0.00000]",-0.02515,0.06043,0.04755,0.00000,0.00000,-0.02990,0.05346,-0.03538,0.03294,1.02700,2.03114,0.03419,1.62938,1.88018,1.91534,-1.02072,2.56296,1.97313,-1.07699,2.74281,1.88576,1.88576,57.78146,12.77350,57.78145955,12.77349828,A,130505.60,"[-0.20000,-0.00000,-0.00000]","[-0.10000,-0.00000,-0.00000]",2.95976,0.00000,0.00000,0.00000,0.00000,0.00000
17:39:20.344290,2.04951,0.00568,1.62593,1.62593,"[5.00000,0.00000,0.00000]","[1.30000,0.00000,0.00000]",-0.02477,0.06043,0.04526,0.00000,0.00000,-0.03418,0.04796,0.11621,0.00762,1.01858,2.04132,0.04884,1.62869,1.87637,1.91154,-1.02805,2.58454,1.97313,-1.07699,2.74281,1.88576,1.88576,57.78146,12.77350,57.78145974,12.77349816,A,130505.60,"[-0.20000,-0.00000,-0.00000]","[-0.10000,-0.00000,-0.00000]",2.97661,0.00000,0.00000,0.00000,0.00000,0.00000
17:39:20.354763,2.05998,0.00575,1.62593,1.62593,"[5.00000,0.00000,0.00000]","[1.30000,0.00000,0.00000]",-0.02504,0.06043,0.03167,0.00000,0.00000,-0.02716,0.04429,-0.41340,-0.02702,1.00375,2.05191,0.02198,1.62814,1.87312,1.90828,-1.03486,2.60474,1.97313,-1.07699,2.74281,1.88576,1.88576,57.78146,12.77350,57.78145993,12.77349804,A,130505.60,"[-0.20000,-0.00000,-0.00000]","[-0.10000,-0.00000,-0.00000]",2.99346,0.00000,0.00000,0.00000,0.00000,0.00000
17:39:20.364801,2.07001,0.00539,1.62593,1.62593,"[5.00000,0.00000,0.00000]","[1.30000,0.00000,0.00000]",-0.02680,0.06031,0.03044,0.00000,0.00000,0.01270,0.02322,-0.11560,-0.13048,1.03035,2.06224,0.01954,1.62770,1.87036,1.90545,-1.04122,2.62377,1.97313,-1.07699,2.74281,1.88576,1.88576,57.78146,12.77350,57.78146010,12.77349794,A,130505.60,"[-0.20000,-0.00000,-0.00000]","[-0.10000,-0.00000,-0.00000]",3.01030,0.00000,0.00000,0.00000,0.00000,0.00000
17:39:20.408452,2.11366,0.03874,1.62593,1.50000,"[5.00000,0.00000,0.00000]","[1.30000,0.00000,0.00000]",-0.02904,0.06014,0.00463,0.00000,0.00000,0.03195,0.01406,-0.04630,-0.13438,0.94934,2.07244,0.03663,1.62734,1.86803,1.90303,-1.04729,2.64205,2.09174,-1.14615,2.90960,1.96389,1.96389,57.78146,12.77350,57.78146026,12.77349783,A,130505.70,"[-0.20000,-0.00000,-0.00000]","[-0.10000,-0.00000,-0.00000]",3.02700,0.00000,0.00000,0.00000,0.00000,0.00000
17:39:20.420000,2.12522,0.00566,1.62593,1.62593,"[5.00000,0.00000,0.00000]","[1.30000,0.00000,0.00000]",-0.02543,0.05904,0.02403,0.00000,0.00000,0.03347,0.00657,0.02446,0.16690,0.92336,2.11716,0.05617,1.62706,1.88032,1.91468,-1.07358,2.71728,2.09174,-1.14615,2.90960,1.96389,1.96389,57.78146,12.77350,57.78146094,12.77349739,A,130505.70,"[-0.20000,-0.00000,-0.00000]","[-0.10000,-0.00000,-0.00000]",3.09391,0.00000,0.00000,0.00000,0.00000,0.00000
17:39:20.433771,2.13897,0.00902,1.62593,1.62593,"[5.00000,0.00000,0.00000]","[1.30000,0.00000,0.00000]",-0.02494,0.05825,0.03609,0.00000,0.00000,-0.02517,0.02154,0.31592,0.01903,0.93635,2.12782,0.04884,1.62683,1.88838,1.92228,-1.08171,2.73946,2.09174,-1.14615,2.90960,1.96389,1.96389,57.78146,12.77350,57.78146114,12.77349725,A,130505.70,"[-0.20000,-0.00000,-0.00000]","[-0.10000,-0.00000,-0.00000]",3.11076,0.00000,0.00000,0.00000,0.00000,0.00000
17:39:20.440502,2.14572,0.00546,1.62593,1.62593,"[5.00000,0.00000,0.00000]","[1.30000,0.00000,0.00000]",-0.02712,0.05706,0.02769,0.00000,0.00000,-0.07022,0.03620,-0.01665,-0.15787,1.03072,2.13793,0.02930,1.62665,1.89515,1.92835,-1.08811,2.75665,2.09174,-1.14615,2.90960,1.96389,1.96389,57.78146,12.77350,57.78146129,12.77349715,A,130505.70,"[-0.20000,-0.00000,-0.00000]","[-0.10000,-0.00000,-0.00000]",3.12749,0.00000,0.00000,0.00000,0.00000,0.00000
17:39:20.451184,2.15640,0.00560,1.62593,1.62593,"[5.00000,0.00000,0.00000]","[1.30000,0.00000,0.00000]",-0.02874,0.05525,0.00127,0.00000,0.00000,-0.05342,0.03864,-0.42834,-0.10803,1.07738,2.14832,0.04396,1.62651,1.90123,1.93338,-1.09568,2.77678,2.09174,-1.14615,2.90960,1.96389,1.96389,57.78146,12.77350,57.78146147,12.77349702,A,130505.70,"[-0.20000,-0.00000,-0.00000]","[-0.10000,-0.00000,-0.00000]",3.14458,0.00000,0.00000,0.00000,0.00000,0.00000
17:39:20.461741,2.16695,0.00575,1.62593,1.62593,"[5.00000,0.00000,0.00000]","[1.30000,0.00000,0.00000]",-0.02875,0.05312,-0.00987,0.00000,0.00000,0.00491,0.03223,-0.39845,0.01403,1.07634,2.15892,0.04396,1.62639,1.90656,1.93747,-1.10289,2.79578,2.09174,-1.14615,2.90960,1.96389,1.96389,57.78146,12.77350,57.78146164,12.77349690,A,130505.70,"[-0.20000,-0.00000,-0.00000]","[-0.10000,-0.00000,-0.00000]",3.16144,0.00000,0.00000,0.00000,0.00000,0.00000
17:39:20.471811,2.17702,0.00559,1.62593,1.62593,"[5.00000,0.00000,0.00000]","[1.30000,0.00000,0.00000]",-0.02722,0.05100,-0.00377,0.00000,0.00000,0.05943,0.02887,-0.16507,0.10968,0.97966,2.16899,0.02442,1.62630,1.91124,1.94091,-1.10965,2.81344,2.09174,-1.14615,2.90960,1.96389,1.96389,57.78146,12.77350,57.78146180,12.77349678,A,130505.70,"[-0.20000,-0.00000,-0.00000]","[-0.10000,-0.00000,-0.00000]",3.17801,0.00000,0.00000,0.00000,0.00000,0.00000
17:39:20.482948,2.18816,0.00633,1.62593,1.62593,"[5.00000,0.00000,0.00000]","[1.30000,0.00000,0.00000]",-0.02530,0.04874,0.01914,0.00000,0.00000,0.02965,0.02520,0.16385,0.11608,0.94282,2.18004,0.01709,1.62622,1.91544,1.94379,-1.11653,2.83129,2.09174,-1.14615,2.90960,1.96389,1.96389,57.78146,12.77350,57.78146196,12.77349667,A,130505.70,"[-0.20000,-0.00000,-0.00000]","[-0.10000,-0.00000,-0.00000]",3.19487,0.00000,0.00000,0.00000,0.00000,0.00000
17:39:20.549307,2.25392,0.06169,1.75824,1.50000,"[5.00000,0.00000,0.00000]","[1.30000,0.00000,0.00000]",-0.02516,0.04695,0.02632,0.00000,0.00000,-0.01372,0.02200,-0.00012,0.00415,0.98003,2.18993,0.02198,1.65263,1.91906,1.94638,-1.12241,2.84642,2.20860,-1.19555,3.07639,1.85876,1.85876,57.78146,12.77350,57.78146210,12.77349657,A,130505.80,"[-0.20000,-0.00000,-0.00000]","[-0.10000,-0.00000,-0.00000]",3.21172,0.00000,0.00000,0.00000,0.00000,0.00000
17:39:20.563408,2.26862,0.00768,1.75824,1.75824,"[5.00000,0.00000,0.00000]","[1.30000,0.00000,0.00000]",-0.02708,0.03487,-0.01476,0.00000,0.00000,-0.00990,-0.01618,-0.32312,-0.05740,1.06878,2.25880,0.03175,1.67375,1.91083,1.93111,-1.16471,2.95594,2.20860,-1.19555,3.07639,1.85876,1.85876,57.78146,12.77350,57.78146308,12.77349585,A,130505.80,"[-0.20000,-0.00000,-0.00000]","[-0.10000,-0.00000,-0.00000]",3.31474,0.00000,0.00000,0.00000,0.00000,0.00000
17:39:20.571593,2.27681,0.00560,1.75824,1.75824,"[5.00000,0.00000,0.00000]","[1.30000,0.00000,0.00000]",-0.02676,0.03249,-0.02896,0.00000,0.00000,0.01881,-0.01695,-0.17379,0.04636,1.01431,2.26876,0.02930,1.69065,1.90045,1.91935,-1.16974,2.97122,2.20860,-1.19555,3.07639,1.85876,1.85876,57.78146,12.77350,57.78146322,12.77349577,A,130505.80,"[-0.20000,-0.00000,-0.00000]","[-0.10000,-0.00000,-0.00000]",3.33275,0.00000,0.00000,0.00000,0.00000,0.00000
17:39:20.582155,2.28737,0.00575,1.75824,1.75824,"[5.00000,0.00000,0.00000]","[1.30000,0.00000,0.00000]",-0.02619,0.03023,-0.02453,0.00000,0.00000,0.01591,-0.00946,0.04014,0.06100,0.99802,2.27935,0.03907,1.70416,1.89191,1.90949,-1.17573,2.98941,2.20860,-1.19555,3.07639,1.85876,1.85876,57.78146,12.77350,57.78146338,12.77349567,A,130505.80,"[-0.20000,-0.00000,-0.00000]","[-0.10000,-0.00000,-0.00000]",3.35098,0.00000,0.00000,0.00000,0.00000,0.00000
17:39:20.592273,2.29749,0.00547,1.75824,1.75824,"[5.00000,0.00000,0.00000]","[1.30000,0.00000,0.00000]",-0.02512,0.02816,-0.01568,0.00000,0.00000,-0.01585,-0.00916,0.05765,0.08644,0.98216,2.28971,0.04396,1.71498,1.88481,1.90118,-1.18135,3.00691,2.20860,-1.19555,3.07639,1.85876,1.85876,57.78146,12.77350,57.78146354,12.77349557,A,130505.80,"[-0.20000,-0.00000,-0.00000]","[-0.10000,-0.00000,-0.00000]",3.36921,0.00000,0.00000,0.00000,0.00000,0.00000
17:39:20.602995,2.30821,0.00579,1.75824,1.75824,"[5.00000,0.00000,0.00000]","[1.30000,0.00000,0.00000]",-0.02614,0.02612,0.00509,0.00000,0.00000,-0.04457,-0.00641,-0.00793,-0.06576,0.99796,2.30013,0.03419,1.72363,1.87893,1.89412,-1.18664,3.02373,2.20860,-1.19555,3.07639,1.85876,1.85876,57.78146,12.77350,57.78146369,12.77349548,A,130505.80,"[-0.20000,-0.00000,-0.00000]","[-0.10000,-0.00000,-0.00000]",3.38743,0.00000,0.00000,0.00000,0.00000,0.00000
17:39:20.664049,2.36923,0.05641,1.75824,1.50000,"[5.00000,0.00000,0.00000]","[1.30000,0.00000,0.00000]",-0.02722,0.02420,-0.01155,0.00000,0.00000,-0.03174,-0.00763,-0.25608,-0.05868,0.98710,2.31052,0.02686,1.73055,1.87407,1.88814,-1.19143,3.03934,2.32952,-1.26472,3.22465,2.00729,2.00729,57.78147,12.77349,57.78146383,12.77349540,A,130505.90,"[-0.20000,-0.00000,-0.00000]","[-0.10000,-0.00000,-0.00000]",3.40566,0.00000,0.00000,0.00000,0.00000,0.00000
17:39:20.687018,2.39223,0.00822,1.75824,1.75824,"[5.00000,0.00000,0.00000]","[1.30000,0.00000,0.00000]",-0.02682,0.01769,-0.00850,0.00000,0.00000,0.02019,-0.02015,0.01714,0.06930,0.98948,2.38408,0.02686,1.73609,1.89473,1.90502,-1.23194,3.16078,2.32952,-1.26472,3.22465,2.00729,2.00729,57.78147,12.77349,57.78146493,12.77349472,A,130505.90,"[-0.20000,-0.00000,-0.00000]","[-0.10000,-0.00000,-0.00000]",3.51241,0.00000,0.00000,0.00000,0.00000,0.00000
17:39:20.694884,2.40010,0.00579,1.75824,1.75824,"[5.00000,0.00000,0.00000]","[1.30000,0.00000,0.00000]",-0.02606,0.01769,0.00005,0.00000,0.00000,0.00659,-0.01496,0.07485,0.05197,0.98021,2.39202,0.05372,1.74052,1.91021,1.92049,-1.23673,3.17305,2.32952,-1.26472,3.22465,2.00729,2.00729,57.78147,12.77349,57.78146504,12.77349464,A,130505.90,"[-0.20000,-0.00000,-0.00000]","[-0.10000,-0.00000,-0.00000]",3.53044,0.00000,0.00000,0.00000,0.00000,0.00000
17:39:20.704940,2.41016,0.00545,1.75824,1.75824,"[5.00000,0.00000,0.00000]","[1.30000,0.00000,0.00000]",-0.02491,0.01769,0.01487,0.00000,0.00000,-0.00791,-0.00534,0.05716,0.06942,0.99534,2.40240,0.03663,1.74406,1.92342,1.93370,-1.24285,3.18857,2.32952,-1.26472,3.22465,2.00729,2.00729,57.78147,12.77349,57.78146518,12.77349454,A,130505.90,"[-0.20000,-0.00000,-0.00000]","[-0.10000,-0.00000,-0.00000]",3.54866,0.00000,0.00000,0.00000,0.00000,0.00000
17:39:20.715322,2.42054,0.00558,1.75824,1.75824,"[5.00000,0.00000,0.00000]","[1.30000,0.00000,0.00000]",-0.02479,0.01769,0.02892,0.00000,0.00000,-0.01753,0.00108,0.00518,-0.00683,0.96831,2.41248,0.04151,1.74690,1.93465,1.94493,-1.24885,3.20329,2.32952,-1.26472,3.22465,2.00729,2.00729,57.78147,12.77349,57.78146531,12.77349443,A,130505.90,"[-0.20000,-0.00000,-0.00000]","[-0.10000,-0.00000,-0.00000]",3.56662,0.00000,0.00000,0.00000,0.00000,0.00000
17:39:20.783920,2.48911,0.06375,1.75824,1.50000,"[5.00000,0.00000,0.00000]","[1.30000,0.00000,0.00000]",-0.02595,0.01769,0.03197,0.00000,0.00000,-0.02181,-0.00091,-0.05533,-0.09229,0.97185,2.42306,0.04640,1.74916,1.94419,1.95448,-1.25484,3.21759,2.45434,-1.39317,3.50264,2.00364,2.00364,57.78147,12.77349,57.78146544,12.77349433,A,130506.10,"[-0.20000,-0.00000,-0.00000]","[-0.10000,-0.00000,-0.00000]",3.58484,0.00000,0.00000,0.00000,0.00000,0.00000
17:39:20.803535,2.50875,0.00889,1.75824,1.75824,"[5.00000,0.00000,0.00000]","[1.30000,0.00000,0.00000]",-0.02317,0.01769,0.03686,0.00000,0.00000,0.00033,-0.02229,0.03477,0.00043,1.06561,2.50062,0.01954,1.75098,1.95330,1.96359,-1.30892,3.34867,2.45434,-1.39317,3.50264,2.00364,2.00364,57.78147,12.77349,57.78146662,12.77349342,A,130506.10,"[-0.20000,-0.00000,-0.00000]","[-0.10000,-0.00000,-0.00000]",3.69657,0.00000,0.00000,0.00000,0.00000,0.00000
17:39:20.810519,2.51574,0.00581,1.75824,1.75824,"[5.00000,0.00000,0.00000]","[1.30000,0.00000,0.00000]",-0.02318,0.01769,0.04220,0.00000,0.00000,-0.00410,-0.01542,0.02629,-0.01580,1.07860,2.50769,0.05861,1.75243,1.95942,1.96971,-1.31630,3.36403,2.45434,-1.39317,3.50264,2.00364,2.00364,57.78147,12.77349,57.78146675,12.77349330,A,130506.10,"[-0.20000,-0.00000,-0.00000]","[-0.10000,-0.00000,-0.00000]",3.71425,0.00000,0.00000,0.00000,0.00000,0.00000
17:39:20.820586,2.52580,0.00547,1.75824,1.75824,"[5.00000,0.00000,0.00000]","[1.30000,0.00000,0.00000]",-0.02389,0.01769,0.04480,0.00000,0.00000,-0.00074,-0.01649,0.16293,-0.07582,1.05036,2.51801,0.01221,1.75359,1.96470,1.97499,-1.32552,3.38371,2.45434,-1.39317,3.50264,2.00364,2.00364,57.78147,12.77349,57.78146693,12.77349314,A,130506.10,"[-0.20000,-0.00000,-0.00000]","[-0.10000,-0.00000,-0.00000]",3.73247,0.00000,0.00000,0.00000,0.00000,0.00000
17:39:20.831245,2.53646,0.00558,1.75824,1.75824,"[5.00000,0.00000,0.00000]","[1.30000,0.00000,0.00000]",-0.02466,0.01769,0.04373,0.00000,0.00000,-0.01158,-0.01099,0.17123,-0.07314,0.96502,2.52840,0.01954,1.75452,1.96920,1.97948,-1.33455,3.40286,2.45434,-1.39317,3.50264,2.00364,2.00364,57.78147,12.77349,57.78146710,12.77349299,A,130506.10,"[-0.20000,-0.00000,-0.00000]","[-0.10000,-0.00000,-0.00000]",3.75095,0.00000,0.00000,0.00000,0.00000,0.00000
17:39:20.841815,2.54703,0.00575,1.75824,1.75824,"[5.00000,0.00000,0.00000]","[1.30000,0.00000,0.00000]",-0.02504,0.01769,0.04373,0.00000,0.00000,-0.02486,-0.00519,0.14000,-0.04892,0.96264,2.53900,0.03175,1.75526,1.97302,1.98330,-1.34316,3.42096,2.45434,-1.39317,3.50264,2.00364,2.00364,57.78147,12.77349,57.78146727,12.77349284,A,130506.10,"[-0.20000,-0.00000,-0.00000]","[-0.10000,-0.00000,-0.00000]",3.76918,0.00000,0.00000,0.00000,0.00000,0.00000
17:39:20.902582,2.60778,0.05611,1.75824,1.50000,"[5.00000,0.00000,0.00000]","[1.30000,0.00000,0.00000]",-0.02455,0.01769,0.05060,0.00000,0.00000,-0.02044,-0.00534,0.09309,0.00305,0.92275,2.54917,0.01954,1.75586,1.97626,1.98655,-1.35129,3.43790,2.56806,-1.44257,3.65090,1.89244,1.89244,57.78147,12.77349,57.78146742,12.77349271,A,130506.20,"[-0.20000,-0.00000,-0.00000]","[-0.10000,-0.00000,-0.00000]",3.78739,0.00000,0.00000,0.00000,0.00000,0.00000
17:39:20.924439,2.62965,0.00668,1.75824,1.75824,"[5.00000,0.00000,0.00000]","[1.30000,0.00000,0.00000]",-0.01807,0.01769,0.08985,0.00000,0.00000,0.00308,-0.01160,0.13676,0.00793,0.95044,2.62181,0.00977,1.75633,1.96377,1.97405,-1.40346,3.55639,2.56806,-1.44257,3.65090,1.89244,1.89244,57.78147,12.77349,57.78146848,12.77349183,A,130506.20,"[-0.20000,-0.00000,-0.00000]","[-0.10000,-0.00000,-0.00000]",3.89430,0.00000,0.00000,0.00000,0.00000,0.00000
17:39:20.934231,2.63945,0.00608,1.75824,1.75824,"[5.00000,0.00000,0.00000]","[1.30000,0.00000,0.00000]",-0.01692,0.01769,0.09458,0.00000,0.00000,0.00140,-0.00931,0.13170,0.02782,0.99485,2.63140,0.01709,1.75671,1.95170,1.96199,-1.41050,3.57304,2.56806,-1.44257,3.65090,1.89244,1.89244,57.78147,12.77349,57.78146863,12.77349171,A,130506.20,"[-0.20000,-0.00000,-0.00000]","[-0.10000,-0.00000,-0.00000]",3.91251,0.00000,0.00000,0.00000,0.00000,0.00000
17:39:20.944177,2.64939,0.00562,1.62041,1.62041,"[5.00000,0.00000,0.00000]","[1.30000,0.00000,0.00000]",-0.01639,0.01769,0.10695,0.00000,0.00000,-0.00440,-0.01023,0.21387,-0.02025,0.92714,2.64123,0.00000,1.72945,1.94146,1.95174,-1.41725,3.58939,2.56806,-1.44257,3.65090,1.89244,1.89244,57.78147,12.77349,57.78146878,12.77349159,A,130506.20,"[-0.20000,-0.00000,-0.00000]","[-0.10000,-0.00000,-0.00000]",3.93073,0.00000,0.00000,0.00000,0.00000,0.00000
17:39:20.954867,2.66008,0.00592,1.62041,1.62041,"[5.00000,0.00000,0.00000]","[1.30000,0.00000,0.00000]",-0.01564,0.01769,0.11444,0.00000,0.00000,-0.02135,-0.00152,0.51679,-0.01641,0.92793,2.65186,0.00488,1.70764,1.93276,1.94305,-1.42381,3.60569,2.56806,-1.44257,3.65090,1.89244,1.89244,57.78147,12.77349,57.78146893,12.77349148,A,130506.20,"[-0.20000,-0.00000,-0.00000]","[-0.10000,-0.00000,-0.00000]",3.94752,0.00000,0.00000,0.00000,0.00000,0.00000
17:39:21.017933,2.72313,0.05856,1.62041,1.50000,"[5.00000,0.00000,0.00000]","[1.30000,0.00000,0.00000]",-0.01378,0.01769,0.11535,0.00000,0.00000,-0.04273,0.00902,0.09662,0.05630,0.95868,2.66223,0.00977,1.69020,1.92535,1.93564,-1.42958,3.62033,2.68120,-1.51173,3.79916,2.00729,2.00729,57.78147,12.77349,57.78146906,12.77349139,A,130506.30,"[-0.20000,-0.00000,-0.00000]","[-0.10000,-0.00000,-0.00000]",3.96431,0.00000,0.00000,0.00000,0.00000,0.00000
17:39:21.040240,2.74546,0.00934,1.62041,1.62041,"[5.00000,0.00000,0.00000]","[1.30000,0.00000,0.00000]",-0.00527,0.01769,0.12039,0.00000,0.00000,-0.00348,-0.00381,0.16043,-0.01409,1.09934,2.73743,0.00244,1.67624,1.93773,1.94801,-1.47588,3.73975,2.68120,-1.51173,3.79916,2.00729,2.00729,57.78147,12.77349,57.78147013,12.77349060,A,130506.30,"[-0.20000,-0.00000,-0.00000]","[-0.10000,-0.00000,-0.00000]",4.07160,0.00000,0.00000,0.00000,0.00000,0.00000
17:39:21.047656,2.75287,0.00568,1.62041,1.62041,"[5.00000,0.00000,0.00000]","[1.30000,0.00000,0.00000]",-0.00386,0.01769,0.11856,0.00000,0.00000,0.00400,-0.00610,0.25955,0.06069,1.01217,2.74482,0.00488,1.66507,1.94674,1.95702,-1.48084,3.75072,2.68120,-1.51173,3.79916,2.00729,2.00729,57.78147,12.77349,57.78147023,12.77349052,A,130506.30,"[-0.20000,-0.00000,-0.00000]","[-0.10000,-0.00000,-0.00000]",4.08952,0.00000,0.00000,0.00000,0.00000,0.00000
17:39:21.058115,2.76333,0.00574,1.62041,1.62041,"[5.00000,0.00000,0.00000]","[1.30000,0.00000,0.00000]",-0.00166,0.01769,0.12253,0.00000,0.00000,-0.00196,-0.00228,0.26450,0.08985,1.03578,2.75529,0.00000,1.65614,1.95446,1.96475,-1.48742,3.76552,2.68120,-1.51173,3.79916,2.00729,2.00729,57.78147,12.77349,57.78147036,12.77349041,A,130506.30,"[-0.20000,-0.00000,-0.00000]","[-0.10000,-0.00000,-0.00000]",4.10631,0.00000,0.00000,0.00000,0.00000,0.00000
17:39:21.068230,2.77345,0.00546,1.62041,1.62041,"[5.00000,0.00000,0.00000]","[1.30000,0.00000,0.00000]",0.00080,0.01769,0.12940,0.00000,0.00000,-0.01662,-0.00809,0.37423,0.09876,0.95666,2.76567,0.00488,1.64900,1.96103,1.97132,-1.49385,3.77975,2.68120,-1.51173,3.79916,2.00729,2.00729,57.78147,12.77349,57.78147049,12.77349030,A,130506.30,"[-0.20000,-0.00000,-0.00000]","[-0.10000,-0.00000,-0.00000]",4.12310,0.00000,0.00000,0.00000,0.00000,0.00000
17:39:21.132155,2.83692,0.05852,1.62041,1.50000,"[5.00000,0.00000,0.00000]","[1.30000,0.00000,0.00000]",0.00216,0.01769,0.14391,0.00000,0.00000,-0.03632,0.00077,0.07899,0.01842,0.92195,2.77628,0.01465,1.64328,1.96662,1.97690,-1.50016,3.79351,2.79523,-1.57102,3.94742,1.95118,1.95118,57.78147,12.77349,57.78147062,12.77349020,A,130506.40,"[-0.20000,-0.00000,-0.00000]","[-0.10000,-0.00000,-0.00000]",4.13990,0.00000,0.00000,0.00000,0.00000,0.00000
17:39:21.152855,2.85807,0.00805,1.62041,1.62041,"[5.00000,0.00000,0.00000]","[1.30000,0.00000,0.00000]",0.01152,0.01769,0.12925,0.00000,0.00000,0.01163,-0.00839,0.14646,0.03440,1.00119,2.84942,0.00244,1.63871,1.96429,1.97458,-1.54765,3.90341,2.79523,-1.57102,3.94742,1.95118,1.95118,57.78147,12.77349,57.78147160,12.77348939,A,130506.40,"[-0.20000,-0.00000,-0.00000]","[-0.10000,-0.00000,-0.00000]",4.24730,0.00000,0.00000,0.00000,0.00000,0.00000
17:39:21.160660,2.86588,0.00557,1.62041,1.62041,"[5.00000,0.00000,0.00000]","[1.30000,0.00000,0.00000]",0.01193,0.01769,0.12757,0.00000,0.00000,0.00827,-0.00900,0.19557,-0.00494,0.93318,2.85807,0.01221,1.63505,1.96091,1.97120,-1.55253,3.91429,2.79523,-1.57102,3.94742,1.95118,1.95118,57.78147,12.77349,57.78147170,12.77348931,A,130506.40,"[-0.20000,-0.00000,-0.00000]","[-0.10000,-0.00000,-0.00000]",4.26392,0.00000,0.00000,0.00000,0.00000,0.00000
17:39:21.171208,2.87643,0.00558,1.62041,1.62041,"[5.00000,0.00000,0.00000]","[1.30000,0.00000,0.00000]",0.01388,0.01769,0.12238,0.00000,0.00000,-0.01463,-0.01038,0.32702,0.08595,0.97649,2.86837,0.00488,1.63212,1.95809,1.96838,-1.55862,3.92816,2.79523,-1.57102,3.94742,1.95118,1.95118,57.78147,12.77349,57.78147183,12.77348921,A,130506.40,"[-0.20000,-0.00000,-0.00000]","[-0.10000,-0.00000,-0.00000]",4.28095,0.00000,0.00000,0.00000,0.00000,0.00000
17:39:21.181996,2.88722,0.00578,1.62041,1.62041,"[5.00000,0.00000,0.00000]","[1.30000,0.00000,0.00000]",0.01608,0.01769,0.12635,0.00000,0.00000,-0.03158,-0.00488,0.18221,0.09705,0.97374,2.87919,0.00000,1.62978,1.95570,1.96599,-1.56452,3.94169,2.79523,-1.57102,3.94742,1.95118,1.95118,57.78147,12.77349,57.78147195,12.77348911,A,130506.40,"[-0.20000,-0.00000,-0.00000]","[-0.10000,-0.00000,-0.00000]",4.29804,0.00000,0.00000,0.00000,0.00000,0.00000
17:39:21.245379,2.95038,0.05854,1.62041,1.50000,"[5.00000,0.00000,0.00000]","[1.30000,0.00000,0.00000]",0.01671,0.01769,0.13857,0.00000,0.00000,-0.02975,-0.00152,0.15732,-0.00579,1.01376,2.88931,0.00000,1.62790,1.95366,1.96395,-1.56995,3.95422,2.90827,-1.63030,4.11421,1.91230,1.91230,57.78147,12.77349,57.78147206,12.77348902,A,130506.50,"[-0.20000,-0.00000,-0.00000]","[-0.10000,-0.00000,-0.00000]",4.31483,0.00000,0.00000,0.00000,0.00000,0.00000
17:39:21.267560,2.97277,0.00964,1.62041,1.62041,"[5.00000,0.00000,0.00000]","[1.30000,0.00000,0.00000]",0.02449,0.01769,0.10283,0.00000,0.00000,-0.00608,-0.01695,0.14689,0.05990,1.08598,2.96468,0.00244,1.62641,1.94748,1.95777,-1.61647,4.06709,2.90827,-1.63030,4.11421,1.91230,1.91230,57.78147,12.77349,57.78147308,12.77348823,A,130506.50,"[-0.20000,-0.00000,-0.00000]","[-0.10000,-0.00000,-0.00000]",4.42174,0.00000,0.00000,0.00000,0.00000,0.00000
17:39:21.274831,2.98005,0.00583,1.62041,1.62041,"[5.00000,0.00000,0.00000]","[1.30000,0.00000,0.00000]",0.02529,0.01769,0.09122,0.00000,0.00000,-0.00364,-0.01557,0.21649,0.06539,1.05469,2.97197,0.00244,1.62521,1.94077,1.95106,-1.62021,4.07693,2.90827,-1.63030,4.11421,1.91230,1.91230,57.78147,12.77349,57.78147316,12.77348817,A,130506.50,"[-0.20000,-0.00000,-0.00000]","[-0.10000,-0.00000,-0.00000]",4.43968,0.00000,0.00000,0.00000,0.00000,0.00000
17:39:21.284799,2.99001,0.00539,1.62041,1.62041,"[5.00000,0.00000,0.00000]","[1.30000,0.00000,0.00000]",0.02463,0.01769,0.10039,0.00000,0.00000,-0.00211,-0.02046,0.36643,-0.05569,0.96447,2.98223,0.00733,1.62425,1.93513,1.94542,-1.62542,4.09057,2.90827,-1.63030,4.11421,1.91230,1.91230,57.78147,12.77349,57.78147329,12.77348808,A,130506.50,"[-0.20000,-0.00000,-0.00000]","[-0.10000,-0.00000,-0.00000]",4.45648,0.00000,0.00000,0.00000,0.00000,0.00000
17:39:21.295777,3.00099,0.00606,1.62041,1.62041,"[5.00000,0.00000,0.00000]","[1.30000,0.00000,0.00000]",0.02604,0.01769,0.08160,0.00000,0.00000,-0.01738,-0.01023,-0.02928,0.09150,0.98320,2.99243,0.00244,1.62348,1.93034,1.94063,-1.63044,4.10390,2.90827,-1.63030,4.11421,1.91230,1.91230,57.78147,12.77349,57.78147341,12.77348800,A,130506.50,"[-0.20000,-0.00000,-0.00000]","[-0.10000,-0.00000,-0.00000]",4.47313,0.00000,0.00000,0.00000,0.00000,0.00000
17:39:21.360483,3.06568,0.06035,1.62041,1.50000,"[5.00000,0.00000,0.00000]","[1.30000,0.00000,0.00000]",0.02823,0.01769,0.09367,0.00000,0.00000,0.00110,-0.01297,0.11999,0.13054,0.95788,3.00303,0.00488,1.62287,1.92627,1.93655,-1.63494,4.11604,3.02185,-1.69946,4.31807,1.89789,1.89789,57.78148,12.77349,57.78147352,12.77348792,A,130506.60,"[-0.20000,-0.00000,-0.00000]","[-0.10000,-0.00000,-0.00000]",4.48991,0.00000,0.00000,0.00000,0.00000,0.00000
17:39:21.381642,3.08685,0.00967,1.84032,1.84032,"[5.00000,0.00000,0.00000]","[1.30000,0.00000,0.00000]",0.03675,0.01769,0.10207,0.00000,0.00000,0.01392,-0.03084,-0.01342,0.13615,1.04475,3.07700,0.01465,1.66636,1.92201,1.93230,-1.67827,4.23085,3.02185,-1.69946,4.31807,1.89789,1.89789,57.78148,12.77349,57.78147455,12.77348719,A,130506.60,"[-0.20000,-0.00000,-0.00000]","[-0.10000,-0.00000,-0.00000]",4.59766,0.00000,0.00000,0.00000,0.00000,0.00000
17:39:21.388327,3.09355,0.00549,1.84032,1.84032,"[5.00000,0.00000,0.00000]","[1.30000,0.00000,0.00000]",0.03772,0.01769,0.10329,0.00000,0.00000,0.01072,-0.02870,0.30518,0.07546,1.04719,3.08575,0.00244,1.70115,1.91696,1.92725,-1.68225,4.24294,3.02185,-1.69946,4.31807,1.89789,1.89789,57.78148,12.77349,57.78147466,12.77348712,A,130506.60,"[-0.20000,-0.00000,-0.00000]","[-0.10000,-0.00000,-0.00000]",4.61764,0.00000,0.00000,0.00000,0.00000,0.00000
17:39:21.399008,3.10423,0.00577,1.84032,1.84032,"[5.00000,0.00000,0.00000]","[1.30000,0.00000,0.00000]",0.03855,0.01769,0.10421,0.00000,0.00000,-0.00257,-0.01939,0.04331,0.05222,1.01986,3.09615,0.00244,1.72898,1.91275,1.92304,-1.68798,4.25976,3.02185,-1.69946,4.31807,1.89789,1.89789,57.78148,12.77349,57.78147481,12.77348703,A,130506.60,"[-0.20000,-0.00000,-0.00000]","[-0.10000,-0.00000,-0.00000]",4.63671,0.00000,0.00000,0.00000,0.00000,0.00000
17:39:21.409364,3.11433,0.00548,1.84032,1.84032,"[5.00000,0.00000,0.00000]","[1.30000,0.00000,0.00000]",0.03877,0.01769,0.10130,0.00000,0.00000,-0.00150,-0.01267,0.15531,0.01342,0.99997,3.10657,0.00488,1.75125,1.90917,1.91945,-1.69330,4.27559,3.02185,-1.69946,4.31807,1.89789,1.89789,57.78148,12.77349,57.78147495,12.77348694,A,130506.60,"[-0.20000,-0.00000,-0.00000]","[-0.10000,-0.00000,-0.00000]",4.65578,0.00000,0.00000,0.00000,0.00000,0.00000
17:39:21.472044,3.17724,0.05815,1.84032,1.50000,"[5.00000,0.00000,0.00000]","[1.30000,0.00000,0.00000]",0.03868,0.01769,0.09932,0.00000,0.00000,0.00354,-0.01603,0.04654,-0.00281,0.95569,3.11665,0.00488,1.76907,1.90612,1.91641,-1.69834,4.29075,3.13554,-1.78839,4.52193,1.98213,1.98213,57.78148,12.77349,57.78147509,12.77348685,A,130506.70,"[-0.20000,-0.00000,-0.00000]","[-0.10000,-0.00000,-0.00000]",4.67456,0.00000,0.00000,0.00000,0.00000,0.00000
17:39:21.491044,3.19626,0.00745,1.84032,1.84032,"[5.00000,0.00000,0.00000]","[1.30000,0.00000,0.00000]",0.04403,0.01378,0.09336,0.00000,0.00000,0.02110,-0.06658,0.07302,-0.01525,1.02962,3.18815,0.01465,1.78332,1.91793,1.92594,-1.74240,4.41217,3.13554,-1.78839,4.52193,1.98213,1.98213,57.78148,12.77349,57.78147618,12.77348611,A,130506.70,"[-0.20000,-0.00000,-0.00000]","[-0.10000,-0.00000,-0.00000]",4.77910,0.00000,0.00000,0.00000,0.00000,0.00000
17:39:21.499441,3.20466,0.00562,1.84032,1.84032,"[5.00000,0.00000,0.00000]","[1.30000,0.00000,0.00000]",0.04304,0.01240,0.09092,0.00000,0.00000,0.00843,-0.06765,0.40132,-0.04435,0.99875,3.19658,0.01465,1.79472,1.92659,1.93380,-1.74845,4.42775,3.13554,-1.78839,4.52193,1.98213,1.98213,57.78148,12.77349,57.78147632,12.77348601,A,130506.70,"[-0.20000,-0.00000,-0.00000]","[-0.10000,-0.00000,-0.00000]",4.79786,0.00000,0.00000,0.00000,0.00000,0.00000
17:39:21.509935,3.21515,0.00571,1.84032,1.84032,"[5.00000,0.00000,0.00000]","[1.30000,0.00000,0.00000]",0.04327,0.01039,0.08405,0.00000,0.00000,-0.01647,-0.05910,0.10199,0.02898,1.03157,3.20714,0.01465,1.80384,1.93416,1.94020,-1.75559,4.44602,3.13554,-1.78839,4.52193,1.98213,1.98213,57.78148,12.77349,57.78147648,12.77348589,A,130506.70,"[-0.20000,-0.00000,-0.00000]","[-0.10000,-0.00000,-0.00000]",4.81693,0.00000,0.00000,0.00000,0.00000,0.00000
17:39:21.520111,3.22532,0.00548,1.84032,1.84032,"[5.00000,0.00000,0.00000]","[1.30000,0.00000,0.00000]",0.04367,0.00815,0.07931,0.00000,0.00000,-0.03479,-0.05467,0.16787,0.04697,1.08592,3.21733,0.00488,1.81113,1.94076,1.94550,-1.76259,4.46366,3.13554,-1.78839,4.52193,1.98213,1.98213,57.78148,12.77349,57.78147664,12.77348577,A,130506.70,"[-0.20000,-0.00000,-0.00000]","[-0.10000,-0.00000,-0.00000]",4.83600,0.00000,0.00000,0.00000,0.00000,0.00000
17:39:21.530785,3.23601,0.00576,1.84032,1.84032,"[5.00000,0.00000,0.00000]","[1.30000,0.00000,0.00000]",0.04491,0.00552,0.07611,0.00000,0.00000,-0.02639,-0.05482,0.14780,0.09949,0.99607,3.22795,0.00244,1.81697,1.94658,1.94979,-1.76934,4.48044,3.13554,-1.78839,4.52193,1.98213,1.98213,57.78148,12.77349,57.78147679,12.77348565,A,130506.70,"[-0.20000,-0.00000,-0.00000]","[-0.10000,-0.00000,-0.00000]",4.85509,0.00000,0.00000,0.00000,0.00000,0.00000
17:39:21.600075,3.30528,0.06464,1.84032,1.50000,"[5.00000,0.00000,0.00000]","[1.30000,0.00000,0.00000]",0.04570,0.00269,0.06801,0.00000,0.00000,-0.02563,-0.06337,0.06844,0.08235,1.06604,3.23824,0.01221,1.82164,1.95174,1.95330,-1.77556,4.49576,3.26772,-1.95636,4.94817,1.94618,1.94618,57.78148,12.77348,57.78147693,12.77348555,A,130506.90,"[-0.20000,-0.00000,-0.00000]","[-0.10000,-0.00000,-0.00000]",4.87416,0.00000,0.00000,0.00000,0.00000,0.00000
17:39:21.622871,3.32809,0.00947,1.84032,1.84032,"[5.00000,0.00000,0.00000]","[1.30000,0.00000,0.00000]",0.04642,-0.01228,0.02357,0.00000,0.00000,-0.01677,-0.11881,0.25949,-0.01159,1.00479,3.31991,0.01465,1.82538,1.95226,1.94512,-1.83624,4.64673,3.26772,-1.95636,4.94817,1.94618,1.94618,57.78148,12.77348,57.78147829,12.77348453,A,130506.90,"[-0.20000,-0.00000,-0.00000]","[-0.10000,-0.00000,-0.00000]",4.99108,0.00000,0.00000,0.00000,0.00000,0.00000
17:39:21.630321,3.33554,0.00627,1.84032,1.84032,"[5.00000,0.00000,0.00000]","[1.30000,0.00000,0.00000]",0.04589,-0.01319,0.01395,0.00000,0.00000,-0.01921,-0.11560,0.18050,0.02696,1.06567,3.32748,0.00488,1.82837,1.95241,1.94474,-1.84571,4.67061,3.26772,-1.95636,4.94817,1.94618,1.94618,57.78148,12.77348,57.78147850,12.77348437,A,130506.90,"[-0.20000,-0.00000,-0.00000]","[-0.10000,-0.00000,-0.00000]",5.01065,0.00000,0.00000,0.00000,0.00000,0.00000
17:39:21.639953,3.34517,0.00550,2.47489,2.47489,"[5.00000,0.00000,0.00000]","[1.30000,0.00000,0.00000]",0.04456,-0.01472,0.00402,0.00000,0.00000,-0.01188,-0.11407,0.04648,-0.02891,1.00992,3.33715,0.00733,1.95767,1.95262,1.94406,-1.85626,4.69729,3.26772,-1.95636,4.94817,1.94618,1.94618,57.78148,12.77348,57.78147874,12.77348419,A,130506.90,"[-0.20000,-0.00000,-0.00000]","[-0.10000,-0.00000,-0.00000]",5.02972,0.00000,0.00000,0.00000,0.00000,0.00000
17:39:21.650828,3.35604,0.00598,2.47489,2.47489,"[5.00000,0.00000,0.00000]","[1.30000,0.00000,0.00000]",0.04394,-0.01709,-0.02683,0.00000,0.00000,-0.01769,-0.12140,0.16806,0.03959,1.03084,3.34779,0.00733,2.06112,1.95296,1.94302,-1.86714,4.72483,3.26772,-1.95636,4.94817,1.94618,1.94618,57.78148,12.77348,57.78147899,12.77348400,A,130506.90,"[-0.20000,-0.00000,-0.00000]","[-0.10000,-0.00000,-0.00000]",5.05538,0.00000,0.00000,0.00000,0.00000,0.00000
17:39:21.660716,3.36593,0.00547,2.47489,2.47489,"[5.00000,0.00000,0.00000]","[1.30000,0.00000,0.00000]",0.04265,-0.02004,-0.02255,0.00000,0.00000,-0.01769,-0.12721,0.14921,-0.01226,0.94782,3.35816,0.01221,2.14387,1.95348,1.94183,-1.87740,4.75086,3.26772,-1.95636,4.94817,1.94618,1.94618,57.78148,12.77348,57.78147923,12.77348383,A,130506.90,"[-0.20000,-0.00000,-0.00000]","[-0.10000,-0.00000,-0.00000]",5.08103,0.00000,0.00000,0.00000,0.00000,0.00000
17:39:21.721871,3.42706,0.05613,2.47489,1.50000,"[5.00000,0.00000,0.00000]","[1.30000,0.00000,0.00000]",0.04315,-0.02346,-0.03584,0.00000,0.00000,-0.02486,-0.12934,0.29896,0.10705,0.94812,3.36844,0.00488,2.21007,1.95416,1.94051,-1.88765,4.77692,3.38770,-2.05517,5.18910,1.95999,1.95999,57.78148,12.77348,57.78147946,12.77348366,A,130507.00,"[-0.20000,-0.00000,-0.00000]","[-0.10000,-0.00000,-0.00000]",5.10682,0.00000,0.00000,0.00000,0.00000,0.00000
17:39:21.742645,3.44786,0.00819,2.47489,2.47489,"[5.00000,0.00000,0.00000]","[1.30000,0.00000,0.00000]",0.03336,-0.04823,-0.13006,0.00000,0.00000,0.00354,-0.19547,-0.05051,-0.00177,0.97149,3.43973,0.02198,2.26304,1.95659,1.92853,-1.94850,4.93294,3.38770,-2.05517,5.18910,1.95999,1.95999,57.78148,12.77348,57.78148086,12.77348263,A,130507.00,"[-0.20000,-0.00000,-0.00000]","[-0.10000,-0.00000,-0.00000]",5.20989,0.00000,0.00000,0.00000,0.00000,0.00000
17:39:21.750548,3.45576,0.00585,2.47489,2.47489,"[5.00000,0.00000,0.00000]","[1.30000,0.00000,0.00000]",0.03250,-0.05140,-0.14289,0.00000,0.00000,0.01255,-0.20402,0.07515,0.04813,0.98722,3.44765,0.00000,2.30541,1.96112,1.93121,-1.95824,4.95752,3.38770,-2.05517,5.18910,1.95999,1.95999,57.78148,12.77348,57.78148108,12.77348247,A,130507.00,"[-0.20000,-0.00000,-0.00000]","[-0.10000,-0.00000,-0.00000]",5.23517,0.00000,0.00000,0.00000,0.00000,0.00000
17:39:21.760574,3.46579,0.00548,2.47489,2.47489,"[5.00000,0.00000,0.00000]","[1.30000,0.00000,0.00000]",0.03099,-0.05542,-0.15847,0.00000,0.00000,0.01118,-0.21105,0.20100,0.02891,0.89438,3.45800,0.00733,2.33931,1.96506,1.93281,-1.96949,4.98608,3.38770,-2.05517,5.18910,1.95999,1.95999,57.78148,12.77348,57.78148134,12.77348228,A,130507.00,"[-0.20000,-0.00000,-0.00000]","[-0.10000,-0.00000,-0.00000]",5.26082,0.00000,0.00000,0.00000,0.00000,0.00000
17:39:21.771240,3.47645,0.00560,2.47489,2.47489,"[5.00000,0.00000,0.00000]","[1.30000,0.00000,0.00000]",0.02959,-0.05944,-0.16824,0.00000,0.00000,-0.00562,-0.20906,0.18764,0.04142,0.93867,3.46837,0.00488,2.36642,1.96866,1.93407,-1.98055,5.01415,3.38770,-2.05517,5.18910,1.95999,1.95999,57.78148,12.77348,57.78148159,12.77348209,A,130507.00,"[-0.20000,-0.00000,-0.00000]","[-0.10000,-0.00000,-0.00000]",5.28682,0.00000,0.00000,0.00000,0.00000,0.00000
17:39:21.782038,3.48725,0.00600,2.47489,2.47489,"[5.00000,0.00000,0.00000]","[1.30000,0.00000,0.00000]",0.02687,-0.06314,-0.18764,0.00000,0.00000,-0.01998,-0.22204,0.04612,-0.02629,0.93147,3.47920,0.00488,2.38812,1.97196,1.93521,-1.99130,5.04134,3.38770,-2.05517,5.18910,1.95999,1.95999,57.78148,12.77348,57.78148184,12.77348191,A,130507.00,"[-0.20000,-0.00000,-0.00000]","[-0.10000,-0.00000,-0.00000]",5.31247,0.00000,0.00000,0.00000,0.00000,0.00000
17:39:21.843837,3.54830,0.05665,2.47489,1.50000,"[5.00000,0.00000,0.00000]","[1.30000,0.00000,0.00000]",0.02315,-0.06611,-0.20031,0.00000,0.00000,-0.01753,-0.23212,0.09510,-0.10028,1.01333,3.48914,0.00244,2.40547,1.97502,1.93654,-2.00111,5.06607,3.50824,-2.15397,5.44855,1.93466,1.93466,57.78149,12.77348,57.78148206,12.77348175,A,130507.10,"[-0.20000,-0.00000,-0.00000]","[-0.10000,-0.00000,-0.00000]",5.33812,0.00000,0.00000,0.00000,0.00000,0.00000
17:39:21.864917,3.57013,0.00734,2.47489,2.47489,"[5.00000,0.00000,0.00000]","[1.30000,0.00000,0.00000]",0.00449,-0.07545,-0.24964,0.00000,0.00000,0.00614,-0.23518,0.01299,-0.05801,0.93153,3.56087,0.00488,2.41936,1.96726,1.92333,-2.06639,5.23571,3.50824,-2.15397,5.44855,1.93466,1.93466,57.78149,12.77348,57.78148359,12.77348064,A,130507.10,"[-0.20000,-0.00000,-0.00000]","[-0.10000,-0.00000,-0.00000]",5.44355,0.00000,0.00000,0.00000,0.00000,0.00000
17:39:21.874174,3.57939,0.00619,2.47489,2.47489,"[5.00000,0.00000,0.00000]","[1.30000,0.00000,0.00000]",0.00479,-0.07526,-0.25223,0.00000,0.00000,0.00782,-0.20265,0.15457,0.16549,0.90201,3.57134,0.00733,2.43046,1.96796,1.92415,-2.07655,5.26205,3.50824,-2.15397,5.44855,1.93466,1.93466,57.78149,12.77348,57.78148382,12.77348047,A,130507.10,"[-0.20000,-0.00000,-0.00000]","[-0.10000,-0.00000,-0.00000]",5.46920,0.00000,0.00000,0.00000,0.00000,0.00000
17:39:21.883807,3.58902,0.00560,2.99528,2.99528,"[5.00000,0.00000,0.00000]","[1.30000,0.00000,0.00000]",0.00270,-0.07441,-0.24292,0.00000,0.00000,0.00385,-0.18005,0.14793,-0.01372,0.96295,3.58096,0.01465,2.54343,1.96840,1.92508,-2.08670,5.28839,3.50824,-2.15397,5.44855,1.93466,1.93466,57.78149,12.77348,57.78148406,12.77348030,A,130507.10,"[-0.20000,-0.00000,-0.00000]","[-0.10000,-0.00000,-0.00000]",5.49441,0.00000,0.00000,0.00000,0.00000,0.00000
17:39:21.894411,3.59963,0.00581,2.99528,2.99528,"[5.00000,0.00000,0.00000]","[1.30000,0.00000,0.00000]",0.00139,-0.07245,-0.25025,0.00000,0.00000,0.00278,-0.15897,0.04447,0.05880,0.99058,3.59156,0.01954,2.63380,1.96846,1.92629,-2.09726,5.31586,3.50824,-2.15397,5.44855,1.93466,1.93466,57.78149,12.77348,57.78148431,12.77348012,A,130507.10,"[-0.20000,-0.00000,-0.00000]","[-0.10000,-0.00000,-0.00000]",5.52544,0.00000,0.00000,0.00000,0.00000,0.00000
17:39:21.955061,3.65972,0.05550,2.99528,1.50000,"[5.00000,0.00000,0.00000]","[1.30000,0.00000,0.00000]",0.00045,-0.06937,-0.25621,0.00000,0.00000,0.01499,-0.14431,0.01714,0.07527,0.92012,3.60192,0.00488,2.70609,1.96827,1.92789,-2.10736,5.34206,3.62058,-2.26266,5.68947,1.99459,1.99459,57.78149,12.77348,57.78148454,12.77347995,A,130507.20,"[-0.20000,-0.00000,-0.00000]","[-0.10000,-0.00000,-0.00000]",5.55649,0.00000,0.00000,0.00000,0.00000,0.00000
17:39:21.975770,3.68098,0.00834,2.99528,2.99528,"[5.00000,0.00000,0.00000]","[1.30000,0.00000,0.00000]",-0.01599,-0.02734,-0.21619,0.00000,0.00000,0.02171,-0.08979,0.14103,-0.08021,0.95355,3.67291,0.00244,2.76393,1.96499,1.94909,-2.17734,5.52619,3.62058,-2.26266,5.68947,1.99459,1.99459,57.78149,12.77348,57.78148620,12.77347877,A,130507.20,"[-0.20000,-0.00000,-0.00000]","[-0.10000,-0.00000,-0.00000]",5.65910,0.00000,0.00000,0.00000,0.00000,0.00000
17:39:21.983414,3.68863,0.00582,2.99528,2.99528,"[5.00000,0.00000,0.00000]","[1.30000,0.00000,0.00000]",-0.01574,-0.02227,-0.20779,0.00000,0.00000,0.01499,-0.07681,0.13853,0.10571,0.94294,3.68054,0.00488,2.81020,1.97106,1.95811,-2.18703,5.54801,3.62058,-2.26266,5.68947,1.99459,1.99459,57.78149,12.77348,57.78148639,12.77347861,A,130507.20,"[-0.20000,-0.00000,-0.00000]","[-0.10000,-0.00000,-0.00000]",5.68950,0.00000,0.00000,0.00000,0.00000,0.00000
17:39:21.993743,3.69895,0.00574,2.99528,2.99528,"[5.00000,0.00000,0.00000]","[1.30000,0.00000,0.00000]",-0.01503,-0.01574,-0.18519,0.00000,0.00000,0.00812,-0.05283,0.19508,0.16299,0.94764,3.69093,0.01465,2.84722,1.97558,1.96643,-2.19921,5.57567,3.62058,-2.26266,5.68947,1.99459,1.99459,57.78149,12.77348,57.78148664,12.77347840,A,130507.20,"[-0.20000,-0.00000,-0.00000]","[-0.10000,-0.00000,-0.00000]",5.72054,0.00000,0.00000,0.00000,0.00000,0.00000
17:39:22.003931,3.70914,0.00553,2.99528,2.99528,"[5.00000,0.00000,0.00000]","[1.30000,0.00000,0.00000]",-0.01381,-0.00982,-0.16167,0.00000,0.00000,-0.00425,-0.03390,-0.06808,0.19410,0.99857,3.70111,0.00733,2.87683,1.97901,1.97330,-2.21117,5.60240,3.62058,-2.26266,5.68947,1.99459,1.99459,57.78149,12.77348,57.78148688,12.77347820,A,130507.20,"[-0.20000,-0.00000,-0.00000]","[-0.10000,-0.00000,-0.00000]",5.75158,0.00000,0.00000,0.00000,0.00000,0.00000
17:39:22.014672,3.71989,0.00581,2.99528,2.99528,"[5.00000,0.00000,0.00000]","[1.30000,0.00000,0.00000]",-0.01524,-0.00416,-0.12548,0.00000,0.00000,-0.00287,-0.01939,0.13341,-0.00030,0.90146,3.71178,0.00977,2.90052,1.98153,1.97911,-2.22302,5.62855,3.62058,-2.26266,5.68947,1.99459,1.99459,57.78149,12.77348,57.78148712,12.77347800,A,130507.20,"[-0.20000,-0.00000,-0.00000]","[-0.10000,-0.00000,-0.00000]",5.78282,0.00000,0.00000,0.00000,0.00000,0.00000
17:39:22.060331,3.76554,0.04106,2.99528,1.50000,"[5.00000,0.00000,0.00000]","[1.30000,0.00000,0.00000]",-0.01679,0.00082,-0.11647,0.00000,0.00000,-0.00654,-0.01175,-0.03843,-0.01324,0.94843,3.72217,0.00488,2.91947,1.98334,1.98382,-2.23410,5.65261,3.74083,-2.39111,5.94893,2.03049,2.03049,57.78149,12.77348,57.78148734,12.77347782,A,130507.30,"[-0.20000,-0.00000,-0.00000]","[-0.10000,-0.00000,-0.00000]",5.81386,0.00000,0.00000,0.00000,0.00000,0.00000
17:39:22.074097,3.77931,0.00593,2.99528,2.99528,"[5.00000,0.00000,0.00000]","[1.30000,0.00000,0.00000]",-0.02032,0.02126,-0.09265,0.00000,0.00000,-0.01387,0.03651,0.05716,0.08699,1.00089,3.77124,0.01465,2.93463,1.98864,2.00100,-2.29462,5.78761,3.74083,-2.39111,5.94893,2.03049,2.03049,57.78149,12.77348,57.78148855,12.77347679,A,130507.30,"[-0.20000,-0.00000,-0.00000]","[-0.10000,-0.00000,-0.00000]",5.88718,0.00000,0.00000,0.00000,0.00000,0.00000
17:39:22.084117,3.78933,0.00551,2.99528,2.99528,"[5.00000,0.00000,0.00000]","[1.30000,0.00000,0.00000]",-0.02148,0.02502,-0.07768,0.00000,0.00000,-0.01753,0.04750,0.00171,-0.00281,1.00125,3.78133,0.01465,2.94676,1.99313,2.00768,-2.30935,5.81728,3.74083,-2.39111,5.94893,2.03049,2.03049,57.78149,12.77348,57.78148882,12.77347655,A,130507.30,"[-0.20000,-0.00000,-0.00000]","[-0.10000,-0.00000,-0.00000]",5.91838,0.00000,0.00000,0.00000,0.00000,0.00000
17:39:22.094830,3.80005,0.00582,2.99528,2.99528,"[5.00000,0.00000,0.00000]","[1.30000,0.00000,0.00000]",-0.02083,0.02859,-0.06485,0.00000,0.00000,-0.01295,0.05101,-0.16842,0.11657,1.03578,3.79197,0.01954,2.95647,1.99671,2.01334,-2.32372,5.84587,3.74083,-2.39111,5.94893,2.03049,2.03049,57.78149,12.77348,57.78148907,12.77347630,A,130507.30,"[-0.20000,-0.00000,-0.00000]","[-0.10000,-0.00000,-0.00000]",5.94942,0.00000,0.00000,0.00000,0.00000,0.00000
17:39:22.104947,3.81016,0.00554,2.99528,2.99528,"[5.00000,0.00000,0.00000]","[1.30000,0.00000,0.00000]",-0.02208,0.03161,-0.05630,0.00000,0.00000,0.00385,0.05804,0.04416,-0.01769,1.00607,3.80237,0.01954,2.96423,1.99954,2.01793,-2.33715,5.87226,3.74083,-2.39111,5.94893,2.03049,2.03049,57.78149,12.77348,57.78148931,12.77347608,A,130507.30,"[-0.20000,-0.00000,-0.00000]","[-0.10000,-0.00000,-0.00000]",5.98046,0.00000,0.00000,0.00000,0.00000,0.00000
17:39:22.115836,3.82105,0.00570,2.99528,2.99528,"[5.00000,0.00000,0.00000]","[1.30000,0.00000,0.00000]",-0.02214,0.03436,-0.06195,0.00000,0.00000,-0.00318,0.06231,-0.01812,0.06856,1.03432,3.81299,0.00977,2.97044,2.00180,2.02179,-2.35064,5.89860,3.74083,-2.39111,5.94893,2.03049,2.03049,57.78149,12.77348,57.78148955,12.77347585,A,130507.30,"[-0.20000,-0.00000,-0.00000]","[-0.10000,-0.00000,-0.00000]",6.01248,0.00000,0.00000,0.00000,0.00000,0.00000
17:39:22.126305,3.83151,0.00576,2.99528,2.99528,"[5.00000,0.00000,0.00000]","[1.30000,0.00000,0.00000]",-0.02439,0.03662,-0.05034,0.00000,0.00000,0.00461,0.05636,0.03019,-0.07808,0.93171,3.82347,0.03175,2.97541,2.00355,2.02485,-2.36307,5.92261,3.74083,-2.39111,5.94893,2.03049,2.03049,57.78149,12.77348,57.78148976,12.77347564,A,130507.30,"[-0.20000,-0.00000,-0.00000]","[-0.10000,-0.00000,-0.00000]",6.04354,0.00000,0.00000,0.00000,0.00000,0.00000
17:39:22.184150,3.88935,0.05320,2.99528,1.50000,"[5.00000,0.00000,0.00000]","[1.30000,0.00000,0.00000]",-0.02390,0.03843,-0.05630,0.00000,0.00000,0.00140,0.06308,0.00616,0.10053,0.98411,3.83429,0.02198,2.97938,2.00498,2.02734,-2.37591,5.94736,3.86403,-2.59860,6.50490,1.92799,1.92799,57.78149,12.77347,57.78148999,12.77347542,A,130507.50,"[-0.20000,-0.00000,-0.00000]","[-0.10000,-0.00000,-0.00000]",6.07458,0.00000,0.00000,0.00000,0.00000,0.00000
17:39:22.195893,3.90110,0.00568,2.77213,2.77213,"[5.00000,0.00000,0.00000]","[1.30000,0.00000,0.00000]",-0.02731,0.04245,-0.05691,0.00000,0.00000,0.01591,0.06491,-0.07314,0.01915,1.12972,3.89304,0.00977,2.93793,1.99454,2.01924,-2.45797,6.11963,3.86403,-2.59860,6.50490,1.92799,1.92799,57.78149,12.77347,57.78149154,12.77347404,A,130507.50,"[-0.20000,-0.00000,-0.00000]","[-0.10000,-0.00000,-0.00000]",6.16346,0.00000,0.00000,0.00000,0.00000,0.00000
17:39:22.206538,3.91176,0.00593,2.77213,2.77213,"[5.00000,0.00000,0.00000]","[1.30000,0.00000,0.00000]",-0.02805,0.04245,-0.06180,0.00000,0.00000,0.03912,0.06247,0.06283,0.01745,1.06195,3.90355,0.00977,2.90477,1.98163,2.00633,-2.47526,6.16022,3.86403,-2.59860,6.50490,1.92799,1.92799,57.78149,12.77347,57.78149190,12.77347375,A,130507.50,"[-0.20000,-0.00000,-0.00000]","[-0.10000,-0.00000,-0.00000]",6.19218,0.00000,0.00000,0.00000,0.00000,0.00000
17:39:22.216493,3.92171,0.00549,2.77213,2.77213,"[5.00000,0.00000,0.00000]","[1.30000,0.00000,0.00000]",-0.02854,0.04245,-0.06607,0.00000,0.00000,0.02981,0.04735,0.14817,0.03575,1.00180,3.91391,0.02198,2.87824,1.97063,1.99533,-2.49100,6.19803,3.86403,-2.59860,6.50490,1.92799,1.92799,57.78149,12.77347,57.78149224,12.77347348,A,130507.50,"[-0.20000,-0.00000,-0.00000]","[-0.10000,-0.00000,-0.00000]",6.22090,0.00000,0.00000,0.00000,0.00000,0.00000
17:39:22.228095,3.93331,0.00654,2.77213,2.77213,"[5.00000,0.00000,0.00000]","[1.30000,0.00000,0.00000]",-0.02937,0.04245,-0.05951,0.00000,0.00000,0.01011,0.03544,0.10852,0.00982,0.93836,3.92430,0.01954,2.85702,1.96131,1.98601,-2.50610,6.23488,3.86403,-2.59860,6.50490,1.92799,1.92799,57.78149,12.77347,57.78149257,12.77347323,A,130507.50,"[-0.20000,-0.00000,-0.00000]","[-0.10000,-0.00000,-0.00000]",6.25007,0.00000,0.00000,0.00000,0.00000,0.00000
17:39:22.238639,3.94386,0.00614,2.77213,2.77213,"[5.00000,0.00000,0.00000]","[1.30000,0.00000,0.00000]",-0.03100,0.04245,-0.06088,0.00000,0.00000,-0.01051,0.03284,-0.02019,-0.03495,0.91744,3.93573,0.02442,2.84005,1.95337,1.97807,-2.52002,6.26946,3.86403,-2.59860,6.50490,1.92799,1.92799,57.78149,12.77347,57.78149288,12.77347299,A,130507.50,"[-0.20000,-0.00000,-0.00000]","[-0.10000,-0.00000,-0.00000]",6.28028,0.00000,0.00000,0.00000,0.00000,0.00000
17:39:22.248261,3.95347,0.00553,2.77213,2.77213,"[5.00000,0.00000,0.00000]","[1.30000,0.00000,0.00000]",-0.03295,0.04245,-0.05981,0.00000,0.00000,0.00003,0.03895,-0.00342,-0.06381,0.92970,3.94566,0.00977,2.82646,1.94656,1.97126,-2.53235,6.30070,3.86403,-2.59860,6.50490,1.92799,1.92799,57.78149,12.77347,57.78149316,12.77347278,A,130507.50,"[-0.20000,-0.00000,-0.00000]","[-0.10000,-0.00000,-0.00000]",6.30856,0.00000,0.00000,0.00000,0.00000,0.00000
17:39:22.263296,3.96849,0.01014,2.77213,2.77213,"[5.00000,0.00000,0.00000]","[1.30000,0.00000,0.00000]",-0.03295,0.04245,-0.05981,0.00000,0.00000,0.00950,0.04567,-0.12450,0.05832,0.97014,3.95605,0.00977,2.81560,1.94083,1.96553,-2.54467,6.33219,3.86403,-2.59860,6.50490,1.92799,1.92799,57.78149,12.77347,57.78149345,12.77347258,A,130507.50,"[-0.20000,-0.00000,-0.00000]","[-0.10000,-0.00000,-0.00000]",6.33730,0.00000,0.00000,0.00000,0.00000,0.00000
17:39:22.310209,4.01541,0.03940,2.77213,1.50000,"[5.00000,0.00000,0.00000]","[1.30000,0.00000,0.00000]",-0.03401,0.04245,-0.04500,0.00000,0.00000,-0.01127,0.04582,0.13524,0.00403,0.96831,3.97464,0.02442,2.80690,1.93667,1.96136,-2.56439,6.38169,3.99391,-2.69741,6.80142,1.89244,1.89244,57.78150,12.77347,57.78149389,12.77347224,A,130507.60,"[-0.20000,-0.00000,-0.00000]","[-0.10000,-0.00000,-0.00000]",6.38620,0.00000,0.00000,0.00000,0.00000,0.00000
17:39:22.321812,4.02702,0.00592,2.77213,2.77213,"[5.00000,0.00000,0.00000]","[1.30000,0.00000,0.00000]",-0.03824,0.04234,-0.08608,0.00000,0.00000,0.00354,0.02795,-0.05081,-0.01476,1.02852,4.01895,0.02442,2.79995,1.93009,1.95472,-2.61421,6.50753,3.99391,-2.69741,6.80142,1.89244,1.89244,57.78150,12.77347,57.78149502,12.77347140,A,130507.60,"[-0.20000,-0.00000,-0.00000]","[-0.10000,-0.00000,-0.00000]",6.45380,0.00000,0.00000,0.00000,0.00000,0.00000
17:39:22.334426,4.03963,0.00829,2.77213,2.77213,"[5.00000,0.00000,0.00000]","[1.30000,0.00000,0.00000]",-0.03865,0.04166,-0.07722,0.00000,0.00000,0.00430,0.00764,0.07637,0.04825,0.98076,4.03141,0.05861,2.79439,1.92174,1.94598,-2.62902,6.54859,3.99391,-2.69741,6.80142,1.89244,1.89244,57.78150,12.77347,57.78149539,12.77347115,A,130507.60,"[-0.20000,-0.00000,-0.00000]","[-0.10000,-0.00000,-0.00000]",6.48209,0.00000,0.00000,0.00000,0.00000,0.00000
17:39:22.342326,4.04753,0.00589,2.77213,2.77213,"[5.00000,0.00000,0.00000]","[1.30000,0.00000,0.00000]",-0.03985,0.04070,-0.07463,0.00000,0.00000,0.00354,-0.00351,0.08479,-0.02745,0.97118,4.03937,0.03663,2.78994,1.91433,1.93800,-2.63844,6.57647,3.99391,-2.69741,6.80142,1.89244,1.89244,57.78150,12.77347,57.78149564,12.77347099,A,130507.60,"[-0.20000,-0.00000,-0.00000]","[-0.10000,-0.00000,-0.00000]",6.51055,0.00000,0.00000,0.00000,0.00000,0.00000
17:39:22.352307,4.05752,0.00549,2.77213,2.77213,"[5.00000,0.00000,0.00000]","[1.30000,0.00000,0.00000]",-0.04114,0.03897,-0.07524,0.00000,0.00000,-0.00364,-0.00671,-0.02019,-0.02245,0.94337,4.04973,0.03419,2.78638,1.90837,1.93104,-2.64960,6.60906,3.99391,-2.69741,6.80142,1.89244,1.89244,57.78150,12.77347,57.78149594,12.77347081,A,130507.60,"[-0.20000,-0.00000,-0.00000]","[-0.10000,-0.00000,-0.00000]",6.53927,0.00000,0.00000,0.00000,0.00000,0.00000
17:39:22.363017,4.06823,0.00579,2.77213,2.77213,"[5.00000,0.00000,0.00000]","[1.30000,0.00000,0.00000]",-0.04173,0.03679,-0.08684,0.00000,0.00000,-0.00639,-0.00366,-0.09510,0.02708,0.96764,4.06015,0.03663,2.78353,1.90346,1.92486,-2.66006,6.64011,3.99391,-2.69741,6.80142,1.89244,1.89244,57.78150,12.77347,57.78149622,12.77347063,A,130507.60,"[-0.20000,-0.00000,-0.00000]","[-0.10000,-0.00000,-0.00000]",6.56800,0.00000,0.00000,0.00000,0.00000,0.00000
17:39:22.373873,4.07909,0.00624,2.77213,2.77213,"[5.00000,0.00000,0.00000]","[1.30000,0.00000,0.00000]",-0.04410,0.03473,-0.07554,0.00000,0.00000,-0.00196,0.00108,-0.12133,-0.10291,1.00638,4.07055,0.03907,2.78125,1.89941,1.91961,-2.66959,6.66891,3.99391,-2.69741,6.80142,1.89244,1.89244,57.78150,12.77347,57.78149647,12.77347047,A,130507.60,"[-0.20000,-0.00000,-0.00000]","[-0.10000,-0.00000,-0.00000]",6.59675,0.00000,0.00000,0.00000,0.00000,0.00000
17:39:22.383704,4.08892,0.00585,3.09381,3.09381,"[5.00000,0.00000,0.00000]","[1.30000,0.00000,0.00000]",-0.04596,0.03289,-0.08715,0.00000,0.00000,0.02629,0.01207,0.08180,-0.05100,0.91244,4.08085,0.03663,2.84376,1.89607,1.91520,-2.67825,6.69551,3.99391,-2.69741,6.80142,1.89244,1.89244,57.78150,12.77347,57.78149671,12.77347032,A,130507.60,"[-0.20000,-0.00000,-0.00000]","[-0.10000,-0.00000,-0.00000]",6.62502,0.00000,0.00000,0.00000,0.00000,0.00000
17:39:22.426390,4.13160,0.03812,3.09381,1.50000,"[5.00000,0.00000,0.00000]","[1.30000,0.00000,0.00000]",-0.04601,0.03144,-0.09066,0.00000,0.00000,0.01942,0.01589,0.04978,0.05813,0.89371,4.09119,0.04396,2.89377,1.89336,1.91165,-2.68678,6.72194,4.10992,-2.80609,7.09794,1.92213,1.92213,57.78150,12.77347,57.78149695,12.77347018,A,130507.70,"[-0.20000,-0.00000,-0.00000]","[-0.10000,-0.00000,-0.00000]",6.65708,0.00000,0.00000,0.00000,0.00000,0.00000
17:39:22.445362,4.15034,0.01003,3.09381,1.50000,"[5.00000,0.00000,0.00000]","[1.30000,0.00000,0.00000]",-0.05072,0.02884,-0.09478,0.00000,0.00000,-0.00119,-0.00442,-0.08442,-0.01751,1.08696,4.14168,0.03419,2.61502,1.89844,1.91521,-2.73755,6.86704,4.10992,-2.80609,7.09794,1.92213,1.92213,57.78150,12.77347,57.78149826,12.77346932,A,130507.70,"[-0.20000,-0.00000,-0.00000]","[-0.10000,-0.00000,-0.00000]",6.72587,0.00000,0.00000,0.00000,0.00000,0.00000
17:39:22.458753,4.16396,0.00690,3.09381,1.50000,"[5.00000,0.00000,0.00000]","[1.30000,0.00000,0.00000]",-0.05330,0.02884,-0.13067,0.00000,0.00000,-0.00226,-0.01236,0.03642,-0.07802,1.07824,4.15585,0.04884,2.39201,1.90012,1.91690,-2.75069,6.90568,4.10992,-2.80609,7.09794,1.92213,1.92213,57.78150,12.77347,57.78149860,12.77346910,A,130507.70,"[-0.20000,-0.00000,-0.00000]","[-0.10000,-0.00000,-0.00000]",6.75097,0.00000,0.00000,0.00000,0.00000,0.00000
17:39:22.469026,4.17424,0.00694,3.09381,1.50000,"[5.00000,0.00000,0.00000]","[1.30000,0.00000,0.00000]",-0.05446,0.02884,-0.08623,0.00000,0.00000,-0.00608,-0.00366,-0.03898,-0.03989,0.99137,4.16642,0.03175,2.21361,1.90134,1.91811,-2.76002,6.93347,4.10992,-2.80609,7.09794,1.92213,1.92213,57.78150,12.77347,57.78149885,12.77346894,A,130507.70,"[-0.20000,-0.00000,-0.00000]","[-0.10000,-0.00000,-0.00000]",6.76627,0.00000,0.00000,0.00000,0.00000,0.00000
17:39:22.481657,4.18687,0.00917,3.09381,1.50000,"[5.00000,0.00000,0.00000]","[1.30000,0.00000,0.00000]",-0.05717,0.02884,-0.08333,0.00000,0.00000,-0.00196,0.00001,0.04453,-0.13566,0.96612,4.17850,0.05372,2.07089,1.90243,1.91920,-2.76970,6.96206,4.10992,-2.80609,7.09794,1.92213,1.92213,57.78150,12.77347,57.78149911,12.77346878,A,130507.70,"[-0.20000,-0.00000,-0.00000]","[-0.10000,-0.00000,-0.00000]",6.78182,0.00000,0.00000,0.00000,0.00000,0.00000
17:39:22.490203,4.19541,0.00735,3.09381,1.50000,"[5.00000,0.00000,0.00000]","[1.30000,0.00000,0.00000]",-0.05803,0.02884,-0.08852,0.00000,0.00000,0.00217,0.00092,0.00476,-0.02977,0.91561,4.18736,0.04884,1.95671,1.90317,1.91994,-2.77605,6.98134,4.10992,-2.80609,7.09794,1.92213,1.92213,57.78150,12.77347,57.78149928,12.77346867,A,130507.70,"[-0.20000,-0.00000,-0.00000]","[-0.10000,-0.00000,-0.00000]",6.79733,0.00000,0.00000,0.00000,0.00000,0.00000
17:39:22.500353,4.20557,0.00711,3.09381,1.50000,"[5.00000,0.00000,0.00000]","[1.30000,0.00000,0.00000]",-0.05890,0.02884,-0.08913,0.00000,0.00000,-0.00440,-0.00183,-0.05673,-0.02117,0.86815,4.19773,0.05128,1.86537,1.90386,1.92063,-2.78304,7.00223,4.10992,-2.80609,7.09794,1.92213,1.92213,57.78150,12.77347,57.78149947,12.77346856,A,130507.70,"[-0.20000,-0.00000,-0.00000]","[-0.10000,-0.00000,-0.00000]",6.81287,0.00000,0.00000,0.00000,0.00000,0.00000
17:39:22.550036,4.25524,0.04638,3.09381,1.50000,"[5.00000,0.00000,0.00000]","[1.30000,0.00000,0.00000]",-0.05975,0.02884,-0.08501,0.00000,0.00000,-0.00684,0.00657,0.02495,-0.02422,0.87273,4.20795,0.07082,1.79230,1.90442,1.92119,-2.78931,7.02105,4.22778,-2.91478,7.37593,1.94350,1.94350,57.78150,12.77347,57.78149964,12.77346845,A,130507.80,"[-0.20000,-0.00000,-0.00000]","[-0.10000,-0.00000,-0.00000]",6.82842,0.00000,0.00000,0.00000,0.00000,0.00000
17:39:22.562558,4.26778,0.00685,3.09381,1.50000,"[5.00000,0.00000,0.00000]","[1.30000,0.00000,0.00000]",-0.06479,0.02884,-0.06760,0.00000,0.00000,0.02355,0.03208,0.10071,-0.14457,1.05207,4.25968,0.04151,1.73384,1.90965,1.92643,-2.82451,7.11794,4.22778,-2.91478,7.37593,1.94350,1.94350,57.78150,12.77347,57.78150051,12.77346786,A,130507.80,"[-0.20000,-0.00000,-0.00000]","[-0.10000,-0.00000,-0.00000]",6.90649,0.00000,0.00000,0.00000,0.00000,0.00000
17:39:22.572883,4.27810,0.00695,3.09381,1.50000,"[5.00000,0.00000,0.00000]","[1.30000,0.00000,0.00000]",-0.06607,0.02884,-0.08638,0.00000,0.00000,-0.00165,0.02887,0.10577,-0.06198,1.03389,4.27027,0.04640,1.68707,1.91253,1.92930,-2.83392,7.14402,4.22778,-2.91478,7.37593,1.94350,1.94350,57.78150,12.77347,57.78150075,12.77346770,A,130507.80,"[-0.20000,-0.00000,-0.00000]","[-0.10000,-0.00000,-0.00000]",6.92177,0.00000,0.00000,0.00000,0.00000,0.00000
17:39:22.584882,4.29010,0.00855,3.09381,1.50000,"[5.00000,0.00000,0.00000]","[1.30000,0.00000,0.00000]",-0.06616,0.02884,-0.08806,0.00000,0.00000,0.00568,0.02459,-0.03971,0.02641,0.98015,4.28229,0.03175,1.64966,1.91503,1.93180,-2.84372,7.17097,4.22778,-2.91478,7.37593,1.94350,1.94350,57.78150,12.77347,57.78150099,12.77346753,A,130507.80,"[-0.20000,-0.00000,-0.00000]","[-0.10000,-0.00000,-0.00000]",6.93732,0.00000,0.00000,0.00000,0.00000,0.00000
17:39:22.594414,4.29963,0.00783,3.09381,1.50000,"[5.00000,0.00000,0.00000]","[1.30000,0.00000,0.00000]",-0.06552,0.02887,-0.08883,0.00000,0.00000,0.00201,0.01726,-0.07131,0.05826,0.96099,4.29154,0.04640,1.61972,1.91704,1.93383,-2.85140,7.19218,4.22778,-2.91478,7.37593,1.94350,1.94350,57.78150,12.77347,57.78150118,12.77346740,A,130507.80,"[-0.20000,-0.00000,-0.00000]","[-0.10000,-0.00000,-0.00000]",6.95263,0.00000,0.00000,0.00000,0.00000,0.00000
17:39:22.604031,4.30925,0.00715,3.37271,1.50000,"[5.00000,0.00000,0.00000]","[1.30000,0.00000,0.00000]",-0.06545,0.02910,-0.08745,0.00000,0.00000,-0.00043,0.02246,-0.06149,0.02464,0.98863,4.30122,0.03907,1.59578,1.91874,1.93566,-2.85875,7.21235,4.22778,-2.91478,7.37593,1.94350,1.94350,57.78150,12.77347,57.78150136,12.77346728,A,130507.80,"[-0.20000,-0.00000,-0.00000]","[-0.10000,-0.00000,-0.00000]",6.96802,0.00000,0.00000,0.00000,0.00000,0.00000
17:39:22.615033,4.32026,0.00776,3.37271,1.50000,"[5.00000,0.00000,0.00000]","[1.30000,0.00000,0.00000]",-0.06509,0.02986,-0.08501,0.00000,0.00000,0.00827,0.02612,-0.12334,0.04563,0.97216,4.31165,0.05861,1.57662,1.92014,1.93750,-2.86612,7.23249,4.22778,-2.91478,7.37593,1.94350,1.94350,57.78150,12.77347,57.78150154,12.77346715,A,130507.80,"[-0.20000,-0.00000,-0.00000]","[-0.10000,-0.00000,-0.00000]",6.98356,0.00000,0.00000,0.00000,0.00000,0.00000
17:39:22.664692,4.36990,0.04708,3.37271,1.50000,"[5.00000,0.00000,0.00000]","[1.30000,0.00000,0.00000]",-0.06486,0.03136,-0.07218,0.00000,0.00000,0.00323,0.03987,0.07613,0.02830,0.94989,4.32195,0.03907,1.56130,1.92118,1.93941,-2.87272,7.25051,4.34071,-3.02347,7.69098,1.90299,1.90299,57.78151,12.77346,57.78150171,12.77346704,A,130507.90,"[-0.20000,-0.00000,-0.00000]","[-0.10000,-0.00000,-0.00000]",6.99899,0.00000,0.00000,0.00000,0.00000,0.00000
17:39:22.677488,4.38269,0.00681,3.37271,1.50000,"[5.00000,0.00000,0.00000]","[1.30000,0.00000,0.00000]",-0.06876,0.04087,-0.04668,0.00000,0.00000,0.01194,0.06369,0.08021,-0.13457,1.01888,4.37465,0.06838,1.54904,1.91672,1.94050,-2.90746,7.34297,4.34071,-3.02347,7.69098,1.90299,1.90299,57.78151,12.77346,57.78150254,12.77346646,A,130507.90,"[-0.20000,-0.00000,-0.00000]","[-0.10000,-0.00000,-0.00000]",7.07855,0.00000,0.00000,0.00000,0.00000,0.00000
17:39:22.688906,4.39412,0.00781,3.37271,1.50000,"[5.00000,0.00000,0.00000]","[1.30000,0.00000,0.00000]",-0.06942,0.04180,-0.05386,0.00000,0.00000,0.01667,0.06796,-0.15287,-0.03941,1.00400,4.38630,0.04884,1.53923,1.91148,1.93580,-2.91851,7.37391,4.34071,-3.02347,7.69098,1.90299,1.90299,57.78151,12.77346,57.78150282,12.77346627,A,130507.90,"[-0.20000,-0.00000,-0.00000]","[-0.10000,-0.00000,-0.00000]",7.09380,0.00000,0.00000,0.00000,0.00000,0.00000
17:39:22.699137,4.40435,0.00774,3.37271,1.50000,"[5.00000,0.00000,0.00000]","[1.30000,0.00000,0.00000]",-0.06929,0.04223,-0.05416,0.00000,0.00000,0.01698,0.06964,0.02782,0.00604,1.02693,4.39582,0.04151,1.53138,1.90689,1.93145,-2.92780,7.40035,4.34071,-3.02347,7.69098,1.90299,1.90299,57.78151,12.77346,57.78150305,12.77346611,A,130507.90,"[-0.20000,-0.00000,-0.00000]","[-0.10000,-0.00000,-0.00000]",7.10918,0.00000,0.00000,0.00000,0.00000,0.00000
17:39:22.708609,4.41382,0.00698,3.37271,1.50000,"[5.00000,0.00000,0.00000]","[1.30000,0.00000,0.00000]",-0.06966,0.04234,-0.05111,0.00000,0.00000,0.02171,0.06354,0.02611,-0.02599,0.94855,4.40599,0.04151,1.52511,1.90299,1.92762,-2.93670,7.42581,4.34071,-3.02347,7.69098,1.90299,1.90299,57.78151,12.77346,57.78150328,12.77346596,A,130507.90,"[-0.20000,-0.00000,-0.00000]","[-0.10000,-0.00000,-0.00000]",7.12448,0.00000,0.00000,0.00000,0.00000,0.00000
17:39:22.719256,4.42447,0.00723,3.37271,1.50000,"[5.00000,0.00000,0.00000]","[1.30000,0.00000,0.00000]",-0.07079,0.04234,-0.04637,0.00000,0.00000,0.00537,0.05224,0.11053,-0.07472,0.93098,4.41634,0.03663,1.52009,1.89971,1.92434,-2.94538,7.45070,4.34071,-3.02347,7.69098,1.90299,1.90299,57.78151,12.77346,57.78150351,12.77346582,A,130507.90,"[-0.20000,-0.00000,-0.00000]","[-0.10000,-0.00000,-0.00000]",7.14003,0.00000,0.00000,0.00000,0.00000,0.00000
17:39:22.729626,4.43483,0.00719,3.37271,1.50000,"[5.00000,0.00000,0.00000]","[1.30000,0.00000,0.00000]",-0.07018,0.04234,-0.05584,0.00000,0.00000,-0.00822,0.04689,-0.04660,0.03660,0.87663,4.42677,0.04884,1.51607,1.89690,1.92153,-2.95346,7.47403,4.34071,-3.02347,7.69098,1.90299,1.90299,57.78151,12.77346,57.78150372,12.77346568,A,130507.90,"[-0.20000,-0.00000,-0.00000]","[-0.10000,-0.00000,-0.00000]",7.15558,0.00000,0.00000,0.00000,0.00000,0.00000
17:39:22.787093,4.49230,0.05410,3.37271,1.50000,"[5.00000,0.00000,0.00000]","[1.30000,0.00000,0.00000]",-0.07105,0.04234,-0.05752,0.00000,0.00000,-0.02654,0.03269,0.04215,-0.04868,0.88822,4.43737,0.08303,1.51286,1.89455,1.91918,-2.96143,7.49710,4.46919,-3.24084,8.28402,1.92213,1.92213,57.78151,12.77346,57.78150392,12.77346555,A,130508.10,"[-0.20000,-0.00000,-0.00000]","[-0.10000,-0.00000,-0.00000]",7.17137,0.00000,0.00000,0.00000,0.00000,0.00000
17:39:22.799595,4.50481,0.00686,3.37271,1.50000,"[5.00000,0.00000,0.00000]","[1.30000,0.00000,0.00000]",-0.07403,0.04234,-0.05523,0.00000,0.00000,0.00843,0.01787,-0.06094,-0.02227,1.01242,4.49669,0.05372,1.51028,1.89764,1.92227,-3.00285,7.61201,4.46919,-3.24084,8.28402,1.92213,1.92213,57.78151,12.77346,57.78150496,12.77346485,A,130508.10,"[-0.20000,-0.00000,-0.00000]","[-0.10000,-0.00000,-0.00000]",7.26095,0.00000,0.00000,0.00000,0.00000,0.00000
17:39:22.810370,4.51558,0.00724,3.37271,1.50000,"[5.00000,0.00000,0.00000]","[1.30000,0.00000,0.00000]",-0.07307,0.04234,-0.03629,0.00000,0.00000,0.00568,0.02872,0.04959,0.04721,0.98228,4.50749,0.04640,1.50823,1.89803,1.92266,-3.01906,7.65738,4.46919,-3.24084,8.28402,1.92213,1.92213,57.78151,12.77346,57.78150536,12.77346457,A,130508.10,"[-0.20000,-0.00000,-0.00000]","[-0.10000,-0.00000,-0.00000]",7.27650,0.00000,0.00000,0.00000,0.00000,0.00000
17:39:22.820734,4.52595,0.00707,3.37271,1.50000,"[5.00000,0.00000,0.00000]","[1.30000,0.00000,0.00000]",-0.07383,0.04234,-0.01461,0.00000,0.00000,-0.00914,0.03376,-0.02922,-0.07948,0.98167,4.51814,0.07570,1.50658,1.89836,1.92299,-3.03442,7.70033,4.46919,-3.24084,8.28402,1.92213,1.92213,57.78151,12.77346,57.78150575,12.77346432,A,130508.10,"[-0.20000,-0.00000,-0.00000]","[-0.10000,-0.00000,-0.00000]",7.29224,0.00000,0.00000,0.00000,0.00000,0.00000
17:39:22.831242,4.53645,0.00718,3.37271,1.50000,"[5.00000,0.00000,0.00000]","[1.30000,0.00000,0.00000]",-0.07486,0.04234,-0.01140,0.00000,0.00000,-0.01540,0.03024,-0.01702,-0.09315,0.91293,4.52835,0.05617,1.50527,1.89863,1.92326,-3.04891,7.74085,4.46919,-3.24084,8.28402,1.92213,1.92213,57.78151,12.77346,57.78150612,12.77346407,A,130508.10,"[-0.20000,-0.00000,-0.00000]","[-0.10000,-0.00000,-0.00000]",7.30779,0.00000,0.00000,0.00000,0.00000,0.00000
17:39:22.842789,4.54766,0.00814,3.37271,1.50000,"[5.00000,0.00000,0.00000]","[1.30000,0.00000,0.00000]",-0.07608,0.04234,0.00036,0.00000,0.00000,-0.00990,0.03024,-0.09620,-0.12011,0.96404,4.53862,0.08303,1.50421,1.89885,1.92348,-3.06255,7.77902,4.46919,-3.24084,8.28402,1.92213,1.92213,57.78151,12.77346,57.78150646,12.77346384,A,130508.10,"[-0.20000,-0.00000,-0.00000]","[-0.10000,-0.00000,-0.00000]",7.32310,0.00000,0.00000,0.00000,0.00000,0.00000
17:39:22.851674,4.55689,0.00718,2.87643,2.87643,"[5.00000,0.00000,0.00000]","[1.30000,0.00000,0.00000]",-0.07613,0.04234,0.00647,0.00000,0.00000,-0.00242,0.02979,-0.15811,-0.02751,0.96435,4.54878,0.04884,1.77866,1.89904,1.92367,-3.07561,7.81553,4.46919,-3.24084,8.28402,1.92213,1.92213,57.78151,12.77346,57.78150679,12.77346362,A,130508.10,"[-0.20000,-0.00000,-0.00000]","[-0.10000,-0.00000,-0.00000]",7.33835,0.00000,0.00000,0.00000,0.00000,0.00000
17:39:22.860379,4.56559,0.00548,2.87643,2.87643,"[5.00000,0.00000,0.00000]","[1.30000,0.00000,0.00000]",-0.07724,0.04234,0.02678,0.00000,0.00000,0.00721,0.03085,-0.16793,-0.11431,1.00741,4.55781,0.07082,1.99821,1.89920,1.92383,-3.08794,7.85000,4.46919,-3.24084,8.28402,1.92213,1.92213,57.78151,12.77346,57.78150710,12.77346341,A,130508.10,"[-0.20000,-0.00000,-0.00000]","[-0.10000,-0.00000,-0.00000]",7.36816,0.00000,0.00000,0.00000,0.00000,0.00000
17:39:22.904313,4.60952,0.03883,2.87643,1.50000,"[5.00000,0.00000,0.00000]","[1.30000,0.00000,0.00000]",-0.07742,0.04234,0.02327,0.00000,0.00000,0.01591,0.03956,-0.02074,-0.05374,1.03047,4.56821,0.08059,2.17386,1.89948,1.92411,-3.10125,7.88708,4.58755,-3.34953,8.58054,1.92213,1.92213,57.78151,12.77346,57.78150743,12.77346319,A,130508.20,"[-0.20000,-0.00000,-0.00000]","[-0.10000,-0.00000,-0.00000]",7.39849,0.00000,0.00000,0.00000,0.00000,0.00000
17:39:22.916018,4.62123,0.00568,2.87643,2.87643,"[5.00000,0.00000,0.00000]","[1.30000,0.00000,0.00000]",-0.07627,0.04234,0.06374,0.00000,0.00000,0.01087,0.06491,-0.00128,-0.14488,1.05292,4.61317,0.06349,2.31437,1.90211,1.92674,-3.14435,8.00497,4.58755,-3.34953,8.58054,1.92213,1.92213,57.78151,12.77346,57.78150849,12.77346246,A,130508.20,"[-0.20000,-0.00000,-0.00000]","[-0.10000,-0.00000,-0.00000]",7.46575,0.00000,0.00000,0.00000,0.00000,0.00000
17:39:22.926716,4.63193,0.00595,2.87643,2.87643,"[5.00000,0.00000,0.00000]","[1.30000,0.00000,0.00000]",-0.07729,0.04234,0.05442,0.00000,0.00000,-0.01891,0.05865,0.03105,-0.13444,1.02883,4.62385,0.05128,2.42678,1.90204,1.92667,-3.16125,8.05159,4.58755,-3.34953,8.58054,1.92213,1.92213,57.78151,12.77346,57.78150891,12.77346218,A,130508.20,"[-0.20000,-0.00000,-0.00000]","[-0.10000,-0.00000,-0.00000]",7.49566,0.00000,0.00000,0.00000,0.00000,0.00000
17:39:22.936865,4.64208,0.00570,2.87643,2.87643,"[5.00000,0.00000,0.00000]","[1.30000,0.00000,0.00000]",-0.07733,0.04234,0.02693,0.00000,0.00000,-0.04441,0.04750,0.17525,-0.04105,0.96136,4.63406,0.06838,2.51671,1.90198,1.92661,-3.17722,8.09568,4.58755,-3.34953,8.58054,1.92213,1.92213,57.78151,12.77346,57.78150931,12.77346191,A,130508.20,"[-0.20000,-0.00000,-0.00000]","[-0.10000,-0.00000,-0.00000]",7.52546,0.00000,0.00000,0.00000,0.00000,0.00000
17:39:22.948566,4.65378,0.00686,2.87643,2.87643,"[5.00000,0.00000,0.00000]","[1.30000,0.00000,0.00000]",-0.07613,0.04234,0.02189,0.00000,0.00000,-0.07190,0.04552,-0.10803,0.03849,0.94068,4.64595,0.04640,2.58866,1.90209,1.92672,-3.19409,8.14215,4.58755,-3.34953,8.58054,1.92213,1.92213,57.78151,12.77346,57.78150972,12.77346162,A,130508.20,"[-0.20000,-0.00000,-0.00000]","[-0.10000,-0.00000,-0.00000]",7.55567,0.00000,0.00000,0.00000,0.00000,0.00000
17:39:22.958814,4.66403,0.00670,2.87643,2.87643,"[5.00000,0.00000,0.00000]","[1.30000,0.00000,0.00000]",-0.07534,0.04234,0.02388,0.00000,0.00000,-0.06182,0.04109,-0.07948,0.01708,0.92055,4.65503,0.05372,2.64621,1.90199,1.92662,-3.20811,8.18086,4.58755,-3.34953,8.58054,1.92213,1.92213,57.78151,12.77346,57.78151007,12.77346139,A,130508.20,"[-0.20000,-0.00000,-0.00000]","[-0.10000,-0.00000,-0.00000]",7.58549,0.00000,0.00000,0.00000,0.00000,0.00000
17:39:22.967983,4.67320,0.00547,2.87643,2.87643,"[5.00000,0.00000,0.00000]","[1.30000,0.00000,0.00000]",-0.07372,0.04234,0.02403,0.00000,0.00000,-0.03785,0.04353,-0.15177,0.06533,0.88072,4.66521,0.06838,2.69225,1.90192,1.92655,-3.22152,8.21790,4.58755,-3.34953,8.58054,1.92213,1.92213,57.78151,12.77346,57.78151041,12.77346116,A,130508.20,"[-0.20000,-0.00000,-0.00000]","[-0.10000,-0.00000,-0.00000]",7.61530,0.00000,0.00000,0.00000,0.00000,0.00000
17:39:22.978702,4.68392,0.00580,2.87643,2.87643,"[5.00000,0.00000,0.00000]","[1.30000,0.00000,0.00000]",-0.07294,0.04234,0.02937,0.00000,0.00000,-0.02639,0.03712,-0.08534,0.01330,0.89707,4.67583,0.04396,2.72909,1.90199,1.92662,-3.23563,8.25680,4.58755,-3.34953,8.58054,1.92213,1.92213,57.78151,12.77346,57.78151076,12.77346092,A,130508.20,"[-0.20000,-0.00000,-0.00000]","[-0.10000,-0.00000,-0.00000]",7.64510,0.00000,0.00000,0.00000,0.00000,0.00000
17:39:23.020833,4.72604,0.03752,2.87643,1.50000,"[5.00000,0.00000,0.00000]","[1.30000,0.00000,0.00000]",-0.07420,0.04234,0.01991,0.00000,0.00000,-0.00578,0.03605,-0.13365,-0.09351,0.83661,4.68621,0.04151,2.75856,1.90202,1.92665,-3.24885,8.29321,4.70508,-3.45821,8.87706,1.92213,1.92213,57.78152,12.77346,57.78151108,12.77346070,A,130508.30,"[-0.20000,-0.00000,-0.00000]","[-0.10000,-0.00000,-0.00000]",7.67492,0.00000,0.00000,0.00000,0.00000,0.00000
17:39:23.032394,4.73761,0.00563,2.87643,2.87643,"[5.00000,0.00000,0.00000]","[1.30000,0.00000,0.00000]",-0.07322,0.04234,0.03625,0.00000,0.00000,0.02920,0.01100,0.09601,-0.06332,1.05011,4.72978,0.03907,2.78213,1.90496,1.92959,-3.29751,8.42517,4.70508,-3.45821,8.87706,1.92213,1.92213,57.78152,12.77346,57.78151227,12.77345988,A,130508.30,"[-0.20000,-0.00000,-0.00000]","[-0.10000,-0.00000,-0.00000]",7.74007,0.00000,0.00000,0.00000,0.00000,0.00000
17:39:23.043267,4.74848,0.00611,2.87643,2.87643,"[5.00000,0.00000,0.00000]","[1.30000,0.00000,0.00000]",-0.07301,0.04234,0.02036,0.00000,0.00000,0.02599,0.00703,-0.05405,-0.01842,0.97923,4.74023,0.09280,2.80099,1.90459,1.92922,-3.31357,8.46917,4.70508,-3.45821,8.87706,1.92213,1.92213,57.78152,12.77346,57.78151267,12.77345961,A,130508.30,"[-0.20000,-0.00000,-0.00000]","[-0.10000,-0.00000,-0.00000]",7.76990,0.00000,0.00000,0.00000,0.00000,0.00000
17:39:23.054482,4.75970,0.00692,2.87643,2.87643,"[5.00000,0.00000,0.00000]","[1.30000,0.00000,0.00000]",-0.07321,0.04234,0.00983,0.00000,0.00000,0.02935,-0.00183,-0.05246,-0.03538,0.93056,4.75159,0.06349,2.81608,1.90433,1.92896,-3.32934,8.51234,4.70508,-3.45821,8.87706,1.92213,1.92213,57.78152,12.77346,57.78151305,12.77345934,A,130508.30,"[-0.20000,-0.00000,-0.00000]","[-0.10000,-0.00000,-0.00000]",7.79971,0.00000,0.00000,0.00000,0.00000,0.00000
17:39:23.063391,4.76861,0.00560,2.87643,2.87643,"[5.00000,0.00000,0.00000]","[1.30000,0.00000,0.00000]",-0.07246,0.04234,0.01930,0.00000,0.00000,0.03561,0.00291,-0.10358,0.02074,0.89768,4.76054,0.04151,2.82815,1.90391,1.92854,-3.34224,8.54784,4.70508,-3.45821,8.87706,1.92213,1.92213,57.78152,12.77346,57.78151337,12.77345912,A,130508.30,"[-0.20000,-0.00000,-0.00000]","[-0.10000,-0.00000,-0.00000]",7.82904,0.00000,0.00000,0.00000,0.00000,0.00000
17:39:23.073926,4.77914,0.00573,2.87643,2.87643,"[5.00000,0.00000,0.00000]","[1.30000,0.00000,0.00000]",-0.07226,0.04234,0.02449,0.00000,0.00000,0.01851,0.00306,0.07283,-0.02092,0.97094,4.77112,0.04884,2.83781,1.90371,1.92834,-3.35608,8.58582,4.70508,-3.45821,8.87706,1.92213,1.92213,57.78152,12.77346,57.78151371,12.77345889,A,130508.30,"[-0.20000,-0.00000,-0.00000]","[-0.10000,-0.00000,-0.00000]",7.85885,0.00000,0.00000,0.00000,0.00000,0.00000
17:39:23.084419,4.78963,0.00583,2.87643,2.87643,"[5.00000,0.00000,0.00000]","[1.30000,0.00000,0.00000]",-0.07059,0.04231,0.02999,0.00000,0.00000,-0.00532,0.01390,-0.04337,0.07241,1.01791,4.78182,0.06349,2.84553,1.90358,1.92819,-3.36964,8.62301,4.70508,-3.45821,8.87706,1.92213,1.92213,57.78152,12.77346,57.78151405,12.77345866,A,130508.30,"[-0.20000,-0.00000,-0.00000]","[-0.10000,-0.00000,-0.00000]",7.88866,0.00000,0.00000,0.00000,0.00000,0.00000
17:39:23.095031,4.80025,0.00556,2.98350,2.98350,"[5.00000,0.00000,0.00000]","[1.30000,0.00000,0.00000]",-0.07106,0.04203,0.03808,0.00000,0.00000,-0.01662,0.02291,0.04752,-0.07912,1.06299,4.79217,0.05128,2.87313,1.90345,1.92790,-3.38217,8.65740,4.70508,-3.45821,8.87706,1.92213,1.92213,57.78152,12.77346,57.78151436,12.77345845,A,130508.30,"[-0.20000,-0.00000,-0.00000]","[-0.10000,-0.00000,-0.00000]",7.91989,0.00000,0.00000,0.00000,0.00000,0.00000
17:39:23.137953,4.84316,0.03807,2.98350,1.50000,"[5.00000,0.00000,0.00000]","[1.30000,0.00000,0.00000]",-0.07259,0.04146,0.04144,0.00000,0.00000,-0.01311,0.02780,-0.05765,-0.15335,1.02986,4.80282,0.07326,2.89520,1.90341,1.92752,-3.39418,8.69037,4.82152,-3.55702,9.15505,1.91230,1.91230,57.78152,12.77346,57.78151465,12.77345825,A,130508.40,"[-0.20000,-0.00000,-0.00000]","[-0.10000,-0.00000,-0.00000]",7.95081,0.00000,0.00000,0.00000,0.00000,0.00000
17:39:23.152120,4.85733,0.00811,2.98350,2.98350,"[5.00000,0.00000,0.00000]","[1.30000,0.00000,0.00000]",-0.07110,0.03742,0.02617,0.00000,0.00000,-0.02181,0.01115,-0.00140,0.00335,0.98045,4.84705,0.05617,2.91286,1.90525,1.92701,-3.44312,8.82309,4.82152,-3.55702,9.15505,1.91230,1.91230,57.78152,12.77346,57.78151585,12.77345742,A,130508.40,"[-0.20000,-0.00000,-0.00000]","[-0.10000,-0.00000,-0.00000]",8.01696,0.00000,0.00000,0.00000,0.00000,0.00000
17:39:23.159817,4.86503,0.00552,2.98350,2.98350,"[5.00000,0.00000,0.00000]","[1.30000,0.00000,0.00000]",-0.07304,0.03693,0.02769,0.00000,0.00000,-0.00654,0.00718,-0.12322,-0.16110,0.96301,4.85701,0.04640,2.92699,1.90359,1.92508,-3.45493,8.85611,4.82152,-3.55702,9.15505,1.91230,1.91230,57.78152,12.77346,57.78151614,12.77345722,A,130508.40,"[-0.20000,-0.00000,-0.00000]","[-0.10000,-0.00000,-0.00000]",8.04758,0.00000,0.00000,0.00000,0.00000,0.00000
17:39:23.170467,4.87568,0.00577,2.98350,2.98350,"[5.00000,0.00000,0.00000]","[1.30000,0.00000,0.00000]",-0.07316,0.03668,-0.00560,0.00000,0.00000,-0.01234,0.00566,-0.03447,-0.02532,0.99747,4.86762,0.05372,2.93829,1.90239,1.92372,-3.46834,8.89352,4.82152,-3.55702,9.15505,1.91230,1.91230,57.78152,12.77346,57.78151648,12.77345700,A,130508.40,"[-0.20000,-0.00000,-0.00000]","[-0.10000,-0.00000,-0.00000]",8.07850,0.00000,0.00000,0.00000,0.00000,0.00000
17:39:23.180616,4.88583,0.00552,2.98350,2.98350,"[5.00000,0.00000,0.00000]","[1.30000,0.00000,0.00000]",-0.07334,0.03662,-0.00331,0.00000,0.00000,0.00721,0.00230,-0.04587,-0.03117,0.99558,4.87800,0.06105,2.94734,1.90135,1.92265,-3.48084,8.92849,4.82152,-3.55702,9.15505,1.91230,1.91230,57.78152,12.77346,57.78151680,12.77345679,A,130508.40,"[-0.20000,-0.00000,-0.00000]","[-0.10000,-0.00000,-0.00000]",8.10943,0.00000,0.00000,0.00000,0.00000,0.00000
17:39:23.191389,4.89660,0.00562,2.98350,2.98350,"[5.00000,0.00000,0.00000]","[1.30000,0.00000,0.00000]",-0.07323,0.03662,-0.00621,0.00000,0.00000,0.01011,-0.00106,-0.08473,-0.01013,1.01297,4.88853,0.05617,2.95457,1.90049,1.92179,-3.49307,8.96276,4.82152,-3.55702,9.15505,1.91230,1.91230,57.78152,12.77346,57.78151710,12.77345658,A,130508.40,"[-0.20000,-0.00000,-0.00000]","[-0.10000,-0.00000,-0.00000]",8.14114,0.00000,0.00000,0.00000,0.00000,0.00000
17:39:23.201890,4.90710,0.00572,2.98350,2.98350,"[5.00000,0.00000,0.00000]","[1.30000,0.00000,0.00000]",-0.07225,0.03645,-0.00804,0.00000,0.00000,0.01194,-0.00473,-0.01415,0.04923,1.01766,4.89909,0.05861,2.96036,1.89976,1.92097,-3.50450,8.99485,4.82152,-3.55702,9.15505,1.91230,1.91230,57.78152,12.77346,57.78151739,12.77345639,A,130508.40,"[-0.20000,-0.00000,-0.00000]","[-0.10000,-0.00000,-0.00000]",8.17207,0.00000,0.00000,0.00000,0.00000,0.00000
17:39:23.212065,4.91728,0.00551,2.98350,2.98350,"[5.00000,0.00000,0.00000]","[1.30000,0.00000,0.00000]",-0.07168,0.03603,-0.00896,0.00000,0.00000,0.00598,-0.00488,-0.05173,0.02336,1.00003,4.90928,0.04640,2.96499,1.89919,1.92015,-3.51547,9.02572,4.82152,-3.55702,9.15505,1.91230,1.91230,57.78152,12.77346,57.78151767,12.77345620,A,130508.40,"[-0.20000,-0.00000,-0.00000]","[-0.10000,-0.00000,-0.00000]",8.20298,0.00000,0.00000,0.00000,0.00000,0.00000
17:39:23.263340,4.96854,0.04637,2.98350,1.50000,"[5.00000,0.00000,0.00000]","[1.30000,0.00000,0.00000]",-0.07172,0.03518,-0.01354,0.00000,0.00000,-0.01051,0.00001,-0.00342,-0.01324,0.97582,4.91988,0.06105,2.96869,1.89877,1.91923,-3.52587,9.05503,4.93885,-3.65582,9.43304,1.91230,1.91230,57.78152,12.77345,57.78151793,12.77345603,A,130508.50,"[-0.20000,-0.00000,-0.00000]","[-0.10000,-0.00000,-0.00000]",8.23390,0.00000,0.00000,0.00000,0.00000,0.00000
17:39:23.275600,4.98082,0.00570,2.98350,2.98350,"[5.00000,0.00000,0.00000]","[1.30000,0.00000,0.00000]",-0.07497,0.02584,-0.04790,0.00000,0.00000,0.02187,-0.01145,-0.11639,-0.08442,1.05457,4.97274,0.08303,2.97165,1.90247,1.91750,-3.58129,9.20860,4.93885,-3.65582,9.43304,1.91230,1.91230,57.78152,12.77345,57.78151931,12.77345509,A,130508.50,"[-0.20000,-0.00000,-0.00000]","[-0.10000,-0.00000,-0.00000]",8.31328,0.00000,0.00000,0.00000,0.00000,0.00000
17:39:23.286260,4.99147,0.00596,2.98350,2.98350,"[5.00000,0.00000,0.00000]","[1.30000,0.00000,0.00000]",-0.07440,0.02426,-0.06149,0.00000,0.00000,0.03775,-0.01633,-0.01226,0.04923,1.01821,4.98344,0.06349,2.97402,1.90232,1.91643,-3.59332,9.24279,4.93885,-3.65582,9.43304,1.91230,1.91230,57.78152,12.77345,57.78151962,12.77345489,A,130508.50,"[-0.20000,-0.00000,-0.00000]","[-0.10000,-0.00000,-0.00000]",8.34420,0.00000,0.00000,0.00000,0.00000,0.00000
17:39:23.298497,5.00371,0.00779,2.98350,2.98350,"[5.00000,0.00000,0.00000]","[1.30000,0.00000,0.00000]",-0.07353,0.02312,-0.05813,0.00000,0.00000,0.04447,-0.03390,-0.18977,0.07607,1.10587,4.99516,0.05861,2.97592,1.90233,1.91578,-3.60601,9.27888,4.93885,-3.65582,9.43304,1.91230,1.91230,57.78152,12.77345,57.78151995,12.77345467,A,130508.50,"[-0.20000,-0.00000,-0.00000]","[-0.10000,-0.00000,-0.00000]",8.37512,0.00000,0.00000,0.00000,0.00000,0.00000
17:39:23.310709,5.01593,0.00961,2.98350,2.98350,"[5.00000,0.00000,0.00000]","[1.30000,0.00000,0.00000]",0.00000,0.02230,-0.06623,0.00000,0.00000,0.06279,-0.03802,-0.15738,0.00494,1.13033,5.00402,0.06593,2.98350,1.92756,1.94053,-3.65582,9.43304,4.93885,-3.65582,9.43304,1.91230,1.91230,57.78152,12.77345,57.78152017,12.77345453,A,130508.50,"[-0.20000,-0.00000,-0.00000]","[-0.10000,-0.00000,-0.00000]",8.40604,0.00000,0.00000,0.00000,0.00000,0.00000
17:39:23.320100,5.02531,0.00795,2.98350,2.98350,"[5.00000,0.00000,0.00000]","[1.30000,0.00000,0.00000]",-0.00139,0.03410,-0.07478,0.00000,0.00000,0.08433,-0.04627,-0.02422,0.01110,1.05225,5.01515,0.06105,2.98350,1.92274,1.94258,-3.66513,9.45706,4.93885,-3.65582,9.43304,1.91230,1.91230,57.78152,12.77345,57.78152155,12.77345368,A,130508.50,"[-0.20000,-0.00000,-0.00000]","[-0.10000,-0.00000,-0.00000]",8.43897,-3.36771,7.73788,1.98129,0.41335,0.03872
17:39:23.328628,5.03384,0.00608,2.98350,2.98350,"[5.00000,0.00000,0.00000]","[1.30000,0.00000,0.00000]",-0.00396,0.03345,-0.07799,0.30600,-0.01687,0.05149,-0.05894,0.10937,-0.06698,0.95014,5.02526,0.03663,2.98350,1.91891,1.93836,-3.67354,9.47861,4.93885,-3.65582,9.43304,1.91230,1.91230,57.78152,12.77345,57.78152174,12.77345353,A,130508.50,"[-0.20000,-0.00000,-0.00000]","[-0.10000,-0.00000,-0.00000]",8.46989,-3.38005,7.76623,1.98129,0.41424,0.04293
17:39:23.369752,5.07496,0.03680,3.04276,3.04276,"[5.00000,0.00000,0.00000]","[1.30000,0.00000,0.00000]",-0.00762,0.03285,-0.08211,0.34566,-0.01760,0.00721,-0.05650,0.08369,-0.11492,0.84412,5.03613,0.00000,2.99536,1.91571,1.93481,-3.68171,9.49986,5.06867,-3.85344,9.95195,1.93466,1.93466,57.78153,12.77345,57.78152193,12.77345340,A,130508.70,"[-0.20000,-0.00000,-0.00000]","[-0.10000,-0.00000,-0.00000]",8.50082,-3.39239,7.79459,1.98129,0.41523,0.04648
17:39:23.382367,5.08758,0.00679,3.04276,3.04276,"[5.00000,0.00000,0.00000]","[1.30000,0.00000,0.00000]",-0.01594,0.04335,-0.08516,0.42476,-0.01611,0.01683,-0.06551,-0.08095,-0.26736,0.97063,5.07861,0.00000,3.00484,1.91771,1.94293,-3.73127,9.62999,5.06867,-3.85344,9.95195,1.93466,1.93466,57.78153,12.77345,57.78152310,12.77345256,A,130508.70,"[-0.20000,-0.00000,-0.00000]","[-0.10000,-0.00000,-0.00000]",8.63047,-3.44413,7.91347,1.98129,0.42172,0.03837
17:39:23.391917,5.09713,0.00612,3.04276,3.04276,"[5.00000,0.00000,0.00000]","[1.30000,0.00000,0.00000]",-0.01940,0.04658,-0.09784,0.42476,-0.01591,0.02538,-0.07238,-0.10791,-0.13280,1.05939,5.08855,0.00000,3.01242,1.91697,1.94407,-3.74584,9.66779,5.06867,-3.85344,9.95195,1.93466,1.93466,57.78153,12.77345,57.78152344,12.77345231,A,130508.70,"[-0.20000,-0.00000,-0.00000]","[-0.10000,-0.00000,-0.00000]",8.66149,-3.45651,7.94191,1.98129,0.42344,0.03722
17:39:23.403781,5.10899,0.00729,3.04276,3.04276,"[5.00000,0.00000,0.00000]","[1.30000,0.00000,0.00000]",-0.02140,0.05131,-0.10593,0.56758,-0.01556,0.05012,-0.07773,-0.16006,-0.01086,1.09678,5.10030,0.00000,3.01849,1.91615,1.94601,-3.76135,9.70785,5.06867,-3.85344,9.95195,1.93466,1.93466,57.78153,12.77345,57.78152380,12.77345205,A,130508.70,"[-0.20000,-0.00000,-0.00000]","[-0.10000,-0.00000,-0.00000]",8.69392,-3.46945,7.97165,1.98129,0.42521,0.03529
17:39:23.412774,5.11799,0.00589,3.04276,3.04276,"[5.00000,0.00000,0.00000]","[1.30000,0.00000,0.00000]",-0.02265,0.05484,-0.09509,0.56758,-0.01556,0.06035,-0.07818,0.04502,0.01879,1.09519,5.10978,0.00000,3.02335,1.91499,1.94691,-3.77376,9.73986,5.06867,-3.85344,9.95195,1.93466,1.93466,57.78153,12.77345,57.78152409,12.77345184,A,130508.70,"[-0.20000,-0.00000,-0.00000]","[-0.10000,-0.00000,-0.00000]",8.72546,-3.48203,8.00056,1.98129,0.42661,0.03439
17:39:23.423601,5.12881,0.00615,3.04276,3.04276,"[5.00000,0.00000,0.00000]","[1.30000,0.00000,0.00000]",-0.02455,0.06076,-0.08257,0.47487,-0.01501,0.04034,-0.07040,0.09589,-0.02068,0.98735,5.12016,0.00000,3.02723,1.91370,1.94905,-3.78682,9.77346,5.06867,-3.85344,9.95195,1.93466,1.93466,57.78153,12.77345,57.78152439,12.77345162,A,130508.70,"[-0.20000,-0.00000,-0.00000]","[-0.10000,-0.00000,-0.00000]",8.75749,-3.49482,8.02994,1.98129,0.42804,0.03224
17:39:23.434520,5.13956,0.00650,3.04276,3.04276,"[5.00000,0.00000,0.00000]","[1.30000,0.00000,0.00000]",-0.02534,0.06611,-0.05844,0.36135,-0.01470,-0.01738,-0.06475,0.30110,0.04124,0.81417,5.13076,0.00000,3.03034,1.91223,1.95071,-3.79924,9.80524,5.06867,-3.85344,9.95195,1.93466,1.93466,57.78153,12.77345,57.78152468,12.77345141,A,130508.70,"[-0.20000,-0.00000,-0.00000]","[-0.10000,-0.00000,-0.00000]",8.78903,-3.50740,8.05885,1.98129,0.42934,0.03058
17:39:23.444459,5.14967,0.00639,3.04276,3.04276,"[5.00000,0.00000,0.00000]","[1.30000,0.00000,0.00000]",-0.02665,0.07052,-0.04576,0.30763,-0.01452,-0.07175,-0.04398,-0.03367,0.00622,0.83832,5.14084,0.00000,3.03282,1.91067,1.95173,-3.81084,9.83485,5.06867,-3.85344,9.95195,1.93466,1.93466,57.78153,12.77345,57.78152495,12.77345122,A,130508.70,"[-0.20000,-0.00000,-0.00000]","[-0.10000,-0.00000,-0.00000]",8.82006,-3.51979,8.08731,1.98129,0.43051,0.02957
17:39:23.454800,5.16001,0.00633,3.04276,3.04276,"[5.00000,0.00000,0.00000]","[1.30000,0.00000,0.00000]",-0.02793,0.07412,-0.03400,0.25774,-0.01443,-0.07129,-0.03603,-0.30878,-0.00598,0.99265,5.15139,0.00000,3.03481,1.90915,1.95230,-3.82212,9.86356,5.06867,-3.85344,9.95195,1.93466,1.93466,57.78153,12.77345,57.78152521,12.77345103,A,130508.70,"[-0.20000,-0.00000,-0.00000]","[-0.10000,-0.00000,-0.00000]",8.85160,-3.53237,8.11623,1.98129,0.43162,0.02899
