Description :  ; walk_time = 2.0 ; speed_up_time = 3.0 ; balancing_time = 0.0
RealTime,Time,CalculationTime,MeasuredVelocity,FilteredVelocity,BalancingGainsInner,BalancingGainsOuter,Roll,SteeringAngle,RollRate,ControlInput,BalancingSetpoint,gy,gz,ax,ay,az,imu_read_timing,SteerMotorCurrent,v_estimated,yaw_estimated,heading_estimated,x_estimated,y_estimated,GPS_timestamp,x_GPS,y_GPS,theta_GPS,theta_GPS_noUnwrap,latitude,longitude,lat_estimated,lon_estimated,status,NMEA timestamp,DirectionGains,LateralPositionGains,distance_travelled,x_ref,y_ref,heading_ref,lateral_error,heading_error
17:28:03.229768,0.06877,0.06873,5.50053,1.50000,"[5.00000,0.00000,0.00000]","[1.30000,0.00000,0.00000]",-0.00000,0.06957,-0.00015,0.00000,0.00000,0.00015,-0.00015,-0.00006,0.00006,-0.00006,0.00001,0.02442,0.00000,-0.04050,0.00000,0.00000,0.00000,0.01886,0.00000,0.00000,0.00000,0.00000,57.78143,12.77350,57.78142667,12.77350033,A,123915.30,"[-0.20000,-0.00000,-0.00000]","[-0.10000,-0.00000,-0.00000]",0.00000,0.00000,0.00000,0.00000,0.00000,0.00000
17:28:03.246671,0.08570,0.00978,5.50053,1.50000,"[5.00000,0.00000,0.00000]","[1.30000,0.00000,0.00000]",-0.00001,0.06957,-0.00015,0.00000,0.00000,0.00015,-0.00015,-0.00006,0.00006,-0.00006,0.07618,0.01709,0.30000,-0.04050,0.00000,0.00000,0.00000,0.01886,0.00000,0.00000,0.00000,0.00000,57.78143,12.77350,57.78142667,12.77350033,A,123915.30,"[-0.20000,-0.00000,-0.00000]","[-0.10000,-0.00000,-0.00000]",0.11377,0.00000,0.00000,0.00000,0.00000,0.00000
17:28:03.258040,0.09707,0.01016,5.50053,1.50000,"[5.00000,0.00000,0.00000]","[1.30000,0.00000,0.00000]",-0.00001,0.06951,-0.00015,0.00000,0.00000,0.00015,-0.00015,-0.00006,0.00006,-0.00006,0.08762,0.02198,0.54000,-0.04035,0.00011,0.00262,0.00000,0.01886,0.00000,0.00000,0.00000,0.00000,57.78143,12.77350,57.78142667,12.77350038,A,123915.30,"[-0.20000,-0.00000,-0.00000]","[-0.10000,-0.00000,-0.00000]",0.13023,0.00000,0.00000,0.00000,0.00000,0.00000
17:28:03.273580,0.11261,0.00977,5.50053,1.50000,"[5.00000,0.00000,0.00000]","[1.30000,0.00000,0.00000]",-0.00002,0.06951,-0.00015,0.00000,0.00000,0.00015,-0.00015,-0.00006,0.00006,-0.00006,0.10320,0.02198,0.73200,-0.03999,0.00047,0.00937,0.00000,0.01886,0.00000,0.00000,0.00000,0.00000,57.78143,12.77350,57.78142667,12.77350049,A,123915.30,"[-0.20000,-0.00000,-0.00000]","[-0.10000,-0.00000,-0.00000]",0.15410,0.00000,0.00000,0.00000,0.00000,0.00000
17:28:03.336055,0.17506,0.06121,5.50053,1.50000,"[5.00000,0.00000,0.00000]","[1.30000,0.00000,0.00000]",-0.00002,0.06951,-0.00015,0.00000,0.00000,0.00015,-0.00015,-0.00006,0.00006,-0.00006,0.11441,0.02198,0.88560,-0.03971,0.00075,0.01537,0.00000,0.13529,-0.03952,0.07413,2.06061,2.06061,57.78143,12.77350,57.78142667,12.77350059,A,123915.40,"[-0.20000,-0.00000,-0.00000]","[-0.10000,-0.00000,-0.00000]",0.17058,0.00000,0.00000,0.00000,0.00000,0.00000
17:28:03.369654,0.20868,0.01893,5.50053,1.50000,"[5.00000,0.00000,0.00000]","[1.30000,0.00000,0.00000]",-0.00003,0.06490,-0.00015,0.00000,0.00000,0.00015,-0.00015,-0.00006,0.00006,-0.00006,0.19567,0.03419,1.00848,0.27338,0.31115,0.08114,0.00376,0.13529,-0.03952,0.07413,2.06061,2.06061,57.78143,12.77350,57.78142670,12.77350170,A,123915.40,"[-0.20000,-0.00000,-0.00000]","[-0.10000,-0.00000,-0.00000]",0.28440,0.00000,0.00000,0.00000,0.00000,0.00000
17:28:03.445917,0.28494,0.06348,5.50053,1.50000,"[5.00000,0.00000,0.00000]","[1.30000,0.00000,0.00000]",-0.00004,0.06408,-0.00015,0.00000,0.00000,0.00015,-0.00015,-0.00006,0.00006,-0.00006,0.22361,0.02930,1.10678,0.53707,0.57436,0.09775,0.01456,0.24815,-0.07904,0.12973,2.18878,2.18878,57.78143,12.77350,57.78142680,12.77350198,A,123915.50,"[-0.20000,-0.00000,-0.00000]","[-0.10000,-0.00000,-0.00000]",0.33192,0.00000,0.00000,0.00000,0.00000,0.00000
17:28:03.461086,0.30012,0.00959,5.50053,1.50000,"[5.00000,0.00000,0.00000]","[1.30000,0.00000,0.00000]",-0.00005,0.06263,-0.00015,0.00000,0.00000,0.00015,-0.00015,-0.00006,0.00006,-0.00006,0.29056,0.01465,1.18543,0.78258,0.81903,0.14306,0.05536,0.24815,-0.07904,0.12973,2.18878,2.18878,57.78143,12.77350,57.78142716,12.77350275,A,123915.50,"[-0.20000,-0.00000,-0.00000]","[-0.10000,-0.00000,-0.00000]",0.43550,0.00000,0.00000,0.00000,0.00000,0.00000
17:28:03.472781,0.31181,0.01020,5.50053,1.50000,"[5.00000,0.00000,0.00000]","[1.30000,0.00000,0.00000]",-0.00005,0.06263,-0.00015,0.00000,0.00000,0.00015,-0.00015,-0.00006,0.00006,-0.00006,0.30222,0.04151,1.24834,0.98858,1.02503,0.13955,0.06721,0.24815,-0.07904,0.12973,2.18878,2.18878,57.78143,12.77350,57.78142727,12.77350269,A,123915.50,"[-0.20000,-0.00000,-0.00000]","[-0.10000,-0.00000,-0.00000]",0.45210,0.00000,0.00000,0.00000,0.00000,0.00000
17:28:03.495061,0.33409,0.01528,5.50053,1.50000,"[5.00000,0.00000,0.00000]","[1.30000,0.00000,0.00000]",-0.00005,0.06263,-0.00015,0.00000,0.00000,0.00015,-0.00015,-0.00006,0.00006,-0.00006,0.32031,0.02198,1.29867,1.16425,1.20070,0.14036,0.08966,0.24815,-0.07904,0.12973,2.18878,2.18878,57.78143,12.77350,57.78142747,12.77350270,A,123915.50,"[-0.20000,-0.00000,-0.00000]","[-0.10000,-0.00000,-0.00000]",0.47786,0.00000,0.00000,0.00000,0.00000,0.00000
17:28:03.588182,0.42668,0.08019,5.50053,1.50000,"[5.00000,0.00000,0.00000]","[1.30000,0.00000,0.00000]",-0.00005,0.06263,-0.00015,0.00000,0.00000,0.00015,-0.00015,-0.00006,0.00006,-0.00006,0.35261,0.02198,1.33894,1.31416,1.35062,0.14204,0.12427,0.38832,-0.16797,0.27799,2.11106,2.11106,57.78143,12.77350,57.78142778,12.77350273,A,123915.70,"[-0.20000,-0.00000,-0.00000]","[-0.10000,-0.00000,-0.00000]",0.51936,0.00000,0.00000,0.00000,0.00000,0.00000
17:28:03.618966,0.45800,0.01770,5.50053,1.50000,"[5.00000,0.00000,0.00000]","[1.30000,0.00000,0.00000]",-0.00007,0.06428,-0.00015,0.00000,0.00000,0.00015,-0.00015,-0.00006,0.00006,-0.00006,0.44453,0.02930,1.37115,1.43360,1.47101,0.15121,0.24220,0.38832,-0.16797,0.27799,2.11106,2.11106,57.78143,12.77350,57.78142884,12.77350288,A,123915.70,"[-0.20000,-0.00000,-0.00000]","[-0.10000,-0.00000,-0.00000]",0.66002,0.00000,0.00000,0.00000,0.00000,0.00000
17:28:03.646972,0.48600,0.01638,5.50053,1.50000,"[5.00000,0.00000,0.00000]","[1.30000,0.00000,0.00000]",-0.00007,0.06764,-0.00015,0.00000,0.00000,0.00015,-0.00015,-0.00006,0.00006,-0.00006,0.47331,0.02198,1.39692,1.53093,1.57030,0.13848,0.27620,0.38832,-0.16797,0.27799,2.11106,2.11106,57.78143,12.77350,57.78142915,12.77350267,A,123915.70,"[-0.20000,-0.00000,-0.00000]","[-0.10000,-0.00000,-0.00000]",0.70398,0.00000,0.00000,0.00000,0.00000,0.00000
17:28:03.729382,0.56777,0.06980,5.50053,1.50000,"[5.00000,0.00000,0.00000]","[1.30000,0.00000,0.00000]",-0.00008,0.07047,-0.00015,0.00000,0.00000,0.00015,-0.00015,-0.00006,0.00006,-0.00006,0.50334,0.01709,1.41754,1.61370,1.65473,0.12318,0.31247,0.52884,-0.20749,0.37065,1.97395,1.97395,57.78143,12.77350,57.78142948,12.77350241,A,123915.80,"[-0.20000,-0.00000,-0.00000]","[-0.10000,-0.00000,-0.00000]",0.74531,0.00000,0.00000,0.00000,0.00000,0.00000
17:28:03.758757,0.59778,0.01543,5.50053,1.50000,"[5.00000,0.00000,0.00000]","[1.30000,0.00000,0.00000]",-0.00009,0.07206,-0.00015,0.00000,0.00000,0.00015,-0.00015,-0.00006,0.00006,-0.00006,0.58492,0.02198,1.43403,1.66713,1.70908,0.09797,0.41851,0.52884,-0.20749,0.37065,1.97395,1.97395,57.78143,12.77350,57.78143043,12.77350199,A,123915.80,"[-0.20000,-0.00000,-0.00000]","[-0.10000,-0.00000,-0.00000]",0.87185,0.00000,0.00000,0.00000,0.00000,0.00000
17:28:03.787940,0.62697,0.01781,5.50053,1.50000,"[5.00000,0.00000,0.00000]","[1.30000,0.00000,0.00000]",-0.00009,0.07206,-0.00015,0.00000,0.00000,0.00015,-0.00015,-0.00006,0.00006,-0.00006,0.61429,0.01465,1.44722,1.70880,1.75075,0.07792,0.45044,0.52884,-0.20749,0.37065,1.97395,1.97395,57.78143,12.77350,57.78143072,12.77350165,A,123915.80,"[-0.20000,-0.00000,-0.00000]","[-0.10000,-0.00000,-0.00000]",0.91203,0.00000,0.00000,0.00000,0.00000,0.00000
17:28:03.883181,0.72138,0.07999,5.50053,1.50000,"[5.00000,0.00000,0.00000]","[1.30000,0.00000,0.00000]",-0.00010,0.07206,-0.00015,0.00000,0.00000,0.00015,-0.00015,-0.00006,0.00006,-0.00006,0.64509,0.02198,1.45778,1.74458,1.78653,0.05633,0.48668,0.68199,-0.29642,0.55597,2.01818,2.01818,57.78143,12.77350,57.78143104,12.77350128,A,123916.00,"[-0.20000,-0.00000,-0.00000]","[-0.10000,-0.00000,-0.00000]",0.96034,0.00000,0.00000,0.00000,0.00000,0.00000
17:28:03.914274,0.75328,0.01789,5.50053,1.50000,"[5.00000,0.00000,0.00000]","[1.30000,0.00000,0.00000]",-0.00011,0.07206,-0.00015,0.00000,0.00000,0.00015,-0.00015,-0.00006,0.00006,-0.00006,0.74026,0.01221,1.46622,1.78634,1.82829,0.01194,0.61220,0.68199,-0.29642,0.55597,2.01818,2.01818,57.78143,12.77350,57.78143217,12.77350053,A,123916.00,"[-0.20000,-0.00000,-0.00000]","[-0.10000,-0.00000,-0.00000]",1.10131,0.00000,0.00000,0.00000,0.00000,0.00000
17:28:03.997289,0.83628,0.07145,5.50053,1.50000,"[5.00000,0.00000,0.00000]","[1.30000,0.00000,0.00000]",-0.00012,0.07206,-0.00015,0.00000,0.00000,0.00015,-0.00015,-0.00006,0.00006,-0.00006,0.77137,0.02198,1.47298,1.81707,1.85902,-0.01369,0.64816,0.79659,-0.33594,0.64864,1.97395,1.97395,57.78143,12.77349,57.78143250,12.77350010,A,123916.10,"[-0.20000,-0.00000,-0.00000]","[-0.10000,-0.00000,-0.00000]",1.14544,0.00000,0.00000,0.00000,0.00000,0.00000
17:28:04.024538,0.86332,0.01402,0.92002,0.92002,"[5.00000,0.00000,0.00000]","[1.30000,0.00000,0.00000]",-0.00013,0.07206,-0.00015,0.00000,0.00000,0.00015,-0.00015,-0.00006,0.00006,-0.00006,0.85063,0.01465,1.36239,1.84024,1.88218,-0.05980,0.74939,0.79659,-0.33594,0.64864,1.97395,1.97395,57.78143,12.77349,57.78143341,12.77349932,A,123916.10,"[-0.20000,-0.00000,-0.00000]","[-0.10000,-0.00000,-0.00000]",1.27210,0.00000,0.00000,0.00000,0.00000,0.00000
17:28:04.053425,0.89245,0.01567,0.92002,0.92002,"[5.00000,0.00000,0.00000]","[1.30000,0.00000,0.00000]",-0.00013,0.07206,-0.00015,0.00000,0.00000,0.00015,-0.00015,-0.00006,0.00006,-0.00006,0.87804,0.02442,1.27391,1.85580,1.89775,-0.08345,0.77492,0.79659,-0.33594,0.64864,1.97395,1.97395,57.78143,12.77349,57.78143364,12.77349893,A,123916.10,"[-0.20000,-0.00000,-0.00000]","[-0.10000,-0.00000,-0.00000]",1.29735,0.00000,0.00000,0.00000,0.00000,0.00000
17:28:04.132759,0.97176,0.06643,0.92002,1.50000,"[5.00000,0.00000,0.00000]","[1.30000,0.00000,0.00000]",-0.00014,0.07206,-0.00015,0.00000,0.00000,0.00015,-0.00015,-0.00006,0.00006,-0.00006,0.90685,0.01465,1.20313,1.86882,1.91077,-0.10515,0.79536,0.93077,-0.38534,0.75983,1.98889,1.98889,57.78143,12.77349,57.78143382,12.77349856,A,123916.20,"[-0.20000,-0.00000,-0.00000]","[-0.10000,-0.00000,-0.00000]",1.32361,0.00000,0.00000,0.00000,0.00000,0.00000
17:28:04.161414,1.00043,0.01327,0.92002,0.92002,"[5.00000,0.00000,0.00000]","[1.30000,0.00000,0.00000]",-0.00015,0.08474,-0.00015,0.00000,0.00000,0.00015,-0.00015,-0.00006,0.00006,-0.00006,0.98626,0.02686,1.14651,1.88436,1.93371,-0.14845,0.87640,0.93077,-0.38534,0.75983,1.98889,1.98889,57.78143,12.77349,57.78143455,12.77349783,A,123916.20,"[-0.20000,-0.00000,-0.00000]","[-0.10000,-0.00000,-0.00000]",1.44632,0.00000,0.00000,0.00000,0.00000,0.00000
17:28:04.190085,1.02911,0.01552,0.92002,0.92002,"[5.00000,0.00000,0.00000]","[1.30000,0.00000,0.00000]",-0.00015,0.08881,-0.00015,0.00000,0.00000,0.00015,-0.00015,-0.00006,0.00006,-0.00006,1.01416,0.01709,1.10121,1.89417,1.94590,-0.17047,0.89736,0.93077,-0.38534,0.75983,1.98889,1.98889,57.78143,12.77349,57.78143474,12.77349746,A,123916.20,"[-0.20000,-0.00000,-0.00000]","[-0.10000,-0.00000,-0.00000]",1.47062,0.00000,0.00000,0.00000,0.00000,0.00000
17:28:04.278437,1.11745,0.07547,0.92002,1.50000,"[5.00000,0.00000,0.00000]","[1.30000,0.00000,0.00000]",-0.00016,0.09269,-0.00015,0.00000,0.00000,0.00015,-0.00015,-0.00006,0.00006,-0.00006,1.04224,0.01465,1.06497,1.90196,1.95596,-0.19012,0.91311,1.07872,-0.46439,0.94516,1.97395,1.97395,57.78144,12.77349,57.78143488,12.77349713,A,123916.40,"[-0.20000,-0.00000,-0.00000]","[-0.10000,-0.00000,-0.00000]",1.49670,0.00000,0.00000,0.00000,0.00000,0.00000
17:28:04.303279,1.14231,0.01339,0.92002,0.92002,"[5.00000,0.00000,0.00000]","[1.30000,0.00000,0.00000]",-0.00017,0.09634,-0.00015,0.00000,0.00000,0.00015,-0.00015,-0.00006,0.00006,-0.00006,1.12928,0.02198,1.03598,1.91037,1.96651,-0.23523,0.99215,1.07872,-0.46439,0.94516,1.97395,1.97395,57.78144,12.77349,57.78143559,12.77349637,A,123916.40,"[-0.20000,-0.00000,-0.00000]","[-0.10000,-0.00000,-0.00000]",1.62708,0.00000,0.00000,0.00000,0.00000,0.00000
17:28:04.332921,1.17194,0.01713,0.92002,0.92002,"[5.00000,0.00000,0.00000]","[1.30000,0.00000,0.00000]",-0.00018,0.09674,-0.00015,0.00000,0.00000,0.00015,-0.00015,-0.00006,0.00006,-0.00006,1.15674,0.02198,1.01279,1.91339,1.96976,-0.25662,1.01358,1.07872,-0.46439,0.94516,1.97395,1.97395,57.78144,12.77349,57.78143578,12.77349600,A,123916.40,"[-0.20000,-0.00000,-0.00000]","[-0.10000,-0.00000,-0.00000]",1.65087,0.00000,0.00000,0.00000,0.00000,0.00000
17:28:04.411689,1.25045,0.06616,0.92002,1.50000,"[5.00000,0.00000,0.00000]","[1.30000,0.00000,0.00000]",-0.00018,0.09694,-0.00015,0.00000,0.00000,0.00015,-0.00015,-0.00006,0.00006,-0.00006,1.18423,0.02686,0.99423,1.91562,1.97210,-0.27534,1.02992,1.20898,-0.50391,1.07488,1.86652,1.86652,57.78144,12.77349,57.78143593,12.77349569,A,123916.50,"[-0.20000,-0.00000,-0.00000]","[-0.10000,-0.00000,-0.00000]",1.67798,0.00000,0.00000,0.00000,0.00000,0.00000
17:28:04.439075,1.27810,0.01539,0.92002,0.92002,"[5.00000,0.00000,0.00000]","[1.30000,0.00000,0.00000]",-0.00019,0.09694,-0.00015,0.00000,0.00000,0.00015,-0.00015,-0.00006,0.00006,-0.00006,1.26400,0.01709,0.97939,1.90532,1.96181,-0.31543,1.09971,1.20898,-0.50391,1.07488,1.86652,1.86652,57.78144,12.77349,57.78143656,12.77349501,A,123916.50,"[-0.20000,-0.00000,-0.00000]","[-0.10000,-0.00000,-0.00000]",1.79557,0.00000,0.00000,0.00000,0.00000,0.00000
17:28:04.465476,1.30450,0.01476,0.92002,0.92002,"[5.00000,0.00000,0.00000]","[1.30000,0.00000,0.00000]",-0.00020,0.09694,-0.00015,0.00000,0.00000,0.00015,-0.00015,-0.00006,0.00006,-0.00006,1.29168,0.02930,0.96751,1.89265,1.94914,-0.33304,1.11833,1.20898,-0.50391,1.07488,1.86652,1.86652,57.78144,12.77349,57.78143672,12.77349472,A,123916.50,"[-0.20000,-0.00000,-0.00000]","[-0.10000,-0.00000,-0.00000]",1.82042,0.00000,0.00000,0.00000,0.00000,0.00000
17:28:04.545043,1.38377,0.06610,0.92002,1.50000,"[5.00000,0.00000,0.00000]","[1.30000,0.00000,0.00000]",-0.00020,0.09694,-0.00015,0.00000,0.00000,0.00015,-0.00015,-0.00006,0.00006,-0.00006,1.31733,0.02442,0.95802,1.88190,1.93839,-0.34962,1.13639,1.34246,-0.54343,1.16755,1.97395,1.97395,57.78144,12.77349,57.78143689,12.77349444,A,123916.60,"[-0.20000,-0.00000,-0.00000]","[-0.10000,-0.00000,-0.00000]",1.84609,0.00000,0.00000,0.00000,0.00000,0.00000
17:28:04.570195,1.40922,0.01243,0.92002,0.92002,"[5.00000,0.00000,0.00000]","[1.30000,0.00000,0.00000]",-0.00021,0.09694,-0.00015,0.00000,0.00000,0.00015,-0.00015,-0.00006,0.00006,-0.00006,1.39613,0.02930,0.95042,1.89241,1.94890,-0.38393,1.20187,1.34246,-0.54343,1.16755,1.97395,1.97395,57.78144,12.77349,57.78143748,12.77349386,A,123916.60,"[-0.20000,-0.00000,-0.00000]","[-0.10000,-0.00000,-0.00000]",1.96473,0.00000,0.00000,0.00000,0.00000,0.00000
17:28:04.596869,1.43589,0.01224,0.92002,0.92002,"[5.00000,0.00000,0.00000]","[1.30000,0.00000,0.00000]",-0.00022,0.09694,-0.00015,0.00000,0.00000,0.00015,-0.00015,-0.00006,0.00006,-0.00006,1.42257,0.02930,0.94434,1.89770,1.95418,-0.39936,1.21892,1.34246,-0.54343,1.16755,1.97395,1.97395,57.78144,12.77349,57.78143763,12.77349360,A,123916.60,"[-0.20000,-0.00000,-0.00000]","[-0.10000,-0.00000,-0.00000]",1.98942,0.00000,0.00000,0.00000,0.00000,0.00000
17:28:04.683218,1.52223,0.07259,1.11288,1.50000,"[5.00000,0.00000,0.00000]","[1.30000,0.00000,0.00000]",-0.00022,0.09694,-0.00015,0.00000,0.00000,0.00015,-0.00015,-0.00006,0.00006,-0.00006,1.44900,0.02930,0.97804,1.90221,1.95870,-0.41424,1.23538,1.48421,-0.64224,1.42700,1.93466,1.93466,57.78144,12.77349,57.78143778,12.77349335,A,123916.80,"[-0.20000,-0.00000,-0.00000]","[-0.10000,-0.00000,-0.00000]",2.01330,0.00000,0.00000,0.00000,0.00000,0.00000
17:28:04.709064,1.54809,0.01383,1.11288,1.11288,"[5.00000,0.00000,0.00000]","[1.30000,0.00000,0.00000]",-0.00023,0.09626,-0.00015,0.00000,0.00000,0.00015,-0.00015,-0.00006,0.00006,-0.00006,1.53524,0.02442,1.00501,1.90446,1.96054,-0.45464,1.31593,1.48421,-0.64224,1.42700,1.93466,1.93466,57.78144,12.77349,57.78143850,12.77349266,A,123916.80,"[-0.20000,-0.00000,-0.00000]","[-0.10000,-0.00000,-0.00000]",2.14020,0.00000,0.00000,0.00000,0.00000,0.00000
17:28:04.737201,1.57623,0.01557,1.11288,1.11288,"[5.00000,0.00000,0.00000]","[1.30000,0.00000,0.00000]",-0.00024,0.09464,-0.00015,0.00000,0.00000,0.00015,-0.00015,-0.00006,0.00006,-0.00006,1.56231,0.02442,1.02658,1.90248,1.95762,-0.47293,1.34318,1.48421,-0.64224,1.42700,1.93466,1.93466,57.78144,12.77349,57.78143875,12.77349236,A,123916.80,"[-0.20000,-0.00000,-0.00000]","[-0.10000,-0.00000,-0.00000]",2.16955,0.00000,0.00000,0.00000,0.00000,0.00000
17:28:04.814494,1.65349,0.06478,1.11288,1.50000,"[5.00000,0.00000,0.00000]","[1.30000,0.00000,0.00000]",-0.00024,0.09218,-0.00015,0.00000,0.00000,0.00015,-0.00015,-0.00006,0.00006,-0.00006,1.58908,0.00977,1.04384,1.90092,1.95463,-0.48996,1.36839,1.61481,-0.68176,1.51966,1.97395,1.97395,57.78144,12.77349,57.78143897,12.77349207,A,123916.90,"[-0.20000,-0.00000,-0.00000]","[-0.10000,-0.00000,-0.00000]",2.20075,0.00000,0.00000,0.00000,0.00000,0.00000
17:28:04.841573,1.68058,0.01375,1.11288,1.11288,"[5.00000,0.00000,0.00000]","[1.30000,0.00000,0.00000]",-0.00025,0.08813,-0.00015,0.00000,0.00000,0.00015,-0.00015,-0.00006,0.00006,-0.00006,1.66790,0.02442,1.05765,1.90944,1.96078,-0.52701,1.44395,1.61481,-0.68176,1.51966,1.97395,1.97395,57.78144,12.77349,57.78143965,12.77349144,A,123916.90,"[-0.20000,-0.00000,-0.00000]","[-0.10000,-0.00000,-0.00000]",2.31790,0.00000,0.00000,0.00000,0.00000,0.00000
17:28:04.868987,1.70801,0.01448,1.11288,1.11288,"[5.00000,0.00000,0.00000]","[1.30000,0.00000,0.00000]",-0.00026,0.08813,-0.00015,0.00000,0.00000,0.00015,-0.00015,-0.00006,0.00006,-0.00006,1.69470,0.02198,1.06869,1.91306,1.96440,-0.54382,1.46982,1.61481,-0.68176,1.51966,1.97395,1.97395,57.78144,12.77349,57.78143989,12.77349116,A,123916.90,"[-0.20000,-0.00000,-0.00000]","[-0.10000,-0.00000,-0.00000]",2.34758,0.00000,0.00000,0.00000,0.00000,0.00000
17:28:04.951989,1.79098,0.07004,1.11288,1.50000,"[5.00000,0.00000,0.00000]","[1.30000,0.00000,0.00000]",-0.00026,0.08751,-0.00015,0.00000,0.00000,0.00015,-0.00015,-0.00006,0.00006,-0.00006,1.72077,0.01954,1.07753,1.91615,1.96713,-0.55969,1.49392,1.74683,-0.72128,1.63086,1.91230,1.91230,57.78144,12.77349,57.78144010,12.77349089,A,123917.00,"[-0.20000,-0.00000,-0.00000]","[-0.10000,-0.00000,-0.00000]",2.37805,0.00000,0.00000,0.00000,0.00000,0.00000
17:28:04.979933,1.81896,0.01317,1.11288,1.11288,"[5.00000,0.00000,0.00000]","[1.30000,0.00000,0.00000]",-0.00027,0.08267,-0.00015,0.00000,0.00000,0.00015,-0.00015,-0.00006,0.00006,-0.00006,1.80518,0.02686,1.08460,1.91391,1.96206,-0.59926,1.57600,1.74683,-0.72128,1.63086,1.91230,1.91230,57.78144,12.77349,57.78144084,12.77349023,A,123917.00,"[-0.20000,-0.00000,-0.00000]","[-0.10000,-0.00000,-0.00000]",2.50530,0.00000,0.00000,0.00000,0.00000,0.00000
17:28:05.058047,1.89673,0.06505,1.11288,1.50000,"[5.00000,0.00000,0.00000]","[1.30000,0.00000,0.00000]",-0.00028,0.07933,-0.00015,0.00000,0.00000,0.00015,-0.00015,-0.00006,0.00006,-0.00006,1.83311,0.04640,1.09026,1.90839,1.95458,-0.61509,1.60235,1.85856,-0.75093,1.72352,1.88040,1.88040,57.78144,12.77349,57.78144108,12.77348996,A,123917.10,"[-0.20000,-0.00000,-0.00000]","[-0.10000,-0.00000,-0.00000]",2.53408,0.00000,0.00000,0.00000,0.00000,0.00000
17:28:05.084075,1.92311,0.01293,1.11288,1.11288,"[5.00000,0.00000,0.00000]","[1.30000,0.00000,0.00000]",-0.00029,0.07025,-0.00015,0.00000,0.00000,0.00015,-0.00015,-0.00006,0.00006,-0.00006,1.91019,0.01465,1.09478,1.90265,1.94354,-0.64973,1.67736,1.85856,-0.75093,1.72352,1.88040,1.88040,57.78144,12.77349,57.78144175,12.77348937,A,123917.10,"[-0.20000,-0.00000,-0.00000]","[-0.10000,-0.00000,-0.00000]",2.65179,0.00000,0.00000,0.00000,0.00000,0.00000
17:28:05.110699,1.94973,0.01300,1.11288,1.11288,"[5.00000,0.00000,0.00000]","[1.30000,0.00000,0.00000]",-0.00029,0.06544,-0.00015,0.00000,0.00000,0.00015,-0.00015,-0.00006,0.00006,-0.00006,1.93628,0.01709,1.09840,1.89491,1.93300,-0.66354,1.70204,1.85856,-0.75093,1.72352,1.88040,1.88040,57.78144,12.77349,57.78144197,12.77348914,A,123917.10,"[-0.20000,-0.00000,-0.00000]","[-0.10000,-0.00000,-0.00000]",2.68131,0.00000,0.00000,0.00000,0.00000,0.00000
17:28:05.197020,2.03539,0.07231,1.11288,1.50000,"[5.00000,0.00000,0.00000]","[1.30000,0.00000,0.00000]",-0.00030,0.06147,-0.00015,0.00000,0.00000,0.00015,-0.00015,-0.00006,0.00006,-0.00006,1.96247,0.02930,1.10129,1.88857,1.92435,-0.67625,1.72513,1.99713,-0.83985,1.94591,1.95118,1.95118,57.78144,12.77349,57.78144218,12.77348893,A,123917.30,"[-0.20000,-0.00000,-0.00000]","[-0.10000,-0.00000,-0.00000]",2.71060,0.00000,0.00000,0.00000,0.00000,0.00000
17:28:05.229738,2.06874,0.01798,1.21250,1.21250,"[5.00000,0.00000,0.00000]","[1.30000,0.00000,0.00000]",-0.00031,0.05117,-0.00015,0.00000,0.00000,0.00015,-0.00015,-0.00006,0.00006,-0.00006,2.05219,0.02442,1.12353,1.89783,1.92761,-0.71580,1.82118,1.99713,-0.83985,1.94591,1.95118,1.95118,57.78144,12.77349,57.78144304,12.77348826,A,123917.30,"[-0.20000,-0.00000,-0.00000]","[-0.10000,-0.00000,-0.00000]",2.84208,0.00000,0.00000,0.00000,0.00000,0.00000
17:28:05.257802,2.09683,0.01458,1.21250,1.21250,"[5.00000,0.00000,0.00000]","[1.30000,0.00000,0.00000]",-0.00031,0.04783,-0.00015,0.00000,0.00000,0.00015,-0.00015,-0.00006,0.00006,-0.00006,2.08327,0.04884,1.14133,1.90286,1.93068,-0.73248,1.85551,1.99713,-0.83985,1.94591,1.95118,1.95118,57.78144,12.77349,57.78144335,12.77348798,A,123917.30,"[-0.20000,-0.00000,-0.00000]","[-0.10000,-0.00000,-0.00000]",2.88023,0.00000,0.00000,0.00000,0.00000,0.00000
17:28:05.338786,2.17747,0.06810,1.21250,1.50000,"[5.00000,0.00000,0.00000]","[1.30000,0.00000,0.00000]",-0.00032,0.04630,-0.00015,0.00000,0.00000,0.00015,-0.00015,-0.00006,0.00006,-0.00006,2.10971,0.03175,1.15556,1.90709,1.93403,-0.74759,1.88593,2.13543,-0.88925,2.05711,1.98889,1.98889,57.78145,12.77349,57.78144363,12.77348772,A,123917.40,"[-0.20000,-0.00000,-0.00000]","[-0.10000,-0.00000,-0.00000]",2.91309,0.00000,0.00000,0.00000,0.00000,0.00000
17:28:05.370539,2.20955,0.01920,10.82551,1.50000,"[5.00000,0.00000,0.00000]","[1.30000,0.00000,0.00000]",-0.00033,0.03926,-0.00015,0.00000,0.00000,0.00015,-0.00015,-0.00006,0.00006,-0.00006,2.19624,0.03175,1.22445,1.91916,1.94199,-0.78640,1.97795,2.13543,-0.88925,2.05711,1.98889,1.98889,57.78145,12.77349,57.78144445,12.77348707,A,123917.40,"[-0.20000,-0.00000,-0.00000]","[-0.10000,-0.00000,-0.00000]",3.03452,0.00000,0.00000,0.00000,0.00000,0.00000
17:28:05.449651,2.28868,0.06703,10.82551,1.50000,"[5.00000,0.00000,0.00000]","[1.30000,0.00000,0.00000]",-0.00034,0.03586,-0.00015,0.00000,0.00000,0.00015,-0.00015,-0.00006,0.00006,-0.00006,2.22317,0.02686,1.27956,1.92739,1.94825,-0.80226,2.00945,2.24881,-0.92878,2.14977,1.97395,1.97395,57.78145,12.77348,57.78144474,12.77348680,A,123917.50,"[-0.20000,-0.00000,-0.00000]","[-0.10000,-0.00000,-0.00000]",3.08142,0.00000,0.00000,0.00000,0.00000,0.00000
17:28:05.478807,2.31784,0.01664,10.82551,1.50000,"[5.00000,0.00000,0.00000]","[1.30000,0.00000,0.00000]",-0.00035,0.02409,-0.00015,0.00000,0.00000,0.00015,-0.00015,-0.00006,0.00006,-0.00006,2.30366,0.02198,1.32365,1.93487,1.94888,-0.84290,2.10301,2.24881,-0.92878,2.14977,1.97395,1.97395,57.78145,12.77348,57.78144558,12.77348612,A,123917.50,"[-0.20000,-0.00000,-0.00000]","[-0.10000,-0.00000,-0.00000]",3.20071,0.00000,0.00000,0.00000,0.00000,0.00000
17:28:05.507101,2.34613,0.01590,10.82551,1.50000,"[5.00000,0.00000,0.00000]","[1.30000,0.00000,0.00000]",-0.00035,0.02083,-0.00015,0.00000,0.00000,0.00015,-0.00015,-0.00006,0.00006,-0.00006,2.33328,0.04151,1.35892,1.93952,1.95163,-0.85896,2.13498,2.24881,-0.92878,2.14977,1.97395,1.97395,57.78145,12.77348,57.78144587,12.77348584,A,123917.50,"[-0.20000,-0.00000,-0.00000]","[-0.10000,-0.00000,-0.00000]",3.24423,0.00000,0.00000,0.00000,0.00000,0.00000
17:28:05.601339,2.43985,0.08021,10.82551,1.50000,"[5.00000,0.00000,0.00000]","[1.30000,0.00000,0.00000]",-0.00036,0.01939,-0.00015,0.00000,0.00000,0.00015,-0.00015,-0.00006,0.00006,-0.00006,2.36364,0.03419,1.38713,1.94357,1.95484,-0.87565,2.16869,2.39883,-1.01770,2.33509,2.01818,2.01818,57.78145,12.77348,57.78144617,12.77348556,A,123917.70,"[-0.20000,-0.00000,-0.00000]","[-0.10000,-0.00000,-0.00000]",3.28831,0.00000,0.00000,0.00000,0.00000,0.00000
17:28:05.633233,2.47226,0.01542,10.82551,1.50000,"[5.00000,0.00000,0.00000]","[1.30000,0.00000,0.00000]",-0.00037,0.01899,-0.00015,0.00000,0.00000,0.00015,-0.00015,-0.00006,0.00006,-0.00006,2.45833,0.00733,1.40971,1.95490,1.96594,-0.92738,2.28742,2.39883,-1.01770,2.33509,2.01818,2.01818,57.78145,12.77348,57.78144724,12.77348469,A,123917.70,"[-0.20000,-0.00000,-0.00000]","[-0.10000,-0.00000,-0.00000]",3.43406,0.00000,0.00000,0.00000,0.00000,0.00000
17:28:05.717974,2.55698,0.07261,10.82551,1.50000,"[5.00000,0.00000,0.00000]","[1.30000,0.00000,0.00000]",-0.00038,0.01899,-0.00015,0.00000,0.00000,0.00015,-0.00015,-0.00006,0.00006,-0.00006,2.49244,0.01709,1.42777,1.96336,1.97440,-0.94808,2.32863,2.51741,-1.07699,2.44629,2.06061,2.06061,57.78145,12.77348,57.78144761,12.77348434,A,123917.80,"[-0.20000,-0.00000,-0.00000]","[-0.10000,-0.00000,-0.00000]",3.47532,0.00000,0.00000,0.00000,0.00000,0.00000
17:28:05.749497,2.58853,0.01909,10.82551,1.50000,"[5.00000,0.00000,0.00000]","[1.30000,0.00000,0.00000]",-0.00039,0.01899,-0.00015,0.00000,0.00000,0.00015,-0.00015,-0.00006,0.00006,-0.00006,2.57389,0.00488,1.44221,1.97784,1.98889,-0.99584,2.43124,2.51741,-1.07699,2.44629,2.06061,2.06061,57.78145,12.77348,57.78144853,12.77348354,A,123917.80,"[-0.20000,-0.00000,-0.00000]","[-0.10000,-0.00000,-0.00000]",3.60287,0.00000,0.00000,0.00000,0.00000,0.00000
17:28:05.779550,2.61857,0.01954,10.82551,1.50000,"[5.00000,0.00000,0.00000]","[1.30000,0.00000,0.00000]",-0.00039,0.01939,-0.00015,0.00000,0.00000,0.00015,-0.00015,-0.00006,0.00006,-0.00006,2.60465,0.00733,1.45377,1.98908,2.00036,-1.01411,2.46400,2.51741,-1.07699,2.44629,2.06061,2.06061,57.78145,12.77348,57.78144883,12.77348323,A,123917.80,"[-0.20000,-0.00000,-0.00000]","[-0.10000,-0.00000,-0.00000]",3.64564,0.00000,0.00000,0.00000,0.00000,0.00000
17:28:05.858439,2.69744,0.06499,10.82551,1.50000,"[5.00000,0.00000,0.00000]","[1.30000,0.00000,0.00000]",-0.00040,0.02159,-0.00015,0.00000,0.00000,0.00015,-0.00015,-0.00006,0.00006,-0.00006,2.63399,0.01221,1.46302,1.99848,2.01104,-1.03253,2.49644,2.65994,-1.11651,2.53895,1.97395,1.97395,57.78145,12.77348,57.78144912,12.77348292,A,123917.90,"[-0.20000,-0.00000,-0.00000]","[-0.10000,-0.00000,-0.00000]",3.69573,0.00000,0.00000,0.00000,0.00000,0.00000
17:28:05.885755,2.72478,0.01546,10.82551,1.50000,"[5.00000,0.00000,0.00000]","[1.30000,0.00000,0.00000]",-0.00041,0.02932,-0.00015,0.00000,0.00000,0.00015,-0.00015,-0.00006,0.00006,-0.00006,2.71052,0.00977,1.47041,1.99393,2.01099,-1.07958,2.58954,2.65994,-1.11651,2.53895,1.97395,1.97395,57.78145,12.77348,57.78144995,12.77348212,A,123917.90,"[-0.20000,-0.00000,-0.00000]","[-0.10000,-0.00000,-0.00000]",3.81100,0.00000,0.00000,0.00000,0.00000,0.00000
17:28:05.919035,2.75807,0.01997,10.82551,1.50000,"[5.00000,0.00000,0.00000]","[1.30000,0.00000,0.00000]",-0.00041,0.03391,-0.00015,0.00000,0.00000,0.00015,-0.00015,-0.00006,0.00006,-0.00006,2.74362,0.00488,1.47633,1.98895,2.00867,-1.09957,2.62552,2.65994,-1.11651,2.53895,1.97395,1.97395,57.78145,12.77348,57.78145028,12.77348179,A,123917.90,"[-0.20000,-0.00000,-0.00000]","[-0.10000,-0.00000,-0.00000]",3.85333,0.00000,0.00000,0.00000,0.00000,0.00000
17:28:06.012863,2.85188,0.07490,1.13021,1.50000,"[5.00000,0.00000,0.00000]","[1.30000,0.00000,0.00000]",-0.00042,0.03793,-0.00015,0.00000,0.00000,0.00015,-0.00015,-0.00006,0.00006,-0.00006,2.77635,0.00733,1.40711,1.98446,2.00652,-1.11765,2.65801,2.81179,-1.22520,2.74281,2.06061,2.06061,57.78145,12.77348,57.78145057,12.77348148,A,123918.10,"[-0.20000,-0.00000,-0.00000]","[-0.10000,-0.00000,-0.00000]",3.91162,0.00000,0.00000,0.00000,0.00000,0.00000
17:28:06.041715,2.88071,0.01519,1.13021,1.13021,"[5.00000,0.00000,0.00000]","[1.30000,0.00000,0.00000]",-0.00043,0.04582,-0.00015,0.00000,0.00000,0.00015,-0.00015,-0.00006,0.00006,-0.00006,2.86661,0.00488,1.35173,1.99535,2.02201,-1.17259,2.76870,2.81179,-1.22520,2.74281,2.06061,2.06061,57.78145,12.77348,57.78145157,12.77348055,A,123918.10,"[-0.20000,-0.00000,-0.00000]","[-0.10000,-0.00000,-0.00000]",4.04439,0.00000,0.00000,0.00000,0.00000,0.00000
17:28:06.069364,2.90839,0.01601,1.13021,1.13021,"[5.00000,0.00000,0.00000]","[1.30000,0.00000,0.00000]",-0.00044,0.04843,-0.00015,0.00000,0.00000,0.00015,-0.00015,-0.00006,0.00006,-0.00006,2.89321,0.00000,1.30743,2.00198,2.03016,-1.18826,2.79431,2.81179,-1.22520,2.74281,2.06061,2.06061,57.78145,12.77348,57.78145180,12.77348029,A,123918.10,"[-0.20000,-0.00000,-0.00000]","[-0.10000,-0.00000,-0.00000]",4.07472,0.00000,0.00000,0.00000,0.00000,0.00000
17:28:06.148077,2.98709,0.06674,1.13021,1.50000,"[5.00000,0.00000,0.00000]","[1.30000,0.00000,0.00000]",-0.00044,0.05075,-0.00015,0.00000,0.00000,0.00015,-0.00015,-0.00006,0.00006,-0.00006,2.92094,0.00244,1.27198,2.00742,2.03695,-1.20275,2.81731,2.94559,-1.27460,2.85400,1.98889,1.98889,57.78145,12.77348,57.78145200,12.77348005,A,123918.20,"[-0.20000,-0.00000,-0.00000]","[-0.10000,-0.00000,-0.00000]",4.10631,0.00000,0.00000,0.00000,0.00000,0.00000
17:28:06.176771,3.01579,0.01388,1.13021,1.13021,"[5.00000,0.00000,0.00000]","[1.30000,0.00000,0.00000]",-0.00045,0.05632,-0.00015,0.00000,0.00000,0.00015,-0.00015,-0.00006,0.00006,-0.00006,3.00205,0.00244,1.24363,2.00348,2.03625,-1.24903,2.90397,2.94559,-1.27460,2.85400,1.98889,1.98889,57.78145,12.77348,57.78145278,12.77347926,A,123918.20,"[-0.20000,-0.00000,-0.00000]","[-0.10000,-0.00000,-0.00000]",4.22862,0.00000,0.00000,0.00000,0.00000,0.00000
17:28:06.202188,3.04122,0.01485,1.13021,1.13021,"[5.00000,0.00000,0.00000]","[1.30000,0.00000,0.00000]",-0.00046,0.05661,-0.00015,0.00000,0.00000,0.00015,-0.00015,-0.00006,0.00006,-0.00006,3.02744,0.02442,1.22095,1.99751,2.03044,-1.26213,2.92502,2.94559,-1.27460,2.85400,1.98889,1.98889,57.78145,12.77348,57.78145297,12.77347904,A,123918.20,"[-0.20000,-0.00000,-0.00000]","[-0.10000,-0.00000,-0.00000]",4.25623,0.00000,0.00000,0.00000,0.00000,0.00000
17:28:06.286282,3.12531,0.07202,1.13021,1.50000,"[5.00000,0.00000,0.00000]","[1.30000,0.00000,0.00000]",-0.00046,0.05661,-0.00015,0.00000,0.00000,0.00015,-0.00015,-0.00006,0.00006,-0.00006,3.05281,0.01465,1.20280,1.99240,2.02534,-1.27409,2.94438,3.08915,-1.41293,3.15052,2.00729,2.00729,57.78146,12.77348,57.78145315,12.77347884,A,123918.40,"[-0.20000,-0.00000,-0.00000]","[-0.10000,-0.00000,-0.00000]",4.28663,0.00000,0.00000,0.00000,0.00000,0.00000
17:28:06.315673,3.15470,0.01403,1.13021,1.13021,"[5.00000,0.00000,0.00000]","[1.30000,0.00000,0.00000]",-0.00047,0.05661,-0.00015,0.00000,0.00000,0.00015,-0.00015,-0.00006,0.00006,-0.00006,3.13996,0.00244,1.18828,1.99388,2.02682,-1.32278,3.04010,3.08915,-1.41293,3.15052,2.00729,2.00729,57.78146,12.77348,57.78145401,12.77347802,A,123918.40,"[-0.20000,-0.00000,-0.00000]","[-0.10000,-0.00000,-0.00000]",4.41767,0.00000,0.00000,0.00000,0.00000,0.00000
17:28:06.343279,3.18231,0.01565,1.13021,1.13021,"[5.00000,0.00000,0.00000]","[1.30000,0.00000,0.00000]",-0.00048,0.05661,-0.00015,0.00000,0.00000,0.00015,-0.00015,-0.00006,0.00006,-0.00006,3.16891,0.00733,1.17667,1.99217,2.02511,-1.33947,3.07048,3.08915,-1.41293,3.15052,2.00729,2.00729,57.78146,12.77348,57.78145428,12.77347774,A,123918.40,"[-0.20000,-0.00000,-0.00000]","[-0.10000,-0.00000,-0.00000]",4.44700,0.00000,0.00000,0.00000,0.00000,0.00000
17:28:06.425193,3.26420,0.06965,1.13021,1.50000,"[5.00000,0.00000,0.00000]","[1.30000,0.00000,0.00000]",-0.00048,0.05652,-0.00015,0.00000,0.00000,0.00015,-0.00015,-0.00006,0.00006,-0.00006,3.19730,0.00977,1.16738,1.99074,2.02362,-1.35538,3.09954,3.22134,-1.48209,3.29878,2.00729,2.00729,57.78146,12.77348,57.78145454,12.77347747,A,123918.50,"[-0.20000,-0.00000,-0.00000]","[-0.10000,-0.00000,-0.00000]",4.47851,0.00000,0.00000,0.00000,0.00000,0.00000
17:28:06.453216,3.29224,0.01463,1.69078,1.69078,"[5.00000,0.00000,0.00000]","[1.30000,0.00000,0.00000]",-0.00049,0.05069,-0.00015,0.00000,0.00000,0.00015,-0.00015,-0.00006,0.00006,-0.00006,3.27681,0.00488,1.27206,1.99257,2.02206,-1.39924,3.18661,3.22134,-1.48209,3.29878,2.00729,2.00729,57.78146,12.77348,57.78145532,12.77347673,A,123918.50,"[-0.20000,-0.00000,-0.00000]","[-0.10000,-0.00000,-0.00000]",4.60306,0.00000,0.00000,0.00000,0.00000,0.00000
17:28:06.482136,3.32116,0.01583,1.69078,1.69078,"[5.00000,0.00000,0.00000]","[1.30000,0.00000,0.00000]",-0.00050,0.04744,-0.00015,0.00000,0.00000,0.00015,-0.00015,-0.00006,0.00006,-0.00006,3.30673,0.00000,1.35580,1.99184,2.01944,-1.41670,3.21970,3.22134,-1.48209,3.29878,2.00729,2.00729,57.78146,12.77348,57.78145562,12.77347644,A,123918.50,"[-0.20000,-0.00000,-0.00000]","[-0.10000,-0.00000,-0.00000]",4.64990,0.00000,0.00000,0.00000,0.00000,0.00000
17:28:06.554011,3.39303,0.06263,1.69078,1.50000,"[5.00000,0.00000,0.00000]","[1.30000,0.00000,0.00000]",-0.00050,0.04268,-0.00015,0.00000,0.00000,0.00015,-0.00015,-0.00006,0.00006,-0.00006,3.33032,0.00000,1.42280,1.99139,2.01621,-1.43113,3.24685,3.35510,-1.54137,3.48411,1.88040,1.88040,57.78146,12.77347,57.78145587,12.77347619,A,123918.60,"[-0.20000,-0.00000,-0.00000]","[-0.10000,-0.00000,-0.00000]",4.69224,0.00000,0.00000,0.00000,0.00000,0.00000
17:28:06.583701,3.42273,0.01584,1.69078,1.69078,"[5.00000,0.00000,0.00000]","[1.30000,0.00000,0.00000]",-0.00051,0.02471,-0.00015,0.00000,0.00000,0.00015,-0.00015,-0.00006,0.00006,-0.00006,3.40910,0.00488,1.47639,1.97598,1.99035,-1.48073,3.35106,3.35510,-1.54137,3.48411,1.88040,1.88040,57.78146,12.77347,57.78145680,12.77347536,A,123918.60,"[-0.20000,-0.00000,-0.00000]","[-0.10000,-0.00000,-0.00000]",4.80694,0.00000,0.00000,0.00000,0.00000,0.00000
17:28:06.605210,3.44424,0.01324,1.69078,1.69078,"[5.00000,0.00000,0.00000]","[1.30000,0.00000,0.00000]",-0.00052,0.02072,-0.00015,0.00000,0.00000,0.00015,-0.00015,-0.00006,0.00006,-0.00006,3.43109,0.00488,1.51927,1.96031,1.97236,-1.49376,3.38012,3.35510,-1.54137,3.48411,1.88040,1.88040,57.78146,12.77347,57.78145706,12.77347514,A,123918.60,"[-0.20000,-0.00000,-0.00000]","[-0.10000,-0.00000,-0.00000]",4.84766,0.00000,0.00000,0.00000,0.00000,0.00000
17:28:06.692814,3.53183,0.07556,1.69078,1.50000,"[5.00000,0.00000,0.00000]","[1.30000,0.00000,0.00000]",-0.00052,0.01800,-0.00015,0.00000,0.00000,0.00015,-0.00015,-0.00006,0.00006,-0.00006,3.45742,0.01954,1.55357,1.94733,1.95780,-1.51018,3.41838,3.49296,-1.71923,3.87329,1.99944,1.99944,57.78146,12.77347,57.78145741,12.77347486,A,123918.80,"[-0.20000,-0.00000,-0.00000]","[-0.10000,-0.00000,-0.00000]",4.89035,0.00000,0.00000,0.00000,0.00000,0.00000
17:28:06.715539,3.55457,0.01342,2.37739,2.37739,"[5.00000,0.00000,0.00000]","[1.30000,0.00000,0.00000]",-0.00053,0.01746,-0.00015,0.00000,0.00000,0.00015,-0.00015,-0.00006,0.00006,-0.00006,3.54053,0.00244,1.71834,1.95527,1.96542,-1.56487,3.54966,3.49296,-1.71923,3.87329,1.99944,1.99944,57.78146,12.77347,57.78145859,12.77347394,A,123918.80,"[-0.20000,-0.00000,-0.00000]","[-0.10000,-0.00000,-0.00000]",5.01763,0.00000,0.00000,0.00000,0.00000,0.00000
17:28:06.741818,3.58085,0.01307,2.37739,2.37739,"[5.00000,0.00000,0.00000]","[1.30000,0.00000,0.00000]",-0.00054,0.01746,-0.00015,0.00000,0.00000,0.00015,-0.00015,-0.00006,0.00006,-0.00006,3.56745,0.00977,1.85015,1.96088,1.97103,-1.58692,3.60027,3.49296,-1.71923,3.87329,1.99944,1.99944,57.78146,12.77347,57.78145904,12.77347357,A,123918.80,"[-0.20000,-0.00000,-0.00000]","[-0.10000,-0.00000,-0.00000]",5.08084,0.00000,0.00000,0.00000,0.00000,0.00000
17:28:06.821133,3.65973,0.06680,2.37739,1.50000,"[5.00000,0.00000,0.00000]","[1.30000,0.00000,0.00000]",-0.00054,0.01746,-0.00015,0.00000,0.00000,0.00015,-0.00015,-0.00006,0.00006,-0.00006,3.59381,0.01709,1.95560,1.96569,1.97584,-1.60923,3.65101,3.61810,-1.79827,4.09568,1.91230,1.91230,57.78146,12.77347,57.78145950,12.77347319,A,123918.90,"[-0.20000,-0.00000,-0.00000]","[-0.10000,-0.00000,-0.00000]",5.14056,0.00000,0.00000,0.00000,0.00000,0.00000
17:28:06.850409,3.68944,0.01688,2.37739,2.37739,"[5.00000,0.00000,0.00000]","[1.30000,0.00000,0.00000]",-0.00055,0.01746,-0.00015,0.00000,0.00000,0.00015,-0.00015,-0.00006,0.00006,-0.00006,3.67452,0.00488,2.03996,1.95814,1.96829,-1.67619,3.80738,3.61810,-1.79827,4.09568,1.91230,1.91230,57.78146,12.77347,57.78146091,12.77347206,A,123918.90,"[-0.20000,-0.00000,-0.00000]","[-0.10000,-0.00000,-0.00000]",5.25997,0.00000,0.00000,0.00000,0.00000,0.00000
17:28:06.875988,3.71501,0.01294,2.37739,2.37739,"[5.00000,0.00000,0.00000]","[1.30000,0.00000,0.00000]",-0.00056,0.01749,-0.00015,0.00000,0.00000,0.00015,-0.00015,-0.00006,0.00006,-0.00006,3.70162,0.01221,2.10744,1.95032,1.96049,-1.69895,3.86145,3.61810,-1.79827,4.09568,1.91230,1.91230,57.78146,12.77347,57.78146139,12.77347168,A,123918.90,"[-0.20000,-0.00000,-0.00000]","[-0.10000,-0.00000,-0.00000]",5.33007,0.00000,0.00000,0.00000,0.00000,0.00000
17:28:06.954121,3.79313,0.06601,2.37739,1.50000,"[5.00000,0.00000,0.00000]","[1.30000,0.00000,0.00000]",-0.00056,0.01823,-0.00015,0.00000,0.00000,0.00015,-0.00015,-0.00006,0.00006,-0.00006,3.72625,0.00244,2.16143,1.94359,1.95419,-1.71960,3.91136,3.75124,-1.88720,4.31807,1.95118,1.95118,57.78147,12.77347,57.78146184,12.77347133,A,123919.00,"[-0.20000,-0.00000,-0.00000]","[-0.10000,-0.00000,-0.00000]",5.38710,0.00000,0.00000,0.00000,0.00000,0.00000
17:28:06.981109,3.82013,0.01515,2.37739,2.37739,"[5.00000,0.00000,0.00000]","[1.30000,0.00000,0.00000]",-0.00057,0.03306,-0.00015,0.00000,0.00000,0.00015,-0.00015,-0.00006,0.00006,-0.00006,3.80589,0.00244,2.20463,1.94412,1.96335,-1.78795,4.08038,3.75124,-1.88720,4.31807,1.95118,1.95118,57.78147,12.77347,57.78146336,12.77347017,A,123919.00,"[-0.20000,-0.00000,-0.00000]","[-0.10000,-0.00000,-0.00000]",5.50387,0.00000,0.00000,0.00000,0.00000,0.00000
17:28:07.005877,3.84490,0.01188,2.43153,2.43153,"[5.00000,0.00000,0.00000]","[1.30000,0.00000,0.00000]",-0.00058,0.03668,-0.00015,0.00000,0.00000,0.00015,-0.00015,-0.00006,0.00006,-0.00006,3.83240,0.00000,2.25001,1.94315,1.96448,-1.81025,4.13414,3.75124,-1.88720,4.31807,1.95118,1.95118,57.78147,12.77347,57.78146385,12.77346980,A,123919.00,"[-0.20000,-0.00000,-0.00000]","[-0.10000,-0.00000,-0.00000]",5.57047,0.00000,0.00000,0.00000,0.00000,0.00000
17:28:07.100167,3.93919,0.07913,2.43153,1.50000,"[5.00000,0.00000,0.00000]","[1.30000,0.00000,0.00000]",-0.00058,0.03940,-0.00015,0.00000,0.00000,0.00015,-0.00015,-0.00006,0.00006,-0.00006,3.86086,0.00244,2.28631,1.94265,1.96557,-1.83748,4.19961,3.89717,-2.07493,4.81845,1.92972,1.92972,57.78147,12.77347,57.78146443,12.77346934,A,123919.20,"[-0.20000,-0.00000,-0.00000]","[-0.10000,-0.00000,-0.00000]",5.63615,0.00000,0.00000,0.00000,0.00000,0.00000
17:28:07.130641,3.96967,0.01674,2.43153,2.43153,"[5.00000,0.00000,0.00000]","[1.30000,0.00000,0.00000]",-0.00060,0.04087,-0.00015,0.00000,0.00000,0.00015,-0.00015,-0.00006,0.00006,-0.00006,3.95476,0.00977,2.31535,1.94312,1.96690,-1.92431,4.41047,3.89717,-2.07493,4.81845,1.92972,1.92972,57.78147,12.77347,57.78146633,12.77346787,A,123919.20,"[-0.20000,-0.00000,-0.00000]","[-0.10000,-0.00000,-0.00000]",5.77541,0.00000,0.00000,0.00000,0.00000,0.00000
17:28:07.154545,3.99357,0.01033,2.43153,2.43153,"[5.00000,0.00000,0.00000]","[1.30000,0.00000,0.00000]",-0.00060,0.04084,-0.00015,0.00000,0.00000,0.00015,-0.00015,-0.00006,0.00006,-0.00006,3.98278,0.01221,2.33859,1.93908,1.96284,-1.95044,4.47535,3.89717,-2.07493,4.81845,1.92972,1.92972,57.78147,12.77347,57.78146691,12.77346743,A,123919.20,"[-0.20000,-0.00000,-0.00000]","[-0.10000,-0.00000,-0.00000]",5.84905,0.00000,0.00000,0.00000,0.00000,0.00000
17:28:07.201158,4.04019,0.04084,2.43153,1.50000,"[5.00000,0.00000,0.00000]","[1.30000,0.00000,0.00000]",-0.00060,0.04016,-0.00015,0.00000,0.00000,0.00015,-0.00015,-0.00006,0.00006,-0.00006,3.99757,0.00488,2.35718,1.93502,1.95838,-1.96681,4.51703,4.01841,-2.19349,5.09643,1.97395,1.97395,57.78147,12.77346,57.78146729,12.77346716,A,123919.30,"[-0.20000,-0.00000,-0.00000]","[-0.10000,-0.00000,-0.00000]",5.88815,0.00000,0.00000,0.00000,0.00000,0.00000
17:28:07.215335,4.05436,0.00834,2.43153,2.43153,"[5.00000,0.00000,0.00000]","[1.30000,0.00000,0.00000]",-0.00061,0.03031,-0.00015,0.00000,0.00000,0.00015,-0.00015,-0.00006,0.00006,-0.00006,4.04427,0.01709,2.37205,1.94134,1.95897,-2.01591,4.63851,4.01841,-2.19349,5.09643,1.97395,1.97395,57.78147,12.77346,57.78146838,12.77346633,A,123919.30,"[-0.20000,-0.00000,-0.00000]","[-0.10000,-0.00000,-0.00000]",5.95812,0.00000,0.00000,0.00000,0.00000,0.00000
17:28:07.225915,4.06495,0.00864,2.43153,2.43153,"[5.00000,0.00000,0.00000]","[1.30000,0.00000,0.00000]",-0.00061,0.02822,-0.00015,0.00000,0.00000,0.00015,-0.00015,-0.00006,0.00006,-0.00006,4.05426,0.01709,2.38394,1.94423,1.96064,-2.03220,4.67954,4.01841,-2.19349,5.09643,1.97395,1.97395,57.78147,12.77346,57.78146875,12.77346605,A,123919.30,"[-0.20000,-0.00000,-0.00000]","[-0.10000,-0.00000,-0.00000]",5.98309,0.00000,0.00000,0.00000,0.00000,0.00000
17:28:07.235465,4.07450,0.00813,2.90657,2.90657,"[5.00000,0.00000,0.00000]","[1.30000,0.00000,0.00000]",-0.00061,0.02652,-0.00015,0.00000,0.00000,0.00015,-0.00015,-0.00006,0.00006,-0.00006,4.06476,0.00488,2.48847,1.94676,1.96218,-2.04690,4.71654,4.01841,-2.19349,5.09643,1.97395,1.97395,57.78147,12.77346,57.78146908,12.77346581,A,123919.30,"[-0.20000,-0.00000,-0.00000]","[-0.10000,-0.00000,-0.00000]",6.00753,0.00000,0.00000,0.00000,0.00000,0.00000
17:28:07.245440,4.08447,0.00794,2.90657,2.90657,"[5.00000,0.00000,0.00000]","[1.30000,0.00000,0.00000]",-0.00061,0.02533,-0.00015,0.00000,0.00000,0.00015,-0.00015,-0.00006,0.00006,-0.00006,4.07445,0.01709,2.57209,1.94901,1.96375,-2.06135,4.75278,4.01841,-2.19349,5.09643,1.97395,1.97395,57.78147,12.77346,57.78146941,12.77346556,A,123919.30,"[-0.20000,-0.00000,-0.00000]","[-0.10000,-0.00000,-0.00000]",6.03702,0.00000,0.00000,0.00000,0.00000,0.00000
17:28:07.256113,4.09514,0.00832,2.90657,2.90657,"[5.00000,0.00000,0.00000]","[1.30000,0.00000,0.00000]",-0.00062,0.02440,-0.00015,0.00000,0.00000,0.00015,-0.00015,-0.00006,0.00006,-0.00006,4.08499,0.02686,2.63898,1.95106,1.96525,-2.07644,4.79044,4.01841,-2.19349,5.09643,1.97395,1.97395,57.78147,12.77346,57.78146975,12.77346531,A,123919.30,"[-0.20000,-0.00000,-0.00000]","[-0.10000,-0.00000,-0.00000]",6.06682,0.00000,0.00000,0.00000,0.00000,0.00000
17:28:07.265959,4.10499,0.00799,2.90657,2.90657,"[5.00000,0.00000,0.00000]","[1.30000,0.00000,0.00000]",-0.00062,0.02389,-0.00015,0.00000,0.00000,0.00015,-0.00015,-0.00006,0.00006,-0.00006,4.09511,0.00488,2.69250,1.95278,1.96667,-2.08972,4.82356,4.01841,-2.19349,5.09643,1.97395,1.97395,57.78147,12.77346,57.78147005,12.77346508,A,123919.30,"[-0.20000,-0.00000,-0.00000]","[-0.10000,-0.00000,-0.00000]",6.09633,0.00000,0.00000,0.00000,0.00000,0.00000
17:28:07.276557,4.11534,0.00804,2.90657,2.90657,"[5.00000,0.00000,0.00000]","[1.30000,0.00000,0.00000]",-0.00062,0.02366,-0.00015,0.00000,0.00000,0.00015,-0.00015,-0.00006,0.00006,-0.00006,4.10542,0.00488,2.73531,1.95430,1.96806,-2.10330,4.85729,4.01841,-2.19349,5.09643,1.97395,1.97395,57.78147,12.77346,57.78147035,12.77346485,A,123919.30,"[-0.20000,-0.00000,-0.00000]","[-0.10000,-0.00000,-0.00000]",6.12615,0.00000,0.00000,0.00000,0.00000,0.00000
17:28:07.319360,4.15838,0.04091,2.90657,1.50000,"[5.00000,0.00000,0.00000]","[1.30000,0.00000,0.00000]",-0.00062,0.02366,-0.00015,0.00000,0.00000,0.00015,-0.00015,-0.00006,0.00006,-0.00006,4.11558,0.01465,2.76956,1.95556,1.96932,-2.11575,4.88817,4.13638,-2.28242,5.35589,1.90099,1.90099,57.78147,12.77346,57.78147063,12.77346464,A,123919.40,"[-0.20000,-0.00000,-0.00000]","[-0.10000,-0.00000,-0.00000]",6.15568,0.00000,0.00000,0.00000,0.00000,0.00000
17:28:07.334251,4.17328,0.00829,2.90657,2.90657,"[5.00000,0.00000,0.00000]","[1.30000,0.00000,0.00000]",-0.00063,0.02423,-0.00015,0.00000,0.00000,0.00015,-0.00015,-0.00006,0.00006,-0.00006,4.16328,0.00244,2.79696,1.94747,1.96156,-2.17076,5.02243,4.13638,-2.28242,5.35589,1.90099,1.90099,57.78147,12.77346,57.78147183,12.77346372,A,123919.40,"[-0.20000,-0.00000,-0.00000]","[-0.10000,-0.00000,-0.00000]",6.22693,0.00000,0.00000,0.00000,0.00000,0.00000
17:28:07.344113,4.18314,0.00797,2.90657,2.90657,"[5.00000,0.00000,0.00000]","[1.30000,0.00000,0.00000]",-0.00063,0.02530,-0.00015,0.00000,0.00000,0.00015,-0.00015,-0.00006,0.00006,-0.00006,4.17331,0.01465,2.81888,1.93870,1.95341,-2.18446,5.05880,4.13638,-2.28242,5.35589,1.90099,1.90099,57.78147,12.77346,57.78147216,12.77346349,A,123919.40,"[-0.20000,-0.00000,-0.00000]","[-0.10000,-0.00000,-0.00000]",6.25647,0.00000,0.00000,0.00000,0.00000,0.00000
17:28:07.354418,4.19345,0.00798,2.90657,2.90657,"[5.00000,0.00000,0.00000]","[1.30000,0.00000,0.00000]",-0.00063,0.02680,-0.00015,0.00000,0.00000,0.00015,-0.00015,-0.00006,0.00006,-0.00006,4.18358,0.01465,2.83642,1.93113,1.94672,-2.19753,5.09394,4.13638,-2.28242,5.35589,1.90099,1.90099,57.78147,12.77346,57.78147248,12.77346327,A,123919.40,"[-0.20000,-0.00000,-0.00000]","[-0.10000,-0.00000,-0.00000]",6.28629,0.00000,0.00000,0.00000,0.00000,0.00000
17:28:07.364990,4.20401,0.00831,2.90657,2.90657,"[5.00000,0.00000,0.00000]","[1.30000,0.00000,0.00000]",-0.00063,0.02839,-0.00015,0.00000,0.00000,0.00015,-0.00015,-0.00006,0.00006,-0.00006,4.19366,0.00977,2.85045,1.92461,1.94112,-2.21008,5.12810,4.13638,-2.28242,5.35589,1.90099,1.90099,57.78147,12.77346,57.78147278,12.77346305,A,123919.40,"[-0.20000,-0.00000,-0.00000]","[-0.10000,-0.00000,-0.00000]",6.31598,0.00000,0.00000,0.00000,0.00000,0.00000
17:28:07.375024,4.21405,0.00817,2.90657,2.90657,"[5.00000,0.00000,0.00000]","[1.30000,0.00000,0.00000]",-0.00063,0.02980,-0.00015,0.00000,0.00000,0.00015,-0.00015,-0.00006,0.00006,-0.00006,4.20416,0.02442,2.86167,1.91896,1.93629,-2.22177,5.16027,4.13638,-2.28242,5.35589,1.90099,1.90099,57.78147,12.77346,57.78147307,12.77346286,A,123919.40,"[-0.20000,-0.00000,-0.00000]","[-0.10000,-0.00000,-0.00000]",6.34551,0.00000,0.00000,0.00000,0.00000,0.00000
17:28:07.385030,4.22406,0.00801,2.90657,2.90657,"[5.00000,0.00000,0.00000]","[1.30000,0.00000,0.00000]",-0.00064,0.03088,-0.00015,0.00000,0.00000,0.00015,-0.00015,-0.00006,0.00006,-0.00006,4.21397,0.01709,2.87065,1.91407,1.93203,-2.23249,5.19014,4.13638,-2.28242,5.35589,1.90099,1.90099,57.78147,12.77346,57.78147334,12.77346268,A,123919.40,"[-0.20000,-0.00000,-0.00000]","[-0.10000,-0.00000,-0.00000]",6.37500,0.00000,0.00000,0.00000,0.00000,0.00000
17:28:07.395262,4.23429,0.00795,2.90657,2.90657,"[5.00000,0.00000,0.00000]","[1.30000,0.00000,0.00000]",-0.00064,0.03173,-0.00015,0.00000,0.00000,0.00015,-0.00015,-0.00006,0.00006,-0.00006,4.22450,0.01221,2.87783,1.90989,1.92834,-2.24309,5.21988,4.13638,-2.28242,5.35589,1.90099,1.90099,57.78147,12.77346,57.78147361,12.77346250,A,123919.40,"[-0.20000,-0.00000,-0.00000]","[-0.10000,-0.00000,-0.00000]",6.40480,0.00000,0.00000,0.00000,0.00000,0.00000
17:28:07.477956,4.31654,0.07930,2.90657,1.50000,"[5.00000,0.00000,0.00000]","[1.30000,0.00000,0.00000]",-0.00064,0.03283,-0.00015,0.00000,0.00000,0.00015,-0.00015,-0.00006,0.00006,-0.00006,4.23806,0.01954,2.88358,1.90662,1.92572,-2.25833,5.26220,4.27397,-2.49979,5.91186,1.94350,1.94350,57.78148,12.77346,57.78147399,12.77346224,A,123919.60,"[-0.20000,-0.00000,-0.00000]","[-0.10000,-0.00000,-0.00000]",6.43637,0.00000,0.00000,0.00000,0.00000,0.00000
17:28:07.508729,4.34774,0.01681,3.32999,1.50000,"[5.00000,0.00000,0.00000]","[1.30000,0.00000,0.00000]",-0.00065,0.04081,-0.00015,0.00000,0.00000,0.00015,-0.00015,-0.00006,0.00006,-0.00006,4.33382,0.02930,2.60686,1.91523,1.93897,-2.36071,5.53837,4.27397,-2.49979,5.91186,1.94350,1.94350,57.78148,12.77346,57.78147647,12.77346051,A,123919.60,"[-0.20000,-0.00000,-0.00000]","[-0.10000,-0.00000,-0.00000]",6.57686,0.00000,0.00000,0.00000,0.00000,0.00000
17:28:07.535278,4.37431,0.01711,3.32999,1.50000,"[5.00000,0.00000,0.00000]","[1.30000,0.00000,0.00000]",-0.00066,0.04155,-0.00015,0.00000,0.00000,0.00015,-0.00015,-0.00006,0.00006,-0.00006,4.35863,0.03419,2.38549,1.91769,1.94186,-2.38851,5.61108,4.27397,-2.49979,5.91186,1.94350,1.94350,57.78148,12.77346,57.78147713,12.77346004,A,123919.60,"[-0.20000,-0.00000,-0.00000]","[-0.10000,-0.00000,-0.00000]",6.61622,0.00000,0.00000,0.00000,0.00000,0.00000
17:28:07.613463,4.45248,0.06660,3.32999,1.50000,"[5.00000,0.00000,0.00000]","[1.30000,0.00000,0.00000]",-0.00066,0.04268,-0.00015,0.00000,0.00000,0.00015,-0.00015,-0.00006,0.00006,-0.00006,4.38747,0.02930,2.20839,1.91953,1.94436,-2.41308,5.67497,4.41140,-2.59860,6.22692,1.87470,1.87470,57.78148,12.77346,57.78147770,12.77345963,A,123919.70,"[-0.20000,-0.00000,-0.00000]","[-0.10000,-0.00000,-0.00000]",6.65922,0.00000,0.00000,0.00000,0.00000,0.00000
17:28:07.645462,4.48449,0.01881,3.32999,1.50000,"[5.00000,0.00000,0.00000]","[1.30000,0.00000,0.00000]",-0.00067,0.04277,-0.00015,0.00000,0.00000,0.00015,-0.00015,-0.00006,0.00006,-0.00006,4.46985,0.04884,2.06671,1.91463,1.93950,-2.48336,5.85818,4.41140,-2.59860,6.22692,1.87470,1.87470,57.78148,12.77346,57.78147935,12.77345844,A,123919.70,"[-0.20000,-0.00000,-0.00000]","[-0.10000,-0.00000,-0.00000]",6.77887,0.00000,0.00000,0.00000,0.00000,0.00000
17:28:07.726800,4.56528,0.06774,3.32999,1.50000,"[5.00000,0.00000,0.00000]","[1.30000,0.00000,0.00000]",-0.00068,0.04277,-0.00015,0.00000,0.00000,0.00015,-0.00015,-0.00006,0.00006,-0.00006,4.50056,0.04396,1.95337,1.90668,1.93156,-2.50836,5.92643,4.52484,-2.70729,6.54197,1.90299,1.90299,57.78149,12.77345,57.78147996,12.77345802,A,123919.80,"[-0.20000,-0.00000,-0.00000]","[-0.10000,-0.00000,-0.00000]",6.82663,0.00000,0.00000,0.00000,0.00000,0.00000
17:28:07.753781,4.59281,0.01252,2.92151,2.92151,"[5.00000,0.00000,0.00000]","[1.30000,0.00000,0.00000]",-0.00069,0.03623,-0.00015,0.00000,0.00000,0.00015,-0.00015,-0.00006,0.00006,-0.00006,4.57948,0.06105,2.14700,1.90764,1.92871,-2.56786,6.08854,4.52484,-2.70729,6.54197,1.90299,1.90299,57.78149,12.77345,57.78148142,12.77345702,A,123919.80,"[-0.20000,-0.00000,-0.00000]","[-0.10000,-0.00000,-0.00000]",6.95073,0.00000,0.00000,0.00000,0.00000,0.00000
17:28:07.781482,4.62051,0.01557,2.92151,2.92151,"[5.00000,0.00000,0.00000]","[1.30000,0.00000,0.00000]",-0.00069,0.02881,-0.00015,0.00000,0.00000,0.00015,-0.00015,-0.00006,0.00006,-0.00006,4.60573,0.04151,2.30190,1.90584,1.92260,-2.59236,6.15807,4.52484,-2.70729,6.54197,1.90299,1.90299,57.78149,12.77345,57.78148205,12.77345661,A,123919.80,"[-0.20000,-0.00000,-0.00000]","[-0.10000,-0.00000,-0.00000]",7.02267,0.00000,0.00000,0.00000,0.00000,0.00000
17:28:07.862169,4.70118,0.06827,2.92151,1.50000,"[5.00000,0.00000,0.00000]","[1.30000,0.00000,0.00000]",-0.00070,0.02363,-0.00015,0.00000,0.00000,0.00015,-0.00015,-0.00006,0.00006,-0.00006,4.63341,0.03663,2.42582,1.90450,1.91824,-2.61568,6.22515,4.65886,-2.81597,6.83849,1.92213,1.92213,57.78149,12.77345,57.78148265,12.77345621,A,123919.90,"[-0.20000,-0.00000,-0.00000]","[-0.10000,-0.00000,-0.00000]",7.09943,0.00000,0.00000,0.00000,0.00000,0.00000
17:28:07.891320,4.73034,0.01457,2.92151,2.92151,"[5.00000,0.00000,0.00000]","[1.30000,0.00000,0.00000]",-0.00071,0.02120,-0.00015,0.00000,0.00000,0.00015,-0.00015,-0.00006,0.00006,-0.00006,4.71682,0.08547,2.52496,1.90868,1.92101,-2.68850,6.42923,4.65886,-2.81597,6.83849,1.92213,1.92213,57.78149,12.77345,57.78148449,12.77345498,A,123919.90,"[-0.20000,-0.00000,-0.00000]","[-0.10000,-0.00000,-0.00000]",7.22369,0.00000,0.00000,0.00000,0.00000,0.00000
17:28:07.919099,4.75813,0.01572,2.92151,2.92151,"[5.00000,0.00000,0.00000]","[1.30000,0.00000,0.00000]",-0.00071,0.02120,-0.00015,0.00000,0.00000,0.00015,-0.00015,-0.00006,0.00006,-0.00006,4.74329,0.08791,2.60427,1.90982,1.92215,-2.71509,6.50504,4.65886,-2.81597,6.83849,1.92213,1.92213,57.78149,12.77345,57.78148517,12.77345454,A,123919.90,"[-0.20000,-0.00000,-0.00000]","[-0.10000,-0.00000,-0.00000]",7.30143,0.00000,0.00000,0.00000,0.00000,0.00000
17:28:08.006972,4.84599,0.07580,3.07265,1.50000,"[5.00000,0.00000,0.00000]","[1.30000,0.00000,0.00000]",-0.00072,0.02120,-0.00015,0.00000,0.00000,0.00015,-0.00015,-0.00006,0.00006,-0.00006,4.77039,0.03907,2.69794,1.91074,1.92307,-2.73935,6.57415,4.80554,-3.03335,7.43153,1.92213,1.92213,57.78149,12.77345,57.78148579,12.77345413,A,123920.10,"[-0.20000,-0.00000,-0.00000]","[-0.10000,-0.00000,-0.00000]",7.38256,0.00000,0.00000,0.00000,0.00000,0.00000
17:28:08.037872,4.87690,0.01647,3.07265,1.50000,"[5.00000,0.00000,0.00000]","[1.30000,0.00000,0.00000]",-0.00073,0.02842,-0.00015,0.00000,0.00000,0.00015,-0.00015,-0.00006,0.00006,-0.00006,4.86160,0.05372,2.45836,1.91376,1.93029,-2.83340,6.83287,4.80554,-3.03335,7.43153,1.92213,1.92213,57.78149,12.77345,57.78148812,12.77345254,A,123920.10,"[-0.20000,-0.00000,-0.00000]","[-0.10000,-0.00000,-0.00000]",7.51788,0.00000,0.00000,0.00000,0.00000,0.00000
17:28:08.121763,4.96078,0.07175,3.07265,1.50000,"[5.00000,0.00000,0.00000]","[1.30000,0.00000,0.00000]",-0.00074,0.03286,-0.00015,0.00000,0.00000,0.00015,-0.00015,-0.00006,0.00006,-0.00006,4.89372,0.07326,2.26668,1.91354,1.93265,-2.86541,6.92138,4.91821,-3.13215,7.72805,1.89244,1.89244,57.78150,12.77345,57.78148891,12.77345200,A,123920.20,"[-0.20000,-0.00000,-0.00000]","[-0.10000,-0.00000,-0.00000]",7.56072,0.00000,0.00000,0.00000,0.00000,0.00000
17:28:08.147328,4.98636,0.01727,3.07265,1.50000,"[5.00000,0.00000,0.00000]","[1.30000,0.00000,0.00000]",-0.00075,0.04582,-0.00015,0.00000,0.00000,0.00015,-0.00015,-0.00006,0.00006,-0.00006,4.97280,0.04640,2.11335,1.91053,1.93719,-2.93631,7.11380,4.91821,-3.13215,7.72805,1.89244,1.89244,57.78150,12.77345,57.78149064,12.77345080,A,123920.20,"[-0.20000,-0.00000,-0.00000]","[-0.10000,-0.00000,-0.00000]",7.68079,0.00000,0.00000,0.00000,0.00000,0.00000
17:28:08.230159,5.06919,0.06953,3.07265,1.50000,"[5.00000,0.00000,0.00000]","[1.30000,0.00000,0.00000]",-0.00075,0.05301,-0.00015,0.00000,0.00000,0.00015,-0.00015,-0.00006,0.00006,-0.00006,5.00586,0.07082,1.99068,1.90535,1.93620,-2.96783,7.20112,5.03164,-3.22108,8.00603,1.88040,1.88040,57.78150,12.77345,57.78149143,12.77345027,A,123920.30,"[-0.20000,-0.00000,-0.00000]","[-0.10000,-0.00000,-0.00000]",7.72660,0.00000,0.00000,0.00000,0.00000,0.00000
17:28:08.265086,5.10408,0.02494,3.15176,1.50000,"[5.00000,0.00000,0.00000]","[1.30000,0.00000,0.00000]",0.00000,0.07016,-0.00015,0.00000,0.00000,0.00015,-0.00015,-0.00006,0.00006,-0.00006,5.08202,0.04884,1.50000,1.91247,1.95331,-3.22108,8.00603,5.03164,-3.22108,8.00603,1.88040,1.88040,57.78150,12.77345,57.78149295,12.77344923,A,123920.30,"[-0.20000,-0.00000,-0.00000]","[-0.10000,-0.00000,-0.00000]",7.84580,0.00000,0.00000,0.00000,0.00000,0.00000
17:28:08.298261,5.13728,0.02105,3.15176,1.50000,"[5.00000,0.00000,0.00000]","[1.30000,0.00000,0.00000]",-0.00002,0.03375,-0.00015,-0.10142,-0.01574,0.00015,-0.00015,-0.00006,0.00006,-0.00006,5.11809,0.07570,1.50000,1.90725,1.92688,-3.23840,8.04910,5.03164,-3.22108,8.00603,1.88040,1.88040,57.78150,12.77345,57.78149905,12.77344571,A,123920.30,"[-0.20000,-0.00000,-0.00000]","[-0.10000,-0.00000,-0.00000]",7.90140,-3.15318,7.24497,1.98129,0.24276,0.05442
17:28:08.356508,5.19540,0.04593,3.15176,1.50000,"[5.00000,0.00000,0.00000]","[1.30000,0.00000,0.00000]",-0.00002,0.03420,-0.00015,-0.10892,-0.01690,0.00015,-0.00015,-0.00006,0.00006,-0.00006,5.15217,0.75946,1.50000,1.90144,1.92133,-3.25346,8.08975,5.18895,-3.38905,8.56201,1.86420,1.86420,57.78150,12.77344,57.78149942,12.77344545,A,123920.50,"[-0.20000,-0.00000,-0.00000]","[-0.10000,-0.00000,-0.00000]",7.95123,-3.17307,7.29066,1.98129,0.24518,0.05996
17:28:08.388816,5.22784,0.01846,3.15176,1.50000,"[5.00000,0.00000,0.00000]","[1.30000,0.00000,0.00000]",-0.00003,0.02755,-0.00015,-0.12254,-0.01900,0.00015,-0.00015,-0.00006,0.00006,-0.00006,5.21227,0.46886,1.50000,1.89559,1.91161,-3.28782,8.18880,5.18895,-3.38905,8.56201,1.86420,1.86420,57.78150,12.77344,57.78150031,12.77344487,A,123920.50,"[-0.20000,-0.00000,-0.00000]","[-0.10000,-0.00000,-0.00000]",8.04107,-3.20892,7.37303,1.98129,0.25320,0.06969
17:28:08.420590,5.25941,0.01834,3.15176,1.50000,"[5.00000,0.00000,0.00000]","[1.30000,0.00000,0.00000]",-0.00004,0.02257,-0.00015,-0.13456,-0.02086,0.00015,-0.00015,-0.00006,0.00006,-0.00006,5.24540,0.21245,1.50000,1.88977,1.90290,-3.30637,8.24551,5.18895,-3.38905,8.56201,1.86420,1.86420,57.78150,12.77344,57.78150082,12.77344456,A,123920.50,"[-0.20000,-0.00000,-0.00000]","[-0.10000,-0.00000,-0.00000]",8.08857,-3.22787,7.41659,1.98129,0.25881,0.07840
17:28:08.448004,5.28703,0.01644,3.15176,1.50000,"[5.00000,0.00000,0.00000]","[1.30000,0.00000,0.00000]",-0.00004,0.01912,-0.00015,-0.14419,-0.02234,0.00015,-0.00015,-0.00006,0.00006,-0.00006,5.27246,0.16850,1.50000,1.88488,1.89599,-3.32178,8.29400,5.18895,-3.38905,8.56201,1.86420,1.86420,57.78150,12.77344,57.78150126,12.77344430,A,123920.50,"[-0.20000,-0.00000,-0.00000]","[-0.10000,-0.00000,-0.00000]",8.13283,-3.24553,7.45717,1.98129,0.26404,0.08530
17:28:08.492940,5.33196,0.03135,2.56080,2.56080,"[5.00000,0.00000,0.00000]","[1.30000,0.00000,0.00000]",-0.00004,0.01470,-0.00015,-0.15319,-0.02373,0.00015,-0.00015,-0.00006,0.00006,-0.00006,5.30103,0.80098,1.71216,1.88104,1.88959,-3.33684,8.34211,5.32646,-3.47797,8.82146,1.90099,1.90099,57.78151,12.77344,57.78150169,12.77344405,A,123920.60,"[-0.20000,-0.00000,-0.00000]","[-0.10000,-0.00000,-0.00000]",8.17785,-3.26350,7.49845,1.98129,0.26943,0.09171
17:28:08.507409,5.34643,0.00859,2.56080,2.56080,"[5.00000,0.00000,0.00000]","[1.30000,0.00000,0.00000]",-0.00005,0.00887,-0.00015,-0.15495,-0.02401,0.00015,-0.00015,-0.00006,0.00006,-0.00006,5.33612,0.53724,1.88189,1.88379,1.88895,-3.35849,8.41028,5.32646,-3.47797,8.82146,1.90099,1.90099,57.78151,12.77344,57.78150230,12.77344368,A,123920.60,"[-0.20000,-0.00000,-0.00000]","[-0.10000,-0.00000,-0.00000]",8.27313,-3.30153,7.58582,1.98129,0.27679,0.09235
17:28:08.517585,5.35661,0.00866,2.56080,2.56080,"[5.00000,0.00000,0.00000]","[1.30000,0.00000,0.00000]",-0.00005,0.00723,-0.00015,-0.15404,-0.02387,0.00015,-0.00015,-0.00006,0.00006,-0.00006,5.34588,0.57875,2.01767,1.88584,1.89004,-3.36895,8.44448,5.32646,-3.47797,8.82146,1.90099,1.90099,57.78151,12.77344,57.78150261,12.77344351,A,123920.60,"[-0.20000,-0.00000,-0.00000]","[-0.10000,-0.00000,-0.00000]",8.29898,-3.31184,7.60952,1.98129,0.28084,0.09125
17:28:08.534946,5.37397,0.01581,2.56080,2.56080,"[5.00000,0.00000,0.00000]","[1.30000,0.00000,0.00000]",-0.00005,0.00581,-0.00015,-0.15326,-0.02375,0.00015,-0.00015,-0.00006,0.00006,-0.00006,5.35703,1.09646,2.12629,1.88775,1.89114,-3.38289,8.48900,5.32646,-3.47797,8.82146,1.90099,1.90099,57.78151,12.77344,57.78150301,12.77344327,A,123920.60,"[-0.20000,-0.00000,-0.00000]","[-0.10000,-0.00000,-0.00000]",8.32508,-3.32226,7.63345,1.98129,0.28582,0.09016
17:28:08.562017,5.40104,0.01532,2.56080,2.56080,"[5.00000,0.00000,0.00000]","[1.30000,0.00000,0.00000]",-0.00006,0.00103,-0.00015,-0.15495,-0.02401,0.00015,-0.00015,-0.00006,0.00006,-0.00006,5.38538,0.37118,2.21320,1.88986,1.89046,-3.40256,8.55059,5.32646,-3.47797,8.82146,1.90099,1.90099,57.78151,12.77344,57.78150356,12.77344294,A,123920.60,"[-0.20000,-0.00000,-0.00000]","[-0.10000,-0.00000,-0.00000]",8.39559,-3.35040,7.69811,1.98129,0.29236,0.09083
17:28:08.605763,5.44479,0.03095,2.56080,2.56080,"[5.00000,0.00000,0.00000]","[1.30000,0.00000,0.00000]",-0.00006,-0.00460,-0.00015,-0.15728,-0.02438,0.00015,-0.00015,-0.00006,0.00006,-0.00006,5.41451,0.49084,2.28272,1.89197,1.88930,-3.42190,8.61117,5.43930,-3.55702,9.06239,1.88782,1.88782,57.78151,12.77344,57.78150411,12.77344261,A,123920.70,"[-0.20000,-0.00000,-0.00000]","[-0.10000,-0.00000,-0.00000]",8.46755,-3.37911,7.76409,1.98129,0.29881,0.09200
17:28:08.620835,5.45985,0.00938,2.56080,2.56080,"[5.00000,0.00000,0.00000]","[1.30000,0.00000,0.00000]",-0.00007,-0.01054,-0.00015,-0.16274,-0.02522,0.00015,-0.00015,-0.00006,0.00006,-0.00006,5.44866,0.30769,2.33833,1.89205,1.88592,-3.44809,8.69267,5.43930,-3.55702,9.06239,1.88782,1.88782,57.78151,12.77344,57.78150484,12.77344217,A,123920.70,"[-0.20000,-0.00000,-0.00000]","[-0.10000,-0.00000,-0.00000]",8.56132,-3.41653,7.85007,1.98129,0.30732,0.09538
17:28:08.630795,5.46982,0.00871,2.56080,2.56080,"[5.00000,0.00000,0.00000]","[1.30000,0.00000,0.00000]",-0.00007,-0.01253,-0.00015,-0.16437,-0.02547,0.00015,-0.00015,-0.00006,0.00006,-0.00006,5.45924,0.33211,2.38283,1.89235,1.88507,-3.45930,8.72884,5.43930,-3.55702,9.06239,1.88782,1.88782,57.78151,12.77344,57.78150517,12.77344198,A,123920.70,"[-0.20000,-0.00000,-0.00000]","[-0.10000,-0.00000,-0.00000]",8.58855,-3.42740,7.87503,1.98129,0.31147,0.09622
17:28:08.641264,5.48029,0.00897,2.56080,2.56080,"[5.00000,0.00000,0.00000]","[1.30000,0.00000,0.00000]",-0.00007,-0.01448,-0.00015,-0.16584,-0.02570,0.00015,-0.00015,-0.00006,0.00006,-0.00006,5.46944,1.41880,2.41842,1.89275,1.88433,-3.47004,8.76351,5.43930,-3.55702,9.06239,1.88782,1.88782,57.78151,12.77344,57.78150548,12.77344180,A,123920.70,"[-0.20000,-0.00000,-0.00000]","[-0.10000,-0.00000,-0.00000]",8.61464,-3.43781,7.89896,1.98129,0.31546,0.09696
17:28:08.651018,5.49005,0.00851,2.56080,2.56080,"[5.00000,0.00000,0.00000]","[1.30000,0.00000,0.00000]",-0.00007,-0.01623,-0.00015,-0.16584,-0.02589,0.00015,-0.00015,-0.00006,0.00006,-0.00006,5.47967,1.54090,2.44690,1.89322,1.88378,-3.48003,8.79584,5.43930,-3.55702,9.06239,1.88782,1.88782,57.78151,12.77344,57.78150577,12.77344163,A,123920.70,"[-0.20000,-0.00000,-0.00000]","[-0.10000,-0.00000,-0.00000]",8.64077,-3.44824,7.92291,1.98129,0.31921,0.09751
17:28:08.661564,5.50059,0.00883,2.56080,2.56080,"[5.00000,0.00000,0.00000]","[1.30000,0.00000,0.00000]",-0.00007,-0.01824,-0.00015,-0.16832,-0.02609,0.00015,-0.00015,-0.00006,0.00006,-0.00006,5.48974,1.25031,2.46968,1.89376,1.88315,-3.48983,8.82758,5.43930,-3.55702,9.06239,1.88782,1.88782,57.78151,12.77344,57.78150605,12.77344147,A,123920.70,"[-0.20000,-0.00000,-0.00000]","[-0.10000,-0.00000,-0.00000]",8.66692,-3.45867,7.94689,1.98129,0.32288,0.09814
17:28:08.677137,5.51616,0.01316,2.56080,2.56080,"[5.00000,0.00000,0.00000]","[1.30000,0.00000,0.00000]",-0.00007,-0.02062,-0.00015,-0.17004,-0.02635,0.00015,-0.00015,-0.00006,0.00006,-0.00006,5.50213,1.09646,2.48790,1.89426,1.88227,-3.50208,8.86684,5.43930,-3.55702,9.06239,1.88782,1.88782,57.78151,12.77344,57.78150641,12.77344126,A,123920.70,"[-0.20000,-0.00000,-0.00000]","[-0.10000,-0.00000,-0.00000]",8.69564,-3.47014,7.97323,1.98129,0.32732,0.09903
17:28:08.723098,5.56212,0.03219,2.56080,2.56080,"[5.00000,0.00000,0.00000]","[1.30000,0.00000,0.00000]",-0.00008,-0.02569,-0.00015,-0.17428,-0.02701,0.00015,-0.00015,-0.00006,0.00006,-0.00006,5.52998,1.34066,2.50248,1.89462,1.87968,-3.52227,8.93081,5.55401,-3.65582,9.30331,1.95999,1.95999,57.78151,12.77344,57.78150698,12.77344092,A,123920.80,"[-0.20000,-0.00000,-0.00000]","[-0.10000,-0.00000,-0.00000]",8.76458,-3.49765,8.03644,1.98129,0.33433,0.10161
17:28:08.749575,5.58860,0.01439,2.56080,2.56080,"[5.00000,0.00000,0.00000]","[1.30000,0.00000,0.00000]",-0.00009,-0.03409,-0.00015,-0.16802,-0.02605,0.00015,-0.00015,-0.00006,0.00006,-0.00006,5.57464,1.57021,2.51414,1.90543,1.88560,-3.55894,9.04341,5.55401,-3.65582,9.30331,1.95999,1.95999,57.78151,12.77344,57.78150800,12.77344030,A,123920.80,"[-0.20000,-0.00000,-0.00000]","[-0.10000,-0.00000,-0.00000]",8.87790,-3.54287,8.14034,1.98129,0.34565,0.09569
17:28:08.764728,5.60374,0.00886,2.53920,2.53920,"[5.00000,0.00000,0.00000]","[1.30000,0.00000,0.00000]",-0.00009,-0.03661,-0.00015,-0.15674,-0.02432,0.00015,-0.00015,-0.00006,0.00006,-0.00006,5.59309,3.41880,2.51915,1.91594,1.89465,-3.57391,9.08750,5.55401,-3.65582,9.30331,1.95999,1.95999,57.78151,12.77344,57.78150839,12.77344005,A,123920.80,"[-0.20000,-0.00000,-0.00000]","[-0.10000,-0.00000,-0.00000]",8.93082,-3.56399,8.18886,1.98129,0.34952,0.08665
17:28:08.775192,5.61422,0.00920,2.53920,2.53920,"[5.00000,0.00000,0.00000]","[1.30000,0.00000,0.00000]",-0.00009,-0.03921,-0.00015,-0.14666,-0.02277,0.00015,-0.00015,-0.00006,0.00006,-0.00006,5.60319,1.46520,2.52316,1.92542,1.90261,-3.58409,9.11643,5.55401,-3.65582,9.30331,1.95999,1.95999,57.78151,12.77344,57.78150865,12.77343988,A,123920.80,"[-0.20000,-0.00000,-0.00000]","[-0.10000,-0.00000,-0.00000]",8.95650,-3.57423,8.21241,1.98129,0.35172,0.07868
17:28:08.785391,5.62442,0.00872,2.53920,2.53920,"[5.00000,0.00000,0.00000]","[1.30000,0.00000,0.00000]",-0.00009,-0.04094,-0.00015,-0.13735,-0.02134,0.00015,-0.00015,-0.00006,0.00006,-0.00006,5.61364,1.52381,2.52637,1.93359,1.90977,-3.59404,9.14424,5.55401,-3.65582,9.30331,1.95999,1.95999,57.78151,12.77344,57.78150890,12.77343971,A,123920.80,"[-0.20000,-0.00000,-0.00000]","[-0.10000,-0.00000,-0.00000]",8.98358,-3.58504,8.23725,1.98129,0.35370,0.07152
17:28:08.795517,5.63454,0.00863,2.53920,2.53920,"[5.00000,0.00000,0.00000]","[1.30000,0.00000,0.00000]",-0.00009,-0.04250,-0.00015,-0.12985,-0.02019,0.00015,-0.00015,-0.00006,0.00006,-0.00006,5.62411,2.31013,2.52893,1.94062,1.91590,-3.60375,9.17095,5.55401,-3.65582,9.30331,1.95999,1.95999,57.78151,12.77344,57.78150914,12.77343955,A,123920.80,"[-0.20000,-0.00000,-0.00000]","[-0.10000,-0.00000,-0.00000]",9.00948,-3.59538,8.26099,1.98129,0.35546,0.06539
17:28:08.805700,5.64473,0.00866,2.53920,2.53920,"[5.00000,0.00000,0.00000]","[1.30000,0.00000,0.00000]",-0.00009,-0.04420,-0.00015,-0.12336,-0.01919,0.00015,-0.00015,-0.00006,0.00006,-0.00006,5.63401,2.38584,2.53099,1.94675,1.92104,-3.61287,9.19571,5.55401,-3.65582,9.30331,1.95999,1.95999,57.78151,12.77344,57.78150937,12.77343939,A,123920.80,"[-0.20000,-0.00000,-0.00000]","[-0.10000,-0.00000,-0.00000]",9.03523,-3.60566,8.28461,1.98129,0.35697,0.06026
17:28:08.849287,5.68831,0.04210,2.53920,2.53920,"[5.00000,0.00000,0.00000]","[1.30000,0.00000,0.00000]",-0.00010,-0.04561,-0.00015,-0.11810,-0.01838,0.00015,-0.00015,-0.00006,0.00006,-0.00006,5.64453,2.72527,2.53263,1.95179,1.92526,-3.62419,9.22619,5.68103,-3.83368,9.78515,1.92439,1.92439,57.78151,12.77344,57.78150964,12.77343920,A,123921.00,"[-0.20000,-0.00000,-0.00000]","[-0.10000,-0.00000,-0.00000]",9.06095,-3.61592,8.30819,1.98129,0.35876,0.05603
17:28:08.878154,5.71718,0.01593,2.53920,2.53920,"[5.00000,0.00000,0.00000]","[1.30000,0.00000,0.00000]",-0.00010,-0.05331,-0.00015,-0.13034,-0.02027,0.00015,-0.00015,-0.00006,0.00006,-0.00006,5.70278,3.32601,2.53394,1.94770,1.91668,-3.67998,9.37659,5.68103,-3.83368,9.78515,1.92439,1.92439,57.78151,12.77344,57.78151099,12.77343826,A,123921.00,"[-0.20000,-0.00000,-0.00000]","[-0.10000,-0.00000,-0.00000]",9.20066,-3.67167,8.43629,1.98129,0.36762,0.06461
17:28:08.902947,5.74197,0.01178,2.53920,2.53920,"[5.00000,0.00000,0.00000]","[1.30000,0.00000,0.00000]",-0.00011,-0.05673,-0.00015,-0.13457,-0.02093,0.00015,-0.00015,-0.00006,0.00006,-0.00006,5.73022,4.08059,2.53499,1.94689,1.91387,-3.70620,9.44844,5.68103,-3.83368,9.78515,1.92439,1.92439,57.78151,12.77344,57.78151164,12.77343782,A,123921.00,"[-0.20000,-0.00000,-0.00000]","[-0.10000,-0.00000,-0.00000]",9.27411,-3.70098,8.50363,1.98129,0.37226,0.06742
17:28:08.917550,5.75658,0.00883,2.53920,2.53920,"[5.00000,0.00000,0.00000]","[1.30000,0.00000,0.00000]",-0.00011,-0.05951,-0.00015,-0.13637,-0.02121,0.00015,-0.00015,-0.00006,0.00006,-0.00006,5.74579,5.60440,2.53583,1.94740,1.91277,-3.72256,9.49324,5.68103,-3.83368,9.78515,1.92439,1.92439,57.78151,12.77344,57.78151204,12.77343754,A,123921.00,"[-0.20000,-0.00000,-0.00000]","[-0.10000,-0.00000,-0.00000]",9.31864,-3.71875,8.54447,1.98129,0.37513,0.06853
17:28:08.927805,5.76683,0.00901,2.53920,2.53920,"[5.00000,0.00000,0.00000]","[1.30000,0.00000,0.00000]",-0.00011,-0.06118,-0.00015,-0.13667,-0.02126,0.00015,-0.00015,-0.00006,0.00006,-0.00006,5.75618,5.09890,2.53651,1.94834,1.91274,-3.73493,9.52698,5.68103,-3.83368,9.78515,1.92439,1.92439,57.78151,12.77344,57.78151234,12.77343733,A,123921.00,"[-0.20000,-0.00000,-0.00000]","[-0.10000,-0.00000,-0.00000]",9.34417,-3.72894,8.56788,1.98129,0.37725,0.06855
17:28:08.938173,5.77720,0.00885,2.53920,2.53920,"[5.00000,0.00000,0.00000]","[1.30000,0.00000,0.00000]",-0.00011,-0.06285,-0.00015,-0.13694,-0.02130,0.00015,-0.00015,-0.00006,0.00006,-0.00006,5.76628,4.13675,2.53704,1.94930,1.91272,-3.74649,9.55851,5.68103,-3.83368,9.78515,1.92439,1.92439,57.78151,12.77344,57.78151263,12.77343714,A,123921.00,"[-0.20000,-0.00000,-0.00000]","[-0.10000,-0.00000,-0.00000]",9.37089,-3.73960,8.59237,1.98129,0.37923,0.06858
17:28:08.963196,5.80222,0.02379,2.53920,2.53920,"[5.00000,0.00000,0.00000]","[1.30000,0.00000,0.00000]",-0.00012,-0.06404,-0.00015,-0.13689,-0.02129,0.00015,-0.00015,-0.00006,0.00006,-0.00006,5.77660,3.94383,2.53747,1.95021,1.91294,-3.75732,9.58802,5.79739,-3.92260,10.00754,1.95118,1.95118,57.78152,12.77343,57.78151289,12.77343695,A,123921.10,"[-0.20000,-0.00000,-0.00000]","[-0.10000,-0.00000,-0.00000]",9.39647,-3.74981,8.61583,1.98129,0.38108,0.06836
17:28:08.978791,5.81782,0.00875,2.53920,2.53920,"[5.00000,0.00000,0.00000]","[1.30000,0.00000,0.00000]",-0.00012,-0.06876,-0.00015,-0.13764,-0.02141,0.00015,-0.00015,-0.00006,0.00006,-0.00006,5.80734,4.40537,2.53782,1.95291,1.91289,-3.78875,9.67403,5.79739,-3.92260,10.00754,1.95118,1.95118,57.78152,12.77343,57.78151367,12.77343642,A,123921.10,"[-0.20000,-0.00000,-0.00000]","[-0.10000,-0.00000,-0.00000]",9.47420,-3.78083,8.68711,1.98129,0.38659,0.06841
17:28:08.989747,5.82877,0.00949,2.53920,2.53920,"[5.00000,0.00000,0.00000]","[1.30000,0.00000,0.00000]",-0.00012,-0.07066,-0.00015,-0.13301,-0.02070,0.00015,-0.00015,-0.00006,0.00006,-0.00006,5.81742,5.40171,2.53809,1.95776,1.91663,-3.80213,9.70948,5.79739,-3.92260,10.00754,1.95118,1.95118,57.78152,12.77343,57.78151399,12.77343620,A,123921.10,"[-0.20000,-0.00000,-0.00000]","[-0.10000,-0.00000,-0.00000]",9.50007,-3.79115,8.71082,1.98129,0.38847,0.06467
17:28:08.999897,5.83892,0.00864,2.53920,2.53920,"[5.00000,0.00000,0.00000]","[1.30000,0.00000,0.00000]",-0.00012,-0.07227,-0.00015,-0.12912,-0.02011,0.00015,-0.00015,-0.00006,0.00006,-0.00006,5.82848,5.15507,2.53831,1.96187,1.91979,-3.81563,9.74515,5.79739,-3.92260,10.00754,1.95118,1.95118,57.78152,12.77343,57.78151431,12.77343597,A,123921.10,"[-0.20000,-0.00000,-0.00000]","[-0.10000,-0.00000,-0.00000]",9.52797,-3.80229,8.73641,1.98129,0.39032,0.06150
17:28:09.010068,5.84910,0.00866,2.53920,2.53920,"[5.00000,0.00000,0.00000]","[1.30000,0.00000,0.00000]",-0.00013,-0.07397,-0.00015,-0.12570,-0.01958,0.00015,-0.00015,-0.00006,0.00006,-0.00006,5.83836,3.96337,2.53849,1.96563,1.92257,-3.82761,9.77650,5.79739,-3.92260,10.00754,1.95118,1.95118,57.78152,12.77343,57.78151459,12.77343577,A,123921.10,"[-0.20000,-0.00000,-0.00000]","[-0.10000,-0.00000,-0.00000]",9.55374,-3.81257,8.76004,1.98129,0.39184,0.05872
17:28:09.021382,5.86040,0.00976,2.53920,2.53920,"[5.00000,0.00000,0.00000]","[1.30000,0.00000,0.00000]",-0.00013,-0.07530,-0.00015,-0.12280,-0.01914,0.00015,-0.00015,-0.00006,0.00006,-0.00006,5.84922,5.72650,2.53863,1.96879,1.92495,-3.83986,9.80848,5.79739,-3.92260,10.00754,1.95118,1.95118,57.78152,12.77343,57.78151488,12.77343556,A,123921.10,"[-0.20000,-0.00000,-0.00000]","[-0.10000,-0.00000,-0.00000]",9.57960,-3.82289,8.78375,1.98129,0.39338,0.05635
17:28:09.031491,5.87052,0.00886,2.67765,2.67765,"[5.00000,0.00000,0.00000]","[1.30000,0.00000,0.00000]",-0.00013,-0.07720,-0.00015,-0.12065,-0.01881,0.00015,-0.00015,-0.00006,0.00006,-0.00006,5.85987,4.66422,2.56644,1.97168,1.92673,-3.85116,9.83781,5.79739,-3.92260,10.00754,1.95118,1.95118,57.78152,12.77343,57.78151514,12.77343537,A,123921.10,"[-0.20000,-0.00000,-0.00000]","[-0.10000,-0.00000,-0.00000]",9.60755,-3.83405,8.80937,1.98129,0.39472,0.05456
17:28:09.046980,5.88601,0.01396,2.67765,2.67765,"[5.00000,0.00000,0.00000]","[1.30000,0.00000,0.00000]",-0.00013,-0.07816,-0.00015,-0.11899,-0.01855,0.00015,-0.00015,-0.00006,0.00006,-0.00006,5.87039,6.15385,2.58868,1.97368,1.92817,-3.86490,9.87362,5.79739,-3.92260,10.00754,1.95118,1.95118,57.78152,12.77343,57.78151546,12.77343514,A,123921.10,"[-0.20000,-0.00000,-0.00000]","[-0.10000,-0.00000,-0.00000]",9.63532,-3.84513,8.83484,1.98129,0.39642,0.05313
17:28:09.077598,5.91663,0.02379,2.67765,2.67765,"[5.00000,0.00000,0.00000]","[1.30000,0.00000,0.00000]",-0.00013,-0.08147,-0.00015,-0.11946,-0.01863,0.00015,-0.00015,-0.00006,0.00006,-0.00006,5.89111,5.35043,2.60647,1.97541,1.92797,-3.87935,9.91129,5.91179,-4.00165,10.24847,1.88782,1.88782,57.78152,12.77343,57.78151580,12.77343490,A,123921.20,"[-0.20000,-0.00000,-0.00000]","[-0.10000,-0.00000,-0.00000]",9.69095,-3.86733,8.88585,1.98129,0.39820,0.05333
17:28:09.091991,5.93102,0.00862,2.67765,2.67765,"[5.00000,0.00000,0.00000]","[1.30000,0.00000,0.00000]",-0.00014,-0.08549,-0.00015,-0.13611,-0.02120,0.00015,-0.00015,-0.00006,0.00006,-0.00006,5.92075,4.68620,2.62071,1.96540,1.91561,-3.90935,9.99216,5.91179,-4.00165,10.24847,1.88782,1.88782,57.78152,12.77343,57.78151653,12.77343439,A,123921.20,"[-0.20000,-0.00000,-0.00000]","[-0.10000,-0.00000,-0.00000]",9.77005,-3.89889,8.95837,1.98129,0.40296,0.06568
17:28:09.102096,5.94112,0.00860,2.67765,2.67765,"[5.00000,0.00000,0.00000]","[1.30000,0.00000,0.00000]",-0.00014,-0.08713,-0.00015,-0.14458,-0.02250,0.00015,-0.00015,-0.00006,0.00006,-0.00006,5.93046,4.55189,2.63210,1.96006,1.90931,-3.92066,10.02362,5.91179,-4.00165,10.24847,1.88782,1.88782,57.78152,12.77343,57.78151681,12.77343420,A,123921.20,"[-0.20000,-0.00000,-0.00000]","[-0.10000,-0.00000,-0.00000]",9.79713,-3.90970,8.98321,1.98129,0.40515,0.07198
17:28:09.115763,5.95478,0.01205,2.67765,2.67765,"[5.00000,0.00000,0.00000]","[1.30000,0.00000,0.00000]",-0.00014,-0.08835,-0.00015,-0.15200,-0.02364,0.00015,-0.00015,-0.00006,0.00006,-0.00006,5.94090,5.65324,2.64121,1.95531,1.90385,-3.93272,10.05761,5.91179,-4.00165,10.24847,1.88782,1.88782,57.78152,12.77343,57.78151712,12.77343400,A,123921.20,"[-0.20000,-0.00000,-0.00000]","[-0.10000,-0.00000,-0.00000]",9.82441,-3.92059,9.00822,1.98129,0.40765,0.07745
17:28:09.145623,5.98465,0.01573,2.67765,2.67765,"[5.00000,0.00000,0.00000]","[1.30000,0.00000,0.00000]",-0.00015,-0.09296,-0.00015,-0.16486,-0.02563,0.00015,-0.00015,-0.00006,0.00006,-0.00006,5.97020,6.63980,2.64849,1.94868,1.89452,-3.95815,10.13072,5.91179,-4.00165,10.24847,1.88782,1.88782,57.78152,12.77343,57.78151777,12.77343357,A,123921.20,"[-0.20000,-0.00000,-0.00000]","[-0.10000,-0.00000,-0.00000]",9.89447,-3.94855,9.07246,1.98129,0.41351,0.08677
17:28:09.170937,6.00996,0.01434,2.67765,2.67765,"[5.00000,0.00000,0.00000]","[1.30000,0.00000,0.00000]",-0.00015,-0.09772,-0.00015,-0.17522,-0.02722,0.00015,-0.00015,-0.00006,0.00006,-0.00006,5.99546,4.83516,2.65433,1.94400,1.88706,-3.97831,10.19021,5.91179,-4.00165,10.24847,1.88782,1.88782,57.78152,12.77343,57.78151831,12.77343323,A,123921.20,"[-0.20000,-0.00000,-0.00000]","[-0.10000,-0.00000,-0.00000]",9.96593,-3.97706,9.13798,1.98129,0.41876,0.09424
17:28:09.214673,6.05370,0.03300,2.67765,2.67765,"[5.00000,0.00000,0.00000]","[1.30000,0.00000,0.00000]",-0.00015,-0.10292,-0.00015,-0.18521,-0.02876,0.00015,-0.00015,-0.00006,0.00006,-0.00006,6.02228,4.87912,2.65899,1.93992,1.87993,-3.99847,10.25116,6.04815,-4.09057,10.48939,1.92439,1.92439,57.78152,12.77343,57.78151886,12.77343289,A,123921.30,"[-0.20000,-0.00000,-0.00000]","[-0.10000,-0.00000,-0.00000]",10.03303,-4.00384,9.19950,1.98129,0.42460,0.10136
17:28:09.229807,6.06883,0.00952,2.67765,2.67765,"[5.00000,0.00000,0.00000]","[1.30000,0.00000,0.00000]",-0.00016,-0.10986,-0.00015,-0.18963,-0.02945,0.00015,-0.00015,-0.00006,0.00006,-0.00006,6.05788,4.88156,2.66272,1.94135,1.87730,-4.02525,10.33248,6.04815,-4.09057,10.48939,1.92439,1.92439,57.78152,12.77343,57.78151959,12.77343244,A,123921.30,"[-0.20000,-0.00000,-0.00000]","[-0.10000,-0.00000,-0.00000]",10.13637,-4.04508,9.29426,1.98129,0.43251,0.10399
17:28:09.239533,6.07856,0.00848,2.67765,2.67765,"[5.00000,0.00000,0.00000]","[1.30000,0.00000,0.00000]",-0.00016,-0.11150,-0.00015,-0.18963,-0.02860,0.00015,-0.00015,-0.00006,0.00006,-0.00006,6.06825,6.00244,2.66571,1.94678,1.88176,-4.03479,10.36016,6.04815,-4.09057,10.48939,1.92439,1.92439,57.78152,12.77343,57.78151984,12.77343227,A,123921.30,"[-0.20000,-0.00000,-0.00000]","[-0.10000,-0.00000,-0.00000]",10.16516,-4.05657,9.32066,1.98129,0.43480,0.09953
17:28:09.250212,6.08924,0.00895,2.67765,2.67765,"[5.00000,0.00000,0.00000]","[1.30000,0.00000,0.00000]",-0.00016,-0.11376,-0.00015,-0.17994,-0.02796,0.00015,-0.00015,-0.00006,0.00006,-0.00006,6.07824,5.77778,2.66810,1.95152,1.88518,-4.04410,10.38691,6.04815,-4.09057,10.48939,1.92439,1.92439,57.78152,12.77343,57.78152008,12.77343212,A,123921.30,"[-0.20000,-0.00000,-0.00000]","[-0.10000,-0.00000,-0.00000]",10.19246,-4.06747,9.34570,1.98129,0.43694,0.09612
17:28:09.259999,6.09903,0.00855,2.67765,2.67765,"[5.00000,0.00000,0.00000]","[1.30000,0.00000,0.00000]",-0.00016,-0.11640,-0.00015,-0.17994,-0.02796,0.00015,-0.00015,-0.00006,0.00006,-0.00006,6.08864,5.54823,2.67001,1.95580,1.88791,-4.05281,10.41168,6.04815,-4.09057,10.48939,1.92439,1.92439,57.78152,12.77343,57.78152030,12.77343197,A,123921.30,"[-0.20000,-0.00000,-0.00000]","[-0.10000,-0.00000,-0.00000]",10.21970,-4.07833,9.37067,1.98129,0.43884,0.09338
17:28:09.275246,6.11427,0.01373,2.67765,2.67765,"[5.00000,0.00000,0.00000]","[1.30000,0.00000,0.00000]",-0.00016,-0.11872,-0.00015,-0.17483,-0.02718,0.00015,-0.00015,-0.00006,0.00006,-0.00006,6.10040,5.71917,2.67153,1.95879,1.88954,-4.06393,10.44371,6.04815,-4.09057,10.48939,1.92439,1.92439,57.78152,12.77343,57.78152059,12.77343178,A,123921.30,"[-0.20000,-0.00000,-0.00000]","[-0.10000,-0.00000,-0.00000]",10.24661,-4.08907,9.39534,1.98129,0.44142,0.09176
17:28:09.303761,6.14279,0.01565,2.67765,2.67765,"[5.00000,0.00000,0.00000]","[1.30000,0.00000,0.00000]",-0.00017,-0.12441,-0.00015,-0.18003,-0.02798,0.00015,-0.00015,-0.00006,0.00006,-0.00006,6.12858,4.76190,2.67276,1.95865,1.88607,-4.08511,10.50612,6.04815,-4.09057,10.48939,1.92439,1.92439,57.78152,12.77343,57.78152115,12.77343143,A,123921.30,"[-0.20000,-0.00000,-0.00000]","[-0.10000,-0.00000,-0.00000]",10.31778,-4.11748,9.46060,1.98129,0.44691,0.09523
17:28:09.358967,6.19799,0.04133,2.67765,2.67765,"[5.00000,0.00000,0.00000]","[1.30000,0.00000,0.00000]",-0.00017,-0.13097,-0.00015,-0.18537,-0.02881,0.00015,-0.00015,-0.00006,0.00006,-0.00006,6.15683,3.31868,2.67374,1.95892,1.88248,-4.10474,10.56463,6.19259,-4.18938,10.98977,1.76575,1.76575,57.78153,12.77343,57.78152168,12.77343109,A,123921.50,"[-0.20000,-0.00000,-0.00000]","[-0.10000,-0.00000,-0.00000]",10.39680,-4.14901,9.53306,1.98129,0.45226,0.09882
17:28:09.373527,6.21255,0.00888,2.28771,2.28771,"[5.00000,0.00000,0.00000]","[1.30000,0.00000,0.00000]",-0.00018,-0.14020,-0.00015,-0.22942,-0.03559,0.00015,-0.00015,-0.00006,0.00006,-0.00006,6.20171,2.60806,2.59653,1.93189,1.85002,-4.13999,10.68216,6.19259,-4.18938,10.98977,1.76575,1.76575,57.78153,12.77343,57.78152273,12.77343050,A,123921.50,"[-0.20000,-0.00000,-0.00000]","[-0.10000,-0.00000,-0.00000]",10.52262,-4.19922,9.64842,1.98129,0.46684,0.13128
17:28:09.383217,6.22224,0.00845,2.28771,2.28771,"[5.00000,0.00000,0.00000]","[1.30000,0.00000,0.00000]",-0.00018,-0.14238,-0.00015,-0.22942,-0.03559,0.00015,-0.00015,-0.00006,0.00006,-0.00006,6.21192,2.57387,2.53477,1.91727,1.83411,-4.14793,10.71663,6.19259,-4.18938,10.98977,1.76575,1.76575,57.78153,12.77343,57.78152304,12.77343037,A,123921.50,"[-0.20000,-0.00000,-0.00000]","[-0.10000,-0.00000,-0.00000]",10.54575,-4.20845,9.66963,1.98129,0.47331,0.14718
17:28:09.393860,6.23289,0.00890,2.28771,2.28771,"[5.00000,0.00000,0.00000]","[1.30000,0.00000,0.00000]",-0.00018,-0.14478,-0.00015,-0.26955,-0.04177,0.00015,-0.00015,-0.00006,0.00006,-0.00006,6.22195,3.07204,2.48536,1.90501,1.82043,-4.15521,10.74962,6.19259,-4.18938,10.98977,1.76575,1.76575,57.78153,12.77343,57.78152334,12.77343024,A,123921.50,"[-0.20000,-0.00000,-0.00000]","[-0.10000,-0.00000,-0.00000]",10.56903,-4.21774,9.69098,1.98129,0.47980,0.16087
17:28:09.403547,6.24258,0.00845,2.28771,2.28771,"[5.00000,0.00000,0.00000]","[1.30000,0.00000,0.00000]",-0.00018,-0.14742,-0.00015,-0.26955,-0.04177,0.00015,-0.00015,-0.00006,0.00006,-0.00006,6.23228,3.36752,2.44583,1.89487,1.80874,-4.16165,10.78016,6.19259,-4.18938,10.98977,1.76575,1.76575,57.78153,12.77343,57.78152361,12.77343013,A,123921.50,"[-0.20000,-0.00000,-0.00000]","[-0.10000,-0.00000,-0.00000]",10.59220,-4.22699,9.71222,1.98129,0.48609,0.17255
17:28:09.413985,6.25301,0.00871,2.28771,2.28771,"[5.00000,0.00000,0.00000]","[1.30000,0.00000,0.00000]",-0.00019,-0.15010,-0.00015,-0.29929,-0.04635,0.00015,-0.00015,-0.00006,0.00006,-0.00006,6.24224,3.55311,2.41420,1.88649,1.79877,-4.16748,10.80897,6.19259,-4.18938,10.98977,1.76575,1.76575,57.78153,12.77343,57.78152387,12.77343004,A,123921.50,"[-0.20000,-0.00000,-0.00000]","[-0.10000,-0.00000,-0.00000]",10.61545,-4.23626,9.73354,1.98129,0.49224,0.18252
17:28:09.424793,6.26381,0.00930,2.28771,2.28771,"[5.00000,0.00000,0.00000]","[1.30000,0.00000,0.00000]",-0.00019,-0.15313,-0.00015,-0.31148,-0.04823,0.00015,-0.00015,-0.00006,0.00006,-0.00006,6.25268,3.48962,2.38891,1.87951,1.79001,-4.17300,10.83707,6.19259,-4.18938,10.98977,1.76575,1.76575,57.78153,12.77343,57.78152413,12.77342994,A,123921.50,"[-0.20000,-0.00000,-0.00000]","[-0.10000,-0.00000,-0.00000]",10.63876,-4.24557,9.75491,1.98129,0.49840,0.19129
17:28:09.434807,6.27383,0.00876,2.28771,2.28771,"[5.00000,0.00000,0.00000]","[1.30000,0.00000,0.00000]",-0.00019,-0.15610,-0.00015,-0.32174,-0.04981,0.00015,-0.00015,-0.00006,0.00006,-0.00006,6.26317,3.10379,2.36867,1.87395,1.78268,-4.17780,10.86260,6.19259,-4.18938,10.98977,1.76575,1.76575,57.78153,12.77343,57.78152436,12.77342986,A,123921.50,"[-0.20000,-0.00000,-0.00000]","[-0.10000,-0.00000,-0.00000]",10.66289,-4.25520,9.77704,1.98129,0.50418,0.19861
17:28:09.447963,6.28697,0.01170,2.28771,2.28771,"[5.00000,0.00000,0.00000]","[1.30000,0.00000,0.00000]",-0.00019,-0.15961,-0.00015,-0.33136,-0.05129,0.00015,-0.00015,-0.00006,0.00006,-0.00006,6.27339,3.54579,2.35248,1.86922,1.77588,-4.18269,10.88900,6.19259,-4.18938,10.98977,1.76575,1.76575,57.78153,12.77343,57.78152459,12.77342978,A,123921.50,"[-0.20000,-0.00000,-0.00000]","[-0.10000,-0.00000,-0.00000]",10.68620,-4.26450,9.79841,1.98129,0.51023,0.20541
17:28:09.489005,6.32803,0.03144,2.28771,2.28771,"[5.00000,0.00000,0.00000]","[1.30000,0.00000,0.00000]",-0.00019,-0.16694,-0.00015,-0.34758,-0.05379,0.00015,-0.00015,-0.00006,0.00006,-0.00006,6.29529,3.26740,2.33952,1.86223,1.76456,-4.19301,10.94205,6.32046,-4.24866,11.21216,1.83131,1.83131,57.78153,12.77343,57.78152507,12.77342961,A,123921.60,"[-0.20000,-0.00000,-0.00000]","[-0.10000,-0.00000,-0.00000]",10.73493,-4.28394,9.84309,1.98129,0.52193,0.21674
17:28:09.507682,6.34671,0.00864,2.28771,2.28771,"[5.00000,0.00000,0.00000]","[1.30000,0.00000,0.00000]",-0.00020,-0.18132,-0.00015,-0.35939,-0.05561,0.00015,-0.00015,-0.00006,0.00006,-0.00006,6.33628,4.72283,2.32916,1.86357,1.75737,-4.21048,11.03040,6.32046,-4.24866,11.21216,1.83131,1.83131,57.78153,12.77343,57.78152587,12.77342931,A,123921.60,"[-0.20000,-0.00000,-0.00000]","[-0.10000,-0.00000,-0.00000]",10.82977,-4.32179,9.93006,1.98129,0.54117,0.22392
17:28:09.517904,6.35693,0.00870,2.28771,2.28771,"[5.00000,0.00000,0.00000]","[1.30000,0.00000,0.00000]",-0.00020,-0.18523,-0.00015,-0.35157,-0.05441,0.00015,-0.00015,-0.00006,0.00006,-0.00006,6.34614,3.85592,2.32087,1.87248,1.76396,-4.21570,11.05701,6.32046,-4.24866,11.21216,1.83131,1.83131,57.78153,12.77343,57.78152610,12.77342922,A,123921.60,"[-0.20000,-0.00000,-0.00000]","[-0.10000,-0.00000,-0.00000]",10.85298,-4.33106,9.95134,1.98129,0.54701,0.21734
17:28:09.529506,6.36839,0.00980,2.28771,2.28771,"[5.00000,0.00000,0.00000]","[1.30000,0.00000,0.00000]",-0.00020,-0.18928,-0.00015,-0.34567,-0.05350,0.00015,-0.00015,-0.00006,0.00006,-0.00006,6.35720,4.02930,2.31424,1.88002,1.76909,-4.22122,11.08458,6.32046,-4.24866,11.21216,1.83131,1.83131,57.78153,12.77343,57.78152635,12.77342913,A,123921.60,"[-0.20000,-0.00000,-0.00000]","[-0.10000,-0.00000,-0.00000]",10.87664,-4.34050,9.97304,1.98129,0.55295,0.21221
17:28:09.539495,6.37852,0.00872,2.28771,2.28771,"[5.00000,0.00000,0.00000]","[1.30000,0.00000,0.00000]",-0.00020,-0.19335,-0.00015,-0.34061,-0.05272,0.00015,-0.00015,-0.00006,0.00006,-0.00006,6.36798,4.20513,2.30893,1.88687,1.77350,-4.22639,11.10985,6.32046,-4.24866,11.21216,1.83131,1.83131,57.78153,12.77343,57.78152658,12.77342904,A,123921.60,"[-0.20000,-0.00000,-0.00000]","[-0.10000,-0.00000,-0.00000]",10.90228,-4.35073,9.99654,1.98129,0.55829,0.20779
17:28:09.549753,6.38878,0.00873,2.28771,2.28771,"[5.00000,0.00000,0.00000]","[1.30000,0.00000,0.00000]",-0.00021,-0.19703,-0.00015,-0.33585,-0.05199,0.00015,-0.00015,-0.00006,0.00006,-0.00006,6.37796,3.47497,2.30469,1.89318,1.77763,-4.23107,11.13233,6.32046,-4.24866,11.21216,1.83131,1.83131,57.78153,12.77343,57.78152678,12.77342896,A,123921.60,"[-0.20000,-0.00000,-0.00000]","[-0.10000,-0.00000,-0.00000]",10.92568,-4.36007,10.01800,1.98129,0.56297,0.20367
17:28:09.559807,6.39883,0.00856,2.28771,2.28771,"[5.00000,0.00000,0.00000]","[1.30000,0.00000,0.00000]",-0.00021,-0.20071,-0.00015,-0.33201,-0.05140,0.00015,-0.00015,-0.00006,0.00006,-0.00006,6.38843,4.11477,2.30129,1.89877,1.78101,-4.23568,11.15408,6.32046,-4.24866,11.21216,1.83131,1.83131,57.78153,12.77343,57.78152698,12.77342889,A,123921.60,"[-0.20000,-0.00000,-0.00000]","[-0.10000,-0.00000,-0.00000]",10.94903,-4.36938,10.03941,1.98129,0.56743,0.20028
17:28:09.576882,6.41591,0.01556,2.28771,2.28771,"[5.00000,0.00000,0.00000]","[1.30000,0.00000,0.00000]",-0.00021,-0.20428,-0.00015,-0.33156,-0.05134,0.00015,-0.00015,-0.00006,0.00006,-0.00006,6.39827,4.34188,2.29858,1.90189,1.78201,-4.24262,11.18646,6.32046,-4.24866,11.21216,1.83131,1.83131,57.78153,12.77343,57.78152727,12.77342877,A,123921.60,"[-0.20000,-0.00000,-0.00000]","[-0.10000,-0.00000,-0.00000]",10.97204,-4.37857,10.06051,1.98129,0.57399,0.19928
17:28:09.623008,6.46203,0.03238,2.28771,2.28771,"[5.00000,0.00000,0.00000]","[1.30000,0.00000,0.00000]",-0.00021,-0.21529,-0.00015,-0.34179,-0.05291,0.00015,-0.00015,-0.00006,0.00006,-0.00006,6.42979,3.44811,2.29641,1.90168,1.77521,-4.25418,11.24027,6.45502,-4.33759,11.47161,1.90099,1.90099,57.78153,12.77343,57.78152775,12.77342857,A,123921.70,"[-0.20000,-0.00000,-0.00000]","[-0.10000,-0.00000,-0.00000]",11.03905,-4.40531,10.12195,1.98129,0.58486,0.20609
17:28:09.651402,6.49043,0.01416,2.61813,2.61813,"[5.00000,0.00000,0.00000]","[1.30000,0.00000,0.00000]",-0.00022,-0.23224,-0.00015,-0.35182,-0.05447,0.00015,-0.00015,-0.00006,0.00006,-0.00006,6.47673,4.17827,2.36075,1.90613,1.76947,-4.27753,11.34435,6.45502,-4.33759,11.47161,1.90099,1.90099,57.78153,12.77343,57.78152869,12.77342818,A,123921.70,"[-0.20000,-0.00000,-0.00000]","[-0.10000,-0.00000,-0.00000]",11.14565,-4.44785,10.21970,1.98129,0.60498,0.21183
17:28:09.666798,6.50583,0.00867,2.61813,2.61813,"[5.00000,0.00000,0.00000]","[1.30000,0.00000,0.00000]",-0.00022,-0.23886,-0.00015,-0.33858,-0.05243,0.00015,-0.00015,-0.00006,0.00006,-0.00006,6.49540,4.70818,2.41222,1.92091,1.78025,-4.28654,11.38053,6.45502,-4.33759,11.47161,1.90099,1.90099,57.78153,12.77343,57.78152901,12.77342803,A,123921.70,"[-0.20000,-0.00000,-0.00000]","[-0.10000,-0.00000,-0.00000]",11.20028,-4.46965,10.26979,1.98129,0.61116,0.20104
17:28:09.677840,6.51686,0.00950,2.61813,2.61813,"[5.00000,0.00000,0.00000]","[1.30000,0.00000,0.00000]",-0.00023,-0.24280,-0.00015,-0.32275,-0.05000,0.00015,-0.00015,-0.00006,0.00006,-0.00006,6.50549,4.62027,2.45340,1.93580,1.79276,-4.29306,11.40378,6.45502,-4.33759,11.47161,1.90099,1.90099,57.78153,12.77343,57.78152922,12.77342792,A,123921.70,"[-0.20000,-0.00000,-0.00000]","[-0.10000,-0.00000,-0.00000]",11.22697,-4.48030,10.29426,1.98129,0.61446,0.18854
17:28:09.687608,6.52663,0.00852,2.61813,2.61813,"[5.00000,0.00000,0.00000]","[1.30000,0.00000,0.00000]",-0.00023,-0.24659,-0.00015,-0.32275,-0.04797,0.00015,-0.00015,-0.00006,0.00006,-0.00006,6.51629,4.20024,2.48635,1.94855,1.80321,-4.29971,11.42676,6.45502,-4.33759,11.47161,1.90099,1.90099,57.78153,12.77343,57.78152943,12.77342781,A,123921.70,"[-0.20000,-0.00000,-0.00000]","[-0.10000,-0.00000,-0.00000]",11.25506,-4.49151,10.32001,1.98129,0.61753,0.17808
17:28:09.698069,6.53709,0.00892,2.61813,2.61813,"[5.00000,0.00000,0.00000]","[1.30000,0.00000,0.00000]",-0.00023,-0.25001,-0.00015,-0.29794,-0.04618,0.00015,-0.00015,-0.00006,0.00006,-0.00006,6.52611,5.24786,2.51270,1.95979,1.81239,-4.30604,11.44773,6.45502,-4.33759,11.47161,1.90099,1.90099,57.78153,12.77343,57.78152962,12.77342770,A,123921.70,"[-0.20000,-0.00000,-0.00000]","[-0.10000,-0.00000,-0.00000]",11.28138,-4.50202,10.34415,1.98129,0.62010,0.16891
17:28:09.707683,6.54671,0.00838,2.61813,2.61813,"[5.00000,0.00000,0.00000]","[1.30000,0.00000,0.00000]",-0.00023,-0.25355,-0.00015,-0.29794,-0.04618,0.00015,-0.00015,-0.00006,0.00006,-0.00006,6.53649,4.55189,2.53379,1.96961,1.82006,-4.31224,11.46769,6.45502,-4.33759,11.47161,1.90099,1.90099,57.78153,12.77343,57.78152980,12.77342759,A,123921.70,"[-0.20000,-0.00000,-0.00000]","[-0.10000,-0.00000,-0.00000]",11.30793,-4.51261,10.36849,1.98129,0.62238,0.16124
17:28:09.751910,6.59094,0.04243,2.61813,2.61813,"[5.00000,0.00000,0.00000]","[1.30000,0.00000,0.00000]",-0.00023,-0.25672,-0.00015,-0.28295,-0.04388,0.00015,-0.00015,-0.00006,0.00006,-0.00006,6.54844,4.66911,2.55066,1.97598,1.82451,-4.32099,11.49730,6.58451,-4.51544,11.97199,1.91230,1.91230,57.78153,12.77342,57.78153006,12.77342745,A,123921.90,"[-0.20000,-0.00000,-0.00000]","[-0.10000,-0.00000,-0.00000]",11.33453,-4.52323,10.39289,1.98129,0.62617,0.15679
17:28:09.780217,6.61924,0.01453,2.61813,2.61813,"[5.00000,0.00000,0.00000]","[1.30000,0.00000,0.00000]",-0.00024,-0.27532,-0.00015,-0.31445,-0.04874,0.00015,-0.00015,-0.00006,0.00006,-0.00006,6.60564,4.42979,2.56415,1.96509,1.80228,-4.36274,11.64455,6.58451,-4.51544,11.97199,1.91230,1.91230,57.78153,12.77342,57.78153139,12.77342674,A,123921.90,"[-0.20000,-0.00000,-0.00000]","[-0.10000,-0.00000,-0.00000]",11.48164,-4.58193,10.52777,1.98129,0.64665,0.17901
17:28:09.805551,6.64458,0.01234,2.61813,2.61813,"[5.00000,0.00000,0.00000]","[1.30000,0.00000,0.00000]",-0.00024,-0.28358,-0.00015,-0.31574,-0.04894,0.00015,-0.00015,-0.00006,0.00006,-0.00006,6.63329,6.18559,2.57495,1.97010,1.80223,-4.38334,11.71593,6.58451,-4.51544,11.97199,1.91230,1.91230,57.78153,12.77342,57.78153203,12.77342639,A,123921.90,"[-0.20000,-0.00000,-0.00000]","[-0.10000,-0.00000,-0.00000]",11.55366,-4.61067,10.59380,1.98129,0.65624,0.17907
17:28:09.820243,6.65927,0.00873,2.61813,2.61813,"[5.00000,0.00000,0.00000]","[1.30000,0.00000,0.00000]",-0.00025,-0.28933,-0.00015,-0.30816,-0.04777,0.00015,-0.00015,-0.00006,0.00006,-0.00006,6.64900,5.38462,2.58358,1.97993,1.80853,-4.39734,11.76012,6.58451,-4.51544,11.97199,1.91230,1.91230,57.78153,12.77342,57.78153243,12.77342616,A,123921.90,"[-0.20000,-0.00000,-0.00000]","[-0.10000,-0.00000,-0.00000]",11.60153,-4.62978,10.63770,1.98129,0.66104,0.17276
17:28:09.831513,6.67054,0.00911,2.61813,2.61813,"[5.00000,0.00000,0.00000]","[1.30000,0.00000,0.00000]",-0.00025,-0.29300,-0.00015,-0.29739,-0.04612,0.00015,-0.00015,-0.00006,0.00006,-0.00006,6.66000,4.87668,2.59049,1.99073,1.81707,-4.40852,11.79245,6.58451,-4.51544,11.97199,1.91230,1.91230,57.78153,12.77342,57.78153272,12.77342597,A,123921.90,"[-0.20000,-0.00000,-0.00000]","[-0.10000,-0.00000,-0.00000]",11.63001,-4.64114,10.66382,1.98129,0.66370,0.16422
17:28:09.841878,6.68091,0.00884,2.61813,2.61813,"[5.00000,0.00000,0.00000]","[1.30000,0.00000,0.00000]",-0.00025,-0.29660,-0.00015,-0.28759,-0.04461,0.00015,-0.00015,-0.00006,0.00006,-0.00006,6.67015,5.05739,2.59602,2.00067,1.82480,-4.41879,11.82104,6.58451,-4.51544,11.97199,1.91230,1.91230,57.78153,12.77342,57.78153298,12.77342580,A,123921.90,"[-0.20000,-0.00000,-0.00000]","[-0.10000,-0.00000,-0.00000]",11.65782,-4.65224,10.68932,1.98129,0.66569,0.15650
17:28:09.873449,6.71247,0.03033,2.61813,2.61813,"[5.00000,0.00000,0.00000]","[1.30000,0.00000,0.00000]",-0.00025,-0.29988,-0.00015,-0.27914,-0.04331,0.00015,-0.00015,-0.00006,0.00006,-0.00006,6.68042,5.33822,2.60044,2.00936,1.83147,-4.42871,11.84816,6.70510,-4.62412,12.23144,1.96749,1.96749,57.78154,12.77342,57.78153322,12.77342563,A,123922.00,"[-0.20000,-0.00000,-0.00000]","[-0.10000,-0.00000,-0.00000]",11.68417,-4.66276,10.71348,1.98129,0.66742,0.14983
17:28:09.903723,6.74275,0.01549,2.95908,2.95908,"[5.00000,0.00000,0.00000]","[1.30000,0.00000,0.00000]",-0.00026,-0.31429,-0.00015,-0.30148,-0.04676,0.00015,-0.00015,-0.00006,0.00006,-0.00006,6.72844,5.23321,2.67217,2.00271,1.81590,-4.46938,11.98318,6.70510,-4.62412,12.23144,1.96749,1.96749,57.78154,12.77342,57.78153443,12.77342494,A,123922.00,"[-0.20000,-0.00000,-0.00000]","[-0.10000,-0.00000,-0.00000]",11.80224,-4.70987,10.82174,1.98129,0.68401,0.16539
17:28:09.930834,6.76986,0.01520,2.95908,2.95908,"[5.00000,0.00000,0.00000]","[1.30000,0.00000,0.00000]",-0.00026,-0.32269,-0.00015,-0.29782,-0.04620,0.00015,-0.00015,-0.00006,0.00006,-0.00006,6.75398,5.15018,2.72955,2.01150,1.81946,-4.49151,12.05312,6.70510,-4.62412,12.23144,1.96749,1.96749,57.78154,12.77342,57.78153506,12.77342457,A,123922.00,"[-0.20000,-0.00000,-0.00000]","[-0.10000,-0.00000,-0.00000]",11.88326,-4.74221,10.89602,1.98129,0.69163,0.16183
17:28:09.955992,6.79502,0.01360,2.95908,2.95908,"[5.00000,0.00000,0.00000]","[1.30000,0.00000,0.00000]",-0.00027,-0.33150,-0.00015,-0.29510,-0.04578,0.00015,-0.00015,-0.00006,0.00006,-0.00006,6.78202,5.29426,2.77546,2.01975,1.82222,-4.51238,12.11813,6.70510,-4.62412,12.23144,1.96749,1.96749,57.78154,12.77342,57.78153565,12.77342422,A,123922.00,"[-0.20000,-0.00000,-0.00000]","[-0.10000,-0.00000,-0.00000]",11.96241,-4.77379,10.96860,1.98129,0.69843,0.15908
17:28:09.987370,6.82639,0.02436,2.95908,2.95908,"[5.00000,0.00000,0.00000]","[1.30000,0.00000,0.00000]",-0.00027,-0.33707,-0.00015,-0.28307,-0.04394,0.00015,-0.00015,-0.00006,0.00006,-0.00006,6.80023,6.31990,2.81218,2.03275,1.83173,-4.52679,12.15814,6.82162,-4.72293,12.50943,1.91230,1.91230,57.78154,12.77342,57.78153601,12.77342398,A,123922.10,"[-0.20000,-0.00000,-0.00000]","[-0.10000,-0.00000,-0.00000]",12.02335,-4.79811,11.02447,1.98129,0.70119,0.14956
17:28:10.001894,6.84092,0.00875,2.95908,2.95908,"[5.00000,0.00000,0.00000]","[1.30000,0.00000,0.00000]",-0.00027,-0.34655,-0.00015,-0.30125,-0.04674,0.00015,-0.00015,-0.00006,0.00006,-0.00006,6.83021,5.49939,2.84156,2.02563,1.81865,-4.55601,12.24841,6.82162,-4.72293,12.50943,1.91230,1.91230,57.78154,12.77342,57.78153682,12.77342348,A,123922.10,"[-0.20000,-0.00000,-0.00000]","[-0.10000,-0.00000,-0.00000]",12.11248,-4.83368,11.10620,1.98129,0.71042,0.16265
17:28:10.013556,6.85257,0.01016,2.95908,2.95908,"[5.00000,0.00000,0.00000]","[1.30000,0.00000,0.00000]",-0.00028,-0.34992,-0.00015,-0.29370,-0.04558,0.00015,-0.00015,-0.00006,0.00006,-0.00006,6.84066,5.49695,2.86506,2.03367,1.82457,-4.57000,12.28374,6.82162,-4.72293,12.50943,1.91230,1.91230,57.78154,12.77342,57.78153714,12.77342325,A,123922.10,"[-0.20000,-0.00000,-0.00000]","[-0.10000,-0.00000,-0.00000]",12.14275,-4.84576,11.13395,1.98129,0.71169,0.15672
17:28:10.043164,6.88219,0.01376,2.95908,2.95908,"[5.00000,0.00000,0.00000]","[1.30000,0.00000,0.00000]",-0.00028,-0.35847,-0.00015,-0.31069,-0.04820,0.00015,-0.00015,-0.00006,0.00006,-0.00006,6.86768,6.44933,2.88387,2.02690,1.81240,-4.59639,12.36732,6.82162,-4.72293,12.50943,1.91230,1.91230,57.78154,12.77342,57.78153789,12.77342280,A,123922.10,"[-0.20000,-0.00000,-0.00000]","[-0.10000,-0.00000,-0.00000]",12.21967,-4.87646,11.20449,1.98129,0.72084,0.16890
17:28:10.070271,6.90930,0.01479,2.95908,2.95908,"[5.00000,0.00000,0.00000]","[1.30000,0.00000,0.00000]",-0.00028,-0.36690,-0.00015,-0.32219,-0.04997,0.00015,-0.00015,-0.00006,0.00006,-0.00006,6.89428,5.21123,2.89891,2.02418,1.80433,-4.61827,12.43752,6.82162,-4.72293,12.50943,1.91230,1.91230,57.78154,12.77342,57.78153852,12.77342243,A,123922.10,"[-0.20000,-0.00000,-0.00000]","[-0.10000,-0.00000,-0.00000]",12.29678,-4.90723,11.27519,1.98129,0.72880,0.17696
17:28:10.113067,6.95209,0.02932,2.95908,2.95908,"[5.00000,0.00000,0.00000]","[1.30000,0.00000,0.00000]",-0.00029,-0.37627,-0.00015,-0.33326,-0.05168,0.00015,-0.00015,-0.00006,0.00006,-0.00006,6.92216,6.29060,2.91094,2.02241,1.79659,-4.63846,12.50400,6.94657,-4.78221,12.76888,1.79543,1.79543,57.78154,12.77342,57.78153912,12.77342209,A,123922.20,"[-0.20000,-0.00000,-0.00000]","[-0.10000,-0.00000,-0.00000]",12.38034,-4.94057,11.35181,1.98129,0.73682,0.18470
17:28:10.127748,6.96677,0.00898,2.95908,2.95908,"[5.00000,0.00000,0.00000]","[1.30000,0.00000,0.00000]",-0.00029,-0.38771,-0.00015,-0.37511,-0.05812,0.00015,-0.00015,-0.00006,0.00006,-0.00006,6.95605,5.39683,2.92057,1.99889,1.76574,-4.66392,12.59678,6.94657,-4.78221,12.76888,1.79543,1.79543,57.78154,12.77342,57.78153995,12.77342166,A,123922.20,"[-0.20000,-0.00000,-0.00000]","[-0.10000,-0.00000,-0.00000]",12.48394,-4.98192,11.44680,1.98129,0.75050,0.21555
17:28:10.138641,6.97767,0.00936,2.95908,2.95908,"[5.00000,0.00000,0.00000]","[1.30000,0.00000,0.00000]",-0.00029,-0.39161,-0.00015,-0.38223,-0.05922,0.00015,-0.00015,-0.00006,0.00006,-0.00006,6.96641,5.15751,2.92827,1.99623,1.76058,-4.67452,12.62915,6.94657,-4.78221,12.76888,1.79543,1.79543,57.78154,12.77342,57.78154024,12.77342148,A,123922.20,"[-0.20000,-0.00000,-0.00000]","[-0.10000,-0.00000,-0.00000]",12.51501,-4.99432,11.47529,1.98129,0.75369,0.22072
17:28:10.149061,6.98808,0.00917,2.68398,2.68398,"[5.00000,0.00000,0.00000]","[1.30000,0.00000,0.00000]",-0.00030,-0.39552,-0.00015,-0.38797,-0.06010,0.00015,-0.00015,-0.00006,0.00006,-0.00006,6.97713,4.99145,2.87942,1.99462,1.75645,-4.68427,12.65883,6.94657,-4.78221,12.76888,1.79543,1.79543,57.78154,12.77342,57.78154051,12.77342132,A,123922.20,"[-0.20000,-0.00000,-0.00000]","[-0.10000,-0.00000,-0.00000]",12.54636,-5.00683,11.50404,1.98129,0.75660,0.22485
17:28:10.159024,6.99805,0.00872,2.68398,2.68398,"[5.00000,0.00000,0.00000]","[1.30000,0.00000,0.00000]",-0.00030,-0.39979,-0.00015,-0.39286,-0.06086,0.00015,-0.00015,-0.00006,0.00006,-0.00006,6.98753,4.28083,2.84033,1.99387,1.75294,-4.69326,12.68615,6.94657,-4.78221,12.76888,1.79543,1.79543,57.78154,12.77342,57.78154076,12.77342117,A,123922.20,"[-0.20000,-0.00000,-0.00000]","[-0.10000,-0.00000,-0.00000]",12.57430,-5.01797,11.52965,1.98129,0.75925,0.22835
17:28:10.176199,7.01522,0.01546,2.68398,2.68398,"[5.00000,0.00000,0.00000]","[1.30000,0.00000,0.00000]",-0.00030,-0.40446,-0.00015,-0.40276,-0.06238,0.00015,-0.00015,-0.00006,0.00006,-0.00006,6.99968,4.92308,2.80906,1.98980,1.74585,-4.70389,12.72386,6.94657,-4.78221,12.76888,1.79543,1.79543,57.78154,12.77342,57.78154110,12.77342099,A,123922.20,"[-0.20000,-0.00000,-0.00000]","[-0.10000,-0.00000,-0.00000]",12.60226,-5.02913,11.55529,1.98129,0.76455,0.23545
17:28:10.203934,7.04295,0.01488,2.68398,2.68398,"[5.00000,0.00000,0.00000]","[1.30000,0.00000,0.00000]",-0.00030,-0.41686,-0.00015,-0.43101,-0.06673,0.00015,-0.00015,-0.00006,0.00006,-0.00006,7.02875,5.22589,2.78404,1.97736,1.72535,-4.71917,12.79036,6.94657,-4.78221,12.76888,1.79543,1.79543,57.78154,12.77342,57.78154169,12.77342073,A,123922.20,"[-0.20000,-0.00000,-0.00000]","[-0.10000,-0.00000,-0.00000]",12.67819,-5.05944,11.62492,1.98129,0.77708,0.25594
17:28:10.258571,7.09760,0.04255,2.68398,2.68398,"[5.00000,0.00000,0.00000]","[1.30000,0.00000,0.00000]",-0.00031,-0.42838,-0.00015,-0.45450,-0.07035,0.00015,-0.00015,-0.00006,0.00006,-0.00006,7.05591,5.28205,2.76403,1.96806,1.70851,-4.73199,12.85131,7.09223,-4.89090,13.34339,1.75777,1.75777,57.78155,12.77342,57.78154224,12.77342051,A,123922.40,"[-0.20000,-0.00000,-0.00000]","[-0.10000,-0.00000,-0.00000]",12.75052,-5.08830,11.69124,1.98129,0.78966,0.27278
17:28:10.273002,7.11203,0.00878,2.68398,2.68398,"[5.00000,0.00000,0.00000]","[1.30000,0.00000,0.00000]",-0.00032,-0.44932,-0.00015,-0.50981,-0.07887,0.00015,-0.00015,-0.00006,0.00006,-0.00006,7.10139,4.91575,2.74802,1.94233,1.66895,-4.75400,12.97743,7.09223,-4.89090,13.34339,1.75777,1.75777,57.78155,12.77342,57.78154338,12.77342014,A,123922.40,"[-0.20000,-0.00000,-0.00000]","[-0.10000,-0.00000,-0.00000]",12.87984,-5.13991,11.80981,1.98129,0.81980,0.31235
17:28:10.282950,7.12198,0.00870,2.68398,2.68398,"[5.00000,0.00000,0.00000]","[1.30000,0.00000,0.00000]",-0.00032,-0.45376,-0.00015,-0.50654,-0.07836,0.00015,-0.00015,-0.00006,0.00006,-0.00006,7.11140,6.65934,2.73521,1.94854,1.67220,-4.76290,13.01655,7.09223,-4.89090,13.34339,1.75777,1.75777,57.78155,12.77342,57.78154373,12.77341999,A,123922.40,"[-0.20000,-0.00000,-0.00000]","[-0.10000,-0.00000,-0.00000]",12.90673,-5.15064,11.83447,1.98129,0.82726,0.30909
17:28:10.293613,7.13264,0.00900,2.68398,2.68398,"[5.00000,0.00000,0.00000]","[1.30000,0.00000,0.00000]",-0.00032,-0.45931,-0.00015,-0.50537,-0.07818,0.00015,-0.00015,-0.00006,0.00006,-0.00006,7.12159,5.92674,2.72497,1.95387,1.67384,-4.77153,13.05484,7.09223,-4.89090,13.34339,1.75777,1.75777,57.78155,12.77342,57.78154407,12.77341985,A,123922.40,"[-0.20000,-0.00000,-0.00000]","[-0.10000,-0.00000,-0.00000]",12.93448,-5.16171,11.85991,1.98129,0.83462,0.30746
17:28:10.303217,7.14224,0.00837,2.68398,2.68398,"[5.00000,0.00000,0.00000]","[1.30000,0.00000,0.00000]",-0.00032,-0.46458,-0.00015,-0.50537,-0.07818,0.00015,-0.00015,-0.00006,0.00006,-0.00006,7.13202,6.09524,2.71677,1.95934,1.67578,-4.77963,13.08986,7.09223,-4.89090,13.34339,1.75777,1.75777,57.78155,12.77342,57.78154439,12.77341971,A,123922.40,"[-0.20000,-0.00000,-0.00000]","[-0.10000,-0.00000,-0.00000]",12.96191,-5.17266,11.88507,1.98129,0.84117,0.30552
17:28:10.315656,7.15466,0.01062,2.68398,2.68398,"[5.00000,0.00000,0.00000]","[1.30000,0.00000,0.00000]",-0.00032,-0.47004,-0.00015,-0.50289,-0.07781,0.00015,-0.00015,-0.00006,0.00006,-0.00006,7.14200,6.00244,2.71021,1.96424,1.67701,-4.78742,13.12363,7.09223,-4.89090,13.34339,1.75777,1.75777,57.78155,12.77342,57.78154469,12.77341958,A,123922.40,"[-0.20000,-0.00000,-0.00000]","[-0.10000,-0.00000,-0.00000]",12.98918,-5.18354,11.91007,1.98129,0.84751,0.30428
17:28:10.344942,7.18397,0.01634,2.68398,2.68398,"[5.00000,0.00000,0.00000]","[1.30000,0.00000,0.00000]",-0.00033,-0.48379,-0.00015,-0.53530,-0.08280,0.00015,-0.00015,-0.00006,0.00006,-0.00006,7.16957,6.33944,2.70497,1.95069,1.65416,-4.80016,13.20562,7.09223,-4.89090,13.34339,1.75777,1.75777,57.78155,12.77342,57.78154543,12.77341936,A,123922.40,"[-0.20000,-0.00000,-0.00000]","[-0.10000,-0.00000,-0.00000]",13.05243,-5.20878,11.96806,1.98129,0.86854,0.32713
17:28:10.393834,7.23286,0.03664,2.68398,2.68398,"[5.00000,0.00000,0.00000]","[1.30000,0.00000,0.00000]",-0.00033,-0.49990,-0.00015,-0.56597,-0.08752,0.00015,-0.00015,-0.00006,0.00006,-0.00006,7.19800,5.36752,2.70077,1.94019,1.63268,-4.81059,13.28307,7.22557,-4.97983,13.62138,1.88040,1.88040,57.78155,12.77342,57.78154612,12.77341919,A,123922.50,"[-0.20000,-0.00000,-0.00000]","[-0.10000,-0.00000,-0.00000]",13.12909,-5.23937,12.03836,1.98129,0.88988,0.34861
17:28:10.410108,7.24913,0.00873,2.94316,2.94316,"[5.00000,0.00000,0.00000]","[1.30000,0.00000,0.00000]",-0.00034,-0.52243,-0.00015,-0.58175,-0.08995,0.00015,-0.00015,-0.00006,0.00006,-0.00006,7.23848,5.74359,2.74925,1.94631,1.62323,-4.82415,13.38224,7.22557,-4.97983,13.62138,1.88040,1.88040,57.78155,12.77342,57.78154702,12.77341896,A,123922.50,"[-0.20000,-0.00000,-0.00000]","[-0.10000,-0.00000,-0.00000]",13.24764,-5.28668,12.14705,1.98129,0.91703,0.35807
17:28:10.421189,7.26021,0.00957,2.94316,2.94316,"[5.00000,0.00000,0.00000]","[1.30000,0.00000,0.00000]",-0.00034,-0.52860,-0.00015,-0.55031,-0.08512,0.00015,-0.00015,-0.00006,0.00006,-0.00006,7.24883,6.11477,2.78803,1.97539,1.64801,-4.83319,13.41803,7.22557,-4.97983,13.62138,1.88040,1.88040,57.78155,12.77342,57.78154734,12.77341881,A,123922.50,"[-0.20000,-0.00000,-0.00000]","[-0.10000,-0.00000,-0.00000]",13.27773,-5.29869,12.17465,1.98129,0.92302,0.33329
17:28:10.431449,7.27048,0.00901,2.94316,2.94316,"[5.00000,0.00000,0.00000]","[1.30000,0.00000,0.00000]",-0.00034,-0.53474,-0.00015,-0.52273,-0.08088,0.00015,-0.00015,-0.00006,0.00006,-0.00006,7.25982,5.70696,2.81906,2.00136,1.66968,-4.84223,13.45029,7.22557,-4.97983,13.62138,1.88040,1.88040,57.78155,12.77342,57.78154763,12.77341865,A,123922.50,"[-0.20000,-0.00000,-0.00000]","[-0.10000,-0.00000,-0.00000]",13.30953,-5.31138,12.20380,1.98129,0.92761,0.31162
17:28:10.441665,7.28069,0.00871,2.94316,2.94316,"[5.00000,0.00000,0.00000]","[1.30000,0.00000,0.00000]",-0.00034,-0.54065,-0.00015,-0.49893,-0.07722,0.00015,-0.00015,-0.00006,0.00006,-0.00006,7.26990,6.57631,2.84388,2.02419,1.68834,-4.85124,13.48032,7.22557,-4.97983,13.62138,1.88040,1.88040,57.78155,12.77342,57.78154790,12.77341850,A,123922.50,"[-0.20000,-0.00000,-0.00000]","[-0.10000,-0.00000,-0.00000]",13.34045,-5.32372,12.23216,1.98129,0.93133,0.29295
17:28:10.451758,7.29079,0.00859,2.94316,2.94316,"[5.00000,0.00000,0.00000]","[1.30000,0.00000,0.00000]",-0.00034,-0.54648,-0.00015,-0.47939,-0.07421,0.00015,-0.00015,-0.00006,0.00006,-0.00006,7.28035,6.28083,2.86373,2.04368,1.70371,-4.86031,13.50976,7.22557,-4.97983,13.62138,1.88040,1.88040,57.78155,12.77342,57.78154816,12.77341835,A,123922.50,"[-0.20000,-0.00000,-0.00000]","[-0.10000,-0.00000,-0.00000]",13.37045,-5.33569,12.25966,1.98129,0.93476,0.27759
17:28:10.465043,7.30404,0.01159,2.94316,2.94316,"[5.00000,0.00000,0.00000]","[1.30000,0.00000,0.00000]",-0.00034,-0.55169,-0.00015,-0.46239,-0.07160,0.00015,-0.00015,-0.00006,0.00006,-0.00006,7.29039,6.64957,2.87962,2.06073,1.71707,-4.86926,13.53757,7.22557,-4.97983,13.62138,1.88040,1.88040,57.78155,12.77342,57.78154841,12.77341820,A,123922.50,"[-0.20000,-0.00000,-0.00000]","[-0.10000,-0.00000,-0.00000]",13.40061,-5.34773,12.28732,1.98129,0.93765,0.26423
17:28:10.507738,7.34677,0.03087,2.94316,2.94316,"[5.00000,0.00000,0.00000]","[1.30000,0.00000,0.00000]",-0.00035,-0.56437,-0.00015,-0.48365,-0.07487,0.00015,-0.00015,-0.00006,0.00006,-0.00006,7.31627,6.41758,2.89233,2.05491,1.70219,-4.88503,13.61127,7.34034,-5.05887,13.89937,1.84783,1.84783,57.78155,12.77341,57.78154908,12.77341793,A,123922.60,"[-0.20000,-0.00000,-0.00000]","[-0.10000,-0.00000,-0.00000]",13.46957,-5.37525,12.35055,1.98129,0.95261,0.27910
17:28:10.538018,7.37704,0.01612,2.94316,2.94316,"[5.00000,0.00000,0.00000]","[1.30000,0.00000,0.00000]",-0.00035,-0.58718,-0.00015,-0.54732,-0.08467,0.00015,-0.00015,-0.00006,0.00006,-0.00006,7.36191,6.52015,2.90249,2.02539,1.65617,-4.90898,13.74116,7.34034,-5.05887,13.89937,1.84783,1.84783,57.78155,12.77341,57.78155024,12.77341753,A,123922.60,"[-0.20000,-0.00000,-0.00000]","[-0.10000,-0.00000,-0.00000]",13.60202,-5.42810,12.47199,1.98129,0.98247,0.32512
17:28:10.558156,7.39718,0.00877,2.94316,2.94316,"[5.00000,0.00000,0.00000]","[1.30000,0.00000,0.00000]",-0.00036,-0.60012,-0.00015,-0.55379,-0.08567,0.00015,-0.00015,-0.00006,0.00006,-0.00006,7.38651,6.40781,2.91063,2.03112,1.65242,-4.92079,13.79949,7.34034,-5.05887,13.89937,1.84783,1.84783,57.78155,12.77341,57.78155077,12.77341733,A,123922.60,"[-0.20000,-0.00000,-0.00000]","[-0.10000,-0.00000,-0.00000]",13.68288,-5.46037,12.54613,1.98129,0.99493,0.32887
17:28:10.567800,7.40682,0.00835,2.94316,2.94316,"[5.00000,0.00000,0.00000]","[1.30000,0.00000,0.00000]",-0.00036,-0.60583,-0.00015,-0.55379,-0.08567,0.00015,-0.00015,-0.00006,0.00006,-0.00006,7.39667,6.23687,2.91713,2.05008,1.66715,-4.92951,13.82663,7.34034,-5.05887,13.89937,1.84783,1.84783,57.78155,12.77341,57.78155101,12.77341718,A,123922.60,"[-0.20000,-0.00000,-0.00000]","[-0.10000,-0.00000,-0.00000]",13.71246,-5.47218,12.57325,1.98129,0.99776,0.31414
17:28:10.578543,7.41757,0.00869,2.94316,2.94316,"[5.00000,0.00000,0.00000]","[1.30000,0.00000,0.00000]",-0.00036,-0.61166,-0.00015,-0.52007,-0.08049,0.00015,-0.00015,-0.00006,0.00006,-0.00006,7.40685,5.73871,2.92234,2.06615,1.67890,-4.93822,13.85352,7.34034,-5.05887,13.89937,1.84783,1.84783,57.78155,12.77341,57.78155125,12.77341704,A,123922.60,"[-0.20000,-0.00000,-0.00000]","[-0.10000,-0.00000,-0.00000]",13.74304,-5.48438,12.60130,1.98129,1.00050,0.30240
17:28:10.588985,7.42801,0.00891,2.94316,2.94316,"[5.00000,0.00000,0.00000]","[1.30000,0.00000,0.00000]",-0.00036,-0.61741,-0.00015,-0.50735,-0.07853,0.00015,-0.00015,-0.00006,0.00006,-0.00006,7.41727,6.61294,2.92650,2.08044,1.68890,-4.94675,13.87882,7.34034,-5.05887,13.89937,1.84783,1.84783,57.78155,12.77341,57.78155148,12.77341689,A,123922.60,"[-0.20000,-0.00000,-0.00000]","[-0.10000,-0.00000,-0.00000]",13.77306,-5.49636,12.62883,1.98129,1.00278,0.29239
17:28:10.598914,7.43794,0.00866,2.94316,2.94316,"[5.00000,0.00000,0.00000]","[1.30000,0.00000,0.00000]",-0.00036,-0.62273,-0.00015,-0.49581,-0.07676,0.00015,-0.00015,-0.00006,0.00006,-0.00006,7.42742,6.75214,2.92983,2.09346,1.69794,-4.95499,13.90204,7.34034,-5.05887,13.89937,1.84783,1.84783,57.78155,12.77341,57.78155169,12.77341675,A,123922.60,"[-0.20000,-0.00000,-0.00000]","[-0.10000,-0.00000,-0.00000]",13.80300,-5.50831,12.65627,1.98129,1.00449,0.28335
17:28:10.641238,7.48000,0.04036,2.94316,2.94316,"[5.00000,0.00000,0.00000]","[1.30000,0.00000,0.00000]",-0.00037,-0.62850,-0.00015,-0.48730,-0.07545,0.00015,-0.00015,-0.00006,0.00006,-0.00006,7.43758,5.51160,2.93250,2.10452,1.70466,-4.96316,13.92514,7.47344,-5.24660,14.45534,1.89644,1.89644,57.78156,12.77341,57.78155190,12.77341661,A,123922.80,"[-0.20000,-0.00000,-0.00000]","[-0.10000,-0.00000,-0.00000]",13.83343,-5.52045,12.68417,1.98129,1.00622,0.27664
17:28:10.669598,7.50862,0.01534,3.14106,3.14106,"[5.00000,0.00000,0.00000]","[1.30000,0.00000,0.00000]",-0.00037,-0.65737,-0.00015,-0.58508,-0.09050,0.00015,-0.00015,-0.00006,0.00006,-0.00006,7.49437,6.70818,2.97421,2.05531,1.63342,-4.99816,14.10631,7.47344,-5.24660,14.45534,1.89644,1.89644,57.78156,12.77341,57.78155353,12.77341602,A,123922.80,"[-0.20000,-0.00000,-0.00000]","[-0.10000,-0.00000,-0.00000]",13.99126,-5.58344,12.82889,1.98129,1.04643,0.34788
17:28:10.696984,7.53601,0.01543,3.14106,3.14106,"[5.00000,0.00000,0.00000]","[1.30000,0.00000,0.00000]",-0.00038,-0.67189,-0.00015,-0.59767,-0.09244,0.00015,-0.00015,-0.00006,0.00006,-0.00006,7.52044,7.17705,3.00758,2.05879,1.62562,-5.01488,14.19236,7.47344,-5.24660,14.45534,1.89644,1.89644,57.78156,12.77341,57.78155430,12.77341574,A,123922.80,"[-0.20000,-0.00000,-0.00000]","[-0.10000,-0.00000,-0.00000]",14.07693,-5.61762,12.90745,1.98129,1.06544,0.35568
17:28:10.712109,7.55114,0.00847,3.14106,3.14106,"[5.00000,0.00000,0.00000]","[1.30000,0.00000,0.00000]",-0.00038,-0.68463,-0.00015,-0.58531,-0.09055,0.00015,-0.00015,-0.00006,0.00006,-0.00006,7.54088,4.78877,3.03428,2.07911,1.63592,-5.02859,14.24428,7.47344,-5.24660,14.45534,1.89644,1.89644,57.78156,12.77341,57.78155477,12.77341551,A,123922.80,"[-0.20000,-0.00000,-0.00000]","[-0.10000,-0.00000,-0.00000]",14.14623,-5.64528,12.97099,1.98129,1.07358,0.34537
17:28:10.722634,7.56166,0.00877,3.14106,3.14106,"[5.00000,0.00000,0.00000]","[1.30000,0.00000,0.00000]",-0.00038,-0.69088,-0.00015,-0.55831,-0.08639,0.00015,-0.00015,-0.00006,0.00006,-0.00006,7.55084,5.60440,3.05563,2.10507,1.65692,-5.04107,14.27894,7.47344,-5.24660,14.45534,1.89644,1.89644,57.78156,12.77341,57.78155508,12.77341530,A,123922.80,"[-0.20000,-0.00000,-0.00000]","[-0.10000,-0.00000,-0.00000]",14.17831,-5.65808,13.00041,1.98129,1.07597,0.32437
17:28:10.733534,7.57256,0.00946,3.14106,3.14106,"[5.00000,0.00000,0.00000]","[1.30000,0.00000,0.00000]",-0.00038,-0.69700,-0.00015,-0.53608,-0.08298,0.00015,-0.00015,-0.00006,0.00006,-0.00006,7.56162,5.67033,3.07272,2.12724,1.67422,-5.05349,14.31265,7.47344,-5.24660,14.45534,1.89644,1.89644,57.78156,12.77341,57.78155538,12.77341509,A,123922.80,"[-0.20000,-0.00000,-0.00000]","[-0.10000,-0.00000,-0.00000]",14.21031,-5.67085,13.02975,1.98129,1.07803,0.30708
17:28:10.758552,7.59758,0.02376,3.14106,3.14106,"[5.00000,0.00000,0.00000]","[1.30000,0.00000,0.00000]",-0.00039,-0.70302,-0.00015,-0.51657,-0.07998,0.00015,-0.00015,-0.00006,0.00006,-0.00006,7.57197,5.87057,3.08639,2.14720,1.68934,-5.06563,14.34373,7.59282,-5.34541,14.73333,1.91230,1.91230,57.78156,12.77341,57.78155566,12.77341489,A,123922.90,"[-0.20000,-0.00000,-0.00000]","[-0.10000,-0.00000,-0.00000]",14.24394,-5.68427,13.06058,1.98129,1.07931,0.29195
17:28:10.774229,7.61325,0.00987,3.14106,3.14106,"[5.00000,0.00000,0.00000]","[1.30000,0.00000,0.00000]",-0.00039,-0.71975,-0.00015,-0.55505,-0.08590,0.00015,-0.00015,-0.00006,0.00006,-0.00006,7.60156,5.48962,3.09732,2.13305,1.66164,-5.08955,14.44654,7.59282,-5.34541,14.73333,1.91230,1.91230,57.78156,12.77341,57.78155659,12.77341448,A,123922.90,"[-0.20000,-0.00000,-0.00000]","[-0.10000,-0.00000,-0.00000]",14.33678,-5.72132,13.14571,1.98129,1.09841,0.31966
17:28:10.790636,7.62966,0.01516,3.14106,3.14106,"[5.00000,0.00000,0.00000]","[1.30000,0.00000,0.00000]",-0.00039,-0.72646,-0.00015,-0.54294,-0.08404,0.00015,-0.00015,-0.00006,0.00006,-0.00006,7.61527,5.58974,3.10607,2.14843,1.67153,-5.10578,14.49865,7.59282,-5.34541,14.73333,1.91230,1.91230,57.78156,12.77341,57.78155706,12.77341421,A,123922.90,"[-0.20000,-0.00000,-0.00000]","[-0.10000,-0.00000,-0.00000]",14.37164,-5.73523,13.17767,1.98129,1.10431,0.30977
17:28:10.817634,7.65666,0.01487,3.14106,3.14106,"[5.00000,0.00000,0.00000]","[1.30000,0.00000,0.00000]",-0.00040,-0.74203,-0.00015,-0.56668,-0.08770,0.00015,-0.00015,-0.00006,0.00006,-0.00006,7.64162,5.84860,3.11307,2.14448,1.65470,-5.12464,14.57841,7.59282,-5.34541,14.73333,1.91230,1.91230,57.78156,12.77341,57.78155777,12.77341389,A,123922.90,"[-0.20000,-0.00000,-0.00000]","[-0.10000,-0.00000,-0.00000]",14.45731,-5.76942,13.25623,1.98129,1.11885,0.32659
17:28:10.846770,7.68579,0.01558,3.14106,3.14106,"[5.00000,0.00000,0.00000]","[1.30000,0.00000,0.00000]",-0.00040,-0.75878,-0.00015,-0.59717,-0.09239,0.00015,-0.00015,-0.00006,0.00006,-0.00006,7.67146,5.76801,3.11867,2.13685,1.63299,-5.14212,14.66275,7.59282,-5.34541,14.73333,1.91230,1.91230,57.78156,12.77341,57.78155853,12.77341360,A,123922.90,"[-0.20000,-0.00000,-0.00000]","[-0.10000,-0.00000,-0.00000]",14.54653,-5.80503,13.33804,1.98129,1.13648,0.34830
17:28:10.877407,7.71643,0.02383,3.14106,3.14106,"[5.00000,0.00000,0.00000]","[1.30000,0.00000,0.00000]",-0.00040,-0.77058,-0.00015,-0.58789,-0.09097,0.00015,-0.00015,-0.00006,0.00006,-0.00006,7.69066,5.91941,3.12314,2.15458,1.64068,-5.15475,14.70594,7.71167,-5.45410,15.02985,1.92213,1.92213,57.78156,12.77341,57.78155892,12.77341338,A,123923.00,"[-0.20000,-0.00000,-0.00000]","[-0.10000,-0.00000,-0.00000]",14.61679,-5.83306,13.40246,1.98129,1.14213,0.34062
17:28:10.892199,7.73123,0.00907,3.14106,3.14106,"[5.00000,0.00000,0.00000]","[1.30000,0.00000,0.00000]",-0.00041,-0.78870,-0.00015,-0.62419,-0.09655,0.00015,-0.00015,-0.00006,0.00006,-0.00006,7.72086,5.26984,3.12673,2.14435,1.61479,-5.17554,14.80524,7.71167,-5.45410,15.02985,1.92213,1.92213,57.78156,12.77341,57.78155981,12.77341303,A,123923.00,"[-0.20000,-0.00000,-0.00000]","[-0.10000,-0.00000,-0.00000]",14.70957,-5.87009,13.48753,1.98129,1.16271,0.36650
17:28:10.902674,7.74170,0.00871,2.72317,2.72317,"[5.00000,0.00000,0.00000]","[1.30000,0.00000,0.00000]",-0.00041,-0.79506,-0.00015,-0.59211,-0.09162,0.00015,-0.00015,-0.00006,0.00006,-0.00006,7.73117,6.06838,3.04602,2.17464,1.63951,-5.19055,14.84108,7.71167,-5.45410,15.02985,1.92213,1.92213,57.78156,12.77341,57.78156014,12.77341278,A,123923.00,"[-0.20000,-0.00000,-0.00000]","[-0.10000,-0.00000,-0.00000]",14.74358,-5.88366,13.51872,1.98129,1.16324,0.34178
17:28:10.914210,7.75322,0.01002,2.72317,2.72317,"[5.00000,0.00000,0.00000]","[1.30000,0.00000,0.00000]",-0.00041,-0.80174,-0.00015,-0.56483,-0.08743,0.00015,-0.00015,-0.00006,0.00006,-0.00006,7.74135,5.55311,2.98145,2.20148,1.66047,-5.20538,14.87455,7.71167,-5.45410,15.02985,1.92213,1.92213,57.78156,12.77341,57.78156044,12.77341253,A,123923.00,"[-0.20000,-0.00000,-0.00000]","[-0.10000,-0.00000,-0.00000]",14.77133,-5.89474,13.54416,1.98129,1.16300,0.32083
17:28:10.943621,7.78265,0.01538,2.72317,2.72317,"[5.00000,0.00000,0.00000]","[1.30000,0.00000,0.00000]",-0.00042,-0.81805,-0.00015,-0.60124,-0.09303,0.00015,-0.00015,-0.00006,0.00006,-0.00006,7.76838,5.49695,2.92979,2.18958,1.63405,-5.22474,14.95939,7.71167,-5.45410,15.02985,1.92213,1.92213,57.78156,12.77341,57.78156120,12.77341220,A,123923.00,"[-0.20000,-0.00000,-0.00000]","[-0.10000,-0.00000,-0.00000]",14.83682,-5.92087,13.60421,1.98129,1.17910,0.34724
17:28:10.971838,7.81086,0.01561,2.72317,2.72317,"[5.00000,0.00000,0.00000]","[1.30000,0.00000,0.00000]",-0.00042,-0.83466,-0.00015,-0.62671,-0.09695,0.00015,-0.00015,-0.00006,0.00006,-0.00006,7.79695,6.01465,2.88846,2.18644,1.61586,-5.24057,15.03166,7.71167,-5.45410,15.02985,1.92213,1.92213,57.78156,12.77341,57.78156185,12.77341194,A,123923.00,"[-0.20000,-0.00000,-0.00000]","[-0.10000,-0.00000,-0.00000]",14.91296,-5.95125,13.67402,1.98129,1.19343,0.36543
17:28:11.014432,7.85346,0.03032,2.72317,2.72317,"[5.00000,0.00000,0.00000]","[1.30000,0.00000,0.00000]",-0.00042,-0.85159,-0.00015,-0.64671,-0.10003,0.00015,-0.00015,-0.00006,0.00006,-0.00006,7.82386,5.53846,2.85541,2.18797,1.60179,-5.25416,15.09619,7.84806,-5.55290,15.30783,1.91230,1.91230,57.78156,12.77341,57.78156243,12.77341171,A,123923.10,"[-0.20000,-0.00000,-0.00000]","[-0.10000,-0.00000,-0.00000]",14.98886,-5.98154,13.74362,1.98129,1.20672,0.37950
17:28:11.092646,7.93077,0.07161,2.72317,2.72317,"[5.00000,0.00000,0.00000]","[1.30000,0.00000,0.00000]",-0.00043,-0.87372,-0.00015,-0.67713,-0.10472,0.00015,-0.00015,-0.00006,0.00006,-0.00006,7.85750,6.74481,2.82896,2.18004,1.57304,-5.27151,15.18460,7.84806,-5.55290,15.30783,1.91230,1.91230,57.78156,12.77341,57.78156323,12.77341141,A,123923.10,"[-0.20000,-0.00000,-0.00000]","[-0.10000,-0.00000,-0.00000]",15.08688,-6.02066,13.83349,1.98129,1.22610,0.40826
