Description :  ; walk_time = 2.0 ; speed_up_time = 3.0 ; balancing_time = 0.0
RealTime,Time,CalculationTime,MeasuredVelocity,FilteredVelocity,BalancingGainsInner,BalancingGainsOuter,Roll,SteeringAngle,RollRate,ControlInput,BalancingSetpoint,gy,gz,ax,ay,az,imu_read_timing,SteerMotorCurrent,v_estimated,yaw_estimated,heading_estimated,x_estimated,y_estimated,GPS_timestamp,x_GPS,y_GPS,theta_GPS,theta_GPS_noUnwrap,latitude,longitude,lat_estimated,lon_estimated,status,NMEA timestamp,DirectionGains,LateralPositionGains,distance_travelled,x_ref,y_ref,heading_ref,lateral_error,heading_error
18:09:37.541704,0.08479,0.08475,0.00000,1.50000,"[5.00000,0.00000,0.00000]","[1.30000,0.00000,0.00000]",-0.00466,-0.14318,0.03693,0.00000,0.00000,-0.07110,-0.10215,0.48513,-0.36088,1.12411,0.00001,0.01954,0.00000,0.08364,0.00000,0.00000,0.00000,0.01524,0.00000,0.00000,0.00000,0.00000,57.78143,12.77353,57.78142817,12.77352567,A,133522.80,"[-0.20000,-0.00000,-0.00000]","[-0.10000,-0.00000,-0.00000]",0.00000,0.00000,0.00000,0.00000,0.00000,0.00000
18:09:37.559143,0.10339,0.00752,0.00000,0.00000,"[5.00000,0.00000,0.00000]","[1.30000,0.00000,0.00000]",-0.00265,-0.10735,0.04273,0.00000,0.00000,0.01335,0.03178,0.15146,-0.13908,1.16351,0.09739,0.02686,0.00000,0.08048,0.01790,0.00000,0.00000,0.01524,0.00000,0.00000,0.00000,0.00000,57.78143,12.77353,57.78142817,12.77352567,A,133522.80,"[-0.20000,-0.00000,-0.00000]","[-0.10000,-0.00000,-0.00000]",0.14371,0.00000,0.00000,0.00000,0.00000,0.00000
18:09:37.567057,0.11131,0.00520,0.00000,0.00000,"[5.00000,0.00000,0.00000]","[1.30000,0.00000,0.00000]",-0.00292,-0.10458,0.02960,0.00000,0.00000,-0.00177,0.01895,0.23052,-0.01330,1.11776,0.10553,0.03175,0.00000,0.07755,0.01659,0.00000,0.00000,0.01524,0.00000,0.00000,0.00000,0.00000,57.78143,12.77353,57.78142817,12.77352567,A,133522.80,"[-0.20000,-0.00000,-0.00000]","[-0.10000,-0.00000,-0.00000]",0.14371,0.00000,0.00000,0.00000,0.00000,0.00000
18:09:37.627318,0.17156,0.05505,0.00000,1.50000,"[5.00000,0.00000,0.00000]","[1.30000,0.00000,0.00000]",-0.00559,-0.10166,0.03540,0.00000,0.00000,-0.03185,-0.00288,0.13066,-0.19032,1.03920,0.11610,0.03419,0.00000,0.07480,0.01555,0.00000,0.00000,0.13300,-0.03952,0.05560,2.18878,2.18878,57.78143,12.77352,57.78142817,12.77352567,A,133522.90,"[-0.20000,-0.00000,-0.00000]","[-0.10000,-0.00000,-0.00000]",0.14371,0.00000,0.00000,0.00000,0.00000,0.00000
18:09:37.648850,0.19310,0.00861,0.00000,0.00000,"[5.00000,0.00000,0.00000]","[1.30000,0.00000,0.00000]",-0.00276,-0.08528,0.05587,0.00000,0.00000,0.00342,0.04461,0.08101,-0.05502,1.03047,0.18731,0.01709,0.00000,0.39935,0.34968,-0.00198,0.00278,0.13300,-0.03952,0.05560,2.18878,2.18878,57.78143,12.77352,57.78142819,12.77352563,A,133522.90,"[-0.20000,-0.00000,-0.00000]","[-0.10000,-0.00000,-0.00000]",0.24565,0.00000,0.00000,0.00000,0.00000,0.00000
18:09:37.656403,0.20064,0.00586,0.00000,0.00000,"[5.00000,0.00000,0.00000]","[1.30000,0.00000,0.00000]",-0.00482,-0.08284,0.04640,0.00000,0.00000,0.00098,0.04766,0.03959,-0.15354,1.10099,0.19489,0.02198,0.00000,0.67500,0.62676,-0.00385,0.00542,0.13300,-0.03952,0.05560,2.18878,2.18878,57.78143,12.77352,57.78142822,12.77352560,A,133522.90,"[-0.20000,-0.00000,-0.00000]","[-0.10000,-0.00000,-0.00000]",0.24565,0.00000,0.00000,0.00000,0.00000,0.00000
18:09:37.666113,0.21037,0.00537,0.00000,0.00000,"[5.00000,0.00000,0.00000]","[1.30000,0.00000,0.00000]",-0.00429,-0.07956,0.03235,0.00000,0.00000,0.00907,0.03514,0.07753,0.03776,1.08641,0.20459,0.01954,0.00000,0.90902,0.86269,-0.00564,0.00793,0.13300,-0.03952,0.05560,2.18878,2.18878,57.78143,12.77352,57.78142824,12.77352557,A,133522.90,"[-0.20000,-0.00000,-0.00000]","[-0.10000,-0.00000,-0.00000]",0.24565,0.00000,0.00000,0.00000,0.00000,0.00000
18:09:37.676217,0.22047,0.00508,0.00000,0.00000,"[5.00000,0.00000,0.00000]","[1.30000,0.00000,0.00000]",-0.00430,-0.07690,0.04686,0.00000,0.00000,-0.00849,0.02628,0.10760,-0.01366,1.07494,0.21496,0.01709,0.00000,1.10770,1.06292,-0.00733,0.01031,0.13300,-0.03952,0.05560,2.18878,2.18878,57.78143,12.77352,57.78142826,12.77352554,A,133522.90,"[-0.20000,-0.00000,-0.00000]","[-0.10000,-0.00000,-0.00000]",0.24565,0.00000,0.00000,0.00000,0.00000,0.00000
18:09:37.687051,0.23130,0.00536,0.00000,0.00000,"[5.00000,0.00000,0.00000]","[1.30000,0.00000,0.00000]",-0.00409,-0.07458,0.05388,0.00000,0.00000,-0.01215,0.02705,0.08894,-0.00207,1.04542,0.22534,0.03419,0.00000,1.27637,1.23295,-0.00894,0.01258,0.13300,-0.03952,0.05560,2.18878,2.18878,57.78143,12.77352,57.78142828,12.77352552,A,133522.90,"[-0.20000,-0.00000,-0.00000]","[-0.10000,-0.00000,-0.00000]",0.24565,0.00000,0.00000,0.00000,0.00000,0.00000
18:09:37.747242,0.29100,0.05465,0.00000,1.50000,"[5.00000,0.00000,0.00000]","[1.30000,0.00000,0.00000]",-0.00447,-0.07271,0.05739,0.00000,0.00000,-0.02544,0.01956,0.07161,-0.04477,0.99253,0.23592,0.03175,0.00000,1.41958,1.37725,-0.01047,0.01473,0.25386,-0.04940,0.12973,1.70330,1.70330,57.78143,12.77352,57.78142830,12.77352549,A,133523.00,"[-0.20000,-0.00000,-0.00000]","[-0.10000,-0.00000,-0.00000]",0.24565,0.00000,0.00000,0.00000,0.00000,0.00000
18:09:37.768399,0.31265,0.00890,0.00000,0.00000,"[5.00000,0.00000,0.00000]","[1.30000,0.00000,0.00000]",-0.00240,-0.06371,0.04426,0.00000,0.00000,-0.00101,0.02751,0.00043,-0.04770,1.04414,0.30604,0.04151,0.00000,1.46770,1.43062,-0.01242,0.02048,0.25386,-0.04940,0.12973,1.70330,1.70330,57.78143,12.77352,57.78142835,12.77352546,A,133523.00,"[-0.20000,-0.00000,-0.00000]","[-0.10000,-0.00000,-0.00000]",0.34672,0.00000,0.00000,0.00000,0.00000,0.00000
18:09:37.775216,0.31947,0.00537,0.00000,0.00000,"[5.00000,0.00000,0.00000]","[1.30000,0.00000,0.00000]",-0.00200,-0.06323,0.04350,0.00000,0.00000,0.00587,0.02690,0.00250,0.02885,1.07195,0.31371,0.02686,0.00000,1.50856,1.47176,-0.01427,0.02594,0.25386,-0.04940,0.12973,1.70330,1.70330,57.78143,12.77352,57.78142840,12.77352543,A,133523.00,"[-0.20000,-0.00000,-0.00000]","[-0.10000,-0.00000,-0.00000]",0.34672,0.00000,0.00000,0.00000,0.00000,0.00000
18:09:37.785568,0.32981,0.00530,0.00000,0.00000,"[5.00000,0.00000,0.00000]","[1.30000,0.00000,0.00000]",-0.00192,-0.06289,0.04838,0.00000,0.00000,0.01274,0.02812,0.08656,-0.00543,1.03139,0.32410,0.01954,0.00000,1.54326,1.50666,-0.01602,0.03113,0.25386,-0.04940,0.12973,1.70330,1.70330,57.78143,12.77352,57.78142845,12.77352540,A,133523.00,"[-0.20000,-0.00000,-0.00000]","[-0.10000,-0.00000,-0.00000]",0.34672,0.00000,0.00000,0.00000,0.00000,0.00000
18:09:37.795717,0.33997,0.00505,0.00000,0.00000,"[5.00000,0.00000,0.00000]","[1.30000,0.00000,0.00000]",-0.00200,-0.06283,0.04640,0.00000,0.00000,-0.00696,0.02277,0.10047,-0.01385,1.03566,0.33428,0.02930,0.00000,1.57275,1.53619,-0.01769,0.03606,0.25386,-0.04940,0.12973,1.70330,1.70330,57.78143,12.77352,57.78142849,12.77352537,A,133523.00,"[-0.20000,-0.00000,-0.00000]","[-0.10000,-0.00000,-0.00000]",0.34672,0.00000,0.00000,0.00000,0.00000,0.00000
18:09:37.806611,0.35087,0.00555,0.00000,0.00000,"[5.00000,0.00000,0.00000]","[1.30000,0.00000,0.00000]",-0.00208,-0.06283,0.04869,0.00000,0.00000,-0.01002,0.01437,0.10565,-0.01671,0.99113,0.34503,0.04151,0.00000,1.59782,1.56125,-0.01928,0.04074,0.25386,-0.04940,0.12973,1.70330,1.70330,57.78143,12.77352,57.78142853,12.77352534,A,133523.00,"[-0.20000,-0.00000,-0.00000]","[-0.10000,-0.00000,-0.00000]",0.34672,0.00000,0.00000,0.00000,0.00000,0.00000
18:09:37.868820,0.41306,0.05734,0.00000,1.50000,"[5.00000,0.00000,0.00000]","[1.30000,0.00000,0.00000]",-0.00299,-0.06283,0.03861,0.00000,0.00000,-0.01353,0.01010,0.01616,-0.06301,0.98527,0.35515,0.04884,0.00000,1.61913,1.58256,-0.02078,0.04519,0.37252,-0.07904,0.20386,1.95118,1.95118,57.78143,12.77352,57.78142857,12.77352532,A,133523.10,"[-0.20000,-0.00000,-0.00000]","[-0.10000,-0.00000,-0.00000]",0.34672,0.00000,0.00000,0.00000,0.00000,0.00000
18:09:37.891381,0.43563,0.00889,0.00000,0.00000,"[5.00000,0.00000,0.00000]","[1.30000,0.00000,0.00000]",-0.00119,-0.06283,0.03052,0.00000,0.00000,0.00373,0.02109,0.02281,-0.00842,1.03767,0.42981,0.03175,0.00000,1.67442,1.63786,-0.02370,0.05313,0.37252,-0.07904,0.20386,1.95118,1.95118,57.78143,12.77352,57.78142864,12.77352527,A,133523.10,"[-0.20000,-0.00000,-0.00000]","[-0.10000,-0.00000,-0.00000]",0.45323,0.00000,0.00000,0.00000,0.00000,0.00000
18:09:37.898413,0.44266,0.00561,0.00000,0.00000,"[5.00000,0.00000,0.00000]","[1.30000,0.00000,0.00000]",-0.00163,-0.06283,0.02639,0.00000,0.00000,0.01167,0.01559,0.07168,-0.01818,1.03145,0.43672,0.02930,0.00000,1.72142,1.68485,-0.02646,0.06066,0.37252,-0.07904,0.20386,1.95118,1.95118,57.78143,12.77352,57.78142871,12.77352522,A,133523.10,"[-0.20000,-0.00000,-0.00000]","[-0.10000,-0.00000,-0.00000]",0.45323,0.00000,0.00000,0.00000,0.00000,0.00000
18:09:37.908324,0.45258,0.00513,0.00000,0.00000,"[5.00000,0.00000,0.00000]","[1.30000,0.00000,0.00000]",-0.00226,-0.06283,0.02395,0.00000,0.00000,0.00678,0.01010,0.08772,-0.03611,1.01900,0.44708,0.03175,0.00000,1.76137,1.72480,-0.02909,0.06782,0.37252,-0.07904,0.20386,1.95118,1.95118,57.78143,12.77352,57.78142878,12.77352518,A,133523.10,"[-0.20000,-0.00000,-0.00000]","[-0.10000,-0.00000,-0.00000]",0.45323,0.00000,0.00000,0.00000,0.00000,0.00000
18:09:37.919187,0.46344,0.00548,0.00000,0.00000,"[5.00000,0.00000,0.00000]","[1.30000,0.00000,0.00000]",-0.00272,-0.06283,0.02426,0.00000,0.00000,0.00251,0.00826,0.05917,-0.02580,1.02169,0.45736,0.02686,0.00000,1.79533,1.75876,-0.03159,0.07462,0.37252,-0.07904,0.20386,1.95118,1.95118,57.78143,12.77352,57.78142884,12.77352513,A,133523.10,"[-0.20000,-0.00000,-0.00000]","[-0.10000,-0.00000,-0.00000]",0.45323,0.00000,0.00000,0.00000,0.00000,0.00000
18:09:37.977593,0.52137,0.05252,0.00000,1.50000,"[5.00000,0.00000,0.00000]","[1.30000,0.00000,0.00000]",-0.00316,-0.06283,0.02151,0.00000,0.00000,-0.00101,0.01315,0.08686,-0.02141,0.97185,0.46794,0.01954,0.00000,1.82419,1.78762,-0.03396,0.08109,0.48495,-0.10869,0.27799,1.95118,1.95118,57.78143,12.77352,57.78142890,12.77352509,A,133523.20,"[-0.20000,-0.00000,-0.00000]","[-0.10000,-0.00000,-0.00000]",0.45323,0.00000,0.00000,0.00000,0.00000,0.00000
18:09:37.998960,0.54321,0.00727,0.00000,0.00000,"[5.00000,0.00000,0.00000]","[1.30000,0.00000,0.00000]",-0.00246,-0.06283,0.02181,0.00000,0.00000,0.00190,0.02323,0.08162,-0.03099,0.98698,0.53737,0.02442,0.00000,1.84873,1.81216,-0.03770,0.09093,0.48495,-0.10869,0.27799,1.95118,1.95118,57.78143,12.77352,57.78142898,12.77352503,A,133523.20,"[-0.20000,-0.00000,-0.00000]","[-0.10000,-0.00000,-0.00000]",0.55457,0.00000,0.00000,0.00000,0.00000,0.00000
18:09:38.007190,0.55144,0.00527,0.00000,0.00000,"[5.00000,0.00000,0.00000]","[1.30000,0.00000,0.00000]",-0.00256,-0.06283,0.02548,0.00000,0.00000,-0.00727,0.02476,0.03093,0.00213,1.04969,0.54559,0.03175,0.00000,1.86958,1.83301,-0.04125,0.10028,0.48495,-0.10869,0.27799,1.95118,1.95118,57.78143,12.77352,57.78142907,12.77352497,A,133523.20,"[-0.20000,-0.00000,-0.00000]","[-0.10000,-0.00000,-0.00000]",0.55457,0.00000,0.00000,0.00000,0.00000,0.00000
18:09:38.017990,0.56224,0.00567,0.00000,0.00000,"[5.00000,0.00000,0.00000]","[1.30000,0.00000,0.00000]",-0.00311,-0.06283,0.03281,0.00000,0.00000,0.00006,0.02124,0.10596,-0.03886,1.02102,0.55617,0.04396,0.00000,1.88731,1.85074,-0.04462,0.10917,0.48495,-0.10869,0.27799,1.95118,1.95118,57.78143,12.77352,57.78142915,12.77352491,A,133523.20,"[-0.20000,-0.00000,-0.00000]","[-0.10000,-0.00000,-0.00000]",0.55457,0.00000,0.00000,0.00000,0.00000,0.00000
18:09:38.027811,0.57206,0.00509,0.00000,0.00000,"[5.00000,0.00000,0.00000]","[1.30000,0.00000,0.00000]",-0.00308,-0.06283,0.03418,0.00000,0.00000,-0.01551,0.02445,0.10364,0.00122,1.01193,0.56633,0.01954,0.00000,1.90237,1.86581,-0.04782,0.11761,0.48495,-0.10869,0.27799,1.95118,1.95118,57.78143,12.77352,57.78142922,12.77352486,A,133523.20,"[-0.20000,-0.00000,-0.00000]","[-0.10000,-0.00000,-0.00000]",0.55457,0.00000,0.00000,0.00000,0.00000,0.00000
18:09:38.038568,0.58282,0.00545,0.00000,0.00000,"[5.00000,0.00000,0.00000]","[1.30000,0.00000,0.00000]",-0.00390,-0.06283,0.03632,0.00000,0.00000,-0.01582,0.01956,0.07887,-0.05765,0.98594,0.57694,0.02442,0.00000,1.91518,1.87861,-0.05087,0.12563,0.48495,-0.10869,0.27799,1.95118,1.95118,57.78143,12.77352,57.78142930,12.77352481,A,133523.20,"[-0.20000,-0.00000,-0.00000]","[-0.10000,-0.00000,-0.00000]",0.55457,0.00000,0.00000,0.00000,0.00000,0.00000
18:09:38.109498,0.65371,0.06579,0.00000,1.50000,"[5.00000,0.00000,0.00000]","[1.30000,0.00000,0.00000]",-0.00465,-0.06283,0.03800,0.00000,0.00000,-0.02376,0.02369,0.07088,-0.05246,0.93964,0.58748,0.03175,0.00000,1.92607,1.88950,-0.05376,0.13325,0.61520,-0.15809,0.44478,1.85876,1.85876,57.78143,12.77352,57.78142936,12.77352476,A,133523.40,"[-0.20000,-0.00000,-0.00000]","[-0.10000,-0.00000,-0.00000]",0.55457,0.00000,0.00000,0.00000,0.00000,0.00000
18:09:38.132070,0.67632,0.00865,0.00000,0.00000,"[5.00000,0.00000,0.00000]","[1.30000,0.00000,0.00000]",-0.00218,-0.06283,0.03922,0.00000,0.00000,-0.00192,0.01743,0.05520,-0.03032,1.01852,0.67072,0.01709,0.00000,1.92145,1.88489,-0.05897,0.14882,0.61520,-0.15809,0.44478,1.85876,1.85876,57.78143,12.77352,57.78142951,12.77352467,A,133523.40,"[-0.20000,-0.00000,-0.00000]","[-0.10000,-0.00000,-0.00000]",0.67417,0.00000,0.00000,0.00000,0.00000,0.00000
18:09:38.139002,0.68326,0.00515,0.00000,0.00000,"[5.00000,0.00000,0.00000]","[1.30000,0.00000,0.00000]",-0.00230,-0.06283,0.03678,0.00000,0.00000,-0.00650,0.02109,0.11200,-0.00201,0.97844,0.67748,0.02686,0.00000,1.91753,1.88097,-0.06393,0.16362,0.61520,-0.15809,0.44478,1.85876,1.85876,57.78143,12.77352,57.78142964,12.77352459,A,133523.40,"[-0.20000,-0.00000,-0.00000]","[-0.10000,-0.00000,-0.00000]",0.67417,0.00000,0.00000,0.00000,0.00000,0.00000
18:09:38.149554,0.69379,0.00537,0.00000,0.00000,"[5.00000,0.00000,0.00000]","[1.30000,0.00000,0.00000]",-0.00216,-0.06283,0.03204,0.00000,0.00000,-0.01582,0.02613,0.05228,0.00945,0.98911,0.68804,0.02930,0.00000,1.91420,1.87764,-0.06864,0.17768,0.61520,-0.15809,0.44478,1.85876,1.85876,57.78143,12.77352,57.78142976,12.77352451,A,133523.40,"[-0.20000,-0.00000,-0.00000]","[-0.10000,-0.00000,-0.00000]",0.67417,0.00000,0.00000,0.00000,0.00000,0.00000
18:09:38.159721,0.70397,0.00515,0.00000,0.00000,"[5.00000,0.00000,0.00000]","[1.30000,0.00000,0.00000]",-0.00221,-0.06283,0.03006,0.00000,0.00000,-0.01353,0.03025,0.06795,-0.00098,0.95837,0.69817,0.02686,0.00000,1.91137,1.87480,-0.07311,0.19103,0.61520,-0.15809,0.44478,1.85876,1.85876,57.78143,12.77352,57.78142988,12.77352443,A,133523.40,"[-0.20000,-0.00000,-0.00000]","[-0.10000,-0.00000,-0.00000]",0.67417,0.00000,0.00000,0.00000,0.00000,0.00000
18:09:38.170397,0.71465,0.00543,0.00000,0.00000,"[5.00000,0.00000,0.00000]","[1.30000,0.00000,0.00000]",-0.00236,-0.06283,0.03418,0.00000,0.00000,-0.01108,0.03606,0.04685,-0.01128,0.94794,0.70886,0.01709,0.00000,1.90896,1.87240,-0.07736,0.20372,0.61520,-0.15809,0.44478,1.85876,1.85876,57.78143,12.77352,57.78143000,12.77352436,A,133523.40,"[-0.20000,-0.00000,-0.00000]","[-0.10000,-0.00000,-0.00000]",0.67417,0.00000,0.00000,0.00000,0.00000,0.00000
18:09:38.229274,0.77333,0.05370,0.00000,1.50000,"[5.00000,0.00000,0.00000]","[1.30000,0.00000,0.00000]",-0.00288,-0.06283,0.03311,0.00000,0.00000,-0.01200,0.02949,0.04788,-0.03209,0.93403,0.71915,0.02930,0.00000,1.90692,1.87035,-0.08140,0.21577,0.73610,-0.19761,0.51891,2.06061,2.06061,57.78143,12.77352,57.78143011,12.77352429,A,133523.50,"[-0.20000,-0.00000,-0.00000]","[-0.10000,-0.00000,-0.00000]",0.67417,0.00000,0.00000,0.00000,0.00000,0.00000
18:09:38.252046,0.79630,0.00895,0.00000,0.00000,"[5.00000,0.00000,0.00000]","[1.30000,0.00000,0.00000]",-0.00307,-0.06283,0.00394,0.00000,0.00000,-0.00055,0.02292,0.05868,-0.00988,1.01315,0.79072,0.02930,0.00000,1.93546,1.89889,-0.08721,0.23093,0.73610,-0.19761,0.51891,2.06061,2.06061,57.78143,12.77352,57.78143024,12.77352420,A,133523.50,"[-0.20000,-0.00000,-0.00000]","[-0.10000,-0.00000,-0.00000]",0.77571,0.00000,0.00000,0.00000,0.00000,0.00000
18:09:38.258857,0.80312,0.00520,0.00000,0.00000,"[5.00000,0.00000,0.00000]","[1.30000,0.00000,0.00000]",-0.00303,-0.06283,0.00150,0.00000,0.00000,-0.00146,0.02124,0.09473,0.02336,0.97807,0.79726,0.03175,0.00000,1.95972,1.92315,-0.09273,0.24533,0.73610,-0.19761,0.51891,2.06061,2.06061,57.78143,12.77352,57.78143037,12.77352410,A,133523.50,"[-0.20000,-0.00000,-0.00000]","[-0.10000,-0.00000,-0.00000]",0.77571,0.00000,0.00000,0.00000,0.00000,0.00000
18:09:38.269395,0.81340,0.00508,0.00000,0.00000,"[5.00000,0.00000,0.00000]","[1.30000,0.00000,0.00000]",-0.00318,-0.06283,0.01005,0.00000,0.00000,-0.01399,0.02476,0.06612,0.00409,0.96764,0.80791,0.02930,0.00000,1.98034,1.94377,-0.09797,0.25901,0.73610,-0.19761,0.51891,2.06061,2.06061,57.78143,12.77352,57.78143050,12.77352401,A,133523.50,"[-0.20000,-0.00000,-0.00000]","[-0.10000,-0.00000,-0.00000]",0.77571,0.00000,0.00000,0.00000,0.00000,0.00000
18:09:38.279551,0.82381,0.00509,0.00000,0.00000,"[5.00000,0.00000,0.00000]","[1.30000,0.00000,0.00000]",-0.00396,-0.06283,0.01112,0.00000,0.00000,-0.01475,0.02598,0.07424,-0.03508,0.93147,0.81807,0.02198,0.00000,1.99786,1.96129,-0.10295,0.27200,0.73610,-0.19761,0.51891,2.06061,2.06061,57.78143,12.77352,57.78143061,12.77352393,A,133523.50,"[-0.20000,-0.00000,-0.00000]","[-0.10000,-0.00000,-0.00000]",0.77571,0.00000,0.00000,0.00000,0.00000,0.00000
18:09:38.290324,0.83458,0.00546,0.00000,0.00000,"[5.00000,0.00000,0.00000]","[1.30000,0.00000,0.00000]",-0.00511,-0.06283,-0.00018,0.00000,0.00000,-0.01658,0.02873,0.02928,-0.05405,0.96295,0.82878,0.02930,0.00000,2.01276,1.97619,-0.10769,0.28435,0.73610,-0.19761,0.51891,2.06061,2.06061,57.78143,12.77352,57.78143072,12.77352385,A,133523.50,"[-0.20000,-0.00000,-0.00000]","[-0.10000,-0.00000,-0.00000]",0.77571,0.00000,0.00000,0.00000,0.00000,0.00000
18:09:38.350004,0.89329,0.05376,0.00000,1.50000,"[5.00000,0.00000,0.00000]","[1.30000,0.00000,0.00000]",-0.00554,-0.06283,-0.00812,0.00000,0.00000,0.00510,0.02018,0.00305,-0.00396,0.98021,0.83911,0.02930,0.00000,2.02542,1.98886,-0.11218,0.29608,0.85602,-0.23713,0.61157,1.97395,1.97395,57.78143,12.77352,57.78143083,12.77352377,A,133523.60,"[-0.20000,-0.00000,-0.00000]","[-0.10000,-0.00000,-0.00000]",0.77571,0.00000,0.00000,0.00000,0.00000,0.00000
18:09:38.372782,0.91704,0.00920,0.00000,0.00000,"[5.00000,0.00000,0.00000]","[1.30000,0.00000,0.00000]",-0.00784,-0.06283,-0.02889,0.00000,0.00000,-0.00177,0.01178,0.11602,0.00299,0.98753,0.91148,0.04396,0.00000,2.02319,1.98662,-0.11843,0.31185,0.85602,-0.23713,0.61157,1.97395,1.97395,57.78143,12.77352,57.78143097,12.77352367,A,133523.60,"[-0.20000,-0.00000,-0.00000]","[-0.10000,-0.00000,-0.00000]",0.87814,0.00000,0.00000,0.00000,0.00000,0.00000
18:09:38.379409,0.92366,0.00511,0.00000,0.00000,"[5.00000,0.00000,0.00000]","[1.30000,0.00000,0.00000]",-0.00817,-0.06283,-0.02767,0.00000,0.00000,-0.00940,0.01376,0.13945,0.00616,0.96941,0.91791,0.02686,0.00000,2.02129,1.98472,-0.12437,0.32684,0.85602,-0.23713,0.61157,1.97395,1.97395,57.78143,12.77352,57.78143111,12.77352357,A,133523.60,"[-0.20000,-0.00000,-0.00000]","[-0.10000,-0.00000,-0.00000]",0.87814,0.00000,0.00000,0.00000,0.00000,0.00000
18:09:38.390092,0.93434,0.00539,0.00000,0.00000,"[5.00000,0.00000,0.00000]","[1.30000,0.00000,0.00000]",-0.00862,-0.06292,-0.02278,0.00000,0.00000,-0.02544,0.01727,0.03068,0.00262,0.96868,0.92856,0.03907,0.00000,2.01968,1.98306,-0.13000,0.34107,0.85602,-0.23713,0.61157,1.97395,1.97395,57.78143,12.77352,57.78143123,12.77352347,A,133523.60,"[-0.20000,-0.00000,-0.00000]","[-0.10000,-0.00000,-0.00000]",0.87814,0.00000,0.00000,0.00000,0.00000,0.00000
18:09:38.400198,0.94445,0.00509,0.00000,0.00000,"[5.00000,0.00000,0.00000]","[1.30000,0.00000,0.00000]",-0.00976,-0.06328,-0.02446,0.00000,0.00000,-0.01887,0.01453,0.03709,-0.04075,0.93849,0.93891,0.02930,0.00000,2.01835,1.98151,-0.13536,0.35460,0.85602,-0.23713,0.61157,1.97395,1.97395,57.78143,12.77352,57.78143136,12.77352338,A,133523.60,"[-0.20000,-0.00000,-0.00000]","[-0.10000,-0.00000,-0.00000]",0.87814,0.00000,0.00000,0.00000,0.00000,0.00000
18:09:38.411182,0.95544,0.00542,0.00000,0.00000,"[5.00000,0.00000,0.00000]","[1.30000,0.00000,0.00000]",-0.01126,-0.06405,-0.03149,0.00000,0.00000,-0.00895,0.01010,-0.03922,-0.06307,0.98606,0.94945,0.02930,0.00000,2.01728,1.98000,-0.14045,0.36745,0.85602,-0.23713,0.61157,1.97395,1.97395,57.78143,12.77352,57.78143147,12.77352330,A,133523.60,"[-0.20000,-0.00000,-0.00000]","[-0.10000,-0.00000,-0.00000]",0.87814,0.00000,0.00000,0.00000,0.00000,0.00000
18:09:38.471113,1.01534,0.05492,0.00000,1.50000,"[5.00000,0.00000,0.00000]","[1.30000,0.00000,0.00000]",-0.01250,-0.06510,-0.03439,0.00000,0.00000,0.01289,0.00674,0.02806,-0.04294,0.96264,0.96023,0.02198,0.00000,2.01646,1.97858,-0.14528,0.37965,0.97712,-0.25690,0.70423,1.78091,1.78091,57.78143,12.77352,57.78143158,12.77352322,A,133523.70,"[-0.20000,-0.00000,-0.00000]","[-0.10000,-0.00000,-0.00000]",0.87814,0.00000,0.00000,0.00000,0.00000,0.00000
18:09:38.493443,1.03745,0.00742,0.96475,0.96475,"[5.00000,0.00000,0.00000]","[1.30000,0.00000,0.00000]",-0.01597,-0.06945,-0.04645,0.00000,0.00000,0.00419,0.00445,0.10504,-0.00592,0.97923,1.03191,0.04396,0.19295,1.98719,1.94676,-0.15086,0.39588,0.97712,-0.25690,0.70423,1.78091,1.78091,57.78143,12.77352,57.78143173,12.77352312,A,133523.70,"[-0.20000,-0.00000,-0.00000]","[-0.10000,-0.00000,-0.00000]",0.98252,0.00000,0.00000,0.00000,0.00000,0.00000
18:09:38.501512,1.04575,0.00532,0.96475,0.96475,"[5.00000,0.00000,0.00000]","[1.30000,0.00000,0.00000]",-0.01683,-0.06957,-0.04569,0.00000,0.00000,-0.01429,0.00475,0.03959,-0.02965,0.98710,1.04000,0.02930,0.34731,1.96226,1.92177,-0.15659,0.41238,0.97712,-0.25690,0.70423,1.78091,1.78091,57.78143,12.77352,57.78143188,12.77352303,A,133523.70,"[-0.20000,-0.00000,-0.00000]","[-0.10000,-0.00000,-0.00000]",0.99252,0.00000,0.00000,0.00000,0.00000,0.00000
18:09:38.511687,1.05594,0.00511,0.96475,0.96475,"[5.00000,0.00000,0.00000]","[1.30000,0.00000,0.00000]",-0.01837,-0.06974,-0.04829,0.00000,0.00000,-0.00925,0.00506,0.06954,-0.06466,0.94751,1.05020,0.02198,0.47080,1.94099,1.90040,-0.16259,0.42965,0.97712,-0.25690,0.70423,1.78091,1.78091,57.78143,12.77352,57.78143203,12.77352292,A,133523.70,"[-0.20000,-0.00000,-0.00000]","[-0.10000,-0.00000,-0.00000]",1.00251,0.00000,0.00000,0.00000,0.00000,0.00000
18:09:38.522803,1.06705,0.00582,0.96475,0.96475,"[5.00000,0.00000,0.00000]","[1.30000,0.00000,0.00000]",-0.01943,-0.06988,-0.05898,0.00000,0.00000,-0.01674,0.00078,-0.02879,-0.02727,0.97252,1.06106,0.02198,0.56959,1.92287,1.88219,-0.16859,0.44714,0.97712,-0.25690,0.70423,1.78091,1.78091,57.78143,12.77352,57.78143219,12.77352282,A,133523.70,"[-0.20000,-0.00000,-0.00000]","[-0.10000,-0.00000,-0.00000]",1.01251,0.00000,0.00000,0.00000,0.00000,0.00000
18:09:38.532428,1.07668,0.00505,0.96475,0.96475,"[5.00000,0.00000,0.00000]","[1.30000,0.00000,0.00000]",-0.02044,-0.06999,-0.06203,0.00000,0.00000,0.00342,0.00521,0.01006,-0.02544,0.94581,1.07116,0.01954,0.64862,1.90745,1.86671,-0.17431,0.46405,0.97712,-0.25690,0.70423,1.78091,1.78091,57.78143,12.77352,57.78143234,12.77352273,A,133523.70,"[-0.20000,-0.00000,-0.00000]","[-0.10000,-0.00000,-0.00000]",1.02251,0.00000,0.00000,0.00000,0.00000,0.00000
18:09:38.603890,1.14810,0.06614,0.96475,1.50000,"[5.00000,0.00000,0.00000]","[1.30000,0.00000,0.00000]",-0.02076,-0.06999,-0.05653,0.00000,0.00000,0.00129,0.00933,0.02666,0.01391,0.93922,1.08136,0.03419,0.71184,1.89430,1.85356,-0.17995,0.48103,1.10929,-0.34582,0.90809,1.98213,1.98213,57.78144,12.77352,57.78143249,12.77352263,A,133523.90,"[-0.20000,-0.00000,-0.00000]","[-0.10000,-0.00000,-0.00000]",1.03245,0.00000,0.00000,0.00000,0.00000,0.00000
18:09:38.626629,1.17088,0.00868,0.96475,0.96475,"[5.00000,0.00000,0.00000]","[1.30000,0.00000,0.00000]",-0.02669,-0.06999,-0.06050,0.00000,0.00000,-0.01154,0.00887,0.07533,-0.06094,0.93379,1.16502,0.02442,0.76243,1.91058,1.86983,-0.20365,0.55540,1.10929,-0.34582,0.90809,1.98213,1.98213,57.78144,12.77352,57.78143316,12.77352223,A,133523.90,"[-0.20000,-0.00000,-0.00000]","[-0.10000,-0.00000,-0.00000]",1.15276,0.00000,0.00000,0.00000,0.00000,0.00000
18:09:38.633451,1.17745,0.00505,0.96475,0.96475,"[5.00000,0.00000,0.00000]","[1.30000,0.00000,0.00000]",-0.02803,-0.06999,-0.06050,0.00000,0.00000,-0.01200,0.00781,0.03093,-0.06564,0.94428,1.17197,0.02198,0.80289,1.92723,1.88649,-0.21180,0.57640,1.10929,-0.34582,0.90809,1.98213,1.98213,57.78144,12.77352,57.78143335,12.77352209,A,133523.90,"[-0.20000,-0.00000,-0.00000]","[-0.10000,-0.00000,-0.00000]",1.16260,0.00000,0.00000,0.00000,0.00000,0.00000
18:09:38.643659,1.18791,0.00511,0.96475,0.96475,"[5.00000,0.00000,0.00000]","[1.30000,0.00000,0.00000]",-0.02932,-0.06999,-0.06096,0.00000,0.00000,-0.00711,0.00811,-0.00305,-0.05173,0.94556,1.18217,0.02930,0.83526,1.94121,1.90047,-0.22055,0.59927,1.10929,-0.34582,0.90809,1.98213,1.98213,57.78144,12.77352,57.78143356,12.77352195,A,133523.90,"[-0.20000,-0.00000,-0.00000]","[-0.10000,-0.00000,-0.00000]",1.17259,0.00000,0.00000,0.00000,0.00000,0.00000
18:09:38.654601,1.19885,0.00564,0.96475,0.96475,"[5.00000,0.00000,0.00000]","[1.30000,0.00000,0.00000]",-0.03014,-0.06999,-0.06172,0.00000,0.00000,0.00144,0.01346,-0.00213,-0.02025,0.96063,1.19296,0.03663,0.86116,1.95308,1.91234,-0.22908,0.62132,1.10929,-0.34582,0.90809,1.98213,1.98213,57.78144,12.77352,57.78143375,12.77352180,A,133523.90,"[-0.20000,-0.00000,-0.00000]","[-0.10000,-0.00000,-0.00000]",1.18259,0.00000,0.00000,0.00000,0.00000,0.00000
18:09:38.664432,1.20868,0.00506,0.96475,0.96475,"[5.00000,0.00000,0.00000]","[1.30000,0.00000,0.00000]",-0.03087,-0.06999,-0.05898,0.00000,0.00000,0.00678,0.01361,0.02721,-0.02001,0.97100,1.20316,0.04151,0.88188,1.96319,1.92245,-0.23712,0.64188,1.10929,-0.34582,0.90809,1.98213,1.98213,57.78144,12.77352,57.78143394,12.77352167,A,133523.90,"[-0.20000,-0.00000,-0.00000]","[-0.10000,-0.00000,-0.00000]",1.19261,0.00000,0.00000,0.00000,0.00000,0.00000
18:09:38.724387,1.26838,0.05441,0.96475,1.50000,"[5.00000,0.00000,0.00000]","[1.30000,0.00000,0.00000]",-0.03184,-0.06999,-0.05317,0.00000,0.00000,0.00938,0.01834,0.01434,-0.04081,0.99790,1.21336,0.02686,0.89845,1.97176,1.93101,-0.24500,0.66183,1.23049,-0.39522,1.01929,1.98889,1.98889,57.78144,12.77352,57.78143412,12.77352153,A,133524.00,"[-0.20000,-0.00000,-0.00000]","[-0.10000,-0.00000,-0.00000]",1.20255,0.00000,0.00000,0.00000,0.00000,0.00000
18:09:38.746084,1.29034,0.00907,0.96475,0.96475,"[5.00000,0.00000,0.00000]","[1.30000,0.00000,0.00000]",-0.03545,-0.06999,-0.04370,0.00000,0.00000,-0.01887,0.01941,0.02525,-0.04795,0.96447,1.28438,0.02198,0.91171,1.97723,1.93649,-0.27326,0.73479,1.23049,-0.39522,1.01929,1.98889,1.98889,57.78144,12.77352,57.78143477,12.77352106,A,133524.00,"[-0.20000,-0.00000,-0.00000]","[-0.10000,-0.00000,-0.00000]",1.30346,0.00000,0.00000,0.00000,0.00000,0.00000
18:09:38.752237,1.29649,0.00497,0.96475,0.96475,"[5.00000,0.00000,0.00000]","[1.30000,0.00000,0.00000]",-0.03617,-0.06999,-0.04325,0.00000,0.00000,-0.01765,0.01804,0.00933,-0.04307,0.94080,1.29101,0.01709,0.92232,1.98488,1.94414,-0.28073,0.75261,1.23049,-0.39522,1.01929,1.98889,1.98889,57.78144,12.77352,57.78143494,12.77352093,A,133524.00,"[-0.20000,-0.00000,-0.00000]","[-0.10000,-0.00000,-0.00000]",1.31334,0.00000,0.00000,0.00000,0.00000,0.00000
18:09:38.762910,1.30717,0.00520,0.96475,0.96475,"[5.00000,0.00000,0.00000]","[1.30000,0.00000,0.00000]",-0.03701,-0.06999,-0.04034,0.00000,0.00000,-0.01292,0.01987,-0.00903,-0.04380,0.94916,1.30136,0.03175,0.93080,1.99118,1.95044,-0.28921,0.77297,1.23049,-0.39522,1.01929,1.98889,1.98889,57.78144,12.77352,57.78143512,12.77352079,A,133524.00,"[-0.20000,-0.00000,-0.00000]","[-0.10000,-0.00000,-0.00000]",1.32338,0.00000,0.00000,0.00000,0.00000,0.00000
18:09:38.773709,1.31795,0.00559,0.96475,0.96475,"[5.00000,0.00000,0.00000]","[1.30000,0.00000,0.00000]",-0.03826,-0.06999,-0.04325,0.00000,0.00000,-0.00666,0.02124,-0.01202,-0.06692,0.93537,1.31195,0.03663,0.93759,1.99654,1.95580,-0.29731,0.79231,1.23049,-0.39522,1.01929,1.98889,1.98889,57.78144,12.77352,57.78143529,12.77352065,A,133524.00,"[-0.20000,-0.00000,-0.00000]","[-0.10000,-0.00000,-0.00000]",1.33338,0.00000,0.00000,0.00000,0.00000,0.00000
18:09:38.783594,1.32785,0.00508,0.96475,0.96475,"[5.00000,0.00000,0.00000]","[1.30000,0.00000,0.00000]",-0.03960,-0.06999,-0.04569,0.00000,0.00000,0.00235,0.01941,0.06240,-0.07198,0.91793,1.32213,0.02442,0.94302,2.00111,1.96037,-0.30494,0.81039,1.23049,-0.39522,1.01929,1.98889,1.98889,57.78144,12.77352,57.78143545,12.77352052,A,133524.00,"[-0.20000,-0.00000,-0.00000]","[-0.10000,-0.00000,-0.00000]",1.34338,0.00000,0.00000,0.00000,0.00000,0.00000
18:09:38.843687,1.38792,0.05476,0.96475,1.50000,"[5.00000,0.00000,0.00000]","[1.30000,0.00000,0.00000]",-0.04037,-0.06999,-0.04630,0.00000,0.00000,-0.00437,0.01865,0.03904,-0.03867,0.97271,1.33273,0.02930,0.94737,2.00497,1.96422,-0.31239,0.82799,1.34978,-0.44463,1.13048,1.98889,1.98889,57.78144,12.77352,57.78143561,12.77352040,A,133524.10,"[-0.20000,-0.00000,-0.00000]","[-0.10000,-0.00000,-0.00000]",1.35338,0.00000,0.00000,0.00000,0.00000,0.00000
18:09:38.864901,1.40915,0.00705,0.96475,0.96475,"[5.00000,0.00000,0.00000]","[1.30000,0.00000,0.00000]",-0.04301,-0.06999,-0.03210,0.00000,0.00000,-0.00727,0.02506,0.01360,-0.04788,0.99881,1.40357,0.02198,0.95084,2.00529,1.96455,-0.34274,0.90031,1.34978,-0.44463,1.13048,1.98889,1.98889,57.78144,12.77352,57.78143626,12.77351989,A,133524.10,"[-0.20000,-0.00000,-0.00000]","[-0.10000,-0.00000,-0.00000]",1.45675,0.00000,0.00000,0.00000,0.00000,0.00000
18:09:38.873610,1.41786,0.00535,0.96475,0.96475,"[5.00000,0.00000,0.00000]","[1.30000,0.00000,0.00000]",-0.04351,-0.06999,-0.02858,0.00000,0.00000,-0.01047,0.02140,0.04557,-0.04075,0.98674,1.41211,0.03175,0.95362,2.00861,1.96787,-0.35016,0.91743,1.34978,-0.44463,1.13048,1.98889,1.98889,57.78144,12.77352,57.78143642,12.77351976,A,133524.10,"[-0.20000,-0.00000,-0.00000]","[-0.10000,-0.00000,-0.00000]",1.46675,0.00000,0.00000,0.00000,0.00000,0.00000
18:09:38.883758,1.42801,0.00511,0.96475,0.96475,"[5.00000,0.00000,0.00000]","[1.30000,0.00000,0.00000]",-0.04393,-0.06999,-0.02568,0.00000,0.00000,-0.00727,0.01880,0.00549,-0.03385,0.95050,1.42228,0.01954,0.95585,2.01134,1.97060,-0.35791,0.93529,1.34978,-0.44463,1.13048,1.98889,1.98889,57.78144,12.77352,57.78143658,12.77351963,A,133524.10,"[-0.20000,-0.00000,-0.00000]","[-0.10000,-0.00000,-0.00000]",1.47675,0.00000,0.00000,0.00000,0.00000,0.00000
18:09:38.894418,1.43867,0.00537,0.96475,0.96475,"[5.00000,0.00000,0.00000]","[1.30000,0.00000,0.00000]",-0.04460,-0.06999,-0.02553,0.00000,0.00000,0.00480,0.01972,0.01488,-0.04996,0.96526,1.43288,0.02686,0.95763,2.01366,1.97291,-0.36529,0.95227,1.34978,-0.44463,1.13048,1.98889,1.98889,57.78144,12.77352,57.78143673,12.77351950,A,133524.10,"[-0.20000,-0.00000,-0.00000]","[-0.10000,-0.00000,-0.00000]",1.48675,0.00000,0.00000,0.00000,0.00000,0.00000
18:09:38.904442,1.44870,0.00499,0.96475,0.96475,"[5.00000,0.00000,0.00000]","[1.30000,0.00000,0.00000]",-0.04502,-0.06999,-0.01896,0.00000,0.00000,0.00831,0.02033,0.04398,-0.03892,0.94733,1.44317,0.02930,0.95905,2.01565,1.97490,-0.37220,0.96809,1.34978,-0.44463,1.13048,1.98889,1.98889,57.78144,12.77352,57.78143687,12.77351939,A,133524.10,"[-0.20000,-0.00000,-0.00000]","[-0.10000,-0.00000,-0.00000]",1.49675,0.00000,0.00000,0.00000,0.00000,0.00000
18:09:38.963045,1.50664,0.05267,0.96475,1.50000,"[5.00000,0.00000,0.00000]","[1.30000,0.00000,0.00000]",-0.04582,-0.06999,-0.02095,0.00000,0.00000,0.00694,0.02079,0.05923,-0.06228,0.95581,1.45336,0.04640,0.96019,2.01733,1.97658,-0.37884,0.98326,1.47076,-0.49403,1.24168,1.98889,1.98889,57.78144,12.77352,57.78143701,12.77351928,A,133524.20,"[-0.20000,-0.00000,-0.00000]","[-0.10000,-0.00000,-0.00000]",1.50662,0.00000,0.00000,0.00000,0.00000,0.00000
18:09:38.983786,1.52803,0.00727,0.96475,0.96475,"[5.00000,0.00000,0.00000]","[1.30000,0.00000,0.00000]",-0.04774,-0.06999,-0.01896,0.00000,0.00000,-0.00253,0.02063,0.02879,-0.06948,0.98137,1.52117,0.03907,0.96110,2.01590,1.97516,-0.40829,1.05132,1.47076,-0.49403,1.24168,1.98889,1.98889,57.78144,12.77352,57.78143762,12.77351878,A,133524.20,"[-0.20000,-0.00000,-0.00000]","[-0.10000,-0.00000,-0.00000]",1.60676,0.00000,0.00000,0.00000,0.00000,0.00000
18:09:38.991984,1.53624,0.00509,0.96475,0.96475,"[5.00000,0.00000,0.00000]","[1.30000,0.00000,0.00000]",-0.04790,-0.06999,-0.02263,0.00000,0.00000,-0.00146,0.01788,0.01104,-0.02434,0.97893,1.53072,0.03175,0.96183,2.01761,1.97686,-0.41513,1.06681,1.47076,-0.49403,1.24168,1.98889,1.98889,57.78144,12.77352,57.78143776,12.77351866,A,133524.20,"[-0.20000,-0.00000,-0.00000]","[-0.10000,-0.00000,-0.00000]",1.61676,0.00000,0.00000,0.00000,0.00000,0.00000
18:09:39.002759,1.54701,0.00522,0.96475,0.96475,"[5.00000,0.00000,0.00000]","[1.30000,0.00000,0.00000]",-0.04821,-0.06999,-0.01805,0.00000,0.00000,-0.00070,0.01651,0.00293,-0.03703,0.98539,1.54119,0.01709,0.96241,2.01898,1.97824,-0.42222,1.08286,1.47076,-0.49403,1.24168,1.98889,1.98889,57.78144,12.77352,57.78143791,12.77351854,A,133524.20,"[-0.20000,-0.00000,-0.00000]","[-0.10000,-0.00000,-0.00000]",1.62698,0.00000,0.00000,0.00000,0.00000,0.00000
18:09:39.013021,1.55728,0.00509,1.36215,1.36215,"[5.00000,0.00000,0.00000]","[1.30000,0.00000,0.00000]",-0.04847,-0.06999,-0.01698,0.00000,0.00000,0.01030,0.01880,0.06643,-0.03837,0.94739,1.55179,0.02686,1.04236,2.02015,1.97941,-0.42890,1.09796,1.47076,-0.49403,1.24168,1.98889,1.98889,57.78144,12.77352,57.78143804,12.77351843,A,133524.20,"[-0.20000,-0.00000,-0.00000]","[-0.10000,-0.00000,-0.00000]",1.63698,0.00000,0.00000,0.00000,0.00000,0.00000
18:09:39.023565,1.56782,0.00540,1.36215,1.36215,"[5.00000,0.00000,0.00000]","[1.30000,0.00000,0.00000]",-0.04827,-0.06999,-0.01957,0.00000,0.00000,-0.00009,0.02354,-0.01196,-0.00830,0.99881,1.56206,0.03175,1.10632,2.02111,1.98037,-0.43551,1.11291,1.47076,-0.49403,1.24168,1.98889,1.98889,57.78144,12.77352,57.78143818,12.77351832,A,133524.20,"[-0.20000,-0.00000,-0.00000]","[-0.10000,-0.00000,-0.00000]",1.65087,0.00000,0.00000,0.00000,0.00000,0.00000
18:09:39.096233,1.64045,0.06763,1.36215,1.50000,"[5.00000,0.00000,0.00000]","[1.30000,0.00000,0.00000]",-0.04863,-0.06999,-0.01789,0.00000,0.00000,0.01243,0.02247,0.04063,-0.04593,0.98869,1.57241,0.04884,1.15748,2.02191,1.98117,-0.44194,1.12741,1.60073,-0.59284,1.48260,1.95999,1.95999,57.78144,12.77352,57.78143831,12.77351821,A,133524.40,"[-0.20000,-0.00000,-0.00000]","[-0.10000,-0.00000,-0.00000]",1.66499,0.00000,0.00000,0.00000,0.00000,0.00000
18:09:39.119062,1.66331,0.00894,1.36215,1.36215,"[5.00000,0.00000,0.00000]","[1.30000,0.00000,0.00000]",-0.05160,-0.06999,-0.03882,0.00000,0.00000,0.00113,0.02858,0.00903,-0.01616,1.02858,1.65748,0.02686,1.19842,2.01376,1.97301,-0.48594,1.22895,1.60073,-0.59284,1.48260,1.95999,1.95999,57.78144,12.77352,57.78143922,12.77351747,A,133524.40,"[-0.20000,-0.00000,-0.00000]","[-0.10000,-0.00000,-0.00000]",1.78727,0.00000,0.00000,0.00000,0.00000,0.00000
18:09:39.125954,1.67021,0.00570,1.36215,1.36215,"[5.00000,0.00000,0.00000]","[1.30000,0.00000,0.00000]",-0.05158,-0.06999,-0.04034,0.00000,0.00000,0.00770,0.02384,-0.00799,-0.01800,1.00680,1.66444,0.02686,1.23116,2.01150,1.97076,-0.49346,1.24676,1.60073,-0.59284,1.48260,1.95999,1.95999,57.78144,12.77352,57.78143938,12.77351734,A,133524.40,"[-0.20000,-0.00000,-0.00000]","[-0.10000,-0.00000,-0.00000]",1.80107,0.00000,0.00000,0.00000,0.00000,0.00000
18:09:39.135767,1.68002,0.00511,1.36215,1.36215,"[5.00000,0.00000,0.00000]","[1.30000,0.00000,0.00000]",-0.05159,-0.06999,-0.03927,0.00000,0.00000,0.01167,0.02522,0.00037,-0.01311,1.01870,1.67428,0.02686,1.25736,2.00937,1.96863,-0.50210,1.26724,1.60073,-0.59284,1.48260,1.95999,1.95999,57.78144,12.77352,57.78143956,12.77351720,A,133524.40,"[-0.20000,-0.00000,-0.00000]","[-0.10000,-0.00000,-0.00000]",1.81518,0.00000,0.00000,0.00000,0.00000,0.00000
18:09:39.146637,1.69089,0.00557,1.36215,1.36215,"[5.00000,0.00000,0.00000]","[1.30000,0.00000,0.00000]",-0.05185,-0.06999,-0.03530,0.00000,0.00000,0.01702,0.02369,0.03105,-0.02989,0.99198,1.68506,0.03175,1.27832,2.00750,1.96676,-0.51071,1.28769,1.60073,-0.59284,1.48260,1.95999,1.95999,57.78144,12.77352,57.78143975,12.77351705,A,133524.40,"[-0.20000,-0.00000,-0.00000]","[-0.10000,-0.00000,-0.00000]",1.82930,0.00000,0.00000,0.00000,0.00000,0.00000
18:09:39.156705,1.70096,0.00524,1.36215,1.36215,"[5.00000,0.00000,0.00000]","[1.30000,0.00000,0.00000]",-0.05199,-0.06999,-0.02904,0.00000,0.00000,0.01366,0.02598,0.06966,-0.02702,0.96715,1.69545,0.01709,1.29508,2.00594,1.96519,-0.51872,1.30676,1.60073,-0.59284,1.48260,1.95999,1.95999,57.78144,12.77352,57.78143992,12.77351692,A,133524.40,"[-0.20000,-0.00000,-0.00000]","[-0.10000,-0.00000,-0.00000]",1.84342,0.00000,0.00000,0.00000,0.00000,0.00000
18:09:39.212023,1.75626,0.05029,1.36215,1.50000,"[5.00000,0.00000,0.00000]","[1.30000,0.00000,0.00000]",-0.05279,-0.06999,-0.02813,0.00000,0.00000,0.00800,0.03285,0.03190,-0.07076,0.95886,1.70536,0.03663,1.30850,2.00461,1.96387,-0.52628,1.32482,1.72246,-0.65212,1.61233,1.99944,1.99944,57.78144,12.77351,57.78144008,12.77351679,A,133524.50,"[-0.20000,-0.00000,-0.00000]","[-0.10000,-0.00000,-0.00000]",1.85734,0.00000,0.00000,0.00000,0.00000,0.00000
18:09:39.233380,1.77739,0.00824,1.36215,1.36215,"[5.00000,0.00000,0.00000]","[1.30000,0.00000,0.00000]",-0.05489,-0.06631,-0.02920,0.00000,0.00000,0.00663,0.04003,0.01940,-0.05148,1.00857,1.77184,0.02686,1.31923,2.00526,1.96666,-0.56327,1.41323,1.72246,-0.65212,1.61233,1.99944,1.99944,57.78144,12.77351,57.78144088,12.77351617,A,133524.50,"[-0.20000,-0.00000,-0.00000]","[-0.10000,-0.00000,-0.00000]",1.95207,0.00000,0.00000,0.00000,0.00000,0.00000
18:09:39.240109,1.78436,0.00502,1.36215,1.36215,"[5.00000,0.00000,0.00000]","[1.30000,0.00000,0.00000]",-0.05552,-0.06589,-0.03011,0.00000,0.00000,0.00510,0.03881,0.02873,-0.06795,0.98411,1.77887,0.01709,1.32781,2.00980,1.97145,-0.57024,1.42924,1.72246,-0.65212,1.61233,1.99944,1.99944,57.78144,12.77351,57.78144102,12.77351605,A,133524.50,"[-0.20000,-0.00000,-0.00000]","[-0.10000,-0.00000,-0.00000]",1.96593,0.00000,0.00000,0.00000,0.00000,0.00000
18:09:39.250905,1.79516,0.00519,1.36215,1.36215,"[5.00000,0.00000,0.00000]","[1.30000,0.00000,0.00000]",-0.05573,-0.06515,-0.03088,0.00000,0.00000,0.00526,0.03652,0.04130,-0.03367,0.99833,1.78937,0.01465,1.33468,2.01337,1.97545,-0.57865,1.44857,1.72246,-0.65212,1.61233,1.99944,1.99944,57.78144,12.77351,57.78144119,12.77351591,A,133524.50,"[-0.20000,-0.00000,-0.00000]","[-0.10000,-0.00000,-0.00000]",1.98035,0.00000,0.00000,0.00000,0.00000,0.00000
18:09:39.261581,1.80545,0.00509,1.36215,1.36215,"[5.00000,0.00000,0.00000]","[1.30000,0.00000,0.00000]",-0.05606,-0.06433,-0.03026,0.00000,0.00000,0.00571,0.03667,-0.00390,-0.04221,0.99381,1.79994,0.01954,1.34017,2.01635,1.97890,-0.58658,1.46672,1.72246,-0.65212,1.61233,1.99944,1.99944,57.78144,12.77351,57.78144136,12.77351577,A,133524.50,"[-0.20000,-0.00000,-0.00000]","[-0.10000,-0.00000,-0.00000]",1.99447,0.00000,0.00000,0.00000,0.00000,0.00000
18:09:39.271611,1.81587,0.00510,1.36215,1.36215,"[5.00000,0.00000,0.00000]","[1.30000,0.00000,0.00000]",-0.05630,-0.06337,-0.02278,0.00000,0.00000,0.00312,0.04308,0.03965,-0.04063,0.96783,1.81013,0.03419,1.34457,2.01880,1.98192,-0.59412,1.48385,1.72246,-0.65212,1.61233,1.99944,1.99944,57.78144,12.77351,57.78144151,12.77351565,A,133524.50,"[-0.20000,-0.00000,-0.00000]","[-0.10000,-0.00000,-0.00000]",2.00859,0.00000,0.00000,0.00000,0.00000,0.00000
18:09:39.334596,1.87881,0.05764,1.36215,1.50000,"[5.00000,0.00000,0.00000]","[1.30000,0.00000,0.00000]",-0.05658,-0.06224,-0.01942,0.00000,0.00000,-0.00498,0.04828,0.03605,-0.04612,0.98064,1.82086,0.02686,1.34808,2.02078,1.98456,-0.60149,1.50051,1.83789,-0.70152,1.74205,1.93466,1.93466,57.78144,12.77351,57.78144166,12.77351552,A,133524.60,"[-0.20000,-0.00000,-0.00000]","[-0.10000,-0.00000,-0.00000]",2.02271,0.00000,0.00000,0.00000,0.00000,0.00000
18:09:39.355451,1.89970,0.00725,1.36215,1.36215,"[5.00000,0.00000,0.00000]","[1.30000,0.00000,0.00000]",-0.05758,-0.05813,-0.01072,0.00000,0.00000,0.00281,0.04980,0.01141,-0.05703,1.01809,1.89392,0.02686,1.35090,2.00853,1.97470,-0.64307,1.59589,1.83789,-0.70152,1.74205,1.93466,1.93466,57.78144,12.77351,57.78144252,12.77351482,A,133524.60,"[-0.20000,-0.00000,-0.00000]","[-0.10000,-0.00000,-0.00000]",2.12960,0.00000,0.00000,0.00000,0.00000,0.00000
18:09:39.363722,1.90798,0.00513,1.36215,1.36215,"[5.00000,0.00000,0.00000]","[1.30000,0.00000,0.00000]",-0.05789,-0.05771,-0.00843,0.00000,0.00000,0.00434,0.04965,0.00195,-0.05850,1.01376,1.90223,0.01954,1.35315,2.00211,1.96853,-0.64927,1.61089,1.83789,-0.70152,1.74205,1.93466,1.93466,57.78144,12.77351,57.78144265,12.77351471,A,133524.60,"[-0.20000,-0.00000,-0.00000]","[-0.10000,-0.00000,-0.00000]",2.14372,0.00000,0.00000,0.00000,0.00000,0.00000
18:09:39.374382,1.91864,0.00538,1.36215,1.36215,"[5.00000,0.00000,0.00000]","[1.30000,0.00000,0.00000]",-0.05830,-0.05711,-0.01148,0.00000,0.00000,-0.00223,0.04644,0.04087,-0.06161,1.00186,1.91284,0.02686,1.35495,1.99648,1.96324,-0.65618,1.62766,1.83789,-0.70152,1.74205,1.93466,1.93466,57.78144,12.77351,57.78144280,12.77351460,A,133524.60,"[-0.20000,-0.00000,-0.00000]","[-0.10000,-0.00000,-0.00000]",2.15784,0.00000,0.00000,0.00000,0.00000,0.00000
18:09:39.384395,1.92865,0.00499,1.36215,1.36215,"[5.00000,0.00000,0.00000]","[1.30000,0.00000,0.00000]",-0.05820,-0.05658,-0.00186,0.00000,0.00000,-0.00345,0.05072,0.07229,-0.03398,0.97856,1.92316,0.02442,1.35639,1.99167,1.95875,-0.66252,1.64323,1.83789,-0.70152,1.74205,1.93466,1.93466,57.78144,12.77351,57.78144294,12.77351449,A,133524.60,"[-0.20000,-0.00000,-0.00000]","[-0.10000,-0.00000,-0.00000]",2.17196,0.00000,0.00000,0.00000,0.00000,0.00000
18:09:39.446309,1.99053,0.05656,1.36215,1.50000,"[5.00000,0.00000,0.00000]","[1.30000,0.00000,0.00000]",-0.05816,-0.05612,0.00715,0.00000,0.00000,-0.00711,0.04965,0.05167,-0.04124,0.91103,1.93336,0.01465,1.35754,1.98754,1.95488,-0.66860,1.65826,1.95055,-0.76081,1.87178,1.99944,1.99944,57.78144,12.77351,57.78144308,12.77351439,A,133524.70,"[-0.20000,-0.00000,-0.00000]","[-0.10000,-0.00000,-0.00000]",2.18595,0.00000,0.00000,0.00000,0.00000,0.00000
18:09:39.466862,2.01112,0.00678,1.36215,1.36215,"[5.00000,0.00000,0.00000]","[1.30000,0.00000,0.00000]",-0.05836,-0.05584,0.00165,0.00000,0.00000,0.00968,0.04446,0.01976,-0.06289,0.99058,2.00526,0.02930,1.35846,1.99026,1.95777,-0.70697,1.75249,1.95055,-0.76081,1.87178,1.99944,1.99944,57.78144,12.77351,57.78144393,12.77351374,A,133524.70,"[-0.20000,-0.00000,-0.00000]","[-0.10000,-0.00000,-0.00000]",2.29146,0.00000,0.00000,0.00000,0.00000,0.00000
18:09:39.479020,2.02325,0.00852,1.36215,1.36215,"[5.00000,0.00000,0.00000]","[1.30000,0.00000,0.00000]",-0.05767,-0.05584,-0.00201,0.00000,0.00000,0.00022,0.04446,-0.01659,0.00482,1.00229,2.01411,0.03663,1.35920,1.99613,1.96364,-0.71296,1.76654,1.95055,-0.76081,1.87178,1.99944,1.99944,57.78144,12.77351,57.78144405,12.77351364,A,133524.70,"[-0.20000,-0.00000,-0.00000]","[-0.10000,-0.00000,-0.00000]",2.30558,0.00000,0.00000,0.00000,0.00000,0.00000
18:09:39.487317,2.03157,0.00668,1.36215,1.36215,"[5.00000,0.00000,0.00000]","[1.30000,0.00000,0.00000]",-0.05708,-0.05576,-0.00064,0.00000,0.00000,-0.00345,0.04537,0.07088,-0.00256,0.95288,2.02460,0.03419,1.35979,2.00102,1.96857,-0.71956,1.78196,1.95055,-0.76081,1.87178,1.99944,1.99944,57.78144,12.77351,57.78144419,12.77351353,A,133524.70,"[-0.20000,-0.00000,-0.00000]","[-0.10000,-0.00000,-0.00000]",2.31939,0.00000,0.00000,0.00000,0.00000,0.00000
18:09:39.497049,2.04130,0.00600,1.36215,1.36215,"[5.00000,0.00000,0.00000]","[1.30000,0.00000,0.00000]",-0.05675,-0.05564,0.00761,0.00000,0.00000,-0.01521,0.05164,0.01531,-0.02385,0.96990,2.03486,0.02930,1.36026,2.00522,1.97284,-0.72536,1.79534,1.95055,-0.76081,1.87178,1.99944,1.99944,57.78144,12.77351,57.78144431,12.77351343,A,133524.70,"[-0.20000,-0.00000,-0.00000]","[-0.10000,-0.00000,-0.00000]",2.33351,0.00000,0.00000,0.00000,0.00000,0.00000
18:09:39.539937,2.08418,0.03835,1.36215,1.50000,"[5.00000,0.00000,0.00000]","[1.30000,0.00000,0.00000]",-0.05616,-0.05550,0.00883,0.00000,0.00000,-0.02636,0.06003,0.09504,-0.00677,1.05304,2.04524,0.03663,1.36064,2.00874,1.97645,-0.73123,1.80879,2.06235,-0.81021,2.00151,1.93466,1.93466,57.78145,12.77351,57.78144443,12.77351333,A,133524.80,"[-0.20000,-0.00000,-0.00000]","[-0.10000,-0.00000,-0.00000]",2.34782,0.00000,0.00000,0.00000,0.00000,0.00000
18:09:39.551704,2.09596,0.00590,1.36215,1.36215,"[5.00000,0.00000,0.00000]","[1.30000,0.00000,0.00000]",-0.05718,-0.05516,-0.01606,0.00000,0.00000,0.00006,0.03316,-0.22729,-0.05905,0.95532,2.08956,0.02930,1.36094,2.00009,1.96799,-0.75675,1.86866,2.06235,-0.81021,2.00151,1.93466,1.93466,57.78145,12.77351,57.78144497,12.77351290,A,133524.80,"[-0.20000,-0.00000,-0.00000]","[-0.10000,-0.00000,-0.00000]",2.41412,0.00000,0.00000,0.00000,0.00000,0.00000
18:09:39.561840,2.10609,0.00571,1.32828,1.32828,"[5.00000,0.00000,0.00000]","[1.30000,0.00000,0.00000]",-0.05657,-0.05477,-0.01255,0.00000,0.00000,0.02282,0.03423,0.12657,0.00622,0.87395,2.09995,0.02198,1.35441,1.99460,1.96273,-0.76348,1.88498,2.06235,-0.81021,2.00151,1.93466,1.93466,57.78145,12.77351,57.78144512,12.77351279,A,133524.80,"[-0.20000,-0.00000,-0.00000]","[-0.10000,-0.00000,-0.00000]",2.42815,0.00000,0.00000,0.00000,0.00000,0.00000
18:09:39.572026,2.11627,0.00550,1.32828,1.32828,"[5.00000,0.00000,0.00000]","[1.30000,0.00000,0.00000]",-0.05632,-0.05420,-0.00369,0.00000,0.00000,0.00266,0.03896,-0.07381,-0.01964,0.93165,2.11014,0.03419,1.34918,1.98988,1.95834,-0.76997,1.90084,2.06235,-0.81021,2.00151,1.93466,1.93466,57.78145,12.77351,57.78144526,12.77351268,A,133524.80,"[-0.20000,-0.00000,-0.00000]","[-0.10000,-0.00000,-0.00000]",2.44192,0.00000,0.00000,0.00000,0.00000,0.00000
18:09:39.582676,2.12693,0.00576,1.32828,1.32828,"[5.00000,0.00000,0.00000]","[1.30000,0.00000,0.00000]",-0.05812,-0.05363,0.02242,0.00000,0.00000,-0.02055,0.03484,0.25846,-0.17287,0.97649,2.12073,0.02442,1.34500,1.98581,1.95460,-0.77615,1.91610,2.06235,-0.81021,2.00151,1.93466,1.93466,57.78145,12.77351,57.78144540,12.77351257,A,133524.80,"[-0.20000,-0.00000,-0.00000]","[-0.10000,-0.00000,-0.00000]",2.45568,0.00000,0.00000,0.00000,0.00000,0.00000
18:09:39.592789,2.13704,0.00547,1.32828,1.32828,"[5.00000,0.00000,0.00000]","[1.30000,0.00000,0.00000]",-0.05925,-0.05318,-0.00843,0.00000,0.00000,-0.04667,0.03743,-0.65538,-0.11090,0.98972,2.13114,0.01954,1.34166,1.98233,1.95139,-0.78185,1.93027,2.06235,-0.81021,2.00151,1.93466,1.93466,57.78145,12.77351,57.78144553,12.77351248,A,133524.80,"[-0.20000,-0.00000,-0.00000]","[-0.10000,-0.00000,-0.00000]",2.46945,0.00000,0.00000,0.00000,0.00000,0.00000
18:09:39.603301,2.14755,0.00559,1.32828,1.32828,"[5.00000,0.00000,0.00000]","[1.30000,0.00000,0.00000]",-0.05834,-0.05290,-0.00446,0.00000,0.00000,0.04450,0.04507,-0.05417,0.01787,0.88206,2.14136,0.05372,1.33898,1.97935,1.94857,-0.78728,1.94385,2.06235,-0.81021,2.00151,1.93466,1.93466,57.78145,12.77351,57.78144565,12.77351239,A,133524.80,"[-0.20000,-0.00000,-0.00000]","[-0.10000,-0.00000,-0.00000]",2.48320,0.00000,0.00000,0.00000,0.00000,0.00000
18:09:39.613832,2.15808,0.00572,1.32828,1.32828,"[5.00000,0.00000,0.00000]","[1.30000,0.00000,0.00000]",-0.05468,-0.05284,0.00929,0.00000,0.00000,0.02679,0.05301,-0.13688,0.16104,0.81618,2.15194,0.04151,1.33684,1.97681,1.94607,-0.79244,1.95684,2.06235,-0.81021,2.00151,1.93466,1.93466,57.78145,12.77351,57.78144576,12.77351230,A,133524.80,"[-0.20000,-0.00000,-0.00000]","[-0.10000,-0.00000,-0.00000]",2.49697,0.00000,0.00000,0.00000,0.00000,0.00000
18:09:39.657741,2.20198,0.03922,1.32828,1.50000,"[5.00000,0.00000,0.00000]","[1.30000,0.00000,0.00000]",-0.05329,-0.05284,0.01173,0.00000,0.00000,0.00205,0.07393,0.04673,0.04764,1.00967,2.16214,0.04884,1.33513,1.97466,1.94392,-0.79725,1.96904,2.17958,-0.86949,2.13124,1.99944,1.99944,57.78145,12.77351,57.78144587,12.77351222,A,133524.90,"[-0.20000,-0.00000,-0.00000]","[-0.10000,-0.00000,-0.00000]",2.51074,0.00000,0.00000,0.00000,0.00000,0.00000
18:09:39.669408,2.21342,0.00568,1.32828,1.32828,"[5.00000,0.00000,0.00000]","[1.30000,0.00000,0.00000]",-0.05195,-0.05284,-0.02752,0.00000,0.00000,0.05611,0.04828,0.26120,0.13017,0.95831,2.20749,0.04884,1.33376,1.98074,1.95000,-0.82079,2.02806,2.17958,-0.86949,2.13124,1.99944,1.99944,57.78145,12.77351,57.78144641,12.77351182,A,133524.90,"[-0.20000,-0.00000,-0.00000]","[-0.10000,-0.00000,-0.00000]",2.57817,0.00000,0.00000,0.00000,0.00000,0.00000
18:09:39.679486,2.22374,0.00575,1.32828,1.32828,"[5.00000,0.00000,0.00000]","[1.30000,0.00000,0.00000]",-0.05496,-0.05284,0.02731,0.00000,0.00000,0.02480,0.03850,0.08552,-0.22893,0.88066,2.21738,0.03907,1.33267,1.98774,1.95699,-0.82703,2.04277,2.17958,-0.86949,2.13124,1.99944,1.99944,57.78145,12.77351,57.78144654,12.77351172,A,133524.90,"[-0.20000,-0.00000,-0.00000]","[-0.10000,-0.00000,-0.00000]",2.59174,0.00000,0.00000,0.00000,0.00000,0.00000
18:09:39.689852,2.23410,0.00571,1.32828,1.32828,"[5.00000,0.00000,0.00000]","[1.30000,0.00000,0.00000]",-0.05212,-0.05284,0.00623,0.00000,0.00000,-0.03079,0.04186,0.23497,0.13780,0.93519,2.22798,0.04151,1.33179,1.99367,1.96292,-0.83316,2.05703,2.17958,-0.86949,2.13124,1.99944,1.99944,57.78145,12.77351,57.78144667,12.77351161,A,133524.90,"[-0.20000,-0.00000,-0.00000]","[-0.10000,-0.00000,-0.00000]",2.60550,0.00000,0.00000,0.00000,0.00000,0.00000
18:09:39.700013,2.24427,0.00547,1.32828,1.32828,"[5.00000,0.00000,0.00000]","[1.30000,0.00000,0.00000]",-0.05258,-0.05284,0.03540,0.00000,0.00000,-0.04010,0.04950,-0.26053,-0.08967,1.00363,2.23816,0.03175,1.33109,1.99871,1.96796,-0.83905,2.07060,2.17958,-0.86949,2.13124,1.99944,1.99944,57.78145,12.77351,57.78144679,12.77351151,A,133524.90,"[-0.20000,-0.00000,-0.00000]","[-0.10000,-0.00000,-0.00000]",2.61927,0.00000,0.00000,0.00000,0.00000,0.00000
18:09:39.710680,2.25493,0.00574,1.32828,1.32828,"[5.00000,0.00000,0.00000]","[1.30000,0.00000,0.00000]",-0.05620,-0.05284,0.03143,0.00000,0.00000,-0.00834,0.05362,-0.31769,-0.30945,1.00662,2.24876,0.03419,1.33053,2.00298,1.97224,-0.84479,2.08370,2.17958,-0.86949,2.13124,1.99944,1.99944,57.78145,12.77351,57.78144691,12.77351142,A,133524.90,"[-0.20000,-0.00000,-0.00000]","[-0.10000,-0.00000,-0.00000]",2.63304,0.00000,0.00000,0.00000,0.00000,0.00000
18:09:39.720793,2.26504,0.00546,1.32828,1.32828,"[5.00000,0.00000,0.00000]","[1.30000,0.00000,0.00000]",-0.05816,-0.05284,0.01158,0.00000,0.00000,0.02725,0.05179,-0.13688,-0.17885,0.99290,2.25917,0.02442,1.33008,2.00663,1.97588,-0.85017,2.09582,2.17958,-0.86949,2.13124,1.99944,1.99944,57.78145,12.77351,57.78144701,12.77351133,A,133524.90,"[-0.20000,-0.00000,-0.00000]","[-0.10000,-0.00000,-0.00000]",2.64680,0.00000,0.00000,0.00000,0.00000,0.00000
18:09:39.731396,2.27565,0.00568,1.32828,1.32828,"[5.00000,0.00000,0.00000]","[1.30000,0.00000,0.00000]",-0.05485,-0.05284,0.00242,0.00000,0.00000,0.01793,0.04476,0.08845,0.17306,0.96118,2.26936,0.02442,1.32972,2.00972,1.97898,-0.85534,2.10740,2.17958,-0.86949,2.13124,1.99944,1.99944,57.78145,12.77351,57.78144712,12.77351124,A,133524.90,"[-0.20000,-0.00000,-0.00000]","[-0.10000,-0.00000,-0.00000]",2.66053,0.00000,0.00000,0.00000,0.00000,0.00000
18:09:39.790777,2.33501,0.05464,1.32828,1.50000,"[5.00000,0.00000,0.00000]","[1.30000,0.00000,0.00000]",-0.05382,-0.05284,0.03143,0.00000,0.00000,-0.00834,0.04064,0.03026,0.00823,1.00528,2.27995,0.04884,1.32943,2.01235,1.98160,-0.86035,2.11853,2.30811,-0.98806,2.39069,1.99944,1.99944,57.78145,12.77351,57.78144722,12.77351115,A,133525.10,"[-0.20000,-0.00000,-0.00000]","[-0.10000,-0.00000,-0.00000]",2.67430,0.00000,0.00000,0.00000,0.00000,0.00000
18:09:39.807828,2.35208,0.00823,1.32828,1.32828,"[5.00000,0.00000,0.00000]","[1.30000,0.00000,0.00000]",-0.05116,-0.05284,0.06213,0.00000,0.00000,-0.01170,0.04721,-0.01318,-0.12310,0.95160,2.34590,0.03663,1.32920,2.01169,1.98094,-0.89911,2.20648,2.30811,-0.98806,2.39069,1.99944,1.99944,57.78145,12.77351,57.78144801,12.77351050,A,133525.10,"[-0.20000,-0.00000,-0.00000]","[-0.10000,-0.00000,-0.00000]",2.76949,0.00000,0.00000,0.00000,0.00000,0.00000
18:09:39.815293,2.35955,0.00553,1.32828,1.32828,"[5.00000,0.00000,0.00000]","[1.30000,0.00000,0.00000]",-0.05232,-0.05284,0.06396,0.00000,0.00000,-0.01643,0.04446,-0.09705,-0.14256,0.98692,2.35338,0.03663,1.32902,2.01418,1.98343,-0.90631,2.22202,2.30811,-0.98806,2.39069,1.99944,1.99944,57.78145,12.77351,57.78144815,12.77351038,A,133525.10,"[-0.20000,-0.00000,-0.00000]","[-0.10000,-0.00000,-0.00000]",2.78296,0.00000,0.00000,0.00000,0.00000,0.00000
18:09:39.826149,2.37040,0.00598,1.32828,1.32828,"[5.00000,0.00000,0.00000]","[1.30000,0.00000,0.00000]",-0.05288,-0.05284,0.05571,0.00000,0.00000,0.00022,0.03881,-0.10181,-0.11523,1.02364,2.36423,0.03175,1.32887,2.01612,1.98538,-0.91487,2.24066,2.30811,-0.98806,2.39069,1.99944,1.99944,57.78145,12.77351,57.78144832,12.77351023,A,133525.10,"[-0.20000,-0.00000,-0.00000]","[-0.10000,-0.00000,-0.00000]",2.79673,0.00000,0.00000,0.00000,0.00000,0.00000
18:09:39.836094,2.38035,0.00554,1.32828,1.32828,"[5.00000,0.00000,0.00000]","[1.30000,0.00000,0.00000]",-0.05197,-0.05284,0.05174,0.00000,0.00000,0.00892,0.03575,0.07107,-0.00885,1.00577,2.37419,0.03419,1.32875,2.01779,1.98705,-0.92282,2.25790,2.30811,-0.98806,2.39069,1.99944,1.99944,57.78145,12.77351,57.78144847,12.77351010,A,133525.10,"[-0.20000,-0.00000,-0.00000]","[-0.10000,-0.00000,-0.00000]",2.81049,0.00000,0.00000,0.00000,0.00000,0.00000
18:09:39.846910,2.39117,0.00594,1.32828,1.32828,"[5.00000,0.00000,0.00000]","[1.30000,0.00000,0.00000]",-0.05144,-0.05284,0.05571,0.00000,0.00000,0.00358,0.02644,0.07418,-0.03751,0.94672,2.38497,0.01954,1.32866,2.01920,1.98845,-0.93055,2.27465,2.30811,-0.98806,2.39069,1.99944,1.99944,57.78145,12.77351,57.78144862,12.77350997,A,133525.10,"[-0.20000,-0.00000,-0.00000]","[-0.10000,-0.00000,-0.00000]",2.82427,0.00000,0.00000,0.00000,0.00000,0.00000
18:09:39.856808,2.40106,0.00538,1.32828,1.32828,"[5.00000,0.00000,0.00000]","[1.30000,0.00000,0.00000]",-0.05078,-0.05284,0.05358,0.00000,0.00000,-0.00238,0.02338,0.14823,-0.02641,0.96740,2.39516,0.04640,1.32858,2.02043,1.98968,-0.93759,2.28984,2.30811,-0.98806,2.39069,1.99944,1.99944,57.78145,12.77351,57.78144876,12.77350985,A,133525.10,"[-0.20000,-0.00000,-0.00000]","[-0.10000,-0.00000,-0.00000]",2.83811,0.00000,0.00000,0.00000,0.00000,0.00000
18:09:39.921959,2.46619,0.06017,1.32828,1.50000,"[5.00000,0.00000,0.00000]","[1.30000,0.00000,0.00000]",-0.05026,-0.05284,0.05617,0.00000,0.00000,-0.02559,0.02735,0.06051,-0.03648,0.98631,2.40544,0.03419,1.32852,2.02145,1.99070,-0.94448,2.30470,2.42257,-1.03746,2.52042,1.93466,1.93466,57.78145,12.77351,57.78144889,12.77350974,A,133525.20,"[-0.20000,-0.00000,-0.00000]","[-0.10000,-0.00000,-0.00000]",2.85180,0.00000,0.00000,0.00000,0.00000,0.00000
18:09:39.945667,2.48991,0.00935,1.32828,1.32828,"[5.00000,0.00000,0.00000]","[1.30000,0.00000,0.00000]",-0.04454,-0.05315,0.07450,0.00000,0.00000,0.00083,0.02781,0.08424,-0.03062,0.99631,2.48280,0.00977,1.32848,2.00916,1.97823,-0.98790,2.40232,2.42257,-1.03746,2.52042,1.93466,1.93466,57.78145,12.77351,57.78144977,12.77350900,A,133525.20,"[-0.20000,-0.00000,-0.00000]","[-0.10000,-0.00000,-0.00000]",2.96357,0.00000,0.00000,0.00000,0.00000,0.00000
18:09:39.952644,2.49689,0.00578,1.32828,1.32828,"[5.00000,0.00000,0.00000]","[1.30000,0.00000,0.00000]",-0.04359,-0.05321,0.06625,0.00000,0.00000,-0.00177,0.03087,0.08839,0.00061,0.98661,2.49081,0.03907,1.32844,2.00231,1.97135,-0.99338,2.41518,2.42257,-1.03746,2.52042,1.93466,1.93466,57.78145,12.77351,57.78144989,12.77350891,A,133525.20,"[-0.20000,-0.00000,-0.00000]","[-0.10000,-0.00000,-0.00000]",2.97758,0.00000,0.00000,0.00000,0.00000,0.00000
18:09:39.963043,2.50730,0.00560,1.32828,1.32828,"[5.00000,0.00000,0.00000]","[1.30000,0.00000,0.00000]",-0.04210,-0.05321,0.07404,0.00000,0.00000,-0.00391,0.03606,0.13054,0.02227,0.99765,2.50110,0.01465,1.32841,1.99636,1.96540,-0.99979,2.43037,2.42257,-1.03746,2.52042,1.93466,1.93466,57.78145,12.77351,57.78145002,12.77350880,A,133525.20,"[-0.20000,-0.00000,-0.00000]","[-0.10000,-0.00000,-0.00000]",2.99134,0.00000,0.00000,0.00000,0.00000,0.00000
18:09:39.973536,2.51778,0.00569,1.32828,1.32828,"[5.00000,0.00000,0.00000]","[1.30000,0.00000,0.00000]",-0.04076,-0.05321,0.07832,0.00000,0.00000,-0.02010,0.04156,0.10791,0.00982,0.99613,2.51167,0.01221,1.32838,1.99131,1.96035,-1.00580,2.44480,2.42257,-1.03746,2.52042,1.93466,1.93466,57.78145,12.77351,57.78145015,12.77350870,A,133525.20,"[-0.20000,-0.00000,-0.00000]","[-0.10000,-0.00000,-0.00000]",3.00511,0.00000,0.00000,0.00000,0.00000,0.00000
18:09:40.028547,2.57246,0.05013,1.32828,1.50000,"[5.00000,0.00000,0.00000]","[1.30000,0.00000,0.00000]",-0.04019,-0.05321,0.08916,0.00000,0.00000,-0.02407,0.04644,0.10028,-0.04502,1.00443,2.52176,0.01954,1.32836,1.98702,1.95606,-1.01138,2.45831,2.53894,-1.08687,2.65015,1.93466,1.93466,57.78145,12.77351,57.78145027,12.77350861,A,133525.30,"[-0.20000,-0.00000,-0.00000]","[-0.10000,-0.00000,-0.00000]",3.01865,0.00000,0.00000,0.00000,0.00000,0.00000
18:09:40.049779,2.59402,0.00782,1.32828,1.32828,"[5.00000,0.00000,0.00000]","[1.30000,0.00000,0.00000]",-0.03559,-0.05321,0.08931,0.00000,0.00000,0.00373,0.03361,0.21246,-0.09656,0.91909,2.58778,0.01465,1.32835,1.98046,1.94950,-1.04552,2.54277,2.53894,-1.08687,2.65015,1.93466,1.93466,57.78145,12.77351,57.78145103,12.77350803,A,133525.30,"[-0.20000,-0.00000,-0.00000]","[-0.10000,-0.00000,-0.00000]",3.11443,0.00000,0.00000,0.00000,0.00000,0.00000
18:09:40.058121,2.60237,0.00576,1.32828,1.32828,"[5.00000,0.00000,0.00000]","[1.30000,0.00000,0.00000]",-0.03572,-0.05321,0.08687,0.00000,0.00000,0.00434,0.03606,0.01909,-0.06960,0.90859,2.59621,0.00244,1.32833,1.97789,1.94693,-1.05067,2.55589,2.53894,-1.08687,2.65015,1.93466,1.93466,57.78145,12.77351,57.78145115,12.77350794,A,133525.30,"[-0.20000,-0.00000,-0.00000]","[-0.10000,-0.00000,-0.00000]",3.12821,0.00000,0.00000,0.00000,0.00000,0.00000
18:09:40.068361,2.61261,0.00560,1.32828,1.32828,"[5.00000,0.00000,0.00000]","[1.30000,0.00000,0.00000]",-0.03507,-0.05321,0.08320,0.00000,0.00000,-0.00253,0.04537,0.50825,-0.03202,1.01162,2.60657,0.00733,1.32832,1.97560,1.94464,-1.05646,2.57068,2.53894,-1.08687,2.65015,1.93466,1.93466,57.78145,12.77351,57.78145129,12.77350785,A,133525.30,"[-0.20000,-0.00000,-0.00000]","[-0.10000,-0.00000,-0.00000]",3.14197,0.00000,0.00000,0.00000,0.00000,0.00000
18:09:40.078934,2.62318,0.00575,1.32828,1.32828,"[5.00000,0.00000,0.00000]","[1.30000,0.00000,0.00000]",-0.03370,-0.05321,0.07923,0.00000,0.00000,-0.03185,0.05515,0.09205,0.02007,1.04871,2.61700,0.00000,1.32832,1.97365,1.94269,-1.06197,2.58484,2.53894,-1.08687,2.65015,1.93466,1.93466,57.78145,12.77351,57.78145141,12.77350775,A,133525.30,"[-0.20000,-0.00000,-0.00000]","[-0.10000,-0.00000,-0.00000]",3.15577,0.00000,0.00000,0.00000,0.00000,0.00000
18:09:40.089053,2.63330,0.00547,1.39737,1.39737,"[5.00000,0.00000,0.00000]","[1.30000,0.00000,0.00000]",-0.03307,-0.05321,0.07450,0.00000,0.00000,-0.02116,0.05041,0.10815,-0.02898,1.09885,2.62742,0.00488,1.34213,1.97201,1.94105,-1.06706,2.59795,2.53894,-1.08687,2.65015,1.93466,1.93466,57.78145,12.77351,57.78145153,12.77350767,A,133525.30,"[-0.20000,-0.00000,-0.00000]","[-0.10000,-0.00000,-0.00000]",3.16954,0.00000,0.00000,0.00000,0.00000,0.00000
18:09:40.153028,2.69649,0.05843,1.39737,1.50000,"[5.00000,0.00000,0.00000]","[1.30000,0.00000,0.00000]",-0.03373,-0.05321,0.07328,0.00000,0.00000,0.00159,0.04705,-0.02227,-0.11566,1.06061,2.63748,0.00733,1.35317,1.97061,1.93965,-1.07189,2.61045,2.65462,-1.13627,2.76134,1.98889,1.98889,57.78145,12.77351,57.78145164,12.77350759,A,133525.40,"[-0.20000,-0.00000,-0.00000]","[-0.10000,-0.00000,-0.00000]",3.18378,0.00000,0.00000,0.00000,0.00000,0.00000
18:09:40.174256,2.71851,0.00784,1.39737,1.39737,"[5.00000,0.00000,0.00000]","[1.30000,0.00000,0.00000]",-0.02960,-0.05321,0.05220,0.00000,0.00000,0.00587,0.04446,0.26572,0.00079,1.01534,2.71232,0.00977,1.36201,1.97412,1.94316,-1.10886,2.70531,2.65462,-1.13627,2.76134,1.98889,1.98889,57.78145,12.77351,57.78145250,12.77350696,A,133525.40,"[-0.20000,-0.00000,-0.00000]","[-0.10000,-0.00000,-0.00000]",3.29266,0.00000,0.00000,0.00000,0.00000,0.00000
18:09:40.182568,2.72682,0.00575,1.39737,1.39737,"[5.00000,0.00000,0.00000]","[1.30000,0.00000,0.00000]",-0.02887,-0.05321,0.06030,0.00000,0.00000,-0.00391,0.04660,0.22338,0.00250,1.02169,2.72064,0.00244,1.36908,1.98063,1.94967,-1.11331,2.71600,2.65462,-1.13627,2.76134,1.98889,1.98889,57.78145,12.77351,57.78145259,12.77350689,A,133525.40,"[-0.20000,-0.00000,-0.00000]","[-0.10000,-0.00000,-0.00000]",3.30714,0.00000,0.00000,0.00000,0.00000,0.00000
18:09:40.192737,2.73698,0.00552,1.39737,1.39737,"[5.00000,0.00000,0.00000]","[1.30000,0.00000,0.00000]",-0.02719,-0.05321,0.05831,0.00000,0.00000,-0.01689,0.04843,0.11181,0.06179,1.03920,2.73108,0.00000,1.37474,1.98606,1.95510,-1.11850,2.72842,2.65462,-1.13627,2.76134,1.98889,1.98889,57.78145,12.77351,57.78145270,12.77350680,A,133525.40,"[-0.20000,-0.00000,-0.00000]","[-0.10000,-0.00000,-0.00000]",3.32162,0.00000,0.00000,0.00000,0.00000,0.00000
18:09:40.203281,2.74753,0.00558,1.39737,1.39737,"[5.00000,0.00000,0.00000]","[1.30000,0.00000,0.00000]",-0.02624,-0.05321,0.06503,0.00000,0.00000,-0.01047,0.05332,0.04044,0.00854,1.01358,2.74135,0.00000,1.37926,1.99067,1.95971,-1.12356,2.74038,2.65462,-1.13627,2.76134,1.98889,1.98889,57.78145,12.77351,57.78145281,12.77350671,A,133525.40,"[-0.20000,-0.00000,-0.00000]","[-0.10000,-0.00000,-0.00000]",3.33623,0.00000,0.00000,0.00000,0.00000,0.00000
18:09:40.266097,2.81033,0.05797,1.39737,1.50000,"[5.00000,0.00000,0.00000]","[1.30000,0.00000,0.00000]",-0.02698,-0.05321,0.06259,0.00000,0.00000,-0.00101,0.04950,0.12621,-0.10382,1.00321,2.75194,0.00244,1.38288,1.99458,1.96362,-1.12845,2.75180,2.76909,-1.19555,2.90960,1.95118,1.95118,57.78145,12.77351,57.78145291,12.77350663,A,133525.50,"[-0.20000,-0.00000,-0.00000]","[-0.10000,-0.00000,-0.00000]",3.35072,0.00000,0.00000,0.00000,0.00000,0.00000
18:09:40.286348,2.83060,0.00890,1.39737,1.39737,"[5.00000,0.00000,0.00000]","[1.30000,0.00000,0.00000]",-0.02253,-0.05321,0.05617,0.00000,0.00000,-0.00711,0.04629,0.16781,0.01818,0.98582,2.82430,0.00488,1.38578,1.98887,1.95792,-1.16731,2.84537,2.76909,-1.19555,2.90960,1.95118,1.95118,57.78145,12.77351,57.78145376,12.77350598,A,133525.50,"[-0.20000,-0.00000,-0.00000]","[-0.10000,-0.00000,-0.00000]",3.45469,0.00000,0.00000,0.00000,0.00000,0.00000
18:09:40.293063,2.83732,0.00553,1.39737,1.39737,"[5.00000,0.00000,0.00000]","[1.30000,0.00000,0.00000]",-0.02161,-0.05321,0.04915,0.00000,0.00000,-0.01017,0.04904,0.15055,0.03111,0.97496,2.83142,0.00244,1.38810,1.98757,1.95661,-1.17137,2.85509,2.76909,-1.19555,2.90960,1.95118,1.95118,57.78145,12.77351,57.78145384,12.77350591,A,133525.50,"[-0.20000,-0.00000,-0.00000]","[-0.10000,-0.00000,-0.00000]",3.46878,0.00000,0.00000,0.00000,0.00000,0.00000
18:09:40.303487,2.84774,0.00571,1.39737,1.39737,"[5.00000,0.00000,0.00000]","[1.30000,0.00000,0.00000]",-0.01924,-0.05321,0.05403,0.00000,0.00000,-0.02040,0.05041,0.07546,0.12163,1.03389,2.84143,0.01221,1.38995,1.98631,1.95535,-1.17667,2.86790,2.76909,-1.19555,2.90960,1.95118,1.95118,57.78145,12.77351,57.78145396,12.77350582,A,133525.50,"[-0.20000,-0.00000,-0.00000]","[-0.10000,-0.00000,-0.00000]",3.48303,0.00000,0.00000,0.00000,0.00000,0.00000
18:09:40.313892,2.85814,0.00572,1.39737,1.39737,"[5.00000,0.00000,0.00000]","[1.30000,0.00000,0.00000]",-0.01932,-0.05321,0.07221,0.00000,0.00000,-0.01490,0.04889,0.12706,-0.05722,0.96953,2.85200,0.00733,1.39143,1.98522,1.95426,-1.18179,2.88029,2.76909,-1.19555,2.90960,1.95118,1.95118,57.78145,12.77351,57.78145407,12.77350573,A,133525.50,"[-0.20000,-0.00000,-0.00000]","[-0.10000,-0.00000,-0.00000]",3.49751,0.00000,0.00000,0.00000,0.00000,0.00000
18:09:40.324308,2.86856,0.00573,1.39737,1.39737,"[5.00000,0.00000,0.00000]","[1.30000,0.00000,0.00000]",-0.01986,-0.05321,0.07251,0.00000,0.00000,-0.01765,0.04828,0.11858,-0.08595,0.96935,2.86217,0.00000,1.39262,1.98429,1.95333,-1.18674,2.89231,2.76909,-1.19555,2.90960,1.95118,1.95118,57.78145,12.77351,57.78145418,12.77350565,A,133525.50,"[-0.20000,-0.00000,-0.00000]","[-0.10000,-0.00000,-0.00000]",3.51199,0.00000,0.00000,0.00000,0.00000,0.00000
18:09:40.395243,2.93946,0.06624,1.39737,1.50000,"[5.00000,0.00000,0.00000]","[1.30000,0.00000,0.00000]",-0.02066,-0.05321,0.06686,0.00000,0.00000,-0.01780,0.04858,0.18245,-0.09644,0.92080,2.87280,0.00733,1.39357,1.98349,1.95253,-1.19146,2.90382,2.90119,-1.33388,3.20612,2.00729,2.00729,57.78146,12.77350,57.78145428,12.77350557,A,133525.70,"[-0.20000,-0.00000,-0.00000]","[-0.10000,-0.00000,-0.00000]",3.52647,0.00000,0.00000,0.00000,0.00000,0.00000
18:09:40.415371,2.95962,0.00716,1.39737,1.39737,"[5.00000,0.00000,0.00000]","[1.30000,0.00000,0.00000]",-0.01595,-0.05386,0.05816,0.00000,0.00000,-0.01857,0.03377,0.13865,0.00146,0.96484,2.95337,0.01221,1.39433,1.98746,1.95612,-1.23732,3.01545,2.90119,-1.33388,3.20612,2.00729,2.00729,57.78146,12.77350,57.78145529,12.77350480,A,133525.70,"[-0.20000,-0.00000,-0.00000]","[-0.10000,-0.00000,-0.00000]",3.64529,0.00000,0.00000,0.00000,0.00000,0.00000
18:09:40.424373,2.96862,0.00576,1.39737,1.39737,"[5.00000,0.00000,0.00000]","[1.30000,0.00000,0.00000]",-0.01575,-0.05443,0.07114,0.00000,0.00000,-0.02116,0.03209,0.15878,-0.02788,0.96386,2.96223,0.01465,1.39494,1.99479,1.96313,-1.24563,3.03356,2.90119,-1.33388,3.20612,2.00729,2.00729,57.78146,12.77350,57.78145545,12.77350466,A,133525.70,"[-0.20000,-0.00000,-0.00000]","[-0.10000,-0.00000,-0.00000]",3.65978,0.00000,0.00000,0.00000,0.00000,0.00000
18:09:40.434966,2.97922,0.00596,1.39737,1.39737,"[5.00000,0.00000,0.00000]","[1.30000,0.00000,0.00000]",-0.01607,-0.05516,0.06763,0.00000,0.00000,-0.02132,0.03377,0.04978,-0.06710,0.96526,2.97300,0.00244,1.39542,2.00099,1.96889,-1.25450,3.05295,2.90119,-1.33388,3.20612,2.00729,2.00729,57.78146,12.77350,57.78145562,12.77350451,A,133525.70,"[-0.20000,-0.00000,-0.00000]","[-0.10000,-0.00000,-0.00000]",3.67426,0.00000,0.00000,0.00000,0.00000,0.00000
18:09:40.444922,2.98917,0.00551,1.39737,1.39737,"[5.00000,0.00000,0.00000]","[1.30000,0.00000,0.00000]",-0.01547,-0.05595,0.06564,0.00000,0.00000,-0.01307,0.03163,0.09809,-0.00482,1.02132,2.98328,0.00244,1.39581,2.00635,1.97379,-1.26268,3.07063,2.90119,-1.33388,3.20612,2.00729,2.00729,57.78146,12.77350,57.78145578,12.77350437,A,133525.70,"[-0.20000,-0.00000,-0.00000]","[-0.10000,-0.00000,-0.00000]",3.68874,0.00000,0.00000,0.00000,0.00000,0.00000
18:09:40.455435,2.99969,0.00572,1.39737,1.39737,"[5.00000,0.00000,0.00000]","[1.30000,0.00000,0.00000]",-0.01494,-0.05686,0.06915,0.00000,0.00000,-0.00467,0.03682,0.07039,-0.01116,1.04328,2.99351,0.00488,1.39612,2.01097,1.97788,-1.27065,3.08774,2.90119,-1.33388,3.20612,2.00729,2.00729,57.78146,12.77350,57.78145594,12.77350423,A,133525.70,"[-0.20000,-0.00000,-0.00000]","[-0.10000,-0.00000,-0.00000]",3.70309,0.00000,0.00000,0.00000,0.00000,0.00000
18:09:40.517644,3.06105,0.05669,1.39737,1.50000,"[5.00000,0.00000,0.00000]","[1.30000,0.00000,0.00000]",-0.01511,-0.05788,0.06793,0.00000,0.00000,0.00571,0.04064,0.02830,-0.05948,0.99942,3.00432,0.01221,1.39637,2.01495,1.98127,-1.27842,3.10435,3.02133,-1.40305,3.37291,1.96389,1.96389,57.78146,12.77350,57.78145608,12.77350410,A,133525.80,"[-0.20000,-0.00000,-0.00000]","[-0.10000,-0.00000,-0.00000]",3.71757,0.00000,0.00000,0.00000,0.00000,0.00000
18:09:40.538355,3.08261,0.00803,1.92260,1.92260,"[5.00000,0.00000,0.00000]","[1.30000,0.00000,0.00000]",-0.01085,-0.06371,0.06427,0.00000,0.00000,0.00037,0.02476,0.18172,-0.03044,1.01943,3.07634,0.00000,1.50162,2.00865,1.97158,-1.32185,3.20326,3.02133,-1.40305,3.37291,1.96389,1.96389,57.78146,12.77350,57.78145697,12.77350337,A,133525.80,"[-0.20000,-0.00000,-0.00000]","[-0.10000,-0.00000,-0.00000]",3.82286,0.00000,0.00000,0.00000,0.00000,0.00000
18:09:40.546597,3.09085,0.00598,1.92260,1.92260,"[5.00000,0.00000,0.00000]","[1.30000,0.00000,0.00000]",-0.01066,-0.06411,0.05907,0.00000,0.00000,-0.00101,0.01941,0.13743,-0.02586,1.04042,3.08463,0.00977,1.58581,2.00708,1.96977,-1.32953,3.22028,3.02133,-1.40305,3.37291,1.96389,1.96389,57.78146,12.77350,57.78145713,12.77350324,A,133525.80,"[-0.20000,-0.00000,-0.00000]","[-0.10000,-0.00000,-0.00000]",3.84257,0.00000,0.00000,0.00000,0.00000,0.00000
18:09:40.556366,3.10062,0.00551,1.92260,1.92260,"[5.00000,0.00000,0.00000]","[1.30000,0.00000,0.00000]",-0.01052,-0.06453,0.06411,0.00000,0.00000,0.01060,0.01514,0.10169,-0.03800,0.96795,3.09470,0.00733,1.65317,2.00563,1.96807,-1.33789,3.23904,3.02133,-1.40305,3.37291,1.96389,1.96389,57.78146,12.77350,57.78145730,12.77350310,A,133525.80,"[-0.20000,-0.00000,-0.00000]","[-0.10000,-0.00000,-0.00000]",3.86219,0.00000,0.00000,0.00000,0.00000,0.00000
18:09:40.567007,3.11126,0.00557,1.92260,1.92260,"[5.00000,0.00000,0.00000]","[1.30000,0.00000,0.00000]",-0.00890,-0.06490,0.06870,0.00000,0.00000,0.00831,0.01727,0.15036,0.05197,0.95849,3.10505,0.00000,1.70705,2.00436,1.96658,-1.34637,3.25817,3.02133,-1.40305,3.37291,1.96389,1.96389,57.78146,12.77350,57.78145747,12.77350296,A,133525.80,"[-0.20000,-0.00000,-0.00000]","[-0.10000,-0.00000,-0.00000]",3.88211,0.00000,0.00000,0.00000,0.00000,0.00000
18:09:40.577554,3.12179,0.00571,1.92260,1.92260,"[5.00000,0.00000,0.00000]","[1.30000,0.00000,0.00000]",-0.00756,-0.06518,0.08168,0.00000,0.00000,0.00067,0.01788,0.12432,0.02788,0.98588,3.11567,0.00000,1.75016,2.00327,1.96534,-1.35455,3.27670,3.02133,-1.40305,3.37291,1.96389,1.96389,57.78146,12.77350,57.78145763,12.77350282,A,133525.80,"[-0.20000,-0.00000,-0.00000]","[-0.10000,-0.00000,-0.00000]",3.90204,0.00000,0.00000,0.00000,0.00000,0.00000
18:09:40.636858,3.18110,0.05479,1.92260,1.50000,"[5.00000,0.00000,0.00000]","[1.30000,0.00000,0.00000]",-0.00739,-0.06538,0.09084,0.00000,0.00000,-0.00253,0.02033,0.10175,-0.05020,0.95416,3.12571,0.00000,1.78465,2.00237,1.96432,-1.36227,3.29424,3.14274,-1.48209,3.53971,2.01336,2.01336,57.78146,12.77350,57.78145779,12.77350269,A,133525.90,"[-0.20000,-0.00000,-0.00000]","[-0.10000,-0.00000,-0.00000]",3.92164,0.00000,0.00000,0.00000,0.00000,0.00000
18:09:40.658593,3.20284,0.00723,1.92260,1.92260,"[5.00000,0.00000,0.00000]","[1.30000,0.00000,0.00000]",-0.00108,-0.06620,0.08733,0.00000,0.00000,-0.01047,0.02369,0.18428,0.00927,0.93922,3.19651,0.00488,1.81224,2.00386,1.96533,-1.41299,3.41423,3.14274,-1.48209,3.53971,2.01336,2.01336,57.78146,12.77350,57.78145887,12.77350183,A,133525.90,"[-0.20000,-0.00000,-0.00000]","[-0.10000,-0.00000,-0.00000]",4.02555,0.00000,0.00000,0.00000,0.00000,0.00000
18:09:40.667291,3.21154,0.00558,1.92260,1.92260,"[5.00000,0.00000,0.00000]","[1.30000,0.00000,0.00000]",-0.00025,-0.06654,0.09786,0.00000,0.00000,-0.01750,0.01926,0.08662,-0.00006,0.91805,3.20535,0.00244,1.83431,2.01049,1.97177,-1.42095,3.43131,3.14274,-1.48209,3.53971,2.01336,2.01336,57.78146,12.77350,57.78145903,12.77350170,A,133525.90,"[-0.20000,-0.00000,-0.00000]","[-0.10000,-0.00000,-0.00000]",4.04537,0.00000,0.00000,0.00000,0.00000,0.00000
18:09:40.677832,3.22208,0.00572,1.92260,1.92260,"[5.00000,0.00000,0.00000]","[1.30000,0.00000,0.00000]",0.00140,-0.06705,0.10138,0.00000,0.00000,-0.02651,0.01575,0.16799,0.04148,0.97063,3.21594,0.00244,1.85197,2.01601,1.97698,-1.42981,3.45044,3.14274,-1.48209,3.53971,2.01336,2.01336,57.78146,12.77350,57.78145920,12.77350155,A,133525.90,"[-0.20000,-0.00000,-0.00000]","[-0.10000,-0.00000,-0.00000]",4.06530,0.00000,0.00000,0.00000,0.00000,0.00000
18:09:40.688042,3.23229,0.00554,1.92260,1.92260,"[5.00000,0.00000,0.00000]","[1.30000,0.00000,0.00000]",0.00268,-0.06756,0.10917,0.00000,0.00000,-0.01979,0.01956,-0.00092,0.01879,1.03889,3.22611,0.00000,1.86609,2.02073,1.98141,-1.43828,3.46852,3.14274,-1.48209,3.53971,2.01336,2.01336,57.78146,12.77350,57.78145936,12.77350141,A,133525.90,"[-0.20000,-0.00000,-0.00000]","[-0.10000,-0.00000,-0.00000]",4.08522,0.00000,0.00000,0.00000,0.00000,0.00000
18:09:40.698676,3.24293,0.00578,1.92260,1.92260,"[5.00000,0.00000,0.00000]","[1.30000,0.00000,0.00000]",0.00318,-0.06815,0.10382,0.00000,0.00000,-0.00864,0.01269,0.12218,-0.03361,1.06793,3.23672,0.00244,1.87740,2.02478,1.98511,-1.44653,3.48600,3.14274,-1.48209,3.53971,2.01336,2.01336,57.78146,12.77350,57.78145952,12.77350127,A,133525.90,"[-0.20000,-0.00000,-0.00000]","[-0.10000,-0.00000,-0.00000]",4.10515,0.00000,0.00000,0.00000,0.00000,0.00000
18:09:40.760115,3.30434,0.05679,1.92260,1.50000,"[5.00000,0.00000,0.00000]","[1.30000,0.00000,0.00000]",0.00369,-0.06875,0.10306,0.00000,0.00000,-0.00223,0.00964,0.08296,-0.02977,1.04310,3.24710,0.00000,1.88644,2.02828,1.98826,-1.45429,3.50228,3.26398,-1.57102,3.74356,1.98213,1.98213,57.78146,12.77350,57.78145966,12.77350114,A,133526.00,"[-0.20000,-0.00000,-0.00000]","[-0.10000,-0.00000,-0.00000]",4.12507,0.00000,0.00000,0.00000,0.00000,0.00000
18:09:40.783418,3.32766,0.00918,1.92260,1.92260,"[5.00000,0.00000,0.00000]","[1.30000,0.00000,0.00000]",0.01023,-0.08018,0.07419,0.00000,0.00000,-0.00284,0.00124,0.21216,0.08522,1.07561,3.32141,0.00488,1.89367,2.02140,1.97471,-1.51286,3.63325,3.26398,-1.57102,3.74356,1.98213,1.98213,57.78146,12.77350,57.78146084,12.77350015,A,133526.00,"[-0.20000,-0.00000,-0.00000]","[-0.10000,-0.00000,-0.00000]",4.23144,0.00000,0.00000,0.00000,0.00000,0.00000
18:09:40.790389,3.33464,0.00580,1.92260,1.92260,"[5.00000,0.00000,0.00000]","[1.30000,0.00000,0.00000]",0.01103,-0.08174,0.06518,0.00000,0.00000,0.00159,-0.00670,0.19971,0.03422,1.02035,3.32849,0.00977,1.89945,2.02209,1.97449,-1.51928,3.64698,3.26398,-1.57102,3.74356,1.98213,1.98213,57.78146,12.77350,57.78146096,12.77350004,A,133526.00,"[-0.20000,-0.00000,-0.00000]","[-0.10000,-0.00000,-0.00000]",4.25131,0.00000,0.00000,0.00000,0.00000,0.00000
18:09:40.800462,3.34471,0.00548,1.92260,1.92260,"[5.00000,0.00000,0.00000]","[1.30000,0.00000,0.00000]",0.01314,-0.08349,0.05602,0.00000,0.00000,-0.00773,-0.00854,-0.01360,0.11840,1.03407,3.33880,0.00488,1.90408,2.02243,1.97381,-1.52777,3.66562,3.26398,-1.57102,3.74356,1.98213,1.98213,57.78146,12.77350,57.78146113,12.77349990,A,133526.00,"[-0.20000,-0.00000,-0.00000]","[-0.10000,-0.00000,-0.00000]",4.27123,0.00000,0.00000,0.00000,0.00000,0.00000
18:09:40.811110,3.35537,0.00556,1.92260,1.92260,"[5.00000,0.00000,0.00000]","[1.30000,0.00000,0.00000]",0.01349,-0.08496,0.05633,0.00000,0.00000,0.01259,-0.01709,0.13579,-0.00555,0.92708,3.34920,0.00733,1.90779,2.02279,1.97331,-1.53606,3.68389,3.26398,-1.57102,3.74356,1.98213,1.98213,57.78146,12.77350,57.78146130,12.77349976,A,133526.00,"[-0.20000,-0.00000,-0.00000]","[-0.10000,-0.00000,-0.00000]",4.29149,0.00000,0.00000,0.00000,0.00000,0.00000
18:09:40.875791,3.42003,0.05982,1.92260,1.50000,"[5.00000,0.00000,0.00000]","[1.30000,0.00000,0.00000]",0.01521,-0.08612,0.04411,0.00000,0.00000,-0.00299,-0.02289,0.17117,0.09211,0.96752,3.35979,0.00244,1.91075,2.02314,1.97298,-1.54419,3.70185,3.37741,-1.66982,3.94742,2.02211,2.02211,57.78146,12.77350,57.78146146,12.77349962,A,133526.10,"[-0.20000,-0.00000,-0.00000]","[-0.10000,-0.00000,-0.00000]",4.31141,0.00000,0.00000,0.00000,0.00000,0.00000
18:09:40.897551,3.44179,0.00887,2.05210,2.05210,"[5.00000,0.00000,0.00000]","[1.30000,0.00000,0.00000]",0.01639,-0.09464,0.00730,0.00000,0.00000,0.00083,-0.03068,-0.01739,0.05112,1.02956,3.43562,0.00244,1.93902,2.02229,1.96714,-1.60281,3.83718,3.37741,-1.66982,3.94742,2.02211,2.02211,57.78146,12.77350,57.78146268,12.77349863,A,133526.10,"[-0.20000,-0.00000,-0.00000]","[-0.10000,-0.00000,-0.00000]",4.42043,0.00000,0.00000,0.00000,0.00000,0.00000
18:09:40.905362,3.44937,0.00554,2.05210,2.05210,"[5.00000,0.00000,0.00000]","[1.30000,0.00000,0.00000]",0.01656,-0.09566,0.00990,0.00000,0.00000,0.00571,-0.02946,0.03483,0.01507,1.02895,3.44348,0.01709,1.96163,2.02980,1.97406,-1.61048,3.85301,3.37741,-1.66982,3.94742,2.02211,2.02211,57.78146,12.77350,57.78146282,12.77349850,A,133526.10,"[-0.20000,-0.00000,-0.00000]","[-0.10000,-0.00000,-0.00000]",4.44282,0.00000,0.00000,0.00000,0.00000,0.00000
18:09:40.915409,3.45966,0.00560,2.05210,2.05210,"[5.00000,0.00000,0.00000]","[1.30000,0.00000,0.00000]",0.01729,-0.09685,0.00379,0.00000,0.00000,0.00999,-0.02778,0.19642,0.05484,1.01382,3.45349,0.00733,1.97973,2.03596,1.97953,-1.61948,3.87189,3.37741,-1.66982,3.94742,2.02211,2.02211,57.78146,12.77350,57.78146299,12.77349835,A,133526.10,"[-0.20000,-0.00000,-0.00000]","[-0.10000,-0.00000,-0.00000]",4.46374,0.00000,0.00000,0.00000,0.00000,0.00000
18:09:40.926160,3.47041,0.00595,2.05210,2.05210,"[5.00000,0.00000,0.00000]","[1.30000,0.00000,0.00000]",0.01747,-0.09779,-0.00812,0.00000,0.00000,0.00541,-0.03083,0.18696,0.02348,0.97088,3.46405,0.00000,1.99420,2.04122,1.98424,-1.62837,3.89036,3.37741,-1.66982,3.94742,2.02211,2.02211,57.78146,12.77350,57.78146315,12.77349820,A,133526.10,"[-0.20000,-0.00000,-0.00000]","[-0.10000,-0.00000,-0.00000]",4.48500,0.00000,0.00000,0.00000,0.00000,0.00000
18:09:41.000244,3.54390,0.06903,2.05210,1.50000,"[5.00000,0.00000,0.00000]","[1.30000,0.00000,0.00000]",0.01744,-0.09844,-0.01163,0.00000,0.00000,-0.00681,-0.03022,0.18855,0.01031,0.93666,3.47423,0.00244,2.00578,2.04570,1.98833,-1.63711,3.90843,3.50242,-1.87732,4.37367,2.02382,2.02382,57.78147,12.77349,57.78146332,12.77349805,A,133526.30,"[-0.20000,-0.00000,-0.00000]","[-0.10000,-0.00000,-0.00000]",4.50627,0.00000,0.00000,0.00000,0.00000,0.00000
18:09:41.020377,3.56463,0.00811,2.05210,2.05210,"[5.00000,0.00000,0.00000]","[1.30000,0.00000,0.00000]",0.01308,-0.09889,-0.06218,0.00000,0.00000,0.02175,-0.03205,0.15384,0.06747,1.06866,3.55862,0.00733,2.01504,2.03903,1.98140,-1.71272,4.07505,3.50242,-1.87732,4.37367,2.02382,2.02382,57.78147,12.77349,57.78146481,12.77349678,A,133526.30,"[-0.20000,-0.00000,-0.00000]","[-0.10000,-0.00000,-0.00000]",4.62871,0.00000,0.00000,0.00000,0.00000,0.00000
18:09:41.028177,3.57243,0.00575,2.05210,2.05210,"[5.00000,0.00000,0.00000]","[1.30000,0.00000,0.00000]",0.01201,-0.09889,-0.06203,0.00000,0.00000,0.01488,-0.02335,0.14292,-0.03782,1.03767,3.56606,0.00488,2.02246,2.04456,1.98694,-1.72524,4.09982,3.50242,-1.87732,4.37367,2.02382,2.02382,57.78147,12.77349,57.78146504,12.77349657,A,133526.30,"[-0.20000,-0.00000,-0.00000]","[-0.10000,-0.00000,-0.00000]",4.64953,0.00000,0.00000,0.00000,0.00000,0.00000
18:09:41.038620,3.58287,0.00579,2.05210,2.05210,"[5.00000,0.00000,0.00000]","[1.30000,0.00000,0.00000]",0.01160,-0.09889,-0.06967,0.00000,0.00000,0.00205,-0.01755,0.19313,0.02513,1.04286,3.57667,0.03175,2.02838,2.04885,1.99123,-1.73935,4.12825,3.50242,-1.87732,4.37367,2.02382,2.02382,57.78147,12.77349,57.78146529,12.77349633,A,133526.30,"[-0.20000,-0.00000,-0.00000]","[-0.10000,-0.00000,-0.00000]",4.67080,0.00000,0.00000,0.00000,0.00000,0.00000
18:09:41.048815,3.59307,0.00559,2.05210,2.05210,"[5.00000,0.00000,0.00000]","[1.30000,0.00000,0.00000]",0.01076,-0.09889,-0.08036,0.00000,0.00000,-0.01735,-0.01128,0.10480,0.00165,1.02913,3.58716,0.00488,2.03313,2.05249,1.99486,-1.75290,4.15538,3.50242,-1.87732,4.37367,2.02382,2.02382,57.78147,12.77349,57.78146554,12.77349610,A,133526.30,"[-0.20000,-0.00000,-0.00000]","[-0.10000,-0.00000,-0.00000]",4.69206,0.00000,0.00000,0.00000,0.00000,0.00000
18:09:41.112002,3.65619,0.05756,2.05210,1.50000,"[5.00000,0.00000,0.00000]","[1.30000,0.00000,0.00000]",0.01144,-0.09889,-0.08967,0.00000,0.00000,-0.02025,-0.01006,-0.05862,0.11419,1.05121,3.59736,0.00733,2.03692,2.05558,1.99795,-1.76581,4.18113,3.61473,-1.98600,4.59606,2.02538,2.02538,57.78147,12.77349,57.78146577,12.77349588,A,133526.40,"[-0.20000,-0.00000,-0.00000]","[-0.10000,-0.00000,-0.00000]",4.71348,0.00000,0.00000,0.00000,0.00000,0.00000
18:09:41.134188,3.67844,0.00953,2.55427,2.55427,"[5.00000,0.00000,0.00000]","[1.30000,0.00000,0.00000]",0.00513,-0.09889,-0.09028,0.00000,0.00000,0.02068,-0.01510,0.11999,0.00494,0.99485,3.67225,0.00000,2.14039,2.04883,1.99120,-1.83523,4.33019,3.61473,-1.98600,4.59606,2.02538,2.02538,57.78147,12.77349,57.78146711,12.77349471,A,133526.40,"[-0.20000,-0.00000,-0.00000]","[-0.10000,-0.00000,-0.00000]",4.81987,0.00000,0.00000,0.00000,0.00000,0.00000
18:09:41.140796,3.68505,0.00542,2.55427,2.55427,"[5.00000,0.00000,0.00000]","[1.30000,0.00000,0.00000]",0.00455,-0.09889,-0.08463,0.00000,0.00000,0.01885,-0.01556,0.15402,-0.02428,0.98796,3.67917,0.01709,2.22317,2.05315,1.99553,-1.84702,4.35299,3.61473,-1.98600,4.59606,2.02538,2.02538,57.78147,12.77349,57.78146731,12.77349451,A,133526.40,"[-0.20000,-0.00000,-0.00000]","[-0.10000,-0.00000,-0.00000]",4.84723,0.00000,0.00000,0.00000,0.00000,0.00000
18:09:41.151485,3.69573,0.00577,2.55427,2.55427,"[5.00000,0.00000,0.00000]","[1.30000,0.00000,0.00000]",0.00374,-0.09889,-0.09089,0.00000,0.00000,-0.00330,-0.02136,0.16025,-0.01787,1.00760,3.68936,0.00000,2.28939,2.05626,1.99863,-1.86132,4.38140,3.61473,-1.98600,4.59606,2.02538,2.02538,57.78147,12.77349,57.78146757,12.77349427,A,133526.40,"[-0.20000,-0.00000,-0.00000]","[-0.10000,-0.00000,-0.00000]",4.87352,0.00000,0.00000,0.00000,0.00000,0.00000
18:09:41.161812,3.70606,0.00570,2.55427,2.55427,"[5.00000,0.00000,0.00000]","[1.30000,0.00000,0.00000]",0.00213,-0.09889,-0.08982,0.00000,0.00000,-0.00559,-0.01923,0.14890,-0.07143,1.04121,3.69993,0.01709,2.34237,2.05887,2.00124,-1.87508,4.40864,3.61473,-1.98600,4.59606,2.02538,2.02538,57.78147,12.77349,57.78146781,12.77349404,A,133526.40,"[-0.20000,-0.00000,-0.00000]","[-0.10000,-0.00000,-0.00000]",4.89999,0.00000,0.00000,0.00000,0.00000,0.00000
18:09:41.224162,3.76840,0.05764,2.55427,1.50000,"[5.00000,0.00000,0.00000]","[1.30000,0.00000,0.00000]",0.00115,-0.09889,-0.09883,0.00000,0.00000,-0.01139,-0.02762,0.14591,-0.02647,0.99790,3.71014,0.00244,2.38475,2.06104,2.00341,-1.88848,4.43511,3.72715,-2.10457,4.83698,2.02814,2.02814,57.78147,12.77349,57.78146805,12.77349381,A,133526.50,"[-0.20000,-0.00000,-0.00000]","[-0.10000,-0.00000,-0.00000]",4.92645,0.00000,0.00000,0.00000,0.00000,0.00000
18:09:41.246083,3.79033,0.00978,2.55427,2.55427,"[5.00000,0.00000,0.00000]","[1.30000,0.00000,0.00000]",-0.00396,-0.09980,-0.08570,0.00000,0.00000,-0.00498,-0.05954,0.03251,0.04355,0.97746,3.78390,0.00000,2.41865,2.05229,1.99414,-1.96748,4.60288,3.72715,-2.10457,4.83698,2.02814,2.02814,57.78147,12.77349,57.78146956,12.77349248,A,133526.50,"[-0.20000,-0.00000,-0.00000]","[-0.10000,-0.00000,-0.00000]",5.03110,0.00000,0.00000,0.00000,0.00000,0.00000
18:09:41.253486,3.79773,0.00596,2.55427,2.55427,"[5.00000,0.00000,0.00000]","[1.30000,0.00000,0.00000]",-0.00442,-0.10030,-0.07455,0.00000,0.00000,-0.00788,-0.05435,0.11102,-0.02922,0.94587,3.79138,0.00488,2.44578,2.05646,1.99801,-1.97948,4.62602,3.72715,-2.10457,4.83698,2.02814,2.02814,57.78147,12.77349,57.78146977,12.77349228,A,133526.50,"[-0.20000,-0.00000,-0.00000]","[-0.10000,-0.00000,-0.00000]",5.05971,0.00000,0.00000,0.00000,0.00000,0.00000
18:09:41.263320,3.80757,0.00557,2.55427,2.55427,"[5.00000,0.00000,0.00000]","[1.30000,0.00000,0.00000]",-0.00491,-0.10107,-0.05989,0.00000,0.00000,-0.01796,-0.04580,0.19148,-0.02995,0.94013,3.80139,0.00000,2.46748,2.05959,2.00069,-1.99345,4.65350,3.72715,-2.10457,4.83698,2.02814,2.02814,57.78147,12.77349,57.78147002,12.77349204,A,133526.50,"[-0.20000,-0.00000,-0.00000]","[-0.10000,-0.00000,-0.00000]",5.08575,0.00000,0.00000,0.00000,0.00000,0.00000
18:09:41.273886,3.81814,0.00574,2.55427,2.55427,"[5.00000,0.00000,0.00000]","[1.30000,0.00000,0.00000]",-0.00536,-0.10192,-0.05852,0.00000,0.00000,-0.01780,-0.03862,0.07460,-0.02696,0.94416,3.81200,0.00733,2.48483,2.06220,2.00280,-2.00738,4.68094,3.72715,-2.10457,4.83698,2.02814,2.02814,57.78147,12.77349,57.78147026,12.77349181,A,133526.50,"[-0.20000,-0.00000,-0.00000]","[-0.10000,-0.00000,-0.00000]",5.11223,0.00000,0.00000,0.00000,0.00000,0.00000
18:09:41.334887,3.87880,0.05600,2.55427,1.50000,"[5.00000,0.00000,0.00000]","[1.30000,0.00000,0.00000]",-0.00575,-0.10274,-0.05103,0.00000,0.00000,-0.01597,-0.03831,0.12609,-0.02788,1.02309,3.82214,0.01709,2.49872,2.06450,2.00462,-2.02053,4.70673,3.83968,-2.23302,5.05937,2.09457,2.09457,57.78147,12.77349,57.78147050,12.77349158,A,133526.60,"[-0.20000,-0.00000,-0.00000]","[-0.10000,-0.00000,-0.00000]",5.13871,0.00000,0.00000,0.00000,0.00000,0.00000
18:09:41.356109,3.90035,0.00843,2.55427,2.55427,"[5.00000,0.00000,0.00000]","[1.30000,0.00000,0.00000]",-0.00553,-0.10390,-0.00323,0.00000,0.00000,-0.00666,-0.03908,0.08930,-0.00799,0.99814,3.89418,0.00000,2.50983,2.06474,2.00418,-2.10128,4.87573,3.83968,-2.23302,5.05937,2.09457,2.09457,57.78147,12.77349,57.78147202,12.77349022,A,133526.60,"[-0.20000,-0.00000,-0.00000]","[-0.10000,-0.00000,-0.00000]",5.24236,0.00000,0.00000,0.00000,0.00000,0.00000
18:09:41.363671,3.90793,0.00581,3.01475,3.01475,"[5.00000,0.00000,0.00000]","[1.30000,0.00000,0.00000]",-0.00436,-0.10390,0.00043,0.00000,0.00000,-0.00330,-0.02549,0.21417,0.01525,0.96862,3.90149,0.01221,2.61081,2.07722,2.01666,-2.11344,4.89696,3.83968,-2.23302,5.05937,2.09457,2.09457,57.78147,12.77349,57.78147221,12.77349002,A,133526.60,"[-0.20000,-0.00000,-0.00000]","[-0.10000,-0.00000,-0.00000]",5.26836,0.00000,0.00000,0.00000,0.00000,0.00000
18:09:41.373985,3.91824,0.00571,3.01475,3.01475,"[5.00000,0.00000,0.00000]","[1.30000,0.00000,0.00000]",-0.00282,-0.10390,0.00410,0.00000,0.00000,0.00205,-0.01923,0.11846,0.03770,0.96539,3.91211,0.00244,2.69160,2.08723,2.02667,-2.12834,4.92374,3.83968,-2.23302,5.05937,2.09457,2.09457,57.78147,12.77349,57.78147245,12.77348977,A,133526.60,"[-0.20000,-0.00000,-0.00000]","[-0.10000,-0.00000,-0.00000]",5.29960,0.00000,0.00000,0.00000,0.00000,0.00000
18:09:41.384134,3.92839,0.00547,3.01475,3.01475,"[5.00000,0.00000,0.00000]","[1.30000,0.00000,0.00000]",-0.00250,-0.10390,0.01570,0.00000,0.00000,-0.00849,-0.01281,0.13865,-0.04636,1.00424,3.92229,0.01221,2.75623,2.09563,2.03507,-2.14329,4.95034,3.83968,-2.23302,5.05937,2.09457,2.09457,57.78147,12.77349,57.78147269,12.77348951,A,133526.60,"[-0.20000,-0.00000,-0.00000]","[-0.10000,-0.00000,-0.00000]",5.33084,0.00000,0.00000,0.00000,0.00000,0.00000
18:09:41.394834,3.93909,0.00576,3.01475,3.01475,"[5.00000,0.00000,0.00000]","[1.30000,0.00000,0.00000]",-0.00236,-0.10390,0.02013,0.00000,0.00000,-0.00162,-0.01739,0.09083,-0.06259,0.95666,3.93290,0.00244,2.80793,2.10272,2.04216,-2.15792,4.97605,3.83968,-2.23302,5.05937,2.09457,2.09457,57.78147,12.77349,57.78147292,12.77348927,A,133526.60,"[-0.20000,-0.00000,-0.00000]","[-0.10000,-0.00000,-0.00000]",5.36209,0.00000,0.00000,0.00000,0.00000,0.00000
18:09:41.457759,4.00133,0.05760,3.01475,1.50000,"[5.00000,0.00000,0.00000]","[1.30000,0.00000,0.00000]",-0.00245,-0.10390,0.01463,0.00000,0.00000,-0.00345,-0.02900,0.01214,-0.07290,0.95191,3.94317,0.00733,2.84930,2.10880,2.04825,-2.17163,4.99974,3.96027,-2.36146,5.31882,2.03049,2.03049,57.78148,12.77349,57.78147313,12.77348904,A,133526.70,"[-0.20000,-0.00000,-0.00000]","[-0.10000,-0.00000,-0.00000]",5.39334,0.00000,0.00000,0.00000,0.00000,0.00000
18:09:41.483790,4.02804,0.01246,3.01475,1.50000,"[5.00000,0.00000,0.00000]","[1.30000,0.00000,0.00000]",-0.00013,-0.10390,0.03128,0.00000,0.00000,-0.01215,-0.01312,0.03739,-0.00348,0.94953,4.02113,0.00733,2.57944,2.08943,2.02887,-2.27594,5.19897,3.96027,-2.36146,5.31882,2.03049,2.03049,57.78148,12.77349,57.78147492,12.77348728,A,133526.70,"[-0.20000,-0.00000,-0.00000]","[-0.10000,-0.00000,-0.00000]",5.50109,0.00000,0.00000,0.00000,0.00000,0.00000
18:09:41.506444,4.05069,0.01092,3.01475,1.50000,"[5.00000,0.00000,0.00000]","[1.30000,0.00000,0.00000]",0.00117,-0.10390,0.04136,0.00000,0.00000,-0.02330,-0.00120,0.02727,0.02721,0.98204,4.04447,0.00733,2.36355,2.08558,2.02502,-2.30256,5.25029,3.96027,-2.36146,5.31882,2.03049,2.03049,57.78148,12.77349,57.78147538,12.77348683,A,133526.70,"[-0.20000,-0.00000,-0.00000]","[-0.10000,-0.00000,-0.00000]",5.53734,0.00000,0.00000,0.00000,0.00000,0.00000
18:09:41.582716,4.12694,0.06346,3.01475,1.50000,"[5.00000,0.00000,0.00000]","[1.30000,0.00000,0.00000]",0.00248,-0.10390,0.02593,0.00000,0.00000,0.00831,-0.02762,-0.02111,0.05575,1.03901,4.06847,0.00244,2.19084,2.08241,2.02185,-2.32715,5.29804,4.08560,-2.48003,5.57828,1.99944,1.99944,57.78148,12.77348,57.78147581,12.77348641,A,133526.80,"[-0.20000,-0.00000,-0.00000]","[-0.10000,-0.00000,-0.00000]",5.57287,0.00000,0.00000,0.00000,0.00000,0.00000
18:09:41.605438,4.14945,0.00979,3.01475,1.50000,"[5.00000,0.00000,0.00000]","[1.30000,0.00000,0.00000]",0.00338,-0.10047,0.00746,0.00000,0.00000,-0.02071,0.00658,0.04691,0.02916,0.94873,4.14352,0.00733,2.05267,2.06645,2.00789,-2.40101,5.44875,4.08560,-2.48003,5.57828,1.99944,1.99944,57.78148,12.77348,57.78147717,12.77348517,A,133526.80,"[-0.20000,-0.00000,-0.00000]","[-0.10000,-0.00000,-0.00000]",5.68710,0.00000,0.00000,0.00000,0.00000,0.00000
18:09:41.616891,4.16114,0.01026,3.01475,1.50000,"[5.00000,0.00000,0.00000]","[1.30000,0.00000,0.00000]",0.00434,-0.09954,0.00089,0.00000,0.00000,-0.01643,0.00613,-0.05435,0.06637,0.93489,4.15519,0.02686,1.94214,2.06359,2.00558,-2.41312,5.47270,4.08560,-2.48003,5.57828,1.99944,1.99944,57.78148,12.77348,57.78147738,12.77348496,A,133526.80,"[-0.20000,-0.00000,-0.00000]","[-0.10000,-0.00000,-0.00000]",5.70391,0.00000,0.00000,0.00000,0.00000,0.00000
18:09:41.635531,4.17978,0.00808,2.78916,2.78916,"[5.00000,0.00000,0.00000]","[1.30000,0.00000,0.00000]",0.00555,-0.09838,0.00349,0.00000,0.00000,0.02618,-0.00029,0.10407,0.03947,0.97277,4.17358,0.00488,2.11154,2.06019,2.00286,-2.42936,5.50574,4.08560,-2.48003,5.57828,1.99944,1.99944,57.78148,12.77348,57.78147768,12.77348469,A,133526.80,"[-0.20000,-0.00000,-0.00000]","[-0.10000,-0.00000,-0.00000]",5.73511,0.00000,0.00000,0.00000,0.00000,0.00000
18:09:41.707056,4.25129,0.06941,2.78916,1.50000,"[5.00000,0.00000,0.00000]","[1.30000,0.00000,0.00000]",0.00542,-0.09804,0.00623,0.00000,0.00000,0.02358,-0.00365,0.05758,-0.04642,0.97216,4.18125,0.01709,2.24707,2.05878,2.00166,-2.43661,5.51959,4.20924,-2.73693,6.11572,2.01669,2.01669,57.78148,12.77348,57.78147781,12.77348457,A,133527.00,"[-0.20000,-0.00000,-0.00000]","[-0.10000,-0.00000,-0.00000]",5.76341,0.00000,0.00000,0.00000,0.00000,0.00000
18:09:41.727878,4.27213,0.00840,2.78916,2.78916,"[5.00000,0.00000,0.00000]","[1.30000,0.00000,0.00000]",0.00435,-0.09453,-0.03088,0.00000,0.00000,-0.02681,0.01483,-0.12218,0.06405,0.96246,4.26558,0.01221,2.35548,2.04731,1.99223,-2.52502,5.70906,4.20924,-2.73693,6.11572,2.01669,2.01669,57.78148,12.77348,57.78147951,12.77348307,A,133527.00,"[-0.20000,-0.00000,-0.00000]","[-0.10000,-0.00000,-0.00000]",5.88614,0.00000,0.00000,0.00000,0.00000,0.00000
18:09:41.735156,4.27941,0.00559,2.78916,2.78916,"[5.00000,0.00000,0.00000]","[1.30000,0.00000,0.00000]",0.00370,-0.09453,-0.02950,0.00000,0.00000,-0.00223,0.01483,-0.09919,-0.06118,0.94337,4.27320,0.02442,2.44222,2.05007,1.99499,-2.54065,5.74064,4.20924,-2.73693,6.11572,2.01669,2.01669,57.78148,12.77348,57.78147979,12.77348281,A,133527.00,"[-0.20000,-0.00000,-0.00000]","[-0.10000,-0.00000,-0.00000]",5.91419,0.00000,0.00000,0.00000,0.00000,0.00000
18:09:41.745931,4.29018,0.00596,2.78916,2.78916,"[5.00000,0.00000,0.00000]","[1.30000,0.00000,0.00000]",0.00344,-0.09453,-0.03744,0.00000,0.00000,0.01274,0.00231,-0.04362,-0.02702,0.92921,4.28380,0.02198,2.51161,2.05186,1.99679,-2.55863,5.77746,4.20924,-2.73693,6.11572,2.01669,2.01669,57.78148,12.77348,57.78148012,12.77348251,A,133527.00,"[-0.20000,-0.00000,-0.00000]","[-0.10000,-0.00000,-0.00000]",5.94311,0.00000,0.00000,0.00000,0.00000,0.00000
18:09:41.755970,4.30022,0.00560,2.78916,2.78916,"[5.00000,0.00000,0.00000]","[1.30000,0.00000,0.00000]",0.00285,-0.09453,-0.04813,0.00000,0.00000,0.00999,-0.00258,0.11535,-0.04117,0.95087,4.29411,0.02198,2.56712,2.05339,1.99831,-2.57573,5.81242,4.20924,-2.73693,6.11572,2.01669,2.01669,57.78148,12.77348,57.78148044,12.77348222,A,133527.00,"[-0.20000,-0.00000,-0.00000]","[-0.10000,-0.00000,-0.00000]",5.97201,0.00000,0.00000,0.00000,0.00000,0.00000
18:09:41.818236,4.36183,0.05681,2.78916,1.50000,"[5.00000,0.00000,0.00000]","[1.30000,0.00000,0.00000]",0.00201,-0.09453,-0.06234,0.00000,0.00000,0.00159,-0.01235,-0.01897,-0.04734,0.97338,4.30462,0.03175,2.61153,2.05461,1.99953,-2.59242,5.84653,4.32193,-2.86538,6.39371,2.00364,2.00364,57.78149,12.77348,57.78148075,12.77348194,A,133527.10,"[-0.20000,-0.00000,-0.00000]","[-0.10000,-0.00000,-0.00000]",6.00091,0.00000,0.00000,0.00000,0.00000,0.00000
18:09:41.837491,4.38173,0.00696,2.78916,2.78916,"[5.00000,0.00000,0.00000]","[1.30000,0.00000,0.00000]",-0.00450,-0.09453,-0.09410,0.00000,0.00000,-0.01383,-0.03144,0.01263,-0.03160,0.96984,4.37551,0.03907,2.64705,2.04265,1.98757,-2.67707,6.02921,4.32193,-2.86538,6.39371,2.00364,2.00364,57.78149,12.77348,57.78148239,12.77348051,A,133527.10,"[-0.20000,-0.00000,-0.00000]","[-0.10000,-0.00000,-0.00000]",6.10547,0.00000,0.00000,0.00000,0.00000,0.00000
18:09:41.846903,4.39115,0.00600,2.78916,2.78916,"[5.00000,0.00000,0.00000]","[1.30000,0.00000,0.00000]",-0.00476,-0.09453,-0.09929,0.00000,0.00000,-0.00879,-0.04244,-0.06161,-0.00268,0.92854,4.38474,0.06349,2.67547,2.04368,1.98861,-2.69403,6.06449,4.32193,-2.86538,6.39371,2.00364,2.00364,57.78149,12.77348,57.78148271,12.77348022,A,133527.10,"[-0.20000,-0.00000,-0.00000]","[-0.10000,-0.00000,-0.00000]",6.13437,0.00000,0.00000,0.00000,0.00000,0.00000
18:09:41.856943,4.40120,0.00565,3.08003,3.08003,"[5.00000,0.00000,0.00000]","[1.30000,0.00000,0.00000]",-0.00419,-0.09456,-0.09838,0.00000,0.00000,0.00709,-0.04656,-0.15494,0.03623,0.88200,4.39529,0.04151,2.75639,2.04439,1.98929,-2.71115,6.10021,4.32193,-2.86538,6.39371,2.00364,2.00364,57.78149,12.77348,57.78148303,12.77347993,A,133527.10,"[-0.20000,-0.00000,-0.00000]","[-0.10000,-0.00000,-0.00000]",6.16327,0.00000,0.00000,0.00000,0.00000,0.00000
18:09:41.867307,4.41156,0.00559,3.08003,3.08003,"[5.00000,0.00000,0.00000]","[1.30000,0.00000,0.00000]",-0.00364,-0.09487,-0.08677,0.00000,0.00000,0.01793,-0.05175,-0.06374,0.02489,0.86833,4.40538,0.06105,2.82111,2.04496,1.98968,-2.72772,6.13481,4.32193,-2.86538,6.39371,2.00364,2.00364,57.78149,12.77348,57.78148334,12.77347966,A,133527.10,"[-0.20000,-0.00000,-0.00000]","[-0.10000,-0.00000,-0.00000]",6.19522,0.00000,0.00000,0.00000,0.00000,0.00000
18:09:41.877896,4.42214,0.00572,3.08003,3.08003,"[5.00000,0.00000,0.00000]","[1.30000,0.00000,0.00000]",-0.00478,-0.09572,-0.09135,0.00000,0.00000,0.02297,-0.06214,0.09626,-0.06826,0.83259,4.41602,0.06105,2.87290,2.04542,1.98965,-2.74399,6.16884,4.32193,-2.86538,6.39371,2.00364,2.00364,57.78149,12.77348,57.78148364,12.77347938,A,133527.10,"[-0.20000,-0.00000,-0.00000]","[-0.10000,-0.00000,-0.00000]",6.22732,0.00000,0.00000,0.00000,0.00000,0.00000
18:09:41.938536,4.48276,0.05594,3.08003,1.50000,"[5.00000,0.00000,0.00000]","[1.30000,0.00000,0.00000]",-0.00648,-0.09708,-0.08753,0.00000,0.00000,0.00434,-0.07405,0.00464,-0.11065,0.94892,4.42620,0.05128,2.91432,2.04588,1.98931,-2.75967,6.20166,4.44327,-2.99382,6.67170,2.00364,2.00364,57.78149,12.77348,57.78148394,12.77347912,A,133527.20,"[-0.20000,-0.00000,-0.00000]","[-0.10000,-0.00000,-0.00000]",6.25925,0.00000,0.00000,0.00000,0.00000,0.00000
18:09:41.959276,4.50353,0.01043,3.08003,1.50000,"[5.00000,0.00000,0.00000]","[1.30000,0.00000,0.00000]",-0.01409,-0.10741,-0.10403,0.00000,0.00000,-0.01704,-0.07023,-0.11169,-0.02434,1.01815,4.49725,0.03175,2.63146,2.03446,1.97185,-2.84912,6.39994,4.44327,-2.99382,6.67170,2.00364,2.00364,57.78149,12.77348,57.78148572,12.77347761,A,133527.20,"[-0.20000,-0.00000,-0.00000]","[-0.10000,-0.00000,-0.00000]",6.35861,0.00000,0.00000,0.00000,0.00000,0.00000
18:09:41.984319,4.52857,0.01097,3.08003,1.50000,"[5.00000,0.00000,0.00000]","[1.30000,0.00000,0.00000]",-0.01705,-0.11097,-0.11151,0.00000,0.00000,-0.01826,-0.07176,0.03355,-0.02666,0.81228,4.52178,0.02930,2.40517,2.03469,1.96998,-2.87900,6.46695,4.44327,-2.99382,6.67170,2.00364,2.00364,57.78149,12.77348,57.78148633,12.77347710,A,133527.20,"[-0.20000,-0.00000,-0.00000]","[-0.10000,-0.00000,-0.00000]",6.39390,0.00000,0.00000,0.00000,0.00000,0.00000
18:09:42.058588,4.60283,0.06204,3.08003,1.50000,"[5.00000,0.00000,0.00000]","[1.30000,0.00000,0.00000]",-0.01924,-0.11253,-0.08998,0.00000,0.00000,-0.01444,-0.07680,-0.14506,-0.02629,0.92568,4.54423,0.05128,2.22413,2.03595,1.97033,-2.90237,6.51898,4.56125,-3.13215,6.94968,2.03253,2.03253,57.78149,12.77347,57.78148679,12.77347671,A,133527.30,"[-0.20000,-0.00000,-0.00000]","[-0.10000,-0.00000,-0.00000]",6.42864,0.00000,0.00000,0.00000,0.00000,0.00000
18:09:42.082015,4.62626,0.01213,3.08003,1.50000,"[5.00000,0.00000,0.00000]","[1.30000,0.00000,0.00000]",-0.02452,-0.11270,-0.06004,0.00000,0.00000,-0.03155,-0.05725,-0.03196,-0.06466,0.91067,4.62008,0.04884,2.07931,2.03157,1.96585,-2.97472,6.68465,4.56125,-3.13215,6.94968,2.03253,2.03253,57.78149,12.77347,57.78148828,12.77347549,A,133527.30,"[-0.20000,-0.00000,-0.00000]","[-0.10000,-0.00000,-0.00000]",6.53863,0.00000,0.00000,0.00000,0.00000,0.00000
18:09:42.108583,4.65283,0.01140,3.25439,1.50000,"[5.00000,0.00000,0.00000]","[1.30000,0.00000,0.00000]",-0.02834,-0.11270,-0.06035,0.00000,0.00000,0.03901,-0.05817,-0.10199,-0.16269,0.92067,4.64592,0.04640,1.96345,2.03739,1.97167,-3.00089,6.74177,4.56125,-3.13215,6.94968,2.03253,2.03253,57.78149,12.77347,57.78148880,12.77347505,A,133527.30,"[-0.20000,-0.00000,-0.00000]","[-0.10000,-0.00000,-0.00000]",6.57877,0.00000,0.00000,0.00000,0.00000,0.00000
18:09:42.182581,4.72682,0.06050,3.25439,1.50000,"[5.00000,0.00000,0.00000]","[1.30000,0.00000,0.00000]",-0.02957,-0.11270,-0.08097,0.00000,0.00000,0.05031,-0.07756,0.01879,0.01220,0.96764,4.66851,0.04396,1.87076,2.04327,1.97755,-3.02189,6.78624,4.68672,-3.27048,7.20914,2.06061,2.06061,57.78149,12.77347,57.78148920,12.77347469,A,133527.40,"[-0.20000,-0.00000,-0.00000]","[-0.10000,-0.00000,-0.00000]",6.61606,0.00000,0.00000,0.00000,0.00000,0.00000
18:09:42.206129,4.75037,0.00992,3.25439,1.50000,"[5.00000,0.00000,0.00000]","[1.30000,0.00000,0.00000]",-0.03615,-0.11270,-0.07516,0.00000,0.00000,-0.06499,-0.05175,-0.01122,-0.08046,0.80032,4.74353,0.04396,1.79661,2.04449,1.97877,-3.08493,6.92487,4.68672,-3.27048,7.20914,2.06061,2.06061,57.78149,12.77347,57.78149044,12.77347363,A,133527.40,"[-0.20000,-0.00000,-0.00000]","[-0.10000,-0.00000,-0.00000]",6.72722,0.00000,0.00000,0.00000,0.00000,0.00000
18:09:42.216854,4.76110,0.00952,3.25439,1.50000,"[5.00000,0.00000,0.00000]","[1.30000,0.00000,0.00000]",-0.03556,-0.11270,-0.08509,0.00000,0.00000,-0.04850,-0.04442,-0.06978,0.04240,0.71401,4.75435,0.06349,1.73728,2.05529,1.98957,-3.10086,6.95448,4.68672,-3.27048,7.20914,2.06061,2.06061,57.78149,12.77347,57.78149071,12.77347336,A,133527.40,"[-0.20000,-0.00000,-0.00000]","[-0.10000,-0.00000,-0.00000]",6.74389,0.00000,0.00000,0.00000,0.00000,0.00000
18:09:42.228568,4.77282,0.00994,3.25439,1.50000,"[5.00000,0.00000,0.00000]","[1.30000,0.00000,0.00000]",-0.03608,-0.11270,-0.08295,0.00000,0.00000,-0.02376,-0.04412,-0.17318,-0.00409,0.77189,4.76685,0.04151,1.68983,2.06450,1.99879,-3.11601,6.98218,4.68672,-3.27048,7.20914,2.06061,2.06061,57.78149,12.77347,57.78149096,12.77347311,A,133527.40,"[-0.20000,-0.00000,-0.00000]","[-0.10000,-0.00000,-0.00000]",6.76082,0.00000,0.00000,0.00000,0.00000,0.00000
18:09:42.240191,4.78444,0.00992,3.25439,1.50000,"[5.00000,0.00000,0.00000]","[1.30000,0.00000,0.00000]",-0.03905,-0.11270,-0.07073,0.00000,0.00000,0.02801,-0.05313,-0.21319,-0.16220,0.89273,4.77829,0.05372,1.65186,2.07239,2.00667,-3.13029,7.00792,4.68672,-3.27048,7.20914,2.06061,2.06061,57.78149,12.77347,57.78149119,12.77347286,A,133527.40,"[-0.20000,-0.00000,-0.00000]","[-0.10000,-0.00000,-0.00000]",6.77826,0.00000,0.00000,0.00000,0.00000,0.00000
18:09:42.314948,4.85916,0.07326,3.25439,1.50000,"[5.00000,0.00000,0.00000]","[1.30000,0.00000,0.00000]",-0.03846,-0.11270,-0.09593,0.00000,0.00000,0.06787,-0.04992,-0.20789,0.07113,0.96404,4.78951,0.03419,1.62149,2.07921,2.01349,-3.14342,7.03111,4.81739,-3.53726,7.76511,2.01818,2.01818,57.78150,12.77347,57.78149140,12.77347264,A,133527.60,"[-0.20000,-0.00000,-0.00000]","[-0.10000,-0.00000,-0.00000]",6.79530,0.00000,0.00000,0.00000,0.00000,0.00000
18:09:42.341793,4.88604,0.01134,3.25439,1.50000,"[5.00000,0.00000,0.00000]","[1.30000,0.00000,0.00000]",-0.04866,-0.10260,-0.10448,0.00000,0.00000,-0.01444,-0.00350,-0.10626,-0.08857,0.93293,4.87984,0.03907,1.59719,2.06710,2.00730,-3.22124,7.19042,4.81739,-3.53726,7.76511,2.01818,2.01818,57.78150,12.77347,57.78149283,12.77347133,A,133527.60,"[-0.20000,-0.00000,-0.00000]","[-0.10000,-0.00000,-0.00000]",6.92845,0.00000,0.00000,0.00000,0.00000,0.00000
18:09:42.362216,4.90647,0.00930,2.78806,2.78806,"[5.00000,0.00000,0.00000]","[1.30000,0.00000,0.00000]",-0.04979,-0.09733,-0.10647,0.00000,0.00000,0.00388,-0.00670,-0.12657,-0.02251,0.92586,4.90026,0.04640,1.83537,2.06601,2.00929,-3.24901,7.24481,4.81739,-3.53726,7.76511,2.01818,2.01818,57.78150,12.77347,57.78149332,12.77347086,A,133527.60,"[-0.20000,-0.00000,-0.00000]","[-0.10000,-0.00000,-0.00000]",6.96212,0.00000,0.00000,0.00000,0.00000,0.00000
18:09:42.368829,4.91308,0.00541,2.78806,2.78806,"[5.00000,0.00000,0.00000]","[1.30000,0.00000,0.00000]",-0.04904,-0.09572,-0.10662,0.00000,0.00000,0.01350,0.00002,-0.21746,0.00384,0.89609,4.90720,0.05372,2.02591,2.06652,2.01075,-3.26723,7.27895,4.81739,-3.53726,7.76511,2.01818,2.01818,57.78150,12.77347,57.78149363,12.77347055,A,133527.60,"[-0.20000,-0.00000,-0.00000]","[-0.10000,-0.00000,-0.00000]",6.99135,0.00000,0.00000,0.00000,0.00000,0.00000
18:09:42.434430,4.97866,0.06070,2.78806,1.50000,"[5.00000,0.00000,0.00000]","[1.30000,0.00000,0.00000]",-0.05056,-0.09334,-0.10311,0.00000,0.00000,0.03824,0.00338,-0.10181,-0.11438,0.93794,4.91737,0.04396,2.17834,2.06622,2.01183,-3.28764,7.31793,4.93446,-3.65582,8.04310,1.97395,1.97395,57.78150,12.77346,57.78149398,12.77347021,A,133527.70,"[-0.20000,-0.00000,-0.00000]","[-0.10000,-0.00000,-0.00000]",7.01996,0.00000,0.00000,0.00000,0.00000,0.00000
18:09:42.456180,5.00043,0.00927,2.78806,2.78806,"[5.00000,0.00000,0.00000]","[1.30000,0.00000,0.00000]",-0.05473,-0.08205,-0.07303,0.00000,0.00000,-0.02376,0.04996,-0.05283,0.00628,0.90920,4.99429,0.04640,2.30028,2.04824,2.00046,-3.37238,7.49471,4.93446,-3.65582,8.04310,1.97395,1.97395,57.78150,12.77346,57.78149557,12.77346878,A,133527.70,"[-0.20000,-0.00000,-0.00000]","[-0.10000,-0.00000,-0.00000]",7.12971,0.00000,0.00000,0.00000,0.00000,0.00000
18:09:42.470436,5.01465,0.01277,2.78806,2.78806,"[5.00000,0.00000,0.00000]","[1.30000,0.00000,0.00000]",0.00000,-0.08185,-0.06463,0.00000,0.00000,-0.01948,0.04996,-0.10797,-0.07723,0.92141,5.00125,0.04640,2.78806,2.04508,1.99741,-3.65582,8.04310,4.93446,-3.65582,8.04310,1.97395,1.97395,57.78150,12.77346,57.78149590,12.77346847,A,133527.70,"[-0.20000,-0.00000,-0.00000]","[-0.10000,-0.00000,-0.00000]",7.15957,0.00000,0.00000,0.00000,0.00000,0.00000
18:09:42.540264,5.08449,0.03052,2.78806,2.78806,"[5.00000,0.00000,0.00000]","[1.30000,0.00000,0.00000]",-0.00422,-0.01187,-0.05378,0.36521,0.01059,0.00373,0.02873,-0.02495,-0.08052,1.08732,5.05506,0.06838,2.78806,2.02670,2.01980,-3.71257,8.16795,5.07199,-3.77439,8.30255,1.99944,1.99944,57.78150,12.77346,57.78150162,12.77346304,A,133527.80,"[-0.20000,-0.00000,-0.00000]","[-0.10000,-0.00000,-0.00000]",7.30473,-2.91507,6.69787,1.98129,-0.14459,-0.03850
18:09:42.558307,5.10255,0.00908,2.78806,2.78806,"[5.00000,0.00000,0.00000]","[1.30000,0.00000,0.00000]",-0.00561,-0.01108,-0.00888,0.14558,0.00995,0.01014,0.04324,-0.21075,-0.06399,1.17047,5.09573,0.00000,2.78806,2.02263,2.01618,-3.76041,8.26755,5.07199,-3.77439,8.30255,1.99944,1.99944,57.78150,12.77346,57.78150252,12.77346224,A,133527.80,"[-0.20000,-0.00000,-0.00000]","[-0.10000,-0.00000,-0.00000]",7.41483,-2.95900,6.79882,1.98129,-0.14871,-0.03489
18:09:42.565680,5.10993,0.00612,2.78806,2.78806,"[5.00000,0.00000,0.00000]","[1.30000,0.00000,0.00000]",-0.00556,-0.00961,-0.00827,0.14558,0.00995,0.03061,0.04415,-0.12230,0.02275,1.10556,5.10338,0.00244,2.78806,2.01985,2.01427,-3.76780,8.28331,5.07199,-3.77439,8.30255,1.99944,1.99944,57.78150,12.77346,57.78150266,12.77346211,A,133527.80,"[-0.20000,-0.00000,-0.00000]","[-0.10000,-0.00000,-0.00000]",7.44359,-2.97048,6.82520,1.98129,-0.14919,-0.03297
18:09:42.576009,5.12027,0.00624,2.78806,2.78806,"[5.00000,0.00000,0.00000]","[1.30000,0.00000,0.00000]",-0.01014,-0.00734,-0.00736,0.16338,0.00934,0.04649,0.03285,-0.09876,-0.29091,0.99125,5.11346,0.03663,2.78806,2.01727,2.01300,-3.77761,8.30424,5.07199,-3.77439,8.30255,1.99944,1.99944,57.78150,12.77346,57.78150285,12.77346195,A,133527.80,"[-0.20000,-0.00000,-0.00000]","[-0.10000,-0.00000,-0.00000]",7.47201,-2.98183,6.85126,1.98129,-0.14984,-0.03170
18:09:42.586882,5.13113,0.00648,2.78806,2.78806,"[5.00000,0.00000,0.00000]","[1.30000,0.00000,0.00000]",-0.01273,-0.00525,-0.04294,0.35678,0.00912,0.03290,0.03102,0.11047,-0.10291,0.77141,5.12423,0.03175,2.78806,2.01492,2.01187,-3.78731,8.32499,5.07199,-3.77439,8.30255,1.99944,1.99944,57.78150,12.77346,57.78150304,12.77346178,A,133527.80,"[-0.20000,-0.00000,-0.00000]","[-0.10000,-0.00000,-0.00000]",7.50152,-2.99360,6.87831,1.98129,-0.15045,-0.03057
18:09:42.597469,5.14146,0.00642,2.78806,2.78806,"[5.00000,0.00000,0.00000]","[1.30000,0.00000,0.00000]",-0.01521,-0.00355,-0.04997,0.40660,0.00891,-0.00330,0.02476,-0.03825,-0.08918,0.73383,5.13497,0.00244,2.78806,2.01281,2.01075,-3.79684,8.34542,5.07199,-3.77439,8.30255,1.99944,1.99944,57.78150,12.77346,57.78150322,12.77346162,A,133527.80,"[-0.20000,-0.00000,-0.00000]","[-0.10000,-0.00000,-0.00000]",7.53041,-3.00513,6.90480,1.98129,-0.15104,-0.02945
18:09:42.607635,5.15188,0.00645,2.87448,2.87448,"[5.00000,0.00000,0.00000]","[1.30000,0.00000,0.00000]",-0.01558,-0.00149,-0.05867,0.45164,0.00877,-0.01338,0.01956,-0.09717,0.01653,0.73908,5.14513,0.00000,2.80535,2.01087,2.01001,-3.80518,8.36337,5.07199,-3.77439,8.30255,1.99944,1.99944,57.78150,12.77346,57.78150338,12.77346148,A,133527.80,"[-0.20000,-0.00000,-0.00000]","[-0.10000,-0.00000,-0.00000]",7.55931,-3.01666,6.93130,1.98129,-0.15152,-0.02872
18:09:42.617985,5.16223,0.00640,2.87448,2.87448,"[5.00000,0.00000,0.00000]","[1.30000,0.00000,0.00000]",-0.01441,0.00166,-0.04279,0.36460,0.00877,-0.01276,0.02384,-0.20697,0.09418,0.79843,5.15545,0.00000,2.81917,2.00899,2.00995,-3.81304,8.38035,5.07199,-3.77439,8.30255,1.99944,1.99944,57.78150,12.77346,57.78150353,12.77346135,A,133527.80,"[-0.20000,-0.00000,-0.00000]","[-0.10000,-0.00000,-0.00000]",7.58910,-3.02855,6.95862,1.98129,-0.15195,-0.02866
18:09:42.627986,5.17223,0.00618,2.87448,2.87448,"[5.00000,0.00000,0.00000]","[1.30000,0.00000,0.00000]",-0.01377,0.00548,-0.00797,0.18685,0.00885,-0.00360,0.02552,-0.03691,0.05649,0.90719,5.16548,0.00000,2.83024,2.00711,2.01029,-3.82053,8.39651,5.07199,-3.77439,8.30255,1.99944,1.99944,57.78150,12.77346,57.78150368,12.77346122,A,133527.80,"[-0.20000,-0.00000,-0.00000]","[-0.10000,-0.00000,-0.00000]",7.61840,-3.04024,6.98548,1.98129,-0.15237,-0.02900
18:09:42.656417,5.20066,0.02420,2.87448,2.87448,"[5.00000,0.00000,0.00000]","[1.30000,0.00000,0.00000]",-0.01543,0.00853,-0.01163,0.21600,0.00885,-0.00940,0.02399,-0.13560,-0.09193,1.06280,5.17606,0.00733,2.83908,2.00531,2.01027,-3.82801,8.41263,5.19292,-3.89296,8.56201,1.99944,1.99944,57.78151,12.77346,57.78150382,12.77346110,A,133527.90,"[-0.20000,-0.00000,-0.00000]","[-0.10000,-0.00000,-0.00000]",7.64822,-3.05214,7.01282,1.98129,-0.15279,-0.02898
18:09:42.676589,5.22084,0.00845,2.87448,2.87448,"[5.00000,0.00000,0.00000]","[1.30000,0.00000,0.00000]",-0.01693,0.01484,-0.06310,0.48620,0.00934,-0.07171,0.01987,0.10138,0.07594,1.01852,5.21348,0.00000,2.84616,2.00379,2.01242,-3.87288,8.50862,5.19292,-3.89296,8.56201,1.99944,1.99944,57.78151,12.77346,57.78150469,12.77346034,A,133527.90,"[-0.20000,-0.00000,-0.00000]","[-0.10000,-0.00000,-0.00000]",7.75145,-3.09334,7.10747,1.98129,-0.15563,-0.03113
18:09:42.684139,5.22839,0.00594,2.87448,2.87448,"[5.00000,0.00000,0.00000]","[1.30000,0.00000,0.00000]",-0.01594,0.01685,-0.04172,0.48620,0.00934,-0.09432,0.03010,-0.18507,0.11669,1.08751,5.22181,0.00000,2.85183,2.00184,2.01164,-3.88045,8.52518,5.19292,-3.89296,8.56201,1.99944,1.99944,57.78151,12.77346,57.78150484,12.77346021,A,133527.90,"[-0.20000,-0.00000,-0.00000]","[-0.10000,-0.00000,-0.00000]",7.78032,-3.10486,7.13395,1.98129,-0.15596,-0.03035
18:09:42.694960,5.23920,0.00636,2.87448,2.87448,"[5.00000,0.00000,0.00000]","[1.30000,0.00000,0.00000]",-0.01704,0.02181,-0.01453,0.24443,0.00939,-0.05659,0.04629,-0.27450,-0.04886,1.16772,5.23245,0.00000,2.85636,1.99989,2.01257,-3.89105,8.54816,5.19292,-3.89296,8.56201,1.99944,1.99944,57.78151,12.77346,57.78150504,12.77346003,A,133527.90,"[-0.20000,-0.00000,-0.00000]","[-0.10000,-0.00000,-0.00000]",7.81011,-3.11675,7.16126,1.98129,-0.15651,-0.03128
18:09:42.705073,5.24933,0.00608,2.87448,2.87448,"[5.00000,0.00000,0.00000]","[1.30000,0.00000,0.00000]",-0.01858,0.02580,-0.01392,0.25198,0.00947,-0.01612,0.07057,-0.10547,-0.07533,1.08275,5.24282,0.00000,2.85998,1.99796,2.01296,-3.90088,8.56944,5.19292,-3.89296,8.56201,1.99944,1.99944,57.78151,12.77346,57.78150523,12.77345987,A,133527.90,"[-0.20000,-0.00000,-0.00000]","[-0.10000,-0.00000,-0.00000]",7.83990,-3.12864,7.18858,1.98129,-0.15703,-0.03167
18:09:42.715713,5.25996,0.00619,2.87448,2.87448,"[5.00000,0.00000,0.00000]","[1.30000,0.00000,0.00000]",-0.02006,0.02820,-0.01270,0.25506,0.00941,-0.00177,0.06401,-0.09815,-0.06240,0.97319,5.25317,0.00000,2.86288,1.99619,2.01259,-3.91045,8.59012,5.19292,-3.89296,8.56201,1.99944,1.99944,57.78151,12.77346,57.78150542,12.77345970,A,133527.90,"[-0.20000,-0.00000,-0.00000]","[-0.10000,-0.00000,-0.00000]",7.87008,-3.14068,7.21625,1.98129,-0.15755,-0.03130
18:09:42.726278,5.27053,0.00636,2.87448,2.87448,"[5.00000,0.00000,0.00000]","[1.30000,0.00000,0.00000]",-0.02207,0.03033,-0.03057,0.35701,0.00934,0.00785,0.05408,-0.01970,-0.07533,0.88480,5.26376,0.00000,2.86520,1.99454,2.01218,-3.91951,8.60973,5.19292,-3.89296,8.56201,1.99944,1.99944,57.78151,12.77346,57.78150560,12.77345955,A,133527.90,"[-0.20000,-0.00000,-0.00000]","[-0.10000,-0.00000,-0.00000]",7.89989,-3.15258,7.24358,1.98129,-0.15804,-0.03088
18:09:42.736619,5.28087,0.00630,2.87448,2.87448,"[5.00000,0.00000,0.00000]","[1.30000,0.00000,0.00000]",-0.02259,0.03316,-0.04462,0.43074,0.00936,-0.00971,0.04965,0.00744,0.02172,0.90201,5.27419,0.00000,2.86706,1.99295,2.01224,-3.92851,8.62919,5.19292,-3.89296,8.56201,1.99944,1.99944,57.78151,12.77346,57.78150577,12.77345940,A,133527.90,"[-0.20000,-0.00000,-0.00000]","[-0.10000,-0.00000,-0.00000]",7.92968,-3.16447,7.27090,1.98129,-0.15852,-0.03094
18:09:42.747213,5.29146,0.00650,2.87448,2.87448,"[5.00000,0.00000,0.00000]","[1.30000,0.00000,0.00000]",-0.02500,0.03644,-0.04004,0.42393,0.00943,-0.02193,0.04201,0.01745,-0.09583,0.91537,5.28455,0.00000,2.86854,1.99134,2.01253,-3.93650,8.64649,5.19292,-3.89296,8.56201,1.99944,1.99944,57.78151,12.77346,57.78150593,12.77345927,A,133527.90,"[-0.20000,-0.00000,-0.00000]","[-0.10000,-0.00000,-0.00000]",7.95948,-3.17636,7.29822,1.98129,-0.15894,-0.03124
18:09:42.785440,5.32968,0.03432,2.87448,2.87448,"[5.00000,0.00000,0.00000]","[1.30000,0.00000,0.00000]",-0.02558,0.04049,-0.04279,0.44241,0.00957,-0.02101,0.04828,-0.29884,0.01897,0.91164,5.29505,0.00000,2.86973,1.98967,2.01322,-3.94404,8.66283,5.32274,-4.13009,9.06239,2.01336,2.01336,57.78151,12.77346,57.78150607,12.77345914,A,133528.10,"[-0.20000,-0.00000,-0.00000]","[-0.10000,-0.00000,-0.00000]",7.98927,-3.18825,7.32554,1.98129,-0.15934,-0.03192
18:09:42.804621,5.34887,0.00872,2.87448,2.87448,"[5.00000,0.00000,0.00000]","[1.30000,0.00000,0.00000]",-0.02771,0.05945,-0.02614,0.39094,0.01232,-0.01200,0.10234,-0.05533,-0.02489,1.05103,5.34213,0.00000,2.87068,1.99192,2.02652,-4.00625,8.79449,5.32274,-4.13009,9.06239,2.01336,2.01336,57.78151,12.77346,57.78150726,12.77345809,A,133528.10,"[-0.20000,-0.00000,-0.00000]","[-0.10000,-0.00000,-0.00000]",8.11798,-3.23961,7.44355,1.98129,-0.16384,-0.04523
18:09:42.812179,5.35643,0.00596,2.87448,2.87448,"[5.00000,0.00000,0.00000]","[1.30000,0.00000,0.00000]",-0.02898,0.06282,-0.02248,0.39094,0.01232,-0.01490,0.10493,-0.01025,-0.03392,1.01028,5.34985,0.00000,2.87144,1.99038,2.02694,-4.01930,8.82188,5.32274,-4.13009,9.06239,2.01336,2.01336,57.78151,12.77346,57.78150750,12.77345787,A,133528.10,"[-0.20000,-0.00000,-0.00000]","[-0.10000,-0.00000,-0.00000]",8.14759,-3.25142,7.47070,1.98129,-0.16488,-0.04564
18:09:42.823029,5.36728,0.00642,2.87448,2.87448,"[5.00000,0.00000,0.00000]","[1.30000,0.00000,0.00000]",-0.03002,0.06664,-0.02996,0.42717,0.01265,-0.02804,0.11822,-0.07271,-0.00921,1.04725,5.36044,0.00000,2.87205,1.98915,2.02793,-4.03513,8.85487,5.32274,-4.13009,9.06239,2.01336,2.01336,57.78151,12.77346,57.78150780,12.77345760,A,133528.10,"[-0.20000,-0.00000,-0.00000]","[-0.10000,-0.00000,-0.00000]",8.17737,-3.26331,7.49802,1.98129,-0.16622,-0.04664
18:09:42.833859,5.37811,0.00685,2.87448,2.87448,"[5.00000,0.00000,0.00000]","[1.30000,0.00000,0.00000]",-0.03124,0.07054,-0.02721,0.42273,0.01286,-0.02468,0.11868,-0.11431,-0.01958,1.00009,5.37084,0.00000,2.87254,1.98780,2.02887,-4.04996,8.88574,5.32274,-4.13009,9.06239,2.01336,2.01336,57.78151,12.77346,57.78150808,12.77345735,A,133528.10,"[-0.20000,-0.00000,-0.00000]","[-0.10000,-0.00000,-0.00000]",8.20716,-3.27520,7.52533,1.98129,-0.16750,-0.04757
18:09:42.843954,5.38821,0.00641,2.87448,2.87448,"[5.00000,0.00000,0.00000]","[1.30000,0.00000,0.00000]",-0.03162,0.07558,-0.02431,0.41270,0.01317,-0.02223,0.12158,-0.03880,0.03770,0.91964,5.38120,0.00000,2.87292,1.98627,2.03028,-4.06391,8.91473,5.32274,-4.13009,9.06239,2.01336,2.01336,57.78151,12.77346,57.78150834,12.77345712,A,133528.10,"[-0.20000,-0.00000,-0.00000]","[-0.10000,-0.00000,-0.00000]",8.23735,-3.28725,7.55301,1.98129,-0.16872,-0.04898
18:09:42.854519,5.39877,0.00658,2.90252,2.90252,"[5.00000,0.00000,0.00000]","[1.30000,0.00000,0.00000]",-0.03375,0.07991,-0.00797,0.34629,0.01339,-0.01796,0.13257,-0.03178,-0.07442,0.90500,5.39178,0.00000,2.87884,1.98473,2.03126,-4.07757,8.94304,5.32274,-4.13009,9.06239,2.01336,2.01336,57.78151,12.77346,57.78150859,12.77345689,A,133528.10,"[-0.20000,-0.00000,-0.00000]","[-0.10000,-0.00000,-0.00000]",8.26714,-3.29914,7.58033,1.98129,-0.16995,-0.04997
18:09:42.864278,5.40853,0.00594,2.90252,2.90252,"[5.00000,0.00000,0.00000]","[1.30000,0.00000,0.00000]",-0.03245,0.08402,-0.01728,0.34629,0.01339,-0.01124,0.13884,-0.14860,0.14134,0.92317,5.40195,0.00000,2.88358,1.98308,2.03201,-4.09020,8.96918,5.32274,-4.13009,9.06239,2.01336,2.01336,57.78151,12.77346,57.78150883,12.77345667,A,133528.10,"[-0.20000,-0.00000,-0.00000]","[-0.10000,-0.00000,-0.00000]",8.29723,-3.31114,7.60791,1.98129,-0.17110,-0.05072
18:09:42.875446,5.41971,0.00672,2.90252,2.90252,"[5.00000,0.00000,0.00000]","[1.30000,0.00000,0.00000]",-0.03477,0.08704,0.00013,0.31400,0.01364,-0.00452,0.13975,-0.01189,-0.09504,0.95758,5.41256,0.00000,2.88737,1.98156,2.03226,-4.10268,8.99493,5.32274,-4.13009,9.06239,2.01336,2.01336,57.78151,12.77346,57.78150906,12.77345646,A,133528.10,"[-0.20000,-0.00000,-0.00000]","[-0.10000,-0.00000,-0.00000]",8.32731,-3.32315,7.63550,1.98129,-0.17226,-0.05097
18:09:42.902494,5.44675,0.02337,2.90252,2.90252,"[5.00000,0.00000,0.00000]","[1.30000,0.00000,0.00000]",-0.03630,0.09064,-0.00079,0.32938,0.01376,0.00556,0.14998,-0.11035,-0.04075,0.92885,5.42296,0.00000,2.89040,1.97997,2.03277,-4.11426,9.01885,5.43979,-4.22890,9.30331,1.95999,1.95999,57.78151,12.77345,57.78150928,12.77345627,A,133528.20,"[-0.20000,-0.00000,-0.00000]","[-0.10000,-0.00000,-0.00000]",8.35740,-3.33515,7.66309,1.98129,-0.17334,-0.05147
18:09:42.926434,5.47068,0.01046,2.90252,2.90252,"[5.00000,0.00000,0.00000]","[1.30000,0.00000,0.00000]",-0.03684,0.10264,-0.01072,0.38658,0.01439,-0.00299,0.18343,-0.10175,0.05148,1.11929,5.46382,0.00000,2.89282,1.97558,2.03541,-4.16788,9.12924,5.43979,-4.22890,9.30331,1.95999,1.95999,57.78151,12.77345,57.78151027,12.77345536,A,133528.20,"[-0.20000,-0.00000,-0.00000]","[-0.10000,-0.00000,-0.00000]",8.46427,-3.37780,7.76108,1.98129,-0.17845,-0.05411
18:09:42.950447,5.49469,0.01098,2.90252,2.90252,"[5.00000,0.00000,0.00000]","[1.30000,0.00000,0.00000]",-0.03666,0.11096,-0.01011,0.37942,0.01394,-0.01994,0.19656,-0.02037,0.09363,1.03657,5.48683,0.00000,2.89476,1.96820,2.03290,-4.19705,9.19006,5.43979,-4.22890,9.30331,1.95999,1.95999,57.78151,12.77345,57.78151081,12.77345487,A,133528.20,"[-0.20000,-0.00000,-0.00000]","[-0.10000,-0.00000,-0.00000]",8.53239,-3.40499,7.82354,1.98129,-0.18093,-0.05161
18:09:42.968938,5.51319,0.00771,2.90252,2.90252,"[5.00000,0.00000,0.00000]","[1.30000,0.00000,0.00000]",-0.03913,0.11764,0.00303,0.32544,0.01327,-0.03720,0.20481,-0.07479,-0.07985,0.89426,5.50666,0.00000,2.89632,1.96077,2.02938,-4.21971,9.23803,5.43979,-4.22890,9.30331,1.95999,1.95999,57.78151,12.77345,57.78151125,12.77345449,A,133528.20,"[-0.20000,-0.00000,-0.00000]","[-0.10000,-0.00000,-0.00000]",8.59551,-3.43018,7.88141,1.98129,-0.18257,-0.04809
18:09:42.977812,5.52206,0.00619,2.90252,2.90252,"[5.00000,0.00000,0.00000]","[1.30000,0.00000,0.00000]",-0.04199,0.12078,0.00226,0.32544,0.01327,-0.03048,0.20221,0.10083,-0.09565,0.86400,5.51545,0.00000,2.89756,1.95185,2.02231,-4.22870,9.25856,5.43979,-4.22890,9.30331,1.95999,1.95999,57.78151,12.77345,57.78151143,12.77345434,A,133528.20,"[-0.20000,-0.00000,-0.00000]","[-0.10000,-0.00000,-0.00000]",8.62559,-3.44218,7.90899,1.98129,-0.18261,-0.04101
18:09:42.988018,5.53227,0.00618,2.90252,2.90252,"[5.00000,0.00000,0.00000]","[1.30000,0.00000,0.00000]",-0.04296,0.12398,-0.01011,0.39955,0.01074,-0.02804,0.21382,-0.07613,0.02001,0.89865,5.52550,0.00000,2.89855,1.94437,2.01670,-4.23866,9.28131,5.43979,-4.22890,9.30331,1.95999,1.95999,57.78151,12.77345,57.78151164,12.77345417,A,133528.20,"[-0.20000,-0.00000,-0.00000]","[-0.10000,-0.00000,-0.00000]",8.65518,-3.45399,7.93613,1.98129,-0.18266,-0.03541
18:09:43.015697,5.55994,0.02345,2.90252,2.90252,"[5.00000,0.00000,0.00000]","[1.30000,0.00000,0.00000]",-0.04374,0.12735,-0.00049,0.35060,0.00982,-0.02132,0.22375,-0.03745,0.02422,0.93586,5.53608,0.00000,2.89935,1.93784,2.01215,-4.24830,9.30361,5.55315,-4.34747,9.54423,2.02814,2.02814,57.78151,12.77345,57.78151184,12.77345401,A,133528.30,"[-0.20000,-0.00000,-0.00000]","[-0.10000,-0.00000,-0.00000]",8.68526,-3.46599,7.96371,1.98129,-0.18261,-0.03086
18:09:43.039789,5.58403,0.01040,2.90252,2.90252,"[5.00000,0.00000,0.00000]","[1.30000,0.00000,0.00000]",-0.04377,0.14257,0.02761,0.23772,0.01404,-0.03750,0.25948,-0.04465,-0.00537,1.10916,5.57720,0.00000,2.89998,1.94966,2.03294,-4.29958,9.41369,5.55315,-4.34747,9.54423,2.02814,2.02814,57.78151,12.77345,57.78151283,12.77345314,A,133528.30,"[-0.20000,-0.00000,-0.00000]","[-0.10000,-0.00000,-0.00000]",8.79303,-3.50900,8.06252,1.98129,-0.18570,-0.05165
18:09:43.060964,5.60522,0.00929,2.90252,2.90252,"[5.00000,0.00000,0.00000]","[1.30000,0.00000,0.00000]",-0.04473,0.14826,0.01708,0.30742,0.01571,-0.01994,0.26819,-0.04087,-0.00366,1.01370,5.59868,0.00000,2.90049,1.95439,2.04102,-4.32581,9.46805,5.55315,-4.34747,9.54423,2.02814,2.02814,57.78151,12.77345,57.78151331,12.77345270,A,133528.30,"[-0.20000,-0.00000,-0.00000]","[-0.10000,-0.00000,-0.00000]",8.85767,-3.53480,8.12180,1.98129,-0.18805,-0.05972
18:09:43.069819,5.61407,0.00626,2.90252,2.90252,"[5.00000,0.00000,0.00000]","[1.30000,0.00000,0.00000]",-0.04574,0.14979,0.01631,0.30742,0.01571,-0.02513,0.26529,0.15982,0.01409,0.94251,5.60745,0.00000,2.90090,1.95454,2.04208,-4.33559,9.48898,5.55315,-4.34747,9.54423,2.02814,2.02814,57.78151,12.77345,57.78151350,12.77345253,A,133528.30,"[-0.20000,-0.00000,-0.00000]","[-0.10000,-0.00000,-0.00000]",8.89209,-3.54853,8.15336,1.98129,-0.18867,-0.06078
18:09:43.080000,5.62425,0.00622,2.90252,2.90252,"[5.00000,0.00000,0.00000]","[1.30000,0.00000,0.00000]",-0.04504,0.15290,0.01860,0.30616,0.01637,-0.05171,0.26971,-0.01751,0.12066,0.94788,5.61744,0.00000,2.90122,1.95483,2.04420,-4.34649,9.51198,5.55315,-4.34747,9.54423,2.02814,2.02814,57.78151,12.77345,57.78151371,12.77345235,A,133528.30,"[-0.20000,-0.00000,-0.00000]","[-0.10000,-0.00000,-0.00000]",8.92168,-3.56034,8.18049,1.98129,-0.18949,-0.06291
