Description : v2 p7 ; walk_time = 2.0 ; speed_up_time = 3.0 ; balancing_time = 0.0
RealTime,Time,CalculationTime,MeasuredVelocity,FilteredVelocity,BalancingGainsInner,BalancingGainsOuter,Roll,SteeringAngle,RollRate,ControlInput,BalancingSetpoint,gy,gz,ax,ay,az,imu_read_timing,SteerMotorCurrent,v_estimated,yaw_estimated,heading_estimated,x_estimated,y_estimated,GPS_timestamp,x_GPS,y_GPS,theta_GPS,theta_GPS_noUnwrap,latitude,longitude,lat_estimated,lon_estimated,status,NMEA timestamp
18:49:03.149450,0.04807,0.04803,0.00000,0.00000,[7.00000 0.00000 0.00000],[1.30000 0.00000 0.00000],-0.00137,0.06210,-0.01615,0.00000,0.00000,0.00078,-0.00172,0.05972,-0.05533,0.98619,0.00001,0.01465,0.00000,-0.03614,0.00000,0.00000,0.00000,0.01622,0.00000,0.00000,0.00000,0.00000,57.68935,11.98010,57.68934750,11.98009750,A,145922.70
18:49:03.165341,0.06398,0.00763,0.00000,0.00000,[7.00000 0.00000 0.00000],[1.30000 0.00000 0.00000],-0.00286,0.06297,-0.01172,0.00000,0.00000,0.00078,0.01233,0.04294,-0.03318,0.99723,0.05612,0.01221,0.00000,-0.03621,0.00043,0.00000,0.00000,0.01622,0.00000,0.00000,0.00000,0.00000,57.68935,11.98010,57.68934750,11.98009750,A,145922.70
18:49:03.175430,0.07407,0.00730,0.00000,0.00000,[7.00000 0.00000 0.00000],[1.30000 0.00000 0.00000],-0.00399,0.06331,-0.01264,0.00000,0.00000,0.00414,0.01217,0.04215,-0.04465,0.98704,0.06631,0.00977,0.00000,-0.03631,0.00054,0.00000,0.00000,0.01622,0.00000,0.00000,0.00000,0.00000,57.68935,11.98010,57.68934750,11.98009750,A,145922.70
18:49:03.186766,0.08540,0.00807,0.00000,0.00000,[7.00000 0.00000 0.00000],[1.30000 0.00000 0.00000],-0.00537,0.06365,-0.01936,0.00000,0.00000,0.00429,0.00790,0.05575,-0.05624,0.97057,0.07670,0.02198,0.00000,-0.03642,0.00063,0.00000,0.00000,0.01622,0.00000,0.00000,0.00000,0.00000,57.68935,11.98010,57.68934750,11.98009750,A,145922.70
18:49:03.196169,0.09481,0.00708,0.00000,0.00000,[7.00000 0.00000 0.00000],[1.30000 0.00000 0.00000],-0.00670,0.06394,-0.02318,0.00000,0.00000,0.00856,0.00210,0.06704,-0.05142,0.96679,0.08733,0.01465,0.00000,-0.03654,0.00067,0.00000,0.00000,0.01622,0.00000,0.00000,0.00000,0.00000,57.68935,11.98010,57.68934750,11.98009750,A,145922.70
18:49:03.206442,0.10482,0.00668,0.00000,0.00000,[7.00000 0.00000 0.00000],[1.30000 0.00000 0.00000],-0.00800,0.06413,-0.02791,0.00000,0.00000,0.00337,-0.00753,0.06936,-0.04886,0.97100,0.09749,0.01465,0.00000,-0.03666,0.00067,0.00000,0.00000,0.01622,0.00000,0.00000,0.00000,0.00000,57.68935,11.98010,57.68934750,11.98009750,A,145922.70
18:49:03.217527,0.11617,0.00762,0.00000,0.00000,[7.00000 0.00000 0.00000],[1.30000 0.00000 0.00000],-0.00909,0.06436,-0.03005,0.00000,0.00000,0.00780,-0.00768,0.07107,-0.03465,0.98552,0.10828,0.00977,0.00000,-0.03678,0.00068,0.00000,0.00000,0.01622,0.00000,0.00000,0.00000,0.00000,57.68935,11.98010,57.68934750,11.98009750,A,145922.70
18:49:03.240512,0.13916,0.02019,0.00000,0.00000,[7.00000 0.00000 0.00000],[1.30000 0.00000 0.00000],-0.01006,0.06461,-0.03036,0.00000,0.00000,0.00627,-0.00921,0.07381,-0.02794,0.99802,0.11889,0.01709,0.00000,-0.03690,0.00071,0.00050,0.00000,0.13501,0.00991,0.00000,0.00000,0.00000,57.68935,11.98010,57.68934750,11.98009751,A,145922.80
18:49:03.256070,0.15471,0.00707,0.00000,0.00000,[7.00000 0.00000 0.00000],[1.30000 0.00000 0.00000],-0.01188,0.06518,-0.02806,0.00000,0.00000,0.00948,-0.00249,0.09144,-0.05459,1.00497,0.14733,0.01221,0.00000,-0.03706,0.00088,0.00097,0.00000,0.13501,0.00991,0.00000,0.00000,0.00000,57.68935,11.98010,57.68934750,11.98009752,A,145922.80
18:49:03.267068,0.16571,0.00766,0.00000,0.00000,[7.00000 0.00000 0.00000],[1.30000 0.00000 0.00000],-0.01329,0.06518,-0.02944,0.00000,0.00000,0.00704,0.00103,0.09083,-0.06216,1.00247,0.15740,0.00977,0.00000,-0.03719,0.00075,0.00141,0.00000,0.13501,0.00991,0.00000,0.00000,0.00000,57.68935,11.98010,57.68934750,11.98009752,A,145922.80
18:49:03.277026,0.17567,0.00721,0.00000,0.00000,[7.00000 0.00000 0.00000],[1.30000 0.00000 0.00000],-0.01464,0.06518,-0.03433,0.00000,0.00000,0.00246,0.00072,0.09248,-0.05423,0.99778,0.16829,0.02198,0.00000,-0.03730,0.00064,0.00184,0.00000,0.13501,0.00991,0.00000,0.00000,0.00000,57.68935,11.98010,57.68934750,11.98009753,A,145922.80
18:49:03.287255,0.18589,0.00702,0.00000,0.00000,[7.00000 0.00000 0.00000],[1.30000 0.00000 0.00000],-0.01573,0.06518,-0.02868,0.00000,0.00000,0.00184,0.00347,0.08979,-0.04307,0.98875,0.17842,0.00733,0.00000,-0.03740,0.00054,0.00224,0.00000,0.13501,0.00991,0.00000,0.00000,0.00000,57.68935,11.98010,57.68934750,11.98009754,A,145922.80
18:49:03.298390,0.19676,0.00736,0.00000,0.00000,[7.00000 0.00000 0.00000],[1.30000 0.00000 0.00000],-0.01666,0.06518,-0.02868,0.00000,0.00000,-0.00029,0.00469,0.08577,-0.03202,0.98405,0.18913,0.01465,0.00000,-0.03748,0.00046,0.00262,0.00000,0.13501,0.00991,0.00000,0.00000,0.00000,57.68935,11.98010,57.68934750,11.98009754,A,145922.80
18:49:03.308264,0.20690,0.00702,0.00000,0.00000,[7.00000 0.00000 0.00000],[1.30000 0.00000 0.00000],-0.01763,0.06518,-0.02119,0.00000,0.00000,0.00215,-0.00020,0.08662,-0.04166,0.98155,0.19945,0.02442,0.00000,-0.03755,0.00039,0.00299,0.00000,0.13501,0.00991,0.00000,0.00000,0.00000,57.68935,11.98010,57.68934750,11.98009755,A,145922.80
18:49:03.319707,0.21832,0.00802,0.00000,0.00000,[7.00000 0.00000 0.00000],[1.30000 0.00000 0.00000],-0.01865,0.06518,-0.01844,0.00000,0.00000,0.00291,-0.00065,0.08857,-0.04795,0.98082,0.20965,0.00977,0.00000,-0.03760,0.00033,0.00333,0.00000,0.13501,0.00991,0.00000,0.00000,0.00000,57.68935,11.98010,57.68934750,11.98009756,A,145922.80
18:49:03.328994,0.22764,0.00694,0.00000,0.00000,[7.00000 0.00000 0.00000],[1.30000 0.00000 0.00000],-0.01977,0.06518,-0.02119,0.00000,0.00000,0.00032,0.00286,0.09138,-0.05331,0.98070,0.22026,0.00977,0.00000,-0.03765,0.00028,0.00366,0.00000,0.13501,0.00991,0.00000,0.00000,0.00000,57.68935,11.98010,57.68934750,11.98009756,A,145922.80
18:49:03.352613,0.25106,0.01995,0.00000,0.00000,[7.00000 0.00000 0.00000],[1.30000 0.00000 0.00000],-0.02084,0.06518,-0.01753,0.00000,0.00000,0.00078,0.00271,0.09736,-0.05313,0.98131,0.23066,0.01221,0.00000,-0.03770,0.00024,0.00397,0.00000,0.24723,0.00991,0.00000,0.00000,0.00000,57.68935,11.98010,57.68934750,11.98009757,A,145922.90
18:49:03.367863,0.26651,0.00705,0.00000,0.00000,[7.00000 0.00000 0.00000],[1.30000 0.00000 0.00000],-0.02211,0.06566,-0.01860,0.00000,0.00000,-0.00090,0.00133,0.09638,-0.04612,0.99985,0.25914,0.00733,0.00000,-0.03778,0.00044,0.00427,0.00000,0.24723,0.00991,0.00000,0.00000,0.00000,57.68935,11.98010,57.68934750,11.98009757,A,145922.90
18:49:03.384052,0.28269,0.01299,0.00000,0.00000,[7.00000 0.00000 0.00000],[1.30000 0.00000 0.00000],-0.02305,0.06626,-0.01279,0.00000,0.00000,0.00459,0.00668,0.09986,-0.05045,1.00345,0.27113,0.01221,0.00000,-0.03789,0.00067,0.00455,0.00000,0.24723,0.00991,0.00000,0.00000,0.00000,57.68935,11.98010,57.68934750,11.98009758,A,145922.90
18:49:03.399760,0.29840,0.00713,0.00000,0.00000,[7.00000 0.00000 0.00000],[1.30000 0.00000 0.00000],-0.02390,0.06764,-0.01096,0.00000,0.00000,0.00582,0.00515,0.10358,-0.04081,0.99839,0.29100,0.01465,0.00000,-0.03812,0.00126,0.00482,0.00000,0.24723,0.00991,0.00000,0.00000,0.00000,57.68935,11.98010,57.68934750,11.98009758,A,145922.90
18:49:03.409640,0.30828,0.00676,0.00000,0.00000,[7.00000 0.00000 0.00000],[1.30000 0.00000 0.00000],-0.02471,0.06846,-0.00913,0.00000,0.00000,0.00108,0.00362,0.10352,-0.04709,0.99314,0.30091,0.00977,0.00000,-0.03838,0.00148,0.00507,0.00000,0.24723,0.00991,0.00000,0.00000,0.00000,57.68935,11.98010,57.68934750,11.98009759,A,145922.90
18:49:03.421568,0.32020,0.00827,0.00000,0.00000,[7.00000 0.00000 0.00000],[1.30000 0.00000 0.00000],-0.02562,0.06928,-0.00623,0.00000,0.00000,0.00154,0.00118,0.10968,-0.05569,0.98716,0.31150,0.00733,0.00000,-0.03867,0.00166,0.00532,0.00000,0.24723,0.00991,0.00000,0.00000,0.00000,57.68935,11.98010,57.68934750,11.98009759,A,145922.90
18:49:03.431085,0.32973,0.00710,0.00000,0.00000,[7.00000 0.00000 0.00000],[1.30000 0.00000 0.00000],-0.02655,0.07005,-0.00577,0.00000,0.00000,-0.00182,-0.00035,0.09662,-0.05826,0.98240,0.32229,0.01465,0.00000,-0.03899,0.00179,0.00555,0.00000,0.24723,0.00991,0.00000,0.00000,0.00000,57.68935,11.98010,57.68934750,11.98009759,A,145922.90
18:49:03.442523,0.34114,0.00794,0.00000,0.00000,[7.00000 0.00000 0.00000],[1.30000 0.00000 0.00000],-0.02728,0.07076,-0.00409,0.00000,0.00000,-0.00335,0.00042,0.09553,-0.04691,0.98405,0.33258,0.00977,0.00000,-0.03932,0.00187,0.00576,0.00000,0.24723,0.00991,0.00000,0.00000,0.00000,57.68935,11.98010,57.68934750,11.98009760,A,145922.90
18:49:03.480774,0.37941,0.03580,0.00000,0.00000,[7.00000 0.00000 0.00000],[1.30000 0.00000 0.00000],-0.02798,0.07146,-0.00241,0.00000,0.00000,-0.00258,0.00087,0.08790,-0.04709,0.98539,0.34319,0.00977,0.00000,-0.17391,-0.13230,0.00746,-0.00185,0.37444,0.03962,-0.03706,-0.89498,-0.89498,57.68935,11.98010,57.68934748,11.98009763,A,145923.10
18:49:03.496472,0.39511,0.00762,0.00000,0.00000,[7.00000 0.00000 0.00000],[1.30000 0.00000 0.00000],-0.02861,0.07486,0.00049,0.00000,0.00000,-0.00014,0.00744,0.10565,-0.04618,0.98857,0.38720,0.01709,0.00000,-0.28860,-0.24502,0.00907,-0.00361,0.37444,0.03962,-0.03706,-0.89498,-0.89498,57.68935,11.98010,57.68934747,11.98009765,A,145923.10
18:49:03.505858,0.40450,0.00676,0.00000,0.00000,[7.00000 0.00000 0.00000],[1.30000 0.00000 0.00000],-0.02923,0.07562,0.00126,0.00000,0.00000,-0.00121,0.00927,0.10596,-0.04569,0.98881,0.39713,0.02686,0.00000,-0.38617,-0.34214,0.01059,-0.00529,0.37444,0.03962,-0.03706,-0.89498,-0.89498,57.68935,11.98010,57.68934745,11.98009768,A,145923.10
18:49:03.516509,0.41515,0.00700,0.00000,0.00000,[7.00000 0.00000 0.00000],[1.30000 0.00000 0.00000],-0.02994,0.07628,0.00019,0.00000,0.00000,-0.00151,0.00912,0.10516,-0.05173,0.98606,0.40772,0.00733,0.00000,-0.46915,-0.42474,0.01204,-0.00688,0.37444,0.03962,-0.03706,-0.89498,-0.89498,57.68935,11.98010,57.68934744,11.98009770,A,145923.10
18:49:03.526995,0.42563,0.00708,0.00000,0.00000,[7.00000 0.00000 0.00000],[1.30000 0.00000 0.00000],-0.03055,0.07670,0.00416,0.00000,0.00000,0.00200,0.00530,0.11200,-0.04843,0.99076,0.41812,0.01221,0.00000,-0.53972,-0.49506,0.01342,-0.00838,0.37444,0.03962,-0.03706,-0.89498,-0.89498,57.68935,11.98010,57.68934742,11.98009773,A,145923.10
18:49:03.537311,0.43595,0.00681,0.00000,0.00000,[7.00000 0.00000 0.00000],[1.30000 0.00000 0.00000],-0.03126,0.07693,-0.00271,0.00000,0.00000,-0.00640,0.00316,0.10547,-0.05112,0.99650,0.42851,0.02442,0.00000,-0.59973,-0.55494,0.01473,-0.00982,0.37444,0.03962,-0.03706,-0.89498,-0.89498,57.68935,11.98010,57.68934741,11.98009775,A,145923.10
18:49:03.548621,0.44726,0.00742,0.00000,0.00000,[7.00000 0.00000 0.00000],[1.30000 0.00000 0.00000],-0.03185,0.07695,0.00263,0.00000,0.00000,-0.00503,0.00194,0.09681,-0.04795,1.00150,0.43948,0.01221,0.00000,-0.65074,-0.60593,0.01598,-0.01118,0.37444,0.03962,-0.03706,-0.89498,-0.89498,57.68935,11.98010,57.68934740,11.98009777,A,145923.10
18:49:03.558502,0.45713,0.00697,0.00000,0.00000,[7.00000 0.00000 0.00000],[1.30000 0.00000 0.00000],-0.03248,0.07695,0.00019,0.00000,0.00000,0.00047,0.00118,0.08949,-0.04947,0.99765,0.44953,0.00977,0.00000,-0.69410,-0.64929,0.01716,-0.01248,0.37444,0.03962,-0.03706,-0.89498,-0.89498,57.68935,11.98010,57.68934739,11.98009779,A,145923.10
18:49:03.571008,0.46965,0.00908,0.00000,0.00000,[7.00000 0.00000 0.00000],[1.30000 0.00000 0.00000],-0.03299,0.07695,-0.00226,0.00000,0.00000,0.00108,0.00087,0.08699,-0.04020,0.99070,0.46110,0.01709,0.00000,-0.73095,-0.68614,0.01828,-0.01370,0.37444,0.03962,-0.03706,-0.89498,-0.89498,57.68935,11.98010,57.68934738,11.98009781,A,145923.10
18:49:03.595297,0.49393,0.02327,0.00000,0.00000,[7.00000 0.00000 0.00000],[1.30000 0.00000 0.00000],-0.03350,0.07695,-0.00088,0.00000,0.00000,0.00078,0.00103,0.09424,-0.04160,0.99552,0.47095,0.00733,0.00000,-0.74084,-0.69603,0.02034,-0.01580,0.48963,0.05943,-0.05560,-0.75205,-0.75205,57.68935,11.98010,57.68934736,11.98009784,A,145923.20
18:49:03.611468,0.51012,0.00756,0.00000,0.00000,[7.00000 0.00000 0.00000],[1.30000 0.00000 0.00000],-0.03422,0.07695,-0.00638,0.00000,0.00000,0.00597,-0.00279,0.10834,-0.04221,0.97332,0.50226,0.01221,0.00000,-0.74924,-0.70443,0.02230,-0.01779,0.48963,0.05943,-0.05560,-0.75205,-0.75205,57.68935,11.98010,57.68934734,11.98009788,A,145923.20
18:49:03.621371,0.52001,0.00687,0.90069,0.90069,[7.00000 0.00000 0.00000],[1.30000 0.00000 0.00000],-0.03497,0.07695,-0.00882,0.00000,0.00000,0.00001,0.00011,0.11376,-0.04691,0.96697,0.51251,0.00733,0.18014,-0.75638,-0.71158,0.02415,-0.01968,0.48963,0.05943,-0.05560,-0.75205,-0.75205,57.68935,11.98010,57.68934732,11.98009791,A,145923.20
18:49:03.632079,0.53072,0.00716,0.90069,0.90069,[7.00000 0.00000 0.00000],[1.30000 0.00000 0.00000],-0.03575,0.07695,-0.01020,0.00000,0.00000,-0.00106,0.00133,0.10047,-0.04929,0.97978,0.52325,0.01709,0.32425,-0.76237,-0.71756,0.02702,-0.02243,0.48963,0.05943,-0.05560,-0.75205,-0.75205,57.68935,11.98010,57.68934730,11.98009795,A,145923.20
18:49:03.644960,0.54360,0.00980,0.90069,0.90069,[7.00000 0.00000 0.00000],[1.30000 0.00000 0.00000],-0.03653,0.07695,-0.01279,0.00000,0.00000,-0.00472,-0.00142,0.08137,-0.04868,0.99174,0.53323,0.02686,0.43954,-0.76737,-0.72256,0.03083,-0.02600,0.48963,0.05943,-0.05560,-0.75205,-0.75205,57.68935,11.98010,57.68934727,11.98009802,A,145923.20
18:49:03.653200,0.55184,0.00722,0.90069,0.90069,[7.00000 0.00000 0.00000],[1.30000 0.00000 0.00000],-0.03729,0.07695,-0.01371,0.00000,0.00000,0.00200,-0.00157,0.08863,-0.04782,0.99546,0.54421,0.01221,0.53177,-0.77163,-0.72683,0.03421,-0.02919,0.48963,0.05943,-0.05560,-0.75205,-0.75205,57.68935,11.98010,57.68934724,11.98009808,A,145923.20
18:49:03.663357,0.56200,0.00697,0.90069,0.90069,[7.00000 0.00000 0.00000],[1.30000 0.00000 0.00000],-0.03799,0.07695,-0.00974,0.00000,0.00000,-0.00045,-0.00065,0.10919,-0.04697,0.99436,0.55452,0.01709,0.60555,-0.77518,-0.73037,0.03848,-0.03319,0.48963,0.05943,-0.05560,-0.75205,-0.75205,57.68935,11.98010,57.68934720,11.98009815,A,145923.20
18:49:03.673752,0.57238,0.00703,0.90069,0.90069,[7.00000 0.00000 0.00000],[1.30000 0.00000 0.00000],-0.03870,0.07695,-0.01417,0.00000,0.00000,0.00200,0.00286,0.12206,-0.04599,0.99155,0.56472,0.02930,0.66458,-0.77814,-0.73334,0.04305,-0.03747,0.48963,0.05943,-0.05560,-0.75205,-0.75205,57.68935,11.98010,57.68934716,11.98009822,A,145923.20
18:49:03.684147,0.58279,0.00712,0.90069,0.90069,[7.00000 0.00000 0.00000],[1.30000 0.00000 0.00000],-0.03931,0.07695,-0.01310,0.00000,0.00000,-0.00701,0.00103,0.10254,-0.04008,0.99912,0.57531,0.01221,0.71180,-0.78063,-0.73582,0.04786,-0.04197,0.48963,0.05943,-0.05560,-0.75205,-0.75205,57.68935,11.98010,57.68934712,11.98009831,A,145923.20
18:49:03.707540,0.60618,0.02010,0.90069,0.90069,[7.00000 0.00000 0.00000],[1.30000 0.00000 0.00000],-0.03981,0.07695,-0.00974,0.00000,0.00000,-0.00197,0.00484,0.07485,-0.03666,1.01205,0.58554,0.01954,0.74958,-0.78219,-0.73738,0.06026,-0.05339,0.60232,0.07925,-0.07413,-0.75205,-0.75205,57.68935,11.98010,57.68934702,11.98009851,A,145923.30
18:49:03.724259,0.62290,0.00707,0.90069,0.90069,[7.00000 0.00000 0.00000],[1.30000 0.00000 0.00000],-0.04094,0.07695,-0.01035,0.00000,0.00000,0.00414,0.00836,0.11627,-0.06393,0.98039,0.61556,0.02198,0.77980,-0.78377,-0.73896,0.06890,-0.06141,0.60232,0.07925,-0.07413,-0.75205,-0.75205,57.68935,11.98010,57.68934695,11.98009866,A,145923.30
18:49:03.735386,0.63399,0.00776,0.90069,0.90069,[7.00000 0.00000 0.00000],[1.30000 0.00000 0.00000],-0.04182,0.07695,-0.01249,0.00000,0.00000,-0.00426,0.00561,0.13182,-0.05948,0.96581,0.62558,0.01954,0.80398,-0.78537,-0.74056,0.07391,-0.06614,0.60232,0.07925,-0.07413,-0.75205,-0.75205,57.68935,11.98010,57.68934691,11.98009874,A,145923.30
18:49:03.748133,0.64677,0.00950,0.90069,0.90069,[7.00000 0.00000 0.00000],[1.30000 0.00000 0.00000],-0.04250,0.07695,-0.00791,0.00000,0.00000,-0.00930,0.00255,0.09187,-0.05002,0.97661,0.63712,0.01465,0.82332,-0.78660,-0.74179,0.08021,-0.07205,0.60232,0.07925,-0.07413,-0.75205,-0.75205,57.68935,11.98010,57.68934685,11.98009885,A,145923.30
18:49:03.756436,0.65508,0.00730,0.90069,0.90069,[7.00000 0.00000 0.00000],[1.30000 0.00000 0.00000],-0.04310,0.07695,-0.01203,0.00000,0.00000,-0.00365,0.00439,0.05429,-0.04416,0.99479,0.64767,0.00977,0.83879,-0.78785,-0.74304,0.08373,-0.07543,0.60232,0.07925,-0.07413,-0.75205,-0.75205,57.68935,11.98010,57.68934682,11.98009891,A,145923.30
18:49:03.766493,0.66512,0.00693,0.90069,0.90069,[7.00000 0.00000 0.00000],[1.30000 0.00000 0.00000],-0.04356,0.07695,-0.00989,0.00000,0.00000,-0.00304,0.00698,0.06039,-0.03776,1.00156,0.65753,0.01709,0.85117,-0.78882,-0.74401,0.08816,-0.07964,0.60232,0.07925,-0.07413,-0.75205,-0.75205,57.68935,11.98010,57.68934678,11.98009898,A,145923.30
18:49:03.778861,0.67750,0.00889,0.90069,0.90069,[7.00000 0.00000 0.00000],[1.30000 0.00000 0.00000],-0.04414,0.07695,-0.00699,0.00000,0.00000,0.00734,0.00652,0.08021,-0.04703,0.99375,0.66817,0.00977,0.86108,-0.78959,-0.74478,0.09310,-0.08432,0.60232,0.07925,-0.07413,-0.75205,-0.75205,57.68935,11.98010,57.68934674,11.98009907,A,145923.30
18:49:03.787406,0.68605,0.00697,0.90069,0.90069,[7.00000 0.00000 0.00000],[1.30000 0.00000 0.00000],-0.04469,0.07695,-0.00439,0.00000,0.00000,0.00933,0.00500,0.12511,-0.04673,0.97313,0.67856,0.01221,0.86900,-0.79035,-0.74555,0.09639,-0.08748,0.60232,0.07925,-0.07413,-0.75205,-0.75205,57.68935,11.98010,57.68934671,11.98009912,A,145923.30
18:49:03.797456,0.69610,0.00674,0.90069,0.90069,[7.00000 0.00000 0.00000],[1.30000 0.00000 0.00000],-0.04521,0.07695,-0.00439,0.00000,0.00000,-0.00350,0.00622,0.11834,-0.04551,0.97960,0.68873,0.00733,0.87534,-0.79093,-0.74612,0.10049,-0.09139,0.60232,0.07925,-0.07413,-0.75205,-0.75205,57.68935,11.98010,57.68934668,11.98009919,A,145923.30
18:49:03.821995,0.72064,0.02087,0.90069,0.90069,[7.00000 0.00000 0.00000],[1.30000 0.00000 0.00000],-0.04573,0.07695,-0.00180,0.00000,0.00000,-0.01007,0.00316,0.08650,-0.04947,1.00363,0.69935,0.00977,0.88041,-0.86214,-0.81733,0.11444,-0.10627,0.71685,0.09906,-0.12973,-1.22848,-1.22848,57.68935,11.98010,57.68934654,11.98009943,A,145923.40
18:49:03.839228,0.73786,0.00922,0.90069,0.90069,[7.00000 0.00000 0.00000],[1.30000 0.00000 0.00000],-0.04654,0.07695,-0.00348,0.00000,0.00000,0.00291,-0.00050,0.09510,-0.06246,0.98954,0.72829,0.00977,0.88446,-0.92311,-0.87830,0.12171,-0.11600,0.71685,0.09906,-0.12973,-1.22848,-1.22848,57.68935,11.98010,57.68934646,11.98009955,A,145923.40
18:49:03.851491,0.75012,0.01050,0.90069,0.90069,[7.00000 0.00000 0.00000],[1.30000 0.00000 0.00000],-0.04718,0.07695,-0.00378,0.00000,0.00000,-0.00274,0.00148,0.12615,-0.05478,0.97630,0.74080,0.01465,0.88771,-0.97518,-0.93037,0.12541,-0.12253,0.71685,0.09906,-0.12973,-1.22848,-1.22848,57.68935,11.98010,57.68934640,11.98009961,A,145923.40
18:49:03.866523,0.76515,0.00696,0.90069,0.90069,[7.00000 0.00000 0.00000],[1.30000 0.00000 0.00000],-0.04750,0.07695,-0.00378,0.00000,0.00000,-0.00518,0.00210,0.06448,-0.03428,0.98625,0.75765,0.01221,0.89030,-1.01924,-0.97443,0.13067,-0.13171,0.71685,0.09906,-0.12973,-1.22848,-1.22848,57.68935,11.98010,57.68934632,11.98009970,A,145923.40
18:49:03.877118,0.77576,0.00715,0.90069,0.90069,[7.00000 0.00000 0.00000],[1.30000 0.00000 0.00000],-0.04776,0.07695,0.00278,0.00000,0.00000,-0.00243,-0.00249,0.04904,-0.03666,0.99735,0.76817,0.00488,0.89238,-1.05689,-1.01208,0.13335,-0.13789,0.71685,0.09906,-0.12973,-1.22848,-1.22848,57.68935,11.98010,57.68934626,11.98009974,A,145923.40
18:49:03.888333,0.78697,0.00805,0.90069,0.90069,[7.00000 0.00000 0.00000],[1.30000 0.00000 0.00000],-0.04829,0.07695,0.00523,0.00000,0.00000,0.00184,-0.00233,0.05386,-0.05685,0.98924,0.77948,0.01954,0.89404,-1.08889,-1.04408,0.13571,-0.14400,0.71685,0.09906,-0.12973,-1.22848,-1.22848,57.68935,11.98010,57.68934620,11.98009978,A,145923.40
18:49:03.897566,0.79621,0.00682,0.90069,0.90069,[7.00000 0.00000 0.00000],[1.30000 0.00000 0.00000],-0.04896,0.07695,0.00920,0.00000,0.00000,0.00368,0.00194,0.09162,-0.06747,0.98234,0.78876,0.00733,0.89537,-1.11618,-1.07137,0.13702,-0.14869,0.71685,0.09906,-0.12973,-1.22848,-1.22848,57.68935,11.98010,57.68934616,11.98009981,A,145923.40
18:49:03.908192,0.80683,0.00703,0.90069,0.90069,[7.00000 0.00000 0.00000],[1.30000 0.00000 0.00000],-0.04978,0.07695,0.00843,0.00000,0.00000,0.00734,-0.00126,0.11566,-0.07796,0.98039,0.79938,0.01221,0.89644,-1.13931,-1.09450,0.13858,-0.15407,0.71685,0.09906,-0.12973,-1.22848,-1.22848,57.68935,11.98010,57.68934611,11.98009983,A,145923.40
18:49:03.918713,0.81734,0.00712,0.90069,0.90069,[7.00000 0.00000 0.00000],[1.30000 0.00000 0.00000],-0.05039,0.07695,0.00034,0.00000,0.00000,0.00108,-0.00355,0.10175,-0.05996,0.97771,0.80957,0.01709,0.89729,-1.15899,-1.11418,0.13982,-0.15909,0.71685,0.09906,-0.12973,-1.22848,-1.22848,57.68935,11.98010,57.68934607,11.98009985,A,145923.40
18:49:03.942862,0.84150,0.02088,0.90069,0.90069,[7.00000 0.00000 0.00000],[1.30000 0.00000 0.00000],-0.05074,0.07695,0.00446,0.00000,0.00000,-0.00350,-0.00294,0.07723,-0.04569,0.98320,0.82018,0.01221,0.89797,-1.07434,-1.02953,0.14783,-0.17598,0.83763,0.12878,-0.14826,-0.55761,-0.55761,57.68935,11.98010,57.68934592,11.98009999,A,145923.50
18:49:03.961517,0.86016,0.00687,0.90069,0.90069,[7.00000 0.00000 0.00000],[1.30000 0.00000 0.00000],-0.05102,0.07695,0.01118,0.00000,0.00000,0.00872,-0.00951,0.09248,-0.06362,0.99796,0.85282,0.02198,0.89851,-1.00269,-0.95788,0.15426,-0.18688,0.83763,0.12878,-0.14826,-0.55761,-0.55761,57.68935,11.98010,57.68934582,11.98010010,A,145923.50
18:49:03.972167,0.87081,0.00710,0.90069,0.90069,[7.00000 0.00000 0.00000],[1.30000 0.00000 0.00000],-0.05151,0.07695,0.00920,0.00000,0.00000,0.00139,-0.01165,0.11547,-0.06039,0.99765,0.86337,0.01221,0.89895,-0.94222,-0.89741,0.15714,-0.19086,0.83763,0.12878,-0.14826,-0.55761,-0.55761,57.68935,11.98010,57.68934578,11.98010014,A,145923.50
18:49:03.983063,0.88145,0.00733,0.90069,0.90069,[7.00000 0.00000 0.00000],[1.30000 0.00000 0.00000],-0.05192,0.07690,0.00599,0.00000,0.00000,-0.00090,-0.00844,0.11352,-0.05246,0.98722,0.87348,0.02442,0.89929,-0.89082,-0.84605,0.16006,-0.19416,0.83763,0.12878,-0.14826,-0.55761,-0.55761,57.68935,11.98010,57.68934575,11.98010019,A,145923.50
18:49:03.992814,0.89146,0.00692,0.90069,0.90069,[7.00000 0.00000 0.00000],[1.30000 0.00000 0.00000],-0.05223,0.07673,0.00767,0.00000,0.00000,-0.00900,-0.00997,0.06509,-0.04740,0.99027,0.88410,0.02198,0.89957,-0.84712,-0.80244,0.16323,-0.19721,0.83763,0.12878,-0.14826,-0.55761,-0.55761,57.68935,11.98010,57.68934573,11.98010025,A,145923.50
18:49:04.003787,0.90243,0.00748,0.90069,0.90069,[7.00000 0.00000 0.00000],[1.30000 0.00000 0.00000],-0.05244,0.07647,0.01286,0.00000,0.00000,-0.00564,-0.00875,0.05459,-0.04551,0.99155,0.89490,0.01221,0.89980,-0.80992,-0.76540,0.16671,-0.20015,0.83763,0.12878,-0.14826,-0.55761,-0.55761,57.68935,11.98010,57.68934570,11.98010031,A,145923.50
18:49:04.013533,0.91217,0.00683,0.62825,0.62825,[7.00000 0.00000 0.00000],[1.30000 0.00000 0.00000],-0.05263,0.07613,0.01103,0.00000,0.00000,0.00139,-0.01089,0.05569,-0.04386,0.98125,0.90472,0.00733,0.84549,-0.77832,-0.73400,0.16966,-0.20221,0.83763,0.12878,-0.14826,-0.55761,-0.55761,57.68935,11.98010,57.68934568,11.98010035,A,145923.50
18:49:04.024305,0.92294,0.00719,0.62825,0.62825,[7.00000 0.00000 0.00000],[1.30000 0.00000 0.00000],-0.05269,0.07577,0.02248,0.00000,0.00000,0.00139,-0.00554,0.09827,-0.04423,0.97502,0.91547,0.02198,0.80204,-0.75142,-0.70731,0.17275,-0.20414,0.83763,0.12878,-0.14826,-0.55761,-0.55761,57.68935,11.98010,57.68934566,11.98010041,A,145923.50
18:49:04.034534,0.93316,0.00699,0.62825,0.62825,[7.00000 0.00000 0.00000],[1.30000 0.00000 0.00000],-0.05281,0.07548,0.01851,0.00000,0.00000,-0.00365,-0.00447,0.09736,-0.04526,0.98167,0.92551,0.01465,0.76728,-0.72858,-0.68463,0.17524,-0.20536,0.83763,0.12878,-0.14826,-0.55761,-0.55761,57.68935,11.98010,57.68934565,11.98010045,A,145923.50
18:49:04.072153,0.97079,0.03421,0.62825,0.62825,[7.00000 0.00000 0.00000],[1.30000 0.00000 0.00000],-0.05335,0.07523,0.01531,0.00000,0.00000,-0.00381,-0.00142,0.09723,-0.07033,0.97344,0.93615,0.01709,0.73948,-0.80859,-0.76480,0.19521,-0.22464,0.96686,0.16840,-0.25945,-1.22848,-1.22848,57.68935,11.98010,57.68934548,11.98010078,A,145923.70
18:49:04.088812,0.98744,0.00784,0.62825,0.62825,[7.00000 0.00000 0.00000],[1.30000 0.00000 0.00000],-0.05264,0.07475,0.02355,0.00000,0.00000,0.00200,-0.00600,0.07064,-0.04642,1.01498,0.97932,0.00733,0.71723,-0.87752,-0.83400,0.20105,-0.23328,0.96686,0.16840,-0.25945,-1.22848,-1.22848,57.68935,11.98010,57.68934540,11.98010088,A,145923.70
18:49:04.098354,0.99675,0.00674,0.62825,0.62825,[7.00000 0.00000 0.00000],[1.30000 0.00000 0.00000],-0.05285,0.07472,0.02340,0.00000,0.00000,0.00673,-0.00707,0.09492,-0.05563,0.99967,0.98937,0.02442,0.69944,-0.93638,-0.89288,0.20298,-0.23851,0.96686,0.16840,-0.25945,-1.22848,-1.22848,57.68935,11.98010,57.68934535,11.98010092,A,145923.70
18:49:04.108741,1.00738,0.00696,0.62825,0.62825,[7.00000 0.00000 0.00000],[1.30000 0.00000 0.00000],-0.05289,0.07469,0.01989,0.00000,0.00000,0.00337,-0.00707,0.11187,-0.04197,0.99229,1.00000,0.00733,0.68520,-0.98638,-0.94290,0.20490,-0.24409,0.96686,0.16840,-0.25945,-1.22848,-1.22848,57.68935,11.98010,57.68934530,11.98010095,A,145923.70
18:49:04.119227,1.01787,0.00704,0.62825,0.62825,[7.00000 0.00000 0.00000],[1.30000 0.00000 0.00000],-0.05318,0.07466,0.02477,0.00000,0.00000,0.00093,-0.01089,0.08808,-0.06057,0.98417,1.01037,0.00977,0.67381,-1.02890,-0.98544,0.20625,-0.24923,0.96686,0.16840,-0.25945,-1.22848,-1.22848,57.68935,11.98010,57.68934526,11.98010097,A,145923.70
18:49:04.129633,1.02827,0.00680,0.62825,0.62825,[7.00000 0.00000 0.00000],[1.30000 0.00000 0.00000],-0.05339,0.07466,0.02890,0.00000,0.00000,0.00001,-0.00905,0.07058,-0.05844,0.97075,1.02087,0.00733,0.66470,-1.06504,-1.02158,0.20737,-0.25428,0.96686,0.16840,-0.25945,-1.22848,-1.22848,57.68935,11.98010,57.68934521,11.98010099,A,145923.70
18:49:04.140292,1.03893,0.00706,0.62825,0.62825,[7.00000 0.00000 0.00000],[1.30000 0.00000 0.00000],-0.05346,0.07466,0.02798,0.00000,0.00000,-0.00060,-0.01027,0.07723,-0.04892,0.97368,1.03146,0.01221,0.65741,-1.09577,-1.05230,0.20822,-0.25913,0.96686,0.16840,-0.25945,-1.22848,-1.22848,57.68935,11.98010,57.68934517,11.98010100,A,145923.70
18:49:04.152718,1.05135,0.00906,0.62825,0.62825,[7.00000 0.00000 0.00000],[1.30000 0.00000 0.00000],-0.05344,0.07466,0.02905,0.00000,0.00000,0.00215,-0.00722,0.07344,-0.04410,0.98247,1.04164,0.00977,0.65158,-1.12189,-1.07842,0.20884,-0.26372,0.96686,0.16840,-0.25945,-1.22848,-1.22848,57.68935,11.98010,57.68934513,11.98010101,A,145923.70
18:49:04.161665,1.06030,0.00758,0.62825,0.62825,[7.00000 0.00000 0.00000],[1.30000 0.00000 0.00000],-0.05337,0.07466,0.03256,0.00000,0.00000,0.00200,-0.00508,0.09132,-0.04416,0.99424,1.05231,0.01465,0.64691,-1.14413,-1.10066,0.20905,-0.26765,0.96686,0.16840,-0.25945,-1.22848,-1.22848,57.68935,11.98010,57.68934509,11.98010102,A,145923.70
18:49:04.187483,1.08612,0.02298,0.62825,0.62825,[7.00000 0.00000 0.00000],[1.30000 0.00000 0.00000],-0.05348,0.07466,0.03882,0.00000,0.00000,-0.00090,-0.00264,0.08467,-0.06051,1.00009,1.06272,0.01221,0.64318,-1.10468,-1.06121,0.21578,-0.28239,1.08062,0.21793,-0.31505,-0.84306,-0.84306,57.68934,11.98010,57.68934496,11.98010113,A,145923.80
18:49:04.203133,1.10177,0.00707,0.62825,0.62825,[7.00000 0.00000 0.00000],[1.30000 0.00000 0.00000],-0.05227,0.07466,0.04066,0.00000,0.00000,-0.00197,0.00316,0.07161,-0.02983,0.99845,1.09437,0.01221,0.64020,-1.07148,-1.02801,0.21991,-0.29123,1.08062,0.21793,-0.31505,-0.84306,-0.84306,57.68934,11.98010,57.68934488,11.98010120,A,145923.80
18:49:04.213415,1.11206,0.00680,0.62825,0.62825,[7.00000 0.00000 0.00000],[1.30000 0.00000 0.00000],-0.05196,0.07466,0.04417,0.00000,0.00000,-0.00304,0.00118,0.10163,-0.03385,0.97332,1.10464,0.01465,0.63781,-1.04344,-0.99997,0.22245,-0.29681,1.08062,0.21793,-0.31505,-0.84306,-0.84306,57.68934,11.98010,57.68934483,11.98010124,A,145923.80
18:49:04.224176,1.12282,0.00715,0.62825,0.62825,[7.00000 0.00000 0.00000],[1.30000 0.00000 0.00000],-0.05198,0.07466,0.04264,0.00000,0.00000,-0.01144,-0.00081,0.08497,-0.05472,0.98039,1.11532,0.01954,0.63590,-1.01960,-0.97613,0.22504,-0.30210,1.08062,0.21793,-0.31505,-0.84306,-0.84306,57.68934,11.98010,57.68934478,11.98010129,A,145923.80
18:49:04.236403,1.13503,0.00894,0.62825,0.62825,[7.00000 0.00000 0.00000],[1.30000 0.00000 0.00000],-0.05202,0.07466,0.04325,0.00000,0.00000,-0.01419,-0.00523,0.09248,-0.05588,0.97655,1.12570,0.01465,0.63437,-0.99930,-0.95583,0.22796,-0.30759,1.08062,0.21793,-0.31505,-0.84306,-0.84306,57.68934,11.98010,57.68934473,11.98010134,A,145923.80
18:49:04.244649,1.14330,0.00702,0.62825,0.62825,[7.00000 0.00000 0.00000],[1.30000 0.00000 0.00000],-0.05191,0.07466,0.04203,0.00000,0.00000,-0.01297,-0.00966,0.05807,-0.04563,1.00809,1.13585,0.01954,0.63314,-0.98215,-0.93869,0.22972,-0.31117,1.08062,0.21793,-0.31505,-0.84306,-0.84306,57.68934,11.98010,57.68934470,11.98010137,A,145923.80
18:49:04.256687,1.15532,0.00858,0.62825,0.62825,[7.00000 0.00000 0.00000],[1.30000 0.00000 0.00000],-0.05167,0.07466,0.04112,0.00000,0.00000,-0.00747,-0.01104,0.05240,-0.03880,1.02449,1.14636,0.01221,0.63217,-0.96752,-0.92405,0.23212,-0.31543,1.08062,0.21793,-0.31505,-0.84306,-0.84306,57.68934,11.98010,57.68934466,11.98010141,A,145923.80
18:49:04.265862,1.16450,0.00743,0.62825,0.62825,[7.00000 0.00000 0.00000],[1.30000 0.00000 0.00000],-0.05147,0.07466,0.04554,0.00000,0.00000,-0.00167,-0.00676,0.08259,-0.04111,1.00028,1.15649,0.00733,0.63138,-0.95508,-0.91161,0.23443,-0.31942,1.08062,0.21793,-0.31505,-0.84306,-0.84306,57.68934,11.98010,57.68934463,11.98010144,A,145923.80
18:49:04.276194,1.17483,0.00734,0.62825,0.62825,[7.00000 0.00000 0.00000],[1.30000 0.00000 0.00000],-0.05138,0.07466,0.04386,0.00000,0.00000,-0.01419,-0.00279,0.10797,-0.04795,0.98344,1.16704,0.01709,0.63076,-0.94452,-0.90105,0.23650,-0.32293,1.08062,0.21793,-0.31505,-0.84306,-0.84306,57.68934,11.98010,57.68934460,11.98010148,A,145923.80
18:49:04.302005,1.20064,0.02290,0.62825,0.62825,[7.00000 0.00000 0.00000],[1.30000 0.00000 0.00000],-0.05107,0.07466,0.03974,0.00000,0.00000,-0.01847,-0.00249,0.08278,-0.03056,1.00491,1.17711,0.00733,0.63026,-0.97051,-0.92704,0.24607,-0.33670,1.19703,0.24764,-0.37065,-1.07992,-1.07992,57.68934,11.98010,57.68934447,11.98010164,A,145923.90
18:49:04.317780,1.21642,0.00678,0.79263,0.79263,[7.00000 0.00000 0.00000],[1.30000 0.00000 0.00000],-0.04993,0.07466,0.05150,0.00000,0.00000,-0.00472,0.00194,0.09211,-0.05374,0.98125,1.20910,0.01221,0.66273,-0.99295,-0.94949,0.25115,-0.34506,1.19703,0.24764,-0.37065,-1.07992,-1.07992,57.68934,11.98010,57.68934440,11.98010173,A,145923.90
18:49:04.328806,1.22745,0.00739,0.79263,0.79263,[7.00000 0.00000 0.00000],[1.30000 0.00000 0.00000],-0.05008,0.07466,0.04982,0.00000,0.00000,-0.01327,0.00210,0.11297,-0.06362,0.96520,1.21962,0.00733,0.68871,-1.01221,-0.96874,0.25410,-0.35071,1.19703,0.24764,-0.37065,-1.07992,-1.07992,57.68934,11.98010,57.68934435,11.98010178,A,145923.90
18:49:04.338752,1.23738,0.00707,0.79263,0.79263,[7.00000 0.00000 0.00000],[1.30000 0.00000 0.00000],-0.04985,0.07466,0.04707,0.00000,0.00000,-0.01648,0.00194,0.07387,-0.03672,0.97466,1.22993,0.00977,0.70950,-1.02859,-0.98512,0.25668,-0.35593,1.19703,0.24764,-0.37065,-1.07992,-1.07992,57.68934,11.98010,57.68934430,11.98010182,A,145923.90
18:49:04.350028,1.24866,0.00793,0.79263,0.79263,[7.00000 0.00000 0.00000],[1.30000 0.00000 0.00000],-0.04938,0.07466,0.04722,0.00000,0.00000,-0.01633,-0.00020,0.04063,-0.02166,0.99192,1.24028,0.00977,0.72612,-1.04247,-0.99900,0.25946,-0.36154,1.19703,0.24764,-0.37065,-1.07992,-1.07992,57.68934,11.98010,57.68934425,11.98010187,A,145923.90
18:49:04.362815,1.26145,0.00994,0.79263,0.79263,[7.00000 0.00000 0.00000],[1.30000 0.00000 0.00000],-0.04907,0.07466,0.05074,0.00000,0.00000,-0.00625,-0.00325,0.05362,-0.03770,0.97771,1.25170,0.01221,0.73943,-1.05424,-1.01077,0.26227,-0.36728,1.19703,0.24764,-0.37065,-1.07992,-1.07992,57.68934,11.98010,57.68934420,11.98010191,A,145923.90
18:49:04.371284,1.26993,0.00745,0.79263,0.79263,[7.00000 0.00000 0.00000],[1.30000 0.00000 0.00000],-0.04872,0.07466,0.04768,0.00000,0.00000,-0.00564,-0.00249,0.07113,-0.02733,0.94928,1.26200,0.00488,0.75007,-1.06436,-1.02089,0.26384,-0.37112,1.19703,0.24764,-0.37065,-1.07992,-1.07992,57.68934,11.98010,57.68934416,11.98010194,A,145923.90
18:49:04.385243,1.28389,0.01082,3.81887,0.79263,[7.00000 0.00000 0.00000],[1.30000 0.00000 0.00000],-0.04790,0.07466,0.05165,0.00000,0.00000,-0.01327,-0.00478,0.07692,-0.01415,0.95874,1.27653,0.01221,0.75858,-1.07269,-1.02922,0.26779,-0.37886,1.19703,0.24764,-0.37065,-1.07992,-1.07992,57.68934,11.98010,57.68934409,11.98010201,A,145923.90
18:49:04.419050,1.31769,0.02533,3.81887,0.79263,[7.00000 0.00000 0.00000],[1.30000 0.00000 0.00000],-0.04698,0.07466,0.05486,0.00000,0.00000,-0.01114,0.00072,0.02129,-0.02836,1.01528,1.29588,0.01221,0.76539,-1.09540,-1.05193,0.28013,-0.40187,1.31378,0.27736,-0.44478,-1.18953,-1.18953,57.68934,11.98010,57.68934389,11.98010221,A,145924.00
18:49:04.436308,1.33495,0.00899,3.81887,0.79263,[7.00000 0.00000 0.00000],[1.30000 0.00000 0.00000],-0.04575,0.07466,0.04860,0.00000,0.00000,0.00352,0.00744,0.12535,-0.03831,1.01175,1.32756,0.01221,0.77084,-1.11540,-1.07193,0.28545,-0.41359,1.31378,0.27736,-0.44478,-1.18953,-1.18953,57.68934,11.98010,57.68934378,11.98010230,A,145924.00
18:49:04.448386,1.34703,0.01083,3.81887,0.79263,[7.00000 0.00000 0.00000],[1.30000 0.00000 0.00000],-0.04553,0.07466,0.03989,0.00000,0.00000,-0.00762,0.00316,0.12273,-0.03080,0.99155,1.33845,0.01221,0.77520,-1.13262,-1.08915,0.28851,-0.42150,1.31378,0.27736,-0.44478,-1.18953,-1.18953,57.68934,11.98010,57.68934371,11.98010235,A,145924.00
18:49:04.468903,1.36754,0.01001,3.81887,0.79263,[7.00000 0.00000 0.00000],[1.30000 0.00000 0.00000],-0.04455,0.07466,0.04218,0.00000,0.00000,-0.01190,-0.00386,0.03630,-0.01189,0.99210,1.36017,0.01954,0.77869,-1.14687,-1.10341,0.29431,-0.43483,1.31378,0.27736,-0.44478,-1.18953,-1.18953,57.68934,11.98010,57.68934359,11.98010245,A,145924.00
18:49:04.488745,1.38739,0.01142,3.81887,0.79263,[7.00000 0.00000 0.00000],[1.30000 0.00000 0.00000],-0.04388,0.07466,0.04417,0.00000,0.00000,-0.00106,-0.00539,0.06539,-0.02464,0.96185,1.37894,0.01709,0.78148,-1.15908,-1.11561,0.29901,-0.44631,1.31378,0.27736,-0.44478,-1.18953,-1.18953,57.68934,11.98010,57.68934349,11.98010253,A,145924.00
18:49:04.509475,1.40812,0.01025,3.81887,0.79263,[7.00000 0.00000 0.00000],[1.30000 0.00000 0.00000],-0.04301,0.07466,0.03806,0.00000,0.00000,0.00032,-0.00020,0.03257,-0.01116,0.98924,1.40069,0.01709,0.78371,-1.16935,-1.12588,0.30409,-0.45882,1.31378,0.27736,-0.44478,-1.18953,-1.18953,57.68934,11.98010,57.68934337,11.98010262,A,145924.00
18:49:04.541179,1.43982,0.02224,3.81887,0.79263,[7.00000 0.00000 0.00000],[1.30000 0.00000 0.00000],-0.04207,0.07466,0.04264,0.00000,0.00000,0.01574,0.00546,0.04410,-0.00518,1.00711,1.41960,0.01954,0.78549,-1.16115,-1.11769,0.31388,-0.48112,1.43606,0.30708,-0.50038,-1.07992,-1.07992,57.68934,11.98010,57.68934317,11.98010278,A,145924.10
18:49:04.562600,1.46123,0.01309,3.81887,0.79263,[7.00000 0.00000 0.00000],[1.30000 0.00000 0.00000],-0.04119,0.07466,0.03821,0.00000,0.00000,-0.00228,0.00851,0.09766,-0.03129,0.99216,1.45033,0.01221,0.78692,-1.15477,-1.11130,0.31898,-0.49326,1.43606,0.30708,-0.50038,-1.07992,-1.07992,57.68934,11.98010,57.68934306,11.98010287,A,145924.10
18:49:04.580937,1.47958,0.00908,3.81887,0.79263,[7.00000 0.00000 0.00000],[1.30000 0.00000 0.00000],-0.04057,0.07466,0.03226,0.00000,0.00000,-0.00319,-0.00096,0.04465,-0.01873,1.02321,1.47224,0.02686,0.78806,-1.14931,-1.10585,0.32409,-0.50514,1.43606,0.30708,-0.50038,-1.07992,-1.07992,57.68934,11.98010,57.68934296,11.98010295,A,145924.10
18:49:04.592894,1.49153,0.01096,3.81887,0.79263,[7.00000 0.00000 0.00000],[1.30000 0.00000 0.00000],-0.04043,0.07466,0.02432,0.00000,0.00000,0.00230,-0.00218,0.06686,-0.02135,0.99528,1.48417,0.01709,0.78898,-1.14499,-1.10152,0.32661,-0.51164,1.43606,0.30708,-0.50038,-1.07992,-1.07992,57.68934,11.98010,57.68934290,11.98010300,A,145924.10
18:49:04.611774,1.51041,0.00927,3.81887,0.79263,[7.00000 0.00000 0.00000],[1.30000 0.00000 0.00000],-0.03978,0.07466,0.02584,0.00000,0.00000,-0.00930,-0.00004,0.09278,-0.00043,0.95014,1.50297,0.01221,0.78971,-1.14102,-1.09756,0.33127,-0.52218,1.43606,0.30708,-0.50038,-1.07992,-1.07992,57.68934,11.98010,57.68934280,11.98010307,A,145924.10
18:49:04.623173,1.52181,0.01039,3.81887,0.79263,[7.00000 0.00000 0.00000],[1.30000 0.00000 0.00000],-0.03931,0.07466,0.02462,0.00000,0.00000,-0.01098,0.00118,0.03099,0.00171,0.98082,1.51431,0.01709,0.79029,-1.13798,-1.09451,0.33322,-0.52726,1.43606,0.30708,-0.50038,-1.07992,-1.07992,57.68934,11.98010,57.68934276,11.98010311,A,145924.10
18:49:04.638031,1.53667,0.00681,1.00043,1.00043,[7.00000 0.00000 0.00000],[1.30000 0.00000 0.00000],-0.03907,0.07466,0.02920,0.00000,0.00000,-0.00258,0.00683,0.02513,-0.02123,0.99216,1.52933,0.00977,0.83232,-1.13522,-1.09175,0.33638,-0.53458,1.43606,0.30708,-0.50038,-1.07992,-1.07992,57.68934,11.98010,57.68934269,11.98010316,A,145924.10
18:49:04.675199,1.57384,0.03356,1.00043,1.00043,[7.00000 0.00000 0.00000],[1.30000 0.00000 0.00000],-0.03902,0.07466,0.02966,0.00000,0.00000,0.00184,0.00912,0.05612,-0.02440,0.98387,1.53986,0.02198,0.86594,-1.13182,-1.08835,0.35178,-0.56511,1.57002,0.38633,-0.64864,-1.07992,-1.07992,57.68934,11.98010,57.68934242,11.98010342,A,145924.30
18:49:04.691266,1.58991,0.00732,1.00043,1.00043,[7.00000 0.00000 0.00000],[1.30000 0.00000 0.00000],-0.03814,0.07466,0.02126,0.00000,0.00000,0.01055,0.00729,0.04465,-0.00927,1.01571,1.58234,0.02198,0.89284,-1.12989,-1.08642,0.35880,-0.57940,1.57002,0.38633,-0.64864,-1.07992,-1.07992,57.68934,11.98010,57.68934229,11.98010354,A,145924.30
18:49:04.703759,1.60240,0.00922,1.00043,1.00043,[7.00000 0.00000 0.00000],[1.30000 0.00000 0.00000],-0.03828,0.07466,0.01683,0.00000,0.00000,0.00795,0.00637,0.07802,-0.02898,0.99759,1.59361,0.02198,0.91436,-1.12841,-1.08494,0.36423,-0.59057,1.57002,0.38633,-0.64864,-1.07992,-1.07992,57.68934,11.98010,57.68934219,11.98010363,A,145924.30
18:49:04.711841,1.61048,0.00706,1.00043,1.00043,[7.00000 0.00000 0.00000],[1.30000 0.00000 0.00000],-0.03842,0.07466,0.01546,0.00000,0.00000,0.00154,0.00301,0.08973,-0.02635,1.00052,1.60298,0.01221,0.93157,-1.12736,-1.08389,0.36774,-0.59802,1.57002,0.38633,-0.64864,-1.07992,-1.07992,57.68934,11.98010,57.68934212,11.98010369,A,145924.30
18:49:04.721903,1.62055,0.00688,1.00043,1.00043,[7.00000 0.00000 0.00000],[1.30000 0.00000 0.00000],-0.03857,0.07466,0.01225,0.00000,0.00000,-0.00243,0.00103,0.08046,-0.02550,0.99985,1.61305,0.00977,0.94534,-1.12634,-1.08287,0.37206,-0.60696,1.57002,0.38633,-0.64864,-1.07992,-1.07992,57.68934,11.98010,57.68934204,11.98010376,A,145924.30
18:49:04.732490,1.63113,0.00706,1.00043,1.00043,[7.00000 0.00000 0.00000],[1.30000 0.00000 0.00000],-0.03836,0.07466,0.01240,0.00000,0.00000,0.00032,-0.00218,0.10888,-0.00226,0.97972,1.62367,0.01221,0.95636,-1.12546,-1.08199,0.37633,-0.61575,1.57002,0.38633,-0.64864,-1.07992,-1.07992,57.68934,11.98010,57.68934196,11.98010383,A,145924.30
18:49:04.742916,1.64155,0.00707,1.00043,1.00043,[7.00000 0.00000 0.00000],[1.30000 0.00000 0.00000],-0.03855,0.07466,0.00507,0.00000,0.00000,-0.00594,-0.00615,0.06789,-0.02379,0.98655,1.63403,0.01465,0.96518,-1.12471,-1.08124,0.38036,-0.62403,1.57002,0.38633,-0.64864,-1.07992,-1.07992,57.68934,11.98010,57.68934189,11.98010390,A,145924.30
18:49:04.753627,1.65227,0.00719,1.00043,1.00043,[7.00000 0.00000 0.00000],[1.30000 0.00000 0.00000],-0.03870,0.07466,0.00706,0.00000,0.00000,-0.00778,0.00148,0.04374,-0.02214,0.99656,1.64445,0.01954,0.97223,-1.12405,-1.08058,0.38444,-0.63235,1.57002,0.38633,-0.64864,-1.07992,-1.07992,57.68934,11.98010,57.68934181,11.98010397,A,145924.30
18:49:04.763968,1.66261,0.00711,1.00043,1.00043,[7.00000 0.00000 0.00000],[1.30000 0.00000 0.00000],-0.03867,0.07466,0.00874,0.00000,0.00000,0.00536,0.00301,0.05594,-0.01183,0.99204,1.65507,0.01221,0.97787,-1.12351,-1.08004,0.38808,-0.63981,1.57002,0.38633,-0.64864,-1.07992,-1.07992,57.68934,11.98010,57.68934175,11.98010403,A,145924.30
18:49:04.789884,1.68852,0.02262,1.00043,1.00043,[7.00000 0.00000 0.00000],[1.30000 0.00000 0.00000],-0.03860,0.07466,0.01042,0.00000,0.00000,0.00352,0.00332,0.08479,-0.01074,0.98728,1.66598,0.01709,0.98238,-1.13520,-1.09173,0.40062,-0.66481,1.68471,0.42595,-0.74130,-1.16672,-1.16672,57.68934,11.98010,57.68934152,11.98010424,A,145924.40
18:49:04.805234,1.70387,0.00740,1.00043,1.00043,[7.00000 0.00000 0.00000],[1.30000 0.00000 0.00000],-0.03850,0.07466,0.00859,0.00000,0.00000,0.00582,0.00484,0.04734,-0.01763,1.00369,1.69615,0.01709,0.98599,-1.14572,-1.10225,0.40768,-0.67978,1.68471,0.42595,-0.74130,-1.16672,-1.16672,57.68934,11.98010,57.68934139,11.98010436,A,145924.40
18:49:04.815193,1.71384,0.00715,1.00043,1.00043,[7.00000 0.00000 0.00000],[1.30000 0.00000 0.00000],-0.03849,0.07466,0.00691,0.00000,0.00000,0.01177,0.00362,0.04727,-0.01171,1.00626,1.70628,0.00733,0.98888,-1.15496,-1.11149,0.41188,-0.68936,1.68471,0.42595,-0.74130,-1.16672,-1.16672,57.68934,11.98010,57.68934130,11.98010443,A,145924.40
18:49:04.825359,1.72400,0.00676,1.00043,1.00043,[7.00000 0.00000 0.00000],[1.30000 0.00000 0.00000],-0.03854,0.07466,0.00599,0.00000,0.00000,0.01208,-0.00249,0.05173,-0.01525,0.99613,1.71662,0.01465,0.99119,-1.16279,-1.11933,0.41603,-0.69894,1.68471,0.42595,-0.74130,-1.16672,-1.16672,57.68934,11.98010,57.68934121,11.98010450,A,145924.40
18:49:04.836108,1.73475,0.00709,1.00043,1.00043,[7.00000 0.00000 0.00000],[1.30000 0.00000 0.00000],-0.03853,0.07466,0.00034,0.00000,0.00000,0.00979,-0.00783,0.09217,-0.00732,0.98222,1.72731,0.01221,0.99304,-1.16943,-1.12597,0.42005,-0.70831,1.68471,0.42595,-0.74130,-1.16672,-1.16672,57.68934,11.98010,57.68934113,11.98010457,A,145924.40
18:49:04.846576,1.74521,0.00714,1.10036,1.10036,[7.00000 0.00000 0.00000],[1.30000 0.00000 0.00000],-0.03865,0.07466,0.00401,0.00000,0.00000,0.00826,-0.00615,0.07399,-0.01592,0.96343,1.73741,0.01709,1.01450,-1.17509,-1.13162,0.42373,-0.71706,1.68471,0.42595,-0.74130,-1.16672,-1.16672,57.68934,11.98010,57.68934105,11.98010463,A,145924.40
18:49:04.856816,1.75546,0.00703,1.10036,1.10036,[7.00000 0.00000 0.00000],[1.30000 0.00000 0.00000],-0.03886,0.07466,0.00141,0.00000,0.00000,0.00826,-0.00875,0.06893,-0.02050,0.96959,1.74802,0.01465,1.03167,-1.17987,-1.13640,0.42737,-0.72578,1.68471,0.42595,-0.74130,-1.16672,-1.16672,57.68934,11.98010,57.68934097,11.98010469,A,145924.40
18:49:04.868697,1.76732,0.00848,1.10036,1.10036,[7.00000 0.00000 0.00000],[1.30000 0.00000 0.00000],-0.03901,0.07466,0.00156,0.00000,0.00000,0.00872,-0.00523,0.06082,-0.01739,0.98588,1.75839,0.00977,1.04541,-1.18395,-1.14048,0.43072,-0.73393,1.68471,0.42595,-0.74130,-1.16672,-1.16672,57.68934,11.98010,57.68934090,11.98010475,A,145924.40
18:49:04.878802,1.77744,0.00826,1.10036,1.10036,[7.00000 0.00000 0.00000],[1.30000 0.00000 0.00000],-0.03917,0.07466,0.00110,0.00000,0.00000,0.00643,-0.00401,0.05435,-0.01830,0.99546,1.76944,0.00977,1.05640,-1.18742,-1.14396,0.43377,-0.74148,1.68471,0.42595,-0.74130,-1.16672,-1.16672,57.68934,11.98010,57.68934083,11.98010480,A,145924.40
18:49:04.888318,1.78696,0.00747,1.10036,1.10036,[7.00000 0.00000 0.00000],[1.30000 0.00000 0.00000],-0.03951,0.07466,0.00049,0.00000,0.00000,0.00429,-0.00203,0.07430,-0.02989,0.99686,1.77915,0.01709,1.06519,-1.19042,-1.14695,0.43638,-0.74805,1.68471,0.42595,-0.74130,-1.16672,-1.16672,57.68934,11.98010,57.68934077,11.98010484,A,145924.40
18:49:04.911770,1.81042,0.02068,1.10036,1.10036,[7.00000 0.00000 0.00000],[1.30000 0.00000 0.00000],-0.03953,0.07466,0.00294,0.00000,0.00000,0.00337,-0.00203,0.10998,-0.01025,0.98222,1.78912,0.01709,1.07223,-1.14356,-1.10009,0.44736,-0.77051,1.80663,0.47548,-0.79690,-0.84306,-0.84306,57.68934,11.98011,57.68934057,11.98010503,A,145924.50
18:49:04.926824,1.82546,0.00708,1.10036,1.10036,[7.00000 0.00000 0.00000],[1.30000 0.00000 0.00000],-0.03958,0.07466,0.00309,0.00000,0.00000,-0.01556,-0.00585,0.01287,-0.01775,1.03895,1.81806,0.00733,1.07785,-1.10424,-1.06077,0.45476,-0.78359,1.80663,0.47548,-0.79690,-0.84306,-0.84306,57.68934,11.98011,57.68934045,11.98010515,A,145924.50
18:49:04.937137,1.83578,0.00698,1.10036,1.10036,[7.00000 0.00000 0.00000],[1.30000 0.00000 0.00000],-0.03985,0.07466,0.00569,0.00000,0.00000,-0.00381,-0.00814,0.02111,-0.03044,1.03834,1.82836,0.01465,1.08235,-1.07106,-1.02759,0.46013,-0.79201,1.80663,0.47548,-0.79690,-0.84306,-0.84306,57.68934,11.98011,57.68934038,11.98010524,A,145924.50
18:49:04.948019,1.84666,0.00745,1.10036,1.10036,[7.00000 0.00000 0.00000],[1.30000 0.00000 0.00000],-0.04013,0.07466,0.00202,0.00000,0.00000,0.00047,-0.00921,0.04965,-0.02836,1.00211,1.83891,0.00977,1.08596,-1.04287,-0.99940,0.46547,-0.79983,1.80663,0.47548,-0.79690,-0.84306,-0.84306,57.68934,11.98011,57.68934031,11.98010533,A,145924.50
18:49:04.957672,1.85631,0.00687,1.10036,1.10036,[7.00000 0.00000 0.00000],[1.30000 0.00000 0.00000],-0.04019,0.07466,0.00431,0.00000,0.00000,0.00062,-0.01318,0.08760,-0.01464,0.98735,1.84886,0.01709,1.08884,-1.01895,-0.97548,0.47032,-0.80645,1.80663,0.47548,-0.79690,-0.84306,-0.84306,57.68934,11.98011,57.68934025,11.98010541,A,145924.50
18:49:04.969104,1.86772,0.00786,1.10036,1.10036,[7.00000 0.00000 0.00000],[1.30000 0.00000 0.00000],-0.04037,0.07466,0.00110,0.00000,0.00000,-0.00197,-0.01302,0.04788,-0.01946,0.97063,1.85945,0.02686,1.09114,-0.99858,-0.95511,0.47545,-0.81317,1.80663,0.47548,-0.79690,-0.84306,-0.84306,57.68934,11.98011,57.68934019,11.98010550,A,145924.50
18:49:04.979764,1.87840,0.00828,1.10036,1.10036,[7.00000 0.00000 0.00000],[1.30000 0.00000 0.00000],-0.04045,0.07466,0.00981,0.00000,0.00000,-0.00579,-0.01027,0.04471,-0.01921,0.94782,1.87006,0.01954,1.09299,-0.98123,-0.93776,0.48089,-0.82004,1.80663,0.47548,-0.79690,-0.84306,-0.84306,57.68934,11.98011,57.68934013,11.98010559,A,145924.50
18:49:04.988755,1.88740,0.00686,1.10036,1.10036,[7.00000 0.00000 0.00000],[1.30000 0.00000 0.00000],-0.04070,0.07466,0.00920,0.00000,0.00000,-0.00487,-0.00875,0.04673,-0.02891,0.93964,1.88010,0.01221,1.09446,-0.96659,-0.92312,0.48501,-0.82486,1.80663,0.47548,-0.79690,-0.84306,-0.84306,57.68934,11.98011,57.68934008,11.98010566,A,145924.50
18:49:04.999357,1.89800,0.00705,1.10036,1.10036,[7.00000 0.00000 0.00000],[1.30000 0.00000 0.00000],-0.04092,0.07466,0.01149,0.00000,0.00000,-0.00946,-0.00829,0.04154,-0.02934,0.95685,1.89051,0.01465,1.09564,-0.95407,-0.91060,0.48982,-0.83046,1.80663,0.47548,-0.79690,-0.84306,-0.84306,57.68934,11.98011,57.68934003,11.98010574,A,145924.50
18:49:05.024998,1.92364,0.02230,1.10036,1.10036,[7.00000 0.00000 0.00000],[1.30000 0.00000 0.00000],-0.04129,0.07466,0.01836,0.00000,0.00000,-0.00304,-0.00661,0.06100,-0.04557,0.96898,1.90219,0.01221,1.09658,-0.97801,-0.93455,0.50741,-0.85409,1.91987,0.53491,-0.90809,-1.07992,-1.07992,57.68934,11.98011,57.68933982,11.98010604,A,145924.60
18:49:05.040155,1.93880,0.00711,1.10036,1.10036,[7.00000 0.00000 0.00000],[1.30000 0.00000 0.00000],-0.04113,0.07466,0.01912,0.00000,0.00000,-0.00518,-0.01318,0.03880,-0.03630,1.02498,1.93138,0.00977,1.09734,-0.99903,-0.95556,0.51684,-0.86770,1.91987,0.53491,-0.90809,-1.07992,-1.07992,57.68934,11.98011,57.68933970,11.98010620,A,145924.60
18:49:05.050742,1.94937,0.00728,1.10036,1.10036,[7.00000 0.00000 0.00000],[1.30000 0.00000 0.00000],-0.04115,0.07466,0.01974,0.00000,0.00000,0.00123,-0.01531,-0.00183,-0.02513,1.05359,1.94144,0.01465,1.09794,-1.01717,-0.97371,0.52284,-0.87692,1.91987,0.53491,-0.90809,-1.07992,-1.07992,57.68934,11.98011,57.68933961,11.98010630,A,145924.60
18:49:05.061129,1.95978,0.00727,1.10036,1.10036,[7.00000 0.00000 0.00000],[1.30000 0.00000 0.00000],-0.04069,0.07455,0.02126,0.00000,0.00000,0.01284,-0.01760,0.03806,0.00695,1.04505,1.95208,0.01221,1.09843,-1.03256,-0.98916,0.52860,-0.88607,1.91987,0.53491,-0.90809,-1.07992,-1.07992,57.68934,11.98011,57.68933953,11.98010639,A,145924.60
18:49:05.097046,1.99569,0.02337,1.10479,1.10479,[7.00000 0.00000 0.00000],[1.30000 0.00000 0.00000],-0.04009,0.07410,0.02569,0.00000,0.00000,0.00551,-0.01852,0.07497,-0.01928,0.96234,1.98271,0.00733,1.09970,-1.04408,-1.00094,0.54839,-0.91679,1.91987,0.53491,-0.90809,-1.07992,-1.07992,57.68934,11.98011,57.68933926,11.98010673,A,145924.60
18:49:05.225041,2.12368,0.09891,1.10479,1.10479,[7.00000 0.00000 0.00000],[1.30000 0.00000 0.00000],-0.03870,0.07398,0.02569,0.00000,0.00000,-0.00014,-0.00523,0.06240,-0.00360,0.99564,2.03510,0.01221,1.10072,-1.05467,-1.01160,0.62342,-1.03681,2.11991,0.62406,-1.09342,-1.12242,-1.12242,57.68934,11.98011,57.68933818,11.98010799,A,145924.80
18:49:05.253416,2.15205,0.01582,1.10479,1.10479,[7.00000 0.00000 0.00000],[1.30000 0.00000 0.00000],-0.03645,0.07398,0.02615,0.00000,0.00000,-0.00747,-0.00600,0.05502,-0.03593,1.00180,2.13948,0.01465,1.10153,-1.06999,-1.02692,0.63544,-1.05879,2.11991,0.62406,-1.09342,-1.12242,-1.12242,57.68934,11.98011,57.68933798,11.98010819,A,145924.80
18:49:05.276664,2.17530,0.00914,1.10479,1.10479,[7.00000 0.00000 0.00000],[1.30000 0.00000 0.00000],-0.03561,0.07398,0.03119,0.00000,0.00000,0.00200,-0.00279,0.03806,-0.00464,1.07433,2.16640,0.03175,1.10219,-1.08287,-1.03980,0.64786,-1.08201,2.11991,0.62406,-1.09342,-1.12242,-1.12242,57.68934,11.98011,57.68933777,11.98010840,A,145924.80
18:49:05.286384,2.18478,0.00796,1.10479,1.10479,[7.00000 0.00000 0.00000],[1.30000 0.00000 0.00000],-0.03570,0.07398,0.03806,0.00000,0.00000,0.01086,-0.00585,0.01732,-0.03782,1.05213,2.17702,0.03175,1.10271,-1.09480,-1.05173,0.65070,-1.08944,2.11991,0.62406,-1.09342,-1.12242,-1.12242,57.68934,11.98011,57.68933770,11.98010845,A,145924.80
18:49:05.301819,2.20045,0.01136,1.10647,1.10647,[7.00000 0.00000 0.00000],[1.30000 0.00000 0.00000],-0.03542,0.07398,0.03898,0.00000,0.00000,0.00246,-0.00722,0.04910,-0.01824,0.98387,2.19011,0.04884,1.10346,-1.10468,-1.06161,0.65566,-1.10064,2.11991,0.62406,-1.09342,-1.12242,-1.12242,57.68934,11.98011,57.68933760,11.98010853,A,145924.80
18:49:05.322458,2.22108,0.00973,1.10647,1.10647,[7.00000 0.00000 0.00000],[1.30000 0.00000 0.00000],-0.03474,0.07395,0.04127,0.00000,0.00000,0.01284,-0.00417,0.05905,-0.01562,0.96038,2.21177,0.02930,1.10406,-1.11272,-1.06967,0.66314,-1.11652,2.11991,0.62406,-1.09342,-1.12242,-1.12242,57.68934,11.98011,57.68933746,11.98010866,A,145924.80
18:49:05.349417,2.24806,0.02521,1.10647,1.10647,[7.00000 0.00000 0.00000],[1.30000 0.00000 0.00000],-0.03556,0.07387,0.03272,0.00000,0.00000,0.00322,-0.00600,0.02995,-0.07430,0.93220,2.22248,0.02198,1.10454,-1.09346,-1.05046,0.67806,-1.14449,2.24293,0.70331,-1.20461,-0.95161,-0.95161,57.68934,11.98011,57.68933721,11.98010891,A,145924.90
18:49:05.371565,2.27021,0.01309,1.10647,1.10647,[7.00000 0.00000 0.00000],[1.30000 0.00000 0.00000],-0.03514,0.07367,0.00675,0.00000,0.00000,-0.00472,-0.02631,-0.17647,0.00836,1.13442,2.25924,0.01954,1.10493,-1.07756,-1.03467,0.68846,-1.16345,2.24293,0.70331,-1.20461,-0.95161,-0.95161,57.68934,11.98011,57.68933704,11.98010908,A,145924.90
18:49:05.399151,2.29779,0.01358,1.10647,1.10647,[7.00000 0.00000 0.00000],[1.30000 0.00000 0.00000],-0.03166,0.07367,0.02157,0.00000,0.00000,0.05743,-0.01928,-0.07076,0.19886,1.03999,2.28699,0.03663,1.10524,-1.06367,-1.02078,0.70198,-1.18701,2.24293,0.70331,-1.20461,-0.95161,-0.95161,57.68934,11.98011,57.68933682,11.98010931,A,145924.90
18:49:05.424898,2.32354,0.01187,1.10647,1.10647,[7.00000 0.00000 0.00000],[1.30000 0.00000 0.00000],-0.03624,0.07367,0.08006,0.00000,0.00000,-0.04748,-0.01027,0.63861,-0.40553,0.86254,2.31248,0.03419,1.10548,-1.05185,-1.00896,0.71518,-1.20931,2.24293,0.70331,-1.20461,-0.95161,-0.95161,57.68934,11.98011,57.68933662,11.98010953,A,145924.90
18:49:05.447026,2.34566,0.01180,1.10647,1.10647,[7.00000 0.00000 0.00000],[1.30000 0.00000 0.00000],-0.03350,0.07362,0.02722,0.00000,0.00000,-0.03695,-0.00982,-0.61012,0.15512,1.11606,2.33456,0.03663,1.10568,-1.04216,-0.99930,0.72463,-1.22503,2.24293,0.70331,-1.20461,-0.95161,-0.95161,57.68934,11.98011,57.68933648,11.98010969,A,145924.90
18:49:05.495798,2.39444,0.03708,1.10647,1.10647,[7.00000 0.00000 0.00000],[1.30000 0.00000 0.00000],-0.03389,0.07262,0.04417,0.00000,0.00000,0.05132,-0.00417,-0.06106,-0.08961,0.94330,2.35796,0.03907,1.10584,-1.06643,-1.02415,0.75547,-1.27796,2.38944,0.80237,-1.44553,-1.18071,-1.18071,57.68933,11.98011,57.68933601,11.98011021,A,145925.10
18:49:05.521550,2.42018,0.01088,1.25795,1.25795,[7.00000 0.00000 0.00000],[1.30000 0.00000 0.00000],-0.03264,0.06883,0.01256,0.00000,0.00000,0.02109,-0.01974,-0.10303,0.04294,1.10508,2.41023,0.02930,1.13626,-1.08827,-1.04821,0.76984,-1.30610,2.38944,0.80237,-1.44553,-1.18071,-1.18071,57.68933,11.98011,57.68933575,11.98011045,A,145925.10
18:49:05.544530,2.44317,0.01036,1.25795,1.25795,[7.00000 0.00000 0.00000],[1.30000 0.00000 0.00000],-0.03394,0.06770,0.01195,0.00000,0.00000,0.02200,-0.01302,0.22283,-0.09845,0.94770,2.43406,0.02686,1.16060,-1.10686,-1.06746,0.78249,-1.33221,2.38944,0.80237,-1.44553,-1.18071,-1.18071,57.68933,11.98011,57.68933552,11.98011067,A,145925.10
18:49:05.564337,2.46298,0.00788,1.25795,1.25795,[7.00000 0.00000 0.00000],[1.30000 0.00000 0.00000],-0.03208,0.06679,-0.01753,0.00000,0.00000,-0.03206,-0.01867,-0.01159,0.14890,1.00510,2.45527,0.01709,1.18007,-1.12268,-1.08381,0.79343,-1.35594,2.38944,0.80237,-1.44553,-1.18071,-1.18071,57.68933,11.98011,57.68933531,11.98011085,A,145925.10
18:49:05.575845,2.47448,0.00914,1.25795,1.25795,[7.00000 0.00000 0.00000],[1.30000 0.00000 0.00000],-0.03072,0.06614,-0.00500,0.00000,0.00000,-0.01740,-0.02448,0.00092,0.09589,1.00699,2.46474,0.02442,1.19564,-1.13666,-1.09816,0.79841,-1.36899,2.38944,0.80237,-1.44553,-1.18071,-1.18071,57.68933,11.98011,57.68933519,11.98011093,A,145925.10
18:49:05.587493,2.48613,0.01062,1.25795,1.25795,[7.00000 0.00000 0.00000],[1.30000 0.00000 0.00000],-0.03068,0.06546,0.00859,0.00000,0.00000,-0.00457,-0.02494,-0.00226,-0.00122,0.98167,2.47622,0.00488,1.20810,-1.14849,-1.11039,0.80291,-1.38122,2.38944,0.80237,-1.44553,-1.18071,-1.18071,57.68933,11.98011,57.68933508,11.98011101,A,145925.10
18:49:05.626039,2.52468,0.02723,1.25795,1.25795,[7.00000 0.00000 0.00000],[1.30000 0.00000 0.00000],-0.03225,0.06456,-0.00882,0.00000,0.00000,0.01299,-0.02463,0.14951,-0.08644,0.97948,2.50013,0.01709,1.21807,-1.12968,-1.09211,0.82545,-1.42859,2.51985,0.86180,-1.53820,-1.00048,-1.00048,57.68933,11.98011,57.68933465,11.98011139,A,145925.20
18:49:05.652475,2.55112,0.01335,1.25795,1.25795,[7.00000 0.00000 0.00000],[1.30000 0.00000 0.00000],-0.03203,0.06450,-0.00714,0.00000,0.00000,0.00918,-0.02249,-0.01385,0.03440,1.00388,2.53956,0.02198,1.22605,-1.11462,-1.07708,0.83926,-1.45717,2.51985,0.86180,-1.53820,-1.00048,-1.00048,57.68933,11.98011,57.68933440,11.98011162,A,145925.20
18:49:05.670452,2.56885,0.00845,1.25795,1.25795,[7.00000 0.00000 0.00000],[1.30000 0.00000 0.00000],-0.03309,0.06450,-0.01875,0.00000,0.00000,0.01757,-0.02326,0.16220,-0.04227,0.95282,2.56009,0.01465,1.23243,-1.10226,-1.06472,0.84860,-1.47649,2.51985,0.86180,-1.53820,-1.00048,-1.00048,57.68933,11.98011,57.68933422,11.98011178,A,145925.20
18:49:05.682437,2.58084,0.00994,1.23163,1.23163,[7.00000 0.00000 0.00000],[1.30000 0.00000 0.00000],-0.03391,0.06450,-0.02715,0.00000,0.00000,0.00169,-0.02662,0.12285,-0.03611,0.99393,2.57045,0.01221,1.23227,-1.09220,-1.05466,0.85341,-1.48706,2.51985,0.86180,-1.53820,-1.00048,-1.00048,57.68933,11.98011,57.68933413,11.98011186,A,145925.20
18:49:05.692814,2.59145,0.00935,1.23163,1.23163,[7.00000 0.00000 0.00000],[1.30000 0.00000 0.00000],-0.03398,0.06450,-0.01890,0.00000,0.00000,0.00658,-0.02005,0.07387,0.00775,1.00894,2.58149,0.00977,1.23214,-1.08359,-1.04605,0.85851,-1.49787,2.51985,0.86180,-1.53820,-1.00048,-1.00048,57.68933,11.98011,57.68933403,11.98011194,A,145925.20
18:49:05.705142,2.60377,0.01132,1.23163,1.23163,[7.00000 0.00000 0.00000],[1.30000 0.00000 0.00000],-0.03415,0.06450,-0.02440,0.00000,0.00000,0.01666,-0.02066,0.06454,0.00634,1.03993,2.59348,0.00488,1.23204,-1.07629,-1.03875,0.86337,-1.50799,2.51985,0.86180,-1.53820,-1.00048,-1.00048,57.68933,11.98011,57.68933394,11.98011203,A,145925.20
18:49:05.743620,2.64226,0.02697,1.23163,1.23163,[7.00000 0.00000 0.00000],[1.30000 0.00000 0.00000],-0.03446,0.06450,-0.03524,0.00000,0.00000,0.03025,-0.02524,0.15524,0.03148,0.97795,2.61661,0.00488,1.23195,-1.09105,-1.05351,0.88786,-1.55259,2.63726,0.91133,-1.64939,-1.15175,-1.15175,57.68933,11.98011,57.68933354,11.98011244,A,145925.30
18:49:05.769198,2.66720,0.01239,1.23163,1.23163,[7.00000 0.00000 0.00000],[1.30000 0.00000 0.00000],-0.03631,0.06450,-0.02501,0.00000,0.00000,0.01223,-0.01959,0.09467,-0.05740,0.96404,2.65668,0.00000,1.23189,-1.10451,-1.06697,0.90159,-1.57950,2.63726,0.91133,-1.64939,-1.15175,-1.15175,57.68933,11.98011,57.68933330,11.98011267,A,145925.30
18:49:05.794446,2.69281,0.01291,1.23163,1.23163,[7.00000 0.00000 0.00000],[1.30000 0.00000 0.00000],-0.03678,0.06450,-0.02593,0.00000,0.00000,-0.00151,-0.02020,0.13298,0.00830,1.02083,2.68197,0.01221,1.23184,-1.11594,-1.07840,0.91445,-1.60543,2.63726,0.91133,-1.64939,-1.15175,-1.15175,57.68933,11.98011,57.68933306,11.98011289,A,145925.30
18:49:05.820772,2.71941,0.01356,1.23163,1.23163,[7.00000 0.00000 0.00000],[1.30000 0.00000 0.00000],-0.03761,0.06450,-0.01295,0.00000,0.00000,0.01483,-0.02081,0.04856,-0.03831,1.04719,2.70905,0.00488,1.23179,-1.12549,-1.08795,0.92799,-1.63316,2.63726,0.91133,-1.64939,-1.15175,-1.15175,57.68933,11.98011,57.68933281,11.98011311,A,145925.30
18:49:05.872107,2.77075,0.03770,1.56897,1.56897,[7.00000 0.00000 0.00000],[1.30000 0.00000 0.00000],-0.03855,0.06450,-0.02303,0.00000,0.00000,0.01467,-0.01745,0.15195,-0.02477,0.97722,2.73367,0.00733,1.29923,-1.12137,-1.08383,0.96004,-1.69649,2.76587,1.03020,-1.87178,-1.07992,-1.07992,57.68933,11.98011,57.68933224,11.98011365,A,145925.50
18:49:05.897420,2.79606,0.01221,1.56897,1.56897,[7.00000 0.00000 0.00000],[1.30000 0.00000 0.00000],-0.03990,0.06450,-0.02654,0.00000,0.00000,0.01498,-0.01379,0.14061,0.00012,0.95837,2.78531,0.00244,1.35318,-1.11947,-1.08193,0.97583,-1.72844,2.76587,1.03020,-1.87178,-1.07992,-1.07992,57.68933,11.98011,57.68933196,11.98011392,A,145925.50
18:49:05.924402,2.82301,0.01261,1.56897,1.56897,[7.00000 0.00000 0.00000],[1.30000 0.00000 0.00000],-0.04017,0.06450,-0.01860,0.00000,0.00000,0.00414,-0.01608,0.06240,0.01287,1.01181,2.81246,0.00733,1.39633,-1.11763,-1.08009,0.99296,-1.76270,2.76587,1.03020,-1.87178,-1.07992,-1.07992,57.68933,11.98011,57.68933165,11.98011421,A,145925.50
18:49:05.951395,2.85003,0.01337,1.56897,1.56897,[7.00000 0.00000 0.00000],[1.30000 0.00000 0.00000],-0.04175,0.06450,-0.03051,0.00000,0.00000,0.00872,-0.02799,0.14170,-0.05563,1.02016,2.83906,0.00977,1.43086,-1.11597,-1.07843,1.01018,-1.79690,2.76587,1.03020,-1.87178,-1.07992,-1.07992,57.68933,11.98011,57.68933134,11.98011450,A,145925.50
18:49:05.990322,2.88873,0.02488,1.56897,1.56897,[7.00000 0.00000 0.00000],[1.30000 0.00000 0.00000],-0.04254,0.06450,-0.01982,0.00000,0.00000,-0.00014,-0.02249,0.06381,-0.02544,1.03523,2.86417,0.00244,1.45848,-1.11361,-1.07607,1.03842,-1.85144,2.88389,1.08964,-1.98298,-1.07992,-1.07992,57.68933,11.98012,57.68933085,11.98011497,A,145925.60
18:49:06.012129,2.91077,0.01211,1.56897,1.56897,[7.00000 0.00000 0.00000],[1.30000 0.00000 0.00000],-0.04359,0.06450,-0.00653,0.00000,0.00000,0.00123,-0.01730,0.13182,-0.05716,0.97350,2.90029,0.01465,1.48058,-1.11289,-1.07535,1.05327,-1.88080,2.88389,1.08964,-1.98298,-1.07992,-1.07992,57.68933,11.98012,57.68933059,11.98011522,A,145925.60
18:49:06.037865,2.93650,0.01188,1.27418,1.27418,[7.00000 0.00000 0.00000],[1.30000 0.00000 0.00000],-0.04415,0.06450,0.00355,0.00000,0.00000,-0.01282,-0.01623,0.08265,-0.05197,0.96441,2.92695,0.02442,1.43930,-1.11200,-1.07446,1.06999,-1.91348,2.88389,1.08964,-1.98298,-1.07992,-1.07992,57.68933,11.98012,57.68933029,11.98011550,A,145925.60
18:49:06.060450,2.95909,0.00968,1.27418,1.27418,[7.00000 0.00000 0.00000],[1.30000 0.00000 0.00000],-0.04446,0.06450,0.00385,0.00000,0.00000,-0.00869,-0.01684,0.04447,-0.03569,0.97277,2.95053,0.01465,1.40627,-1.11137,-1.07383,1.08477,-1.94244,2.88389,1.08964,-1.98298,-1.07992,-1.07992,57.68933,11.98012,57.68933003,11.98011575,A,145925.60
18:49:06.073557,2.97152,0.01005,1.27418,1.27418,[7.00000 0.00000 0.00000],[1.30000 0.00000 0.00000],-0.04468,0.06450,0.00966,0.00000,0.00000,-0.00655,-0.01715,0.10187,-0.03148,0.96301,2.96167,0.00733,1.37985,-1.11164,-1.07410,1.09113,-1.95574,2.88389,1.08964,-1.98298,-1.07992,-1.07992,57.68933,11.98012,57.68932991,11.98011586,A,145925.60
18:49:06.111883,3.01053,0.02485,1.27418,1.27418,[7.00000 0.00000 0.00000],[1.30000 0.00000 0.00000],-0.04406,0.06450,0.00553,0.00000,0.00000,0.00444,-0.01318,0.07521,0.02068,0.99216,2.98662,0.00977,1.35872,-1.09337,-1.05583,1.11879,-2.00653,3.00568,1.17879,-2.11270,-0.96869,-0.96869,57.68933,11.98012,57.68932945,11.98011632,A,145925.70
18:49:06.136902,3.03554,0.01255,1.27418,1.27418,[7.00000 0.00000 0.00000],[1.30000 0.00000 0.00000],-0.04337,0.06450,0.01042,0.00000,0.00000,-0.00182,-0.00661,0.09479,0.00927,1.02486,3.02489,0.01465,1.34181,-1.07890,-1.04135,1.13560,-2.03624,3.00568,1.17879,-2.11270,-0.96869,-0.96869,57.68933,11.98012,57.68932919,11.98011661,A,145925.70
18:49:06.156591,3.05523,0.00816,1.27418,1.27418,[7.00000 0.00000 0.00000],[1.30000 0.00000 0.00000],-0.04382,0.06450,0.01027,0.00000,0.00000,-0.00640,-0.01302,0.04252,-0.05765,1.03236,3.04738,0.00000,1.32828,-1.06687,-1.02933,1.14904,-2.05934,3.00568,1.17879,-2.11270,-0.96869,-0.96869,57.68933,11.98012,57.68932898,11.98011683,A,145925.70
18:49:06.169748,3.06839,0.01049,1.27418,1.27418,[7.00000 0.00000 0.00000],[1.30000 0.00000 0.00000],-0.04414,0.06450,0.00950,0.00000,0.00000,0.00139,-0.01592,0.08656,-0.03959,1.00589,3.05919,0.02442,1.31746,-1.05707,-1.01953,1.15782,-2.07415,3.00568,1.17879,-2.11270,-0.96869,-0.96869,57.68933,11.98012,57.68932885,11.98011698,A,145925.70
18:49:06.196755,3.09540,0.01301,1.72002,1.72002,[7.00000 0.00000 0.00000],[1.30000 0.00000 0.00000],-0.04333,0.06461,0.01912,0.00000,0.00000,-0.02366,0.00026,0.10663,0.01806,0.94440,3.08478,0.01709,1.39797,-1.04800,-1.01039,1.17401,-2.10070,3.00568,1.17879,-2.11270,-0.96869,-0.96869,57.68933,11.98012,57.68932861,11.98011725,A,145925.70
18:49:06.239147,3.13779,0.02923,1.72002,1.72002,[7.00000 0.00000 0.00000],[1.30000 0.00000 0.00000],-0.04255,0.06552,0.02355,0.00000,0.00000,-0.01511,0.00561,0.07582,0.00726,1.02468,3.11220,0.02930,1.46238,-1.08107,-1.04293,1.20538,-2.15436,3.13227,1.22832,-2.26096,-1.24838,-1.24838,57.68933,11.98012,57.68932813,11.98011778,A,145925.80
18:49:06.262915,3.16155,0.01282,1.72002,1.72002,[7.00000 0.00000 0.00000],[1.30000 0.00000 0.00000],-0.04129,0.06773,0.03027,0.00000,0.00000,0.04079,0.00408,0.09034,0.00543,1.01400,3.15075,0.00733,1.51391,-1.11063,-1.07121,1.22079,-2.18416,3.13227,1.22832,-2.26096,-1.24838,-1.24838,57.68933,11.98012,57.68932786,11.98011804,A,145925.80
18:49:06.288577,3.18722,0.01200,1.72002,1.72002,[7.00000 0.00000 0.00000],[1.30000 0.00000 0.00000],-0.04032,0.06875,0.03592,0.00000,0.00000,0.01452,-0.00401,0.12688,0.00531,0.91225,3.17658,0.01465,1.55513,-1.13562,-1.09560,1.23640,-2.21592,3.13227,1.22832,-2.26096,-1.24838,-1.24838,57.68933,11.98012,57.68932757,11.98011830,A,145925.80
18:49:06.314326,3.21274,0.01271,1.72002,1.72002,[7.00000 0.00000 0.00000],[1.30000 0.00000 0.00000],-0.03988,0.06971,0.04203,0.00000,0.00000,-0.01541,-0.00188,0.10181,-0.03703,0.97942,3.20172,0.03175,1.58811,-1.15692,-1.11634,1.25054,-2.24644,3.13227,1.22832,-2.26096,-1.24838,-1.24838,57.68933,11.98012,57.68932730,11.98011854,A,145925.80
18:49:06.357735,3.25638,0.02720,1.50202,1.50202,[7.00000 0.00000 0.00000],[1.30000 0.00000 0.00000],-0.03874,0.07135,0.05013,0.00000,0.00000,0.00856,0.00912,0.02208,-0.02135,1.05420,3.23007,0.03175,1.57089,-1.14810,-1.10657,1.28168,-2.31248,3.25117,1.30756,-2.40922,-1.07992,-1.07992,57.68933,11.98012,57.68932670,11.98011906,A,145925.90
18:49:06.378337,3.27675,0.01096,1.50202,1.50202,[7.00000 0.00000 0.00000],[1.30000 0.00000 0.00000],-0.03727,0.07217,0.05593,0.00000,0.00000,0.02124,0.01492,0.06978,-0.03447,0.98204,3.26619,0.01221,1.55712,-1.14285,-1.10083,1.29372,-2.33878,3.25117,1.30756,-2.40922,-1.07992,-1.07992,57.68933,11.98012,57.68932647,11.98011927,A,145925.90
18:49:06.403508,3.30213,0.01176,1.50202,1.50202,[7.00000 0.00000 0.00000],[1.30000 0.00000 0.00000],-0.03547,0.07217,0.04600,0.00000,0.00000,0.00536,0.00530,0.09522,0.04185,0.94513,3.29182,0.01221,1.54610,-1.13781,-1.09579,1.30976,-2.37251,3.25117,1.30756,-2.40922,-1.07992,-1.07992,57.68933,11.98012,57.68932616,11.98011954,A,145925.90
18:49:06.427520,3.32616,0.01170,1.50202,1.50202,[7.00000 0.00000 0.00000],[1.30000 0.00000 0.00000],-0.03466,0.07268,0.05318,0.00000,0.00000,-0.00029,-0.00218,0.03068,-0.02745,0.96911,3.31635,0.00977,1.53728,-1.13369,-1.09137,1.32417,-2.40258,3.25117,1.30756,-2.40922,-1.07992,-1.07992,57.68933,11.98012,57.68932589,11.98011978,A,145925.90
18:49:06.452574,3.35122,0.01346,1.50202,1.50202,[7.00000 0.00000 0.00000],[1.30000 0.00000 0.00000],-0.03357,0.07449,0.04463,0.00000,0.00000,0.01101,-0.00355,0.03160,0.01391,1.02541,3.33771,0.02198,1.53023,-1.13047,-1.08710,1.33686,-2.42893,3.25117,1.30756,-2.40922,-1.07992,-1.07992,57.68933,11.98012,57.68932566,11.98011999,A,145925.90
18:49:06.503852,3.40249,0.03771,1.91021,1.91021,[7.00000 0.00000 0.00000],[1.30000 0.00000 0.00000],-0.03241,0.07628,0.05471,0.00000,0.00000,0.02888,0.00973,0.11029,-0.01372,0.97881,3.36732,0.01465,1.60623,-1.12924,-1.08483,1.37700,-2.50783,3.39762,1.45615,-2.70574,-1.10627,-1.10627,57.68932,11.98012,57.68932495,11.98012067,A,145926.10
18:49:06.529323,3.42796,0.01253,1.91021,1.91021,[7.00000 0.00000 0.00000],[1.30000 0.00000 0.00000],-0.03029,0.07636,0.04722,0.00000,0.00000,-0.04473,-0.00081,-0.05130,-0.00146,1.05018,3.41794,0.03175,1.66702,-1.13041,-1.08595,1.39711,-2.54830,3.39762,1.45615,-2.70574,-1.10627,-1.10627,57.68932,11.98012,57.68932458,11.98012101,A,145926.10
18:49:06.554805,3.45344,0.01204,1.91021,1.91021,[7.00000 0.00000 0.00000],[1.30000 0.00000 0.00000],-0.02915,0.07636,0.03760,0.00000,0.00000,-0.01037,0.00820,0.10150,0.03184,0.99015,3.44291,0.02686,1.71566,-1.13135,-1.08689,1.41653,-2.58742,3.39762,1.45615,-2.70574,-1.10627,-1.10627,57.68932,11.98012,57.68932423,11.98012133,A,145926.10
18:49:06.572212,3.47085,0.00830,1.91021,1.91021,[7.00000 0.00000 0.00000],[1.30000 0.00000 0.00000],-0.02836,0.07636,0.04173,0.00000,0.00000,-0.01037,0.01294,0.05289,0.01720,0.91573,3.46296,0.01709,1.75457,-1.13276,-1.08830,1.43026,-2.61570,3.39762,1.45615,-2.70574,-1.10627,-1.10627,57.68932,11.98012,57.68932398,11.98012156,A,145926.10
18:49:06.583871,3.48251,0.00965,1.91021,1.91021,[7.00000 0.00000 0.00000],[1.30000 0.00000 0.00000],-0.02725,0.07636,0.03531,0.00000,0.00000,-0.01663,0.01569,0.02769,0.06637,0.93495,3.47327,0.03907,1.78570,-1.13455,-1.09009,1.43859,-2.63362,3.39762,1.45615,-2.70574,-1.10627,-1.10627,57.68932,11.98012,57.68932382,11.98012170,A,145926.10
18:49:06.596030,3.49467,0.00937,1.84316,1.84316,[7.00000 0.00000 0.00000],[1.30000 0.00000 0.00000],-0.02669,0.07636,0.04142,0.00000,0.00000,-0.01007,0.01294,0.03947,0.02324,0.97124,3.48543,0.01709,1.79719,-1.13598,-1.09152,1.44725,-2.65216,3.39762,1.45615,-2.70574,-1.10627,-1.10627,57.68932,11.98012,57.68932365,11.98012185,A,145926.10
18:49:06.621133,3.51977,0.02411,1.84316,1.84316,[7.00000 0.00000 0.00000],[1.30000 0.00000 0.00000],-0.02654,0.07636,0.04188,0.00000,0.00000,-0.00182,0.00958,0.04203,0.00238,1.00833,3.49530,0.01465,1.80638,-1.15414,-1.10968,1.46914,-2.69873,3.51484,1.51559,-2.87254,-1.22848,-1.22848,57.68932,11.98012,57.68932323,11.98012222,A,145926.20
18:49:06.645536,3.54418,0.01226,1.84316,1.84316,[7.00000 0.00000 0.00000],[1.30000 0.00000 0.00000],-0.02622,0.07636,0.01103,0.00000,0.00000,0.00536,-0.00646,0.05935,0.01177,1.08751,3.53434,0.02442,1.81374,-1.16966,-1.12521,1.48863,-2.74198,3.51484,1.51559,-2.87254,-1.22848,-1.22848,57.68932,11.98012,57.68932284,11.98012255,A,145926.20
18:49:06.672309,3.57095,0.01107,1.84316,1.84316,[7.00000 0.00000 0.00000],[1.30000 0.00000 0.00000],-0.02606,0.07636,0.00752,0.00000,0.00000,0.01452,-0.00890,0.06130,0.01739,1.04670,3.56063,0.03175,1.81963,-1.18278,-1.13832,1.50722,-2.78459,3.51484,1.51559,-2.87254,-1.22848,-1.22848,57.68932,11.98012,57.68932246,11.98012286,A,145926.20
18:49:06.693650,3.59227,0.01196,1.84316,1.84316,[7.00000 0.00000 0.00000],[1.30000 0.00000 0.00000],-0.02629,0.07636,0.00080,0.00000,0.00000,-0.00823,-0.00966,0.06875,0.00567,0.91122,3.58157,0.03663,1.82433,-1.19448,-1.15002,1.52049,-2.81684,3.51484,1.51559,-2.87254,-1.22848,-1.22848,57.68932,11.98012,57.68932217,11.98012308,A,145926.20
18:49:06.719337,3.61797,0.01237,1.84316,1.84316,[7.00000 0.00000 0.00000],[1.30000 0.00000 0.00000],-0.02700,0.07611,-0.01844,0.00000,0.00000,-0.00915,-0.02600,0.00653,0.00415,0.92580,3.60693,0.01709,1.82810,-1.20384,-1.15953,1.53664,-2.85626,3.51484,1.51559,-2.87254,-1.22848,-1.22848,57.68932,11.98012,57.68932181,11.98012335,A,145926.20
18:49:06.771837,3.67048,0.03804,1.77011,1.77011,[7.00000 0.00000 0.00000],[1.30000 0.00000 0.00000],-0.02784,0.07279,-0.01569,0.00000,0.00000,0.03239,-0.02829,0.02355,-0.01049,1.00906,3.63492,0.01954,1.81650,-1.19491,-1.15254,1.57747,-2.95224,3.66561,1.64436,-3.15052,-1.13699,-1.13699,57.68932,11.98013,57.68932095,11.98012404,A,145926.40
18:49:06.797698,3.69633,0.01333,1.77011,1.77011,[7.00000 0.00000 0.00000],[1.30000 0.00000 0.00000],-0.02969,0.06193,-0.03937,0.00000,0.00000,-0.01358,-0.04158,0.01513,0.01824,1.02779,3.68480,0.02442,1.80722,-1.18956,-1.15352,1.59565,-2.99553,3.66561,1.64436,-3.15052,-1.13699,-1.13699,57.68932,11.98013,57.68932056,11.98012435,A,145926.40
18:49:06.822608,3.72124,0.01397,1.77011,1.77011,[7.00000 0.00000 0.00000],[1.30000 0.00000 0.00000],-0.03086,0.05805,-0.03387,0.00000,0.00000,-0.00747,-0.06602,0.02141,-0.01513,1.05573,3.70922,0.03419,1.79980,-1.18503,-1.15125,1.61250,-3.03580,3.66561,1.64436,-3.15052,-1.13699,-1.13699,57.68932,11.98013,57.68932020,11.98012463,A,145926.40
18:49:06.848676,3.74731,0.01297,1.77011,1.77011,[7.00000 0.00000 0.00000],[1.30000 0.00000 0.00000],-0.03267,0.05621,-0.03631,0.00000,0.00000,0.01513,-0.04983,0.00165,-0.04477,0.96612,3.73662,0.04396,1.79386,-1.18091,-1.14820,1.63050,-3.07830,3.66561,1.64436,-3.15052,-1.13699,-1.13699,57.68932,11.98013,57.68931982,11.98012493,A,145926.40
18:49:06.890034,3.78867,0.03265,2.01187,2.01187,[7.00000 0.00000 0.00000],[1.30000 0.00000 0.00000],-0.03176,0.05598,-0.00546,0.00000,0.00000,-0.01190,-0.02264,0.08900,0.07582,0.92080,3.76257,0.03419,1.83746,-1.18221,-1.14963,1.66247,-3.15211,3.78364,1.71370,-3.31732,-1.17680,-1.17680,57.68932,11.98013,57.68931915,11.98012547,A,145926.50
18:49:06.909692,3.80832,0.01072,2.01187,2.01187,[7.00000 0.00000 0.00000],[1.30000 0.00000 0.00000],-0.03185,0.05598,0.00782,0.00000,0.00000,0.00352,-0.02631,-0.02532,-0.01409,1.05579,3.79849,0.02198,1.87235,-1.18506,-1.15248,1.67653,-3.18603,3.78364,1.71370,-3.31732,-1.17680,-1.17680,57.68932,11.98013,57.68931885,11.98012571,A,145926.50
18:49:06.935559,3.83420,0.01156,2.01187,2.01187,[7.00000 0.00000 0.00000],[1.30000 0.00000 0.00000],-0.03156,0.05598,-0.00149,0.00000,0.00000,0.00688,-0.04616,0.09339,0.03324,0.99906,3.82436,0.01465,1.90025,-1.18685,-1.15427,1.69574,-3.23162,3.78364,1.71370,-3.31732,-1.17680,-1.17680,57.68932,11.98013,57.68931844,11.98012603,A,145926.50
18:49:06.962033,3.86067,0.01349,2.01187,2.01187,[7.00000 0.00000 0.00000],[1.30000 0.00000 0.00000],-0.03205,0.05598,0.00584,0.00000,0.00000,-0.01816,-0.04968,0.04148,-0.02861,0.96783,3.84953,0.02930,1.92258,-1.18843,-1.15586,1.71328,-3.27353,3.78364,1.71370,-3.31732,-1.17680,-1.17680,57.68932,11.98013,57.68931806,11.98012633,A,145926.50
18:49:06.986498,3.88460,0.01106,1.97014,1.97014,[7.00000 0.00000 0.00000],[1.30000 0.00000 0.00000],-0.03184,0.05598,0.01240,0.00000,0.00000,-0.01098,-0.03471,-0.02373,0.00494,0.97612,3.87397,0.01465,1.93209,-1.18990,-1.15733,1.72877,-3.31084,3.78364,1.71370,-3.31732,-1.17680,-1.17680,57.68932,11.98013,57.68931772,11.98012659,A,145926.50
18:49:07.026762,3.92540,0.02802,1.97014,1.97014,[7.00000 0.00000 0.00000],[1.30000 0.00000 0.00000],-0.03073,0.05598,0.02340,0.00000,0.00000,0.02979,-0.01425,0.01488,0.04630,0.97161,3.89832,0.01954,1.93970,-1.18319,-1.15061,1.76022,-3.38406,3.92023,1.78304,-3.46558,-1.13332,-1.13332,57.68932,11.98013,57.68931707,11.98012712,A,145926.60
18:49:07.053256,3.95189,0.01326,1.97014,1.97014,[7.00000 0.00000 0.00000],[1.30000 0.00000 0.00000],-0.02920,0.05598,0.03440,0.00000,0.00000,-0.00732,-0.02219,0.02068,0.01982,1.02279,3.94020,0.03663,1.94579,-1.17882,-1.14625,1.77794,-3.42526,3.92023,1.78304,-3.46558,-1.13332,-1.13332,57.68932,11.98013,57.68931670,11.98012741,A,145926.60
18:49:07.081042,3.97968,0.01366,1.97014,1.97014,[7.00000 0.00000 0.00000],[1.30000 0.00000 0.00000],-0.02953,0.05598,0.01607,0.00000,0.00000,-0.00549,-0.04311,0.09424,-0.04130,1.05030,3.96827,0.02686,1.95066,-1.17488,-1.14231,1.79713,-3.46914,3.92023,1.78304,-3.46558,-1.13332,-1.13332,57.68932,11.98013,57.68931630,11.98012774,A,145926.60
18:49:07.105341,4.00398,0.01182,2.28542,2.28542,[7.00000 0.00000 0.00000],[1.30000 0.00000 0.00000],-0.02903,0.05598,0.02539,0.00000,0.00000,-0.00900,-0.03349,0.03453,0.01324,0.99003,3.99228,0.01954,2.01761,-1.17196,-1.13939,1.81142,-3.50180,3.92023,1.78304,-3.46558,-1.13332,-1.13332,57.68932,11.98013,57.68931601,11.98012798,A,145926.60
18:49:07.144335,4.04297,0.02695,2.28542,2.28542,[7.00000 0.00000 0.00000],[1.30000 0.00000 0.00000],-0.02812,0.05638,0.04325,0.00000,0.00000,0.00062,-0.01348,0.04313,0.01293,0.93312,4.01631,0.01954,2.07117,-1.15997,-1.12716,1.84430,-3.57315,4.03806,1.87219,-3.63237,-1.07992,-1.07992,57.68931,11.98013,57.68931537,11.98012853,A,145926.70
18:49:07.170597,4.06922,0.01356,2.28542,2.28542,[7.00000 0.00000 0.00000],[1.30000 0.00000 0.00000],-0.02691,0.05717,0.04218,0.00000,0.00000,-0.00136,-0.00401,0.00976,-0.01049,0.98228,4.05724,0.02198,2.11402,-1.15105,-1.11778,1.86427,-3.61521,4.03806,1.87219,-3.63237,-1.07992,-1.07992,57.68931,11.98013,57.68931499,11.98012887,A,145926.70
18:49:07.189364,4.08800,0.00941,2.28542,2.28542,[7.00000 0.00000 0.00000],[1.30000 0.00000 0.00000],-0.02510,0.05717,0.04386,0.00000,0.00000,0.00398,-0.02020,-0.01360,0.08400,1.05018,4.07889,0.03419,2.14830,-1.14390,-1.11063,1.87912,-3.64575,4.03806,1.87219,-3.63237,-1.07992,-1.07992,57.68931,11.98013,57.68931471,11.98012912,A,145926.70
18:49:07.200357,4.09900,0.00890,2.28542,2.28542,[7.00000 0.00000 0.00000],[1.30000 0.00000 0.00000],-0.02497,0.05723,0.04173,0.00000,0.00000,0.00200,-0.02662,0.01494,-0.00061,1.05695,4.09058,0.03907,2.17573,-1.13850,-1.10520,1.88675,-3.66118,4.03806,1.87219,-3.63237,-1.07992,-1.07992,57.68931,11.98013,57.68931457,11.98012924,A,145926.70
18:49:07.214544,4.11317,0.01287,2.28542,2.28542,[7.00000 0.00000 0.00000],[1.30000 0.00000 0.00000],-0.02450,0.05743,0.04845,0.00000,0.00000,0.00352,-0.02784,0.07662,0.02129,1.05011,4.10147,0.02686,2.19767,-1.13388,-1.10047,1.89454,-3.67669,4.03806,1.87219,-3.63237,-1.07992,-1.07992,57.68931,11.98013,57.68931443,11.98012938,A,145926.70
18:49:07.240158,4.13877,0.01147,1.67826,1.67826,[7.00000 0.00000 0.00000],[1.30000 0.00000 0.00000],-0.02392,0.05867,0.04554,0.00000,0.00000,0.00429,-0.01562,0.07100,-0.02714,0.97033,4.12853,0.03175,2.09378,-1.12885,-1.09471,1.91431,-3.71555,4.03806,1.87219,-3.63237,-1.07992,-1.07992,57.68931,11.98013,57.68931409,11.98012971,A,145926.70
18:49:07.289945,4.18859,0.03823,1.67826,1.67826,[7.00000 0.00000 0.00000],[1.30000 0.00000 0.00000],-0.02257,0.06014,0.04661,0.00000,0.00000,-0.01129,-0.00646,0.05905,0.02696,0.90329,4.15357,0.01954,2.01068,-1.13526,-1.10026,1.96549,-3.81790,4.18373,2.03069,-4.00302,-1.16672,-1.16672,57.68931,11.98013,57.68931316,11.98013057,A,145926.90
18:49:07.312428,4.21107,0.01241,1.67826,1.67826,[7.00000 0.00000 0.00000],[1.30000 0.00000 0.00000],-0.02074,0.06113,0.04875,0.00000,0.00000,-0.02122,-0.00997,0.04795,-0.00811,0.98112,4.19940,0.03419,1.94420,-1.14371,-1.10814,1.98425,-3.85763,4.18373,2.03069,-4.00302,-1.16672,-1.16672,57.68931,11.98013,57.68931281,11.98013089,A,145926.90
18:49:07.336573,4.23523,0.01303,1.67826,1.67826,[7.00000 0.00000 0.00000],[1.30000 0.00000 0.00000],-0.01957,0.06128,0.04173,0.00000,0.00000,-0.00976,-0.01745,-0.00616,0.03099,1.08818,4.22374,0.03663,1.89101,-1.15076,-1.11510,2.00306,-3.89795,4.18373,2.03069,-4.00302,-1.16672,-1.16672,57.68931,11.98013,57.68931244,11.98013120,A,145926.90
18:49:07.363051,4.26169,0.01434,2.11722,2.11722,[7.00000 0.00000 0.00000],[1.30000 0.00000 0.00000],-0.01886,0.06170,0.02936,0.00000,0.00000,-0.00885,-0.02035,0.06801,0.02239,0.96996,4.25113,0.02198,1.93625,-1.15650,-1.12059,2.02324,-3.94156,4.18373,2.03069,-4.00302,-1.16672,-1.16672,57.68931,11.98013,57.68931205,11.98013154,A,145926.90
18:49:07.388614,4.28725,0.01163,2.11722,2.11722,[7.00000 0.00000 0.00000],[1.30000 0.00000 0.00000],-0.01804,0.06173,0.02676,0.00000,0.00000,-0.03221,-0.01394,0.02849,0.03739,0.91573,4.27676,0.02686,1.97244,-1.16143,-1.12550,2.04166,-3.98198,4.18373,2.03069,-4.00302,-1.16672,-1.16672,57.68931,11.98013,57.68931169,11.98013185,A,145926.90
18:49:07.424085,4.32273,0.02378,2.11722,2.11722,[7.00000 0.00000 0.00000],[1.30000 0.00000 0.00000],-0.01658,0.06173,0.03211,0.00000,0.00000,-0.02244,-0.01623,-0.08296,0.08217,1.03639,4.29898,0.04396,2.00140,-1.16608,-1.13016,2.07182,-4.04845,4.31786,2.10003,-4.16981,-1.17680,-1.17680,57.68931,11.98013,57.68931109,11.98013236,A,145927.00
18:49:07.449396,4.34803,0.01154,2.11722,2.11722,[7.00000 0.00000 0.00000],[1.30000 0.00000 0.00000],-0.01700,0.06173,0.01653,0.00000,0.00000,0.02139,-0.02432,0.09058,-0.03556,0.95312,4.33686,0.01709,2.02456,-1.17115,-1.13523,2.09033,-4.09077,4.31786,2.10003,-4.16981,-1.17680,-1.17680,57.68931,11.98013,57.68931071,11.98013267,A,145927.00
18:49:07.475917,4.37456,0.01389,2.11722,2.11722,[7.00000 0.00000 0.00000],[1.30000 0.00000 0.00000],-0.01592,0.06173,0.02386,0.00000,0.00000,0.00337,-0.02402,-0.02172,0.06259,1.00247,4.36273,0.05128,2.04310,-1.17521,-1.13928,2.10997,-4.13590,4.31786,2.10003,-4.16981,-1.17680,-1.17680,57.68931,11.98013,57.68931030,11.98013300,A,145927.00
18:49:07.499008,4.39764,0.01074,1.71479,1.71479,[7.00000 0.00000 0.00000],[1.30000 0.00000 0.00000],-0.01589,0.06173,0.01042,0.00000,0.00000,0.01406,-0.03135,-0.02123,0.00909,1.03425,4.38700,0.03175,1.97743,-1.17902,-1.14309,2.12529,-4.17194,4.31786,2.10003,-4.16981,-1.17680,-1.17680,57.68931,11.98013,57.68930998,11.98013326,A,145927.00
18:49:07.538297,4.43672,0.02708,1.71479,1.71479,[7.00000 0.00000 0.00000],[1.30000 0.00000 0.00000],-0.01564,0.06173,0.00034,0.00000,0.00000,0.01788,-0.03654,-0.00421,0.03971,1.00174,4.41140,0.03419,1.92491,-1.18059,-1.14467,2.15756,-4.24614,4.43186,2.16937,-4.33660,-1.17680,-1.17680,57.68931,11.98013,57.68930931,11.98013380,A,145927.10
18:49:07.564633,4.46327,0.01318,1.71479,1.71479,[7.00000 0.00000 0.00000],[1.30000 0.00000 0.00000],-0.01562,0.06173,0.00355,0.00000,0.00000,0.01864,-0.03578,-0.00512,0.01586,0.93275,4.45173,0.01954,1.88288,-1.18338,-1.14746,2.17559,-4.28908,4.43186,2.16937,-4.33660,-1.17680,-1.17680,57.68931,11.98013,57.68930893,11.98013410,A,145927.10
18:49:07.589673,4.48831,0.01251,1.71479,1.71479,[7.00000 0.00000 0.00000],[1.30000 0.00000 0.00000],-0.01574,0.06170,-0.01279,0.00000,0.00000,0.01498,-0.03837,0.00720,0.03709,0.96953,4.47707,0.02442,1.84927,-1.18599,-1.15008,2.19061,-4.32546,4.43186,2.16937,-4.33660,-1.17680,-1.17680,57.68931,11.98013,57.68930860,11.98013436,A,145927.10
18:49:07.610587,4.50922,0.00872,2.13671,2.13671,[7.00000 0.00000 0.00000],[1.30000 0.00000 0.00000],-0.01624,0.06102,-0.00745,0.00000,0.00000,0.02399,-0.03914,-0.03422,0.00939,1.06384,4.50016,0.03419,1.90676,-1.18832,-1.15281,2.20332,-4.35680,4.43186,2.16937,-4.33660,-1.17680,-1.17680,57.68931,11.98013,57.68930832,11.98013457,A,145927.10
18:49:07.622830,4.52146,0.01029,2.13671,2.13671,[7.00000 0.00000 0.00000],[1.30000 0.00000 0.00000],-0.01743,0.06020,-0.01340,0.00000,0.00000,0.01651,-0.05227,0.02525,-0.04105,1.04713,4.51163,0.01954,1.95275,-1.19106,-1.15603,2.20832,-4.37088,4.43186,2.16937,-4.33660,-1.17680,-1.17680,57.68931,11.98013,57.68930819,11.98013466,A,145927.10
18:49:07.672030,4.57067,0.03643,2.13671,2.13671,[7.00000 0.00000 0.00000],[1.30000 0.00000 0.00000],-0.01812,0.05771,-0.01844,0.00000,0.00000,-0.01144,-0.05746,0.07771,0.01177,1.00125,4.53515,0.02442,1.98954,-1.18901,-1.15543,2.24950,-4.46785,4.56580,2.31795,-4.68872,-1.17149,-1.17149,57.68931,11.98014,57.68930732,11.98013535,A,145927.30
18:49:07.695190,4.59383,0.01219,2.13671,2.13671,[7.00000 0.00000 0.00000],[1.30000 0.00000 0.00000],-0.01877,0.05612,-0.00730,0.00000,0.00000,-0.00549,-0.05410,0.01861,0.00805,0.93916,4.58277,0.03663,2.01897,-1.18969,-1.15703,2.26725,-4.51138,4.56580,2.31795,-4.68872,-1.17149,-1.17149,57.68931,11.98014,57.68930693,11.98013565,A,145927.30
18:49:07.716727,4.61537,0.00961,2.13671,2.13671,[7.00000 0.00000 0.00000],[1.30000 0.00000 0.00000],-0.01864,0.05601,0.00401,0.00000,0.00000,-0.00426,-0.04815,-0.02348,0.02910,0.94239,4.60655,0.03663,2.04252,-1.19027,-1.15768,2.28425,-4.55317,4.56580,2.31795,-4.68872,-1.17149,-1.17149,57.68931,11.98014,57.68930655,11.98013593,A,145927.30
18:49:07.729540,4.62818,0.01005,1.93996,1.93996,[7.00000 0.00000 0.00000],[1.30000 0.00000 0.00000],-0.01889,0.05584,0.01653,0.00000,0.00000,0.00047,-0.04647,-0.01336,-0.00586,0.99198,4.61835,0.02442,2.02201,-1.19155,-1.15906,2.29311,-4.57633,4.56580,2.31795,-4.68872,-1.17149,-1.17149,57.68931,11.98014,57.68930634,11.98013608,A,145927.30
18:49:07.754676,4.65331,0.01275,1.93996,1.93996,[7.00000 0.00000 0.00000],[1.30000 0.00000 0.00000],-0.01906,0.05528,0.01821,0.00000,0.00000,0.01315,-0.03960,0.01684,-0.01836,1.02382,4.64255,0.03419,2.00560,-1.19161,-1.15945,2.31047,-4.61885,4.56580,2.31795,-4.68872,-1.17149,-1.17149,57.68931,11.98014,57.68930596,11.98013637,A,145927.30
18:49:07.795950,4.69459,0.02810,1.93996,1.93996,[7.00000 0.00000 0.00000],[1.30000 0.00000 0.00000],-0.01815,0.05485,0.02035,0.00000,0.00000,0.01528,-0.04357,-0.03666,0.04898,1.02925,4.66903,0.04884,1.99247,-1.18349,-1.15157,2.34511,-4.70015,4.68972,2.39720,-4.85551,-1.12725,-1.12725,57.68930,11.98014,57.68930523,11.98013696,A,145927.40
18:49:07.817803,4.71644,0.00947,1.93996,1.93996,[7.00000 0.00000 0.00000],[1.30000 0.00000 0.00000],-0.01772,0.05482,0.02096,0.00000,0.00000,0.00322,-0.05059,0.07967,0.00018,0.94349,4.70765,0.02442,1.98197,-1.17833,-1.14643,2.36205,-4.74008,4.68972,2.39720,-4.85551,-1.12725,-1.12725,57.68930,11.98014,57.68930487,11.98013724,A,145927.40
18:49:07.830969,4.72961,0.01188,1.93996,1.93996,[7.00000 0.00000 0.00000],[1.30000 0.00000 0.00000],-0.01715,0.05482,0.01454,0.00000,0.00000,-0.00747,-0.04800,-0.05094,0.05124,0.95215,4.71760,0.01709,1.97357,-1.17467,-1.14277,2.37139,-4.76264,4.68972,2.39720,-4.85551,-1.12725,-1.12725,57.68930,11.98014,57.68930467,11.98013740,A,145927.40
18:49:07.856463,4.75511,0.01295,1.93996,1.93996,[7.00000 0.00000 0.00000],[1.30000 0.00000 0.00000],-0.01650,0.05482,0.02096,0.00000,0.00000,0.00520,-0.05059,-0.05264,0.03105,1.03432,4.74449,0.02930,1.96685,-1.17058,-1.13868,2.38978,-4.80476,4.68972,2.39720,-4.85551,-1.12725,-1.12725,57.68930,11.98014,57.68930429,11.98013771,A,145927.40
18:49:07.879492,4.77812,0.01107,1.80025,1.80025,[7.00000 0.00000 0.00000],[1.30000 0.00000 0.00000],-0.01609,0.05482,0.02508,0.00000,0.00000,0.01253,-0.04769,0.00982,0.01147,1.03633,4.76805,0.01709,1.93353,-1.16728,-1.13538,2.40576,-4.84116,4.68972,2.39720,-4.85551,-1.12725,-1.12725,57.68930,11.98014,57.68930396,11.98013798,A,145927.40
18:49:07.918720,4.81736,0.02660,1.80025,1.80025,[7.00000 0.00000 0.00000],[1.30000 0.00000 0.00000],-0.01555,0.05482,0.02203,0.00000,0.00000,-0.00946,-0.04937,0.02818,0.02538,0.97197,4.79130,0.01465,1.90687,-1.17583,-1.14393,2.43903,-4.91612,4.81230,2.46654,-5.04084,-1.21277,-1.21277,57.68930,11.98014,57.68930329,11.98013854,A,145927.50
18:49:07.942484,4.84110,0.01235,1.80025,1.80025,[7.00000 0.00000 0.00000],[1.30000 0.00000 0.00000],-0.01494,0.05482,0.02768,0.00000,0.00000,-0.03023,-0.04800,-0.02532,-0.00647,0.99839,4.83048,0.03663,1.88555,-1.18452,-1.15262,2.45623,-4.95714,4.81230,2.46654,-5.04084,-1.21277,-1.21277,57.68930,11.98014,57.68930292,11.98013883,A,145927.50
18:49:07.969908,4.86855,0.01122,1.80025,1.80025,[7.00000 0.00000 0.00000],[1.30000 0.00000 0.00000],-0.01412,0.05482,0.03302,0.00000,0.00000,-0.00823,-0.04586,-0.04056,0.01671,0.98472,4.85903,0.02686,1.86849,-1.19160,-1.15970,2.47523,-5.00293,4.81230,2.46654,-5.04084,-1.21277,-1.21277,57.68930,11.98014,57.68930251,11.98013915,A,145927.50
18:49:07.994839,4.89309,0.01146,2.02218,2.02218,[7.00000 0.00000 0.00000],[1.30000 0.00000 0.00000],-0.01336,0.05479,0.03027,0.00000,0.00000,0.00612,-0.04219,-0.02208,0.03318,0.95636,4.88213,0.01709,1.89923,-1.19796,-1.16608,2.48977,-5.03918,4.81230,2.46654,-5.04084,-1.21277,-1.21277,57.68930,11.98014,57.68930218,11.98013939,A,145927.50
18:49:08.011937,4.91057,0.00905,2.02218,2.02218,[7.00000 0.00000 0.00000],[1.30000 0.00000 0.00000],-0.01302,0.05423,0.03165,0.00000,0.00000,-0.00090,-0.04677,0.00720,0.00976,1.01211,4.90268,0.03419,1.92382,-1.20372,-1.17217,2.49962,-5.06497,4.81230,2.46654,-5.04084,-1.21277,-1.21277,57.68930,11.98014,57.68930195,11.98013956,A,145927.50
18:49:08.039521,4.93817,0.02659,2.02218,2.02218,[7.00000 0.00000 0.00000],[1.30000 0.00000 0.00000],-0.01290,0.05363,0.03134,0.00000,0.00000,-0.00900,-0.05151,0.02294,0.01708,1.01791,4.91270,0.03419,1.94349,-1.20237,-1.17116,2.51978,-5.11565,4.93330,2.53588,-5.20763,-1.17680,-1.17680,57.68930,11.98014,57.68930149,11.98013990,A,145927.60
18:49:08.060415,4.95906,0.00973,2.02218,2.02218,[7.00000 0.00000 0.00000],[1.30000 0.00000 0.00000],-0.01230,0.05103,0.02096,0.00000,0.00000,-0.02488,-0.05792,0.04435,0.01745,1.02236,4.95049,0.02198,1.95923,-1.20161,-1.17192,2.53342,-5.15063,4.93330,2.53588,-5.20763,-1.17680,-1.17680,57.68930,11.98014,57.68930118,11.98014013,A,145927.60
18:49:08.073898,4.97254,0.01222,2.02218,2.02218,[7.00000 0.00000 0.00000],[1.30000 0.00000 0.00000],-0.01253,0.05029,0.01592,0.00000,0.00000,-0.03328,-0.06189,-0.01671,0.00281,0.99186,4.96120,0.01709,1.97182,-1.20159,-1.17233,2.54026,-5.16943,4.93330,2.53588,-5.20763,-1.17680,-1.17680,57.68930,11.98014,57.68930101,11.98014024,A,145927.60
18:49:08.096297,4.99494,0.01159,2.02218,2.02218,[7.00000 0.00000 0.00000],[1.30000 0.00000 0.00000],-0.01235,0.04905,0.00782,0.00000,0.00000,-0.03649,-0.06876,0.01476,0.02800,0.99223,4.98609,0.02442,1.98189,-1.20067,-1.17214,2.55472,-5.20622,4.93330,2.53588,-5.20763,-1.17680,-1.17680,57.68930,11.98014,57.68930068,11.98014048,A,145927.60
18:49:08.122009,5.02065,0.01075,1.90158,1.90158,[7.00000 0.00000 0.00000],[1.30000 0.00000 0.00000],-0.01208,0.04758,0.00645,0.00000,0.00000,-0.01297,-0.05930,-0.00293,0.03355,0.98594,5.01213,0.02442,1.96583,-1.19953,-1.17185,2.57120,-5.24763,4.93330,2.53588,-5.20763,-1.17680,-1.17680,57.68930,11.98014,57.68930031,11.98014076,A,145927.60
18:49:08.181775,5.07944,0.04311,1.90158,1.90158,[7.00000 0.00000 0.00000],[1.30000 0.00000 0.00000],0.00000,0.04608,0.00660,0.00000,0.00000,-0.00900,-0.06159,0.03867,0.04435,0.98033,5.03914,0.01221,1.90158,-1.14792,-1.12111,2.67456,-5.54121,5.06959,2.67456,-5.54121,-1.17680,-1.17680,57.68930,11.98014,57.68929937,11.98014148,A,145927.80
18:49:08.209154,5.10779,0.01370,1.90158,1.90158,[7.00000 0.00000 0.00000],[1.30000 0.00000 0.00000],-0.00010,0.00247,0.00202,-0.01322,0.00000,-0.03633,-0.07121,-0.02287,0.01177,1.06884,5.09581,0.00733,1.90158,-1.15060,-1.14917,2.69710,-5.58792,5.06959,2.67456,-5.54121,-1.17680,-1.17680,57.68930,11.98014,57.68929725,11.98014288,A,145927.80
18:49:08.237952,5.13659,0.01393,2.19590,2.19590,[7.00000 0.00000 0.00000],[1.30000 0.00000 0.00000],-0.00032,0.00213,-0.00714,0.05291,0.00000,-0.02809,-0.07625,-0.02532,0.02208,0.91689,5.12408,0.01954,1.96045,-1.15463,-1.15339,2.71507,-5.62815,5.06959,2.67456,-5.54121,-1.17680,-1.17680,57.68930,11.98014,57.68929688,11.98014318,A,145927.80
18:49:08.264877,5.16351,0.01518,2.19590,2.19590,[7.00000 0.00000 0.00000],[1.30000 0.00000 0.00000],0.00003,0.00213,-0.00500,0.03475,0.00000,-0.02748,-0.06082,0.00055,0.05447,0.94477,5.15148,0.01465,2.00754,-1.15807,-1.15684,2.73005,-5.66215,5.06959,2.67456,-5.54121,-1.17680,-1.17680,57.68930,11.98014,57.68929658,11.98014343,A,145927.80
18:49:08.302907,5.20155,0.02763,2.19590,2.19590,[7.00000 0.00000 0.00000],[1.30000 0.00000 0.00000],-0.00004,0.00213,0.00080,-0.00525,0.00000,-0.03588,-0.05487,0.06149,0.01934,0.98771,5.17666,0.00733,2.04521,-1.15443,-1.15320,2.75849,-5.72666,5.19652,2.74390,-5.68947,-1.13332,-1.13332,57.68930,11.98014,57.68929600,11.98014391,A,145927.90
18:49:08.324368,5.22301,0.01066,2.19590,2.19590,[7.00000 0.00000 0.00000],[1.30000 0.00000 0.00000],0.00067,0.00213,-0.00562,0.03320,0.00000,-0.02045,-0.06754,-0.00964,0.08863,1.02541,5.21346,0.00733,2.07535,-1.15139,-1.15016,2.77229,-5.75756,5.19652,2.74390,-5.68947,-1.13332,-1.13332,57.68930,11.98014,57.68929572,11.98014414,A,145927.90
18:49:08.345028,5.24367,0.00998,2.19590,2.19590,[7.00000 0.00000 0.00000],[1.30000 0.00000 0.00000],-0.00034,0.00213,-0.01004,0.07343,0.00000,-0.03374,-0.07014,0.00555,-0.02727,0.95813,5.23321,0.00977,2.09946,-1.14881,-1.14757,2.78489,-5.78550,5.19652,2.74390,-5.68947,-1.13332,-1.13332,57.68930,11.98014,57.68929547,11.98014436,A,145927.90
18:49:08.356613,5.25524,0.01057,2.19590,2.19590,[7.00000 0.00000 0.00000],[1.30000 0.00000 0.00000],-0.00013,0.00213,-0.01035,0.07367,0.00000,-0.03847,-0.06357,-0.02727,0.04593,0.98594,5.24434,0.01221,2.11874,-1.14665,-1.14541,2.78864,-5.79357,5.19652,2.74390,-5.68947,-1.13332,-1.13332,57.68930,11.98014,57.68929540,11.98014442,A,145927.90
18:49:08.381951,5.28058,0.01147,1.59112,1.59112,[7.00000 0.00000 0.00000],[1.30000 0.00000 0.00000],-0.00076,0.00213,-0.00974,0.07505,0.00000,-0.01755,-0.06770,0.02275,-0.00030,0.94172,5.26964,0.00000,2.01322,-1.14476,-1.14352,2.80533,-5.83014,5.19652,2.74390,-5.68947,-1.13332,-1.13332,57.68930,11.98014,57.68929507,11.98014470,A,145927.90
18:49:08.419687,5.31833,0.02672,1.59112,1.59112,[7.00000 0.00000 0.00000],[1.30000 0.00000 0.00000],-0.00125,0.00213,-0.01218,0.09667,0.00000,-0.01373,-0.06021,0.06069,0.00921,0.89200,5.29348,0.00000,1.92880,-1.13510,-1.13387,2.83484,-5.89352,5.31357,2.81324,-5.81920,-1.07992,-1.07992,57.68930,11.98014,57.68929450,11.98014520,A,145928.00
18:49:08.443415,5.34205,0.01195,1.59112,1.59112,[7.00000 0.00000 0.00000],[1.30000 0.00000 0.00000],-0.00196,0.00346,-0.02073,0.16299,0.00000,-0.01388,-0.06113,0.02910,0.03050,1.06896,5.33154,0.00000,1.86126,-1.12707,-1.12506,2.84950,-5.92352,5.31357,2.81324,-5.81920,-1.07992,-1.07992,57.68930,11.98014,57.68929423,11.98014544,A,145928.00
18:49:08.467916,5.36604,0.01447,1.59112,1.59112,[7.00000 0.00000 0.00000],[1.30000 0.00000 0.00000],-0.00249,0.00612,-0.02241,0.17952,0.00000,0.00200,-0.07854,0.14207,0.02538,1.06018,5.35537,0.00000,1.80723,-1.12043,-1.11688,2.86313,-5.95062,5.31357,2.81324,-5.81920,-1.07992,-1.07992,57.68930,11.98014,57.68929398,11.98014567,A,145928.00
18:49:08.492572,5.39041,0.01230,1.59112,1.59112,[7.00000 0.00000 0.00000],[1.30000 0.00000 0.00000],-0.00331,0.00948,-0.01860,0.16028,0.00000,-0.02595,-0.07671,0.02440,0.00061,1.01821,5.38109,0.00000,1.76401,-1.11500,-1.10948,2.87797,-5.97958,5.31357,2.81324,-5.81920,-1.07992,-1.07992,57.68930,11.98014,57.68929372,11.98014592,A,145928.00
18:49:08.519312,5.41795,0.01317,1.94433,1.94433,[7.00000 0.00000 0.00000],[1.30000 0.00000 0.00000],-0.00356,0.01291,-0.01600,0.14438,0.00000,-0.02458,-0.05670,-0.04172,0.03556,0.99955,5.40667,0.00000,1.80007,-1.11057,-1.10307,2.89210,-6.00649,5.31357,2.81324,-5.81920,-1.07992,-1.07992,57.68930,11.98014,57.68929348,11.98014616,A,145928.00
18:49:08.569417,5.46805,0.03787,1.94433,1.94433,[7.00000 0.00000 0.00000],[1.30000 0.00000 0.00000],-0.00306,0.01647,0.01836,-0.10072,0.00000,-0.03038,-0.02829,-0.00976,0.02861,0.95136,5.43149,0.00000,1.82893,-1.12885,-1.11927,2.93194,-6.08873,5.46329,2.93211,-6.15279,-1.22848,-1.22848,57.68929,11.98015,57.68929274,11.98014683,A,145928.20
18:49:08.595635,5.49427,0.01212,1.94433,1.94433,[7.00000 0.00000 0.00000],[1.30000 0.00000 0.00000],-0.00118,0.02233,0.03134,-0.20864,0.00000,0.00016,-0.03028,0.06875,0.04709,1.02565,5.48371,0.00000,1.85201,-1.14526,-1.13227,2.94851,-6.12608,5.46329,2.93211,-6.15279,-1.22848,-1.22848,57.68929,11.98015,57.68929241,11.98014711,A,145928.20
18:49:08.621342,5.51996,0.01384,1.94433,1.94433,[7.00000 0.00000 0.00000],[1.30000 0.00000 0.00000],0.00019,0.02199,0.04005,-0.28205,0.00000,-0.01801,-0.02432,-0.02409,0.05746,0.95544,5.50728,0.24176,1.87047,-1.15894,-1.14615,2.96540,-6.16517,5.46329,2.93211,-6.15279,-1.22848,-1.22848,57.68929,11.98015,57.68929206,11.98014739,A,145928.20
18:49:08.644014,5.54265,0.01174,1.94433,1.94433,[7.00000 0.00000 0.00000],[1.30000 0.00000 0.00000],0.00072,0.01800,0.02997,-0.21629,0.00000,-0.02351,-0.02142,0.01873,0.01861,0.98838,5.53107,0.19292,1.88524,-1.17032,-1.15985,2.97864,-6.19753,5.46329,2.93211,-6.15279,-1.22848,-1.22848,57.68929,11.98015,57.68929176,11.98014762,A,145928.20
18:49:08.683379,5.58202,0.02725,1.59714,1.59714,[7.00000 0.00000 0.00000],[1.30000 0.00000 0.00000],0.00155,0.01062,0.02997,-0.22384,0.00000,-0.01159,-0.02875,-0.04087,0.03501,1.06488,5.55639,0.09035,1.82762,-1.17125,-1.16508,3.00731,-6.26679,5.57728,3.00145,-6.31958,-1.17680,-1.17680,57.68929,11.98015,57.68929114,11.98014810,A,145928.30
18:49:08.705437,5.60408,0.01246,1.59714,1.59714,[7.00000 0.00000 0.00000],[1.30000 0.00000 0.00000],0.00216,0.00283,0.02569,-0.19952,0.00000,0.02109,-0.03731,0.04685,0.00799,0.96636,5.59175,0.33211,1.78153,-1.17207,-1.17042,3.01968,-6.29891,5.57728,3.00145,-6.31958,-1.17680,-1.17680,57.68929,11.98015,57.68929085,11.98014831,A,145928.30
18:49:08.731371,5.63001,0.01329,1.59714,1.59714,[7.00000 0.00000 0.00000],[1.30000 0.00000 0.00000],0.00211,-0.00102,0.01531,-0.12638,0.00000,-0.00106,-0.03914,0.06393,-0.00317,0.95508,5.61818,1.54090,1.74465,-1.17261,-1.17320,3.03303,-6.33364,5.57728,3.00145,-6.31958,-1.17680,-1.17680,57.68929,11.98015,57.68929054,11.98014853,A,145928.30
18:49:08.758517,5.65714,0.01385,1.59714,1.59714,[7.00000 0.00000 0.00000],[1.30000 0.00000 0.00000],0.00229,-0.00741,0.02019,-0.16217,0.00000,0.01192,-0.04738,0.05142,0.00043,1.07226,5.64564,0.82540,1.71515,-1.17262,-1.17693,3.04661,-6.36903,5.57728,3.00145,-6.31958,-1.17680,-1.17680,57.68929,11.98015,57.68929022,11.98014876,A,145928.30
18:49:08.799317,5.69795,0.02702,1.59714,1.59714,[7.00000 0.00000 0.00000],[1.30000 0.00000 0.00000],0.00152,-0.01180,0.00614,-0.05685,0.00000,0.02765,-0.07380,0.07875,-0.03849,1.03566,5.67173,0.21001,1.69154,-1.18035,-1.18721,3.07237,-6.43518,5.69317,3.06089,-6.48637,-1.22848,-1.22848,57.68929,11.98015,57.68928963,11.98014919,A,145928.40
18:49:08.820997,5.71963,0.01118,1.90882,1.90882,[7.00000 0.00000 0.00000],[1.30000 0.00000 0.00000],0.00288,-0.01797,0.01836,-0.15471,0.00000,-0.01404,-0.06693,0.04557,0.06124,0.93836,5.70953,0.11233,1.73500,-1.18627,-1.19672,3.08258,-6.46446,5.69317,3.06089,-6.48637,-1.22848,-1.22848,57.68929,11.98015,57.68928936,11.98014936,A,145928.40
18:49:08.844198,5.74284,0.01245,1.90882,1.90882,[7.00000 0.00000 0.00000],[1.30000 0.00000 0.00000],0.00256,-0.02083,0.00523,-0.05991,0.00000,-0.02793,-0.06708,-0.03501,-0.00762,0.98423,5.73222,0.19780,1.76976,-1.19125,-1.20336,3.09373,-6.49671,5.69317,3.06089,-6.48637,-1.22848,-1.22848,57.68929,11.98015,57.68928907,11.98014955,A,145928.40
18:49:08.870402,5.76883,0.01402,1.90882,1.90882,[7.00000 0.00000 0.00000],[1.30000 0.00000 0.00000],0.00347,-0.02524,0.00263,-0.05000,0.00000,0.02078,-0.08266,-0.04782,0.07930,1.04078,5.75741,0.02442,1.79758,-1.19525,-1.20993,3.10579,-6.53179,5.69317,3.06089,-6.48637,-1.22848,-1.22848,57.68929,11.98015,57.68928876,11.98014976,A,145928.40
18:49:08.898853,5.79749,0.01512,1.90882,1.90882,[7.00000 0.00000 0.00000],[1.30000 0.00000 0.00000],0.00320,-0.02739,0.01638,-0.14374,0.00000,0.00979,-0.09182,0.03068,-0.02702,0.95306,5.78491,0.11966,1.81982,-1.19869,-1.21462,3.11875,-6.56981,5.69317,3.06089,-6.48637,-1.22848,-1.22848,57.68929,11.98015,57.68928842,11.98014997,A,145928.40
18:49:08.938803,5.83744,0.02800,1.90882,1.90882,[7.00000 0.00000 0.00000],[1.30000 0.00000 0.00000],0.00338,-0.02960,0.00767,-0.08447,0.00000,-0.00839,-0.08877,0.00067,0.01757,1.02047,5.81252,0.33944,1.83762,-1.19617,-1.21339,3.14235,-6.63628,5.83196,3.12032,-6.63463,-1.18953,-1.18953,57.68929,11.98015,57.68928782,11.98015037,A,145928.50
18:49:08.956400,5.85504,0.00914,1.77040,1.77040,[7.00000 0.00000 0.00000],[1.30000 0.00000 0.00000],0.00400,-0.03540,0.01943,-0.17245,0.00000,-0.00396,-0.08404,-0.00854,0.01861,1.02559,5.84569,0.09524,1.82418,-1.19268,-1.21327,3.15021,-6.66018,5.83196,3.12032,-6.63463,-1.18953,-1.18953,57.68929,11.98015,57.68928760,11.98015050,A,145928.50
18:49:08.969848,5.86848,0.01126,1.77040,1.77040,[7.00000 0.00000 0.00000],[1.30000 0.00000 0.00000],0.00426,-0.03679,0.02187,-0.19188,0.00000,0.00719,-0.08938,-0.00159,0.01946,0.97179,5.85665,0.12943,1.81342,-1.18944,-1.21084,3.15430,-6.67385,5.83196,3.12032,-6.63463,-1.18953,-1.18953,57.68929,11.98015,57.68928748,11.98015057,A,145928.50
18:49:08.993527,5.89216,0.01139,1.77040,1.77040,[7.00000 0.00000 0.00000],[1.30000 0.00000 0.00000],0.00435,-0.04002,0.01179,-0.12218,0.00000,-0.00411,-0.09793,0.01543,0.00403,0.91866,5.88164,0.38095,1.80482,-1.18695,-1.21023,3.16480,-6.70432,5.83196,3.12032,-6.63463,-1.18953,-1.18953,57.68929,11.98015,57.68928721,11.98015075,A,145928.50
18:49:09.014758,5.91339,0.01200,1.77040,1.77040,[7.00000 0.00000 0.00000],[1.30000 0.00000 0.00000],0.00495,-0.04350,-0.00149,-0.03463,0.00000,-0.01068,-0.10206,-0.01909,0.05600,0.94910,5.90164,0.24176,1.79794,-1.18445,-1.20975,3.17284,-6.72805,5.83196,3.12032,-6.63463,-1.18953,-1.18953,57.68929,11.98015,57.68928699,11.98015088,A,145928.50
18:49:09.038976,5.93658,0.01213,1.77040,1.77040,[7.00000 0.00000 0.00000],[1.30000 0.00000 0.00000],0.00524,-0.04653,0.00935,-0.11311,0.00000,-0.00213,-0.10771,0.06966,0.02227,1.01443,5.92528,0.14164,1.79243,-1.18230,-1.20937,3.18223,-6.75519,5.83196,3.12032,-6.63463,-1.18953,-1.18953,57.68929,11.98015,57.68928675,11.98015104,A,145928.50
18:49:09.088464,5.98710,0.03760,1.77040,1.77040,[7.00000 0.00000 0.00000],[1.30000 0.00000 0.00000],0.00522,-0.04975,0.00538,-0.08518,0.00000,-0.00808,-0.11702,0.06002,0.00708,1.02706,5.95167,0.08303,1.78803,-1.18107,-1.21002,3.21529,-6.84354,5.98234,3.24910,-6.94968,-1.18278,-1.18278,57.68929,11.98015,57.68928595,11.98015160,A,145928.70
18:49:09.115498,6.01413,0.01425,1.65226,1.65226,[7.00000 0.00000 0.00000],[1.30000 0.00000 0.00000],0.00533,-0.05598,0.01240,-0.13531,0.00000,-0.04382,-0.12206,0.01909,-0.01629,0.96319,6.00138,0.11722,1.76087,-1.17791,-1.21048,3.23035,-6.88427,5.98234,3.24910,-6.94968,-1.18278,-1.18278,57.68929,11.98015,57.68928559,11.98015185,A,145928.70
18:49:09.141493,6.03963,0.01362,1.65226,1.65226,[7.00000 0.00000 0.00000],[1.30000 0.00000 0.00000],0.00518,-0.05878,-0.00439,-0.01639,0.00000,-0.02656,-0.12878,-0.02178,0.01421,0.99162,6.02802,0.14408,1.73915,-1.17512,-1.20933,3.24431,-6.92212,5.98234,3.24910,-6.94968,-1.18278,-1.18278,57.68929,11.98015,57.68928525,11.98015209,A,145928.70
18:49:09.167271,6.06591,0.01391,1.65226,1.65226,[7.00000 0.00000 0.00000],[1.30000 0.00000 0.00000],0.00535,-0.06260,0.01164,-0.13020,0.00000,-0.00549,-0.13168,0.00567,0.00708,1.01046,6.05436,0.00488,1.72177,-1.17267,-1.20911,3.25902,-6.96175,5.98234,3.24910,-6.94968,-1.18278,-1.18278,57.68929,11.98015,57.68928489,11.98015233,A,145928.70
18:49:09.207937,6.10658,0.02765,1.65226,1.65226,[7.00000 0.00000 0.00000],[1.30000 0.00000 0.00000],0.00545,-0.06467,0.01134,-0.12899,0.00000,0.00001,-0.14131,0.02940,0.00311,1.01754,6.08013,0.10256,1.70787,-1.18151,-1.21914,3.28366,-7.02848,6.10180,3.29863,-7.09794,-1.24838,-1.24838,57.68928,11.98015,57.68928429,11.98015275,A,145928.80
18:49:09.234336,6.13276,0.01382,1.83210,1.83210,[7.00000 0.00000 0.00000],[1.30000 0.00000 0.00000],0.00593,-0.06971,0.00477,-0.08739,0.00000,-0.01144,-0.14329,0.07979,0.03044,1.01303,6.12081,0.07570,1.73272,-1.18722,-1.22780,3.29653,-7.06499,6.10180,3.29863,-7.09794,-1.24838,-1.24838,57.68928,11.98015,57.68928396,11.98015296,A,145928.80
18:49:09.261111,6.15973,0.01543,1.83210,1.83210,[7.00000 0.00000 0.00000],[1.30000 0.00000 0.00000],0.00512,-0.07353,0.00966,-0.11422,0.00000,-0.00457,-0.15245,-0.01196,-0.06332,1.06128,6.14717,0.05861,1.75259,-1.19206,-1.23486,3.30954,-7.10275,6.10180,3.29863,-7.09794,-1.24838,-1.24838,57.68928,11.98015,57.68928362,11.98015318,A,145928.80
18:49:09.285620,6.18426,0.01327,1.83210,1.83210,[7.00000 0.00000 0.00000],[1.30000 0.00000 0.00000],0.00503,-0.07653,0.00569,-0.08559,0.00000,0.00459,-0.15230,0.05490,-0.00842,0.93989,6.17331,0.08303,1.76850,-1.19588,-1.24043,3.32082,-7.13638,6.10180,3.29863,-7.09794,-1.24838,-1.24838,57.68928,11.98015,57.68928332,11.98015337,A,145928.80
18:49:09.327140,6.22578,0.02726,1.83210,1.83210,[7.00000 0.00000 0.00000],[1.30000 0.00000 0.00000],0.00473,-0.07930,0.00859,-0.10317,0.00000,-0.01037,-0.15673,0.06869,-0.02769,0.94520,6.20060,0.06838,1.78122,-1.18355,-1.22972,3.34482,-7.20499,6.22101,3.36797,-7.24620,-1.13332,-1.13332,57.68928,11.98015,57.68928270,11.98015378,A,145928.90
18:49:09.354399,6.25234,0.01285,1.72864,1.72864,[7.00000 0.00000 0.00000],[1.30000 0.00000 0.00000],0.00434,-0.08400,-0.00852,0.02012,0.00000,0.01223,-0.17002,-0.02599,0.00701,1.08983,6.24068,0.06593,1.77070,-1.17096,-1.21988,3.35837,-7.24198,6.22101,3.36797,-7.24620,-1.13332,-1.13332,57.68928,11.98015,57.68928237,11.98015401,A,145928.90
18:49:09.377764,6.27640,0.01290,1.72864,1.72864,[7.00000 0.00000 0.00000],[1.30000 0.00000 0.00000],0.00424,-0.08618,-0.00699,0.01033,0.00000,0.02200,-0.18055,0.04843,0.01116,0.98149,6.26454,0.02930,1.76229,-1.16009,-1.21028,3.37094,-7.27521,6.22101,3.36797,-7.24620,-1.13332,-1.13332,57.68928,11.98015,57.68928207,11.98015422,A,145928.90
18:49:09.403925,6.30256,0.01393,1.72864,1.72864,[7.00000 0.00000 0.00000],[1.30000 0.00000 0.00000],0.00393,-0.08714,0.00141,-0.04561,0.00000,-0.02549,-0.17002,0.04581,-0.01659,0.94068,6.29097,0.02930,1.75556,-1.15111,-1.20187,3.38472,-7.31071,6.22101,3.36797,-7.24620,-1.13332,-1.13332,57.68928,11.98015,57.68928175,11.98015445,A,145928.90
18:49:09.445084,6.34372,0.02700,1.72864,1.72864,[7.00000 0.00000 0.00000],[1.30000 0.00000 0.00000],0.00297,-0.08717,-0.01554,0.08181,0.00000,-0.02977,-0.18483,-0.05148,-0.02891,1.01541,6.31906,0.10256,1.75017,-1.15969,-1.21046,3.41121,-7.37881,6.33895,3.42740,-7.41300,-1.22848,-1.22848,57.68928,11.98016,57.68928114,11.98015489,A,145929.00
18:49:09.471301,6.36968,0.01341,2.01721,2.01721,[7.00000 0.00000 0.00000],[1.30000 0.00000 0.00000],0.00231,-0.08850,-0.00653,0.02467,0.00000,0.02613,-0.19628,0.03605,-0.02916,0.97045,6.35840,0.00244,1.80358,-1.16470,-1.21625,3.42463,-7.41398,6.33895,3.42740,-7.41300,-1.22848,-1.22848,57.68928,11.98016,57.68928082,11.98015512,A,145929.00
18:49:09.496957,6.39559,0.01291,2.01721,2.01721,[7.00000 0.00000 0.00000],[1.30000 0.00000 0.00000],0.00197,-0.08856,-0.01890,0.11435,0.00000,-0.00472,-0.19292,0.06301,0.00451,0.97197,6.38364,0.01221,1.84631,-1.16926,-1.22085,3.43852,-7.45109,6.33895,3.42740,-7.41300,-1.22848,-1.22848,57.68928,11.98016,57.68928049,11.98015535,A,145929.00
18:49:09.522461,6.42108,0.01112,2.01721,2.01721,[7.00000 0.00000 0.00000],[1.30000 0.00000 0.00000],0.00091,-0.08856,-0.00989,0.06096,0.00000,-0.00991,-0.19109,0.09211,-0.05801,1.03932,6.41054,0.00000,1.88049,-1.17296,-1.22454,3.45063,-7.48389,6.33895,3.42740,-7.41300,-1.22848,-1.22848,57.68928,11.98016,57.68928020,11.98015556,A,145929.00
18:49:09.572404,6.47105,0.03908,2.01721,2.01721,[7.00000 0.00000 0.00000],[1.30000 0.00000 0.00000],0.00017,-0.08856,-0.00531,0.03561,0.00000,0.00887,-0.19949,-0.00866,-0.04526,0.98924,6.43476,0.00488,1.90783,-1.17806,-1.22965,3.48439,-7.57686,6.46611,3.53637,-7.70951,-1.21864,-1.21864,57.68928,11.98016,57.68927936,11.98015613,A,145929.20
18:49:09.599319,6.49796,0.01391,2.01721,2.01721,[7.00000 0.00000 0.00000],[1.30000 0.00000 0.00000],0.00083,-0.08728,-0.00332,0.01574,0.00000,-0.01098,-0.18407,0.04660,0.04978,0.99192,6.48705,0.00000,1.92970,-1.17949,-1.23032,3.50135,-7.62394,6.46611,3.53637,-7.70951,-1.21864,-1.21864,57.68928,11.98016,57.68927894,11.98015641,A,145929.20
18:49:09.617249,6.51589,0.01009,2.01721,2.01721,[7.00000 0.00000 0.00000],[1.30000 0.00000 0.00000],0.00162,-0.08686,0.00843,-0.07378,0.00000,-0.00213,-0.17765,0.01854,0.04178,1.05359,6.50633,0.00000,1.94721,-1.17979,-1.23038,3.51300,-7.65617,6.46611,3.53637,-7.70951,-1.21864,-1.21864,57.68928,11.98016,57.68927865,11.98015661,A,145929.20
18:49:09.646013,6.54465,0.01283,1.47322,1.47322,[7.00000 0.00000 0.00000],[1.30000 0.00000 0.00000],0.00178,-0.08686,0.00569,-0.05599,0.00000,0.02643,-0.17933,0.08564,0.01110,0.98344,6.53198,0.00488,1.85241,-1.18113,-1.23172,3.52949,-7.70208,6.46611,3.53637,-7.70951,-1.21864,-1.21864,57.68928,11.98016,57.68927823,11.98015688,A,145929.20
18:49:09.669156,6.56779,0.01358,1.47322,1.47322,[7.00000 0.00000 0.00000],[1.30000 0.00000 0.00000],0.00194,-0.08689,0.00752,-0.07030,0.00000,-0.00671,-0.18575,0.05941,0.00732,0.91567,6.55627,0.08791,1.77657,-1.18140,-1.23200,3.54081,-7.73357,6.46611,3.53637,-7.70951,-1.21864,-1.21864,57.68928,11.98016,57.68927795,11.98015707,A,145929.20
18:49:09.708781,6.60742,0.02857,1.47322,1.47322,[7.00000 0.00000 0.00000],[1.30000 0.00000 0.00000],0.00194,-0.08751,0.00584,-0.05848,0.00000,-0.03817,-0.18315,-0.00769,0.00012,0.97801,6.58170,0.12210,1.71590,-1.17741,-1.22839,3.56542,-7.80135,6.60244,3.60571,-7.87631,-1.17680,-1.17680,57.68928,11.98016,57.68927734,11.98015749,A,145929.30
18:49:09.731521,6.63015,0.01184,1.47322,1.47322,[7.00000 0.00000 0.00000],[1.30000 0.00000 0.00000],0.00211,-0.09037,0.01790,-0.14453,0.00000,0.03773,-0.19735,0.00220,-0.02324,1.05512,6.62064,0.07082,1.66737,-1.17160,-1.22424,3.57815,-7.83517,6.60244,3.60571,-7.87631,-1.17680,-1.17680,57.68928,11.98016,57.68927704,11.98015770,A,145929.30
18:49:09.752246,6.65088,0.01293,1.47322,1.47322,[7.00000 0.00000 0.00000],[1.30000 0.00000 0.00000],0.00181,-0.09252,0.01286,-0.10647,0.00000,0.03590,-0.19476,0.12548,-0.02556,0.93391,6.63926,0.24908,1.62854,-1.16627,-1.22017,3.58905,-7.86358,6.60244,3.60571,-7.87631,-1.17680,-1.17680,57.68928,11.98016,57.68927678,11.98015789,A,145929.30
18:49:09.775951,6.67458,0.01227,1.81211,1.81211,[7.00000 0.00000 0.00000],[1.30000 0.00000 0.00000],0.00245,-0.09608,0.01424,-0.12196,0.00000,-0.00885,-0.18407,0.02959,0.01647,0.91470,6.66344,0.08791,1.66525,-1.16175,-1.21774,3.60083,-7.89414,6.60244,3.60571,-7.87631,-1.17680,-1.17680,57.68928,11.98016,57.68927651,11.98015808,A,145929.30
18:49:09.794690,6.69333,0.01025,1.81211,1.81211,[7.00000 0.00000 0.00000],[1.30000 0.00000 0.00000],0.00236,-0.09877,0.00385,-0.04848,0.00000,-0.03527,-0.18804,0.03587,-0.01080,0.99875,6.68280,0.07326,1.69462,-1.15721,-1.21477,3.60956,-7.91629,6.60244,3.60571,-7.87631,-1.17680,-1.17680,57.68928,11.98016,57.68927631,11.98015823,A,145929.30
18:49:09.839770,6.73841,0.03001,1.81211,1.81211,[7.00000 0.00000 0.00000],[1.30000 0.00000 0.00000],0.00240,-0.10194,-0.00210,-0.00711,0.00000,-0.00106,-0.20193,-0.10309,0.00909,1.11600,6.71085,0.02442,1.71812,-1.17246,-1.23187,3.63639,-7.98862,6.73348,3.65524,-8.04310,-1.28214,-1.28214,57.68928,11.98016,57.68927566,11.98015868,A,145929.40
18:49:09.860399,6.75903,0.00978,1.81211,1.81211,[7.00000 0.00000 0.00000],[1.30000 0.00000 0.00000],0.00235,-0.10449,0.00798,-0.07721,0.00000,0.02689,-0.20713,0.03788,-0.02556,0.88743,6.74932,0.10501,1.73692,-1.18210,-1.24301,3.64707,-8.01899,6.73348,3.65524,-8.04310,-1.28214,-1.28214,57.68928,11.98016,57.68927538,11.98015886,A,145929.40
18:49:09.873945,6.77204,0.01129,1.81211,1.81211,[7.00000 0.00000 0.00000],[1.30000 0.00000 0.00000],0.00233,-0.10486,-0.00012,-0.02037,0.00000,0.01299,-0.20270,0.06088,-0.00567,0.89896,6.76103,0.07570,1.75195,-1.18914,-1.25026,3.65222,-8.03414,6.73348,3.65524,-8.04310,-1.28214,-1.28214,57.68928,11.98016,57.68927525,11.98015895,A,145929.40
18:49:09.895098,6.79374,0.00827,1.81211,1.81211,[7.00000 0.00000 0.00000],[1.30000 0.00000 0.00000],0.00197,-0.10608,0.00080,-0.02348,0.00000,-0.00885,-0.19674,0.04075,-0.02769,0.99790,6.78499,0.06105,1.76398,-1.19657,-1.25841,3.66300,-8.06660,6.73348,3.65524,-8.04310,-1.28214,-1.28214,57.68928,11.98016,57.68927496,11.98015913,A,145929.40
18:49:09.905069,6.80371,0.00784,1.81211,1.81211,[7.00000 0.00000 0.00000],[1.30000 0.00000 0.00000],0.00153,-0.10650,-0.00592,0.02754,0.00000,0.00016,-0.19949,0.03361,-0.02769,1.06036,6.79545,0.05128,1.77361,-1.20127,-1.26336,3.66700,-8.07899,6.73348,3.65524,-8.04310,-1.28214,-1.28214,57.68928,11.98016,57.68927484,11.98015920,A,145929.40
18:49:09.918838,6.81716,0.01088,1.81211,1.81211,[7.00000 0.00000 0.00000],[1.30000 0.00000 0.00000],0.00152,-0.10678,-0.01142,0.06609,0.00000,0.00627,-0.21033,0.03355,0.00732,1.10221,6.80566,0.04396,1.78131,-1.20538,-1.26763,3.67119,-8.09227,6.73348,3.65524,-8.04310,-1.28214,-1.28214,57.68928,11.98016,57.68927472,11.98015927,A,145929.40
18:49:09.967067,6.86571,0.03659,1.49077,1.49077,[7.00000 0.00000 0.00000],[1.30000 0.00000 0.00000],0.00122,-0.10698,-0.01066,0.06347,0.00000,0.03254,-0.23263,0.07186,0.00335,0.98881,6.83046,0.02442,1.72320,-1.22506,-1.28743,3.69796,-8.18261,6.86065,3.72458,-8.35815,-1.35416,-1.35416,57.68927,11.98016,57.68927391,11.98015972,A,145929.60
18:49:09.994560,6.89319,0.01522,1.49077,1.49077,[7.00000 0.00000 0.00000],[1.30000 0.00000 0.00000],0.00069,-0.10698,-0.03158,0.21475,0.00000,0.00032,-0.22438,-0.04178,0.08052,1.04963,6.88106,0.00000,1.67671,-1.23822,-1.30059,3.70986,-8.22766,6.86065,3.72458,-8.35815,-1.35416,-1.35416,57.68927,11.98016,57.68927351,11.98015992,A,145929.60
18:49:10.015648,6.91428,0.01257,1.49077,1.49077,[7.00000 0.00000 0.00000],[1.30000 0.00000 0.00000],0.00025,-0.10659,0.00003,-0.00248,0.00000,0.03239,-0.21934,-0.02220,-0.02446,1.04029,6.90282,0.00000,1.63953,-1.24861,-1.31074,3.71801,-8.26097,6.86065,3.72458,-8.35815,-1.35416,-1.35416,57.68927,11.98016,57.68927321,11.98016006,A,145929.60
18:49:10.040990,6.93963,0.01240,1.49077,1.49077,[7.00000 0.00000 0.00000],[1.30000 0.00000 0.00000],-0.00026,-0.10407,-0.00378,0.02882,0.00000,0.01895,-0.21858,0.08973,-0.02123,0.99637,6.93011,0.00000,1.60977,-1.25838,-1.31903,3.72773,-8.30112,6.86065,3.72458,-8.35815,-1.35416,-1.35416,57.68927,11.98016,57.68927285,11.98016022,A,145929.60
18:49:10.080905,6.97955,0.02514,1.84831,1.84831,[7.00000 0.00000 0.00000],[1.30000 0.00000 0.00000],0.00111,-0.10381,0.00049,-0.01351,0.00000,-0.01602,-0.20743,0.09736,0.08357,0.98545,6.95507,0.00000,1.65748,-1.26591,-1.32641,3.74407,-8.36875,6.97479,3.76420,-8.52494,-1.33756,-1.33756,57.68927,11.98016,57.68927224,11.98016049,A,145929.70
18:49:10.108483,7.00652,0.01463,1.84831,1.84831,[7.00000 0.00000 0.00000],[1.30000 0.00000 0.00000],0.00115,-0.10288,-0.00302,0.01068,0.00000,-0.02274,-0.20178,-0.09662,0.00549,0.96295,6.99355,0.00000,1.69565,-1.27070,-1.33066,3.75416,-8.41297,6.97479,3.76420,-8.52494,-1.33756,-1.33756,57.68927,11.98016,57.68927184,11.98016066,A,145929.70
18:49:10.133244,7.03188,0.01472,1.84831,1.84831,[7.00000 0.00000 0.00000],[1.30000 0.00000 0.00000],0.00176,-0.10257,0.00355,-0.04085,0.00000,0.00719,-0.21155,-0.01513,0.02940,0.97496,7.02095,0.00488,1.72618,-1.27452,-1.33430,3.76284,-8.45198,6.97479,3.76420,-8.52494,-1.33756,-1.33756,57.68927,11.98016,57.68927149,11.98016081,A,145929.70
18:49:10.156083,7.05472,0.01270,1.84831,1.84831,[7.00000 0.00000 0.00000],[1.30000 0.00000 0.00000],0.00173,-0.10254,0.01179,-0.09831,0.00000,0.00933,-0.21369,0.03751,-0.02233,1.00552,7.04348,0.01221,1.75060,-1.27788,-1.33764,3.77131,-8.49049,6.97479,3.76420,-8.52494,-1.33756,-1.33756,57.68927,11.98016,57.68927114,11.98016095,A,145929.70
18:49:10.177607,7.07624,0.01162,1.84831,1.84831,[7.00000 0.00000 0.00000],[1.30000 0.00000 0.00000],0.00266,-0.10262,0.00828,0.20333,0.03137,0.00246,-0.20086,0.00378,0.04685,0.99503,7.06526,0.19292,1.77014,-1.28021,-1.34002,3.77776,-8.52086,6.97479,3.76420,-8.52494,-1.33756,-1.33756,57.68927,11.98016,57.68927087,11.98016106,A,145929.70
18:49:10.212940,7.11158,0.02606,1.84831,1.84831,[7.00000 0.00000 0.00000],[1.30000 0.00000 0.00000],0.00291,-0.10401,0.00706,0.40053,0.05236,-0.03023,-0.19812,0.04569,0.00604,1.01742,7.08502,0.00000,1.78578,-1.28955,-1.35017,3.79148,-8.58343,7.10679,3.79392,-8.67320,-1.37298,-1.37298,57.68927,11.98016,57.68927031,11.98016129,A,145929.80
18:49:10.240149,7.13878,0.01480,1.69984,1.69984,[7.00000 0.00000 0.00000],[1.30000 0.00000 0.00000],0.00301,-0.09892,0.00110,0.44133,0.05236,-0.02015,-0.22392,-0.00079,0.00677,0.98381,7.12517,0.00000,1.76859,-1.29647,-1.35411,3.79985,-8.62469,7.10679,3.79392,-8.67320,-1.37298,-1.37298,57.68927,11.98016,57.68926994,11.98016143,A,145929.80
18:49:10.266407,7.16483,0.01387,1.69984,1.69984,[7.00000 0.00000 0.00000],[1.30000 0.00000 0.00000],0.00266,-0.08912,0.00523,0.41568,0.05236,-0.00213,-0.24011,0.00427,-0.02660,0.96185,7.15237,0.00000,1.75484,-1.30298,-1.35490,3.80743,-8.66291,7.10679,3.79392,-8.67320,-1.37298,-1.37298,57.68927,11.98016,57.68926959,11.98016156,A,145929.80
18:49:10.289446,7.18808,0.01083,1.69984,1.69984,[7.00000 0.00000 0.00000],[1.30000 0.00000 0.00000],0.00431,-0.07961,0.03333,0.20401,0.05236,0.00780,-0.20911,0.05380,0.06320,0.98393,7.17677,0.00000,1.74384,-1.30879,-1.35515,3.81373,-8.69523,7.10679,3.79392,-8.67320,-1.37298,-1.37298,57.68927,11.98016,57.68926930,11.98016167,A,145929.80
18:49:10.313984,7.21262,0.01313,1.69984,1.69984,[7.00000 0.00000 0.00000],[1.30000 0.00000 0.00000],0.00637,-0.07186,0.07013,-0.07242,0.05236,0.00230,-0.15734,0.02593,0.03928,1.03108,7.20103,0.00000,1.73504,-1.31418,-1.35601,3.81977,-8.72623,7.10679,3.79392,-8.67320,-1.37298,-1.37298,57.68927,11.98016,57.68926902,11.98016177,A,145929.80
18:49:10.354331,7.25284,0.02724,1.69984,1.69984,[7.00000 0.00000 0.00000],[1.30000 0.00000 0.00000],0.00902,-0.06857,0.09121,-0.24402,0.05236,-0.01434,-0.12695,0.03080,0.03263,1.04334,7.22780,0.00000,1.72800,-1.34140,-1.38132,3.83274,-8.79501,7.24760,3.80382,-8.84000,-1.51148,-1.51148,57.68927,11.98016,57.68926840,11.98016199,A,145929.90
18:49:10.379890,7.27853,0.01486,1.60149,1.60149,[7.00000 0.00000 0.00000],[1.30000 0.00000 0.00000],0.01341,-0.06897,0.10205,-0.35987,0.05236,-0.01954,-0.15123,-0.05313,0.04788,0.96496,7.26681,0.34432,1.70270,-1.36279,-1.40294,3.83800,-8.83223,7.24760,3.80382,-8.84000,-1.51148,-1.51148,57.68927,11.98016,57.68926807,11.98016207,A,145929.90
18:49:10.405424,7.30406,0.01256,1.60149,1.60149,[7.00000 0.00000 0.00000],[1.30000 0.00000 0.00000],0.01650,-0.07480,0.10388,-0.40089,0.05236,0.02231,-0.17582,0.13847,0.04111,0.85064,7.29283,0.21245,1.68246,-1.38057,-1.42412,3.84254,-8.86949,7.24760,3.80382,-8.84000,-1.51148,-1.51148,57.68927,11.98016,57.68926773,11.98016215,A,145929.90
18:49:10.430564,7.32833,0.01228,1.60149,1.60149,[7.00000 0.00000 0.00000],[1.30000 0.00000 0.00000],0.01967,-0.08408,0.12358,-0.56764,0.05236,-0.03817,-0.15138,-0.00372,0.02782,0.99802,7.31829,0.77411,1.66626,-1.39485,-1.44382,3.84560,-8.90182,7.24760,3.80382,-8.84000,-1.51148,-1.51148,57.68927,11.98016,57.68926744,11.98016220,A,145929.90
18:49:10.480525,7.37916,0.03737,1.60149,1.60149,[7.00000 0.00000 0.00000],[1.30000 0.00000 0.00000],0.02067,-0.09580,0.10999,-0.48159,0.05236,-0.01053,-0.13306,0.03068,-0.09754,1.06439,7.34365,0.87912,1.65331,-1.39287,-1.44869,3.85630,-8.99328,7.37439,3.86326,-9.19211,-1.40358,-1.40358,57.68926,11.98016,57.68926662,11.98016238,A,145930.10
18:49:10.505270,7.40391,0.01358,1.77139,1.77139,[7.00000 0.00000 0.00000],[1.30000 0.00000 0.00000],0.02415,-0.12286,0.09808,-0.42987,0.05236,0.00673,-0.21430,0.08534,-0.06515,0.97271,7.39196,0.93529,1.67693,-1.38610,-1.45778,3.86053,-9.03485,7.37439,3.86326,-9.19211,-1.40358,-1.40358,57.68926,11.98016,57.68926625,11.98016245,A,145930.10
18:49:10.533208,7.43184,0.01351,1.77139,1.77139,[7.00000 0.00000 0.00000],[1.30000 0.00000 0.00000],0.02598,-0.13701,0.03776,-0.02423,0.05236,-0.03481,-0.24851,0.02806,0.05917,0.95428,7.42059,0.81563,1.69582,-1.38052,-1.46052,3.86514,-9.08210,7.37439,3.86326,-9.19211,-1.40358,-1.40358,57.68926,11.98016,57.68926582,11.98016253,A,145930.10
18:49:10.556790,7.45543,0.01129,1.77139,1.77139,[7.00000 0.00000 0.00000],[1.30000 0.00000 0.00000],0.02671,-0.14697,0.05440,-0.14736,0.05236,-0.01282,-0.27081,0.01354,-0.03013,1.02315,7.44598,0.00000,1.71093,-1.37492,-1.46079,3.86897,-9.12309,7.37439,3.86326,-9.19211,-1.40358,-1.40358,57.68926,11.98016,57.68926545,11.98016260,A,145930.10
18:49:10.596745,7.49538,0.02677,1.77139,1.77139,[7.00000 0.00000 0.00000],[1.30000 0.00000 0.00000],0.02777,-0.15085,0.02661,0.03754,0.05236,0.00918,-0.29616,0.04124,0.03703,0.96349,7.47032,0.04640,1.72303,-1.41586,-1.50402,3.87444,-9.19594,7.49025,3.84345,-9.35891,-1.68902,-1.68902,57.68926,11.98016,57.68926480,11.98016269,A,145930.20
18:49:10.617735,7.51576,0.01190,1.77139,1.77139,[7.00000 0.00000 0.00000],[1.30000 0.00000 0.00000],0.02867,-0.15527,0.03226,-0.01027,0.05236,-0.00365,-0.29646,0.03611,-0.00256,0.96703,7.50487,0.00244,1.73270,-1.44642,-1.53719,3.87471,-9.23124,7.49025,3.84345,-9.35891,-1.68902,-1.68902,57.68926,11.98016,57.68926448,11.98016269,A,145930.20
18:49:10.645102,7.54374,0.01383,1.77139,1.77139,[7.00000 0.00000 0.00000],[1.30000 0.00000 0.00000],0.02983,-0.15804,0.01195,0.12137,0.05236,-0.03588,-0.31067,-0.03819,0.07527,1.07458,7.53291,0.00000,1.74044,-1.47374,-1.56615,3.87447,-9.27710,7.49025,3.84345,-9.35891,-1.68902,-1.68902,57.68926,11.98016,57.68926407,11.98016269,A,145930.20
18:49:10.669864,7.56850,0.01266,1.70943,1.70943,[7.00000 0.00000 0.00000],[1.30000 0.00000 0.00000],0.03107,-0.15801,0.03333,-0.03957,0.05236,-0.01007,-0.32288,0.07698,0.04892,1.03682,7.55695,0.00000,1.73424,-1.49678,-1.58917,3.87309,-9.31847,7.49025,3.84345,-9.35891,-1.68902,-1.68902,57.68926,11.98016,57.68926370,11.98016267,A,145930.20
18:49:10.691740,7.59038,0.01098,1.70943,1.70943,[7.00000 0.00000 0.00000],[1.30000 0.00000 0.00000],0.03153,-0.15744,0.03547,-0.05868,0.05236,-0.01251,-0.32136,0.05045,-0.00817,0.90939,7.57950,0.00000,1.72928,-1.51591,-1.60796,3.87100,-9.35369,7.49025,3.84345,-9.35891,-1.68902,-1.68902,57.68926,11.98016,57.68926338,11.98016263,A,145930.20
18:49:10.732539,7.63118,0.02684,1.70943,1.70943,[7.00000 0.00000 0.00000],[1.30000 0.00000 0.00000],0.03418,-0.15778,0.06295,-0.27526,0.05236,-0.02702,-0.29295,-0.00396,0.07796,0.92433,7.60549,0.00000,1.72531,-1.47902,-1.57128,3.86922,-9.42548,7.62640,3.88307,-9.50717,-1.30964,-1.30964,57.68926,11.98016,57.68926273,11.98016260,A,145930.30
18:49:10.757029,7.65567,0.01378,1.70943,1.70943,[7.00000 0.00000 0.00000],[1.30000 0.00000 0.00000],0.03669,-0.16019,0.07975,-0.41568,0.05236,0.00902,-0.29723,0.02147,-0.01226,1.09044,7.64392,0.30769,1.72213,-1.44374,-1.53742,3.86990,-9.46344,7.62640,3.88307,-9.50717,-1.30964,-1.30964,57.68926,11.98016,57.68926239,11.98016261,A,145930.30
18:49:10.784456,7.68308,0.01294,2.00855,2.00855,[7.00000 0.00000 0.00000],[1.30000 0.00000 0.00000],0.03936,-0.16778,0.11030,-0.65375,0.05236,0.00887,-0.29814,0.01354,-0.01494,0.99003,7.67108,0.16850,1.77942,-1.41371,-1.51187,3.87184,-9.50401,7.62640,3.88307,-9.50717,-1.30964,-1.30964,57.68926,11.98016,57.68926203,11.98016264,A,145930.30
18:49:10.815255,7.71390,0.01504,2.00855,2.00855,[7.00000 0.00000 0.00000],[1.30000 0.00000 0.00000],0.04241,-0.18198,0.07761,-0.45280,0.05236,-0.03099,-0.31006,0.05386,0.05496,0.98417,7.70041,0.22466,1.82524,-1.38809,-1.49469,3.87509,-9.54973,7.62640,3.88307,-9.50717,-1.30964,-1.30964,57.68926,11.98016,57.68926162,11.98016270,A,145930.30
