Description : same previous interrupted v3 p3 ; walk_time = 2.0 ; speed_up_time = 3.0 ; balancing_time = 0.0
RealTime,Time,CalculationTime,MeasuredVelocity,FilteredVelocity,BalancingGainsInner,BalancingGainsOuter,Roll,SteeringAngle,RollRate,ControlInput,BalancingSetpoint,gy,gz,ax,ay,az,imu_read_timing,SteerMotorCurrent,v_estimated,yaw_estimated,heading_estimated,x_estimated,y_estimated,GPS_timestamp,x_GPS,y_GPS,theta_GPS,theta_GPS_noUnwrap,latitude,longitude,lat_estimated,lon_estimated,status,NMEA timestamp
18:31:55.898897,0.05814,0.05809,0.00000,0.00000,[3.00000 0.00000 0.00000],[1.30000 0.00000 0.00000],-0.00073,-0.03677,-0.03319,0.00000,0.00000,0.00450,-0.00233,0.03453,-0.00213,0.99643,0.00001,0.00977,0.00000,0.02138,0.00000,0.00000,0.00000,0.02629,0.00000,0.00000,0.00000,0.00000,57.68864,11.98063,57.68864450,11.98062950,A,144215.50
18:31:55.913882,0.07315,0.00683,0.00000,0.00000,[3.00000 0.00000 0.00000],[1.30000 0.00000 0.00000],-0.00350,-0.03790,-0.03945,0.00000,0.00000,0.00496,-0.00508,0.04154,0.00945,0.99290,0.06583,0.00977,0.00000,0.02148,-0.00056,0.00000,0.00000,0.02629,0.00000,0.00000,0.00000,0.00000,57.68864,11.98063,57.68864450,11.98062950,A,144215.50
18:31:55.924329,0.08359,0.00704,0.00000,0.00000,[3.00000 0.00000 0.00000],[1.30000 0.00000 0.00000],-0.00411,-0.03841,-0.03915,0.00000,0.00000,0.00862,-0.00508,0.04441,0.00689,0.99430,0.07620,0.00977,0.00000,0.02161,-0.00073,0.00000,0.00000,0.02629,0.00000,0.00000,0.00000,0.00000,57.68864,11.98063,57.68864450,11.98062950,A,144215.50
18:31:55.934722,0.09398,0.00701,0.00000,0.00000,[3.00000 0.00000 0.00000],[1.30000 0.00000 0.00000],-0.00470,-0.03897,-0.03503,0.00000,0.00000,0.00710,-0.00020,0.05112,0.00451,0.99613,0.08634,0.00733,0.00000,0.02177,-0.00090,0.00000,0.00000,0.02629,0.00000,0.00000,0.00000,0.00000,57.68864,11.98063,57.68864450,11.98062950,A,144215.50
18:31:55.949613,0.10888,0.01150,0.00000,0.00000,[3.00000 0.00000 0.00000],[1.30000 0.00000 0.00000],-0.00537,-0.03960,-0.03640,0.00000,0.00000,0.00251,0.00255,0.05362,0.00335,0.99656,0.09822,0.01709,0.00000,0.02196,-0.00107,0.00000,0.00000,0.02629,0.00000,0.00000,0.00000,0.00000,57.68864,11.98063,57.68864450,11.98062950,A,144215.50
18:31:55.967336,0.12660,0.00745,0.00000,0.00000,[3.00000 0.00000 0.00000],[1.30000 0.00000 0.00000],-0.00649,-0.04067,-0.03686,0.00000,0.00000,0.00206,-0.00050,0.05441,-0.00409,0.99375,0.11930,0.00733,0.00000,0.02221,-0.00144,0.00000,0.00000,0.02629,0.00000,0.00000,0.00000,0.00000,57.68864,11.98063,57.68864450,11.98062950,A,144215.50
18:31:55.993736,0.15300,0.02326,0.00000,0.00000,[3.00000 0.00000 0.00000],[1.30000 0.00000 0.00000],-0.00719,-0.04115,-0.03716,0.00000,0.00000,0.00435,0.00026,0.05557,-0.00183,0.99216,0.13031,0.01709,0.00000,0.02247,-0.00147,0.00000,0.00000,0.14942,0.00000,0.00000,0.00000,0.00000,57.68864,11.98063,57.68864450,11.98062950,A,144215.60
18:31:56.009467,0.16873,0.00685,0.00000,0.00000,[3.00000 0.00000 0.00000],[1.30000 0.00000 0.00000],-0.00846,-0.04189,-0.03426,0.00000,0.00000,0.00664,-0.00417,0.05685,0.00299,0.98844,0.16139,0.01465,0.00000,0.02276,-0.00161,0.00000,0.00000,0.14942,0.00000,0.00000,0.00000,0.00000,57.68864,11.98063,57.68864450,11.98062950,A,144215.60
18:31:56.020337,0.17960,0.00731,0.00000,0.00000,[3.00000 0.00000 0.00000],[1.30000 0.00000 0.00000],-0.00912,-0.04189,-0.03197,0.00000,0.00000,0.00282,-0.00310,0.05649,-0.00604,0.99174,0.17190,0.03175,0.00000,0.02300,-0.00137,0.00000,0.00000,0.14942,0.00000,0.00000,0.00000,0.00000,57.68864,11.98063,57.68864450,11.98062950,A,144215.60
18:31:56.030535,0.18941,0.00671,0.00000,0.00000,[3.00000 0.00000 0.00000],[1.30000 0.00000 0.00000],-0.00977,-0.04189,-0.02999,0.00000,0.00000,0.00251,-0.00233,0.05789,-0.00811,0.99326,0.18208,0.00733,0.00000,0.02320,-0.00116,0.00000,0.00000,0.14942,0.00000,0.00000,0.00000,0.00000,57.68864,11.98063,57.68864450,11.98062950,A,144215.60
18:31:56.040782,0.20005,0.00694,0.00000,0.00000,[3.00000 0.00000 0.00000],[1.30000 0.00000 0.00000],-0.01035,-0.04189,-0.03029,0.00000,0.00000,0.00435,0.00164,0.06063,-0.00268,0.99582,0.19271,0.01954,0.00000,0.02338,-0.00099,0.00000,0.00000,0.14942,0.00000,0.00000,0.00000,0.00000,57.68864,11.98063,57.68864450,11.98062950,A,144215.60
18:31:56.054598,0.21385,0.01017,0.00000,0.00000,[3.00000 0.00000 0.00000],[1.30000 0.00000 0.00000],-0.01083,-0.04189,-0.02601,0.00000,0.00000,0.00389,0.00393,0.06887,0.00287,0.99698,0.20483,0.01465,0.00000,0.02353,-0.00084,0.00000,0.00000,0.14942,0.00000,0.00000,0.00000,0.00000,57.68864,11.98063,57.68864450,11.98062950,A,144215.60
18:31:56.069895,0.22916,0.00688,0.00000,0.00000,[3.00000 0.00000 0.00000],[1.30000 0.00000 0.00000],-0.01143,-0.04189,-0.02021,0.00000,0.00000,0.00129,0.00637,0.07741,-0.00335,0.99442,0.22180,0.01954,0.00000,0.02365,-0.00071,0.00000,0.00000,0.14942,0.00000,0.00000,0.00000,0.00000,57.68864,11.98063,57.68864450,11.98062950,A,144215.60
18:31:56.081527,0.23972,0.00702,0.00000,0.00000,[3.00000 0.00000 0.00000],[1.30000 0.00000 0.00000],-0.01201,-0.04189,-0.01655,0.00000,0.00000,0.00251,0.00362,0.07668,-0.01385,0.99119,0.23231,0.00977,0.00000,0.02376,-0.00061,0.00000,0.00000,0.14942,0.00000,0.00000,0.00000,0.00000,57.68864,11.98063,57.68864450,11.98062950,A,144215.60
18:31:56.090864,0.25013,0.00723,0.00000,0.00000,[3.00000 0.00000 0.00000],[1.30000 0.00000 0.00000],-0.01262,-0.04189,-0.01639,0.00000,0.00000,0.00878,0.00194,0.07887,-0.01702,0.99155,0.24235,0.02198,0.00000,0.02385,-0.00052,0.00000,0.00000,0.14942,0.00000,0.00000,0.00000,0.00000,57.68864,11.98063,57.68864450,11.98062950,A,144215.60
18:31:56.113142,0.27241,0.01910,0.00000,0.00000,[3.00000 0.00000 0.00000],[1.30000 0.00000 0.00000],-0.01325,-0.04189,-0.01700,0.00000,0.00000,0.00557,-0.00096,0.07899,-0.01867,0.99247,0.25291,0.01954,0.00000,0.02393,-0.00044,0.00050,0.00000,0.26879,0.00991,0.00000,0.00000,0.00000,57.68864,11.98063,57.68864450,11.98062951,A,144215.70
18:31:56.128627,0.28789,0.00706,0.00000,0.00000,[3.00000 0.00000 0.00000],[1.30000 0.00000 0.00000],-0.01362,-0.04189,-0.00845,0.00000,0.00000,-0.00329,-0.00386,0.08235,0.00213,0.99765,0.28058,0.01221,0.00000,0.02399,-0.00037,0.00097,0.00000,0.26879,0.00991,0.00000,0.00000,0.00000,57.68864,11.98063,57.68864450,11.98062952,A,144215.70
18:31:56.138999,0.29826,0.00702,0.00000,0.00000,[3.00000 0.00000 0.00000],[1.30000 0.00000 0.00000],-0.01392,-0.04189,-0.00891,0.00000,0.00000,0.00007,-0.00753,0.07759,-0.00262,0.99656,0.29084,0.01221,0.00000,0.02405,-0.00032,0.00141,0.00000,0.26879,0.00991,0.00000,0.00000,0.00000,57.68864,11.98063,57.68864450,11.98062952,A,144215.70
18:31:56.154022,0.31328,0.01147,0.00000,0.00000,[3.00000 0.00000 0.00000],[1.30000 0.00000 0.00000],-0.01425,-0.04189,-0.00448,0.00000,0.00000,0.00068,-0.00264,0.07790,-0.00836,0.99381,0.30279,0.01465,0.00000,0.02410,-0.00027,0.00184,0.00000,0.26879,0.00991,0.00000,0.00000,0.00000,57.68864,11.98063,57.68864450,11.98062953,A,144215.70
18:31:56.169604,0.32887,0.00757,0.00000,0.00000,[3.00000 0.00000 0.00000],[1.30000 0.00000 0.00000],-0.01455,-0.04189,-0.00311,0.00000,0.00000,0.00190,0.00255,0.08693,-0.00561,0.98692,0.32097,0.00488,0.00000,0.02414,-0.00023,0.00224,0.00000,0.26879,0.00991,0.00000,0.00000,0.00000,57.68864,11.98063,57.68864450,11.98062954,A,144215.70
18:31:56.179355,0.33862,0.00690,0.00000,0.00000,[3.00000 0.00000 0.00000],[1.30000 0.00000 0.00000],-0.01476,-0.04189,-0.00494,0.00000,0.00000,0.00068,0.00011,0.08827,-0.00049,0.98606,0.33116,0.01709,0.00000,0.02417,-0.00019,0.00262,0.00000,0.26879,0.00991,0.00000,0.00000,0.00000,57.68864,11.98063,57.68864450,11.98062954,A,144215.70
18:31:56.190780,0.35003,0.00804,0.00000,0.00000,[3.00000 0.00000 0.00000],[1.30000 0.00000 0.00000],-0.01498,-0.04189,-0.00357,0.00000,0.00000,0.00175,-0.00081,0.09040,-0.00238,0.99033,0.34260,0.01465,0.00000,0.02420,-0.00017,0.00299,0.00000,0.26879,0.00991,0.00000,0.00000,0.00000,57.68864,11.98063,57.68864450,11.98062955,A,144215.70
18:31:56.200284,0.35955,0.00715,0.00000,0.00000,[3.00000 0.00000 0.00000],[1.30000 0.00000 0.00000],-0.01525,-0.04189,0.00315,0.00000,0.00000,-0.00115,-0.00340,0.09077,-0.01013,0.99223,0.35209,0.01709,0.00000,0.02423,-0.00014,0.00333,0.00000,0.26879,0.00991,0.00000,0.00000,0.00000,57.68864,11.98063,57.68864450,11.98062956,A,144215.70
18:31:56.210574,0.36983,0.00702,0.00000,0.00000,[3.00000 0.00000 0.00000],[1.30000 0.00000 0.00000],-0.01570,-0.04189,0.00300,0.00000,0.00000,0.00083,-0.00692,0.08979,-0.02275,0.99454,0.36218,0.01709,0.00000,0.02425,-0.00012,0.00366,0.00000,0.26879,0.00991,0.00000,0.00000,0.00000,57.68864,11.98063,57.68864450,11.98062956,A,144215.70
18:31:56.233411,0.39268,0.01945,0.00000,0.00000,[3.00000 0.00000 0.00000],[1.30000 0.00000 0.00000],-0.01619,-0.04189,-0.00418,0.00000,0.00000,0.00343,-0.01318,0.09235,-0.02074,0.99643,0.37282,0.01465,0.00000,0.02426,-0.00010,0.00397,0.00000,0.38914,0.00991,0.00000,0.00000,0.00000,57.68864,11.98063,57.68864450,11.98062957,A,144215.80
18:31:56.253380,0.41263,0.01155,0.00000,0.00000,[3.00000 0.00000 0.00000],[1.30000 0.00000 0.00000],-0.01630,-0.04189,-0.00005,0.00000,0.00000,0.00313,-0.01623,0.09693,0.00116,0.99546,0.40207,0.02442,0.00000,0.02428,-0.00009,0.00427,0.00000,0.38914,0.00991,0.00000,0.00000,0.00000,57.68864,11.98063,57.68864450,11.98062957,A,144215.80
18:31:56.269681,0.42895,0.00688,0.00000,0.00000,[3.00000 0.00000 0.00000],[1.30000 0.00000 0.00000],-0.01650,-0.04189,0.00407,0.00000,0.00000,0.00649,-0.00814,0.09815,-0.00982,0.99674,0.42161,0.00733,0.00000,0.02429,-0.00007,0.00455,0.00000,0.38914,0.00991,0.00000,0.00000,0.00000,57.68864,11.98063,57.68864450,11.98062958,A,144215.80
18:31:56.280271,0.43954,0.00706,0.00000,0.00000,[3.00000 0.00000 0.00000],[1.30000 0.00000 0.00000],-0.01678,-0.04189,0.00804,0.00000,0.00000,0.00343,-0.00615,0.10333,-0.01629,0.99198,0.43209,0.01465,0.00000,0.02430,-0.00006,0.00482,0.00000,0.38914,0.00991,0.00000,0.00000,0.00000,57.68864,11.98063,57.68864450,11.98062958,A,144215.80
18:31:56.291346,0.45061,0.00772,0.00000,0.00000,[3.00000 0.00000 0.00000],[1.30000 0.00000 0.00000],-0.01704,-0.04189,0.00728,0.00000,0.00000,-0.00176,-0.00569,0.10626,-0.01446,0.99015,0.44226,0.01465,0.00000,0.02431,-0.00005,0.00508,0.00000,0.38914,0.00991,0.00000,0.00000,0.00000,57.68864,11.98063,57.68864450,11.98062959,A,144215.80
18:31:56.300982,0.46025,0.00695,0.00000,0.00000,[3.00000 0.00000 0.00000],[1.30000 0.00000 0.00000],-0.01728,-0.04189,0.00438,0.00000,0.00000,-0.00298,-0.00615,0.10620,-0.01135,0.98887,0.45289,0.01709,0.00000,0.02432,-0.00005,0.00532,0.00000,0.38914,0.00991,0.00000,0.00000,0.00000,57.68864,11.98063,57.68864450,11.98062959,A,144215.80
18:31:56.311360,0.47063,0.00691,0.00000,0.00000,[3.00000 0.00000 0.00000],[1.30000 0.00000 0.00000],-0.01739,-0.04189,0.00835,0.00000,0.00000,-0.00100,-0.00997,0.10760,-0.00537,0.99070,0.46318,0.00977,0.00000,0.02433,-0.00004,0.00555,0.00000,0.38914,0.00991,0.00000,0.00000,0.00000,57.68864,11.98063,57.68864450,11.98062959,A,144215.80
18:31:56.321782,0.48105,0.00705,0.00000,0.00000,[3.00000 0.00000 0.00000],[1.30000 0.00000 0.00000],-0.01744,-0.04189,0.01278,0.00000,0.00000,-0.00176,-0.01028,0.10620,-0.00500,0.99137,0.47341,0.01221,0.00000,0.02433,-0.00003,0.00576,0.00000,0.38914,0.00991,0.00000,0.00000,0.00000,57.68864,11.98063,57.68864450,11.98062960,A,144215.80
18:31:56.347189,0.50645,0.02205,0.00000,0.00000,[3.00000 0.00000 0.00000],[1.30000 0.00000 0.00000],-0.01760,-0.04189,0.00865,0.00000,0.00000,-0.00497,-0.01333,0.10279,-0.00952,0.99277,0.48512,0.00733,0.00000,0.02434,-0.00003,0.00597,0.00000,0.50278,0.00991,0.00000,0.00000,0.00000,57.68864,11.98063,57.68864450,11.98062960,A,144215.90
18:31:56.364696,0.52396,0.00814,0.00000,0.00000,[3.00000 0.00000 0.00000],[1.30000 0.00000 0.00000],-0.01732,-0.04189,0.01430,0.00000,0.00000,-0.00146,-0.01073,0.10321,-0.00299,0.99101,0.51560,0.01221,0.00000,0.02434,-0.00002,0.00617,0.00000,0.50278,0.00991,0.00000,0.00000,0.00000,57.68864,11.98063,57.68864450,11.98062960,A,144215.90
18:31:56.375039,0.53430,0.00824,0.00000,0.00000,[3.00000 0.00000 0.00000],[1.30000 0.00000 0.00000],-0.01735,-0.04189,0.01384,0.00000,0.00000,-0.00023,-0.01119,0.10681,-0.00396,0.99326,0.52548,0.00977,0.00000,0.02435,-0.00002,0.00635,0.00000,0.50278,0.00991,0.00000,0.00000,0.00000,57.68864,11.98063,57.68864450,11.98062961,A,144215.90
18:31:56.384230,0.54350,0.00702,0.00000,0.00000,[3.00000 0.00000 0.00000],[1.30000 0.00000 0.00000],-0.01739,-0.04189,0.01400,0.00000,0.00000,0.00221,-0.01073,0.10535,-0.00506,0.99101,0.53609,0.01954,0.00000,0.02435,-0.00002,0.00653,0.00000,0.50278,0.00991,0.00000,0.00000,0.00000,57.68864,11.98063,57.68864450,11.98062961,A,144215.90
18:31:56.395296,0.55457,0.00768,0.00000,0.00000,[3.00000 0.00000 0.00000],[1.30000 0.00000 0.00000],-0.01746,-0.04189,0.00987,0.00000,0.00000,0.00557,-0.01089,0.11206,-0.00445,0.99674,0.54704,0.00733,0.00000,0.02435,-0.00001,0.00670,0.00000,0.50278,0.00991,0.00000,0.00000,0.00000,57.68864,11.98063,57.68864450,11.98062961,A,144215.90
18:31:56.407531,0.56680,0.00950,0.00000,0.00000,[3.00000 0.00000 0.00000],[1.30000 0.00000 0.00000],-0.01748,-0.04189,0.01186,0.00000,0.00000,0.00389,-0.01425,0.11309,-0.00201,0.99589,0.55688,0.00733,0.00000,0.02435,-0.00001,0.00686,0.00000,0.50278,0.00991,0.00000,0.00000,0.00000,57.68864,11.98063,57.68864450,11.98062962,A,144215.90
18:31:56.415463,0.57473,0.00693,0.00000,0.00000,[3.00000 0.00000 0.00000],[1.30000 0.00000 0.00000],-0.01750,-0.04189,0.01216,0.00000,0.00000,0.00053,-0.01547,0.11871,-0.00238,0.99582,0.56725,0.00733,0.00000,0.02436,-0.00001,0.00701,0.00000,0.50278,0.00991,0.00000,0.00000,0.00000,57.68864,11.98063,57.68864450,11.98062962,A,144215.90
18:31:56.425770,0.58504,0.00699,0.00000,0.00000,[3.00000 0.00000 0.00000],[1.30000 0.00000 0.00000],-0.01759,-0.04189,0.00544,0.00000,0.00000,-0.00314,-0.01287,0.11816,-0.00256,0.99155,0.57769,0.01221,0.00000,0.02436,-0.00001,0.00716,0.00000,0.50278,0.00991,0.00000,0.00000,0.00000,57.68864,11.98063,57.68864450,11.98062962,A,144215.90
18:31:56.438993,0.59824,0.00977,0.00000,0.00000,[3.00000 0.00000 0.00000],[1.30000 0.00000 0.00000],-0.01757,-0.04189,0.00819,0.00000,0.00000,-0.00054,-0.01547,0.12035,0.00244,0.98698,0.58868,0.00733,0.00000,0.02436,-0.00001,0.00730,0.00000,0.50278,0.00991,0.00000,0.00000,0.00000,57.68864,11.98063,57.68864450,11.98062962,A,144215.90
18:31:56.473966,0.63323,0.03394,0.00000,0.00000,[3.00000 0.00000 0.00000],[1.30000 0.00000 0.00000],-0.01761,-0.04189,0.00606,0.00000,0.00000,-0.00069,-0.01715,0.12163,-0.00006,0.98863,0.59888,0.00733,0.00000,-0.13763,-0.16199,0.00792,-0.00093,0.62971,0.01981,-0.01853,-1.07992,-1.07992,57.68864,11.98063,57.68864449,11.98062963,A,144216.10
18:31:56.490028,0.64930,0.00681,0.00000,0.00000,[3.00000 0.00000 0.00000],[1.30000 0.00000 0.00000],-0.01790,-0.04163,-0.00525,0.00000,0.00000,-0.00222,-0.01333,0.12340,0.00256,0.99406,0.64198,0.00733,0.00000,-0.27534,-0.29956,0.00852,-0.00181,0.62971,0.01981,-0.01853,-1.07992,-1.07992,57.68864,11.98063,57.68864448,11.98062964,A,144216.10
18:31:56.501469,0.66074,0.00796,0.00000,0.00000,[3.00000 0.00000 0.00000],[1.30000 0.00000 0.00000],-0.01799,-0.04144,-0.00448,0.00000,0.00000,-0.00253,-0.01486,0.12108,0.00378,0.98869,0.65245,0.00733,0.00000,-0.39241,-0.41651,0.00908,-0.00264,0.62971,0.01981,-0.01853,-1.07992,-1.07992,57.68864,11.98063,57.68864448,11.98062965,A,144216.10
18:31:56.512813,0.67208,0.00889,0.00000,0.00000,[3.00000 0.00000 0.00000],[1.30000 0.00000 0.00000],-0.01814,-0.04112,-0.00845,0.00000,0.00000,-0.00100,-0.01425,0.11944,0.00360,0.99253,0.66479,0.01465,0.00000,-0.49195,-0.51587,0.00962,-0.00344,0.62971,0.01981,-0.01853,-1.07992,-1.07992,57.68864,11.98063,57.68864447,11.98062966,A,144216.10
18:31:56.521354,0.68062,0.00717,0.00000,0.00000,[3.00000 0.00000 0.00000],[1.30000 0.00000 0.00000],-0.01827,-0.04081,-0.00433,0.00000,0.00000,0.00038,-0.02112,0.12224,0.00006,0.99131,0.67304,0.00977,0.00000,-0.57658,-0.60032,0.01013,-0.00419,0.62971,0.01981,-0.01853,-1.07992,-1.07992,57.68864,11.98063,57.68864446,11.98062967,A,144216.10
18:31:56.531594,0.69086,0.00699,0.00000,0.00000,[3.00000 0.00000 0.00000],[1.30000 0.00000 0.00000],-0.01846,-0.04042,-0.00448,0.00000,0.00000,-0.00207,-0.02066,0.13286,-0.00311,0.98911,0.68347,0.01954,0.00000,-0.64855,-0.67206,0.01061,-0.00491,0.62971,0.01981,-0.01853,-1.07992,-1.07992,57.68864,11.98063,57.68864446,11.98062968,A,144216.10
18:31:56.542633,0.70187,0.00775,0.00000,0.00000,[3.00000 0.00000 0.00000],[1.30000 0.00000 0.00000],-0.01878,-0.03994,-0.00586,0.00000,0.00000,0.00068,-0.01822,0.13072,-0.01147,0.98741,0.69355,0.01709,0.00000,-0.70977,-0.73300,0.01107,-0.00559,0.62971,0.01981,-0.01853,-1.07992,-1.07992,57.68864,11.98063,57.68864445,11.98062969,A,144216.10
18:31:56.555418,0.71467,0.01014,0.00000,0.00000,[3.00000 0.00000 0.00000],[1.30000 0.00000 0.00000],-0.01921,-0.03937,-0.01166,0.00000,0.00000,-0.00146,-0.01745,0.12798,-0.01342,0.98405,0.70545,0.00977,0.00000,-0.76186,-0.78476,0.01151,-0.00624,0.62971,0.01981,-0.01853,-1.07992,-1.07992,57.68864,11.98063,57.68864444,11.98062969,A,144216.10
18:31:56.570708,0.72996,0.00706,0.00000,0.00000,[3.00000 0.00000 0.00000],[1.30000 0.00000 0.00000],-0.01975,-0.03858,-0.01227,0.00000,0.00000,0.00083,-0.01974,0.12908,-0.01653,0.97734,0.72259,0.00733,0.00000,-0.80620,-0.82864,0.01192,-0.00685,0.62971,0.01981,-0.01853,-1.07992,-1.07992,57.68864,11.98063,57.68864444,11.98062970,A,144216.10
18:31:56.595820,0.75505,0.02173,0.00000,0.00000,[3.00000 0.00000 0.00000],[1.30000 0.00000 0.00000],-0.02006,-0.03810,-0.00922,0.00000,0.00000,-0.00436,-0.01944,0.13402,-0.00958,0.97307,0.73288,0.00733,0.00000,-0.91757,-0.93973,0.01232,-0.00836,0.74990,0.01981,-0.03706,-1.57080,-1.57080,57.68864,11.98063,57.68864442,11.98062971,A,144216.20
18:31:56.611232,0.77050,0.00715,0.00000,0.00000,[3.00000 0.00000 0.00000],[1.30000 0.00000 0.00000],-0.02047,-0.03702,-0.00616,0.00000,0.00000,-0.00818,-0.01791,0.12664,-0.01025,1.00412,0.76304,0.01221,0.00000,-1.01232,-1.03386,0.01269,-0.00980,0.74990,0.01981,-0.03706,-1.57080,-1.57080,57.68864,11.98063,57.68864441,11.98062971,A,144216.20
18:31:56.621606,0.78087,0.00697,0.00000,0.00000,[3.00000 0.00000 0.00000],[1.30000 0.00000 0.00000],-0.02074,-0.03662,-0.00586,0.00000,0.00000,-0.00619,-0.01883,0.11913,-0.01019,1.01943,0.77330,0.01709,0.00000,-1.09290,-1.11420,0.01305,-0.01116,0.74990,0.01981,-0.03706,-1.57080,-1.57080,57.68864,11.98063,57.68864440,11.98062972,A,144216.20
18:31:56.632225,0.79149,0.00717,0.00000,0.00000,[3.00000 0.00000 0.00000],[1.30000 0.00000 0.00000],-0.02102,-0.03617,-0.00723,0.00000,0.00000,0.00206,-0.01944,0.11340,-0.01019,1.03194,0.78393,0.01221,0.00000,-1.16143,-1.18247,0.01339,-0.01246,0.74990,0.01981,-0.03706,-1.57080,-1.57080,57.68864,11.98063,57.68864439,11.98062973,A,144216.20
18:31:56.642460,0.80146,0.00673,0.00000,0.00000,[3.00000 0.00000 0.00000],[1.30000 0.00000 0.00000],-0.02125,-0.03569,-0.00295,0.00000,0.00000,0.00175,-0.01715,0.11102,-0.01031,1.03493,0.79410,0.01709,0.00000,-1.21972,-1.24048,0.01371,-0.01369,0.74990,0.01981,-0.03706,-1.57080,-1.57080,57.68864,11.98063,57.68864438,11.98062973,A,144216.20
18:31:56.655393,0.81461,0.00947,0.00000,0.00000,[3.00000 0.00000 0.00000],[1.30000 0.00000 0.00000],-0.02142,-0.03510,-0.00066,0.00000,0.00000,0.00679,-0.02066,0.12456,-0.00726,1.00809,0.80473,0.02442,0.00000,-1.26932,-1.28973,0.01401,-0.01486,0.74990,0.01981,-0.03706,-1.57080,-1.57080,57.68864,11.98063,57.68864437,11.98062974,A,144216.20
18:31:56.664921,0.82419,0.00819,0.00000,0.00000,[3.00000 0.00000 0.00000],[1.30000 0.00000 0.00000],-0.02151,-0.03439,-0.00326,0.00000,0.00000,0.00297,-0.01929,0.14244,-0.00030,0.97014,0.81628,0.00733,0.00000,-1.31154,-1.33154,0.01430,-0.01597,0.74990,0.01981,-0.03706,-1.57080,-1.57080,57.68864,11.98063,57.68864436,11.98062974,A,144216.20
18:31:56.673933,0.83320,0.00679,0.00000,0.00000,[3.00000 0.00000 0.00000],[1.30000 0.00000 0.00000],-0.02138,-0.03357,-0.00127,0.00000,0.00000,-0.00344,-0.01944,0.14573,0.01165,0.94538,0.82578,0.01954,0.00000,-1.34750,-1.36702,0.01458,-0.01702,0.74990,0.01981,-0.03706,-1.57080,-1.57080,57.68864,11.98063,57.68864435,11.98062975,A,144216.20
18:31:56.684613,0.84388,0.00706,0.00000,0.00000,[3.00000 0.00000 0.00000],[1.30000 0.00000 0.00000],-0.02138,-0.03249,0.00285,0.00000,0.00000,-0.01535,-0.02127,0.11956,0.00116,0.94550,0.83642,0.01709,0.00000,-1.37816,-1.39706,0.01484,-0.01802,0.74990,0.01981,-0.03706,-1.57080,-1.57080,57.68864,11.98063,57.68864434,11.98062975,A,144216.20
18:31:56.709333,0.86860,0.02137,0.00000,0.00000,[3.00000 0.00000 0.00000],[1.30000 0.00000 0.00000],-0.02163,-0.03122,0.00453,0.00000,0.00000,-0.01199,-0.02051,0.09662,-0.01598,0.95983,0.84683,0.01221,0.00000,-1.28152,-1.29968,0.01608,-0.01990,0.86482,0.03962,-0.05560,-0.75204,-0.75204,57.68864,11.98063,57.68864432,11.98062977,A,144216.30
18:31:56.725041,0.88431,0.00743,0.00000,0.00000,[3.00000 0.00000 0.00000],[1.30000 0.00000 0.00000],-0.02151,-0.02598,0.00331,0.00000,0.00000,-0.00207,-0.00707,0.10297,0.00439,1.00857,0.87686,0.01221,0.00000,-1.19983,-1.21494,0.01726,-0.02169,0.86482,0.03962,-0.05560,-0.75204,-0.75204,57.68864,11.98063,57.68864430,11.98062979,A,144216.30
18:31:56.735299,0.89456,0.00728,0.00000,0.00000,[3.00000 0.00000 0.00000],[1.30000 0.00000 0.00000],-0.02118,-0.02397,-0.00021,0.00000,0.00000,0.00114,-0.00325,0.07704,0.02623,1.02657,0.88706,0.01221,0.00000,-1.13057,-1.14451,0.01838,-0.02338,0.86482,0.03962,-0.05560,-0.75204,-0.75204,57.68864,11.98063,57.68864429,11.98062981,A,144216.30
18:31:56.745742,0.90500,0.00704,0.00000,0.00000,[3.00000 0.00000 0.00000],[1.30000 0.00000 0.00000],-0.02066,-0.02199,0.00712,0.00000,0.00000,0.00893,-0.00661,0.07710,0.03447,1.04273,0.89725,0.00733,0.00000,-1.07187,-1.08466,0.01944,-0.02499,0.86482,0.03962,-0.05560,-0.75204,-0.75204,57.68864,11.98063,57.68864428,11.98062983,A,144216.30
18:31:56.759251,0.91852,0.01026,0.00000,0.00000,[3.00000 0.00000 0.00000],[1.30000 0.00000 0.00000],-0.02035,-0.02015,0.01232,0.00000,0.00000,0.01794,-0.00188,0.08229,0.01635,1.03840,0.90785,0.00977,0.00000,-1.02214,-1.03386,0.02045,-0.02652,0.86482,0.03962,-0.05560,-0.75204,-0.75204,57.68864,11.98063,57.68864426,11.98062984,A,144216.30
18:31:56.778658,0.93791,0.00867,0.00000,0.00000,[3.00000 0.00000 0.00000],[1.30000 0.00000 0.00000],-0.02076,-0.01692,0.00193,0.00000,0.00000,0.00740,-0.00554,0.14176,-0.02464,0.96734,0.92931,0.00977,0.00000,-0.98015,-0.98999,0.02141,-0.02798,0.86482,0.03962,-0.05560,-0.75204,-0.75204,57.68864,11.98063,57.68864425,11.98062986,A,144216.30
18:31:56.787241,0.94651,0.00705,0.00000,0.00000,[3.00000 0.00000 0.00000],[1.30000 0.00000 0.00000],-0.02111,-0.01542,0.00208,0.00000,0.00000,-0.00405,-0.00783,0.12407,-0.01970,0.94690,0.93901,0.00977,0.00000,-0.94459,-0.95356,0.02232,-0.02936,0.86482,0.03962,-0.05560,-0.75204,-0.75204,57.68864,11.98063,57.68864424,11.98062988,A,144216.30
18:31:56.799061,0.95799,0.00775,0.00000,0.00000,[3.00000 0.00000 0.00000],[1.30000 0.00000 0.00000],-0.02137,-0.01342,0.00163,0.00000,0.00000,-0.01169,-0.00860,0.10059,-0.01440,0.95306,0.95037,0.00977,0.00000,-0.91454,-0.92234,0.02318,-0.03067,0.86482,0.03962,-0.05560,-0.75204,-0.75204,57.68864,11.98063,57.68864422,11.98062989,A,144216.30
18:31:56.821803,0.98107,0.02036,0.00000,0.00000,[3.00000 0.00000 0.00000],[1.30000 0.00000 0.00000],-0.02172,-0.01141,-0.00082,0.00000,0.00000,-0.01016,-0.01226,0.08235,-0.01909,0.97332,0.96039,0.00733,0.00000,-0.93835,-0.94498,0.02450,-0.03284,0.97714,0.04953,-0.07413,-1.07992,-1.07992,57.68864,11.98063,57.68864420,11.98062991,A,144216.40
18:31:56.837320,0.99659,0.00716,0.32532,0.32532,[3.00000 0.00000 0.00000],[1.30000 0.00000 0.00000],-0.02160,-0.00464,0.00254,0.00000,0.00000,-0.00573,-0.01348,0.10956,0.00622,1.00796,0.98910,0.00733,0.06506,-0.95918,-0.96188,0.02575,-0.03491,0.97714,0.04953,-0.07413,-1.07992,-1.07992,57.68864,11.98063,57.68864419,11.98062993,A,144216.40
18:31:56.848000,1.00726,0.00743,0.32532,0.32532,[3.00000 0.00000 0.00000],[1.30000 0.00000 0.00000],-0.02146,-0.00229,0.00575,0.00000,0.00000,-0.00497,-0.01302,0.10474,0.00830,1.00607,0.99947,0.00733,0.11711,-0.97709,-0.97842,0.02723,-0.03729,0.97714,0.04953,-0.07413,-1.07992,-1.07992,57.68864,11.98063,57.68864416,11.98062996,A,144216.40
18:31:56.857646,1.01691,0.00682,0.32532,0.32532,[3.00000 0.00000 0.00000],[1.30000 0.00000 0.00000],-0.02166,-0.00011,0.01125,0.00000,0.00000,-0.00650,-0.01333,0.08802,-0.01781,0.99863,1.00950,0.01465,0.15875,-0.99251,-0.99257,0.02883,-0.03985,0.97714,0.04953,-0.07413,-1.07992,-1.07992,57.68864,11.98063,57.68864414,11.98062999,A,144216.40
18:31:56.871606,1.03087,0.00989,0.32532,0.32532,[3.00000 0.00000 0.00000],[1.30000 0.00000 0.00000],-0.02251,0.00195,0.01736,0.00000,0.00000,0.00068,-0.01073,0.08369,-0.06557,0.98728,1.02073,0.01221,0.19207,-1.00579,-1.00465,0.03074,-0.04291,0.97714,0.04953,-0.07413,-1.07992,-1.07992,57.68864,11.98063,57.68864411,11.98063002,A,144216.40
18:31:56.880535,1.03980,0.00765,0.32532,0.32532,[3.00000 0.00000 0.00000],[1.30000 0.00000 0.00000],-0.02239,0.00371,0.01323,0.00000,0.00000,-0.00222,-0.00630,0.08290,0.00055,0.97594,1.03180,0.01465,0.21872,-1.01723,-1.01507,0.03235,-0.04552,0.97714,0.04953,-0.07413,-1.07992,-1.07992,57.68864,11.98063,57.68864409,11.98063004,A,144216.40
18:31:56.890449,1.04945,0.00690,0.32532,0.32532,[3.00000 0.00000 0.00000],[1.30000 0.00000 0.00000],-0.02229,0.00524,0.01995,0.00000,0.00000,-0.00283,-0.00020,0.11444,-0.00415,0.96105,1.04193,0.00488,0.24004,-1.02708,-1.02404,0.03407,-0.04833,0.97714,0.04953,-0.07413,-1.07992,-1.07992,57.68864,11.98063,57.68864407,11.98063007,A,144216.40
18:31:56.903001,1.06199,0.00902,0.32532,0.32532,[3.00000 0.00000 0.00000],[1.30000 0.00000 0.00000],-0.02183,0.00674,0.01461,0.00000,0.00000,-0.00314,0.00515,0.10187,0.02190,0.96837,1.05260,0.02686,0.25709,-1.03559,-1.03167,0.03587,-0.05131,0.97714,0.04953,-0.07413,-1.07992,-1.07992,57.68864,11.98063,57.68864404,11.98063010,A,144216.40
18:31:56.911552,1.07083,0.00750,0.32532,0.32532,[3.00000 0.00000 0.00000],[1.30000 0.00000 0.00000],-0.02167,0.00818,0.02392,0.00000,0.00000,-0.00405,0.00576,0.11114,-0.00244,0.97350,1.06290,0.00488,0.27074,-1.04294,-1.03819,0.03737,-0.05382,0.97714,0.04953,-0.07413,-1.07992,-1.07992,57.68864,11.98063,57.68864402,11.98063013,A,144216.40
18:31:56.936424,1.09569,0.02182,2.77925,0.32532,[3.00000 0.00000 0.00000],[1.30000 0.00000 0.00000],-0.02167,0.00996,0.02545,0.00000,0.00000,-0.01016,0.01110,0.08784,-0.01714,1.00052,1.07507,0.00733,0.28165,-1.04932,-1.04353,0.04250,-0.06276,1.09187,0.07925,-0.12973,-1.07992,-1.07992,57.68864,11.98063,57.68864394,11.98063021,A,144216.50
18:31:56.952827,1.11209,0.00828,2.77925,0.32532,[3.00000 0.00000 0.00000],[1.30000 0.00000 0.00000],-0.02127,0.01435,0.01934,0.00000,0.00000,-0.00253,0.00072,0.13518,-0.00830,0.99589,1.10480,0.01221,0.29038,-1.05513,-1.04679,0.04629,-0.06947,1.09187,0.07925,-0.12973,-1.07992,-1.07992,57.68864,11.98063,57.68864388,11.98063028,A,144216.50
18:31:56.965876,1.12514,0.01114,2.77925,0.32532,[3.00000 0.00000 0.00000],[1.30000 0.00000 0.00000],-0.02078,0.01588,0.01949,0.00000,0.00000,-0.00726,-0.00020,0.10065,0.02318,1.00778,1.11512,0.01221,0.29737,-1.06020,-1.05097,0.04923,-0.07471,1.09187,0.07925,-0.12973,-1.07992,-1.07992,57.68864,11.98063,57.68864383,11.98063033,A,144216.50
18:31:56.986325,1.14535,0.00799,2.77925,0.32532,[3.00000 0.00000 0.00000],[1.30000 0.00000 0.00000],-0.02025,0.01970,0.02469,0.00000,0.00000,-0.00940,-0.00065,0.10260,0.00207,0.99772,1.13805,0.01221,0.30296,-1.06482,-1.05336,0.05331,-0.08197,1.09187,0.07925,-0.12973,-1.07992,-1.07992,57.68864,11.98063,57.68864376,11.98063040,A,144216.50
18:31:56.996862,1.15613,0.00836,2.77925,0.32532,[3.00000 0.00000 0.00000],[1.30000 0.00000 0.00000],-0.02034,0.02168,0.02499,0.00000,0.00000,-0.00986,-0.00386,0.09583,-0.01879,0.99302,1.14886,0.00488,0.30743,-1.06893,-1.05632,0.05588,-0.08660,1.09187,0.07925,-0.12973,-1.07992,-1.07992,57.68864,11.98063,57.68864372,11.98063044,A,144216.50
18:31:57.008667,1.16793,0.00998,2.77925,0.32532,[3.00000 0.00000 0.00000],[1.30000 0.00000 0.00000],-0.02019,0.02369,0.02698,0.00000,0.00000,-0.00726,-0.00294,0.09931,-0.00360,0.98051,1.15906,0.01465,0.31101,-1.07260,-1.05882,0.05844,-0.09121,1.09187,0.07925,-0.12973,-1.07992,-1.07992,57.68864,11.98063,57.68864368,11.98063048,A,144216.50
18:31:57.018404,1.17741,0.00847,2.77925,0.32532,[3.00000 0.00000 0.00000],[1.30000 0.00000 0.00000],-0.01997,0.02610,0.02912,0.00000,0.00000,-0.00619,0.00271,0.09357,-0.00177,0.96496,1.17012,0.01221,0.31387,-1.07593,-1.06075,0.06059,-0.09511,1.09187,0.07925,-0.12973,-1.07992,-1.07992,57.68864,11.98063,57.68864364,11.98063052,A,144216.50
18:31:57.028689,1.18796,0.00881,2.77925,0.32532,[3.00000 0.00000 0.00000],[1.30000 0.00000 0.00000],-0.01943,0.02853,0.03675,0.00000,0.00000,-0.00085,0.00820,0.07564,0.01482,0.97630,1.18067,0.00488,0.31616,-1.07896,-1.06237,0.06279,-0.09910,1.09187,0.07925,-0.12973,-1.07992,-1.07992,57.68864,11.98063,57.68864361,11.98063056,A,144216.50
18:31:57.135548,1.29481,0.10560,2.77925,0.32532,[3.00000 0.00000 0.00000],[1.30000 0.00000 0.00000],-0.01888,0.03093,0.04332,0.00000,0.00000,-0.00054,0.01569,0.06521,0.01427,0.98472,1.19033,0.01709,0.31799,-1.06919,-1.05120,0.08192,-0.13279,1.27852,0.13868,-0.22239,-1.00047,-1.00047,57.68864,11.98063,57.68864331,11.98063088,A,144216.70
18:31:57.183160,1.34242,0.02122,2.77925,0.32532,[3.00000 0.00000 0.00000],[1.30000 0.00000 0.00000],-0.01194,0.05972,0.05401,0.00000,0.00000,-0.00512,0.01676,0.04056,-0.03355,0.99247,1.33210,0.01465,0.31945,-1.06378,-1.02902,0.09133,-0.14876,1.27852,0.13868,-0.22239,-1.00047,-1.00047,57.68864,11.98063,57.68864316,11.98063104,A,144216.70
18:31:57.209129,1.36840,0.01310,2.77925,0.32532,[3.00000 0.00000 0.00000],[1.30000 0.00000 0.00000],-0.01024,0.06009,0.05080,0.00000,0.00000,-0.01490,0.01752,0.02568,0.03196,1.00382,1.36048,0.00733,0.32063,-1.05917,-1.02421,0.09761,-0.15895,1.27852,0.13868,-0.22239,-1.00047,-1.00047,57.68864,11.98063,57.68864307,11.98063114,A,144216.70
18:31:57.261701,1.42096,0.03668,0.80102,0.80102,[3.00000 0.00000 0.00000],[1.30000 0.00000 0.00000],-0.00869,0.06009,0.05844,0.00000,0.00000,-0.00604,0.02332,0.11675,0.02287,0.98448,1.38590,0.01221,0.41671,-1.05489,-1.01992,0.11071,-0.18003,1.41730,0.19812,-0.31505,-1.00047,-1.00047,57.68864,11.98063,57.68864288,11.98063136,A,144216.90
18:31:57.289056,1.44775,0.01346,0.80102,0.80102,[3.00000 0.00000 0.00000],[1.30000 0.00000 0.00000],-0.00731,0.06009,0.03522,0.00000,0.00000,-0.00619,0.00958,0.08766,-0.00769,0.99961,1.43748,0.01954,0.49357,-1.05154,-1.01658,0.11987,-0.19457,1.41730,0.19812,-0.31505,-1.00047,-1.00047,57.68864,11.98063,57.68864275,11.98063152,A,144216.90
18:31:57.313940,1.47241,0.01194,0.80102,0.80102,[3.00000 0.00000 0.00000],[1.30000 0.00000 0.00000],-0.00637,0.06009,0.02591,0.00000,0.00000,-0.01398,0.00500,0.07851,0.04014,0.97905,1.46222,0.01709,0.55506,-1.04866,-1.01370,0.12899,-0.20900,1.41730,0.19812,-0.31505,-1.00047,-1.00047,57.68864,11.98063,57.68864262,11.98063167,A,144216.90
18:31:57.340483,1.49974,0.01239,0.80102,0.80102,[3.00000 0.00000 0.00000],[1.30000 0.00000 0.00000],-0.00625,0.05963,0.01430,0.00000,0.00000,0.00145,0.00240,0.06289,0.00311,0.99162,1.48993,0.03175,0.60425,-1.04605,-1.01135,0.13914,-0.22505,1.41730,0.19812,-0.31505,-1.00047,-1.00047,57.68864,11.98063,57.68864248,11.98063184,A,144216.90
18:31:57.376197,1.53546,0.02461,0.80102,0.80102,[3.00000 0.00000 0.00000],[1.30000 0.00000 0.00000],-0.00551,0.05757,0.00025,0.00000,0.00000,-0.00268,0.00881,0.12560,0.06966,0.98881,1.51189,0.00977,0.64361,-1.11290,-1.07941,0.15294,-0.25073,1.53174,0.20803,-0.40771,-1.46430,-1.46430,57.68864,11.98063,57.68864225,11.98063207,A,144217.00
18:31:57.400615,1.55988,0.01253,0.80102,0.80102,[3.00000 0.00000 0.00000],[1.30000 0.00000 0.00000],-0.00606,0.05250,-0.01303,0.00000,0.00000,0.00358,0.01584,0.08406,0.01915,1.00516,1.55089,0.01221,0.67509,-1.16958,-1.13904,0.16214,-0.27062,1.53174,0.20803,-0.40771,-1.46430,-1.46430,57.68864,11.98063,57.68864207,11.98063223,A,144217.00
18:31:57.420902,1.58017,0.00754,0.80102,0.80102,[3.00000 0.00000 0.00000],[1.30000 0.00000 0.00000],-0.00643,0.05094,-0.02434,0.00000,0.00000,-0.00558,0.01721,0.12047,0.03129,0.99223,1.57292,0.01954,0.70028,-1.21775,-1.18811,0.16938,-0.28822,1.53174,0.20803,-0.40771,-1.46430,-1.46430,57.68864,11.98063,57.68864191,11.98063235,A,144217.00
18:31:57.434485,1.59372,0.01089,0.80102,0.80102,[3.00000 0.00000 0.00000],[1.30000 0.00000 0.00000],-0.00680,0.05055,-0.02907,0.00000,0.00000,-0.00726,0.01126,0.06667,0.01574,1.00144,1.58318,0.00733,0.72043,-1.25889,-1.22948,0.17372,-0.30016,1.53174,0.20803,-0.40771,-1.46430,-1.46430,57.68864,11.98063,57.68864180,11.98063242,A,144217.00
18:31:57.458640,1.61789,0.01203,0.80102,0.80102,[3.00000 0.00000 0.00000],[1.30000 0.00000 0.00000],-0.00794,0.04998,-0.04510,0.00000,0.00000,0.00526,-0.00004,0.09839,0.01574,0.99698,1.60718,0.01954,0.73655,-1.29350,-1.26442,0.18023,-0.31905,1.53174,0.20803,-0.40771,-1.46430,-1.46430,57.68864,11.98063,57.68864163,11.98063253,A,144217.00
18:31:57.498607,1.65787,0.02606,0.80102,0.80102,[3.00000 0.00000 0.00000],[1.30000 0.00000 0.00000],-0.00891,0.04902,-0.04602,0.00000,0.00000,-0.01780,0.00423,0.06777,0.03117,0.98838,1.63257,0.01709,0.74944,-1.26466,-1.23614,0.19046,-0.35078,1.65416,0.21793,-0.42625,-1.07992,-1.07992,57.68864,11.98063,57.68864135,11.98063270,A,144217.10
18:31:57.521127,1.68039,0.00964,0.92961,0.92961,[3.00000 0.00000 0.00000],[1.30000 0.00000 0.00000],-0.01073,0.04724,-0.04205,0.00000,0.00000,-0.00069,0.01187,0.11980,0.00195,0.95325,1.67030,0.01709,0.78547,-1.24056,-1.21308,0.19628,-0.36735,1.65416,0.21793,-0.42625,-1.07992,-1.07992,57.68864,11.98063,57.68864120,11.98063280,A,144217.10
18:31:57.531080,1.69034,0.00840,0.92961,0.92961,[3.00000 0.00000 0.00000],[1.30000 0.00000 0.00000],-0.01102,0.04701,-0.04083,0.00000,0.00000,-0.01077,0.01049,0.10242,0.02800,0.95624,1.68210,0.00977,0.81430,-1.22035,-1.19300,0.19942,-0.37580,1.65416,0.21793,-0.42625,-1.07992,-1.07992,57.68864,11.98063,57.68864112,11.98063286,A,144217.10
18:31:57.543554,1.70281,0.01063,0.92961,0.92961,[3.00000 0.00000 0.00000],[1.30000 0.00000 0.00000],-0.01116,0.04698,-0.03609,0.00000,0.00000,-0.01856,0.01095,0.03898,0.03331,0.99180,1.69288,0.01465,0.83736,-1.20311,-1.17577,0.20312,-0.38530,1.65416,0.21793,-0.42625,-1.07992,-1.07992,57.68864,11.98063,57.68864103,11.98063292,A,144217.10
18:31:57.566595,1.72585,0.01064,0.92961,0.92961,[3.00000 0.00000 0.00000],[1.30000 0.00000 0.00000],-0.01233,0.04698,-0.02342,0.00000,0.00000,-0.00940,0.00668,0.11084,-0.02574,0.99326,1.71611,0.00977,0.85581,-1.18814,-1.16081,0.21000,-0.40208,1.65416,0.21793,-0.42625,-1.07992,-1.07992,57.68864,11.98063,57.68864088,11.98063303,A,144217.10
18:31:57.597253,1.75650,0.01547,0.92961,0.92961,[3.00000 0.00000 0.00000],[1.30000 0.00000 0.00000],-0.01288,0.04698,-0.02021,0.00000,0.00000,-0.02711,0.01034,0.06564,0.01775,1.01968,1.74510,0.00977,0.87057,-1.17523,-1.14790,0.21886,-0.42276,1.65416,0.21793,-0.42625,-1.07992,-1.07992,57.68864,11.98063,57.68864070,11.98063318,A,144217.10
18:31:57.636901,1.79617,0.02555,0.92961,0.92961,[3.00000 0.00000 0.00000],[1.30000 0.00000 0.00000],-0.01333,0.04698,-0.01181,0.00000,0.00000,-0.00482,0.00805,0.10510,0.00641,0.98466,1.77230,0.01221,0.88238,-1.18615,-1.15882,0.23293,-0.45489,1.79244,0.23774,-0.48184,-1.22848,-1.22848,57.68864,11.98063,57.68864041,11.98063342,A,144217.20
18:31:57.661848,1.82112,0.01311,0.92961,0.92961,[3.00000 0.00000 0.00000],[1.30000 0.00000 0.00000],-0.01413,0.04695,-0.01319,0.00000,0.00000,-0.01077,0.00469,0.08808,-0.00549,0.99210,1.81085,0.01221,0.89182,-1.19592,-1.16860,0.24063,-0.47329,1.79244,0.23774,-0.48184,-1.22848,-1.22848,57.68864,11.98063,57.68864024,11.98063355,A,144217.20
18:31:57.686538,1.84533,0.01238,0.92961,0.92961,[3.00000 0.00000 0.00000],[1.30000 0.00000 0.00000],-0.01484,0.04625,-0.02434,0.00000,0.00000,-0.01841,-0.00432,0.12115,0.00616,0.97673,1.83573,0.01954,0.89938,-1.20417,-1.17726,0.24767,-0.49061,1.79244,0.23774,-0.48184,-1.22848,-1.22848,57.68864,11.98063,57.68864009,11.98063367,A,144217.20
18:31:57.712422,1.87110,0.01235,0.92961,0.92961,[3.00000 0.00000 0.00000],[1.30000 0.00000 0.00000],-0.01538,0.04480,-0.00952,0.00000,0.00000,-0.02100,-0.00142,0.08839,-0.00695,0.99820,1.86102,0.01954,0.90542,-1.21100,-1.18494,0.25481,-0.50858,1.79244,0.23774,-0.48184,-1.22848,-1.22848,57.68864,11.98063,57.68863993,11.98063379,A,144217.20
18:31:57.733500,1.89277,0.01253,0.92961,0.92961,[3.00000 0.00000 0.00000],[1.30000 0.00000 0.00000],-0.01586,0.04305,-0.00876,0.00000,0.00000,-0.01490,0.00286,0.07540,-0.00805,0.99442,1.88170,0.01221,0.91026,-1.21687,-1.19183,0.25944,-0.52073,1.79244,0.23774,-0.48184,-1.22848,-1.22848,57.68864,11.98063,57.68863982,11.98063387,A,144217.20
18:31:57.778024,1.93729,0.03521,0.96552,0.96552,[3.00000 0.00000 0.00000],[1.30000 0.00000 0.00000],-0.01618,0.04138,-0.00418,0.00000,0.00000,-0.00726,0.00393,0.10693,-0.00378,0.95843,1.90159,0.01465,0.92131,-1.20580,-1.18173,0.27606,-0.56163,1.93370,0.31699,-0.64864,-1.12724,-1.12724,57.68864,11.98063,57.68863945,11.98063414,A,144217.40
18:31:57.802878,1.96211,0.01299,0.96552,0.96552,[3.00000 0.00000 0.00000],[1.30000 0.00000 0.00000],-0.01628,0.03872,-0.00066,0.00000,0.00000,-0.01077,-0.00401,0.12535,0.00756,1.01107,1.95278,0.00733,0.93015,-1.19677,-1.17425,0.28538,-0.58373,1.93370,0.31699,-0.64864,-1.12724,-1.12724,57.68864,11.98063,57.68863925,11.98063430,A,144217.40
18:31:57.827406,1.98667,0.01101,0.96552,0.96552,[3.00000 0.00000 0.00000],[1.30000 0.00000 0.00000],-0.01698,0.03829,-0.00463,0.00000,0.00000,-0.01535,-0.00630,0.12828,-0.03062,1.08385,1.97742,0.00733,0.93723,-1.18910,-1.16682,0.29449,-0.60494,1.93370,0.31699,-0.64864,-1.12724,-1.12724,57.68864,11.98063,57.68863906,11.98063445,A,144217.40
18:31:57.850964,2.01023,0.01166,0.96552,0.96552,[3.00000 0.00000 0.00000],[1.30000 0.00000 0.00000],-0.01717,0.03807,0.00010,0.00000,0.00000,-0.00787,-0.00264,0.05423,-0.00262,1.04212,1.99980,0.01465,0.94289,-1.18265,-1.16051,0.30202,-0.62213,1.93370,0.31699,-0.64864,-1.12724,-1.12724,57.68864,11.98063,57.68863891,11.98063458,A,144217.40
18:31:57.880051,2.03929,0.01532,0.96552,0.96552,[3.00000 0.00000 0.00000],[1.30000 0.00000 0.00000],-0.01656,0.03801,-0.00189,0.00000,0.00000,0.01000,0.00301,0.12035,0.05094,0.93702,2.02594,0.00733,0.94741,-1.17706,-1.15495,0.31082,-0.64196,1.93370,0.31699,-0.64864,-1.12724,-1.12724,57.68864,11.98063,57.68863873,11.98063473,A,144217.40
18:31:57.917627,2.07689,0.02493,0.96552,0.96552,[3.00000 0.00000 0.00000],[1.30000 0.00000 0.00000],-0.01644,0.03801,-0.00357,0.00000,0.00000,-0.01764,0.00148,0.10437,0.02556,0.99985,2.05233,0.03907,0.95103,-1.11556,-1.09345,0.32667,-0.67616,2.07193,0.33680,-0.66717,-0.75204,-0.75204,57.68864,11.98064,57.68863842,11.98063500,A,144217.50
18:31:57.943495,2.10276,0.01305,0.96552,0.96552,[3.00000 0.00000 0.00000],[1.30000 0.00000 0.00000],-0.01668,0.03801,-0.00158,0.00000,0.00000,0.00710,0.00820,0.03556,-0.00098,1.02138,2.09152,0.03663,0.95393,-1.06378,-1.04167,0.33604,-0.69285,2.07193,0.33680,-0.66717,-0.75204,-0.75204,57.68864,11.98064,57.68863827,11.98063515,A,144217.50
18:31:57.969940,2.12920,0.01494,0.96552,0.96552,[3.00000 0.00000 0.00000],[1.30000 0.00000 0.00000],-0.01648,0.03801,-0.01395,0.00000,0.00000,-0.02391,0.00866,0.03831,0.04679,0.99210,2.11698,0.01954,0.95625,-1.01975,-0.99764,0.34613,-0.70875,2.07193,0.33680,-0.66717,-0.75204,-0.75204,57.68864,11.98064,57.68863813,11.98063532,A,144217.50
18:31:57.992843,2.15211,0.01084,1.03674,1.03674,[3.00000 0.00000 0.00000],[1.30000 0.00000 0.00000],-0.01453,0.03801,-0.03716,0.00000,0.00000,-0.03566,-0.02448,-0.20722,0.19245,0.93409,2.14220,0.03175,0.97235,-0.98236,-0.96025,0.35573,-0.72228,2.07193,0.33680,-0.66717,-0.75204,-0.75204,57.68864,11.98064,57.68863800,11.98063549,A,144217.50
18:31:58.033266,2.19253,0.02624,1.03674,1.03674,[3.00000 0.00000 0.00000],[1.30000 0.00000 0.00000],-0.01482,0.03801,0.00270,0.00000,0.00000,-0.01642,-0.00676,0.30164,-0.00872,0.89328,2.16784,0.04884,0.98523,-0.98733,-0.96522,0.37834,-0.75357,2.18771,0.39624,-0.75983,-1.00047,-1.00047,57.68864,11.98064,57.68863772,11.98063587,A,144217.60
18:31:58.057078,2.21634,0.01269,1.03674,1.03674,[3.00000 0.00000 0.00000],[1.30000 0.00000 0.00000],-0.01749,0.03473,-0.08267,0.00000,0.00000,-0.03307,-0.01425,-0.15488,0.04111,1.13594,2.20501,0.02198,0.99553,-0.99178,-0.97158,0.38983,-0.76919,2.18771,0.39624,-0.75983,-1.00047,-1.00047,57.68864,11.98064,57.68863758,11.98063606,A,144217.60
18:31:58.085446,2.24471,0.01475,1.03674,1.03674,[3.00000 0.00000 0.00000],[1.30000 0.00000 0.00000],-0.01952,0.02788,-0.03823,0.00000,0.00000,0.02725,-0.01684,0.12444,-0.04959,0.91518,2.23336,0.04640,1.00377,-0.99491,-0.97870,0.40269,-0.78708,2.18771,0.39624,-0.75983,-1.00047,-1.00047,57.68864,11.98064,57.68863742,11.98063628,A,144217.60
18:31:58.108810,2.26807,0.01353,1.03674,1.03674,[3.00000 0.00000 0.00000],[1.30000 0.00000 0.00000],-0.02386,0.02171,-0.04617,0.00000,0.00000,-0.04422,-0.02601,0.08955,-0.19550,0.91994,2.25754,0.01954,1.01036,-0.99722,-0.98460,0.41319,-0.80181,2.18771,0.39624,-0.75983,-1.00047,-1.00047,57.68864,11.98064,57.68863729,11.98063645,A,144217.60
18:31:58.162829,2.32209,0.03924,1.03674,1.03674,[3.00000 0.00000 0.00000],[1.30000 0.00000 0.00000],-0.02533,0.01721,-0.08771,0.00000,0.00000,0.00786,-0.02295,-0.05795,0.07113,1.07817,2.28557,0.02686,1.01564,-1.02480,-1.01479,0.44394,-0.85041,2.31711,0.46558,-0.92662,-1.17680,-1.17680,57.68864,11.98064,57.68863685,11.98063697,A,144217.80
18:31:58.187709,2.34671,0.01190,1.21137,1.21137,[3.00000 0.00000 0.00000],[1.30000 0.00000 0.00000],-0.02844,0.01095,-0.08573,0.00000,0.00000,0.00603,-0.03731,0.10852,0.06985,0.88328,2.33626,0.01709,1.05479,-1.04828,-1.04191,0.45592,-0.87175,2.31711,0.46558,-0.92662,-1.17680,-1.17680,57.68864,11.98064,57.68863666,11.98063717,A,144217.80
18:31:58.213844,2.37311,0.01371,1.21137,1.21137,[3.00000 0.00000 0.00000],[1.30000 0.00000 0.00000],-0.03159,0.00665,-0.07412,0.00000,0.00000,0.02069,-0.03792,0.08156,-0.08162,0.96862,2.36277,0.02930,1.08610,-1.06793,-1.06406,0.46867,-0.89549,2.31711,0.46558,-0.92662,-1.17680,-1.17680,57.68864,11.98064,57.68863645,11.98063739,A,144217.80
18:31:58.239968,2.39924,0.01265,1.21137,1.21137,[3.00000 0.00000 0.00000],[1.30000 0.00000 0.00000],-0.03319,0.00470,-0.06908,0.00000,0.00000,0.05429,-0.02814,0.05710,0.00537,1.07470,2.38883,0.02442,1.11116,-1.08455,-1.08182,0.47983,-0.91743,2.31711,0.46558,-0.92662,-1.17680,-1.17680,57.68864,11.98064,57.68863625,11.98063757,A,144217.80
18:31:58.278037,2.43730,0.02596,1.21137,1.21137,[3.00000 0.00000 0.00000],[1.30000 0.00000 0.00000],-0.03404,0.00459,-0.03060,0.00000,0.00000,0.06452,-0.02188,0.14835,-0.01714,1.05121,2.41313,0.00244,1.13120,-1.09713,-1.09447,0.49921,-0.95656,2.43251,0.50521,-1.01929,-1.16671,-1.16671,57.68864,11.98064,57.68863590,11.98063790,A,144217.90
18:31:58.301110,2.46037,0.01245,1.21137,1.21137,[3.00000 0.00000 0.00000],[1.30000 0.00000 0.00000],-0.03454,0.00459,-0.00189,0.00000,0.00000,-0.02100,-0.02265,0.19965,-0.03751,1.00504,2.45129,0.02198,1.14724,-1.10789,-1.10523,0.50942,-0.97891,2.43251,0.50521,-1.01929,-1.16671,-1.16671,57.68864,11.98064,57.68863570,11.98063807,A,144217.90
18:31:58.323736,2.48300,0.01179,1.21137,1.21137,[3.00000 0.00000 0.00000],[1.30000 0.00000 0.00000],-0.03532,0.00464,0.01384,0.00000,0.00000,-0.03169,-0.02020,0.11877,-0.08326,1.02815,2.47244,0.00488,1.16006,-1.11704,-1.11434,0.51886,-1.00013,2.43251,0.50521,-1.01929,-1.16671,-1.16671,57.68864,11.98064,57.68863551,11.98063823,A,144217.90
18:31:58.345425,2.50469,0.01136,1.21137,1.21137,[3.00000 0.00000 0.00000],[1.30000 0.00000 0.00000],-0.03502,0.00623,0.01690,0.00000,0.00000,-0.02940,-0.00325,0.13694,-0.01482,1.00528,2.49484,0.02198,1.17033,-1.12496,-1.12134,0.52698,-1.01901,2.43251,0.50521,-1.01929,-1.16671,-1.16671,57.68864,11.98064,57.68863534,11.98063837,A,144217.90
18:31:58.370540,2.52893,0.01163,1.21137,1.21137,[3.00000 0.00000 0.00000],[1.30000 0.00000 0.00000],-0.03346,0.01010,0.04683,0.00000,0.00000,-0.01917,-0.00218,0.09162,0.01891,0.97533,2.51939,0.02198,1.17853,-1.13199,-1.12612,0.53603,-1.04005,2.43251,0.50521,-1.01929,-1.16671,-1.16671,57.68864,11.98064,57.68863515,11.98063852,A,144217.90
18:31:58.410537,2.56980,0.02538,1.27747,1.27747,[3.00000 0.00000 0.00000],[1.30000 0.00000 0.00000],-0.03352,0.01305,0.03385,0.00000,0.00000,-0.01795,-0.01852,0.33410,-0.05996,0.88798,2.54495,0.00000,1.19832,-1.10829,-1.10071,0.55778,-1.08501,2.56476,0.59436,-1.14901,-0.96869,-0.96869,57.68863,11.98064,57.68863474,11.98063888,A,144218.00
18:31:58.435237,2.59450,0.01249,1.27747,1.27747,[3.00000 0.00000 0.00000],[1.30000 0.00000 0.00000],-0.03257,0.01421,0.04255,0.00000,0.00000,0.00160,-0.01623,0.13658,-0.06051,1.05201,2.58550,0.00000,1.21415,-1.08833,-1.08007,0.57137,-1.11137,2.56476,0.59436,-1.14901,-0.96869,-0.96869,57.68863,11.98064,57.68863451,11.98063911,A,144218.00
18:31:58.461427,2.62069,0.01335,1.27747,1.27747,[3.00000 0.00000 0.00000],[1.30000 0.00000 0.00000],-0.03090,0.01421,0.04087,0.00000,0.00000,0.01855,-0.01241,0.15573,0.04038,1.00443,2.60982,0.00000,1.22682,-1.07134,-1.06308,0.58428,-1.13527,2.56476,0.59436,-1.14901,-0.96869,-0.96869,57.68863,11.98064,57.68863429,11.98063933,A,144218.00
18:31:58.488357,2.64762,0.01288,1.27747,1.27747,[3.00000 0.00000 0.00000],[1.30000 0.00000 0.00000],-0.03026,0.01421,0.04362,0.00000,0.00000,0.00206,-0.00279,0.17769,-0.03861,0.94629,2.63750,0.00000,1.23695,-1.05689,-1.04862,0.59796,-1.15964,2.56476,0.59436,-1.14901,-0.96869,-0.96869,57.68863,11.98064,57.68863407,11.98063956,A,144218.00
18:31:58.529897,2.68916,0.02738,1.27747,1.27747,[3.00000 0.00000 0.00000],[1.30000 0.00000 0.00000],-0.02919,0.01426,0.03919,0.00000,0.00000,-0.00879,-0.01089,0.18294,-0.00079,0.96429,2.66408,0.00000,1.24505,-1.08334,-1.07505,0.62359,-1.20608,2.68433,0.63398,-1.26021,-1.22848,-1.22848,57.68863,11.98064,57.68863365,11.98063999,A,144218.10
18:31:58.553905,2.71316,0.01320,1.68472,1.68472,[3.00000 0.00000 0.00000],[1.30000 0.00000 0.00000],-0.02735,0.01743,0.05508,0.00000,0.00000,0.02191,0.01401,0.18062,-0.01726,1.04426,2.70235,0.00244,1.33298,-1.10637,-1.09623,0.63551,-1.22986,2.68433,0.63398,-1.26021,-1.22848,-1.22848,57.68863,11.98064,57.68863344,11.98064019,A,144218.10
18:31:58.580875,2.73951,0.01381,1.68472,1.68472,[3.00000 0.00000 0.00000],[1.30000 0.00000 0.00000],-0.02598,0.02049,0.04897,0.00000,0.00000,0.01626,0.00530,0.16116,0.00994,0.97948,2.72831,0.00244,1.40333,-1.12607,-1.11415,0.64898,-1.25775,2.68433,0.63398,-1.26021,-1.22848,-1.22848,57.68863,11.98064,57.68863319,11.98064042,A,144218.10
18:31:58.607495,2.76676,0.01397,1.68472,1.68472,[3.00000 0.00000 0.00000],[1.30000 0.00000 0.00000],-0.02525,0.02329,0.05141,0.00000,0.00000,0.00511,0.00439,0.17196,-0.03721,0.92275,2.75613,0.00000,1.45961,-1.14297,-1.12942,0.66180,-1.28549,2.68433,0.63398,-1.26021,-1.22848,-1.22848,57.68863,11.98064,57.68863294,11.98064063,A,144218.10
18:31:58.648691,2.80784,0.02729,1.68472,1.68472,[3.00000 0.00000 0.00000],[1.30000 0.00000 0.00000],-0.02289,0.02706,0.04653,0.00000,0.00000,0.00313,0.00683,0.14396,0.08046,0.99155,2.78281,0.00000,1.50463,-1.12488,-1.10914,0.68711,-1.33896,2.80283,0.70332,-1.37140,-1.01320,-1.01320,57.68863,11.98064,57.68863246,11.98064106,A,144218.20
18:31:58.672202,2.83147,0.01043,1.68472,1.68472,[3.00000 0.00000 0.00000],[1.30000 0.00000 0.00000],-0.02072,0.03229,0.05676,0.00000,0.00000,-0.01871,0.02439,0.27609,0.00714,0.83979,2.82237,0.00488,1.54065,-1.11033,-1.09154,0.70102,-1.36691,2.80283,0.70332,-1.37140,-1.01320,-1.01320,57.68863,11.98064,57.68863221,11.98064129,A,144218.20
18:31:58.693773,2.85304,0.01172,1.40904,1.40904,[3.00000 0.00000 0.00000],[1.30000 0.00000 0.00000],-0.01921,0.03320,0.06455,0.00000,0.00000,-0.06651,0.01172,0.10370,0.02153,1.03761,2.84337,0.00000,1.51433,-1.09797,-1.07866,0.71366,-1.39124,2.80283,0.70332,-1.37140,-1.01320,-1.01320,57.68863,11.98064,57.68863199,11.98064151,A,144218.20
18:31:58.720154,2.87942,0.01317,1.40904,1.40904,[3.00000 0.00000 0.00000],[1.30000 0.00000 0.00000],-0.01924,0.03323,0.06149,0.00000,0.00000,-0.00482,0.00912,-0.00500,-0.11706,1.25209,2.86840,0.00000,1.49327,-1.08734,-1.06802,0.72797,-1.41789,2.80283,0.70332,-1.37140,-1.01320,-1.01320,57.68863,11.98064,57.68863175,11.98064175,A,144218.20
18:31:58.745853,2.90510,0.01291,1.40904,1.40904,[3.00000 0.00000 0.00000],[1.30000 0.00000 0.00000],-0.01663,0.03323,0.05630,0.00000,0.00000,0.05276,0.02363,0.08247,0.09180,1.02669,2.89425,0.00000,1.47642,-1.07830,-1.05897,0.74209,-1.44349,2.80283,0.70332,-1.37140,-1.01320,-1.01320,57.68863,11.98064,57.68863152,11.98064199,A,144218.20
18:31:58.797850,2.95712,0.03709,1.40904,1.40904,[3.00000 0.00000 0.00000],[1.30000 0.00000 0.00000],-0.01345,0.03323,0.06867,0.00000,0.00000,0.00923,0.02347,0.21350,0.07735,0.75402,2.92186,0.00000,1.46295,-1.10750,-1.08818,0.78053,-1.51870,2.95234,0.80238,-1.68646,-1.26616,-1.26616,57.68863,11.98064,57.68863084,11.98064263,A,144218.40
18:31:58.825550,2.98480,0.01406,1.93408,1.93408,[3.00000 0.00000 0.00000],[1.30000 0.00000 0.00000],-0.01185,0.03340,0.06546,0.00000,0.00000,0.07261,0.02271,0.17867,-0.10266,1.06896,2.97384,0.00000,1.55717,-1.13339,-1.11396,0.79655,-1.55559,2.95234,0.80238,-1.68646,-1.26616,-1.26616,57.68863,11.98064,57.68863051,11.98064290,A,144218.40
18:31:58.853048,3.01232,0.01370,1.93408,1.93408,[3.00000 0.00000 0.00000],[1.30000 0.00000 0.00000],-0.00825,0.03348,0.05111,0.00000,0.00000,0.05077,0.02790,0.16903,0.16616,0.98118,3.00223,0.00000,1.63256,-1.15530,-1.13582,0.81257,-1.59413,2.95234,0.80238,-1.68646,-1.26616,-1.26616,57.68863,11.98064,57.68863016,11.98064317,A,144218.40
18:31:58.881334,3.04060,0.01443,1.93408,1.93408,[3.00000 0.00000 0.00000],[1.30000 0.00000 0.00000],-0.00728,0.03348,0.06180,0.00000,0.00000,0.02893,0.00057,0.28170,-0.01604,0.93098,3.02927,0.00244,1.69286,-1.17390,-1.15443,0.82737,-1.63169,2.95234,0.80238,-1.68646,-1.26616,-1.26616,57.68863,11.98064,57.68862983,11.98064342,A,144218.40
18:31:58.921565,3.08083,0.02678,1.93408,1.93408,[3.00000 0.00000 0.00000],[1.30000 0.00000 0.00000],-0.00590,0.03348,0.05752,0.00000,0.00000,-0.03032,0.00866,0.09522,0.01677,0.88944,3.05634,0.00000,1.74111,-1.15352,-1.13405,0.85576,-1.69878,3.07598,0.89154,-1.83472,-1.02940,-1.02940,57.68863,11.98064,57.68862922,11.98064390,A,144218.50
18:31:58.945312,3.10458,0.01237,1.93408,1.93408,[3.00000 0.00000 0.00000],[1.30000 0.00000 0.00000],-0.00358,0.03348,0.06287,0.00000,0.00000,-0.10301,0.02073,0.16921,0.03038,0.95447,3.09330,0.00244,1.77970,-1.13696,-1.11748,0.87163,-1.73574,3.07598,0.89154,-1.83472,-1.02940,-1.02940,57.68863,11.98064,57.68862889,11.98064417,A,144218.50
18:31:58.974388,3.13342,0.01438,1.72207,1.72207,[3.00000 0.00000 0.00000],[1.30000 0.00000 0.00000],-0.00215,0.03348,0.06821,0.00000,0.00000,-0.01596,0.01538,-0.05118,-0.00671,1.28326,3.12182,0.00488,1.76818,-1.12264,-1.10317,0.89120,-1.77883,3.07598,0.89154,-1.83472,-1.02940,-1.02940,57.68863,11.98064,57.68862850,11.98064449,A,144218.50
18:31:58.997747,3.15701,0.01175,1.72207,1.72207,[3.00000 0.00000 0.00000],[1.30000 0.00000 0.00000],-0.00093,0.03348,0.03461,0.00000,0.00000,0.08239,-0.00768,0.11352,0.05948,1.14851,3.14787,0.00000,1.75895,-1.11064,-1.09117,0.90736,-1.81359,3.07598,0.89154,-1.83472,-1.02940,-1.02940,57.68863,11.98064,57.68862819,11.98064477,A,144218.50
18:31:59.039631,3.19889,0.02811,1.72207,1.72207,[3.00000 0.00000 0.00000],[1.30000 0.00000 0.00000],0.00113,0.03348,0.03248,0.00000,0.00000,0.04879,-0.02249,0.12779,0.10394,0.89164,3.17318,0.00000,1.75158,-1.11519,-1.09571,0.94151,-1.88256,3.19393,0.96088,-1.98298,-1.13332,-1.13332,57.68863,11.98065,57.68862757,11.98064534,A,144218.60
18:31:59.067432,3.22669,0.01418,1.72207,1.72207,[3.00000 0.00000 0.00000],[1.30000 0.00000 0.00000],0.00183,0.03147,0.03309,0.00000,0.00000,-0.01596,-0.03364,0.06966,-0.01482,1.04987,3.21643,0.00000,1.74568,-1.11961,-1.10130,0.96085,-1.92330,3.19393,0.96088,-1.98298,-1.13332,-1.13332,57.68863,11.98065,57.68862720,11.98064567,A,144218.60
18:31:59.095094,3.25436,0.01364,2.23273,2.23273,[3.00000 0.00000 0.00000],[1.30000 0.00000 0.00000],0.00102,0.02760,0.04103,0.00000,0.00000,0.01320,-0.01241,0.24674,-0.07283,0.87511,3.24192,0.00244,1.84309,-1.12305,-1.10700,0.97964,-1.96331,3.19393,0.96088,-1.98298,-1.13332,-1.13332,57.68863,11.98065,57.68862684,11.98064598,A,144218.60
18:31:59.122686,3.28194,0.01462,2.23273,2.23273,[3.00000 0.00000 0.00000],[1.30000 0.00000 0.00000],0.00261,0.02182,0.03049,0.00000,0.00000,0.01336,-0.02173,0.09723,0.07607,0.88828,3.27010,0.00000,1.92102,-1.12559,-1.11290,0.99761,-2.00210,3.19393,0.96088,-1.98298,-1.13332,-1.13332,57.68863,11.98065,57.68862649,11.98064628,A,144218.60
18:31:59.174324,3.33335,0.03793,2.23273,2.23273,[3.00000 0.00000 0.00000],[1.30000 0.00000 0.00000],0.00287,0.01766,0.02484,0.00000,0.00000,0.00939,-0.04464,0.12060,0.00701,1.00314,3.29748,0.00000,1.98336,-1.12889,-1.11862,1.04465,-2.10185,3.32805,1.11938,-2.33509,-1.14784,-1.14784,57.68862,11.98065,57.68862560,11.98064708,A,144218.80
18:31:59.199146,3.35837,0.01263,2.16108,2.16108,[3.00000 0.00000 0.00000],[1.30000 0.00000 0.00000],0.00304,0.01588,0.01094,0.00000,0.00000,-0.00863,-0.04983,0.20411,0.00903,1.00461,3.34721,0.00733,2.01890,-1.13258,-1.12335,1.06553,-2.14881,3.32805,1.11938,-2.33509,-1.14784,-1.14784,57.68862,11.98065,57.68862518,11.98064743,A,144218.80
18:31:59.219348,3.37862,0.01044,2.16108,2.16108,[3.00000 0.00000 0.00000],[1.30000 0.00000 0.00000],0.00324,0.01588,0.03034,0.00000,0.00000,-0.04147,-0.03547,0.08619,0.00305,0.96831,3.36943,0.00000,2.04734,-1.13580,-1.12657,1.08402,-2.19103,3.32805,1.11938,-2.33509,-1.14784,-1.14784,57.68862,11.98065,57.68862480,11.98064774,A,144218.80
18:31:59.245324,3.40448,0.01233,2.16108,2.16108,[3.00000 0.00000 0.00000],[1.30000 0.00000 0.00000],0.00352,0.01571,0.03171,0.00000,0.00000,-0.00085,-0.03166,0.16769,0.00085,0.88639,3.39477,0.00488,2.07008,-1.13841,-1.12928,1.10550,-2.23966,3.32805,1.11938,-2.33509,-1.14784,-1.14784,57.68862,11.98065,57.68862436,11.98064810,A,144218.80
18:31:59.270834,3.42930,0.01294,2.16108,2.16108,[3.00000 0.00000 0.00000],[1.30000 0.00000 0.00000],0.00352,0.01466,0.01629,0.00000,0.00000,0.01076,-0.04586,0.06557,0.00628,0.90975,3.42011,0.00244,2.08828,-1.14057,-1.13205,1.12492,-2.28404,3.32805,1.11938,-2.33509,-1.14784,-1.14784,57.68862,11.98065,57.68862396,11.98064843,A,144218.80
18:31:59.312835,3.47210,0.02718,2.16108,2.16108,[3.00000 0.00000 0.00000],[1.30000 0.00000 0.00000],0.00422,0.01305,0.00468,0.00000,0.00000,0.05520,-0.05578,0.20624,0.07485,1.05109,3.44756,0.00977,2.10284,-1.17886,-1.17127,1.16086,-2.36896,3.46726,1.14909,-2.50189,-1.39447,-1.39447,57.68862,11.98065,57.68862320,11.98064903,A,144218.90
18:31:59.339151,3.49841,0.01379,2.10326,2.10326,[3.00000 0.00000 0.00000],[1.30000 0.00000 0.00000],0.00383,0.01076,-0.00708,0.00000,0.00000,0.03153,-0.05777,0.10815,0.02647,1.03078,3.48776,0.00733,2.10292,-1.21167,-1.20542,1.17831,-2.41832,3.46726,1.14909,-2.50189,-1.39447,-1.39447,57.68862,11.98065,57.68862275,11.98064932,A,144218.90
18:31:59.365740,3.52500,0.01310,2.10326,2.10326,[3.00000 0.00000 0.00000],[1.30000 0.00000 0.00000],0.00291,0.01059,-0.00570,0.00000,0.00000,-0.01612,-0.05731,0.04685,-0.01861,0.95599,3.51404,0.00488,2.10299,-1.23962,-1.23347,1.19354,-2.46614,3.46726,1.14909,-2.50189,-1.39447,-1.39447,57.68862,11.98065,57.68862232,11.98064958,A,144218.90
18:31:59.395125,3.55438,0.01372,2.10326,2.10326,[3.00000 0.00000 0.00000],[1.30000 0.00000 0.00000],0.00263,0.01059,0.00025,0.00000,0.00000,0.00985,-0.03807,0.08156,0.01238,0.96819,3.54334,0.00488,2.10305,-1.26337,-1.25721,1.20760,-2.51435,3.46726,1.14909,-2.50189,-1.39447,-1.39447,57.68862,11.98065,57.68862189,11.98064982,A,144218.90
18:31:59.436036,3.59530,0.02818,2.42056,2.42056,[3.00000 0.00000 0.00000],[1.30000 0.00000 0.00000],0.00295,0.01059,-0.00586,0.00000,0.00000,0.02588,-0.02998,0.06216,0.06033,0.93861,3.57003,0.00977,2.16655,-1.22420,-1.21804,1.23532,-2.59915,3.59046,1.26797,-2.68721,-1.00047,-1.00047,57.68862,11.98065,57.68862113,11.98065028,A,144219.00
18:31:59.460815,3.62006,0.01294,2.42056,2.42056,[3.00000 0.00000 0.00000],[1.30000 0.00000 0.00000],0.00245,0.01059,-0.00097,0.00000,0.00000,0.00618,-0.04448,0.13322,0.00177,0.99826,3.60978,0.00000,2.21735,-1.19120,-1.18504,1.25238,-2.64545,3.59046,1.26797,-2.68721,-1.00047,-1.00047,57.68862,11.98065,57.68862071,11.98065057,A,144219.00
18:31:59.487525,3.64679,0.01251,2.42056,2.42056,[3.00000 0.00000 0.00000],[1.30000 0.00000 0.00000],0.00239,0.01059,-0.02495,0.00000,0.00000,-0.03093,-0.05029,-0.01354,0.07381,1.05335,3.63541,0.00977,2.25799,-1.16311,-1.15696,1.27141,-2.69250,3.59046,1.26797,-2.68721,-1.00047,-1.00047,57.68862,11.98065,57.68862029,11.98065089,A,144219.00
18:31:59.514999,3.67426,0.01452,2.36229,2.36229,[3.00000 0.00000 0.00000],[1.30000 0.00000 0.00000],0.00191,0.01059,0.00453,0.00000,0.00000,-0.00237,-0.03456,0.08680,-0.00866,1.01376,3.66332,0.01221,2.27885,-1.13922,-1.13307,1.29161,-2.73861,3.59046,1.26797,-2.68721,-1.00047,-1.00047,57.68862,11.98065,57.68861987,11.98065123,A,144219.00
18:31:59.565158,3.72442,0.03732,2.36229,2.36229,[3.00000 0.00000 0.00000],[1.30000 0.00000 0.00000],0.00194,0.01059,0.00880,0.00000,0.00000,0.01733,-0.01730,-0.10272,0.01921,1.03334,3.68941,0.02198,2.29554,-1.13369,-1.12753,1.34463,-2.85042,3.71962,1.44627,-3.03933,-1.10205,-1.10205,57.68862,11.98065,57.68861887,11.98065212,A,144219.20
18:31:59.593576,3.75284,0.01380,2.81032,2.81032,[3.00000 0.00000 0.00000],[1.30000 0.00000 0.00000],0.00245,0.01059,0.01155,0.00000,0.00000,0.00618,-0.03211,0.05862,0.02678,0.96734,3.74177,0.00244,2.39850,-1.12942,-1.12327,1.37286,-2.90862,3.71962,1.44627,-3.03933,-1.10205,-1.10205,57.68862,11.98065,57.68861834,11.98065260,A,144219.20
18:31:59.618299,3.77735,0.01331,2.81032,2.81032,[3.00000 0.00000 0.00000],[1.30000 0.00000 0.00000],0.00295,0.01059,-0.00280,0.00000,0.00000,-0.02131,-0.04464,0.10766,0.07387,1.02132,3.76722,0.01954,2.48086,-1.12585,-1.11970,1.39689,-2.95757,3.71962,1.44627,-3.03933,-1.10205,-1.10205,57.68862,11.98065,57.68861790,11.98065300,A,144219.20
18:31:59.644295,3.80356,0.01274,2.81032,2.81032,[3.00000 0.00000 0.00000],[1.30000 0.00000 0.00000],0.00159,0.01059,-0.00876,0.00000,0.00000,-0.02268,-0.03288,-0.00952,-0.04459,1.06878,3.79421,0.00488,2.54675,-1.12274,-1.11658,1.42421,-3.01295,3.71962,1.44627,-3.03933,-1.10205,-1.10205,57.68862,11.98065,57.68861740,11.98065346,A,144219.20
18:31:59.686028,3.84529,0.02834,2.81032,2.81032,[3.00000 0.00000 0.00000],[1.30000 0.00000 0.00000],0.00125,0.01059,0.00285,0.00000,0.00000,-0.01108,-0.01577,0.01891,0.00616,0.97679,3.82063,0.00977,2.59947,-1.11644,-1.11028,1.47328,-3.11155,3.84035,1.55524,-3.24319,-1.07992,-1.07992,57.68862,11.98066,57.68861652,11.98065429,A,144219.30
18:31:59.711264,3.87051,0.01343,2.10723,2.10723,[3.00000 0.00000 0.00000],[1.30000 0.00000 0.00000],0.00018,0.01059,-0.01609,0.00000,0.00000,0.00511,-0.04494,0.08101,-0.00092,0.94440,3.85901,0.01465,2.50102,-1.11146,-1.10531,1.50008,-3.16389,3.84035,1.55524,-3.24319,-1.07992,-1.07992,57.68862,11.98066,57.68861605,11.98065474,A,144219.30
18:31:59.734574,3.89305,0.01186,2.10723,2.10723,[3.00000 0.00000 0.00000],[1.30000 0.00000 0.00000],0.00043,0.01059,-0.03014,0.00000,0.00000,0.02313,-0.05136,0.01555,0.07643,0.81069,3.88317,0.00488,2.42226,-1.10727,-1.10112,1.52357,-3.20913,3.84035,1.55524,-3.24319,-1.07992,-1.07992,57.68862,11.98066,57.68861564,11.98065513,A,144219.30
18:31:59.756828,3.91609,0.01259,2.10723,2.10723,[3.00000 0.00000 0.00000],[1.30000 0.00000 0.00000],0.00094,0.01059,-0.02922,0.00000,0.00000,0.01870,-0.05044,0.08052,0.09113,0.86034,3.90500,0.00977,2.35926,-1.10372,-1.09757,1.54543,-3.25078,3.84035,1.55524,-3.24319,-1.07992,-1.07992,57.68862,11.98066,57.68861527,11.98065550,A,144219.30
18:31:59.784679,3.94393,0.01577,2.10723,2.10723,[3.00000 0.00000 0.00000],[1.30000 0.00000 0.00000],-0.00053,0.01059,-0.01746,0.00000,0.00000,0.03245,-0.05212,0.07003,-0.04032,1.04798,3.93187,0.00488,2.30885,-1.10066,-1.09450,1.56909,-3.29565,3.84035,1.55524,-3.24319,-1.07992,-1.07992,57.68862,11.98066,57.68861486,11.98065590,A,144219.30
18:31:59.828926,3.98819,0.02863,2.62805,2.62805,[3.00000 0.00000 0.00000],[1.30000 0.00000 0.00000],-0.00270,0.01053,-0.05763,0.00000,0.00000,0.04726,-0.06235,-0.01177,-0.00037,1.07976,3.96217,0.00733,2.37269,-1.10844,-1.10231,1.61800,-3.39069,3.98296,1.65430,-3.46558,-1.15175,-1.15175,57.68861,11.98066,57.68861401,11.98065672,A,144219.40
18:31:59.853935,4.01320,0.01238,2.62805,2.62805,[3.00000 0.00000 0.00000],[1.30000 0.00000 0.00000],-0.00365,0.00957,-0.05106,0.00000,0.00000,-0.03108,-0.07289,-0.02239,0.10809,1.05445,4.00332,0.00244,2.42376,-1.11538,-1.10982,1.64122,-3.43673,3.98296,1.65430,-3.46558,-1.15175,-1.15175,57.68861,11.98066,57.68861359,11.98065711,A,144219.40
18:31:59.877691,4.03696,0.01191,2.62805,2.62805,[3.00000 0.00000 0.00000],[1.30000 0.00000 0.00000],-0.00481,0.00957,-0.04205,0.00000,0.00000,-0.03475,-0.06037,0.10565,0.01238,1.04926,4.02623,0.00244,2.46462,-1.12133,-1.11576,1.66229,-3.47928,3.98296,1.65430,-3.46558,-1.15175,-1.15175,57.68861,11.98066,57.68861321,11.98065747,A,144219.40
18:31:59.901647,4.06091,0.01143,2.62805,2.62805,[3.00000 0.00000 0.00000],[1.30000 0.00000 0.00000],-0.00565,0.00957,-0.04465,0.00000,0.00000,-0.02711,-0.04173,-0.04453,0.04782,1.06335,4.05211,0.00733,2.49731,-1.12634,-1.12078,1.68462,-3.52505,3.98296,1.65430,-3.46558,-1.15175,-1.15175,57.68861,11.98066,57.68861280,11.98065784,A,144219.40
18:31:59.946913,4.10617,0.02998,2.21112,2.21112,[3.00000 0.00000 0.00000],[1.30000 0.00000 0.00000],-0.00680,0.00957,-0.04220,0.00000,0.00000,-0.00008,-0.05563,0.06173,0.01995,0.94154,4.07918,0.01709,2.44007,-1.10628,-1.10071,1.73317,-3.62277,4.10093,1.76327,-3.63237,-0.99210,-0.99210,57.68861,11.98066,57.68861192,11.98065866,A,144219.50
18:31:59.971051,4.13030,0.01269,2.21112,2.21112,[3.00000 0.00000 0.00000],[1.30000 0.00000 0.00000],-0.00944,0.00957,-0.04129,0.00000,0.00000,0.00603,-0.06556,0.04166,-0.04172,0.98094,4.12041,0.00488,2.39428,-1.08961,-1.08405,1.75745,-3.66808,4.10093,1.76327,-3.63237,-0.99210,-0.99210,57.68861,11.98066,57.68861151,11.98065907,A,144219.50
18:32:00.000960,4.16022,0.01310,2.74124,2.74124,[3.00000 0.00000 0.00000],[1.30000 0.00000 0.00000],-0.01036,0.00957,-0.05442,0.00000,0.00000,-0.00344,-0.05670,0.12035,0.06612,1.06817,4.14900,0.02198,2.46367,-1.07536,-1.06980,1.78623,-3.72012,4.10093,1.76327,-3.63237,-0.99210,-0.99210,57.68861,11.98066,57.68861104,11.98065955,A,144219.50
18:32:00.025018,4.18428,0.01336,2.74124,2.74124,[3.00000 0.00000 0.00000],[1.30000 0.00000 0.00000],-0.01034,0.00957,-0.03518,0.00000,0.00000,0.00496,-0.04448,0.06307,0.07912,0.98997,4.17424,0.00733,2.51919,-1.06334,-1.05778,1.80870,-3.75887,4.10093,1.76327,-3.63237,-0.99210,-0.99210,57.68861,11.98066,57.68861070,11.98065993,A,144219.50
18:32:00.074809,4.23407,0.03749,2.74124,2.74124,[3.00000 0.00000 0.00000],[1.30000 0.00000 0.00000],-0.01238,0.00957,-0.03075,0.00000,0.00000,-0.02497,-0.04418,0.10352,-0.06460,0.97856,4.19887,0.01954,2.56360,-1.08913,-1.08356,1.87028,-3.87402,4.22909,1.91185,-4.05861,-1.23537,-1.23537,57.68861,11.98066,57.68860966,11.98066097,A,144219.70
18:32:00.103593,4.26285,0.01398,2.55997,2.55997,[3.00000 0.00000 0.00000],[1.30000 0.00000 0.00000],-0.01418,0.00957,-0.03014,0.00000,0.00000,0.02542,-0.02799,-0.02080,0.00275,1.06646,4.25217,0.02442,2.56287,-1.11144,-1.10588,1.90120,-3.93769,4.22909,1.91185,-4.05861,-1.23537,-1.23537,57.68861,11.98066,57.68860909,11.98066149,A,144219.70
18:32:00.130845,4.29011,0.01247,2.55997,2.55997,[3.00000 0.00000 0.00000],[1.30000 0.00000 0.00000],-0.01548,0.00974,-0.01029,0.00000,0.00000,0.05673,-0.00753,0.14341,-0.04776,0.92714,4.28073,0.01221,2.56229,-1.13041,-1.12475,1.92997,-4.00003,4.22909,1.91185,-4.05861,-1.23537,-1.23537,57.68861,11.98066,57.68860853,11.98066197,A,144219.70
18:32:00.155051,4.31431,0.01297,2.55997,2.55997,[3.00000 0.00000 0.00000],[1.30000 0.00000 0.00000],-0.01500,0.01087,-0.03426,0.00000,0.00000,0.00587,-0.00630,0.15036,0.08522,0.83485,4.30436,0.00733,2.56182,-1.14671,-1.14039,1.95153,-4.04992,4.22909,1.91185,-4.05861,-1.23537,-1.23537,57.68861,11.98066,57.68860808,11.98066233,A,144219.70
18:32:00.195228,4.35449,0.02791,2.55997,2.55997,[3.00000 0.00000 0.00000],[1.30000 0.00000 0.00000],-0.01645,0.01288,-0.01746,0.00000,0.00000,-0.04101,-0.01577,0.09699,-0.04764,0.92110,4.32876,0.00733,2.56145,-1.15213,-1.14464,1.99383,-4.14808,4.34971,2.01091,-4.29954,-1.18070,-1.18070,57.68861,11.98066,57.68860720,11.98066305,A,144219.80
18:32:00.221253,4.38052,0.01386,2.39626,2.39626,[3.00000 0.00000 0.00000],[1.30000 0.00000 0.00000],-0.01813,0.01687,-0.01578,0.00000,0.00000,-0.02009,-0.01501,0.11590,-0.05697,1.02681,4.36791,0.00977,2.52841,-1.15735,-1.14755,2.01668,-4.20411,4.34971,2.01091,-4.29954,-1.18070,-1.18070,57.68861,11.98066,57.68860669,11.98066343,A,144219.80
18:32:00.247436,4.40670,0.01115,2.39626,2.39626,[3.00000 0.00000 0.00000],[1.30000 0.00000 0.00000],-0.01864,0.01837,-0.01242,0.00000,0.00000,-0.05017,-0.01226,0.02916,0.00409,0.98112,4.39637,0.00733,2.50198,-1.16176,-1.15108,2.03833,-4.25759,4.34971,2.01091,-4.29954,-1.18070,-1.18070,57.68861,11.98066,57.68860621,11.98066379,A,144219.80
18:32:00.273421,4.43269,0.01359,2.39626,2.39626,[3.00000 0.00000 0.00000],[1.30000 0.00000 0.00000],-0.01916,0.01837,0.00651,0.00000,0.00000,-0.04116,-0.01699,0.06368,-0.03373,1.08208,4.42217,0.00977,2.48084,-1.16546,-1.15477,2.05819,-4.30725,4.34971,2.01091,-4.29954,-1.18070,-1.18070,57.68861,11.98066,57.68860576,11.98066413,A,144219.80
18:32:00.314377,4.47342,0.02745,2.74081,2.74081,[3.00000 0.00000 0.00000],[1.30000 0.00000 0.00000],-0.01981,0.01837,-0.00494,0.00000,0.00000,-0.01490,-0.01150,0.01342,-0.01934,1.05335,4.44909,0.02198,2.53283,-1.18398,-1.17330,2.09614,-4.40159,4.46863,2.07035,-4.50339,-1.28710,-1.28710,57.68860,11.98066,57.68860492,11.98066477,A,144219.90
18:32:00.338861,4.49810,0.01405,2.74081,2.74081,[3.00000 0.00000 0.00000],[1.30000 0.00000 0.00000],-0.01986,0.01837,-0.00036,0.00000,0.00000,0.00893,-0.01898,0.06124,0.01348,0.97685,4.48803,0.02198,2.57443,-1.20033,-1.18965,2.11454,-4.45356,4.46863,2.07035,-4.50339,-1.28710,-1.28710,57.68860,11.98066,57.68860445,11.98066508,A,144219.90
18:32:00.367925,4.52718,0.01458,2.74081,2.74081,[3.00000 0.00000 0.00000],[1.30000 0.00000 0.00000],-0.02074,0.01837,-0.01991,0.00000,0.00000,-0.00008,-0.03715,0.05106,-0.00458,0.94782,4.51595,0.00977,2.60771,-1.21408,-1.20339,2.13501,-4.51265,4.46863,2.07035,-4.50339,-1.28710,-1.28710,57.68860,11.98066,57.68860392,11.98066542,A,144219.90
18:32:00.392567,4.55183,0.01369,2.62896,2.62896,[3.00000 0.00000 0.00000],[1.30000 0.00000 0.00000],-0.02090,0.01837,-0.03365,0.00000,0.00000,-0.00039,-0.04128,0.02068,0.06021,1.00394,4.54136,0.01709,2.61196,-1.22584,-1.21516,2.15170,-4.56395,4.46863,2.07035,-4.50339,-1.28710,-1.28710,57.68860,11.98066,57.68860346,11.98066570,A,144219.90
18:32:00.433198,4.59247,0.02857,2.62896,2.62896,[3.00000 0.00000 0.00000],[1.30000 0.00000 0.00000],-0.02263,0.01837,-0.01868,0.00000,0.00000,0.00053,-0.03013,0.02653,-0.07186,1.02584,4.56719,0.02686,2.61536,-1.20995,-1.19927,2.18634,-4.66199,4.58728,2.16941,-4.70725,-1.11847,-1.11847,57.68860,11.98067,57.68860257,11.98066628,A,144220.00
18:32:00.460648,4.61991,0.01298,3.05261,3.05261,[3.00000 0.00000 0.00000],[1.30000 0.00000 0.00000],-0.02301,0.01837,-0.01731,0.00000,0.00000,0.01198,-0.01944,0.03971,0.03886,1.02767,4.60892,0.01221,2.70281,-1.19701,-1.18633,2.20631,-4.71767,4.58728,2.16941,-4.70725,-1.11847,-1.11847,57.68860,11.98067,57.68860207,11.98066662,A,144220.00
18:32:00.485978,4.64524,0.01279,3.05261,3.05261,[3.00000 0.00000 0.00000],[1.30000 0.00000 0.00000],-0.02372,0.01837,-0.02540,0.00000,0.00000,0.02909,-0.03211,0.05905,0.01427,1.02297,4.63638,0.00488,2.77277,-1.18595,-1.17527,2.22760,-4.77434,4.58728,2.16941,-4.70725,-1.11847,-1.11847,57.68860,11.98067,57.68860156,11.98066698,A,144220.00
18:32:00.512138,4.67140,0.01359,3.05261,3.05261,[3.00000 0.00000 0.00000],[1.30000 0.00000 0.00000],-0.02483,0.01837,-0.02479,0.00000,0.00000,0.00847,-0.03334,0.08638,-0.02031,0.95715,4.65898,0.02686,2.82874,-1.17661,-1.16593,2.24670,-4.82371,4.58728,2.16941,-4.70725,-1.11847,-1.11847,57.68860,11.98067,57.68860112,11.98066730,A,144220.00
18:32:00.564841,4.72411,0.03958,3.05261,3.05261,[3.00000 0.00000 0.00000],[1.30000 0.00000 0.00000],-0.02522,0.01837,-0.02143,0.00000,0.00000,-0.02864,-0.02769,0.16671,0.02745,0.94227,4.68756,0.01954,2.87351,-1.17748,-1.16680,2.30697,-4.96874,4.71928,2.35762,-5.17056,-1.18493,-1.18493,57.68860,11.98067,57.68859982,11.98066831,A,144220.20
18:32:00.588281,4.74755,0.01274,2.26481,2.26481,[3.00000 0.00000 0.00000],[1.30000 0.00000 0.00000],-0.02562,0.01837,-0.00463,0.00000,0.00000,0.00160,-0.02280,0.10218,-0.00433,0.98710,4.73820,0.00733,2.75177,-1.17940,-1.16872,2.33149,-5.03026,4.71928,2.35762,-5.17056,-1.18493,-1.18493,57.68860,11.98067,57.68859926,11.98066873,A,144220.20
18:32:00.616398,4.77566,0.01393,2.26481,2.26481,[3.00000 0.00000 0.00000],[1.30000 0.00000 0.00000],-0.02505,0.01837,0.00728,0.00000,0.00000,-0.01688,-0.02402,0.13432,0.03190,0.98015,4.76520,0.01709,2.65438,-1.18091,-1.17023,2.35790,-5.09632,4.71928,2.35762,-5.17056,-1.18493,-1.18493,57.68860,11.98067,57.68859867,11.98066917,A,144220.20
18:32:00.642713,4.80198,0.01340,2.26481,2.26481,[3.00000 0.00000 0.00000],[1.30000 0.00000 0.00000],-0.02591,0.01837,-0.00815,0.00000,0.00000,-0.03490,-0.02936,0.00970,-0.03611,0.99009,4.79119,0.01954,2.57647,-1.18230,-1.17162,2.38009,-5.15245,4.71928,2.35762,-5.17056,-1.18493,-1.18493,57.68860,11.98067,57.68859816,11.98066954,A,144220.20
18:32:00.684007,4.84327,0.02752,2.81378,2.81378,[3.00000 0.00000 0.00000],[1.30000 0.00000 0.00000],-0.02580,0.01837,-0.01227,0.00000,0.00000,0.00404,-0.03563,0.01372,0.03916,0.98850,4.81765,0.01954,2.62393,-1.17793,-1.16725,2.42178,-5.25424,4.83842,2.45668,-5.39295,-1.15175,-1.15175,57.68860,11.98067,57.68859725,11.98067025,A,144220.30
18:32:00.709139,4.86839,0.01146,2.81378,2.81378,[3.00000 0.00000 0.00000],[1.30000 0.00000 0.00000],-0.02609,0.01837,0.00010,0.00000,0.00000,0.00618,-0.00294,0.09473,-0.01037,1.07573,4.85897,0.00488,2.66190,-1.17484,-1.16416,2.44450,-5.31030,4.83842,2.45668,-5.39295,-1.15175,-1.15175,57.68860,11.98067,57.68859674,11.98067063,A,144220.30
18:32:00.732792,4.89205,0.01174,2.81378,2.81378,[3.00000 0.00000 0.00000],[1.30000 0.00000 0.00000],-0.02599,0.01837,-0.00845,0.00000,0.00000,-0.02375,0.00805,0.04233,0.02995,1.00613,4.88157,0.00488,2.69228,-1.17225,-1.16157,2.46529,-5.36130,4.83842,2.45668,-5.39295,-1.15175,-1.15175,57.68860,11.98067,57.68859628,11.98067098,A,144220.30
18:32:00.759002,4.91824,0.01237,2.29787,2.29787,[3.00000 0.00000 0.00000],[1.30000 0.00000 0.00000],-0.02550,0.01837,-0.01487,0.00000,0.00000,-0.02772,-0.00737,0.11163,0.06271,0.93989,4.90848,0.01465,2.61339,-1.16992,-1.15924,2.48864,-5.41770,4.83842,2.45668,-5.39295,-1.15175,-1.15175,57.68860,11.98067,57.68859578,11.98067137,A,144220.30
18:32:00.800391,4.95965,0.02788,2.29787,2.29787,[3.00000 0.00000 0.00000],[1.30000 0.00000 0.00000],-0.02519,0.01885,-0.01502,0.00000,0.00000,-0.01612,-0.01318,0.04520,0.04856,0.90207,4.93395,0.00733,2.55029,-1.17061,-1.15965,2.53287,-5.52195,4.95484,2.56565,-5.65241,-1.17319,-1.17319,57.68859,11.98067,57.68859484,11.98067212,A,144220.40
18:32:00.823547,4.98278,0.01207,2.29787,2.29787,[3.00000 0.00000 0.00000],[1.30000 0.00000 0.00000],-0.02639,0.02216,-0.01624,0.00000,0.00000,0.03535,0.01614,0.04984,-0.03019,0.99967,4.97213,0.01954,2.49980,-1.17221,-1.15933,2.55409,-5.57339,4.95484,2.56565,-5.65241,-1.17319,-1.17319,57.68859,11.98067,57.68859438,11.98067247,A,144220.40
18:32:00.851210,5.01047,0.01354,2.88798,2.88798,[3.00000 0.00000 0.00000],[1.30000 0.00000 0.00000],-0.02718,0.02326,-0.02861,0.00000,0.00000,0.02588,0.00729,0.10559,0.01427,0.98393,5.00007,0.01465,2.57744,-1.17337,-1.15984,2.57830,-5.63149,4.95484,2.56565,-5.65241,-1.17319,-1.17319,57.68859,11.98067,57.68859385,11.98067288,A,144220.40
18:32:00.876506,5.03477,0.01960,2.88798,2.88798,[3.00000 0.00000 0.00000],[1.30000 0.00000 0.00000],0.00000,0.02326,-0.03151,0.00000,0.00000,-0.02299,-0.00310,0.10785,0.01342,0.94349,5.01967,0.01221,2.88798,-1.15823,-1.14470,2.56565,-5.65241,4.95484,2.56565,-5.65241,-1.17319,-1.17319,57.68859,11.98067,57.68859352,11.98067313,A,144220.40
18:32:00.918816,5.07808,0.02887,2.88798,2.88798,[3.00000 0.00000 0.00000],[1.30000 0.00000 0.00000],-0.00271,0.00647,-0.04266,0.13856,0.00000,-0.05323,-0.02692,-0.02525,-0.06545,1.08007,5.05235,0.00733,2.88798,-1.16111,-1.15735,2.62433,-5.78299,5.07319,2.65480,-5.87480,-1.18952,-1.18952,57.68859,11.98067,57.68859249,11.98067365,A,144220.50
18:32:00.946769,5.10600,0.01490,2.63526,2.63526,[3.00000 0.00000 0.00000],[1.30000 0.00000 0.00000],-0.00312,0.00650,-0.01395,0.05403,0.00000,0.00267,0.01523,-0.08375,0.03428,0.93525,5.09400,0.00000,2.83744,-1.16562,-1.16184,2.65174,-5.84659,5.07319,2.65480,-5.87480,-1.18952,-1.18952,57.68859,11.98067,57.68859192,11.98067412,A,144220.50
18:32:00.971108,5.13037,0.01178,2.63526,2.63526,[3.00000 0.00000 0.00000],[1.30000 0.00000 0.00000],-0.00443,0.00800,-0.00326,0.02705,0.00000,0.00496,0.03019,0.04294,-0.04935,0.89871,5.12011,0.01221,2.79700,-1.16961,-1.16496,2.67466,-5.90053,5.07319,2.65480,-5.87480,-1.18952,-1.18952,57.68859,11.98067,57.68859144,11.98067450,A,144220.50
18:32:00.995712,5.15497,0.01314,2.63526,2.63526,[3.00000 0.00000 0.00000],[1.30000 0.00000 0.00000],-0.00615,0.00905,-0.03411,0.12631,0.00000,0.01305,0.00423,-0.10364,-0.03751,1.06756,5.14449,0.01221,2.76465,-1.17303,-1.16776,2.69668,-5.95278,5.07319,2.65480,-5.87480,-1.18952,-1.18952,57.68859,11.98067,57.68859097,11.98067487,A,144220.50
18:32:01.036999,5.19626,0.02876,2.63526,2.63526,[3.00000 0.00000 0.00000],[1.30000 0.00000 0.00000],-0.00736,0.00930,-0.04052,0.15028,0.00000,0.02634,-0.02249,-0.01208,0.01147,1.04743,5.17012,0.00000,2.73877,-1.16904,-1.16363,2.74185,-6.05901,5.19151,2.76377,-6.11572,-1.14604,-1.14604,57.68859,11.98068,57.68859001,11.98067563,A,144220.60
18:32:01.061759,5.22102,0.01341,2.49643,2.49643,[3.00000 0.00000 0.00000],[1.30000 0.00000 0.00000],-0.00962,0.01327,-0.04694,0.17832,0.00000,0.00068,-0.01669,0.06496,0.00085,0.93830,5.21125,0.00000,2.69030,-1.16634,-1.15863,2.76514,-6.11331,5.19151,2.76377,-6.11572,-1.14604,-1.14604,57.68859,11.98068,57.68858952,11.98067602,A,144220.60
18:32:01.089968,5.24923,0.01401,2.49643,2.49643,[3.00000 0.00000 0.00000],[1.30000 0.00000 0.00000],-0.01094,0.01734,-0.04969,0.19172,0.00000,-0.02681,0.00209,0.04843,0.02025,0.91848,5.23743,0.00000,2.65153,-1.16414,-1.15405,2.79119,-6.17317,5.19151,2.76377,-6.11572,-1.14604,-1.14604,57.68859,11.98068,57.68858898,11.98067646,A,144220.60
18:32:01.114608,5.27386,0.01318,2.49643,2.49643,[3.00000 0.00000 0.00000],[1.30000 0.00000 0.00000],-0.01159,0.02077,-0.02708,0.12644,0.00000,0.02389,0.00576,-0.11254,0.02580,1.03578,5.26218,0.00000,2.62051,-1.16255,-1.15047,2.81027,-6.21649,5.19151,2.76377,-6.11572,-1.14604,-1.14604,57.68859,11.98068,57.68858859,11.98067678,A,144220.60
18:32:01.165033,5.32430,0.03888,2.69868,2.69868,[3.00000 0.00000 0.00000],[1.30000 0.00000 0.00000],-0.01211,0.02510,-0.03884,0.16374,0.00000,0.03199,0.01141,0.02501,0.05801,0.98643,5.28767,0.00244,2.63614,-1.17743,-1.16284,2.86426,-6.34268,5.31960,2.88264,-6.48637,-1.26045,-1.26045,57.68859,11.98068,57.68858746,11.98067769,A,144220.80
18:32:01.192041,5.35130,0.01545,2.69868,2.69868,[3.00000 0.00000 0.00000],[1.30000 0.00000 0.00000],-0.01421,0.03016,-0.03548,0.16185,0.00000,-0.01917,0.01370,0.11120,0.01189,0.95227,5.33949,0.00000,2.64865,-1.19143,-1.17389,2.88716,-6.40073,5.31960,2.88264,-6.48637,-1.26045,-1.26045,57.68859,11.98068,57.68858694,11.98067808,A,144220.80
18:32:01.214696,5.37395,0.01315,2.69868,2.69868,[3.00000 0.00000 0.00000],[1.30000 0.00000 0.00000],-0.01410,0.03285,-0.04236,0.18206,0.00000,-0.01367,0.01553,-0.10010,0.10486,1.03554,5.36271,0.00000,2.65866,-1.20353,-1.18442,2.90541,-6.44909,5.31960,2.88264,-6.48637,-1.26045,-1.26045,57.68859,11.98068,57.68858650,11.98067838,A,144220.80
18:32:01.244202,5.40346,0.01481,2.64032,2.64032,[3.00000 0.00000 0.00000],[1.30000 0.00000 0.00000],-0.01433,0.03718,-0.02525,0.13163,0.00000,0.01336,0.02531,-0.04191,0.06374,1.03560,5.39003,0.00000,2.65499,-1.21364,-1.19201,2.92891,-6.51152,5.31960,2.88264,-6.48637,-1.26045,-1.26045,57.68859,11.98068,57.68858594,11.98067878,A,144220.80
18:32:01.284524,5.44380,0.02771,2.64032,2.64032,[3.00000 0.00000 0.00000],[1.30000 0.00000 0.00000],-0.01613,0.04098,-0.01258,0.10064,0.00000,0.02054,0.03982,0.05703,-0.05685,0.93977,5.41934,0.00000,2.65206,-1.21659,-1.19276,2.96696,-6.61284,5.43862,2.96189,-6.70876,-1.22848,-1.22848,57.68858,11.98068,57.68858503,11.98067942,A,144220.90
18:32:01.311056,5.47032,0.01347,3.06821,3.06821,[3.00000 0.00000 0.00000],[1.30000 0.00000 0.00000],-0.01794,0.04460,-0.02235,0.13703,0.00000,-0.00497,0.03249,0.01275,-0.02660,1.12911,5.45880,0.00000,2.73529,-1.22043,-1.19449,2.98793,-6.67107,5.43862,2.96189,-6.70876,-1.22848,-1.22848,57.68858,11.98068,57.68858451,11.98067977,A,144220.90
18:32:01.339128,5.49839,0.01467,3.06821,3.06821,[3.00000 0.00000 0.00000],[1.30000 0.00000 0.00000],-0.01872,0.04754,-0.01853,0.12860,0.00000,0.04146,0.03172,0.11590,0.02757,0.95953,5.48758,0.00000,2.80187,-1.22359,-1.19593,3.00994,-6.73194,5.43862,2.96189,-6.70876,-1.22848,-1.22848,57.68858,11.98068,57.68858396,11.98068014,A,144220.90
18:32:01.365055,5.52432,0.01241,3.06821,3.06821,[3.00000 0.00000 0.00000],[1.30000 0.00000 0.00000],-0.02013,0.05102,-0.02204,0.14463,0.00000,-0.00314,0.04134,0.04508,-0.00512,0.91372,5.51422,0.00000,2.85514,-1.22642,-1.19674,3.03080,-6.78991,5.43862,2.96189,-6.70876,-1.22848,-1.22848,57.68858,11.98068,57.68858344,11.98068049,A,144220.90
18:32:01.405282,5.56455,0.02579,3.06821,3.06821,[3.00000 0.00000 0.00000],[1.30000 0.00000 0.00000],-0.02080,0.05357,-0.02143,0.14543,0.00000,-0.01031,0.06394,-0.02605,0.03660,1.00912,5.53919,0.00000,2.89775,-1.21075,-1.17958,3.07054,-6.89345,5.55984,3.06095,-6.91262,-1.11847,-1.11847,57.68858,11.98068,57.68858251,11.98068116,A,144221.00
18:32:01.431247,5.59051,0.01465,2.23676,2.23676,[3.00000 0.00000 0.00000],[1.30000 0.00000 0.00000],-0.02073,0.05824,-0.01181,0.11629,0.00000,0.00358,0.06700,0.01574,0.06234,0.98472,5.57807,0.00000,2.76555,-1.19955,-1.16566,3.09239,-6.94854,5.55984,3.06095,-6.91262,-1.11847,-1.11847,57.68858,11.98068,57.68858201,11.98068153,A,144221.00
18:32:01.454004,5.61325,0.01308,2.23676,2.23676,[3.00000 0.00000 0.00000],[1.30000 0.00000 0.00000],-0.02158,0.06130,-0.00295,0.09302,0.00000,0.01779,0.07189,0.05228,-0.02013,0.95154,5.60156,0.00000,2.65980,-1.19034,-1.15467,3.11167,-6.99536,5.55984,3.06095,-6.91262,-1.11847,-1.11847,57.68858,11.98068,57.68858159,11.98068185,A,144221.00
18:32:01.479548,5.63881,0.01437,2.23676,2.23676,[3.00000 0.00000 0.00000],[1.30000 0.00000 0.00000],-0.02301,0.06384,-0.01517,0.13525,0.00000,0.00053,0.07066,0.10230,-0.04026,1.00009,5.62715,0.00000,2.57519,-1.18258,-1.14542,3.13075,-7.04014,5.55984,3.06095,-6.91262,-1.11847,-1.11847,57.68858,11.98068,57.68858119,11.98068217,A,144221.00
18:32:01.522351,5.68146,0.02697,2.74942,2.74942,[3.00000 0.00000 0.00000],[1.30000 0.00000 0.00000],-0.02390,0.06628,-0.02311,0.16257,0.00000,0.04650,0.06562,0.06832,0.02800,1.01297,5.65646,0.00000,2.61003,-1.18834,-1.14976,3.17406,-7.13927,5.67676,3.15010,-7.15354,-1.21637,-1.21637,57.68858,11.98068,57.68858030,11.98068290,A,144221.10
18:32:01.549799,5.70906,0.01468,2.74942,2.74942,[3.00000 0.00000 0.00000],[1.30000 0.00000 0.00000],-0.02560,0.07132,-0.02296,0.16873,0.00000,-0.03230,0.08074,-0.05215,-0.01366,1.11356,5.69620,0.00000,2.63791,-1.19587,-1.15436,3.19579,-7.19119,5.67676,3.15010,-7.15354,-1.21637,-1.21637,57.68858,11.98068,57.68857983,11.98068327,A,144221.10
18:32:01.573030,5.73229,0.01182,2.74942,2.74942,[3.00000 0.00000 0.00000],[1.30000 0.00000 0.00000],-0.02553,0.07457,-0.00647,0.11898,0.00000,-0.03475,0.08700,0.16433,0.06112,0.96386,5.72230,0.00000,2.66021,-1.20267,-1.15926,3.21380,-7.23519,5.67676,3.15010,-7.15354,-1.21637,-1.21637,57.68858,11.98068,57.68857943,11.98068357,A,144221.10
18:32:01.601531,5.76077,0.01238,2.74942,2.74942,[3.00000 0.00000 0.00000],[1.30000 0.00000 0.00000],-0.02573,0.07882,0.01247,0.06295,0.00000,-0.01459,0.09159,0.04593,0.01751,0.88645,5.74926,0.00000,2.67805,-1.20806,-1.16217,3.23506,-7.28711,5.67676,3.15010,-7.15354,-1.21637,-1.21637,57.68858,11.98068,57.68857897,11.98068393,A,144221.10
18:32:01.641813,5.80108,0.02719,2.28500,2.28500,[3.00000 0.00000 0.00000],[1.30000 0.00000 0.00000],-0.02614,0.08060,0.04133,-0.02205,0.00000,0.02832,0.11480,-0.02086,-0.06008,0.94690,5.77581,0.00000,2.59944,-1.21020,-1.16326,3.27510,-7.38447,5.79640,3.23926,-7.39446,-1.21637,-1.21637,57.68858,11.98068,57.68857809,11.98068460,A,144221.20
18:32:01.668672,5.82793,0.01523,2.28500,2.28500,[3.00000 0.00000 0.00000],[1.30000 0.00000 0.00000],-0.02378,0.08187,0.04179,-0.03264,0.00000,0.02588,0.13313,0.00653,0.08546,1.10343,5.81623,0.00000,2.53655,-1.21481,-1.16713,3.29518,-7.43563,5.79640,3.23926,-7.39446,-1.21637,-1.21637,57.68858,11.98068,57.68857763,11.98068494,A,144221.20
18:32:01.696726,5.85599,0.01471,2.85969,2.85969,[3.00000 0.00000 0.00000],[1.30000 0.00000 0.00000],-0.02314,0.08187,0.05309,-0.06904,0.00000,-0.00161,0.09922,0.05966,-0.00140,0.98661,5.84539,0.00000,2.60118,-1.21835,-1.17068,3.31605,-7.48898,5.79640,3.23926,-7.39446,-1.21637,-1.21637,57.68858,11.98068,57.68857715,11.98068529,A,144221.20
18:32:01.724245,5.88351,0.01301,2.85969,2.85969,[3.00000 0.00000 0.00000],[1.30000 0.00000 0.00000],-0.02241,0.08139,0.06623,-0.11127,0.00000,-0.03887,0.09693,-0.01982,0.00024,0.87016,5.87144,0.01709,2.65288,-1.22153,-1.17413,3.33443,-7.53680,5.79640,3.23926,-7.39446,-1.21637,-1.21637,57.68858,11.98068,57.68857672,11.98068560,A,144221.20
18:32:01.777627,5.93689,0.03988,2.85969,2.85969,[3.00000 0.00000 0.00000],[1.30000 0.00000 0.00000],-0.02070,0.07848,0.07310,-0.13857,0.00000,0.00282,0.10762,0.09803,0.02800,1.00943,5.90098,0.00000,2.69424,-1.21174,-1.16604,3.39090,-7.67537,5.93219,3.43738,-7.85777,-1.16671,-1.16671,57.68857,11.98069,57.68857547,11.98068655,A,144221.40
18:32:01.804630,5.96389,0.01426,2.62607,2.62607,[3.00000 0.00000 0.00000],[1.30000 0.00000 0.00000],-0.01682,0.07134,0.07554,-0.16103,0.00000,0.01626,0.07769,-0.05978,0.04874,0.97472,5.95231,0.00244,2.68061,-1.20758,-1.16605,3.41661,-7.73907,5.93219,3.43738,-7.85777,-1.16671,-1.16671,57.68857,11.98069,57.68857490,11.98068698,A,144221.40
18:32:01.829709,5.98897,0.01165,2.62607,2.62607,[3.00000 0.00000 0.00000],[1.30000 0.00000 0.00000],-0.01568,0.06798,0.08241,-0.18610,0.00000,0.00389,0.07738,0.12444,-0.02172,1.03462,5.97867,0.03175,2.66970,-1.20444,-1.16488,3.43853,-7.79376,5.93219,3.43738,-7.85777,-1.16671,-1.16671,57.68857,11.98069,57.68857441,11.98068735,A,144221.40
18:32:01.858605,6.01787,0.01386,2.62607,2.62607,[3.00000 0.00000 0.00000],[1.30000 0.00000 0.00000],-0.01310,0.06410,0.08913,-0.21630,0.00000,0.01183,0.08197,-0.03544,0.05106,1.02687,6.00719,0.15873,2.66098,-1.20094,-1.16363,3.46415,-7.85670,5.93219,3.43738,-7.85777,-1.16671,-1.16671,57.68857,11.98069,57.68857384,11.98068778,A,144221.40
18:32:01.900966,6.06023,0.02657,2.46297,2.46297,[3.00000 0.00000 0.00000],[1.30000 0.00000 0.00000],-0.01037,0.05833,0.08043,-0.20085,0.00000,0.00175,0.07570,-0.07375,0.06985,0.92433,6.03560,0.14652,2.62138,-1.19253,-1.15859,3.51005,-7.96571,6.05550,3.54634,-8.09870,-1.14604,-1.14604,57.68857,11.98069,57.68857286,11.98068856,A,144221.50
18:32:01.925919,6.08518,0.01158,2.46297,2.46297,[3.00000 0.00000 0.00000],[1.30000 0.00000 0.00000],-0.00824,0.04859,0.07356,-0.18853,0.00000,-0.02375,0.05173,-0.04709,-0.00891,0.99369,6.07491,0.04640,2.58969,-1.18732,-1.15905,3.53368,-8.02225,6.05550,3.54634,-8.09870,-1.14604,-1.14604,57.68857,11.98069,57.68857235,11.98068895,A,144221.50
18:32:01.954648,6.11390,0.01552,2.46297,2.46297,[3.00000 0.00000 0.00000],[1.30000 0.00000 0.00000],-0.00582,0.04279,0.07585,-0.20483,0.00000,0.03428,0.04745,0.00116,0.06765,1.10636,6.10221,0.04396,2.56435,-1.18264,-1.15775,3.55783,-8.07992,6.05550,3.54634,-8.09870,-1.14604,-1.14604,57.68857,11.98069,57.68857184,11.98068936,A,144221.50
18:32:01.981884,6.14114,0.01442,2.70548,2.70548,[3.00000 0.00000 0.00000],[1.30000 0.00000 0.00000],-0.00422,0.03732,0.07111,-0.19690,0.00000,0.04757,0.05707,0.12108,0.01873,0.98491,6.13005,0.12698,2.59258,-1.17848,-1.15677,3.58052,-8.13395,6.05550,3.54634,-8.09870,-1.14604,-1.14604,57.68857,11.98069,57.68857135,11.98068974,A,144221.50
18:32:02.023964,6.18322,0.02800,2.70548,2.70548,[3.00000 0.00000 0.00000],[1.30000 0.00000 0.00000],-0.00253,0.03200,0.08761,-0.25297,0.00000,-0.00283,0.05753,0.05246,-0.00647,0.90487,6.15817,0.28571,2.61516,-1.19462,-1.17601,3.62251,-8.23504,6.17850,3.60578,-8.30255,-1.28710,-1.28710,57.68857,11.98069,57.68857044,11.98069045,A,144221.60
18:32:02.050003,6.20924,0.01359,2.70548,2.70548,[3.00000 0.00000 0.00000],[1.30000 0.00000 0.00000],0.00038,0.02388,0.06531,-0.19740,0.00000,0.01351,0.04287,0.08583,0.06332,1.04914,6.19763,1.05006,2.63322,-1.20926,-1.19537,3.64207,-8.28738,6.17850,3.60578,-8.30255,-1.28710,-1.28710,57.68857,11.98069,57.68856997,11.98069078,A,144221.60
18:32:02.076894,6.23615,0.01327,2.62442,2.62442,[3.00000 0.00000 0.00000],[1.30000 0.00000 0.00000],0.00112,0.01714,0.05508,-0.16960,0.00000,0.03397,0.02454,0.05697,-0.01269,0.89670,6.22517,0.84493,2.63146,-1.22128,-1.21131,3.66296,-8.34574,6.17850,3.60578,-8.30255,-1.28710,-1.28710,57.68857,11.98069,57.68856944,11.98069113,A,144221.60
18:32:02.102932,6.26219,0.01420,2.62442,2.62442,[3.00000 0.00000 0.00000],[1.30000 0.00000 0.00000],0.00237,0.01117,0.04943,-0.15753,0.00000,-0.00466,0.01401,0.07845,0.02995,0.95184,6.25116,0.39316,2.63005,-1.23136,-1.22487,3.68029,-8.39732,6.17850,3.60578,-8.30255,-1.28710,-1.28710,57.68857,11.98069,57.68856898,11.98069142,A,144221.60
18:32:02.145556,6.30481,0.02895,2.62442,2.62442,[3.00000 0.00000 0.00000],[1.30000 0.00000 0.00000],0.00302,0.00565,0.03461,-0.11562,0.00000,0.03291,-0.00600,0.16452,0.00903,1.03401,6.27959,0.41270,2.62893,-1.23421,-1.23092,3.71535,-8.50124,6.29991,3.68503,-8.54348,-1.25301,-1.25301,57.68857,11.98069,57.68856805,11.98069201,A,144221.70
18:32:02.167705,6.32697,0.01095,3.08163,3.08163,[3.00000 0.00000 0.00000],[1.30000 0.00000 0.00000],0.00452,-0.00063,0.01690,-0.06832,0.00000,0.00679,-0.02295,-0.05264,0.07881,0.92366,6.31747,0.33944,2.71947,-1.23677,-1.23713,3.72974,-8.54832,6.29991,3.68503,-8.54348,-1.25301,-1.25301,57.68857,11.98069,57.68856762,11.98069225,A,144221.70
18:32:02.196096,6.35536,0.01411,3.08163,3.08163,[3.00000 0.00000 0.00000],[1.30000 0.00000 0.00000],0.00325,-0.00442,0.00636,-0.03176,0.00000,-0.00619,-0.02555,0.07784,-0.06832,0.97344,6.34373,0.11722,2.79190,-1.23885,-1.24142,3.74856,-8.60883,6.29991,3.68503,-8.54348,-1.25301,-1.25301,57.68857,11.98069,57.68856708,11.98069257,A,144221.70
18:32:02.218352,6.37739,0.01225,3.08163,3.08163,[3.00000 0.00000 0.00000],[1.30000 0.00000 0.00000],0.00262,-0.00725,-0.00876,0.01604,0.00000,0.00328,-0.03120,0.03337,-0.00677,1.04090,6.36634,0.01954,2.84985,-1.24050,-1.24472,3.76070,-8.65037,6.29991,3.68503,-8.54348,-1.25301,-1.25301,57.68857,11.98069,57.68856671,11.98069277,A,144221.70
18:32:02.272344,6.43161,0.04004,3.08163,3.08163,[3.00000 0.00000 0.00000],[1.30000 0.00000 0.00000],0.00305,-0.00889,0.00376,-0.02318,0.00000,0.02893,-0.04372,-0.03617,0.04343,1.04731,6.39615,0.01709,2.89620,-1.22223,-1.22741,3.81296,-8.80186,6.42689,3.88315,-8.95119,-1.11847,-1.11847,57.68856,11.98069,57.68856534,11.98069365,A,144221.90
18:32:02.297147,6.45640,0.01271,2.22763,2.22763,[3.00000 0.00000 0.00000],[1.30000 0.00000 0.00000],0.00205,-0.00892,-0.02113,0.05541,0.00000,0.00557,-0.04448,0.12066,0.02336,0.92006,6.44562,0.05128,2.76249,-1.20628,-1.21147,3.83522,-8.86178,6.42689,3.88315,-8.95119,-1.11847,-1.11847,57.68856,11.98069,57.68856480,11.98069403,A,144221.90
18:32:02.324375,6.48363,0.01442,2.22763,2.22763,[3.00000 0.00000 0.00000],[1.30000 0.00000 0.00000],0.00051,-0.00901,-0.02357,0.06873,0.00000,0.00404,-0.05395,0.12340,-0.03880,1.02254,6.47244,0.03663,2.65552,-1.19276,-1.19800,3.86006,-8.92597,6.42689,3.88315,-8.95119,-1.11847,-1.11847,57.68856,11.98069,57.68856423,11.98069444,A,144221.90
18:32:02.349827,6.50910,0.01253,2.78324,2.78324,[3.00000 0.00000 0.00000],[1.30000 0.00000 0.00000],-0.00094,-0.00901,-0.04113,0.12706,0.00000,0.05642,-0.06632,0.04886,-0.00830,1.02724,6.49796,0.01465,2.68106,-1.18122,-1.18645,3.88105,-8.97798,6.42689,3.88315,-8.95119,-1.11847,-1.11847,57.68856,11.98069,57.68856376,11.98069480,A,144221.90
18:32:02.390559,6.54982,0.02838,2.78324,2.78324,[3.00000 0.00000 0.00000],[1.30000 0.00000 0.00000],-0.00119,-0.00827,-0.04388,0.13628,0.00000,0.00358,-0.04907,-0.06557,0.08028,1.01663,6.52470,0.00000,2.70150,-1.18002,-1.18483,3.92548,-9.08572,6.54500,3.99211,-9.21065,-1.17319,-1.17319,57.68856,11.98070,57.68856279,11.98069555,A,144222.00
18:32:02.416724,6.57598,0.01509,2.78324,2.78324,[3.00000 0.00000 0.00000],[1.30000 0.00000 0.00000],-0.00338,-0.00391,-0.05457,0.17690,0.00000,-0.02009,-0.05273,0.12413,0.01873,1.02035,6.56476,0.00000,2.71785,-1.17901,-1.18129,3.94990,-9.14387,6.54500,3.99211,-9.21065,-1.17319,-1.17319,57.68856,11.98070,57.68856227,11.98069596,A,144222.00
18:32:02.443808,6.60305,0.01535,2.78324,2.78324,[3.00000 0.00000 0.00000],[1.30000 0.00000 0.00000],-0.00348,-0.00131,-0.05014,0.16402,0.00000,0.00771,-0.07243,-0.09595,0.09565,0.93885,6.59154,0.00000,2.73093,-1.17820,-1.17897,3.97472,-9.20254,6.54500,3.99211,-9.21065,-1.17319,-1.17319,57.68856,11.98070,57.68856174,11.98069637,A,144222.00
18:32:02.467947,6.62659,0.01226,2.30522,2.30522,[3.00000 0.00000 0.00000],[1.30000 0.00000 0.00000],-0.00492,0.00186,-0.03579,0.12655,0.00000,0.02038,-0.06403,-0.08296,-0.01647,0.96197,6.61566,0.00000,2.64578,-1.17767,-1.17659,3.99620,-9.25281,6.54500,3.99211,-9.21065,-1.17319,-1.17319,57.68856,11.98070,57.68856129,11.98069674,A,144222.00
18:32:02.507328,6.66659,0.02766,2.30522,2.30522,[3.00000 0.00000 0.00000],[1.30000 0.00000 0.00000],-0.00544,0.00520,-0.03319,0.12079,0.00000,0.03229,-0.02784,0.02635,0.04288,0.98253,6.64149,0.00000,2.57767,-1.16332,-1.16029,4.03887,-9.35088,6.66171,4.10108,-9.41450,-1.07992,-1.07992,57.68856,11.98070,57.68856041,11.98069745,A,144222.10
18:32:02.532211,6.69147,0.01288,2.30522,2.30522,[3.00000 0.00000 0.00000],[1.30000 0.00000 0.00000],-0.00588,0.00947,0.00270,0.01483,0.00000,0.02741,-0.01440,0.11035,-0.01379,1.06768,6.68028,0.00000,2.52318,-1.15142,-1.14591,4.06279,-9.40187,6.66171,4.10108,-9.41450,-1.07992,-1.07992,57.68856,11.98070,57.68855995,11.98069786,A,144222.10
18:32:02.559046,6.71831,0.01469,2.79870,2.79870,[3.00000 0.00000 0.00000],[1.30000 0.00000 0.00000],-0.00540,0.01202,-0.00754,0.04367,0.00000,-0.01337,-0.02830,0.08119,0.06765,0.94257,6.70638,0.00000,2.57828,-1.14136,-1.13437,4.08616,-9.44992,6.66171,4.10108,-9.41450,-1.07992,-1.07992,57.68856,11.98070,57.68855951,11.98069825,A,144222.10
18:32:02.576314,6.73557,0.00882,2.79870,2.79870,[3.00000 0.00000 0.00000],[1.30000 0.00000 0.00000],-0.00549,0.01318,0.01064,-0.01051,0.00000,-0.04131,-0.02555,-0.07747,0.00805,0.97826,6.72629,0.00733,2.62237,-1.13296,-1.12530,4.10192,-9.48033,6.66171,4.10108,-9.41450,-1.07992,-1.07992,57.68856,11.98070,57.68855924,11.98069851,A,144222.10
18:32:02.589484,6.74875,0.01178,2.79870,2.79870,[3.00000 0.00000 0.00000],[1.30000 0.00000 0.00000],-0.00602,0.01349,0.01705,-0.02767,0.00000,-0.03841,-0.02173,0.01238,-0.01976,0.97234,6.73777,0.01221,2.65763,-1.12592,-1.11807,4.11288,-9.50009,6.66171,4.10108,-9.41450,-1.07992,-1.07992,57.68856,11.98070,57.68855906,11.98069870,A,144222.10
18:32:02.629530,6.78879,0.02719,2.79870,2.79870,[3.00000 0.00000 0.00000],[1.30000 0.00000 0.00000],-0.00465,0.01355,0.02148,-0.04632,0.00000,-0.02650,0.00026,0.01165,0.08339,1.01595,6.76409,0.01221,2.68585,-1.12444,-1.11656,4.16152,-9.59693,6.78409,4.21004,-9.63689,-1.11520,-1.11520,57.68856,11.98070,57.68855819,11.98069952,A,144222.20
18:32:02.653072,6.81233,0.01381,2.62120,2.62120,[3.00000 0.00000 0.00000],[1.30000 0.00000 0.00000],-0.00367,0.01313,0.04026,-0.10646,0.00000,-0.00085,0.00393,0.05179,-0.00403,0.91280,6.80089,0.09035,2.67292,-1.12366,-1.11602,4.18661,-9.64535,6.78409,4.21004,-9.63689,-1.11520,-1.11520,57.68856,11.98070,57.68855776,11.98069994,A,144222.20
18:32:02.680747,6.83998,0.01302,2.62120,2.62120,[3.00000 0.00000 0.00000],[1.30000 0.00000 0.00000],-0.00269,0.01092,0.02637,-0.06863,0.00000,-0.00466,-0.02249,0.00110,0.04862,1.08165,6.82844,0.09035,2.66258,-1.12271,-1.11636,4.21490,-9.70038,6.78409,4.21004,-9.63689,-1.11520,-1.11520,57.68856,11.98070,57.68855726,11.98070041,A,144222.20
18:32:02.708852,6.86811,0.01463,2.62120,2.62120,[3.00000 0.00000 0.00000],[1.30000 0.00000 0.00000],-0.00207,0.00732,0.03003,-0.08203,0.00000,0.01733,-0.02906,0.04410,0.01122,0.94330,6.85664,0.03419,2.65430,-1.12169,-1.11744,4.24196,-9.75310,6.78409,4.21004,-9.63689,-1.11520,-1.11520,57.68856,11.98070,57.68855679,11.98070087,A,144222.20
18:32:02.748634,6.90790,0.02820,2.46014,2.46014,[3.00000 0.00000 0.00000],[1.30000 0.00000 0.00000],-0.00090,0.00478,0.03034,-0.08751,0.00000,-0.01627,-0.01883,-0.02056,0.04898,0.97203,6.88308,0.07814,2.61547,-1.12018,-1.11740,4.28793,-9.84477,6.90281,4.32892,-9.87782,-1.11244,-1.11244,57.68856,11.98070,57.68855596,11.98070164,A,144222.30
18:32:02.769016,6.92828,0.01191,2.46014,2.46014,[3.00000 0.00000 0.00000],[1.30000 0.00000 0.00000],0.00018,0.00203,0.03354,-0.10133,0.00000,-0.01703,-0.01913,-0.03605,0.01964,0.95099,6.91755,0.08303,2.58440,-1.11905,-1.11786,4.30786,-9.88312,6.90281,4.32892,-9.87782,-1.11244,-1.11244,57.68856,11.98070,57.68855562,11.98070198,A,144222.30
18:32:02.794861,6.95412,0.01185,2.46014,2.46014,[3.00000 0.00000 0.00000],[1.30000 0.00000 0.00000],0.00078,-0.00091,0.03721,-0.11468,0.00000,0.00114,-0.02478,-0.01586,0.00140,1.00540,6.94337,0.12454,2.55955,-1.11789,-1.11842,4.33277,-9.93187,6.90281,4.32892,-9.87782,-1.11244,-1.11244,57.68856,11.98070,57.68855518,11.98070240,A,144222.30
18:32:02.824995,6.98426,0.01323,2.74288,2.74288,[3.00000 0.00000 0.00000],[1.30000 0.00000 0.00000],0.00123,-0.00490,0.02011,-0.06513,0.00000,0.01779,-0.04540,-0.00384,0.01427,1.06372,6.97308,0.11233,2.59621,-1.11669,-1.11954,4.36116,-9.98798,6.90281,4.32892,-9.87782,-1.11244,-1.11244,57.68856,11.98070,57.68855468,11.98070288,A,144222.30
18:32:02.876205,7.03546,0.03785,2.74288,2.74288,[3.00000 0.00000 0.00000],[1.30000 0.00000 0.00000],0.00168,-0.00807,0.03874,0.07978,0.05193,0.01259,-0.03257,-0.00244,-0.01891,0.98527,7.00035,0.04396,2.62555,-1.12605,-1.13075,4.42266,-10.11635,7.03071,4.52703,-10.35966,-1.18070,-1.18070,57.68855,11.98071,57.68855352,11.98070391,A,144222.50
18:32:02.902611,7.06186,0.01394,2.74288,2.74288,[3.00000 0.00000 0.00000],[1.30000 0.00000 0.00000],0.00338,-0.01161,0.03324,0.09132,0.05236,-0.02207,-0.05013,0.05283,0.02409,0.99704,7.04990,0.00244,2.64901,-1.13359,-1.14034,4.45185,-10.17943,7.03071,4.52703,-10.35966,-1.18070,-1.18070,57.68855,11.98071,57.68855295,11.98070440,A,144222.50
18:32:02.930961,7.09022,0.01447,2.63491,2.63491,[3.00000 0.00000 0.00000],[1.30000 0.00000 0.00000],0.00458,-0.01144,0.04576,0.04907,0.05236,0.00664,-0.05319,0.05008,0.01470,0.99381,7.07871,0.00000,2.64619,-1.14022,-1.14688,4.48167,-10.24521,7.03071,4.52703,-10.35966,-1.18070,-1.18070,57.68855,11.98071,57.68855236,11.98070490,A,144222.50
18:32:02.956644,7.11590,0.01368,2.63491,2.63491,[3.00000 0.00000 0.00000],[1.30000 0.00000 0.00000],0.00660,-0.01014,0.02484,0.10396,0.05236,0.00954,-0.04662,-0.09290,0.11230,0.96722,7.10461,0.01709,2.64394,-1.14590,-1.15180,4.50674,-10.30146,7.03071,4.52703,-10.35966,-1.18070,-1.18070,57.68855,11.98071,57.68855186,11.98070533,A,144222.50
18:32:02.998253,7.15737,0.02904,2.63491,2.63491,[3.00000 0.00000 0.00000],[1.30000 0.00000 0.00000],0.00733,-0.00915,0.02698,0.09467,0.05236,-0.00818,-0.05533,0.07058,0.02586,1.01272,7.13261,0.00000,2.64213,-1.14679,-1.15211,4.55415,-10.40854,7.15269,4.62609,-10.58205,-1.15175,-1.15175,57.68855,11.98071,57.68855089,11.98070612,A,144222.60
18:32:03.027819,7.18708,0.01307,3.01450,3.01450,[3.00000 0.00000 0.00000],[1.30000 0.00000 0.00000],0.00788,-0.00536,0.03981,0.05404,0.05236,0.01305,-0.06770,0.17257,-0.04758,1.02096,7.17515,0.00733,2.71661,-1.14750,-1.15062,4.58285,-10.47361,7.15269,4.62609,-10.58205,-1.15175,-1.15175,57.68855,11.98071,57.68855031,11.98070661,A,144222.60
18:32:03.052084,7.21135,0.01142,3.01450,3.01450,[3.00000 0.00000 0.00000],[1.30000 0.00000 0.00000],0.01004,-0.00394,0.02957,0.07631,0.05236,-0.01505,-0.06342,0.00811,0.12304,0.99747,7.20131,0.00000,2.77619,-1.14802,-1.15032,4.60750,-10.52938,7.15269,4.62609,-10.58205,-1.15175,-1.15175,57.68855,11.98071,57.68854981,11.98070702,A,144222.60
18:32:03.076654,7.23589,0.01182,3.01450,3.01450,[3.00000 0.00000 0.00000],[1.30000 0.00000 0.00000],0.01144,-0.00394,0.03614,0.05116,0.05236,-0.01077,-0.06877,-0.18477,0.07808,1.15449,7.22561,0.00000,2.82385,-1.14841,-1.15071,4.63170,-10.58405,7.15269,4.62609,-10.58205,-1.15175,-1.15175,57.68855,11.98071,57.68854932,11.98070743,A,144222.60
18:32:03.118401,7.27766,0.02525,2.25707,2.25707,[3.00000 0.00000 0.00000],[1.30000 0.00000 0.00000],0.01135,-0.00391,0.05813,-0.01444,0.05236,0.02848,-0.06953,0.06332,-0.07161,0.90298,7.25365,0.00000,2.71049,-1.15458,-1.15685,4.68057,-10.69512,7.27283,4.71525,-10.80444,-1.18952,-1.18952,57.68855,11.98071,57.68854832,11.98070825,A,144222.70
18:32:03.145031,7.30429,0.01430,2.25707,2.25707,[3.00000 0.00000 0.00000],[1.30000 0.00000 0.00000],0.01693,-0.00304,0.08150,-0.10633,0.05236,0.00083,-0.05976,0.21746,0.19221,0.92629,7.29149,0.00000,2.61981,-1.15972,-1.16149,4.70458,-10.75130,7.27283,4.71525,-10.80444,-1.18952,-1.18952,57.68855,11.98071,57.68854781,11.98070865,A,144222.70
18:32:03.173022,7.33229,0.01407,2.25707,2.25707,[3.00000 0.00000 0.00000],[1.30000 0.00000 0.00000],0.01710,-0.00304,0.04653,-0.00207,0.05236,-0.00986,-0.08083,-0.00689,-0.04197,1.08641,7.32104,0.06105,2.54726,-1.16408,-1.16584,4.73015,-10.81166,7.27283,4.71525,-10.80444,-1.18952,-1.18952,57.68855,11.98071,57.68854727,11.98070908,A,144222.70
18:32:03.200870,7.36013,0.01415,2.82435,2.82435,[3.00000 0.00000 0.00000],[1.30000 0.00000 0.00000],0.02027,-0.00366,0.06867,-0.08088,0.05236,0.03993,-0.04922,0.17245,0.13091,1.05011,7.34918,0.03663,2.60268,-1.16771,-1.16984,4.75244,-10.86505,7.27283,4.71525,-10.80444,-1.18952,-1.18952,57.68855,11.98071,57.68854679,11.98070946,A,144222.70
18:32:03.240523,7.39979,0.02856,2.82435,2.82435,[3.00000 0.00000 0.00000],[1.30000 0.00000 0.00000],0.02326,-0.00456,0.09814,-0.18093,0.05236,-0.05796,-0.04158,0.02105,0.07436,0.92842,7.37409,0.12454,2.64701,-1.16433,-1.16698,4.79223,-10.95944,7.39427,4.82421,-11.04536,-1.14604,-1.14604,57.68855,11.98071,57.68854594,11.98071013,A,144222.80
18:32:03.264323,7.42358,0.01207,2.82435,2.82435,[3.00000 0.00000 0.00000],[1.30000 0.00000 0.00000],0.02633,-0.00904,0.06241,-0.08570,0.05236,-0.00787,-0.08129,0.02788,0.09004,1.06854,7.41384,0.09280,2.68248,-1.16099,-1.16624,4.81471,-11.01261,7.39427,4.82421,-11.04536,-1.14604,-1.14604,57.68855,11.98071,57.68854546,11.98071051,A,144222.80
18:32:03.293973,7.45323,0.01311,2.30785,2.30785,[3.00000 0.00000 0.00000],[1.30000 0.00000 0.00000],0.02892,-0.01365,0.09875,-0.20486,0.05236,0.04146,-0.08938,-0.07796,0.03227,0.90030,7.44183,0.04884,2.60756,-1.15802,-1.16596,4.84140,-11.07548,7.39427,4.82421,-11.04536,-1.14604,-1.14604,57.68855,11.98071,57.68854490,11.98071096,A,144222.80
18:32:03.321136,7.48040,0.01451,2.30785,2.30785,[3.00000 0.00000 0.00000],[1.30000 0.00000 0.00000],0.03026,-0.01755,0.09142,-0.18807,0.05236,0.00099,-0.06907,0.06423,-0.02763,0.90219,7.46923,0.12943,2.54762,-1.15531,-1.16552,4.86353,-11.12763,7.39427,4.82421,-11.04536,-1.14604,-1.14604,57.68855,11.98071,57.68854443,11.98071133,A,144222.80
18:32:03.359431,7.51869,0.02690,2.30785,2.30785,[3.00000 0.00000 0.00000],[1.30000 0.00000 0.00000],0.03281,-0.02265,0.08837,-0.18888,0.05236,-0.00604,-0.06953,-0.08583,0.08131,1.14521,7.49433,0.06838,2.49966,-1.17153,-1.18470,4.89991,-11.21593,7.51400,4.89356,-11.26775,-1.26855,-1.26855,57.68854,11.98071,57.68854363,11.98071194,A,144222.90
18:32:03.385673,7.54493,0.01211,2.83234,2.83234,[3.00000 0.00000 0.00000],[1.30000 0.00000 0.00000],0.03659,-0.03151,0.09127,-0.21231,0.05236,0.00129,-0.10725,0.08851,0.03959,0.92055,7.53493,0.06593,2.56620,-1.18431,-1.20264,4.92051,-11.26998,7.51400,4.89356,-11.26775,-1.26855,-1.26855,57.68854,11.98071,57.68854315,11.98071229,A,144222.90
18:32:03.413661,7.57290,0.01428,2.83234,2.83234,[3.00000 0.00000 0.00000],[1.30000 0.00000 0.00000],0.03903,-0.03717,0.07753,-0.18060,0.05236,-0.08805,-0.11611,0.11651,0.04374,0.74145,7.56079,0.08059,2.61943,-1.19518,-1.21680,4.94086,-11.32610,7.51400,4.89356,-11.26775,-1.26855,-1.26855,57.68854,11.98071,57.68854264,11.98071263,A,144222.90
18:32:03.441055,7.60032,0.01503,2.83234,2.83234,[3.00000 0.00000 0.00000],[1.30000 0.00000 0.00000],0.04065,-0.04209,0.09524,-0.24007,0.05236,-0.04147,-0.11687,-0.06655,-0.02635,1.03261,7.58797,0.13431,2.66201,-1.20426,-1.22874,4.95939,-11.37972,7.51400,4.89356,-11.26775,-1.26855,-1.26855,57.68854,11.98071,57.68854216,11.98071294,A,144222.90
18:32:03.493675,7.65294,0.03896,2.83234,2.83234,[3.00000 0.00000 0.00000],[1.30000 0.00000 0.00000],0.04276,-0.04911,0.08715,-0.22401,0.05236,0.04176,-0.11275,0.02202,0.00012,0.98887,7.61812,0.23932,2.69607,-1.20266,-1.23123,5.00957,-11.52153,7.64809,5.09168,-11.76813,-1.19379,-1.19379,57.68854,11.98072,57.68854088,11.98071379,A,144223.10
18:32:03.520947,7.68021,0.01422,2.59121,2.59121,[3.00000 0.00000 0.00000],[1.30000 0.00000 0.00000],0.04632,-0.06106,0.06943,-0.18473,0.05236,-0.04666,-0.15673,-0.00403,0.05063,1.12063,7.66829,0.22955,2.67510,-1.19832,-1.23386,5.03394,-11.59121,7.64809,5.09168,-11.76813,-1.19379,-1.19379,57.68854,11.98072,57.68854026,11.98071420,A,144223.10
18:32:03.545292,7.70456,0.01289,2.59121,2.59121,[3.00000 0.00000 0.00000],[1.30000 0.00000 0.00000],0.04700,-0.06720,0.05355,-0.13975,0.05236,-0.02238,-0.17826,-0.17782,-0.00695,1.11142,7.69356,0.08303,2.65833,-1.19430,-1.23341,5.05438,-11.65016,7.64809,5.09168,-11.76813,-1.19379,-1.19379,57.68854,11.98072,57.68853973,11.98071454,A,144223.10
18:32:03.573074,7.73233,0.01226,2.46742,2.46742,[3.00000 0.00000 0.00000],[1.30000 0.00000 0.00000],0.04944,-0.07320,0.06623,-0.18729,0.05236,0.01290,-0.18666,-0.05978,0.06533,0.93519,7.72227,0.02686,2.62014,-1.19114,-1.23375,5.07713,-11.71561,7.64809,5.09168,-11.76813,-1.19379,-1.19379,57.68854,11.98072,57.68853914,11.98071492,A,144223.10
18:32:03.613970,7.77324,0.02783,2.46742,2.46742,[3.00000 0.00000 0.00000],[1.30000 0.00000 0.00000],0.04956,-0.07863,0.06134,-0.17310,0.05236,-0.02299,-0.19277,0.06832,-0.06100,0.88694,7.74861,0.05372,2.58960,-1.18235,-1.22813,5.11613,-11.82347,7.76858,5.21055,-12.02758,-1.14118,-1.14118,57.68854,11.98072,57.68853817,11.98071558,A,144223.20
18:32:03.639060,7.79832,0.01350,2.46742,2.46742,[3.00000 0.00000 0.00000],[1.30000 0.00000 0.00000],0.05145,-0.08548,0.04912,-0.14383,0.05236,-0.03505,-0.21644,-0.02105,0.04715,1.15125,7.78631,0.10745,2.56516,-1.17191,-1.22169,5.13844,-11.88297,7.76858,5.21055,-12.02758,-1.14118,-1.14118,57.68854,11.98072,57.68853763,11.98071595,A,144223.20
18:32:03.667573,7.82630,0.01160,2.76300,2.76300,[3.00000 0.00000 0.00000],[1.30000 0.00000 0.00000],0.05325,-0.09159,0.05019,-0.15403,0.05236,-0.01764,-0.23492,0.13676,0.04087,1.03761,7.81666,0.06838,2.60473,-1.16342,-1.21678,5.16326,-11.94847,7.76858,5.21055,-12.02758,-1.14118,-1.14118,57.68854,11.98072,57.68853704,11.98071637,A,144223.20
18:32:03.692345,7.85161,0.01467,2.76300,2.76300,[3.00000 0.00000 0.00000],[1.30000 0.00000 0.00000],0.05468,-0.09558,0.04866,-0.15502,0.05236,-0.05124,-0.23248,-0.11871,0.03495,0.97460,7.84006,0.09524,2.63639,-1.15561,-1.21130,5.18445,-12.00339,7.76858,5.21055,-12.02758,-1.14118,-1.14118,57.68854,11.98072,57.68853655,11.98071673,A,144223.20
18:32:03.730354,7.88948,0.02673,2.76300,2.76300,[3.00000 0.00000 0.00000],[1.30000 0.00000 0.00000],0.05625,-0.09938,0.04362,-0.14604,0.05236,-0.06896,-0.23966,0.04227,0.04227,0.92421,7.86448,0.04640,2.66171,-1.16283,-1.22074,5.22229,-12.10198,7.88481,5.29970,-12.26851,-1.21637,-1.21637,57.68853,11.98072,57.68853566,11.98071736,A,144223.30
18:32:03.755379,7.91464,0.01186,2.65561,2.65561,[3.00000 0.00000 0.00000],[1.30000 0.00000 0.00000],0.05765,-0.10628,0.04347,-0.15103,0.05236,-0.00008,-0.26287,-0.02190,0.00262,0.99088,7.90234,0.10256,2.66049,-1.16584,-1.22779,5.24508,-12.16214,7.88481,5.29970,-12.26851,-1.21637,-1.21637,57.68853,11.98072,57.68853512,11.98071775,A,144223.30
18:32:03.781137,7.94040,0.01346,2.65561,2.65561,[3.00000 0.00000 0.00000],[1.30000 0.00000 0.00000],0.05836,-0.11067,0.03904,-0.14054,0.05236,0.01000,-0.26501,0.03892,-0.00335,1.01107,7.92919,0.10501,2.65951,-1.16837,-1.23289,5.26660,-12.22008,7.88481,5.29970,-12.26851,-1.21637,-1.21637,57.68853,11.98072,57.68853460,11.98071811,A,144223.30
18:32:03.811997,7.97126,0.01453,2.65561,2.65561,[3.00000 0.00000 0.00000],[1.30000 0.00000 0.00000],0.05898,-0.11557,0.03263,-0.12370,0.05236,-0.03246,-0.27463,0.12237,-0.00872,1.03889,7.96033,0.07814,2.65873,-1.17143,-1.23883,5.29121,-12.28782,7.88481,5.29970,-12.26851,-1.21637,-1.21637,57.68853,11.98072,57.68853399,11.98071852,A,144223.30
18:32:03.862524,8.02178,0.03844,3.09896,3.09896,[3.00000 0.00000 0.00000],[1.30000 0.00000 0.00000],0.05989,-0.11939,0.00835,-0.05439,0.05236,-0.07384,-0.29188,-0.03105,0.03593,1.00693,7.98438,0.05861,2.74678,-1.18449,-1.25413,5.34032,-12.42919,8.01688,5.45820,-12.75035,-1.25301,-1.25301,57.68853,11.98072,57.68853272,11.98071935,A,144223.50
18:32:03.887838,8.04710,0.01416,3.09896,3.09896,[3.00000 0.00000 0.00000],[1.30000 0.00000 0.00000],0.05882,-0.12643,-0.00784,-0.00166,0.05236,-0.05017,-0.30196,-0.02031,-0.06600,0.89621,8.03588,0.01954,2.81721,-1.18878,-1.26256,5.36320,-12.49708,8.01688,5.45820,-12.75035,-1.25301,-1.25301,57.68853,11.98072,57.68853211,11.98071974,A,144223.50
18:32:03.913985,8.07260,0.01285,3.09896,3.09896,[3.00000 0.00000 0.00000],[1.30000 0.00000 0.00000],0.06127,-0.12827,0.00560,-0.05152,0.05236,-0.03933,-0.29891,-0.06734,0.12560,0.95264,8.06216,0.04151,2.87356,-1.19312,-1.26798,5.38619,-12.56704,8.01688,5.45820,-12.75035,-1.25301,-1.25301,57.68853,11.98072,57.68853148,11.98072012,A,144223.50
18:32:03.944143,8.10340,0.01332,2.22880,2.22880,[3.00000 0.00000 0.00000],[1.30000 0.00000 0.00000],0.06027,-0.12884,-0.01166,0.00413,0.05236,-0.01459,-0.31433,0.19343,-0.00945,1.03511,8.09246,0.22466,2.74461,-1.19852,-1.27371,5.41274,-12.64964,8.01688,5.45820,-12.75035,-1.25301,-1.25301,57.68853,11.98072,57.68853074,11.98072057,A,144223.50
18:32:03.982949,8.14221,0.02583,2.22880,2.22880,[3.00000 0.00000 0.00000],[1.30000 0.00000 0.00000],0.05848,-0.13034,-0.02647,0.05557,0.05236,-0.02146,-0.33556,-0.03245,-0.04508,1.02590,8.11752,0.01709,2.64145,-1.21349,-1.28956,5.44675,-12.76000,8.13739,5.52754,-13.00981,-1.30964,-1.30964,57.68853,11.98072,57.68852975,11.98072114,A,144223.60
18:32:04.009986,8.16925,0.01402,2.22880,2.22880,[3.00000 0.00000 0.00000],[1.30000 0.00000 0.00000],0.05749,-0.13071,-0.03838,0.09515,0.05236,-0.09217,-0.34671,0.08272,0.05941,0.94977,8.15812,0.03419,2.55892,-1.22241,-1.29870,5.46700,-12.82862,8.13739,5.52754,-13.00981,-1.30964,-1.30964,57.68853,11.98072,57.68852913,11.98072148,A,144223.60
18:32:04.038058,8.19651,0.01261,2.82058,2.82058,[3.00000 0.00000 0.00000],[1.30000 0.00000 0.00000],0.05604,-0.13079,-0.04404,0.11776,0.05236,-0.03643,-0.34747,0.10815,-0.01037,1.07525,8.18787,0.00000,2.61125,-1.23029,-1.30663,5.48650,-12.89672,8.13739,5.52754,-13.00981,-1.30964,-1.30964,57.68853,11.98072,57.68852852,11.98072181,A,144223.60
18:32:04.064392,8.22364,0.01359,2.82058,2.82058,[3.00000 0.00000 0.00000],[1.30000 0.00000 0.00000],0.05611,-0.13040,-0.05320,0.14495,0.05236,-0.03597,-0.35465,-0.07131,0.07930,0.97179,8.21205,0.00000,2.65312,-1.23655,-1.31266,5.50334,-12.95701,8.13739,5.52754,-13.00981,-1.30964,-1.30964,57.68853,11.98072,57.68852797,11.98072209,A,144223.60
18:32:04.100703,8.25997,0.02693,2.82058,2.82058,[3.00000 0.00000 0.00000],[1.30000 0.00000 0.00000],0.05566,-0.12827,-0.03426,0.08992,0.05236,-0.03566,-0.34518,0.06338,0.00909,0.92385,8.23516,0.00000,2.68661,-1.24023,-1.31509,5.53169,-13.06042,8.25522,5.60679,-13.26926,-1.27436,-1.27436,57.68853,11.98072,57.68852704,11.98072257,A,144223.70
18:32:04.128347,8.28761,0.01467,2.82058,2.82058,[3.00000 0.00000 0.00000],[1.30000 0.00000 0.00000],0.05552,-0.12403,-0.03732,0.09963,0.05236,-0.04590,-0.32869,-0.15958,0.11389,1.12655,8.27699,0.00000,2.71340,-1.24057,-1.31294,5.55080,-13.12960,8.25522,5.60679,-13.26926,-1.27436,-1.27436,57.68853,11.98072,57.68852642,11.98072289,A,144223.70
18:32:04.153435,8.31219,0.01359,2.30781,2.30781,[3.00000 0.00000 0.00000],[1.30000 0.00000 0.00000],0.05454,-0.12196,0.00041,-0.00973,0.05236,0.00603,-0.31922,0.12096,-0.03965,1.01656,8.30001,0.00000,2.63228,-1.24038,-1.31154,5.56787,-13.19072,8.25522,5.60679,-13.26926,-1.27436,-1.27436,57.68853,11.98072,57.68852587,11.98072318,A,144223.70
18:32:04.179380,8.33864,0.01377,2.30781,2.30781,[3.00000 0.00000 0.00000],[1.30000 0.00000 0.00000],0.05391,-0.11961,-0.00280,0.00238,0.05236,-0.03750,-0.31296,0.06149,-0.01562,0.90195,8.32790,0.00000,2.56739,-1.24062,-1.31039,5.58492,-13.25158,8.25522,5.60679,-13.26926,-1.27436,-1.27436,57.68853,11.98072,57.68852533,11.98072347,A,144223.70
18:32:04.215470,8.37473,0.02595,2.30781,2.30781,[3.00000 0.00000 0.00000],[1.30000 0.00000 0.00000],0.05366,-0.11961,-0.00540,0.01114,0.05236,-0.06193,-0.30593,0.11968,0.01049,0.92299,8.34849,0.00488,2.51547,-1.24585,-1.31562,5.61213,-13.34952,8.37004,5.67613,-13.51018,-1.29055,-1.29055,57.68852,11.98072,57.68852444,11.98072392,A,144223.80
18:32:04.238873,8.39813,0.01401,2.82406,2.82406,[3.00000 0.00000 0.00000],[1.30000 0.00000 0.00000],0.05404,-0.11956,-0.01197,0.02936,0.05236,-0.05582,-0.31769,-0.12401,0.06082,1.05304,8.38614,0.00000,2.57719,-1.24610,-1.31584,5.62618,-13.39912,8.37004,5.67613,-13.51018,-1.29055,-1.29055,57.68852,11.98072,57.68852400,11.98072416,A,144223.80
18:32:04.264027,8.42329,0.01284,2.82406,2.82406,[3.00000 0.00000 0.00000],[1.30000 0.00000 0.00000],0.05418,-0.11947,-0.00402,0.00497,0.05236,-0.02711,-0.32563,-0.04050,0.01543,1.00223,8.41174,0.00244,2.62656,-1.24730,-1.31699,5.64215,-13.45638,8.37004,5.67613,-13.51018,-1.29055,-1.29055,57.68852,11.98072,57.68852348,11.98072443,A,144223.80
18:32:04.289278,8.44854,0.01381,2.82406,2.82406,[3.00000 0.00000 0.00000],[1.30000 0.00000 0.00000],0.05423,-0.11947,-0.00967,0.02174,0.05236,-0.02085,-0.30975,0.04673,0.01623,0.98728,8.43572,0.00000,2.66606,-1.24837,-1.31806,5.65742,-13.51138,8.37004,5.67613,-13.51018,-1.29055,-1.29055,57.68852,11.98072,57.68852299,11.98072469,A,144223.80
18:32:04.311816,8.47055,0.01079,2.56909,2.56909,[3.00000 0.00000 0.00000],[1.30000 0.00000 0.00000],0.05440,-0.11978,-0.00784,0.01555,0.05236,-0.01825,-0.32319,-0.05356,0.04099,1.04042,8.45952,0.00000,2.64667,-1.24843,-1.31830,5.66966,-13.55511,8.37004,5.67613,-13.51018,-1.29055,-1.29055,57.68852,11.98072,57.68852260,11.98072489,A,144223.80
18:32:04.351120,8.51038,0.02725,2.56909,2.56909,[3.00000 0.00000 0.00000],[1.30000 0.00000 0.00000],0.05524,-0.11981,0.01110,-0.04452,0.05236,-0.01505,-0.32915,0.03434,0.05155,1.01083,8.48486,0.00000,2.63115,-1.25943,-1.32931,5.69812,-13.66242,8.50566,5.73556,-13.75111,-1.32892,-1.32892,57.68852,11.98073,57.68852163,11.98072537,A,144223.90
18:32:04.375156,8.53442,0.01227,2.56909,2.56909,[3.00000 0.00000 0.00000],[1.30000 0.00000 0.00000],0.05487,-0.11987,0.01048,-0.04124,0.05236,-0.05033,-0.31739,-0.07241,-0.03922,0.97874,8.52494,0.00733,2.61874,-1.26449,-1.33442,5.71312,-13.72018,8.50566,5.73556,-13.75111,-1.32892,-1.32892,57.68852,11.98073,57.68852111,11.98072562,A,144223.90
18:32:04.401360,8.56063,0.01200,2.56909,2.56909,[3.00000 0.00000 0.00000],[1.30000 0.00000 0.00000],0.05519,-0.12069,-0.00265,-0.00310,0.05236,-0.06636,-0.31724,-0.02696,0.04087,1.02315,8.54835,0.00244,2.60881,-1.26864,-1.33905,5.72688,-13.77420,8.50566,5.73556,-13.75111,-1.32892,-1.32892,57.68852,11.98073,57.68852063,11.98072585,A,144223.90
18:32:04.428168,8.58740,0.01512,2.44022,2.44022,[3.00000 0.00000 0.00000],[1.30000 0.00000 0.00000],0.05515,-0.12182,0.00117,-0.01437,0.05236,-0.01016,-0.31846,0.04111,0.01568,1.02358,8.57576,0.01709,2.57509,-1.27240,-1.34347,5.74043,-13.82859,8.50566,5.73556,-13.75111,-1.32892,-1.32892,57.68852,11.98073,57.68852014,11.98072608,A,144223.90
18:32:04.451941,8.61120,0.01311,2.44022,2.44022,[3.00000 0.00000 0.00000],[1.30000 0.00000 0.00000],0.05550,-0.12199,0.00712,-0.03362,0.05236,-0.02696,-0.31510,0.07290,0.02233,0.90188,8.59947,0.00733,2.54812,-1.27490,-1.34606,5.75132,-13.87287,8.50566,5.73556,-13.75111,-1.32892,-1.32892,57.68852,11.98073,57.68851974,11.98072627,A,144223.90
18:32:04.503895,8.66316,0.03870,2.44022,2.44022,[3.00000 0.00000 0.00000],[1.30000 0.00000 0.00000],0.05557,-0.12244,0.01186,-0.04808,0.05236,-0.03658,-0.32197,-0.01830,0.00744,1.09544,8.62771,0.02442,2.52654,-1.29968,-1.37111,5.78156,-14.01237,8.65842,5.80491,-14.25148,-1.43309,-1.43309,57.68852,11.98073,57.68851848,11.98072677,A,144224.10
18:32:04.530545,8.68979,0.01442,2.71357,2.71357,[3.00000 0.00000 0.00000],[1.30000 0.00000 0.00000],0.05629,-0.12479,0.02117,-0.07884,0.05236,0.00099,-0.32243,-0.01177,-0.02208,0.93483,8.67776,0.03907,2.56394,-1.31366,-1.38647,5.79288,-14.07448,8.65842,5.80491,-14.25148,-1.43309,-1.43309,57.68852,11.98073,57.68851793,11.98072696,A,144224.10
18:32:04.557633,8.71690,0.01356,2.71357,2.71357,[3.00000 0.00000 0.00000],[1.30000 0.00000 0.00000],0.05670,-0.12624,0.00697,-0.03784,0.05236,-0.05781,-0.31968,0.00982,0.01232,0.94178,8.70511,0.12454,2.59387,-1.32620,-1.39986,5.80417,-14.14066,8.65842,5.80491,-14.25148,-1.43309,-1.43309,57.68852,11.98073,57.68851733,11.98072715,A,144224.10
18:32:04.587798,8.74706,0.01568,2.71357,2.71357,[3.00000 0.00000 0.00000],[1.30000 0.00000 0.00000],0.05727,-0.12946,-0.00295,-0.01027,0.05236,-0.04712,-0.33800,-0.06911,0.04520,0.99918,8.73476,0.02442,2.61781,-1.33723,-1.41279,5.81515,-14.20959,8.65842,5.80491,-14.25148,-1.43309,-1.43309,57.68852,11.98073,57.68851671,11.98072734,A,144224.10
18:32:04.626299,8.78542,0.02797,2.56838,2.56838,[3.00000 0.00000 0.00000],[1.30000 0.00000 0.00000],0.05651,-0.13060,0.00010,-0.01649,0.05236,-0.01016,-0.34106,-0.00567,-0.03812,1.08659,8.75975,0.03419,2.60792,-1.34735,-1.42357,5.83102,-14.31506,8.78076,5.84453,-14.51094,-1.41925,-1.41925,57.68851,11.98073,57.68851576,11.98072761,A,144224.20
18:32:04.653949,8.81321,0.01427,2.56838,2.56838,[3.00000 0.00000 0.00000],[1.30000 0.00000 0.00000],0.05741,-0.13181,0.00712,-0.04108,0.05236,-0.02207,-0.34732,0.15799,0.03941,0.92342,8.80210,0.01221,2.60002,-1.35250,-1.42944,5.84020,-14.38221,8.78076,5.84453,-14.51094,-1.41925,-1.41925,57.68851,11.98073,57.68851516,11.98072776,A,144224.20
18:32:04.682049,8.84099,0.01333,3.02214,3.02214,[3.00000 0.00000 0.00000],[1.30000 0.00000 0.00000],0.05669,-0.13362,-0.00799,0.00709,0.05236,-0.02665,-0.34656,0.00781,-0.05118,1.04993,8.83026,0.00488,2.68444,-1.35687,-1.43487,5.84872,-14.44695,8.78076,5.84453,-14.51094,-1.41925,-1.41925,57.68851,11.98073,57.68851458,11.98072790,A,144224.20
18:32:04.710805,8.87006,0.01326,3.02214,3.02214,[3.00000 0.00000 0.00000],[1.30000 0.00000 0.00000],0.05753,-0.13518,0.00239,-0.02733,0.05236,-0.01383,-0.35221,-0.01659,0.02885,0.99643,8.85909,0.00488,2.75198,-1.36130,-1.44023,5.85750,-14.51588,8.78076,5.84453,-14.51094,-1.41925,-1.41925,57.68851,11.98073,57.68851396,11.98072805,A,144224.20
18:32:04.760819,8.92008,0.03679,3.02214,3.02214,[3.00000 0.00000 0.00000],[1.30000 0.00000 0.00000],0.05689,-0.13552,-0.00540,-0.00147,0.05236,-0.02971,-0.34931,0.07613,-0.05832,0.93397,8.88508,0.01221,2.80601,-1.38587,-1.46499,5.87511,-14.66932,8.91537,5.87425,-15.02985,-1.51359,-1.51359,57.68851,11.98073,57.68851258,11.98072835,A,144224.40
18:32:04.787933,8.94719,0.01500,3.02214,3.02214,[3.00000 0.00000 0.00000],[1.30000 0.00000 0.00000],0.05599,-0.13767,0.00254,-0.02177,0.05236,0.01122,-0.35465,-0.02879,-0.09119,1.09770,8.93598,0.00488,2.84924,-1.39964,-1.48003,5.88172,-14.75004,8.91537,5.87425,-15.02985,-1.51359,-1.51359,57.68851,11.98073,57.68851185,11.98072846,A,144224.40
18:32:04.815947,8.97521,0.01431,2.20772,2.20772,[3.00000 0.00000 0.00000],[1.30000 0.00000 0.00000],0.05727,-0.13773,-0.00723,0.00255,0.05236,0.01244,-0.36305,0.09223,0.09778,0.85516,8.96297,0.01221,2.72093,-1.41172,-1.49215,5.88730,-14.82944,8.91537,5.87425,-15.02985,-1.51359,-1.51359,57.68851,11.98073,57.68851114,11.98072855,A,144224.40
18:32:04.839136,8.99838,0.01289,2.20772,2.20772,[3.00000 0.00000 0.00000],[1.30000 0.00000 0.00000],0.05700,-0.13776,0.00224,-0.02482,0.05236,-0.03185,-0.34747,-0.02898,-0.00262,0.88596,8.98719,0.01709,2.61829,-1.42011,-1.50055,5.89043,-14.88742,8.91537,5.87425,-15.02985,-1.51359,-1.51359,57.68851,11.98073,57.68851061,11.98072861,A,144224.40
18:32:04.880055,9.03932,0.02793,2.20772,2.20772,[3.00000 0.00000 0.00000],[1.30000 0.00000 0.00000],0.05630,-0.13841,-0.03014,0.07506,0.05236,-0.07781,-0.35740,0.01531,0.04972,1.21530,9.01389,0.02930,2.53618,-1.43550,-1.51633,5.89706,-15.00623,9.03457,5.88415,-15.28930,-1.53263,-1.53263,57.68851,11.98073,57.68850955,11.98072872,A,144224.50
18:32:04.907171,9.06643,0.01319,2.74534,2.74534,[3.00000 0.00000 0.00000],[1.30000 0.00000 0.00000],0.05584,-0.13977,-0.01578,0.03379,0.05236,-0.09538,-0.37359,0.04843,-0.00043,0.93836,9.05575,0.00000,2.57801,-1.44399,-1.52561,5.89952,-15.07733,9.03457,5.88415,-15.28930,-1.53263,-1.53263,57.68851,11.98073,57.68850891,11.98072876,A,144224.50
18:32:04.933038,9.09229,0.01328,2.74534,2.74534,[3.00000 0.00000 0.00000],[1.30000 0.00000 0.00000],0.05775,-0.13977,-0.01120,0.01258,0.05236,-0.02925,-0.35725,-0.11743,0.08528,0.75542,9.08173,0.00000,2.61148,-1.45091,-1.53253,5.90118,-15.14162,9.03457,5.88415,-15.28930,-1.53263,-1.53263,57.68851,11.98073,57.68850833,11.98072879,A,144224.50
18:32:04.961754,9.12101,0.01482,2.74534,2.74534,[3.00000 0.00000 0.00000],[1.30000 0.00000 0.00000],0.06022,-0.13977,0.00438,-0.04378,0.05236,0.09033,-0.35190,0.01385,0.09174,0.74335,9.10941,0.00000,2.63825,-1.45770,-1.53932,5.90271,-15.21110,9.03457,5.88415,-15.28930,-1.53263,-1.53263,57.68851,11.98073,57.68850770,11.98072881,A,144224.50
18:32:05.005764,9.16503,0.02871,2.22514,2.22514,[3.00000 0.00000 0.00000],[1.30000 0.00000 0.00000],0.06004,-0.13982,0.01583,-0.07744,0.05236,0.03779,-0.33678,0.12700,-0.00714,1.24342,9.14001,0.01954,2.55563,-1.47421,-1.55586,5.90518,-15.33507,9.16033,5.88415,-15.53022,-1.57080,-1.57080,57.68850,11.98073,57.68850659,11.98072885,A,144224.60
18:32:05.032398,9.19166,0.01295,2.22514,2.22514,[3.00000 0.00000 0.00000],[1.30000 0.00000 0.00000],0.06003,-0.14121,-0.01930,0.02798,0.05236,-0.10943,-0.37909,0.02672,0.09931,1.16437,9.18035,0.02686,2.48953,-1.48240,-1.56487,5.90496,-15.40047,9.16033,5.88415,-15.53022,-1.57080,-1.57080,57.68850,11.98073,57.68850600,11.98072885,A,144224.60
18:32:05.060295,9.21924,0.01328,2.22514,2.22514,[3.00000 0.00000 0.00000],[1.30000 0.00000 0.00000],0.05758,-0.14279,-0.01853,0.03523,0.05236,-0.12943,-0.38672,-0.02989,-0.09254,0.74560,9.20795,0.00977,2.43665,-1.48940,-1.57281,5.90426,-15.46370,9.16033,5.88415,-15.53022,-1.57080,-1.57080,57.68850,11.98073,57.68850543,11.98072884,A,144224.60
