Description :  ; walk_time = 2.0 ; speed_up_time = 3.0 ; balancing_time = 0.0
RealTime,Time,CalculationTime,MeasuredVelocity,FilteredVelocity,BalancingGainsInner,BalancingGainsOuter,Roll,SteeringAngle,RollRate,ControlInput,BalancingSetpoint,gy,gz,ax,ay,az,imu_read_timing,SteerMotorCurrent,v_estimated,yaw_estimated,heading_estimated,x_estimated,y_estimated,GPS_timestamp,x_GPS,y_GPS,theta_GPS,theta_GPS_noUnwrap,latitude,longitude,lat_estimated,lon_estimated,status,NMEA timestamp,DirectionGains,LateralPositionGains,distance_travelled,x_ref,y_ref,heading_ref,lateral_error,heading_error
17:55:21.029468,0.09652,0.09631,0.00000,1.50000,"[5.00000,0.00000,0.00000]","[1.30000,0.00000,0.00000]",-0.00162,0.08457,-0.01601,0.00000,0.00000,-0.00003,0.02515,0.07094,-0.07326,1.00162,0.00001,0.02198,0.00000,-0.04925,0.00000,0.00000,0.00000,0.02626,0.00000,0.00000,0.00000,0.00000,57.78143,12.77352,57.78142750,12.77352350,A,132106.30,"[-0.20000,-0.00000,-0.00000]","[-0.10000,-0.00000,-0.00000]",0.00000,0.00000,0.00000,0.00000,0.00000,0.00000
17:55:21.051597,0.11872,0.00818,0.00000,0.00000,"[5.00000,0.00000,0.00000]","[1.30000,0.00000,0.00000]",0.00353,0.09719,0.05943,0.00000,0.00000,-0.00858,0.02393,0.07552,-0.07424,1.00333,0.11287,0.03175,0.00000,-0.05036,0.00627,0.00000,0.00000,0.02626,0.00000,0.00000,0.00000,0.00000,57.78143,12.77352,57.78142750,12.77352350,A,132106.30,"[-0.20000,-0.00000,-0.00000]","[-0.10000,-0.00000,-0.00000]",0.16571,0.00000,0.00000,0.00000,0.00000,0.00000
17:55:21.058801,0.12592,0.00521,0.00000,0.00000,"[5.00000,0.00000,0.00000]","[1.30000,0.00000,0.00000]",0.00275,0.09793,0.06279,0.00000,0.00000,-0.00751,0.02469,0.07387,-0.05447,0.99936,0.12025,0.02198,0.00000,-0.05136,0.00570,0.00000,0.00000,0.02626,0.00000,0.00000,0.00000,0.00000,57.78143,12.77352,57.78142750,12.77352350,A,132106.30,"[-0.20000,-0.00000,-0.00000]","[-0.10000,-0.00000,-0.00000]",0.16571,0.00000,0.00000,0.00000,0.00000,0.00000
17:55:21.118371,0.18500,0.05389,0.00000,1.50000,"[5.00000,0.00000,0.00000]","[1.30000,0.00000,0.00000]",0.00178,0.09880,0.07745,0.00000,0.00000,-0.00415,0.02759,0.08668,-0.09101,0.99326,0.13085,0.02686,0.00000,-0.05230,0.00528,0.00000,0.00000,0.14769,-0.01976,0.05560,1.91230,1.91230,57.78143,12.77352,57.78142750,12.77352350,A,132106.40,"[-0.20000,-0.00000,-0.00000]","[-0.10000,-0.00000,-0.00000]",0.16571,0.00000,0.00000,0.00000,0.00000,0.00000
17:55:21.140789,0.20790,0.00852,0.00000,0.00000,"[5.00000,0.00000,0.00000]","[1.30000,0.00000,0.00000]",0.00679,0.10342,0.09517,0.00000,0.00000,-0.00629,0.03095,0.09394,-0.08369,1.00131,0.20185,0.02930,0.00000,0.23335,0.29363,-0.00099,0.00278,0.14769,-0.01976,0.05560,1.91230,1.91230,57.78143,12.77352,57.78142752,12.77352348,A,132106.40,"[-0.20000,-0.00000,-0.00000]","[-0.10000,-0.00000,-0.00000]",0.26809,0.00000,0.00000,0.00000,0.00000,0.00000
17:55:21.147535,0.21465,0.00522,0.00000,0.00000,"[5.00000,0.00000,0.00000]","[1.30000,0.00000,0.00000]",0.00593,0.10393,0.09608,0.00000,0.00000,-0.00461,0.03111,0.08308,-0.07204,1.00924,0.20906,0.02686,0.00000,0.47611,0.53668,-0.00193,0.00542,0.14769,-0.01976,0.05560,1.91230,1.91230,57.78143,12.77352,57.78142755,12.77352347,A,132106.40,"[-0.20000,-0.00000,-0.00000]","[-0.10000,-0.00000,-0.00000]",0.26809,0.00000,0.00000,0.00000,0.00000,0.00000
17:55:21.158236,0.22536,0.00540,0.00000,0.00000,"[5.00000,0.00000,0.00000]","[1.30000,0.00000,0.00000]",0.00547,0.10452,0.09486,0.00000,0.00000,-0.00690,0.02332,0.09546,-0.06521,0.98491,0.21968,0.03175,0.00000,0.68240,0.74332,-0.00282,0.00793,0.14769,-0.01976,0.05560,1.91230,1.91230,57.78143,12.77352,57.78142757,12.77352345,A,132106.40,"[-0.20000,-0.00000,-0.00000]","[-0.10000,-0.00000,-0.00000]",0.26809,0.00000,0.00000,0.00000,0.00000,0.00000
17:55:21.168371,0.23549,0.00508,0.00000,0.00000,"[5.00000,0.00000,0.00000]","[1.30000,0.00000,0.00000]",0.00482,0.10495,0.09746,0.00000,0.00000,-0.01133,0.02484,0.08625,-0.07747,0.96331,0.23012,0.04396,0.00000,0.85771,0.91888,-0.00367,0.01031,0.14769,-0.01976,0.05560,1.91230,1.91230,57.78143,12.77352,57.78142759,12.77352344,A,132106.40,"[-0.20000,-0.00000,-0.00000]","[-0.10000,-0.00000,-0.00000]",0.26809,0.00000,0.00000,0.00000,0.00000,0.00000
17:55:21.179019,0.24614,0.00519,0.00000,0.00000,"[5.00000,0.00000,0.00000]","[1.30000,0.00000,0.00000]",0.00447,0.10517,0.10082,0.00000,0.00000,-0.01087,0.02637,0.06045,-0.06063,0.97325,0.24048,0.03175,0.00000,1.00670,1.06801,-0.00447,0.01258,0.14769,-0.01976,0.05560,1.91230,1.91230,57.78143,12.77352,57.78142761,12.77352342,A,132106.40,"[-0.20000,-0.00000,-0.00000]","[-0.10000,-0.00000,-0.00000]",0.26809,0.00000,0.00000,0.00000,0.00000,0.00000
17:55:21.237670,0.30476,0.05341,0.00000,1.50000,"[5.00000,0.00000,0.00000]","[1.30000,0.00000,0.00000]",0.00423,0.10520,0.10448,0.00000,0.00000,-0.01270,0.02500,0.05826,-0.05752,0.96624,0.25107,0.03175,0.00000,1.13334,1.19467,-0.00523,0.01473,0.26784,-0.03952,0.11119,1.91230,1.91230,57.78143,12.77352,57.78142763,12.77352341,A,132106.50,"[-0.20000,-0.00000,-0.00000]","[-0.10000,-0.00000,-0.00000]",0.26809,0.00000,0.00000,0.00000,0.00000,0.00000
17:55:21.259632,0.32674,0.00889,0.00000,0.00000,"[5.00000,0.00000,0.00000]","[1.30000,0.00000,0.00000]",0.00966,0.10520,0.10097,0.00000,0.00000,-0.00767,0.02423,0.09790,-0.06899,0.98497,0.32054,0.02442,0.00000,1.24099,1.30231,-0.00695,0.01955,0.26784,-0.03952,0.11119,1.91230,1.91230,57.78143,12.77352,57.78142768,12.77352338,A,132106.50,"[-0.20000,-0.00000,-0.00000]","[-0.10000,-0.00000,-0.00000]",0.36781,0.00000,0.00000,0.00000,0.00000,0.00000
17:55:21.266320,0.33344,0.00549,0.00000,0.00000,"[5.00000,0.00000,0.00000]","[1.30000,0.00000,0.00000]",0.00889,0.10520,0.09532,0.00000,0.00000,-0.00599,0.02683,0.08491,-0.06076,0.97551,0.32773,0.01954,0.00000,1.33249,1.39381,-0.00858,0.02413,0.26784,-0.03952,0.11119,1.91230,1.91230,57.78143,12.77352,57.78142772,12.77352336,A,132106.50,"[-0.20000,-0.00000,-0.00000]","[-0.10000,-0.00000,-0.00000]",0.36781,0.00000,0.00000,0.00000,0.00000,0.00000
17:55:21.276371,0.34349,0.00507,0.00000,0.00000,"[5.00000,0.00000,0.00000]","[1.30000,0.00000,0.00000]",0.00853,0.10520,0.09104,0.00000,0.00000,0.00364,0.02698,0.07161,-0.05045,0.95654,0.33812,0.01709,0.00000,1.41026,1.47158,-0.01013,0.02849,0.26784,-0.03952,0.11119,1.91230,1.91230,57.78143,12.77352,57.78142776,12.77352333,A,132106.50,"[-0.20000,-0.00000,-0.00000]","[-0.10000,-0.00000,-0.00000]",0.36781,0.00000,0.00000,0.00000,0.00000,0.00000
17:55:21.286869,0.35399,0.00516,0.00000,0.00000,"[5.00000,0.00000,0.00000]","[1.30000,0.00000,0.00000]",0.00806,0.10520,0.08997,0.00000,0.00000,0.00150,0.02332,0.08699,-0.05472,0.93361,0.34837,0.01709,0.00000,1.47637,1.53769,-0.01160,0.03262,0.26784,-0.03952,0.11119,1.91230,1.91230,57.78143,12.77352,57.78142779,12.77352330,A,132106.50,"[-0.20000,-0.00000,-0.00000]","[-0.10000,-0.00000,-0.00000]",0.36781,0.00000,0.00000,0.00000,0.00000,0.00000
17:55:21.297845,0.36496,0.00573,0.00000,0.00000,"[5.00000,0.00000,0.00000]","[1.30000,0.00000,0.00000]",0.00758,0.10520,0.09547,0.00000,0.00000,0.00547,0.02301,0.06978,-0.06503,0.94879,0.35935,0.02686,0.00000,1.53256,1.59388,-0.01299,0.03655,0.26784,-0.03952,0.11119,1.91230,1.91230,57.78143,12.77352,57.78142783,12.77352328,A,132106.50,"[-0.20000,-0.00000,-0.00000]","[-0.10000,-0.00000,-0.00000]",0.36781,0.00000,0.00000,0.00000,0.00000,0.00000
17:55:21.357568,0.42466,0.05504,0.00000,1.50000,"[5.00000,0.00000,0.00000]","[1.30000,0.00000,0.00000]",0.00749,0.10520,0.09318,0.00000,0.00000,0.00929,0.02500,0.08699,-0.03251,0.98314,0.36913,0.03907,0.00000,1.58033,1.64165,-0.01432,0.04028,0.38609,-0.05928,0.18532,1.83131,1.83131,57.78143,12.77352,57.78142786,12.77352326,A,132106.60,"[-0.20000,-0.00000,-0.00000]","[-0.10000,-0.00000,-0.00000]",0.36781,0.00000,0.00000,0.00000,0.00000,0.00000
17:55:21.379270,0.44639,0.00755,0.00000,0.00000,"[5.00000,0.00000,0.00000]","[1.30000,0.00000,0.00000]",0.01245,0.10520,0.08432,0.00000,0.00000,-0.00308,0.01629,0.04941,-0.03172,0.92561,0.44073,0.03175,0.00000,1.60878,1.67010,-0.01657,0.04754,0.38609,-0.05928,0.18532,1.83131,1.83131,57.78143,12.77352,57.78142793,12.77352322,A,132106.60,"[-0.20000,-0.00000,-0.00000]","[-0.10000,-0.00000,-0.00000]",0.47159,0.00000,0.00000,0.00000,0.00000,0.00000
17:55:21.387106,0.45423,0.00516,0.00000,0.00000,"[5.00000,0.00000,0.00000]","[1.30000,0.00000,0.00000]",0.01169,0.10520,0.08356,0.00000,0.00000,0.00196,0.01370,0.06850,-0.05191,0.91726,0.44861,0.03419,0.00000,1.63296,1.69428,-0.01870,0.05442,0.38609,-0.05928,0.18532,1.83131,1.83131,57.78143,12.77352,57.78142799,12.77352318,A,132106.60,"[-0.20000,-0.00000,-0.00000]","[-0.10000,-0.00000,-0.00000]",0.47159,0.00000,0.00000,0.00000,0.00000,0.00000
17:55:21.397756,0.46486,0.00540,0.00000,0.00000,"[5.00000,0.00000,0.00000]","[1.30000,0.00000,0.00000]",0.01145,0.10520,0.08799,0.00000,0.00000,0.00547,0.01538,0.10401,-0.03849,0.92665,0.45927,0.03663,0.00000,1.65351,1.71483,-0.02073,0.06097,0.38609,-0.05928,0.18532,1.83131,1.83131,57.78143,12.77352,57.78142805,12.77352315,A,132106.60,"[-0.20000,-0.00000,-0.00000]","[-0.10000,-0.00000,-0.00000]",0.47159,0.00000,0.00000,0.00000,0.00000,0.00000
17:55:21.407786,0.47490,0.00503,0.00000,0.00000,"[5.00000,0.00000,0.00000]","[1.30000,0.00000,0.00000]",0.01124,0.10514,0.08845,0.00000,0.00000,-0.00721,0.01889,0.11553,-0.03459,0.95300,0.46935,0.02442,0.00000,1.67099,1.73228,-0.02266,0.06719,0.38609,-0.05928,0.18532,1.83131,1.83131,57.78143,12.77352,57.78142810,12.77352312,A,132106.60,"[-0.20000,-0.00000,-0.00000]","[-0.10000,-0.00000,-0.00000]",0.47159,0.00000,0.00000,0.00000,0.00000,0.00000
17:55:21.418513,0.48564,0.00537,0.00000,0.00000,"[5.00000,0.00000,0.00000]","[1.30000,0.00000,0.00000]",0.01063,0.10495,0.08417,0.00000,0.00000,-0.00079,0.01446,0.13365,-0.06338,0.99546,0.47997,0.02198,0.00000,1.68586,1.74703,-0.02449,0.07309,0.38609,-0.05928,0.18532,1.83131,1.83131,57.78143,12.77352,57.78142816,12.77352309,A,132106.60,"[-0.20000,-0.00000,-0.00000]","[-0.10000,-0.00000,-0.00000]",0.47159,0.00000,0.00000,0.00000,0.00000,0.00000
17:55:21.478590,0.54479,0.05412,0.00000,1.50000,"[5.00000,0.00000,0.00000]","[1.30000,0.00000,0.00000]",0.00991,0.10452,0.08234,0.00000,0.00000,-0.00415,0.01202,0.10895,-0.07076,1.02425,0.49037,0.05372,0.00000,1.69854,1.75947,-0.02623,0.07871,0.50748,-0.08893,0.25945,1.95118,1.95118,57.78143,12.77352,57.78142821,12.77352306,A,132106.70,"[-0.20000,-0.00000,-0.00000]","[-0.10000,-0.00000,-0.00000]",0.47159,0.00000,0.00000,0.00000,0.00000,0.00000
17:55:21.500700,0.56782,0.00869,0.00000,0.00000,"[5.00000,0.00000,0.00000]","[1.30000,0.00000,0.00000]",0.01305,0.09801,0.05699,0.00000,0.00000,0.00150,0.01156,0.10699,-0.02458,0.96258,0.56239,0.03663,0.00000,1.72787,1.78498,-0.02936,0.08774,0.50748,-0.08893,0.25945,1.95118,1.95118,57.78143,12.77352,57.78142829,12.77352300,A,132106.70,"[-0.20000,-0.00000,-0.00000]","[-0.10000,-0.00000,-0.00000]",0.57424,0.00000,0.00000,0.00000,0.00000,0.00000
17:55:21.507217,0.57434,0.00506,0.00000,0.00000,"[5.00000,0.00000,0.00000]","[1.30000,0.00000,0.00000]",0.01237,0.09747,0.05088,0.00000,0.00000,-0.00079,0.01324,0.12066,-0.02714,0.94770,0.56873,0.01954,0.00000,1.75285,1.80965,-0.03234,0.09633,0.50748,-0.08893,0.25945,1.95118,1.95118,57.78143,12.77352,57.78142837,12.77352295,A,132106.70,"[-0.20000,-0.00000,-0.00000]","[-0.10000,-0.00000,-0.00000]",0.57424,0.00000,0.00000,0.00000,0.00000,0.00000
17:55:21.517921,0.58504,0.00536,0.00000,0.00000,"[5.00000,0.00000,0.00000]","[1.30000,0.00000,0.00000]",0.01182,0.09677,0.05088,0.00000,0.00000,-0.00889,0.01538,0.12108,-0.03447,0.97069,0.57940,0.02686,0.00000,1.77414,1.83053,-0.03517,0.10449,0.50748,-0.08893,0.25945,1.95118,1.95118,57.78143,12.77352,57.78142844,12.77352291,A,132106.70,"[-0.20000,-0.00000,-0.00000]","[-0.10000,-0.00000,-0.00000]",0.57424,0.00000,0.00000,0.00000,0.00000,0.00000
17:55:21.528318,0.59543,0.00535,0.00000,0.00000,"[5.00000,0.00000,0.00000]","[1.30000,0.00000,0.00000]",0.01135,0.09614,0.03683,0.00000,0.00000,-0.01087,0.01751,0.10138,-0.02007,0.98167,0.58978,0.01954,0.00000,1.79229,1.84831,-0.03786,0.11223,0.50748,-0.08893,0.25945,1.95118,1.95118,57.78143,12.77352,57.78142851,12.77352286,A,132106.70,"[-0.20000,-0.00000,-0.00000]","[-0.10000,-0.00000,-0.00000]",0.57424,0.00000,0.00000,0.00000,0.00000,0.00000
17:55:21.538707,0.60583,0.00518,0.00000,0.00000,"[5.00000,0.00000,0.00000]","[1.30000,0.00000,0.00000]",0.01087,0.09555,0.03301,0.00000,0.00000,-0.01500,0.01354,0.10895,-0.01757,0.97649,0.60017,0.01954,0.00000,1.80778,1.86345,-0.04041,0.11959,0.50748,-0.08893,0.25945,1.95118,1.95118,57.78143,12.77352,57.78142858,12.77352282,A,132106.70,"[-0.20000,-0.00000,-0.00000]","[-0.10000,-0.00000,-0.00000]",0.57424,0.00000,0.00000,0.00000,0.00000,0.00000
17:55:21.609713,0.67680,0.06575,0.00000,1.50000,"[5.00000,0.00000,0.00000]","[1.30000,0.00000,0.00000]",0.01065,0.09507,0.02843,0.00000,0.00000,-0.02095,0.01278,0.07088,0.00085,1.00089,0.61076,0.03419,0.00000,1.82098,1.87637,-0.04284,0.12659,0.63831,-0.13833,0.42625,1.85876,1.85876,57.78143,12.77352,57.78142864,12.77352278,A,132106.90,"[-0.20000,-0.00000,-0.00000]","[-0.10000,-0.00000,-0.00000]",0.57424,0.00000,0.00000,0.00000,0.00000,0.00000
17:55:21.631182,0.69830,0.00790,0.00000,0.00000,"[5.00000,0.00000,0.00000]","[1.30000,0.00000,0.00000]",0.01027,0.09439,0.00308,0.00000,0.00000,-0.01118,0.02744,0.12767,-0.00653,0.94684,0.69258,0.02686,0.00000,1.81840,1.87339,-0.04761,0.14157,0.63831,-0.13833,0.42625,1.85876,1.85876,57.78143,12.77352,57.78142877,12.77352270,A,132106.90,"[-0.20000,-0.00000,-0.00000]","[-0.10000,-0.00000,-0.00000]",0.69324,0.00000,0.00000,0.00000,0.00000,0.00000
17:55:21.638865,0.70599,0.00517,0.00000,0.00000,"[5.00000,0.00000,0.00000]","[1.30000,0.00000,0.00000]",0.00950,0.09439,-0.00043,0.00000,0.00000,-0.01820,0.02943,0.08119,-0.01562,0.96880,0.70035,0.02198,0.00000,1.81620,1.87120,-0.05215,0.15580,0.63831,-0.13833,0.42625,1.85876,1.85876,57.78143,12.77352,57.78142890,12.77352262,A,132106.90,"[-0.20000,-0.00000,-0.00000]","[-0.10000,-0.00000,-0.00000]",0.69324,0.00000,0.00000,0.00000,0.00000,0.00000
17:55:21.649539,0.71634,0.00512,0.00000,0.00000,"[5.00000,0.00000,0.00000]","[1.30000,0.00000,0.00000]",0.00825,0.09439,0.00369,0.00000,0.00000,-0.01087,0.02790,0.08308,-0.05069,0.97362,0.71096,0.03175,0.00000,1.81434,1.86933,-0.05646,0.16933,0.63831,-0.13833,0.42625,1.85876,1.85876,57.78143,12.77352,57.78142902,12.77352255,A,132106.90,"[-0.20000,-0.00000,-0.00000]","[-0.10000,-0.00000,-0.00000]",0.69324,0.00000,0.00000,0.00000,0.00000,0.00000
17:55:21.659711,0.72683,0.00521,0.00000,0.00000,"[5.00000,0.00000,0.00000]","[1.30000,0.00000,0.00000]",0.00655,0.09439,-0.00395,0.00000,0.00000,-0.01057,0.03019,0.06332,-0.07680,0.98692,0.72125,0.02930,0.00000,1.81275,1.86774,-0.06055,0.18217,0.63831,-0.13833,0.42625,1.85876,1.85876,57.78143,12.77352,57.78142914,12.77352248,A,132106.90,"[-0.20000,-0.00000,-0.00000]","[-0.10000,-0.00000,-0.00000]",0.69324,0.00000,0.00000,0.00000,0.00000,0.00000
17:55:21.670546,0.73766,0.00564,0.00000,0.00000,"[5.00000,0.00000,0.00000]","[1.30000,0.00000,0.00000]",0.00505,0.09439,-0.00670,0.00000,0.00000,-0.00095,0.02362,0.08314,-0.06271,0.97655,0.73174,0.01954,0.00000,1.81140,1.86640,-0.06444,0.19438,0.63831,-0.13833,0.42625,1.85876,1.85876,57.78143,12.77352,57.78142925,12.77352241,A,132106.90,"[-0.20000,-0.00000,-0.00000]","[-0.10000,-0.00000,-0.00000]",0.69324,0.00000,0.00000,0.00000,0.00000,0.00000
17:55:21.728898,0.79600,0.05358,0.00000,1.50000,"[5.00000,0.00000,0.00000]","[1.30000,0.00000,0.00000]",0.00407,0.09439,-0.00899,0.00000,0.00000,-0.00186,0.02362,0.10724,-0.02916,0.98728,0.74211,0.02442,0.00000,1.81026,1.86525,-0.06813,0.20597,0.75891,-0.17785,0.51891,1.97395,1.97395,57.78143,12.77352,57.78142935,12.77352235,A,132107.00,"[-0.20000,-0.00000,-0.00000]","[-0.10000,-0.00000,-0.00000]",0.69324,0.00000,0.00000,0.00000,0.00000,0.00000
17:55:21.747973,0.81509,0.00643,0.00000,0.00000,"[5.00000,0.00000,0.00000]","[1.30000,0.00000,0.00000]",0.00312,0.09439,-0.00715,0.00000,0.00000,-0.00079,0.03660,0.07332,-0.00354,0.99259,0.80937,0.02930,0.00000,1.82656,1.88156,-0.07362,0.22162,0.75891,-0.17785,0.51891,1.97395,1.97395,57.78143,12.77352,57.78142949,12.77352226,A,132107.00,"[-0.20000,-0.00000,-0.00000]","[-0.10000,-0.00000,-0.00000]",0.79256,0.00000,0.00000,0.00000,0.00000,0.00000
17:55:21.757412,0.82428,0.00522,0.00000,0.00000,"[5.00000,0.00000,0.00000]","[1.30000,0.00000,0.00000]",0.00204,0.09439,-0.00013,0.00000,0.00000,-0.00858,0.03492,0.08192,-0.04270,0.97893,0.81893,0.02686,0.00000,1.84042,1.89542,-0.07883,0.23648,0.75891,-0.17785,0.51891,1.97395,1.97395,57.78143,12.77352,57.78142963,12.77352217,A,132107.00,"[-0.20000,-0.00000,-0.00000]","[-0.10000,-0.00000,-0.00000]",0.79256,0.00000,0.00000,0.00000,0.00000,0.00000
17:55:21.767430,0.83455,0.00510,0.00000,0.00000,"[5.00000,0.00000,0.00000]","[1.30000,0.00000,0.00000]",0.00147,0.09439,-0.00028,0.00000,0.00000,-0.00736,0.04134,0.03892,-0.01098,0.96368,0.82896,0.01954,0.00000,1.85220,1.90720,-0.08378,0.25060,0.75891,-0.17785,0.51891,1.97395,1.97395,57.78143,12.77352,57.78142975,12.77352209,A,132107.00,"[-0.20000,-0.00000,-0.00000]","[-0.10000,-0.00000,-0.00000]",0.79256,0.00000,0.00000,0.00000,0.00000,0.00000
17:55:21.778321,0.84544,0.00558,0.00000,0.00000,"[5.00000,0.00000,0.00000]","[1.30000,0.00000,0.00000]",0.00063,0.09439,-0.00120,0.00000,0.00000,-0.00201,0.03523,0.04355,-0.02849,0.97862,0.83958,0.03907,0.00000,1.86222,1.91721,-0.08849,0.26402,0.75891,-0.17785,0.51891,1.97395,1.97395,57.78143,12.77352,57.78142987,12.77352201,A,132107.00,"[-0.20000,-0.00000,-0.00000]","[-0.10000,-0.00000,-0.00000]",0.79256,0.00000,0.00000,0.00000,0.00000,0.00000
17:55:21.788174,0.85529,0.00504,0.00000,0.00000,"[5.00000,0.00000,0.00000]","[1.30000,0.00000,0.00000]",-0.00024,0.09439,-0.00868,0.00000,0.00000,0.01005,0.03233,0.03300,-0.02684,0.98460,0.84995,0.04151,0.00000,1.87073,1.92572,-0.09295,0.27676,0.75891,-0.17785,0.51891,1.97395,1.97395,57.78143,12.77352,57.78142999,12.77352193,A,132107.00,"[-0.20000,-0.00000,-0.00000]","[-0.10000,-0.00000,-0.00000]",0.79256,0.00000,0.00000,0.00000,0.00000,0.00000
17:55:21.848343,0.91545,0.05464,0.00000,1.50000,"[5.00000,0.00000,0.00000]","[1.30000,0.00000,0.00000]",-0.00130,0.09439,-0.01097,0.00000,0.00000,0.00898,0.02943,0.04215,-0.03758,0.97411,0.86034,0.01954,0.00000,1.87796,1.93296,-0.09720,0.28887,0.87728,-0.22725,0.63010,1.98889,1.98889,57.78143,12.77352,57.78143010,12.77352186,A,132107.10,"[-0.20000,-0.00000,-0.00000]","[-0.10000,-0.00000,-0.00000]",0.79256,0.00000,0.00000,0.00000,0.00000,0.00000
17:55:21.870938,0.93806,0.00973,0.97240,0.97240,"[5.00000,0.00000,0.00000]","[1.30000,0.00000,0.00000]",-0.00408,0.09439,-0.01846,0.00000,0.00000,-0.01102,0.03737,0.05240,-0.06557,0.97002,0.93233,0.02930,0.19448,1.88635,1.94135,-0.10370,0.30593,0.87728,-0.22725,0.63010,1.98889,1.98889,57.78143,12.77352,57.78143025,12.77352175,A,132107.10,"[-0.20000,-0.00000,-0.00000]","[-0.10000,-0.00000,-0.00000]",0.89379,0.00000,0.00000,0.00000,0.00000,0.00000
17:55:21.877500,0.94460,0.00534,0.97240,0.97240,"[5.00000,0.00000,0.00000]","[1.30000,0.00000,0.00000]",-0.00551,0.09439,-0.02334,0.00000,0.00000,-0.00782,0.03859,0.05661,-0.05557,0.98301,0.93902,0.04396,0.35006,1.89355,1.94854,-0.11019,0.32293,0.87728,-0.22725,0.63010,1.98889,1.98889,57.78143,12.77352,57.78143040,12.77352164,A,132107.10,"[-0.20000,-0.00000,-0.00000]","[-0.10000,-0.00000,-0.00000]",0.90441,0.00000,0.00000,0.00000,0.00000,0.00000
17:55:21.887603,0.95473,0.00507,0.97240,0.97240,"[5.00000,0.00000,0.00000]","[1.30000,0.00000,0.00000]",-0.00662,0.09439,-0.01968,0.00000,0.00000,-0.00156,0.03767,0.00128,-0.03343,0.97118,0.94916,0.03175,0.47453,1.89981,1.95480,-0.11707,0.34088,0.87728,-0.22725,0.63010,1.98889,1.98889,57.78143,12.77352,57.78143057,12.77352153,A,132107.10,"[-0.20000,-0.00000,-0.00000]","[-0.10000,-0.00000,-0.00000]",0.91449,0.00000,0.00000,0.00000,0.00000,0.00000
17:55:21.898307,0.96543,0.00537,0.97240,0.97240,"[5.00000,0.00000,0.00000]","[1.30000,0.00000,0.00000]",-0.00748,0.09439,-0.02899,0.00000,0.00000,-0.00476,0.02988,0.03593,-0.01159,0.97984,0.95976,0.03175,0.57411,1.90521,1.96020,-0.12404,0.35896,0.87728,-0.22725,0.63010,1.98889,1.98889,57.78143,12.77352,57.78143073,12.77352141,A,132107.10,"[-0.20000,-0.00000,-0.00000]","[-0.10000,-0.00000,-0.00000]",0.92457,0.00000,0.00000,0.00000,0.00000,0.00000
17:55:21.908441,0.97557,0.00511,0.97240,0.97240,"[5.00000,0.00000,0.00000]","[1.30000,0.00000,0.00000]",-0.00890,0.09439,-0.02456,0.00000,0.00000,0.00593,0.02637,0.05142,-0.05167,0.97960,0.97021,0.01954,0.65377,1.90985,1.96484,-0.13094,0.37675,0.87728,-0.22725,0.63010,1.98889,1.98889,57.78143,12.77352,57.78143089,12.77352129,A,132107.10,"[-0.20000,-0.00000,-0.00000]","[-0.10000,-0.00000,-0.00000]",0.93465,0.00000,0.00000,0.00000,0.00000,0.00000
17:55:21.968673,1.03577,0.05493,0.97240,1.50000,"[5.00000,0.00000,0.00000]","[1.30000,0.00000,0.00000]",-0.01009,0.09439,-0.02945,0.00000,0.00000,0.00684,0.02210,0.06985,-0.03636,0.98789,0.98036,0.02198,0.71749,1.91384,1.96883,-0.13776,0.39424,0.99759,-0.27666,0.74130,1.98889,1.98889,57.78143,12.77352,57.78143105,12.77352118,A,132107.20,"[-0.20000,-0.00000,-0.00000]","[-0.10000,-0.00000,-0.00000]",0.94470,0.00000,0.00000,0.00000,0.00000,0.00000
17:55:21.990225,1.05734,0.00904,0.97240,0.97240,"[5.00000,0.00000,0.00000]","[1.30000,0.00000,0.00000]",-0.01363,0.09439,-0.03434,0.00000,0.00000,-0.00583,0.03187,0.07448,-0.05185,0.97447,1.05162,0.04884,0.76847,1.92032,1.97531,-0.16299,0.45509,0.99759,-0.27666,0.74130,1.98889,1.98889,57.78143,12.77352,57.78143159,12.77352075,A,132107.20,"[-0.20000,-0.00000,-0.00000]","[-0.10000,-0.00000,-0.00000]",1.04587,0.00000,0.00000,0.00000,0.00000,0.00000
17:55:21.996401,1.06353,0.00498,0.97240,0.97240,"[5.00000,0.00000,0.00000]","[1.30000,0.00000,0.00000]",-0.01508,0.09439,-0.03770,0.00000,0.00000,-0.00599,0.03004,0.05234,-0.06039,0.97051,1.05817,0.03907,0.80926,1.92259,1.97759,-0.16995,0.47238,0.99759,-0.27666,0.74130,1.98889,1.98889,57.78143,12.77352,57.78143175,12.77352063,A,132107.20,"[-0.20000,-0.00000,-0.00000]","[-0.10000,-0.00000,-0.00000]",1.05582,0.00000,0.00000,0.00000,0.00000,0.00000
17:55:22.006899,1.07402,0.00517,0.97240,0.97240,"[5.00000,0.00000,0.00000]","[1.30000,0.00000,0.00000]",-0.01623,0.09439,-0.03373,0.00000,0.00000,-0.00140,0.02820,0.01671,-0.03526,0.96624,1.06838,0.01954,0.84189,1.92477,1.97976,-0.17786,0.49180,0.99759,-0.27666,0.74130,1.98889,1.98889,57.78143,12.77352,57.78143192,12.77352050,A,132107.20,"[-0.20000,-0.00000,-0.00000]","[-0.10000,-0.00000,-0.00000]",1.06580,0.00000,0.00000,0.00000,0.00000,0.00000
17:55:22.017455,1.08432,0.00508,0.97240,0.97240,"[5.00000,0.00000,0.00000]","[1.30000,0.00000,0.00000]",-0.01723,0.09439,-0.03388,0.00000,0.00000,-0.00354,0.02408,-0.00451,-0.02727,0.99338,1.07897,0.03419,0.86799,1.92664,1.98164,-0.18552,0.51056,0.99759,-0.27666,0.74130,1.98889,1.98889,57.78143,12.77352,57.78143209,12.77352037,A,132107.20,"[-0.20000,-0.00000,-0.00000]","[-0.10000,-0.00000,-0.00000]",1.07588,0.00000,0.00000,0.00000,0.00000,0.00000
17:55:22.027587,1.09471,0.00506,0.97240,0.97240,"[5.00000,0.00000,0.00000]","[1.30000,0.00000,0.00000]",-0.01846,0.09439,-0.02411,0.00000,0.00000,0.01127,0.02316,0.05496,-0.04813,0.95508,1.08915,0.02442,0.88887,1.92824,1.98324,-0.19286,0.52847,0.99759,-0.27666,0.74130,1.98889,1.98889,57.78143,12.77352,57.78143225,12.77352025,A,132107.20,"[-0.20000,-0.00000,-0.00000]","[-0.10000,-0.00000,-0.00000]",1.08595,0.00000,0.00000,0.00000,0.00000,0.00000
17:55:22.087522,1.15463,0.05457,0.97240,1.50000,"[5.00000,0.00000,0.00000]","[1.30000,0.00000,0.00000]",-0.01964,0.09439,-0.02243,0.00000,0.00000,0.00196,0.02194,0.03459,-0.04886,0.98631,1.09988,0.02930,0.90558,1.92964,1.98463,-0.20001,0.54589,1.12788,-0.37546,0.96369,1.98889,1.98889,57.78144,12.77352,57.78143241,12.77352013,A,132107.40,"[-0.20000,-0.00000,-0.00000]","[-0.10000,-0.00000,-0.00000]",1.09604,0.00000,0.00000,0.00000,0.00000,0.00000
17:55:22.099171,1.16629,0.00602,0.97240,0.97240,"[5.00000,0.00000,0.00000]","[1.30000,0.00000,0.00000]",-0.01936,0.09439,0.01346,0.00000,0.00000,-0.00782,0.03385,0.09913,-0.02190,0.97399,1.16059,0.03907,0.91894,1.93399,1.98898,-0.22909,0.61300,1.12788,-0.37546,0.96369,1.98889,1.98889,57.78144,12.77352,57.78143301,12.77351964,A,132107.40,"[-0.20000,-0.00000,-0.00000]","[-0.10000,-0.00000,-0.00000]",1.18634,0.00000,0.00000,0.00000,0.00000,0.00000
17:55:22.108614,1.17574,0.00506,0.97240,0.97240,"[5.00000,0.00000,0.00000]","[1.30000,0.00000,0.00000]",-0.01968,0.09439,0.01728,0.00000,0.00000,-0.02935,0.03447,0.05209,-0.01885,0.98051,1.17038,0.01954,0.92964,1.93447,1.98946,-0.23914,0.63669,1.12788,-0.37546,0.96369,1.98889,1.98889,57.78144,12.77352,57.78143323,12.77351947,A,132107.40,"[-0.20000,-0.00000,-0.00000]","[-0.10000,-0.00000,-0.00000]",1.19641,0.00000,0.00000,0.00000,0.00000,0.00000
17:55:22.120013,1.18709,0.00617,0.97240,0.97240,"[5.00000,0.00000,0.00000]","[1.30000,0.00000,0.00000]",-0.02042,0.09439,0.02889,0.00000,0.00000,-0.02339,0.03584,0.05386,-0.05331,0.94690,1.18054,0.01954,0.93819,1.93493,1.98992,-0.24897,0.65982,1.12788,-0.37546,0.96369,1.98889,1.98889,57.78144,12.77352,57.78143343,12.77351930,A,132107.40,"[-0.20000,-0.00000,-0.00000]","[-0.10000,-0.00000,-0.00000]",1.20633,0.00000,0.00000,0.00000,0.00000,0.00000
17:55:22.129734,1.19683,0.00552,0.97240,0.97240,"[5.00000,0.00000,0.00000]","[1.30000,0.00000,0.00000]",-0.02201,0.09439,0.02858,0.00000,0.00000,-0.02355,0.03416,0.01068,-0.10797,0.94629,1.19104,0.03907,0.94503,1.93533,1.99032,-0.25836,0.68188,1.12788,-0.37546,0.96369,1.98889,1.98889,57.78144,12.77352,57.78143363,12.77351914,A,132107.40,"[-0.20000,-0.00000,-0.00000]","[-0.10000,-0.00000,-0.00000]",1.21641,0.00000,0.00000,0.00000,0.00000,0.00000
17:55:22.139643,1.20676,0.00505,0.97240,0.97240,"[5.00000,0.00000,0.00000]","[1.30000,0.00000,0.00000]",-0.02321,0.09439,0.02568,0.00000,0.00000,-0.01515,0.03599,0.05398,-0.08174,0.93830,1.20120,0.02930,0.95051,1.93568,1.99068,-0.26736,0.70302,1.12788,-0.37546,0.96369,1.98889,1.98889,57.78144,12.77352,57.78143382,12.77351899,A,132107.40,"[-0.20000,-0.00000,-0.00000]","[-0.10000,-0.00000,-0.00000]",1.22648,0.00000,0.00000,0.00000,0.00000,0.00000
17:55:22.150501,1.21762,0.00551,0.97240,0.97240,"[5.00000,0.00000,0.00000]","[1.30000,0.00000,0.00000]",-0.02374,0.09439,0.02965,0.00000,0.00000,-0.00980,0.03111,0.00384,-0.04642,0.98625,1.21182,0.03175,0.95488,1.93599,1.99098,-0.27595,0.72319,1.12788,-0.37546,0.96369,1.98889,1.98889,57.78144,12.77352,57.78143400,12.77351885,A,132107.40,"[-0.20000,-0.00000,-0.00000]","[-0.10000,-0.00000,-0.00000]",1.23656,0.00000,0.00000,0.00000,0.00000,0.00000
17:55:22.160407,1.22753,0.00502,0.97240,0.97240,"[5.00000,0.00000,0.00000]","[1.30000,0.00000,0.00000]",-0.02389,0.09439,0.03774,0.00000,0.00000,0.00043,0.02698,-0.04410,-0.02727,1.01290,1.22215,0.01954,0.95839,1.93622,1.99121,-0.28394,0.74197,1.12788,-0.37546,0.96369,1.98889,1.98889,57.78144,12.77352,57.78143417,12.77351871,A,132107.40,"[-0.20000,-0.00000,-0.00000]","[-0.10000,-0.00000,-0.00000]",1.24664,0.00000,0.00000,0.00000,0.00000,0.00000
17:55:22.202927,1.27004,0.03719,0.97240,1.50000,"[5.00000,0.00000,0.00000]","[1.30000,0.00000,0.00000]",-0.02439,0.09439,0.04767,0.00000,0.00000,0.01356,0.02622,0.08436,-0.05789,1.00229,1.23238,0.03419,0.96119,1.93644,1.99143,-0.29166,0.76008,1.24938,-0.43475,1.09342,1.99944,1.99944,57.78144,12.77352,57.78143434,12.77351858,A,132107.50,"[-0.20000,-0.00000,-0.00000]","[-0.10000,-0.00000,-0.00000]",1.25665,0.00000,0.00000,0.00000,0.00000,0.00000
17:55:22.214075,1.28119,0.00558,0.97240,0.97240,"[5.00000,0.00000,0.00000]","[1.30000,0.00000,0.00000]",-0.02190,0.09439,0.06936,0.00000,0.00000,-0.00873,0.04012,0.06490,-0.02159,0.96337,1.27553,0.02930,0.96343,1.94040,1.99540,-0.31416,0.81105,1.24938,-0.43475,1.09342,1.99944,1.99944,57.78144,12.77352,57.78143479,12.77351820,A,132107.50,"[-0.20000,-0.00000,-0.00000]","[-0.10000,-0.00000,-0.00000]",1.32078,0.00000,0.00000,0.00000,0.00000,0.00000
17:55:22.223982,1.29109,0.00508,0.97240,0.97240,"[5.00000,0.00000,0.00000]","[1.30000,0.00000,0.00000]",-0.02111,0.09439,0.07195,0.00000,0.00000,-0.02049,0.04806,0.07259,0.01415,0.92702,1.28571,0.03663,0.96523,1.94156,1.99655,-0.32325,0.83195,1.24938,-0.43475,1.09342,1.99944,1.99944,57.78144,12.77352,57.78143498,12.77351805,A,132107.50,"[-0.20000,-0.00000,-0.00000]","[-0.10000,-0.00000,-0.00000]",1.33086,0.00000,0.00000,0.00000,0.00000,0.00000
17:55:22.236210,1.30332,0.00673,0.97240,0.97240,"[5.00000,0.00000,0.00000]","[1.30000,0.00000,0.00000]",-0.02111,0.09439,0.08784,0.00000,0.00000,-0.02874,0.05539,-0.01263,-0.04593,0.92177,1.29633,0.02198,0.96666,1.94259,1.99758,-0.33218,0.85241,1.24938,-0.43475,1.09342,1.99944,1.99944,57.78144,12.77352,57.78143517,12.77351790,A,132107.50,"[-0.20000,-0.00000,-0.00000]","[-0.10000,-0.00000,-0.00000]",1.34111,0.00000,0.00000,0.00000,0.00000,0.00000
17:55:22.246175,1.31329,0.00629,0.97240,0.97240,"[5.00000,0.00000,0.00000]","[1.30000,0.00000,0.00000]",-0.02098,0.09439,0.08707,0.00000,0.00000,-0.01637,0.05890,-0.01251,-0.03892,0.88785,1.30760,0.03175,0.96781,1.94340,1.99840,-0.34031,0.87108,1.24938,-0.43475,1.09342,1.99944,1.99944,57.78144,12.77352,57.78143533,12.77351776,A,132107.50,"[-0.20000,-0.00000,-0.00000]","[-0.10000,-0.00000,-0.00000]",1.35120,0.00000,0.00000,0.00000,0.00000,0.00000
17:55:22.255512,1.32263,0.00540,0.97240,0.97240,"[5.00000,0.00000,0.00000]","[1.30000,0.00000,0.00000]",-0.02102,0.09450,0.08631,0.00000,0.00000,-0.01759,0.06134,-0.02525,-0.04075,0.94672,1.31680,0.02686,0.96873,1.94403,1.99909,-0.34775,0.88816,1.24938,-0.43475,1.09342,1.99944,1.99944,57.78144,12.77352,57.78143549,12.77351763,A,132107.50,"[-0.20000,-0.00000,-0.00000]","[-0.10000,-0.00000,-0.00000]",1.36111,0.00000,0.00000,0.00000,0.00000,0.00000
17:55:22.265830,1.33294,0.00531,0.97240,0.97240,"[5.00000,0.00000,0.00000]","[1.30000,0.00000,0.00000]",-0.02151,0.09473,0.09394,0.00000,0.00000,0.00638,0.05798,0.00335,-0.08388,0.96502,1.32734,0.03175,0.96946,1.94463,1.99982,-0.35528,0.90539,1.24938,-0.43475,1.09342,1.99944,1.99944,57.78144,12.77352,57.78143564,12.77351751,A,132107.50,"[-0.20000,-0.00000,-0.00000]","[-0.10000,-0.00000,-0.00000]",1.37119,0.00000,0.00000,0.00000,0.00000,0.00000
17:55:22.276126,1.34325,0.00521,0.97240,0.97240,"[5.00000,0.00000,0.00000]","[1.30000,0.00000,0.00000]",-0.02089,0.09513,0.08020,0.00000,0.00000,-0.00156,0.05462,0.05581,-0.00342,0.99869,1.33789,0.03907,0.97005,1.94514,2.00056,-0.36263,0.92216,1.24938,-0.43475,1.09342,1.99944,1.99944,57.78144,12.77352,57.78143579,12.77351738,A,132107.50,"[-0.20000,-0.00000,-0.00000]","[-0.10000,-0.00000,-0.00000]",1.38126,0.00000,0.00000,0.00000,0.00000,0.00000
17:55:22.319586,1.38669,0.03808,0.97240,1.50000,"[5.00000,0.00000,0.00000]","[1.30000,0.00000,0.00000]",-0.02076,0.09561,0.08829,0.00000,0.00000,0.00577,0.04729,0.01409,-0.04301,1.07811,1.34816,0.04151,0.97052,1.94551,2.00121,-0.36950,0.93786,1.36568,-0.48415,1.22314,1.93466,1.93466,57.78144,12.77352,57.78143593,12.77351727,A,132107.60,"[-0.20000,-0.00000,-0.00000]","[-0.10000,-0.00000,-0.00000]",1.39151,0.00000,0.00000,0.00000,0.00000,0.00000
17:55:22.331079,1.39821,0.00562,1.49845,1.49845,"[5.00000,0.00000,0.00000]","[1.30000,0.00000,0.00000]",-0.01748,0.09764,0.07455,0.00000,0.00000,-0.01102,0.03706,-0.01867,0.02513,0.98789,1.39221,0.03175,1.07611,1.93823,1.99512,-0.39137,0.98725,1.36568,-0.48415,1.22314,1.93466,1.93466,57.78144,12.77352,57.78143638,12.77351690,A,132107.60,"[-0.20000,-0.00000,-0.00000]","[-0.10000,-0.00000,-0.00000]",1.45743,0.00000,0.00000,0.00000,0.00000,0.00000
17:55:22.341959,1.40907,0.00591,1.49845,1.49845,"[5.00000,0.00000,0.00000]","[1.30000,0.00000,0.00000]",-0.01714,0.09776,0.07730,0.00000,0.00000,0.00150,0.04073,-0.00390,-0.00659,0.93971,1.40325,0.04151,1.16057,1.92982,1.98679,-0.39966,1.00713,1.36568,-0.48415,1.22314,1.93466,1.93466,57.78144,12.77352,57.78143656,12.77351676,A,132107.60,"[-0.20000,-0.00000,-0.00000]","[-0.10000,-0.00000,-0.00000]",1.47322,0.00000,0.00000,0.00000,0.00000,0.00000
17:55:22.352383,1.41950,0.00535,1.49845,1.49845,"[5.00000,0.00000,0.00000]","[1.30000,0.00000,0.00000]",-0.01705,0.09776,0.08402,0.00000,0.00000,-0.00049,0.04775,0.02830,-0.02422,0.91311,1.41408,0.02930,1.22815,1.92276,1.97973,-0.40792,1.02707,1.36568,-0.48415,1.22314,1.93466,1.93466,57.78144,12.77352,57.78143674,12.77351662,A,132107.60,"[-0.20000,-0.00000,-0.00000]","[-0.10000,-0.00000,-0.00000]",1.48964,0.00000,0.00000,0.00000,0.00000,0.00000
17:55:22.362786,1.42990,0.00520,1.49845,1.49845,"[5.00000,0.00000,0.00000]","[1.30000,0.00000,0.00000]",-0.01709,0.09776,0.07837,0.00000,0.00000,0.00135,0.04531,0.04697,-0.02593,0.93733,1.42424,0.04396,1.28221,1.91675,1.97371,-0.41561,1.04581,1.36568,-0.48415,1.22314,1.93466,1.93466,57.78144,12.77352,57.78143691,12.77351649,A,132107.60,"[-0.20000,-0.00000,-0.00000]","[-0.10000,-0.00000,-0.00000]",1.50539,0.00000,0.00000,0.00000,0.00000,0.00000
17:55:22.373068,1.44019,0.00509,1.49845,1.49845,"[5.00000,0.00000,0.00000]","[1.30000,0.00000,0.00000]",-0.01706,0.09776,0.07821,0.00000,0.00000,-0.00247,0.04714,-0.00586,-0.02574,0.98667,1.43481,0.02198,1.32546,1.91168,1.96864,-0.42311,1.06424,1.36568,-0.48415,1.22314,1.93466,1.93466,57.78144,12.77352,57.78143707,12.77351636,A,132107.60,"[-0.20000,-0.00000,-0.00000]","[-0.10000,-0.00000,-0.00000]",1.52093,0.00000,0.00000,0.00000,0.00000,0.00000
17:55:22.383617,1.45073,0.00523,1.49845,1.49845,"[5.00000,0.00000,0.00000]","[1.30000,0.00000,0.00000]",-0.01770,0.09776,0.07577,0.00000,0.00000,-0.00324,0.04928,0.07021,-0.06661,0.98911,1.44499,0.03175,1.36005,1.90739,1.96435,-0.43026,1.08194,1.36568,-0.48415,1.22314,1.93466,1.93466,57.78144,12.77352,57.78143723,12.77351624,A,132107.60,"[-0.20000,-0.00000,-0.00000]","[-0.10000,-0.00000,-0.00000]",1.53646,0.00000,0.00000,0.00000,0.00000,0.00000
17:55:22.394324,1.46144,0.00548,1.49845,1.49845,"[5.00000,0.00000,0.00000]","[1.30000,0.00000,0.00000]",-0.01757,0.09776,0.07302,0.00000,0.00000,-0.01194,0.04821,0.02678,-0.01867,1.03730,1.45571,0.02198,1.38773,1.90378,1.96074,-0.43721,1.09924,1.36568,-0.48415,1.22314,1.93466,1.93466,57.78144,12.77352,57.78143739,12.77351613,A,132107.60,"[-0.20000,-0.00000,-0.00000]","[-0.10000,-0.00000,-0.00000]",1.55208,0.00000,0.00000,0.00000,0.00000,0.00000
17:55:22.436444,1.50355,0.03719,1.49845,1.50000,"[5.00000,0.00000,0.00000]","[1.30000,0.00000,0.00000]",-0.01737,0.09776,0.06936,0.00000,0.00000,-0.01225,0.03889,0.05429,-0.00927,1.02730,1.46602,0.01954,1.40987,1.90069,1.95765,-0.44366,1.11543,1.48274,-0.54343,1.37140,1.95118,1.95118,57.78144,12.77351,57.78143753,12.77351602,A,132107.70,"[-0.20000,-0.00000,-0.00000]","[-0.10000,-0.00000,-0.00000]",1.56761,0.00000,0.00000,0.00000,0.00000,0.00000
17:55:22.456684,1.52380,0.00611,1.49845,1.49845,"[5.00000,0.00000,0.00000]","[1.30000,0.00000,0.00000]",-0.01496,0.09776,0.06035,0.00000,0.00000,-0.00751,0.02958,-0.01921,-0.01867,0.93861,1.51843,0.03663,1.42759,1.90489,1.96185,-0.47425,1.19107,1.48274,-0.54343,1.37140,1.95118,1.95118,57.78144,12.77351,57.78143821,12.77351550,A,132107.70,"[-0.20000,-0.00000,-0.00000]","[-0.10000,-0.00000,-0.00000]",1.64456,0.00000,0.00000,0.00000,0.00000,0.00000
17:55:22.466326,1.53344,0.00536,1.49845,1.49845,"[5.00000,0.00000,0.00000]","[1.30000,0.00000,0.00000]",-0.01446,0.09776,0.05867,0.00000,0.00000,0.00303,0.03233,-0.02348,0.02458,0.97386,1.52780,0.02442,1.44176,1.90407,1.96104,-0.48164,1.20961,1.48274,-0.54343,1.37140,1.95118,1.95118,57.78144,12.77351,57.78143838,12.77351538,A,132107.70,"[-0.20000,-0.00000,-0.00000]","[-0.10000,-0.00000,-0.00000]",1.66009,0.00000,0.00000,0.00000,0.00000,0.00000
17:55:22.476394,1.54351,0.00503,1.49845,1.49845,"[5.00000,0.00000,0.00000]","[1.30000,0.00000,0.00000]",-0.01415,0.09776,0.06432,0.00000,0.00000,0.00883,0.03202,0.05222,0.00641,0.95465,1.53814,0.02442,1.45310,1.90346,1.96043,-0.48905,1.22822,1.48274,-0.54343,1.37140,1.95118,1.95118,57.78144,12.77351,57.78143855,12.77351525,A,132107.70,"[-0.20000,-0.00000,-0.00000]","[-0.10000,-0.00000,-0.00000]",1.67562,0.00000,0.00000,0.00000,0.00000,0.00000
17:55:22.487342,1.55446,0.00569,1.49845,1.49845,"[5.00000,0.00000,0.00000]","[1.30000,0.00000,0.00000]",-0.01391,0.09776,0.06065,0.00000,0.00000,0.00043,0.03538,0.01659,0.00183,1.01541,1.54880,0.04151,1.46217,1.90301,1.95998,-0.49643,1.24674,1.48274,-0.54343,1.37140,1.95118,1.95118,57.78144,12.77351,57.78143871,12.77351513,A,132107.70,"[-0.20000,-0.00000,-0.00000]","[-0.10000,-0.00000,-0.00000]",1.69097,0.00000,0.00000,0.00000,0.00000,0.00000
17:55:22.497335,1.56422,0.00505,1.49845,1.49845,"[5.00000,0.00000,0.00000]","[1.30000,0.00000,0.00000]",-0.01419,0.09776,0.05225,0.00000,0.00000,0.01310,0.03492,0.04746,-0.02519,1.03230,1.55887,0.02442,1.46942,1.90254,1.95951,-0.50302,1.26329,1.48274,-0.54343,1.37140,1.95118,1.95118,57.78144,12.77351,57.78143886,12.77351502,A,132107.70,"[-0.20000,-0.00000,-0.00000]","[-0.10000,-0.00000,-0.00000]",1.70651,0.00000,0.00000,0.00000,0.00000,0.00000
17:55:22.507575,1.57469,0.00512,1.49845,1.49845,"[5.00000,0.00000,0.00000]","[1.30000,0.00000,0.00000]",-0.01471,0.09776,0.05179,0.00000,0.00000,0.00058,0.03676,0.03392,-0.04270,1.03334,1.56910,0.03663,1.47523,1.90220,1.95916,-0.50952,1.27965,1.48274,-0.54343,1.37140,1.95118,1.95118,57.78144,12.77351,57.78143901,12.77351491,A,132107.70,"[-0.20000,-0.00000,-0.00000]","[-0.10000,-0.00000,-0.00000]",1.72204,0.00000,0.00000,0.00000,0.00000,0.00000
17:55:22.557323,1.62423,0.04426,1.49845,1.50000,"[5.00000,0.00000,0.00000]","[1.30000,0.00000,0.00000]",-0.01506,0.09776,0.03942,0.00000,0.00000,0.00318,0.03172,0.02190,-0.02300,1.00064,1.57970,0.02442,1.47987,1.90192,1.95888,-0.51579,1.29540,1.59800,-0.59284,1.50113,1.93466,1.93466,57.78144,12.77351,57.78143915,12.77351480,A,132107.80,"[-0.20000,-0.00000,-0.00000]","[-0.10000,-0.00000,-0.00000]",1.73757,0.00000,0.00000,0.00000,0.00000,0.00000
17:55:22.568126,1.63525,0.00522,1.49845,1.49845,"[5.00000,0.00000,0.00000]","[1.30000,0.00000,0.00000]",-0.01371,0.09776,0.03545,0.00000,0.00000,-0.01026,0.02362,0.04508,0.00201,0.96636,1.62985,0.02686,1.48359,1.90342,1.96039,-0.54515,1.36810,1.59800,-0.59284,1.50113,1.93466,1.93466,57.78144,12.77351,57.78143980,12.77351430,A,132107.80,"[-0.20000,-0.00000,-0.00000]","[-0.10000,-0.00000,-0.00000]",1.81261,0.00000,0.00000,0.00000,0.00000,0.00000
17:55:22.578746,1.64586,0.00519,1.49845,1.49845,"[5.00000,0.00000,0.00000]","[1.30000,0.00000,0.00000]",-0.01395,0.09776,0.02782,0.00000,0.00000,-0.00705,0.02454,-0.01159,-0.00586,1.00784,1.64022,0.03419,1.48656,1.90048,1.95745,-0.55213,1.38594,1.59800,-0.59284,1.50113,1.93466,1.93466,57.78144,12.77351,57.78143996,12.77351419,A,132107.80,"[-0.20000,-0.00000,-0.00000]","[-0.10000,-0.00000,-0.00000]",1.82850,0.00000,0.00000,0.00000,0.00000,0.00000
17:55:22.590378,1.65749,0.00615,1.49845,1.49845,"[5.00000,0.00000,0.00000]","[1.30000,0.00000,0.00000]",-0.01398,0.09759,0.02385,0.00000,0.00000,0.00073,0.02164,0.03721,0.00860,0.99613,1.65182,0.02686,1.48894,1.89811,1.95497,-0.55926,1.40420,1.59800,-0.59284,1.50113,1.93466,1.93466,57.78144,12.77351,57.78144013,12.77351407,A,132107.80,"[-0.20000,-0.00000,-0.00000]","[-0.10000,-0.00000,-0.00000]",1.84443,0.00000,0.00000,0.00000,0.00000,0.00000
17:55:22.599709,1.66683,0.00509,1.49845,1.49845,"[5.00000,0.00000,0.00000]","[1.30000,0.00000,0.00000]",-0.01448,0.09713,0.02476,0.00000,0.00000,-0.00308,0.01767,0.06905,-0.01989,0.99546,1.66125,0.03419,1.49084,1.89592,1.95252,-0.56495,1.41898,1.59800,-0.59284,1.50113,1.93466,1.93466,57.78144,12.77351,57.78144026,12.77351397,A,132107.80,"[-0.20000,-0.00000,-0.00000]","[-0.10000,-0.00000,-0.00000]",1.85997,0.00000,0.00000,0.00000,0.00000,0.00000
17:55:22.610380,1.67750,0.00536,1.49845,1.49845,"[5.00000,0.00000,0.00000]","[1.30000,0.00000,0.00000]",-0.01466,0.09631,0.02354,0.00000,0.00000,-0.00705,0.01263,0.01153,-0.00067,1.03066,1.67185,0.02686,1.49236,1.89424,1.95036,-0.57090,1.43443,1.59800,-0.59284,1.50113,1.93466,1.93466,57.78144,12.77351,57.78144040,12.77351387,A,132107.80,"[-0.20000,-0.00000,-0.00000]","[-0.10000,-0.00000,-0.00000]",1.87550,0.00000,0.00000,0.00000,0.00000,0.00000
17:55:22.620531,1.68765,0.00511,1.49845,1.49845,"[5.00000,0.00000,0.00000]","[1.30000,0.00000,0.00000]",-0.01481,0.09527,0.02736,0.00000,0.00000,-0.00767,0.01446,0.07540,-0.00110,1.03499,1.68227,0.04640,1.49358,1.89286,1.94837,-0.57640,1.44879,1.59800,-0.59284,1.50113,1.93466,1.93466,57.78144,12.77351,57.78144053,12.77351378,A,132107.80,"[-0.20000,-0.00000,-0.00000]","[-0.10000,-0.00000,-0.00000]",1.89103,0.00000,0.00000,0.00000,0.00000,0.00000
17:55:22.631172,1.69829,0.00545,1.49845,1.49845,"[5.00000,0.00000,0.00000]","[1.30000,0.00000,0.00000]",-0.01521,0.09413,0.02492,0.00000,0.00000,-0.00828,0.00774,0.00000,-0.01800,1.04841,1.69235,0.02686,1.49455,1.89178,1.94663,-0.58157,1.46237,1.59800,-0.59284,1.50113,1.93466,1.93466,57.78144,12.77351,57.78144065,12.77351369,A,132107.80,"[-0.20000,-0.00000,-0.00000]","[-0.10000,-0.00000,-0.00000]",1.90641,0.00000,0.00000,0.00000,0.00000,0.00000
17:55:22.684877,1.75198,0.04874,1.49845,1.50000,"[5.00000,0.00000,0.00000]","[1.30000,0.00000,0.00000]",-0.01604,0.09312,0.02049,0.00000,0.00000,-0.01133,0.01125,0.04727,-0.04429,1.03163,1.70293,0.02686,1.49533,1.89096,1.94521,-0.58656,1.47555,1.73216,-0.71140,1.77912,1.97395,1.97395,57.78144,12.77351,57.78144077,12.77351361,A,132108.00,"[-0.20000,-0.00000,-0.00000]","[-0.10000,-0.00000,-0.00000]",1.92194,0.00000,0.00000,0.00000,0.00000,0.00000
17:55:22.697464,1.76434,0.00524,1.49845,1.49845,"[5.00000,0.00000,0.00000]","[1.30000,0.00000,0.00000]",-0.01535,0.08873,0.01927,0.00000,0.00000,-0.00919,0.00973,-0.03886,0.00104,0.95581,1.75896,0.02686,1.49595,1.90125,1.95294,-0.62101,1.56250,1.73216,-0.71140,1.77912,1.97395,1.97395,57.78144,12.77351,57.78144155,12.77351302,A,132108.00,"[-0.20000,-0.00000,-0.00000]","[-0.10000,-0.00000,-0.00000]",2.00569,0.00000,0.00000,0.00000,0.00000,0.00000
17:55:22.707810,1.77494,0.00544,1.49845,1.49845,"[5.00000,0.00000,0.00000]","[1.30000,0.00000,0.00000]",-0.01594,0.08796,0.01865,0.00000,0.00000,0.00104,0.01232,0.00073,-0.02470,0.96581,1.76937,0.02442,1.49645,1.90534,1.95658,-0.63020,1.58496,1.73216,-0.71140,1.77912,1.97395,1.97395,57.78144,12.77351,57.78144175,12.77351287,A,132108.00,"[-0.20000,-0.00000,-0.00000]","[-0.10000,-0.00000,-0.00000]",2.02122,0.00000,0.00000,0.00000,0.00000,0.00000
17:55:22.718265,1.78538,0.00548,1.49845,1.49845,"[5.00000,0.00000,0.00000]","[1.30000,0.00000,0.00000]",-0.01659,0.08731,0.02263,0.00000,0.00000,0.00776,0.01049,0.02318,-0.03532,1.02462,1.77970,0.01709,1.49685,1.90882,1.95968,-0.63874,1.60570,1.73216,-0.71140,1.77912,1.97395,1.97395,57.78144,12.77351,57.78144194,12.77351273,A,132108.00,"[-0.20000,-0.00000,-0.00000]","[-0.10000,-0.00000,-0.00000]",2.03675,0.00000,0.00000,0.00000,0.00000,0.00000
17:55:22.728214,1.79533,0.00503,1.49845,1.49845,"[5.00000,0.00000,0.00000]","[1.30000,0.00000,0.00000]",-0.01686,0.08686,0.01759,0.00000,0.00000,0.01494,0.00667,0.02227,-0.00647,1.03688,1.78998,0.01954,1.49717,1.91180,1.96239,-0.64680,1.62518,1.73216,-0.71140,1.77912,1.97395,1.97395,57.78144,12.77351,57.78144212,12.77351259,A,132108.00,"[-0.20000,-0.00000,-0.00000]","[-0.10000,-0.00000,-0.00000]",2.05228,0.00000,0.00000,0.00000,0.00000,0.00000
17:55:22.739052,1.80617,0.00534,1.49845,1.49845,"[5.00000,0.00000,0.00000]","[1.30000,0.00000,0.00000]",-0.01726,0.08661,0.01117,0.00000,0.00000,0.01387,0.00774,0.03764,-0.01104,1.03242,1.80037,0.01954,1.49742,1.91438,1.96483,-0.65473,1.64424,1.73216,-0.71140,1.77912,1.97395,1.97395,57.78144,12.77351,57.78144229,12.77351246,A,132108.00,"[-0.20000,-0.00000,-0.00000]","[-0.10000,-0.00000,-0.00000]",2.06802,0.00000,0.00000,0.00000,0.00000,0.00000
17:55:22.752053,1.81917,0.00794,1.49845,1.49845,"[5.00000,0.00000,0.00000]","[1.30000,0.00000,0.00000]",-0.01720,0.08649,0.01407,0.00000,0.00000,0.01142,0.00652,0.01568,0.01488,1.04566,1.81374,0.02930,1.49763,1.91684,1.96722,-0.66368,1.66570,1.73216,-0.71140,1.77912,1.97395,1.97395,57.78144,12.77351,57.78144248,12.77351231,A,132108.00,"[-0.20000,-0.00000,-0.00000]","[-0.10000,-0.00000,-0.00000]",2.08355,0.00000,0.00000,0.00000,0.00000,0.00000
17:55:22.759741,1.82686,0.00522,1.49845,1.49845,"[5.00000,0.00000,0.00000]","[1.30000,0.00000,0.00000]",-0.01744,0.08646,0.01865,0.00000,0.00000,0.00852,0.00652,0.04197,-0.00110,1.00241,1.82127,0.02686,1.49779,1.91842,1.96878,-0.66931,1.67913,1.73216,-0.71140,1.77912,1.97395,1.97395,57.78144,12.77351,57.78144260,12.77351221,A,132108.00,"[-0.20000,-0.00000,-0.00000]","[-0.10000,-0.00000,-0.00000]",2.09907,0.00000,0.00000,0.00000,0.00000,0.00000
17:55:22.803896,1.87100,0.03897,1.49845,1.50000,"[5.00000,0.00000,0.00000]","[1.30000,0.00000,0.00000]",-0.01744,0.08644,0.01239,0.00000,0.00000,-0.00079,0.00743,0.03745,0.01446,0.99485,1.83199,0.02442,1.49792,1.92004,1.97038,-0.67624,1.69560,1.84915,-0.77069,1.90885,1.99944,1.99944,57.78144,12.77351,57.78144275,12.77351209,A,132108.10,"[-0.20000,-0.00000,-0.00000]","[-0.10000,-0.00000,-0.00000]",2.11460,0.00000,0.00000,0.00000,0.00000,0.00000
17:55:22.815110,1.88223,0.00531,1.49845,1.49845,"[5.00000,0.00000,0.00000]","[1.30000,0.00000,0.00000]",-0.01689,0.08587,0.02598,0.00000,0.00000,-0.00828,0.01706,-0.00494,-0.01592,0.99741,1.87654,0.02442,1.49803,1.92852,1.97853,-0.70448,1.76196,1.84915,-0.77069,1.90885,1.99944,1.99944,57.78144,12.77351,57.78144335,12.77351162,A,132108.10,"[-0.20000,-0.00000,-0.00000]","[-0.10000,-0.00000,-0.00000]",2.18190,0.00000,0.00000,0.00000,0.00000,0.00000
17:55:22.825696,1.89280,0.00546,1.42671,1.42671,"[5.00000,0.00000,0.00000]","[1.30000,0.00000,0.00000]",-0.01695,0.08567,0.02705,0.00000,0.00000,0.00089,0.01767,-0.04941,-0.00085,1.00217,1.88707,0.02442,1.48376,1.93248,1.98237,-0.71257,1.78036,1.84915,-0.77069,1.90885,1.99944,1.99944,57.78144,12.77351,57.78144351,12.77351148,A,132108.10,"[-0.20000,-0.00000,-0.00000]","[-0.10000,-0.00000,-0.00000]",2.19746,0.00000,0.00000,0.00000,0.00000,0.00000
17:55:22.835931,1.90305,0.00531,1.42671,1.42671,"[5.00000,0.00000,0.00000]","[1.30000,0.00000,0.00000]",-0.01757,0.08556,0.02446,0.00000,0.00000,0.00745,0.01247,0.04953,-0.03660,1.01699,1.89767,0.03175,1.47235,1.93588,1.98571,-0.72047,1.79823,1.84915,-0.77069,1.90885,1.99944,1.99944,57.78144,12.77351,57.78144367,12.77351135,A,132108.10,"[-0.20000,-0.00000,-0.00000]","[-0.10000,-0.00000,-0.00000]",2.21225,0.00000,0.00000,0.00000,0.00000,0.00000
17:55:22.846603,1.91372,0.00557,1.42671,1.42671,"[5.00000,0.00000,0.00000]","[1.30000,0.00000,0.00000]",-0.01743,0.08556,0.02354,0.00000,0.00000,0.01417,0.01232,0.00677,0.01464,1.01358,1.90786,0.03175,1.46323,1.93873,1.98856,-0.72773,1.81454,1.84915,-0.77069,1.90885,1.99944,1.99944,57.78144,12.77351,57.78144382,12.77351122,A,132108.10,"[-0.20000,-0.00000,-0.00000]","[-0.10000,-0.00000,-0.00000]",2.22704,0.00000,0.00000,0.00000,0.00000,0.00000
17:55:22.856877,1.92400,0.00543,1.42671,1.42671,"[5.00000,0.00000,0.00000]","[1.30000,0.00000,0.00000]",-0.01716,0.08556,0.02705,0.00000,0.00000,0.00974,0.00759,0.02800,0.02074,1.02608,1.91860,0.03175,1.45592,1.94115,1.99098,-0.73468,1.83007,1.84915,-0.77069,1.90885,1.99944,1.99944,57.78144,12.77351,57.78144396,12.77351111,A,132108.10,"[-0.20000,-0.00000,-0.00000]","[-0.10000,-0.00000,-0.00000]",2.24186,0.00000,0.00000,0.00000,0.00000,0.00000
17:55:22.866869,1.93399,0.00516,1.42671,1.42671,"[5.00000,0.00000,0.00000]","[1.30000,0.00000,0.00000]",-0.01742,0.08556,0.02705,0.00000,0.00000,0.01234,0.00973,0.01208,-0.01214,0.99259,1.92835,0.02930,1.45008,1.94315,1.99298,-0.74097,1.84406,1.84915,-0.77069,1.90885,1.99944,1.99944,57.78144,12.77351,57.78144408,12.77351100,A,132108.10,"[-0.20000,-0.00000,-0.00000]","[-0.10000,-0.00000,-0.00000]",2.25646,0.00000,0.00000,0.00000,0.00000,0.00000
17:55:22.877428,1.94429,0.00506,1.42671,1.42671,"[5.00000,0.00000,0.00000]","[1.30000,0.00000,0.00000]",-0.01809,0.08556,0.02996,0.00000,0.00000,0.00425,0.01125,0.10840,-0.03934,0.92263,1.93894,0.02442,1.44541,1.94491,1.99474,-0.74729,1.85805,1.84915,-0.77069,1.90885,1.99944,1.99944,57.78144,12.77351,57.78144421,12.77351089,A,132108.10,"[-0.20000,-0.00000,-0.00000]","[-0.10000,-0.00000,-0.00000]",2.27125,0.00000,0.00000,0.00000,0.00000,0.00000
17:55:22.919504,1.98661,0.03698,1.42671,1.50000,"[5.00000,0.00000,0.00000]","[1.30000,0.00000,0.00000]",-0.01780,0.08556,0.02889,0.00000,0.00000,-0.00492,0.01675,0.00799,0.02080,0.95380,1.94914,0.02930,1.44167,1.94638,1.99622,-0.75322,1.87115,1.96619,-0.83985,2.03857,2.06061,2.06061,57.78145,12.77351,57.78144433,12.77351079,A,132108.20,"[-0.20000,-0.00000,-0.00000]","[-0.10000,-0.00000,-0.00000]",2.28603,0.00000,0.00000,0.00000,0.00000,0.00000
17:55:22.930514,1.99763,0.00553,1.42671,1.42671,"[5.00000,0.00000,0.00000]","[1.30000,0.00000,0.00000]",-0.01657,0.08556,0.03393,0.00000,0.00000,0.01005,0.02194,-0.06069,0.00769,0.99857,1.99193,0.03175,1.43868,1.95976,2.00959,-0.78056,1.93030,1.96619,-0.83985,2.03857,2.06061,2.06061,57.78145,12.77351,57.78144486,12.77351033,A,132108.20,"[-0.20000,-0.00000,-0.00000]","[-0.10000,-0.00000,-0.00000]",2.34970,0.00000,0.00000,0.00000,0.00000,0.00000
17:55:22.940400,2.00752,0.00502,1.42671,1.42671,"[5.00000,0.00000,0.00000]","[1.30000,0.00000,0.00000]",-0.01626,0.08556,0.03347,0.00000,0.00000,0.02288,0.01431,0.03385,0.02141,1.02157,2.00216,0.02686,1.43628,1.96815,2.01799,-0.78825,1.94579,1.96619,-0.83985,2.03857,2.06061,2.06061,57.78145,12.77351,57.78144500,12.77351020,A,132108.20,"[-0.20000,-0.00000,-0.00000]","[-0.10000,-0.00000,-0.00000]",2.36449,0.00000,0.00000,0.00000,0.00000,0.00000
17:55:22.957810,2.02488,0.01205,1.42671,1.42671,"[5.00000,0.00000,0.00000]","[1.30000,0.00000,0.00000]",-0.01609,0.08556,0.03240,0.00000,0.00000,0.01906,0.00911,0.07936,0.00659,1.01101,2.01509,0.02442,1.43437,1.97556,2.02540,-0.79743,1.96419,1.96619,-0.83985,2.03857,2.06061,2.06061,57.78145,12.77351,57.78144516,12.77351005,A,132108.20,"[-0.20000,-0.00000,-0.00000]","[-0.10000,-0.00000,-0.00000]",2.37918,0.00000,0.00000,0.00000,0.00000,0.00000
17:55:22.970721,2.03784,0.00596,1.42671,1.42671,"[5.00000,0.00000,0.00000]","[1.30000,0.00000,0.00000]",-0.01559,0.08556,0.02965,0.00000,0.00000,0.00837,0.00911,0.03605,0.02348,0.99924,2.03177,0.01709,1.43284,1.98220,2.03203,-0.80846,1.98614,1.96619,-0.83985,2.03857,2.06061,2.06061,57.78145,12.77351,57.78144536,12.77350986,A,132108.20,"[-0.20000,-0.00000,-0.00000]","[-0.10000,-0.00000,-0.00000]",2.40633,0.00000,0.00000,0.00000,0.00000,0.00000
17:55:22.980616,2.04774,0.00545,1.42671,1.42671,"[5.00000,0.00000,0.00000]","[1.30000,0.00000,0.00000]",-0.01636,0.08556,0.04156,0.00000,0.00000,0.00364,0.00591,0.20459,-0.05417,0.97685,2.04197,0.03663,1.43161,1.98723,2.03706,-0.81496,1.99868,1.96619,-0.83985,2.03857,2.06061,2.06061,57.78145,12.77351,57.78144547,12.77350975,A,132108.20,"[-0.20000,-0.00000,-0.00000]","[-0.10000,-0.00000,-0.00000]",2.42112,0.00000,0.00000,0.00000,0.00000,0.00000
17:55:22.991290,2.05841,0.00558,1.42671,1.42671,"[5.00000,0.00000,0.00000]","[1.30000,0.00000,0.00000]",-0.01523,0.08556,0.03530,0.00000,0.00000,-0.02981,0.01370,-0.02763,0.07046,0.93056,2.05235,0.01709,1.43063,1.99154,2.04137,-0.82147,2.01114,1.96619,-0.83985,2.03857,2.06061,2.06061,57.78145,12.77351,57.78144559,12.77350964,A,132108.20,"[-0.20000,-0.00000,-0.00000]","[-0.10000,-0.00000,-0.00000]",2.43610,0.00000,0.00000,0.00000,0.00000,0.00000
17:55:23.033796,2.10091,0.03769,1.42671,1.50000,"[5.00000,0.00000,0.00000]","[1.30000,0.00000,0.00000]",-0.01629,0.08556,0.04309,0.00000,0.00000,-0.02645,0.01583,-0.06948,-0.07460,0.97283,2.06295,0.02930,1.42985,1.99520,2.04503,-0.82765,2.02285,2.07974,-0.90902,2.18683,2.00729,2.00729,57.78145,12.77351,57.78144569,12.77350954,A,132108.30,"[-0.20000,-0.00000,-0.00000]","[-0.10000,-0.00000,-0.00000]",2.45089,0.00000,0.00000,0.00000,0.00000,0.00000
17:55:23.045705,2.11281,0.00619,1.42671,1.42671,"[5.00000,0.00000,0.00000]","[1.30000,0.00000,0.00000]",-0.01448,0.08556,0.02766,0.00000,0.00000,0.02395,-0.01807,0.01494,0.06429,1.00705,2.10655,0.02930,1.42922,1.99333,2.04316,-0.85769,2.08164,2.07974,-0.90902,2.18683,2.00729,2.00729,57.78145,12.77351,57.78144622,12.77350903,A,132108.30,"[-0.20000,-0.00000,-0.00000]","[-0.10000,-0.00000,-0.00000]",2.51597,0.00000,0.00000,0.00000,0.00000,0.00000
17:55:23.056963,2.12408,0.00722,1.42671,1.42671,"[5.00000,0.00000,0.00000]","[1.30000,0.00000,0.00000]",-0.01309,0.08556,0.03362,0.00000,0.00000,0.03891,-0.00998,-0.34050,0.08686,0.92195,2.11778,0.04640,1.42872,1.98878,2.03861,-0.86594,2.09802,2.07974,-0.90902,2.18683,2.00729,2.00729,57.78145,12.77351,57.78144637,12.77350889,A,132108.30,"[-0.20000,-0.00000,-0.00000]","[-0.10000,-0.00000,-0.00000]",2.53052,0.00000,0.00000,0.00000,0.00000,0.00000
17:55:23.066793,2.13391,0.00665,1.42671,1.42671,"[5.00000,0.00000,0.00000]","[1.30000,0.00000,0.00000]",-0.01393,0.08556,0.02873,0.00000,0.00000,0.02547,-0.00570,0.19953,-0.04410,0.94391,2.12701,0.01221,1.42832,1.98471,2.03454,-0.87236,2.11091,2.07974,-0.90902,2.18683,2.00729,2.00729,57.78145,12.77351,57.78144648,12.77350878,A,132108.30,"[-0.20000,-0.00000,-0.00000]","[-0.10000,-0.00000,-0.00000]",2.54530,0.00000,0.00000,0.00000,0.00000,0.00000
17:55:23.075998,2.14312,0.00546,1.42671,1.42671,"[5.00000,0.00000,0.00000]","[1.30000,0.00000,0.00000]",-0.01421,0.08556,0.03164,0.00000,0.00000,-0.02324,0.01278,0.04142,-0.01299,0.95502,2.13716,0.02442,1.42800,1.98128,2.03111,-0.87861,2.12354,2.07974,-0.90902,2.18683,2.00729,2.00729,57.78145,12.77351,57.78144660,12.77350868,A,132108.30,"[-0.20000,-0.00000,-0.00000]","[-0.10000,-0.00000,-0.00000]",2.56008,0.00000,0.00000,0.00000,0.00000,0.00000
17:55:23.086744,2.15386,0.00577,1.42671,1.42671,"[5.00000,0.00000,0.00000]","[1.30000,0.00000,0.00000]",-0.01452,0.08553,0.02186,0.00000,0.00000,-0.05424,0.01538,0.06527,-0.01214,1.03554,2.14780,0.02198,1.42774,1.97850,2.02831,-0.88536,2.13726,2.07974,-0.90902,2.18683,2.00729,2.00729,57.78145,12.77351,57.78144672,12.77350857,A,132108.30,"[-0.20000,-0.00000,-0.00000]","[-0.10000,-0.00000,-0.00000]",2.57492,0.00000,0.00000,0.00000,0.00000,0.00000
17:55:23.096762,2.16388,0.00539,1.42671,1.42671,"[5.00000,0.00000,0.00000]","[1.30000,0.00000,0.00000]",-0.01530,0.08505,0.01835,0.00000,0.00000,-0.05211,0.01507,-0.29969,-0.04392,1.07750,2.15815,0.03175,1.42753,1.97614,2.02567,-0.89151,2.14982,2.07974,-0.90902,2.18683,2.00729,2.00729,57.78145,12.77351,57.78144683,12.77350846,A,132108.30,"[-0.20000,-0.00000,-0.00000]","[-0.10000,-0.00000,-0.00000]",2.58970,0.00000,0.00000,0.00000,0.00000,0.00000
17:55:23.107276,2.17439,0.00556,1.42671,1.42671,"[5.00000,0.00000,0.00000]","[1.30000,0.00000,0.00000]",-0.01521,0.08375,0.01682,0.00000,0.00000,-0.01576,0.00270,-0.22747,0.01842,1.06909,2.16837,0.01709,1.42737,1.97425,2.02303,-0.89743,2.16199,2.07974,-0.90902,2.18683,2.00729,2.00729,57.78145,12.77351,57.78144694,12.77350836,A,132108.30,"[-0.20000,-0.00000,-0.00000]","[-0.10000,-0.00000,-0.00000]",2.60440,0.00000,0.00000,0.00000,0.00000,0.00000
17:55:23.151038,2.21815,0.03891,1.42671,1.50000,"[5.00000,0.00000,0.00000]","[1.30000,0.00000,0.00000]",-0.01495,0.08151,0.02079,0.00000,0.00000,0.01097,-0.00952,-0.07533,0.02611,1.01553,2.17898,0.05372,1.42724,1.97285,2.02032,-0.90310,2.17371,2.19569,-0.96830,2.33509,1.95118,1.95118,57.78145,12.77351,57.78144705,12.77350827,A,132108.40,"[-0.20000,-0.00000,-0.00000]","[-0.10000,-0.00000,-0.00000]",2.61919,0.00000,0.00000,0.00000,0.00000,0.00000
17:55:23.170954,2.23807,0.00708,1.42671,1.42671,"[5.00000,0.00000,0.00000]","[1.30000,0.00000,0.00000]",-0.01408,0.06977,0.01270,0.00000,0.00000,0.01509,-0.00967,-0.09980,0.03453,0.96075,2.23197,0.01709,1.42713,1.96792,2.00853,-0.93655,2.24435,2.19569,-0.96830,2.33509,1.95118,1.95118,57.78145,12.77351,57.78144768,12.77350770,A,132108.40,"[-0.20000,-0.00000,-0.00000]","[-0.10000,-0.00000,-0.00000]",2.69678,0.00000,0.00000,0.00000,0.00000,0.00000
17:55:23.179628,2.24675,0.00553,1.42671,1.42671,"[5.00000,0.00000,0.00000]","[1.30000,0.00000,0.00000]",-0.01517,0.06878,0.02660,0.00000,0.00000,0.00929,-0.00692,-0.01000,-0.06600,0.99485,2.24077,0.01465,1.42705,1.95990,1.99993,-0.94199,2.25713,2.19569,-0.96830,2.33509,1.95118,1.95118,57.78145,12.77351,57.78144780,12.77350761,A,132108.40,"[-0.20000,-0.00000,-0.00000]","[-0.10000,-0.00000,-0.00000]",2.71133,0.00000,0.00000,0.00000,0.00000,0.00000
17:55:23.190283,2.25740,0.00578,1.42671,1.42671,"[5.00000,0.00000,0.00000]","[1.30000,0.00000,0.00000]",-0.01519,0.06781,0.01804,0.00000,0.00000,-0.00431,-0.00998,-0.05685,0.00720,1.04078,2.25138,0.04640,1.42698,1.95330,1.99277,-0.94817,2.27166,2.19569,-0.96830,2.33509,1.95118,1.95118,57.78145,12.77351,57.78144793,12.77350751,A,132108.40,"[-0.20000,-0.00000,-0.00000]","[-0.10000,-0.00000,-0.00000]",2.72611,0.00000,0.00000,0.00000,0.00000,0.00000
17:55:23.200339,2.26746,0.00544,1.42671,1.42671,"[5.00000,0.00000,0.00000]","[1.30000,0.00000,0.00000]",-0.01581,0.06679,0.00980,0.00000,0.00000,-0.00797,-0.01822,-0.04563,-0.02873,1.02998,2.26171,0.04396,1.42693,1.94776,1.98664,-0.95394,2.28543,2.19569,-0.96830,2.33509,1.95118,1.95118,57.78145,12.77351,57.78144805,12.77350741,A,132108.40,"[-0.20000,-0.00000,-0.00000]","[-0.10000,-0.00000,-0.00000]",2.74090,0.00000,0.00000,0.00000,0.00000,0.00000
17:55:23.211044,2.27816,0.00556,1.42671,1.42671,"[5.00000,0.00000,0.00000]","[1.30000,0.00000,0.00000]",-0.01591,0.06544,0.01132,0.00000,0.00000,-0.00492,-0.02601,-0.17812,0.00555,1.03163,2.27213,0.03663,1.42688,1.94317,1.98126,-0.95939,2.29864,2.19569,-0.96830,2.33509,1.95118,1.95118,57.78145,12.77351,57.78144817,12.77350732,A,132108.40,"[-0.20000,-0.00000,-0.00000]","[-0.10000,-0.00000,-0.00000]",2.75594,0.00000,0.00000,0.00000,0.00000,0.00000
17:55:23.221638,2.28874,0.00574,1.42671,1.42671,"[5.00000,0.00000,0.00000]","[1.30000,0.00000,0.00000]",-0.01623,0.06391,0.01499,0.00000,0.00000,0.00532,-0.03395,-0.03715,-0.01269,1.00699,2.28274,0.02930,1.42685,1.93939,1.97658,-0.96448,2.31112,2.19569,-0.96830,2.33509,1.95118,1.95118,57.78145,12.77351,57.78144828,12.77350723,A,132108.40,"[-0.20000,-0.00000,-0.00000]","[-0.10000,-0.00000,-0.00000]",2.77072,0.00000,0.00000,0.00000,0.00000,0.00000
17:55:23.270430,2.33754,0.04431,1.42671,1.50000,"[5.00000,0.00000,0.00000]","[1.30000,0.00000,0.00000]",-0.01583,0.06246,0.01835,0.00000,0.00000,0.00929,-0.03212,-0.01061,0.03202,0.93397,2.29280,0.03419,1.42682,1.93626,1.97262,-0.96910,2.32264,2.31013,-1.03746,2.48335,2.00729,2.00729,57.78145,12.77351,57.78144839,12.77350715,A,132108.50,"[-0.20000,-0.00000,-0.00000]","[-0.10000,-0.00000,-0.00000]",2.78526,0.00000,0.00000,0.00000,0.00000,0.00000
17:55:23.282355,2.34947,0.00603,1.42671,1.42671,"[5.00000,0.00000,0.00000]","[1.30000,0.00000,0.00000]",-0.01441,0.05935,0.02186,0.00000,0.00000,0.00089,-0.02418,-0.01647,0.04014,0.97704,2.34341,0.02442,1.42680,1.94493,1.97947,-0.99824,2.39121,2.31013,-1.03746,2.48335,2.00729,2.00729,57.78145,12.77351,57.78144900,12.77350666,A,132108.50,"[-0.20000,-0.00000,-0.00000]","[-0.10000,-0.00000,-0.00000]",2.86055,0.00000,0.00000,0.00000,0.00000,0.00000
17:55:23.292180,2.35930,0.00546,1.42671,1.42671,"[5.00000,0.00000,0.00000]","[1.30000,0.00000,0.00000]",-0.01459,0.05907,0.02614,0.00000,0.00000,-0.00018,-0.02494,-0.02916,-0.00885,1.00900,2.35335,0.03419,1.42678,1.94964,1.98401,-1.00457,2.40589,2.31013,-1.03746,2.48335,2.00729,2.00729,57.78145,12.77351,57.78144914,12.77350655,A,132108.50,"[-0.20000,-0.00000,-0.00000]","[-0.10000,-0.00000,-0.00000]",2.87534,0.00000,0.00000,0.00000,0.00000,0.00000
17:55:23.304843,2.37196,0.00771,1.42671,1.42671,"[5.00000,0.00000,0.00000]","[1.30000,0.00000,0.00000]",-0.01476,0.05873,0.03164,0.00000,0.00000,0.00073,-0.02632,-0.05356,-0.01879,1.02809,2.36613,0.03907,1.42677,1.95384,1.98801,-1.01212,2.42323,2.31013,-1.03746,2.48335,2.00729,2.00729,57.78145,12.77351,57.78144929,12.77350643,A,132108.50,"[-0.20000,-0.00000,-0.00000]","[-0.10000,-0.00000,-0.00000]",2.89013,0.00000,0.00000,0.00000,0.00000,0.00000
17:55:23.313316,2.38023,0.00558,1.51479,1.51479,"[5.00000,0.00000,0.00000]","[1.30000,0.00000,0.00000]",-0.01521,0.05856,0.03164,0.00000,0.00000,0.00303,-0.02525,-0.04740,-0.02666,1.01223,2.37436,0.03663,1.44437,1.95714,1.99122,-1.01691,2.43419,2.31013,-1.03746,2.48335,2.00729,2.00729,57.78145,12.77351,57.78144939,12.77350635,A,132108.50,"[-0.20000,-0.00000,-0.00000]","[-0.10000,-0.00000,-0.00000]",2.90492,0.00000,0.00000,0.00000,0.00000,0.00000
17:55:23.323371,2.39049,0.00560,1.51479,1.51479,"[5.00000,0.00000,0.00000]","[1.30000,0.00000,0.00000]",-0.01536,0.05853,0.02919,0.00000,0.00000,0.00303,-0.02280,0.00762,-0.00866,1.01260,2.38444,0.04640,1.45845,1.96008,1.99414,-1.02260,2.44708,2.31013,-1.03746,2.48335,2.00729,2.00729,57.78145,12.77351,57.78144951,12.77350625,A,132108.50,"[-0.20000,-0.00000,-0.00000]","[-0.10000,-0.00000,-0.00000]",2.92038,0.00000,0.00000,0.00000,0.00000,0.00000
17:55:23.334287,2.40141,0.00612,1.51479,1.51479,"[5.00000,0.00000,0.00000]","[1.30000,0.00000,0.00000]",-0.01509,0.05853,0.03469,0.00000,0.00000,0.00455,-0.01883,0.03703,0.01427,0.98277,2.39510,0.04151,1.46972,1.96259,1.99665,-1.02825,2.45977,2.31013,-1.03746,2.48335,2.00729,2.00729,57.78145,12.77351,57.78144962,12.77350616,A,132108.50,"[-0.20000,-0.00000,-0.00000]","[-0.10000,-0.00000,-0.00000]",2.93608,0.00000,0.00000,0.00000,0.00000,0.00000
17:55:23.390949,2.45806,0.05238,1.51479,1.50000,"[5.00000,0.00000,0.00000]","[1.30000,0.00000,0.00000]",-0.01493,0.05853,0.03698,0.00000,0.00000,-0.01148,-0.01120,0.06960,0.00695,0.97667,2.40519,0.05128,1.47873,1.96470,1.99876,-1.03332,2.47113,2.43551,-1.15603,2.74281,1.99944,1.99944,57.78145,12.77350,57.78144972,12.77350607,A,132108.70,"[-0.20000,-0.00000,-0.00000]","[-0.10000,-0.00000,-0.00000]",2.95177,0.00000,0.00000,0.00000,0.00000,0.00000
17:55:23.404460,2.47156,0.00775,1.51479,1.51479,"[5.00000,0.00000,0.00000]","[1.30000,0.00000,0.00000]",-0.01284,0.05853,0.04599,0.00000,0.00000,0.00913,-0.02968,0.09443,-0.01580,0.96886,2.46368,0.05128,1.48594,1.96841,2.00246,-1.07228,2.55667,2.43551,-1.15603,2.74281,1.99944,1.99944,57.78145,12.77350,57.78145049,12.77350541,A,132108.70,"[-0.20000,-0.00000,-0.00000]","[-0.10000,-0.00000,-0.00000]",3.03892,0.00000,0.00000,0.00000,0.00000,0.00000
17:55:23.412543,2.47967,0.00546,1.51479,1.51479,"[5.00000,0.00000,0.00000]","[1.30000,0.00000,0.00000]",-0.01296,0.05853,0.03988,0.00000,0.00000,0.00623,-0.02677,0.08863,-0.01165,0.99765,2.47391,0.04151,1.49171,1.96839,2.00245,-1.08048,2.57468,2.43551,-1.15603,2.74281,1.99944,1.99944,57.78145,12.77350,57.78145065,12.77350527,A,132108.70,"[-0.20000,-0.00000,-0.00000]","[-0.10000,-0.00000,-0.00000]",3.05462,0.00000,0.00000,0.00000,0.00000,0.00000
17:55:23.423194,2.49031,0.00557,1.51479,1.51479,"[5.00000,0.00000,0.00000]","[1.30000,0.00000,0.00000]",-0.01330,0.05853,0.04569,0.00000,0.00000,-0.00400,-0.02998,0.10852,-0.03135,1.01394,2.48428,0.03175,1.49633,1.96849,2.00255,-1.08936,2.59416,2.43551,-1.15603,2.74281,1.99944,1.99944,57.78145,12.77350,57.78145083,12.77350512,A,132108.70,"[-0.20000,-0.00000,-0.00000]","[-0.10000,-0.00000,-0.00000]",3.07053,0.00000,0.00000,0.00000,0.00000,0.00000
17:55:23.434066,2.50118,0.00603,1.51479,1.51479,"[5.00000,0.00000,0.00000]","[1.30000,0.00000,0.00000]",-0.01301,0.05853,0.03545,0.00000,0.00000,-0.00049,-0.02922,0.07100,0.01708,1.03218,2.49488,0.02686,1.50002,1.96858,2.00264,-1.09778,2.61263,2.43551,-1.15603,2.74281,1.99944,1.99944,57.78145,12.77350,57.78145100,12.77350498,A,132108.70,"[-0.20000,-0.00000,-0.00000]","[-0.10000,-0.00000,-0.00000]",3.08623,0.00000,0.00000,0.00000,0.00000,0.00000
17:55:23.444010,2.51113,0.00576,1.51479,1.51479,"[5.00000,0.00000,0.00000]","[1.30000,0.00000,0.00000]",-0.01247,0.05853,0.04049,0.00000,0.00000,0.00119,-0.03120,0.06777,0.03227,1.02931,2.50496,0.01709,1.50297,1.96867,2.00273,-1.10588,2.63039,2.43551,-1.15603,2.74281,1.99944,1.99944,57.78145,12.77350,57.78145116,12.77350485,A,132108.70,"[-0.20000,-0.00000,-0.00000]","[-0.10000,-0.00000,-0.00000]",3.10167,0.00000,0.00000,0.00000,0.00000,0.00000
17:55:23.454659,2.52178,0.00600,1.51479,1.51479,"[5.00000,0.00000,0.00000]","[1.30000,0.00000,0.00000]",-0.01227,0.05853,0.03790,0.00000,0.00000,0.00425,-0.02479,0.09467,0.00988,1.01998,2.51572,0.02198,1.50534,1.96873,2.00279,-1.11352,2.64715,2.43551,-1.15603,2.74281,1.99944,1.99944,57.78145,12.77350,57.78145131,12.77350472,A,132108.70,"[-0.20000,-0.00000,-0.00000]","[-0.10000,-0.00000,-0.00000]",3.11737,0.00000,0.00000,0.00000,0.00000,0.00000
17:55:23.465628,2.53273,0.00656,1.51479,1.51479,"[5.00000,0.00000,0.00000]","[1.30000,0.00000,0.00000]",-0.01128,0.05853,0.03897,0.00000,0.00000,0.00272,-0.01822,0.15958,0.06356,0.99418,2.52589,0.02686,1.50723,1.96881,2.00287,-1.12095,2.66345,2.43551,-1.15603,2.74281,1.99944,1.99944,57.78145,12.77350,57.78145145,12.77350459,A,132108.70,"[-0.20000,-0.00000,-0.00000]","[-0.10000,-0.00000,-0.00000]",3.13306,0.00000,0.00000,0.00000,0.00000,0.00000
17:55:23.508571,2.57569,0.03897,1.51479,1.50000,"[5.00000,0.00000,0.00000]","[1.30000,0.00000,0.00000]",-0.01191,0.05853,0.04126,0.00000,0.00000,-0.00660,-0.01731,0.17891,-0.04416,0.97826,2.53625,0.03663,1.50874,1.96880,2.00286,-1.12736,2.67751,2.55312,-1.21531,2.85400,2.06061,2.06061,57.78145,12.77350,57.78145158,12.77350448,A,132108.80,"[-0.20000,-0.00000,-0.00000]","[-0.10000,-0.00000,-0.00000]",3.14898,0.00000,0.00000,0.00000,0.00000,0.00000
17:55:23.520174,2.58729,0.00563,1.51479,1.51479,"[5.00000,0.00000,0.00000]","[1.30000,0.00000,0.00000]",-0.01034,0.05853,0.04324,0.00000,0.00000,0.02135,0.00285,0.13682,0.00092,0.97319,2.58130,0.01465,1.50995,1.98029,2.01435,-1.15770,2.74260,2.55312,-1.21531,2.85400,2.06061,2.06061,57.78145,12.77350,57.78145216,12.77350397,A,132108.80,"[-0.20000,-0.00000,-0.00000]","[-0.10000,-0.00000,-0.00000]",3.21637,0.00000,0.00000,0.00000,0.00000,0.00000
17:55:23.530695,2.59781,0.00574,1.51479,1.51479,"[5.00000,0.00000,0.00000]","[1.30000,0.00000,0.00000]",-0.00993,0.05853,0.03729,0.00000,0.00000,0.00287,0.00239,0.10687,0.02727,1.01394,2.59177,0.01465,1.51091,1.98778,2.02184,-1.16580,2.75915,2.55312,-1.21531,2.85400,2.06061,2.06061,57.78145,12.77350,57.78145231,12.77350384,A,132108.80,"[-0.20000,-0.00000,-0.00000]","[-0.10000,-0.00000,-0.00000]",3.23208,0.00000,0.00000,0.00000,0.00000,0.00000
17:55:23.540790,2.60791,0.00544,1.51479,1.51479,"[5.00000,0.00000,0.00000]","[1.30000,0.00000,0.00000]",-0.01014,0.05853,0.04370,0.00000,0.00000,0.00913,-0.00112,0.18251,-0.01958,1.05951,2.60215,0.00733,1.51169,1.99414,2.02820,-1.17349,2.77467,2.55312,-1.21531,2.85400,2.06061,2.06061,57.78145,12.77350,57.78145245,12.77350371,A,132108.80,"[-0.20000,-0.00000,-0.00000]","[-0.10000,-0.00000,-0.00000]",3.24778,0.00000,0.00000,0.00000,0.00000,0.00000
17:55:23.551515,2.61863,0.00575,1.51479,1.51479,"[5.00000,0.00000,0.00000]","[1.30000,0.00000,0.00000]",-0.00960,0.05853,0.03225,0.00000,0.00000,-0.00614,0.00407,0.15311,0.04093,1.03901,2.61244,0.00733,1.51231,1.99956,2.03362,-1.18099,2.78961,2.55312,-1.21531,2.85400,2.06061,2.06061,57.78145,12.77350,57.78145259,12.77350358,A,132108.80,"[-0.20000,-0.00000,-0.00000]","[-0.10000,-0.00000,-0.00000]",3.26349,0.00000,0.00000,0.00000,0.00000,0.00000
17:55:23.561858,2.62897,0.00569,1.51479,1.51479,"[5.00000,0.00000,0.00000]","[1.30000,0.00000,0.00000]",-0.01005,0.05853,0.03790,0.00000,0.00000,-0.01194,0.00102,0.05374,-0.03056,1.00119,2.62299,0.00488,1.51280,2.00417,2.03823,-1.18817,2.80377,2.55312,-1.21531,2.85400,2.06061,2.06061,57.78145,12.77350,57.78145271,12.77350346,A,132108.80,"[-0.20000,-0.00000,-0.00000]","[-0.10000,-0.00000,-0.00000]",3.27919,0.00000,0.00000,0.00000,0.00000,0.00000
17:55:23.572832,2.63995,0.00598,1.51479,1.51479,"[5.00000,0.00000,0.00000]","[1.30000,0.00000,0.00000]",-0.01090,0.05853,0.04248,0.00000,0.00000,-0.00690,-0.00494,0.21899,-0.05850,0.95465,2.63416,0.00977,1.51320,2.00814,2.04220,-1.19563,2.81838,2.55312,-1.21531,2.85400,2.06061,2.06061,57.78145,12.77350,57.78145285,12.77350333,A,132108.80,"[-0.20000,-0.00000,-0.00000]","[-0.10000,-0.00000,-0.00000]",3.29533,0.00000,0.00000,0.00000,0.00000,0.00000
17:55:23.582986,2.65010,0.00557,1.51479,1.51479,"[5.00000,0.00000,0.00000]","[1.30000,0.00000,0.00000]",-0.01007,0.05853,0.02828,0.00000,0.00000,-0.01225,-0.00249,0.09424,0.05880,0.94623,2.64405,0.00488,1.51352,2.01143,2.04549,-1.20191,2.83055,2.55312,-1.21531,2.85400,2.06061,2.06061,57.78145,12.77350,57.78145296,12.77350323,A,132108.80,"[-0.20000,-0.00000,-0.00000]","[-0.10000,-0.00000,-0.00000]",3.31102,0.00000,0.00000,0.00000,0.00000,0.00000
17:55:23.627638,2.69475,0.03983,1.51479,1.50000,"[5.00000,0.00000,0.00000]","[1.30000,0.00000,0.00000]",-0.00909,0.05853,0.02812,0.00000,0.00000,-0.02996,-0.00723,0.37125,0.06954,0.96441,2.65463,0.00977,1.51377,2.01426,2.04832,-1.20818,2.84262,2.67156,-1.27460,2.98373,1.99944,1.99944,57.78145,12.77350,57.78145306,12.77350312,A,132108.90,"[-0.20000,-0.00000,-0.00000]","[-0.10000,-0.00000,-0.00000]",3.32671,0.00000,0.00000,0.00000,0.00000,0.00000
17:55:23.639296,2.70641,0.00609,1.51479,1.51479,"[5.00000,0.00000,0.00000]","[1.30000,0.00000,0.00000]",-0.00758,0.05980,0.03225,0.00000,0.00000,0.03479,-0.00463,0.36136,0.03026,0.96959,2.70034,0.01221,1.51397,2.00970,2.04450,-1.24055,2.90582,2.67156,-1.27460,2.98373,1.99944,1.99944,57.78145,12.77350,57.78145363,12.77350257,A,132108.90,"[-0.20000,-0.00000,-0.00000]","[-0.10000,-0.00000,-0.00000]",3.39478,0.00000,0.00000,0.00000,0.00000,0.00000
17:55:23.649437,2.71620,0.00548,1.51479,1.51479,"[5.00000,0.00000,0.00000]","[1.30000,0.00000,0.00000]",-0.00750,0.06048,0.02889,0.00000,0.00000,0.00532,0.00316,0.26541,0.01494,1.03737,2.71045,0.00488,1.51414,2.00342,2.03862,-1.24752,2.91999,2.67156,-1.27460,2.98373,1.99944,1.99944,57.78145,12.77350,57.78145376,12.77350246,A,132108.90,"[-0.20000,-0.00000,-0.00000]","[-0.10000,-0.00000,-0.00000]",3.41049,0.00000,0.00000,0.00000,0.00000,0.00000
17:55:23.659598,2.72671,0.00576,1.51479,1.51479,"[5.00000,0.00000,0.00000]","[1.30000,0.00000,0.00000]",-0.00739,0.06113,0.02996,0.00000,0.00000,-0.00904,0.00606,0.23638,0.01647,1.02425,2.72051,0.01465,1.51427,1.99805,2.03363,-1.25426,2.93384,2.67156,-1.27460,2.98373,1.99944,1.99944,57.78145,12.77350,57.78145388,12.77350234,A,132108.90,"[-0.20000,-0.00000,-0.00000]","[-0.10000,-0.00000,-0.00000]",3.42593,0.00000,0.00000,0.00000,0.00000,0.00000
17:55:23.672606,2.73972,0.00838,1.51479,1.51479,"[5.00000,0.00000,0.00000]","[1.30000,0.00000,0.00000]",-0.00763,0.06161,0.01682,0.00000,0.00000,-0.01683,0.00652,0.06503,0.00024,1.03590,2.73200,0.01221,1.51437,1.99352,2.02937,-1.26126,2.94832,2.67156,-1.27460,2.98373,1.99944,1.99944,57.78145,12.77350,57.78145401,12.77350222,A,132108.90,"[-0.20000,-0.00000,-0.00000]","[-0.10000,-0.00000,-0.00000]",3.44163,0.00000,0.00000,0.00000,0.00000,0.00000
17:55:23.679891,2.74701,0.00550,1.51479,1.51479,"[5.00000,0.00000,0.00000]","[1.30000,0.00000,0.00000]",-0.00829,0.06176,0.00934,0.00000,0.00000,-0.00858,0.00514,0.06924,-0.02068,0.98741,2.74100,0.00977,1.51445,1.98938,2.02532,-1.26531,2.95694,2.67156,-1.27460,2.98373,1.99944,1.99944,57.78145,12.77350,57.78145409,12.77350216,A,132108.90,"[-0.20000,-0.00000,-0.00000]","[-0.10000,-0.00000,-0.00000]",3.45700,0.00000,0.00000,0.00000,0.00000,0.00000
17:55:23.690536,2.75765,0.00574,1.51479,1.51479,"[5.00000,0.00000,0.00000]","[1.30000,0.00000,0.00000]",-0.00782,0.06176,0.00781,0.00000,0.00000,-0.00049,0.00224,0.15317,0.05295,0.97472,2.75162,0.00244,1.51452,1.98609,2.02203,-1.27121,2.96940,2.67156,-1.27460,2.98373,1.99944,1.99944,57.78145,12.77350,57.78145420,12.77350206,A,132108.90,"[-0.20000,-0.00000,-0.00000]","[-0.10000,-0.00000,-0.00000]",3.47269,0.00000,0.00000,0.00000,0.00000,0.00000
17:55:23.700630,2.76775,0.00544,1.51479,1.51479,"[5.00000,0.00000,0.00000]","[1.30000,0.00000,0.00000]",-0.00811,0.06176,0.01499,0.00000,0.00000,-0.01057,0.00362,0.25242,-0.00006,0.95556,2.76200,0.00488,1.51457,1.98328,2.01922,-1.27661,2.98092,2.67156,-1.27460,2.98373,1.99944,1.99944,57.78145,12.77350,57.78145431,12.77350197,A,132108.90,"[-0.20000,-0.00000,-0.00000]","[-0.10000,-0.00000,-0.00000]",3.48839,0.00000,0.00000,0.00000,0.00000,0.00000
17:55:23.744267,2.81138,0.03843,1.51479,1.50000,"[5.00000,0.00000,0.00000]","[1.30000,0.00000,0.00000]",-0.00822,0.06176,0.00598,0.00000,0.00000,-0.01362,0.00392,0.21197,0.01665,0.96539,2.77250,0.00244,1.51462,1.98092,2.01686,-1.28197,2.99241,2.78942,-1.32400,3.11346,1.93466,1.93466,57.78146,12.77350,57.78145441,12.77350188,A,132109.00,"[-0.20000,-0.00000,-0.00000]","[-0.10000,-0.00000,-0.00000]",3.50444,0.00000,0.00000,0.00000,0.00000,0.00000
17:55:23.758178,2.82529,0.00624,1.64863,1.64863,"[5.00000,0.00000,0.00000]","[1.30000,0.00000,0.00000]",-0.00710,0.06176,-0.00166,0.00000,0.00000,0.02410,0.00484,0.29384,0.10864,0.98613,2.81894,0.00733,1.54142,1.97166,2.00760,-1.31163,3.05608,2.78942,-1.32400,3.11346,1.93466,1.93466,57.78146,12.77350,57.78145498,12.77350138,A,132109.00,"[-0.20000,-0.00000,-0.00000]","[-0.10000,-0.00000,-0.00000]",3.57357,0.00000,0.00000,0.00000,0.00000,0.00000
17:55:23.767708,2.83482,0.00553,1.64863,1.64863,"[5.00000,0.00000,0.00000]","[1.30000,0.00000,0.00000]",-0.00701,0.06176,0.00720,0.00000,0.00000,-0.00782,-0.00112,0.32409,0.03331,1.03261,2.82882,0.00000,1.56286,1.96128,1.99722,-1.31714,3.06943,2.78942,-1.32400,3.11346,1.93466,1.93466,57.78146,12.77350,57.78145510,12.77350128,A,132109.00,"[-0.20000,-0.00000,-0.00000]","[-0.10000,-0.00000,-0.00000]",3.59039,0.00000,0.00000,0.00000,0.00000,0.00000
17:55:23.778375,2.84549,0.00595,1.64863,1.64863,"[5.00000,0.00000,0.00000]","[1.30000,0.00000,0.00000]",-0.00754,0.06176,0.00888,0.00000,0.00000,-0.01988,0.00973,-0.01549,-0.01061,1.05323,2.83942,0.00000,1.58002,1.95251,1.98845,-1.32276,3.08325,2.78942,-1.32400,3.11346,1.93466,1.93466,57.78146,12.77350,57.78145523,12.77350119,A,132109.00,"[-0.20000,-0.00000,-0.00000]","[-0.10000,-0.00000,-0.00000]",3.60722,0.00000,0.00000,0.00000,0.00000,0.00000
17:55:23.788665,2.85579,0.00585,1.64863,1.64863,"[5.00000,0.00000,0.00000]","[1.30000,0.00000,0.00000]",-0.00817,0.06178,0.00506,0.00000,0.00000,-0.00583,0.01568,0.08735,-0.01562,1.03865,2.84963,0.00244,1.59374,1.94503,1.98098,-1.32781,3.09599,2.78942,-1.32400,3.11346,1.93466,1.93466,57.78146,12.77350,57.78145534,12.77350110,A,132109.00,"[-0.20000,-0.00000,-0.00000]","[-0.10000,-0.00000,-0.00000]",3.62431,0.00000,0.00000,0.00000,0.00000,0.00000
17:55:23.799001,2.86612,0.00579,1.64863,1.64863,"[5.00000,0.00000,0.00000]","[1.30000,0.00000,0.00000]",-0.00889,0.06184,0.00735,0.00000,0.00000,-0.00095,0.01843,0.14030,-0.02037,0.94208,2.86004,0.00244,1.60472,1.93868,1.97467,-1.33260,3.10834,2.78942,-1.32400,3.11346,1.93466,1.93466,57.78146,12.77350,57.78145545,12.77350102,A,132109.00,"[-0.20000,-0.00000,-0.00000]","[-0.10000,-0.00000,-0.00000]",3.64139,0.00000,0.00000,0.00000,0.00000,0.00000
17:55:23.809482,2.87634,0.00561,1.64863,1.64863,"[5.00000,0.00000,0.00000]","[1.30000,0.00000,0.00000]",-0.00921,0.06187,0.00705,0.00000,0.00000,-0.01820,0.01400,0.34386,0.00348,0.95453,2.87059,0.00488,1.61350,1.93329,1.96930,-1.33724,3.12045,2.78942,-1.32400,3.11346,1.93466,1.93466,57.78146,12.77350,57.78145556,12.77350094,A,132109.00,"[-0.20000,-0.00000,-0.00000]","[-0.10000,-0.00000,-0.00000]",3.65848,0.00000,0.00000,0.00000,0.00000,0.00000
17:55:23.819455,2.88657,0.00561,1.64863,1.64863,"[5.00000,0.00000,0.00000]","[1.30000,0.00000,0.00000]",-0.00828,0.06187,0.00903,0.00000,0.00000,-0.03912,0.01629,0.17647,0.08449,0.98454,2.88054,0.00488,1.62053,1.92870,1.96471,-1.34145,3.13168,2.78942,-1.32400,3.11346,1.93466,1.93466,57.78146,12.77350,57.78145566,12.77350087,A,132109.00,"[-0.20000,-0.00000,-0.00000]","[-0.10000,-0.00000,-0.00000]",3.67530,0.00000,0.00000,0.00000,0.00000,0.00000
17:55:23.862938,2.93005,0.03869,1.64863,1.50000,"[5.00000,0.00000,0.00000]","[1.30000,0.00000,0.00000]",-0.00797,0.06187,0.01178,0.00000,0.00000,-0.02599,0.01186,0.04917,0.04325,0.99765,2.89108,0.00488,1.62615,1.92483,1.96083,-1.34560,3.14285,2.90816,-1.39317,3.26172,2.00729,2.00729,57.78146,12.77350,57.78145576,12.77350080,A,132109.10,"[-0.20000,-0.00000,-0.00000]","[-0.10000,-0.00000,-0.00000]",3.69238,0.00000,0.00000,0.00000,0.00000,0.00000
17:55:23.876475,2.94359,0.00790,1.64863,1.64863,"[5.00000,0.00000,0.00000]","[1.30000,0.00000,0.00000]",-0.00721,0.06195,0.00552,0.00000,0.00000,-0.01164,-0.00539,0.21710,0.06368,0.98009,2.93678,0.00488,1.63065,1.93506,1.97111,-1.37380,3.21160,2.90816,-1.39317,3.26172,2.00729,2.00729,57.78146,12.77350,57.78145638,12.77350033,A,132109.10,"[-0.20000,-0.00000,-0.00000]","[-0.10000,-0.00000,-0.00000]",3.75884,0.00000,0.00000,0.00000,0.00000,0.00000
17:55:23.884406,2.95152,0.00554,1.64863,1.64863,"[5.00000,0.00000,0.00000]","[1.30000,0.00000,0.00000]",-0.00701,0.06195,0.01636,0.00000,0.00000,-0.01179,-0.00051,0.10882,0.03489,0.98930,2.94574,0.00000,1.63424,1.94095,1.97700,-1.37850,3.22293,2.90816,-1.39317,3.26172,2.00729,2.00729,57.78146,12.77350,57.78145648,12.77350025,A,132109.10,"[-0.20000,-0.00000,-0.00000]","[-0.10000,-0.00000,-0.00000]",3.77575,0.00000,0.00000,0.00000,0.00000,0.00000
17:55:23.895075,2.96219,0.00558,1.64863,1.64863,"[5.00000,0.00000,0.00000]","[1.30000,0.00000,0.00000]",-0.00663,0.06195,0.01468,0.00000,0.00000,-0.00599,0.00560,0.07198,0.04654,0.98826,2.95615,0.00000,1.63712,1.94614,1.98219,-1.38453,3.23717,2.90816,-1.39317,3.26172,2.00729,2.00729,57.78146,12.77350,57.78145661,12.77350015,A,132109.10,"[-0.20000,-0.00000,-0.00000]","[-0.10000,-0.00000,-0.00000]",3.79283,0.00000,0.00000,0.00000,0.00000,0.00000
17:55:23.905598,2.97270,0.00569,1.64863,1.64863,"[5.00000,0.00000,0.00000]","[1.30000,0.00000,0.00000]",-0.00725,0.06195,0.00796,0.00000,0.00000,-0.00308,0.00713,0.10419,-0.01391,0.97014,2.96673,0.00000,1.63942,1.95054,1.98660,-1.39027,3.25056,2.90816,-1.39317,3.26172,2.00729,2.00729,57.78146,12.77350,57.78145673,12.77350005,A,132109.10,"[-0.20000,-0.00000,-0.00000]","[-0.10000,-0.00000,-0.00000]",3.80991,0.00000,0.00000,0.00000,0.00000,0.00000
17:55:23.915758,2.98287,0.00559,1.64863,1.64863,"[5.00000,0.00000,0.00000]","[1.30000,0.00000,0.00000]",-0.00722,0.06195,0.01316,0.00000,0.00000,-0.01515,0.00484,0.31885,0.02409,0.99198,2.97685,0.00244,1.64127,1.95428,1.99033,-1.39568,3.26305,2.90816,-1.39317,3.26172,2.00729,2.00729,57.78146,12.77350,57.78145685,12.77349996,A,132109.10,"[-0.20000,-0.00000,-0.00000]","[-0.10000,-0.00000,-0.00000]",3.82678,0.00000,0.00000,0.00000,0.00000,0.00000
17:55:23.926313,2.99343,0.00575,1.64863,1.64863,"[5.00000,0.00000,0.00000]","[1.30000,0.00000,0.00000]",-0.00723,0.06195,0.01652,0.00000,0.00000,-0.02355,0.00377,0.11187,0.01970,1.01339,2.98741,0.00244,1.64274,1.95746,1.99352,-1.40098,3.27515,2.90816,-1.39317,3.26172,2.00729,2.00729,57.78146,12.77350,57.78145695,12.77349987,A,132109.10,"[-0.20000,-0.00000,-0.00000]","[-0.10000,-0.00000,-0.00000]",3.84386,0.00000,0.00000,0.00000,0.00000,0.00000
17:55:23.936705,3.00382,0.00574,1.64863,1.64863,"[5.00000,0.00000,0.00000]","[1.30000,0.00000,0.00000]",-0.00774,0.06195,0.01789,0.00000,0.00000,-0.00904,0.00224,0.07009,-0.01403,0.97356,2.99778,0.00488,1.64392,1.96016,1.99621,-1.40596,3.28642,2.90816,-1.39317,3.26172,2.00729,2.00729,57.78146,12.77350,57.78145706,12.77349978,A,132109.10,"[-0.20000,-0.00000,-0.00000]","[-0.10000,-0.00000,-0.00000]",3.86094,0.00000,0.00000,0.00000,0.00000,0.00000
17:55:24.000214,3.06733,0.05867,1.64863,1.50000,"[5.00000,0.00000,0.00000]","[1.30000,0.00000,0.00000]",-0.00744,0.06195,0.01423,0.00000,0.00000,0.00409,-0.00066,0.02952,0.04111,1.00510,3.00820,0.00000,1.64486,1.96245,1.99851,-1.41071,3.29707,3.03601,-1.54137,3.59530,1.98889,1.98889,57.78146,12.77350,57.78145715,12.77349970,A,132109.30,"[-0.20000,-0.00000,-0.00000]","[-0.10000,-0.00000,-0.00000]",3.87832,0.00000,0.00000,0.00000,0.00000,0.00000
17:55:24.011686,3.07881,0.00565,1.64863,1.64863,"[5.00000,0.00000,0.00000]","[1.30000,0.00000,0.00000]",-0.00704,0.06195,0.01881,0.00000,0.00000,-0.00812,-0.01822,0.00110,-0.02330,1.04761,3.07276,0.00000,1.64562,1.96571,2.00177,-1.45767,3.40068,3.03601,-1.54137,3.59530,1.98889,1.98889,57.78146,12.77350,57.78145808,12.77349891,A,132109.30,"[-0.20000,-0.00000,-0.00000]","[-0.10000,-0.00000,-0.00000]",3.97504,0.00000,0.00000,0.00000,0.00000,0.00000
17:55:24.023522,3.09064,0.00643,1.64863,1.64863,"[5.00000,0.00000,0.00000]","[1.30000,0.00000,0.00000]",-0.00770,0.06195,0.01041,0.00000,0.00000,0.00073,-0.01960,0.23284,-0.02287,1.06122,3.08456,0.00244,1.64622,1.96451,2.00057,-1.46823,3.42427,3.03601,-1.54137,3.59530,1.98889,1.98889,57.78146,12.77350,57.78145830,12.77349873,A,132109.30,"[-0.20000,-0.00000,-0.00000]","[-0.10000,-0.00000,-0.00000]",3.99320,0.00000,0.00000,0.00000,0.00000,0.00000
17:55:24.033001,3.10012,0.00552,1.64863,1.64863,"[5.00000,0.00000,0.00000]","[1.30000,0.00000,0.00000]",-0.00800,0.06195,0.00796,0.00000,0.00000,-0.01851,-0.01761,0.13072,0.00653,0.96295,3.09437,0.00000,1.64670,1.96335,1.99940,-1.47693,3.44382,3.03601,-1.54137,3.59530,1.98889,1.98889,57.78146,12.77350,57.78145847,12.77349859,A,132109.30,"[-0.20000,-0.00000,-0.00000]","[-0.10000,-0.00000,-0.00000]",4.01028,0.00000,0.00000,0.00000,0.00000,0.00000
17:55:24.043322,3.11044,0.00558,1.64863,1.64863,"[5.00000,0.00000,0.00000]","[1.30000,0.00000,0.00000]",-0.00840,0.06195,0.00888,0.00000,0.00000,-0.02569,-0.01578,0.13688,-0.00171,0.97161,3.10439,0.00244,1.64709,1.96239,1.99845,-1.48553,3.46316,3.03601,-1.54137,3.59530,1.98889,1.98889,57.78146,12.77350,57.78145864,12.77349844,A,132109.30,"[-0.20000,-0.00000,-0.00000]","[-0.10000,-0.00000,-0.00000]",4.02712,0.00000,0.00000,0.00000,0.00000,0.00000
17:55:24.054186,3.12130,0.00604,1.64863,1.64863,"[5.00000,0.00000,0.00000]","[1.30000,0.00000,0.00000]",-0.00659,0.06195,0.00567,0.00000,0.00000,-0.01057,-0.01532,0.05887,0.14091,0.95026,3.11497,0.00000,1.64740,1.96160,1.99766,-1.49385,3.48189,3.03601,-1.54137,3.59530,1.98889,1.98889,57.78146,12.77350,57.78145881,12.77349830,A,132109.30,"[-0.20000,-0.00000,-0.00000]","[-0.10000,-0.00000,-0.00000]",4.04420,0.00000,0.00000,0.00000,0.00000,0.00000
17:55:24.064032,3.13115,0.00549,1.64863,1.64863,"[5.00000,0.00000,0.00000]","[1.30000,0.00000,0.00000]",-0.00775,0.06195,0.02858,0.00000,0.00000,-0.00095,-0.01746,0.02714,-0.05862,0.92622,3.12517,0.00733,1.64764,1.96091,1.99696,-1.50154,3.49924,3.03601,-1.54137,3.59530,1.98889,1.98889,57.78146,12.77350,57.78145897,12.77349817,A,132109.30,"[-0.20000,-0.00000,-0.00000]","[-0.10000,-0.00000,-0.00000]",4.06129,0.00000,0.00000,0.00000,0.00000,0.00000
17:55:24.108571,3.17569,0.03963,1.64863,1.50000,"[5.00000,0.00000,0.00000]","[1.30000,0.00000,0.00000]",-0.00733,0.06195,0.01621,0.00000,0.00000,0.01478,-0.02173,0.24595,0.04581,0.93897,3.13578,0.00733,1.64784,1.96035,1.99640,-1.50911,3.51635,3.15432,-1.63030,3.78063,2.01818,2.01818,57.78146,12.77350,57.78145912,12.77349804,A,132109.40,"[-0.20000,-0.00000,-0.00000]","[-0.10000,-0.00000,-0.00000]",4.07837,0.00000,0.00000,0.00000,0.00000,0.00000
17:55:24.121371,3.18757,0.00600,1.64863,1.64863,"[5.00000,0.00000,0.00000]","[1.30000,0.00000,0.00000]",-0.00672,0.06195,0.02919,0.00000,0.00000,0.00638,-0.02815,0.06838,-0.01543,1.01321,3.18121,0.00244,1.64800,1.96691,2.00296,-1.54334,3.59171,3.15432,-1.63030,3.78063,2.01818,2.01818,57.78146,12.77350,57.78145980,12.77349747,A,132109.40,"[-0.20000,-0.00000,-0.00000]","[-0.10000,-0.00000,-0.00000]",4.14661,0.00000,0.00000,0.00000,0.00000,0.00000
17:55:24.130961,3.19809,0.00611,1.64863,1.64863,"[5.00000,0.00000,0.00000]","[1.30000,0.00000,0.00000]",-0.00679,0.06195,0.03011,0.00000,0.00000,-0.00461,-0.02509,0.27060,0.00592,1.05451,3.19171,0.00244,1.64813,1.96983,2.00589,-1.55326,3.61323,3.15432,-1.63030,3.78063,2.01818,2.01818,57.78146,12.77350,57.78145999,12.77349730,A,132109.40,"[-0.20000,-0.00000,-0.00000]","[-0.10000,-0.00000,-0.00000]",4.16370,0.00000,0.00000,0.00000,0.00000,0.00000
17:55:24.140981,3.20810,0.00580,1.89997,1.89997,"[5.00000,0.00000,0.00000]","[1.30000,0.00000,0.00000]",-0.00756,0.06195,0.03301,0.00000,0.00000,-0.01500,-0.02326,0.05398,-0.03654,0.97203,3.20229,0.00000,1.69850,1.97232,2.00838,-1.56274,3.63372,3.15432,-1.63030,3.78063,2.01818,2.01818,57.78146,12.77350,57.78146018,12.77349714,A,132109.40,"[-0.20000,-0.00000,-0.00000]","[-0.10000,-0.00000,-0.00000]",4.18067,0.00000,0.00000,0.00000,0.00000,0.00000
17:55:24.151268,3.21838,0.00556,1.89997,1.89997,"[5.00000,0.00000,0.00000]","[1.30000,0.00000,0.00000]",-0.00758,0.06195,0.03668,0.00000,0.00000,-0.02080,-0.01349,0.15470,0.01019,0.98649,3.21236,0.00244,1.73879,1.97443,2.01049,-1.57177,3.65314,3.15432,-1.63030,3.78063,2.01818,2.01818,57.78146,12.77350,57.78146035,12.77349699,A,132109.40,"[-0.20000,-0.00000,-0.00000]","[-0.10000,-0.00000,-0.00000]",4.20060,0.00000,0.00000,0.00000,0.00000,0.00000
17:55:24.161842,3.22896,0.00574,1.89997,1.89997,"[5.00000,0.00000,0.00000]","[1.30000,0.00000,0.00000]",-0.00700,0.06195,0.03591,0.00000,0.00000,0.00241,-0.01135,0.01360,0.04801,0.95678,3.22297,0.00488,1.77103,1.97627,2.01233,-1.58073,3.67233,3.15432,-1.63030,3.78063,2.01818,2.01818,57.78146,12.77350,57.78146053,12.77349684,A,132109.40,"[-0.20000,-0.00000,-0.00000]","[-0.10000,-0.00000,-0.00000]",4.22029,0.00000,0.00000,0.00000,0.00000,0.00000
17:55:24.172004,3.23912,0.00549,1.89997,1.89997,"[5.00000,0.00000,0.00000]","[1.30000,0.00000,0.00000]",-0.00693,0.06195,0.03759,0.00000,0.00000,0.00791,-0.01104,0.01464,0.01616,0.94910,3.23314,0.01221,1.79681,1.97783,2.01389,-1.58926,3.69055,3.15432,-1.63030,3.78063,2.01818,2.01818,57.78146,12.77350,57.78146069,12.77349669,A,132109.40,"[-0.20000,-0.00000,-0.00000]","[-0.10000,-0.00000,-0.00000]",4.23999,0.00000,0.00000,0.00000,0.00000,0.00000
17:55:24.182706,3.24983,0.00580,1.89997,1.89997,"[5.00000,0.00000,0.00000]","[1.30000,0.00000,0.00000]",-0.00700,0.06195,0.04355,0.00000,0.00000,0.01356,-0.01211,0.14061,0.00232,0.91903,3.24378,0.00733,1.81744,1.97919,2.01525,-1.59764,3.70840,3.15432,-1.63030,3.78063,2.01818,2.01818,57.78146,12.77350,57.78146085,12.77349655,A,132109.40,"[-0.20000,-0.00000,-0.00000]","[-0.10000,-0.00000,-0.00000]",4.25968,0.00000,0.00000,0.00000,0.00000,0.00000
17:55:24.226525,3.29364,0.03891,1.89997,1.50000,"[5.00000,0.00000,0.00000]","[1.30000,0.00000,0.00000]",-0.00677,0.06195,0.02736,0.00000,0.00000,0.00929,-0.02067,0.22881,0.03166,0.94221,3.25456,0.00488,1.83395,1.98036,2.01641,-1.60575,3.72560,3.27173,-1.71923,3.98448,1.98213,1.98213,57.78146,12.77349,57.78146101,12.77349641,A,132109.50,"[-0.20000,-0.00000,-0.00000]","[-0.10000,-0.00000,-0.00000]",4.27995,0.00000,0.00000,0.00000,0.00000,0.00000
17:55:24.238320,3.30544,0.00613,1.89997,1.89997,"[5.00000,0.00000,0.00000]","[1.30000,0.00000,0.00000]",-0.00627,0.06195,0.03011,0.00000,0.00000,0.01372,-0.03151,0.24498,-0.01903,1.02834,3.29914,0.01465,1.84715,1.97880,2.01485,-1.64345,3.80559,3.27173,-1.71923,3.98448,1.98213,1.98213,57.78146,12.77349,57.78146172,12.77349578,A,132109.50,"[-0.20000,-0.00000,-0.00000]","[-0.10000,-0.00000,-0.00000]",4.34678,0.00000,0.00000,0.00000,0.00000,0.00000
17:55:24.248214,3.31533,0.00563,1.89997,1.89997,"[5.00000,0.00000,0.00000]","[1.30000,0.00000,0.00000]",-0.00495,0.06195,0.02354,0.00000,0.00000,-0.00782,-0.02586,0.21984,0.10809,0.99162,3.30937,0.00000,1.85772,1.97460,2.01066,-1.65358,3.82786,3.27173,-1.71923,3.98448,1.98213,1.98213,57.78146,12.77349,57.78146192,12.77349561,A,132109.50,"[-0.20000,-0.00000,-0.00000]","[-0.10000,-0.00000,-0.00000]",4.36646,0.00000,0.00000,0.00000,0.00000,0.00000
17:55:24.258999,3.32612,0.00593,1.89997,1.89997,"[5.00000,0.00000,0.00000]","[1.30000,0.00000,0.00000]",-0.00616,0.06195,0.03438,0.00000,0.00000,-0.02477,-0.02555,0.20106,-0.05941,0.92037,3.31991,0.00733,1.86617,1.97105,2.00711,-1.66330,3.84938,3.27173,-1.71923,3.98448,1.98213,1.98213,57.78146,12.77349,57.78146212,12.77349544,A,132109.50,"[-0.20000,-0.00000,-0.00000]","[-0.10000,-0.00000,-0.00000]",4.38632,0.00000,0.00000,0.00000,0.00000,0.00000
17:55:24.268801,3.33592,0.00533,1.89997,1.89997,"[5.00000,0.00000,0.00000]","[1.30000,0.00000,0.00000]",-0.00523,0.06195,0.02568,0.00000,0.00000,-0.02843,-0.01486,0.04685,0.07588,0.90719,3.33017,0.00244,1.87293,1.96799,2.00405,-1.67214,3.86909,3.27173,-1.71923,3.98448,1.98213,1.98213,57.78146,12.77349,57.78146230,12.77349529,A,132109.50,"[-0.20000,-0.00000,-0.00000]","[-0.10000,-0.00000,-0.00000]",4.40600,0.00000,0.00000,0.00000,0.00000,0.00000
17:55:24.279334,3.34645,0.00560,1.89997,1.89997,"[5.00000,0.00000,0.00000]","[1.30000,0.00000,0.00000]",-0.00546,0.06195,0.03133,0.00000,0.00000,-0.01102,-0.01593,0.06069,0.00275,0.96392,3.34040,0.01709,1.87834,1.96543,2.00149,-1.68082,3.88854,3.27173,-1.71923,3.98448,1.98213,1.98213,57.78146,12.77349,57.78146247,12.77349515,A,132109.50,"[-0.20000,-0.00000,-0.00000]","[-0.10000,-0.00000,-0.00000]",4.42544,0.00000,0.00000,0.00000,0.00000,0.00000
17:55:24.290221,3.35733,0.00608,1.89997,1.89997,"[5.00000,0.00000,0.00000]","[1.30000,0.00000,0.00000]",-0.00575,0.06195,0.04019,0.00000,0.00000,0.00532,-0.01685,0.06856,-0.00823,0.94105,3.35098,0.00488,1.88266,1.96326,1.99932,-1.68910,3.90718,3.27173,-1.71923,3.98448,1.98213,1.98213,57.78146,12.77349,57.78146264,12.77349501,A,132109.50,"[-0.20000,-0.00000,-0.00000]","[-0.10000,-0.00000,-0.00000]",4.44512,0.00000,0.00000,0.00000,0.00000,0.00000
17:55:24.300294,3.36741,0.00591,1.89997,1.89997,"[5.00000,0.00000,0.00000]","[1.30000,0.00000,0.00000]",-0.00609,0.06195,0.03286,0.00000,0.00000,0.00104,-0.01960,0.25413,-0.00732,0.97344,3.36160,0.00244,1.88612,1.96145,1.99750,-1.69720,3.92547,3.27173,-1.71923,3.98448,1.98213,1.98213,57.78146,12.77349,57.78146280,12.77349487,A,132109.50,"[-0.20000,-0.00000,-0.00000]","[-0.10000,-0.00000,-0.00000]",4.46453,0.00000,0.00000,0.00000,0.00000,0.00000
17:55:24.343967,3.41108,0.03918,1.89997,1.50000,"[5.00000,0.00000,0.00000]","[1.30000,0.00000,0.00000]",-0.00579,0.06195,0.02293,0.00000,0.00000,-0.00873,-0.02845,0.09156,0.04215,0.98954,3.37162,0.00488,1.88889,1.95985,1.99591,-1.70440,3.94184,3.38857,-1.80815,4.16981,2.01818,2.01818,57.78146,12.77349,57.78146295,12.77349475,A,132109.60,"[-0.20000,-0.00000,-0.00000]","[-0.10000,-0.00000,-0.00000]",4.48422,0.00000,0.00000,0.00000,0.00000,0.00000
17:55:24.355602,3.42272,0.00568,1.89997,1.89997,"[5.00000,0.00000,0.00000]","[1.30000,0.00000,0.00000]",-0.00452,0.06195,0.03591,0.00000,0.00000,-0.00996,-0.02861,0.19618,0.01537,1.00046,3.41665,0.00977,1.89111,1.96691,2.00297,-1.74139,4.02349,3.38857,-1.80815,4.16981,2.01818,2.01818,57.78146,12.77349,57.78146368,12.77349413,A,132109.60,"[-0.20000,-0.00000,-0.00000]","[-0.10000,-0.00000,-0.00000]",4.55189,0.00000,0.00000,0.00000,0.00000,0.00000
17:55:24.366249,3.43337,0.00593,1.89997,1.89997,"[5.00000,0.00000,0.00000]","[1.30000,0.00000,0.00000]",-0.00440,0.06195,0.02598,0.00000,0.00000,-0.01729,-0.01960,0.09845,0.02867,1.00863,3.42734,0.01709,1.89288,1.96994,2.00600,-1.75122,4.04488,3.38857,-1.80815,4.16981,2.01818,2.01818,57.78146,12.77349,57.78146388,12.77349396,A,132109.60,"[-0.20000,-0.00000,-0.00000]","[-0.10000,-0.00000,-0.00000]",4.57159,0.00000,0.00000,0.00000,0.00000,0.00000
17:55:24.376167,3.44328,0.00545,1.89997,1.89997,"[5.00000,0.00000,0.00000]","[1.30000,0.00000,0.00000]",-0.00474,0.06195,0.03332,0.00000,0.00000,-0.00843,-0.01517,0.11084,-0.00586,1.02334,3.43731,0.00000,1.89430,1.97250,2.00856,-1.76046,4.06487,3.38857,-1.80815,4.16981,2.01818,2.01818,57.78146,12.77349,57.78146406,12.77349380,A,132109.60,"[-0.20000,-0.00000,-0.00000]","[-0.10000,-0.00000,-0.00000]",4.59127,0.00000,0.00000,0.00000,0.00000,0.00000
17:55:24.389792,3.45690,0.00867,1.89997,1.89997,"[5.00000,0.00000,0.00000]","[1.30000,0.00000,0.00000]",-0.00474,0.06195,0.02476,0.00000,0.00000,0.00012,-0.01196,0.06905,0.01946,0.97484,3.44889,0.00488,1.89543,1.97478,2.01084,-1.77018,4.08579,3.38857,-1.80815,4.16981,2.01818,2.01818,57.78146,12.77349,57.78146424,12.77349364,A,132109.60,"[-0.20000,-0.00000,-0.00000]","[-0.10000,-0.00000,-0.00000]",4.61096,0.00000,0.00000,0.00000,0.00000,0.00000
17:55:24.396829,3.46395,0.00546,1.89997,1.89997,"[5.00000,0.00000,0.00000]","[1.30000,0.00000,0.00000]",-0.00431,0.06195,0.01224,0.00000,0.00000,0.01692,-0.02158,0.06326,0.05783,0.95727,3.45820,0.00488,1.89634,1.97637,2.01242,-1.77635,4.09907,3.38857,-1.80815,4.16981,2.01818,2.01818,57.78146,12.77349,57.78146436,12.77349354,A,132109.60,"[-0.20000,-0.00000,-0.00000]","[-0.10000,-0.00000,-0.00000]",4.63040,0.00000,0.00000,0.00000,0.00000,0.00000
17:55:24.407268,3.47438,0.00555,1.89997,1.89997,"[5.00000,0.00000,0.00000]","[1.30000,0.00000,0.00000]",-0.00497,0.06195,0.01224,0.00000,0.00000,0.01478,-0.03059,0.19398,-0.00958,0.88377,3.46836,0.00000,1.89706,1.97796,2.01401,-1.78440,4.11627,3.38857,-1.80815,4.16981,2.01818,2.01818,57.78146,12.77349,57.78146452,12.77349340,A,132109.60,"[-0.20000,-0.00000,-0.00000]","[-0.10000,-0.00000,-0.00000]",4.64999,0.00000,0.00000,0.00000,0.00000,0.00000
17:55:24.417814,3.48493,0.00570,1.89997,1.89997,"[5.00000,0.00000,0.00000]","[1.30000,0.00000,0.00000]",-0.00433,0.06195,0.01453,0.00000,0.00000,-0.00232,-0.02861,0.13505,0.06966,0.97661,3.47895,0.00000,1.89765,1.97933,2.01538,-1.79221,4.13289,3.38857,-1.80815,4.16981,2.01818,2.01818,57.78146,12.77349,57.78146467,12.77349327,A,132109.60,"[-0.20000,-0.00000,-0.00000]","[-0.10000,-0.00000,-0.00000]",4.66967,0.00000,0.00000,0.00000,0.00000,0.00000
17:55:24.461519,3.52862,0.03900,1.89997,1.50000,"[5.00000,0.00000,0.00000]","[1.30000,0.00000,0.00000]",-0.00401,0.06195,0.00674,0.00000,0.00000,0.00180,-0.03807,0.05161,0.05581,1.00253,3.48914,0.00488,1.89811,1.98048,2.01654,-1.79955,4.14848,3.50689,-1.90696,4.39220,1.98889,1.98889,57.78147,12.77349,57.78146481,12.77349315,A,132109.70,"[-0.20000,-0.00000,-0.00000]","[-0.10000,-0.00000,-0.00000]",4.68936,0.00000,0.00000,0.00000,0.00000,0.00000
17:55:24.472788,3.53991,0.00560,2.45613,2.45613,"[5.00000,0.00000,0.00000]","[1.30000,0.00000,0.00000]",-0.00472,0.06195,0.00338,0.00000,0.00000,-0.00461,-0.01303,0.09882,-0.00317,0.93312,3.53413,0.00244,2.00971,1.98008,2.01613,-1.83836,4.23065,3.50689,-1.90696,4.39220,1.98889,1.98889,57.78147,12.77349,57.78146555,12.77349249,A,132109.70,"[-0.20000,-0.00000,-0.00000]","[-0.10000,-0.00000,-0.00000]",4.75635,0.00000,0.00000,0.00000,0.00000,0.00000
17:55:24.483445,3.55056,0.00561,2.45613,2.45613,"[5.00000,0.00000,0.00000]","[1.30000,0.00000,0.00000]",-0.00458,0.06195,0.00018,0.00000,0.00000,-0.01301,-0.00051,-0.11675,0.05978,0.98173,3.54451,0.00488,2.09900,1.97678,2.01284,-1.84886,4.25354,3.50689,-1.90696,4.39220,1.98889,1.98889,57.78147,12.77349,57.78146575,12.77349231,A,132109.70,"[-0.20000,-0.00000,-0.00000]","[-0.10000,-0.00000,-0.00000]",4.78241,0.00000,0.00000,0.00000,0.00000,0.00000
17:55:24.494712,3.56183,0.00640,2.45613,2.45613,"[5.00000,0.00000,0.00000]","[1.30000,0.00000,0.00000]",-0.00552,0.06195,0.00109,0.00000,0.00000,0.00944,-0.00478,0.02995,-0.01000,0.94940,3.55572,0.01221,2.17042,1.97407,2.01013,-1.85959,4.27701,3.50689,-1.90696,4.39220,1.98889,1.98889,57.78147,12.77349,57.78146596,12.77349213,A,132109.70,"[-0.20000,-0.00000,-0.00000]","[-0.10000,-0.00000,-0.00000]",4.80805,0.00000,0.00000,0.00000,0.00000,0.00000
17:55:24.504163,3.57128,0.00546,2.45613,2.45613,"[5.00000,0.00000,0.00000]","[1.30000,0.00000,0.00000]",-0.00679,0.06195,0.00628,0.00000,0.00000,0.02349,-0.01089,0.14311,-0.03294,0.92232,3.56532,0.00000,2.22756,1.97165,2.00771,-1.86872,4.29714,3.50689,-1.90696,4.39220,1.98889,1.98889,57.78147,12.77349,57.78146615,12.77349198,A,132109.70,"[-0.20000,-0.00000,-0.00000]","[-0.10000,-0.00000,-0.00000]",4.83350,0.00000,0.00000,0.00000,0.00000,0.00000
17:55:24.514835,3.58196,0.00573,2.45613,2.45613,"[5.00000,0.00000,0.00000]","[1.30000,0.00000,0.00000]",-0.00849,0.06195,0.00735,0.00000,0.00000,0.02700,-0.01501,0.24912,-0.06966,0.99869,3.57593,0.00000,2.27328,1.96971,2.00577,-1.87837,4.31847,3.50689,-1.90696,4.39220,1.98889,1.98889,57.78147,12.77349,57.78146634,12.77349182,A,132109.70,"[-0.20000,-0.00000,-0.00000]","[-0.10000,-0.00000,-0.00000]",4.85896,0.00000,0.00000,0.00000,0.00000,0.00000
17:55:24.525068,3.59218,0.00556,2.45613,2.45613,"[5.00000,0.00000,0.00000]","[1.30000,0.00000,0.00000]",-0.00774,0.06195,-0.00914,0.00000,0.00000,0.01387,-0.01608,0.12810,0.10193,0.97435,3.58645,0.00733,2.30985,1.96807,2.00412,-1.88753,4.33879,3.50689,-1.90696,4.39220,1.98889,1.98889,57.78147,12.77349,57.78146652,12.77349166,A,132109.70,"[-0.20000,-0.00000,-0.00000]","[-0.10000,-0.00000,-0.00000]",4.88442,0.00000,0.00000,0.00000,0.00000,0.00000
17:55:24.535288,3.60241,0.00555,2.45613,2.45613,"[5.00000,0.00000,0.00000]","[1.30000,0.00000,0.00000]",-0.00783,0.06195,-0.00990,0.00000,0.00000,0.00562,-0.01364,-0.01202,0.04880,1.01156,3.59639,0.00000,2.33910,1.96665,2.00270,-1.89603,4.35775,3.50689,-1.90696,4.39220,1.98889,1.98889,57.78147,12.77349,57.78146669,12.77349152,A,132109.70,"[-0.20000,-0.00000,-0.00000]","[-0.10000,-0.00000,-0.00000]",4.90946,0.00000,0.00000,0.00000,0.00000,0.00000
17:55:24.608809,3.67591,0.06864,2.45613,1.50000,"[5.00000,0.00000,0.00000]","[1.30000,0.00000,0.00000]",-0.00813,0.06195,-0.00746,0.00000,0.00000,0.00822,-0.01547,0.11340,0.03312,1.07159,3.60718,0.00977,2.36251,1.96552,2.00157,-1.90472,4.37714,3.63473,-2.11445,4.85551,1.99186,1.99186,57.78147,12.77349,57.78146686,12.77349137,A,132109.90,"[-0.20000,-0.00000,-0.00000]","[-0.10000,-0.00000,-0.00000]",4.93493,0.00000,0.00000,0.00000,0.00000,0.00000
17:55:24.628350,3.69547,0.00772,2.45613,2.45613,"[5.00000,0.00000,0.00000]","[1.30000,0.00000,0.00000]",-0.00544,0.06195,0.03087,0.00000,0.00000,0.02043,-0.01792,0.11248,0.05941,0.97588,3.68964,0.00000,2.38123,1.97280,2.00885,-1.99086,4.56566,3.63473,-2.11445,4.85551,1.99186,1.99186,57.78147,12.77349,57.78146856,12.77348992,A,132109.90,"[-0.20000,-0.00000,-0.00000]","[-0.10000,-0.00000,-0.00000]",5.05561,0.00000,0.00000,0.00000,0.00000,0.00000
17:55:24.636794,3.70391,0.00576,2.45613,2.45613,"[5.00000,0.00000,0.00000]","[1.30000,0.00000,0.00000]",-0.00571,0.06195,0.02217,0.00000,0.00000,0.01845,-0.01929,0.04605,0.01964,1.02730,3.69786,0.00733,2.39621,1.97095,2.00700,-2.00319,4.59329,3.63473,-2.11445,4.85551,1.99186,1.99186,57.78147,12.77349,57.78146881,12.77348971,A,132109.90,"[-0.20000,-0.00000,-0.00000]","[-0.10000,-0.00000,-0.00000]",5.08107,0.00000,0.00000,0.00000,0.00000,0.00000
17:55:24.647159,3.71428,0.00559,2.45613,2.45613,"[5.00000,0.00000,0.00000]","[1.30000,0.00000,0.00000]",-0.00755,0.06195,0.03255,0.00000,0.00000,0.00883,-0.02708,0.17916,-0.10071,1.04054,3.70823,0.00488,2.40819,1.96962,2.00567,-2.01701,4.62411,3.63473,-2.11445,4.85551,1.99186,1.99186,57.78147,12.77349,57.78146909,12.77348948,A,132109.90,"[-0.20000,-0.00000,-0.00000]","[-0.10000,-0.00000,-0.00000]",5.10687,0.00000,0.00000,0.00000,0.00000,0.00000
17:55:24.658100,3.72521,0.00611,2.45613,2.45613,"[5.00000,0.00000,0.00000]","[1.30000,0.00000,0.00000]",-0.00760,0.06195,0.01346,0.00000,0.00000,0.00684,-0.02616,-0.03056,0.03593,1.08909,3.71891,0.01709,2.41778,1.96850,2.00455,-2.03019,4.65357,3.63473,-2.11445,4.85551,1.99186,1.99186,57.78147,12.77349,57.78146935,12.77348925,A,132109.90,"[-0.20000,-0.00000,-0.00000]","[-0.10000,-0.00000,-0.00000]",5.13233,0.00000,0.00000,0.00000,0.00000,0.00000
17:55:24.667766,3.73488,0.00556,2.45613,2.45613,"[5.00000,0.00000,0.00000]","[1.30000,0.00000,0.00000]",-0.00764,0.06195,0.01224,0.00000,0.00000,0.01219,-0.03136,0.16116,0.03819,1.06726,3.72889,0.01465,2.42545,1.96750,2.00356,-2.04233,4.68079,3.63473,-2.11445,4.85551,1.99186,1.99186,57.78147,12.77349,57.78146960,12.77348905,A,132109.90,"[-0.20000,-0.00000,-0.00000]","[-0.10000,-0.00000,-0.00000]",5.15738,0.00000,0.00000,0.00000,0.00000,0.00000
17:55:24.730085,3.79719,0.05762,2.45613,1.50000,"[5.00000,0.00000,0.00000]","[1.30000,0.00000,0.00000]",-0.00543,0.06195,0.00323,0.00000,0.00000,0.00058,-0.03029,0.22149,0.20551,1.06683,3.73935,0.00244,2.43158,1.96669,2.00274,-2.05411,4.70723,3.75675,-2.22314,5.09643,1.99459,1.99459,57.78147,12.77349,57.78146983,12.77348885,A,132110.00,"[-0.20000,-0.00000,-0.00000]","[-0.10000,-0.00000,-0.00000]",5.18243,0.00000,0.00000,0.00000,0.00000,0.00000
17:55:24.754114,3.82123,0.00966,2.94815,2.94815,"[5.00000,0.00000,0.00000]","[1.30000,0.00000,0.00000]",-0.00370,0.05978,0.04538,0.00000,0.00000,-0.01225,-0.04785,-0.02568,-0.04471,0.95996,3.81517,0.00733,2.53490,1.97391,2.00869,-2.13420,4.88208,3.75675,-2.22314,5.09643,1.99459,1.99459,57.78147,12.77349,57.78147141,12.77348750,A,132110.00,"[-0.20000,-0.00000,-0.00000]","[-0.10000,-0.00000,-0.00000]",5.29039,0.00000,0.00000,0.00000,0.00000,0.00000
17:55:24.761085,3.82820,0.00558,2.94815,2.94815,"[5.00000,0.00000,0.00000]","[1.30000,0.00000,0.00000]",-0.00502,0.05975,0.05622,0.00000,0.00000,0.00073,-0.03578,-0.02507,-0.04453,0.93269,3.82242,0.00977,2.61755,1.97241,2.00718,-2.14424,4.90474,3.75675,-2.22314,5.09643,1.99459,1.99459,57.78147,12.77349,57.78147161,12.77348733,A,132110.00,"[-0.20000,-0.00000,-0.00000]","[-0.10000,-0.00000,-0.00000]",5.32295,0.00000,0.00000,0.00000,0.00000,0.00000
17:55:24.771328,3.83845,0.00558,2.94815,2.94815,"[5.00000,0.00000,0.00000]","[1.30000,0.00000,0.00000]",-0.00619,0.05975,0.04691,0.00000,0.00000,0.00761,-0.02876,-0.01324,-0.04935,1.03242,3.83243,0.01221,2.68367,1.97147,2.00624,-2.15682,4.93285,3.75675,-2.22314,5.09643,1.99459,1.99459,57.78147,12.77349,57.78147186,12.77348712,A,132110.00,"[-0.20000,-0.00000,-0.00000]","[-0.10000,-0.00000,-0.00000]",5.35303,0.00000,0.00000,0.00000,0.00000,0.00000
17:55:24.782147,3.84926,0.00599,2.94815,2.94815,"[5.00000,0.00000,0.00000]","[1.30000,0.00000,0.00000]",-0.00750,0.05975,0.03988,0.00000,0.00000,0.01265,-0.02891,0.14689,-0.05807,1.05347,3.84300,0.00000,2.73656,1.97074,2.00550,-2.16932,4.96077,3.75675,-2.22314,5.09643,1.99459,1.99459,57.78147,12.77349,57.78147211,12.77348691,A,132110.00,"[-0.20000,-0.00000,-0.00000]","[-0.10000,-0.00000,-0.00000]",5.38359,0.00000,0.00000,0.00000,0.00000,0.00000
17:55:24.839267,3.90637,0.05271,2.94815,1.50000,"[5.00000,0.00000,0.00000]","[1.30000,0.00000,0.00000]",-0.00832,0.05975,0.03148,0.00000,0.00000,0.00180,-0.03059,0.20295,-0.01507,0.99351,3.85317,0.00488,2.77888,1.97011,2.00488,-2.18120,4.98734,3.87005,-2.33182,5.35589,1.96749,1.96749,57.78148,12.77348,57.78147235,12.77348671,A,132110.10,"[-0.20000,-0.00000,-0.00000]","[-0.10000,-0.00000,-0.00000]",5.41413,0.00000,0.00000,0.00000,0.00000,0.00000
17:55:24.858573,3.92569,0.00858,2.94815,2.94815,"[5.00000,0.00000,0.00000]","[1.30000,0.00000,0.00000]",-0.00980,0.05375,-0.01616,0.00000,0.00000,-0.01744,-0.06984,-0.06930,0.02733,0.95038,3.91956,0.00977,2.81273,1.97294,2.00421,-2.26027,5.16008,3.87005,-2.33182,5.35589,1.96749,1.96749,57.78148,12.77348,57.78147391,12.77348537,A,132110.10,"[-0.20000,-0.00000,-0.00000]","[-0.10000,-0.00000,-0.00000]",5.50926,0.00000,0.00000,0.00000,0.00000,0.00000
17:55:24.866105,3.93322,0.00577,2.94815,2.94815,"[5.00000,0.00000,0.00000]","[1.30000,0.00000,0.00000]",-0.01090,0.05273,-0.01235,0.00000,0.00000,-0.01454,-0.07549,-0.14902,-0.01598,1.03572,3.92723,0.00488,2.83981,1.96814,1.99882,-2.27008,5.18335,3.87005,-2.33182,5.35589,1.96749,1.96749,57.78148,12.77348,57.78147411,12.77348521,A,132110.10,"[-0.20000,-0.00000,-0.00000]","[-0.10000,-0.00000,-0.00000]",5.53942,0.00000,0.00000,0.00000,0.00000,0.00000
17:55:24.876203,3.94332,0.00548,2.94815,2.94815,"[5.00000,0.00000,0.00000]","[1.30000,0.00000,0.00000]",-0.01210,0.05168,-0.02166,0.00000,0.00000,0.01158,-0.07228,0.09498,-0.01244,0.95813,3.93736,0.00488,2.86148,1.96448,1.99455,-2.28278,5.21305,3.87005,-2.33182,5.35589,1.96749,1.96749,57.78148,12.77348,57.78147438,12.77348499,A,132110.10,"[-0.20000,-0.00000,-0.00000]","[-0.10000,-0.00000,-0.00000]",5.56998,0.00000,0.00000,0.00000,0.00000,0.00000
17:55:24.886905,3.95402,0.00577,2.94815,2.94815,"[5.00000,0.00000,0.00000]","[1.30000,0.00000,0.00000]",-0.01282,0.05080,-0.03464,0.00000,0.00000,-0.00186,-0.07580,0.03068,0.02544,1.04084,3.94796,0.00733,2.87881,1.96145,1.99100,-2.29488,5.24158,3.87005,-2.33182,5.35589,1.96749,1.96749,57.78148,12.77348,57.78147464,12.77348479,A,132110.10,"[-0.20000,-0.00000,-0.00000]","[-0.10000,-0.00000,-0.00000]",5.60054,0.00000,0.00000,0.00000,0.00000,0.00000
17:55:24.897002,3.96412,0.00548,2.94815,2.94815,"[5.00000,0.00000,0.00000]","[1.30000,0.00000,0.00000]",-0.01311,0.05007,-0.03296,0.00000,0.00000,-0.00033,-0.07167,-0.01976,0.05234,1.10044,3.95838,0.00733,2.89268,1.95889,1.98802,-2.30605,5.26815,3.87005,-2.33182,5.35589,1.96749,1.96749,57.78148,12.77348,57.78147488,12.77348460,A,132110.10,"[-0.20000,-0.00000,-0.00000]","[-0.10000,-0.00000,-0.00000]",5.63109,0.00000,0.00000,0.00000,0.00000,0.00000
17:55:24.959557,4.02622,0.05733,2.94815,1.50000,"[5.00000,0.00000,0.00000]","[1.30000,0.00000,0.00000]",-0.01465,0.04927,-0.03648,0.00000,0.00000,0.00455,-0.06175,0.13133,-0.03904,1.11722,3.96844,0.01465,2.90377,1.95677,1.98544,-2.31660,5.29344,3.98548,-2.45039,5.61534,1.99944,1.99944,57.78148,12.77348,57.78147511,12.77348442,A,132110.20,"[-0.20000,-0.00000,-0.00000]","[-0.10000,-0.00000,-0.00000]",5.66119,0.00000,0.00000,0.00000,0.00000,0.00000
17:55:24.981678,4.04879,0.00758,2.74303,2.74303,"[5.00000,0.00000,0.00000]","[1.30000,0.00000,0.00000]",-0.01965,0.04415,-0.05602,0.00000,0.00000,-0.00064,-0.07534,0.04910,-0.02123,0.97655,4.04272,0.00244,2.87162,1.96696,1.99265,-2.40360,5.49199,3.98548,-2.45039,5.61534,1.99944,1.99944,57.78148,12.77348,57.78147689,12.77348296,A,132110.20,"[-0.20000,-0.00000,-0.00000]","[-0.10000,-0.00000,-0.00000]",5.76963,0.00000,0.00000,0.00000,0.00000,0.00000
17:55:24.990217,4.05734,0.00573,2.74303,2.74303,"[5.00000,0.00000,0.00000]","[1.30000,0.00000,0.00000]",-0.01949,0.04415,-0.05969,0.00000,0.00000,0.00455,-0.07671,-0.03178,0.08101,1.09123,4.05136,0.01709,2.84590,1.96862,1.99431,-2.41357,5.51516,3.98548,-2.45039,5.61534,1.99944,1.99944,57.78148,12.77348,57.78147710,12.77348279,A,132110.20,"[-0.20000,-0.00000,-0.00000]","[-0.10000,-0.00000,-0.00000]",5.79805,0.00000,0.00000,0.00000,0.00000,0.00000
17:55:25.000415,4.06753,0.00552,2.74303,2.74303,"[5.00000,0.00000,0.00000]","[1.30000,0.00000,0.00000]",-0.01958,0.04415,-0.06091,0.00000,0.00000,0.01601,-0.08496,0.05148,0.07076,1.04725,4.06178,0.00244,2.82533,1.97020,1.99588,-2.42506,5.54157,3.98548,-2.45039,5.61534,1.99944,1.99944,57.78148,12.77348,57.78147734,12.77348259,A,132110.20,"[-0.20000,-0.00000,-0.00000]","[-0.10000,-0.00000,-0.00000]",5.82647,0.00000,0.00000,0.00000,0.00000,0.00000
17:55:25.011046,4.07817,0.00558,2.74303,2.74303,"[5.00000,0.00000,0.00000]","[1.30000,0.00000,0.00000]",-0.02003,0.04415,-0.05801,0.00000,0.00000,0.02211,-0.08404,-0.01879,0.04313,1.06902,4.07212,0.02198,2.80887,1.97153,1.99721,-2.43583,5.56625,3.98548,-2.45039,5.61534,1.99944,1.99944,57.78148,12.77348,57.78147756,12.77348241,A,132110.20,"[-0.20000,-0.00000,-0.00000]","[-0.10000,-0.00000,-0.00000]",5.85538,0.00000,0.00000,0.00000,0.00000,0.00000
17:55:25.073364,4.13976,0.05678,2.74303,1.50000,"[5.00000,0.00000,0.00000]","[1.30000,0.00000,0.00000]",-0.02063,0.04415,-0.05938,0.00000,0.00000,0.01784,-0.08588,0.17916,0.03373,1.05316,4.08273,0.02930,2.79570,1.97265,1.99833,-2.44600,5.58950,4.09954,-2.56896,5.89333,1.97395,1.97395,57.78148,12.77348,57.78147777,12.77348224,A,132110.30,"[-0.20000,-0.00000,-0.00000]","[-0.10000,-0.00000,-0.00000]",5.88381,0.00000,0.00000,0.00000,0.00000,0.00000
17:55:25.094003,4.16111,0.00955,2.74303,2.74303,"[5.00000,0.00000,0.00000]","[1.30000,0.00000,0.00000]",-0.02464,0.04415,-0.04320,0.00000,0.00000,-0.01713,-0.04922,-0.04343,-0.03056,0.99735,4.15502,0.03663,2.78517,1.97543,2.00111,-2.52986,5.77524,4.09954,-2.56896,5.89333,1.97395,1.97395,57.78148,12.77348,57.78147944,12.77348083,A,132110.30,"[-0.20000,-0.00000,-0.00000]","[-0.10000,-0.00000,-0.00000]",5.98664,0.00000,0.00000,0.00000,0.00000,0.00000
17:55:25.100641,4.16776,0.00544,2.74303,2.74303,"[5.00000,0.00000,0.00000]","[1.30000,0.00000,0.00000]",-0.02556,0.04415,-0.05984,0.00000,0.00000,-0.01713,-0.05762,-0.11560,-0.00854,1.07067,4.16201,0.01709,2.77674,1.97183,1.99751,-2.53752,5.79358,4.09954,-2.56896,5.89333,1.97395,1.97395,57.78148,12.77348,57.78147960,12.77348070,A,132110.30,"[-0.20000,-0.00000,-0.00000]","[-0.10000,-0.00000,-0.00000]",6.01610,0.00000,0.00000,0.00000,0.00000,0.00000
17:55:25.111333,4.17845,0.00558,2.74303,2.74303,"[5.00000,0.00000,0.00000]","[1.30000,0.00000,0.00000]",-0.02619,0.04415,-0.05633,0.00000,0.00000,0.00348,-0.05808,0.04514,0.02318,1.04664,4.17243,0.02442,2.77000,1.96908,1.99476,-2.54855,5.81937,4.09954,-2.56896,5.89333,1.97395,1.97395,57.78148,12.77348,57.78147983,12.77348051,A,132110.30,"[-0.20000,-0.00000,-0.00000]","[-0.10000,-0.00000,-0.00000]",6.04498,0.00000,0.00000,0.00000,0.00000,0.00000
17:55:25.121910,4.18903,0.00575,2.74303,2.74303,"[5.00000,0.00000,0.00000]","[1.30000,0.00000,0.00000]",-0.02628,0.04415,-0.07053,0.00000,0.00000,0.00287,-0.05044,-0.04544,0.07235,1.07702,4.18305,0.03663,2.76460,1.96673,1.99242,-2.55887,5.84366,4.09954,-2.56896,5.89333,1.97395,1.97395,57.78148,12.77348,57.78148005,12.77348034,A,132110.30,"[-0.20000,-0.00000,-0.00000]","[-0.10000,-0.00000,-0.00000]",6.07340,0.00000,0.00000,0.00000,0.00000,0.00000
17:55:25.132006,4.19913,0.00546,2.74303,2.74303,"[5.00000,0.00000,0.00000]","[1.30000,0.00000,0.00000]",-0.02613,0.04415,-0.06259,0.00000,0.00000,0.01356,-0.04709,-0.00482,0.07881,1.02937,4.19317,0.01465,2.76029,1.96472,1.99040,-2.56838,5.86622,4.09954,-2.56896,5.89333,1.97395,1.97395,57.78148,12.77348,57.78148026,12.77348018,A,132110.30,"[-0.20000,-0.00000,-0.00000]","[-0.10000,-0.00000,-0.00000]",6.10181,0.00000,0.00000,0.00000,0.00000,0.00000
17:55:25.205272,4.27219,0.06812,2.74303,1.50000,"[5.00000,0.00000,0.00000]","[1.30000,0.00000,0.00000]",-0.02587,0.04421,-0.05786,0.00000,0.00000,0.01142,-0.03762,0.00061,0.08632,1.02449,4.20404,0.01954,2.75684,1.96305,1.98877,-2.57791,5.88889,4.23189,-2.81597,6.44931,1.98889,1.98889,57.78149,12.77348,57.78148046,12.77348002,A,132110.50,"[-0.20000,-0.00000,-0.00000]","[-0.10000,-0.00000,-0.00000]",6.13024,0.00000,0.00000,0.00000,0.00000,0.00000
17:55:25.226849,4.29397,0.01045,3.06966,1.50000,"[5.00000,0.00000,0.00000]","[1.30000,0.00000,0.00000]",-0.02914,0.05027,-0.02655,0.00000,0.00000,-0.01072,-0.02326,-0.10596,-0.06033,0.95538,4.28785,0.03663,2.50547,1.96989,1.99914,-2.67657,6.11223,4.23189,-2.81597,6.44931,1.98889,1.98889,57.78149,12.77348,57.78148247,12.77347835,A,132110.50,"[-0.20000,-0.00000,-0.00000]","[-0.10000,-0.00000,-0.00000]",6.24938,0.00000,0.00000,0.00000,0.00000,0.00000
17:55:25.250468,4.31759,0.01080,3.06966,1.50000,"[5.00000,0.00000,0.00000]","[1.30000,0.00000,0.00000]",-0.02924,0.05072,-0.03052,0.00000,0.00000,0.01020,-0.04037,-0.13798,0.04642,1.04084,4.31132,0.02930,2.30437,1.97031,1.99981,-2.70467,6.17536,4.23189,-2.81597,6.44931,1.98889,1.98889,57.78149,12.77348,57.78148304,12.77347788,A,132110.50,"[-0.20000,-0.00000,-0.00000]","[-0.10000,-0.00000,-0.00000]",6.28424,0.00000,0.00000,0.00000,0.00000,0.00000
17:55:25.323581,4.39068,0.06178,3.06966,1.50000,"[5.00000,0.00000,0.00000]","[1.30000,0.00000,0.00000]",-0.03076,0.05072,-0.02915,0.00000,0.00000,0.02059,-0.05365,-0.05832,-0.06015,1.05579,4.33233,0.03663,2.14350,1.97029,1.99980,-2.72734,6.22647,4.34937,-2.93454,6.72729,1.97395,1.97395,57.78149,12.77347,57.78148350,12.77347749,A,132110.60,"[-0.20000,-0.00000,-0.00000]","[-0.10000,-0.00000,-0.00000]",6.31736,0.00000,0.00000,0.00000,0.00000,0.00000
17:55:25.346423,4.41354,0.01006,3.06966,1.50000,"[5.00000,0.00000,0.00000]","[1.30000,0.00000,0.00000]",-0.03210,0.05072,-0.00379,0.00000,0.00000,-0.02569,-0.03609,-0.15183,-0.06722,0.99656,4.40743,0.03663,2.01480,1.97228,2.00179,-2.79953,6.38668,4.34937,-2.93454,6.72729,1.97395,1.97395,57.78149,12.77347,57.78148494,12.77347628,A,132110.60,"[-0.20000,-0.00000,-0.00000]","[-0.10000,-0.00000,-0.00000]",6.42920,0.00000,0.00000,0.00000,0.00000,0.00000
17:55:25.369992,4.43711,0.01148,3.06966,1.50000,"[5.00000,0.00000,0.00000]","[1.30000,0.00000,0.00000]",-0.03214,0.05072,0.00644,0.00000,0.00000,0.02715,-0.05655,-0.02281,-0.01031,1.01077,4.43106,0.05372,1.91184,1.96974,1.99925,-2.82353,6.44122,4.34937,-2.93454,6.72729,1.97395,1.97395,57.78149,12.77347,57.78148543,12.77347587,A,132110.60,"[-0.20000,-0.00000,-0.00000]","[-0.10000,-0.00000,-0.00000]",6.46239,0.00000,0.00000,0.00000,0.00000,0.00000
17:55:25.445682,4.51231,0.06364,3.06966,1.50000,"[5.00000,0.00000,0.00000]","[1.30000,0.00000,0.00000]",-0.03069,0.05072,0.02156,0.00000,0.00000,0.00073,-0.04678,-0.13292,0.07314,1.06482,4.45164,0.04151,1.82947,1.96729,1.99680,-2.84326,6.48657,4.46880,-3.05311,7.00528,1.97395,1.97395,57.78149,12.77347,57.78148584,12.77347554,A,132110.70,"[-0.20000,-0.00000,-0.00000]","[-0.10000,-0.00000,-0.00000]",6.49691,0.00000,0.00000,0.00000,0.00000,0.00000
17:55:25.469792,4.53690,0.01078,3.30761,1.50000,"[5.00000,0.00000,0.00000]","[1.30000,0.00000,0.00000]",-0.02918,0.05072,0.02537,0.00000,0.00000,-0.01332,-0.04907,-0.06216,-0.02574,0.93483,4.53087,0.05861,1.76358,1.96915,1.99866,-2.90905,6.63436,4.46880,-3.05311,7.00528,1.97395,1.97395,57.78149,12.77347,57.78148716,12.77347443,A,132110.70,"[-0.20000,-0.00000,-0.00000]","[-0.10000,-0.00000,-0.00000]",6.61306,0.00000,0.00000,0.00000,0.00000,0.00000
17:55:25.492794,4.55991,0.01075,3.30761,1.50000,"[5.00000,0.00000,0.00000]","[1.30000,0.00000,0.00000]",-0.02857,0.05072,0.01759,0.00000,0.00000,0.02043,-0.06083,-0.04520,0.01928,1.00278,4.55410,0.08059,1.71086,1.96686,1.99637,-2.93117,6.68561,4.46880,-3.05311,7.00528,1.97395,1.97395,57.78149,12.77347,57.78148763,12.77347406,A,132110.70,"[-0.20000,-0.00000,-0.00000]","[-0.10000,-0.00000,-0.00000]",6.64759,0.00000,0.00000,0.00000,0.00000,0.00000
17:55:25.568979,4.63606,0.06410,3.30761,1.50000,"[5.00000,0.00000,0.00000]","[1.30000,0.00000,0.00000]",-0.02864,0.05072,0.02843,0.00000,0.00000,0.01982,-0.05762,0.04148,-0.03959,1.00229,4.57570,0.05617,1.66869,1.96477,1.99428,-2.95055,6.73091,4.59271,-3.17167,7.28327,1.97395,1.97395,57.78149,12.77347,57.78148803,12.77347373,A,132110.80,"[-0.20000,-0.00000,-0.00000]","[-0.10000,-0.00000,-0.00000]",6.68174,0.00000,0.00000,0.00000,0.00000,0.00000
17:55:25.592921,4.66004,0.01038,3.30761,1.50000,"[5.00000,0.00000,0.00000]","[1.30000,0.00000,0.00000]",-0.02586,0.05072,0.04401,0.00000,0.00000,-0.00293,-0.05579,0.02452,-0.03300,0.93324,4.65420,0.03907,1.63495,1.96650,1.99601,-3.01140,6.86899,4.59271,-3.17167,7.28327,1.97395,1.97395,57.78149,12.77347,57.78148927,12.77347270,A,132110.80,"[-0.20000,-0.00000,-0.00000]","[-0.10000,-0.00000,-0.00000]",6.79826,0.00000,0.00000,0.00000,0.00000,0.00000
17:55:25.617309,4.68423,0.01077,3.30761,1.50000,"[5.00000,0.00000,0.00000]","[1.30000,0.00000,0.00000]",-0.02337,0.05072,0.03836,0.00000,0.00000,-0.00675,-0.07167,-0.01415,0.11413,1.00162,4.67826,0.04884,1.60796,1.96456,1.99407,-3.03367,6.92118,4.59271,-3.17167,7.28327,1.97395,1.97395,57.78149,12.77347,57.78148974,12.77347233,A,132110.80,"[-0.20000,-0.00000,-0.00000]","[-0.10000,-0.00000,-0.00000]",6.83390,0.00000,0.00000,0.00000,0.00000,0.00000
17:55:25.704939,4.77204,0.07728,3.30761,1.50000,"[5.00000,0.00000,0.00000]","[1.30000,0.00000,0.00000]",-0.02266,0.05072,0.05393,0.00000,0.00000,0.00791,-0.07641,-0.01324,-0.02666,0.98369,4.70238,0.09280,1.58637,1.96289,1.99240,-3.05457,6.97036,4.73056,-3.38905,7.85777,1.93251,1.93251,57.78150,12.77347,57.78149019,12.77347198,A,132111.00,"[-0.20000,-0.00000,-0.00000]","[-0.10000,-0.00000,-0.00000]",6.86583,0.00000,0.00000,0.00000,0.00000,0.00000
17:55:25.726977,4.79409,0.00893,2.81655,2.81655,"[5.00000,0.00000,0.00000]","[1.30000,0.00000,0.00000]",-0.01883,0.05072,0.03729,0.00000,0.00000,-0.02110,-0.03487,0.11492,0.08302,1.04523,4.78792,0.04640,1.83241,1.95887,1.98837,-3.12270,7.12936,4.73056,-3.38905,7.85777,1.93251,1.93251,57.78150,12.77347,57.78149162,12.77347083,A,132111.00,"[-0.20000,-0.00000,-0.00000]","[-0.10000,-0.00000,-0.00000]",7.00139,0.00000,0.00000,0.00000,0.00000,0.00000
17:55:25.733933,4.80105,0.00576,2.81655,2.81655,"[5.00000,0.00000,0.00000]","[1.30000,0.00000,0.00000]",-0.01814,0.05077,0.02461,0.00000,0.00000,-0.03439,-0.03258,0.00268,0.07515,1.02138,4.79507,0.04396,2.02923,1.95082,1.98037,-3.13955,7.17373,4.73056,-3.38905,7.85777,1.93251,1.93251,57.78150,12.77347,57.78149201,12.77347054,A,132111.00,"[-0.20000,-0.00000,-0.00000]","[-0.10000,-0.00000,-0.00000]",7.02992,0.00000,0.00000,0.00000,0.00000,0.00000
17:55:25.744488,4.81160,0.00590,2.81655,2.81655,"[5.00000,0.00000,0.00000]","[1.30000,0.00000,0.00000]",-0.01711,0.05114,0.03041,0.00000,0.00000,-0.02431,-0.02158,-0.17611,0.08534,0.96258,4.80569,0.05128,2.18670,1.94429,1.97405,-3.15885,7.22365,4.73056,-3.38905,7.85777,1.93251,1.93251,57.78150,12.77347,57.78149246,12.77347022,A,132111.00,"[-0.20000,-0.00000,-0.00000]","[-0.10000,-0.00000,-0.00000]",7.05910,0.00000,0.00000,0.00000,0.00000,0.00000
17:55:25.754752,4.82187,0.00577,2.81655,2.81655,"[5.00000,0.00000,0.00000]","[1.30000,0.00000,0.00000]",-0.01622,0.05185,0.03423,0.00000,0.00000,-0.00156,-0.01104,-0.13091,0.07143,0.83820,4.81582,0.04396,2.31267,1.93869,1.96886,-3.17717,7.27132,4.73056,-3.38905,7.85777,1.93251,1.93251,57.78150,12.77347,57.78149289,12.77346991,A,132111.00,"[-0.20000,-0.00000,-0.00000]","[-0.10000,-0.00000,-0.00000]",7.08828,0.00000,0.00000,0.00000,0.00000,0.00000
17:55:25.818638,4.88573,0.05923,2.81655,1.50000,"[5.00000,0.00000,0.00000]","[1.30000,0.00000,0.00000]",-0.01476,0.05267,0.03270,0.00000,0.00000,-0.00064,-0.00310,-0.07271,0.10114,0.79520,4.82618,0.05128,2.41344,1.93390,1.96455,-3.19484,7.31748,4.84297,-3.48785,8.13576,1.91230,1.91230,57.78150,12.77346,57.78149331,12.77346961,A,132111.10,"[-0.20000,-0.00000,-0.00000]","[-0.10000,-0.00000,-0.00000]",7.11747,0.00000,0.00000,0.00000,0.00000,0.00000
17:55:25.841417,4.90831,0.01019,2.81655,2.81655,"[5.00000,0.00000,0.00000]","[1.30000,0.00000,0.00000]",-0.01348,0.05369,0.01804,0.00000,0.00000,-0.00171,-0.04831,-0.13109,0.04191,1.01248,4.90111,0.07082,2.49407,1.93286,1.96410,-3.27386,7.51334,4.84297,-3.48785,8.13576,1.91230,1.91230,57.78150,12.77346,57.78149507,12.77346828,A,132111.10,"[-0.20000,-0.00000,-0.00000]","[-0.10000,-0.00000,-0.00000]",7.22487,0.00000,0.00000,0.00000,0.00000,0.00000
17:55:25.862990,4.93011,0.00963,2.81655,2.81655,"[5.00000,0.00000,0.00000]","[1.30000,0.00000,0.00000]",-0.01198,0.05369,0.01071,0.00000,0.00000,0.04273,-0.04831,-0.16720,0.13164,1.00870,4.92398,0.04884,2.55856,1.92704,1.95828,-3.30249,7.58766,4.84297,-3.48785,8.13576,1.91230,1.91230,57.78150,12.77346,57.78149574,12.77346779,A,132111.10,"[-0.20000,-0.00000,-0.00000]","[-0.10000,-0.00000,-0.00000]",7.28746,0.00000,0.00000,0.00000,0.00000,0.00000
17:55:25.869920,4.93703,0.00574,2.81655,2.81655,"[5.00000,0.00000,0.00000]","[1.30000,0.00000,0.00000]",-0.01098,0.05369,0.01942,0.00000,0.00000,0.05251,-0.04541,-0.06588,0.10663,1.00510,4.93106,0.06105,2.61016,1.92065,1.95189,-3.31632,7.62624,4.84297,-3.48785,8.13576,1.91230,1.91230,57.78150,12.77346,57.78149608,12.77346756,A,132111.10,"[-0.20000,-0.00000,-0.00000]","[-0.10000,-0.00000,-0.00000]",7.31791,0.00000,0.00000,0.00000,0.00000,0.00000
17:55:25.931823,4.99893,0.05724,2.81655,1.50000,"[5.00000,0.00000,0.00000]","[1.30000,0.00000,0.00000]",-0.01070,0.05369,0.03225,0.00000,0.00000,0.03784,-0.03716,0.02952,0.04636,1.02584,4.94122,0.04884,2.65144,1.91561,1.94685,-3.33285,7.67158,4.95817,-3.59654,8.41375,1.94350,1.94350,57.78150,12.77346,57.78149649,12.77346728,A,132111.20,"[-0.20000,-0.00000,-0.00000]","[-0.10000,-0.00000,-0.00000]",7.34710,0.00000,0.00000,0.00000,0.00000,0.00000
17:55:25.953889,5.02100,0.00949,2.95591,2.95591,"[5.00000,0.00000,0.00000]","[1.30000,0.00000,0.00000]",-0.01274,0.04947,-0.00486,0.00000,0.00000,0.02089,-0.10542,0.01311,-0.04788,0.84735,5.01493,0.05861,2.71233,1.92303,1.95181,-3.41240,7.87676,4.95817,-3.59654,8.41375,1.94350,1.94350,57.78150,12.77346,57.78149834,12.77346594,A,132111.20,"[-0.20000,-0.00000,-0.00000]","[-0.10000,-0.00000,-0.00000]",7.45178,0.00000,0.00000,0.00000,0.00000,0.00000
