Description :  ; walk_time = 2.0 ; speed_up_time = 3.0 ; balancing_time = 0.0
RealTime,Time,CalculationTime,MeasuredVelocity,FilteredVelocity,BalancingGainsInner,BalancingGainsOuter,Roll,SteeringAngle,RollRate,ControlInput,BalancingSetpoint,gy,gz,ax,ay,az,imu_read_timing,SteerMotorCurrent,v_estimated,yaw_estimated,heading_estimated,x_estimated,y_estimated,GPS_timestamp,x_GPS,y_GPS,theta_GPS,theta_GPS_noUnwrap,latitude,longitude,lat_estimated,lon_estimated,status,NMEA timestamp,DirectionGains,LateralPositionGains,distance_travelled,x_ref,y_ref,heading_ref,lateral_error,heading_error
18:04:21.647802,0.07980,0.07976,0.00000,1.50000,"[5.00000,0.00000,0.00000]","[1.30000,0.00000,0.00000]",-0.00106,0.04503,0.00661,0.00000,0.00000,-0.00100,-0.04309,0.06924,-0.05045,0.99784,0.00001,0.04151,0.00000,-0.02620,0.00000,0.00000,0.00000,0.01569,0.00000,0.00000,0.00000,0.00000,57.78143,12.77352,57.78142983,12.77351767,A,133006.90,"[-0.20000,-0.00000,-0.00000]","[-0.10000,-0.00000,-0.00000]",0.00000,0.00000,0.00000,0.00000,0.00000,0.00000
18:04:21.669788,0.10234,0.00929,0.00000,0.00000,"[5.00000,0.00000,0.00000]","[1.30000,0.00000,0.00000]",-0.00228,0.04976,0.00188,0.00000,0.00000,-0.00238,-0.04248,0.08851,-0.06838,0.97728,0.09640,0.03175,0.00000,-0.02661,0.00234,0.00000,0.00000,0.01569,0.00000,0.00000,0.00000,0.00000,57.78143,12.77352,57.78142983,12.77351767,A,133006.90,"[-0.20000,-0.00000,-0.00000]","[-0.10000,-0.00000,-0.00000]",0.13946,0.00000,0.00000,0.00000,0.00000,0.00000
18:04:21.676259,0.10882,0.00526,0.00000,0.00000,"[5.00000,0.00000,0.00000]","[1.30000,0.00000,0.00000]",-0.00382,0.05015,-0.00896,0.00000,0.00000,-0.00665,-0.04691,0.06783,-0.07503,0.98356,0.10314,0.01954,0.00000,-0.02699,0.00218,0.00000,0.00000,0.01569,0.00000,0.00000,0.00000,0.00000,57.78143,12.77352,57.78142983,12.77351767,A,133006.90,"[-0.20000,-0.00000,-0.00000]","[-0.10000,-0.00000,-0.00000]",0.13946,0.00000,0.00000,0.00000,0.00000,0.00000
18:04:21.737563,0.17007,0.05596,0.00000,1.50000,"[5.00000,0.00000,0.00000]","[1.30000,0.00000,0.00000]",-0.00499,0.05066,0.00142,0.00000,0.00000,-0.00253,-0.04401,0.07771,-0.05887,1.00565,0.11355,0.03663,0.00000,-0.02737,0.00211,0.00000,0.00000,0.13050,-0.02964,0.09266,1.88040,1.88040,57.78143,12.77352,57.78142983,12.77351767,A,133007.00,"[-0.20000,-0.00000,-0.00000]","[-0.10000,-0.00000,-0.00000]",0.13946,0.00000,0.00000,0.00000,0.00000,0.00000
18:04:21.755103,0.18766,0.00806,0.00000,0.00000,"[5.00000,0.00000,0.00000]","[1.30000,0.00000,0.00000]",-0.00616,0.05278,0.00127,0.00000,0.00000,0.01458,-0.05149,0.08747,-0.06448,1.00418,0.18174,0.03663,0.00000,0.25419,0.28490,-0.00148,0.00463,0.13050,-0.02964,0.09266,1.88040,1.88040,57.78143,12.77352,57.78142988,12.77351764,A,133007.00,"[-0.20000,-0.00000,-0.00000]","[-0.10000,-0.00000,-0.00000]",0.23766,0.00000,0.00000,0.00000,0.00000,0.00000
18:04:21.762759,0.19532,0.00518,0.00000,0.00000,"[5.00000,0.00000,0.00000]","[1.30000,0.00000,0.00000]",-0.00730,0.05307,-0.00683,0.00000,0.00000,0.01091,-0.05042,0.12151,-0.05344,0.98698,0.18957,0.02686,0.00000,0.49349,0.52437,-0.00289,0.00903,0.13050,-0.02964,0.09266,1.88040,1.88040,57.78143,12.77352,57.78142991,12.77351762,A,133007.00,"[-0.20000,-0.00000,-0.00000]","[-0.10000,-0.00000,-0.00000]",0.23766,0.00000,0.00000,0.00000,0.00000,0.00000
18:04:21.773049,0.20561,0.00508,0.00000,0.00000,"[5.00000,0.00000,0.00000]","[1.30000,0.00000,0.00000]",-0.00864,0.05349,-0.00026,0.00000,0.00000,-0.00192,-0.04920,0.09589,-0.07174,0.99918,0.20017,0.03663,0.00000,0.69686,0.72798,-0.00423,0.01322,0.13050,-0.02964,0.09266,1.88040,1.88040,57.78143,12.77352,57.78142995,12.77351760,A,133007.00,"[-0.20000,-0.00000,-0.00000]","[-0.10000,-0.00000,-0.00000]",0.23766,0.00000,0.00000,0.00000,0.00000,0.00000
18:04:21.783474,0.21604,0.00510,0.00000,0.00000,"[5.00000,0.00000,0.00000]","[1.30000,0.00000,0.00000]",-0.01018,0.05394,-0.00362,0.00000,0.00000,-0.00482,-0.04920,0.07192,-0.08326,0.98570,0.21034,0.03419,0.00000,0.86968,0.90107,-0.00550,0.01719,0.13050,-0.02964,0.09266,1.88040,1.88040,57.78143,12.77352,57.78142999,12.77351757,A,133007.00,"[-0.20000,-0.00000,-0.00000]","[-0.10000,-0.00000,-0.00000]",0.23766,0.00000,0.00000,0.00000,0.00000,0.00000
18:04:21.794175,0.22674,0.00539,0.00000,0.00000,"[5.00000,0.00000,0.00000]","[1.30000,0.00000,0.00000]",-0.01126,0.05443,0.00127,0.00000,0.00000,-0.00207,-0.04370,0.05258,-0.05838,0.99314,0.22098,0.03419,0.00000,1.01654,1.04821,-0.00671,0.02096,0.13050,-0.02964,0.09266,1.88040,1.88040,57.78143,12.77352,57.78143002,12.77351755,A,133007.00,"[-0.20000,-0.00000,-0.00000]","[-0.10000,-0.00000,-0.00000]",0.23766,0.00000,0.00000,0.00000,0.00000,0.00000
18:04:21.852240,0.28477,0.05303,0.00000,1.50000,"[5.00000,0.00000,0.00000]","[1.30000,0.00000,0.00000]",-0.01229,0.05496,0.00050,0.00000,0.00000,0.00022,-0.04843,0.03660,-0.05490,0.98698,0.23134,0.03175,0.00000,1.14132,1.17330,-0.00785,0.02455,0.24806,-0.05928,0.16679,1.95118,1.95118,57.78143,12.77352,57.78143005,12.77351753,A,133007.10,"[-0.20000,-0.00000,-0.00000]","[-0.10000,-0.00000,-0.00000]",0.23766,0.00000,0.00000,0.00000,0.00000,0.00000
18:04:21.874656,0.30720,0.00961,0.00000,0.00000,"[5.00000,0.00000,0.00000]","[1.30000,0.00000,0.00000]",-0.01358,0.06119,-0.00041,0.00000,0.00000,0.01045,-0.03729,0.02159,-0.07253,1.01321,0.30115,0.04151,0.00000,1.25746,1.29307,-0.01042,0.03166,0.24806,-0.05928,0.16679,1.95118,1.95118,57.78143,12.77352,57.78143012,12.77351749,A,133007.10,"[-0.20000,-0.00000,-0.00000]","[-0.10000,-0.00000,-0.00000]",0.33640,0.00000,0.00000,0.00000,0.00000,0.00000
18:04:21.880830,0.31340,0.00500,0.00000,0.00000,"[5.00000,0.00000,0.00000]","[1.30000,0.00000,0.00000]",-0.01485,0.06210,0.00005,0.00000,0.00000,0.01595,-0.03790,0.04221,-0.07454,1.01016,0.30797,0.01709,0.00000,1.35610,1.39224,-0.01287,0.03842,0.24806,-0.05928,0.16679,1.95118,1.95118,57.78143,12.77352,57.78143018,12.77351745,A,133007.10,"[-0.20000,-0.00000,-0.00000]","[-0.10000,-0.00000,-0.00000]",0.33640,0.00000,0.00000,0.00000,0.00000,0.00000
18:04:21.891232,0.32379,0.00517,0.00000,0.00000,"[5.00000,0.00000,0.00000]","[1.30000,0.00000,0.00000]",-0.01610,0.06357,-0.00774,0.00000,0.00000,0.01992,-0.03286,0.10681,-0.06960,1.01565,0.31807,0.03663,0.00000,1.43981,1.47681,-0.01519,0.04483,0.24806,-0.05928,0.16679,1.95118,1.95118,57.78143,12.77352,57.78143024,12.77351741,A,133007.10,"[-0.20000,-0.00000,-0.00000]","[-0.10000,-0.00000,-0.00000]",0.33640,0.00000,0.00000,0.00000,0.00000,0.00000
18:04:21.901787,0.33435,0.00532,0.00000,0.00000,"[5.00000,0.00000,0.00000]","[1.30000,0.00000,0.00000]",-0.01748,0.06518,-0.00744,0.00000,0.00000,0.00877,-0.02996,0.12627,-0.07863,1.00223,0.32865,0.02686,0.00000,1.51083,1.54876,-0.01739,0.05093,0.24806,-0.05928,0.16679,1.95118,1.95118,57.78143,12.77352,57.78143029,12.77351737,A,133007.10,"[-0.20000,-0.00000,-0.00000]","[-0.10000,-0.00000,-0.00000]",0.33640,0.00000,0.00000,0.00000,0.00000,0.00000
18:04:21.911921,0.34448,0.00506,0.00000,0.00000,"[5.00000,0.00000,0.00000]","[1.30000,0.00000,0.00000]",-0.01869,0.06679,-0.00790,0.00000,0.00000,0.00328,-0.03102,0.09424,-0.06881,1.00272,0.33903,0.02930,0.00000,1.57105,1.60993,-0.01949,0.05673,0.24806,-0.05928,0.16679,1.95118,1.95118,57.78143,12.77352,57.78143034,12.77351734,A,133007.10,"[-0.20000,-0.00000,-0.00000]","[-0.10000,-0.00000,-0.00000]",0.33640,0.00000,0.00000,0.00000,0.00000,0.00000
18:04:21.970315,0.40284,0.05284,0.00000,1.50000,"[5.00000,0.00000,0.00000]","[1.30000,0.00000,0.00000]",-0.01970,0.06861,-0.00958,0.00000,0.00000,-0.00375,-0.02934,0.05197,-0.05466,0.99912,0.34943,0.03175,0.00000,1.62208,1.66201,-0.02148,0.06223,0.36643,-0.08893,0.25945,1.88040,1.88040,57.78143,12.77352,57.78143039,12.77351730,A,133007.20,"[-0.20000,-0.00000,-0.00000]","[-0.10000,-0.00000,-0.00000]",0.33640,0.00000,0.00000,0.00000,0.00000,0.00000
18:04:21.993030,0.42559,0.00657,0.00000,0.00000,"[5.00000,0.00000,0.00000]","[1.30000,0.00000,0.00000]",-0.02187,0.08145,-0.01629,0.00000,0.00000,0.00053,-0.03270,0.01092,-0.06423,0.99900,0.42011,0.03175,0.00000,1.65371,1.70115,-0.02485,0.07209,0.36643,-0.08893,0.25945,1.88040,1.88040,57.78143,12.77352,57.78143048,12.77351725,A,133007.20,"[-0.20000,-0.00000,-0.00000]","[-0.10000,-0.00000,-0.00000]",0.43990,0.00000,0.00000,0.00000,0.00000,0.00000
18:04:22.002253,0.43481,0.00539,0.00000,0.00000,"[5.00000,0.00000,0.00000]","[1.30000,0.00000,0.00000]",-0.02348,0.08310,-0.01935,0.00000,0.00000,0.00144,-0.03500,0.08546,-0.09260,0.98759,0.42904,0.02442,0.00000,1.68046,1.72885,-0.02805,0.08146,0.36643,-0.08893,0.25945,1.88040,1.88040,57.78143,12.77352,57.78143057,12.77351719,A,133007.20,"[-0.20000,-0.00000,-0.00000]","[-0.10000,-0.00000,-0.00000]",0.43990,0.00000,0.00000,0.00000,0.00000,0.00000
18:04:22.012311,0.44487,0.00504,0.00000,0.00000,"[5.00000,0.00000,0.00000]","[1.30000,0.00000,0.00000]",-0.02505,0.08471,-0.01828,0.00000,0.00000,0.00526,-0.03133,0.09626,-0.08766,0.96087,0.43942,0.02930,0.00000,1.70305,1.75238,-0.03110,0.09036,0.36643,-0.08893,0.25945,1.88040,1.88040,57.78143,12.77352,57.78143065,12.77351714,A,133007.20,"[-0.20000,-0.00000,-0.00000]","[-0.10000,-0.00000,-0.00000]",0.43990,0.00000,0.00000,0.00000,0.00000,0.00000
18:04:22.023027,0.45559,0.00533,0.00000,0.00000,"[5.00000,0.00000,0.00000]","[1.30000,0.00000,0.00000]",-0.02626,0.08615,-0.01889,0.00000,0.00000,0.00236,-0.02828,0.07979,-0.06661,0.97515,0.44968,0.02686,0.00000,1.72212,1.77230,-0.03399,0.09881,0.36643,-0.08893,0.25945,1.88040,1.88040,57.78143,12.77352,57.78143072,12.77351709,A,133007.20,"[-0.20000,-0.00000,-0.00000]","[-0.10000,-0.00000,-0.00000]",0.43990,0.00000,0.00000,0.00000,0.00000,0.00000
18:04:22.033412,0.46573,0.00507,0.00000,0.00000,"[5.00000,0.00000,0.00000]","[1.30000,0.00000,0.00000]",-0.02783,0.08746,-0.01797,0.00000,0.00000,-0.00268,-0.02705,0.08070,-0.09058,0.96081,0.46029,0.03175,0.00000,1.73822,1.78916,-0.03674,0.10685,0.36643,-0.08893,0.25945,1.88040,1.88040,57.78143,12.77352,57.78143079,12.77351705,A,133007.20,"[-0.20000,-0.00000,-0.00000]","[-0.10000,-0.00000,-0.00000]",0.43990,0.00000,0.00000,0.00000,0.00000,0.00000
18:04:22.086857,0.51941,0.04835,0.00000,1.50000,"[5.00000,0.00000,0.00000]","[1.30000,0.00000,0.00000]",-0.02835,0.08856,-0.02637,0.00000,0.00000,-0.00467,-0.02446,0.05057,-0.02019,0.98484,0.47045,0.01954,0.00000,1.75181,1.80340,-0.03934,0.11448,0.49836,-0.16797,0.46331,1.94069,1.94069,57.78143,12.77351,57.78143086,12.77351700,A,133007.40,"[-0.20000,-0.00000,-0.00000]","[-0.10000,-0.00000,-0.00000]",0.43990,0.00000,0.00000,0.00000,0.00000,0.00000
18:04:22.098251,0.53081,0.00566,0.00000,0.00000,"[5.00000,0.00000,0.00000]","[1.30000,0.00000,0.00000]",-0.03080,0.09546,-0.02653,0.00000,0.00000,0.00343,-0.02385,0.04721,-0.07235,1.00546,0.52500,0.02442,0.00000,1.77180,1.82742,-0.04578,0.13192,0.49836,-0.16797,0.46331,1.94069,1.94069,57.78143,12.77351,57.78143102,12.77351689,A,133007.40,"[-0.20000,-0.00000,-0.00000]","[-0.10000,-0.00000,-0.00000]",0.52101,0.00000,0.00000,0.00000,0.00000,0.00000
18:04:22.108063,0.54062,0.00507,0.00000,0.00000,"[5.00000,0.00000,0.00000]","[1.30000,0.00000,0.00000]",-0.03171,0.09699,-0.02989,0.00000,0.00000,0.00541,-0.01697,0.02904,-0.04776,1.01541,0.53517,0.01954,0.00000,1.78866,1.84517,-0.05189,0.14849,0.49836,-0.16797,0.46331,1.94069,1.94069,57.78143,12.77351,57.78143117,12.77351679,A,133007.40,"[-0.20000,-0.00000,-0.00000]","[-0.10000,-0.00000,-0.00000]",0.52101,0.00000,0.00000,0.00000,0.00000,0.00000
18:04:22.118720,0.55129,0.00518,0.00000,0.00000,"[5.00000,0.00000,0.00000]","[1.30000,0.00000,0.00000]",-0.03286,0.09863,-0.02286,0.00000,0.00000,0.01656,-0.01957,0.01080,-0.06820,0.99235,0.54554,0.03907,0.00000,1.80284,1.86032,-0.05769,0.16423,0.49836,-0.16797,0.46331,1.94069,1.94069,57.78143,12.77351,57.78143131,12.77351669,A,133007.40,"[-0.20000,-0.00000,-0.00000]","[-0.10000,-0.00000,-0.00000]",0.52101,0.00000,0.00000,0.00000,0.00000,0.00000
18:04:22.129047,0.56161,0.00511,0.00000,0.00000,"[5.00000,0.00000,0.00000]","[1.30000,0.00000,0.00000]",-0.03454,0.10028,-0.02729,0.00000,0.00000,0.01900,-0.01896,0.08290,-0.09736,0.96142,0.55613,0.01954,0.00000,1.81475,1.87319,-0.06320,0.17918,0.49836,-0.16797,0.46331,1.94069,1.94069,57.78143,12.77351,57.78143144,12.77351660,A,133007.40,"[-0.20000,-0.00000,-0.00000]","[-0.10000,-0.00000,-0.00000]",0.52101,0.00000,0.00000,0.00000,0.00000,0.00000
18:04:22.139418,0.57198,0.00525,0.00000,0.00000,"[5.00000,0.00000,0.00000]","[1.30000,0.00000,0.00000]",-0.03576,0.10183,-0.02622,0.00000,0.00000,0.01106,-0.01591,0.10309,-0.07027,0.94282,0.56623,0.03175,0.00000,1.82474,1.88409,-0.06844,0.19339,0.49836,-0.16797,0.46331,1.94069,1.94069,57.78143,12.77351,57.78143157,12.77351651,A,133007.40,"[-0.20000,-0.00000,-0.00000]","[-0.10000,-0.00000,-0.00000]",0.52101,0.00000,0.00000,0.00000,0.00000,0.00000
18:04:22.149941,0.58250,0.00537,0.00000,0.00000,"[5.00000,0.00000,0.00000]","[1.30000,0.00000,0.00000]",-0.03691,0.10347,-0.02851,0.00000,0.00000,-0.00192,-0.01331,0.09614,-0.06442,0.95075,0.57678,0.02930,0.00000,1.83309,1.89340,-0.07342,0.20689,0.49836,-0.16797,0.46331,1.94069,1.94069,57.78143,12.77351,57.78143169,12.77351643,A,133007.40,"[-0.20000,-0.00000,-0.00000]","[-0.10000,-0.00000,-0.00000]",0.52101,0.00000,0.00000,0.00000,0.00000,0.00000
18:04:22.160040,0.59261,0.00507,0.00000,0.00000,"[5.00000,0.00000,0.00000]","[1.30000,0.00000,0.00000]",-0.03789,0.10503,-0.02408,0.00000,0.00000,-0.00925,-0.00980,0.02843,-0.06002,0.98076,0.58715,0.02930,0.00000,1.84005,1.90127,-0.07815,0.21971,0.49836,-0.16797,0.46331,1.94069,1.94069,57.78143,12.77351,57.78143181,12.77351635,A,133007.40,"[-0.20000,-0.00000,-0.00000]","[-0.10000,-0.00000,-0.00000]",0.52101,0.00000,0.00000,0.00000,0.00000,0.00000
18:04:22.203073,0.63562,0.03750,0.00000,1.50000,"[5.00000,0.00000,0.00000]","[1.30000,0.00000,0.00000]",-0.03914,0.10653,-0.01568,0.00000,0.00000,-0.00192,-0.00384,0.02190,-0.08479,0.98295,0.59755,0.02686,0.00000,1.84583,1.90793,-0.08264,0.23189,0.61496,-0.20749,0.55597,1.97395,1.97395,57.78143,12.77351,57.78143192,12.77351627,A,133007.50,"[-0.20000,-0.00000,-0.00000]","[-0.10000,-0.00000,-0.00000]",0.52101,0.00000,0.00000,0.00000,0.00000,0.00000
18:04:22.221609,0.65415,0.00782,0.00000,0.00000,"[5.00000,0.00000,0.00000]","[1.30000,0.00000,0.00000]",-0.04068,0.11214,-0.01782,0.00000,0.00000,0.00725,-0.00567,0.04490,-0.06045,1.02596,0.64753,0.02198,0.00000,1.85524,1.92062,-0.08888,0.24809,0.61496,-0.20749,0.55597,1.97395,1.97395,57.78143,12.77351,57.78143206,12.77351617,A,133007.50,"[-0.20000,-0.00000,-0.00000]","[-0.10000,-0.00000,-0.00000]",0.59329,0.00000,0.00000,0.00000,0.00000,0.00000
18:04:22.229514,0.66206,0.00533,0.00000,0.00000,"[5.00000,0.00000,0.00000]","[1.30000,0.00000,0.00000]",-0.04186,0.11315,-0.01507,0.00000,0.00000,0.00862,-0.00430,0.06545,-0.08705,1.00912,0.65637,0.02930,0.00000,1.86315,1.92913,-0.09481,0.26349,0.61496,-0.20749,0.55597,1.97395,1.97395,57.78143,12.77351,57.78143220,12.77351607,A,133007.50,"[-0.20000,-0.00000,-0.00000]","[-0.10000,-0.00000,-0.00000]",0.59329,0.00000,0.00000,0.00000,0.00000,0.00000
18:04:22.239661,0.67222,0.00509,0.00000,0.00000,"[5.00000,0.00000,0.00000]","[1.30000,0.00000,0.00000]",-0.04265,0.11443,-0.01843,0.00000,0.00000,0.00969,-0.00705,0.04258,-0.05740,0.99235,0.66654,0.01954,0.00000,1.86976,1.93649,-0.10044,0.27811,0.61496,-0.20749,0.55597,1.97395,1.97395,57.78143,12.77351,57.78143233,12.77351597,A,133007.50,"[-0.20000,-0.00000,-0.00000]","[-0.10000,-0.00000,-0.00000]",0.59329,0.00000,0.00000,0.00000,0.00000,0.00000
18:04:22.250348,0.68291,0.00538,0.00000,0.00000,"[5.00000,0.00000,0.00000]","[1.30000,0.00000,0.00000]",-0.04343,0.11584,-0.01187,0.00000,0.00000,0.00007,-0.00796,0.05234,-0.06063,0.97887,0.67715,0.01954,0.00000,1.87526,1.94282,-0.10580,0.29200,0.61496,-0.20749,0.55597,1.97395,1.97395,57.78143,12.77351,57.78143246,12.77351588,A,133007.50,"[-0.20000,-0.00000,-0.00000]","[-0.10000,-0.00000,-0.00000]",0.59329,0.00000,0.00000,0.00000,0.00000,0.00000
18:04:22.260376,0.69294,0.00501,0.00000,0.00000,"[5.00000,0.00000,0.00000]","[1.30000,0.00000,0.00000]",-0.04435,0.11726,-0.00912,0.00000,0.00000,0.00755,-0.00354,0.02849,-0.07192,0.97094,0.68750,0.01709,0.00000,1.87980,1.94819,-0.11088,0.30520,0.61496,-0.20749,0.55597,1.97395,1.97395,57.78143,12.77351,57.78143258,12.77351580,A,133007.50,"[-0.20000,-0.00000,-0.00000]","[-0.10000,-0.00000,-0.00000]",0.59329,0.00000,0.00000,0.00000,0.00000,0.00000
18:04:22.270891,0.70345,0.00518,1.11487,1.11487,"[5.00000,0.00000,0.00000]","[1.30000,0.00000,0.00000]",-0.04563,0.11867,-0.00408,0.00000,0.00000,-0.00207,-0.00476,0.04301,-0.08772,0.97325,0.69771,0.04884,0.22297,1.88354,1.95276,-0.11571,0.31774,0.61496,-0.20749,0.55597,1.97395,1.97395,57.78143,12.77351,57.78143269,12.77351571,A,133007.50,"[-0.20000,-0.00000,-0.00000]","[-0.10000,-0.00000,-0.00000]",0.59329,0.00000,0.00000,0.00000,0.00000,0.00000
18:04:22.281071,0.71364,0.00514,1.11487,1.11487,"[5.00000,0.00000,0.00000]","[1.30000,0.00000,0.00000]",-0.04662,0.11995,-0.00331,0.00000,0.00000,0.00160,-0.00384,0.01946,-0.07082,0.98643,0.70816,0.01465,0.40135,1.88677,1.95674,-0.12097,0.33131,0.61496,-0.20749,0.55597,1.97395,1.97395,57.78143,12.77351,57.78143281,12.77351563,A,133007.50,"[-0.20000,-0.00000,-0.00000]","[-0.10000,-0.00000,-0.00000]",0.60466,0.00000,0.00000,0.00000,0.00000,0.00000
18:04:22.325723,0.75828,0.03938,1.11487,1.50000,"[5.00000,0.00000,0.00000]","[1.30000,0.00000,0.00000]",-0.04780,0.12102,-0.01217,0.00000,0.00000,0.00389,-0.00262,0.06704,-0.07985,0.99589,0.71830,0.01709,0.54406,1.88956,1.96016,-0.12649,0.34550,0.73567,-0.24702,0.66717,1.91230,1.91230,57.78144,12.77351,57.78143294,12.77351553,A,133007.60,"[-0.20000,-0.00000,-0.00000]","[-0.10000,-0.00000,-0.00000]",0.61621,0.00000,0.00000,0.00000,0.00000,0.00000
18:04:22.340776,0.77333,0.00943,12.01723,1.50000,"[5.00000,0.00000,0.00000]","[1.30000,0.00000,0.00000]",-0.04950,0.12382,-0.01141,0.00000,0.00000,-0.01215,0.00777,-0.01531,-0.07729,0.99711,0.76692,0.01954,0.73524,1.88442,1.95667,-0.14172,0.38399,0.73567,-0.24702,0.66717,1.91230,1.91230,57.78144,12.77351,57.78143329,12.77351528,A,133007.60,"[-0.20000,-0.00000,-0.00000]","[-0.10000,-0.00000,-0.00000]",0.68369,0.00000,0.00000,0.00000,0.00000,0.00000
18:04:22.351044,0.78343,0.00864,12.01723,1.50000,"[5.00000,0.00000,0.00000]","[1.30000,0.00000,0.00000]",-0.05110,0.12422,-0.00163,0.00000,0.00000,-0.00451,0.00777,0.04240,-0.10120,0.95038,0.77756,0.01954,0.88820,1.87827,1.95075,-0.14908,0.40331,0.73567,-0.24702,0.66717,1.91230,1.91230,57.78144,12.77351,57.78143346,12.77351515,A,133007.60,"[-0.20000,-0.00000,-0.00000]","[-0.10000,-0.00000,-0.00000]",0.69998,0.00000,0.00000,0.00000,0.00000,0.00000
18:04:22.360417,0.79297,0.00796,12.01723,1.50000,"[5.00000,0.00000,0.00000]","[1.30000,0.00000,0.00000]",-0.05246,0.12447,-0.00331,0.00000,0.00000,-0.00619,0.00731,0.06374,-0.08503,0.94276,0.78723,0.02930,1.01056,1.87310,1.94572,-0.15633,0.42240,0.73567,-0.24702,0.66717,1.91230,1.91230,57.78144,12.77351,57.78143363,12.77351503,A,133007.60,"[-0.20000,-0.00000,-0.00000]","[-0.10000,-0.00000,-0.00000]",0.71529,0.00000,0.00000,0.00000,0.00000,0.00000
18:04:22.370814,0.80337,0.00797,12.01723,1.50000,"[5.00000,0.00000,0.00000]","[1.30000,0.00000,0.00000]",-0.05370,0.12473,-0.00713,0.00000,0.00000,-0.00986,0.00593,0.03788,-0.07735,0.95312,0.79757,0.06105,1.10845,1.86886,1.94164,-0.16387,0.44229,0.73567,-0.24702,0.66717,1.91230,1.91230,57.78144,12.77351,57.78143381,12.77351490,A,133007.60,"[-0.20000,-0.00000,-0.00000]","[-0.10000,-0.00000,-0.00000]",0.73083,0.00000,0.00000,0.00000,0.00000,0.00000
18:04:22.381012,0.81357,0.00760,12.01723,1.50000,"[5.00000,0.00000,0.00000]","[1.30000,0.00000,0.00000]",-0.05473,0.12498,-0.01217,0.00000,0.00000,-0.00283,0.00303,0.00268,-0.06576,0.99381,0.80809,0.01465,1.18676,1.86530,1.93823,-0.17125,0.46181,0.73567,-0.24702,0.66717,1.91230,1.91230,57.78144,12.77351,57.78143399,12.77351478,A,133007.60,"[-0.20000,-0.00000,-0.00000]","[-0.10000,-0.00000,-0.00000]",0.74638,0.00000,0.00000,0.00000,0.00000,0.00000
18:04:22.391463,0.82402,0.00765,12.01723,1.50000,"[5.00000,0.00000,0.00000]","[1.30000,0.00000,0.00000]",-0.05526,0.12530,-0.00622,0.00000,0.00000,0.00144,0.00517,-0.00451,-0.03843,1.01120,0.81826,0.02930,1.24940,1.86231,1.93542,-0.17844,0.48091,0.73567,-0.24702,0.66717,1.91230,1.91230,57.78144,12.77351,57.78143416,12.77351466,A,133007.60,"[-0.20000,-0.00000,-0.00000]","[-0.10000,-0.00000,-0.00000]",0.76192,0.00000,0.00000,0.00000,0.00000,0.00000
18:04:22.435443,0.86799,0.04138,12.01723,1.50000,"[5.00000,0.00000,0.00000]","[1.30000,0.00000,0.00000]",-0.05642,0.12569,-0.00499,0.00000,0.00000,0.00755,0.00334,0.00939,-0.08388,1.02596,0.82969,0.02686,1.29952,1.86003,1.93338,-0.18635,0.50197,0.84765,-0.29642,0.79690,1.93466,1.93466,57.78144,12.77351,57.78143435,12.77351452,A,133007.70,"[-0.20000,-0.00000,-0.00000]","[-0.10000,-0.00000,-0.00000]",0.77722,0.00000,0.00000,0.00000,0.00000,0.00000
18:04:22.450501,0.88305,0.00759,12.01723,1.50000,"[5.00000,0.00000,0.00000]","[1.30000,0.00000,0.00000]",-0.05784,0.12716,-0.00408,0.00000,0.00000,-0.00451,0.00486,0.04270,-0.08674,0.97167,0.87709,0.02686,1.33962,1.86547,1.93968,-0.21129,0.56797,0.84765,-0.29642,0.79690,1.93466,1.93466,57.78144,12.77351,57.78143494,12.77351410,A,133007.70,"[-0.20000,-0.00000,-0.00000]","[-0.10000,-0.00000,-0.00000]",0.85047,0.00000,0.00000,0.00000,0.00000,0.00000
18:04:22.460852,0.89342,0.00738,12.01723,1.50000,"[5.00000,0.00000,0.00000]","[1.30000,0.00000,0.00000]",-0.05907,0.12716,-0.00805,0.00000,0.00000,-0.01459,0.01113,0.02428,-0.08235,0.96551,0.88793,0.03419,1.37170,1.86581,1.94001,-0.21950,0.58964,0.84765,-0.29642,0.79690,1.93466,1.93466,57.78144,12.77351,57.78143514,12.77351396,A,133007.70,"[-0.20000,-0.00000,-0.00000]","[-0.10000,-0.00000,-0.00000]",0.86627,0.00000,0.00000,0.00000,0.00000,0.00000
18:04:22.471493,0.90406,0.00762,12.01723,1.50000,"[5.00000,0.00000,0.00000]","[1.30000,0.00000,0.00000]",-0.05988,0.12716,-0.00408,0.00000,0.00000,-0.00436,0.00822,0.05417,-0.05588,0.93586,0.89830,0.03175,1.39736,1.86612,1.94032,-0.22739,0.61045,0.84765,-0.29642,0.79690,1.93466,1.93466,57.78144,12.77351,57.78143532,12.77351383,A,133007.70,"[-0.20000,-0.00000,-0.00000]","[-0.10000,-0.00000,-0.00000]",0.88182,0.00000,0.00000,0.00000,0.00000,0.00000
18:04:22.482386,0.91495,0.00810,12.01723,1.50000,"[5.00000,0.00000,0.00000]","[1.30000,0.00000,0.00000]",-0.06018,0.12716,-0.00179,0.00000,0.00000,-0.00268,0.00654,0.01598,-0.02971,0.98625,0.90915,0.02442,1.41789,1.86643,1.94063,-0.23507,0.63068,0.84765,-0.29642,0.79690,1.93466,1.93466,57.78144,12.77351,57.78143551,12.77351370,A,133007.70,"[-0.20000,-0.00000,-0.00000]","[-0.10000,-0.00000,-0.00000]",0.89737,0.00000,0.00000,0.00000,0.00000,0.00000
18:04:22.492227,0.92478,0.00754,12.01723,1.50000,"[5.00000,0.00000,0.00000]","[1.30000,0.00000,0.00000]",-0.06094,0.12716,0.00447,0.00000,0.00000,0.00633,0.00777,0.04032,-0.06277,0.96752,0.91929,0.02198,1.43431,1.86661,1.94082,-0.24206,0.64912,0.84765,-0.29642,0.79690,1.93466,1.93466,57.78144,12.77351,57.78143567,12.77351358,A,133007.70,"[-0.20000,-0.00000,-0.00000]","[-0.10000,-0.00000,-0.00000]",0.91292,0.00000,0.00000,0.00000,0.00000,0.00000
18:04:22.504907,0.93746,0.00976,12.01723,1.50000,"[5.00000,0.00000,0.00000]","[1.30000,0.00000,0.00000]",-0.06207,0.12716,0.00341,0.00000,0.00000,0.00663,0.00532,0.00586,-0.09016,0.99857,0.93100,0.04396,1.44745,1.86703,1.94124,-0.24969,0.66917,0.84765,-0.29642,0.79690,1.93466,1.93466,57.78144,12.77351,57.78143585,12.77351345,A,133007.70,"[-0.20000,-0.00000,-0.00000]","[-0.10000,-0.00000,-0.00000]",0.92856,0.00000,0.00000,0.00000,0.00000,0.00000
18:04:22.551125,0.98367,0.04476,12.01723,1.50000,"[5.00000,0.00000,0.00000]","[1.30000,0.00000,0.00000]",-0.06368,0.12716,-0.00316,0.00000,0.00000,0.00725,0.00013,0.07003,-0.11791,0.99088,0.94432,0.01954,1.45796,1.86749,1.94170,-0.25730,0.68913,0.96109,-0.33594,0.90809,1.91230,1.91230,57.78144,12.77351,57.78143603,12.77351333,A,133007.80,"[-0.20000,-0.00000,-0.00000]","[-0.10000,-0.00000,-0.00000]",0.94535,0.00000,0.00000,0.00000,0.00000,0.00000
18:04:22.564094,0.99666,0.00739,12.01723,1.50000,"[5.00000,0.00000,0.00000]","[1.30000,0.00000,0.00000]",-0.06390,0.12745,0.02234,0.00000,0.00000,-0.01230,0.01250,0.05264,-0.09742,0.98814,0.99116,0.01709,1.46637,1.86925,1.94362,-0.28386,0.75825,0.96109,-0.33594,0.90809,1.91230,1.91230,57.78144,12.77351,57.78143665,12.77351288,A,133007.80,"[-0.20000,-0.00000,-0.00000]","[-0.10000,-0.00000,-0.00000]",1.02084,0.00000,0.00000,0.00000,0.00000,0.00000
18:04:22.575051,1.00762,0.00770,12.01723,1.50000,"[5.00000,0.00000,0.00000]","[1.30000,0.00000,0.00000]",-0.06505,0.12745,0.01715,0.00000,0.00000,-0.01429,0.01250,0.02788,-0.09980,0.96173,1.00184,0.03175,1.47309,1.86578,1.94016,-0.29098,0.77729,0.96109,-0.33594,0.90809,1.91230,1.91230,57.78144,12.77351,57.78143682,12.77351276,A,133007.80,"[-0.20000,-0.00000,-0.00000]","[-0.10000,-0.00000,-0.00000]",1.03676,0.00000,0.00000,0.00000,0.00000,0.00000
18:04:22.585074,1.01763,0.00748,12.01723,1.50000,"[5.00000,0.00000,0.00000]","[1.30000,0.00000,0.00000]",-0.06610,0.12745,0.02265,0.00000,0.00000,-0.00833,0.00700,0.06881,-0.09510,0.94483,1.01215,0.02686,1.47847,1.86275,1.93713,-0.29740,0.79461,0.96109,-0.33594,0.90809,1.91230,1.91230,57.78144,12.77351,57.78143698,12.77351265,A,133007.80,"[-0.20000,-0.00000,-0.00000]","[-0.10000,-0.00000,-0.00000]",1.05209,0.00000,0.00000,0.00000,0.00000,0.00000
18:04:22.595587,1.02815,0.00759,12.01723,1.50000,"[5.00000,0.00000,0.00000]","[1.30000,0.00000,0.00000]",-0.06637,0.12750,0.01898,0.00000,0.00000,-0.01322,0.00853,0.03831,-0.04343,0.93513,1.02242,0.03663,1.48278,1.86021,1.93462,-0.30360,0.81142,0.96109,-0.33594,0.90809,1.91230,1.91230,57.78144,12.77351,57.78143713,12.77351255,A,133007.80,"[-0.20000,-0.00000,-0.00000]","[-0.10000,-0.00000,-0.00000]",1.06764,0.00000,0.00000,0.00000,0.00000,0.00000
18:04:22.608561,1.04112,0.01017,12.01723,1.50000,"[5.00000,0.00000,0.00000]","[1.30000,0.00000,0.00000]",-0.06725,0.12776,0.03028,0.00000,0.00000,-0.01612,0.00349,-0.00195,-0.09827,0.95849,1.03561,0.01709,1.48622,1.85841,1.93296,-0.31082,0.83097,0.96109,-0.33594,0.90809,1.91230,1.91230,57.78144,12.77351,57.78143731,12.77351242,A,133007.80,"[-0.20000,-0.00000,-0.00000]","[-0.10000,-0.00000,-0.00000]",1.08318,0.00000,0.00000,0.00000,0.00000,0.00000
18:04:22.624112,1.05667,0.00728,12.01723,1.50000,"[5.00000,0.00000,0.00000]","[1.30000,0.00000,0.00000]",-0.06806,0.12858,0.03319,0.00000,0.00000,-0.00482,0.00502,-0.00152,-0.10638,0.99912,1.05117,0.04151,1.48898,1.85717,1.93221,-0.31896,0.85301,0.96109,-0.33594,0.90809,1.91230,1.91230,57.78144,12.77351,57.78143750,12.77351229,A,133007.80,"[-0.20000,-0.00000,-0.00000]","[-0.10000,-0.00000,-0.00000]",1.11080,0.00000,0.00000,0.00000,0.00000,0.00000
18:04:22.668515,1.10106,0.04127,12.01723,1.50000,"[5.00000,0.00000,0.00000]","[1.30000,0.00000,0.00000]",-0.06900,0.12943,0.03028,0.00000,0.00000,0.00831,0.00303,-0.00659,-0.10522,1.01663,1.06161,0.02442,1.49118,1.85534,1.93088,-0.32414,0.86722,1.08073,-0.38534,1.05635,1.89244,1.89244,57.78144,12.77351,57.78143763,12.77351220,A,133007.90,"[-0.20000,-0.00000,-0.00000]","[-0.10000,-0.00000,-0.00000]",1.12635,0.00000,0.00000,0.00000,0.00000,0.00000
18:04:22.681801,1.11436,0.00747,12.01723,1.50000,"[5.00000,0.00000,0.00000]","[1.30000,0.00000,0.00000]",-0.06730,0.13379,0.04204,0.00000,0.00000,-0.00833,0.01616,0.04776,-0.03306,0.95581,1.10864,0.01954,1.49295,1.85562,1.93372,-0.34963,0.93625,1.08073,-0.38534,1.05635,1.89244,1.89244,57.78144,12.77351,57.78143825,12.77351177,A,133007.90,"[-0.20000,-0.00000,-0.00000]","[-0.10000,-0.00000,-0.00000]",1.19697,0.00000,0.00000,0.00000,0.00000,0.00000
18:04:22.693729,1.12628,0.00899,12.01723,1.50000,"[5.00000,0.00000,0.00000]","[1.30000,0.00000,0.00000]",-0.06765,0.13481,0.04968,0.00000,0.00000,-0.01765,0.02105,0.00165,-0.07509,0.95935,1.12052,0.01954,1.49436,1.85084,1.92954,-0.35651,0.95567,1.08073,-0.38534,1.05635,1.89244,1.89244,57.78144,12.77351,57.78143843,12.77351165,A,133007.90,"[-0.20000,-0.00000,-0.00000]","[-0.10000,-0.00000,-0.00000]",1.21252,0.00000,0.00000,0.00000,0.00000,0.00000
18:04:22.702667,1.13523,0.00775,12.01723,1.50000,"[5.00000,0.00000,0.00000]","[1.30000,0.00000,0.00000]",-0.06750,0.13546,0.05457,0.00000,0.00000,-0.01322,0.02441,-0.00720,-0.03770,0.97210,1.12944,0.02198,1.49549,1.84628,1.92536,-0.36151,0.97018,1.08073,-0.38534,1.05635,1.89244,1.89244,57.78144,12.77351,57.78143856,12.77351157,A,133007.90,"[-0.20000,-0.00000,-0.00000]","[-0.10000,-0.00000,-0.00000]",1.22778,0.00000,0.00000,0.00000,0.00000,0.00000
18:04:22.718703,1.15126,0.01315,12.01723,1.50000,"[5.00000,0.00000,0.00000]","[1.30000,0.00000,0.00000]",-0.06772,0.13628,0.05426,0.00000,0.00000,-0.01261,0.02441,0.04642,-0.08790,0.98210,1.14546,0.02686,1.49639,1.84336,1.92293,-0.36958,0.99308,1.08073,-0.38534,1.05635,1.89244,1.89244,57.78144,12.77351,57.78143876,12.77351143,A,133007.90,"[-0.20000,-0.00000,-0.00000]","[-0.10000,-0.00000,-0.00000]",1.24305,0.00000,0.00000,0.00000,0.00000,0.00000
18:04:22.732522,1.16508,0.00706,12.01723,1.50000,"[5.00000,0.00000,0.00000]","[1.30000,0.00000,0.00000]",-0.06858,0.13670,0.05670,0.00000,0.00000,0.00511,0.01983,-0.00049,-0.13005,1.01498,1.15956,0.02442,1.49711,1.84057,1.92039,-0.37626,1.01228,1.08073,-0.38534,1.05635,1.89244,1.89244,57.78144,12.77351,57.78143894,12.77351132,A,133007.90,"[-0.20000,-0.00000,-0.00000]","[-0.10000,-0.00000,-0.00000]",1.27288,0.00000,0.00000,0.00000,0.00000,0.00000
18:04:22.743561,1.17612,0.00763,12.01723,1.50000,"[5.00000,0.00000,0.00000]","[1.30000,0.00000,0.00000]",-0.06847,0.13701,0.05365,0.00000,0.00000,0.01030,0.01739,0.00396,-0.05136,1.03371,1.17037,0.03175,1.49769,1.83772,1.91772,-0.38111,1.02653,1.08073,-0.38534,1.05635,1.89244,1.89244,57.78144,12.77351,57.78143907,12.77351124,A,133007.90,"[-0.20000,-0.00000,-0.00000]","[-0.10000,-0.00000,-0.00000]",1.28852,0.00000,0.00000,0.00000,0.00000,0.00000
18:04:22.796822,1.22937,0.05048,12.01723,1.50000,"[5.00000,0.00000,0.00000]","[1.30000,0.00000,0.00000]",-0.06864,0.13747,0.05411,0.00000,0.00000,0.01946,0.01158,0.05240,-0.07027,0.99162,1.18208,0.03419,1.49815,1.83536,1.91563,-0.38600,1.04096,1.21001,-0.47427,1.31581,1.90099,1.90099,57.78144,12.77351,57.78143919,12.77351116,A,133008.10,"[-0.20000,-0.00000,-0.00000]","[-0.10000,-0.00000,-0.00000]",1.30406,0.00000,0.00000,0.00000,0.00000,0.00000
18:04:22.813034,1.24559,0.01026,12.01723,1.50000,"[5.00000,0.00000,0.00000]","[1.30000,0.00000,0.00000]",-0.06632,0.14129,0.05365,0.00000,0.00000,-0.02146,0.02243,0.01299,-0.06679,0.99094,1.24007,0.02686,1.49852,1.84137,1.92388,-0.41732,1.12962,1.21001,-0.47427,1.31581,1.90099,1.90099,57.78144,12.77351,57.78143999,12.77351063,A,133008.10,"[-0.20000,-0.00000,-0.00000]","[-0.10000,-0.00000,-0.00000]",1.38870,0.00000,0.00000,0.00000,0.00000,0.00000
18:04:22.828480,1.26104,0.00706,12.01723,1.50000,"[5.00000,0.00000,0.00000]","[1.30000,0.00000,0.00000]",-0.06615,0.14140,0.04510,0.00000,0.00000,-0.00665,0.02197,0.00250,-0.05142,1.03047,1.25553,0.02442,1.49882,1.84007,1.92265,-0.42690,1.15720,1.21001,-0.47427,1.31581,1.90099,1.90099,57.78144,12.77351,57.78144024,12.77351047,A,133008.10,"[-0.20000,-0.00000,-0.00000]","[-0.10000,-0.00000,-0.00000]",1.41663,0.00000,0.00000,0.00000,0.00000,0.00000
18:04:22.839427,1.27199,0.00760,12.01723,1.50000,"[5.00000,0.00000,0.00000]","[1.30000,0.00000,0.00000]",-0.06621,0.14140,0.04876,0.00000,0.00000,-0.00299,0.01586,0.05112,-0.05356,1.00217,1.26625,0.02930,1.49905,1.83822,1.92081,-0.43365,1.17706,1.21001,-0.47427,1.31581,1.90099,1.90099,57.78144,12.77351,57.78144042,12.77351035,A,133008.10,"[-0.20000,-0.00000,-0.00000]","[-0.10000,-0.00000,-0.00000]",1.43218,0.00000,0.00000,0.00000,0.00000,0.00000
18:04:22.851998,1.28455,0.00993,12.01723,1.50000,"[5.00000,0.00000,0.00000]","[1.30000,0.00000,0.00000]",-0.06630,0.14140,0.04510,0.00000,0.00000,-0.00299,0.01723,-0.01269,-0.05386,1.02815,1.27652,0.02442,1.49924,1.83655,1.91913,-0.43971,1.19503,1.21001,-0.47427,1.31581,1.90099,1.90099,57.78144,12.77351,57.78144058,12.77351025,A,133008.10,"[-0.20000,-0.00000,-0.00000]","[-0.10000,-0.00000,-0.00000]",1.44748,0.00000,0.00000,0.00000,0.00000,0.00000
18:04:22.858829,1.29139,0.00521,1.39585,1.39585,"[5.00000,0.00000,0.00000]","[1.30000,0.00000,0.00000]",-0.06677,0.14140,0.04052,0.00000,0.00000,0.01015,0.01051,0.02159,-0.07375,0.99698,1.28555,0.02686,1.47856,1.83457,1.91716,-0.44374,1.20743,1.21001,-0.47427,1.31581,1.90099,1.90099,57.78144,12.77351,57.78144069,12.77351018,A,133008.10,"[-0.20000,-0.00000,-0.00000]","[-0.10000,-0.00000,-0.00000]",1.46480,0.00000,0.00000,0.00000,0.00000,0.00000
18:04:22.869090,1.30166,0.00507,1.39585,1.39585,"[5.00000,0.00000,0.00000]","[1.30000,0.00000,0.00000]",-0.06673,0.14140,0.04250,0.00000,0.00000,0.01137,0.00899,0.01720,-0.04233,0.94513,1.29622,0.01954,1.46202,1.83347,1.91605,-0.44934,1.22412,1.21001,-0.47427,1.31581,1.90099,1.90099,57.78144,12.77351,57.78144084,12.77351009,A,133008.10,"[-0.20000,-0.00000,-0.00000]","[-0.10000,-0.00000,-0.00000]",1.47927,0.00000,0.00000,0.00000,0.00000,0.00000
18:04:22.916410,1.34895,0.04196,1.39585,1.50000,"[5.00000,0.00000,0.00000]","[1.30000,0.00000,0.00000]",-0.06671,0.14140,0.03838,0.00000,0.00000,0.00847,0.00563,0.10949,-0.03941,0.93964,1.30639,0.05372,1.44879,1.83256,1.91515,-0.45474,1.24025,1.32368,-0.51379,1.44553,1.86652,1.86652,57.78144,12.77351,57.78144099,12.77351000,A,133008.20,"[-0.20000,-0.00000,-0.00000]","[-0.10000,-0.00000,-0.00000]",1.49374,0.00000,0.00000,0.00000,0.00000,0.00000
18:04:22.931239,1.36380,0.00531,1.39585,1.39585,"[5.00000,0.00000,0.00000]","[1.30000,0.00000,0.00000]",-0.06537,0.14140,0.03288,0.00000,0.00000,0.00725,0.02823,0.01470,-0.04050,0.98655,1.35805,0.03907,1.43820,1.83279,1.91537,-0.48068,1.31463,1.32368,-0.51379,1.44553,1.86652,1.86652,57.78144,12.77351,57.78144166,12.77350956,A,133008.20,"[-0.20000,-0.00000,-0.00000]","[-0.10000,-0.00000,-0.00000]",1.57096,0.00000,0.00000,0.00000,0.00000,0.00000
18:04:22.941651,1.37421,0.00531,1.39585,1.39585,"[5.00000,0.00000,0.00000]","[1.30000,0.00000,0.00000]",-0.06590,0.14140,0.02891,0.00000,0.00000,0.00373,0.02777,0.06015,-0.07161,0.98637,1.36852,0.02930,1.42973,1.82673,1.90931,-0.48623,1.33201,1.32368,-0.51379,1.44553,1.86652,1.86652,57.78144,12.77351,57.78144181,12.77350946,A,133008.20,"[-0.20000,-0.00000,-0.00000]","[-0.10000,-0.00000,-0.00000]",1.58543,0.00000,0.00000,0.00000,0.00000,0.00000
18:04:22.954096,1.38665,0.00736,1.39585,1.39585,"[5.00000,0.00000,0.00000]","[1.30000,0.00000,0.00000]",-0.06615,0.14140,0.03151,0.00000,0.00000,0.00007,0.02334,0.02775,-0.05801,1.02132,1.37869,0.02198,1.42295,1.82160,1.90419,-0.49150,1.34873,1.32368,-0.51379,1.44553,1.86652,1.86652,57.78144,12.77351,57.78144196,12.77350938,A,133008.20,"[-0.20000,-0.00000,-0.00000]","[-0.10000,-0.00000,-0.00000]",1.59989,0.00000,0.00000,0.00000,0.00000,0.00000
18:04:22.962469,1.39503,0.00533,1.39585,1.39585,"[5.00000,0.00000,0.00000]","[1.30000,0.00000,0.00000]",-0.06642,0.14140,0.02585,0.00000,0.00000,0.00434,0.02044,0.00043,-0.05502,1.00821,1.38929,0.02198,1.41753,1.81701,1.89959,-0.49573,1.36259,1.32368,-0.51379,1.44553,1.86652,1.86652,57.78144,12.77351,57.78144209,12.77350930,A,133008.20,"[-0.20000,-0.00000,-0.00000]","[-0.10000,-0.00000,-0.00000]",1.61436,0.00000,0.00000,0.00000,0.00000,0.00000
18:04:22.972589,1.40515,0.00506,1.39585,1.39585,"[5.00000,0.00000,0.00000]","[1.30000,0.00000,0.00000]",-0.06617,0.14140,0.02616,0.00000,0.00000,0.00526,0.01739,0.02019,-0.02092,1.02864,1.39971,0.03175,1.41320,1.81329,1.89588,-0.50028,1.37742,1.32368,-0.51379,1.44553,1.86652,1.86652,57.78144,12.77351,57.78144222,12.77350923,A,133008.20,"[-0.20000,-0.00000,-0.00000]","[-0.10000,-0.00000,-0.00000]",1.62883,0.00000,0.00000,0.00000,0.00000,0.00000
18:04:22.983081,1.41565,0.00522,1.39585,1.39585,"[5.00000,0.00000,0.00000]","[1.30000,0.00000,0.00000]",-0.06674,0.14140,0.02662,0.00000,0.00000,0.00602,0.01204,0.03721,-0.07680,1.01955,1.40990,0.04396,1.40973,1.81014,1.89273,-0.50459,1.39160,1.32368,-0.51379,1.44553,1.86652,1.86652,57.78144,12.77351,57.78144235,12.77350916,A,133008.20,"[-0.20000,-0.00000,-0.00000]","[-0.10000,-0.00000,-0.00000]",1.64322,0.00000,0.00000,0.00000,0.00000,0.00000
18:04:23.033663,1.46621,0.04538,1.39585,1.50000,"[5.00000,0.00000,0.00000]","[1.30000,0.00000,0.00000]",-0.06663,0.14140,0.02524,0.00000,0.00000,0.00144,0.01876,-0.02660,-0.03129,1.03169,1.42068,0.02930,1.40695,1.80750,1.89009,-0.50875,1.40539,1.43750,-0.56319,1.57526,1.93466,1.93466,57.78144,12.77351,57.78144247,12.77350909,A,133008.30,"[-0.20000,-0.00000,-0.00000]","[-0.10000,-0.00000,-0.00000]",1.65768,0.00000,0.00000,0.00000,0.00000,0.00000
18:04:23.044734,1.47730,0.00542,1.39585,1.39585,"[5.00000,0.00000,0.00000]","[1.30000,0.00000,0.00000]",-0.06632,0.14140,0.02677,0.00000,0.00000,0.00389,0.02808,0.00933,-0.07899,0.92019,1.47156,0.04640,1.40473,1.82144,1.90402,-0.53208,1.47622,1.43750,-0.56319,1.57526,1.93466,1.93466,57.78144,12.77351,57.78144311,12.77350869,A,133008.30,"[-0.20000,-0.00000,-0.00000]","[-0.10000,-0.00000,-0.00000]",1.73423,0.00000,0.00000,0.00000,0.00000,0.00000
18:04:23.056495,1.48905,0.00677,1.39585,1.39585,"[5.00000,0.00000,0.00000]","[1.30000,0.00000,0.00000]",-0.06750,0.14140,0.01791,0.00000,0.00000,-0.00070,0.02365,0.06130,-0.10309,0.94934,1.48186,0.02198,1.40295,1.82725,1.90983,-0.53724,1.49159,1.43750,-0.56319,1.57526,1.93466,1.93466,57.78144,12.77351,57.78144325,12.77350860,A,133008.30,"[-0.20000,-0.00000,-0.00000]","[-0.10000,-0.00000,-0.00000]",1.74869,0.00000,0.00000,0.00000,0.00000,0.00000
18:04:23.065437,1.49775,0.00507,1.39585,1.39585,"[5.00000,0.00000,0.00000]","[1.30000,0.00000,0.00000]",-0.06815,0.14140,0.01746,0.00000,0.00000,-0.00772,0.01784,0.05014,-0.07533,1.00022,1.49229,0.03419,1.40153,1.83201,1.91460,-0.54167,1.50466,1.43750,-0.56319,1.57526,1.93466,1.93466,57.78144,12.77351,57.78144337,12.77350853,A,133008.30,"[-0.20000,-0.00000,-0.00000]","[-0.10000,-0.00000,-0.00000]",1.76315,0.00000,0.00000,0.00000,0.00000,0.00000
18:04:23.075936,1.50850,0.00542,1.39585,1.39585,"[5.00000,0.00000,0.00000]","[1.30000,0.00000,0.00000]",-0.06824,0.14140,0.01654,0.00000,0.00000,-0.00146,0.01418,-0.01909,-0.04197,1.06170,1.50249,0.03175,1.40040,1.83626,1.91885,-0.54653,1.51876,1.43750,-0.56319,1.57526,1.93466,1.93466,57.78144,12.77351,57.78144349,12.77350845,A,133008.30,"[-0.20000,-0.00000,-0.00000]","[-0.10000,-0.00000,-0.00000]",1.77762,0.00000,0.00000,0.00000,0.00000,0.00000
18:04:23.086327,1.51889,0.00540,1.39585,1.39585,"[5.00000,0.00000,0.00000]","[1.30000,0.00000,0.00000]",-0.06851,0.14140,0.01364,0.00000,0.00000,-0.00115,0.00975,0.05923,-0.05130,1.05072,1.51311,0.03663,1.39949,1.83986,1.92244,-0.55114,1.53199,1.43750,-0.56319,1.57526,1.93466,1.93466,57.78144,12.77351,57.78144361,12.77350837,A,133008.30,"[-0.20000,-0.00000,-0.00000]","[-0.10000,-0.00000,-0.00000]",1.79210,0.00000,0.00000,0.00000,0.00000,0.00000
18:04:23.096401,1.52897,0.00508,1.39585,1.39585,"[5.00000,0.00000,0.00000]","[1.30000,0.00000,0.00000]",-0.06824,0.14140,0.00783,0.00000,0.00000,-0.00329,0.00792,0.02281,-0.01037,1.05609,1.52350,0.03663,1.39876,1.84291,1.92550,-0.55556,1.54455,1.43750,-0.56319,1.57526,1.93466,1.93466,57.78144,12.77351,57.78144372,12.77350830,A,133008.30,"[-0.20000,-0.00000,-0.00000]","[-0.10000,-0.00000,-0.00000]",1.80657,0.00000,0.00000,0.00000,0.00000,0.00000
18:04:23.143053,1.57560,0.04134,1.39585,1.50000,"[5.00000,0.00000,0.00000]","[1.30000,0.00000,0.00000]",-0.06844,0.14140,0.01150,0.00000,0.00000,-0.00390,0.01067,-0.00342,-0.04374,1.03377,1.53370,0.01954,1.39818,1.84552,1.92811,-0.55983,1.55660,1.55233,-0.61260,1.72352,1.89244,1.89244,57.78145,12.77351,57.78144383,12.77350822,A,133008.40,"[-0.20000,-0.00000,-0.00000]","[-0.10000,-0.00000,-0.00000]",1.82101,0.00000,0.00000,0.00000,0.00000,0.00000
18:04:23.154259,1.58682,0.00567,1.39585,1.39585,"[5.00000,0.00000,0.00000]","[1.30000,0.00000,0.00000]",-0.06827,0.14168,0.01623,0.00000,0.00000,-0.01826,0.03312,0.03038,-0.05453,0.93403,1.58101,0.02442,1.39771,1.84678,1.92954,-0.58350,1.62127,1.55233,-0.61260,1.72352,1.89244,1.89244,57.78145,12.77351,57.78144441,12.77350782,A,133008.40,"[-0.20000,-0.00000,-0.00000]","[-0.10000,-0.00000,-0.00000]",1.89131,0.00000,0.00000,0.00000,0.00000,0.00000
18:04:23.164126,1.59668,0.00528,1.39585,1.39585,"[5.00000,0.00000,0.00000]","[1.30000,0.00000,0.00000]",-0.06866,0.14168,0.00829,0.00000,0.00000,-0.02055,0.03220,-0.03324,-0.05045,0.98515,1.59119,0.02930,1.39734,1.84241,1.92516,-0.58873,1.63644,1.55233,-0.61260,1.72352,1.89244,1.89244,57.78145,12.77351,57.78144455,12.77350774,A,133008.40,"[-0.20000,-0.00000,-0.00000]","[-0.10000,-0.00000,-0.00000]",1.90556,0.00000,0.00000,0.00000,0.00000,0.00000
18:04:23.174615,1.60718,0.00519,1.39585,1.39585,"[5.00000,0.00000,0.00000]","[1.30000,0.00000,0.00000]",-0.06935,0.14168,0.00936,0.00000,0.00000,-0.00054,0.02991,0.02959,-0.07491,1.01144,1.60141,0.02198,1.39704,1.83874,1.92149,-0.59381,1.65130,1.55233,-0.61260,1.72352,1.89244,1.89244,57.78145,12.77351,57.78144468,12.77350765,A,133008.40,"[-0.20000,-0.00000,-0.00000]","[-0.10000,-0.00000,-0.00000]",1.92004,0.00000,0.00000,0.00000,0.00000,0.00000
18:04:23.184935,1.61750,0.00512,1.39585,1.39585,"[5.00000,0.00000,0.00000]","[1.30000,0.00000,0.00000]",-0.06961,0.14168,0.00554,0.00000,0.00000,0.00037,0.02548,-0.01037,-0.04362,1.01614,1.61203,0.01954,1.39680,1.83564,1.91839,-0.59866,1.66560,1.55233,-0.61260,1.72352,1.89244,1.89244,57.78145,12.77351,57.78144481,12.77350757,A,133008.40,"[-0.20000,-0.00000,-0.00000]","[-0.10000,-0.00000,-0.00000]",1.93452,0.00000,0.00000,0.00000,0.00000,0.00000
18:04:23.195381,1.62794,0.00532,1.39585,1.39585,"[5.00000,0.00000,0.00000]","[1.30000,0.00000,0.00000]",-0.06977,0.14168,-0.00118,0.00000,0.00000,0.00526,0.01800,0.01580,-0.03471,1.05115,1.62206,0.02442,1.39661,1.83296,1.91571,-0.60308,1.67879,1.55233,-0.61260,1.72352,1.89244,1.89244,57.78145,12.77351,57.78144493,12.77350749,A,133008.40,"[-0.20000,-0.00000,-0.00000]","[-0.10000,-0.00000,-0.00000]",1.94875,0.00000,0.00000,0.00000,0.00000,0.00000
18:04:23.205800,1.63836,0.00534,1.39585,1.39585,"[5.00000,0.00000,0.00000]","[1.30000,0.00000,0.00000]",-0.06995,0.14168,0.00646,0.00000,0.00000,0.00938,0.01647,0.05978,-0.04117,1.03505,1.63266,0.02442,1.39646,1.83071,1.91346,-0.60734,1.69155,1.55233,-0.61260,1.72352,1.89244,1.89244,57.78145,12.77351,57.78144505,12.77350742,A,133008.40,"[-0.20000,-0.00000,-0.00000]","[-0.10000,-0.00000,-0.00000]",1.96321,0.00000,0.00000,0.00000,0.00000,0.00000
18:04:23.216551,1.64911,0.00569,1.39585,1.39585,"[5.00000,0.00000,0.00000]","[1.30000,0.00000,0.00000]",-0.07031,0.14168,0.00356,0.00000,0.00000,0.00755,0.01525,-0.00433,-0.04776,0.98796,1.64302,0.02686,1.39634,1.82882,1.91157,-0.61144,1.70390,1.55233,-0.61260,1.72352,1.89244,1.89244,57.78145,12.77351,57.78144516,12.77350735,A,133008.40,"[-0.20000,-0.00000,-0.00000]","[-0.10000,-0.00000,-0.00000]",1.97768,0.00000,0.00000,0.00000,0.00000,0.00000
18:04:23.262911,1.69546,0.04179,1.39585,1.50000,"[5.00000,0.00000,0.00000]","[1.30000,0.00000,0.00000]",-0.07052,0.14182,0.00615,0.00000,0.00000,0.00083,0.02075,0.04435,-0.03947,0.98039,1.65340,0.04151,1.39624,1.82712,1.90996,-0.61508,1.71499,1.67038,-0.66200,1.85325,1.93466,1.93466,57.78145,12.77351,57.78144526,12.77350729,A,133008.50,"[-0.20000,-0.00000,-0.00000]","[-0.10000,-0.00000,-0.00000]",1.99193,0.00000,0.00000,0.00000,0.00000,0.00000
18:04:23.274594,1.70715,0.00563,1.39585,1.39585,"[5.00000,0.00000,0.00000]","[1.30000,0.00000,0.00000]",-0.07052,0.14361,0.00829,0.00000,0.00000,0.00419,0.02899,-0.00018,-0.04862,1.00321,1.70133,0.02686,1.39616,1.83740,1.92129,-0.63765,1.77924,1.67038,-0.66200,1.85325,1.93466,1.93466,57.78145,12.77351,57.78144583,12.77350691,A,133008.50,"[-0.20000,-0.00000,-0.00000]","[-0.10000,-0.00000,-0.00000]",2.06369,0.00000,0.00000,0.00000,0.00000,0.00000
18:04:23.285027,1.71759,0.00563,1.39585,1.39585,"[5.00000,0.00000,0.00000]","[1.30000,0.00000,0.00000]",-0.07084,0.14395,0.00585,0.00000,0.00000,0.00862,0.01998,-0.01275,-0.05002,1.02852,1.71212,0.04396,1.39610,1.84067,1.92475,-0.64282,1.79374,1.67038,-0.66200,1.85325,1.93466,1.93466,57.78145,12.77351,57.78144596,12.77350682,A,133008.50,"[-0.20000,-0.00000,-0.00000]","[-0.10000,-0.00000,-0.00000]",2.07821,0.00000,0.00000,0.00000,0.00000,0.00000
18:04:23.295298,1.72786,0.00559,1.39585,1.39585,"[5.00000,0.00000,0.00000]","[1.30000,0.00000,0.00000]",-0.07144,0.14426,0.01043,0.00000,0.00000,0.01427,0.01708,0.05014,-0.06966,0.99900,1.72171,0.03175,1.39605,1.84329,1.92756,-0.64738,1.80645,1.67038,-0.66200,1.85325,1.93466,1.93466,57.78145,12.77351,57.78144608,12.77350675,A,133008.50,"[-0.20000,-0.00000,-0.00000]","[-0.10000,-0.00000,-0.00000]",2.09254,0.00000,0.00000,0.00000,0.00000,0.00000
18:04:23.305611,1.73816,0.00549,1.39585,1.39585,"[5.00000,0.00000,0.00000]","[1.30000,0.00000,0.00000]",-0.07193,0.14471,0.00295,0.00000,0.00000,0.00999,0.01907,0.00293,-0.05862,1.00656,1.73245,0.04396,1.39601,1.84556,1.93009,-0.65196,1.81912,1.67038,-0.66200,1.85325,1.93466,1.93466,57.78145,12.77351,57.78144619,12.77350667,A,133008.50,"[-0.20000,-0.00000,-0.00000]","[-0.10000,-0.00000,-0.00000]",2.10700,0.00000,0.00000,0.00000,0.00000,0.00000
18:04:23.315587,1.74815,0.00509,1.39585,1.39585,"[5.00000,0.00000,0.00000]","[1.30000,0.00000,0.00000]",-0.07175,0.14531,-0.00194,0.00000,0.00000,0.00190,0.01907,0.07662,-0.00970,0.99570,1.74246,0.02442,1.39598,1.84743,1.93231,-0.65631,1.83107,1.67038,-0.66200,1.85325,1.93466,1.93466,57.78145,12.77351,57.78144630,12.77350660,A,133008.50,"[-0.20000,-0.00000,-0.00000]","[-0.10000,-0.00000,-0.00000]",2.12147,0.00000,0.00000,0.00000,0.00000,0.00000
18:04:23.326673,1.75923,0.00593,1.39585,1.39585,"[5.00000,0.00000,0.00000]","[1.30000,0.00000,0.00000]",-0.07163,0.14613,0.00142,0.00000,0.00000,-0.00222,0.02441,-0.01690,-0.01653,0.99680,1.75344,0.02198,1.39595,1.84906,1.93443,-0.66081,1.84334,1.67038,-0.66200,1.85325,1.93466,1.93466,57.78145,12.77351,57.78144641,12.77350652,A,133008.50,"[-0.20000,-0.00000,-0.00000]","[-0.10000,-0.00000,-0.00000]",2.13572,0.00000,0.00000,0.00000,0.00000,0.00000
18:04:23.336807,1.76938,0.00567,1.39585,1.39585,"[5.00000,0.00000,0.00000]","[1.30000,0.00000,0.00000]",-0.07243,0.14689,0.00906,0.00000,0.00000,-0.00070,0.03052,0.05496,-0.07875,0.96282,1.76332,0.03663,1.39593,1.85021,1.93603,-0.66455,1.85350,1.67038,-0.66200,1.85325,1.93466,1.93466,57.78145,12.77351,57.78144650,12.77350646,A,133008.50,"[-0.20000,-0.00000,-0.00000]","[-0.10000,-0.00000,-0.00000]",2.15019,0.00000,0.00000,0.00000,0.00000,0.00000
18:04:23.392037,1.82458,0.05034,1.49971,1.50000,"[5.00000,0.00000,0.00000]","[1.30000,0.00000,0.00000]",-0.07268,0.14754,0.00279,0.00000,0.00000,-0.00360,0.03602,-0.01769,-0.03715,0.97612,1.77385,0.01221,1.41669,1.85128,1.93748,-0.66857,1.86434,1.80194,-0.77069,2.14977,1.92213,1.92213,57.78145,12.77350,57.78144660,12.77350639,A,133008.70,"[-0.20000,-0.00000,-0.00000]","[-0.10000,-0.00000,-0.00000]",2.16485,0.00000,0.00000,0.00000,0.00000,0.00000
18:04:23.403073,1.83564,0.00532,1.49971,1.49971,"[5.00000,0.00000,0.00000]","[1.30000,0.00000,0.00000]",-0.07288,0.14825,0.00417,0.00000,0.00000,0.00816,0.03159,0.03642,-0.04721,0.98509,1.82983,0.01465,1.43329,1.85728,1.94390,-0.69971,1.94639,1.80194,-0.77069,2.14977,1.92213,1.92213,57.78145,12.77350,57.78144734,12.77350586,A,133008.70,"[-0.20000,-0.00000,-0.00000]","[-0.10000,-0.00000,-0.00000]",2.24893,0.00000,0.00000,0.00000,0.00000,0.00000
18:04:23.413491,1.84604,0.00531,1.49971,1.49971,"[5.00000,0.00000,0.00000]","[1.30000,0.00000,0.00000]",-0.07359,0.14856,0.00921,0.00000,0.00000,-0.00008,0.02762,0.03331,-0.07351,0.99070,1.84035,0.02198,1.44658,1.85531,1.94212,-0.70744,1.96723,1.80194,-0.77069,2.14977,1.92213,1.92213,57.78145,12.77350,57.78144753,12.77350573,A,133008.70,"[-0.20000,-0.00000,-0.00000]","[-0.10000,-0.00000,-0.00000]",2.26447,0.00000,0.00000,0.00000,0.00000,0.00000
18:04:23.424883,1.85744,0.00633,1.49971,1.49971,"[5.00000,0.00000,0.00000]","[1.30000,0.00000,0.00000]",-0.07373,0.14899,0.00509,0.00000,0.00000,-0.01062,0.02777,0.05148,-0.03306,0.98442,1.85193,0.02198,1.45720,1.85384,1.94090,-0.71550,1.98896,1.80194,-0.77069,2.14977,1.92213,1.92213,57.78145,12.77350,57.78144772,12.77350560,A,133008.70,"[-0.20000,-0.00000,-0.00000]","[-0.10000,-0.00000,-0.00000]",2.28001,0.00000,0.00000,0.00000,0.00000,0.00000
18:04:23.435097,1.86766,0.00614,1.49971,1.49971,"[5.00000,0.00000,0.00000]","[1.30000,0.00000,0.00000]",-0.07420,0.14949,0.00982,0.00000,0.00000,-0.00909,0.03067,0.01379,-0.06216,1.04127,1.86111,0.03175,1.46570,1.85217,1.93953,-0.72196,2.00654,1.80194,-0.77069,2.14977,1.92213,1.92213,57.78145,12.77350,57.78144788,12.77350549,A,133008.70,"[-0.20000,-0.00000,-0.00000]","[-0.10000,-0.00000,-0.00000]",2.29556,0.00000,0.00000,0.00000,0.00000,0.00000
18:04:23.444589,1.87715,0.00523,1.49971,1.49971,"[5.00000,0.00000,0.00000]","[1.30000,0.00000,0.00000]",-0.07400,0.15000,0.00585,0.00000,0.00000,-0.00803,0.02579,0.02233,-0.01366,1.04755,1.87169,0.02686,1.47251,1.85078,1.93844,-0.72829,2.02378,1.80194,-0.77069,2.14977,1.92213,1.92213,57.78145,12.77350,57.78144803,12.77350538,A,133008.70,"[-0.20000,-0.00000,-0.00000]","[-0.10000,-0.00000,-0.00000]",2.31111,0.00000,0.00000,0.00000,0.00000,0.00000
18:04:23.455031,1.88759,0.00524,1.49971,1.49971,"[5.00000,0.00000,0.00000]","[1.30000,0.00000,0.00000]",-0.07406,0.15043,0.01776,0.00000,0.00000,-0.00512,0.02945,0.03630,-0.03727,1.00931,1.88179,0.03175,1.47795,1.84966,1.93757,-0.73462,2.04099,1.80194,-0.77069,2.14977,1.92213,1.92213,57.78145,12.77350,57.78144819,12.77350528,A,133008.70,"[-0.20000,-0.00000,-0.00000]","[-0.10000,-0.00000,-0.00000]",2.32669,0.00000,0.00000,0.00000,0.00000,0.00000
18:04:23.465684,1.89823,0.00548,1.49971,1.49971,"[5.00000,0.00000,0.00000]","[1.30000,0.00000,0.00000]",-0.07435,0.15080,0.01883,0.00000,0.00000,-0.00909,0.03083,-0.00494,-0.05514,1.01242,1.89239,0.02686,1.48230,1.84872,1.93685,-0.74071,2.05759,1.80194,-0.77069,2.14977,1.92213,1.92213,57.78145,12.77350,57.78144834,12.77350517,A,133008.70,"[-0.20000,-0.00000,-0.00000]","[-0.10000,-0.00000,-0.00000]",2.34224,0.00000,0.00000,0.00000,0.00000,0.00000
18:04:23.507940,1.94049,0.03734,1.49971,1.50000,"[5.00000,0.00000,0.00000]","[1.30000,0.00000,0.00000]",-0.07444,0.15108,0.02173,0.00000,0.00000,-0.00268,0.03388,0.02525,-0.03880,0.96026,1.90256,0.02198,1.48578,1.84792,1.93621,-0.74655,2.07352,1.91979,-0.82997,2.29803,1.95118,1.95118,57.78145,12.77350,57.78144848,12.77350507,A,133008.80,"[-0.20000,-0.00000,-0.00000]","[-0.10000,-0.00000,-0.00000]",2.35778,0.00000,0.00000,0.00000,0.00000,0.00000
18:04:23.520990,1.95356,0.00628,1.49971,1.49971,"[5.00000,0.00000,0.00000]","[1.30000,0.00000,0.00000]",-0.07416,0.15224,0.03334,0.00000,0.00000,0.00221,0.04029,0.03410,-0.10132,0.99113,1.94806,0.02686,1.48857,1.85731,1.94629,-0.77268,2.14213,1.91979,-0.82997,2.29803,1.95118,1.95118,57.78145,12.77350,57.78144910,12.77350463,A,133008.80,"[-0.20000,-0.00000,-0.00000]","[-0.10000,-0.00000,-0.00000]",2.42394,0.00000,0.00000,0.00000,0.00000,0.00000
18:04:23.530516,1.96307,0.00539,1.49971,1.49971,"[5.00000,0.00000,0.00000]","[1.30000,0.00000,0.00000]",-0.07391,0.15249,0.03578,0.00000,0.00000,-0.00543,0.04090,0.06271,-0.02763,1.03218,1.95729,0.02442,1.49080,1.85927,1.94840,-0.77940,2.15972,1.91979,-0.82997,2.29803,1.95118,1.95118,57.78145,12.77350,57.78144926,12.77350452,A,133008.80,"[-0.20000,-0.00000,-0.00000]","[-0.10000,-0.00000,-0.00000]",2.43948,0.00000,0.00000,0.00000,0.00000,0.00000
18:04:23.540596,1.97316,0.00508,1.49971,1.49971,"[5.00000,0.00000,0.00000]","[1.30000,0.00000,0.00000]",-0.07436,0.15275,0.03884,0.00000,0.00000,-0.01337,0.03953,0.07887,-0.08174,1.04188,1.96770,0.01709,1.49258,1.86107,1.95035,-0.78628,2.17762,1.91979,-0.82997,2.29803,1.95118,1.95118,57.78145,12.77350,57.78144942,12.77350440,A,133008.80,"[-0.20000,-0.00000,-0.00000]","[-0.10000,-0.00000,-0.00000]",2.45503,0.00000,0.00000,0.00000,0.00000,0.00000
18:04:23.551243,1.98380,0.00549,1.49971,1.49971,"[5.00000,0.00000,0.00000]","[1.30000,0.00000,0.00000]",-0.07405,0.15298,0.03563,0.00000,0.00000,-0.01123,0.03831,0.00586,-0.02519,1.02535,1.97774,0.02686,1.49401,1.86258,1.95199,-0.79282,2.19456,1.91979,-0.82997,2.29803,1.95118,1.95118,57.78145,12.77350,57.78144957,12.77350429,A,133008.80,"[-0.20000,-0.00000,-0.00000]","[-0.10000,-0.00000,-0.00000]",2.47032,0.00000,0.00000,0.00000,0.00000,0.00000
18:04:23.561486,1.99403,0.00509,1.49971,1.49971,"[5.00000,0.00000,0.00000]","[1.30000,0.00000,0.00000]",-0.07419,0.15317,0.04220,0.00000,0.00000,-0.01902,0.03968,-0.00573,-0.05740,0.97722,1.98834,0.03175,1.49515,1.86384,1.95337,-0.79904,2.21061,1.91979,-0.82997,2.29803,1.95118,1.95118,57.78145,12.77350,57.78144971,12.77350419,A,133008.80,"[-0.20000,-0.00000,-0.00000]","[-0.10000,-0.00000,-0.00000]",2.48586,0.00000,0.00000,0.00000,0.00000,0.00000
18:04:23.571627,2.00419,0.00525,1.49971,1.49971,"[5.00000,0.00000,0.00000]","[1.30000,0.00000,0.00000]",-0.07429,0.15343,0.04449,0.00000,0.00000,-0.01398,0.03541,0.00567,-0.05234,0.94501,1.99849,0.03175,1.49606,1.86492,1.95460,-0.80504,2.22605,1.91979,-0.82997,2.29803,1.95118,1.95118,57.78145,12.77350,57.78144985,12.77350409,A,133008.80,"[-0.20000,-0.00000,-0.00000]","[-0.10000,-0.00000,-0.00000]",2.50116,0.00000,0.00000,0.00000,0.00000,0.00000
18:04:23.584848,2.01740,0.00805,1.49971,1.49971,"[5.00000,0.00000,0.00000]","[1.30000,0.00000,0.00000]",-0.07436,0.15374,0.04556,0.00000,0.00000,-0.01001,0.03388,-0.05618,-0.05423,0.96770,2.00918,0.02686,1.49679,1.86586,1.95573,-0.81092,2.24112,1.91979,-0.82997,2.29803,1.95118,1.95118,57.78145,12.77350,57.78144999,12.77350399,A,133008.80,"[-0.20000,-0.00000,-0.00000]","[-0.10000,-0.00000,-0.00000]",2.51671,0.00000,0.00000,0.00000,0.00000,0.00000
18:04:23.631882,2.06443,0.04480,1.49971,1.50000,"[5.00000,0.00000,0.00000]","[1.30000,0.00000,0.00000]",-0.07444,0.15411,0.04815,0.00000,0.00000,-0.00436,0.03220,0.07832,-0.05094,0.91384,2.01925,0.02442,1.49738,1.86652,1.95660,-0.81616,2.25455,2.03600,-0.87937,2.44629,1.89244,1.89244,57.78145,12.77350,57.78145011,12.77350390,A,133008.90,"[-0.20000,-0.00000,-0.00000]","[-0.10000,-0.00000,-0.00000]",2.53208,0.00000,0.00000,0.00000,0.00000,0.00000
18:04:23.644497,2.07706,0.00564,1.49971,1.49971,"[5.00000,0.00000,0.00000]","[1.30000,0.00000,0.00000]",-0.07332,0.15688,0.02341,0.00000,0.00000,0.00694,0.00563,-0.11712,-0.03453,1.16693,2.07118,0.02686,1.49784,1.86523,1.95695,-0.84616,2.33021,2.03600,-0.87937,2.44629,1.89244,1.89244,57.78145,12.77350,57.78145079,12.77350339,A,133008.90,"[-0.20000,-0.00000,-0.00000]","[-0.10000,-0.00000,-0.00000]",2.60973,0.00000,0.00000,0.00000,0.00000,0.00000
18:04:23.655023,2.08759,0.00558,1.49971,1.49971,"[5.00000,0.00000,0.00000]","[1.30000,0.00000,0.00000]",-0.07309,0.15784,0.01623,0.00000,0.00000,0.00205,-0.01026,-0.01397,-0.01891,1.11160,2.08144,0.01465,1.49822,1.85695,1.94924,-0.85236,2.34719,2.03600,-0.87937,2.44629,1.89244,1.89244,57.78145,12.77350,57.78145094,12.77350329,A,133008.90,"[-0.20000,-0.00000,-0.00000]","[-0.10000,-0.00000,-0.00000]",2.62528,0.00000,0.00000,0.00000,0.00000,0.00000
18:04:23.665580,2.09812,0.00572,1.49971,1.49971,"[5.00000,0.00000,0.00000]","[1.30000,0.00000,0.00000]",-0.07141,0.15903,0.03960,0.00000,0.00000,-0.00619,-0.00506,-0.06118,0.06698,1.03901,2.09204,0.01709,1.49852,1.84983,1.94282,-0.85821,2.36344,2.03600,-0.87937,2.44629,1.89244,1.89244,57.78145,12.77350,57.78145109,12.77350319,A,133008.90,"[-0.20000,-0.00000,-0.00000]","[-0.10000,-0.00000,-0.00000]",2.64082,0.00000,0.00000,0.00000,0.00000,0.00000
18:04:23.676290,2.10885,0.00566,1.49971,1.49971,"[5.00000,0.00000,0.00000]","[1.30000,0.00000,0.00000]",-0.07141,0.16031,0.06129,0.00000,0.00000,-0.00787,0.00150,-0.46177,-0.05222,0.91036,2.10295,0.03663,1.49875,1.84378,1.93752,-0.86401,2.37973,2.03600,-0.87937,2.44629,1.89244,1.89244,57.78145,12.77350,57.78145123,12.77350309,A,133008.90,"[-0.20000,-0.00000,-0.00000]","[-0.10000,-0.00000,-0.00000]",2.65695,0.00000,0.00000,0.00000,0.00000,0.00000
18:04:23.686782,2.11934,0.00574,1.49971,1.49971,"[5.00000,0.00000,0.00000]","[1.30000,0.00000,0.00000]",-0.07153,0.16130,0.05884,0.00000,0.00000,0.01061,0.01311,-0.12096,-0.05581,0.91134,2.11321,0.02198,1.49895,1.83844,1.93277,-0.86909,2.39431,2.03600,-0.87937,2.44629,1.89244,1.89244,57.78145,12.77350,57.78145137,12.77350301,A,133008.90,"[-0.20000,-0.00000,-0.00000]","[-0.10000,-0.00000,-0.00000]",2.67249,0.00000,0.00000,0.00000,0.00000,0.00000
18:04:23.696788,2.12935,0.00535,1.49971,1.49971,"[5.00000,0.00000,0.00000]","[1.30000,0.00000,0.00000]",-0.07099,0.16189,0.06266,0.00000,0.00000,0.00266,0.03587,-0.07479,-0.01531,0.86284,2.12351,0.02930,1.49910,1.83382,1.92850,-0.87377,2.40791,2.03600,-0.87937,2.44629,1.89244,1.89244,57.78145,12.77350,57.78145149,12.77350293,A,133008.90,"[-0.20000,-0.00000,-0.00000]","[-0.10000,-0.00000,-0.00000]",2.68803,0.00000,0.00000,0.00000,0.00000,0.00000
18:04:23.739687,2.17225,0.03797,1.49971,1.50000,"[5.00000,0.00000,0.00000]","[1.30000,0.00000,0.00000]",-0.07086,0.16215,0.06480,0.00000,0.00000,-0.01979,0.05098,0.06545,-0.04447,0.92543,2.13371,0.02198,1.49922,1.82991,1.92474,-0.87826,2.42108,2.15081,-0.93866,2.59455,1.95118,1.95118,57.78145,12.77350,57.78145161,12.77350285,A,133009.00,"[-0.20000,-0.00000,-0.00000]","[-0.10000,-0.00000,-0.00000]",2.70340,0.00000,0.00000,0.00000,0.00000,0.00000
18:04:23.752851,2.18541,0.00583,1.49971,1.49971,"[5.00000,0.00000,0.00000]","[1.30000,0.00000,0.00000]",-0.06815,0.16217,0.05930,0.00000,0.00000,0.02450,0.03419,-0.02763,-0.01616,1.06610,2.17933,0.02686,1.49932,1.84171,1.93656,-0.90273,2.48780,2.15081,-0.93866,2.59455,1.95118,1.95118,57.78145,12.77350,57.78145221,12.77350244,A,133009.00,"[-0.20000,-0.00000,-0.00000]","[-0.10000,-0.00000,-0.00000]",2.77132,0.00000,0.00000,0.00000,0.00000,0.00000
18:04:23.763205,2.19577,0.00558,1.49971,1.49971,"[5.00000,0.00000,0.00000]","[1.30000,0.00000,0.00000]",-0.06793,0.16217,0.05991,0.00000,0.00000,0.00450,0.00853,-0.00952,-0.03983,1.02334,2.18964,0.03907,1.49940,1.84544,1.94029,-0.90886,2.50445,2.15081,-0.93866,2.59455,1.95118,1.95118,57.78145,12.77350,57.78145236,12.77350234,A,133009.00,"[-0.20000,-0.00000,-0.00000]","[-0.10000,-0.00000,-0.00000]",2.78717,0.00000,0.00000,0.00000,0.00000,0.00000
18:04:23.775039,2.20760,0.00701,1.49971,1.49971,"[5.00000,0.00000,0.00000]","[1.30000,0.00000,0.00000]",-0.06831,0.16217,0.04968,0.00000,0.00000,-0.01612,-0.00216,-0.07936,-0.07216,0.99174,2.20021,0.03663,1.49946,1.84861,1.94346,-0.91474,2.52029,2.15081,-0.93866,2.59455,1.95118,1.95118,57.78145,12.77350,57.78145250,12.77350224,A,133009.00,"[-0.20000,-0.00000,-0.00000]","[-0.10000,-0.00000,-0.00000]",2.80271,0.00000,0.00000,0.00000,0.00000,0.00000
18:04:23.784133,2.21669,0.00571,1.49971,1.49971,"[5.00000,0.00000,0.00000]","[1.30000,0.00000,0.00000]",-0.06911,0.16217,0.04158,0.00000,0.00000,-0.01154,-0.00323,-0.17989,-0.09101,0.96337,2.21063,0.02198,1.49951,1.85110,1.94595,-0.91975,2.53376,2.15081,-0.93866,2.59455,1.95118,1.95118,57.78145,12.77350,57.78145262,12.77350215,A,133009.00,"[-0.20000,-0.00000,-0.00000]","[-0.10000,-0.00000,-0.00000]",2.81826,0.00000,0.00000,0.00000,0.00000,0.00000
18:04:23.794604,2.22717,0.00579,1.63327,1.63327,"[5.00000,0.00000,0.00000]","[1.30000,0.00000,0.00000]",-0.06882,0.16217,0.03303,0.00000,0.00000,0.00266,0.00211,-0.15067,-0.00744,0.92909,2.22102,0.03175,1.52626,1.85340,1.94825,-0.92509,2.54796,2.15081,-0.93866,2.59455,1.95118,1.95118,57.78145,12.77350,57.78145275,12.77350206,A,133009.00,"[-0.20000,-0.00000,-0.00000]","[-0.10000,-0.00000,-0.00000]",2.83380,0.00000,0.00000,0.00000,0.00000,0.00000
18:04:23.804680,2.23724,0.00546,1.63327,1.63327,"[5.00000,0.00000,0.00000]","[1.30000,0.00000,0.00000]",-0.06836,0.16217,0.04158,0.00000,0.00000,-0.00131,0.00899,-0.01800,-0.00323,0.94135,2.23138,0.03175,1.54766,1.85537,1.95022,-0.93020,2.56148,2.15081,-0.93866,2.59455,1.95118,1.95118,57.78145,12.77350,57.78145287,12.77350198,A,133009.00,"[-0.20000,-0.00000,-0.00000]","[-0.10000,-0.00000,-0.00000]",2.85072,0.00000,0.00000,0.00000,0.00000,0.00000
18:04:23.815262,2.24782,0.00556,1.63327,1.63327,"[5.00000,0.00000,0.00000]","[1.30000,0.00000,0.00000]",-0.06789,0.16215,0.04785,0.00000,0.00000,-0.01276,0.02212,-0.02190,-0.00823,0.98600,2.24170,0.02198,1.56478,1.85711,1.95194,-0.93528,2.57481,2.15081,-0.93866,2.59455,1.95118,1.95118,57.78145,12.77350,57.78145299,12.77350189,A,133009.00,"[-0.20000,-0.00000,-0.00000]","[-0.10000,-0.00000,-0.00000]",2.86779,0.00000,0.00000,0.00000,0.00000,0.00000
18:04:23.859848,2.29240,0.03974,1.63327,1.50000,"[5.00000,0.00000,0.00000]","[1.30000,0.00000,0.00000]",-0.06795,0.16181,0.04403,0.00000,0.00000,-0.01383,0.02792,-0.07131,-0.04264,1.01065,2.25229,0.01465,1.57848,1.85863,1.95327,-0.94017,2.58758,2.26902,-0.98806,2.74281,1.89244,1.89244,57.78145,12.77350,57.78145310,12.77350181,A,133009.10,"[-0.20000,-0.00000,-0.00000]","[-0.10000,-0.00000,-0.00000]",2.88472,0.00000,0.00000,0.00000,0.00000,0.00000
18:04:23.871282,2.30384,0.00570,1.63327,1.63327,"[5.00000,0.00000,0.00000]","[1.30000,0.00000,0.00000]",-0.06642,0.15473,0.03074,0.00000,0.00000,-0.01062,0.01006,0.01671,0.00384,0.94904,2.29765,0.03419,1.58944,1.85841,1.94886,-0.96698,2.65602,2.26902,-0.98806,2.74281,1.89244,1.89244,57.78145,12.77350,57.78145372,12.77350136,A,133009.10,"[-0.20000,-0.00000,-0.00000]","[-0.10000,-0.00000,-0.00000]",2.95289,0.00000,0.00000,0.00000,0.00000,0.00000
18:04:23.882072,2.31463,0.00625,1.63327,1.63327,"[5.00000,0.00000,0.00000]","[1.30000,0.00000,0.00000]",-0.06613,0.15312,0.02845,0.00000,0.00000,-0.02650,0.01326,-0.02019,-0.00799,0.99186,2.30815,0.03419,1.59820,1.85162,1.94112,-0.97272,2.67217,2.26902,-0.98806,2.74281,1.89244,1.89244,57.78145,12.77350,57.78145386,12.77350126,A,133009.10,"[-0.20000,-0.00000,-0.00000]","[-0.10000,-0.00000,-0.00000]",2.96956,0.00000,0.00000,0.00000,0.00000,0.00000
18:04:23.891625,2.32418,0.00558,1.63327,1.63327,"[5.00000,0.00000,0.00000]","[1.30000,0.00000,0.00000]",-0.06652,0.15187,0.02250,0.00000,0.00000,-0.01841,0.01479,-0.11309,-0.04904,1.00961,2.31806,0.03175,1.60522,1.84585,1.93461,-0.97777,2.68673,2.26902,-0.98806,2.74281,1.89244,1.89244,57.78145,12.77350,57.78145400,12.77350117,A,133009.10,"[-0.20000,-0.00000,-0.00000]","[-0.10000,-0.00000,-0.00000]",2.98622,0.00000,0.00000,0.00000,0.00000,0.00000
18:04:23.902163,2.33472,0.00571,1.63327,1.63327,"[5.00000,0.00000,0.00000]","[1.30000,0.00000,0.00000]",-0.06658,0.15097,0.01089,0.00000,0.00000,-0.00421,0.01342,-0.05484,-0.02019,1.00894,2.32863,0.03175,1.61083,1.84115,1.92938,-0.98293,2.70172,2.26902,-0.98806,2.74281,1.89244,1.89244,57.78145,12.77350,57.78145413,12.77350109,A,133009.10,"[-0.20000,-0.00000,-0.00000]","[-0.10000,-0.00000,-0.00000]",3.00314,0.00000,0.00000,0.00000,0.00000,0.00000
18:04:23.912451,2.34502,0.00561,1.63327,1.63327,"[5.00000,0.00000,0.00000]","[1.30000,0.00000,0.00000]",-0.06681,0.15046,0.01272,0.00000,0.00000,0.00526,0.00838,-0.01019,-0.03080,0.97783,2.33915,0.07082,1.61532,1.83724,1.92516,-0.98789,2.71633,2.26902,-0.98806,2.74281,1.89244,1.89244,57.78145,12.77350,57.78145426,12.77350100,A,133009.10,"[-0.20000,-0.00000,-0.00000]","[-0.10000,-0.00000,-0.00000]",3.02008,0.00000,0.00000,0.00000,0.00000,0.00000
18:04:23.923013,2.35557,0.00559,1.63327,1.63327,"[5.00000,0.00000,0.00000]","[1.30000,0.00000,0.00000]",-0.06621,0.15023,0.00402,0.00000,0.00000,0.00572,0.00945,-0.02635,0.02873,1.00351,2.34943,0.04396,1.61891,1.83388,1.92167,-0.99242,2.72989,2.26902,-0.98806,2.74281,1.89244,1.89244,57.78145,12.77350,57.78145438,12.77350093,A,133009.10,"[-0.20000,-0.00000,-0.00000]","[-0.10000,-0.00000,-0.00000]",3.03700,0.00000,0.00000,0.00000,0.00000,0.00000
18:04:23.936660,2.36872,0.00834,1.63327,1.63327,"[5.00000,0.00000,0.00000]","[1.30000,0.00000,0.00000]",-0.06612,0.15023,0.00570,0.00000,0.00000,0.01412,0.01158,-0.00671,-0.00598,1.00601,2.36001,0.05128,1.62178,1.83103,1.91883,-0.99671,2.74284,2.26902,-0.98806,2.74281,1.89244,1.89244,57.78145,12.77350,57.78145450,12.77350085,A,133009.10,"[-0.20000,-0.00000,-0.00000]","[-0.10000,-0.00000,-0.00000]",3.05393,0.00000,0.00000,0.00000,0.00000,0.00000
18:04:23.988670,2.42122,0.05049,1.63327,1.50000,"[5.00000,0.00000,0.00000]","[1.30000,0.00000,0.00000]",-0.06688,0.15023,0.00127,0.00000,0.00000,0.00831,0.01219,0.00256,-0.05954,0.99357,2.37014,0.04640,1.62408,1.82817,1.91597,-0.99946,2.75163,2.39796,-1.08687,3.00226,1.93466,1.93466,57.78146,12.77350,57.78145458,12.77350081,A,133009.30,"[-0.20000,-0.00000,-0.00000]","[-0.10000,-0.00000,-0.00000]",3.07081,0.00000,0.00000,0.00000,0.00000,0.00000
18:04:24.000668,2.43323,0.00564,1.63327,1.63327,"[5.00000,0.00000,0.00000]","[1.30000,0.00000,0.00000]",-0.06922,0.14901,-0.02958,0.00000,0.00000,-0.00024,0.00883,0.04819,-0.05350,0.99894,2.42733,0.02686,1.62591,1.84107,1.92814,-1.03262,2.84422,2.39796,-1.08687,3.00226,1.93466,1.93466,57.78146,12.77350,57.78145541,12.77350025,A,133009.30,"[-0.20000,-0.00000,-0.00000]","[-0.10000,-0.00000,-0.00000]",3.15607,0.00000,0.00000,0.00000,0.00000,0.00000
18:04:24.011153,2.44371,0.00558,1.63327,1.63327,"[5.00000,0.00000,0.00000]","[1.30000,0.00000,0.00000]",-0.06977,0.14853,-0.03248,0.00000,0.00000,0.00144,0.00715,0.02202,-0.02544,0.98326,2.43758,0.03907,1.62738,1.84360,1.93039,-1.03989,2.86433,2.39796,-1.08687,3.00226,1.93466,1.93466,57.78146,12.77350,57.78145559,12.77350013,A,133009.30,"[-0.20000,-0.00000,-0.00000]","[-0.10000,-0.00000,-0.00000]",3.17323,0.00000,0.00000,0.00000,0.00000,0.00000
18:04:24.021679,2.45423,0.00570,1.63327,1.63327,"[5.00000,0.00000,0.00000]","[1.30000,0.00000,0.00000]",-0.07002,0.14799,-0.03768,0.00000,0.00000,0.00908,0.00746,0.06460,-0.00262,0.99961,2.44816,0.03663,1.62856,1.84582,1.93229,-1.04688,2.88358,2.39796,-1.08687,3.00226,1.93466,1.93466,57.78146,12.77350,57.78145577,12.77350001,A,133009.30,"[-0.20000,-0.00000,-0.00000]","[-0.10000,-0.00000,-0.00000]",3.19016,0.00000,0.00000,0.00000,0.00000,0.00000
18:04:24.031796,2.46435,0.00559,1.63327,1.63327,"[5.00000,0.00000,0.00000]","[1.30000,0.00000,0.00000]",-0.07060,0.14746,-0.03477,0.00000,0.00000,0.00282,0.00517,0.11523,-0.02599,0.96630,2.45825,0.03907,1.62950,1.84771,1.93387,-1.05344,2.90156,2.39796,-1.08687,3.00226,1.93466,1.93466,57.78146,12.77350,57.78145593,12.77349990,A,133009.30,"[-0.20000,-0.00000,-0.00000]","[-0.10000,-0.00000,-0.00000]",3.20681,0.00000,0.00000,0.00000,0.00000,0.00000
18:04:24.043044,2.47561,0.00593,1.63327,1.63327,"[5.00000,0.00000,0.00000]","[1.30000,0.00000,0.00000]",-0.07152,0.14689,-0.03538,0.00000,0.00000,-0.00299,0.00578,0.08461,-0.04660,0.97868,2.46941,0.01465,1.63026,1.84951,1.93533,-1.06014,2.91983,2.39796,-1.08687,3.00226,1.93466,1.93466,57.78146,12.77350,57.78145609,12.77349978,A,133009.30,"[-0.20000,-0.00000,-0.00000]","[-0.10000,-0.00000,-0.00000]",3.22457,0.00000,0.00000,0.00000,0.00000,0.00000
18:04:24.053410,2.48575,0.00567,1.63327,1.63327,"[5.00000,0.00000,0.00000]","[1.30000,0.00000,0.00000]",-0.07261,0.14632,-0.04913,0.00000,0.00000,-0.00146,0.00746,0.04252,-0.05252,0.97960,2.47968,0.03663,1.63086,1.85091,1.93640,-1.06599,2.93578,2.39796,-1.08687,3.00226,1.93466,1.93466,57.78146,12.77350,57.78145624,12.77349969,A,133009.30,"[-0.20000,-0.00000,-0.00000]","[-0.10000,-0.00000,-0.00000]",3.24149,0.00000,0.00000,0.00000,0.00000,0.00000
18:04:24.063314,2.49587,0.00557,1.63327,1.63327,"[5.00000,0.00000,0.00000]","[1.30000,0.00000,0.00000]",-0.07319,0.14567,-0.04867,0.00000,0.00000,0.00160,0.00517,0.05362,-0.02098,0.98173,2.48974,0.02198,1.63134,1.85214,1.93724,-1.07151,2.95080,2.39796,-1.08687,3.00226,1.93466,1.93466,57.78146,12.77350,57.78145637,12.77349959,A,133009.30,"[-0.20000,-0.00000,-0.00000]","[-0.10000,-0.00000,-0.00000]",3.25814,0.00000,0.00000,0.00000,0.00000,0.00000
18:04:24.106187,2.53874,0.03804,1.63327,1.50000,"[5.00000,0.00000,0.00000]","[1.30000,0.00000,0.00000]",-0.07432,0.14485,-0.04699,0.00000,0.00000,0.00282,0.00471,0.12115,-0.05606,0.97734,2.50050,0.01954,1.63173,1.85336,1.93798,-1.07712,2.96598,2.51755,-1.13627,3.13199,1.93466,1.93466,57.78146,12.77350,57.78145651,12.77349950,A,133009.40,"[-0.20000,-0.00000,-0.00000]","[-0.10000,-0.00000,-0.00000]",3.27507,0.00000,0.00000,0.00000,0.00000,0.00000
18:04:24.117723,2.55028,0.00584,1.63327,1.63327,"[5.00000,0.00000,0.00000]","[1.30000,0.00000,0.00000]",-0.07650,0.14092,-0.05829,0.00000,0.00000,-0.00238,-0.00399,0.03318,0.00281,1.00870,2.54416,0.00733,1.63203,1.86056,1.94286,-1.10340,3.03492,2.51755,-1.13627,3.13199,1.93466,1.93466,57.78146,12.77350,57.78145713,12.77349905,A,133009.40,"[-0.20000,-0.00000,-0.00000]","[-0.10000,-0.00000,-0.00000]",3.34064,0.00000,0.00000,0.00000,0.00000,0.00000
18:04:24.127705,2.56027,0.00560,1.63327,1.63327,"[5.00000,0.00000,0.00000]","[1.30000,0.00000,0.00000]",-0.07722,0.13998,-0.05295,0.00000,0.00000,0.00801,-0.00201,0.09504,-0.03196,0.97100,2.55414,0.01954,1.63228,1.86081,1.94256,-1.10966,3.05161,2.51755,-1.13627,3.13199,1.93466,1.93466,57.78146,12.77350,57.78145728,12.77349895,A,133009.40,"[-0.20000,-0.00000,-0.00000]","[-0.10000,-0.00000,-0.00000]",3.35729,0.00000,0.00000,0.00000,0.00000,0.00000
18:04:24.140652,2.57319,0.00812,1.63327,1.63327,"[5.00000,0.00000,0.00000]","[1.30000,0.00000,0.00000]",-0.07815,0.13888,-0.04943,0.00000,0.00000,-0.00680,-0.00247,0.12121,-0.04715,0.97069,2.56470,0.01221,1.63248,1.86117,1.94227,-1.11580,3.06798,2.51755,-1.13627,3.13199,1.93466,1.93466,57.78146,12.77350,57.78145742,12.77349885,A,133009.40,"[-0.20000,-0.00000,-0.00000]","[-0.10000,-0.00000,-0.00000]",3.37421,0.00000,0.00000,0.00000,0.00000,0.00000
18:04:24.148380,2.58094,0.00569,1.63327,1.63327,"[5.00000,0.00000,0.00000]","[1.30000,0.00000,0.00000]",-0.07966,0.13775,-0.04501,0.00000,0.00000,-0.01291,0.00120,0.12554,-0.09138,0.97887,2.57465,0.03663,1.63264,1.86125,1.94168,-1.12058,3.08081,2.51755,-1.13627,3.13199,1.93466,1.93466,57.78146,12.77350,57.78145754,12.77349876,A,133009.40,"[-0.20000,-0.00000,-0.00000]","[-0.10000,-0.00000,-0.00000]",3.39080,0.00000,0.00000,0.00000,0.00000,0.00000
18:04:24.159012,2.59157,0.00590,1.63327,1.63327,"[5.00000,0.00000,0.00000]","[1.30000,0.00000,0.00000]",-0.08145,0.13642,-0.05203,0.00000,0.00000,-0.01536,-0.00201,0.07857,-0.10888,1.00138,2.58527,0.01465,1.63276,1.86175,1.94140,-1.12622,3.09585,2.51755,-1.13627,3.13199,1.93466,1.93466,57.78146,12.77350,57.78145767,12.77349867,A,133009.40,"[-0.20000,-0.00000,-0.00000]","[-0.10000,-0.00000,-0.00000]",3.40777,0.00000,0.00000,0.00000,0.00000,0.00000
18:04:24.168967,2.60152,0.00546,1.63327,1.63327,"[5.00000,0.00000,0.00000]","[1.30000,0.00000,0.00000]",-0.08200,0.13515,-0.05921,0.00000,0.00000,0.00098,-0.00201,0.03812,-0.02287,0.99942,2.59568,0.01221,1.63286,1.86221,1.94111,-1.13133,3.10952,2.51755,-1.13627,3.13199,1.93466,1.93466,57.78146,12.77350,57.78145780,12.77349858,A,133009.40,"[-0.20000,-0.00000,-0.00000]","[-0.10000,-0.00000,-0.00000]",3.42470,0.00000,0.00000,0.00000,0.00000,0.00000
18:04:24.179446,2.61200,0.00561,1.63327,1.63327,"[5.00000,0.00000,0.00000]","[1.30000,0.00000,0.00000]",-0.08348,0.13398,-0.04623,0.00000,0.00000,0.01259,-0.01071,0.00201,-0.08467,0.91195,2.60585,0.00244,1.63294,1.86272,1.94094,-1.13631,3.12284,2.51755,-1.13627,3.13199,1.93466,1.93466,57.78146,12.77350,57.78145792,12.77349850,A,133009.40,"[-0.20000,-0.00000,-0.00000]","[-0.10000,-0.00000,-0.00000]",3.44150,0.00000,0.00000,0.00000,0.00000,0.00000
18:04:24.222183,2.65474,0.03794,1.63327,1.50000,"[5.00000,0.00000,0.00000]","[1.30000,0.00000,0.00000]",-0.08468,0.13311,-0.04928,0.00000,0.00000,0.00068,-0.00873,0.45805,-0.07564,1.00790,2.61642,0.00488,1.63301,1.86324,1.94094,-1.14109,3.13561,2.63315,-1.19555,3.26172,1.99944,1.99944,57.78146,12.77350,57.78145803,12.77349842,A,133009.50,"[-0.20000,-0.00000,-0.00000]","[-0.10000,-0.00000,-0.00000]",3.45844,0.00000,0.00000,0.00000,0.00000,0.00000
18:04:24.233843,2.66640,0.00585,1.63327,1.63327,"[5.00000,0.00000,0.00000]","[1.30000,0.00000,0.00000]",-0.08641,0.13240,-0.03920,0.00000,0.00000,0.02756,-0.01224,0.18623,-0.03038,0.95483,2.66028,0.00000,1.63306,1.87886,1.95615,-1.16744,3.20281,2.63315,-1.19555,3.26172,1.99944,1.99944,57.78146,12.77350,57.78145864,12.77349797,A,133009.50,"[-0.20000,-0.00000,-0.00000]","[-0.10000,-0.00000,-0.00000]",3.52403,0.00000,0.00000,0.00000,0.00000,0.00000
18:04:24.245313,2.67766,0.00672,1.63327,1.63327,"[5.00000,0.00000,0.00000]","[1.30000,0.00000,0.00000]",-0.08603,0.13240,-0.02256,0.00000,0.00000,0.00679,-0.01300,0.32617,0.01068,0.95441,2.67156,0.01221,1.63310,1.88688,1.96417,-1.17439,3.21942,2.63315,-1.19555,3.26172,1.99944,1.99944,57.78146,12.77350,57.78145879,12.77349786,A,133009.50,"[-0.20000,-0.00000,-0.00000]","[-0.10000,-0.00000,-0.00000]",3.54095,0.00000,0.00000,0.00000,0.00000,0.00000
18:04:24.254685,2.68724,0.00591,1.63327,1.63327,"[5.00000,0.00000,0.00000]","[1.30000,0.00000,0.00000]",-0.08588,0.13240,-0.01492,0.00000,0.00000,-0.01536,-0.00277,0.22387,-0.01336,1.00918,2.68096,0.00000,1.63314,1.89336,1.97064,-1.17984,3.23212,2.63315,-1.19555,3.26172,1.99944,1.99944,57.78146,12.77350,57.78145890,12.77349777,A,133009.50,"[-0.20000,-0.00000,-0.00000]","[-0.10000,-0.00000,-0.00000]",3.55787,0.00000,0.00000,0.00000,0.00000,0.00000
18:04:24.264607,2.69717,0.00544,1.63327,1.63327,"[5.00000,0.00000,0.00000]","[1.30000,0.00000,0.00000]",-0.08636,0.13240,-0.00515,0.00000,0.00000,-0.01994,0.00838,0.03013,-0.06411,1.04523,2.69133,0.00244,1.63316,1.89899,1.97627,-1.18557,3.24530,2.63315,-1.19555,3.26172,1.99944,1.99944,57.78146,12.77350,57.78145902,12.77349767,A,133009.50,"[-0.20000,-0.00000,-0.00000]","[-0.10000,-0.00000,-0.00000]",3.57479,0.00000,0.00000,0.00000,0.00000,0.00000
18:04:24.275502,2.70806,0.00573,1.63327,1.63327,"[5.00000,0.00000,0.00000]","[1.30000,0.00000,0.00000]",-0.08794,0.13240,-0.00530,0.00000,0.00000,0.00847,0.01128,-0.00769,-0.14061,1.03425,2.70178,0.00244,1.63318,1.90386,1.98114,-1.19139,3.25853,2.63315,-1.19555,3.26172,1.99944,1.99944,57.78146,12.77350,57.78145914,12.77349757,A,133009.50,"[-0.20000,-0.00000,-0.00000]","[-0.10000,-0.00000,-0.00000]",3.59206,0.00000,0.00000,0.00000,0.00000,0.00000
18:04:24.286188,2.71874,0.00601,1.63327,1.63327,"[5.00000,0.00000,0.00000]","[1.30000,0.00000,0.00000]",-0.08958,0.13240,-0.00820,0.00000,0.00000,0.02068,0.01158,0.12145,-0.13621,0.98539,2.71265,0.01221,1.63320,1.90799,1.98528,-1.19697,3.27103,2.63315,-1.19555,3.26172,1.99944,1.99944,57.78146,12.77350,57.78145925,12.77349748,A,133009.50,"[-0.20000,-0.00000,-0.00000]","[-0.10000,-0.00000,-0.00000]",3.60899,0.00000,0.00000,0.00000,0.00000,0.00000
18:04:24.296439,2.72900,0.00587,1.63327,1.63327,"[5.00000,0.00000,0.00000]","[1.30000,0.00000,0.00000]",-0.08975,0.13240,-0.00896,0.00000,0.00000,0.01244,0.01158,0.23461,-0.03928,0.97307,2.72254,0.00977,1.63321,1.91146,1.98874,-1.20212,3.28242,2.63315,-1.19555,3.26172,1.99944,1.99944,57.78146,12.77350,57.78145935,12.77349739,A,133009.50,"[-0.20000,-0.00000,-0.00000]","[-0.10000,-0.00000,-0.00000]",3.62591,0.00000,0.00000,0.00000,0.00000,0.00000
18:04:24.339240,2.77179,0.03827,1.63327,1.50000,"[5.00000,0.00000,0.00000]","[1.30000,0.00000,0.00000]",-0.08969,0.13240,-0.00606,0.00000,0.00000,-0.01352,0.01357,0.21954,-0.02696,1.00070,2.73323,0.00733,1.63322,1.91440,1.99168,-1.20703,3.29319,2.75009,-1.25484,3.37291,2.06061,2.06061,57.78146,12.77350,57.78145945,12.77349731,A,133009.60,"[-0.20000,-0.00000,-0.00000]","[-0.10000,-0.00000,-0.00000]",3.64283,0.00000,0.00000,0.00000,0.00000,0.00000
18:04:24.360671,2.79323,0.00685,1.30410,1.30410,"[5.00000,0.00000,0.00000]","[1.30000,0.00000,0.00000]",-0.08954,0.13240,-0.00591,0.00000,0.00000,-0.00054,0.00593,0.23552,-0.01507,0.98021,2.78734,0.00488,1.56740,1.93308,2.01037,-1.24244,3.37094,2.75009,-1.25484,3.37291,2.06061,2.06061,57.78146,12.77350,57.78146015,12.77349671,A,133009.60,"[-0.20000,-0.00000,-0.00000]","[-0.10000,-0.00000,-0.00000]",3.72207,0.00000,0.00000,0.00000,0.00000,0.00000
18:04:24.370385,2.80295,0.00618,1.30410,1.30410,"[5.00000,0.00000,0.00000]","[1.30000,0.00000,0.00000]",-0.08842,0.13246,0.00310,0.00000,0.00000,-0.01902,0.00838,0.19648,0.02739,1.03011,2.79641,0.00733,1.51474,1.94173,2.01905,-1.24767,3.38084,2.75009,-1.25484,3.37291,2.06061,2.06061,57.78146,12.77350,57.78146024,12.77349662,A,133009.60,"[-0.20000,-0.00000,-0.00000]","[-0.10000,-0.00000,-0.00000]",3.73558,0.00000,0.00000,0.00000,0.00000,0.00000
18:04:24.380075,2.81264,0.00547,1.30410,1.30410,"[5.00000,0.00000,0.00000]","[1.30000,0.00000,0.00000]",-0.08779,0.13263,0.01608,0.00000,0.00000,-0.01383,0.01265,-0.00244,-0.01519,1.03029,2.80657,0.00244,1.47261,1.94914,2.02656,-1.25299,3.39076,2.75009,-1.25484,3.37291,2.06061,2.06061,57.78146,12.77350,57.78146033,12.77349653,A,133009.60,"[-0.20000,-0.00000,-0.00000]","[-0.10000,-0.00000,-0.00000]",3.74909,0.00000,0.00000,0.00000,0.00000,0.00000
18:04:24.391802,2.82437,0.00634,1.30410,1.30410,"[5.00000,0.00000,0.00000]","[1.30000,0.00000,0.00000]",-0.08870,0.13305,0.02524,0.00000,0.00000,0.00770,0.01250,0.07320,-0.12237,0.98179,2.81822,0.00244,1.43891,1.95561,2.03328,-1.25905,3.40203,2.75009,-1.25484,3.37291,2.06061,2.06061,57.78146,12.77350,57.78146043,12.77349643,A,133009.60,"[-0.20000,-0.00000,-0.00000]","[-0.10000,-0.00000,-0.00000]",3.76322,0.00000,0.00000,0.00000,0.00000,0.00000
18:04:24.401661,2.83421,0.00578,1.30410,1.30410,"[5.00000,0.00000,0.00000]","[1.30000,0.00000,0.00000]",-0.08934,0.13359,0.02570,0.00000,0.00000,0.01687,0.01448,0.11444,-0.10096,0.97106,2.82814,0.02442,1.41195,1.96078,2.03876,-1.26364,3.41021,2.75009,-1.25484,3.37291,2.06061,2.06061,57.78146,12.77350,57.78146050,12.77349635,A,133009.60,"[-0.20000,-0.00000,-0.00000]","[-0.10000,-0.00000,-0.00000]",3.77674,0.00000,0.00000,0.00000,0.00000,0.00000
18:04:24.411643,2.84420,0.00554,1.30410,1.30410,"[5.00000,0.00000,0.00000]","[1.30000,0.00000,0.00000]",-0.09046,0.13413,0.02158,0.00000,0.00000,0.00938,0.01280,0.26773,-0.12895,0.95739,2.83810,0.00000,1.39038,1.96516,2.04346,-1.26816,3.41817,2.75009,-1.25484,3.37291,2.06061,2.06061,57.78146,12.77350,57.78146057,12.77349628,A,133009.60,"[-0.20000,-0.00000,-0.00000]","[-0.10000,-0.00000,-0.00000]",3.79003,0.00000,0.00000,0.00000,0.00000,0.00000
18:04:24.460663,2.89322,0.04416,1.30410,1.50000,"[5.00000,0.00000,0.00000]","[1.30000,0.00000,0.00000]",-0.09003,0.13466,0.01104,0.00000,0.00000,-0.00848,0.01983,0.17946,-0.02629,1.00546,2.84868,0.00733,1.37312,1.96887,2.04749,-1.27265,3.42599,2.86571,-1.31412,3.52117,1.95118,1.95118,57.78146,12.77350,57.78146064,12.77349620,A,133009.70,"[-0.20000,-0.00000,-0.00000]","[-0.10000,-0.00000,-0.00000]",3.80355,0.00000,0.00000,0.00000,0.00000,0.00000
18:04:24.472220,2.90478,0.00560,1.30410,1.30410,"[5.00000,0.00000,0.00000]","[1.30000,0.00000,0.00000]",-0.08796,0.13659,0.05059,0.00000,0.00000,0.00526,0.02304,0.19008,-0.07082,0.96484,2.89869,0.00733,1.35932,1.96090,2.04065,-1.30374,3.48693,2.86571,-1.31412,3.52117,1.95118,1.95118,57.78146,12.77350,57.78146119,12.77349568,A,133009.70,"[-0.20000,-0.00000,-0.00000]","[-0.10000,-0.00000,-0.00000]",3.87869,0.00000,0.00000,0.00000,0.00000,0.00000
18:04:24.483006,2.91556,0.00599,1.30410,1.30410,"[5.00000,0.00000,0.00000]","[1.30000,0.00000,0.00000]",-0.08812,0.13701,0.04739,0.00000,0.00000,-0.01154,0.03006,0.09254,-0.08613,0.98753,2.90918,0.00000,1.34827,1.94861,2.02861,-1.30922,3.49842,2.86571,-1.31412,3.52117,1.95118,1.95118,57.78146,12.77350,57.78146130,12.77349558,A,133009.70,"[-0.20000,-0.00000,-0.00000]","[-0.10000,-0.00000,-0.00000]",3.89221,0.00000,0.00000,0.00000,0.00000,0.00000
18:04:24.494246,2.92681,0.00683,1.30410,1.30410,"[5.00000,0.00000,0.00000]","[1.30000,0.00000,0.00000]",-0.08778,0.13744,0.04922,0.00000,0.00000,0.00297,0.02991,0.07222,-0.05563,0.96386,2.92066,0.00733,1.33944,1.93822,2.01847,-1.31469,3.51015,2.86571,-1.31412,3.52117,1.95118,1.95118,57.78146,12.77350,57.78146140,12.77349549,A,133009.70,"[-0.20000,-0.00000,-0.00000]","[-0.10000,-0.00000,-0.00000]",3.90573,0.00000,0.00000,0.00000,0.00000,0.00000
18:04:24.503374,2.93593,0.00566,1.30410,1.30410,"[5.00000,0.00000,0.00000]","[1.30000,0.00000,0.00000]",-0.08734,0.13764,0.05502,0.00000,0.00000,0.01198,0.02411,0.14170,-0.04276,0.94044,2.92971,0.00488,1.33237,1.92910,2.00947,-1.31865,3.51902,2.86571,-1.31412,3.52117,1.95118,1.95118,57.78146,12.77350,57.78146148,12.77349542,A,133009.70,"[-0.20000,-0.00000,-0.00000]","[-0.10000,-0.00000,-0.00000]",3.91910,0.00000,0.00000,0.00000,0.00000,0.00000
18:04:24.513820,2.94638,0.00571,1.30410,1.30410,"[5.00000,0.00000,0.00000]","[1.30000,0.00000,0.00000]",-0.08687,0.13766,0.05762,0.00000,0.00000,0.00557,0.01769,0.21454,-0.04404,0.89017,2.94030,0.01221,1.32671,1.92151,2.00189,-1.32298,3.52883,2.86571,-1.31412,3.52117,1.95118,1.95118,57.78146,12.77350,57.78146157,12.77349535,A,133009.70,"[-0.20000,-0.00000,-0.00000]","[-0.10000,-0.00000,-0.00000]",3.93262,0.00000,0.00000,0.00000,0.00000,0.00000
18:04:24.523976,2.95654,0.00548,1.30410,1.30410,"[5.00000,0.00000,0.00000]","[1.30000,0.00000,0.00000]",-0.08689,0.13766,0.06251,0.00000,0.00000,-0.01322,0.02441,0.35447,-0.08503,0.99125,2.95045,0.01465,1.32219,1.91504,1.99542,-1.32696,3.53807,2.86571,-1.31412,3.52117,1.95118,1.95118,57.78146,12.77350,57.78146165,12.77349528,A,133009.70,"[-0.20000,-0.00000,-0.00000]","[-0.10000,-0.00000,-0.00000]",3.94612,0.00000,0.00000,0.00000,0.00000,0.00000
18:04:24.598942,3.03149,0.07003,1.30410,1.50000,"[5.00000,0.00000,0.00000]","[1.30000,0.00000,0.00000]",-0.08611,0.13766,0.06953,0.00000,0.00000,-0.03719,0.01968,0.06228,-0.04343,1.07128,2.96107,0.01221,1.31857,1.90957,1.98995,-1.33079,3.54710,2.99107,-1.45245,3.85476,1.96389,1.96389,57.78146,12.77349,57.78146173,12.77349522,A,133009.90,"[-0.20000,-0.00000,-0.00000]","[-0.10000,-0.00000,-0.00000]",3.95964,0.00000,0.00000,0.00000,0.00000,0.00000
18:04:24.620836,3.05340,0.00953,1.30410,1.30410,"[5.00000,0.00000,0.00000]","[1.30000,0.00000,0.00000]",-0.08002,0.13766,0.07824,0.00000,0.00000,0.00755,-0.00369,0.25815,-0.07875,0.98521,3.04750,0.00244,1.31568,1.91701,1.99740,-1.37988,3.65903,2.99107,-1.45245,3.85476,1.96389,1.96389,57.78146,12.77349,57.78146274,12.77349439,A,133009.90,"[-0.20000,-0.00000,-0.00000]","[-0.10000,-0.00000,-0.00000]",4.08322,0.00000,0.00000,0.00000,0.00000,0.00000
18:04:24.628020,3.06058,0.00546,1.30410,1.30410,"[5.00000,0.00000,0.00000]","[1.30000,0.00000,0.00000]",-0.07963,0.13766,0.08297,0.00000,0.00000,-0.00253,-0.00827,0.25181,-0.05087,1.03602,3.05454,0.00244,1.31336,1.91272,1.99310,-1.38633,3.67501,2.99107,-1.45245,3.85476,1.96389,1.96389,57.78146,12.77349,57.78146288,12.77349428,A,133009.90,"[-0.20000,-0.00000,-0.00000]","[-0.10000,-0.00000,-0.00000]",4.09787,0.00000,0.00000,0.00000,0.00000,0.00000
18:04:24.638670,3.07123,0.00571,1.30410,1.30410,"[5.00000,0.00000,0.00000]","[1.30000,0.00000,0.00000]",-0.07975,0.13766,0.08862,0.00000,0.00000,0.00175,-0.00399,0.14207,-0.10620,1.00851,3.06511,0.00000,1.31151,1.90949,1.98987,-1.39404,3.69380,2.99107,-1.45245,3.85476,1.96389,1.96389,57.78146,12.77349,57.78146305,12.77349415,A,133009.90,"[-0.20000,-0.00000,-0.00000]","[-0.10000,-0.00000,-0.00000]",4.11139,0.00000,0.00000,0.00000,0.00000,0.00000
18:04:24.648744,3.08131,0.00539,1.30410,1.30410,"[5.00000,0.00000,0.00000]","[1.30000,0.00000,0.00000]",-0.07913,0.13766,0.07503,0.00000,0.00000,-0.00467,-0.01820,0.11175,-0.04990,1.07146,3.07548,0.00000,1.31003,1.90671,1.98709,-1.40120,3.71136,2.99107,-1.45245,3.85476,1.96389,1.96389,57.78146,12.77349,57.78146321,12.77349403,A,133009.90,"[-0.20000,-0.00000,-0.00000]","[-0.10000,-0.00000,-0.00000]",4.12491,0.00000,0.00000,0.00000,0.00000,0.00000
18:04:24.711165,3.14371,0.05734,1.30410,1.50000,"[5.00000,0.00000,0.00000]","[1.30000,0.00000,0.00000]",-0.07870,0.13747,0.07839,0.00000,0.00000,0.00541,-0.02644,0.15104,-0.06277,1.03340,3.08582,0.00733,1.30884,1.90440,1.98466,-1.40808,3.72831,3.10304,-1.52161,4.04008,1.92799,1.92799,57.78147,12.77349,57.78146336,12.77349392,A,133010.00,"[-0.20000,-0.00000,-0.00000]","[-0.10000,-0.00000,-0.00000]",4.13849,0.00000,0.00000,0.00000,0.00000,0.00000
18:04:24.734396,3.16696,0.00792,1.96609,1.96609,"[5.00000,0.00000,0.00000]","[1.30000,0.00000,0.00000]",-0.07366,0.12453,0.06816,0.00000,0.00000,0.01503,-0.02690,0.11157,-0.00970,0.94245,3.16073,0.00244,1.44029,1.90676,1.97942,-1.45020,3.82686,3.10304,-1.52161,4.04008,1.92799,1.92799,57.78147,12.77349,57.78146425,12.77349320,A,133010.00,"[-0.20000,-0.00000,-0.00000]","[-0.10000,-0.00000,-0.00000]",4.24747,0.00000,0.00000,0.00000,0.00000,0.00000
18:04:24.742553,3.17512,0.00578,1.96609,1.96609,"[5.00000,0.00000,0.00000]","[1.30000,0.00000,0.00000]",-0.07387,0.12357,0.05777,0.00000,0.00000,0.00755,-0.02950,0.00952,-0.05039,0.95666,3.16896,0.00000,1.54545,1.89995,1.97204,-1.45712,3.84525,3.10304,-1.52161,4.04008,1.92799,1.92799,57.78147,12.77349,57.78146441,12.77349309,A,133010.00,"[-0.20000,-0.00000,-0.00000]","[-0.10000,-0.00000,-0.00000]",4.26763,0.00000,0.00000,0.00000,0.00000,0.00000
18:04:24.752521,3.18508,0.00548,1.96609,1.96609,"[5.00000,0.00000,0.00000]","[1.30000,0.00000,0.00000]",-0.07363,0.12272,0.05044,0.00000,0.00000,0.01045,-0.03362,0.31269,-0.02666,0.98899,3.17922,0.00488,1.62958,1.89458,1.96617,-1.46505,3.86609,3.10304,-1.52161,4.04008,1.92799,1.92799,57.78147,12.77349,57.78146460,12.77349295,A,133010.00,"[-0.20000,-0.00000,-0.00000]","[-0.10000,-0.00000,-0.00000]",4.28775,0.00000,0.00000,0.00000,0.00000,0.00000
18:04:24.763235,3.19580,0.00564,1.96609,1.96609,"[5.00000,0.00000,0.00000]","[1.30000,0.00000,0.00000]",-0.07410,0.12218,0.04739,0.00000,0.00000,0.00373,-0.04095,0.07247,-0.06747,0.94629,3.18959,0.00488,1.69688,1.89017,1.96145,-1.47300,3.88706,3.10304,-1.52161,4.04008,1.92799,1.92799,57.78147,12.77349,57.78146479,12.77349282,A,133010.00,"[-0.20000,-0.00000,-0.00000]","[-0.10000,-0.00000,-0.00000]",4.30843,0.00000,0.00000,0.00000,0.00000,0.00000
18:04:24.822271,3.25480,0.05424,1.96609,1.50000,"[5.00000,0.00000,0.00000]","[1.30000,0.00000,0.00000]",-0.07415,0.12204,0.03777,0.00000,0.00000,0.00312,-0.04935,0.26938,-0.04148,1.02602,3.20018,0.00977,1.75073,1.88646,1.95766,-1.48063,3.90734,3.21724,-1.59078,4.24394,1.89789,1.89789,57.78147,12.77349,57.78146497,12.77349269,A,133010.10,"[-0.20000,-0.00000,-0.00000]","[-0.10000,-0.00000,-0.00000]",4.32881,0.00000,0.00000,0.00000,0.00000,0.00000
18:04:24.842942,3.27550,0.00786,1.96609,1.96609,"[5.00000,0.00000,0.00000]","[1.30000,0.00000,0.00000]",-0.07362,0.12204,0.00707,0.00000,0.00000,0.01106,-0.01988,0.33397,-0.00616,0.98905,3.26849,0.00244,1.79380,1.88804,1.95923,-1.52791,4.02670,3.21724,-1.59078,4.24394,1.89789,1.89789,57.78147,12.77349,57.78146605,12.77349189,A,133010.10,"[-0.20000,-0.00000,-0.00000]","[-0.10000,-0.00000,-0.00000]",4.42940,0.00000,0.00000,0.00000,0.00000,0.00000
18:04:24.851117,3.28368,0.00565,1.96609,1.96609,"[5.00000,0.00000,0.00000]","[1.30000,0.00000,0.00000]",-0.07314,0.12204,0.01196,0.00000,0.00000,0.01213,-0.00995,0.03892,0.01555,0.98576,3.27752,0.00733,1.82826,1.87983,1.95103,-1.53502,4.04725,3.21724,-1.59078,4.24394,1.89789,1.89789,57.78147,12.77349,57.78146623,12.77349177,A,133010.10,"[-0.20000,-0.00000,-0.00000]","[-0.10000,-0.00000,-0.00000]",4.44976,0.00000,0.00000,0.00000,0.00000,0.00000
18:04:24.861642,3.29420,0.00576,1.96609,1.96609,"[5.00000,0.00000,0.00000]","[1.30000,0.00000,0.00000]",-0.07186,0.12204,0.01226,0.00000,0.00000,-0.00115,-0.01102,0.24992,0.06814,1.01394,3.28805,0.00488,1.85583,1.87326,1.94446,-1.54326,4.07074,3.21724,-1.59078,4.24394,1.89789,1.89789,57.78147,12.77349,57.78146644,12.77349163,A,133010.10,"[-0.20000,-0.00000,-0.00000]","[-0.10000,-0.00000,-0.00000]",4.47014,0.00000,0.00000,0.00000,0.00000,0.00000
18:04:24.871741,3.30430,0.00564,1.96609,1.96609,"[5.00000,0.00000,0.00000]","[1.30000,0.00000,0.00000]",-0.07216,0.12204,0.01501,0.00000,0.00000,-0.00864,-0.01545,0.07619,-0.03855,1.01114,3.29810,0.00488,1.87788,1.86766,1.93886,-1.55097,4.09300,3.21724,-1.59078,4.24394,1.89789,1.89789,57.78147,12.77349,57.78146664,12.77349150,A,133010.10,"[-0.20000,-0.00000,-0.00000]","[-0.10000,-0.00000,-0.00000]",4.49018,0.00000,0.00000,0.00000,0.00000,0.00000
18:04:24.882349,3.31491,0.00585,1.96609,1.96609,"[5.00000,0.00000,0.00000]","[1.30000,0.00000,0.00000]",-0.07370,0.12204,0.00234,0.00000,0.00000,-0.01200,-0.02736,0.09382,-0.11578,1.01711,3.30878,0.00733,1.89552,1.86297,1.93417,-1.55846,4.11481,3.21724,-1.59078,4.24394,1.89789,1.89789,57.78147,12.77349,57.78146684,12.77349138,A,133010.10,"[-0.20000,-0.00000,-0.00000]","[-0.10000,-0.00000,-0.00000]",4.51056,0.00000,0.00000,0.00000,0.00000,0.00000
18:04:24.948893,3.38144,0.06198,1.96609,1.50000,"[5.00000,0.00000,0.00000]","[1.30000,0.00000,0.00000]",-0.07306,0.12204,-0.00301,0.00000,0.00000,-0.00803,-0.03438,0.12859,0.03520,0.99680,3.31917,0.00488,1.90964,1.85896,1.93016,-1.56543,4.13535,3.33609,-1.67970,4.44780,1.98213,1.98213,57.78147,12.77349,57.78146702,12.77349126,A,133010.20,"[-0.20000,-0.00000,-0.00000]","[-0.10000,-0.00000,-0.00000]",4.53094,0.00000,0.00000,0.00000,0.00000,0.00000
18:04:24.968242,3.40080,0.00879,1.96609,1.96609,"[5.00000,0.00000,0.00000]","[1.30000,0.00000,0.00000]",-0.07549,0.12204,-0.03829,0.00000,0.00000,-0.00283,0.00334,0.15878,0.01897,0.99125,3.39470,0.00977,1.92093,1.87953,1.95073,-1.61835,4.27661,3.33609,-1.67970,4.44780,1.98213,1.98213,57.78147,12.77349,57.78146829,12.77349037,A,133010.20,"[-0.20000,-0.00000,-0.00000]","[-0.10000,-0.00000,-0.00000]",4.63972,0.00000,0.00000,0.00000,0.00000,0.00000
18:04:24.975298,3.40786,0.00553,1.96609,1.96609,"[5.00000,0.00000,0.00000]","[1.30000,0.00000,0.00000]",-0.07656,0.12204,-0.03752,0.00000,0.00000,-0.01459,-0.00063,0.08717,-0.06448,0.98521,3.40172,0.00000,1.92996,1.88512,1.95631,-1.62481,4.29369,3.33609,-1.67970,4.44780,1.98213,1.98213,57.78147,12.77349,57.78146845,12.77349026,A,133010.20,"[-0.20000,-0.00000,-0.00000]","[-0.10000,-0.00000,-0.00000]",4.65998,0.00000,0.00000,0.00000,0.00000,0.00000
18:04:24.986132,3.41869,0.00596,1.96609,1.96609,"[5.00000,0.00000,0.00000]","[1.30000,0.00000,0.00000]",-0.07705,0.12204,-0.04241,0.00000,0.00000,-0.00146,0.00120,-0.02495,-0.01165,0.94465,3.41257,0.00488,1.93719,1.89053,1.96173,-1.63364,4.31637,3.33609,-1.67970,4.44780,1.98213,1.98213,57.78147,12.77349,57.78146865,12.77349011,A,133010.20,"[-0.20000,-0.00000,-0.00000]","[-0.10000,-0.00000,-0.00000]",4.68037,0.00000,0.00000,0.00000,0.00000,0.00000
18:04:24.996037,3.42860,0.00547,1.96609,1.96609,"[5.00000,0.00000,0.00000]","[1.30000,0.00000,0.00000]",-0.07738,0.12204,-0.04837,0.00000,0.00000,0.01977,-0.00552,0.16793,-0.00116,0.94977,3.42254,0.00244,1.94297,1.89506,1.96625,-1.64182,4.33721,3.33609,-1.67970,4.44780,1.98213,1.98213,57.78147,12.77349,57.78146884,12.77348997,A,133010.20,"[-0.20000,-0.00000,-0.00000]","[-0.10000,-0.00000,-0.00000]",4.70075,0.00000,0.00000,0.00000,0.00000,0.00000
18:04:25.059034,3.49158,0.05826,2.61897,1.50000,"[5.00000,0.00000,0.00000]","[1.30000,0.00000,0.00000]",-0.07930,0.12204,-0.05249,0.00000,0.00000,0.01076,-0.01010,0.07046,-0.06618,0.93537,3.43293,0.01709,2.07817,1.89892,1.97012,-1.64971,4.35709,3.44987,-1.76863,4.67019,1.95118,1.95118,57.78147,12.77349,57.78146902,12.77348984,A,133010.30,"[-0.20000,-0.00000,-0.00000]","[-0.10000,-0.00000,-0.00000]",4.72073,0.00000,0.00000,0.00000,0.00000,0.00000
18:04:25.081667,3.51422,0.00802,2.61897,2.61897,"[5.00000,0.00000,0.00000]","[1.30000,0.00000,0.00000]",-0.08513,0.12204,-0.06623,0.00000,0.00000,0.00969,-0.01667,-0.01458,-0.04178,0.95599,3.50807,0.00000,2.18633,1.90981,1.98101,-1.71176,4.50570,3.44987,-1.76863,4.67019,1.95118,1.95118,57.78147,12.77349,57.78147035,12.77348879,A,133010.30,"[-0.20000,-0.00000,-0.00000]","[-0.10000,-0.00000,-0.00000]",4.83001,0.00000,0.00000,0.00000,0.00000,0.00000
18:04:25.089765,3.52233,0.00572,2.61897,2.61897,"[5.00000,0.00000,0.00000]","[1.30000,0.00000,0.00000]",-0.08755,0.12204,-0.06807,0.00000,0.00000,0.00770,-0.02125,0.06094,-0.10376,0.93184,3.51624,0.00244,2.27286,1.90660,1.97780,-1.71988,4.52605,3.44987,-1.76863,4.67019,1.95118,1.95118,57.78147,12.77349,57.78147054,12.77348866,A,133010.30,"[-0.20000,-0.00000,-0.00000]","[-0.10000,-0.00000,-0.00000]",4.85719,0.00000,0.00000,0.00000,0.00000,0.00000
18:04:25.099898,3.53246,0.00546,2.61897,2.61897,"[5.00000,0.00000,0.00000]","[1.30000,0.00000,0.00000]",-0.08908,0.12204,-0.07372,0.00000,0.00000,0.01549,-0.02201,0.16647,-0.04050,0.95325,3.52639,0.00000,2.34208,1.90433,1.97553,-1.72949,4.54990,3.44987,-1.76863,4.67019,1.95118,1.95118,57.78147,12.77349,57.78147075,12.77348849,A,133010.30,"[-0.20000,-0.00000,-0.00000]","[-0.10000,-0.00000,-0.00000]",4.88433,0.00000,0.00000,0.00000,0.00000,0.00000
18:04:25.110702,3.54326,0.00587,2.61897,2.61897,"[5.00000,0.00000,0.00000]","[1.30000,0.00000,0.00000]",-0.08929,0.12204,-0.07891,0.00000,0.00000,0.02435,-0.03087,0.05874,0.04819,0.96130,3.53715,0.02198,2.39746,1.90254,1.97373,-1.73913,4.57385,3.44987,-1.76863,4.67019,1.95118,1.95118,57.78147,12.77349,57.78147097,12.77348833,A,133010.30,"[-0.20000,-0.00000,-0.00000]","[-0.10000,-0.00000,-0.00000]",4.91146,0.00000,0.00000,0.00000,0.00000,0.00000
18:04:25.174680,3.60722,0.05942,2.61897,1.50000,"[5.00000,0.00000,0.00000]","[1.30000,0.00000,0.00000]",-0.09242,0.12204,-0.07219,0.00000,0.00000,0.02527,-0.04095,0.15646,-0.14561,0.94794,3.54736,0.00000,2.44176,1.90093,1.97213,-1.74792,4.59584,3.56403,-1.85755,4.91111,1.92439,1.92439,57.78147,12.77349,57.78147116,12.77348818,A,133010.40,"[-0.20000,-0.00000,-0.00000]","[-0.10000,-0.00000,-0.00000]",4.93861,0.00000,0.00000,0.00000,0.00000,0.00000
18:04:25.196175,3.62873,0.00764,2.61897,2.61897,"[5.00000,0.00000,0.00000]","[1.30000,0.00000,0.00000]",-0.10093,0.12080,-0.08639,0.00000,0.00000,0.01061,-0.06035,0.00665,-0.14762,1.03212,3.62261,0.00000,2.47720,1.91015,1.98062,-1.82019,4.76898,3.56403,-1.85755,4.91111,1.92439,1.92439,57.78147,12.77349,57.78147272,12.77348696,A,133010.40,"[-0.20000,-0.00000,-0.00000]","[-0.10000,-0.00000,-0.00000]",5.04850,0.00000,0.00000,0.00000,0.00000,0.00000
18:04:25.204437,3.63700,0.00551,2.61897,2.61897,"[5.00000,0.00000,0.00000]","[1.30000,0.00000,0.00000]",-0.10279,0.12017,-0.10166,0.00000,0.00000,0.03611,-0.05821,0.09363,-0.07796,1.02035,3.63112,0.00977,2.50555,1.90321,1.97331,-1.82815,4.79011,3.56403,-1.85755,4.91111,1.92439,1.92439,57.78147,12.77349,57.78147291,12.77348683,A,133010.40,"[-0.20000,-0.00000,-0.00000]","[-0.10000,-0.00000,-0.00000]",5.07565,0.00000,0.00000,0.00000,0.00000,0.00000
18:04:25.215263,3.64783,0.00559,2.61897,2.61897,"[5.00000,0.00000,0.00000]","[1.30000,0.00000,0.00000]",-0.10482,0.11964,-0.10609,0.00000,0.00000,0.03428,-0.05775,0.20789,-0.06545,0.95697,3.64168,0.00733,2.52824,1.89788,1.96767,-1.83781,4.81539,3.56403,-1.85755,4.91111,1.92439,1.92439,57.78147,12.77349,57.78147314,12.77348667,A,133010.40,"[-0.20000,-0.00000,-0.00000]","[-0.10000,-0.00000,-0.00000]",5.10371,0.00000,0.00000,0.00000,0.00000,0.00000
18:04:25.225907,3.65846,0.00583,2.61897,2.61897,"[5.00000,0.00000,0.00000]","[1.30000,0.00000,0.00000]",-0.10551,0.11947,-0.10227,0.00000,0.00000,0.01641,-0.04828,0.18367,0.01488,0.96392,3.65226,0.00977,2.54638,1.89331,1.96300,-1.84671,4.83906,3.56403,-1.85755,4.91111,1.92439,1.92439,57.78147,12.77349,57.78147335,12.77348652,A,133010.40,"[-0.20000,-0.00000,-0.00000]","[-0.10000,-0.00000,-0.00000]",5.13085,0.00000,0.00000,0.00000,0.00000,0.00000
18:04:25.301461,3.73399,0.07096,2.61897,1.50000,"[5.00000,0.00000,0.00000]","[1.30000,0.00000,0.00000]",-0.10601,0.11947,-0.10014,0.00000,0.00000,0.01137,-0.04233,0.02379,0.01934,1.04054,3.66243,0.00733,2.56090,1.88942,1.95911,-1.85504,4.86150,3.69030,-2.07493,5.39295,1.99459,1.99459,57.78148,12.77348,57.78147355,12.77348638,A,133010.60,"[-0.20000,-0.00000,-0.00000]","[-0.10000,-0.00000,-0.00000]",5.15800,0.00000,0.00000,0.00000,0.00000,0.00000
18:04:25.322340,3.75490,0.00828,2.54074,2.54074,"[5.00000,0.00000,0.00000]","[1.30000,0.00000,0.00000]",-0.11710,0.11904,-0.11739,0.00000,0.00000,0.02954,-0.05867,0.06259,-0.08369,0.94934,3.74874,0.00977,2.55687,1.91390,1.98333,-1.94372,5.07796,3.69030,-2.07493,5.39295,1.99459,1.99459,57.78148,12.77348,57.78147550,12.77348488,A,133010.60,"[-0.20000,-0.00000,-0.00000]","[-0.10000,-0.00000,-0.00000]",5.28335,0.00000,0.00000,0.00000,0.00000,0.00000
18:04:25.330175,3.76273,0.00574,2.54074,2.54074,"[5.00000,0.00000,0.00000]","[1.30000,0.00000,0.00000]",-0.11833,0.11904,-0.12243,0.00000,0.00000,0.02985,-0.05561,0.07283,-0.04258,0.95953,3.75664,0.00244,2.55364,1.91691,1.98634,-1.95599,5.10677,3.69030,-2.07493,5.39295,1.99459,1.99459,57.78148,12.77348,57.78147576,12.77348467,A,133010.60,"[-0.20000,-0.00000,-0.00000]","[-0.10000,-0.00000,-0.00000]",5.30960,0.00000,0.00000,0.00000,0.00000,0.00000
18:04:25.340257,3.77282,0.00543,2.54074,2.54074,"[5.00000,0.00000,0.00000]","[1.30000,0.00000,0.00000]",-0.12039,0.11904,-0.12778,0.00000,0.00000,0.04145,-0.04492,0.03007,-0.08406,1.02614,3.76698,0.00733,2.55106,1.92008,1.98951,-1.97035,5.14014,3.69030,-2.07493,5.39295,1.99459,1.99459,57.78148,12.77348,57.78147606,12.77348443,A,133010.60,"[-0.20000,-0.00000,-0.00000]","[-0.10000,-0.00000,-0.00000]",5.33593,0.00000,0.00000,0.00000,0.00000,0.00000
18:04:25.351147,3.78371,0.00592,2.54074,2.54074,"[5.00000,0.00000,0.00000]","[1.30000,0.00000,0.00000]",-0.12142,0.11904,-0.13725,0.00000,0.00000,0.04985,-0.04202,0.12621,-0.00641,1.00046,3.77739,0.00000,2.54900,1.92279,1.99223,-1.98412,5.17198,3.69030,-2.07493,5.39295,1.99459,1.99459,57.78148,12.77348,57.78147635,12.77348420,A,133010.60,"[-0.20000,-0.00000,-0.00000]","[-0.10000,-0.00000,-0.00000]",5.36227,0.00000,0.00000,0.00000,0.00000,0.00000
18:04:25.410676,3.84319,0.05500,2.54074,1.50000,"[5.00000,0.00000,0.00000]","[1.30000,0.00000,0.00000]",-0.12433,0.11904,-0.12488,0.00000,0.00000,0.03886,-0.04477,0.22106,-0.13756,0.97399,3.78782,0.00733,2.54735,1.92503,1.99446,-1.99696,5.20153,3.80494,-2.19349,5.67094,1.97395,1.97395,57.78148,12.77348,57.78147661,12.77348398,A,133010.70,"[-0.20000,-0.00000,-0.00000]","[-0.10000,-0.00000,-0.00000]",5.38860,0.00000,0.00000,0.00000,0.00000,0.00000
18:04:25.433864,3.86642,0.00961,2.54074,2.54074,"[5.00000,0.00000,0.00000]","[1.30000,0.00000,0.00000]",-0.13144,0.11904,-0.10014,0.00000,0.00000,-0.00299,-0.01957,0.11865,-0.03428,1.01010,3.86022,0.00244,2.54603,1.93783,2.00727,-2.07711,5.38094,3.80494,-2.19349,5.67094,1.97395,1.97395,57.78148,12.77348,57.78147823,12.77348263,A,133010.70,"[-0.20000,-0.00000,-0.00000]","[-0.10000,-0.00000,-0.00000]",5.49149,0.00000,0.00000,0.00000,0.00000,0.00000
18:04:25.440877,3.87344,0.00555,2.54074,2.54074,"[5.00000,0.00000,0.00000]","[1.30000,0.00000,0.00000]",-0.13313,0.11904,-0.08563,0.00000,0.00000,-0.00436,-0.02156,0.14372,-0.11621,1.00680,3.86760,0.02198,2.54497,1.93408,2.00351,-2.08860,5.40759,3.80494,-2.19349,5.67094,1.97395,1.97395,57.78148,12.77348,57.78147846,12.77348244,A,133010.70,"[-0.20000,-0.00000,-0.00000]","[-0.10000,-0.00000,-0.00000]",5.51961,0.00000,0.00000,0.00000,0.00000,0.00000
18:04:25.451585,3.88414,0.00587,2.54074,2.54074,"[5.00000,0.00000,0.00000]","[1.30000,0.00000,0.00000]",-0.13422,0.11935,-0.09433,0.00000,0.00000,-0.01062,-0.00079,0.05484,-0.05789,1.02931,3.87772,0.00244,2.54413,1.93150,2.00111,-2.10233,5.43913,3.80494,-2.19349,5.67094,1.97395,1.97395,57.78148,12.77348,57.78147875,12.77348220,A,133010.70,"[-0.20000,-0.00000,-0.00000]","[-0.10000,-0.00000,-0.00000]",5.54590,0.00000,0.00000,0.00000,0.00000,0.00000
18:04:25.461849,3.89441,0.00573,2.54074,2.54074,"[5.00000,0.00000,0.00000]","[1.30000,0.00000,0.00000]",-0.13455,0.12037,-0.10380,0.00000,0.00000,-0.01154,0.01326,-0.05832,0.00281,1.04914,3.88833,0.00977,2.54345,1.92920,1.99941,-2.11524,5.46892,3.80494,-2.19349,5.67094,1.97395,1.97395,57.78148,12.77348,57.78147902,12.77348199,A,133010.70,"[-0.20000,-0.00000,-0.00000]","[-0.10000,-0.00000,-0.00000]",5.57224,0.00000,0.00000,0.00000,0.00000,0.00000
18:04:25.471989,3.90455,0.00549,2.54074,2.54074,"[5.00000,0.00000,0.00000]","[1.30000,0.00000,0.00000]",-0.13601,0.12201,-0.09525,0.00000,0.00000,0.00496,0.02395,0.14323,-0.08430,1.04048,3.89848,0.01221,2.54291,1.92714,1.99832,-2.12759,5.49748,3.80494,-2.19349,5.67094,1.97395,1.97395,57.78148,12.77348,57.78147927,12.77348178,A,133010.70,"[-0.20000,-0.00000,-0.00000]","[-0.10000,-0.00000,-0.00000]",5.59856,0.00000,0.00000,0.00000,0.00000,0.00000
18:04:25.535909,3.96846,0.05900,2.54074,1.50000,"[5.00000,0.00000,0.00000]","[1.30000,0.00000,0.00000]",-0.13629,0.12414,-0.11144,0.00000,0.00000,-0.00070,0.02869,0.14725,0.01202,1.04475,3.90908,0.00733,2.54248,1.92528,1.99771,-2.13953,5.52512,3.92635,-2.30218,5.93040,1.96749,1.96749,57.78148,12.77348,57.78147952,12.77348158,A,133010.80,"[-0.20000,-0.00000,-0.00000]","[-0.10000,-0.00000,-0.00000]",5.62489,0.00000,0.00000,0.00000,0.00000,0.00000
18:04:25.559854,3.99241,0.00776,2.98960,2.98960,"[5.00000,0.00000,0.00000]","[1.30000,0.00000,0.00000]",-0.14635,0.13288,-0.12167,0.00000,0.00000,0.00434,0.03693,0.14134,-0.05191,0.91518,3.98626,0.01709,2.63190,1.93755,2.01512,-2.22282,5.71061,3.92635,-2.30218,5.93040,1.96749,1.96749,57.78148,12.77348,57.78148119,12.77348017,A,133010.80,"[-0.20000,-0.00000,-0.00000]","[-0.10000,-0.00000,-0.00000]",5.73762,0.00000,0.00000,0.00000,0.00000,0.00000
18:04:25.567900,4.00046,0.00552,2.98960,2.98960,"[5.00000,0.00000,0.00000]","[1.30000,0.00000,0.00000]",-0.14804,0.13390,-0.12228,0.00000,0.00000,-0.01062,0.04426,0.01196,-0.06198,0.95398,3.99436,0.01465,2.70344,1.93189,2.01005,-2.23329,5.73526,3.92635,-2.30218,5.93040,1.96749,1.96749,57.78148,12.77348,57.78148141,12.77348000,A,133010.80,"[-0.20000,-0.00000,-0.00000]","[-0.10000,-0.00000,-0.00000]",5.76829,0.00000,0.00000,0.00000,0.00000,0.00000
18:04:25.578575,4.01114,0.00580,2.98960,2.98960,"[5.00000,0.00000,0.00000]","[1.30000,0.00000,0.00000]",-0.14830,0.13515,-0.12106,0.00000,0.00000,-0.01490,0.04686,0.00714,0.04355,1.01980,4.00498,0.01709,2.76067,1.92770,2.00660,-2.24613,5.76502,3.92635,-2.30218,5.93040,1.96749,1.96749,57.78148,12.77348,57.78148168,12.77347978,A,133010.80,"[-0.20000,-0.00000,-0.00000]","[-0.10000,-0.00000,-0.00000]",5.79927,0.00000,0.00000,0.00000,0.00000,0.00000
18:04:25.588801,4.02137,0.00563,2.98960,2.98960,"[5.00000,0.00000,0.00000]","[1.30000,0.00000,0.00000]",-0.14932,0.13616,-0.11877,0.00000,0.00000,-0.01413,0.05190,-0.11456,-0.01183,1.03907,4.01551,0.01954,2.80646,1.92409,2.00359,-2.25832,5.79344,3.92635,-2.30218,5.93040,1.96749,1.96749,57.78148,12.77348,57.78148193,12.77347957,A,133010.80,"[-0.20000,-0.00000,-0.00000]","[-0.10000,-0.00000,-0.00000]",5.83024,0.00000,0.00000,0.00000,0.00000,0.00000
18:04:25.650721,4.08326,0.05700,2.98960,1.50000,"[5.00000,0.00000,0.00000]","[1.30000,0.00000,0.00000]",-0.15306,0.13696,-0.10579,0.00000,0.00000,0.01091,0.04121,0.08595,-0.20972,1.00992,4.02570,0.01954,2.84309,1.92099,2.00096,-2.26993,5.82067,4.04286,-2.42075,6.20838,1.97395,1.97395,57.78149,12.77348,57.78148218,12.77347938,A,133010.90,"[-0.20000,-0.00000,-0.00000]","[-0.10000,-0.00000,-0.00000]",5.86161,0.00000,0.00000,0.00000,0.00000,0.00000
18:04:25.671956,4.10452,0.00761,2.98960,2.98960,"[5.00000,0.00000,0.00000]","[1.30000,0.00000,0.00000]",-0.15966,0.15003,-0.06425,0.00000,0.00000,-0.01154,0.06503,0.00933,-0.12371,0.89322,4.09838,0.01709,2.87239,1.93618,2.02386,-2.35705,6.01350,4.04286,-2.42075,6.20838,1.97395,1.97395,57.78149,12.77348,57.78148391,12.77347791,A,133010.90,"[-0.20000,-0.00000,-0.00000]","[-0.10000,-0.00000,-0.00000]",5.96754,0.00000,0.00000,0.00000,0.00000,0.00000
18:04:25.680590,4.11315,0.00568,2.98960,2.98960,"[5.00000,0.00000,0.00000]","[1.30000,0.00000,0.00000]",-0.16224,0.15196,-0.05844,0.00000,0.00000,-0.02681,0.06442,0.00927,-0.13103,0.88706,4.10727,0.02442,2.89583,1.93072,2.01953,-2.36842,6.04007,4.04286,-2.42075,6.20838,1.97395,1.97395,57.78149,12.77348,57.78148415,12.77347772,A,133010.90,"[-0.20000,-0.00000,-0.00000]","[-0.10000,-0.00000,-0.00000]",5.99901,0.00000,0.00000,0.00000,0.00000,0.00000
18:04:25.691098,4.12366,0.00564,2.98960,2.98960,"[5.00000,0.00000,0.00000]","[1.30000,0.00000,0.00000]",-0.16396,0.15394,-0.05310,0.00000,0.00000,-0.02467,0.07068,-0.05838,-0.09382,0.96282,4.11750,0.01709,2.91459,1.92646,2.01645,-2.38113,6.06944,4.04286,-2.42075,6.20838,1.97395,1.97395,57.78149,12.77348,57.78148442,12.77347750,A,133010.90,"[-0.20000,-0.00000,-0.00000]","[-0.10000,-0.00000,-0.00000]",6.02984,0.00000,0.00000,0.00000,0.00000,0.00000
18:04:25.701646,4.13420,0.00577,2.98960,2.98960,"[5.00000,0.00000,0.00000]","[1.30000,0.00000,0.00000]",-0.16560,0.15552,-0.04378,0.00000,0.00000,-0.00176,0.07175,-0.06954,-0.12212,1.09001,4.12813,0.03907,2.92959,1.92280,2.01372,-2.39334,6.09780,4.04286,-2.42075,6.20838,1.97395,1.97395,57.78149,12.77348,57.78148467,12.77347730,A,133010.90,"[-0.20000,-0.00000,-0.00000]","[-0.10000,-0.00000,-0.00000]",6.06084,0.00000,0.00000,0.00000,0.00000,0.00000
18:04:25.765016,4.19755,0.05890,2.98960,1.50000,"[5.00000,0.00000,0.00000]","[1.30000,0.00000,0.00000]",-0.16550,0.15688,-0.03844,0.00000,0.00000,0.00877,0.07863,-0.08070,0.00012,1.07921,4.13813,0.02442,2.94159,1.91951,2.01123,-2.40455,6.12407,4.15533,-2.53932,6.50490,1.95118,1.95118,57.78149,12.77347,57.78148491,12.77347711,A,133011.00,"[-0.20000,-0.00000,-0.00000]","[-0.10000,-0.00000,-0.00000]",6.09131,0.00000,0.00000,0.00000,0.00000,0.00000
18:04:25.791523,4.22408,0.01095,3.34971,1.50000,"[5.00000,0.00000,0.00000]","[1.30000,0.00000,0.00000]",-0.15967,0.17214,0.08343,0.00000,0.00000,-0.04101,0.11787,0.02422,-0.15274,0.97057,4.21790,0.05617,2.65327,1.93572,2.03648,-2.50375,6.33929,4.15533,-2.53932,6.50490,1.95118,1.95118,57.78149,12.77347,57.78148684,12.77347543,A,133011.00,"[-0.20000,-0.00000,-0.00000]","[-0.10000,-0.00000,-0.00000]",6.20299,0.00000,0.00000,0.00000,0.00000,0.00000
18:04:25.816102,4.24866,0.01158,3.34971,1.50000,"[5.00000,0.00000,0.00000]","[1.30000,0.00000,0.00000]",-0.15663,0.17443,0.10511,0.00000,0.00000,-0.02864,0.12765,-0.04575,-0.07235,1.01992,4.24255,0.03419,2.42262,1.93045,2.03257,-2.53131,6.39887,4.15533,-2.53932,6.50490,1.95118,1.95118,57.78149,12.77347,57.78148738,12.77347497,A,133011.00,"[-0.20000,-0.00000,-0.00000]","[-0.10000,-0.00000,-0.00000]",6.23888,0.00000,0.00000,0.00000,0.00000,0.00000
18:04:25.904727,4.33728,0.07663,3.34971,1.50000,"[5.00000,0.00000,0.00000]","[1.30000,0.00000,0.00000]",-0.15230,0.17616,0.13230,0.00000,0.00000,0.01870,0.14689,-0.01848,-0.00689,1.01675,4.26512,0.06105,2.23810,1.92455,2.02768,-2.55279,6.44654,4.29494,-2.75669,7.07941,1.93251,1.93251,57.78149,12.77347,57.78148781,12.77347461,A,133011.20,"[-0.20000,-0.00000,-0.00000]","[-0.10000,-0.00000,-0.00000]",6.27418,0.00000,0.00000,0.00000,0.00000,0.00000
18:04:25.930676,4.36323,0.01013,3.34971,1.50000,"[5.00000,0.00000,0.00000]","[1.30000,0.00000,0.00000]",-0.14053,0.17873,0.12436,0.00000,0.00000,-0.03383,0.12383,-0.13170,-0.05911,0.99503,4.35701,0.03663,2.09048,1.93636,2.04102,-2.64727,6.64963,4.29494,-2.75669,7.07941,1.93251,1.93251,57.78149,12.77347,57.78148963,12.77347301,A,133011.20,"[-0.20000,-0.00000,-0.00000]","[-0.10000,-0.00000,-0.00000]",6.41285,0.00000,0.00000,0.00000,0.00000,0.00000
18:04:25.953741,4.38630,0.00996,3.34971,1.50000,"[5.00000,0.00000,0.00000]","[1.30000,0.00000,0.00000]",-0.13846,0.17873,0.09198,0.00000,0.00000,-0.00909,0.11054,-0.04788,-0.09272,1.08476,4.37996,0.04396,1.97238,1.92587,2.03054,-2.67150,6.70803,4.29494,-2.75669,7.07941,1.93251,1.93251,57.78149,12.77347,57.78149016,12.77347260,A,133011.20,"[-0.20000,-0.00000,-0.00000]","[-0.10000,-0.00000,-0.00000]",6.44766,0.00000,0.00000,0.00000,0.00000,0.00000
18:04:26.018517,4.45106,0.06353,3.34971,1.50000,"[5.00000,0.00000,0.00000]","[1.30000,0.00000,0.00000]",-0.13690,0.17873,0.09366,0.00000,0.00000,0.00328,0.09802,-0.06338,-0.04392,1.05066,4.39031,0.04640,1.87790,1.91335,2.01802,-2.68270,6.74061,4.40807,-2.86538,7.35740,1.94350,1.94350,57.78150,12.77347,57.78149045,12.77347241,A,133011.30,"[-0.20000,-0.00000,-0.00000]","[-0.10000,-0.00000,-0.00000]",6.46442,0.00000,0.00000,0.00000,0.00000,0.00000
18:04:26.038449,4.47101,0.00829,2.85034,2.85034,"[5.00000,0.00000,0.00000]","[1.30000,0.00000,0.00000]",-0.13260,0.17865,0.05640,0.00000,0.00000,-0.00650,0.09878,-0.01171,0.02324,1.00729,4.46405,0.06593,2.07239,1.91990,2.02452,-2.74665,6.88575,4.40807,-2.86538,7.35740,1.94350,1.94350,57.78150,12.77347,57.78149176,12.77347134,A,133011.30,"[-0.20000,-0.00000,-0.00000]","[-0.10000,-0.00000,-0.00000]",6.57716,0.00000,0.00000,0.00000,0.00000,0.00000
18:04:26.046288,4.47885,0.00595,2.85034,2.85034,"[5.00000,0.00000,0.00000]","[1.30000,0.00000,0.00000]",-0.13162,0.17839,0.05594,0.00000,0.00000,-0.00497,0.10107,-0.04477,0.04319,1.04957,4.47272,0.04396,2.22798,1.90939,2.01385,-2.75765,6.91971,4.40807,-2.86538,7.35740,1.94350,1.94350,57.78150,12.77347,57.78149206,12.77347115,A,133011.30,"[-0.20000,-0.00000,-0.00000]","[-0.10000,-0.00000,-0.00000]",6.60614,0.00000,0.00000,0.00000,0.00000,0.00000
18:04:26.056409,4.48897,0.00567,2.85034,2.85034,"[5.00000,0.00000,0.00000]","[1.30000,0.00000,0.00000]",-0.13231,0.17774,0.04830,0.00000,0.00000,0.00144,0.09298,-0.10583,-0.05990,0.97606,4.48311,0.04396,2.35245,1.90144,2.00552,-2.77087,6.95810,4.40807,-2.86538,7.35740,1.94350,1.94350,57.78150,12.77347,57.78149241,12.77347093,A,133011.30,"[-0.20000,-0.00000,-0.00000]","[-0.10000,-0.00000,-0.00000]",6.63568,0.00000,0.00000,0.00000,0.00000,0.00000
18:04:26.066892,4.49945,0.00576,2.85034,2.85034,"[5.00000,0.00000,0.00000]","[1.30000,0.00000,0.00000]",-0.13352,0.17667,0.04571,0.00000,0.00000,0.00450,0.09512,0.02855,-0.10974,1.04542,4.49331,0.04640,2.45203,1.89486,1.99829,-2.78354,6.99517,4.40807,-2.86538,7.35740,1.94350,1.94350,57.78150,12.77347,57.78149274,12.77347071,A,133011.30,"[-0.20000,-0.00000,-0.00000]","[-0.10000,-0.00000,-0.00000]",6.66521,0.00000,0.00000,0.00000,0.00000,0.00000
18:04:26.128014,4.56057,0.05647,2.85034,1.50000,"[5.00000,0.00000,0.00000]","[1.30000,0.00000,0.00000]",-0.13384,0.17539,0.03517,0.00000,0.00000,0.01183,0.08916,-0.10419,-0.02983,0.97417,4.50371,0.04151,2.53169,1.88944,1.99212,-2.79569,7.03098,4.52089,-2.97406,7.65392,1.92213,1.92213,57.78150,12.77347,57.78149306,12.77347051,A,133011.40,"[-0.20000,-0.00000,-0.00000]","[-0.10000,-0.00000,-0.00000]",6.69476,0.00000,0.00000,0.00000,0.00000,0.00000
18:04:26.148647,4.58121,0.00773,2.85034,2.85034,"[5.00000,0.00000,0.00000]","[1.30000,0.00000,0.00000]",-0.13301,0.17239,0.01119,0.00000,0.00000,-0.04605,0.07603,-0.13670,0.00885,1.02248,4.57527,0.04151,2.59542,1.90224,2.00314,-2.87330,7.21540,4.52089,-2.97406,7.65392,1.92213,1.92213,57.78150,12.77347,57.78149472,12.77346920,A,133011.40,"[-0.20000,-0.00000,-0.00000]","[-0.10000,-0.00000,-0.00000]",6.79880,0.00000,0.00000,0.00000,0.00000,0.00000
18:04:26.156842,4.58941,0.00573,2.85034,2.85034,"[5.00000,0.00000,0.00000]","[1.30000,0.00000,0.00000]",-0.13775,0.17239,0.01333,0.00000,0.00000,-0.03399,0.06946,-0.10028,-0.31140,0.94501,4.58354,0.04884,2.64640,1.89223,1.99314,-2.88500,7.25177,4.52089,-2.97406,7.65392,1.92213,1.92213,57.78150,12.77347,57.78149505,12.77346900,A,133011.40,"[-0.20000,-0.00000,-0.00000]","[-0.10000,-0.00000,-0.00000]",6.82779,0.00000,0.00000,0.00000,0.00000,0.00000
18:04:26.167238,4.59980,0.00557,2.85034,2.85034,"[5.00000,0.00000,0.00000]","[1.30000,0.00000,0.00000]",-0.13648,0.17236,-0.02118,0.00000,0.00000,-0.01979,0.07282,-0.06234,0.10242,0.98070,4.59366,0.04884,2.68719,1.88441,1.98530,-2.89806,7.29102,4.52089,-2.97406,7.65392,1.92213,1.92213,57.78150,12.77347,57.78149540,12.77346878,A,133011.40,"[-0.20000,-0.00000,-0.00000]","[-0.10000,-0.00000,-0.00000]",6.85775,0.00000,0.00000,0.00000,0.00000,0.00000
18:04:26.177789,4.61034,0.00572,2.85034,2.85034,"[5.00000,0.00000,0.00000]","[1.30000,0.00000,0.00000]",-0.13615,0.17225,-0.01675,0.00000,0.00000,0.00877,0.07404,-0.08766,0.03794,1.02437,4.60426,0.05617,2.71982,1.87789,1.97871,-2.91066,7.32916,4.52089,-2.97406,7.65392,1.92213,1.92213,57.78150,12.77347,57.78149575,12.77346857,A,133011.40,"[-0.20000,-0.00000,-0.00000]","[-0.10000,-0.00000,-0.00000]",6.88729,0.00000,0.00000,0.00000,0.00000,0.00000
18:04:26.188425,4.62099,0.00597,2.85034,2.85034,"[5.00000,0.00000,0.00000]","[1.30000,0.00000,0.00000]",-0.13678,0.17200,-0.01538,0.00000,0.00000,0.01167,0.06931,-0.04856,-0.02617,1.00144,4.61443,0.06838,2.74592,1.87235,1.97302,-2.92244,7.36534,4.52089,-2.97406,7.65392,1.92213,1.92213,57.78150,12.77347,57.78149607,12.77346837,A,133011.40,"[-0.20000,-0.00000,-0.00000]","[-0.10000,-0.00000,-0.00000]",6.91682,0.00000,0.00000,0.00000,0.00000,0.00000
18:04:26.249019,4.68157,0.05615,2.85034,1.50000,"[5.00000,0.00000,0.00000]","[1.30000,0.00000,0.00000]",-0.13565,0.17174,-0.00835,0.00000,0.00000,0.02175,0.06748,-0.02056,0.08619,0.99229,4.62506,0.07082,2.76681,1.86761,1.96813,-2.93338,7.39940,4.64199,-3.09263,7.93190,1.97395,1.97395,57.78150,12.77347,57.78149638,12.77346819,A,133011.50,"[-0.20000,-0.00000,-0.00000]","[-0.10000,-0.00000,-0.00000]",6.94636,0.00000,0.00000,0.00000,0.00000,0.00000
18:04:26.273823,4.70638,0.01056,3.00139,1.50000,"[5.00000,0.00000,0.00000]","[1.30000,0.00000,0.00000]",-0.13807,0.17137,-0.00896,0.00000,0.00000,0.01198,0.06091,-0.10998,-0.18074,0.91683,4.69946,0.06838,2.51345,1.89405,1.99435,-3.01492,7.60136,4.64199,-3.09263,7.93190,1.97395,1.97395,57.78150,12.77347,57.78149819,12.77346681,A,133011.50,"[-0.20000,-0.00000,-0.00000]","[-0.10000,-0.00000,-0.00000]",7.05194,0.00000,0.00000,0.00000,0.00000,0.00000
18:04:26.298521,4.73108,0.00935,3.00139,1.50000,"[5.00000,0.00000,0.00000]","[1.30000,0.00000,0.00000]",-0.13810,0.17095,-0.03920,0.00000,0.00000,0.00389,0.05129,-0.03886,-0.01677,0.99119,4.72488,0.07326,2.31076,1.89835,1.99839,-3.04126,7.66769,4.64199,-3.09263,7.93190,1.97395,1.97395,57.78150,12.77347,57.78149879,12.77346637,A,133011.50,"[-0.20000,-0.00000,-0.00000]","[-0.10000,-0.00000,-0.00000]",7.09076,0.00000,0.00000,0.00000,0.00000,0.00000
18:04:26.309596,4.74215,0.00986,3.00139,1.50000,"[5.00000,0.00000,0.00000]","[1.30000,0.00000,0.00000]",-0.13717,0.17078,-0.02424,0.00000,0.00000,0.00862,0.05633,-0.07003,-0.00152,0.98765,4.73599,0.05617,2.14860,1.89735,1.99729,-3.05206,7.69896,4.64199,-3.09263,7.93190,1.97395,1.97395,57.78150,12.77347,57.78149907,12.77346618,A,133011.50,"[-0.20000,-0.00000,-0.00000]","[-0.10000,-0.00000,-0.00000]",7.10657,0.00000,0.00000,0.00000,0.00000,0.00000
18:04:26.371313,4.80385,0.06048,3.00139,1.50000,"[5.00000,0.00000,0.00000]","[1.30000,0.00000,0.00000]",-0.13671,0.17052,-0.01584,0.00000,0.00000,0.00602,0.05648,0.08363,-0.03709,0.96557,4.74616,0.06593,2.01888,1.89615,1.99595,-3.06115,7.72616,4.76401,-3.21120,8.20989,1.97395,1.97395,57.78150,12.77346,57.78149932,12.77346603,A,133011.60,"[-0.20000,-0.00000,-0.00000]","[-0.10000,-0.00000,-0.00000]",7.12319,0.00000,0.00000,0.00000,0.00000,0.00000
18:04:26.392856,4.82542,0.00968,3.00139,1.50000,"[5.00000,0.00000,0.00000]","[1.30000,0.00000,0.00000]",-0.13587,0.16246,-0.00041,0.00000,0.00000,-0.02284,0.03098,0.05807,-0.02458,1.02419,4.81953,0.05861,1.91511,1.91160,2.00662,-3.12444,7.87356,4.76401,-3.21120,8.20989,1.97395,1.97395,57.78150,12.77346,57.78150064,12.77346496,A,133011.60,"[-0.20000,-0.00000,-0.00000]","[-0.10000,-0.00000,-0.00000]",7.23169,0.00000,0.00000,0.00000,0.00000,0.00000
18:04:26.404094,4.83665,0.00952,3.00139,1.50000,"[5.00000,0.00000,0.00000]","[1.30000,0.00000,0.00000]",-0.13643,0.16172,-0.00224,0.00000,0.00000,-0.04605,0.02915,-0.11614,-0.11682,0.99869,4.83047,0.05128,1.83209,1.90888,2.00346,-3.13581,7.90548,4.76401,-3.21120,8.20989,1.97395,1.97395,57.78150,12.77346,57.78150093,12.77346477,A,133011.60,"[-0.20000,-0.00000,-0.00000]","[-0.10000,-0.00000,-0.00000]",7.24877,0.00000,0.00000,0.00000,0.00000,0.00000
18:04:26.415485,4.84804,0.00994,3.00139,1.50000,"[5.00000,0.00000,0.00000]","[1.30000,0.00000,0.00000]",-0.13689,0.16127,-0.00683,0.00000,0.00000,-0.04865,0.02976,0.05789,-0.10541,0.97844,4.84111,0.07326,1.76567,1.90638,2.00069,-3.14584,7.93424,4.76401,-3.21120,8.20989,1.97395,1.97395,57.78150,12.77346,57.78150119,12.77346460,A,133011.60,"[-0.20000,-0.00000,-0.00000]","[-0.10000,-0.00000,-0.00000]",7.26519,0.00000,0.00000,0.00000,0.00000,0.00000
18:04:26.426883,4.85944,0.01022,3.00139,1.50000,"[5.00000,0.00000,0.00000]","[1.30000,0.00000,0.00000]",-0.13603,0.16087,-0.01385,0.00000,0.00000,-0.06545,0.02884,0.00183,-0.01336,0.99216,4.85321,0.06593,1.71253,1.90437,1.99845,-3.15562,7.96223,4.76401,-3.21120,8.20989,1.97395,1.97395,57.78150,12.77346,57.78150144,12.77346444,A,133011.60,"[-0.20000,-0.00000,-0.00000]","[-0.10000,-0.00000,-0.00000]",7.28185,0.00000,0.00000,0.00000,0.00000,0.00000
18:04:26.518567,4.95111,0.07615,3.00139,1.50000,"[5.00000,0.00000,0.00000]","[1.30000,0.00000,0.00000]",-0.13635,0.15926,0.01013,0.00000,0.00000,-0.00390,0.03556,-0.18526,-0.10760,0.91768,4.87824,0.05372,1.67003,1.90553,1.99866,-3.17387,8.00855,4.90613,-3.45821,8.76587,1.98889,1.98889,57.78151,12.77346,57.78150186,12.77346413,A,133011.80,"[-0.20000,-0.00000,-0.00000]","[-0.10000,-0.00000,-0.00000]",7.32040,0.00000,0.00000,0.00000,0.00000,0.00000
18:04:26.544267,4.97683,0.01200,3.08159,1.50000,"[5.00000,0.00000,0.00000]","[1.30000,0.00000,0.00000]",-0.13608,0.15702,-0.00484,0.00000,0.00000,-0.01795,0.03922,0.00634,-0.04191,1.10776,4.97038,0.06105,1.63602,1.92205,2.01385,-3.24739,8.17646,4.90613,-3.45821,8.76587,1.98889,1.98889,57.78151,12.77346,57.78150337,12.77346289,A,133011.80,"[-0.20000,-0.00000,-0.00000]","[-0.10000,-0.00000,-0.00000]",7.45517,0.00000,0.00000,0.00000,0.00000,0.00000
18:04:26.566760,4.99931,0.01058,3.08159,1.50000,"[5.00000,0.00000,0.00000]","[1.30000,0.00000,0.00000]",-0.13540,0.15702,-0.00331,0.00000,0.00000,-0.02742,0.05526,-0.08162,-0.03294,1.02053,4.99233,0.05372,1.60882,1.92204,2.01385,-3.27100,8.23349,4.90613,-3.45821,8.76587,1.98889,1.98889,57.78151,12.77346,57.78150388,12.77346249,A,133011.80,"[-0.20000,-0.00000,-0.00000]","[-0.10000,-0.00000,-0.00000]",7.49099,0.00000,0.00000,0.00000,0.00000,0.00000
18:04:26.643773,5.07562,0.06223,3.08159,1.50000,"[5.00000,0.00000,0.00000]","[1.30000,0.00000,0.00000]",-0.13369,0.15702,-0.00484,0.00000,0.00000,-0.00574,0.05633,-0.23021,0.03898,0.85345,5.01866,0.05372,1.58705,1.92274,2.01455,-3.29589,8.29282,5.03662,-3.57678,9.02532,1.99944,1.99944,57.78151,12.77346,57.78150441,12.77346207,A,133011.90,"[-0.20000,-0.00000,-0.00000]","[-0.10000,-0.00000,-0.00000]",7.52795,0.00000,0.00000,0.00000,0.00000,0.00000
18:04:26.675511,5.10807,0.01710,3.08159,1.50000,"[5.00000,0.00000,0.00000]","[1.30000,0.00000,0.00000]",0.00000,0.15702,0.00096,0.00000,0.00000,-0.02696,0.07695,-0.09388,0.08882,1.06793,5.09301,0.04151,1.50000,1.85631,1.94811,-3.57678,9.02532,5.03662,-3.57678,9.02532,1.99944,1.99944,57.78151,12.77346,57.78150564,12.77346104,A,133011.90,"[-0.20000,-0.00000,-0.00000]","[-0.10000,-0.00000,-0.00000]",7.64427,0.00000,0.00000,0.00000,0.00000,0.00000
18:04:26.703762,5.13631,0.01482,3.08159,1.50000,"[5.00000,0.00000,0.00000]","[1.30000,0.00000,0.00000]",-0.00197,0.03361,0.00417,-0.15681,-0.02288,-0.00879,0.07282,-0.03941,-0.10138,0.93184,5.12405,0.05372,1.50000,1.87966,1.89921,-3.59124,9.06180,5.03662,-3.57678,9.02532,1.99944,1.99944,57.78151,12.77346,57.78151133,12.77345709,A,133011.90,"[-0.20000,-0.00000,-0.00000]","[-0.10000,-0.00000,-0.00000]",7.69003,-3.06883,7.05116,1.98129,0.32337,0.08209
18:04:26.745432,5.17798,0.02930,3.08159,1.50000,"[5.00000,0.00000,0.00000]","[1.30000,0.00000,0.00000]",-0.00351,0.03358,-0.01507,-0.03015,-0.01974,-0.01016,0.06488,-0.09296,-0.04423,1.00912,5.15434,0.62027,1.50000,1.89572,1.91525,-3.60310,9.09692,5.17133,-3.70523,9.26624,2.06061,2.06061,57.78151,12.77346,57.78151164,12.77345689,A,133012.00,"[-0.20000,-0.00000,-0.00000]","[-0.10000,-0.00000,-0.00000]",7.73080,-3.08510,7.08854,1.98129,0.32651,0.06604
