Description : again prev intrrupted v3 p3 ; walk_time = 2.0 ; speed_up_time = 3.0 ; balancing_time = 0.0
RealTime,Time,CalculationTime,MeasuredVelocity,FilteredVelocity,BalancingGainsInner,BalancingGainsOuter,Roll,SteeringAngle,RollRate,ControlInput,BalancingSetpoint,gy,gz,ax,ay,az,imu_read_timing,SteerMotorCurrent,v_estimated,yaw_estimated,heading_estimated,x_estimated,y_estimated,GPS_timestamp,x_GPS,y_GPS,theta_GPS,theta_GPS_noUnwrap,latitude,longitude,lat_estimated,lon_estimated,status,NMEA timestamp
18:41:46.665701,0.05121,0.05116,0.00000,0.00000,[3.00000 0.00000 0.00000],[1.30000 0.00000 0.00000],-0.00167,0.03127,-0.02595,0.00000,0.00000,0.00623,0.00169,0.03672,-0.06930,0.99027,0.00001,0.01221,0.00000,-0.01819,0.00000,0.00000,0.00000,0.01805,0.00000,0.00000,0.00000,0.00000,57.68812,11.98052,57.68811683,11.98052217,A,145206.20
18:41:46.692557,0.07811,0.01322,0.00000,0.00000,[3.00000 0.00000 0.00000],[1.30000 0.00000 0.00000],-0.00384,0.03360,-0.00732,0.00000,0.00000,0.00195,-0.00183,0.03770,-0.08827,0.98716,0.06777,0.01221,0.00000,-0.01839,0.00115,0.00000,0.00000,0.01805,0.00000,0.00000,0.00000,0.00000,57.68812,11.98052,57.68811683,11.98052217,A,145206.20
18:41:46.719224,0.10369,0.01123,0.00000,0.00000,[3.00000 0.00000 0.00000],[1.30000 0.00000 0.00000],-0.00510,0.03405,0.00261,0.00000,0.00000,-0.00065,-0.00076,0.05118,-0.06716,0.99015,0.09518,0.01709,0.00000,-0.01860,0.00120,0.00000,0.00000,0.01805,0.00000,0.00000,0.00000,0.00000,57.68812,11.98052,57.68811683,11.98052217,A,145206.20
18:41:46.768710,0.15426,0.03725,0.00000,0.00000,[3.00000 0.00000 0.00000],[1.30000 0.00000 0.00000],-0.00627,0.03439,0.01009,0.00000,0.00000,0.00073,-0.00045,0.05173,-0.07442,0.99582,0.11923,0.01954,0.00000,0.45243,0.47243,-0.00050,0.00000,0.15036,-0.00991,0.00000,3.14159,3.14159,57.68812,11.98052,57.68811683,11.98052216,A,145206.40
18:41:46.797346,0.18289,0.01405,0.00000,0.00000,[3.00000 0.00000 0.00000],[1.30000 0.00000 0.00000],-0.00649,0.03478,0.02215,0.00000,0.00000,-0.00156,-0.00335,0.05466,-0.07326,0.98613,0.17267,0.01465,0.00000,0.85277,0.87300,-0.00097,0.00000,0.15036,-0.00991,0.00000,3.14159,3.14159,57.68812,11.98052,57.68811683,11.98052215,A,145206.40
18:41:46.822442,0.20797,0.01310,0.00000,0.00000,[3.00000 0.00000 0.00000],[1.30000 0.00000 0.00000],-0.00731,0.03498,0.02429,0.00000,0.00000,0.00546,-0.00305,0.05807,-0.07546,0.98655,0.19787,0.02198,0.00000,1.19304,1.21338,-0.00141,0.00000,0.15036,-0.00991,0.00000,3.14159,3.14159,57.68812,11.98052,57.68811683,11.98052214,A,145206.40
18:41:46.850570,0.23611,0.01408,0.00000,0.00000,[3.00000 0.00000 0.00000],[1.30000 0.00000 0.00000],-0.00785,0.03555,0.03071,0.00000,0.00000,0.00164,-0.00167,0.06277,-0.07369,0.98539,0.22544,0.00977,0.00000,1.48222,1.50290,-0.00184,0.00000,0.15036,-0.00991,0.00000,3.14159,3.14159,57.68812,11.98052,57.68811683,11.98052214,A,145206.40
18:41:46.892065,0.27762,0.02624,0.00000,0.00000,[3.00000 0.00000 0.00000],[1.30000 0.00000 0.00000],-0.00807,0.03631,0.03590,0.00000,0.00000,-0.00614,-0.00106,0.07235,-0.06655,0.99723,0.25459,0.01221,0.00000,1.25672,1.27784,-0.00224,0.00000,0.27395,-0.00991,0.00000,0.00000,0.00000,57.68812,11.98052,57.68811683,11.98052213,A,145206.50
18:41:46.919384,0.30494,0.01233,0.00000,0.00000,[3.00000 0.00000 0.00000],[1.30000 0.00000 0.00000],-0.00786,0.03829,0.03697,0.00000,0.00000,-0.00706,0.00077,0.06777,-0.06856,0.99149,0.29555,0.00977,0.00000,1.06487,1.08714,-0.00262,0.00000,0.27395,-0.00991,0.00000,0.00000,0.00000,57.68812,11.98052,57.68811683,11.98052212,A,145206.50
18:41:46.945366,0.33092,0.01340,0.00000,0.00000,[3.00000 0.00000 0.00000],[1.30000 0.00000 0.00000],-0.00797,0.03979,0.04170,0.00000,0.00000,-0.00843,0.00001,0.07210,-0.05960,0.97685,0.32126,0.00977,0.00000,0.90167,0.92481,-0.00299,0.00000,0.27395,-0.00991,0.00000,0.00000,0.00000,57.68812,11.98052,57.68811683,11.98052212,A,145206.50
18:41:46.972520,0.35806,0.01312,0.70959,0.70959,[3.00000 0.00000 0.00000],[1.30000 0.00000 0.00000],-0.00811,0.04152,0.04399,0.00000,0.00000,-0.00355,0.00520,0.05941,-0.06777,0.98417,0.34824,0.01709,0.14192,0.76279,0.78695,-0.00333,0.00000,0.27395,-0.00991,0.00000,0.00000,0.00000,57.68812,11.98052,57.68811683,11.98052211,A,145206.50
18:41:47.010882,0.39644,0.02599,0.70959,0.70959,[3.00000 0.00000 0.00000],[1.30000 0.00000 0.00000],-0.00846,0.04285,0.03498,0.00000,0.00000,-0.00187,0.00459,0.08223,-0.06234,0.98960,0.37334,0.02198,0.25545,0.95405,0.97898,-0.00064,0.00446,0.39259,-0.01981,0.01853,2.06168,2.06168,57.68812,11.98052,57.68811687,11.98052216,A,145206.60
18:41:47.033724,0.41928,0.01099,0.70959,0.70959,[3.00000 0.00000 0.00000],[1.30000 0.00000 0.00000],-0.00832,0.04438,0.03636,0.00000,0.00000,-0.00187,-0.00060,0.07320,-0.06204,0.99674,0.41085,0.01465,0.34628,1.11649,1.14230,0.00114,0.00923,0.39259,-0.01981,0.01853,2.06168,2.06168,57.68812,11.98052,57.68811692,11.98052219,A,145206.60
18:41:47.060964,0.44652,0.01204,0.70959,0.70959,[3.00000 0.00000 0.00000],[1.30000 0.00000 0.00000],-0.00850,0.04537,0.04063,0.00000,0.00000,-0.00523,0.00199,0.09260,-0.06356,0.98070,0.43745,0.01709,0.41894,1.25459,1.28098,0.00345,0.01704,0.39259,-0.01981,0.01853,2.06168,2.06168,57.68812,11.98052,57.68811699,11.98052222,A,145206.60
18:41:47.087958,0.47351,0.01468,0.70959,0.70959,[3.00000 0.00000 0.00000],[1.30000 0.00000 0.00000],-0.00869,0.04622,0.04384,0.00000,0.00000,-0.00340,0.00092,0.07222,-0.06234,0.98509,0.46141,0.01221,0.47707,1.37195,1.39883,0.00495,0.02605,0.39259,-0.01981,0.01853,2.06168,2.06168,57.68812,11.98052,57.68811707,11.98052225,A,145206.60
18:41:47.124912,0.51046,0.02469,0.70959,0.70959,[3.00000 0.00000 0.00000],[1.30000 0.00000 0.00000],-0.00854,0.04661,0.05209,0.00000,0.00000,-0.00019,0.00062,0.07515,-0.06228,0.99424,0.48768,0.01465,0.52357,1.39828,1.42540,0.00645,0.04240,0.50671,-0.01981,0.03706,1.57080,1.57080,57.68812,11.98052,57.68811721,11.98052228,A,145206.70
18:41:47.152352,0.53789,0.01388,0.70959,0.70959,[3.00000 0.00000 0.00000],[1.30000 0.00000 0.00000],-0.00725,0.04678,0.06079,0.00000,0.00000,-0.00187,0.00245,0.08650,-0.05081,0.99692,0.52662,0.00977,0.56078,1.42049,1.44771,0.00679,0.05338,0.50671,-0.01981,0.03706,1.57080,1.57080,57.68812,11.98052,57.68811731,11.98052228,A,145206.70
18:41:47.176592,0.56214,0.01333,0.70959,0.70959,[3.00000 0.00000 0.00000],[1.30000 0.00000 0.00000],-0.00684,0.04690,0.06675,0.00000,0.00000,-0.00034,0.00321,0.08650,-0.06265,0.99314,0.55167,0.01709,0.59054,1.43933,1.46662,0.00677,0.06319,0.50671,-0.01981,0.03706,1.57080,1.57080,57.68812,11.98052,57.68811740,11.98052228,A,145206.70
18:41:47.201983,0.58753,0.01314,0.70959,0.70959,[3.00000 0.00000 0.00000],[1.30000 0.00000 0.00000],-0.00633,0.04690,0.07240,0.00000,0.00000,-0.00935,-0.00488,0.08662,-0.06716,0.99247,0.57710,0.00488,0.61435,1.45540,1.48268,0.00670,0.07392,0.50671,-0.01981,0.03706,1.57080,1.57080,57.68812,11.98052,57.68811750,11.98052228,A,145206.70
18:41:47.243990,0.62954,0.02808,0.70959,0.70959,[3.00000 0.00000 0.00000],[1.30000 0.00000 0.00000],-0.00551,0.04690,0.06568,0.00000,0.00000,-0.00706,-0.00030,0.06594,-0.04490,0.98338,0.60512,0.00977,0.63340,1.70510,1.73238,0.00695,0.09548,0.62576,-0.02972,0.03706,3.14159,3.14159,57.68812,11.98052,57.68811769,11.98052228,A,145206.80
18:41:47.270662,0.65621,0.01443,0.70959,0.70959,[3.00000 0.00000 0.00000],[1.30000 0.00000 0.00000],-0.00331,0.04690,0.07988,0.00000,0.00000,-0.00477,0.00001,0.07979,-0.04636,0.99113,0.64597,0.00977,0.64864,1.91696,1.94425,0.00298,0.10566,0.62576,-0.02972,0.03706,3.14159,3.14159,57.68812,11.98052,57.68811778,11.98052222,A,145206.80
18:41:47.296207,0.68176,0.01274,0.70959,0.70959,[3.00000 0.00000 0.00000],[1.30000 0.00000 0.00000],-0.00266,0.04690,0.07958,0.00000,0.00000,-0.00981,-0.00289,0.07912,-0.06948,1.01199,0.67183,0.00977,0.66083,2.09706,2.12435,-0.00364,0.11495,0.62576,-0.02972,0.03706,3.14159,3.14159,57.68812,11.98052,57.68811787,11.98052211,A,145206.80
18:41:47.321708,0.70726,0.01355,0.70959,0.70959,[3.00000 0.00000 0.00000],[1.30000 0.00000 0.00000],-0.00160,0.04690,0.07561,0.00000,0.00000,-0.00782,-0.00473,0.06844,-0.03550,1.00473,0.69808,0.01465,0.67058,2.25015,2.27744,-0.01218,0.12276,0.62576,-0.02972,0.03706,3.14159,3.14159,57.68812,11.98052,57.68811794,11.98052196,A,145206.80
18:41:47.370398,0.75570,0.03787,0.70959,0.70959,[3.00000 0.00000 0.00000],[1.30000 0.00000 0.00000],-0.00051,0.04690,0.08691,0.00000,0.00000,-0.00981,0.00474,0.07710,-0.03056,0.97417,0.72067,0.00733,0.67838,2.21888,2.24616,-0.03442,0.14489,0.75209,-0.06934,0.11119,2.06168,2.06168,57.68812,11.98052,57.68811814,11.98052159,A,145207.00
18:41:47.395584,0.78111,0.01255,0.70959,0.70959,[3.00000 0.00000 0.00000],[1.30000 0.00000 0.00000],0.00239,0.04690,0.07667,0.00000,0.00000,-0.00675,-0.00244,0.06472,-0.03892,0.99393,0.77195,0.00733,0.68462,2.19174,2.21902,-0.04524,0.15454,0.75209,-0.06934,0.11119,2.06168,2.06168,57.68812,11.98052,57.68811822,11.98052141,A,145207.00
18:41:47.422659,0.80818,0.01324,0.70959,0.70959,[3.00000 0.00000 0.00000],[1.30000 0.00000 0.00000],0.00361,0.04690,0.07591,0.00000,0.00000,-0.00416,-0.00152,0.08070,-0.02080,0.99436,0.79833,0.00977,0.68962,2.16872,2.19600,-0.05606,0.16506,0.75209,-0.06934,0.11119,2.06168,2.06168,57.68812,11.98052,57.68811832,11.98052122,A,145207.00
18:41:47.448875,0.83442,0.01408,0.70959,0.70959,[3.00000 0.00000 0.00000],[1.30000 0.00000 0.00000],0.00436,0.04690,0.07347,0.00000,0.00000,-0.01164,-0.00152,0.06191,-0.04136,0.99247,0.82352,0.00977,0.69361,2.14912,2.17641,-0.06560,0.17466,0.75209,-0.06934,0.11119,2.06168,2.06168,57.68812,11.98052,57.68811840,11.98052106,A,145207.00
18:41:47.486029,0.87159,0.02494,0.70959,0.70959,[3.00000 0.00000 0.00000],[1.30000 0.00000 0.00000],0.00511,0.04690,0.07179,0.00000,0.00000,-0.00691,0.00031,0.06692,-0.03355,0.99284,0.84797,0.00977,0.69681,2.09831,2.12560,-0.07964,0.19263,0.86732,-0.07925,0.14826,1.83196,1.83196,57.68812,11.98052,57.68811857,11.98052083,A,145207.10
18:41:47.511986,0.89754,0.01382,0.45636,0.45636,[3.00000 0.00000 0.00000],[1.30000 0.00000 0.00000],0.00704,0.04690,0.06614,0.00000,0.00000,-0.00691,0.00169,0.06277,-0.01330,0.98350,0.88770,0.00488,0.64872,2.05481,2.08209,-0.08744,0.20303,0.86732,-0.07925,0.14826,1.83196,1.83196,57.68812,11.98052,57.68811866,11.98052070,A,145207.10
18:41:47.538792,0.92432,0.01308,0.45636,0.45636,[3.00000 0.00000 0.00000],[1.30000 0.00000 0.00000],0.00740,0.04690,0.05224,0.00000,0.00000,-0.00675,-0.00183,0.06594,-0.03599,0.99631,0.91475,0.01709,0.61025,2.01781,2.04509,-0.09397,0.21267,0.86732,-0.07925,0.14826,1.83196,1.83196,57.68812,11.98052,57.68811875,11.98052059,A,145207.10
18:41:47.565436,0.95099,0.01266,0.45636,0.45636,[3.00000 0.00000 0.00000],[1.30000 0.00000 0.00000],0.00779,0.04690,0.04140,0.00000,0.00000,-0.00187,-0.00274,0.07100,-0.01391,0.99589,0.94139,0.00977,0.57947,1.98634,2.01362,-0.09954,0.22173,0.86732,-0.07925,0.14826,1.83196,1.83196,57.68812,11.98052,57.68811883,11.98052049,A,145207.10
18:41:47.606757,0.99231,0.02711,0.45636,0.45636,[3.00000 0.00000 0.00000],[1.30000 0.00000 0.00000],0.00809,0.04690,0.03559,0.00000,0.00000,-0.00324,-0.00396,0.06320,-0.01019,0.99204,0.96849,0.01465,0.55485,1.99435,2.02163,-0.10886,0.23962,0.98860,-0.09906,0.18532,2.06168,2.06168,57.68812,11.98052,57.68811899,11.98052034,A,145207.20
18:41:47.632709,1.01760,0.01279,0.45636,0.45636,[3.00000 0.00000 0.00000],[1.30000 0.00000 0.00000],0.00795,0.04690,0.02399,0.00000,0.00000,0.00256,-0.00259,0.09004,-0.03703,0.97673,1.00808,0.00733,0.53515,2.00078,2.02807,-0.11353,0.24755,0.98860,-0.09906,0.18532,2.06168,2.06168,57.68812,11.98052,57.68811906,11.98052026,A,145207.20
18:41:47.659451,1.04500,0.01345,0.45636,0.45636,[3.00000 0.00000 0.00000],[1.30000 0.00000 0.00000],0.00779,0.04690,0.01757,0.00000,0.00000,-0.00110,-0.00503,0.07479,-0.00799,0.98326,1.03458,0.01465,0.51939,2.00624,2.03352,-0.11775,0.25449,0.98860,-0.09906,0.18532,2.06168,2.06168,57.68812,11.98052,57.68811912,11.98052019,A,145207.20
18:41:47.683831,1.06937,0.01241,0.45636,0.45636,[3.00000 0.00000 0.00000],[1.30000 0.00000 0.00000],0.00714,0.04690,0.01284,0.00000,0.00000,0.00668,-0.00809,0.06686,-0.03056,1.01949,1.05853,0.02198,0.50679,2.01084,2.03813,-0.12151,0.26045,0.98860,-0.09906,0.18532,2.06168,2.06168,57.68812,11.98052,57.68811918,11.98052012,A,145207.20
18:41:47.722991,1.10854,0.02568,0.45636,0.45636,[3.00000 0.00000 0.00000],[1.30000 0.00000 0.00000],0.00638,0.04684,0.01040,0.00000,0.00000,0.00760,-0.01282,0.11248,-0.03562,0.98509,1.08452,0.00488,0.49670,1.98059,2.00784,-0.12909,0.27480,1.10479,-0.10897,0.22239,1.83196,1.83196,57.68812,11.98052,57.68811930,11.98051999,A,145207.30
18:41:47.745957,1.13151,0.01209,0.45636,0.45636,[3.00000 0.00000 0.00000],[1.30000 0.00000 0.00000],0.00591,0.04582,0.00673,0.00000,0.00000,-0.00737,-0.01068,0.04178,-0.01623,0.99442,1.12225,0.01709,0.48864,1.95463,1.98128,-0.13193,0.28041,1.10479,-0.10897,0.22239,1.83196,1.83196,57.68812,11.98052,57.68811936,11.98051995,A,145207.30
18:41:47.772055,1.15760,0.01170,0.45636,0.45636,[3.00000 0.00000 0.00000],[1.30000 0.00000 0.00000],0.00503,0.04486,0.00673,0.00000,0.00000,0.01004,-0.00305,0.09363,-0.03916,1.01156,1.14840,0.02198,0.48218,1.93269,1.95879,-0.13507,0.28737,1.10479,-0.10897,0.22239,1.83196,1.83196,57.68812,11.98052,57.68811942,11.98051989,A,145207.30
18:41:47.797934,1.18349,0.01311,0.45636,0.45636,[3.00000 0.00000 0.00000],[1.30000 0.00000 0.00000],0.00446,0.04427,-0.00228,0.00000,0.00000,0.00577,-0.00305,0.06277,-0.00403,0.98948,1.17371,0.01709,0.47702,1.91408,1.93983,-0.13763,0.29358,1.10479,-0.10897,0.22239,1.83196,1.83196,57.68812,11.98052,57.68811947,11.98051985,A,145207.30
18:41:47.821891,1.20745,0.01033,0.45636,0.45636,[3.00000 0.00000 0.00000],[1.30000 0.00000 0.00000],0.00391,0.04367,0.00413,0.00000,0.00000,-0.00248,-0.00839,0.05673,-0.01293,0.96130,1.19873,0.02442,0.47289,1.89827,1.92368,-0.13959,0.29878,1.10479,-0.10897,0.22239,1.83196,1.83196,57.68812,11.98052,57.68811952,11.98051982,A,145207.30
18:41:47.874481,1.26003,0.03741,0.73054,0.73054,[3.00000 0.00000 0.00000],[1.30000 0.00000 0.00000],0.00283,0.04319,-0.00136,0.00000,0.00000,-0.00248,-0.01236,0.09351,-0.03873,0.98484,1.22558,0.01221,0.52442,1.92980,1.95492,-0.14942,0.32197,1.25631,-0.17831,0.33358,2.12840,2.12840,57.68812,11.98052,57.68811973,11.98051965,A,145207.50
18:41:47.894996,1.28053,0.01159,0.73054,0.73054,[3.00000 0.00000 0.00000],[1.30000 0.00000 0.00000],0.00200,0.04104,0.00139,0.00000,0.00000,0.00989,-0.01404,0.09126,-0.02965,0.98838,1.27048,0.01709,0.56564,1.95628,1.98015,-0.15389,0.33004,1.25631,-0.17831,0.33358,2.12840,2.12840,57.68812,11.98052,57.68811980,11.98051958,A,145207.50
18:41:47.918741,1.30428,0.01197,0.73054,0.73054,[3.00000 0.00000 0.00000],[1.30000 0.00000 0.00000],0.00126,0.03866,0.00307,0.00000,0.00000,-0.00584,-0.01511,0.05307,-0.02605,0.99265,1.29572,0.01954,0.59862,1.97911,2.00160,-0.15989,0.34122,1.25631,-0.17831,0.33358,2.12840,2.12840,57.68812,11.98052,57.68811990,11.98051948,A,145207.50
18:41:47.947702,1.33325,0.01307,0.73054,0.73054,[3.00000 0.00000 0.00000],[1.30000 0.00000 0.00000],0.00029,0.03682,0.00337,0.00000,0.00000,-0.00798,-0.01664,0.08430,-0.04343,1.00131,1.32323,0.01709,0.62500,1.99872,2.02013,-0.16675,0.35375,1.25631,-0.17831,0.33358,2.12840,2.12840,57.68812,11.98052,57.68812001,11.98051936,A,145207.50
18:41:47.973346,1.35890,0.01162,0.73054,0.73054,[3.00000 0.00000 0.00000],[1.30000 0.00000 0.00000],-0.00021,0.03665,0.01040,0.00000,0.00000,-0.02096,-0.02351,0.06435,-0.02300,0.93318,1.34995,0.01221,0.64611,2.01536,2.03668,-0.17325,0.36505,1.25631,-0.17831,0.33358,2.12840,2.12840,57.68812,11.98052,57.68812012,11.98051925,A,145207.50
18:41:48.013650,1.39920,0.02614,0.73054,0.73054,[3.00000 0.00000 0.00000],[1.30000 0.00000 0.00000],-0.00059,0.03665,0.01024,0.00000,0.00000,-0.00263,-0.01557,-0.00817,-0.01714,1.00766,1.37556,0.00977,0.66300,2.04753,2.06885,-0.18569,0.38660,1.39553,-0.20803,0.37065,2.24663,2.24663,57.68812,11.98052,57.68812031,11.98051904,A,145207.60
18:41:48.037622,1.42317,0.01338,0.73054,0.73054,[3.00000 0.00000 0.00000],[1.30000 0.00000 0.00000],-0.00081,0.03665,0.00948,0.00000,0.00000,-0.00049,-0.01190,0.05612,-0.01305,1.02029,1.41382,0.01709,0.67650,2.07456,2.09588,-0.19288,0.39697,1.39553,-0.20803,0.37065,2.24663,2.24663,57.68812,11.98052,57.68812040,11.98051892,A,145207.60
18:41:48.063984,1.44953,0.01234,0.73054,0.73054,[3.00000 0.00000 0.00000],[1.30000 0.00000 0.00000],-0.00124,0.03665,0.01146,0.00000,0.00000,-0.01195,-0.01374,0.05368,-0.02269,1.01486,1.43925,0.00977,0.68731,2.09759,2.11891,-0.20100,0.40837,1.39553,-0.20803,0.37065,2.24663,2.24663,57.68812,11.98052,57.68812051,11.98051878,A,145207.60
18:41:48.091020,1.47576,0.01229,0.73054,0.73054,[3.00000 0.00000 0.00000],[1.30000 0.00000 0.00000],-0.00185,0.03665,0.00368,0.00000,0.00000,-0.01729,-0.01267,0.07893,-0.02184,0.97862,1.46622,0.00977,0.69596,2.11717,2.13849,-0.20900,0.41900,1.39553,-0.20803,0.37065,2.24663,2.24663,57.68812,11.98052,57.68812060,11.98051865,A,145207.60
18:41:48.109291,1.49485,0.00969,0.73054,0.73054,[3.00000 0.00000 0.00000],[1.30000 0.00000 0.00000],-0.00215,0.03665,0.00291,0.00000,0.00000,-0.01042,-0.00885,0.03019,0.00104,0.99284,1.48509,0.00977,0.70287,2.13371,2.15503,-0.21492,0.42595,1.39553,-0.20803,0.37065,2.24663,2.24663,57.68812,11.98052,57.68812066,11.98051855,A,145207.60
18:41:48.134005,1.51956,0.02343,0.84638,0.84638,[3.00000 0.00000 0.00000],[1.30000 0.00000 0.00000],-0.00262,0.03665,0.00581,0.00000,0.00000,-0.00370,-0.00305,0.02318,-0.01068,0.99399,1.49644,0.01465,0.73158,2.10371,2.12502,-0.22460,0.43979,1.51597,-0.23775,0.44478,1.95207,1.95207,57.68812,11.98052,57.68812079,11.98051839,A,145207.70
18:41:48.158001,1.54247,0.01070,0.84638,0.84638,[3.00000 0.00000 0.00000],[1.30000 0.00000 0.00000],-0.00317,0.03665,-0.00396,0.00000,0.00000,0.00332,-0.00305,0.07704,-0.00293,0.98027,1.53423,0.00977,0.75454,2.07818,2.09950,-0.23295,0.45248,1.51597,-0.23775,0.44478,1.95207,1.95207,57.68812,11.98052,57.68812090,11.98051825,A,145207.70
18:41:48.184477,1.57003,0.01265,0.84638,0.84638,[3.00000 0.00000 0.00000],[1.30000 0.00000 0.00000],-0.00396,0.03665,0.00169,0.00000,0.00000,-0.00034,-0.00641,0.04209,-0.03221,1.01431,1.56019,0.00977,0.77291,2.05657,2.07789,-0.24210,0.46734,1.51597,-0.23775,0.44478,1.95207,1.95207,57.68812,11.98052,57.68812104,11.98051809,A,145207.70
18:41:48.209416,1.59497,0.01165,0.84638,0.84638,[3.00000 0.00000 0.00000],[1.30000 0.00000 0.00000],-0.00452,0.03665,-0.00228,0.00000,0.00000,0.01081,-0.00549,0.05691,-0.01135,1.02096,1.58531,0.00977,0.78760,2.03814,2.05946,-0.24948,0.47989,1.51597,-0.23775,0.44478,1.95207,1.95207,57.68812,11.98052,57.68812115,11.98051797,A,145207.70
18:41:48.250719,1.63627,0.02765,0.84638,0.84638,[3.00000 0.00000 0.00000],[1.30000 0.00000 0.00000],-0.00514,0.03679,0.00688,0.00000,0.00000,0.00760,0.00596,0.05069,-0.02965,0.96831,1.61145,0.00733,0.79936,2.02287,2.04427,-0.26428,0.50798,1.63212,-0.26747,0.51891,1.95207,1.95207,57.68812,11.98052,57.68812140,11.98051772,A,145207.80
18:41:48.277086,1.66264,0.01316,0.84638,0.84638,[3.00000 0.00000 0.00000],[1.30000 0.00000 0.00000],-0.00536,0.03787,0.01314,0.00000,0.00000,0.00027,-0.00442,0.08558,-0.02751,0.97234,1.65197,0.01465,0.80876,2.00945,2.03148,-0.27249,0.52426,1.63212,-0.26747,0.51891,1.95207,1.95207,57.68812,11.98052,57.68812155,11.98051758,A,145207.80
18:41:48.305010,1.69057,0.01222,0.84638,0.84638,[3.00000 0.00000 0.00000],[1.30000 0.00000 0.00000],-0.00585,0.03855,0.01131,0.00000,0.00000,-0.00782,-0.00839,0.02464,-0.03196,0.99735,1.68074,0.01954,0.81629,1.99803,2.02046,-0.28057,0.54077,1.63212,-0.26747,0.51891,1.95207,1.95207,57.68812,11.98052,57.68812170,11.98051745,A,145207.80
18:41:48.329977,1.71553,0.01130,0.84638,0.84638,[3.00000 0.00000 0.00000],[1.30000 0.00000 0.00000],-0.00578,0.03911,0.02338,0.00000,0.00000,0.00332,-0.00381,0.06307,-0.01464,0.99418,1.70700,0.01465,0.82231,1.98824,2.01100,-0.28740,0.55519,1.63212,-0.26747,0.51891,1.95207,1.95207,57.68812,11.98052,57.68812183,11.98051733,A,145207.80
18:41:48.383593,1.76915,0.03794,0.84638,0.84638,[3.00000 0.00000 0.00000],[1.30000 0.00000 0.00000],-0.00564,0.03951,0.03223,0.00000,0.00000,-0.00828,-0.00030,0.05014,-0.02702,0.99741,1.73427,0.01221,0.82712,1.99705,2.02003,-0.30714,0.59653,1.76537,-0.33681,0.64864,2.06168,2.06168,57.68812,11.98052,57.68812220,11.98051700,A,145208.00
18:41:48.407760,1.79331,0.01210,0.90321,0.90321,[3.00000 0.00000 0.00000],[1.30000 0.00000 0.00000],-0.00391,0.04070,0.04873,0.00000,0.00000,-0.00645,0.00230,0.05868,-0.02141,1.00394,1.78370,0.01709,0.84234,2.00370,2.02737,-0.31576,0.61393,1.76537,-0.33681,0.64864,2.06168,2.06168,57.68812,11.98052,57.68812235,11.98051685,A,145208.00
18:41:48.432446,1.81797,0.01164,0.90321,0.90321,[3.00000 0.00000 0.00000],[1.30000 0.00000 0.00000],-0.00330,0.04192,0.04644,0.00000,0.00000,-0.00172,0.00321,0.05173,-0.01122,1.00723,1.80843,0.01954,0.85452,2.00931,2.03369,-0.32481,0.63196,1.76537,-0.33681,0.64864,2.06168,2.06168,57.68812,11.98052,57.68812252,11.98051670,A,145208.00
18:41:48.460021,1.84557,0.01492,0.90321,0.90321,[3.00000 0.00000 0.00000],[1.30000 0.00000 0.00000],-0.00250,0.04407,0.05468,0.00000,0.00000,-0.00172,0.00444,0.08619,-0.01391,0.98393,1.83398,0.00733,0.86425,2.01395,2.03959,-0.33401,0.65002,1.76537,-0.33681,0.64864,2.06168,2.06168,57.68812,11.98052,57.68812268,11.98051655,A,145208.00
18:41:48.499149,1.88470,0.02609,0.90321,0.90321,[3.00000 0.00000 0.00000],[1.30000 0.00000 0.00000],-0.00153,0.04627,0.05422,0.00000,0.00000,-0.01622,0.01284,0.03178,-0.00958,1.00223,1.86198,0.01465,0.87205,2.03285,2.05977,-0.35052,0.68109,1.88092,-0.38634,0.72277,2.15983,2.15983,57.68812,11.98052,57.68812296,11.98051627,A,145208.10
18:41:48.524209,1.90976,0.01213,0.90321,0.90321,[3.00000 0.00000 0.00000],[1.30000 0.00000 0.00000],-0.00012,0.04899,0.04949,0.00000,0.00000,-0.00110,0.01192,0.07107,-0.00390,0.97948,1.90021,0.00488,0.87828,2.04827,2.07677,-0.36080,0.69912,1.88092,-0.38634,0.72277,2.15983,2.15983,57.68812,11.98052,57.68812312,11.98051610,A,145208.10
18:41:48.550288,1.93563,0.01266,0.90321,0.90321,[3.00000 0.00000 0.00000],[1.30000 0.00000 0.00000],0.00042,0.05168,0.03865,0.00000,0.00000,0.00607,0.01528,0.02355,-0.00122,0.99735,1.92598,0.01465,0.88327,2.06119,2.09126,-0.37090,0.71623,1.88092,-0.38634,0.72277,2.15983,2.15983,57.68812,11.98052,57.68812327,11.98051593,A,145208.10
18:41:48.574916,1.96045,0.01322,0.90321,0.90321,[3.00000 0.00000 0.00000],[1.30000 0.00000 0.00000],0.00101,0.05428,0.03605,0.00000,0.00000,0.00317,0.01543,0.07533,0.00866,1.00278,1.95113,0.02198,0.88726,2.07197,2.10355,-0.38058,0.73211,1.88092,-0.38634,0.72277,2.15983,2.15983,57.68812,11.98052,57.68812342,11.98051576,A,145208.10
18:41:48.598651,1.98420,0.01259,0.90321,0.90321,[3.00000 0.00000 0.00000],[1.30000 0.00000 0.00000],0.00134,0.05646,0.02582,0.00000,0.00000,-0.00660,0.02383,0.04886,0.01165,0.99839,1.97460,0.01709,0.89045,2.08098,2.11383,-0.38999,0.74711,1.88092,-0.38634,0.72277,2.15983,2.15983,57.68812,11.98052,57.68812355,11.98051561,A,145208.10
18:41:48.638797,2.02434,0.02700,1.10145,1.10145,[3.00000 0.00000 0.00000],[1.30000 0.00000 0.00000],0.00163,0.05859,0.02368,0.00000,0.00000,-0.01134,0.02704,0.04337,0.01086,0.99711,2.00031,0.01954,0.93265,2.06143,2.09552,-0.40919,0.77935,2.02056,-0.42596,0.81543,1.97489,1.97489,57.68812,11.98051,57.68812384,11.98051528,A,145208.20
18:41:48.666060,2.05160,0.01530,1.10145,1.10145,[3.00000 0.00000 0.00000],[1.30000 0.00000 0.00000],0.00179,0.06272,0.01727,0.00000,0.00000,-0.00630,0.02597,0.02885,0.00073,0.98753,2.03817,0.00733,0.96641,2.04378,2.08028,-0.41890,0.79648,2.02056,-0.42596,0.81543,1.97489,1.97489,57.68812,11.98051,57.68812400,11.98051512,A,145208.20
18:41:48.689495,2.07504,0.01201,1.10145,1.10145,[3.00000 0.00000 0.00000],[1.30000 0.00000 0.00000],0.00172,0.06558,0.01223,0.00000,0.00000,0.00760,0.02139,0.04087,0.00714,0.98716,2.06425,0.00733,0.99342,2.02875,2.06692,-0.42955,0.81586,2.02056,-0.42596,0.81543,1.97489,1.97489,57.68812,11.98051,57.68812417,11.98051494,A,145208.20
18:41:48.717247,2.10279,0.01400,1.10145,1.10145,[3.00000 0.00000 0.00000],[1.30000 0.00000 0.00000],0.00203,0.06761,0.01971,0.00000,0.00000,0.00256,0.02979,-0.03934,0.01781,0.97856,2.09170,0.03419,1.01502,2.01594,2.05529,-0.44027,0.83597,2.02056,-0.42596,0.81543,1.97489,1.97489,57.68812,11.98051,57.68812435,11.98051476,A,145208.20
18:41:48.768004,2.15355,0.03902,1.10145,1.10145,[3.00000 0.00000 0.00000],[1.30000 0.00000 0.00000],0.00186,0.06812,0.02124,0.00000,0.00000,0.00256,0.04430,0.04831,-0.01269,0.97667,2.11740,0.02198,1.03231,2.01938,2.05903,-0.46684,0.88664,2.14863,-0.52502,1.00075,2.06168,2.06168,57.68813,11.98051,57.68812481,11.98051431,A,145208.40
18:41:48.792969,2.17852,0.01288,1.10145,1.10145,[3.00000 0.00000 0.00000],[1.30000 0.00000 0.00000],0.00632,0.06818,-0.02381,0.00000,0.00000,0.01325,0.00306,0.06716,0.41767,0.95672,2.16968,0.04151,1.04614,2.02092,2.06061,-0.47991,0.91149,2.14863,-0.52502,1.00075,2.06168,2.06168,57.68813,11.98051,57.68812503,11.98051409,A,145208.40
18:41:48.821092,2.20662,0.01338,1.10145,1.10145,[3.00000 0.00000 0.00000],[1.30000 0.00000 0.00000],0.00160,0.06821,0.03605,0.00000,0.00000,-0.00202,0.00291,0.53527,-0.35319,0.99625,2.19627,0.04640,1.05720,2.02237,2.06207,-0.49360,0.93739,2.14863,-0.52502,1.00075,2.06168,2.06168,57.68813,11.98051,57.68812526,11.98051386,A,145208.40
18:41:48.849276,2.23483,0.01317,1.12497,1.12497,[3.00000 0.00000 0.00000],[1.30000 0.00000 0.00000],0.00086,0.06821,-0.01282,0.00000,0.00000,0.01127,0.04109,-0.01128,0.00738,1.04621,2.22425,0.04396,1.07075,2.02362,2.06332,-0.50679,0.96227,2.14863,-0.52502,1.00075,2.06168,2.06168,57.68813,11.98051,57.68812549,11.98051364,A,145208.40
18:41:48.890859,2.27641,0.02877,1.12497,1.12497,[3.00000 0.00000 0.00000],[1.30000 0.00000 0.00000],0.00030,0.06821,-0.00167,0.00000,0.00000,0.05372,0.01268,0.01281,-0.00116,0.91958,2.25095,0.02198,1.08160,2.02555,2.06526,-0.52960,1.00502,2.27140,-0.57456,1.09342,2.06168,2.06168,57.68813,11.98051,57.68812587,11.98051326,A,145208.50
18:41:48.915354,2.30091,0.01121,1.12497,1.12497,[3.00000 0.00000 0.00000],[1.30000 0.00000 0.00000],-0.00172,0.06821,-0.03817,0.00000,0.00000,-0.03684,-0.01038,-0.00622,-0.00244,1.03932,2.29108,0.03419,1.09027,2.02617,2.06587,-0.54212,1.02849,2.27140,-0.57456,1.09342,2.06168,2.06168,57.68813,11.98051,57.68812608,11.98051305,A,145208.50
18:41:48.943995,2.32954,0.01491,1.12497,1.12497,[3.00000 0.00000 0.00000],[1.30000 0.00000 0.00000],-0.00304,0.06725,-0.02549,0.00000,0.00000,0.01890,0.00780,0.07344,-0.01244,1.05286,2.31858,0.03175,1.09721,2.02697,2.06611,-0.55577,1.05402,2.27140,-0.57456,1.09342,2.06168,2.06168,57.68813,11.98051,57.68812631,11.98051282,A,145208.50
18:41:48.972061,2.35761,0.01280,1.12497,1.12497,[3.00000 0.00000 0.00000],[1.30000 0.00000 0.00000],-0.00443,0.06074,-0.02748,0.00000,0.00000,-0.00019,0.00383,0.05405,-0.01226,0.98918,2.34764,0.02198,1.10276,2.02824,2.06358,-0.56909,1.07891,2.27140,-0.57456,1.09342,2.06168,2.06168,57.68813,11.98051,57.68812654,11.98051259,A,145208.50
18:41:49.012248,2.39780,0.02759,1.12497,1.12497,[3.00000 0.00000 0.00000],[1.30000 0.00000 0.00000],-0.00725,0.05471,-0.01877,0.00000,0.00000,-0.00462,-0.00015,0.08052,-0.11700,0.88975,2.37268,0.01465,1.10721,2.03038,2.06222,-0.59041,1.11884,2.39296,-0.61418,1.16755,2.06168,2.06168,57.68813,11.98051,57.68812690,11.98051223,A,145208.60
18:41:49.035641,2.42119,0.01098,1.33600,1.33600,[3.00000 0.00000 0.00000],[1.30000 0.00000 0.00000],-0.00872,0.04820,-0.02565,0.00000,0.00000,0.01218,-0.01084,0.02422,-0.00891,1.08848,2.41199,0.02686,1.15296,2.03179,2.05983,-0.60171,1.14017,2.39296,-0.61418,1.16755,2.06168,2.06168,57.68813,11.98051,57.68812709,11.98051204,A,145208.60
18:41:49.061879,2.44742,0.01323,1.33600,1.33600,[3.00000 0.00000 0.00000],[1.30000 0.00000 0.00000],-0.00977,0.04710,-0.03725,0.00000,0.00000,0.02654,-0.01511,0.16586,0.01196,0.95294,2.43614,0.01954,1.18957,2.03305,2.06045,-0.61348,1.16248,2.39296,-0.61418,1.16755,2.06168,2.06168,57.68813,11.98051,57.68812729,11.98051185,A,145208.60
18:41:49.088817,2.47437,0.01297,3.69064,1.33600,[3.00000 0.00000 0.00000],[1.30000 0.00000 0.00000],-0.01095,0.04707,-0.02702,0.00000,0.00000,0.01249,-0.02229,0.04337,-0.00677,0.96032,2.46416,0.00733,1.21886,2.03425,2.06163,-0.62645,1.18700,2.39296,-0.61418,1.16755,2.06168,2.06168,57.68813,11.98051,57.68812751,11.98051163,A,145208.60
18:41:49.131135,2.51669,0.02951,3.69064,1.33600,[3.00000 0.00000 0.00000],[1.30000 0.00000 0.00000],-0.01150,0.04707,-0.01908,0.00000,0.00000,-0.00294,-0.01862,0.13566,0.01836,1.00101,2.49151,0.00733,1.24229,2.02296,2.05034,-0.64999,1.23216,2.51173,-0.65380,1.26021,1.97489,1.97489,57.68813,11.98051,57.68812791,11.98051123,A,145208.70
18:41:49.158903,2.54445,0.01390,3.69064,1.33600,[3.00000 0.00000 0.00000],[1.30000 0.00000 0.00000],-0.01149,0.04707,-0.00029,0.00000,0.00000,0.02547,0.00276,0.28688,0.02123,0.99021,2.53350,0.00733,1.26103,2.01266,2.04004,-0.66299,1.25819,2.51173,-0.65380,1.26021,1.97489,1.97489,57.68813,11.98051,57.68812815,11.98051101,A,145208.70
18:41:49.187024,2.57256,0.01617,3.69064,1.33600,[3.00000 0.00000 0.00000],[1.30000 0.00000 0.00000],-0.01194,0.04661,0.00627,0.00000,0.00000,-0.03440,-0.01404,0.18977,-0.02159,1.00290,2.56276,0.00000,1.27602,2.00403,2.03115,-0.67623,1.28531,2.51173,-0.65380,1.26021,1.97489,1.97489,57.68813,11.98051,57.68812839,11.98051079,A,145208.70
18:41:49.215785,2.60134,0.01490,3.69064,1.33600,[3.00000 0.00000 0.00000],[1.30000 0.00000 0.00000],-0.01302,0.04585,0.01070,0.00000,0.00000,0.01539,-0.01756,0.21637,-0.07259,1.00272,2.59035,0.00000,1.28802,1.99674,2.02342,-0.68836,1.31078,2.51173,-0.65380,1.26021,1.97489,1.97489,57.68813,11.98051,57.68812862,11.98051059,A,145208.70
18:41:49.272524,2.65808,0.03957,1.51718,1.51718,[3.00000 0.00000 0.00000],[1.30000 0.00000 0.00000],-0.01253,0.04571,0.00536,0.00000,0.00000,0.00210,-0.02030,0.10559,0.04050,0.96685,2.62230,0.00244,1.33385,2.01050,2.03709,-0.72266,1.38030,2.65325,-0.77268,1.46407,2.09871,2.09871,57.68813,11.98051,57.68812925,11.98051001,A,145208.90
18:41:49.298628,2.68417,0.01424,1.51718,1.51718,[3.00000 0.00000 0.00000],[1.30000 0.00000 0.00000],-0.01264,0.04404,0.00322,0.00000,0.00000,-0.02096,-0.01801,0.08821,0.00262,1.01693,2.67318,0.00000,1.37051,2.02087,2.04649,-0.73748,1.40898,2.65325,-0.77268,1.46407,2.09871,2.09871,57.68813,11.98051,57.68812950,11.98050976,A,145208.90
18:41:49.321018,2.70657,0.01290,1.51718,1.51718,[3.00000 0.00000 0.00000],[1.30000 0.00000 0.00000],-0.01373,0.04378,0.01009,0.00000,0.00000,0.01325,-0.01588,0.14725,-0.07021,1.03029,2.69670,0.00244,1.39985,2.02960,2.05507,-0.75089,1.43434,2.65325,-0.77268,1.46407,2.09871,2.09871,57.68813,11.98051,57.68812973,11.98050953,A,145208.90
18:41:49.346316,2.73164,0.01361,1.51718,1.51718,[3.00000 0.00000 0.00000],[1.30000 0.00000 0.00000],-0.01377,0.04378,0.01146,0.00000,0.00000,-0.01592,-0.01679,0.22875,-0.00201,0.97301,2.72140,0.00000,1.42331,2.03717,2.06264,-0.76599,1.46246,2.65325,-0.77268,1.46407,2.09871,2.09871,57.68813,11.98051,57.68812999,11.98050928,A,145208.90
18:41:49.388074,2.77363,0.02640,1.51718,1.51718,[3.00000 0.00000 0.00000],[1.30000 0.00000 0.00000],-0.01488,0.04378,0.02200,0.00000,0.00000,-0.00049,-0.02168,0.12023,-0.09748,1.03029,2.74880,0.00000,1.44209,2.01661,2.04208,-0.79424,1.51650,2.76877,-0.81230,1.57526,1.91312,1.91312,57.68813,11.98051,57.68813047,11.98050880,A,145209.00
18:41:49.412811,2.79837,0.01368,1.60095,1.60095,[3.00000 0.00000 0.00000],[1.30000 0.00000 0.00000],-0.01368,0.04378,0.01330,0.00000,0.00000,-0.02447,-0.00289,0.06716,0.06374,0.95514,2.78612,0.00000,1.47386,1.99820,2.02367,-0.80758,1.54386,2.76877,-0.81230,1.57526,1.91312,1.91312,57.68813,11.98051,57.68813072,11.98050858,A,145209.00
18:41:49.437082,2.82263,0.01271,1.60095,1.60095,[3.00000 0.00000 0.00000],[1.30000 0.00000 0.00000],-0.01441,0.04378,0.03101,0.00000,0.00000,0.00271,-0.00213,0.17226,-0.07271,0.92610,2.81107,0.00000,1.49928,1.98261,2.00808,-0.82054,1.57157,2.76877,-0.81230,1.57526,1.91312,1.91312,57.68813,11.98051,57.68813097,11.98050836,A,145209.00
18:41:49.459836,2.84535,0.01200,1.60095,1.60095,[3.00000 0.00000 0.00000],[1.30000 0.00000 0.00000],-0.01418,0.04378,0.02002,0.00000,0.00000,-0.00752,0.00459,0.04026,0.00159,1.07897,2.83569,0.00000,1.51961,1.96936,1.99483,-0.83247,1.59815,2.76877,-0.81230,1.57526,1.91312,1.91312,57.68813,11.98051,57.68813121,11.98050816,A,145209.00
18:41:49.503242,2.88880,0.02791,1.60095,1.60095,[3.00000 0.00000 0.00000],[1.30000 0.00000 0.00000],-0.01432,0.04378,0.01513,0.00000,0.00000,0.02119,-0.00121,0.14933,-0.01873,1.04115,2.86437,0.00000,1.53588,1.98149,2.00696,-0.85981,1.65879,2.88400,-0.87174,1.68646,2.06168,2.06168,57.68813,11.98051,57.68813175,11.98050770,A,145209.10
18:41:49.530042,2.91559,0.01443,1.60095,1.60095,[3.00000 0.00000 0.00000],[1.30000 0.00000 0.00000],-0.01384,0.04381,0.02719,0.00000,0.00000,-0.03715,-0.00167,0.16134,-0.01745,0.91189,2.90429,0.00000,1.54889,1.99081,2.01630,-0.87427,1.68991,2.88400,-0.87174,1.68646,2.06168,2.06168,57.68813,11.98051,57.68813203,11.98050746,A,145209.10
18:41:49.561007,2.94656,0.01386,1.49354,1.49354,[3.00000 0.00000 0.00000],[1.30000 0.00000 0.00000],-0.01291,0.04616,0.04170,0.00000,0.00000,-0.00294,0.04017,0.09992,-0.00494,0.97051,2.93593,0.00000,1.53782,1.99875,2.02560,-0.89096,1.72497,2.88400,-0.87174,1.68646,2.06168,2.06168,57.68813,11.98051,57.68813235,11.98050718,A,145209.10
18:41:49.587730,2.97328,0.01452,1.49354,1.49354,[3.00000 0.00000 0.00000],[1.30000 0.00000 0.00000],-0.01218,0.04964,0.04292,0.00000,0.00000,0.02638,0.04002,0.11614,-0.00488,1.02096,2.96225,0.00244,1.52897,2.00502,2.03390,-0.90429,1.75226,2.88400,-0.87174,1.68646,2.06168,2.06168,57.68813,11.98051,57.68813259,11.98050695,A,145209.10
18:41:49.628461,3.01401,0.02717,1.49354,1.49354,[3.00000 0.00000 0.00000],[1.30000 0.00000 0.00000],-0.01122,0.05137,0.02582,0.00000,0.00000,0.03036,0.01375,0.18495,0.04111,1.03968,2.98951,0.00000,1.52188,2.01127,2.04116,-0.93244,1.80807,3.00919,-0.95099,1.83472,2.06168,2.06168,57.68813,11.98051,57.68813309,11.98050648,A,145209.20
18:41:49.653168,3.03872,0.01308,1.49354,1.49354,[3.00000 0.00000 0.00000],[1.30000 0.00000 0.00000],-0.01139,0.05151,0.02200,0.00000,0.00000,-0.03440,0.00383,0.17897,-0.04441,0.97368,3.02949,0.00000,1.51621,2.01557,2.04554,-0.94738,1.83696,3.00919,-0.95099,1.83472,2.06168,2.06168,57.68813,11.98051,57.68813335,11.98050623,A,145209.20
18:41:49.683685,3.06924,0.01408,2.02636,2.02636,[3.00000 0.00000 0.00000],[1.30000 0.00000 0.00000],-0.01054,0.05154,0.03804,0.00000,0.00000,-0.00828,0.03208,0.14048,0.01537,1.03846,3.05812,0.00000,1.61824,2.01950,2.04949,-0.96478,1.87037,3.00919,-0.95099,1.83472,2.06168,2.06168,57.68813,11.98051,57.68813365,11.98050593,A,145209.20
18:41:49.712717,3.09826,0.01388,2.02636,2.02636,[3.00000 0.00000 0.00000],[1.30000 0.00000 0.00000],-0.01018,0.05157,0.03697,0.00000,0.00000,0.01310,0.03941,0.03123,-0.00976,0.90817,3.08631,0.00000,1.69986,2.02284,2.05284,-0.98140,1.90193,3.00919,-0.95099,1.83472,2.06168,2.06168,57.68813,11.98051,57.68813394,11.98050566,A,145209.20
18:41:49.762625,3.14817,0.03814,2.02636,2.02636,[3.00000 0.00000 0.00000],[1.30000 0.00000 0.00000],-0.00972,0.05157,0.01101,0.00000,0.00000,0.00989,0.00673,0.18806,0.04270,0.94995,3.11277,0.00488,1.76516,2.02339,2.05339,-1.02403,1.98358,3.14314,-1.09958,2.13124,2.03534,2.03534,57.68814,11.98050,57.68813467,11.98050494,A,145209.40
18:41:49.788255,3.17378,0.01237,2.02636,2.02636,[3.00000 0.00000 0.00000],[1.30000 0.00000 0.00000],-0.01054,0.05157,-0.00411,0.00000,0.00000,0.00103,0.00215,0.09974,-0.00945,1.00955,3.16206,0.00000,1.81740,2.02209,2.05209,-1.04407,2.02201,3.14314,-1.09958,2.13124,2.03534,2.03534,57.68814,11.98050,57.68813502,11.98050460,A,145209.40
18:41:49.814727,3.19947,0.01308,2.01819,2.01819,[3.00000 0.00000 0.00000],[1.30000 0.00000 0.00000],-0.01104,0.05157,0.00352,0.00000,0.00000,-0.02111,0.02459,0.12657,-0.00744,0.98369,3.18986,0.00000,1.85756,2.02118,2.05119,-1.06539,2.06298,3.14314,-1.09958,2.13124,2.03534,2.03534,57.68814,11.98050,57.68813539,11.98050424,A,145209.40
18:41:49.840974,3.22652,0.01207,2.01819,2.01819,[3.00000 0.00000 0.00000],[1.30000 0.00000 0.00000],-0.01125,0.05157,0.00398,0.00000,0.00000,-0.01302,0.02689,0.03697,0.00988,1.00784,3.21572,0.00488,1.88968,2.02052,2.05052,-1.08679,2.10418,3.14314,-1.09958,2.13124,2.03534,2.03534,57.68814,11.98050,57.68813576,11.98050388,A,145209.40
18:41:49.883375,3.26893,0.02828,2.01819,2.01819,[3.00000 0.00000 0.00000],[1.30000 0.00000 0.00000],-0.01144,0.05157,0.01040,0.00000,0.00000,0.00974,0.00948,0.18215,-0.00122,1.01534,3.24399,0.00244,1.91538,2.01059,2.04060,-1.12463,2.17871,3.26407,-1.16892,2.29803,1.96480,1.96480,57.68814,11.98050,57.68813643,11.98050325,A,145209.50
18:41:49.910501,3.29605,0.01338,2.01819,2.01819,[3.00000 0.00000 0.00000],[1.30000 0.00000 0.00000],-0.01181,0.05157,-0.00167,0.00000,0.00000,0.01203,0.00321,0.12706,0.01037,0.99698,3.28413,0.00000,1.93595,2.00093,2.03093,-1.14608,2.22256,3.26407,-1.16892,2.29803,1.96480,1.96480,57.68814,11.98050,57.68813682,11.98050288,A,145209.50
18:41:49.935156,3.32069,0.01146,2.00287,2.00287,[3.00000 0.00000 0.00000],[1.30000 0.00000 0.00000],-0.01208,0.05157,0.00795,0.00000,0.00000,-0.00889,0.01177,0.08046,-0.00110,0.95776,3.31075,0.00000,1.94933,1.99263,2.02263,-1.16512,2.26244,3.26407,-1.16892,2.29803,1.96480,1.96480,57.68814,11.98050,57.68813718,11.98050256,A,145209.50
18:41:49.962603,3.34734,0.01194,2.00287,2.00287,[3.00000 0.00000 0.00000],[1.30000 0.00000 0.00000],-0.01205,0.05157,0.01269,0.00000,0.00000,-0.00172,0.02001,0.12840,0.00964,0.97515,3.33734,0.00733,1.96004,1.98571,2.01572,-1.18446,2.30369,3.26407,-1.16892,2.29803,1.96480,1.96480,57.68814,11.98050,57.68813755,11.98050224,A,145209.50
18:41:50.004497,3.39005,0.02708,2.00287,2.00287,[3.00000 0.00000 0.00000],[1.30000 0.00000 0.00000],-0.01242,0.05157,0.01620,0.00000,0.00000,0.00928,0.02017,0.06460,-0.02452,1.00699,3.36525,0.00244,1.96861,1.98930,2.01930,-1.22099,2.38157,3.38522,-1.25808,2.48335,2.01919,2.01919,57.68814,11.98050,57.68813825,11.98050162,A,145209.60
18:41:50.031475,3.41702,0.01271,2.35876,2.35876,[3.00000 0.00000 0.00000],[1.30000 0.00000 0.00000],-0.01303,0.05157,0.00566,0.00000,0.00000,-0.01317,0.00245,0.20746,-0.02080,1.02035,3.40572,0.00244,2.04664,1.99108,2.02108,-1.24225,2.42698,3.38522,-1.25808,2.48335,2.01919,2.01919,57.68814,11.98050,57.68813866,11.98050127,A,145209.60
18:41:50.057761,3.44331,0.01356,2.35876,2.35876,[3.00000 0.00000 0.00000],[1.30000 0.00000 0.00000],-0.01242,0.05157,0.02811,0.00000,0.00000,-0.01409,0.00505,0.07491,0.02641,1.06128,3.43284,0.00488,2.10906,1.99261,2.02261,-1.26269,2.47043,3.38522,-1.25808,2.48335,2.01919,2.01919,57.68814,11.98050,57.68813905,11.98050092,A,145209.60
18:41:50.084673,3.47022,0.01275,2.35876,2.35876,[3.00000 0.00000 0.00000],[1.30000 0.00000 0.00000],-0.01288,0.05157,0.03941,0.00000,0.00000,0.00348,0.02169,0.18227,-0.05441,0.89322,3.45947,0.00488,2.15900,1.99398,2.02398,-1.28298,2.51337,3.38522,-1.25808,2.48335,2.01919,2.01919,57.68814,11.98050,57.68813944,11.98050058,A,145209.60
18:41:50.124310,3.50986,0.02734,2.35876,2.35876,[3.00000 0.00000 0.00000],[1.30000 0.00000 0.00000],-0.01216,0.05157,0.01635,0.00000,0.00000,-0.02508,0.02841,-0.01671,0.05319,0.89151,3.48479,0.00977,2.19895,2.00281,2.03282,-1.32135,2.59232,3.50501,-1.35714,2.66868,2.06168,2.06168,57.68814,11.98050,57.68814015,11.98049994,A,145209.70
18:41:50.148250,3.53380,0.01142,2.35721,2.35721,[3.00000 0.00000 0.00000],[1.30000 0.00000 0.00000],-0.01102,0.05157,0.02765,0.00000,0.00000,0.02486,0.01635,0.04490,0.04282,1.13009,3.52396,0.00000,2.23060,2.00894,2.03894,-1.34310,2.63621,3.50501,-1.35714,2.66868,2.06168,2.06168,57.68814,11.98050,57.68814054,11.98049957,A,145209.70
18:41:50.176255,3.56179,0.01258,2.35721,2.35721,[3.00000 0.00000 0.00000],[1.30000 0.00000 0.00000],-0.01186,0.05157,0.01650,0.00000,0.00000,0.02547,0.02215,0.04252,-0.04514,0.95069,3.55164,0.00977,2.25592,2.01440,2.04441,-1.36689,2.68350,3.50501,-1.35714,2.66868,2.06168,2.06168,57.68814,11.98050,57.68814097,11.98049917,A,145209.70
18:41:50.202816,3.58837,0.01430,2.35721,2.35721,[3.00000 0.00000 0.00000],[1.30000 0.00000 0.00000],-0.01281,0.05157,-0.00915,0.00000,0.00000,0.00729,0.01299,0.16738,-0.00976,0.94977,3.57630,0.02198,2.27618,2.01891,2.04891,-1.38810,2.72509,3.50501,-1.35714,2.66868,2.06168,2.06168,57.68814,11.98050,57.68814134,11.98049881,A,145209.70
18:41:50.240324,3.62588,0.02675,2.75885,2.75885,[3.00000 0.00000 0.00000],[1.30000 0.00000 0.00000],-0.01330,0.05157,-0.00610,0.00000,0.00000,0.00943,0.00138,0.12847,0.02159,1.02022,3.60075,0.00977,2.37272,2.01216,2.04216,-1.42684,2.80160,3.62061,-1.44629,2.87254,1.98307,1.98307,57.68814,11.98050,57.68814203,11.98049816,A,145209.80
18:41:50.269179,3.65411,0.01385,2.75885,2.75885,[3.00000 0.00000 0.00000],[1.30000 0.00000 0.00000],-0.01453,0.05157,-0.01801,0.00000,0.00000,0.01432,0.01345,0.08204,0.01281,1.00680,3.64379,0.00977,2.44994,2.00547,2.03547,-1.45244,2.85347,3.62061,-1.44629,2.87254,1.98307,1.98307,57.68814,11.98050,57.68814250,11.98049773,A,145209.80
18:41:50.294964,3.68051,0.01179,2.75885,2.75885,[3.00000 0.00000 0.00000],[1.30000 0.00000 0.00000],-0.01634,0.05157,-0.01266,0.00000,0.00000,-0.00263,0.01238,0.18916,-0.06063,1.05469,3.67086,0.01709,2.51173,1.99995,2.02995,-1.47823,2.90650,3.62061,-1.44629,2.87254,1.98307,1.98307,57.68814,11.98050,57.68814297,11.98049730,A,145209.80
18:41:50.323987,3.70954,0.01441,2.75885,2.75885,[3.00000 0.00000 0.00000],[1.30000 0.00000 0.00000],-0.01755,0.05157,-0.01389,0.00000,0.00000,-0.00996,0.00306,0.07369,-0.01482,1.00412,3.69816,0.01709,2.56115,1.99534,2.02534,-1.50340,2.95894,3.62061,-1.44629,2.87254,1.98307,1.98307,57.68814,11.98050,57.68814344,11.98049687,A,145209.80
18:41:50.374851,3.76039,0.03964,2.11053,2.11053,[3.00000 0.00000 0.00000],[1.30000 0.00000 0.00000],-0.01754,0.05157,-0.02733,0.00000,0.00000,0.00775,-0.00198,0.05496,0.06442,0.85388,3.72349,0.00977,2.47103,2.00256,2.03257,-1.56268,3.08095,3.75518,-1.64442,3.26172,2.04168,2.04168,57.68815,11.98049,57.68814454,11.98049588,A,145210.00
18:41:50.398588,3.78413,0.01333,2.11053,2.11053,[3.00000 0.00000 0.00000],[1.30000 0.00000 0.00000],-0.01903,0.05157,-0.01832,0.00000,0.00000,-0.01363,0.01238,0.06149,-0.01769,1.10630,3.77270,0.00977,2.39893,2.00577,2.03577,-1.58715,3.13095,3.75518,-1.64442,3.26172,2.04168,2.04168,57.68815,11.98049,57.68814499,11.98049546,A,145210.00
18:41:50.425814,3.81135,0.01324,2.67964,2.67964,[3.00000 0.00000 0.00000],[1.30000 0.00000 0.00000],-0.02108,0.05157,-0.03420,0.00000,0.00000,0.00699,-0.00442,0.21972,-0.03373,0.97240,3.80137,0.00733,2.45507,2.00875,2.03875,-1.61345,3.18420,3.75518,-1.64442,3.26172,2.04168,2.04168,57.68815,11.98049,57.68814547,11.98049502,A,145210.00
18:41:50.454741,3.84029,0.01394,2.67964,2.67964,[3.00000 0.00000 0.00000],[1.30000 0.00000 0.00000],-0.02299,0.05157,-0.03710,0.00000,0.00000,-0.05181,-0.00289,0.04532,-0.02397,0.95660,3.82882,0.01954,2.49998,2.01151,2.04152,-1.64113,3.23978,3.75518,-1.64442,3.26172,2.04168,2.04168,57.68815,11.98049,57.68814597,11.98049456,A,145210.00
18:41:50.496432,3.88198,0.02765,2.67964,2.67964,[3.00000 0.00000 0.00000],[1.30000 0.00000 0.00000],-0.02391,0.05157,-0.01068,0.00000,0.00000,-0.00538,0.00978,-0.03495,-0.01220,1.10026,3.85768,0.00977,2.53592,2.00851,2.03851,-1.69065,3.33922,3.87717,-1.75338,3.50264,1.99556,1.99556,57.68815,11.98049,57.68814686,11.98049372,A,145210.10
18:41:50.522002,3.90756,0.01272,2.67964,2.67964,[3.00000 0.00000 0.00000],[1.30000 0.00000 0.00000],-0.02498,0.05157,-0.01053,0.00000,0.00000,-0.00737,0.02505,0.08625,-0.00897,0.91238,3.89753,0.00733,2.56466,2.00425,2.03425,-1.71830,3.39591,3.87717,-1.75338,3.50264,1.99556,1.99556,57.68815,11.98049,57.68814737,11.98049326,A,145210.10
18:41:50.549927,3.93548,0.01361,2.24655,2.24655,[3.00000 0.00000 0.00000],[1.30000 0.00000 0.00000],-0.02571,0.05157,-0.00610,0.00000,0.00000,-0.01607,0.01772,0.17373,-0.01708,1.01675,3.92414,0.00488,2.50104,2.00074,2.03074,-1.74564,3.45244,3.87717,-1.75338,3.50264,1.99556,1.99556,57.68815,11.98049,57.68814788,11.98049280,A,145210.10
18:41:50.575310,3.96025,0.01340,2.24655,2.24655,[3.00000 0.00000 0.00000],[1.30000 0.00000 0.00000],-0.02725,0.05157,-0.03298,0.00000,0.00000,-0.00233,-0.00091,0.07570,-0.02556,1.02321,3.95067,0.01465,2.45014,1.99755,2.02755,-1.76908,3.50149,3.87717,-1.75338,3.50264,1.99556,1.99556,57.68815,11.98049,57.68814832,11.98049240,A,145210.10
18:41:50.614791,4.00034,0.02830,2.24655,2.24655,[3.00000 0.00000 0.00000],[1.30000 0.00000 0.00000],-0.02723,0.05157,-0.04596,0.00000,0.00000,0.00745,-0.00595,0.06551,0.09083,0.96654,3.97496,0.02442,2.40942,2.01244,2.04244,-1.81410,3.59293,3.99529,-1.86235,3.68797,2.10233,2.10233,57.68815,11.98049,57.68814915,11.98049165,A,145210.20
18:41:50.632949,4.01850,0.00934,2.79841,2.79841,[3.00000 0.00000 0.00000],[1.30000 0.00000 0.00000],-0.02941,0.05157,-0.04321,0.00000,0.00000,-0.01286,-0.00717,-0.01982,-0.01220,0.95227,4.01011,0.00733,2.48722,2.02292,2.05292,-1.83344,3.63089,3.99529,-1.86235,3.68797,2.10233,2.10233,57.68815,11.98049,57.68814949,11.98049132,A,145210.20
18:41:50.645760,4.03038,0.01062,2.79841,2.79841,[3.00000 0.00000 0.00000],[1.30000 0.00000 0.00000],-0.03064,0.05143,-0.04489,0.00000,0.00000,-0.00691,-0.01649,0.01342,-0.01354,0.92555,4.02219,0.01221,2.54946,2.03126,2.06118,-1.84553,3.65407,3.99529,-1.86235,3.68797,2.10233,2.10233,57.68815,11.98049,57.68814970,11.98049112,A,145210.20
18:41:50.673520,4.05907,0.01411,2.79841,2.79841,[3.00000 0.00000 0.00000],[1.30000 0.00000 0.00000],-0.03257,0.04984,-0.03924,0.00000,0.00000,0.00042,-0.02427,0.05581,-0.03239,1.00345,4.04942,0.01465,2.59925,2.04000,2.06900,-1.87494,3.70928,3.99529,-1.86235,3.68797,2.10233,2.10233,57.68815,11.98049,57.68815019,11.98049062,A,145210.20
18:41:50.702061,4.08762,0.01431,2.79841,2.79841,[3.00000 0.00000 0.00000],[1.30000 0.00000 0.00000],-0.03356,0.04809,-0.05420,0.00000,0.00000,0.00226,-0.01633,0.08936,0.05264,1.04633,4.07588,0.02686,2.63908,2.04743,2.07540,-1.90232,3.75971,3.99529,-1.86235,3.68797,2.10233,2.10233,57.68815,11.98049,57.68815065,11.98049016,A,145210.20
18:41:50.742808,4.12836,0.02793,2.57077,2.57077,[3.00000 0.00000 0.00000],[1.30000 0.00000 0.00000],-0.03580,0.04724,-0.05069,0.00000,0.00000,-0.00248,-0.01420,0.12847,-0.03849,0.96398,4.10338,0.01221,2.62542,2.04382,2.07130,-1.95312,3.85297,4.12347,-1.97132,3.91035,2.02640,2.02640,57.68815,11.98049,57.68815148,11.98048931,A,145210.30
18:41:50.768833,4.15439,0.01399,2.57077,2.57077,[3.00000 0.00000 0.00000],[1.30000 0.00000 0.00000],-0.03847,0.04639,-0.06001,0.00000,0.00000,-0.01500,-0.02947,-0.05667,-0.01128,1.05115,4.14247,0.00488,2.61449,2.03914,2.06613,-1.97991,3.90316,4.12347,-1.97132,3.91035,2.02640,2.02640,57.68815,11.98049,57.68815194,11.98048886,A,145210.30
18:41:50.797358,4.18292,0.01522,2.57077,2.57077,[3.00000 0.00000 0.00000],[1.30000 0.00000 0.00000],-0.04081,0.04622,-0.06535,0.00000,0.00000,0.02379,-0.02443,0.02879,-0.02129,0.97466,4.17092,0.01954,2.60574,2.03530,2.06219,-2.00719,3.95481,4.12347,-1.97132,3.91035,2.02640,2.02640,57.68815,11.98049,57.68815240,11.98048840,A,145210.30
18:41:50.822885,4.20844,0.01245,2.50951,2.50951,[3.00000 0.00000 0.00000],[1.30000 0.00000 0.00000],-0.04175,0.04622,-0.05344,0.00000,0.00000,0.01096,-0.00244,0.06021,0.03965,0.97698,4.19796,0.02686,2.58650,2.03185,2.05873,-2.03053,3.99954,4.12347,-1.97132,3.91035,2.02640,2.02640,57.68815,11.98049,57.68815280,11.98048800,A,145210.30
18:41:50.876501,4.26205,0.03945,2.50951,2.50951,[3.00000 0.00000 0.00000],[1.30000 0.00000 0.00000],-0.04393,0.04622,-0.02992,0.00000,0.00000,0.00424,0.00260,-0.03581,-0.07790,0.96002,4.22651,0.01709,2.57110,2.03690,2.06378,-2.09899,4.12951,4.25721,-2.19916,4.33660,2.06168,2.06168,57.68816,11.98049,57.68815397,11.98048685,A,145210.50
18:41:50.904634,4.29018,0.01309,2.78470,2.78470,[3.00000 0.00000 0.00000],[1.30000 0.00000 0.00000],-0.04633,0.04622,-0.03679,0.00000,0.00000,0.02394,-0.00259,0.08381,-0.02721,1.06475,4.27870,0.01709,2.61382,2.03864,2.06553,-2.13113,4.19036,4.25721,-2.19916,4.33660,2.06168,2.06168,57.68816,11.98049,57.68815452,11.98048631,A,145210.50
18:41:50.928367,4.31390,0.01314,2.78470,2.78470,[3.00000 0.00000 0.00000],[1.30000 0.00000 0.00000],-0.04804,0.04622,-0.02381,0.00000,0.00000,0.00226,0.00016,0.06631,-0.06551,0.96539,4.30225,0.02930,2.64800,2.03980,2.06668,-2.15738,4.24002,4.25721,-2.19916,4.33660,2.06168,2.06168,57.68816,11.98049,57.68815496,11.98048587,A,145210.50
18:41:50.948613,4.33415,0.01168,2.78470,2.78470,[3.00000 0.00000 0.00000],[1.30000 0.00000 0.00000],-0.04856,0.04622,-0.01755,0.00000,0.00000,-0.00172,0.00993,0.10193,-0.00293,0.95319,4.32320,0.03175,2.67534,2.04058,2.06747,-2.17977,4.28239,4.25721,-2.19916,4.33660,2.06168,2.06168,57.68816,11.98049,57.68815535,11.98048549,A,145210.50
18:41:50.993254,4.37881,0.02887,2.78470,2.78470,[3.00000 0.00000 0.00000],[1.30000 0.00000 0.00000],-0.05005,0.04622,-0.01251,0.00000,0.00000,0.01310,0.00062,0.04605,-0.06942,1.01620,4.35447,0.01709,2.69721,2.03294,2.05983,-2.23869,4.39399,4.37401,-2.29822,4.55899,1.98985,1.98985,57.68816,11.98048,57.68815635,11.98048450,A,145210.60
18:41:51.020108,4.40566,0.01277,2.68851,2.68851,[3.00000 0.00000 0.00000],[1.30000 0.00000 0.00000],-0.05101,0.04622,0.01467,0.00000,0.00000,0.01661,0.01940,0.02574,-0.09418,0.94367,4.39559,0.02930,2.69547,2.02456,2.05144,-2.26928,4.45413,4.37401,-2.29822,4.55899,1.98985,1.98985,57.68816,11.98048,57.68815689,11.98048399,A,145210.60
18:41:51.044734,4.43029,0.01249,2.68851,2.68851,[3.00000 0.00000 0.00000],[1.30000 0.00000 0.00000],-0.05131,0.04647,0.00520,0.00000,0.00000,0.00103,0.03223,-0.04764,-0.02696,0.99021,4.42162,0.02198,2.69408,2.01737,2.04440,-2.29733,4.51040,4.37401,-2.29822,4.55899,1.98985,1.98985,57.68816,11.98048,57.68815740,11.98048351,A,145210.60
18:41:51.067687,4.45319,0.01138,3.19805,3.19805,[3.00000 0.00000 0.00000],[1.30000 0.00000 0.00000],-0.05128,0.04772,0.00704,0.00000,0.00000,0.00409,0.02337,-0.15610,0.00500,1.02962,4.44307,0.01465,2.79487,2.01088,2.03864,-2.32018,4.55732,4.37401,-2.29822,4.55899,1.98985,1.98985,57.68816,11.98048,57.68815782,11.98048313,A,145210.60
18:41:51.108070,4.49362,0.02621,3.19805,3.19805,[3.00000 0.00000 0.00000],[1.30000 0.00000 0.00000],-0.05029,0.05072,0.02582,0.00000,0.00000,0.03753,0.01803,0.03770,0.04008,0.99290,4.46808,0.02198,2.87551,2.01804,2.04755,-2.37365,4.66471,4.48879,-2.42700,4.79991,2.06168,2.06168,57.68816,11.98048,57.68815878,11.98048223,A,145210.70
18:41:51.131987,4.51754,0.01209,3.19805,3.19805,[3.00000 0.00000 0.00000],[1.30000 0.00000 0.00000],-0.04915,0.05638,0.03758,0.00000,0.00000,-0.02600,0.03773,-0.10730,-0.00335,1.09745,4.50753,0.02442,2.94002,2.02186,2.05466,-2.40176,4.72074,4.48879,-2.42700,4.79991,2.06168,2.06168,57.68816,11.98048,57.68815929,11.98048176,A,145210.70
18:41:51.163958,4.54951,0.01993,3.19805,3.19805,[3.00000 0.00000 0.00000],[1.30000 0.00000 0.00000],-0.04837,0.05779,0.05163,0.00000,0.00000,0.01966,0.05117,0.00415,-0.02391,0.96490,4.53805,0.02198,2.99162,2.02639,2.06002,-2.44120,4.79733,4.48879,-2.42700,4.79991,2.06168,2.06168,57.68816,11.98048,57.68815998,11.98048109,A,145210.70
18:41:51.191651,4.57720,0.01288,2.29043,2.29043,[3.00000 0.00000 0.00000],[1.30000 0.00000 0.00000],-0.04531,0.05788,0.04812,0.00000,0.00000,0.01279,0.03712,0.04697,0.10279,0.85046,4.56626,0.01709,2.85138,2.02964,2.06332,-2.47190,4.85646,4.48879,-2.42700,4.79991,2.06168,2.06168,57.68816,11.98048,57.68816051,11.98048058,A,145210.70
18:41:51.228960,4.61452,0.02552,2.29043,2.29043,[3.00000 0.00000 0.00000],[1.30000 0.00000 0.00000],-0.04306,0.05788,0.05041,0.00000,0.00000,-0.02661,0.03559,0.05301,0.07058,0.93910,4.59067,0.00977,2.73919,2.02855,2.06223,-2.52181,4.95179,4.60964,-2.53597,5.02230,2.02640,2.02640,57.68816,11.98048,57.68816137,11.98047974,A,145210.80
18:41:51.256342,4.64190,0.01343,2.96966,2.96966,[3.00000 0.00000 0.00000],[1.30000 0.00000 0.00000],-0.04187,0.05788,0.06736,0.00000,0.00000,0.03265,0.04002,0.05935,-0.08540,1.09574,4.63079,0.00488,2.78529,2.02598,2.05966,-2.55186,5.01013,4.60964,-2.53597,5.02230,2.02640,2.02640,57.68816,11.98048,57.68816189,11.98047923,A,145210.80
18:41:51.284064,4.66962,0.01293,2.96966,2.96966,[3.00000 0.00000 0.00000],[1.30000 0.00000 0.00000],-0.04021,0.05788,0.06003,0.00000,0.00000,-0.00508,0.03208,0.02123,0.02611,0.91152,4.65910,0.00733,2.82216,2.02388,2.05756,-2.58123,5.06745,4.60964,-2.53597,5.02230,2.02640,2.02640,57.68816,11.98048,57.68816241,11.98047874,A,145210.80
18:41:51.307364,4.69288,0.01158,2.96966,2.96966,[3.00000 0.00000 0.00000],[1.30000 0.00000 0.00000],-0.03909,0.05788,0.07118,0.00000,0.00000,-0.03547,0.02307,-0.08156,-0.01476,1.03090,4.68365,0.01709,2.85166,2.02168,2.05536,-2.60460,5.11363,4.60964,-2.53597,5.02230,2.02640,2.02640,57.68816,11.98048,57.68816282,11.98047835,A,145210.80
18:41:51.352083,4.73764,0.02913,2.96966,2.96966,[3.00000 0.00000 0.00000],[1.30000 0.00000 0.00000],-0.03757,0.05788,0.06782,0.00000,0.00000,-0.02997,0.00978,0.00659,0.00598,0.96240,4.71171,0.00977,2.87526,2.02800,2.06168,-2.66268,5.22575,4.73279,-2.65484,5.24469,2.06168,2.06168,57.68816,11.98048,57.68816383,11.98047737,A,145210.90
18:41:51.377385,4.76293,0.01275,2.43870,2.43870,[3.00000 0.00000 0.00000],[1.30000 0.00000 0.00000],-0.03565,0.05785,0.08370,0.00000,0.00000,0.02608,0.00092,0.01446,-0.08345,1.00314,4.75288,0.02686,2.78795,2.03072,2.06438,-2.69069,5.27983,4.73279,-2.65484,5.24469,2.06168,2.06168,57.68816,11.98048,57.68816432,11.98047690,A,145210.90
18:41:51.406359,4.79168,0.01512,2.43870,2.43870,[3.00000 0.00000 0.00000],[1.30000 0.00000 0.00000],-0.03328,0.05547,0.07515,0.00000,0.00000,0.00103,-0.01557,0.09522,0.03422,1.02157,4.78132,0.03419,2.71810,2.03355,2.06583,-2.72081,5.33739,4.73279,-2.65484,5.24469,2.06168,2.06168,57.68816,11.98048,57.68816483,11.98047639,A,145210.90
18:41:51.431849,4.81740,0.01424,2.43870,2.43870,[3.00000 0.00000 0.00000],[1.30000 0.00000 0.00000],-0.03183,0.04908,0.08584,0.00000,0.00000,0.00195,-0.01908,-0.01726,-0.04014,1.04578,4.80787,0.01221,2.66222,2.03604,2.06460,-2.74561,5.38480,4.73279,-2.65484,5.24469,2.06168,2.06168,57.68816,11.98048,57.68816526,11.98047597,A,145210.90
18:41:51.483809,4.86936,0.03925,2.93133,2.93133,[3.00000 0.00000 0.00000],[1.30000 0.00000 0.00000],-0.03043,0.04203,0.04506,0.00000,0.00000,0.00088,-0.03206,0.09571,0.03831,0.85699,4.83380,0.02686,2.71604,2.03370,2.05815,-2.81268,5.51375,4.86452,-2.88268,5.72654,2.01249,2.01249,57.68817,11.98047,57.68816642,11.98047484,A,145211.10
18:41:51.509767,4.89531,0.01259,2.93133,2.93133,[3.00000 0.00000 0.00000],[1.30000 0.00000 0.00000],-0.03005,0.03034,0.02109,0.00000,0.00000,0.01860,-0.08475,-0.03318,-0.02861,0.99070,4.88449,0.01465,2.75910,2.02972,2.04737,-2.84275,5.57453,4.86452,-2.88268,5.72654,2.01249,2.01249,57.68817,11.98047,57.68816697,11.98047434,A,145211.10
18:41:51.537504,4.92304,0.01312,2.75438,2.75438,[3.00000 0.00000 0.00000],[1.30000 0.00000 0.00000],-0.02912,0.02454,0.00261,0.00000,0.00000,0.02180,-0.08612,-0.10974,0.07003,1.06213,4.91340,0.01709,2.75815,2.02653,2.04080,-2.87450,5.63976,4.86452,-2.88268,5.72654,2.01249,2.01249,57.68817,11.98047,57.68816755,11.98047380,A,145211.10
18:41:51.564605,4.95016,0.01344,2.75438,2.75438,[3.00000 0.00000 0.00000],[1.30000 0.00000 0.00000],-0.02989,0.02222,0.02842,0.00000,0.00000,0.01554,-0.07818,-0.00738,-0.09376,1.04310,4.93882,0.01221,2.75740,2.02375,2.03667,-2.90477,5.70288,4.86452,-2.88268,5.72654,2.01249,2.01249,57.68817,11.98047,57.68816812,11.98047330,A,145211.10
18:41:51.603879,4.98944,0.02746,2.75438,2.75438,[3.00000 0.00000 0.00000],[1.30000 0.00000 0.00000],-0.02857,0.02171,0.00123,0.00000,0.00000,-0.02722,-0.07788,0.09266,0.09284,0.98161,4.96455,0.01465,2.75679,2.02924,2.04187,-2.95429,5.80400,4.98459,-3.01146,5.96746,2.06168,2.06168,57.68817,11.98047,57.68816903,11.98047246,A,145211.20
18:41:51.631427,5.01698,0.01362,2.61730,2.61730,[3.00000 0.00000 0.00000],[1.30000 0.00000 0.00000],-0.02736,0.02171,0.03208,0.00000,0.00000,0.00424,-0.07223,0.04477,0.00543,0.98533,5.00440,0.02930,2.72889,2.03316,2.04579,-2.98256,5.86206,4.98459,-3.01146,5.96746,2.06168,2.06168,57.68817,11.98047,57.68816955,11.98047199,A,145211.20
18:41:51.663816,5.04937,0.01929,2.61730,2.61730,[3.00000 0.00000 0.00000],[1.30000 0.00000 0.00000],0.00000,0.02171,0.04063,0.00000,0.00000,0.00073,-0.06306,-0.01019,-0.02721,0.87675,5.03240,0.00977,2.61730,2.02553,2.03815,-3.01146,5.96746,4.98459,-3.01146,5.96746,2.06168,2.06168,57.68817,11.98047,57.68817006,11.98047152,A,145211.20
18:41:51.694430,5.07975,0.01527,2.61730,2.61730,[3.00000 0.00000 0.00000],[1.30000 0.00000 0.00000],0.00020,-0.02216,0.03269,-0.09886,0.00000,0.02028,-0.08109,-0.04795,-0.05459,1.12594,5.06743,0.01954,2.61730,2.03427,2.02139,-3.04847,6.04079,4.98459,-3.01146,5.96746,2.06168,2.06168,57.68817,11.98047,57.68817116,11.98047088,A,145211.20
18:41:51.735273,5.12083,0.02763,2.88978,2.88978,[3.00000 0.00000 0.00000],[1.30000 0.00000 0.00000],0.00135,-0.02222,0.03025,-0.09601,0.00000,0.00607,-0.06856,0.04868,0.02904,1.01260,5.09640,0.15629,2.67180,2.03863,2.02571,-3.09539,6.13678,5.11608,-3.13034,6.18985,2.06168,2.06168,57.68817,11.98047,57.68817202,11.98047009,A,145211.30
18:41:51.760158,5.14571,0.01263,2.88978,2.88978,[3.00000 0.00000 0.00000],[1.30000 0.00000 0.00000],0.00459,-0.02545,0.06385,-0.20946,0.00000,-0.03272,-0.04764,0.02891,0.05112,0.96465,5.13719,0.11966,2.71539,2.04330,2.02850,-3.12262,6.19152,5.11608,-3.13034,6.18985,2.06168,2.06168,57.68817,11.98047,57.68817252,11.98046963,A,145211.30
18:41:51.789607,5.17515,0.01474,2.88978,2.88978,[3.00000 0.00000 0.00000],[1.30000 0.00000 0.00000],0.00639,-0.02955,0.06736,-0.22698,0.00000,-0.01271,-0.05696,-0.00128,0.00390,0.91768,5.16476,0.44933,2.75027,2.04733,2.03015,-3.15209,6.25048,5.11608,-3.13034,6.18985,2.06168,2.06168,57.68817,11.98047,57.68817305,11.98046913,A,145211.30
18:41:51.815141,5.20069,0.01453,2.76626,2.76626,[3.00000 0.00000 0.00000],[1.30000 0.00000 0.00000],0.00743,-0.03399,0.07851,-0.26449,0.00000,0.04807,-0.01969,-0.01891,-0.05234,1.08793,5.18972,1.56532,2.75347,2.05111,2.03134,-3.17693,6.29987,5.11608,-3.13034,6.18985,2.06168,2.06168,57.68817,11.98047,57.68817349,11.98046872,A,145211.30
18:41:51.869399,5.25494,0.03953,2.76626,2.76626,[3.00000 0.00000 0.00000],[1.30000 0.00000 0.00000],0.00902,-0.04175,0.05377,-0.19646,0.00000,0.01478,-0.01114,0.01427,0.00860,0.97210,5.21850,0.80098,2.75603,2.04312,2.01884,-3.24775,6.44387,5.24988,-3.35818,6.69023,1.99808,1.99808,57.68818,11.98047,57.68817478,11.98046752,A,145211.50
18:41:51.896259,5.28181,0.01282,3.27529,3.27529,[3.00000 0.00000 0.00000],[1.30000 0.00000 0.00000],0.00920,-0.05556,-0.02366,0.03512,0.00000,0.02409,-0.11453,0.12505,0.07723,1.00485,5.27007,0.81074,2.85988,2.03923,2.00690,-3.27979,6.51136,5.24988,-3.35818,6.69023,1.99808,1.99808,57.68818,11.98047,57.68817539,11.98046699,A,145211.50
18:41:51.923763,5.30931,0.01371,3.27529,3.27529,[3.00000 0.00000 0.00000],[1.30000 0.00000 0.00000],0.00585,-0.05836,-0.05405,0.13934,0.00000,-0.01592,-0.11652,0.08125,-0.13359,0.90066,5.29801,0.89133,2.94296,2.03532,2.00136,-3.31133,6.57958,5.24988,-3.35818,6.69023,1.99808,1.99808,57.68818,11.98047,57.68817600,11.98046645,A,145211.50
18:41:51.951073,5.33662,0.01508,3.27529,3.27529,[3.00000 0.00000 0.00000],[1.30000 0.00000 0.00000],0.00569,-0.05853,-0.05451,0.14132,0.00000,-0.02478,-0.09422,-0.04050,0.06496,1.04438,5.32365,0.47375,3.00943,2.03180,1.99774,-3.34163,6.64598,5.24988,-3.35818,6.69023,1.99808,1.99808,57.68818,11.98047,57.68817660,11.98046594,A,145211.50
18:41:51.992035,5.37759,0.02590,2.35036,2.35036,[3.00000 0.00000 0.00000],[1.30000 0.00000 0.00000],0.00464,-0.05799,-0.03267,0.07991,0.00000,0.05723,-0.09819,0.05118,-0.00183,1.06713,5.35313,0.03419,2.87762,2.03091,1.99717,-3.39459,6.76193,5.37284,-3.46714,6.91262,2.02640,2.02640,57.68818,11.98046,57.68817764,11.98046505,A,145211.60
18:41:52.017981,5.40353,0.01370,2.35036,2.35036,[3.00000 0.00000 0.00000],[1.30000 0.00000 0.00000],0.00353,-0.05531,-0.06474,0.18044,0.00000,-0.01821,-0.10399,0.20886,0.08113,0.89475,5.39155,0.01709,2.77216,2.03247,2.00029,-3.42200,6.82183,5.37284,-3.46714,6.91262,2.02640,2.02640,57.68818,11.98046,57.68817818,11.98046459,A,145211.60
18:41:52.039873,5.42529,0.00988,2.35036,2.35036,[3.00000 0.00000 0.00000],[1.30000 0.00000 0.00000],0.00072,-0.05347,-0.04916,0.14469,0.00000,-0.04906,-0.10048,-0.18208,-0.11749,1.11819,5.41533,0.00733,2.68780,2.03421,2.00310,-3.44374,6.86889,5.37284,-3.46714,6.91262,2.02640,2.02640,57.68818,11.98046,57.68817861,11.98046423,A,145211.60
18:41:52.054258,5.43962,0.01277,2.98762,2.98762,[3.00000 0.00000 0.00000],[1.30000 0.00000 0.00000],-0.00125,-0.05188,-0.04474,0.13906,0.00000,-0.00660,-0.09956,-0.00726,-0.11169,1.09800,5.42865,0.00977,2.74777,2.03627,2.00608,-3.45799,6.89944,5.37284,-3.46714,6.91262,2.02640,2.02640,57.68818,11.98046,57.68817888,11.98046399,A,145211.60
18:41:52.076880,5.46243,0.01177,2.98762,2.98762,[3.00000 0.00000 0.00000],[1.30000 0.00000 0.00000],-0.00326,-0.04823,-0.03359,0.11346,0.00000,0.00821,-0.08231,0.03099,-0.09248,0.93885,5.45155,0.00977,2.79574,2.03685,2.00879,-3.48090,6.94837,5.37284,-3.46714,6.91262,2.02640,2.02640,57.68818,11.98046,57.68817932,11.98046360,A,145211.60
18:41:52.115474,5.50103,0.02757,2.98762,2.98762,[3.00000 0.00000 0.00000],[1.30000 0.00000 0.00000],-0.00209,-0.04546,-0.02733,0.09011,0.00000,-0.01943,-0.06505,-0.12682,0.11285,1.00156,5.47722,0.02198,2.83412,2.03599,2.00954,-3.52765,7.04723,5.49632,-3.58602,7.15354,2.02916,2.02916,57.68818,11.98046,57.68818021,11.98046282,A,145211.70
18:41:52.143759,5.52931,0.01489,2.98762,2.98762,[3.00000 0.00000 0.00000],[1.30000 0.00000 0.00000],-0.00315,-0.04197,0.00047,0.01087,0.00000,-0.00095,-0.05253,0.02745,-0.08125,1.00741,5.51736,0.02442,2.86482,2.03639,2.01198,-3.55734,7.10960,5.49632,-3.58602,7.15354,2.02916,2.02916,57.68818,11.98046,57.68818077,11.98046232,A,145211.70
18:41:52.171946,5.55749,0.01470,2.42551,2.42551,[3.00000 0.00000 0.00000],[1.30000 0.00000 0.00000],-0.00343,-0.03929,0.00032,0.01242,0.00000,0.02791,-0.05008,-0.00720,-0.01696,1.02120,5.54435,0.12943,2.77696,2.03649,2.01364,-3.58818,7.17407,5.49632,-3.58602,7.15354,2.02916,2.02916,57.68818,11.98046,57.68818135,11.98046180,A,145211.70
18:41:52.196323,5.58187,0.01342,2.42551,2.42551,[3.00000 0.00000 0.00000],[1.30000 0.00000 0.00000],-0.00394,-0.03892,-0.00915,0.04281,0.00000,-0.00141,-0.05390,0.05453,-0.01543,0.99442,5.57183,0.08303,2.70667,2.03714,2.01450,-3.61109,7.22157,5.49632,-3.58602,7.15354,2.02916,2.02916,57.68818,11.98046,57.68818178,11.98046141,A,145211.70
18:41:52.237181,5.62274,0.02699,2.42551,2.42551,[3.00000 0.00000 0.00000],[1.30000 0.00000 0.00000],-0.00468,-0.03869,0.00704,-0.00284,0.00000,0.00226,-0.05543,-0.05368,-0.06320,1.08318,5.59714,0.11722,2.65044,2.04103,2.01852,-3.66118,7.32469,5.61744,-3.71480,7.39446,2.06168,2.06168,57.68818,11.98046,57.68818271,11.98046057,A,145211.80
18:41:52.263992,5.64954,0.01406,3.02233,3.02233,[3.00000 0.00000 0.00000],[1.30000 0.00000 0.00000],-0.00388,-0.03773,0.00047,0.01374,0.00000,-0.00263,-0.04779,0.09315,0.03239,0.84796,5.63930,0.24176,2.72481,2.04564,2.02370,-3.68939,7.38133,5.61744,-3.71480,7.39446,2.06168,2.06168,57.68818,11.98046,57.68818322,11.98046009,A,145211.80
18:41:52.288503,5.67405,0.01292,3.02233,3.02233,[3.00000 0.00000 0.00000],[1.30000 0.00000 0.00000],-0.00408,-0.03776,-0.01404,0.05803,0.00000,-0.02203,-0.04703,-0.12572,0.00098,0.97569,5.66398,0.24420,2.78432,2.04971,2.02775,-3.71499,7.43199,5.61744,-3.71480,7.39446,2.06168,2.06168,57.68818,11.98046,57.68818367,11.98045966,A,145211.80
18:41:52.315375,5.70092,0.01464,3.02233,3.02233,[3.00000 0.00000 0.00000],[1.30000 0.00000 0.00000],-0.00465,-0.03776,-0.01557,0.06484,0.00000,0.01295,-0.05573,0.06844,-0.02184,1.02895,5.68779,0.17827,2.83192,2.05302,2.03106,-3.74174,7.48454,5.61744,-3.71480,7.39446,2.06168,2.06168,57.68818,11.98046,57.68818414,11.98045921,A,145211.80
18:41:52.357293,5.74285,0.02853,2.74457,2.74457,[3.00000 0.00000 0.00000],[1.30000 0.00000 0.00000],-0.00459,-0.03776,-0.03099,0.11087,0.00000,0.00562,-0.06765,0.09248,0.06594,1.04438,5.71804,0.03663,2.81445,2.04363,2.02167,-3.79382,7.58893,5.73772,-3.81386,7.61685,1.98985,1.98985,57.68819,11.98046,57.68818508,11.98045834,A,145211.90
18:41:52.388009,5.77355,0.01953,2.74457,2.74457,[3.00000 0.00000 0.00000],[1.30000 0.00000 0.00000],-0.00802,-0.03750,-0.05069,0.18336,0.00000,0.01417,-0.05864,0.18660,-0.10498,1.01248,5.75669,0.00733,2.80047,2.03720,2.01539,-3.81904,7.64035,5.73772,-3.81386,7.61685,1.98985,1.98985,57.68819,11.98046,57.68818554,11.98045791,A,145211.90
18:41:52.442710,5.82822,0.03333,2.62463,2.62463,[3.00000 0.00000 0.00000],[1.30000 0.00000 0.00000],-0.01048,-0.03184,-0.05054,0.19249,0.00000,-0.05013,-0.05604,0.02836,-0.00714,0.95636,5.80462,0.00733,2.76531,2.02890,2.01038,-3.87746,7.76236,5.73772,-3.81386,7.61685,1.98985,1.98985,57.68819,11.98046,57.68818664,11.98045693,A,145211.90
18:41:52.519876,5.90543,0.05532,2.62463,2.62463,[3.00000 0.00000 0.00000],[1.30000 0.00000 0.00000],-0.01264,-0.02245,-0.05985,0.22885,0.00000,0.03753,-0.04886,-0.07198,0.08101,0.90530,5.86389,0.00488,2.73717,2.02085,2.00780,-3.97814,7.97671,5.89948,-4.04170,8.11723,1.99808,1.99808,57.68819,11.98045,57.68818857,11.98045524,A,145212.10
18:41:52.537332,5.92288,0.00777,2.90691,2.90691,[3.00000 0.00000 0.00000],[1.30000 0.00000 0.00000],-0.01569,-0.01248,-0.06367,0.25219,0.00000,0.01310,-0.02458,0.19831,0.01562,1.08232,5.91505,0.00000,2.77112,2.01777,2.01051,-3.99957,8.02281,5.89948,-4.04170,8.11723,1.99808,1.99808,57.68819,11.98045,57.68818898,11.98045488,A,145212.10
18:41:52.547844,5.93340,0.00787,2.90691,2.90691,[3.00000 0.00000 0.00000],[1.30000 0.00000 0.00000],-0.01631,-0.01053,-0.07131,0.27753,0.00000,0.00210,-0.02657,-0.00354,0.00854,1.02773,5.92535,0.00000,2.79828,2.01552,2.00940,-4.01096,8.04727,5.89948,-4.04170,8.11723,1.99808,1.99808,57.68819,11.98045,57.68818920,11.98045468,A,145212.10
18:41:52.560265,5.94581,0.00985,2.90691,2.90691,[3.00000 0.00000 0.00000],[1.30000 0.00000 0.00000],-0.01658,-0.00841,-0.06642,0.26394,0.00000,-0.01683,-0.03573,0.09309,0.03117,0.95130,5.93658,0.00000,2.82001,2.01344,2.00855,-4.02285,8.07283,5.89948,-4.04170,8.11723,1.99808,1.99808,57.68819,11.98045,57.68818943,11.98045448,A,145212.10
18:41:52.572020,5.95757,0.01074,2.90691,2.90691,[3.00000 0.00000 0.00000],[1.30000 0.00000 0.00000],-0.01770,-0.00558,-0.07375,0.29029,0.00000,-0.02248,-0.04062,-0.03202,-0.02019,0.94574,5.94678,0.00000,2.83739,2.01146,2.00822,-4.03426,8.09743,5.89948,-4.04170,8.11723,1.99808,1.99808,57.68819,11.98045,57.68818966,11.98045429,A,145212.10
18:41:52.592044,5.97759,0.00830,2.78061,2.78061,[3.00000 0.00000 0.00000],[1.30000 0.00000 0.00000],-0.01929,-0.00057,-0.07894,0.31205,0.00000,-0.00126,-0.02702,-0.09534,0.01982,0.99973,5.96974,0.00000,2.82603,2.00929,2.00896,-4.05543,8.14289,5.89948,-4.04170,8.11723,1.99808,1.99808,57.68819,11.98045,57.68819006,11.98045394,A,145212.10
18:41:52.603214,5.98876,0.00907,2.78061,2.78061,[3.00000 0.00000 0.00000],[1.30000 0.00000 0.00000],-0.02074,0.00212,-0.07329,0.30077,0.00000,0.02348,-0.01679,-0.05722,-0.04386,1.01120,5.97950,0.00000,2.81695,2.00741,2.00865,-4.06496,8.16342,5.89948,-4.04170,8.11723,1.99808,1.99808,57.68819,11.98045,57.68819025,11.98045378,A,145212.10
18:41:52.612912,5.99846,0.00870,2.78061,2.78061,[3.00000 0.00000 0.00000],[1.30000 0.00000 0.00000],-0.02121,0.00498,-0.06520,0.30077,0.00000,0.04089,-0.00335,0.02068,0.02190,0.95910,5.99052,0.00000,2.80968,2.00561,2.00851,-4.07278,8.18029,5.89948,-4.04170,8.11723,1.99808,1.99808,57.68819,11.98045,57.68819040,11.98045364,A,145212.10
18:41:52.638625,6.02415,0.02242,2.78061,2.78061,[3.00000 0.00000 0.00000],[1.30000 0.00000 0.00000],-0.02181,0.00821,-0.05802,0.25913,0.00000,0.04089,0.00398,0.03379,0.00982,0.92879,6.00139,0.00000,2.80386,1.99844,2.00321,-4.10294,8.24636,6.01896,-4.14076,8.35815,1.96090,1.96090,57.68819,11.98045,57.68819099,11.98045314,A,145212.20
18:41:52.663840,6.04939,0.00944,3.23569,3.23569,[3.00000 0.00000 0.00000],[1.30000 0.00000 0.00000],-0.02288,0.01888,-0.04306,0.21838,0.00000,0.02791,0.02185,0.02324,0.06277,1.03608,6.04128,0.00000,2.89023,1.99156,2.00253,-4.13096,8.30856,6.01896,-4.14076,8.35815,1.96090,1.96090,57.68819,11.98045,57.68819155,11.98045266,A,145212.20
18:41:52.673307,6.05886,0.00846,3.23569,3.23569,[3.00000 0.00000 0.00000],[1.30000 0.00000 0.00000],-0.02322,0.02103,-0.04489,0.21838,0.00000,0.01692,0.02154,0.03538,0.02428,1.11380,6.05028,0.00000,2.95932,1.98539,1.99762,-4.13905,8.32755,6.01896,-4.14076,8.35815,1.96090,1.96090,57.68819,11.98045,57.68819172,11.98045253,A,145212.20
18:41:52.685108,6.07066,0.01007,3.23569,3.23569,[3.00000 0.00000 0.00000],[1.30000 0.00000 0.00000],-0.02469,0.02332,-0.03160,0.19109,0.00000,0.01753,0.03177,0.06917,-0.06362,1.14021,6.06144,0.00000,3.01459,1.98008,1.99364,-4.14911,8.35101,6.01896,-4.14076,8.35815,1.96090,1.96090,57.68819,11.98045,57.68819194,11.98045236,A,145212.20
18:41:52.701219,6.08677,0.00826,3.23569,3.23569,[3.00000 0.00000 0.00000],[1.30000 0.00000 0.00000],-0.02598,0.02708,-0.03710,0.21264,0.00000,-0.02554,0.04765,0.11078,-0.02385,1.08580,6.07897,0.00000,3.05881,1.97557,1.99132,-4.16515,8.38793,6.01896,-4.14076,8.35815,1.96090,1.96090,57.68819,11.98045,57.68819227,11.98045209,A,145212.20
18:41:52.711069,6.09662,0.00771,3.23569,3.23569,[3.00000 0.00000 0.00000],[1.30000 0.00000 0.00000],-0.02549,0.02901,-0.02855,0.21264,0.00000,-0.03272,0.05865,0.02727,0.07631,1.02968,6.08853,0.00000,3.09419,1.97131,1.98818,-4.17310,8.40694,6.01896,-4.14076,8.35815,1.96090,1.96090,57.68819,11.98045,57.68819244,11.98045196,A,145212.20
18:41:52.723629,6.10918,0.00986,3.23569,3.23569,[3.00000 0.00000 0.00000],[1.30000 0.00000 0.00000],-0.02593,0.03122,-0.01053,0.13269,0.00000,-0.03760,0.07407,-0.03379,0.00592,0.93513,6.09913,0.00000,3.12249,1.96759,1.98574,-4.18157,8.42725,6.01896,-4.14076,8.35815,1.96090,1.96090,57.68819,11.98045,57.68819262,11.98045181,A,145212.20
18:41:52.733772,6.11932,0.00840,3.23569,3.23569,[3.00000 0.00000 0.00000],[1.30000 0.00000 0.00000],-0.02770,0.03348,-0.01175,0.14327,0.00000,-0.03730,0.07652,-0.00604,-0.07186,0.91323,6.11089,0.00000,3.14513,1.96428,1.98375,-4.18978,8.44708,6.01896,-4.14076,8.35815,1.96090,1.96090,57.68819,11.98045,57.68819280,11.98045168,A,145212.20
18:41:52.768210,6.15376,0.03265,3.23569,3.23569,[3.00000 0.00000 0.00000],[1.30000 0.00000 0.00000],-0.02721,0.03504,-0.01496,0.15098,0.00000,-0.02875,0.07560,-0.14561,0.06747,0.94416,6.12077,0.00000,3.16324,1.97099,1.99137,-4.23780,8.55590,6.14902,-4.36860,8.84000,2.01249,2.01249,57.68820,11.98045,57.68819378,11.98045087,A,145212.40
18:41:52.785113,6.17067,0.00782,2.38141,2.38141,[3.00000 0.00000 0.00000],[1.30000 0.00000 0.00000],-0.02712,0.04090,-0.00701,0.12680,0.00000,0.02257,0.07805,0.08760,0.04105,0.94788,6.16278,0.00000,3.00687,1.97486,1.99865,-4.26245,8.61061,6.14902,-4.36860,8.84000,2.01249,2.01249,57.68820,11.98045,57.68819427,11.98045045,A,145212.40
18:41:52.795499,6.18105,0.00780,2.38141,2.38141,[3.00000 0.00000 0.00000],[1.30000 0.00000 0.00000],-0.02762,0.04237,-0.00167,0.11274,0.00000,-0.00569,0.08125,0.06362,-0.01507,0.99704,6.17287,0.00000,2.88178,1.97755,2.00220,-4.27747,8.64337,6.14902,-4.36860,8.84000,2.01249,2.01249,57.68820,11.98045,57.68819456,11.98045020,A,145212.40
18:41:52.805791,6.19134,0.00769,2.38141,2.38141,[3.00000 0.00000 0.00000],[1.30000 0.00000 0.00000],-0.02836,0.04384,0.01192,0.07484,0.00000,-0.01928,0.09301,-0.00878,-0.04398,1.06939,6.18346,0.01465,2.78170,1.97975,2.00526,-4.29203,8.67493,6.14902,-4.36860,8.84000,2.01249,2.01249,57.68820,11.98045,57.68819485,11.98044995,A,145212.40
18:41:52.817698,6.20325,0.00918,2.38141,2.38141,[3.00000 0.00000 0.00000],[1.30000 0.00000 0.00000],-0.02746,0.04517,0.00642,0.08781,0.00000,-0.02401,0.09973,-0.07906,0.08082,1.14656,6.19404,0.00733,2.70164,1.98149,2.00777,-4.30532,8.70358,6.14902,-4.36860,8.84000,2.01249,2.01249,57.68820,11.98045,57.68819511,11.98044973,A,145212.40
18:41:52.831771,6.21732,0.01276,2.38141,2.38141,[3.00000 0.00000 0.00000],[1.30000 0.00000 0.00000],-0.02737,0.04624,0.01299,0.06776,0.00000,0.00500,0.10156,-0.02965,0.01366,1.16089,6.20605,0.02198,2.63760,1.98294,2.00984,-4.31849,8.73182,6.14902,-4.36860,8.84000,2.01249,2.01249,57.68820,11.98045,57.68819536,11.98044951,A,145212.40
18:41:52.849395,6.23495,0.00809,2.93589,2.93589,[3.00000 0.00000 0.00000],[1.30000 0.00000 0.00000],-0.02785,0.04772,0.01040,0.07741,0.00000,0.00760,0.10233,0.14494,-0.00866,0.87999,6.22678,0.04640,2.69726,1.98471,2.01247,-4.33877,8.77508,6.14902,-4.36860,8.84000,2.01249,2.01249,57.68820,11.98045,57.68819575,11.98044917,A,145212.40
18:41:52.859807,6.24536,0.00809,2.93589,2.93589,[3.00000 0.00000 0.00000],[1.30000 0.00000 0.00000],-0.02825,0.04811,0.00658,0.09044,0.00000,-0.02615,0.10676,0.10468,0.00872,0.74835,6.23688,0.00488,2.74498,1.98546,2.01345,-4.34928,8.79741,6.14902,-4.36860,8.84000,2.01249,2.01249,57.68820,11.98045,57.68819595,11.98044899,A,145212.40
18:41:52.885977,6.27153,0.02385,2.93589,2.93589,[3.00000 0.00000 0.00000],[1.30000 0.00000 0.00000],-0.02842,0.04848,0.00245,0.10348,0.00000,-0.05486,0.10049,0.05673,0.02300,0.70357,6.24749,0.00733,2.78317,1.97995,2.00815,-4.38264,8.86946,6.26684,-4.46766,9.08092,1.96090,1.96090,57.68820,11.98045,57.68819660,11.98044843,A,145212.50
18:41:52.902644,6.28767,0.00760,2.93589,2.93589,[3.00000 0.00000 0.00000],[1.30000 0.00000 0.00000],-0.02757,0.05035,0.02887,0.02090,0.00000,0.01631,0.10630,-0.11187,0.02708,1.10233,6.27983,0.00488,2.81371,1.97412,2.00341,-4.40283,8.91413,6.26684,-4.46766,9.08092,1.96090,1.96090,57.68820,11.98045,57.68819700,11.98044809,A,145212.50
18:41:52.912643,6.29819,0.00791,2.93589,2.93589,[3.00000 0.00000 0.00000],[1.30000 0.00000 0.00000],-0.02764,0.05125,0.02735,0.02577,0.00000,0.03738,0.11500,0.00110,0.00421,1.22787,6.29023,0.00977,2.83815,1.96853,1.99835,-4.41542,8.94271,6.26684,-4.46766,9.08092,1.96090,1.96090,57.68820,11.98045,57.68819726,11.98044788,A,145212.50
18:41:52.922944,6.30849,0.00797,2.93589,2.93589,[3.00000 0.00000 0.00000],[1.30000 0.00000 0.00000],-0.02806,0.05196,0.02429,0.02577,0.00000,0.03142,0.11638,0.18751,-0.01525,1.12734,6.30020,0.02686,2.85770,1.96372,1.99395,-4.42706,8.96944,6.26684,-4.46766,9.08092,1.96090,1.96090,57.68820,11.98045,57.68819750,11.98044768,A,145212.50
18:41:52.938862,6.32441,0.01349,2.93589,2.93589,[3.00000 0.00000 0.00000],[1.30000 0.00000 0.00000],-0.02709,0.05233,0.00963,0.07677,0.00000,-0.01546,0.11592,0.19679,0.09632,1.10624,6.31242,0.02930,2.87334,1.95992,1.99036,-4.44111,9.00169,6.26684,-4.46766,9.08092,1.96090,1.96090,57.68820,11.98045,57.68819779,11.98044745,A,145212.50
18:41:52.955498,6.34105,0.00810,2.41747,2.41747,[3.00000 0.00000 0.00000],[1.30000 0.00000 0.00000],-0.02612,0.05241,0.02643,0.02258,0.00000,-0.05990,0.11378,-0.03398,0.05179,0.99528,6.33312,0.00000,2.78216,1.95727,1.98776,-4.46023,9.04556,6.26684,-4.46766,9.08092,1.96090,1.96090,57.68820,11.98045,57.68819818,11.98044712,A,145212.50
18:41:52.965517,6.35107,0.00771,2.41747,2.41747,[3.00000 0.00000 0.00000],[1.30000 0.00000 0.00000],-0.02712,0.05258,0.02781,0.02237,0.00000,-0.05776,0.10447,-0.04483,-0.06094,0.99576,6.34318,0.00733,2.70923,1.95414,1.98473,-4.46968,9.06781,6.26684,-4.46766,9.08092,1.96090,1.96090,57.68820,11.98045,57.68819838,11.98044697,A,145212.50
18:41:52.976846,6.36200,0.00824,2.41747,2.41747,[3.00000 0.00000 0.00000],[1.30000 0.00000 0.00000],-0.02659,0.05273,0.02307,0.03450,0.00000,-0.03791,0.10737,-0.10553,0.04172,0.93037,6.35357,0.00733,2.65088,1.95145,1.98213,-4.47845,9.08866,6.26684,-4.46766,9.08092,1.96090,1.96090,57.68820,11.98045,57.68819857,11.98044682,A,145212.50
18:41:52.999802,6.38535,0.02100,2.41747,2.41747,[3.00000 0.00000 0.00000],[1.30000 0.00000 0.00000],-0.02707,0.05275,0.01711,0.05422,0.00000,-0.01149,0.10340,-0.00732,-0.01604,0.91964,6.36401,0.00977,2.60420,1.94514,1.97583,-4.50404,9.15001,6.38063,-4.55682,9.32184,1.92523,1.92523,57.68820,11.98045,57.68819912,11.98044639,A,145212.60
18:41:53.015533,6.40108,0.00784,2.41747,2.41747,[3.00000 0.00000 0.00000],[1.30000 0.00000 0.00000],-0.02547,0.05278,0.01711,0.04799,0.00000,0.04089,0.10615,-0.02824,0.08985,0.90176,6.39329,0.00000,2.56685,1.93893,1.96964,-4.51994,9.18951,6.38063,-4.55682,9.32184,1.92523,1.92523,57.68820,11.98045,57.68819948,11.98044612,A,145212.60
18:41:53.026428,6.41172,0.00807,2.41747,2.41747,[3.00000 0.00000 0.00000],[1.30000 0.00000 0.00000],-0.02551,0.05298,0.02353,0.02890,0.00000,0.04685,0.09775,-0.02342,0.00647,0.97399,6.40393,0.00488,2.53698,1.93316,1.96398,-4.53036,9.21649,6.38063,-4.55682,9.32184,1.92523,1.92523,57.68820,11.98045,57.68819972,11.98044595,A,145212.60
18:41:53.037352,6.42290,0.00880,3.01085,3.01085,[3.00000 0.00000 0.00000],[1.30000 0.00000 0.00000],-0.02509,0.05326,0.03223,0.00114,0.00000,0.07266,0.10248,-0.04679,0.04587,0.96691,6.41398,0.00244,2.63175,1.92812,1.95911,-4.53913,9.23970,6.38063,-4.55682,9.32184,1.92523,1.92523,57.68820,11.98045,57.68819993,11.98044580,A,145212.60
18:41:53.049123,6.43467,0.01050,3.01085,3.01085,[3.00000 0.00000 0.00000],[1.30000 0.00000 0.00000],-0.02606,0.05349,0.03116,0.00815,0.00000,0.06334,0.09500,0.10583,-0.04679,0.99454,6.42477,0.00000,2.70757,1.92395,1.95508,-4.54858,9.26474,6.38063,-4.55682,9.32184,1.92523,1.92523,57.68820,11.98045,57.68820015,11.98044564,A,145212.60
18:41:53.064963,6.45051,0.00806,3.01085,3.01085,[3.00000 0.00000 0.00000],[1.30000 0.00000 0.00000],-0.02650,0.05357,0.02887,0.01672,0.00000,0.01966,0.09530,0.10413,-0.02379,0.99698,6.44269,0.00244,2.76823,1.92094,1.95211,-4.56219,9.30024,6.38063,-4.55682,9.32184,1.92523,1.92523,57.68820,11.98045,57.68820047,11.98044541,A,145212.60
18:41:53.075397,6.46095,0.00808,3.01085,3.01085,[3.00000 0.00000 0.00000],[1.30000 0.00000 0.00000],-0.02614,0.05357,0.02506,0.02679,0.00000,0.00149,0.09637,0.00482,0.04654,1.06195,6.45247,0.00000,2.81675,1.91777,1.94895,-4.56969,9.32071,6.38063,-4.55682,9.32184,1.92523,1.92523,57.68820,11.98045,57.68820066,11.98044528,A,145212.60
18:41:53.086027,6.47158,0.00831,3.01085,3.01085,[3.00000 0.00000 0.00000],[1.30000 0.00000 0.00000],-0.02668,0.05357,0.03208,0.00780,0.00000,-0.00996,0.09988,0.04233,-0.02904,1.13942,6.46375,0.00000,2.85557,1.91523,1.94640,-4.57804,9.34339,6.38063,-4.55682,9.32184,1.92523,1.92523,57.68820,11.98045,57.68820086,11.98044514,A,145212.60
18:41:53.095781,6.48133,0.00766,3.01085,3.01085,[3.00000 0.00000 0.00000],[1.30000 0.00000 0.00000],-0.02688,0.05360,0.03590,0.00780,0.00000,-0.01286,0.10523,0.02275,-0.00299,1.12576,6.47348,0.00244,2.88663,1.91292,1.94411,-4.58461,9.36167,6.38063,-4.55682,9.32184,1.92523,1.92523,57.68820,11.98045,57.68820102,11.98044503,A,145212.60
18:41:53.120408,6.50596,0.02175,3.01085,3.01085,[3.00000 0.00000 0.00000],[1.30000 0.00000 0.00000],-0.02731,0.05360,0.02704,0.02539,0.00000,-0.02371,0.10706,0.05441,-0.01318,1.09117,6.48385,0.00000,2.91148,1.92324,1.95443,-4.61141,9.42980,6.50122,-4.66579,9.56276,1.99556,1.99556,57.68820,11.98044,57.68820164,11.98044458,A,145212.70
18:41:53.137267,6.52282,0.00784,2.73857,2.73857,[3.00000 0.00000 0.00000],[1.30000 0.00000 0.00000],-0.02724,0.05360,0.04644,-0.03307,0.00000,-0.05898,0.10813,0.00037,-0.05222,0.91982,6.51499,0.00000,2.87689,1.93111,1.96230,-4.62940,9.47426,6.50122,-4.66579,9.56276,1.99556,1.99556,57.68820,11.98044,57.68820204,11.98044428,A,145212.70
18:41:53.151745,6.53730,0.01120,2.73857,2.73857,[3.00000 0.00000 0.00000],[1.30000 0.00000 0.00000],-0.02672,0.05360,0.02994,0.01439,0.00000,-0.07410,0.10126,-0.06130,0.04203,0.95941,6.52672,0.01709,2.84923,1.93741,1.96860,-4.64324,9.50783,6.50122,-4.66579,9.56276,1.99556,1.99556,57.68820,11.98044,57.68820234,11.98044405,A,145212.70
18:41:53.168087,6.55364,0.00776,2.73857,2.73857,[3.00000 0.00000 0.00000],[1.30000 0.00000 0.00000],-0.02566,0.05360,0.04628,-0.03880,0.00000,-0.01912,0.10095,-0.08028,0.04459,0.98606,6.54572,0.00733,2.82710,1.94306,1.97425,-4.65928,9.54605,6.50122,-4.66579,9.56276,1.99556,1.99556,57.68820,11.98044,57.68820268,11.98044378,A,145212.70
18:41:53.178795,6.56434,0.00809,2.73857,2.73857,[3.00000 0.00000 0.00000],[1.30000 0.00000 0.00000],-0.02524,0.05360,0.05071,-0.05372,0.00000,0.01829,0.10355,-0.06210,0.02623,0.96270,6.55607,0.05617,2.80939,1.94721,1.97840,-4.66861,9.56797,6.50122,-4.66579,9.56276,1.99556,1.99556,57.68820,11.98044,57.68820288,11.98044362,A,145212.70
18:41:53.190771,6.57632,0.00966,2.73857,2.73857,[3.00000 0.00000 0.00000],[1.30000 0.00000 0.00000],-0.02505,0.05357,0.05758,-0.07508,0.00000,0.03738,0.10752,0.00372,0.00299,0.91549,6.56808,0.09280,2.79523,1.95092,1.98209,-4.67917,9.59249,6.50122,-4.66579,9.56276,1.99556,1.99556,57.68820,11.98044,57.68820310,11.98044344,A,145212.70
18:41:53.199460,6.58501,0.00770,2.73857,2.73857,[3.00000 0.00000 0.00000],[1.30000 0.00000 0.00000],-0.02509,0.05346,0.05697,-0.07508,0.00000,0.03906,0.11042,0.01488,-0.00079,0.91628,6.57713,0.14652,2.78390,1.95371,1.98482,-4.68583,9.60781,6.50122,-4.66579,9.56276,1.99556,1.99556,57.68820,11.98044,57.68820324,11.98044333,A,145212.70
18:41:53.210431,6.59573,0.00749,2.59561,2.59561,[3.00000 0.00000 0.00000],[1.30000 0.00000 0.00000],-0.02421,0.05304,0.05117,-0.05911,0.00000,0.03539,0.11256,0.03398,0.04972,0.88541,6.58785,0.12454,2.74624,1.95636,1.98722,-4.69450,9.62759,6.50122,-4.66579,9.56276,1.99556,1.99556,57.68820,11.98044,57.68820342,11.98044318,A,145212.70
18:41:53.234983,6.62054,0.02190,2.59561,2.59561,[3.00000 0.00000 0.00000],[1.30000 0.00000 0.00000],-0.02404,0.05241,0.05820,-0.08084,0.00000,0.01325,0.11134,0.09229,0.00213,0.94495,6.59846,0.08059,2.71612,1.96518,1.99568,-4.72326,9.69121,6.61572,-4.78466,9.80369,2.02916,2.02916,57.68821,11.98044,57.68820399,11.98044270,A,145212.80
18:41:53.255685,6.64124,0.01139,2.59561,2.59561,[3.00000 0.00000 0.00000],[1.30000 0.00000 0.00000],-0.02288,0.04973,0.05758,-0.08353,0.00000,-0.04264,0.09897,-0.08241,-0.02788,1.20512,6.63130,0.07082,2.69201,1.97227,2.00120,-4.74481,9.73768,6.61572,-4.78466,9.80369,2.02916,2.02916,57.68821,11.98044,57.68820441,11.98044234,A,145212.80
18:41:53.272364,6.65792,0.00790,2.59561,2.59561,[3.00000 0.00000 0.00000],[1.30000 0.00000 0.00000],-0.02177,0.04777,0.06430,-0.10800,0.00000,-0.00431,0.09958,-0.01769,0.02269,1.14582,6.65001,0.09035,2.67273,1.97807,2.00586,-4.76233,9.77482,6.61572,-4.78466,9.80369,2.02916,2.02916,57.68821,11.98044,57.68820474,11.98044204,A,145212.80
18:41:53.282512,6.66804,0.00776,2.59561,2.59561,[3.00000 0.00000 0.00000],[1.30000 0.00000 0.00000],-0.02115,0.04673,0.06247,-0.10800,0.00000,0.00455,0.09790,0.18471,0.02989,0.92988,6.65994,0.11966,2.65731,1.98242,2.00960,-4.77209,9.79484,6.61572,-4.78466,9.80369,2.02916,2.02916,57.68821,11.98044,57.68820492,11.98044188,A,145212.80
18:41:53.293816,6.67937,0.00886,2.59561,2.59561,[3.00000 0.00000 0.00000],[1.30000 0.00000 0.00000],-0.02054,0.04554,0.06889,-0.12655,0.00000,-0.01699,0.10477,0.16995,0.02019,0.64501,6.67149,0.13187,2.64497,1.98635,2.01284,-4.78310,9.81742,6.61572,-4.78466,9.80369,2.02916,2.02916,57.68821,11.98044,57.68820512,11.98044169,A,145212.80
18:41:53.302875,6.68842,0.00775,2.88624,2.88624,[3.00000 0.00000 0.00000],[1.30000 0.00000 0.00000],-0.02168,0.04460,0.06690,-0.12655,0.00000,-0.05822,0.10477,0.33928,-0.01781,0.43877,6.68029,0.14652,2.69322,1.98949,2.01544,-4.79066,9.83253,6.61572,-4.78466,9.80369,2.02916,2.02916,57.68821,11.98044,57.68820526,11.98044157,A,145212.80
18:41:53.313246,6.69880,0.00772,2.88624,2.88624,[3.00000 0.00000 0.00000],[1.30000 0.00000 0.00000],-0.02060,0.04322,0.04491,-0.05437,0.00000,-0.11014,0.11103,-0.67143,0.07033,0.92622,6.69090,0.17094,2.73183,1.99243,2.01757,-4.79974,9.85077,6.61572,-4.78466,9.80369,2.02916,2.02916,57.68821,11.98044,57.68820542,11.98044141,A,145212.80
18:41:53.323934,6.70948,0.00798,2.88624,2.88624,[3.00000 0.00000 0.00000],[1.30000 0.00000 0.00000],-0.01896,0.04180,0.08782,-0.18952,0.00000,-0.00248,0.10767,-0.38375,0.09906,1.33175,6.70148,0.04640,2.76271,1.99503,2.01935,-4.80850,9.86829,6.61572,-4.78466,9.80369,2.02916,2.02916,57.68821,11.98044,57.68820558,11.98044127,A,145212.80
18:41:53.350502,6.73528,0.02321,2.88624,2.88624,[3.00000 0.00000 0.00000],[1.30000 0.00000 0.00000],-0.01716,0.04056,0.11241,-0.27030,0.00000,0.13512,0.11760,-0.32739,0.09412,1.31699,6.71171,0.07814,2.78742,1.98831,2.01190,-4.83804,9.93067,6.72920,-4.88372,10.04461,1.96090,1.96090,57.68821,11.98044,57.68820614,11.98044077,A,145212.90
18:41:53.368120,6.75367,0.00792,2.88624,2.88624,[3.00000 0.00000 0.00000],[1.30000 0.00000 0.00000],-0.01750,0.03512,0.09943,-0.23003,0.00000,0.00806,0.10462,-0.01421,-0.15982,0.76219,6.74573,0.40293,2.80718,1.98251,2.00294,-4.85894,9.97580,6.72920,-4.88372,10.04461,1.96090,1.96090,57.68821,11.98044,57.68820655,11.98044042,A,145212.90
18:41:53.379241,6.76480,0.00855,2.88624,2.88624,[3.00000 0.00000 0.00000],[1.30000 0.00000 0.00000],-0.01233,0.03221,0.06827,-0.15674,0.00000,-0.06784,0.10248,-0.00409,0.29902,0.87791,6.75608,0.17827,2.82300,1.97708,1.99581,-4.86964,9.99975,6.72920,-4.88372,10.04461,1.96090,1.96090,57.68821,11.98044,57.68820676,11.98044024,A,145212.90
18:41:53.390521,6.77607,0.00942,2.74654,2.74654,[3.00000 0.00000 0.00000],[1.30000 0.00000 0.00000],-0.01113,0.03000,0.06461,-0.15041,0.00000,-0.08372,0.09011,-0.24650,0.06710,1.00534,6.76648,0.93773,2.80770,1.97256,1.99000,-4.87899,10.02108,6.72920,-4.88372,10.04461,1.96090,1.96090,57.68821,11.98044,57.68820696,11.98044008,A,145212.90
18:41:53.399284,6.78483,0.00775,2.74654,2.74654,[3.00000 0.00000 0.00000],[1.30000 0.00000 0.00000],-0.01258,0.02805,0.08920,-0.15041,0.00000,-0.07303,0.08950,-0.10535,-0.15189,1.18017,6.77670,0.40049,2.79547,1.96879,1.98510,-4.88675,10.03916,6.72920,-4.88372,10.04461,1.96090,1.96090,57.68821,11.98044,57.68820712,11.98043995,A,145212.90
18:41:53.409602,6.79515,0.00766,2.74654,2.74654,[3.00000 0.00000 0.00000],[1.30000 0.00000 0.00000],-0.01197,0.02655,0.09393,-0.23512,0.00000,-0.05624,0.10615,-0.14616,0.00152,1.19078,6.78731,0.45177,2.78568,1.96580,1.98124,-4.89590,10.06056,6.72920,-4.88372,10.04461,1.96090,1.96090,57.68821,11.98044,57.68820731,11.98043980,A,145212.90
18:41:53.420491,6.80604,0.00814,2.74654,2.74654,[3.00000 0.00000 0.00000],[1.30000 0.00000 0.00000],-0.01072,0.02505,0.09210,-0.23449,0.00000,-0.04249,0.10034,0.55339,0.05533,1.26343,6.79800,1.69719,2.77785,1.96335,1.97792,-4.90444,10.08081,6.72920,-4.88372,10.04461,1.96090,1.96090,57.68821,11.98044,57.68820749,11.98043965,A,145212.90
18:41:53.430532,6.81576,0.00751,2.74654,2.74654,[3.00000 0.00000 0.00000],[1.30000 0.00000 0.00000],-0.01226,0.02227,0.04048,-0.23449,0.00000,-0.05364,0.07667,-0.39363,-0.11090,1.07830,6.80790,0.99878,2.77159,1.96145,1.97440,-4.91170,10.09822,6.72920,-4.88372,10.04461,1.96090,1.96090,57.68821,11.98044,57.68820765,11.98043953,A,145212.90
18:41:53.440898,6.82645,0.00779,2.74654,2.74654,[3.00000 0.00000 0.00000],[1.30000 0.00000 0.00000],-0.00849,0.01933,0.06476,-0.16118,0.00000,0.02028,0.07728,0.08314,0.23839,1.01717,6.81849,0.24176,2.76658,1.96007,1.97131,-4.91903,10.11598,6.72920,-4.88372,10.04461,1.96090,1.96090,57.68821,11.98044,57.68820781,11.98043941,A,145212.90
18:41:53.480182,6.86575,0.03668,2.74654,2.74654,[3.00000 0.00000 0.00000],[1.30000 0.00000 0.00000],-0.01164,0.01658,0.04140,-0.07881,0.00000,0.05418,0.04674,-0.20453,-0.17251,0.80203,6.82975,0.38095,2.76257,1.96765,1.97729,-4.96623,10.22549,6.86066,-5.10165,10.50792,2.01047,2.01047,57.68821,11.98044,57.68820879,11.98043861,A,145213.10
18:41:53.497439,6.88299,0.00848,3.23303,3.23303,[3.00000 0.00000 0.00000],[1.30000 0.00000 0.00000],-0.01036,0.00770,0.02429,-0.03247,0.00000,-0.10633,0.01589,-0.01915,0.03727,1.20322,6.87521,0.07082,2.85666,1.97393,1.97840,-4.98907,10.27694,6.86066,-5.10165,10.50792,2.01047,2.01047,57.68821,11.98044,57.68820926,11.98043823,A,145213.10
18:41:53.506888,6.89244,0.00774,3.23303,3.23303,[3.00000 0.00000 0.00000],[1.30000 0.00000 0.00000],-0.01108,0.00634,0.01574,-0.03247,0.00000,-0.08021,0.02093,-0.25156,-0.05508,1.39769,6.88436,0.07814,2.93194,1.97897,1.98266,-5.00263,10.30685,6.86066,-5.10165,10.50792,2.01047,2.01047,57.68821,11.98044,57.68820953,11.98043800,A,145213.10
18:41:53.519115,6.90466,0.00956,3.23303,3.23303,[3.00000 0.00000 0.00000],[1.30000 0.00000 0.00000],-0.01087,0.00504,0.01101,0.00939,0.00000,0.03646,0.02276,0.04679,0.03117,1.43496,6.89636,0.09524,2.99216,1.98340,1.98633,-5.01899,10.34302,6.86066,-5.10165,10.50792,2.01047,2.01047,57.68821,11.98044,57.68820985,11.98043772,A,145213.10
18:41:53.527912,6.91347,0.00780,3.23303,3.23303,[3.00000 0.00000 0.00000],[1.30000 0.00000 0.00000],-0.01092,0.00422,0.01559,0.00939,0.00000,0.08808,0.02459,0.00836,0.00525,1.29503,6.90552,0.01709,3.04033,1.98717,1.98962,-5.03119,10.36956,6.86066,-5.10165,10.50792,2.01047,2.01047,57.68821,11.98044,57.68821009,11.98043752,A,145213.10
18:41:53.538059,6.92361,0.00759,3.23303,3.23303,[3.00000 0.00000 0.00000],[1.30000 0.00000 0.00000],-0.01051,0.00356,0.02109,-0.02225,0.00000,0.10839,0.02368,0.12481,0.03148,1.06628,6.91576,0.01465,3.07887,1.99043,1.99251,-5.04437,10.39816,6.86066,-5.10165,10.50792,2.01047,2.01047,57.68821,11.98044,57.68821035,11.98043730,A,145213.10
18:41:53.550307,6.93564,0.00921,3.23303,3.23303,[3.00000 0.00000 0.00000],[1.30000 0.00000 0.00000],-0.01099,0.00328,0.03376,-0.05841,0.00000,0.07709,0.01665,0.17361,-0.03123,0.83045,6.92626,0.01954,3.10970,1.99322,1.99513,-5.05735,10.42622,6.86066,-5.10165,10.50792,2.01047,2.01047,57.68821,11.98044,57.68821060,11.98043708,A,145213.10
18:41:53.562511,6.94805,0.01117,3.23303,3.23303,[3.00000 0.00000 0.00000],[1.30000 0.00000 0.00000],-0.01103,0.00325,0.03239,-0.05413,0.00000,0.02883,0.01116,0.27493,-0.00695,0.72816,6.93766,0.06593,3.13437,1.99560,1.99749,-5.07089,10.45535,6.86066,-5.10165,10.50792,2.01047,2.01047,57.68821,11.98044,57.68821086,11.98043685,A,145213.10
18:41:53.594294,6.97971,0.02329,2.35274,2.35274,[3.00000 0.00000 0.00000],[1.30000 0.00000 0.00000],-0.01375,0.00308,-0.00778,0.07697,0.00000,-0.10251,-0.00351,-0.14042,-0.12304,0.78007,6.95619,0.14652,2.97804,2.00057,2.00236,-5.11287,10.54592,6.97292,-5.22053,10.74884,2.02916,2.02916,57.68821,11.98043,57.68821168,11.98043614,A,145213.20
18:41:53.609862,6.99542,0.00767,2.35274,2.35274,[3.00000 0.00000 0.00000],[1.30000 0.00000 0.00000],-0.01053,0.00048,0.00948,0.01261,0.00000,-0.02997,-0.00686,-0.25858,0.21271,1.01467,6.98759,0.01221,2.85298,2.00491,2.00519,-5.13469,10.59175,6.97292,-5.22053,10.74884,2.02916,2.02916,57.68821,11.98043,57.68821209,11.98043578,A,145213.20
18:41:53.620383,7.00594,0.00779,2.35274,2.35274,[3.00000 0.00000 0.00000],[1.30000 0.00000 0.00000],-0.01236,-0.00009,0.02781,-0.03519,0.00000,0.03998,-0.00442,-0.08253,-0.12834,1.00028,6.99801,0.00244,2.75294,2.00857,2.00851,-5.14847,10.62006,6.97292,-5.22053,10.74884,2.02916,2.02916,57.68821,11.98043,57.68821234,11.98043555,A,145213.20
18:41:53.630754,7.01630,0.00791,2.35274,2.35274,[3.00000 0.00000 0.00000],[1.30000 0.00000 0.00000],-0.01191,-0.00017,0.01788,-0.00718,0.00000,0.07082,0.00673,0.05020,0.03123,1.02053,7.00805,0.01709,2.67290,2.01167,2.01157,-5.16123,10.64606,6.97292,-5.22053,10.74884,2.02916,2.02916,57.68821,11.98043,57.68821258,11.98043533,A,145213.20
18:41:53.641803,7.02736,0.00856,2.35274,2.35274,[3.00000 0.00000 0.00000],[1.30000 0.00000 0.00000],-0.01257,-0.00017,0.01360,0.00823,0.00000,0.10992,0.00978,-0.12834,-0.04038,0.98375,7.01862,0.01709,2.60887,2.01430,2.01420,-5.17328,10.67047,6.97292,-5.22053,10.74884,2.02916,2.02916,57.68821,11.98043,57.68821280,11.98043513,A,145213.20
18:41:53.651474,7.03702,0.00803,2.92126,2.92126,[3.00000 0.00000 0.00000],[1.30000 0.00000 0.00000],-0.01279,-0.00017,0.00841,0.00823,0.00000,0.11511,0.00444,0.09650,-0.00787,0.96459,7.02864,0.03419,2.67134,2.01654,2.01644,-5.18340,10.69072,6.97292,-5.22053,10.74884,2.02916,2.02916,57.68821,11.98043,57.68821298,11.98043496,A,145213.20
18:41:53.664753,7.05030,0.01089,2.92126,2.92126,[3.00000 0.00000 0.00000],[1.30000 0.00000 0.00000],-0.01234,-0.00017,-0.00869,0.27842,0.05236,0.05998,0.00535,0.22253,0.04398,0.91665,7.03968,0.04884,2.72133,2.01845,2.01835,-5.19694,10.71807,6.97292,-5.22053,10.74884,2.02916,2.02916,57.68821,11.98043,57.68821322,11.98043473,A,145213.20
18:41:53.680815,7.06637,0.00807,2.92126,2.92126,[3.00000 0.00000 0.00000],[1.30000 0.00000 0.00000],-0.01256,0.00003,-0.00579,0.27057,0.05236,-0.08052,-0.00396,0.26126,0.00476,1.00607,7.05844,0.00000,2.76131,2.02005,2.02006,-5.21378,10.75224,6.97292,-5.22053,10.74884,2.02916,2.02916,57.68821,11.98043,57.68821353,11.98043445,A,145213.20
18:41:53.690601,7.07614,0.00767,2.92126,2.92126,[3.00000 0.00000 0.00000],[1.30000 0.00000 0.00000],-0.01329,0.00099,0.00123,0.27057,0.05236,-0.11396,-0.01496,-0.04203,-0.04209,1.15644,7.06811,0.00000,2.79330,2.02133,2.02190,-5.22293,10.77035,6.97292,-5.22053,10.74884,2.02916,2.02916,57.68821,11.98043,57.68821369,11.98043429,A,145213.20
18:41:53.715143,7.10070,0.02197,2.92126,2.92126,[3.00000 0.00000 0.00000],[1.30000 0.00000 0.00000],-0.01370,0.00339,-0.00136,0.26174,0.05236,-0.09823,-0.01252,-0.07930,-0.01702,1.23897,7.07930,0.00000,2.81889,2.02713,2.02911,-5.25526,10.83511,7.09599,-5.33940,10.97123,2.06168,2.06168,57.68822,11.98043,57.68821428,11.98043375,A,145213.30
18:41:53.731027,7.11658,0.00804,2.92126,2.92126,[3.00000 0.00000 0.00000],[1.30000 0.00000 0.00000],-0.01479,0.00959,-0.01083,0.29439,0.05236,0.01203,-0.01878,0.03648,-0.02989,0.89481,7.10828,0.00000,2.83937,2.03158,2.03715,-5.27576,10.87493,7.09599,-5.33940,10.97123,2.06168,2.06168,57.68822,11.98043,57.68821463,11.98043340,A,145213.30
18:41:53.741760,7.12732,0.00837,2.92126,2.92126,[3.00000 0.00000 0.00000],[1.30000 0.00000 0.00000],-0.01372,0.01163,-0.00793,0.28148,0.05236,0.02425,-0.01908,0.01196,0.07704,0.78800,7.11878,0.00000,2.85574,2.03525,2.04201,-5.28923,10.90020,7.09599,-5.33940,10.97123,2.06168,2.06168,57.68822,11.98043,57.68821486,11.98043318,A,145213.30
18:41:53.752035,7.13758,0.00823,2.41330,2.41330,[3.00000 0.00000 0.00000],[1.30000 0.00000 0.00000],-0.01311,0.01418,-0.01282,0.29378,0.05236,0.01692,-0.02397,0.03141,0.05179,0.74798,7.12915,0.00000,2.76725,2.03817,2.04641,-5.30127,10.92245,7.09599,-5.33940,10.97123,2.06168,2.06168,57.68822,11.98043,57.68821506,11.98043297,A,145213.30
18:41:53.766643,7.15219,0.01243,2.41330,2.41330,[3.00000 0.00000 0.00000],[1.30000 0.00000 0.00000],-0.01091,0.01749,0.00322,0.23711,0.05236,0.01264,-0.01649,-0.01122,0.13316,0.79575,7.14079,0.00000,2.69646,2.04048,2.05065,-5.31593,10.94965,7.09599,-5.33940,10.97123,2.06168,2.06168,57.68822,11.98043,57.68821531,11.98043273,A,145213.30
18:41:53.783717,7.16927,0.00834,2.41330,2.41330,[3.00000 0.00000 0.00000],[1.30000 0.00000 0.00000],-0.01110,0.02270,0.03422,0.14483,0.05236,0.00592,0.01207,-0.06124,-0.03422,1.00741,7.16134,0.00000,2.63983,2.04220,2.05540,-5.33499,10.98511,7.09599,-5.33940,10.97123,2.06168,2.06168,57.68822,11.98043,57.68821562,11.98043241,A,145213.30
18:41:53.793373,7.17892,0.00759,2.41330,2.41330,[3.00000 0.00000 0.00000],[1.30000 0.00000 0.00000],-0.01146,0.02465,0.03178,0.14483,0.05236,0.01172,0.02322,0.01781,-0.02324,1.14625,7.17114,0.00000,2.59452,2.04334,2.05767,-5.34481,11.00265,7.09599,-5.33940,10.97123,2.06168,2.06168,57.68822,11.98043,57.68821578,11.98043224,A,145213.30
18:41:53.804470,7.19002,0.00844,2.41330,2.41330,[3.00000 0.00000 0.00000],[1.30000 0.00000 0.00000],-0.01083,0.02652,0.03880,0.13003,0.05236,0.02043,0.02994,-0.04666,0.04660,1.22665,7.18196,0.00000,2.55828,2.04419,2.05962,-5.35471,11.02029,7.09599,-5.33940,10.97123,2.06168,2.06168,57.68822,11.98043,57.68821594,11.98043208,A,145213.30
18:41:53.827972,7.21353,0.02140,2.41330,2.41330,[3.00000 0.00000 0.00000],[1.30000 0.00000 0.00000],-0.00975,0.02768,0.04353,0.11163,0.05236,0.03570,0.04185,0.05100,0.08790,1.29326,7.19176,0.00000,2.52928,2.05059,2.06669,-5.38513,11.07547,7.20881,-5.46818,11.19362,2.09569,2.09569,57.68822,11.98043,57.68821644,11.98043156,A,145213.40
18:41:53.843756,7.22931,0.00779,2.97215,2.97215,[3.00000 0.00000 0.00000],[1.30000 0.00000 0.00000],-0.00745,0.03187,0.08782,-0.03019,0.05236,0.03967,0.05040,0.15183,0.02025,0.94202,7.22146,0.00000,2.61785,2.05528,2.07381,-5.40482,11.11011,7.20881,-5.46818,11.19362,2.09569,2.09569,57.68822,11.98043,57.68821675,11.98043123,A,145213.40
18:41:53.854377,7.23967,0.00758,2.97215,2.97215,[3.00000 0.00000 0.00000],[1.30000 0.00000 0.00000],-0.00761,0.03263,0.07942,-0.00438,0.05236,-0.00019,0.04735,0.18538,-0.01189,0.76592,7.23172,0.00000,2.68871,2.05902,2.07800,-5.41830,11.13303,7.20881,-5.46818,11.19362,2.09569,2.09569,57.68822,11.98043,57.68821696,11.98043101,A,145213.40
18:41:53.868069,7.25362,0.01099,2.97215,2.97215,[3.00000 0.00000 0.00000],[1.30000 0.00000 0.00000],-0.00698,0.03328,0.07438,0.00829,0.05236,-0.06937,0.04674,0.11370,0.02666,0.71626,7.24316,0.00000,2.74540,2.06227,2.08163,-5.43326,11.15848,7.20881,-5.46818,11.19362,2.09569,2.09569,57.68822,11.98043,57.68821718,11.98043075,A,145213.40
18:41:53.884718,7.27027,0.00786,2.97215,2.97215,[3.00000 0.00000 0.00000],[1.30000 0.00000 0.00000],-0.00355,0.03410,0.07408,-0.00420,0.05236,-0.09808,0.04750,-0.20783,0.17275,0.95465,7.26236,0.00488,2.79075,2.06529,2.08512,-5.45354,11.19332,7.20881,-5.46818,11.19362,2.09569,2.09569,57.68822,11.98043,57.68821750,11.98043041,A,145213.40
18:41:53.895007,7.28056,0.00792,2.97215,2.97215,[3.00000 0.00000 0.00000],[1.30000 0.00000 0.00000],-0.00141,0.03441,0.09729,-0.00420,0.05236,-0.04005,0.05331,-0.22887,0.12822,1.02639,7.27232,0.00977,2.82703,2.06742,2.08743,-5.46486,11.21207,7.20881,-5.46818,11.19362,2.09569,2.09569,57.68822,11.98043,57.68821767,11.98043022,A,145213.40
18:41:53.907348,7.29290,0.00985,2.97215,2.97215,[3.00000 0.00000 0.00000],[1.30000 0.00000 0.00000],-0.00133,0.03456,0.11378,-0.13196,0.05236,0.02119,0.05254,-0.08143,-0.04063,1.03529,7.28466,0.00733,2.85605,2.06939,2.08949,-5.47887,11.23550,7.20881,-5.46818,11.19362,2.09569,2.09569,57.68822,11.98043,57.68821788,11.98042999,A,145213.40
18:41:53.916585,7.30214,0.00824,2.97215,2.97215,[3.00000 0.00000 0.00000],[1.30000 0.00000 0.00000],-0.00186,0.03456,0.11073,-0.13196,0.05236,0.05586,0.05773,0.20978,-0.05490,1.02998,7.29374,0.07570,2.87927,2.07087,2.09097,-5.48845,11.25113,7.20881,-5.46818,11.19362,2.09569,2.09569,57.68822,11.98043,57.68821802,11.98042983,A,145213.40
18:41:53.926423,7.31171,0.00763,2.71737,2.71737,[3.00000 0.00000 0.00000],[1.30000 0.00000 0.00000],-0.00150,0.03450,0.10493,-0.10472,0.05236,0.05845,0.05743,0.01098,-0.00098,0.98015,7.30378,0.12943,2.84689,2.07214,2.09221,-5.49782,11.26638,7.20881,-5.46818,11.19362,2.09569,2.09569,57.68822,11.98043,57.68821815,11.98042967,A,145213.40
18:41:53.951382,7.33693,0.02244,2.71737,2.71737,[3.00000 0.00000 0.00000],[1.30000 0.00000 0.00000],-0.00038,0.03407,0.11210,-0.13065,0.05236,0.05174,0.05422,0.04758,0.04099,0.97399,7.31432,0.14896,2.82099,2.06927,2.08909,-5.53322,11.32774,7.33170,-5.58706,11.41601,2.06168,2.06168,57.68822,11.98043,57.68821871,11.98042907,A,145213.50
18:41:53.971932,7.35748,0.01276,2.71737,2.71737,[3.00000 0.00000 0.00000],[1.30000 0.00000 0.00000],0.00385,0.03068,0.13318,-0.21033,0.05236,-0.01027,0.05269,0.04660,0.05033,1.06573,7.34590,0.24664,2.80026,2.06666,2.08450,-5.55844,11.37165,7.33170,-5.58706,11.41601,2.06168,2.06168,57.68822,11.98043,57.68821910,11.98042865,A,145213.50
18:41:53.988637,7.37419,0.00797,2.71737,2.71737,[3.00000 0.00000 0.00000],[1.30000 0.00000 0.00000],0.00566,0.02708,0.13043,-0.20916,0.05236,-0.03211,0.04475,-0.00769,-0.01434,1.26355,7.36621,0.21245,2.78369,2.06448,2.08023,-5.57891,11.40761,7.33170,-5.58706,11.41601,2.06168,2.06168,57.68822,11.98043,57.68821942,11.98042830,A,145213.50
18:41:53.998732,7.38427,0.00782,2.71737,2.71737,[3.00000 0.00000 0.00000],[1.30000 0.00000 0.00000],0.00706,0.02499,0.12997,-0.20916,0.05236,-0.00065,0.05208,0.00604,0.05777,1.08617,7.37614,0.30769,2.77042,2.06233,2.07686,-5.58968,11.42658,7.33170,-5.58706,11.41601,2.06168,2.06168,57.68822,11.98043,57.68821960,11.98042812,A,145213.50
18:41:54.010378,7.39568,0.00896,2.71737,2.71737,[3.00000 0.00000 0.00000],[1.30000 0.00000 0.00000],0.00862,0.02241,0.12600,-0.20741,0.05236,-0.01683,0.05056,0.15976,0.05319,0.91494,7.38731,0.13187,2.75981,2.06076,2.07380,-5.60177,11.44810,7.33170,-5.58706,11.41601,2.06168,2.06168,57.68822,11.98043,57.68821979,11.98042792,A,145213.50
18:41:54.019173,7.40472,0.00778,2.57828,2.57828,[3.00000 0.00000 0.00000],[1.30000 0.00000 0.00000],0.01284,0.02009,0.12386,-0.20741,0.05236,-0.03012,0.05590,0.00964,0.22674,0.88273,7.39655,0.11233,2.72351,2.05946,2.07115,-5.60975,11.46233,7.33170,-5.58706,11.41601,2.06168,2.06168,57.68822,11.98043,57.68821992,11.98042778,A,145213.50
18:41:54.029965,7.41552,0.00817,2.57828,2.57828,[3.00000 0.00000 0.00000],[1.30000 0.00000 0.00000],0.01384,0.01749,0.14937,-0.29785,0.05236,-0.03027,0.04292,0.07985,0.00952,0.70669,7.40717,0.15385,2.69446,2.05863,2.06880,-5.61950,11.47993,7.33170,-5.58706,11.41601,2.06168,2.06168,57.68822,11.98043,57.68822007,11.98042762,A,145213.50
18:41:54.040148,7.42570,0.00795,2.57828,2.57828,[3.00000 0.00000 0.00000],[1.30000 0.00000 0.00000],0.01605,0.01503,0.13837,-0.27351,0.05236,-0.04570,0.04231,-0.07192,0.06978,0.67844,7.41771,0.21734,2.67123,2.05807,2.06680,-5.62814,11.49561,7.33170,-5.58706,11.41601,2.06168,2.06168,57.68822,11.98043,57.68822022,11.98042748,A,145213.50
18:41:54.077743,7.46329,0.03506,2.57828,2.57828,[3.00000 0.00000 0.00000],[1.30000 0.00000 0.00000],0.01711,0.01237,0.14127,-0.28633,0.05236,-0.06433,0.02933,-0.08882,0.02068,0.82551,7.42787,0.09768,2.65264,2.04867,2.05586,-5.68002,11.59526,7.45822,-5.80499,11.89786,1.99556,1.99556,57.68822,11.98042,57.68822111,11.98042660,A,145213.70
18:41:54.094742,7.48030,0.00855,2.57828,2.57828,[3.00000 0.00000 0.00000],[1.30000 0.00000 0.00000],0.02275,0.00110,0.14372,-0.31567,0.05236,0.05296,0.01681,0.12670,0.00714,1.20573,7.47159,0.37607,2.63777,2.04095,2.04159,-5.70301,11.64215,7.45822,-5.80499,11.89786,1.99556,1.99556,57.68822,11.98042,57.68822153,11.98042622,A,145213.70
18:41:54.105717,7.49126,0.00911,2.87047,2.87047,[3.00000 0.00000 0.00000],[1.30000 0.00000 0.00000],0.02296,-0.00176,0.15334,-0.34537,0.05236,0.03830,0.01467,-0.04715,-0.05081,1.15461,7.48199,0.52991,2.68431,2.03431,2.03329,-5.71700,11.67240,7.45822,-5.80499,11.89786,1.99556,1.99556,57.68822,11.98042,57.68822181,11.98042598,A,145213.70
18:41:54.115057,7.50061,0.00781,2.87047,2.87047,[3.00000 0.00000 0.00000],[1.30000 0.00000 0.00000],0.02408,-0.00501,0.14998,-0.34537,0.05236,0.03906,0.01207,0.17074,0.01488,0.98527,7.49246,0.92552,2.72154,2.02891,2.02599,-5.73062,11.70218,7.45822,-5.80499,11.89786,1.99556,1.99556,57.68822,11.98042,57.68822207,11.98042575,A,145213.70
18:41:54.125635,7.51118,0.00798,2.87047,2.87047,[3.00000 0.00000 0.00000],[1.30000 0.00000 0.00000],0.02493,-0.00897,0.14158,-0.31774,0.05236,-0.01546,0.00825,0.02757,0.00098,1.01242,7.50303,0.73260,2.75133,2.02460,2.01938,-5.74448,11.73267,7.45822,-5.80499,11.89786,1.99556,1.99556,57.68822,11.98042,57.68822235,11.98042552,A,145213.70
18:41:54.135851,7.52140,0.00779,2.87047,2.87047,[3.00000 0.00000 0.00000],[1.30000 0.00000 0.00000],0.02617,-0.01271,0.12997,-0.28778,0.05236,-0.04524,-0.00900,0.09339,0.03245,0.93781,7.51343,0.51526,2.77516,2.02120,2.01381,-5.75654,11.75971,7.45822,-5.80499,11.89786,1.99556,1.99556,57.68822,11.98042,57.68822259,11.98042532,A,145213.70
18:41:54.146055,7.53161,0.00747,2.87047,2.87047,[3.00000 0.00000 0.00000],[1.30000 0.00000 0.00000],0.02773,-0.01594,0.11959,-0.26270,0.05236,-0.06143,-0.01923,0.00738,0.05917,0.95471,7.52378,0.42247,2.79422,2.01853,2.00926,-5.76846,11.78663,7.45822,-5.80499,11.89786,1.99556,1.99556,57.68822,11.98042,57.68822283,11.98042511,A,145213.70
18:41:54.157164,7.54272,0.00817,2.87047,2.87047,[3.00000 0.00000 0.00000],[1.30000 0.00000 0.00000],0.02978,-0.01879,0.12127,-0.27574,0.05236,-0.06799,-0.03664,0.08613,0.08314,0.93074,7.53460,1.02808,2.80947,2.01643,2.00550,-5.78035,11.81365,7.45822,-5.80499,11.89786,1.99556,1.99556,57.68822,11.98042,57.68822308,11.98042491,A,145213.70
18:41:54.168863,7.55441,0.00945,2.87047,2.87047,[3.00000 0.00000 0.00000],[1.30000 0.00000 0.00000],0.03056,-0.02205,0.12890,-0.30170,0.05236,-0.05394,-0.05436,-0.01653,0.00622,0.96478,7.54458,0.31746,2.82167,2.01488,2.00206,-5.79142,11.83905,7.45822,-5.80499,11.89786,1.99556,1.99556,57.68822,11.98042,57.68822330,11.98042473,A,145213.70
18:41:54.193956,7.57951,0.02294,2.87047,2.87047,[3.00000 0.00000 0.00000],[1.30000 0.00000 0.00000],0.03161,-0.02624,0.11898,-0.27599,0.05236,-0.00385,-0.06413,-0.04831,0.00994,0.96185,7.55683,0.58364,2.83143,2.01823,2.00297,-5.82436,11.91122,7.57486,-5.92386,12.13878,2.02916,2.02916,57.68823,11.98042,57.68822395,11.98042417,A,145213.80
18:41:54.210913,7.59646,0.00910,2.77480,2.77480,[3.00000 0.00000 0.00000],[1.30000 0.00000 0.00000],0.03474,-0.03561,0.09240,-0.20848,0.05236,0.06411,-0.07895,0.00262,0.04886,0.88895,7.58722,0.22222,2.82010,2.02217,2.00146,-5.84593,11.95859,7.57486,-5.92386,12.13878,2.02916,2.02916,57.68823,11.98042,57.68822438,11.98042381,A,145213.80
18:41:54.219714,7.60527,0.00781,2.77480,2.77480,[3.00000 0.00000 0.00000],[1.30000 0.00000 0.00000],0.03510,-0.03875,0.09515,-0.20848,0.05236,0.04883,-0.08796,0.13853,-0.00634,0.89249,7.59733,0.43712,2.81104,2.02607,2.00353,-5.85770,11.98472,7.57486,-5.92386,12.13878,2.02916,2.02916,57.68823,11.98042,57.68822461,11.98042361,A,145213.80
18:41:54.230041,7.61560,0.00757,2.77480,2.77480,[3.00000 0.00000 0.00000],[1.30000 0.00000 0.00000],0.03575,-0.04175,0.09042,-0.20648,0.05236,0.03173,-0.09712,0.00781,0.01409,0.99021,7.60767,0.22222,2.80380,2.02950,2.00522,-5.87044,12.01284,7.57486,-5.92386,12.13878,2.02916,2.02916,57.68823,11.98042,57.68822487,11.98042340,A,145213.80
18:41:54.240964,7.62652,0.00808,2.77480,2.77480,[3.00000 0.00000 0.00000],[1.30000 0.00000 0.00000],0.03687,-0.04447,0.08752,-0.20213,0.05236,0.01264,-0.10308,0.11767,0.05155,1.08013,7.61826,0.15873,2.79800,2.03257,2.00670,-5.88296,12.04037,7.57486,-5.92386,12.13878,2.02916,2.02916,57.68823,11.98042,57.68822512,11.98042319,A,145213.80
18:41:54.251355,7.63691,0.00807,2.77480,2.77480,[3.00000 0.00000 0.00000],[1.30000 0.00000 0.00000],0.03712,-0.04698,0.08446,-0.19395,0.05236,-0.00156,-0.11193,0.07149,-0.00628,1.17620,7.62872,0.15140,2.79336,2.03540,2.00807,-5.89421,12.06506,7.57486,-5.92386,12.13878,2.02916,2.02916,57.68823,11.98042,57.68822534,11.98042300,A,145213.80
18:41:54.261857,7.64741,0.00816,2.77480,2.77480,[3.00000 0.00000 0.00000],[1.30000 0.00000 0.00000],0.03634,-0.04967,0.07866,-0.17349,0.05236,-0.00843,-0.11774,0.14884,-0.08375,1.17608,7.63910,0.19780,2.78965,2.03793,2.00903,-5.90576,12.09028,7.57486,-5.92386,12.13878,2.02916,2.02916,57.68823,11.98042,57.68822556,11.98042280,A,145213.80
18:41:54.276640,7.66161,0.01195,3.19548,3.19548,[3.00000 0.00000 0.00000],[1.30000 0.00000 0.00000],0.03690,-0.05219,0.05590,-0.10743,0.05236,-0.02752,-0.12889,-0.05478,0.02166,1.15552,7.65040,0.04884,2.87081,2.04017,2.00980,-5.91767,12.11620,7.57486,-5.92386,12.13878,2.02916,2.02916,57.68823,11.98042,57.68822580,11.98042260,A,145213.80
18:41:54.306699,7.69225,0.02104,3.19548,3.19548,[3.00000 0.00000 0.00000],[1.30000 0.00000 0.00000],0.03901,-0.05700,0.07667,-0.17798,0.05236,-0.03959,-0.13484,-0.02233,0.04965,0.99881,7.67109,0.01465,2.93575,2.03975,2.00658,-5.95825,12.20258,7.68745,-6.03283,12.36117,2.02640,2.02640,57.68823,11.98042,57.68822657,11.98042192,A,145213.90
18:41:54.324062,7.70961,0.00835,3.19548,3.19548,[3.00000 0.00000 0.00000],[1.30000 0.00000 0.00000],0.04217,-0.06111,0.05957,-0.13898,0.05236,-0.02798,-0.13881,-0.04892,0.07198,0.79629,7.70159,0.13431,2.98769,2.04119,2.00563,-5.98000,12.24922,7.68745,-6.03283,12.36117,2.02640,2.02640,57.68823,11.98042,57.68822699,11.98042156,A,145213.90
18:41:54.333760,7.71931,0.00764,3.19548,3.19548,[3.00000 0.00000 0.00000],[1.30000 0.00000 0.00000],0.04444,-0.06249,0.06553,-0.13898,0.05236,-0.02019,-0.14294,-0.02898,0.08997,0.80917,7.71148,0.08547,3.02925,2.04335,2.00698,-5.99214,12.27527,7.68745,-6.03283,12.36117,2.02640,2.02640,57.68823,11.98042,57.68822723,11.98042135,A,145213.90
18:41:54.345608,7.73115,0.00907,3.19548,3.19548,[3.00000 0.00000 0.00000],[1.30000 0.00000 0.00000],0.04665,-0.06405,0.07698,-0.20867,0.05236,-0.00767,-0.14019,-0.08211,0.09687,0.92037,7.72193,0.15873,3.06250,2.04523,2.00795,-6.00433,12.30135,7.68745,-6.03283,12.36117,2.02640,2.02640,57.68823,11.98042,57.68822746,11.98042115,A,145213.90
18:41:54.355656,7.74108,0.00864,3.19548,3.19548,[3.00000 0.00000 0.00000],[1.30000 0.00000 0.00000],0.04597,-0.06575,0.08400,-0.20867,0.05236,0.02226,-0.14446,-0.09870,-0.08632,1.01797,7.73208,0.10501,3.08910,2.04696,2.00869,-6.01586,12.32596,7.68745,-6.03283,12.36117,2.02640,2.02640,57.68823,11.98042,57.68822768,11.98042095,A,145213.90
18:41:54.365331,7.75088,0.00824,3.19548,3.19548,[3.00000 0.00000 0.00000],[1.30000 0.00000 0.00000],0.04636,-0.06762,0.07897,-0.21350,0.05236,0.04883,-0.15897,-0.05850,-0.00878,1.15443,7.74252,0.16117,3.11037,2.04846,2.00910,-6.02764,12.35107,7.68745,-6.03283,12.36117,2.02640,2.02640,57.68823,11.98042,57.68822791,11.98042075,A,145213.90
18:41:54.379545,7.76509,0.01216,2.34196,2.34196,[3.00000 0.00000 0.00000],[1.30000 0.00000 0.00000],0.04621,-0.06980,0.07499,-0.20100,0.05236,0.07098,-0.16248,0.19910,-0.02635,1.09403,7.75385,0.12943,2.95669,2.04980,2.00917,-6.03952,12.37637,7.68745,-6.03283,12.36117,2.02640,2.02640,57.68823,11.98042,57.68822814,11.98042055,A,145213.90
18:41:54.398740,7.78428,0.00939,2.34196,2.34196,[3.00000 0.00000 0.00000],[1.30000 0.00000 0.00000],0.04649,-0.07475,0.07041,-0.18833,0.05236,0.00027,-0.18310,0.24778,-0.04246,1.01284,7.77492,0.09524,2.83374,2.05038,2.00686,-6.05823,12.41624,7.68745,-6.03283,12.36117,2.02640,2.02640,57.68823,11.98042,57.68822850,11.98042024,A,145213.90
18:41:54.424567,7.81012,0.02482,2.34196,2.34196,[3.00000 0.00000 0.00000],[1.30000 0.00000 0.00000],0.04746,-0.07693,0.05835,-0.15594,0.05236,-0.03898,-0.17638,0.00329,0.05966,0.97679,7.78515,0.12210,2.73539,2.04995,2.00516,-6.09164,12.48720,7.80417,-6.15170,12.60209,2.02916,2.02916,57.68823,11.98042,57.68822913,11.98041968,A,145214.00
18:41:54.441233,7.82678,0.00814,2.34196,2.34196,[3.00000 0.00000 0.00000],[1.30000 0.00000 0.00000],0.04838,-0.08341,0.05453,-0.14809,0.05236,-0.08800,-0.18188,-0.17501,-0.02532,1.04896,7.81903,0.23443,2.65670,2.05185,2.00328,-6.11059,12.52732,7.80417,-6.15170,12.60209,2.02916,2.02916,57.68823,11.98042,57.68822949,11.98041936,A,145214.00
18:41:54.453312,7.83887,0.00926,2.96872,2.96872,[3.00000 0.00000 0.00000],[1.30000 0.00000 0.00000],0.04901,-0.08528,0.05682,-0.15741,0.05236,-0.04921,-0.19180,-0.02153,0.01043,1.01425,7.83047,0.13675,2.71910,2.05433,2.00466,-6.12275,12.55295,7.80417,-6.15170,12.60209,2.02916,2.02916,57.68823,11.98042,57.68822972,11.98041915,A,145214.00
18:41:54.461998,7.84755,0.00747,2.96872,2.96872,[3.00000 0.00000 0.00000],[1.30000 0.00000 0.00000],0.05001,-0.08695,0.04521,-0.15741,0.05236,-0.02814,-0.19425,-0.02910,0.04337,0.95105,7.83975,0.26862,2.76903,2.05690,2.00625,-6.13215,12.57256,7.80417,-6.15170,12.60209,2.02916,2.02916,57.68823,11.98042,57.68822990,11.98041900,A,145214.00
18:41:54.472779,7.85833,0.00784,2.96872,2.96872,[3.00000 0.00000 0.00000],[1.30000 0.00000 0.00000],0.05159,-0.08862,0.05209,-0.15324,0.05236,-0.00981,-0.19898,0.00098,0.05691,0.84869,7.85033,0.23932,2.80897,2.05896,2.00734,-6.14256,12.59433,7.80417,-6.15170,12.60209,2.02916,2.02916,57.68823,11.98042,57.68823010,11.98041882,A,145214.00
18:41:54.485277,7.87083,0.01030,2.96872,2.96872,[3.00000 0.00000 0.00000],[1.30000 0.00000 0.00000],0.05363,-0.09066,0.04964,-0.15388,0.05236,-0.02325,-0.20585,0.03202,0.08406,0.86095,7.86210,0.10501,2.84092,2.06050,2.00769,-6.15477,12.61989,7.80417,-6.15170,12.60209,2.02916,2.02916,57.68823,11.98042,57.68823033,11.98041862,A,145214.00
18:41:54.503383,7.88893,0.00890,2.96872,2.96872,[3.00000 0.00000 0.00000],[1.30000 0.00000 0.00000],0.05454,-0.09411,0.05300,-0.16752,0.05236,-0.01195,-0.20845,-0.09900,0.00952,1.01687,7.87979,0.13919,2.86648,2.06099,2.00616,-6.17274,12.65780,7.80417,-6.15170,12.60209,2.02916,2.02916,57.68823,11.98042,57.68823067,11.98041831,A,145214.00
18:41:54.512920,7.89846,0.00821,2.96872,2.96872,[3.00000 0.00000 0.00000],[1.30000 0.00000 0.00000],0.05433,-0.09586,0.05896,-0.16752,0.05236,0.00088,-0.20647,-0.08522,-0.04197,1.13692,7.89014,0.29548,2.88693,2.06312,2.00726,-6.18018,12.67328,7.80417,-6.15170,12.60209,2.02916,2.02916,57.68823,11.98042,57.68823081,11.98041819,A,145214.00
18:41:54.535951,7.92151,0.02105,2.96872,2.96872,[3.00000 0.00000 0.00000],[1.30000 0.00000 0.00000],0.05462,-0.09784,0.05193,-0.16461,0.05236,0.02165,-0.20341,0.00030,-0.00073,1.11746,7.90014,0.09035,2.90329,2.05713,2.00012,-6.20913,12.73521,7.91678,-6.26067,12.84301,1.99556,1.99556,57.68823,11.98042,57.68823136,11.98041770,A,145214.10
18:41:54.552696,7.93825,0.00882,2.96872,2.96872,[3.00000 0.00000 0.00000],[1.30000 0.00000 0.00000],0.05665,-0.10339,0.02521,-0.09237,0.05236,-0.02997,-0.23945,0.07338,0.09577,1.03151,7.92988,0.13431,2.91637,2.05396,1.99370,-6.22796,12.77609,7.91678,-6.26067,12.84301,1.99556,1.99556,57.68823,11.98042,57.68823173,11.98041738,A,145214.10
18:41:54.561785,7.94734,0.00768,2.41246,2.41246,[3.00000 0.00000 0.00000],[1.30000 0.00000 0.00000],0.05818,-0.10512,0.03865,-0.09237,0.05236,-0.03043,-0.24648,0.05362,0.10809,0.99918,7.93950,0.07082,2.81559,2.05275,1.99148,-6.23792,12.79795,7.91678,-6.26067,12.84301,1.99556,1.99556,57.68823,11.98042,57.68823193,11.98041722,A,145214.10
18:41:54.572400,7.95795,0.00789,2.41246,2.41246,[3.00000 0.00000 0.00000],[1.30000 0.00000 0.00000],0.05802,-0.10682,0.04185,-0.14763,0.05236,-0.04081,-0.24709,-0.03819,-0.00988,0.96551,7.94990,0.05128,2.73496,2.05169,1.98943,-6.24813,12.82048,7.91678,-6.26067,12.84301,1.99556,1.99556,57.68823,11.98042,57.68823213,11.98041704,A,145214.10
18:41:54.585673,7.97122,0.01076,2.41246,2.41246,[3.00000 0.00000 0.00000],[1.30000 0.00000 0.00000],0.05610,-0.10849,0.03300,-0.11360,0.05236,-0.04295,-0.24800,-0.11907,-0.12334,1.00424,7.96163,0.10256,2.67046,2.05057,1.98733,-6.25943,12.84559,7.91678,-6.26067,12.84301,1.99556,1.99556,57.68823,11.98042,57.68823236,11.98041685,A,145214.10
18:41:54.601389,7.98694,0.00782,2.41246,2.41246,[3.00000 0.00000 0.00000],[1.30000 0.00000 0.00000],0.05594,-0.11100,-0.00427,-0.00117,0.05236,-0.02768,-0.25579,-0.03026,0.01720,0.95447,7.97905,0.11722,2.61886,2.04910,1.98437,-6.27353,12.87719,7.91678,-6.26067,12.84301,1.99556,1.99556,57.68823,11.98042,57.68823264,11.98041662,A,145214.10
18:41:54.611879,7.99743,0.00789,2.41246,2.41246,[3.00000 0.00000 0.00000],[1.30000 0.00000 0.00000],0.05705,-0.11239,-0.00228,-0.01146,0.05236,-0.02172,-0.25671,-0.02379,0.09833,0.97411,7.98936,0.02442,2.57758,2.04911,1.98357,-6.28119,12.89439,7.91678,-6.26067,12.84301,1.99556,1.99556,57.68823,11.98042,57.68823280,11.98041649,A,145214.10
18:41:54.623520,8.00907,0.00899,2.41246,2.41246,[3.00000 0.00000 0.00000],[1.30000 0.00000 0.00000],0.05937,-0.11364,0.01574,-0.07456,0.05236,0.00180,-0.26007,-0.01653,0.15732,0.93623,8.00109,0.00977,2.54456,2.04898,1.98271,-6.28948,12.91309,7.91678,-6.26067,12.84301,1.99556,1.99556,57.68823,11.98042,57.68823296,11.98041635,A,145214.10
18:41:54.632866,8.01842,0.00815,2.41246,2.41246,[3.00000 0.00000 0.00000],[1.30000 0.00000 0.00000],0.05996,-0.11420,0.02872,-0.07456,0.05236,0.01279,-0.26297,-0.06173,0.04691,0.97002,8.01057,0.00977,2.51814,2.04933,1.98273,-6.29539,12.92643,7.91678,-6.26067,12.84301,1.99556,1.99556,57.68823,11.98042,57.68823308,11.98041625,A,145214.10
18:41:54.667295,8.05285,0.03239,2.96558,2.96558,[3.00000 0.00000 0.00000],[1.30000 0.00000 0.00000],0.05934,-0.11460,0.02994,-0.11707,0.05236,0.01966,-0.26801,-0.05642,-0.06082,0.95166,8.02013,0.08791,2.60763,2.04943,1.98260,-6.33657,13.01735,8.04798,-6.49842,13.32486,2.02916,2.02916,57.68824,11.98041,57.68823390,11.98041556,A,145214.30
18:41:54.690528,8.07606,0.01235,2.96558,2.96558,[3.00000 0.00000 0.00000],[1.30000 0.00000 0.00000],0.05949,-0.11774,-0.02152,0.03677,0.05236,-0.06861,-0.28771,-0.03447,0.08833,1.09227,8.06685,0.12210,2.67922,2.05195,1.98328,-6.36588,13.08130,8.04798,-6.49842,13.32486,2.02916,2.02916,57.68824,11.98041,57.68823448,11.98041506,A,145214.30
18:41:54.706026,8.09157,0.00769,2.96558,2.96558,[3.00000 0.00000 0.00000],[1.30000 0.00000 0.00000],0.05926,-0.12034,-0.01129,0.00698,0.05236,-0.04952,-0.29275,-0.01068,0.00012,1.09373,8.08365,0.02198,2.73649,2.05582,1.98561,-6.38668,13.12587,8.04798,-6.49842,13.32486,2.02916,2.02916,57.68824,11.98041,57.68823488,11.98041471,A,145214.30
18:41:54.717118,8.10268,0.00838,2.96558,2.96558,[3.00000 0.00000 0.00000],[1.30000 0.00000 0.00000],0.05816,-0.12134,-0.01404,0.01951,0.05236,-0.04448,-0.30008,-0.00799,-0.06808,1.04786,8.09415,0.01465,2.78231,2.06041,1.98963,-6.40097,13.15558,8.04798,-6.49842,13.32486,2.02916,2.02916,57.68824,11.98041,57.68823514,11.98041447,A,145214.30
18:41:54.727318,8.11287,0.00790,2.75081,2.75081,[3.00000 0.00000 0.00000],[1.30000 0.00000 0.00000],0.05722,-0.12179,-0.02549,0.05751,0.05236,-0.02126,-0.30268,-0.08302,-0.03892,1.00436,8.10466,0.01709,2.77601,2.06423,1.99318,-6.41510,13.18484,8.04798,-6.49842,13.32486,2.02916,2.02916,57.68824,11.98041,57.68823541,11.98041424,A,145214.30
18:41:54.737527,8.12308,0.00771,2.75081,2.75081,[3.00000 0.00000 0.00000],[1.30000 0.00000 0.00000],0.05765,-0.12182,-0.03221,0.07599,0.05236,-0.00019,-0.30039,0.00970,0.04538,0.92061,8.11521,0.00733,2.77097,2.06745,1.99638,-6.42865,13.21272,8.04798,-6.49842,13.32486,2.02916,2.02916,57.68824,11.98041,57.68823566,11.98041401,A,145214.30
18:41:54.748080,8.13363,0.00785,2.75081,2.75081,[3.00000 0.00000 0.00000],[1.30000 0.00000 0.00000],0.05693,-0.12173,-0.02091,0.04489,0.05236,-0.00065,-0.29809,0.10065,-0.03440,0.87919,8.12559,0.00733,2.76694,2.07027,1.99925,-6.44121,13.23835,8.04798,-6.49842,13.32486,2.02916,2.02916,57.68824,11.98041,57.68823589,11.98041380,A,145214.30
18:41:54.758903,8.14445,0.00811,2.75081,2.75081,[3.00000 0.00000 0.00000],[1.30000 0.00000 0.00000],0.05751,-0.12151,-0.01877,0.03622,0.05236,-0.00431,-0.28939,-0.01873,0.03642,0.85040,8.13606,0.00244,2.76371,2.07257,2.00169,-6.45354,13.26340,8.04798,-6.49842,13.32486,2.02916,2.02916,57.68824,11.98041,57.68823611,11.98041359,A,145214.30
18:41:54.784132,8.16969,0.02293,2.75081,2.75081,[3.00000 0.00000 0.00000],[1.30000 0.00000 0.00000],0.05816,-0.12125,-0.02076,0.03964,0.05236,-0.00828,-0.28649,0.01104,0.05215,0.92031,8.14660,0.00733,2.76113,2.06168,1.99094,-6.48716,13.33585,8.16337,-6.60739,13.58431,1.96841,1.96841,57.68824,11.98041,57.68823677,11.98041302,A,145214.40
18:41:54.801510,8.18706,0.00794,2.75081,2.75081,[3.00000 0.00000 0.00000],[1.30000 0.00000 0.00000],0.05680,-0.12117,-0.02412,0.05504,0.05236,0.02547,-0.29809,-0.00976,-0.02739,1.13747,8.17920,0.00000,2.75907,2.05444,1.98376,-6.50977,13.38542,8.16337,-6.60739,13.58431,1.96841,1.96841,57.68824,11.98041,57.68823721,11.98041264,A,145214.40
18:41:54.812307,8.19787,0.00834,2.75081,2.75081,[3.00000 0.00000 0.00000],[1.30000 0.00000 0.00000],0.05506,-0.12117,-0.03954,0.10810,0.05236,0.03234,-0.30359,-0.04929,-0.08601,1.14357,8.18936,0.00000,2.75742,2.05012,1.97943,-6.52323,13.41496,8.16337,-6.60739,13.58431,1.96841,1.96841,57.68824,11.98041,57.68823748,11.98041242,A,145214.40
18:41:54.823210,8.20876,0.00863,2.57852,2.57852,[3.00000 0.00000 0.00000],[1.30000 0.00000 0.00000],0.05366,-0.12114,-0.03420,0.09753,0.05236,0.04547,-0.30848,-0.02983,-0.05606,1.17248,8.19978,0.00000,2.72164,2.04647,1.97580,-6.53583,13.44279,8.16337,-6.60739,13.58431,1.96841,1.96841,57.68824,11.98041,57.68823773,11.98041220,A,145214.40
