Description : again prev intrupted v3 p3 ; walk_time = 2.0 ; speed_up_time = 3.0 ; balancing_time = 0.0
RealTime,Time,CalculationTime,MeasuredVelocity,FilteredVelocity,BalancingGainsInner,BalancingGainsOuter,Roll,SteeringAngle,RollRate,ControlInput,BalancingSetpoint,gy,gz,ax,ay,az,imu_read_timing,SteerMotorCurrent,v_estimated,yaw_estimated,heading_estimated,x_estimated,y_estimated,GPS_timestamp,x_GPS,y_GPS,theta_GPS,theta_GPS_noUnwrap,latitude,longitude,lat_estimated,lon_estimated,status,NMEA timestamp
18:43:54.707078,0.05911,0.05907,0.00000,0.00000,[3.00000 0.00000 0.00000],[1.30000 0.00000 0.00000],-0.00108,0.00464,-0.00665,0.00000,0.00000,-0.00355,-0.00631,0.04819,-0.04252,0.98637,0.00001,0.01709,0.00000,-0.00270,0.00000,0.00000,0.00000,0.02810,0.00000,0.00000,0.00000,0.00000,57.68854,11.98012,57.68854367,11.98012383,A,145414.30
18:43:54.722041,0.07410,0.00680,0.00000,0.00000,[3.00000 0.00000 0.00000],[1.30000 0.00000 0.00000],-0.00239,0.00464,-0.00696,0.00000,0.00000,-0.00049,0.00530,0.07326,-0.03251,0.98375,0.06674,0.00733,0.00000,-0.00270,0.00000,0.00000,0.00000,0.02810,0.00000,0.00000,0.00000,0.00000,57.68854,11.98012,57.68854367,11.98012383,A,145414.30
18:43:54.732669,0.08473,0.00701,0.00000,0.00000,[3.00000 0.00000 0.00000],[1.30000 0.00000 0.00000],-0.00334,0.00473,-0.00512,0.00000,0.00000,-0.00507,0.00148,0.07174,-0.03721,0.97740,0.07729,0.01465,0.00000,-0.00271,0.00004,0.00000,0.00000,0.02810,0.00000,0.00000,0.00000,0.00000,57.68854,11.98012,57.68854367,11.98012383,A,145414.30
18:43:54.743120,0.09518,0.00704,0.00000,0.00000,[3.00000 0.00000 0.00000],[1.30000 0.00000 0.00000],-0.00457,0.00492,-0.01047,0.00000,0.00000,-0.00568,0.00316,0.05905,-0.05228,0.97539,0.08764,0.02198,0.00000,-0.00273,0.00013,0.00000,0.00000,0.02810,0.00000,0.00000,0.00000,0.00000,57.68854,11.98012,57.68854367,11.98012383,A,145414.30
18:43:54.753987,0.10605,0.00736,0.00000,0.00000,[3.00000 0.00000 0.00000],[1.30000 0.00000 0.00000],-0.00575,0.00524,-0.00955,0.00000,0.00000,-0.00492,0.00423,0.05185,-0.05100,0.98186,0.09802,0.01221,0.00000,-0.00278,0.00027,0.00000,0.00000,0.02810,0.00000,0.00000,0.00000,0.00000,57.68854,11.98012,57.68854367,11.98012383,A,145414.30
18:43:54.764213,0.11628,0.00718,0.00000,0.00000,[3.00000 0.00000 0.00000],[1.30000 0.00000 0.00000],-0.00665,0.00558,-0.01352,0.00000,0.00000,-0.00614,0.00041,0.05130,-0.03172,0.99088,0.10863,0.01221,0.00000,-0.00285,0.00040,0.00000,0.00000,0.02810,0.00000,0.00000,0.00000,0.00000,57.68854,11.98012,57.68854367,11.98012383,A,145414.30
18:43:54.775359,0.12742,0.00791,0.00000,0.00000,[3.00000 0.00000 0.00000],[1.30000 0.00000 0.00000],-0.00732,0.00589,-0.01520,0.00000,0.00000,-0.00095,-0.00478,0.06155,-0.01671,0.99759,0.11881,0.00977,0.00000,-0.00293,0.00049,0.00000,0.00000,0.02810,0.00000,0.00000,0.00000,0.00000,57.68854,11.98012,57.68854367,11.98012383,A,145414.30
18:43:54.797926,0.14999,0.02007,0.00000,0.00000,[3.00000 0.00000 0.00000],[1.30000 0.00000 0.00000],-0.00795,0.00609,-0.00940,0.00000,0.00000,0.00226,-0.00570,0.07039,-0.01787,0.99454,0.12944,0.01465,0.00000,0.30623,0.30977,-0.00050,0.00093,0.14625,-0.00991,0.01853,2.06168,2.06168,57.68854,11.98012,57.68854367,11.98012382,A,145414.40
18:43:54.812912,0.16498,0.00698,0.00000,0.00000,[3.00000 0.00000 0.00000],[1.30000 0.00000 0.00000],-0.00939,0.00634,-0.00940,0.00000,0.00000,-0.00187,-0.00539,0.06149,-0.06143,0.98905,0.15772,0.01221,0.00000,0.56899,0.57268,-0.00097,0.00181,0.14625,-0.00991,0.01853,2.06168,2.06168,57.68854,11.98012,57.68854368,11.98012382,A,145414.40
18:43:54.823404,0.17547,0.00706,0.00000,0.00000,[3.00000 0.00000 0.00000],[1.30000 0.00000 0.00000],-0.01055,0.00640,-0.01062,0.00000,0.00000,-0.00477,-0.00555,0.06094,-0.05417,0.98905,0.16795,0.00733,0.00000,0.79234,0.79606,-0.00141,0.00264,0.14625,-0.00991,0.01853,2.06168,2.06168,57.68854,11.98012,57.68854369,11.98012381,A,145414.40
18:43:54.833403,0.18547,0.00670,0.00000,0.00000,[3.00000 0.00000 0.00000],[1.30000 0.00000 0.00000],-0.01145,0.00648,-0.00955,0.00000,0.00000,-0.00446,-0.00264,0.07161,-0.03904,0.98448,0.17809,0.01221,0.00000,0.98217,0.98594,-0.00184,0.00344,0.14625,-0.00991,0.01853,2.06168,2.06168,57.68854,11.98012,57.68854370,11.98012380,A,145414.40
18:43:54.844130,0.19619,0.00701,0.00000,0.00000,[3.00000 0.00000 0.00000],[1.30000 0.00000 0.00000],-0.01224,0.00654,-0.00619,0.00000,0.00000,-0.00599,0.00347,0.08839,-0.03495,0.98228,0.18871,0.01221,0.00000,1.14353,1.14733,-0.00224,0.00419,0.14625,-0.00991,0.01853,2.06168,2.06168,57.68854,11.98012,57.68854370,11.98012380,A,145414.40
18:43:54.855049,0.20712,0.00752,0.00000,0.00000,[3.00000 0.00000 0.00000],[1.30000 0.00000 0.00000],-0.01288,0.00657,-0.00375,0.00000,0.00000,-0.00706,-0.00035,0.08668,-0.02714,0.98619,0.19935,0.01465,0.00000,1.28068,1.28450,-0.00262,0.00491,0.14625,-0.00991,0.01853,2.06168,2.06168,57.68854,11.98012,57.68854371,11.98012379,A,145414.40
18:43:54.864873,0.21693,0.00693,0.00000,0.00000,[3.00000 0.00000 0.00000],[1.30000 0.00000 0.00000],-0.01365,0.00657,-0.00253,0.00000,0.00000,-0.01210,0.00179,0.06179,-0.03764,0.99723,0.20953,0.01221,0.00000,1.39726,1.40107,-0.00299,0.00559,0.14625,-0.00991,0.01853,2.06168,2.06168,57.68854,11.98012,57.68854372,11.98012378,A,145414.40
18:43:54.875426,0.22749,0.00707,0.00000,0.00000,[3.00000 0.00000 0.00000],[1.30000 0.00000 0.00000],-0.01450,0.00657,0.00144,0.00000,0.00000,-0.00874,0.00148,0.04477,-0.04697,1.00375,0.21989,0.01465,0.00000,1.49635,1.50016,-0.00333,0.00624,0.14625,-0.00991,0.01853,2.06168,2.06168,57.68854,11.98012,57.68854372,11.98012378,A,145414.40
18:43:54.885696,0.23776,0.00700,0.00000,0.00000,[3.00000 0.00000 0.00000],[1.30000 0.00000 0.00000],-0.01540,0.00657,0.00007,0.00000,0.00000,-0.00584,-0.00478,0.04685,-0.05094,1.00955,0.23009,0.01465,0.00000,1.58057,1.58439,-0.00366,0.00685,0.14625,-0.00991,0.01853,2.06168,2.06168,57.68854,11.98012,57.68854373,11.98012377,A,145414.40
18:43:54.896183,0.24825,0.00708,0.00000,0.00000,[3.00000 0.00000 0.00000],[1.30000 0.00000 0.00000],-0.01625,0.00657,0.00022,0.00000,0.00000,-0.00126,-0.00387,0.06478,-0.04758,1.00540,0.24070,0.01221,0.00000,1.65217,1.65598,-0.00397,0.00744,0.14625,-0.00991,0.01853,2.06168,2.06168,57.68854,11.98012,57.68854373,11.98012377,A,145414.40
18:43:54.919404,0.27147,0.01989,0.00000,0.00000,[3.00000 0.00000 0.00000],[1.30000 0.00000 0.00000],-0.01703,0.00657,0.00129,0.00000,0.00000,-0.00309,-0.00524,0.08400,-0.04410,0.98460,0.25089,0.00977,0.00000,1.71302,1.71684,-0.00477,0.00892,0.26779,-0.01981,0.03706,2.06168,2.06168,57.68854,11.98012,57.68854375,11.98012375,A,145414.50
18:43:54.935133,0.28720,0.00716,0.00000,0.00000,[3.00000 0.00000 0.00000],[1.30000 0.00000 0.00000],-0.01748,0.00668,0.00709,0.00000,0.00000,-0.00614,-0.00173,0.04947,-0.03422,0.96636,0.27965,0.01954,0.00000,1.76474,1.76862,-0.00552,0.01033,0.26779,-0.01981,0.03706,2.06168,2.06168,57.68854,11.98012,57.68854376,11.98012374,A,145414.50
18:43:54.950462,0.30223,0.01120,0.00000,0.00000,[3.00000 0.00000 0.00000],[1.30000 0.00000 0.00000],-0.01799,0.00688,0.00816,0.00000,0.00000,-0.00523,-0.00203,0.05703,-0.03367,0.97942,0.29328,0.02198,0.00000,1.80868,1.81268,-0.00623,0.01166,0.26779,-0.01981,0.03706,2.06168,2.06168,57.68854,11.98012,57.68854377,11.98012373,A,145414.50
18:43:54.975421,0.32748,0.00926,0.00000,0.00000,[3.00000 0.00000 0.00000],[1.30000 0.00000 0.00000],-0.01860,0.00750,0.01473,0.00000,0.00000,-0.00278,-0.00112,0.07485,-0.05874,0.99662,0.31871,0.00733,0.00000,1.84597,1.85033,-0.00691,0.01293,0.26779,-0.01981,0.03706,2.06168,2.06168,57.68854,11.98012,57.68854378,11.98012372,A,145414.50
18:43:54.988825,0.34086,0.01237,0.00000,0.00000,[3.00000 0.00000 0.00000],[1.30000 0.00000 0.00000],-0.01914,0.00775,0.01519,0.00000,0.00000,-0.00706,0.00117,0.05722,-0.04081,1.00186,0.32962,0.01709,0.00000,1.87765,1.88216,-0.00756,0.01414,0.26779,-0.01981,0.03706,2.06168,2.06168,57.68854,11.98012,57.68854379,11.98012371,A,145414.50
18:43:55.014023,0.36530,0.01171,0.00000,0.00000,[3.00000 0.00000 0.00000],[1.30000 0.00000 0.00000],-0.01921,0.00843,0.02069,0.00000,0.00000,0.00256,0.00453,0.05935,-0.03581,1.01236,0.35640,0.00977,0.00000,1.90452,1.90943,-0.00817,0.01529,0.26779,-0.01981,0.03706,2.06168,2.06168,57.68854,11.98012,57.68854380,11.98012370,A,145414.50
18:43:55.053600,0.40566,0.02498,0.00000,0.00000,[3.00000 0.00000 0.00000],[1.30000 0.00000 0.00000],-0.01953,0.00937,0.01794,0.00000,0.00000,-0.00263,-0.00127,0.08912,-0.04459,0.97216,0.38143,0.01221,0.00000,1.90499,1.91044,-0.00974,0.01915,0.40126,-0.03962,0.09266,1.91311,1.91311,57.68854,11.98012,57.68854384,11.98012367,A,145414.60
18:43:55.079034,0.43110,0.01231,0.00000,0.00000,[3.00000 0.00000 0.00000],[1.30000 0.00000 0.00000],-0.01936,0.01101,0.02450,0.00000,0.00000,-0.00232,-0.00157,0.06362,-0.04788,0.99619,0.42164,0.01221,0.00000,1.90525,1.91165,-0.01124,0.02283,0.40126,-0.03962,0.09266,1.91311,1.91311,57.68854,11.98012,57.68854387,11.98012364,A,145414.60
18:43:55.107889,0.45995,0.01422,0.00000,0.00000,[3.00000 0.00000 0.00000],[1.30000 0.00000 0.00000],-0.01932,0.01180,0.02084,0.00000,0.00000,0.00119,0.00194,0.05020,-0.02971,1.01461,0.44887,0.00733,0.00000,1.90540,1.91226,-0.01266,0.02632,0.40126,-0.03962,0.09266,1.91311,1.91311,57.68854,11.98012,57.68854390,11.98012362,A,145414.60
18:43:55.133943,0.48600,0.01267,0.00000,0.00000,[3.00000 0.00000 0.00000],[1.30000 0.00000 0.00000],-0.01913,0.01206,0.02847,0.00000,0.00000,0.00501,0.00377,0.08625,-0.03190,0.97728,0.47575,0.02198,0.00000,1.90551,1.91252,-0.01400,0.02964,0.40126,-0.03962,0.09266,1.91311,1.91311,57.68854,11.98012,57.68854393,11.98012360,A,145414.60
18:43:55.183616,0.53568,0.03757,0.00000,0.00000,[3.00000 0.00000 0.00000],[1.30000 0.00000 0.00000],-0.01916,0.01206,0.03077,0.00000,0.00000,-0.00553,-0.00585,0.07314,-0.04691,0.97277,0.50143,0.01221,0.00000,1.91144,1.91845,-0.01677,0.03650,0.53183,-0.06934,0.16679,1.95207,1.95207,57.68855,11.98012,57.68854399,11.98012355,A,145414.80
18:43:55.208874,0.56037,0.01097,0.00000,0.00000,[3.00000 0.00000 0.00000],[1.30000 0.00000 0.00000],-0.01789,0.01206,0.03443,0.00000,0.00000,-0.00339,-0.00295,0.06972,-0.02056,0.99656,0.55042,0.01221,0.00000,1.91648,1.92349,-0.01940,0.04301,0.53183,-0.06934,0.16679,1.95207,1.95207,57.68855,11.98012,57.68854405,11.98012351,A,145414.80
18:43:55.236873,0.58890,0.01244,0.00000,0.00000,[3.00000 0.00000 0.00000],[1.30000 0.00000 0.00000],-0.01744,0.01206,0.04588,0.00000,0.00000,-0.00752,-0.00264,0.06161,-0.04654,0.96966,0.57849,0.01221,0.00000,1.92077,1.92778,-0.02190,0.04920,0.53183,-0.06934,0.16679,1.95207,1.95207,57.68855,11.98012,57.68854411,11.98012346,A,145414.80
18:43:55.263994,0.61603,0.01390,0.00000,0.00000,[3.00000 0.00000 0.00000],[1.30000 0.00000 0.00000],-0.01716,0.01209,0.04115,0.00000,0.00000,-0.00996,-0.00005,0.06344,-0.04605,0.99399,0.60511,0.01221,0.00000,1.92441,1.93144,-0.02427,0.05508,0.53183,-0.06934,0.16679,1.95207,1.95207,57.68855,11.98012,57.68854416,11.98012343,A,145414.80
18:43:55.301495,0.65356,0.02541,0.00000,0.00000,[3.00000 0.00000 0.00000],[1.30000 0.00000 0.00000],-0.01633,0.01245,0.05031,0.00000,0.00000,-0.00981,-0.00157,0.05307,-0.02019,1.00345,0.63031,0.01954,0.00000,1.94391,1.95116,-0.02801,0.06344,0.64993,-0.09906,0.22239,2.06168,2.06168,57.68855,11.98012,57.68854424,11.98012336,A,145414.90
18:43:55.325324,0.67695,0.01114,0.63854,0.63854,[3.00000 0.00000 0.00000],[1.30000 0.00000 0.00000],-0.01500,0.01276,0.05108,0.00000,0.00000,-0.00981,-0.00600,0.05447,-0.02538,0.99424,0.66695,0.00733,0.12771,1.96047,1.96789,-0.03156,0.07139,0.64993,-0.09906,0.22239,2.06168,2.06168,57.68855,11.98012,57.68854431,11.98012330,A,145414.90
18:43:55.349926,0.70199,0.01220,0.63854,0.63854,[3.00000 0.00000 0.00000],[1.30000 0.00000 0.00000],-0.01470,0.01276,0.04726,0.00000,0.00000,-0.01531,-0.00600,0.05813,-0.04038,0.97862,0.68987,0.01221,0.22988,1.97456,1.98198,-0.03594,0.08134,0.64993,-0.09906,0.22239,2.06168,2.06168,57.68855,11.98012,57.68854440,11.98012323,A,145414.90
18:43:55.373843,0.72589,0.01326,0.63854,0.63854,[3.00000 0.00000 0.00000],[1.30000 0.00000 0.00000],-0.01400,0.01276,0.04344,0.00000,0.00000,-0.01500,-0.00432,0.03477,-0.01653,0.97752,0.71569,0.01465,0.31161,1.98656,1.99398,-0.04093,0.09259,0.64993,-0.09906,0.22239,2.06168,2.06168,57.68855,11.98012,57.68854450,11.98012314,A,145414.90
18:43:55.399859,0.75192,0.01391,0.63854,0.63854,[3.00000 0.00000 0.00000],[1.30000 0.00000 0.00000],-0.01345,0.01276,0.04817,0.00000,0.00000,-0.00736,-0.00219,0.04801,-0.03337,0.99753,0.74138,0.01465,0.37700,1.99678,2.00420,-0.04653,0.10506,0.64993,-0.09906,0.22239,2.06168,2.06168,57.68855,11.98012,57.68854461,11.98012305,A,145414.90
18:43:55.438879,0.79095,0.02657,0.63854,0.63854,[3.00000 0.00000 0.00000],[1.30000 0.00000 0.00000],-0.01276,0.01276,0.04054,0.00000,0.00000,-0.00339,-0.00310,0.02952,-0.01189,1.00003,0.76748,0.01221,0.42931,1.97108,1.97850,-0.05584,0.12693,0.78710,-0.11887,0.29652,1.83195,1.83195,57.68855,11.98012,57.68854481,11.98012289,A,145415.00
18:43:55.464142,0.81621,0.01212,0.63854,0.63854,[3.00000 0.00000 0.00000],[1.30000 0.00000 0.00000],-0.01187,0.01276,0.04252,0.00000,0.00000,-0.00309,-0.01196,0.04581,-0.03733,0.99961,0.80661,0.01221,0.47115,1.94918,1.95661,-0.06259,0.14375,0.78710,-0.11887,0.29652,1.83195,1.83195,57.68855,11.98012,57.68854496,11.98012278,A,145415.00
18:43:55.490658,0.84158,0.01199,0.63854,0.63854,[3.00000 0.00000 0.00000],[1.30000 0.00000 0.00000],-0.01154,0.01276,0.03153,0.00000,0.00000,0.00088,-0.01058,0.04703,-0.01610,0.97576,0.83159,0.00977,0.50463,1.93058,1.93801,-0.06912,0.16054,0.78710,-0.11887,0.29652,1.83195,1.83195,57.68855,11.98012,57.68854511,11.98012267,A,145415.00
18:43:55.515833,0.86789,0.01240,0.63854,0.63854,[3.00000 0.00000 0.00000],[1.30000 0.00000 0.00000],-0.01109,0.01276,0.03412,0.00000,0.00000,-0.00446,-0.00661,0.05545,-0.01458,0.98137,0.85764,0.00733,0.53141,1.91478,1.92220,-0.07542,0.17725,0.78710,-0.11887,0.29652,1.83195,1.83195,57.68855,11.98012,57.68854526,11.98012256,A,145415.00
18:43:55.566517,0.91857,0.03764,0.63854,0.63854,[3.00000 0.00000 0.00000],[1.30000 0.00000 0.00000],-0.01060,0.01276,0.03000,0.00000,0.00000,-0.00477,-0.01196,0.04520,-0.00268,0.99839,0.88264,0.00488,0.55284,1.91951,1.92693,-0.08906,0.21380,0.91474,-0.17831,0.44478,1.95207,1.95207,57.68855,11.98012,57.68854559,11.98012233,A,145415.20
18:43:55.591530,0.94359,0.01165,0.63854,0.63854,[3.00000 0.00000 0.00000],[1.30000 0.00000 0.00000],-0.01006,0.01276,0.01977,0.00000,0.00000,-0.00736,-0.01562,0.04050,-0.01726,0.99503,0.93450,0.00733,0.56998,1.92339,1.93082,-0.09760,0.23632,0.91474,-0.17831,0.44478,1.95207,1.95207,57.68855,11.98012,57.68854579,11.98012219,A,145415.20
18:43:55.616944,0.96901,0.01152,0.82966,0.82966,[3.00000 0.00000 0.00000],[1.30000 0.00000 0.00000],-0.00984,0.01276,0.01565,0.00000,0.00000,-0.00507,-0.00616,0.04715,0.00342,0.99076,0.96052,0.00977,0.62192,1.92671,1.93413,-0.10613,0.25866,0.91474,-0.17831,0.44478,1.95207,1.95207,57.68855,11.98012,57.68854599,11.98012205,A,145415.20
18:43:55.643714,0.99578,0.01260,0.82966,0.82966,[3.00000 0.00000 0.00000],[1.30000 0.00000 0.00000],-0.00978,0.01276,0.02114,0.00000,0.00000,-0.00843,-0.00753,0.06539,-0.01635,0.98045,0.98677,0.01709,0.66346,1.92954,1.93696,-0.11474,0.28112,0.91474,-0.17831,0.44478,1.95207,1.95207,57.68855,11.98012,57.68854619,11.98012190,A,145415.20
18:43:55.684119,1.03618,0.02662,0.82966,0.82966,[3.00000 0.00000 0.00000],[1.30000 0.00000 0.00000],-0.00996,0.01276,0.01137,0.00000,0.00000,-0.01744,-0.01120,0.03532,-0.01488,0.98045,1.01165,0.00977,0.69670,1.92141,1.92883,-0.12809,0.31660,1.03227,-0.20803,0.53744,1.88115,1.88115,57.68855,11.98012,57.68854651,11.98012168,A,145415.30
18:43:55.709854,1.06191,0.01144,0.82966,0.82966,[3.00000 0.00000 0.00000],[1.30000 0.00000 0.00000],-0.01019,0.01276,0.00068,0.00000,0.00000,-0.02523,-0.01272,0.06143,-0.00183,0.99149,1.05135,0.01221,0.72329,1.91440,1.92182,-0.13703,0.34086,1.03227,-0.20803,0.53744,1.88115,1.88115,57.68855,11.98012,57.68854673,11.98012153,A,145415.30
18:43:55.736249,1.08831,0.01379,0.82966,0.82966,[3.00000 0.00000 0.00000],[1.30000 0.00000 0.00000],-0.01052,0.01276,-0.00008,0.00000,0.00000,-0.01882,-0.01196,0.02702,-0.00701,0.99973,1.07741,0.01709,0.74457,1.90845,1.91587,-0.14595,0.36534,1.03227,-0.20803,0.53744,1.88115,1.88115,57.68855,11.98012,57.68854695,11.98012138,A,145415.30
18:43:55.761560,1.11362,0.01272,0.82966,0.82966,[3.00000 0.00000 0.00000],[1.30000 0.00000 0.00000],-0.01104,0.01276,-0.00436,0.00000,0.00000,-0.01072,-0.00570,0.05161,-0.01232,1.01736,1.10377,0.00488,0.76158,1.90340,1.91082,-0.15433,0.38864,1.03227,-0.20803,0.53744,1.88115,1.88115,57.68855,11.98012,57.68854716,11.98012124,A,145415.30
18:43:55.799521,1.15158,0.02586,0.82966,0.82966,[3.00000 0.00000 0.00000],[1.30000 0.00000 0.00000],-0.01181,0.01276,-0.01032,0.00000,0.00000,-0.00828,-0.00707,0.04398,-0.02135,1.00723,1.12747,0.01709,0.77520,1.91327,1.92069,-0.16775,0.42546,1.14780,-0.24765,0.63010,1.97488,1.97488,57.68855,11.98012,57.68854749,11.98012101,A,145415.40
18:43:55.825769,1.17781,0.01319,0.82966,0.82966,[3.00000 0.00000 0.00000],[1.30000 0.00000 0.00000],-0.01275,0.01276,-0.01704,0.00000,0.00000,0.00119,-0.01165,0.04673,-0.00500,0.99942,1.16680,0.01709,0.78609,1.92155,1.92898,-0.17725,0.45076,1.14780,-0.24765,0.63010,1.97488,1.97488,57.68855,11.98012,57.68854772,11.98012085,A,145415.40
18:43:55.853405,1.20546,0.01224,1.07265,1.07265,[3.00000 0.00000 0.00000],[1.30000 0.00000 0.00000],-0.01356,0.01276,-0.02330,0.00000,0.00000,-0.01225,-0.01394,0.01909,0.00116,1.01766,1.19443,0.01221,0.84340,1.92862,1.93604,-0.18708,0.47659,1.14780,-0.24765,0.63010,1.97488,1.97488,57.68855,11.98012,57.68854795,11.98012069,A,145415.40
18:43:55.879252,1.23131,0.01153,1.07265,1.07265,[3.00000 0.00000 0.00000],[1.30000 0.00000 0.00000],-0.01449,0.01276,-0.01413,0.00000,0.00000,-0.00614,-0.01043,0.04410,-0.02434,0.98625,1.22108,0.00977,0.88925,1.93462,1.94204,-0.19634,0.50056,1.14780,-0.24765,0.63010,1.97488,1.97488,57.68855,11.98012,57.68854817,11.98012053,A,145415.40
18:43:55.920045,1.27211,0.02651,1.07265,1.07265,[3.00000 0.00000 0.00000],[1.30000 0.00000 0.00000],-0.01563,0.01276,-0.01413,0.00000,0.00000,-0.00874,-0.00677,0.01854,-0.03910,0.97582,1.24792,0.01221,0.92593,1.95289,1.96031,-0.21337,0.54246,1.26832,-0.29718,0.72277,2.06168,2.06168,57.68855,11.98012,57.68854855,11.98012024,A,145415.50
18:43:55.947215,1.29925,0.01343,1.07265,1.07265,[3.00000 0.00000 0.00000],[1.30000 0.00000 0.00000],-0.01627,0.01276,-0.01154,0.00000,0.00000,-0.01424,-0.00997,0.06149,-0.00104,0.97216,1.28946,0.00733,0.95527,1.96830,1.97572,-0.22538,0.57052,1.26832,-0.29718,0.72277,2.06168,2.06168,57.68855,11.98012,57.68854880,11.98012004,A,145415.50
18:43:55.974492,1.32652,0.01278,1.07265,1.07265,[3.00000 0.00000 0.00000],[1.30000 0.00000 0.00000],-0.01712,0.01276,-0.01306,0.00000,0.00000,-0.01897,-0.01532,0.01708,-0.02379,0.99607,1.31632,0.01465,0.97875,1.98142,1.98884,-0.23774,0.59859,1.26832,-0.29718,0.72277,2.06168,2.06168,57.68855,11.98012,57.68854905,11.98011983,A,145415.50
18:43:55.998551,1.35058,0.01055,1.07265,1.07265,[3.00000 0.00000 0.00000],[1.30000 0.00000 0.00000],-0.01811,0.01276,-0.02009,0.00000,0.00000,-0.02248,-0.01364,0.04508,-0.02562,0.99168,1.34038,0.00977,0.99753,1.99255,1.99997,-0.24928,0.62409,1.26832,-0.29718,0.72277,2.06168,2.06168,57.68855,11.98012,57.68854928,11.98011964,A,145415.50
18:43:56.039593,1.39166,0.02688,1.07265,1.07265,[3.00000 0.00000 0.00000],[1.30000 0.00000 0.00000],-0.01899,0.01276,-0.00986,0.00000,0.00000,-0.02584,-0.01043,0.02629,-0.03422,1.04560,1.36779,0.01709,1.01255,1.96014,1.96757,-0.26829,0.66780,1.38788,-0.31699,0.81543,1.78143,1.78143,57.68855,11.98012,57.68854967,11.98011932,A,145415.60
18:43:56.067444,1.41950,0.01421,1.12571,1.12571,[3.00000 0.00000 0.00000],[1.30000 0.00000 0.00000],-0.02001,0.01276,-0.01138,0.00000,0.00000,-0.03501,-0.01257,0.03599,-0.03154,1.02382,1.40888,0.01709,1.03518,1.93244,1.93987,-0.27929,0.69562,1.38788,-0.31699,0.81543,1.78143,1.78143,57.68855,11.98012,57.68854992,11.98011913,A,145415.60
18:43:56.087029,1.43819,0.01012,1.12571,1.12571,[3.00000 0.00000 0.00000],[1.30000 0.00000 0.00000],-0.02069,0.01276,-0.00802,0.00000,0.00000,-0.02294,-0.01425,0.01757,-0.02873,0.99332,1.42860,0.00977,1.05329,1.90884,1.91626,-0.28687,0.71635,1.38788,-0.31699,0.81543,1.78143,1.78143,57.68855,11.98012,57.68855011,11.98011901,A,145415.60
18:43:56.114453,1.46650,0.01356,1.12571,1.12571,[3.00000 0.00000 0.00000],[1.30000 0.00000 0.00000],-0.02125,0.01276,-0.00787,0.00000,0.00000,-0.02630,-0.01120,0.03727,-0.01732,0.96551,1.45584,0.00977,1.06777,1.88886,1.89628,-0.29679,0.74469,1.38788,-0.31699,0.81543,1.78143,1.78143,57.68855,11.98012,57.68855036,11.98011884,A,145415.60
18:43:56.140355,1.49239,0.01274,1.12571,1.12571,[3.00000 0.00000 0.00000],[1.30000 0.00000 0.00000],-0.02154,0.01276,0.00175,0.00000,0.00000,-0.01408,-0.01226,0.06801,-0.01720,0.97490,1.48133,0.01221,1.07936,1.87186,1.87928,-0.30502,0.76960,1.38788,-0.31699,0.81543,1.78143,1.78143,57.68855,11.98012,57.68855059,11.98011870,A,145415.60
18:43:56.188864,1.54093,0.03606,1.12571,1.12571,[3.00000 0.00000 0.00000],[1.30000 0.00000 0.00000],-0.02174,0.01276,0.00587,0.00000,0.00000,-0.02309,-0.00707,0.05313,-0.01824,0.99900,1.50648,0.01465,1.08863,1.89333,1.90075,-0.32488,0.82761,1.53720,-0.40615,1.00075,2.01918,2.01918,57.68855,11.98012,57.68855111,11.98011837,A,145415.80
18:43:56.215394,1.56745,0.01286,1.12571,1.12571,[3.00000 0.00000 0.00000],[1.30000 0.00000 0.00000],-0.02140,0.01276,0.01427,0.00000,0.00000,-0.02493,-0.00478,0.06149,-0.01891,1.00168,1.55505,0.01221,1.09605,1.91132,1.91874,-0.33646,0.85821,1.53720,-0.40615,1.00075,2.01918,2.01918,57.68855,11.98012,57.68855138,11.98011817,A,145415.80
18:43:56.241165,1.59320,0.01293,1.43283,1.43283,[3.00000 0.00000 0.00000],[1.30000 0.00000 0.00000],-0.02090,0.01276,0.02389,0.00000,0.00000,-0.03226,-0.00005,0.03727,-0.00494,0.97234,1.58297,0.01465,1.16340,1.92662,1.93404,-0.34792,0.88735,1.53720,-0.40615,1.00075,2.01918,2.01918,57.68855,11.98012,57.68855165,11.98011798,A,145415.80
18:43:56.268380,1.62044,0.01381,1.43283,1.43283,[3.00000 0.00000 0.00000],[1.30000 0.00000 0.00000],-0.02075,0.01279,0.02374,0.00000,0.00000,-0.02691,0.00285,0.04117,-0.02544,0.96874,1.60997,0.00977,1.21729,1.93966,1.94710,-0.36053,0.91852,1.53720,-0.40615,1.00075,2.01918,2.01918,57.68855,11.98012,57.68855193,11.98011777,A,145415.80
18:43:56.310489,1.66254,0.02734,3.88419,1.43283,[3.00000 0.00000 0.00000],[1.30000 0.00000 0.00000],-0.02018,0.01319,0.02007,0.00000,0.00000,-0.02645,0.00469,0.02428,0.00458,0.98051,1.63993,0.00977,1.26040,1.92282,1.93049,-0.38146,0.97164,1.65880,-0.43586,1.11195,1.83195,1.83195,57.68855,11.98012,57.68855240,11.98011742,A,145415.90
18:43:56.337379,1.68944,0.01571,3.88419,1.43283,[3.00000 0.00000 0.00000],[1.30000 0.00000 0.00000],-0.01984,0.01333,0.01656,0.00000,0.00000,-0.02203,-0.00249,0.07741,-0.01275,1.02297,1.67863,0.01221,1.29488,1.90831,1.91607,-0.39407,1.00494,1.65880,-0.43586,1.11195,1.83195,1.83195,57.68855,11.98012,57.68855270,11.98011720,A,145415.90
18:43:56.364117,1.71618,0.01316,3.88419,1.43283,[3.00000 0.00000 0.00000],[1.30000 0.00000 0.00000],-0.01951,0.01336,0.01244,0.00000,0.00000,-0.01836,-0.00081,0.02965,0.00531,1.01443,1.70755,0.01221,1.32247,1.89601,1.90378,-0.40638,1.03872,1.65880,-0.43586,1.11195,1.83195,1.83195,57.68855,11.98012,57.68855301,11.98011700,A,145415.90
18:43:56.392929,1.74496,0.01336,3.88419,1.43283,[3.00000 0.00000 0.00000],[1.30000 0.00000 0.00000],-0.01938,0.01373,0.01412,0.00000,0.00000,-0.02462,0.00881,0.03196,-0.00805,0.99052,1.73361,0.00977,1.34454,1.88553,1.89351,-0.41810,1.07201,1.65880,-0.43586,1.11195,1.83195,1.83195,57.68855,11.98012,57.68855331,11.98011680,A,145415.90
18:43:56.435364,1.78743,0.02995,3.88419,1.43283,[3.00000 0.00000 0.00000],[1.30000 0.00000 0.00000],-0.01946,0.01455,0.01152,0.00000,0.00000,-0.01393,0.00408,0.02910,-0.01995,0.99729,1.76286,0.00977,1.36220,1.89823,1.90669,-0.43770,1.12866,1.78364,-0.47549,1.20461,1.97488,1.97488,57.68855,11.98012,57.68855382,11.98011647,A,145416.00
18:43:56.462908,1.81393,0.01304,1.56995,1.56995,[3.00000 0.00000 0.00000],[1.30000 0.00000 0.00000],-0.01945,0.01627,0.00480,0.00000,0.00000,-0.02905,-0.00677,0.05594,-0.00348,0.96905,1.80489,0.01221,1.40375,1.90865,1.91812,-0.44975,1.16155,1.78364,-0.47549,1.20461,1.97488,1.97488,57.68855,11.98012,57.68855411,11.98011627,A,145416.00
18:43:56.485265,1.83733,0.01074,1.56995,1.56995,[3.00000 0.00000 0.00000],[1.30000 0.00000 0.00000],-0.01971,0.01752,0.00847,0.00000,0.00000,-0.03302,0.00056,0.04453,-0.02245,0.98887,1.82936,0.01709,1.43699,1.91744,1.92762,-0.46115,1.19166,1.78364,-0.47549,1.20461,1.97488,1.97488,57.68855,11.98012,57.68855438,11.98011607,A,145416.00
18:43:56.509549,1.86161,0.01154,1.56995,1.56995,[3.00000 0.00000 0.00000],[1.30000 0.00000 0.00000],-0.02007,0.01823,0.01198,0.00000,0.00000,-0.03088,0.00835,0.05746,-0.03306,1.02340,1.85106,0.00977,1.46358,1.92486,1.93546,-0.47206,1.21963,1.78364,-0.47549,1.20461,1.97488,1.97488,57.68855,11.98012,57.68855464,11.98011589,A,145416.00
18:43:56.549507,1.90157,0.02657,1.56995,1.56995,[3.00000 0.00000 0.00000],[1.30000 0.00000 0.00000],-0.02001,0.01831,0.01000,0.00000,0.00000,-0.03241,0.00682,0.07253,-0.00476,0.99308,1.87748,0.01954,1.48486,1.93377,1.94442,-0.49374,1.27432,1.89784,-0.52502,1.31581,1.98985,1.98985,57.68856,11.98012,57.68855513,11.98011553,A,145416.10
18:43:56.576294,1.92835,0.01246,1.56995,1.56995,[3.00000 0.00000 0.00000],[1.30000 0.00000 0.00000],-0.02029,0.01874,0.01290,0.00000,0.00000,-0.04738,0.00102,0.00988,-0.04483,1.00113,1.91781,0.00977,1.50188,1.94101,1.95190,-0.50710,1.30647,1.89784,-0.52502,1.31581,1.98985,1.98985,57.68856,11.98012,57.68855542,11.98011530,A,145416.10
18:43:56.602441,1.95315,0.01308,1.56995,1.56995,[3.00000 0.00000 0.00000],[1.30000 0.00000 0.00000],-0.02068,0.01942,-0.00069,0.00000,0.00000,-0.01561,0.00148,0.02653,-0.01684,1.01205,1.94406,0.01954,1.51549,1.94709,1.95838,-0.51950,1.33564,1.89784,-0.52502,1.31581,1.98985,1.98985,57.68856,11.98012,57.68855568,11.98011509,A,145416.10
18:43:56.627973,1.98003,0.01259,1.46855,1.46855,[3.00000 0.00000 0.00000],[1.30000 0.00000 0.00000],-0.01992,0.01956,0.00175,0.00000,0.00000,0.00073,0.00438,0.04410,0.05386,0.97435,1.96964,0.01221,1.50610,1.95230,1.96367,-0.53229,1.36531,1.89784,-0.52502,1.31581,1.98985,1.98985,57.68856,11.98012,57.68855595,11.98011488,A,145416.10
18:43:56.678300,2.03014,0.03645,1.46855,1.46855,[3.00000 0.00000 0.00000],[1.30000 0.00000 0.00000],-0.02038,0.01956,-0.00482,0.00000,0.00000,-0.02035,0.00117,0.06997,-0.01366,0.98204,1.99646,0.01465,1.49859,1.96277,1.97414,-0.56413,1.43852,2.02654,-0.63398,1.53820,2.02639,2.02639,57.68856,11.98011,57.68855660,11.98011434,A,145416.30
18:43:56.707237,2.05821,0.01427,1.46855,1.46855,[3.00000 0.00000 0.00000],[1.30000 0.00000 0.00000],-0.02121,0.01987,0.00022,0.00000,0.00000,-0.01653,0.01248,0.01897,-0.04947,1.02285,2.04483,0.02198,1.49258,1.97104,1.98260,-0.57958,1.47153,2.02654,-0.63398,1.53820,2.02639,2.02639,57.68856,11.98011,57.68855690,11.98011408,A,145416.30
18:43:56.731084,2.08311,0.01231,1.46855,1.46855,[3.00000 0.00000 0.00000],[1.30000 0.00000 0.00000],-0.02157,0.02043,-0.01322,0.00000,0.00000,-0.00049,0.01202,-0.00165,0.00732,1.11276,2.07234,0.03663,1.48778,1.97808,1.98996,-0.59565,1.50542,2.02654,-0.63398,1.53820,2.02639,2.02639,57.68856,11.98011,57.68855721,11.98011381,A,145416.30
18:43:56.759534,2.11159,0.01484,1.46855,1.46855,[3.00000 0.00000 0.00000],[1.30000 0.00000 0.00000],-0.02152,0.02063,-0.00757,0.00000,0.00000,0.00333,0.01522,-0.06057,0.02361,0.96264,2.10037,0.02930,1.48393,1.98408,1.99607,-0.61163,1.53863,2.02654,-0.63398,1.53820,2.02639,2.02639,57.68856,11.98011,57.68855750,11.98011354,A,145416.30
18:43:56.800639,2.15271,0.02891,1.46855,1.46855,[3.00000 0.00000 0.00000],[1.30000 0.00000 0.00000],-0.02218,0.02063,-0.03261,0.00000,0.00000,-0.00278,0.01034,0.06057,0.01885,0.91482,2.12739,0.02686,1.48085,1.97591,1.98790,-0.63871,1.59693,2.14695,-0.68351,1.66792,1.93552,1.93552,57.68856,11.98011,57.68855803,11.98011309,A,145416.40
18:43:56.827570,2.17963,0.01337,1.26523,1.26523,[3.00000 0.00000 0.00000],[1.30000 0.00000 0.00000],-0.02377,0.02063,-0.02284,0.00000,0.00000,-0.03501,-0.01578,-0.16964,-0.04130,1.03352,2.16779,0.01954,1.43773,1.96856,1.98056,-0.65394,1.62981,2.14695,-0.68351,1.66792,1.93552,1.93552,57.68856,11.98011,57.68855832,11.98011283,A,145416.40
18:43:56.852770,2.20483,0.01318,1.26523,1.26523,[3.00000 0.00000 0.00000],[1.30000 0.00000 0.00000],-0.02632,0.02066,-0.03429,0.00000,0.00000,-0.00859,0.00041,-0.17782,-0.11932,1.10861,2.19448,0.02442,1.40323,1.96229,1.97430,-0.66746,1.65944,2.14695,-0.68351,1.66792,1.93552,1.93552,57.68856,11.98011,57.68855859,11.98011260,A,145416.40
18:43:56.879184,2.23124,0.01257,1.26523,1.26523,[3.00000 0.00000 0.00000],[1.30000 0.00000 0.00000],-0.02985,0.02066,-0.02207,0.00000,0.00000,-0.01286,-0.00219,-0.24168,-0.20478,1.02675,2.22038,0.03663,1.37563,1.95694,1.96895,-0.67971,1.68667,2.14695,-0.68351,1.66792,1.93552,1.93552,57.68856,11.98011,57.68855884,11.98011240,A,145416.40
18:43:56.919573,2.27164,0.02635,1.26523,1.26523,[3.00000 0.00000 0.00000],[1.30000 0.00000 0.00000],-0.02868,0.02066,0.00389,0.00000,0.00000,0.02196,0.00209,0.15683,0.05996,0.86657,2.24657,0.05128,1.35355,1.94252,1.95453,-0.70203,1.74011,2.26680,-0.72314,1.79765,1.86724,1.86724,57.68856,11.98011,57.68855932,11.98011202,A,145416.50
18:43:56.947024,2.29905,0.01344,1.26523,1.26523,[3.00000 0.00000 0.00000],[1.30000 0.00000 0.00000],-0.02771,0.02066,0.00602,0.00000,0.00000,-0.00935,0.00942,-0.15030,0.05069,1.08013,2.28829,0.03663,1.33589,1.92989,1.94190,-0.71390,1.76979,2.26680,-0.72314,1.79765,1.86724,1.86724,57.68856,11.98011,57.68855958,11.98011182,A,145416.50
18:43:56.975707,2.32777,0.01255,1.52781,1.52781,[3.00000 0.00000 0.00000],[1.30000 0.00000 0.00000],-0.02697,0.02066,0.01106,0.00000,0.00000,0.00531,0.01354,0.10285,0.02678,0.92507,2.31797,0.02442,1.37427,1.91922,1.93124,-0.72645,1.80224,2.26680,-0.72314,1.79765,1.86724,1.86724,57.68856,11.98011,57.68855987,11.98011161,A,145416.50
18:43:57.000625,2.35269,0.01111,1.52781,1.52781,[3.00000 0.00000 0.00000],[1.30000 0.00000 0.00000],-0.02665,0.02066,0.02298,0.00000,0.00000,-0.03317,0.00820,0.02574,-0.01549,0.95380,2.34393,0.01465,1.40498,1.91010,1.92212,-0.73678,1.82985,2.26680,-0.72314,1.79765,1.86724,1.86724,57.68856,11.98011,57.68856012,11.98011144,A,145416.50
18:43:57.041131,2.39319,0.02626,1.52781,1.52781,[3.00000 0.00000 0.00000],[1.30000 0.00000 0.00000],-0.02598,0.02066,0.01962,0.00000,0.00000,-0.01912,-0.00112,-0.04386,0.01629,1.02876,2.36814,0.01465,1.42955,1.94188,1.95389,-0.75744,1.88256,2.38833,-0.79248,1.90885,2.12839,2.12839,57.68856,11.98011,57.68856060,11.98011109,A,145416.60
18:43:57.068279,2.42034,0.01326,1.52781,1.52781,[3.00000 0.00000 0.00000],[1.30000 0.00000 0.00000],-0.02545,0.02066,-0.00604,0.00000,0.00000,-0.00064,-0.00356,0.07607,0.05392,0.99851,2.40881,0.02198,1.44920,1.96856,1.98058,-0.77098,1.91314,2.38833,-0.79248,1.90885,2.12839,2.12839,57.68856,11.98011,57.68856087,11.98011086,A,145416.60
18:43:57.091983,2.44404,0.01048,1.52781,1.52781,[3.00000 0.00000 0.00000],[1.30000 0.00000 0.00000],-0.02645,0.02066,0.01198,0.00000,0.00000,0.00730,0.00316,0.04429,-0.07765,0.92873,2.43468,0.01221,1.46492,1.99119,2.00321,-0.78346,1.93917,2.38833,-0.79248,1.90885,2.12839,2.12839,57.68856,11.98011,57.68856111,11.98011065,A,145416.60
18:43:57.114623,2.46667,0.01166,1.52781,1.52781,[3.00000 0.00000 0.00000],[1.30000 0.00000 0.00000],-0.02650,0.02066,-0.01200,0.00000,0.00000,-0.00187,-0.00692,0.14286,0.01464,0.93763,2.45597,0.02442,1.47750,2.01042,2.02243,-0.79550,1.96277,2.38833,-0.79248,1.90885,2.12839,2.12839,57.68856,11.98011,57.68856132,11.98011045,A,145416.60
18:43:57.139784,2.49184,0.01279,1.52781,1.52781,[3.00000 0.00000 0.00000],[1.30000 0.00000 0.00000],-0.02653,0.02066,-0.00329,0.00000,0.00000,-0.01240,-0.00784,0.01543,0.00525,1.03352,2.48002,0.01465,1.48756,2.02680,2.03881,-0.80861,1.98740,2.38833,-0.79248,1.90885,2.12839,2.12839,57.68856,11.98011,57.68856154,11.98011023,A,145416.60
18:43:57.191248,2.54331,0.03848,1.39960,1.39960,[3.00000 0.00000 0.00000],[1.30000 0.00000 0.00000],-0.02676,0.02066,-0.01230,0.00000,0.00000,0.02455,-0.00738,0.12956,0.00799,1.02468,2.50707,0.02686,1.46997,2.00909,2.02111,-0.84395,2.05827,2.53849,-0.87173,2.13124,1.91311,1.91311,57.68856,11.98011,57.68856218,11.98010963,A,145416.80
18:43:57.217310,2.56937,0.01313,1.39960,1.39960,[3.00000 0.00000 0.00000],[1.30000 0.00000 0.00000],-0.02607,0.02066,0.01504,0.00000,0.00000,-0.01515,0.00133,0.11029,-0.00275,1.01547,2.55747,0.00488,1.45589,1.99339,2.00540,-0.85881,2.08978,2.53849,-0.87173,2.13124,1.91311,1.91311,57.68856,11.98011,57.68856246,11.98010938,A,145416.80
18:43:57.242427,2.59426,0.01320,1.39960,1.39960,[3.00000 0.00000 0.00000],[1.30000 0.00000 0.00000],-0.02626,0.02066,0.02114,0.00000,0.00000,-0.00416,0.00499,0.03697,-0.04746,1.03779,2.58278,0.00244,1.44464,1.97999,1.99201,-0.87117,2.11709,2.53849,-0.87173,2.13124,1.91311,1.91311,57.68856,11.98011,57.68856271,11.98010918,A,145416.80
18:43:57.268136,2.61959,0.01391,1.39960,1.39960,[3.00000 0.00000 0.00000],[1.30000 0.00000 0.00000],-0.02514,0.02066,0.01794,0.00000,0.00000,-0.00217,0.01141,0.15043,0.04355,0.94703,2.60856,0.00000,1.43563,1.96865,1.98066,-0.88367,2.14564,2.53849,-0.87173,2.13124,1.91311,1.91311,57.68856,11.98011,57.68856296,11.98010897,A,145416.80
18:43:57.307563,2.65963,0.02690,1.39960,1.39960,[3.00000 0.00000 0.00000],[1.30000 0.00000 0.00000],-0.02497,0.02066,0.02511,0.00000,0.00000,-0.01622,0.00255,0.14933,-0.02702,0.98600,2.63395,0.00000,1.42842,1.98164,1.99366,-0.90737,2.19935,2.65480,-0.94107,2.26096,2.06168,2.06168,57.68856,11.98011,57.68856345,11.98010857,A,145416.90
18:43:57.331794,2.68325,0.01267,1.43017,1.43017,[3.00000 0.00000 0.00000],[1.30000 0.00000 0.00000],-0.02391,0.02066,0.02679,0.00000,0.00000,-0.00187,-0.00417,0.19062,0.00641,0.96917,2.67223,0.00000,1.42877,1.99230,2.00432,-0.92078,2.22849,2.65480,-0.94107,2.26096,2.06168,2.06168,57.68856,11.98011,57.68856371,11.98010834,A,145416.90
18:43:57.361920,2.71397,0.01492,1.43017,1.43017,[3.00000 0.00000 0.00000],[1.30000 0.00000 0.00000],-0.02336,0.02066,0.03321,0.00000,0.00000,-0.02355,0.00774,0.09302,-0.02178,0.93397,2.70184,0.00000,1.42905,2.00149,2.01350,-0.93689,2.26273,2.65480,-0.94107,2.26096,2.06168,2.06168,57.68856,11.98011,57.68856402,11.98010807,A,145416.90
18:43:57.386746,2.73878,0.01415,1.43017,1.43017,[3.00000 0.00000 0.00000],[1.30000 0.00000 0.00000],-0.02341,0.02066,0.02420,0.00000,0.00000,-0.02676,0.00988,0.15897,-0.04099,0.99918,2.72841,0.00000,1.42928,2.00920,2.02121,-0.95003,2.28990,2.65480,-0.94107,2.26096,2.06168,2.06168,57.68856,11.98011,57.68856426,11.98010785,A,145416.90
18:43:57.427349,2.77941,0.02743,1.43017,1.43017,[3.00000 0.00000 0.00000],[1.30000 0.00000 0.00000],-0.02287,0.02066,0.03275,0.00000,0.00000,0.00241,0.01171,0.02666,-0.01379,1.03389,2.75360,0.00000,1.42945,1.98168,1.99369,-0.97505,2.34445,2.77460,-0.98070,2.40922,1.83195,1.83195,57.68857,11.98011,57.68856475,11.98010743,A,145417.00
18:43:57.451038,2.80214,0.01278,1.43017,1.43017,[3.00000 0.00000 0.00000],[1.30000 0.00000 0.00000],-0.02254,0.02066,0.01519,0.00000,0.00000,-0.00507,-0.00173,0.15756,-0.01244,0.96978,2.79377,0.00000,1.42960,1.95787,1.96989,-0.98695,2.37350,2.77460,-0.98070,2.40922,1.83195,1.83195,57.68857,11.98011,57.68856501,11.98010723,A,145417.00
18:43:57.478894,2.83096,0.01340,1.75815,1.75815,[3.00000 0.00000 0.00000],[1.30000 0.00000 0.00000],-0.02236,0.02066,0.01778,0.00000,0.00000,-0.00095,0.00774,0.08784,-0.00964,0.99162,2.81879,0.00000,1.49531,1.93772,1.94974,-0.99973,2.40634,2.77460,-0.98070,2.40922,1.83195,1.83195,57.68857,11.98011,57.68856531,11.98010701,A,145417.00
18:43:57.502381,2.85381,0.01128,1.75815,1.75815,[3.00000 0.00000 0.00000],[1.30000 0.00000 0.00000],-0.02226,0.02066,0.02053,0.00000,0.00000,-0.00462,0.01186,0.12334,-0.01861,1.00479,2.84299,0.00244,1.54788,1.92049,1.93250,-1.00878,2.43160,2.77460,-0.98070,2.40922,1.83195,1.83195,57.68857,11.98011,57.68856553,11.98010686,A,145417.00
18:43:57.524801,2.87686,0.01236,1.75815,1.75815,[3.00000 0.00000 0.00000],[1.30000 0.00000 0.00000],-0.02171,0.02066,0.01687,0.00000,0.00000,0.00455,0.01141,0.15341,0.01915,0.95502,2.86536,0.00000,1.58993,1.90586,1.91788,-1.01746,2.45712,2.77460,-0.98070,2.40922,1.83195,1.83195,57.68857,11.98011,57.68856576,11.98010671,A,145417.00
18:43:57.577066,2.92913,0.03975,1.75815,1.75815,[3.00000 0.00000 0.00000],[1.30000 0.00000 0.00000],-0.02228,0.02066,0.00358,0.00000,0.00000,-0.01897,-0.00325,0.14006,-0.03465,0.95697,2.89227,0.00000,1.62358,1.92068,1.93269,-1.04905,2.54279,2.92427,-1.11938,2.70574,2.00828,2.00828,57.68857,11.98011,57.68856653,11.98010618,A,145417.20
18:43:57.605094,2.95716,0.01313,1.91692,1.91692,[3.00000 0.00000 0.00000],[1.30000 0.00000 0.00000],-0.02297,0.02066,-0.01047,0.00000,0.00000,0.00363,-0.00112,0.12279,-0.00104,1.04267,2.94520,0.00000,1.68224,1.93260,1.94462,-1.06552,2.58516,2.92427,-1.11938,2.70574,2.00828,2.00828,57.68857,11.98011,57.68856692,11.98010591,A,145417.20
18:43:57.628688,2.98075,0.01191,1.91692,1.91692,[3.00000 0.00000 0.00000],[1.30000 0.00000 0.00000],-0.02291,0.02066,-0.00467,0.00000,0.00000,-0.00599,0.00499,0.11834,0.01891,0.97118,2.97029,0.00000,1.72918,1.94266,1.95467,-1.07974,2.62057,2.92427,-1.11938,2.70574,2.00828,2.00828,57.68857,11.98011,57.68856723,11.98010567,A,145417.20
18:43:57.654032,3.00609,0.01251,1.91692,1.91692,[3.00000 0.00000 0.00000],[1.30000 0.00000 0.00000],-0.02338,0.02066,-0.01581,0.00000,0.00000,-0.00767,0.00576,0.12212,0.00226,0.96959,2.99478,0.00244,1.76673,1.95127,1.96328,-1.09502,2.65775,2.92427,-1.11938,2.70574,2.00828,2.00828,57.68857,11.98011,57.68856757,11.98010541,A,145417.20
18:43:57.696615,3.04867,0.02848,1.91692,1.91692,[3.00000 0.00000 0.00000],[1.30000 0.00000 0.00000],-0.02340,0.02066,-0.01581,0.00000,0.00000,0.00256,0.00072,0.08095,0.03776,1.02998,3.02420,0.00000,1.79677,1.95912,1.97114,-1.12592,2.73090,3.04381,-1.18872,2.85400,2.00828,2.00828,57.68857,11.98010,57.68856823,11.98010489,A,145417.30
18:43:57.722670,3.07472,0.01352,2.34172,2.34172,[3.00000 0.00000 0.00000],[1.30000 0.00000 0.00000],-0.02405,0.02066,-0.02650,0.00000,0.00000,0.01447,-0.00371,0.13859,0.03562,0.97698,3.06368,0.00000,1.90576,1.96528,1.97730,-1.14338,2.77090,3.04381,-1.18872,2.85400,2.00828,2.00828,57.68857,11.98010,57.68856859,11.98010460,A,145417.30
18:43:57.743207,3.09527,0.01021,2.34172,2.34172,[3.00000 0.00000 0.00000],[1.30000 0.00000 0.00000],-0.02535,0.02066,-0.02650,0.00000,0.00000,-0.01301,-0.00219,0.22259,-0.03501,0.93476,3.08596,0.00488,1.99295,1.97049,1.98250,-1.15941,2.80703,3.04381,-1.18872,2.85400,2.00828,2.00828,57.68857,11.98010,57.68856891,11.98010433,A,145417.30
18:43:57.769655,3.12172,0.01316,2.34172,2.34172,[3.00000 0.00000 0.00000],[1.30000 0.00000 0.00000],-0.02709,0.02066,-0.03353,0.00000,0.00000,-0.02783,-0.01120,0.13670,-0.05020,0.91213,3.10951,0.00733,2.06270,1.97504,1.98706,-1.17795,2.84846,3.04381,-1.18872,2.85400,2.00828,2.00828,57.68857,11.98010,57.68856928,11.98010401,A,145417.30
18:43:57.792323,3.14438,0.01127,2.34172,2.34172,[3.00000 0.00000 0.00000],[1.30000 0.00000 0.00000],-0.02803,0.02066,-0.02925,0.00000,0.00000,0.00287,-0.02433,0.07393,-0.00671,1.12990,3.13585,0.00000,2.11851,1.97887,1.99088,-1.19472,2.88545,3.04381,-1.18872,2.85400,2.00828,2.00828,57.68857,11.98010,57.68856962,11.98010373,A,145417.30
18:43:57.837235,3.18930,0.02751,1.79953,1.79953,[3.00000 0.00000 0.00000],[1.30000 0.00000 0.00000],-0.02916,0.02066,-0.03017,0.00000,0.00000,0.04120,-0.02937,0.17843,-0.01751,1.01120,3.16425,0.00000,2.05471,1.96861,1.98062,-1.23295,2.97184,3.18442,-1.24816,3.02080,1.91311,1.91311,57.68857,11.98010,57.68857039,11.98010309,A,145417.40
18:43:57.860242,3.21231,0.01219,1.79953,1.79953,[3.00000 0.00000 0.00000],[1.30000 0.00000 0.00000],-0.03059,0.02066,-0.01780,0.00000,0.00000,-0.03501,-0.00264,0.18873,-0.05100,0.99979,3.20116,0.00244,2.00367,1.95907,1.97108,-1.24833,3.00794,3.18442,-1.24816,3.02080,1.91311,1.91311,57.68857,11.98010,57.68857072,11.98010283,A,145417.40
18:43:57.889620,3.24168,0.01356,1.79953,1.79953,[3.00000 0.00000 0.00000],[1.30000 0.00000 0.00000],-0.03031,0.02066,-0.00818,0.00000,0.00000,-0.03378,-0.01043,0.02836,0.03520,1.04304,3.23068,0.00244,1.96285,1.95117,1.96318,-1.26758,3.05409,3.18442,-1.24816,3.02080,1.91311,1.91311,57.68857,11.98010,57.68857113,11.98010251,A,145417.40
18:43:57.915547,3.26761,0.01219,1.79953,1.79953,[3.00000 0.00000 0.00000],[1.30000 0.00000 0.00000],-0.03136,0.02066,-0.00482,0.00000,0.00000,0.02837,-0.02357,0.05887,-0.06179,0.99912,3.25644,0.00000,1.93018,1.94434,1.95636,-1.28294,3.09189,3.18442,-1.24816,3.02080,1.91311,1.91311,57.68857,11.98010,57.68857147,11.98010225,A,145417.40
18:43:57.953628,3.30569,0.02693,2.39769,2.39769,[3.00000 0.00000 0.00000],[1.30000 0.00000 0.00000],-0.03150,0.02066,0.00786,0.00000,0.00000,0.02028,-0.02082,0.13396,-0.01513,0.87273,3.27999,0.00733,2.02368,1.96798,1.97999,-1.31132,3.15867,3.30042,-1.34722,3.18759,2.10673,2.10673,57.68857,11.98010,57.68857207,11.98010177,A,145417.50
18:43:57.972599,3.32466,0.00853,2.39769,2.39769,[3.00000 0.00000 0.00000],[1.30000 0.00000 0.00000],-0.03167,0.02066,0.02863,0.00000,0.00000,-0.01867,0.01614,-0.03800,-0.08522,1.09410,3.31674,0.00000,2.09849,1.98751,1.99952,-1.32596,3.18974,3.30042,-1.34722,3.18759,2.10673,2.10673,57.68857,11.98010,57.68857235,11.98010152,A,145417.50
18:43:57.985260,3.33732,0.01063,2.39769,2.39769,[3.00000 0.00000 0.00000],[1.30000 0.00000 0.00000],-0.03153,0.02066,0.02206,0.00000,0.00000,-0.00966,0.01797,0.10169,-0.00427,1.10825,3.32682,0.00488,2.15833,2.00385,2.01586,-1.33375,3.20436,3.30042,-1.34722,3.18759,2.10673,2.10673,57.68857,11.98010,57.68857248,11.98010139,A,145417.50
18:43:58.009321,3.36138,0.01190,2.39769,2.39769,[3.00000 0.00000 0.00000],[1.30000 0.00000 0.00000],-0.03077,0.02066,0.02695,0.00000,0.00000,0.00852,0.00499,0.06368,0.01196,1.03413,3.35068,0.00488,2.20620,2.01814,2.03015,-1.35216,3.24070,3.30042,-1.34722,3.18759,2.10673,2.10673,57.68857,11.98010,57.68857281,11.98010108,A,145417.50
18:43:58.033955,3.38602,0.01419,2.39769,2.39769,[3.00000 0.00000 0.00000],[1.30000 0.00000 0.00000],-0.03156,0.02066,0.02649,0.00000,0.00000,-0.01072,-0.00768,0.11645,-0.07753,0.88310,3.37357,0.00977,2.24450,2.03035,2.04236,-1.37181,3.27826,3.30042,-1.34722,3.18759,2.10673,2.10673,57.68857,11.98010,57.68857315,11.98010075,A,145417.50
18:43:58.080676,3.43274,0.03532,2.05226,2.05226,[3.00000 0.00000 0.00000],[1.30000 0.00000 0.00000],-0.03015,0.02066,0.02771,0.00000,0.00000,-0.04829,0.00133,0.10791,0.05130,1.04133,3.39799,0.00000,2.20605,2.02560,2.03761,-1.42304,3.37859,3.42788,-1.52553,3.57677,2.00042,2.00042,57.68858,11.98010,57.68857405,11.98009989,A,145417.70
18:43:58.106749,3.45880,0.01343,2.05226,2.05226,[3.00000 0.00000 0.00000],[1.30000 0.00000 0.00000],-0.02765,0.02140,0.05001,0.00000,0.00000,0.02012,0.02775,0.14817,0.00793,0.98100,3.44699,0.00488,2.17529,2.02067,2.03311,-1.44830,3.42846,3.42788,-1.52553,3.57677,2.00042,2.00042,57.68858,11.98010,57.68857450,11.98009947,A,145417.70
18:43:58.133930,3.48599,0.01307,2.05226,2.05226,[3.00000 0.00000 0.00000],[1.30000 0.00000 0.00000],-0.02541,0.02193,0.06452,0.00000,0.00000,0.01631,0.02393,0.08089,0.03013,0.94782,3.47594,0.00488,2.15069,2.01657,2.02932,-1.47484,3.48137,3.42788,-1.52553,3.57677,2.00042,2.00042,57.68858,11.98010,57.68857498,11.98009902,A,145417.70
18:43:58.158810,3.51086,0.01288,2.55440,2.55440,[3.00000 0.00000 0.00000],[1.30000 0.00000 0.00000],-0.02425,0.02196,0.03657,0.00000,0.00000,-0.02325,0.00682,0.17190,0.02965,0.91103,3.49953,0.00488,2.23143,2.01294,2.02571,-1.49586,3.52359,3.42788,-1.52553,3.57677,2.00042,2.00042,57.68858,11.98010,57.68857536,11.98009867,A,145417.70
18:43:58.196295,3.54836,0.02563,2.55440,2.55440,[3.00000 0.00000 0.00000],[1.30000 0.00000 0.00000],-0.02231,0.02196,0.04405,0.00000,0.00000,-0.02706,0.00453,-0.07033,0.07302,1.02449,3.52391,0.00244,2.29602,2.00165,2.01442,-1.53548,3.60631,3.54351,-1.60477,3.78063,1.94156,1.94156,57.68858,11.98010,57.68857610,11.98009800,A,145417.80
18:43:58.218872,3.57092,0.01126,2.55440,2.55440,[3.00000 0.00000 0.00000],[1.30000 0.00000 0.00000],-0.02180,0.02196,0.03397,0.00000,0.00000,0.00042,0.01202,0.04410,-0.03032,0.92751,3.56061,0.00244,2.34770,1.99141,2.00418,-1.55629,3.65152,3.54351,-1.60477,3.78063,1.94156,1.94156,57.68858,11.98010,57.68857651,11.98009765,A,145417.80
18:43:58.239062,3.59112,0.01039,2.45945,2.45945,[3.00000 0.00000 0.00000],[1.30000 0.00000 0.00000],-0.01970,0.02196,0.03703,0.00000,0.00000,-0.00660,0.01874,-0.01915,0.10315,0.97374,3.58040,0.00733,2.37005,1.98265,1.99542,-1.57430,3.69167,3.54351,-1.60477,3.78063,1.94156,1.94156,57.68858,11.98010,57.68857687,11.98009735,A,145417.80
18:43:58.262508,3.61456,0.01197,2.45945,2.45945,[3.00000 0.00000 0.00000],[1.30000 0.00000 0.00000],-0.02000,0.02196,0.02374,0.00000,0.00000,-0.02065,0.00316,0.07832,-0.03880,1.00211,3.60285,0.00488,2.38793,1.97532,1.98809,-1.59385,3.73598,3.54351,-1.60477,3.78063,1.94156,1.94156,57.68858,11.98010,57.68857727,11.98009702,A,145417.80
18:43:58.288533,3.64059,0.01296,2.45945,2.45945,[3.00000 0.00000 0.00000],[1.30000 0.00000 0.00000],-0.01870,0.02196,0.03077,0.00000,0.00000,0.00363,-0.01058,0.06118,0.05106,1.05951,3.62941,0.00977,2.40223,1.96919,1.98197,-1.61466,3.78393,3.54351,-1.60477,3.78063,1.94156,1.94156,57.68858,11.98010,57.68857770,11.98009667,A,145417.80
18:43:58.329085,3.68115,0.02808,2.45945,2.45945,[3.00000 0.00000 0.00000],[1.30000 0.00000 0.00000],-0.01943,0.02196,0.02511,0.00000,0.00000,0.00867,-0.00677,0.13353,-0.07607,0.97527,3.65722,0.00488,2.41367,1.96464,1.97741,-1.65327,3.87454,3.67452,-1.68402,3.98448,1.94156,1.94156,57.68858,11.98010,57.68857851,11.98009602,A,145417.90
18:43:58.351852,3.70391,0.01111,2.34421,2.34421,[3.00000 0.00000 0.00000],[1.30000 0.00000 0.00000],-0.01685,0.02196,0.03794,0.00000,0.00000,-0.02340,0.01797,-0.03721,0.08906,0.95855,3.69542,0.00733,2.39978,1.96010,1.97287,-1.67426,3.92522,3.67452,-1.68402,3.98448,1.94156,1.94156,57.68858,11.98010,57.68857897,11.98009566,A,145417.90
18:43:58.379898,3.73196,0.01487,2.34421,2.34421,[3.00000 0.00000 0.00000],[1.30000 0.00000 0.00000],-0.01561,0.02196,0.04711,0.00000,0.00000,-0.02768,0.01797,0.01995,0.02245,1.00571,3.72063,0.00733,2.38867,1.95633,1.96910,-1.69604,3.97826,3.67452,-1.68402,3.98448,1.94156,1.94156,57.68858,11.98010,57.68857944,11.98009530,A,145417.90
18:43:58.403993,3.75605,0.01308,2.34421,2.34421,[3.00000 0.00000 0.00000],[1.30000 0.00000 0.00000],-0.01360,0.02208,0.06329,0.00000,0.00000,0.00012,0.01919,0.06600,0.06344,1.06427,3.74295,0.01709,2.37977,1.95296,1.96579,-1.71280,4.01982,3.67452,-1.68402,3.98448,1.94156,1.94156,57.68858,11.98010,57.68857982,11.98009502,A,145417.90
18:43:58.445017,3.79708,0.02811,2.34421,2.34421,[3.00000 0.00000 0.00000],[1.30000 0.00000 0.00000],-0.01275,0.02259,0.06146,0.00000,0.00000,0.00363,0.02164,0.03056,-0.03843,0.99143,3.77192,0.01221,2.37266,1.95581,1.96894,-1.74967,4.10971,3.79221,-1.76327,4.16981,1.97488,1.97488,57.68858,11.98009,57.68858063,11.98009440,A,145418.00
18:43:58.469096,3.82116,0.01256,2.63781,2.63781,[3.00000 0.00000 0.00000],[1.30000 0.00000 0.00000],-0.01088,0.02259,0.07933,0.00000,0.00000,-0.01729,0.00850,0.05533,-0.05142,0.99582,3.81053,0.01465,2.42569,1.95750,1.97063,-1.76797,4.15461,3.79221,-1.76327,4.16981,1.97488,1.97488,57.68858,11.98009,57.68858103,11.98009409,A,145418.00
18:43:58.494842,3.84690,0.01365,2.63781,2.63781,[3.00000 0.00000 0.00000],[1.30000 0.00000 0.00000],-0.00962,0.02259,0.06589,0.00000,0.00000,-0.01485,0.00194,0.08662,-0.00329,1.03859,3.83675,0.00488,2.46812,1.95904,1.97217,-1.78775,4.20271,3.79221,-1.76327,4.16981,1.97488,1.97488,57.68858,11.98009,57.68858146,11.98009375,A,145418.00
18:43:58.520311,3.87238,0.01121,2.63781,2.63781,[3.00000 0.00000 0.00000],[1.30000 0.00000 0.00000],-0.00781,0.02259,0.08299,0.00000,0.00000,-0.01027,0.00255,0.05508,0.00799,0.98667,3.86267,0.00977,2.50206,1.96041,1.97355,-1.80804,4.25176,3.79221,-1.76327,4.16981,1.97488,1.97488,57.68858,11.98009,57.68858190,11.98009341,A,145418.00
18:43:58.572457,3.92452,0.03832,2.55873,2.55873,[3.00000 0.00000 0.00000],[1.30000 0.00000 0.00000],-0.00618,0.02259,0.07872,0.00000,0.00000,-0.02523,-0.00112,0.11925,0.00372,0.96221,3.88869,0.01221,2.51339,1.96967,1.98281,-1.86218,4.37738,3.91968,-1.95148,4.55899,2.02125,2.02125,57.68858,11.98009,57.68858303,11.98009250,A,145418.20
18:43:58.600571,3.95263,0.01366,2.55873,2.55873,[3.00000 0.00000 0.00000],[1.30000 0.00000 0.00000],-0.00239,0.02259,0.07521,0.00000,0.00000,-0.00400,-0.00478,-0.00756,0.02507,1.01870,3.94106,0.00977,2.52246,1.97643,1.98957,-1.88927,4.43823,3.91968,-1.95148,4.55899,2.02125,2.02125,57.68858,11.98009,57.68858358,11.98009205,A,145418.20
18:43:58.625545,3.97761,0.01190,3.06714,3.06714,[3.00000 0.00000 0.00000],[1.30000 0.00000 0.00000],-0.00103,0.02259,0.08162,0.00000,0.00000,0.00928,-0.01562,0.01946,-0.01440,1.03425,3.96788,0.00977,2.63139,1.98211,1.99524,-1.91370,4.49216,3.91968,-1.95148,4.55899,2.02125,2.02125,57.68858,11.98009,57.68858407,11.98009164,A,145418.20
18:43:58.649417,4.00147,0.01125,3.06714,3.06714,[3.00000 0.00000 0.00000],[1.30000 0.00000 0.00000],-0.00043,0.02256,0.06925,0.00000,0.00000,0.00531,-0.02357,0.04240,-0.01653,0.94306,3.98979,0.00977,2.71854,1.98690,2.00002,-1.93639,4.54154,3.91968,-1.95148,4.55899,2.02125,2.02125,57.68858,11.98009,57.68858451,11.98009125,A,145418.20
18:43:58.687252,4.03931,0.02463,3.06714,3.06714,[3.00000 0.00000 0.00000],[1.30000 0.00000 0.00000],0.00091,0.02131,0.05276,0.00000,0.00000,-0.02722,-0.03823,0.11053,0.04380,0.99936,4.01484,0.01465,2.78826,1.98612,1.99851,-1.98081,4.63826,4.03445,-2.04064,4.76285,1.98307,1.98307,57.68859,11.98009,57.68858538,11.98009051,A,145418.30
18:43:58.714783,4.06683,0.01240,3.06714,3.06714,[3.00000 0.00000 0.00000],[1.30000 0.00000 0.00000],0.00430,0.01882,0.06574,0.00000,0.00000,0.03219,-0.03609,-0.03306,0.08717,1.03267,4.05684,0.00977,2.84404,1.98507,1.99602,-2.01020,4.70240,4.03445,-2.04064,4.76285,1.98307,1.98307,57.68859,11.98009,57.68858596,11.98009001,A,145418.30
18:43:58.741860,4.09391,0.01176,2.22821,2.22821,[3.00000 0.00000 0.00000],[1.30000 0.00000 0.00000],0.00546,0.01879,0.07811,0.00000,0.00000,0.01341,-0.01807,0.17104,-0.02318,0.90048,4.08419,0.02442,2.72087,1.98412,1.99505,-2.03963,4.76705,4.03445,-2.04064,4.76285,1.98307,1.98307,57.68859,11.98009,57.68858654,11.98008952,A,145418.30
18:43:58.767565,4.11963,0.01349,2.22821,2.22821,[3.00000 0.00000 0.00000],[1.30000 0.00000 0.00000],0.00748,0.01879,0.06070,0.00000,0.00000,-0.04860,-0.01318,0.14103,0.07241,0.96709,4.10887,0.02198,2.62234,1.98319,1.99412,-2.06391,4.82048,4.03445,-2.04064,4.76285,1.98307,1.98307,57.68859,11.98009,57.68858702,11.98008911,A,145418.30
18:43:58.809753,4.16182,0.02879,2.22821,2.22821,[3.00000 0.00000 0.00000],[1.30000 0.00000 0.00000],0.00883,0.01879,0.07276,0.00000,0.00000,-0.02630,-0.03181,0.02702,-0.00348,1.12606,4.13646,0.01465,2.54351,1.98403,1.99496,-2.10938,4.92122,4.15695,-2.13970,4.98524,1.98985,1.98985,57.68859,11.98009,57.68858792,11.98008834,A,145418.40
18:43:58.833360,4.18542,0.01245,2.81081,2.81081,[3.00000 0.00000 0.00000],[1.30000 0.00000 0.00000],0.00956,0.01879,0.03580,0.00000,0.00000,-0.01546,-0.03578,0.11242,0.00573,0.87517,4.17478,0.01221,2.59697,1.98397,1.99490,-2.13066,4.96820,4.15695,-2.13970,4.98524,1.98985,1.98985,57.68859,11.98009,57.68858835,11.98008799,A,145418.40
18:43:58.857623,4.20969,0.01043,2.81081,2.81081,[3.00000 0.00000 0.00000],[1.30000 0.00000 0.00000],0.01031,0.01876,0.05001,0.00000,0.00000,-0.02890,-0.02509,-0.04459,0.01104,0.97325,4.20081,0.02930,2.63974,1.98405,1.99496,-2.15465,5.02117,4.15695,-2.13970,4.98524,1.98985,1.98985,57.68859,11.98009,57.68858882,11.98008758,A,145418.40
18:43:58.883061,4.23512,0.01214,2.81081,2.81081,[3.00000 0.00000 0.00000],[1.30000 0.00000 0.00000],0.00986,0.01806,0.03687,0.00000,0.00000,-0.01027,-0.03319,0.12840,-0.04490,1.02291,4.22574,0.02442,2.67395,1.98417,1.99467,-2.17717,5.07091,4.15695,-2.13970,4.98524,1.98985,1.98985,57.68859,11.98009,57.68858927,11.98008720,A,145418.40
18:43:58.927005,4.27906,0.02732,2.31128,2.31128,[3.00000 0.00000 0.00000],[1.30000 0.00000 0.00000],0.01096,0.01636,0.02175,0.00000,0.00000,-0.00767,-0.03624,0.03782,0.07930,1.03932,4.25265,0.01465,2.60142,1.97544,1.98496,-2.22495,5.17883,4.27419,-2.22885,5.22616,1.92522,1.92522,57.68859,11.98009,57.68859024,11.98008640,A,145418.50
18:43:58.954862,4.30692,0.01405,2.31128,2.31128,[3.00000 0.00000 0.00000],[1.30000 0.00000 0.00000],0.01057,0.01591,0.00205,0.00000,0.00000,-0.03959,-0.03746,-0.12822,0.01104,1.03395,4.29584,0.01954,2.54339,1.96729,1.97654,-2.24937,5.23631,4.27419,-2.22885,5.22616,1.92522,1.92522,57.68859,11.98009,57.68859076,11.98008599,A,145418.50
18:43:58.978361,4.33018,0.01157,2.31128,2.31128,[3.00000 0.00000 0.00000],[1.30000 0.00000 0.00000],0.00960,0.01591,0.00404,0.00000,0.00000,-0.01744,-0.03456,0.11566,-0.02672,0.92952,4.32014,0.01709,2.49697,1.96022,1.96947,-2.26835,5.28236,4.27419,-2.22885,5.22616,1.92522,1.92522,57.68859,11.98009,57.68859117,11.98008567,A,145418.50
18:43:59.008280,4.36033,0.01438,2.86150,2.86150,[3.00000 0.00000 0.00000],[1.30000 0.00000 0.00000],0.00846,0.01534,0.00770,0.00000,0.00000,0.00852,-0.02876,0.00262,-0.04142,0.91903,4.34920,0.01465,2.56987,1.95441,1.96333,-2.29082,5.33760,4.27419,-2.22885,5.22616,1.92522,1.92522,57.68859,11.98009,57.68859167,11.98008529,A,145418.50
18:43:59.051474,4.40354,0.02902,2.86150,2.86150,[3.00000 0.00000 0.00000],[1.30000 0.00000 0.00000],0.00967,0.01325,-0.02039,0.00000,0.00000,-0.00141,-0.04479,0.04935,0.15537,0.95941,4.37699,0.00977,2.62820,1.96479,1.97249,-2.33207,5.43737,4.39822,-2.32791,5.43002,2.02312,2.02312,57.68859,11.98008,57.68859257,11.98008460,A,145418.60
18:43:59.078598,4.43065,0.01395,2.86150,2.86150,[3.00000 0.00000 0.00000],[1.30000 0.00000 0.00000],0.00865,0.01172,-0.02635,0.00000,0.00000,-0.00584,-0.04769,-0.05789,0.05081,1.09489,4.41936,0.00000,2.67486,1.97310,1.97992,-2.35400,5.48913,4.39822,-2.32791,5.43002,2.02312,2.02312,57.68859,11.98008,57.68859303,11.98008423,A,145418.60
18:43:59.105037,4.45710,0.01415,2.66474,2.66474,[3.00000 0.00000 0.00000],[1.30000 0.00000 0.00000],0.00695,0.01039,-0.05109,0.00000,0.00000,0.00943,-0.05533,-0.03166,0.01574,1.01815,4.44602,0.02198,2.67283,1.98024,1.98628,-2.37622,5.54043,4.39822,-2.32791,5.43002,2.02312,2.02312,57.68859,11.98008,57.68859349,11.98008385,A,145418.60
18:43:59.131789,4.48384,0.01455,2.66474,2.66474,[3.00000 0.00000 0.00000],[1.30000 0.00000 0.00000],0.00658,0.00784,-0.04147,0.00000,0.00000,-0.00996,-0.05075,0.01684,0.07649,0.93342,4.47173,0.00488,2.67122,1.98644,1.99100,-2.39621,5.58567,4.39822,-2.32791,5.43002,2.02312,2.02312,57.68859,11.98008,57.68859390,11.98008352,A,145418.60
18:43:59.180176,4.53224,0.03830,2.66474,2.66474,[3.00000 0.00000 0.00000],[1.30000 0.00000 0.00000],0.00556,0.00597,-0.05583,0.00000,0.00000,-0.00584,-0.05594,0.05039,0.05331,0.95959,4.49587,0.01954,2.66992,1.98493,1.98840,-2.45237,5.71223,4.52736,-2.52603,5.89333,1.97488,1.97488,57.68860,11.98008,57.68859504,11.98008257,A,145418.80
18:43:59.203531,4.55557,0.01276,2.51727,2.51727,[3.00000 0.00000 0.00000],[1.30000 0.00000 0.00000],0.00215,0.00292,-0.05720,0.00000,0.00000,0.02913,-0.06892,0.04410,-0.00701,1.06372,4.54620,0.03663,2.63939,1.98341,1.98510,-2.47709,5.76870,4.52736,-2.52603,5.89333,1.97488,1.97488,57.68860,11.98008,57.68859555,11.98008216,A,145418.80
18:43:59.229695,4.58175,0.01279,2.51727,2.51727,[3.00000 0.00000 0.00000],[1.30000 0.00000 0.00000],0.00063,0.00127,-0.07782,0.00000,0.00000,0.00226,-0.06678,-0.07686,0.05411,0.96526,4.57171,0.02442,2.61496,1.98215,1.98289,-2.50269,5.82758,4.52736,-2.52603,5.89333,1.97488,1.97488,57.68860,11.98008,57.68859608,11.98008173,A,145418.80
18:43:59.255362,4.60743,0.01117,2.51727,2.51727,[3.00000 0.00000 0.00000],[1.30000 0.00000 0.00000],-0.00208,-0.00102,-0.08026,0.00000,0.00000,0.00592,-0.07885,-0.08656,-0.01342,1.03499,4.59880,0.01709,2.59542,1.98120,1.98061,-2.52759,5.88515,4.52736,-2.52603,5.89333,1.97488,1.97488,57.68860,11.98008,57.68859659,11.98008131,A,145418.80
18:43:59.296102,4.64816,0.02534,2.78175,2.78175,[3.00000 0.00000 0.00000],[1.30000 0.00000 0.00000],-0.00411,-0.00255,-0.07018,0.00000,0.00000,0.00943,-0.07778,-0.00390,0.00055,1.01437,4.62381,0.03175,2.63269,1.99342,1.99194,-2.57179,5.98493,4.64332,-2.64490,6.11572,2.06168,2.06168,57.68860,11.98008,57.68859749,11.98008056,A,145418.90
18:43:59.316549,4.66861,0.00986,2.78175,2.78175,[3.00000 0.00000 0.00000],[1.30000 0.00000 0.00000],-0.00757,-0.00289,-0.06468,0.00000,0.00000,0.03860,-0.06480,0.04972,-0.06063,0.95355,4.65879,0.00977,2.66250,2.00383,2.00215,-2.59325,6.03122,4.64332,-2.64490,6.11572,2.06168,2.06168,57.68860,11.98008,57.68859791,11.98008020,A,145418.90
18:43:59.328888,4.68094,0.01012,2.78175,2.78175,[3.00000 0.00000 0.00000],[1.30000 0.00000 0.00000],-0.00808,-0.00289,-0.07446,0.00000,0.00000,0.01524,-0.07075,0.11023,0.04056,0.93397,4.67149,0.01954,2.68635,2.01270,2.01102,-2.60643,6.05848,4.64332,-2.64490,6.11572,2.06168,2.06168,57.68860,11.98008,57.68859815,11.98007998,A,145418.90
18:43:59.355379,4.70743,0.01393,2.78175,2.78175,[3.00000 0.00000 0.00000],[1.30000 0.00000 0.00000],-0.01021,-0.00289,-0.07003,0.00000,0.00000,-0.01011,-0.08343,0.05423,-0.01940,1.01297,4.69511,0.01709,2.70543,2.02017,2.01849,-2.63231,6.11219,4.64332,-2.64490,6.11572,2.06168,2.06168,57.68860,11.98008,57.68859863,11.98007955,A,145418.90
18:43:59.380812,4.73287,0.01231,2.64710,2.64710,[3.00000 0.00000 0.00000],[1.30000 0.00000 0.00000],-0.01323,-0.00289,-0.07461,0.00000,0.00000,0.03860,-0.07320,-0.00201,-0.05581,1.06427,4.72291,0.01465,2.69377,2.02651,2.02484,-2.65880,6.16621,4.64332,-2.64490,6.11572,2.06168,2.06168,57.68860,11.98008,57.68859912,11.98007910,A,145418.90
18:43:59.424407,4.77647,0.02820,2.64710,2.64710,[3.00000 0.00000 0.00000],[1.30000 0.00000 0.00000],-0.01383,-0.00289,-0.06041,0.00000,0.00000,0.02211,-0.05945,-0.03922,0.07906,0.91531,4.75234,0.01709,2.68443,2.02188,2.02020,-2.71056,6.27206,4.77165,-2.75387,6.35664,1.99555,1.99555,57.68860,11.98008,57.68860007,11.98007823,A,145419.00
18:43:59.448388,4.80045,0.01141,3.15995,3.15995,[3.00000 0.00000 0.00000],[1.30000 0.00000 0.00000],-0.01650,-0.00289,-0.05781,0.00000,0.00000,-0.00187,-0.05884,0.02184,-0.02403,0.96539,4.79041,0.01709,2.77954,2.01806,2.01638,-2.73596,6.32446,4.77165,-2.75387,6.35664,1.99555,1.99555,57.68860,11.98008,57.68860054,11.98007780,A,145419.00
18:43:59.474395,4.82622,0.01288,3.15995,3.15995,[3.00000 0.00000 0.00000],[1.30000 0.00000 0.00000],-0.01795,-0.00289,-0.05842,0.00000,0.00000,0.01799,-0.05838,-0.01800,0.00092,1.08976,4.81429,0.01465,2.85562,2.01481,2.01313,-2.76122,6.37708,4.77165,-2.75387,6.35664,1.99555,1.99555,57.68860,11.98008,57.68860102,11.98007738,A,145419.00
18:43:59.498628,4.85069,0.01248,3.15995,3.15995,[3.00000 0.00000 0.00000],[1.30000 0.00000 0.00000],-0.02027,-0.00289,-0.06758,0.00000,0.00000,0.04044,-0.05838,0.17580,-0.04020,1.02425,4.83936,0.00733,2.91649,2.01205,2.01037,-2.78493,6.42690,4.77165,-2.75387,6.35664,1.99555,1.99555,57.68860,11.98008,57.68860147,11.98007698,A,145419.00
18:43:59.539714,4.89178,0.02846,3.15995,3.15995,[3.00000 0.00000 0.00000],[1.30000 0.00000 0.00000],-0.02164,-0.00289,-0.06621,0.00000,0.00000,0.00348,-0.05304,0.12889,0.02666,0.94629,4.86647,0.00733,2.96518,2.00958,2.00790,-2.83550,6.53467,4.88625,-2.86284,6.59757,1.99555,1.99555,57.68860,11.98008,57.68860243,11.98007613,A,145419.10
18:43:59.562718,4.91477,0.00988,2.29123,2.29123,[3.00000 0.00000 0.00000],[1.30000 0.00000 0.00000],-0.02448,-0.00289,-0.07033,0.00000,0.00000,0.00027,-0.04220,0.08754,-0.00226,1.03163,4.90667,0.02930,2.83039,2.00759,2.00592,-2.86172,6.59101,4.88625,-2.86284,6.59757,1.99555,1.99555,57.68860,11.98008,57.68860294,11.98007569,A,145419.10
18:43:59.573931,4.92599,0.01019,2.29123,2.29123,[3.00000 0.00000 0.00000],[1.30000 0.00000 0.00000],-0.02436,-0.00289,-0.07232,0.00000,0.00000,-0.02035,-0.04098,0.07790,0.05978,1.01913,4.91754,0.01465,2.72256,2.00598,2.00430,-2.87266,6.61474,4.88625,-2.86284,6.59757,1.99555,1.99555,57.68860,11.98008,57.68860315,11.98007550,A,145419.10
18:43:59.597297,4.94936,0.01119,2.29123,2.29123,[3.00000 0.00000 0.00000],[1.30000 0.00000 0.00000],-0.02612,-0.00289,-0.06392,0.00000,0.00000,-0.01699,-0.04342,0.02184,-0.02952,0.96142,4.93843,0.02198,2.63629,2.00455,2.00287,-2.89476,6.66271,4.88625,-2.86284,6.59757,1.99555,1.99555,57.68860,11.98008,57.68860359,11.98007513,A,145419.10
18:43:59.621955,4.97402,0.01206,2.29123,2.29123,[3.00000 0.00000 0.00000],[1.30000 0.00000 0.00000],-0.02889,-0.00289,-0.07889,0.00000,0.00000,-0.02050,-0.04800,0.06728,-0.05161,0.97264,4.96433,0.02930,2.56728,2.00333,2.00165,-2.91545,6.70778,4.88625,-2.86284,6.59757,1.99555,1.99555,57.68860,11.98008,57.68860399,11.98007478,A,145419.10
18:43:59.676194,5.02826,0.03996,2.87449,2.87449,[3.00000 0.00000 0.00000],[1.30000 0.00000 0.00000],-0.03111,-0.00272,-0.08392,0.00000,0.00000,0.01142,-0.04159,0.07765,0.00256,0.95587,4.99282,0.01954,2.62872,1.99627,1.99469,-2.97698,6.84453,5.02340,-3.05105,7.06088,1.95667,1.95667,57.68861,11.98007,57.68860522,11.98007375,A,145419.30
18:43:59.699703,5.05177,0.01952,2.87449,2.87449,[3.00000 0.00000 0.00000],[1.30000 0.00000 0.00000],0.00000,-0.00252,-0.09126,0.00000,0.00000,-0.03882,-0.02983,0.07912,-0.01281,1.16510,5.03473,0.03419,2.87449,1.98014,1.97867,-3.05105,7.06088,5.02340,-3.05105,7.06088,1.95667,1.95667,57.68861,11.98007,57.68860559,11.98007346,A,145419.30
18:43:59.728493,5.08055,0.01458,2.87449,2.87449,[3.00000 0.00000 0.00000],[1.30000 0.00000 0.00000],-0.00302,-0.01012,-0.10118,0.31531,0.00000,-0.04707,-0.03807,-0.02879,0.03440,0.84345,5.06868,0.04396,2.87449,1.97733,1.97145,-3.08476,7.13888,5.02340,-3.05105,7.06088,1.95667,1.95667,57.68861,11.98007,57.68860787,11.98007193,A,145419.30
18:43:59.753839,5.10590,0.01300,2.37193,2.37193,[3.00000 0.00000 0.00000],[1.30000 0.00000 0.00000],-0.00591,-0.00896,-0.10347,0.33347,0.00000,0.00394,-0.03212,-0.16403,0.00647,0.86968,5.09571,0.00000,2.77398,1.97452,1.96931,-3.10767,7.19305,5.02340,-3.05105,7.06088,1.95667,1.95667,57.68861,11.98007,57.68860836,11.98007155,A,145419.30
18:43:59.793329,5.14539,0.02626,2.37193,2.37193,[3.00000 0.00000 0.00000],[1.30000 0.00000 0.00000],-0.01002,-0.00285,-0.10393,0.35088,0.00000,0.06258,-0.02662,0.01470,-0.08662,0.93098,5.11978,0.00000,2.69357,1.98185,1.98019,-3.14900,7.28951,5.14063,-3.16002,7.28327,2.02639,2.02639,57.68861,11.98007,57.68860922,11.98007085,A,145419.40
18:43:59.820577,5.17263,0.01462,2.37193,2.37193,[3.00000 0.00000 0.00000],[1.30000 0.00000 0.00000],-0.01478,0.01093,-0.11279,0.39599,0.00000,0.04654,-0.01822,0.11322,0.00476,1.15205,5.16055,0.00244,2.62924,1.98745,1.99381,-3.17199,7.34092,5.14063,-3.16002,7.28327,2.02639,2.02639,57.68861,11.98007,57.68860969,11.98007047,A,145419.40
18:43:59.845937,5.19800,0.01369,2.91836,2.91836,[3.00000 0.00000 0.00000],[1.30000 0.00000 0.00000],-0.01971,0.01880,-0.12455,0.45050,0.00000,-0.04631,-0.03487,0.12054,-0.08912,0.99460,5.18700,0.00000,2.68706,1.99212,2.00305,-3.19374,7.38767,5.14063,-3.16002,7.28327,2.02639,2.02639,57.68861,11.98007,57.68861011,11.98007010,A,145419.40
18:43:59.872065,5.22412,0.01199,2.91836,2.91836,[3.00000 0.00000 0.00000],[1.30000 0.00000 0.00000],-0.02274,0.02806,-0.12989,0.47836,0.00000,-0.05226,-0.01990,-0.17660,0.04477,0.98100,5.21310,0.00000,2.73332,1.99568,2.01200,-3.21689,7.43628,5.14063,-3.16002,7.28327,2.02639,2.02639,57.68861,11.98007,57.68861054,11.98006971,A,145419.40
18:43:59.914972,5.26703,0.02962,2.91836,2.91836,[3.00000 0.00000 0.00000],[1.30000 0.00000 0.00000],-0.02600,0.04045,-0.09507,0.38660,0.00000,0.02746,0.01874,0.01000,-0.01196,0.93342,5.24060,0.00000,2.77033,1.99039,2.01392,-3.26504,7.53805,5.26173,-3.26898,7.54272,1.96841,1.96841,57.68861,11.98007,57.68861146,11.98006890,A,145419.50
18:43:59.943418,5.29547,0.01541,2.69928,2.69928,[3.00000 0.00000 0.00000],[1.30000 0.00000 0.00000],-0.02753,0.05896,-0.05613,0.27574,0.00000,0.04334,0.07860,0.00409,0.09327,1.01754,5.28400,0.00000,2.75612,1.98391,2.01823,-3.29206,7.59480,5.26173,-3.26898,7.54272,1.96841,1.96841,57.68861,11.98007,57.68861197,11.98006845,A,145419.50
18:43:59.973119,5.32518,0.01399,2.69928,2.69928,[3.00000 0.00000 0.00000],[1.30000 0.00000 0.00000],-0.02770,0.06949,-0.02330,0.17794,0.00000,-0.00339,0.10746,0.06478,0.07857,1.19322,5.31363,0.00000,2.74475,1.97875,2.01920,-3.32136,7.65566,5.26173,-3.26898,7.54272,1.96841,1.96841,57.68861,11.98007,57.68861252,11.98006795,A,145419.50
18:43:59.997416,5.34948,0.01347,2.69928,2.69928,[3.00000 0.00000 0.00000],[1.30000 0.00000 0.00000],-0.02782,0.07651,-0.01780,0.16191,0.00000,-0.02905,0.13175,0.17922,0.06460,1.05085,5.33791,0.03175,2.73566,1.97331,2.01786,-3.34111,7.69650,5.26173,-3.26898,7.54272,1.96841,1.96841,57.68861,11.98007,57.68861288,11.98006762,A,145419.50
18:44:00.035017,5.38708,0.02602,2.52886,2.52886,[3.00000 0.00000 0.00000],[1.30000 0.00000 0.00000],-0.02743,0.08186,-0.00253,0.11455,0.00000,-0.02141,0.13969,-0.06039,0.06814,0.89908,5.36145,0.03907,2.69430,1.97989,2.02756,-3.38477,7.78717,5.38221,-3.37795,7.76511,2.02639,2.02639,57.68861,11.98007,57.68861370,11.98006689,A,145419.60
18:44:00.061256,5.41332,0.01343,2.52886,2.52886,[3.00000 0.00000 0.00000],[1.30000 0.00000 0.00000],-0.02717,0.08684,-0.00268,0.11400,0.00000,-0.03623,0.14396,-0.09754,0.06710,0.96648,5.40218,0.00000,2.66121,1.98301,2.03359,-3.41028,7.83866,5.38221,-3.37795,7.76511,2.02639,2.02639,57.68861,11.98007,57.68861416,11.98006646,A,145419.60
18:44:00.088580,5.44063,0.01499,2.52886,2.52886,[3.00000 0.00000 0.00000],[1.30000 0.00000 0.00000],-0.02673,0.08911,0.02313,0.03485,0.00000,0.06792,0.16092,-0.05283,0.02800,1.30595,5.42973,0.00000,2.63474,1.98577,2.03768,-3.43533,7.88843,5.38221,-3.37795,7.76511,2.02639,2.02639,57.68861,11.98007,57.68861461,11.98006603,A,145419.60
18:44:00.113701,5.46576,0.01350,2.84577,2.84577,[3.00000 0.00000 0.00000],[1.30000 0.00000 0.00000],-0.02621,0.09112,0.03657,-0.00751,0.00000,0.08747,0.18275,0.18922,0.02910,1.12929,5.45537,0.01465,2.67694,1.98776,2.04084,-3.45748,7.93190,5.38221,-3.37795,7.76511,2.02639,2.02639,57.68861,11.98007,57.68861500,11.98006566,A,145419.60
18:44:00.154633,5.50669,0.02617,2.84577,2.84577,[3.00000 0.00000 0.00000],[1.30000 0.00000 0.00000],-0.02680,0.09160,0.03153,0.00995,0.00000,-0.06204,0.16382,0.26736,-0.00500,0.68680,5.48236,0.02198,2.71071,1.99275,2.04612,-3.50489,8.02511,5.50175,-3.48692,7.98750,2.02639,2.02639,57.68862,11.98007,57.68861584,11.98006486,A,145419.70
18:44:00.182581,5.53387,0.01476,2.84577,2.84577,[3.00000 0.00000 0.00000],[1.30000 0.00000 0.00000],-0.02329,0.09160,0.05291,-0.06789,0.00000,-0.07166,0.18688,-0.16751,0.16586,1.14302,5.52296,0.02198,2.73772,1.99407,2.04743,-3.53141,8.07651,5.50175,-3.48692,7.98750,2.02639,2.02639,57.68862,11.98007,57.68861630,11.98006442,A,145419.70
18:44:00.208464,5.56052,0.01426,2.70965,2.70965,[3.00000 0.00000 0.00000],[1.30000 0.00000 0.00000],-0.02266,0.09148,0.05321,-0.07127,0.00000,0.07999,0.19787,0.12621,0.00427,1.04969,5.54954,0.15873,2.73211,1.99533,2.04863,-3.55752,8.12692,5.50175,-3.48692,7.98750,2.02639,2.02639,57.68862,11.98007,57.68861675,11.98006398,A,145419.70
18:44:00.235317,5.58737,0.01465,2.70965,2.70965,[3.00000 0.00000 0.00000],[1.30000 0.00000 0.00000],-0.02132,0.09010,0.06375,-0.10811,0.00000,0.02180,0.18764,0.15775,0.03495,0.86962,5.57693,0.31502,2.72762,1.99661,2.04909,-3.58293,8.17584,5.50175,-3.48692,7.98750,2.02639,2.02639,57.68862,11.98007,57.68861719,11.98006355,A,145419.70
18:44:00.287099,5.63917,0.03733,3.08943,3.08943,[3.00000 0.00000 0.00000],[1.30000 0.00000 0.00000],-0.01974,0.08823,0.07246,-0.14037,0.00000,-0.08449,0.17817,-0.22070,0.05130,1.24355,5.60294,0.54701,2.79998,1.99269,2.04408,-3.64803,8.30624,5.63444,-3.68504,8.46935,1.96090,1.96090,57.68862,11.98006,57.68861837,11.98006246,A,145419.90
18:44:00.312217,5.66428,0.01323,3.08943,3.08943,[3.00000 0.00000 0.00000],[1.30000 0.00000 0.00000],-0.01730,0.08251,0.05734,-0.10454,0.00000,0.01570,0.18764,-0.02830,0.05020,0.73975,5.65305,0.33211,2.85787,1.98463,2.03268,-3.67584,8.36509,5.63444,-3.68504,8.46935,1.96090,1.96090,57.68862,11.98006,57.68861890,11.98006199,A,145419.90
18:44:00.340118,5.69218,0.01435,3.08943,3.08943,[3.00000 0.00000 0.00000],[1.30000 0.00000 0.00000],-0.01552,0.07830,0.03428,-0.04229,0.00000,0.03127,0.13114,0.06057,0.11755,0.86376,5.68053,0.44444,2.90418,1.97846,2.02405,-3.70562,8.42919,5.63444,-3.68504,8.46935,1.96090,1.96090,57.68862,11.98006,57.68861947,11.98006149,A,145419.90
18:44:00.366934,5.71898,0.01440,3.08943,3.08943,[3.00000 0.00000 0.00000],[1.30000 0.00000 0.00000],-0.01679,0.07538,0.03061,-0.02636,0.00000,0.02226,0.12946,0.08558,-0.10608,1.25812,5.70842,0.38584,2.94123,1.97326,2.01715,-3.73344,8.49044,5.63444,-3.68504,8.46935,1.96090,1.96090,57.68862,11.98006,57.68862002,11.98006102,A,145419.90
18:44:00.408709,5.76077,0.02618,2.32465,2.32465,[3.00000 0.00000 0.00000],[1.30000 0.00000 0.00000],-0.01469,0.07255,0.03244,-0.04006,0.00000,-0.00309,0.14793,0.10468,0.12993,1.09586,5.73638,0.07570,2.81791,1.96107,2.00330,-3.78532,8.60661,5.75601,-3.76428,8.71027,1.88858,1.88858,57.68862,11.98006,57.68862107,11.98006015,A,145420.00
18:44:00.436756,5.78881,0.01559,2.32465,2.32465,[3.00000 0.00000 0.00000],[1.30000 0.00000 0.00000],-0.01299,0.06997,0.02741,-0.03154,0.00000,-0.10419,0.12594,-0.00689,0.07119,0.80679,5.77727,0.05617,2.71926,1.94769,1.98842,-3.81098,8.66966,5.75601,-3.76428,8.71027,1.88858,1.88858,57.68862,11.98006,57.68862163,11.98005971,A,145420.00
18:44:00.463862,5.81592,0.01397,2.90708,2.90708,[3.00000 0.00000 0.00000],[1.30000 0.00000 0.00000],-0.01321,0.06938,0.01885,-0.00504,0.00000,-0.00660,0.12335,-0.15976,0.01434,0.97307,5.80372,0.07814,2.75683,1.93597,1.97635,-3.83249,8.72543,5.75601,-3.76428,8.71027,1.88858,1.88858,57.68862,11.98006,57.68862214,11.98005935,A,145420.00
18:44:00.491137,5.84320,0.01281,2.90708,2.90708,[3.00000 0.00000 0.00000],[1.30000 0.00000 0.00000],-0.01365,0.06859,0.01855,-0.00240,0.00000,0.06380,0.12197,0.08455,-0.00616,1.01443,5.83303,0.12454,2.78688,1.92653,1.96645,-3.85582,8.78696,5.75601,-3.76428,8.71027,1.88858,1.88858,57.68862,11.98006,57.68862269,11.98005896,A,145420.00
18:44:00.531963,5.88403,0.02665,2.90708,2.90708,[3.00000 0.00000 0.00000],[1.30000 0.00000 0.00000],-0.01342,0.06802,0.03244,-0.04501,0.00000,0.02242,0.12197,0.11999,0.01708,1.09898,5.85866,0.07570,2.81092,1.94152,1.98111,-3.89713,8.89078,5.87908,-3.88316,8.95119,2.02915,2.02915,57.68862,11.98006,57.68862362,11.98005826,A,145420.10
18:44:00.577985,5.93004,0.02495,2.29999,2.29999,[3.00000 0.00000 0.00000],[1.30000 0.00000 0.00000],-0.01148,0.06644,0.02786,-0.03881,0.00000,-0.05074,0.11632,-0.07003,0.06191,0.92116,5.91593,0.09280,2.70873,1.95469,1.99336,-3.94029,8.99463,5.87908,-3.88316,8.95119,2.02915,2.02915,57.68862,11.98006,57.68862456,11.98005754,A,145420.10
18:44:00.644987,5.99705,0.04022,2.29999,2.29999,[3.00000 0.00000 0.00000],[1.30000 0.00000 0.00000],-0.01051,0.06315,0.04481,-0.09346,0.00000,0.04624,0.13098,0.04508,-0.05008,0.98698,5.96921,0.06593,2.62698,1.96669,2.00344,-3.98774,9.10433,5.87908,-3.88316,8.95119,2.02915,2.02915,57.68862,11.98006,57.68862554,11.98005674,A,145420.10
18:44:00.696606,6.04867,0.03904,2.91186,2.91186,[3.00000 0.00000 0.00000],[1.30000 0.00000 0.00000],-0.00840,0.06024,0.03779,-0.08061,0.00000,-0.02035,0.10075,0.07290,0.09180,1.08446,6.01328,0.11477,2.68396,1.97225,2.00730,-4.05174,9.24722,6.04391,-4.09118,9.41450,1.99282,1.99282,57.68863,11.98006,57.68862683,11.98005566,A,145420.30
18:44:00.723422,6.07548,0.01551,2.91186,2.91186,[3.00000 0.00000 0.00000],[1.30000 0.00000 0.00000],-0.00750,0.05560,0.03733,-0.08275,0.00000,-0.06983,0.11495,-0.04038,-0.00195,0.87346,6.06367,0.18803,2.72954,1.97312,2.00547,-4.07746,9.30650,6.04391,-4.09118,9.41450,1.99282,1.99282,57.68863,11.98006,57.68862736,11.98005523,A,145420.30
18:44:00.752758,6.10482,0.01419,2.86270,2.86270,[3.00000 0.00000 0.00000],[1.30000 0.00000 0.00000],-0.00761,0.05228,0.02939,-0.05848,0.00000,-0.00813,0.09387,-0.07241,-0.01116,0.99833,6.09290,0.13187,2.75617,1.97447,2.00489,-4.10695,9.37394,6.04391,-4.09118,9.41450,1.99282,1.99282,57.68863,11.98006,57.68862797,11.98005473,A,145420.30
18:44:00.778714,6.13077,0.01450,2.86270,2.86270,[3.00000 0.00000 0.00000],[1.30000 0.00000 0.00000],-0.00762,0.05013,0.02496,-0.04518,0.00000,0.02058,0.07998,0.07607,0.00903,1.02151,6.11825,0.07814,2.77748,1.97521,2.00438,-4.13063,9.42875,6.04391,-4.09118,9.41450,1.99282,1.99282,57.68863,11.98006,57.68862846,11.98005434,A,145420.30
18:44:00.816416,6.16848,0.02763,2.86270,2.86270,[3.00000 0.00000 0.00000],[1.30000 0.00000 0.00000],-0.00827,0.04878,0.02175,-0.03301,0.00000,-0.00981,0.07509,0.11450,-0.02672,0.99857,6.14169,0.22955,2.79452,1.99276,2.02113,-4.17527,9.52593,6.16370,-4.21996,9.63689,2.09568,2.09568,57.68863,11.98005,57.68862934,11.98005359,A,145420.40
18:44:00.842460,6.19422,0.01451,2.54782,2.54782,[3.00000 0.00000 0.00000],[1.30000 0.00000 0.00000],-0.00743,0.04603,0.02634,-0.05005,0.00000,-0.02584,0.09112,0.08326,0.02660,1.04414,6.18272,0.06593,2.74518,2.00638,2.03316,-4.20270,9.58359,6.16370,-4.21996,9.63689,2.09568,2.09568,57.68863,11.98005,57.68862985,11.98005312,A,145420.40
18:44:00.861823,6.21389,0.01017,2.54782,2.54782,[3.00000 0.00000 0.00000],[1.30000 0.00000 0.00000],-0.00787,0.04459,0.01839,-0.02448,0.00000,-0.02050,0.08532,-0.09516,-0.01110,0.93763,6.20335,0.19780,2.70571,2.01739,2.04333,-4.22232,9.62389,6.16370,-4.21996,9.63689,2.09568,2.09568,57.68863,11.98005,57.68863022,11.98005279,A,145420.40
18:44:00.889778,6.24184,0.01447,2.54782,2.54782,[3.00000 0.00000 0.00000],[1.30000 0.00000 0.00000],-0.00604,0.04289,0.02481,-0.05086,0.00000,0.01890,0.07051,0.12700,0.10876,0.91677,6.23133,0.06105,2.67413,2.02754,2.05249,-4.25039,9.67968,6.16370,-4.21996,9.63689,2.09568,2.09568,57.68863,11.98005,57.68863072,11.98005232,A,145420.40
18:44:00.933710,6.28577,0.02707,2.82161,2.82161,[3.00000 0.00000 0.00000],[1.30000 0.00000 0.00000],-0.00602,0.04261,0.00343,0.01321,0.00000,0.01356,0.07066,-0.05496,0.04172,1.01894,6.26068,0.34921,2.70363,2.02731,2.05210,-4.30515,9.78591,6.28105,-4.32893,9.85928,2.02639,2.02639,57.68863,11.98005,57.68863167,11.98005140,A,145420.50
18:44:00.960629,6.31269,0.01441,2.82161,2.82161,[3.00000 0.00000 0.00000],[1.30000 0.00000 0.00000],-0.00476,0.04068,0.02466,-0.05540,0.00000,-0.01317,0.07448,0.00079,0.06692,1.07903,6.30136,0.18071,2.72722,2.02554,2.04920,-4.33306,9.84075,6.28105,-4.32893,9.85928,2.02639,2.02639,57.68863,11.98005,57.68863217,11.98005093,A,145420.50
18:44:00.985091,6.33715,0.01199,2.82161,2.82161,[3.00000 0.00000 0.00000],[1.30000 0.00000 0.00000],-0.00392,0.04034,0.01397,-0.02661,0.00000,-0.04249,0.06196,0.04727,0.07503,0.92732,6.32735,0.19536,2.74610,2.02395,2.04742,-4.35909,9.89226,6.28105,-4.32893,9.85928,2.02639,2.02639,57.68863,11.98005,57.68863263,11.98005049,A,145420.50
18:44:01.014597,6.36665,0.01381,2.71252,2.71252,[3.00000 0.00000 0.00000],[1.30000 0.00000 0.00000],-0.00413,0.03890,0.02420,-0.05649,0.00000,-0.02218,0.06867,-0.04868,-0.01366,0.96844,6.35592,0.43712,2.73938,2.02309,2.04571,-4.38916,9.95178,6.28105,-4.32893,9.85928,2.02639,2.02639,57.68863,11.98005,57.68863317,11.98004999,A,145420.50
18:44:01.067003,6.41907,0.03949,2.71252,2.71252,[3.00000 0.00000 0.00000],[1.30000 0.00000 0.00000],-0.00318,0.03754,0.02343,-0.05792,0.00000,0.03937,0.06990,0.00878,0.06545,0.99046,6.38274,0.15385,2.73401,2.03209,2.05393,-4.45981,10.08853,6.41361,-4.58648,10.32260,2.07816,2.07816,57.68864,11.98005,57.68863439,11.98004880,A,145420.70
18:44:01.089358,6.44141,0.01061,3.20223,3.20223,[3.00000 0.00000 0.00000],[1.30000 0.00000 0.00000],-0.00392,0.03375,0.00602,-0.00279,0.00000,-0.01805,0.04806,0.06143,-0.02092,1.04584,6.43159,0.25641,2.82766,2.03749,2.05711,-4.48881,10.14343,6.41361,-4.58648,10.32260,2.07816,2.07816,57.68864,11.98005,57.68863489,11.98004831,A,145420.70
18:44:01.109830,6.46189,0.01028,3.20223,3.20223,[3.00000 0.00000 0.00000],[1.30000 0.00000 0.00000],-0.00365,0.03261,0.00618,-0.00430,0.00000,-0.01531,0.04393,-0.05600,0.06143,1.08562,6.45106,0.19048,2.90257,2.04198,2.06095,-4.51576,10.19414,6.41361,-4.58648,10.32260,2.07816,2.07816,57.68864,11.98005,57.68863534,11.98004786,A,145420.70
18:44:01.135987,6.48805,0.01455,3.20223,3.20223,[3.00000 0.00000 0.00000],[1.30000 0.00000 0.00000],-0.00393,0.03188,0.00725,-0.00641,0.00000,0.02303,0.04531,-0.01690,0.01751,0.99491,6.47617,0.24664,2.96250,2.04609,2.06463,-4.54645,10.25145,6.41361,-4.58648,10.32260,2.07816,2.07816,57.68864,11.98005,57.68863586,11.98004734,A,145420.70
18:44:01.161797,6.51386,0.01346,3.20223,3.20223,[3.00000 0.00000 0.00000],[1.30000 0.00000 0.00000],-0.00426,0.03103,0.01305,-0.02254,0.00000,0.01875,0.04974,-0.01470,0.00366,0.97588,6.50202,0.15385,3.01045,2.04982,2.06787,-4.57952,10.31272,6.41361,-4.58648,10.32260,2.07816,2.07816,57.68864,11.98005,57.68863641,11.98004678,A,145420.70
18:44:01.204249,6.55631,0.02683,2.31113,2.31113,[3.00000 0.00000 0.00000],[1.30000 0.00000 0.00000],-0.00512,0.02978,0.00923,-0.00773,0.00000,0.00501,0.03370,0.19971,-0.04172,0.99070,6.53234,0.08303,2.87058,2.05181,2.06913,-4.64133,10.42667,6.55155,-4.70536,10.54499,2.06168,2.06168,57.68864,11.98004,57.68863744,11.98004574,A,145420.80
18:44:01.230030,6.58209,0.01187,2.31113,2.31113,[3.00000 0.00000 0.00000],[1.30000 0.00000 0.00000],-0.00405,0.02882,-0.00222,0.02247,0.00000,-0.03791,0.03859,0.01427,0.10443,0.94794,6.57174,0.17094,2.75869,2.05221,2.06898,-4.67416,10.48704,6.55155,-4.70536,10.54499,2.06168,2.06168,57.68864,11.98004,57.68863798,11.98004519,A,145420.80
18:44:01.261115,6.61317,0.01425,2.31113,2.31113,[3.00000 0.00000 0.00000],[1.30000 0.00000 0.00000],-0.00399,0.02854,0.00770,-0.00756,0.00000,-0.00294,0.04317,0.01635,0.02275,1.02815,6.60141,0.10256,2.66918,2.05275,2.06934,-4.70987,10.55272,6.55155,-4.70536,10.54499,2.06168,2.06168,57.68864,11.98004,57.68863857,11.98004459,A,145420.80
18:44:01.285948,6.63801,0.01082,2.88583,2.88583,[3.00000 0.00000 0.00000],[1.30000 0.00000 0.00000],-0.00498,0.02854,0.01504,-0.02567,0.00000,0.01157,0.04653,0.05862,-0.04715,0.92421,6.62832,0.10501,2.71251,2.05293,2.06953,-4.73833,10.60503,6.55155,-4.70536,10.54499,2.06168,2.06168,57.68864,11.98004,57.68863904,11.98004411,A,145420.80
18:44:01.327413,6.67947,0.02768,2.88583,2.88583,[3.00000 0.00000 0.00000],[1.30000 0.00000 0.00000],-0.00462,0.02848,0.00450,0.00452,0.00000,-0.00019,0.04821,0.04605,0.05600,1.00479,6.65545,0.14652,2.74717,2.05403,2.07059,-4.79150,10.70287,6.67474,-4.82423,10.76738,2.06168,2.06168,57.68864,11.98004,57.68863992,11.98004322,A,145420.90
18:44:01.354487,6.70653,0.01304,2.88583,2.88583,[3.00000 0.00000 0.00000],[1.30000 0.00000 0.00000],-0.00601,0.02777,-0.00085,0.02600,0.00000,-0.01546,0.04241,-0.00110,-0.05923,1.10349,6.69411,0.22955,2.77490,2.05403,2.07018,-4.82077,10.75670,6.67474,-4.82423,10.76738,2.06168,2.06168,57.68864,11.98004,57.68864040,11.98004272,A,145420.90
18:44:01.383099,6.73515,0.01317,2.37732,2.37732,[3.00000 0.00000 0.00000],[1.30000 0.00000 0.00000],-0.00673,0.02772,0.01061,-0.00557,0.00000,-0.02264,0.03156,-0.01568,-0.03471,0.96307,6.72341,0.24664,2.69539,2.05426,2.07038,-4.85415,10.81812,6.67474,-4.82423,10.76738,2.06168,2.06168,57.68864,11.98004,57.68864096,11.98004216,A,145420.90
18:44:01.409780,6.76184,0.01404,2.37732,2.37732,[3.00000 0.00000 0.00000],[1.30000 0.00000 0.00000],-0.00676,0.02735,0.00618,0.00785,0.00000,-0.01240,0.03951,-0.01531,0.01757,0.96362,6.74993,0.12210,2.63178,2.05427,2.07018,-4.88125,10.86798,6.67474,-4.82423,10.76738,2.06168,2.06168,57.68864,11.98004,57.68864140,11.98004171,A,145420.90
18:44:01.449955,6.80202,0.02742,2.37732,2.37732,[3.00000 0.00000 0.00000],[1.30000 0.00000 0.00000],-0.00659,0.02636,0.01198,-0.01024,0.00000,0.01341,0.04088,-0.06173,0.02001,0.92342,6.77687,0.04884,2.58088,2.06986,2.08519,-4.93212,10.95892,6.79729,-4.97282,10.98977,2.15983,2.15983,57.68864,11.98004,57.68864222,11.98004085,A,145421.00
18:44:01.476202,6.82826,0.01410,2.95015,2.95015,[3.00000 0.00000 0.00000],[1.30000 0.00000 0.00000],-0.00740,0.02571,0.00923,0.00116,0.00000,0.00730,0.02866,0.01806,-0.04014,0.97118,6.81734,0.04884,2.65474,2.08227,2.09723,-4.96197,11.00968,6.79729,-4.97282,10.98977,2.15983,2.15983,57.68864,11.98004,57.68864268,11.98004035,A,145421.00
18:44:01.500196,6.85225,0.01245,2.95015,2.95015,[3.00000 0.00000 0.00000],[1.30000 0.00000 0.00000],-0.00817,0.02557,-0.00253,0.03945,0.00000,-0.01699,0.02118,-0.03489,-0.01348,1.06122,6.84164,0.03907,2.71382,2.09273,2.10760,-4.98893,11.05414,6.79729,-4.97282,10.98977,2.15983,2.15983,57.68864,11.98004,57.68864308,11.98003990,A,145421.00
18:44:01.525622,6.87768,0.01328,2.95015,2.95015,[3.00000 0.00000 0.00000],[1.30000 0.00000 0.00000],-0.00769,0.02537,0.00816,0.00549,0.00000,-0.00691,0.03004,0.04209,0.05618,1.07146,6.86662,0.04884,2.76109,2.10169,2.11644,-5.01657,11.09873,6.79729,-4.97282,10.98977,2.15983,2.15983,57.68864,11.98004,57.68864348,11.98003943,A,145421.00
18:44:01.581035,6.93310,0.03909,2.66800,2.66800,[3.00000 0.00000 0.00000],[1.30000 0.00000 0.00000],-0.00706,0.02534,-0.00008,0.02779,0.00000,-0.03333,0.03279,-0.01568,0.07027,0.93952,6.89732,0.08303,2.74247,2.09376,2.10850,-5.09988,11.23769,6.92833,-5.21056,11.45308,2.04490,2.04490,57.68865,11.98004,57.68864473,11.98003803,A,145421.20
18:44:01.609069,6.96113,0.01299,2.66800,2.66800,[3.00000 0.00000 0.00000],[1.30000 0.00000 0.00000],-0.00702,0.02534,0.00694,0.00657,0.00000,0.01783,0.02362,0.04246,0.01092,1.02321,6.95003,0.04884,2.72758,2.08547,2.10020,-5.13780,11.30278,6.92833,-5.21056,11.45308,2.04490,2.04490,57.68865,11.98004,57.68864531,11.98003739,A,145421.20
18:44:01.636256,6.98831,0.01465,2.66800,2.66800,[3.00000 0.00000 0.00000],[1.30000 0.00000 0.00000],-0.00760,0.02534,-0.00512,0.04499,0.00000,0.01524,0.02210,0.04178,0.00403,0.95544,6.97688,0.03419,2.71566,2.07837,2.09311,-5.17213,11.36275,6.92833,-5.21056,11.45308,2.04490,2.04490,57.68865,11.98004,57.68864585,11.98003681,A,145421.20
18:44:01.663331,7.01539,0.01465,2.55373,2.55373,[3.00000 0.00000 0.00000],[1.30000 0.00000 0.00000],-0.00682,0.02534,0.03260,-0.07119,0.00000,0.02684,0.03141,0.08070,0.02721,1.05396,7.00300,0.04151,2.68327,2.07234,2.08707,-5.20439,11.41997,6.92833,-5.21056,11.45308,2.04490,2.04490,57.68865,11.98004,57.68864637,11.98003627,A,145421.20
18:44:01.703748,7.05581,0.02716,2.55373,2.55373,[3.00000 0.00000 0.00000],[1.30000 0.00000 0.00000],-0.00891,0.02506,0.01595,0.19108,0.05236,-0.03348,0.01477,-0.08211,-0.12383,0.90927,7.03051,0.05372,2.65736,2.08142,2.09599,-5.26092,11.51951,7.05105,-5.33934,11.65693,2.13420,2.13420,57.68865,11.98003,57.68864726,11.98003532,A,145421.30
18:44:01.732071,7.08413,0.01432,2.81764,2.81764,[3.00000 0.00000 0.00000],[1.30000 0.00000 0.00000],-0.00860,0.02333,-0.00069,0.23982,0.05236,-0.02004,0.03844,0.00933,0.05295,0.98503,7.07281,0.00000,2.68942,2.08848,2.10205,-5.29513,11.57865,7.05105,-5.33934,11.65693,2.13420,2.13420,57.68865,11.98003,57.68864780,11.98003474,A,145421.30
18:44:01.758792,7.11085,0.01189,2.81764,2.81764,[3.00000 0.00000 0.00000],[1.30000 0.00000 0.00000],-0.00895,0.02616,0.02634,0.16009,0.05236,0.02883,0.04180,0.02019,-0.04380,1.10264,7.10062,0.00244,2.71507,2.09417,2.10939,-5.32844,11.63549,7.05105,-5.33934,11.65693,2.13420,2.13420,57.68865,11.98003,57.68864831,11.98003418,A,145421.30
18:44:01.785257,7.13731,0.01381,2.81764,2.81764,[3.00000 0.00000 0.00000],[1.30000 0.00000 0.00000],-0.00815,0.03179,0.01106,0.20279,0.05236,0.02425,0.02759,0.04557,0.06911,0.94812,7.12573,0.00244,2.73558,2.09859,2.11708,-5.35893,11.68667,7.05105,-5.33934,11.65693,2.13420,2.13420,57.68865,11.98003,57.68864877,11.98003367,A,145421.30
18:44:01.825744,7.17781,0.02696,2.81764,2.81764,[3.00000 0.00000 0.00000],[1.30000 0.00000 0.00000],-0.00768,0.03678,0.01595,0.18632,0.05236,-0.03210,0.01171,0.12267,0.04233,0.97338,7.15332,0.02442,2.75199,2.09242,2.11381,-5.41841,11.78609,7.17288,-5.46812,11.89786,2.06168,2.06168,57.68865,11.98003,57.68864966,11.98003267,A,145421.40
18:44:01.848329,7.20037,0.01303,2.74131,2.74131,[3.00000 0.00000 0.00000],[1.30000 0.00000 0.00000],-0.00778,0.04241,0.03107,0.14134,0.05236,0.03540,0.03981,0.00647,-0.03642,0.99887,7.18933,0.00000,2.74986,2.08542,2.11009,-5.44459,11.83093,7.17288,-5.46812,11.89786,2.06168,2.06168,57.68865,11.98003,57.68865006,11.98003223,A,145421.40
18:44:01.875050,7.22711,0.01466,2.74131,2.74131,[3.00000 0.00000 0.00000],[1.30000 0.00000 0.00000],-0.00683,0.04578,0.04115,0.10739,0.05236,0.03219,0.04256,0.03678,0.03806,0.88450,7.21510,0.00000,2.74815,2.07997,2.10660,-5.47847,11.88893,7.17288,-5.46812,11.89786,2.06168,2.06168,57.68865,11.98003,57.68865059,11.98003166,A,145421.40
18:44:01.902818,7.25487,0.01364,3.12479,3.12479,[3.00000 0.00000 0.00000],[1.30000 0.00000 0.00000],-0.00646,0.04807,0.03748,0.11696,0.05236,-0.00553,0.03828,0.01549,0.01086,1.00729,7.24361,0.00000,2.82347,2.07534,2.10330,-5.51107,11.94515,7.17288,-5.46812,11.89786,2.06168,2.06168,57.68865,11.98003,57.68865109,11.98003111,A,145421.40
18:44:01.924339,7.27637,0.01211,3.12479,3.12479,[3.00000 0.00000 0.00000],[1.30000 0.00000 0.00000],-0.00627,0.05093,0.05062,0.07679,0.05236,0.00119,0.05004,0.06027,-0.00348,1.08952,7.26544,0.00000,2.88374,2.07082,2.10045,-5.53577,11.98835,7.17288,-5.46812,11.89786,2.06168,2.06168,57.68865,11.98003,57.68865148,11.98003070,A,145421.40
18:44:01.974676,7.32643,0.03836,3.12479,3.12479,[3.00000 0.00000 0.00000],[1.30000 0.00000 0.00000],-0.00437,0.05336,0.06452,0.02768,0.05236,0.03127,0.06669,0.04178,0.08070,1.01943,7.29106,0.00244,2.93195,2.07774,2.10879,-5.61417,12.12291,7.32161,-5.73558,12.34264,2.11220,2.11220,57.68865,11.98003,57.68865269,11.98002938,A,145421.60
18:44:01.996735,7.34845,0.01208,3.12479,3.12479,[3.00000 0.00000 0.00000],[1.30000 0.00000 0.00000],-0.00128,0.05571,0.08131,-0.03475,0.05236,-0.01057,0.05951,-0.00628,0.01921,0.96624,7.33845,0.00000,2.97052,2.08024,2.11265,-5.64727,12.17919,7.32161,-5.73558,12.34264,2.11220,2.11220,57.68865,11.98003,57.68865320,11.98002882,A,145421.60
18:44:02.023887,7.37594,0.01326,2.32279,2.32279,[3.00000 0.00000 0.00000],[1.30000 0.00000 0.00000],0.00097,0.05647,0.08834,-0.06461,0.05236,-0.00095,0.05585,-0.08351,0.05026,0.97179,7.36396,0.01465,2.84097,2.08299,2.11585,-5.68604,12.24443,7.32161,-5.73558,12.34264,2.11220,2.11220,57.68865,11.98003,57.68865378,11.98002817,A,145421.60
18:44:02.043672,7.39573,0.00932,2.32279,2.32279,[3.00000 0.00000 0.00000],[1.30000 0.00000 0.00000],0.00318,0.05642,0.11293,-0.14697,0.05236,0.00699,0.06486,0.17098,0.02397,0.92543,7.38744,0.15629,2.73733,2.08464,2.11747,-5.71437,12.29199,7.32161,-5.73558,12.34264,2.11220,2.11220,57.68865,11.98003,57.68865421,11.98002769,A,145421.60
18:44:02.057098,7.40916,0.01096,2.32279,2.32279,[3.00000 0.00000 0.00000],[1.30000 0.00000 0.00000],0.00297,0.05605,0.11308,-0.14663,0.05236,-0.01027,0.06745,0.04087,-0.03245,0.91750,7.39779,0.22466,2.65443,2.08503,2.11764,-5.72897,12.31677,7.32161,-5.73558,12.34264,2.11220,2.11220,57.68865,11.98003,57.68865443,11.98002744,A,145421.60
18:44:02.098798,7.45086,0.02601,2.88026,2.88026,[3.00000 0.00000 0.00000],[1.30000 0.00000 0.00000],0.00617,0.05294,0.12209,-0.18611,0.05236,-0.01133,0.07203,0.03697,0.04490,1.06957,7.42682,0.22955,2.69959,2.08640,2.11720,-5.78812,12.41522,7.44599,-5.86436,12.56503,2.09568,2.09568,57.68866,11.98003,57.68865532,11.98002645,A,145421.70
18:44:02.127852,7.47991,0.01395,2.88026,2.88026,[3.00000 0.00000 0.00000],[1.30000 0.00000 0.00000],0.01182,0.04461,0.12759,-0.22464,0.05236,-0.02172,0.05218,0.01903,0.08723,1.03663,7.46898,0.07082,2.73573,2.08666,2.11262,-5.82679,12.48003,7.44599,-5.86436,12.56503,2.09568,2.09568,57.68866,11.98003,57.68865590,11.98002580,A,145421.70
18:44:02.153403,7.50547,0.01264,2.88026,2.88026,[3.00000 0.00000 0.00000],[1.30000 0.00000 0.00000],0.01424,0.03955,0.15279,-0.30970,0.05236,-0.00523,0.04974,0.06521,-0.01848,1.00711,7.49327,0.13919,2.76463,2.08643,2.10943,-5.85632,12.53023,7.44599,-5.86436,12.56503,2.09568,2.09568,57.68866,11.98003,57.68865635,11.98002530,A,145421.70
18:44:02.179361,7.53142,0.01448,2.88026,2.88026,[3.00000 0.00000 0.00000],[1.30000 0.00000 0.00000],0.01822,0.03344,0.15324,-0.32657,0.05236,-0.02630,0.06058,0.00976,0.05398,0.98802,7.52035,0.54212,2.78776,2.08684,2.10629,-5.88917,12.58626,7.44599,-5.86436,12.56503,2.09568,2.09568,57.68866,11.98003,57.68865686,11.98002475,A,145421.70
18:44:02.219416,7.57147,0.02835,2.38589,2.38589,[3.00000 0.00000 0.00000],[1.30000 0.00000 0.00000],0.02303,0.02554,0.16057,-0.36733,0.05236,-0.00920,0.05722,0.06826,0.09351,0.98076,7.54700,1.04029,2.70738,2.08350,2.09835,-5.94603,12.68422,7.56675,-5.98323,12.78742,2.06168,2.06168,57.68866,11.98002,57.68865774,11.98002379,A,145421.80
18:44:02.246428,7.59820,0.01444,2.38589,2.38589,[3.00000 0.00000 0.00000],[1.30000 0.00000 0.00000],0.02904,0.01136,0.13736,-0.32115,0.05236,0.01050,-0.00020,0.04288,0.10163,1.03852,7.58649,0.95482,2.64308,2.08039,2.08699,-5.97709,12.73951,7.56675,-5.98323,12.78742,2.06168,2.06168,57.68866,11.98002,57.68865824,11.98002327,A,145421.80
18:44:02.276367,7.62842,0.01540,2.88956,2.88956,[3.00000 0.00000 0.00000],[1.30000 0.00000 0.00000],0.03202,0.00007,0.13125,-0.31442,0.05236,0.00653,-0.03105,-0.00366,-0.00482,0.97881,7.61630,0.69353,2.69238,2.07818,2.07822,-6.01102,12.80114,7.56675,-5.98323,12.78742,2.06168,2.06168,57.68866,11.98002,57.68865879,11.98002270,A,145421.80
18:44:02.304233,7.65629,0.01520,2.88956,2.88956,[3.00000 0.00000 0.00000],[1.30000 0.00000 0.00000],0.03386,-0.00885,0.10132,-0.23181,0.05236,-0.03714,-0.04831,-0.03111,-0.01061,1.00327,7.64395,0.44933,2.73181,2.07648,2.07133,-6.03962,12.85440,7.56675,-5.98323,12.78742,2.06168,2.06168,57.68866,11.98002,57.68865927,11.98002222,A,145421.80
18:44:02.342716,7.69478,0.02565,2.88956,2.88956,[3.00000 0.00000 0.00000],[1.30000 0.00000 0.00000],0.03608,-0.01844,0.09109,-0.20979,0.05236,-0.01072,-0.08007,-0.05703,0.03623,1.05695,7.67074,0.18559,2.76336,2.08519,2.07446,-6.09176,12.94996,7.68992,-6.12191,13.00981,2.12839,2.12839,57.68866,11.98002,57.68866013,11.98002134,A,145421.90
18:44:02.370600,7.72265,0.01445,2.72707,2.72707,[3.00000 0.00000 0.00000],[1.30000 0.00000 0.00000],0.03970,-0.02937,0.07521,-0.17623,0.05236,0.00333,-0.10374,-0.01440,0.07967,0.91604,7.71025,0.02198,2.75610,2.09336,2.07628,-6.12258,13.00615,7.68992,-6.12191,13.00981,2.12839,2.12839,57.68866,11.98002,57.68866063,11.98002082,A,145421.90
18:44:02.392070,7.74413,0.00997,2.72707,2.72707,[3.00000 0.00000 0.00000],[1.30000 0.00000 0.00000],0.04117,-0.03455,0.08651,-0.21587,0.05236,-0.01057,-0.10710,0.10419,0.00531,1.01821,7.73421,0.05128,2.75030,2.10046,2.08036,-6.14733,13.05111,7.68992,-6.12191,13.00981,2.12839,2.12839,57.68866,11.98002,57.68866104,11.98002041,A,145421.90
18:44:02.405151,7.75721,0.01209,2.72707,2.72707,[3.00000 0.00000 0.00000],[1.30000 0.00000 0.00000],0.04129,-0.03684,0.08864,-0.22274,0.05236,-0.01790,-0.10954,0.06313,-0.02056,1.05518,7.74649,0.06349,2.74565,2.10720,2.08578,-6.15801,13.07043,7.68992,-6.12191,13.00981,2.12839,2.12839,57.68866,11.98002,57.68866121,11.98002023,A,145421.90
18:44:02.427660,7.77971,0.01303,2.72707,2.72707,[3.00000 0.00000 0.00000],[1.30000 0.00000 0.00000],0.04242,-0.04134,0.07627,-0.19005,0.05236,-0.01225,-0.11642,-0.01342,0.01104,1.04633,7.76773,0.07570,2.74194,2.11261,2.08856,-6.17993,13.10933,7.68992,-6.12191,13.00981,2.12839,2.12839,57.68866,11.98002,57.68866156,11.98001986,A,145421.90
18:44:02.479732,7.83179,0.03981,2.72707,2.72707,[3.00000 0.00000 0.00000],[1.30000 0.00000 0.00000],0.04462,-0.04799,0.06803,-0.17390,0.05236,-0.01118,-0.14085,-0.02355,0.06002,1.04944,7.79648,0.06593,2.73896,2.10727,2.07935,-6.25691,13.24514,7.82667,-6.37947,13.47312,2.07816,2.07816,57.68866,11.98002,57.68866278,11.98001856,A,145422.10
18:44:02.504526,7.85659,0.01159,2.55066,2.55066,[3.00000 0.00000 0.00000],[1.30000 0.00000 0.00000],0.04727,-0.05739,0.08299,-0.22914,0.05236,-0.01622,-0.14146,-0.05258,-0.05893,0.89298,7.84736,0.17338,2.70130,2.10572,2.07233,-6.29163,13.30784,7.82667,-6.37947,13.47312,2.07816,2.07816,57.68866,11.98002,57.68866335,11.98001798,A,145422.10
18:44:02.521552,7.87361,0.00817,2.55066,2.55066,[3.00000 0.00000 0.00000],[1.30000 0.00000 0.00000],0.04823,-0.06104,0.07627,-0.21273,0.05236,-0.00843,-0.15139,0.05014,0.01055,0.97515,7.86556,0.35165,2.67118,2.10518,2.06965,-6.31474,13.35024,7.82667,-6.37947,13.47312,2.07816,2.07816,57.68866,11.98002,57.68866373,11.98001759,A,145422.10
18:44:02.532021,7.88409,0.00823,2.55066,2.55066,[3.00000 0.00000 0.00000],[1.30000 0.00000 0.00000],0.04816,-0.06325,0.06894,-0.19045,0.05236,-0.00324,-0.15750,-0.00683,-0.00927,1.06451,7.87537,0.20757,2.64707,2.10571,2.06890,-6.32744,13.37375,7.82667,-6.37947,13.47312,2.07816,2.07816,57.68866,11.98002,57.68866394,11.98001738,A,145422.10
18:44:02.541973,7.89404,0.00778,2.82478,2.82478,[3.00000 0.00000 0.00000],[1.30000 0.00000 0.00000],0.04861,-0.06565,0.06085,-0.19045,0.05236,0.00607,-0.17231,0.17336,0.01677,0.99314,7.88581,0.25885,2.68262,2.10630,2.06808,-6.33984,13.39673,7.82667,-6.37947,13.47312,2.07816,2.07816,57.68866,11.98002,57.68866415,11.98001717,A,145422.10
18:44:02.554386,7.90620,0.00953,2.82478,2.82478,[3.00000 0.00000 0.00000],[1.30000 0.00000 0.00000],0.05030,-0.06775,0.05138,-0.14609,0.05236,-0.01347,-0.17674,0.00848,0.11553,1.06042,7.89621,0.38828,2.71105,2.10691,2.06748,-6.35188,13.41909,7.82667,-6.37947,13.47312,2.07816,2.07816,57.68866,11.98002,57.68866435,11.98001696,A,145422.10
18:44:02.567819,7.91988,0.01241,2.82478,2.82478,[3.00000 0.00000 0.00000],[1.30000 0.00000 0.00000],0.05110,-0.06990,0.07093,-0.20786,0.05236,-0.01668,-0.18483,0.10827,0.03355,1.01284,7.90680,0.25641,2.73380,2.10730,2.06661,-6.36594,13.44519,7.82667,-6.37947,13.47312,2.07816,2.07816,57.68866,11.98002,57.68866458,11.98001673,A,145422.10
18:44:02.599158,7.95122,0.02143,2.82478,2.82478,[3.00000 0.00000 0.00000],[1.30000 0.00000 0.00000],0.05060,-0.07344,0.06650,-0.19266,0.05236,-0.01531,-0.19400,0.06368,-0.10510,0.97588,7.92984,0.43223,2.75199,2.12002,2.07727,-6.41067,13.52540,7.94648,-6.50825,13.65844,2.17808,2.17808,57.68867,11.98001,57.68866530,11.98001598,A,145422.20
18:44:02.618961,7.97102,0.00935,2.82478,2.82478,[3.00000 0.00000 0.00000],[1.30000 0.00000 0.00000],0.05162,-0.08130,0.05184,-0.15262,0.05236,-0.03867,-0.20866,-0.01952,-0.02184,0.90725,7.96128,0.32723,2.76655,2.13328,2.08593,-6.43725,13.57117,7.94648,-6.50825,13.65844,2.17808,2.17808,57.68867,11.98001,57.68866572,11.98001553,A,145422.20
18:44:02.628112,7.98017,0.00770,2.73305,2.73305,[3.00000 0.00000 0.00000],[1.30000 0.00000 0.00000],0.05266,-0.08343,0.04054,-0.15262,0.05236,-0.03149,-0.20896,-0.05392,0.06820,1.02144,7.97195,0.18803,2.75985,2.14606,2.09747,-6.45033,13.59236,7.94648,-6.50825,13.65844,2.17808,2.17808,57.68867,11.98001,57.68866591,11.98001531,A,145422.20
18:44:02.640822,7.99289,0.01024,2.73305,2.73305,[3.00000 0.00000 0.00000],[1.30000 0.00000 0.00000],0.05375,-0.08535,0.05291,-0.16413,0.05236,-0.01378,-0.21492,-0.07869,0.06539,1.03383,7.98206,0.18559,2.75449,2.15654,2.10683,-6.46699,13.61933,7.94648,-6.50825,13.65844,2.17808,2.17808,57.68867,11.98001,57.68866615,11.98001503,A,145422.20
18:44:02.659874,8.01194,0.00790,2.73305,2.73305,[3.00000 0.00000 0.00000],[1.30000 0.00000 0.00000],0.05283,-0.08926,0.03580,-0.10927,0.05236,0.02089,-0.23309,0.16238,-0.08790,0.97319,8.00371,0.12454,2.75020,2.16464,2.11264,-6.49158,13.65922,7.94648,-6.50825,13.65844,2.17808,2.17808,57.68867,11.98001,57.68866651,11.98001461,A,145422.20
18:44:02.670500,8.02254,0.00796,2.73305,2.73305,[3.00000 0.00000 0.00000],[1.30000 0.00000 0.00000],0.05245,-0.09138,0.02206,-0.06654,0.05236,0.01493,-0.22882,0.05661,-0.02007,0.99631,8.01392,0.07570,2.74677,2.17309,2.11985,-6.50391,13.67827,7.94648,-6.50825,13.65844,2.17808,2.17808,57.68867,11.98001,57.68866668,11.98001441,A,145422.20
18:44:02.681983,8.03404,0.00905,2.73305,2.73305,[3.00000 0.00000 0.00000],[1.30000 0.00000 0.00000],0.05400,-0.09345,0.01778,-0.05973,0.05236,0.01570,-0.24103,-0.00952,0.10705,0.97978,8.02452,0.04396,2.74403,2.18018,2.12574,-6.51747,13.69910,7.94648,-6.50825,13.65844,2.17808,2.17808,57.68867,11.98001,57.68866687,11.98001418,A,145422.20
18:44:02.691402,8.04346,0.00813,2.73305,2.73305,[3.00000 0.00000 0.00000],[1.30000 0.00000 0.00000],0.05499,-0.09503,0.02771,-0.05973,0.05236,0.00989,-0.24592,0.12834,0.06557,0.98985,8.03499,0.01709,2.74183,2.18678,2.13141,-6.52710,13.71334,7.94648,-6.50825,13.65844,2.17808,2.17808,57.68867,11.98001,57.68866699,11.98001402,A,145422.20
18:44:02.715744,8.06781,0.02207,2.73305,2.73305,[3.00000 0.00000 0.00000],[1.30000 0.00000 0.00000],0.05455,-0.09628,0.03046,-0.09991,0.05236,0.00409,-0.24256,0.04715,-0.03257,0.96026,8.04567,0.02686,2.74008,2.17204,2.11594,-6.56461,13.77376,8.06309,-6.64693,13.91790,2.06168,2.06168,57.68867,11.98001,57.68866754,11.98001339,A,145422.30
18:44:02.735864,8.08792,0.01220,3.19378,3.19378,[3.00000 0.00000 0.00000],[1.30000 0.00000 0.00000],0.05494,-0.09834,-0.01245,0.02729,0.05236,-0.01149,-0.26440,-0.00891,0.05514,1.06061,8.07662,0.12454,2.83082,2.16087,2.10357,-6.59087,13.81750,8.06309,-6.64693,13.91790,2.06168,2.06168,57.68867,11.98001,57.68866793,11.98001294,A,145422.30
18:44:02.752392,8.10445,0.00812,3.19378,3.19378,[3.00000 0.00000 0.00000],[1.30000 0.00000 0.00000],0.05640,-0.09970,0.00389,-0.02743,0.05236,0.01860,-0.26974,-0.00238,0.08772,0.99717,8.09593,0.02686,2.90341,2.15180,2.09370,-6.61298,13.85525,8.06309,-6.64693,13.91790,2.06168,2.06168,57.68867,11.98001,57.68866827,11.98001257,A,145422.30
18:44:02.762365,8.11417,0.00742,3.19378,3.19378,[3.00000 0.00000 0.00000],[1.30000 0.00000 0.00000],0.05663,-0.10015,0.00618,-0.02743,0.05236,0.01585,-0.26990,0.21466,0.00250,0.95935,8.10610,0.04884,2.96148,2.14533,2.08697,-6.62562,13.87737,8.06309,-6.64693,13.91790,2.06168,2.06168,57.68867,11.98001,57.68866847,11.98001236,A,145422.30
18:44:02.772837,8.12490,0.00774,3.19378,3.19378,[3.00000 0.00000 0.00000],[1.30000 0.00000 0.00000],0.05468,-0.10046,0.00343,-0.01935,0.05236,-0.01027,-0.27265,0.05789,-0.13030,0.88792,8.11668,0.05617,3.00794,2.13971,2.08116,-6.63845,13.90012,8.06309,-6.64693,13.91790,2.06168,2.06168,57.68867,11.98001,57.68866867,11.98001214,A,145422.30
18:44:02.783586,8.13564,0.00807,3.19378,3.19378,[3.00000 0.00000 0.00000],[1.30000 0.00000 0.00000],0.05486,-0.10069,-0.01261,0.02808,0.05236,-0.03959,-0.26761,0.01147,0.00872,0.94873,8.12734,0.05128,3.04511,2.13489,2.07621,-6.65082,13.92235,8.06309,-6.64693,13.91790,2.06168,2.06168,57.68867,11.98001,57.68866887,11.98001193,A,145422.30
18:44:02.793649,8.14571,0.00773,3.19378,3.19378,[3.00000 0.00000 0.00000],[1.30000 0.00000 0.00000],0.05523,-0.10080,-0.01810,0.04311,0.05236,-0.05287,-0.26333,-0.06545,0.02898,0.98606,8.13749,0.07814,3.07484,2.13079,2.07204,-6.66253,13.94365,8.06309,-6.64693,13.91790,2.06168,2.06168,57.68867,11.98001,57.68866906,11.98001174,A,145422.30
18:44:02.804736,8.15680,0.00841,3.19378,3.19378,[3.00000 0.00000 0.00000],[1.30000 0.00000 0.00000],0.05611,-0.10089,-0.00864,0.01129,0.05236,-0.04310,-0.26623,-0.07430,0.07540,1.11661,8.14789,0.01465,3.09863,2.12734,2.06854,-6.67339,13.96360,8.06309,-6.64693,13.91790,2.06168,2.06168,57.68867,11.98001,57.68866924,11.98001155,A,145422.30
18:44:02.830745,8.18281,0.02337,2.32381,2.32381,[3.00000 0.00000 0.00000],[1.30000 0.00000 0.00000],0.05491,-0.10089,-0.01459,0.03381,0.05236,-0.01210,-0.28349,0.01580,-0.03172,1.16809,8.15892,0.05861,2.94367,2.12626,2.06746,-6.71203,14.03412,8.17791,-6.76581,14.12176,2.09871,2.09871,57.68867,11.98001,57.68866988,11.98001090,A,145422.40
18:44:02.851509,8.20357,0.00865,2.32381,2.32381,[3.00000 0.00000 0.00000],[1.30000 0.00000 0.00000],0.05378,-0.10089,-0.01719,0.04604,0.05236,-0.00675,-0.29372,0.07387,-0.00738,0.86461,8.19491,0.02686,2.81970,2.12690,2.06810,-6.73928,14.08381,8.17791,-6.76581,14.12176,2.09871,2.09871,57.68867,11.98001,57.68867033,11.98001045,A,145422.40
18:44:02.860855,8.21292,0.00779,2.32381,2.32381,[3.00000 0.00000 0.00000],[1.30000 0.00000 0.00000],0.05270,-0.10089,-0.01520,0.04604,0.05236,-0.02035,-0.29448,0.06210,-0.03209,0.82869,8.20471,0.03663,2.72052,2.12983,2.07103,-6.75067,14.10425,8.17791,-6.76581,14.12176,2.09871,2.09871,57.68867,11.98001,57.68867051,11.98001025,A,145422.40
18:44:02.872095,8.22416,0.00799,2.32381,2.32381,[3.00000 0.00000 0.00000],[1.30000 0.00000 0.00000],0.05137,-0.10092,-0.02727,0.08565,0.05236,-0.04753,-0.28776,-0.12584,-0.03727,0.91494,8.21582,0.03907,2.64118,2.13217,2.07335,-6.76250,14.12539,8.17791,-6.76581,14.12176,2.09871,2.09871,57.68867,11.98001,57.68867070,11.98001006,A,145422.40
18:44:02.883098,8.23516,0.00840,2.32381,2.32381,[3.00000 0.00000 0.00000],[1.30000 0.00000 0.00000],0.05128,-0.10097,-0.02635,0.08326,0.05236,-0.03165,-0.28227,0.01385,0.04947,1.07238,8.22664,0.01954,2.57770,2.13424,2.07539,-6.77332,14.14459,8.17791,-6.76581,14.12176,2.09871,2.09871,57.68867,11.98001,57.68867087,11.98000987,A,145422.40
18:44:02.894687,8.24674,0.00959,2.32381,2.32381,[3.00000 0.00000 0.00000],[1.30000 0.00000 0.00000],0.05033,-0.10112,-0.03444,0.11126,0.05236,-0.01164,-0.28563,-0.05838,-0.00311,1.10581,8.23822,0.02198,2.52692,2.13587,2.07694,-6.78449,14.16436,8.17791,-6.76581,14.12176,2.09871,2.09871,57.68867,11.98001,57.68867105,11.98000969,A,145422.40
18:44:02.903396,8.25546,0.00772,2.89942,2.89942,[3.00000 0.00000 0.00000],[1.30000 0.00000 0.00000],0.04970,-0.10117,-0.02986,0.11126,0.05236,0.01234,-0.28944,0.16098,-0.01745,1.06494,8.24704,0.00244,2.60142,2.13783,2.07887,-6.79159,14.17671,8.17791,-6.76581,14.12176,2.09871,2.09871,57.68867,11.98001,57.68867116,11.98000957,A,145422.40
18:44:02.914436,8.26624,0.00826,2.89942,2.89942,[3.00000 0.00000 0.00000],[1.30000 0.00000 0.00000],0.05002,-0.10114,-0.05262,0.16700,0.05236,-0.00462,-0.29952,0.01220,0.06649,1.04316,8.25751,0.00000,2.66102,2.13903,2.08008,-6.80127,14.19366,8.17791,-6.76581,14.12176,2.09871,2.09871,57.68867,11.98001,57.68867131,11.98000940,A,145422.40
18:44:02.926348,8.27816,0.00978,2.89942,2.89942,[3.00000 0.00000 0.00000],[1.30000 0.00000 0.00000],0.05024,-0.10083,-0.03979,0.12766,0.05236,-0.01469,-0.30365,0.24443,0.04849,1.02443,8.26788,0.00000,2.70870,2.14025,2.08148,-6.80906,14.20720,8.17791,-6.76581,14.12176,2.09871,2.09871,57.68867,11.98001,57.68867144,11.98000927,A,145422.40
18:44:02.949036,8.30110,0.02139,2.89942,2.89942,[3.00000 0.00000 0.00000],[1.30000 0.00000 0.00000],0.05093,-0.09964,-0.02864,0.09149,0.05236,-0.03501,-0.29754,-0.16403,0.06594,0.95209,8.27905,0.00000,2.74685,2.13777,2.07971,-6.84132,14.26399,8.29638,-6.89458,14.34415,2.09568,2.09568,57.68867,11.98001,57.68867195,11.98000873,A,145422.50
18:44:02.965730,8.31779,0.00880,2.89942,2.89942,[3.00000 0.00000 0.00000],[1.30000 0.00000 0.00000],0.04838,-0.09642,-0.03628,0.12437,0.05236,-0.03653,-0.30029,0.01006,-0.09376,1.06677,8.30856,0.00000,2.77736,2.13689,2.08071,-6.86277,14.30167,8.29638,-6.89458,14.34415,2.09568,2.09568,57.68867,11.98001,57.68867228,11.98000837,A,145422.50
18:44:02.974963,8.32702,0.00779,2.89942,2.89942,[3.00000 0.00000 0.00000],[1.30000 0.00000 0.00000],0.04814,-0.09540,-0.04911,0.12437,0.05236,-0.02890,-0.29510,-0.00878,0.02586,1.03505,8.31858,0.00000,2.80177,2.13764,2.08205,-6.87353,14.32019,8.29638,-6.89458,14.34415,2.09568,2.09568,57.68867,11.98001,57.68867245,11.98000819,A,145422.50
18:44:02.986629,8.33763,0.00782,2.89942,2.89942,[3.00000 0.00000 0.00000],[1.30000 0.00000 0.00000],0.04894,-0.09461,-0.03780,0.12676,0.05236,-0.02004,-0.29021,0.20783,0.08821,1.00924,8.32937,0.00000,2.82130,2.13784,2.08272,-6.88623,14.34215,8.29638,-6.89458,14.34415,2.09568,2.09568,57.68867,11.98001,57.68867265,11.98000797,A,145422.50
18:44:02.999358,8.35141,0.01051,2.37510,2.37510,[3.00000 0.00000 0.00000],[1.30000 0.00000 0.00000],0.04961,-0.09359,-0.02620,0.08932,0.05236,-0.02233,-0.27875,-0.16195,0.09296,0.99076,8.34059,0.00000,2.73206,2.13778,2.08326,-6.89935,14.36486,8.29638,-6.89458,14.34415,2.09568,2.09568,57.68867,11.98001,57.68867285,11.98000775,A,145422.50
18:44:03.015859,8.36792,0.00789,2.37510,2.37510,[3.00000 0.00000 0.00000],[1.30000 0.00000 0.00000],0.05115,-0.09144,-0.01474,0.04895,0.05236,0.00317,-0.26073,-0.04044,0.15463,1.00095,8.35967,0.00000,2.66067,2.13669,2.08342,-6.91776,14.39696,8.29638,-6.89458,14.34415,2.09568,2.09568,57.68867,11.98001,57.68867314,11.98000744,A,145422.50
18:44:03.028103,8.38016,0.00959,2.37510,2.37510,[3.00000 0.00000 0.00000],[1.30000 0.00000 0.00000],0.04957,-0.09087,0.00251,0.00333,0.05236,0.02440,-0.25860,0.03056,-0.07058,0.89493,8.36990,0.00000,2.60356,2.13697,2.08403,-6.92697,14.41275,8.29638,-6.89458,14.34415,2.09568,2.09568,57.68867,11.98001,57.68867328,11.98000729,A,145422.50
18:44:03.036956,8.38902,0.00785,2.37510,2.37510,[3.00000 0.00000 0.00000],[1.30000 0.00000 0.00000],0.04764,-0.09047,-0.00543,0.03470,0.05236,0.00837,-0.24638,0.11017,-0.08851,0.90109,8.38075,0.00244,2.55787,2.13715,2.08445,-6.93596,14.42814,8.29638,-6.89458,14.34415,2.09568,2.09568,57.68867,11.98001,57.68867342,11.98000714,A,145422.50
18:44:03.047351,8.39941,0.00783,2.37510,2.37510,[3.00000 0.00000 0.00000],[1.30000 0.00000 0.00000],0.04748,-0.09013,-0.02039,0.08021,0.05236,-0.00294,-0.24730,-0.05472,0.02666,0.91531,8.39089,0.00000,2.52131,2.13740,2.08490,-6.94366,14.44126,8.29638,-6.89458,14.34415,2.09568,2.09568,57.68867,11.98001,57.68867354,11.98000701,A,145422.50
18:44:03.082730,8.43479,0.03296,2.37510,2.37510,[3.00000 0.00000 0.00000],[1.30000 0.00000 0.00000],0.04891,-0.08982,-0.01032,0.04440,0.05236,-0.00874,-0.24989,0.04075,0.13267,0.99442,8.40166,0.00000,2.49207,2.12822,2.07590,-6.99283,14.52901,8.42950,-7.13233,14.78893,2.06168,2.06168,57.68868,11.98000,57.68867433,11.98000618,A,145422.70
18:44:03.102761,8.45482,0.01022,2.96713,2.96713,[3.00000 0.00000 0.00000],[1.30000 0.00000 0.00000],0.04811,-0.08730,-0.01368,0.05761,0.05236,0.00852,-0.26852,0.03276,-0.00403,1.01095,8.44576,0.00977,2.58708,2.12286,2.07201,-7.02059,14.57959,8.42950,-7.13233,14.78893,2.06168,2.06168,57.68868,11.98000,57.68867478,11.98000571,A,145422.70
18:44:03.119933,8.47200,0.00802,2.96713,2.96713,[3.00000 0.00000 0.00000],[1.30000 0.00000 0.00000],0.04929,-0.08677,-0.01917,0.06949,0.05236,-0.02752,-0.26730,0.14921,0.09479,0.90457,8.46364,0.00000,2.66309,2.11872,2.06819,-7.04413,14.62282,8.42950,-7.13233,14.78893,2.06168,2.06168,57.68868,11.98000,57.68867517,11.98000532,A,145422.70
18:44:03.132124,8.48418,0.00964,2.96713,2.96713,[3.00000 0.00000 0.00000],[1.30000 0.00000 0.00000],0.05096,-0.08643,-0.00970,0.03458,0.05236,-0.04493,-0.25844,-0.03977,0.11547,0.92561,8.47388,0.00244,2.72390,2.11630,2.06596,-7.05856,14.64959,8.42950,-7.13233,14.78893,2.06168,2.06168,57.68868,11.98000,57.68867541,11.98000507,A,145422.70
18:44:03.140903,8.49296,0.00779,2.96713,2.96713,[3.00000 0.00000 0.00000],[1.30000 0.00000 0.00000],0.05198,-0.08628,0.00740,0.03458,0.05236,-0.05150,-0.25585,-0.04423,0.06631,0.93251,8.48474,0.00000,2.77255,2.11446,2.06421,-7.07056,14.67195,8.42950,-7.13233,14.78893,2.06168,2.06168,57.68868,11.98000,57.68867561,11.98000487,A,145422.70
18:44:03.152565,8.50463,0.00904,2.96713,2.96713,[3.00000 0.00000 0.00000],[1.30000 0.00000 0.00000],0.05053,-0.08623,0.00587,-0.01047,0.05236,-0.04417,-0.25753,-0.02757,-0.08589,0.91506,8.49602,0.00000,2.81146,2.11243,2.06221,-7.08529,14.69945,8.42950,-7.13233,14.78893,2.06168,2.06168,57.68868,11.98000,57.68867586,11.98000462,A,145422.70
18:44:03.161910,8.51399,0.00815,2.96713,2.96713,[3.00000 0.00000 0.00000],[1.30000 0.00000 0.00000],0.04918,-0.08623,-0.01123,-0.01047,0.05236,-0.05043,-0.24882,0.02739,-0.07052,0.93037,8.50538,0.00000,2.84260,2.11112,2.06090,-7.09626,14.72002,8.42950,-7.13233,14.78893,2.06168,2.06168,57.68868,11.98000,57.68867605,11.98000444,A,145422.70
18:44:03.172118,8.52418,0.00794,2.71487,2.71487,[3.00000 0.00000 0.00000],[1.30000 0.00000 0.00000],0.04912,-0.08623,-0.01948,0.07107,0.05236,-0.04631,-0.25295,-0.11730,0.02940,0.99399,8.51575,0.00000,2.81705,2.10972,2.05950,-7.10872,14.74344,8.42950,-7.13233,14.78893,2.06168,2.06168,57.68868,11.98000,57.68867626,11.98000423,A,145422.70
18:44:03.197957,8.55002,0.02328,2.71487,2.71487,[3.00000 0.00000 0.00000],[1.30000 0.00000 0.00000],0.04958,-0.08623,-0.01413,0.05325,0.05236,-0.02752,-0.25707,0.02678,0.06887,1.06951,8.52607,0.00000,2.79661,2.09058,2.04036,-7.14525,14.81492,8.54527,-7.23139,15.02985,1.96090,1.96090,57.68868,11.98000,57.68867690,11.98000362,A,145422.80
18:44:03.215389,8.56745,0.00894,2.71487,2.71487,[3.00000 0.00000 0.00000],[1.30000 0.00000 0.00000],0.04903,-0.08538,0.01794,-0.04084,0.05236,0.01661,-0.25111,0.21960,-0.05337,1.06274,8.55896,0.00000,2.78026,2.07587,2.02615,-7.16783,14.86169,8.54527,-7.23139,15.02985,1.96090,1.96090,57.68868,11.98000,57.68867732,11.98000324,A,145422.80
18:44:03.224411,8.57647,0.00772,2.71487,2.71487,[3.00000 0.00000 0.00000],[1.30000 0.00000 0.00000],0.04821,-0.08507,0.00389,-0.04084,0.05236,0.00607,-0.25157,0.07820,-0.03636,0.96953,8.56833,0.00000,2.76718,2.06478,2.01524,-7.17944,14.88730,8.54527,-7.23139,15.02985,1.96090,1.96090,57.68868,11.98000,57.68867755,11.98000304,A,145422.80
18:44:03.236896,8.58895,0.00996,2.71487,2.71487,[3.00000 0.00000 0.00000],[1.30000 0.00000 0.00000],0.04775,-0.08501,-0.01062,0.04986,0.05236,-0.02004,-0.25157,0.20581,-0.00305,0.99052,8.57979,0.00000,2.75672,2.05493,2.00542,-7.19302,14.91751,8.54527,-7.23139,15.02985,1.96090,1.96090,57.68868,11.98000,57.68867782,11.98000281,A,145422.80
18:44:03.245490,8.59755,0.00760,2.71487,2.71487,[3.00000 0.00000 0.00000],[1.30000 0.00000 0.00000],0.04806,-0.08501,-0.01520,0.04986,0.05236,-0.03852,-0.25065,-0.00067,0.05344,1.02303,8.58955,0.00733,2.74835,2.04699,1.99748,-7.20297,14.94042,8.54527,-7.23139,15.02985,1.96090,1.96090,57.68868,11.98000,57.68867803,11.98000264,A,145422.80
18:44:03.256873,8.60895,0.00859,2.71487,2.71487,[3.00000 0.00000 0.00000],[1.30000 0.00000 0.00000],0.04872,-0.08501,0.00160,0.00942,0.05236,-0.03669,-0.25295,0.01360,0.06277,0.99802,8.60014,0.00244,2.74165,2.04002,1.99050,-7.21369,14.96535,8.54527,-7.23139,15.02985,1.96090,1.96090,57.68868,11.98000,57.68867825,11.98000246,A,145422.80
18:44:03.265918,8.61798,0.00741,2.55582,2.55582,[3.00000 0.00000 0.00000],[1.30000 0.00000 0.00000],0.04839,-0.08501,0.00602,0.00942,0.05236,-0.04157,-0.25508,0.01122,0.00213,1.02395,8.60991,0.00000,2.70449,2.03424,1.98473,-7.22281,14.98702,8.54527,-7.23139,15.02985,1.96090,1.96090,57.68868,11.98000,57.68867845,11.98000231,A,145422.80
18:44:03.276745,8.62881,0.00783,2.55582,2.55582,[3.00000 0.00000 0.00000],[1.30000 0.00000 0.00000],0.04833,-0.08501,0.00832,-0.00923,0.05236,-0.03959,-0.25539,0.06295,0.01372,0.94745,8.62049,0.00000,2.67475,2.02921,1.97969,-7.23208,15.00930,8.54527,-7.23139,15.02985,1.96090,1.96090,57.68868,11.98000,57.68867865,11.98000215,A,145422.80
18:44:03.288242,8.64030,0.00892,2.55582,2.55582,[3.00000 0.00000 0.00000],[1.30000 0.00000 0.00000],0.04823,-0.08501,0.00175,0.01087,0.05236,-0.03531,-0.25753,0.04386,0.01171,0.89646,8.63194,0.00000,2.65096,2.02482,1.97531,-7.24144,15.03199,8.54527,-7.23139,15.02985,1.96090,1.96090,57.68868,11.98000,57.68867885,11.98000200,A,145422.80
18:44:03.313474,8.66553,0.02393,2.55582,2.55582,[3.00000 0.00000 0.00000],[1.30000 0.00000 0.00000],0.04935,-0.08501,-0.00146,0.01610,0.05236,-0.02004,-0.25707,-0.08772,0.08802,0.89780,8.64213,0.00244,2.63193,2.01337,1.96386,-7.26880,15.09860,8.66080,-7.32054,15.27077,1.92522,1.92522,57.68868,11.98000,57.68867945,11.98000154,A,145422.90
18:44:03.329664,8.68172,0.00770,2.55582,2.55582,[3.00000 0.00000 0.00000],[1.30000 0.00000 0.00000],0.04926,-0.08501,0.00373,0.00089,0.05236,0.00684,-0.24668,-0.05240,0.01403,1.00815,8.67359,0.00244,2.61671,2.00521,1.95570,-7.28508,15.14023,8.66080,-7.32054,15.27077,1.92522,1.92522,57.68868,11.98000,57.68867983,11.98000126,A,145422.90
18:44:03.341457,8.69351,0.00896,2.55582,2.55582,[3.00000 0.00000 0.00000],[1.30000 0.00000 0.00000],0.04833,-0.08501,0.00786,-0.00784,0.05236,0.01722,-0.24882,0.01019,-0.03983,1.09568,8.68475,0.00488,2.60453,1.99904,1.94953,-7.29591,15.16912,8.66080,-7.32054,15.27077,1.92522,1.92522,57.68868,11.98000,57.68868009,11.98000108,A,145422.90
18:44:03.350915,8.70298,0.00778,2.84157,2.84157,[3.00000 0.00000 0.00000],[1.30000 0.00000 0.00000],0.04824,-0.08501,0.00526,-0.00784,0.05236,0.01982,-0.24531,0.03550,0.01171,1.07982,8.69452,0.01465,2.65194,1.99419,1.94468,-7.30386,15.19108,8.66080,-7.32054,15.27077,1.92522,1.92522,57.68868,11.98000,57.68868028,11.98000095,A,145422.90
18:44:03.361497,8.71356,0.00782,2.84157,2.84157,[3.00000 0.00000 0.00000],[1.30000 0.00000 0.00000],0.04881,-0.08501,0.01290,-0.02486,0.05236,0.01585,-0.24974,0.08656,0.05331,1.08519,8.70533,0.00488,2.68986,1.98979,1.94028,-7.31289,15.21595,8.66080,-7.32054,15.27077,1.92522,1.92522,57.68868,11.98000,57.68868051,11.98000080,A,145422.90
18:44:03.372059,8.72412,0.00797,2.84157,2.84157,[3.00000 0.00000 0.00000],[1.30000 0.00000 0.00000],0.04888,-0.08501,0.00923,-0.01414,0.05236,-0.00599,-0.25417,0.03953,0.01800,1.04835,8.71567,0.01465,2.72020,1.98615,1.93664,-7.32080,15.23814,8.66080,-7.32054,15.27077,1.92522,1.92522,57.68868,11.98000,57.68868071,11.98000066,A,145422.90
18:44:03.382808,8.73486,0.00812,2.84157,2.84157,[3.00000 0.00000 0.00000],[1.30000 0.00000 0.00000],0.04906,-0.08501,0.01549,-0.03363,0.05236,-0.02706,-0.24638,0.01287,0.02239,1.06500,8.72612,0.02686,2.74448,1.98296,1.93345,-7.32877,15.26060,8.66080,-7.32054,15.27077,1.92522,1.92522,57.68868,11.98000,57.68868091,11.98000053,A,145422.90
18:44:03.393053,8.74512,0.00795,2.84157,2.84157,[3.00000 0.00000 0.00000],[1.30000 0.00000 0.00000],0.04936,-0.08501,0.00496,-0.00318,0.05236,-0.04111,-0.25508,0.15366,0.03428,1.01602,8.73685,0.03175,2.76389,1.98027,1.93076,-7.33613,15.28160,8.66080,-7.32054,15.27077,1.92522,1.92522,57.68868,11.98000,57.68868110,11.98000040,A,145422.90
18:44:03.406278,8.75813,0.01074,2.84157,2.84157,[3.00000 0.00000 0.00000],[1.30000 0.00000 0.00000],0.04945,-0.08504,0.01000,-0.01866,0.05236,-0.04860,-0.25585,-0.10632,0.01494,0.99326,8.74785,0.03663,2.77943,1.97781,1.92828,-7.34406,15.30419,8.66080,-7.32054,15.27077,1.92522,1.92522,57.68868,11.98000,57.68868130,11.98000027,A,145422.90
18:44:03.443367,8.79543,0.02736,2.84157,2.84157,[3.00000 0.00000 0.00000],[1.30000 0.00000 0.00000],0.04962,-0.08524,0.00144,0.00637,0.05236,-0.04921,-0.26318,-0.01885,0.01787,0.90805,8.76774,0.07082,2.79186,1.97764,1.92800,-7.38110,15.40322,8.79061,-7.42951,15.53022,1.96841,1.96841,57.68868,11.98000,57.68868219,11.97999965,A,145423.00
18:44:03.459581,8.81164,0.00822,2.75084,2.75084,[3.00000 0.00000 0.00000],[1.30000 0.00000 0.00000],0.05037,-0.08563,0.01381,-0.03369,0.05236,0.00821,-0.25600,-0.12066,0.03812,0.99918,8.80335,0.05861,2.78365,1.98124,1.93136,-7.39669,15.44487,8.79061,-7.42951,15.53022,1.96841,1.96841,57.68868,11.98000,57.68868257,11.97999939,A,145423.00
18:44:03.469425,8.82148,0.00765,2.75084,2.75084,[3.00000 0.00000 0.00000],[1.30000 0.00000 0.00000],0.05073,-0.08580,0.01519,-0.03369,0.05236,0.03509,-0.25035,0.11114,0.03544,1.00888,8.81336,0.06838,2.77709,1.98533,1.93536,-7.40614,15.46983,8.79061,-7.42951,15.53022,1.96841,1.96841,57.68868,11.98000,57.68868279,11.97999923,A,145423.00
18:44:03.481384,8.83344,0.00920,2.75084,2.75084,[3.00000 0.00000 0.00000],[1.30000 0.00000 0.00000],0.05088,-0.08609,0.01336,-0.03428,0.05236,0.03295,-0.25142,-0.03349,0.02251,1.01107,8.82376,0.06349,2.77184,1.98885,1.93871,-7.41513,15.49335,8.79061,-7.42951,15.53022,1.96841,1.96841,57.68868,11.98000,57.68868300,11.97999908,A,145423.00
18:44:03.490504,8.84255,0.00782,2.75084,2.75084,[3.00000 0.00000 0.00000],[1.30000 0.00000 0.00000],0.05073,-0.08651,0.00205,-0.03428,0.05236,0.02318,-0.25065,-0.02952,0.00939,0.99259,8.83408,0.07082,2.76764,1.99209,1.94170,-7.42256,15.51261,8.79061,-7.42951,15.53022,1.96841,1.96841,57.68868,11.98000,57.68868317,11.97999895,A,145423.00
18:44:03.505480,8.85754,0.01240,2.75084,2.75084,[3.00000 0.00000 0.00000],[1.30000 0.00000 0.00000],0.05033,-0.08713,-0.00894,0.03474,0.05236,0.00669,-0.25676,0.03160,0.00250,1.03981,8.84590,0.02442,2.76428,1.99431,1.94356,-7.43281,15.53895,8.79061,-7.42951,15.53022,1.96841,1.96841,57.68868,11.98000,57.68868341,11.97999878,A,145423.00
18:44:03.521957,8.87402,0.00752,3.17555,3.17555,[3.00000 0.00000 0.00000],[1.30000 0.00000 0.00000],0.05050,-0.08810,-0.01459,0.05103,0.05236,-0.00859,-0.26272,-0.01013,0.03703,1.05481,8.86595,0.03175,2.84654,1.99550,1.94419,-7.44668,15.57441,8.79061,-7.42951,15.53022,1.96841,1.96841,57.68868,11.98000,57.68868373,11.97999854,A,145423.00
18:44:03.532661,8.88472,0.00782,3.17555,3.17555,[3.00000 0.00000 0.00000],[1.30000 0.00000 0.00000],0.05142,-0.08829,-0.00283,0.01218,0.05236,-0.01500,-0.26654,0.12371,0.06985,1.04072,8.87643,0.02930,2.91234,1.99758,1.94615,-7.45419,15.59356,8.79061,-7.42951,15.53022,1.96841,1.96841,57.68868,11.98000,57.68868390,11.97999842,A,145423.00
18:44:03.568325,8.92038,0.03325,3.17555,3.17555,[3.00000 0.00000 0.00000],[1.30000 0.00000 0.00000],0.05083,-0.08829,-0.00329,0.01583,0.05236,-0.01469,-0.27906,0.04660,-0.03300,1.04597,8.88737,0.02930,2.96498,1.97930,1.92787,-7.49522,15.70348,8.91563,-7.58800,16.04913,1.86724,1.86724,57.68869,11.98000,57.68868489,11.97999773,A,145423.20
18:44:03.585283,8.93734,0.00806,3.17555,3.17555,[3.00000 0.00000 0.00000],[1.30000 0.00000 0.00000],0.05041,-0.08880,-0.00696,0.02848,0.05236,-0.04234,-0.27005,-0.03465,-0.01330,0.92952,8.92915,0.01709,3.00710,1.96738,1.91565,-7.51446,15.75991,8.91563,-7.58800,16.04913,1.86724,1.86724,57.68869,11.98000,57.68868540,11.97999740,A,145423.20
18:44:03.595537,8.94760,0.00790,3.17555,3.17555,[3.00000 0.00000 0.00000],[1.30000 0.00000 0.00000],0.05130,-0.08909,-0.00451,0.01767,0.05236,-0.05242,-0.26684,0.04026,0.05398,0.93617,8.93902,0.00244,3.04079,1.95855,1.90666,-7.52591,15.79602,8.91563,-7.58800,16.04913,1.86724,1.86724,57.68869,11.98000,57.68868572,11.97999721,A,145423.20
18:44:03.611057,8.96312,0.01206,3.17555,3.17555,[3.00000 0.00000 0.00000],[1.30000 0.00000 0.00000],0.05126,-0.08931,-0.00955,0.03293,0.05236,-0.03134,-0.26684,-0.03276,0.00695,1.01120,8.95160,0.00244,3.06774,1.95039,1.89837,-7.53977,15.83947,8.91563,-7.58800,16.04913,1.86724,1.86724,57.68869,11.98000,57.68868611,11.97999698,A,145423.20
18:44:03.627895,8.97995,0.00796,2.31829,2.31829,[3.00000 0.00000 0.00000],[1.30000 0.00000 0.00000],0.05117,-0.08934,-0.00436,0.01770,0.05236,0.02394,-0.26990,0.06283,0.03209,0.95410,8.97165,0.00244,2.91785,1.94268,1.89064,-7.55624,15.89134,8.91563,-7.58800,16.04913,1.86724,1.86724,57.68869,11.98000,57.68868658,11.97999670,A,145423.20
18:44:03.638337,8.99015,0.00752,2.31829,2.31829,[3.00000 0.00000 0.00000],[1.30000 0.00000 0.00000],0.05117,-0.08934,-0.00008,0.00491,0.05236,0.02119,-0.26654,0.04166,0.02910,0.92006,8.98200,0.00244,2.79794,1.93756,1.88552,-7.56512,15.92123,8.91563,-7.58800,16.04913,1.86724,1.86724,57.68869,11.98000,57.68868685,11.97999655,A,145423.20
18:44:03.648988,9.00105,0.00834,2.31829,2.31829,[3.00000 0.00000 0.00000],[1.30000 0.00000 0.00000],0.05135,-0.08934,0.00572,-0.01323,0.05236,0.00898,-0.26959,0.00909,0.03904,0.93836,8.99273,0.00244,2.70201,1.93320,1.88116,-7.57346,15.94973,8.91563,-7.58800,16.04913,1.86724,1.86724,57.68869,11.98000,57.68868711,11.97999641,A,145423.20
18:44:03.658757,9.01082,0.00785,2.31829,2.31829,[3.00000 0.00000 0.00000],[1.30000 0.00000 0.00000],0.05128,-0.08934,0.00755,-0.01323,0.05236,0.00470,-0.26165,0.02287,0.01982,0.90048,9.00234,0.01221,2.62527,1.92974,1.87770,-7.58020,15.97346,8.91563,-7.58800,16.04913,1.86724,1.86724,57.68869,11.98000,57.68868732,11.97999630,A,145423.20
