Description :  ; walk_time = 2.0 ; speed_up_time = 3.0 ; balancing_time = 0.0
RealTime,Time,CalculationTime,Roll,SteeringAngle,RollRate,ControlInput,gy,gz,ax,ay,az,imu_read_timing,SteerMotorCurrent
09:59:14.906498,0.00946,0.00890,0.00556,-1.98000,-0.09548,16.07688,-0.00410,0.00363,-0.00293,0.03178,0.98838,0.00001,0.01221
09:59:14.914531,0.01754,0.00623,0.01214,-1.97838,-0.34923,6.82331,-0.00318,0.00301,-0.00305,0.03538,0.98869,0.00858,0.00000
09:59:14.925663,0.02867,0.00693,0.01641,-1.92162,-0.30548,8.82750,0.00140,0.00225,-0.00275,0.03337,0.98893,0.01991,0.01465
09:59:14.935063,0.03806,0.00596,0.02793,-1.85189,-0.33173,9.12059,0.00109,0.00195,-0.00067,0.04142,0.98954,0.02928,0.00000
09:59:14.944898,0.04790,0.00545,0.03132,-1.77730,-0.30548,10.08018,0.00323,0.00042,-0.00451,0.03233,0.98802,0.03985,0.00488
09:59:14.956125,0.05873,0.00592,0.04553,-1.70757,-0.19173,16.59082,0.00170,0.00332,-0.00220,0.04349,0.98918,0.05018,0.00733
09:59:14.965318,0.06833,0.00529,0.05649,-1.63297,-0.25298,15.30290,0.00109,0.00118,-0.00372,0.04063,0.98924,0.06025,0.00000
09:59:14.977397,0.08039,0.00699,0.06513,-1.52108,-0.23548,16.47582,-0.00318,0.00027,-0.00238,0.03794,0.98411,0.07105,0.00000
09:59:14.986990,0.08998,0.00596,0.06876,-1.38973,-0.09548,21.59703,-0.00043,-0.00401,-0.00262,0.03068,0.98747,0.08129,0.00000
09:59:14.998446,0.10144,0.00721,0.08761,-1.22270,-0.27923,15.79651,0.00048,-0.00615,-0.00238,0.05039,0.98527,0.09185,0.00000
09:59:15.007475,0.11047,0.00588,0.09317,-1.04595,0.21077,35.17326,-0.00211,-0.00187,-0.00128,0.02977,0.98704,0.10191,0.00000
09:59:15.017969,0.12096,0.00587,0.10698,-0.84000,0.47327,46.40370,-0.00486,0.00332,-0.00342,0.03587,0.97759,0.11226,0.00000
09:59:15.029869,0.13285,0.00694,0.09048,-0.45243,0.70952,49.44813,-0.00410,0.00607,-0.01385,-0.00226,1.01022,0.12392,0.00000
09:59:15.039177,0.14219,0.00532,0.12026,-0.00324,0.73577,51.48442,-0.00700,0.01676,-0.01598,0.05197,0.99784,0.13434,0.00000
09:59:15.049643,0.15266,0.00559,0.11324,0.48811,1.25202,66.69040,0.00109,0.01768,0.00482,0.00378,0.98564,0.14457,0.00000
09:59:15.059882,0.16267,0.00540,0.14433,1.00054,1.45327,75.52531,-0.00074,0.02699,0.00146,0.04557,0.99680,0.15482,0.00000
09:59:15.069662,0.17267,0.00521,0.20344,1.67676,1.51452,82.00725,-0.00440,0.02867,-0.00323,0.07777,0.98417,0.16463,0.00000
09:59:15.080889,0.18319,0.00537,0.27538,2.43730,2.04827,109.32340,-0.00517,0.02821,0.02385,0.08632,0.98716,0.17513,0.00000
09:59:15.090668,0.19368,0.00550,0.38992,3.31946,2.13577,124.71493,-0.00822,0.03020,0.00323,0.13560,0.97826,0.18531,0.00000
09:59:15.100932,0.20394,0.00540,0.41735,4.45135,2.40702,129.82533,-0.01067,0.03157,0.03343,0.03489,1.02010,0.19587,0.00000
09:59:15.112022,0.21501,0.00611,0.43590,5.67730,2.69577,133.17952,-0.00563,0.03066,0.08064,0.02117,0.98308,0.20621,0.00000
09:59:15.122830,0.22513,0.00592,0.42031,6.96973,3.37827,145.99403,-0.01555,0.02989,-0.06222,-0.02678,1.06073,0.21636,0.00000
09:59:15.132624,0.23562,0.00605,0.41585,8.37243,3.89452,152.90609,-0.00395,0.03249,0.06728,-0.01934,0.95416,0.22690,0.00000
09:59:15.142768,0.24576,0.00583,0.45580,9.83676,4.62077,175.69560,-0.00776,0.04562,-0.04056,0.02409,0.98198,0.23707,0.00000
09:59:15.153394,0.25640,0.00611,0.51282,11.47784,4.80452,177.56673,-0.00639,0.05356,-0.00006,0.03898,0.95813,0.24764,0.00000
09:59:15.163601,0.26659,0.00594,0.63767,13.22432,5.98577,231.33119,-0.00578,0.06716,-0.02306,0.10736,0.99021,0.25797,0.00000
09:59:15.173988,0.27700,0.00599,0.78318,15.15730,6.32702,252.52073,-0.00410,0.08670,0.02031,0.12206,0.97008,0.26899,0.00000
09:59:15.184405,0.28739,0.00603,0.84920,17.29459,7.47327,290.68369,-0.00608,0.09907,-0.03532,0.03087,0.96728,0.27871,0.00000
09:59:15.194238,0.29725,0.00568,0.91716,19.42541,8.03327,305.21737,-0.00471,0.11129,-0.04569,0.02641,1.01022,0.28874,0.00000
09:59:15.205654,0.30866,0.00673,1.02826,21.66486,8.64577,328.49567,-0.00532,0.13038,-0.07168,0.05868,0.94117,0.29961,0.00000
09:59:15.215150,0.31814,0.00586,1.05884,23.84270,9.08327,330.93822,0.00094,0.14672,-0.01915,-0.02275,0.95215,0.30941,0.00000
09:59:15.225975,0.32896,0.00585,1.18807,26.18270,9.31952,341.03553,0.00858,0.16123,-0.08400,0.07460,0.95916,0.32026,0.00000
09:59:15.236530,0.33952,0.00604,1.25977,28.41405,9.32827,332.66278,0.00827,0.16474,0.01208,0.01464,0.89755,0.33078,0.00000
09:59:15.246684,0.34967,0.00584,1.38684,30.65351,8.96952,318.94662,0.01331,0.16780,-0.14427,0.08991,0.99887,0.34097,0.00000
09:59:15.256834,0.35984,0.00565,1.55458,32.94973,8.45327,305.42740,0.02110,0.17451,-0.06948,0.13804,0.96728,0.35152,0.00000
09:59:15.267453,0.37044,0.00589,1.68134,35.18595,7.94577,285.58938,0.02660,0.17726,-0.06936,0.10773,1.02529,0.36191,0.00000
09:59:15.277953,0.38094,0.00590,1.76359,37.51135,7.35952,253.78682,0.03011,0.18291,-0.05819,0.06161,0.97807,0.37220,0.01465
09:59:15.288502,0.39148,0.00609,1.79268,39.80108,5.84577,174.89087,0.03775,0.17818,-0.06320,0.01714,0.92958,0.38277,0.46886
09:59:15.298986,0.40200,0.00641,1.90319,42.03892,4.38452,113.05572,0.03454,0.16948,0.00634,0.12584,0.95349,0.39337,3.12576
09:59:15.310469,0.41345,0.00751,1.92867,43.83568,2.55577,25.33871,0.03454,0.15207,-0.09333,0.05636,1.02706,0.40451,3.23565
09:59:15.320415,0.42341,0.00675,1.99791,44.91892,0.06202,-75.04939,0.02889,0.12565,0.00598,0.14780,1.06323,0.41404,8.59341
09:59:15.330379,0.43268,0.00540,1.86420,45.16703,-1.51298,-165.67260,0.01545,0.10167,0.28585,-0.06917,0.88871,0.42468,9.99267
09:59:15.340625,0.44362,0.00597,1.87739,44.55568,-3.44673,-236.75245,0.06081,0.07723,-0.41389,0.13371,1.17681,0.43498,9.92430
09:59:15.351926,0.45473,0.00673,2.12495,43.15784,-5.93173,-281.39915,0.00140,0.04715,-0.06991,0.50246,1.12210,0.44611,8.27595
09:59:15.361524,0.46453,0.00618,2.04205,41.02541,-6.87673,-314.34615,0.03164,0.04532,-0.27285,0.04581,0.99168,0.45639,5.76313
09:59:15.370268,0.47328,0.00457,1.95036,39.11189,-7.74298,-347.72305,0.02751,0.01676,0.40962,0.03800,0.97271,0.46603,4.94261
09:59:15.380812,0.48383,0.00465,1.74476,36.91622,-8.03173,-374.87484,0.01331,0.01157,-0.28213,-0.08339,0.97197,0.47636,5.80464
09:59:15.393054,0.49606,0.00667,1.61481,34.74000,-9.88673,-453.03850,0.02812,0.01706,0.21631,0.02287,1.02126,0.48683,4.99145
09:59:15.402981,0.50599,0.00641,1.65954,32.42270,-11.35673,-483.14488,0.02751,0.03310,-0.15183,0.25974,1.02352,0.49787,5.58242
09:59:15.413151,0.51616,0.00549,1.72782,30.13135,-12.31923,-488.52471,0.01896,0.04913,0.11346,0.28774,1.01028,0.50811,5.72161
09:59:15.424784,0.52711,0.00608,1.59045,27.94216,-11.61923,-463.12441,0.01866,0.05417,0.16830,0.03727,0.93428,0.51901,5.03297
09:59:15.434252,0.53724,0.00602,1.39349,25.72541,-11.26048,-461.99509,0.02873,0.05005,0.10059,-0.05246,0.96484,0.52850,5.69231
09:59:15.444604,0.54759,0.00601,1.34203,23.46649,-13.05423,-522.96318,0.01759,0.05448,-0.06734,0.15561,1.06762,0.53892,5.49206
09:59:15.454923,0.55792,0.00597,1.18810,21.26757,-12.36298,-500.75695,0.01881,0.04318,0.17964,0.01348,1.03419,0.54909,5.63370
09:59:15.465361,0.56837,0.00606,0.97484,19.01189,-12.42423,-519.36140,0.01942,0.03035,-0.05667,-0.05874,1.10892,0.55963,1.90720
09:59:15.477030,0.58003,0.00650,0.94348,17.23946,-13.76298,-562.78503,0.01530,0.02180,-0.06966,0.18141,0.94428,0.57134,0.00977
09:59:15.486927,0.58992,0.00603,0.87873,16.65081,-13.93798,-575.76935,0.01377,0.00836,-0.01800,0.11529,0.95502,0.58102,0.00977
09:59:15.497737,0.60074,0.00649,0.79837,16.71243,-13.20298,-560.45083,0.00186,-0.00508,-0.06076,0.11614,1.06549,0.59174,0.02686
09:59:15.507077,0.61009,0.00528,0.12399,16.92649,-12.17048,-639.53769,0.02660,-0.03837,0.11248,-0.67765,0.99137,0.60225,0.02930
09:59:15.518531,0.62152,0.00649,-0.51611,17.02054,-13.99048,-828.35870,0.01560,-0.05960,-0.00512,-0.62732,1.02510,0.61279,3.05250
09:59:15.528477,0.63146,0.00608,-0.73775,16.89243,-15.28548,-919.45402,0.02339,-0.06556,0.17007,-0.06228,0.91421,0.62275,2.13675
09:59:15.538553,0.64155,0.00592,-0.88651,16.46108,-15.81923,-963.52640,-0.00181,-0.06464,0.09845,0.02214,1.03828,0.63283,1.75092
09:59:15.549874,0.65211,0.00612,-0.73282,15.67297,-17.30673,-989.74508,-0.00074,-0.04326,0.10907,0.43639,1.04499,0.64330,1.64103
09:59:15.559214,0.66221,0.00587,-0.67096,14.59135,-15.25923,-884.46572,0.00491,-0.03776,0.07119,0.27590,1.02962,0.65366,1.58486
09:59:15.570574,0.67355,0.00683,-0.53982,13.17405,-14.18298,-803.52046,0.01652,-0.00294,0.00037,0.33599,0.94086,0.66459,1.56532
09:59:15.580928,0.68392,0.00640,-0.79567,11.71946,-10.49923,-683.80801,0.02538,0.02348,-0.04831,-0.14896,0.95233,0.67518,1.53114
09:59:15.590749,0.69374,0.00586,-1.18193,10.39459,-9.77298,-709.68136,0.02996,0.04822,-0.04679,-0.31903,0.93550,0.68501,1.52625
09:59:15.601908,0.70490,0.00681,-1.33646,9.04703,-10.56048,-756.38378,0.03148,0.07021,-0.07052,-0.03959,0.98003,0.69621,1.54335
09:59:15.611017,0.71403,0.00574,-1.31418,8.10811,-9.79923,-712.21637,0.02431,0.06044,-0.09620,0.13713,1.00003,0.70593,1.51160
09:59:15.622244,0.72471,0.00605,-1.32704,7.36703,-9.76423,-705.94296,0.01560,0.05204,-0.17104,0.10089,1.01595,0.71597,1.52625
09:59:15.632688,0.73567,0.00664,-1.30651,6.96811,-10.16673,-714.98212,0.01438,0.03768,-0.14494,0.15311,1.01821,0.72661,1.53602
09:59:15.642189,0.74518,0.00595,-1.44446,6.88865,-10.07923,-735.04912,0.02110,0.00057,-0.09248,-0.04514,0.98887,0.73641,1.76068
09:59:15.653028,0.75603,0.00612,-1.51950,6.97297,-9.96548,-744.47738,0.00934,-0.02799,-0.03410,0.03471,0.94947,0.74732,1.57753
09:59:15.663156,0.76614,0.00588,-1.67614,7.06865,-10.03548,-775.99081,0.00063,-0.06326,-0.06118,-0.06582,0.96276,0.75740,1.53846
09:59:15.674059,0.77705,0.00599,-1.77181,7.15622,-9.83423,-785.51434,-0.00028,-0.06876,-0.09601,0.00573,0.95861,0.76823,1.55311
09:59:15.684465,0.78746,0.00604,-1.88934,7.22108,-8.76673,-763.17202,0.01148,-0.05578,-0.12200,-0.03721,0.99235,0.77875,1.57753
09:59:15.694666,0.79766,0.00605,-2.09517,7.26811,-9.19548,-817.63275,0.02217,-0.02661,-0.05033,-0.13969,0.97606,0.78879,1.57509
09:59:15.706019,0.80815,0.00618,-2.22146,7.29892,-8.63548,-817.32359,0.02247,0.01019,0.03520,-0.05441,0.99241,0.79932,1.53602
09:59:15.715239,0.81754,0.00520,-2.18387,7.31351,-6.98173,-743.00515,0.01270,0.04700,0.05856,0.11114,0.99906,0.80947,1.59463
09:59:15.726255,0.82924,0.00654,-2.16648,7.31351,-5.64298,-685.03971,0.00308,0.07235,0.01513,0.07601,1.01534,0.82000,3.03785
09:59:15.735990,0.83897,0.00591,-2.34471,7.31351,-5.58173,-714.07519,0.01285,0.07617,-0.01604,-0.16019,1.02504,0.83026,3.08913
09:59:15.746225,0.84922,0.00595,-2.49840,7.31351,-7.46298,-818.40875,0.01484,0.06884,0.01568,-0.10657,0.98405,0.84047,3.08669
09:59:15.757057,0.86004,0.00640,-2.51360,7.31676,-7.76923,-833.68679,0.01743,0.03722,0.05740,0.05563,0.98265,0.85095,1.91453
09:59:15.767229,0.87021,0.00590,-2.48140,7.36541,-6.39548,-772.12993,0.00903,0.01096,0.02745,0.09229,0.96722,0.86145,1.58974
09:59:15.778644,0.88165,0.00713,-2.59935,7.50486,-6.40423,-794.70532,0.00797,-0.00783,-0.00647,-0.07387,0.98527,0.87251,1.53358
09:59:15.788526,0.89151,0.00663,-2.72087,7.72541,-7.49798,-863.17459,0.01682,-0.01669,-0.01214,-0.07802,0.98759,0.88222,1.50672
09:59:15.799053,0.90136,0.00605,-2.79352,8.09189,-8.45173,-918.65527,0.01881,-0.01653,0.05417,0.00012,0.98619,0.89333,1.50183
09:59:15.809770,0.91275,0.00708,-2.82901,8.49405,-8.52173,-931.66926,0.01316,-0.01669,0.07710,0.02916,0.97759,0.90309,1.49206
09:59:15.819509,0.92181,0.00578,-2.88193,8.90757,-8.14548,-929.57892,0.00293,-0.01608,0.06124,0.01055,1.00735,0.91347,1.48474
09:59:15.829474,0.93248,0.00609,-2.99062,9.31946,-7.41923,-922.99455,0.00583,-0.00966,-0.00335,-0.06661,1.02449,0.92374,1.46276
09:59:15.839881,0.94268,0.00593,-3.14648,9.69081,-7.75173,-967.78004,0.01636,0.00714,-0.01708,-0.11816,1.00876,0.93414,1.47009
09:59:15.850890,0.95322,0.00603,-3.24617,10.04757,-7.96173,-997.46005,0.02095,0.02012,0.00250,-0.04593,0.97539,0.94502,1.50183
09:59:15.860621,0.96361,0.00606,-3.29954,10.38000,-7.69048,-998.97697,0.01545,0.02989,0.05417,-0.00695,0.94086,0.95488,1.48962
09:59:15.870221,0.97323,0.00549,-3.36322,10.68000,-7.25298,-995.19064,0.00308,0.02516,-0.01702,-0.02074,0.97600,0.96521,1.49451
09:59:15.881638,0.98464,0.00627,-3.45124,10.96703,-7.43673,-1021.05897,0.00338,0.02271,-0.05161,-0.04593,0.99887,0.97584,1.49451
09:59:15.891810,0.99461,0.00588,-3.48973,11.21838,-7.83048,-1046.42899,0.01362,0.01172,-0.10193,0.01135,1.00992,0.98606,1.49206
09:59:15.901950,1.00494,0.00595,-3.54536,11.45189,-8.07548,-1068.56142,0.01942,0.00118,-0.07405,-0.00720,0.99107,0.99620,1.48230
09:59:15.913306,1.01631,0.00695,-3.60053,11.66595,-7.61173,-1061.36795,0.01499,-0.00752,-0.03312,-0.00671,0.96789,1.00705,1.50427
09:59:15.922619,1.02561,0.00589,-3.68275,11.86216,-7.35798,-1067.40114,0.00873,-0.00997,-0.02782,-0.04996,0.97441,1.01686,1.47985
09:59:15.934012,1.03675,0.00666,-3.79319,12.06649,-7.27923,-1085.68166,0.00537,-0.00813,-0.06039,-0.07832,0.97691,1.02744,1.49939
09:59:15.943329,1.04631,0.00587,-3.87290,12.30811,-7.23548,-1100.31618,0.00537,0.00317,-0.06649,-0.04868,0.99881,1.03778,1.50183
09:59:15.953187,1.05620,0.00522,-3.95120,12.62432,-7.27048,-1118.64561,0.01407,0.01813,-0.07119,-0.04691,0.98289,1.04815,1.48230
09:59:15.964265,1.06728,0.00610,-3.99236,12.98270,-7.27048,-1129.37192,0.01407,0.02928,-0.01141,-0.00488,0.97307,1.05863,1.48474
09:59:15.973753,1.07676,0.00528,-4.01282,13.35081,-6.57923,-1108.18508,0.00949,0.02745,-0.01226,0.00701,0.97728,1.06873,1.46764
09:59:15.984672,1.08768,0.00584,-4.06836,13.72054,-6.70173,-1126.58787,0.00797,0.01997,0.00043,-0.02550,0.98204,1.07968,1.49939
09:59:15.996215,1.09805,0.00572,-4.16290,14.04162,-6.54423,-1139.94589,0.01239,0.01386,-0.03227,-0.07808,1.00552,1.09021,1.48474
09:59:16.006378,1.10878,0.00563,-4.24236,14.34973,-7.01673,-1176.34103,0.01148,0.00943,0.01336,-0.05832,0.99729,1.10043,1.48962
09:59:16.016821,1.11983,0.00631,-4.33139,14.63189,-6.74548,-1183.68756,0.01194,0.00912,0.01543,-0.06667,0.99765,1.11160,1.46032
09:59:16.028826,1.13130,0.00760,-4.41791,14.89784,-6.64048,-1197.24851,0.00644,0.00714,0.04343,-0.06661,0.97923,1.12261,1.47253
09:59:16.037197,1.14020,0.00614,-4.50266,15.11838,-6.19423,-1196.07052,0.00629,0.00485,0.01446,-0.08772,0.98881,1.13145,1.49451
09:59:16.048755,1.15175,0.00603,-4.59108,15.35514,-6.31673,-1219.01606,0.00125,0.00775,0.01812,-0.07192,0.98503,1.14305,1.48718
09:59:16.058951,1.16194,0.00585,-4.67453,15.54000,-6.12423,-1227.66888,0.00277,0.00973,-0.00701,-0.08137,0.99772,1.15321,1.48962
09:59:16.069576,1.17258,0.00614,-4.76093,15.71189,-5.73923,-1228.82797,0.00522,0.00897,0.00079,-0.08632,0.97911,1.16380,1.49695
09:59:16.079864,1.18266,0.00576,-4.84601,15.86757,-5.80923,-1248.25003,0.00842,0.00592,0.00604,-0.08320,0.98539,1.17481,1.46520
09:59:16.090651,1.19361,0.00585,-4.89816,16.01838,-5.46798,-1244.93708,0.00751,0.00729,0.01891,-0.05636,0.97887,1.18489,1.48474
09:59:16.102003,1.20449,0.00704,-4.95454,16.20649,-5.29298,-1249.54769,0.00415,0.01034,0.01013,-0.05905,0.97252,1.19576,1.47497
09:59:16.110579,1.21357,0.00592,-4.99574,16.38324,-5.09173,-1250.28657,0.00384,0.01172,-0.00067,-0.05618,0.98783,1.20485,1.48718
09:59:16.120982,1.22399,0.00587,-5.03728,16.60865,-4.75048,-1245.81053,0.00338,0.01157,-0.00488,-0.04972,0.98436,1.21596,1.48718
09:59:16.132162,1.23515,0.00617,-5.09826,16.82432,-4.68048,-1255.80573,0.00216,0.00103,-0.01153,-0.07784,0.99625,1.22647,1.46520
09:59:16.142059,1.24507,0.00586,-5.16106,17.01892,-4.26923,-1251.92828,0.00491,-0.00508,-0.01000,-0.08851,0.99155,1.23637,1.48718
09:59:16.153577,1.25658,0.00612,-5.22164,17.21514,-4.07673,-1256.64225,-0.00181,-0.00737,-0.01464,-0.08174,0.98844,1.24783,1.49451
09:59:16.164291,1.26641,0.00543,-5.28288,17.37405,-3.79673,-1257.52743,0.00094,-0.01104,-0.02019,-0.09052,0.99064,1.25856,1.49939
09:59:16.174151,1.27714,0.00593,-5.32506,17.50541,-3.56923,-1256.92569,0.00338,-0.01241,-0.02690,-0.07564,0.98655,1.26839,1.51404
09:59:16.184627,1.28762,0.00604,-5.36478,17.62378,-3.07923,-1245.00280,0.00308,-0.01042,-0.03398,-0.07686,0.99119,1.27893,1.50183
09:59:16.194891,1.29788,0.00594,-5.38745,17.71784,-2.60673,-1230.54639,0.00125,-0.00035,-0.02599,-0.06374,0.97783,1.28909,1.45788
09:59:16.205404,1.30841,0.00611,-5.40787,17.79730,-2.39673,-1226.31323,-0.00074,0.00897,-0.03581,-0.06344,0.98704,1.29966,1.44078
09:59:16.214885,1.31789,0.00523,-5.43741,17.85405,-1.74048,-1205.17973,0.00033,0.00973,-0.04453,-0.08241,0.98411,1.31000,1.48474
09:59:16.226015,1.32832,0.00532,-5.46488,17.89459,-1.65298,-1206.84332,0.00063,0.01187,-0.04831,-0.08186,0.98552,1.32025,1.47497
09:59:16.236814,1.33982,0.00646,-5.48636,17.91568,-0.90923,-1180.35516,0.00430,0.01004,-0.05106,-0.08363,0.98295,1.33074,1.28205
09:59:16.246482,1.34878,0.00523,-5.49646,17.92054,-0.70798,-1173.93713,0.00186,0.00744,-0.02477,-0.07308,0.97515,1.34074,1.65079
09:59:16.257571,1.36058,0.00666,-5.49616,17.92054,-0.16548,-1151.64136,-0.00150,0.00714,-0.03983,-0.06753,0.97704,1.35126,1.52869
09:59:16.267291,1.37028,0.00600,-5.50529,17.92054,-0.28798,-1158.28060,0.00018,0.00057,-0.02599,-0.07662,0.97246,1.36141,1.49206
09:59:16.278476,1.38122,0.00672,-5.50744,17.92054,0.11452,-1142.15794,-0.00334,-0.00157,-0.04392,-0.07430,0.98375,1.37196,1.49451
09:59:16.287902,1.39071,0.00587,-5.52869,17.92054,0.23702,-1140.89828,-0.00181,-0.00187,-0.01013,-0.09705,0.97661,1.38218,1.50916
09:59:16.298325,1.40061,0.00558,-5.52479,17.92054,0.62202,-1124.42280,-0.00334,-0.00111,-0.01275,-0.07381,0.98747,1.39233,1.48718
09:59:16.308263,1.41127,0.00588,-5.51707,17.92054,1.23452,-1097.94340,-0.00211,-0.00203,0.00628,-0.07698,0.99033,1.40274,1.48962
09:59:16.318659,1.42165,0.00607,-5.50615,17.92054,1.64577,-1079.14988,-0.00425,0.00195,-0.00439,-0.07765,0.99204,1.41288,1.48962
09:59:16.328432,1.43144,0.00564,-5.50299,17.92054,2.11827,-1059.21646,0.00186,0.00195,0.00433,-0.09278,0.99589,1.42321,1.49695
09:59:16.338358,1.44137,0.00520,-5.49546,17.92054,1.95202,-1064.70109,-0.00379,0.00653,0.00762,-0.08442,0.98783,1.43330,1.46032
09:59:16.349795,1.45279,0.00610,-5.47585,17.92054,2.32827,-1045.80345,-0.00181,0.00332,0.01037,-0.07649,0.99021,1.44402,1.48962
09:59:16.360163,1.46317,0.00612,-5.45560,17.92054,2.41577,-1038.63186,-0.00456,0.00225,0.00671,-0.07454,0.98161,1.45427,1.50183
09:59:16.370196,1.47318,0.00594,-5.43215,17.92054,2.31077,-1038.78618,-0.01051,-0.00569,-0.00323,-0.06966,0.99040,1.46442,1.49695
09:59:16.381051,1.48405,0.00645,-5.40102,17.92054,2.81827,-1012.46867,-0.00776,-0.00676,-0.01232,-0.06850,0.98570,1.47538,1.48230
09:59:16.391507,1.49449,0.00594,-5.35478,17.92054,2.80077,-1005.00234,-0.00746,-0.00676,-0.00677,-0.04929,0.98539,1.48601,1.48718
09:59:16.401703,1.50471,0.00566,-5.31287,17.92054,3.50077,-968.88414,-0.00685,-0.00722,-0.01854,-0.06161,0.97838,1.49667,1.49206
09:59:16.412558,1.51555,0.00613,-5.28522,17.92054,3.55327,-961.83696,-0.00654,-0.00661,-0.01440,-0.07540,0.97624,1.50677,1.49206
09:59:16.422702,1.52571,0.00610,-5.26556,17.92054,3.21202,-972.34811,-0.00731,-0.00172,-0.03257,-0.08076,0.98698,1.51679,1.46520
09:59:16.433092,1.53610,0.00613,-5.23975,17.92054,3.63202,-950.56010,-0.00822,-0.00279,-0.01891,-0.07954,0.97673,1.52736,1.49206
09:59:16.444534,1.54702,0.00610,-5.19767,17.92054,3.58827,-944.90613,-0.00211,0.00011,-0.03087,-0.06204,0.98564,1.53830,1.47253
09:59:16.454759,1.55725,0.00613,-5.14969,17.92054,3.70202,-931.74938,-0.00792,0.00179,-0.01818,-0.05215,0.98436,1.54835,1.48962
09:59:16.464542,1.56753,0.00605,-5.09022,17.92054,3.71952,-920.50568,-0.00914,-0.00126,-0.02928,-0.04038,0.99107,1.55883,1.49695
09:59:16.474713,1.57770,0.00587,-5.04201,17.92054,4.03452,-899.05818,-0.00334,0.00011,-0.02159,-0.05435,0.98655,1.56897,1.49451
09:59:16.484576,1.58759,0.00539,-4.99472,17.92054,3.78952,-900.73258,-0.00624,0.00027,-0.02385,-0.05350,0.98295,1.57956,1.47741
09:59:16.496002,1.59898,0.00658,-4.95022,17.92054,4.05202,-882.09352,-0.00838,-0.00080,-0.02599,-0.05978,0.98381,1.59031,1.48718
09:59:16.506282,1.60929,0.00612,-4.91380,17.92054,3.84202,-884.25621,-0.00914,0.00210,-0.02208,-0.06576,0.98387,1.60106,1.48230
09:59:16.516575,1.61956,0.00603,-4.87062,17.92054,3.78952,-878.76676,-0.01051,-0.00035,-0.02660,-0.05319,0.99174,1.61088,1.46764
09:59:16.526860,1.62987,0.00597,-4.81961,17.92054,3.79827,-869.37972,-0.00532,-0.00019,-0.01964,-0.04880,0.98436,1.62202,1.49939
09:59:16.536844,1.63985,0.00560,-4.76082,17.92054,4.02577,-849.64570,-0.00731,0.00286,-0.02525,-0.03489,0.98808,1.63160,1.49206
09:59:16.548730,1.65172,0.00711,-4.71089,17.92054,4.19202,-833.99177,-0.00211,0.00378,-0.01726,-0.05423,0.97966,1.64303,1.50183
09:59:16.558172,1.66116,0.00603,-4.67161,17.92054,4.03452,-833.49601,-0.00670,0.00744,-0.02105,-0.05447,0.98362,1.65242,1.47497
09:59:16.568539,1.67153,0.00604,-4.63533,17.92054,4.01702,-827.79201,-0.01036,0.00546,-0.01263,-0.06167,0.98271,1.66284,1.48718
09:59:16.578701,1.68169,0.00601,-4.59420,17.92054,3.82452,-828.40462,-0.00792,0.00531,-0.00458,-0.05155,0.98179,1.67288,1.47741
09:59:16.588416,1.69143,0.00538,-4.54879,17.92054,3.81577,-820.72680,-0.00990,0.00821,-0.00720,-0.04819,0.98905,1.68339,1.47497
09:59:16.599181,1.70219,0.00561,-4.50168,17.92054,3.98202,-805.57114,-0.00471,0.00469,-0.00122,-0.04813,0.98783,1.69407,1.47497
09:59:16.609974,1.71297,0.00589,-4.45262,17.92054,3.97327,-797.24667,-0.00334,0.00317,-0.00317,-0.04301,0.99387,1.70425,1.49451
09:59:16.620465,1.72345,0.00601,-4.40591,17.92054,4.11327,-783.24006,-0.00395,0.00347,0.01019,-0.04770,0.98521,1.71478,1.48474
09:59:16.629846,1.73286,0.00523,-4.36131,17.92054,4.06077,-777.49746,-0.00731,0.00027,0.00268,-0.04685,0.99247,1.72483,1.49451
09:59:16.642634,1.74561,0.00761,-4.32370,17.92054,4.07827,-770.12236,-0.00547,-0.00019,0.00104,-0.06374,0.98850,1.73695,1.49206
09:59:16.650559,1.75357,0.00521,-4.29515,17.92054,3.83327,-775.11508,-0.01021,0.00271,-0.00012,-0.05557,0.99009,1.74570,1.47985
09:59:16.661956,1.76493,0.00635,-4.25307,17.92054,4.10452,-756.54573,-0.00624,-0.00004,-0.00653,-0.04923,0.99015,1.75596,1.50183
09:59:16.672509,1.77457,0.00564,-4.20360,17.92054,3.88577,-756.75716,-0.00853,0.00271,-0.00378,-0.03733,0.98430,1.76626,1.49939
09:59:16.682118,1.78511,0.00590,-4.15323,17.92054,4.06952,-740.30886,-0.00838,0.00118,-0.01873,-0.03703,0.99204,1.77637,1.49695
09:59:16.691967,1.79476,0.00520,-4.10232,17.92054,4.15702,-727.70919,-0.00914,-0.00126,-0.01635,-0.03812,0.98149,1.78691,1.46520
09:59:16.703224,1.80621,0.00623,-4.05384,17.92054,4.14827,-719.48868,-0.00685,-0.00218,-0.02934,-0.04008,0.98911,1.79740,1.48474
09:59:16.713632,1.81592,0.00551,-4.00947,17.92054,4.22702,-708.40476,-0.00425,-0.00493,-0.02318,-0.04429,0.97929,1.80787,1.47009
09:59:16.723068,1.82607,0.00530,-3.96823,17.92054,4.05202,-708.28172,-0.00685,-0.00874,-0.02489,-0.04410,0.98088,1.81810,1.46520
09:59:16.734967,1.83729,0.00585,-3.91826,17.92054,4.10452,-697.28423,-0.00731,-0.00294,-0.02739,-0.03782,0.98155,1.82916,1.49451
09:59:16.744907,1.84791,0.00611,-3.86128,17.92054,4.02577,-690.42729,-0.00838,-0.00233,-0.03166,-0.02324,0.98747,1.83914,1.48474
09:59:16.754678,1.85769,0.00520,-3.79521,17.92054,4.14827,-673.70977,-0.00914,0.00195,-0.03245,-0.01653,0.98979,1.84983,1.47009
09:59:16.766475,1.86889,0.00589,-3.74592,17.92054,4.14827,-664.98660,-0.00471,0.00729,-0.02391,-0.03288,0.98448,1.86015,1.48718
09:59:16.776444,1.87944,0.00607,-3.68898,17.92054,4.30577,-648.45058,-0.00410,0.00989,-0.02105,-0.02623,0.98478,1.87072,1.49206
09:59:16.786486,1.88948,0.00590,-3.64405,17.92054,4.54202,-630.81112,-0.00379,0.00989,-0.01147,-0.03904,0.98003,1.88077,1.47497
09:59:16.796453,1.89947,0.00553,-3.59128,17.92054,4.34952,-629.36334,-0.00776,0.00866,-0.01403,-0.03044,0.98747,1.89145,1.48718
09:59:16.807319,1.91032,0.00602,-3.55113,17.92054,4.06077,-634.09644,-0.00654,0.00393,-0.01494,-0.04221,0.98667,1.90249,1.46276
09:59:16.818039,1.92081,0.00612,-3.50676,17.92054,4.26202,-617.99039,-0.00486,0.00347,-0.01440,-0.03202,0.99125,1.91202,1.48474
09:59:16.828490,1.93146,0.00621,-3.45530,17.92054,4.33202,-606.01219,-0.00120,-0.00386,-0.00543,-0.02977,0.99198,1.92275,1.49939
09:59:16.838095,1.94111,0.00566,-3.40349,17.92054,4.21827,-601.50509,-0.00822,-0.00355,0.00055,-0.02513,0.98655,1.93311,1.48230
09:59:16.848883,1.95189,0.00622,-3.35764,17.92054,4.09577,-598.41259,-0.00456,-0.00401,-0.00579,-0.02830,0.99027,1.94315,1.47497
09:59:16.858895,1.96188,0.00585,-3.31808,17.92054,4.17452,-588.18249,-0.00944,-0.00279,-0.00372,-0.03550,0.98704,1.95318,1.47009
09:59:16.869915,1.97292,0.00653,-3.27368,17.92378,4.10452,-583.22360,-0.00517,0.00256,-0.00891,-0.03099,0.99192,1.96372,0.68132
09:59:16.880359,1.98262,0.00587,-3.23150,17.92703,3.86827,-585.47552,-0.00944,0.00378,0.00018,-0.02898,0.98594,1.97408,2.04151
09:59:16.889737,1.99275,0.00556,-3.17955,17.92865,4.26202,-560.15203,-0.00700,0.00653,-0.00342,-0.02117,0.98411,1.98435,0.59585
09:59:16.901443,2.00445,0.00699,-3.12836,17.92865,4.41077,-544.99240,-0.00868,0.00714,0.00104,-0.02489,0.98448,1.99503,0.35165
09:59:16.911201,2.01418,0.00647,-3.08072,17.92865,4.06077,-550.91150,-0.01006,0.00256,-0.00256,-0.02294,0.98625,2.00565,0.25885
09:59:16.921133,2.02413,0.00606,-3.03658,17.93027,4.37577,-530.19922,-0.00715,0.00072,-0.00653,-0.02647,0.98863,2.01542,0.37607
09:59:16.931307,2.03430,0.00586,-2.99273,17.93189,4.06952,-535.00864,-0.00608,0.00027,-0.00372,-0.02525,0.98503,2.02577,2.28816
09:59:16.941238,2.04425,0.00560,-2.94934,17.93676,4.02577,-529.16994,-0.00746,-0.00309,-0.00555,-0.02513,0.99094,2.03622,0.87668
09:59:16.952634,2.05562,0.00619,-2.90014,17.94000,4.25327,-511.16548,-0.01112,-0.00111,-0.00622,-0.02153,0.98667,2.04693,2.30525
09:59:16.964239,2.06722,0.00716,-2.85053,17.94162,4.10452,-508.49754,-0.00379,-0.00401,-0.01360,-0.02050,0.99174,2.05806,0.72283
09:59:16.973500,2.07650,0.00610,-2.80275,17.94324,4.15702,-497.90371,-0.01006,-0.00141,-0.01336,-0.01549,0.98808,2.06775,0.74237
09:59:16.983118,2.08613,0.00515,-2.74914,17.94486,4.16577,-488.07180,-0.00944,-0.00157,-0.01623,-0.01208,0.98777,2.07828,2.92552
09:59:16.994233,2.09722,0.00601,-2.69943,17.94486,4.33202,-472.45625,-0.00624,0.00179,-0.01909,-0.01543,0.98887,2.08837,3.03785
09:59:17.004834,2.10784,0.00618,-2.65471,17.94486,4.10452,-473.86916,-0.00563,0.00286,-0.01769,-0.02068,0.98387,2.09911,3.09158
09:59:17.015936,2.11873,0.00672,-2.60378,17.94486,4.31452,-456.24478,-0.00899,0.00439,-0.02300,-0.01720,0.98905,2.11022,3.11111
09:59:17.024722,2.12773,0.00536,-2.55753,17.94486,4.32327,-447.70002,-0.00807,0.00485,-0.02031,-0.01379,0.98460,2.11970,3.10867
09:59:17.036081,2.13906,0.00619,-2.50741,17.94486,4.07827,-448.87247,-0.00502,0.00149,-0.02135,-0.01141,0.99003,2.13036,3.09402
09:59:17.046134,2.14843,0.00522,-2.46117,17.94486,4.17452,-436.74257,-0.00593,0.00332,-0.01842,-0.01299,0.98301,2.14037,3.10379
09:59:17.057131,2.16014,0.00657,-2.40446,17.94649,4.36702,-418.82716,-0.00899,0.00133,-0.01830,-0.00506,0.98509,2.15091,1.97802
09:59:17.066736,2.16973,0.00597,-2.35827,17.94811,4.13077,-420.35340,-0.00685,0.00195,-0.01641,-0.01141,0.98405,2.16105,1.04274
09:59:17.077201,2.17949,0.00537,-2.31153,17.95135,4.15702,-411.03554,-0.00761,0.00286,-0.01354,-0.01159,0.98381,2.17146,1.04762
09:59:17.087420,2.19042,0.00593,-2.26780,17.95459,4.04327,-407.99097,-0.01082,-0.00050,-0.01251,-0.01305,0.98942,2.18189,0.95726
09:59:17.097936,2.20093,0.00592,-2.22356,17.96108,4.13952,-396.27666,-0.00914,0.00363,-0.00659,-0.01220,0.98771,2.19219,1.40171
09:59:17.109011,2.21202,0.00681,-2.17067,17.96757,4.23577,-383.03030,-0.00899,0.00027,-0.00775,-0.00671,0.99412,2.20334,1.42125
09:59:17.118929,2.22192,0.00651,-2.12832,17.97405,4.01702,-384.56557,-0.00776,0.00271,0.00110,-0.00958,0.98985,2.21326,1.33089
09:59:17.129283,2.23229,0.00651,-2.08188,17.98054,3.90327,-381.07134,-0.01021,0.00195,-0.00092,-0.00390,0.99528,2.22341,1.17216
09:59:17.139500,2.24251,0.00637,-2.04066,17.98703,4.30577,-357.33625,-0.01357,0.00271,0.00238,-0.01226,0.98911,2.23326,1.10867
09:59:17.149678,2.25269,0.00618,-1.99785,17.99514,4.06077,-359.88109,-0.00593,0.00072,0.00250,-0.01025,0.98783,2.24383,1.12332
09:59:17.160336,2.26332,0.00646,-1.94954,18.00324,4.13077,-348.53785,-0.01021,0.00133,-0.00152,-0.00494,0.99009,2.25459,1.39927
09:59:17.170535,2.27352,0.00632,-1.90519,18.01135,3.94702,-348.30064,-0.00761,0.00011,0.00152,-0.00201,0.98564,2.26437,1.76313
09:59:17.181459,2.28446,0.00690,-1.85742,18.02108,4.01702,-337.06876,-0.01280,-0.00309,-0.00799,-0.00482,0.99137,2.27562,1.47009
09:59:17.191131,2.29412,0.00588,-1.81008,18.03243,4.06952,-326.64597,-0.00883,-0.00157,-0.00421,0.00171,0.98362,2.28538,1.29182
09:59:17.201959,2.30496,0.00635,-1.76648,18.04541,3.89452,-326.22714,-0.01067,-0.00172,-0.01543,-0.00335,0.98911,2.29595,1.29915
09:59:17.212683,2.31565,0.00594,-1.71858,18.06000,4.14827,-307.48574,-0.00990,0.00027,-0.01861,-0.00262,0.98869,2.30692,1.34310
09:59:17.222238,2.32525,0.00544,-1.67506,18.07297,3.84202,-312.46282,-0.00486,0.00149,-0.02013,-0.00012,0.99021,2.31722,1.41880
09:59:17.233790,2.33680,0.00618,-1.63044,18.08757,3.85077,-304.34644,-0.00547,0.00286,-0.01464,-0.00043,0.98460,2.32804,1.46032
09:59:17.244665,2.34767,0.00669,-1.58951,18.09892,3.83327,-297.92930,-0.00578,0.00500,-0.01257,-0.00116,0.98454,2.33827,1.22833
09:59:17.255390,2.35840,0.00718,-1.53308,18.10865,4.38452,-265.43265,-0.01265,0.00454,-0.01653,0.00451,0.98753,2.34980,1.62149
09:59:17.265083,2.36809,0.00651,-1.48521,18.12000,4.13952,-267.11375,-0.00364,0.00149,-0.01482,0.00494,0.98722,2.36004,1.55067
09:59:17.275483,2.37850,0.00626,-1.43851,18.12973,4.10452,-260.37609,-0.00822,0.00271,-0.01812,0.00287,0.99119,2.37070,1.24054
09:59:17.285701,2.38871,0.00610,-1.39374,18.14270,4.10452,-252.57588,-0.00792,-0.00035,-0.01623,0.00464,0.98741,2.38067,1.42857
09:59:17.297003,2.39932,0.00631,-1.34328,18.15568,3.94702,-250.22639,-0.00853,-0.00187,-0.01671,0.01318,0.99357,2.39078,1.31380
09:59:17.306654,2.40964,0.00599,-1.29521,18.17514,3.92952,-242.62349,-0.00944,-0.00019,-0.01153,0.01116,0.98924,2.40095,1.39438
09:59:17.317816,2.42011,0.00550,-1.24350,18.19622,4.34077,-216.81115,-0.00761,0.00210,-0.01006,0.00695,0.99235,2.41204,1.37241
09:59:17.328871,2.43187,0.00690,-1.19857,18.21892,4.06952,-220.19825,-0.00807,0.00546,-0.00793,0.00348,0.99040,2.42312,1.58242
09:59:17.338564,2.44155,0.00587,-1.15898,18.23676,4.20952,-207.62143,-0.00822,0.00576,-0.00726,0.00293,0.98777,2.43282,1.58730
09:59:17.350623,2.45294,0.00686,-1.10980,18.26108,4.31452,-194.84653,-0.01021,0.00576,-0.00769,0.00165,0.98789,2.44494,1.36264
09:59:17.359809,2.46262,0.00597,-1.06775,18.27730,4.34077,-186.48136,-0.00685,0.00301,-0.00665,0.00842,0.98143,2.45410,1.60684
09:59:17.370138,2.47312,0.00524,-1.01155,18.29676,4.32327,-177.43997,-0.00593,0.00576,-0.01238,0.02019,0.98832,2.46438,1.57753
09:59:17.380603,2.48359,0.00603,-0.96144,18.32108,4.13077,-176.69575,-0.00670,0.00118,-0.00592,0.01525,0.98558,2.47490,1.55556
09:59:17.390790,2.49378,0.00603,-0.91410,18.35027,4.06077,-171.46623,-0.01112,-0.00203,-0.01086,0.01549,0.98869,2.48505,1.36996
09:59:17.401439,2.50445,0.00634,-0.86959,18.38757,4.24452,-156.41291,-0.00379,-0.00294,-0.00665,0.00964,0.98808,2.49547,1.47497
09:59:17.410710,2.51372,0.00533,-0.82066,18.42811,4.25327,-147.78327,-0.00471,-0.00157,-0.00921,0.01543,0.99046,2.50589,1.42613
09:59:17.421617,2.52463,0.00601,-0.77922,18.47514,4.03452,-149.86784,-0.00715,-0.00172,-0.00299,0.01159,0.98918,2.51601,1.51404
09:59:17.432665,2.53566,0.00616,-0.72620,18.53027,4.23577,-132.76142,-0.00700,-0.00218,-0.00079,0.01921,0.98979,2.52699,1.43346
09:59:17.442741,2.54573,0.00602,-0.67588,18.58378,4.50702,-113.24670,-0.00929,0.00424,-0.00494,0.01854,0.99210,2.53701,1.45299
09:59:17.452878,2.55588,0.00596,-0.62773,18.64054,4.25327,-115.67322,-0.00822,0.00286,-0.00482,0.01641,0.98893,2.54773,1.42857
09:59:17.463882,2.56668,0.00641,-0.58207,18.69081,4.40202,-101.97533,-0.00853,0.00561,-0.00823,0.01403,0.98942,2.55816,1.51160
09:59:17.473800,2.57681,0.00622,-0.54291,18.73946,4.03452,-110.57854,-0.00685,0.00500,-0.00732,0.01403,0.98716,2.56807,1.39683
09:59:17.483987,2.58697,0.00601,-0.50064,18.78973,4.13077,-99.63255,-0.00731,0.00240,-0.00720,0.01586,0.98674,2.57826,1.41392
09:59:17.494619,2.59691,0.00544,-0.45520,18.84649,3.73702,-108.27816,-0.01158,0.00317,-0.01116,0.02306,0.98741,2.58886,1.44567
09:59:17.505398,2.60841,0.00657,-0.40426,18.90973,4.06952,-86.23732,-0.00761,0.00042,-0.01153,0.02629,0.98674,2.59943,1.47741
09:59:17.515975,2.61896,0.00676,-0.35216,18.97622,3.87702,-85.54644,-0.00685,-0.00279,-0.01562,0.02965,0.99088,2.61029,1.48962
09:59:17.525982,2.62897,0.00592,-0.30596,19.05892,3.78077,-82.10978,-0.00685,-0.00325,-0.01159,0.02873,0.98539,2.62023,1.45788
09:59:17.536491,2.63948,0.00607,-0.25851,19.14324,3.69327,-78.10777,-0.00883,-0.00493,-0.01452,0.02946,0.98881,2.63078,1.42369
09:59:17.546259,2.64927,0.00550,-0.21666,19.23243,3.41327,-83.03676,-0.00715,-0.00493,-0.00927,0.02885,0.98826,2.64091,1.45788
09:59:17.556488,2.65950,0.00551,-0.17066,19.32162,3.32577,-79.33776,-0.00776,-0.00523,-0.00982,0.03361,0.98710,2.65148,1.44322
09:59:17.568189,2.67117,0.00683,-0.11973,19.41081,3.53577,-62.56976,-0.01067,0.00240,-0.00897,0.03593,0.99040,2.66250,1.46032
09:59:17.577889,2.68090,0.00584,-0.08548,19.49351,3.55327,-56.58374,-0.00670,0.00592,-0.00939,0.01995,0.98765,2.67285,1.41392
09:59:17.589264,2.69227,0.00685,-0.04880,19.57622,3.73702,-43.35211,-0.00563,0.01187,-0.00543,0.01976,0.98789,2.68354,1.48474
09:59:17.598793,2.70178,0.00608,-0.00874,19.64757,3.39577,-50.93643,-0.00685,0.01432,-0.00451,0.03318,0.98802,2.69300,1.47741
09:59:17.609160,2.71217,0.00610,0.02764,19.72541,3.35202,-47.03792,-0.00502,0.01538,-0.00872,0.02647,0.99027,2.70343,1.46276
09:59:17.619301,2.72231,0.00588,0.06527,19.80486,3.25577,-45.08736,-0.00517,0.01065,-0.00561,0.02995,0.98905,2.71377,1.45788
09:59:17.630567,2.73358,0.00662,0.12051,19.89730,3.14202,-40.86100,-0.00853,0.00805,-0.01330,0.04910,0.99296,2.72504,1.41880
09:59:17.641090,2.74410,0.00678,0.17237,19.98486,3.29077,-26.42409,-0.00440,0.00210,-0.01153,0.04740,0.98789,2.73541,1.40415
09:59:17.652185,2.75517,0.00732,0.21257,20.09351,3.12452,-27.16689,-0.00410,-0.00019,-0.01318,0.03636,0.98850,2.74592,1.45299
09:59:17.661547,2.76456,0.00607,0.24010,20.20541,2.80952,-36.28352,-0.00883,-0.00264,-0.00720,0.02769,0.98545,2.75594,1.42369
09:59:17.672531,2.77552,0.00666,0.27999,20.32541,2.94077,-24.99405,-0.00502,-0.00325,-0.00830,0.03788,0.98674,2.76687,1.43590
09:59:17.682465,2.78545,0.00597,0.30382,20.45838,2.75702,-29.58671,-0.00715,-0.00432,-0.00854,0.02550,0.98289,2.77677,1.41148
09:59:17.692985,2.79599,0.00615,0.33484,20.58973,2.74827,-25.71644,-0.00440,0.00103,-0.00708,0.03257,0.98765,2.78725,1.42613
09:59:17.703332,2.80633,0.00613,0.37131,20.70973,2.72202,-21.48940,-0.00624,0.00057,-0.00738,0.04099,0.98948,2.79734,1.44811
09:59:17.714165,2.81693,0.00636,0.41501,20.82811,2.69577,-15.96664,-0.00288,0.00561,-0.00232,0.04862,0.98527,2.80790,1.44567
09:59:17.724766,2.82776,0.00683,0.45009,20.94649,2.62577,-13.76405,-0.00486,0.00866,-0.00171,0.03873,0.98777,2.81902,1.40659
09:59:17.734780,2.83709,0.00589,0.47659,21.04378,2.64327,-9.28971,-0.00624,0.01141,-0.00756,0.03239,0.98728,2.82909,1.41148
09:59:17.744560,2.84757,0.00601,0.50276,21.15568,2.38952,-16.13580,-0.00517,0.00912,-0.01006,0.03611,0.98966,2.83955,1.40415
09:59:17.756556,2.85953,0.00761,0.53226,21.28054,1.93452,-30.76761,-0.00563,0.01172,-0.00970,0.04343,0.98960,2.85030,1.46520
09:59:17.765415,2.86842,0.00614,0.56130,21.40703,2.24952,-13.92627,-0.00425,0.00485,-0.00720,0.04124,0.98942,2.86039,1.43590
09:59:17.776540,2.87954,0.00689,0.59432,21.56270,2.08327,-16.39394,-0.00532,0.00286,-0.01293,0.04746,0.98948,2.87081,1.43834
09:59:17.786775,2.88908,0.00577,0.62808,21.71838,1.94327,-17.65260,-0.00471,0.00286,-0.00866,0.05069,0.98619,2.88110,1.45543
09:59:17.797159,2.89993,0.00641,0.66590,21.87243,2.19702,-2.03307,-0.00272,-0.00141,-0.00805,0.05435,0.99515,2.89103,1.39194
09:59:17.806797,2.90909,0.00538,0.66298,22.02486,2.36327,2.80206,-0.00272,-0.00004,-0.00500,0.00549,0.98472,2.90109,1.39683
09:59:17.816516,2.91953,0.00539,0.67663,22.18378,2.09202,-7.42720,-0.00257,-0.00126,0.00262,0.02672,0.98472,2.91149,1.43101
09:59:17.826116,2.92912,0.00463,0.69131,22.33459,1.71577,-21.70447,-0.01067,-0.00157,-0.00525,0.03270,0.98741,2.92185,1.42613
09:59:17.837912,2.94091,0.00590,0.71900,22.48865,1.88202,-11.46452,-0.00639,0.00424,0.00146,0.04612,0.98857,2.93217,1.39927
09:59:17.848514,2.95150,0.00614,0.72752,22.64270,1.64577,-21.12300,-0.00318,0.00210,-0.01318,0.02684,0.98942,2.94274,1.42857
09:59:17.858501,2.96151,0.00595,0.77404,22.79514,1.86452,-5.38291,0.00079,0.00485,-0.00177,0.06893,0.99180,2.95305,1.43834
09:59:17.869027,2.97203,0.00610,0.80841,22.95730,1.80327,-3.36737,-0.00639,0.00439,-0.00799,0.05661,0.99223,2.96327,1.43346
09:59:17.879817,2.98262,0.00606,0.82192,23.13081,1.76827,-4.07766,-0.00043,0.00454,0.00329,0.03190,0.98179,2.97409,1.42613
09:59:17.890029,2.99302,0.00597,0.83750,23.30270,1.53202,-12.65536,-0.00334,-0.00019,-0.00451,0.03886,0.98832,2.98421,1.42125
09:59:17.900473,3.00346,0.00605,0.85126,23.47946,1.26077,-23.03876,0.00033,-0.00187,-0.00720,0.03941,0.98558,2.99477,1.44078
09:59:17.910536,3.01353,0.00592,0.87682,23.65459,1.25202,-20.55490,-0.00074,-0.00325,-0.00586,0.05441,0.99229,3.00481,1.43346
09:59:17.920371,3.02338,0.00541,0.89266,23.83622,1.21702,-20.92910,-0.00364,-0.00096,0.00006,0.04313,0.98771,3.01534,1.40171
09:59:17.932479,3.03463,0.00645,0.90972,24.00973,0.82327,-35.71927,-0.00364,-0.00019,-0.00146,0.04886,0.98820,3.02659,1.42613
09:59:17.941700,3.04470,0.00617,0.92299,24.18649,1.03327,-26.45646,-0.00181,0.00011,-0.00244,0.04459,0.99180,3.03587,1.42125
09:59:17.952696,3.05568,0.00678,0.92495,24.37135,0.74452,-39.72367,-0.00425,0.00408,-0.00708,0.03318,0.99162,3.04703,1.43834
09:59:17.962898,3.06591,0.00671,0.92831,24.54486,0.51702,-50.12115,-0.00349,0.00607,-0.00909,0.03770,0.98887,3.05807,1.42613
09:59:17.974261,3.07725,0.00783,0.93635,24.70378,0.41202,-54.52925,-0.00517,0.00515,-0.00409,0.04465,0.98777,3.06858,1.43346
09:59:17.982742,3.08574,0.00612,0.96015,24.85297,0.45577,-49.95468,-0.00303,0.00088,-0.00634,0.06350,0.98655,3.07691,1.42857
09:59:17.993589,3.09606,0.00609,0.98220,25.02162,0.61327,-41.21382,-0.00013,0.00256,-0.01006,0.05917,0.99040,3.08733,1.42613
09:59:18.004513,3.10751,0.00718,0.99196,25.19514,0.45577,-47.60997,-0.00303,0.00271,-0.01165,0.04703,0.99204,3.09826,1.44078
09:59:18.014470,3.11746,0.00677,1.00296,25.37838,0.64827,-39.53027,0.00018,0.00729,-0.00714,0.04636,0.98777,3.10875,1.43101
09:59:18.023132,3.12614,0.00510,1.00202,25.54216,0.58702,-43.77938,-0.00059,0.00607,-0.00634,0.03410,0.98509,3.11827,1.40659
09:59:18.033491,3.13650,0.00526,1.00348,25.71405,0.80577,-36.20215,-0.00074,0.00897,-0.00335,0.03385,0.98381,3.12843,1.44567
09:59:18.044047,3.14705,0.00545,1.01100,25.88757,0.52577,-48.01779,-0.00471,0.00882,-0.00195,0.04398,0.98777,3.13896,1.41148
09:59:18.055428,3.15841,0.00662,1.01797,26.04649,0.31577,-56.91917,-0.00410,0.00928,-0.00793,0.04599,0.99033,3.14983,1.44322
09:59:18.066093,3.16841,0.00625,1.03342,26.21514,0.84952,-33.91968,0.00063,0.00729,-0.00933,0.04972,0.99168,3.16036,1.44567
09:59:18.075349,3.17834,0.00598,1.04934,26.35622,0.55202,-44.65288,0.00033,0.00164,-0.00500,0.05466,0.98954,3.16980,1.42857
09:59:18.086334,3.18934,0.00662,1.06014,26.51189,0.53452,-44.95413,-0.00410,0.00225,-0.00396,0.04868,0.98875,3.18004,1.42857
09:59:18.096194,3.19918,0.00609,1.06518,26.66919,0.80577,-34.45013,-0.00196,0.00378,-0.00384,0.03886,0.98649,3.19042,1.41636
09:59:18.106975,3.20997,0.00631,1.06434,26.84108,0.52577,-47.72995,-0.00379,-0.00080,-0.00988,0.03526,0.98844,3.20127,1.40659
09:59:18.117191,3.22020,0.00619,1.07263,27.00649,0.71827,-39.95751,-0.00364,-0.00096,-0.00823,0.04423,0.99296,3.21136,1.43834
09:59:18.126853,3.22987,0.00533,1.08618,27.17351,0.68327,-40.59779,0.00002,-0.00233,-0.00878,0.05039,0.99241,3.22202,1.44567
09:59:18.138393,3.24139,0.00600,1.09836,27.34216,0.73577,-37.90872,-0.00166,-0.00264,-0.00750,0.04819,0.98783,3.23266,1.45543
09:59:18.148796,3.25180,0.00616,1.11789,27.49784,0.81452,-32.71763,-0.00242,-0.00111,-0.00628,0.05612,0.98741,3.24306,1.44811
09:59:18.159809,3.26262,0.00662,1.12683,27.64378,0.84952,-31.10113,-0.00272,-0.00172,-0.01068,0.04349,0.98478,3.25371,1.40415
09:59:18.169357,3.27236,0.00595,1.12729,27.78649,0.81452,-33.82389,-0.00517,-0.00141,-0.01025,0.03447,0.98716,3.26431,1.40171
09:59:18.180581,3.28357,0.00619,1.13770,27.92432,0.70952,-37.61035,-0.00288,0.00485,-0.01189,0.04721,0.98753,3.27488,1.44811
09:59:18.190536,3.29352,0.00590,1.15271,28.05730,0.70077,-36.58959,-0.00242,0.00454,-0.00476,0.05325,0.98649,3.28481,1.44322
09:59:18.201088,3.30339,0.00541,1.17250,28.19351,0.95452,-23.98973,0.00079,0.00683,-0.01019,0.05557,0.98722,3.29534,1.45543
09:59:18.211884,3.31355,0.00521,1.19322,28.32162,0.78827,-28.36786,-0.00410,0.00821,-0.00518,0.05923,0.98881,3.30568,1.38462
09:59:18.221805,3.32481,0.00610,1.21866,28.45135,1.20827,-7.89127,-0.00211,0.00515,-0.00689,0.06027,0.99229,3.31604,1.41392
09:59:18.232668,3.33565,0.00658,1.23217,28.57297,1.35702,-0.56924,-0.00608,0.00271,-0.00799,0.04410,0.98899,3.32698,1.45543
09:59:18.242740,3.34507,0.00574,1.23080,28.69135,0.93702,-19.16830,-0.00242,0.00042,-0.00220,0.03343,0.98552,3.33684,1.39194
09:59:18.252099,3.35510,0.00542,1.22984,28.80973,1.01577,-17.24551,0.00018,0.00332,-0.00458,0.03270,0.98777,3.34704,1.46032
09:59:18.263401,3.36638,0.00634,1.23780,28.92162,0.84952,-23.72657,-0.00410,0.00531,0.00030,0.04477,0.98466,3.35719,1.44322
09:59:18.273089,3.37579,0.00544,1.25529,29.03514,0.94577,-17.77440,-0.00227,0.00301,-0.00268,0.05453,0.98887,3.36775,1.43346
09:59:18.283838,3.38664,0.00593,1.26760,29.13892,1.18202,-6.90562,-0.00227,0.00469,-0.00384,0.04648,0.99064,3.37804,1.42369
09:59:18.294103,3.39711,0.00593,1.28352,29.24432,1.12952,-7.25287,0.00018,0.00424,0.00073,0.05148,0.99143,3.38835,1.42613
09:59:18.304876,3.40789,0.00634,1.30129,29.34324,1.17327,-3.26281,-0.00211,0.00256,-0.00024,0.05289,0.98771,3.39890,1.41636
09:59:18.314595,3.41760,0.00542,1.32021,29.43892,1.17327,-0.83232,-0.00395,0.00439,0.00110,0.05411,0.98741,3.40974,1.40904
09:59:18.325636,3.42864,0.00609,1.32732,29.52973,1.05077,-5.46877,-0.00517,0.00179,-0.00415,0.04319,0.98802,3.41988,1.40171
09:59:18.337099,3.44008,0.00655,1.34318,29.62216,1.06827,-2.83081,-0.00792,-0.00187,-0.00659,0.05222,0.98863,3.43087,1.43590
09:59:18.346760,3.44975,0.00586,1.35977,29.70324,0.88452,-8.20602,-0.00318,-0.00157,-0.00329,0.05642,0.98826,3.44103,1.46032
09:59:18.357332,3.46034,0.00609,1.37410,29.78108,1.17327,5.42096,-0.00639,-0.00004,-0.00092,0.05020,0.98777,3.45160,1.45788
09:59:18.367981,3.47096,0.00630,1.38335,29.85081,1.24327,9.25931,-0.00395,0.00118,-0.00665,0.04398,0.98948,3.46207,1.44567
09:59:18.378044,3.48036,0.00536,1.39262,29.91892,1.36577,15.26930,-0.00288,0.00210,-0.00549,0.04307,0.98905,3.47230,1.41392
09:59:18.388998,3.49201,0.00664,1.39566,29.98216,1.59327,24.52744,-0.00303,0.00500,-0.00579,0.03233,0.98735,3.48310,1.41880
09:59:18.397766,3.50078,0.00522,1.40752,30.04216,1.34827,16.00604,-0.00334,0.00424,-0.00714,0.04740,0.98924,3.49273,1.43346
09:59:18.409190,3.51220,0.00618,1.42468,30.09892,1.49702,24.59596,-0.00838,0.00546,-0.00433,0.05008,0.98826,3.50350,1.46032
09:59:18.419142,3.52215,0.00560,1.44948,30.15081,1.59327,32.43482,-0.00883,0.00531,-0.00762,0.05795,0.98814,3.51431,1.43346
09:59:18.429973,3.53297,0.00591,1.47371,30.19459,1.47952,31.63882,-0.00960,0.00515,-0.00970,0.06063,0.98844,3.52423,1.40659
09:59:18.441398,3.54441,0.00698,1.49513,30.23838,1.61952,40.75037,-0.00181,0.00103,-0.01354,0.05508,0.98850,3.53478,1.36508
09:59:18.450677,3.55367,0.00589,1.51226,30.28054,1.44452,36.20294,-0.00334,-0.00050,-0.00939,0.05307,0.98521,3.54493,1.45788
09:59:18.462175,3.56468,0.00653,1.53440,30.32270,1.43577,39.35767,-0.00731,-0.00462,-0.00756,0.05801,0.98497,3.55581,1.34310
09:59:18.471580,3.57459,0.00609,1.54787,30.36324,1.56702,46.73356,-0.00486,-0.00508,-0.00756,0.04856,0.98918,3.56584,1.35775
09:59:18.482421,3.58474,0.00573,1.56587,30.39892,1.62827,52.08780,-0.00654,0.00118,-0.01269,0.05173,0.99009,3.57674,1.50183
09:59:18.492482,3.59547,0.00609,1.58512,30.42649,1.89952,66.35290,-0.00517,0.00240,-0.00976,0.05203,0.98869,3.58673,1.46764
09:59:18.502137,3.60514,0.00530,1.60646,30.44595,1.61952,58.46213,-0.00440,0.00378,-0.00915,0.05710,0.98698,3.59713,1.49695
09:59:18.514064,3.61680,0.00609,1.63098,30.45892,1.84702,72.00564,-0.00731,0.00683,-0.00598,0.05832,0.98545,3.60755,1.68254
09:59:18.523493,3.62649,0.00593,1.65191,30.46541,1.67202,68.47357,-0.00731,0.00424,-0.00854,0.05679,0.98539,3.61791,1.57509
09:59:18.533540,3.63654,0.00549,1.67505,30.47027,1.61952,70.37012,-0.00272,0.00576,-0.00848,0.06045,0.98649,3.62823,1.75824
09:59:18.545212,3.64822,0.00680,1.70213,30.47189,1.76827,81.24560,-0.00563,0.00225,-0.00921,0.06204,0.99046,3.63947,1.75824
09:59:18.554908,3.65791,0.00631,1.72362,30.47351,1.65452,80.36971,-0.00776,-0.00050,-0.00683,0.06106,0.98985,3.64880,0.52015
09:59:18.565246,3.66825,0.00621,1.74338,30.47676,1.53202,78.81370,0.00262,0.00057,-0.00458,0.05826,0.98960,3.65955,2.09524
09:59:18.576102,3.67910,0.00631,1.76748,30.47838,1.50577,81.98861,-0.00563,-0.00294,-0.00037,0.06289,0.98905,3.67089,1.74603
09:59:18.588065,3.69105,0.00760,1.78653,30.47838,1.52327,86.07787,-0.00639,-0.00294,-0.00207,0.05722,0.98844,3.68222,1.47253
09:59:18.597585,3.70058,0.00617,1.80191,30.47838,1.60202,92.02841,-0.00502,-0.00065,-0.00323,0.05539,0.98905,3.69187,1.44567
09:59:18.609021,3.71202,0.00640,1.82081,30.47838,1.68952,98.96103,-0.00181,0.00011,0.00085,0.05545,0.98826,3.70323,1.41636
09:59:18.618642,3.72165,0.00579,1.83635,30.47838,1.43577,91.30871,-0.00593,0.00393,-0.00037,0.05691,0.98558,3.71342,1.40904
09:59:18.629306,3.73231,0.00608,1.85238,30.47838,1.43577,94.14462,-0.00120,0.00668,0.00104,0.05795,0.98802,3.72357,1.42369
09:59:18.638774,3.74178,0.00519,1.87236,30.47838,1.48827,99.83380,-0.00654,0.00714,-0.00018,0.06179,0.98735,3.73393,1.39927
09:59:18.649287,3.75230,0.00522,1.88873,30.47838,1.15577,89.09995,-0.00532,0.00439,-0.00305,0.06210,0.98954,3.74424,1.41880
09:59:18.661343,3.76434,0.00691,1.90970,30.47838,1.26952,97.47425,-0.00211,0.00164,-0.00537,0.06478,0.98777,3.75555,1.41148
09:59:18.670337,3.77335,0.00521,1.92557,30.48000,0.91952,85.91885,-0.00074,0.00118,-0.00579,0.06527,0.98533,3.76528,0.53968
09:59:18.681891,3.78487,0.00635,1.94634,30.48324,1.14702,98.89105,-0.00364,-0.00279,-0.00409,0.06722,0.98515,3.77610,1.32112
09:59:18.691951,3.79476,0.00589,1.96460,30.48649,0.90202,92.04754,-0.00288,-0.00279,-0.00500,0.06850,0.98619,3.78622,0.85226
09:59:18.702150,3.80513,0.00606,1.97925,30.49135,0.77952,89.57146,-0.00334,-0.00172,-0.00732,0.06618,0.98857,3.79638,1.81441
09:59:18.713125,3.81543,0.00599,1.99023,30.49622,0.91952,97.20698,-0.00395,0.00164,-0.00750,0.06033,0.98887,3.80678,1.36752
09:59:18.723552,3.82654,0.00691,1.99696,30.49784,0.59577,85.10870,-0.00043,0.00042,-0.00793,0.05887,0.98857,3.81803,1.77778
09:59:18.732380,3.83539,0.00540,2.00604,30.49784,0.41202,79.18333,-0.00120,-0.00035,-0.00628,0.06503,0.98954,3.82733,1.47497
09:59:18.742532,3.84554,0.00519,2.01628,30.49784,0.41202,80.99433,0.00048,0.00317,-0.00598,0.06594,0.98838,3.83768,1.41392
09:59:18.754346,3.85736,0.00619,2.02680,30.49784,0.16702,72.81155,0.00094,0.00301,-0.00305,0.06899,0.98649,3.84915,1.45543
09:59:18.765325,3.86833,0.00679,2.04365,30.49784,0.33327,82.61156,-0.00211,0.00286,-0.00762,0.07472,0.98539,3.85933,1.39683
09:59:18.774797,3.87779,0.00589,2.05527,30.49784,0.14077,76.77475,0.00094,0.00042,-0.00427,0.07161,0.99015,3.86903,1.44322
09:59:18.785822,3.88883,0.00671,2.06334,30.49784,0.21952,81.43210,0.00186,0.00332,-0.00518,0.06643,0.98753,3.87969,1.43590
09:59:18.795329,3.89832,0.00599,2.06683,30.49946,-0.21798,64.09679,-0.00227,0.00133,-0.00354,0.06649,0.98826,3.88979,0.46642
09:59:18.806017,3.90902,0.00634,2.06771,30.50108,-0.20923,64.59570,-0.00013,0.00469,-0.00775,0.06350,0.98875,3.90003,0.42491
09:59:18.815993,3.91898,0.00594,2.07041,30.50108,-0.10423,69.37798,-0.00104,0.00164,-0.00604,0.06435,0.98820,3.91027,1.04762
09:59:18.826440,3.92942,0.00596,2.07623,30.50108,-0.13048,69.33211,-0.00303,0.00454,-0.00610,0.06826,0.98698,3.92069,1.35043
09:59:18.837301,3.94030,0.00649,2.08038,30.50108,-0.57673,51.77051,-0.00043,0.00561,-0.00317,0.07161,0.98515,3.93116,1.40171
09:59:18.847088,3.95008,0.00591,2.08193,30.50108,-0.72548,45.94617,-0.00502,0.00363,-0.00445,0.07027,0.98613,3.94132,1.43834
09:59:18.857679,3.96068,0.00616,2.08346,30.50108,-0.20923,67.38390,-0.00196,0.00240,-0.00549,0.06448,0.98704,3.95186,1.43346
09:59:18.867980,3.97096,0.00607,2.07929,30.50108,-0.63798,49.06752,-0.00074,-0.00035,-0.00494,0.06307,0.98918,3.96223,1.43346
09:59:18.878676,3.98167,0.00607,2.07530,30.50108,-0.84798,39.75135,-0.00196,0.00088,-0.00531,0.06582,0.98716,3.97289,1.43346
09:59:18.888280,3.99129,0.00548,2.07379,30.50108,-0.79548,41.63612,0.00079,0.00118,-0.00348,0.06777,0.98820,3.98323,1.41880
09:59:18.899066,4.00205,0.00588,2.06907,30.50108,-0.88298,37.21366,-0.00120,0.00179,-0.00067,0.06478,0.98777,3.99332,1.40659
09:59:18.910428,4.01342,0.00688,2.06489,30.50108,-1.26798,20.68713,0.00094,0.00210,-0.00238,0.07161,0.98796,4.00471,1.40659
09:59:18.920495,4.02296,0.00606,2.06223,30.50108,-1.07548,28.10918,0.00002,0.00332,-0.00152,0.06856,0.98796,4.01425,1.43346
09:59:18.930206,4.03321,0.00599,2.05192,30.50108,-1.48673,9.42369,-0.00410,0.00363,-0.00348,0.06515,0.98814,4.02438,1.42613
09:59:18.940643,4.04363,0.00606,2.03831,30.50108,-1.54798,4.50387,-0.00013,0.00332,-0.00604,0.06252,0.98722,4.03492,1.40415
09:59:18.950830,4.05383,0.00589,2.02793,30.50108,-1.67048,-2.35567,0.00186,0.00195,-0.00366,0.06673,0.98674,4.04508,1.40904
09:59:18.962124,4.06513,0.00684,2.01895,30.50108,-1.67048,-3.94532,0.00094,0.00286,-0.00744,0.06954,0.98728,4.05595,1.42613
09:59:18.972512,4.07550,0.00684,2.00645,30.50108,-1.89798,-15.48532,0.00063,0.00546,-0.00634,0.06795,0.98680,4.06675,1.42613
09:59:18.982999,4.08600,0.00660,1.99091,30.50108,-1.97673,-21.46514,-0.00074,0.00668,-0.00842,0.06448,0.98680,4.07723,1.41148
09:59:18.993335,4.09633,0.00657,1.97937,30.50108,-1.97673,-23.50810,-0.00013,0.00210,-0.00817,0.06747,0.98680,4.08710,1.40415
09:59:19.003944,4.10667,0.00596,1.95965,30.50108,-2.14298,-33.81493,0.00277,0.00133,-0.00592,0.06259,0.98661,4.09817,1.45055
09:59:19.014092,4.11708,0.00590,1.94008,30.50108,-2.38798,-47.32285,0.00338,0.00515,-0.00354,0.06320,0.98777,4.10836,1.44322
09:59:19.024627,4.12761,0.00606,1.91586,30.50108,-2.61548,-60.93751,0.00491,0.00653,-0.00720,0.06118,0.98814,4.11890,1.45788
09:59:19.034759,4.13775,0.00584,1.89695,30.50108,-2.55423,-61.77334,-0.00059,0.00439,-0.00781,0.06490,0.98594,4.12906,1.42857
09:59:19.045398,4.14840,0.00613,1.87202,30.50108,-2.93923,-81.97051,0.00247,0.00485,-0.00403,0.06362,0.98893,4.13962,1.45543
09:59:19.055235,4.15825,0.00544,1.84635,30.50108,-2.84298,-82.56872,0.00155,0.00653,-0.00500,0.06149,0.98850,4.15029,1.43346
09:59:19.066523,4.16951,0.00601,1.81884,30.50108,-2.91298,-90.30825,0.00094,0.00424,-0.00427,0.05923,0.98832,4.16079,1.43101
09:59:19.076988,4.17928,0.00543,1.79015,30.50108,-2.96548,-97.53837,0.00430,0.00607,-0.00512,0.05771,0.98893,4.17120,1.44811
09:59:19.087830,4.19063,0.00658,1.75703,30.50108,-3.39423,-120.97867,0.00201,0.00576,-0.00311,0.05630,0.99046,4.18135,1.41148
09:59:19.098209,4.20120,0.00678,1.72486,30.50108,-3.24548,-120.57407,0.00170,0.00485,-0.00213,0.05868,0.98905,4.19250,1.45299
09:59:19.108158,4.21115,0.00638,1.69741,30.50108,-3.31548,-128.30272,0.00079,0.00805,-0.00335,0.05850,0.98661,4.20211,1.45299
09:59:19.118894,4.22187,0.00669,1.66235,30.50108,-3.27173,-132.71491,0.00308,0.00744,-0.00207,0.05447,0.98887,4.21321,1.43101
09:59:19.128645,4.23164,0.00609,1.63039,30.50108,-3.15798,-133.70775,0.00079,0.00866,-0.00232,0.05087,0.98881,4.22289,1.44567
09:59:19.138776,4.24108,0.00517,1.59684,30.50108,-3.28048,-144.66995,0.00445,0.00439,-0.00317,0.05167,0.98875,4.23306,1.46764
09:59:19.148638,4.25165,0.00538,1.56001,30.50108,-3.29798,-151.90524,0.00216,0.00424,-0.00207,0.04886,0.98600,4.24362,1.45543
09:59:19.160004,4.26298,0.00635,1.52568,30.50108,-3.17548,-152.95967,0.00231,0.00500,-0.00323,0.05014,0.98918,4.25428,1.45543
09:59:19.171120,4.27362,0.00648,1.49963,30.50108,-3.43798,-168.33349,0.00216,0.00271,-0.00738,0.05972,0.98844,4.26430,1.44322
09:59:19.180569,4.28355,0.00605,1.47065,30.50108,-3.28923,-167.36419,0.00231,-0.00309,-0.00811,0.05636,0.99131,4.27485,1.44811
09:59:19.191511,4.29383,0.00598,1.43776,30.50108,-3.22798,-170.67390,0.00354,0.00195,-0.00641,0.05191,0.98850,4.28580,1.47009
09:59:19.201821,4.30430,0.00608,1.40208,30.50108,-3.28923,-179.49982,0.00461,0.00332,-0.00695,0.04447,0.98753,4.29558,1.45055
09:59:19.211546,4.31453,0.00613,1.36485,30.50108,-3.17548,-181.42633,0.00644,0.00240,-0.00952,0.04301,0.98423,4.30601,1.44322
09:59:19.221812,4.32480,0.00603,1.32302,30.50108,-3.35923,-196.36380,0.00201,0.00576,-0.01000,0.03812,0.98838,4.31610,1.46032
09:59:19.231359,4.33437,0.00524,1.28983,30.50108,-3.23673,-197.21581,0.00262,0.00790,-0.01391,0.04703,0.98722,4.32649,1.44567
09:59:19.242253,4.34525,0.00592,1.26087,30.50108,-3.28923,-204.49469,0.00231,0.00576,-0.01171,0.05057,0.98814,4.33651,1.46032
09:59:19.252905,4.35591,0.00604,1.23232,30.50108,-3.05298,-199.86248,0.00308,0.00729,-0.01726,0.05020,0.98838,4.34720,1.47497
09:59:19.263231,4.36624,0.00618,1.19721,30.50108,-3.24548,-213.96895,0.00308,0.00332,-0.01196,0.04557,0.98735,4.35819,1.46764
09:59:19.274019,4.37702,0.00674,1.17194,30.50108,-3.20173,-216.64740,0.00293,0.00317,-0.01092,0.05045,0.98783,4.36772,1.47985
09:59:19.284493,4.38658,0.00595,1.13537,30.50108,-3.17548,-222.04491,-0.00089,0.00164,-0.01128,0.04209,0.98747,4.37875,1.46032
09:59:19.294048,4.39706,0.00607,1.09874,30.50108,-3.22798,-230.68086,0.00522,0.00271,-0.01348,0.03861,0.98844,4.38883,1.47497
09:59:19.306387,4.40940,0.00741,1.05933,30.50108,-3.19298,-236.22066,0.00125,0.00179,-0.00683,0.03965,0.98899,4.40036,1.45788
09:59:19.315442,4.41843,0.00591,1.03300,30.50108,-2.99173,-232.63017,0.00170,0.00531,-0.00512,0.04459,0.98887,4.40988,1.47741
09:59:19.325931,4.42893,0.00589,1.00567,30.50108,-2.76423,-228.14013,0.00170,0.00546,-0.00226,0.04307,0.98881,4.42021,1.47741
09:59:19.337399,4.43988,0.00663,0.97469,30.50108,-2.69423,-230.75332,0.00201,0.00576,0.00098,0.03947,0.98948,4.43115,1.47253
09:59:19.346543,4.44954,0.00609,0.94785,30.50108,-2.68548,-235.14616,0.00048,0.00439,-0.00195,0.03916,0.99046,4.44063,1.44322
09:59:19.356877,4.45988,0.00607,0.91676,30.50108,-2.72048,-242.08334,0.00262,0.00454,0.00085,0.03739,0.99119,4.45114,1.47985
09:59:19.367030,4.47002,0.00585,0.88387,30.50108,-2.79048,-250.77522,0.00338,0.00408,0.00250,0.03440,0.98869,4.46130,1.46764
09:59:19.377643,4.48065,0.00612,0.85579,30.50108,-2.38798,-239.24276,0.00308,-0.00050,-0.00201,0.03593,0.98808,4.47191,1.47253
09:59:19.387955,4.49071,0.00598,0.83391,30.50108,-2.42298,-244.55035,0.00247,0.00531,-0.00134,0.04221,0.99040,4.48219,1.46764
09:59:19.397926,4.50094,0.00550,0.80733,30.50108,-2.01173,-232.39346,0.00063,0.01004,-0.00012,0.03263,0.99064,4.49292,1.47985
09:59:19.409618,4.51210,0.00630,0.77293,30.50108,-2.23923,-247.80966,0.00491,0.00821,-0.00232,0.02501,0.98881,4.50330,1.47497
09:59:19.419487,4.52248,0.00632,0.73954,30.50108,-2.05548,-246.18606,0.00125,0.00897,-0.00299,0.02251,0.98948,4.51329,1.45299
09:59:19.429590,4.53260,0.00608,0.70751,30.50108,-2.09048,-253.29080,-0.00059,0.01248,-0.00695,0.02519,0.98667,4.52386,1.47253
09:59:19.440531,4.54352,0.00603,0.68115,30.50108,-1.71423,-242.53035,-0.00166,0.00821,-0.01019,0.02751,0.98918,4.53483,1.46764
09:59:19.450711,4.55370,0.00585,0.66207,30.50108,-1.78423,-248.77829,0.00170,0.00240,-0.01061,0.03465,0.98869,4.54499,1.47741
09:59:19.461303,4.56359,0.00538,0.65306,30.50108,-1.58298,-242.12027,-0.00257,-0.00233,-0.01415,0.04447,0.99107,4.55557,1.48230
09:59:19.472274,4.57475,0.00618,0.64544,30.50108,-1.02298,-220.50904,-0.00196,-0.00371,-0.01623,0.03880,0.98826,4.56591,1.45055
09:59:19.481973,4.58494,0.00520,0.62747,30.50108,-0.93548,-220.10269,0.00293,-0.00386,-0.01873,0.02568,0.98832,4.57622,1.47253
09:59:19.493043,4.59605,0.00663,0.60851,30.50108,-0.74298,-215.56654,0.00079,-0.00355,-0.01690,0.02257,0.98655,4.58727,1.47009
09:59:19.502502,4.60551,0.00546,0.59223,30.50108,-0.60298,-212.70717,-0.00303,-0.00035,-0.01671,0.02287,0.98789,4.59723,1.44811
09:59:19.514261,4.61699,0.00674,0.58363,30.50108,-0.31423,-202.39180,-0.00211,0.00210,-0.01555,0.02836,0.99003,4.60762,1.46032
09:59:19.523512,4.62650,0.00590,0.57941,30.50108,-0.25298,-200.62665,0.00186,0.00164,-0.01220,0.03251,0.98911,4.61795,1.44811
09:59:19.534075,4.63706,0.00596,0.58226,30.50108,-0.28798,-201.55820,0.00002,0.00607,-0.00744,0.04099,0.98936,4.62827,1.45299
09:59:19.545676,4.64816,0.00620,0.59076,30.50108,0.22827,-178.88701,-0.00028,0.00378,-0.00433,0.04124,0.98789,4.63944,1.47497
09:59:19.554510,4.65751,0.00519,0.59435,30.50108,0.18452,-180.04495,0.00155,0.00378,-0.00714,0.03648,0.98661,4.64946,1.47741
09:59:19.567159,4.67015,0.00757,0.59407,30.50108,0.49952,-167.17997,-0.00242,0.00210,-0.00653