Description :  ; walk_time = 2.0 ; speed_up_time = 3.0 ; balancing_time = 0.0
RealTime,Time,CalculationTime,Roll,SteeringAngle,RollRate,ControlInput,gy,gz,ax,ay,az,imu_read_timing,SteerMotorCurrent
09:51:03.406962,0.01030,0.00974,0.00658,0.29189,-0.71785,-32.04622,-0.00401,-0.01200,-0.00207,0.04002,0.98820,0.00001,0.09280
09:51:03.414902,0.01827,0.00657,0.02581,0.29189,-1.31285,-53.75948,-0.00019,-0.01062,-0.00415,0.06063,0.98588,0.00956,0.13675
09:51:03.424751,0.02811,0.00605,0.06675,0.29189,-1.05035,-35.19113,0.00119,-0.00680,0.00165,0.08357,0.98527,0.01949,0.15140
09:51:03.435033,0.03839,0.00597,0.09463,0.29189,-1.05035,-30.12014,0.00455,-0.00253,0.01141,0.06948,0.98509,0.02965,0.17582
09:51:03.445521,0.04890,0.00611,0.10363,0.29189,-0.63910,-11.05926,-0.00065,0.00725,0.00610,0.04410,0.99198,0.04020,0.17827
09:51:03.456634,0.05909,0.00595,0.10225,0.29189,-0.97160,-25.39773,-0.00095,0.01122,-0.00110,0.03684,0.99643,0.05114,0.15873
09:51:03.466149,0.06952,0.00587,0.14064,0.29189,-0.92785,-16.56128,0.00317,0.01565,0.00201,0.08089,0.99216,0.06083,0.16606
09:51:03.477189,0.08057,0.00672,0.15018,0.29189,-0.76160,-7.78337,0.00164,0.01702,0.00573,0.04703,0.98472,0.07183,0.17582
09:51:03.486380,0.08976,0.00572,0.13038,0.29189,-0.88410,-16.57421,0.00134,0.01504,0.00885,0.01348,0.98320,0.08125,0.17094
09:51:03.499350,0.10271,0.00831,0.13892,0.29189,-1.32160,-33.55860,-0.00324,0.00511,0.00830,0.05557,0.98643,0.09412,0.16117
09:51:03.508227,0.11159,0.00683,0.16904,0.29189,-1.40910,-31.78738,-0.00401,0.00328,0.00409,0.07594,0.99338,0.10295,0.16850
09:51:03.517890,0.12127,0.00615,0.18106,0.29189,-1.24285,-22.55745,0.00256,-0.00100,-0.00061,0.05502,0.99765,0.11249,0.16361
09:51:03.529605,0.13209,0.00661,0.16954,0.29189,-0.98910,-13.89988,0.00348,-0.00497,0.00348,0.02586,0.99174,0.12284,0.17094
09:51:03.538353,0.14172,0.00593,0.17952,0.29189,-1.33035,-26.54491,0.00287,0.00205,0.01080,0.05398,0.98753,0.13299,0.17338
09:51:03.549176,0.15256,0.00656,0.19375,0.29189,-0.88410,-5.04811,0.00073,0.00877,0.01202,0.05447,0.98271,0.14394,0.16606
09:51:03.558862,0.16222,0.00602,0.19394,0.29189,-0.94535,-7.60916,-0.00034,0.01259,0.00860,0.03788,0.98216,0.15352,0.16361
09:51:03.569227,0.17261,0.00605,0.17325,0.29189,-0.95410,-11.74263,0.00317,0.02175,0.00354,0.01507,0.98613,0.16393,0.16850
09:51:03.579723,0.18310,0.00619,0.17398,0.29189,-1.06785,-16.42988,0.00180,0.01549,0.00476,0.04056,0.99204,0.17408,0.15873
09:51:03.590416,0.19380,0.00652,0.19961,0.29189,-1.10285,-13.25080,0.00378,0.01381,0.00531,0.07125,0.99131,0.18540,0.16850
09:51:03.602566,0.20594,0.00834,0.19741,0.29189,-0.77910,0.06574,0.00042,0.00938,0.01360,0.03532,0.98814,0.19686,0.17094
09:51:03.610223,0.21359,0.00586,0.18705,0.29189,-0.80535,-2.93025,0.00195,0.00190,0.01043,0.02312,0.98716,0.20492,0.15873
09:51:03.621279,0.22466,0.00656,0.18338,0.29189,-1.09410,-15.83151,-0.00004,-0.00268,0.00543,0.03709,0.98850,0.21603,0.17827
09:51:03.630918,0.23428,0.00582,0.19383,0.29189,-1.13785,-15.78465,0.00210,-0.00940,-0.00018,0.05197,0.98972,0.22564,0.16361
09:51:03.641488,0.24486,0.00605,0.17765,0.29189,-1.21660,-22.06454,0.00241,-0.01123,-0.00055,0.02348,0.98472,0.23619,0.16850
09:51:03.651006,0.25439,0.00521,0.16785,0.29189,-1.10285,-19.02749,0.00180,-0.00696,0.01318,0.02891,0.98405,0.24656,0.16850
09:51:03.662154,0.26552,0.00585,0.18377,0.29189,-1.09410,-15.76095,0.00256,-0.00314,0.01372,0.05826,0.98710,0.25686,0.17338
09:51:03.673854,0.27663,0.00659,0.19267,0.29189,-1.05035,-12.28966,0.00027,-0.00069,0.00714,0.05124,0.99052,0.26812,0.17582
09:51:03.682897,0.28626,0.00587,0.19249,0.29189,-0.58660,7.32687,0.00103,0.00297,0.00006,0.03385,0.99265,0.27757,0.16850
09:51:03.693606,0.29697,0.00622,0.19354,0.29189,-0.77035,-0.26736,0.00241,0.00740,0.00195,0.03812,0.99064,0.28811,0.16850
09:51:03.703664,0.30633,0.00520,0.20135,0.29189,-0.62160,7.45604,-0.00080,0.00190,0.01104,0.04380,0.98430,0.29853,0.17338
09:51:03.714152,0.31753,0.00589,0.20115,0.29189,-0.66535,5.56540,0.00073,0.00160,0.01397,0.03514,0.98362,0.30882,0.15873
09:51:03.723807,0.32719,0.00520,0.19602,0.29189,-0.88410,-4.63504,-0.00080,-0.00207,0.00567,0.03245,0.98844,0.31938,0.15873
09:51:03.734738,0.33810,0.00592,0.20708,0.29189,-0.84910,-1.14169,-0.00095,-0.00497,0.00000,0.05026,0.99210,0.32941,0.16850
09:51:03.745762,0.34914,0.00618,0.22720,0.29189,-0.37660,22.53740,-0.00370,-0.00909,0.00085,0.05594,0.99101,0.34048,0.15873
09:51:03.755806,0.35917,0.00585,0.23283,0.29189,-0.09660,35.42496,0.00241,-0.00482,0.00610,0.03569,0.98454,0.35069,0.16606
09:51:03.767247,0.36991,0.00588,0.23973,0.29189,-0.20160,32.23136,0.00088,-0.00100,0.00287,0.03880,0.98710,0.36197,0.16606
09:51:03.777339,0.38071,0.00615,0.24870,0.29189,0.25340,53.14163,0.00012,0.00709,0.00384,0.03575,0.98503,0.37208,0.15385
09:51:03.787598,0.39096,0.00604,0.23948,0.29189,0.36715,56.28377,-0.00553,0.01244,-0.00171,0.01385,0.99052,0.38210,0.15629
09:51:03.797972,0.40136,0.00567,0.26133,0.29189,0.41965,62.48343,0.00103,0.01763,0.00092,0.04843,0.99229,0.39338,0.15873
09:51:03.809905,0.41276,0.00617,0.29024,0.29189,0.83090,85.16517,0.00195,0.01336,0.00775,0.05209,0.99046,0.40413,0.14164
09:51:03.818727,0.42211,0.00516,0.31371,0.29189,0.95340,94.62452,0.00088,0.01045,0.01415,0.04544,0.98588,0.41411,0.15385
09:51:03.830796,0.43346,0.00625,0.33599,0.29189,1.04965,102.75570,-0.00156,0.00160,0.00653,0.04178,0.98234,0.42532,0.14896
09:51:03.840115,0.44330,0.00588,0.34935,0.29189,1.10215,107.41018,-0.00110,0.00022,0.00207,0.03349,0.98552,0.43485,0.15385
09:51:03.849898,0.45328,0.00529,0.35586,0.29189,0.96215,102.66212,-0.00355,-0.00711,-0.00360,0.02641,0.98802,0.44530,0.15629
09:51:03.861282,0.46466,0.00633,0.36083,0.29189,0.86590,99.48731,0.00134,-0.00726,0.00366,0.02593,0.99143,0.45582,0.13187
09:51:03.871053,0.47444,0.00574,0.36490,0.29189,0.94465,103.56383,-0.00355,-0.00421,0.00653,0.02452,0.99046,0.46586,0.13919
09:51:03.881702,0.48508,0.00603,0.37992,0.29189,0.95340,106.66786,-0.00340,-0.00237,0.00897,0.03666,0.99265,0.47641,0.13187
09:51:03.892631,0.49524,0.00582,0.40344,0.29189,0.69090,99.82263,-0.00004,-0.00069,0.00390,0.04996,0.99070,0.48676,0.15629
09:51:03.902271,0.50494,0.00515,0.43934,0.29189,1.22465,128.96770,0.00042,0.00373,0.00226,0.05838,0.98710,0.49697,0.13431
09:51:03.913826,0.51720,0.00705,0.45985,0.29189,1.38215,139.37102,-0.00233,0.00144,0.00604,0.03751,0.98430,0.50836,0.13187
09:51:03.923000,0.52636,0.00591,0.47474,0.29189,1.14590,132.06905,-0.00004,-0.00329,0.00470,0.03709,0.98655,0.51777,0.14652
09:51:03.932760,0.53614,0.00533,0.49492,0.29189,1.34715,144.26719,-0.00508,-0.00925,0.00366,0.03989,0.98997,0.52819,0.14164
09:51:03.942940,0.54633,0.00516,0.50364,0.29189,0.81340,123.23692,-0.00065,-0.01245,-0.00030,0.03349,0.99326,0.53856,0.13675
09:51:03.954644,0.55751,0.00585,0.51921,0.29189,0.67340,120.13772,-0.00263,-0.01566,0.00098,0.04307,0.98814,0.54885,0.14896
09:51:03.963820,0.56721,0.00518,0.54436,0.29189,0.81340,130.64366,-0.00141,-0.01444,0.00720,0.05228,0.98436,0.55942,0.13675
09:51:03.974275,0.57766,0.00517,0.57690,0.29189,0.94465,142.12284,0.00149,-0.01184,0.01019,0.05978,0.98186,0.56971,0.14164
09:51:03.986663,0.58977,0.00692,0.59345,0.29189,1.06715,150.32301,-0.00294,-0.00604,0.00701,0.04056,0.98674,0.58020,0.13675
09:51:03.996785,0.59963,0.00636,0.61034,0.29189,1.23340,160.43994,-0.00004,-0.00375,0.00250,0.03965,0.99467,0.59065,0.12943
09:51:04.006755,0.60940,0.00563,0.62599,0.29189,1.01465,154.01783,-0.00676,0.00022,0.00287,0.04117,0.99271,0.60096,0.13675
09:51:04.016846,0.62023,0.00533,0.65301,0.29189,0.72590,146.69811,-0.00004,-0.00161,0.00171,0.05710,0.99107,0.61227,0.13919
09:51:04.027737,0.63110,0.00584,0.67828,0.29189,1.14590,169.08867,-0.00110,-0.00176,0.00641,0.05112,0.98649,0.62264,0.13431
09:51:04.039297,0.64230,0.00655,0.70983,0.29189,1.10215,172.97396,-0.00340,-0.00268,0.00732,0.05923,0.98362,0.63293,0.12210
09:51:04.048777,0.65128,0.00518,0.73554,0.29189,1.07590,176.53720,-0.00492,-0.00467,0.00653,0.05319,0.98661,0.64350,0.13919
09:51:04.059595,0.66227,0.00581,0.75437,0.29189,1.00590,176.99642,-0.00156,-0.00390,0.00092,0.04630,0.99131,0.65449,0.12454
09:51:04.069811,0.67319,0.00607,0.76960,0.29189,0.75215,169.01533,-0.00065,-0.00451,0.00146,0.04654,0.99259,0.66449,0.13187
09:51:04.080129,0.68331,0.00582,0.78771,0.29189,0.80465,174.53363,-0.00324,-0.00360,0.00500,0.04904,0.98899,0.67484,0.12698
09:51:04.090355,0.69372,0.00585,0.81001,0.29189,0.93590,184.14961,0.00012,-0.00161,0.00897,0.05276,0.98924,0.68508,0.13675
09:51:04.101706,0.70509,0.00663,0.83367,0.29189,0.94465,188.82361,-0.00126,0.00068,0.00695,0.05307,0.98436,0.69653,0.12698
09:51:04.112404,0.71576,0.00683,0.85561,0.29189,0.57715,177.24357,-0.00095,0.00389,0.00390,0.05697,0.98747,0.70717,0.12943
09:51:04.121342,0.72473,0.00543,0.87806,0.29189,0.82215,191.70794,-0.00019,-0.00054,0.00335,0.05594,0.98667,0.71674,0.11966
09:51:04.132171,0.73469,0.00503,0.89798,0.29189,0.83965,196.07238,0.00042,0.00267,0.00220,0.05270,0.98777,0.72691,0.13919
09:51:04.142357,0.74573,0.00586,0.91121,0.29189,0.50715,184.39060,0.00180,-0.00100,0.00421,0.04929,0.98985,0.73706,0.12454
09:51:04.152405,0.75578,0.00536,0.92040,0.29189,0.26215,175.68112,0.00149,0.00053,0.00378,0.04746,0.98887,0.74780,0.13431
09:51:04.164709,0.76755,0.00659,0.93337,0.29189,0.16590,173.96172,0.00042,0.00297,0.00360,0.05313,0.98997,0.75895,0.13919
09:51:04.174688,0.77779,0.00665,0.94635,0.29189,0.02590,170.39039,0.00012,0.00496,0.00445,0.05490,0.98478,0.76852,0.13675
09:51:04.184859,0.78821,0.00600,0.95771,0.29189,0.20090,179.87112,0.00164,0.00740,0.00738,0.05106,0.98448,0.77939,0.13187
09:51:04.193563,0.79695,0.00515,0.96121,0.29189,0.21840,181.25034,0.00226,0.00816,0.00634,0.04240,0.98582,0.78899,0.12943
09:51:04.204937,0.80832,0.00631,0.97115,0.29189,0.30590,186.76474,-0.00095,0.00694,0.00598,0.04843,0.98765,0.80017,0.13675
09:51:04.216600,0.81996,0.00775,0.98201,0.29189,0.41965,193.55973,-0.00034,0.00786,0.00683,0.04831,0.98930,0.81136,0.13187
09:51:04.226104,0.82920,0.00678,0.98606,0.29189,0.45465,195.77894,-0.00553,0.00465,0.00579,0.04148,0.98814,0.81996,0.13187
09:51:04.235202,0.83856,0.00579,0.98775,0.29189,0.18340,184.59343,0.00073,0.00053,0.00586,0.04111,0.98625,0.82994,0.13187
09:51:04.246658,0.84977,0.00663,0.99096,0.29189,0.09590,181.47042,0.00256,-0.00207,0.00458,0.04380,0.98576,0.84050,0.11966
09:51:04.255439,0.85883,0.00532,0.99580,0.29189,-0.14910,171.96981,-0.00156,-0.00833,0.00561,0.04862,0.98582,0.85085,0.13187
09:51:04.265573,0.86896,0.00517,1.00366,0.29189,-0.00910,179.33149,0.00012,-0.01108,0.00579,0.05069,0.98887,0.86099,0.13675
09:51:04.277443,0.88080,0.00671,1.01155,0.29189,-0.21035,172.24011,-0.00095,-0.01398,0.00762,0.05344,0.99119,0.87168,0.13919
09:51:04.287311,0.88999,0.00533,1.02094,0.29189,-0.20160,174.31809,0.00119,-0.01444,0.00714,0.05527,0.99375,0.88205,0.13187
09:51:04.297205,0.90059,0.00556,1.03111,0.29189,-0.24535,174.31438,-0.00248,-0.00802,0.00360,0.05655,0.98850,0.89239,0.14652
09:51:04.308611,0.91200,0.00601,1.03762,0.29189,-0.21910,176.61100,-0.00233,0.00022,0.00415,0.05240,0.98619,0.90405,0.13187
09:51:04.318376,0.92175,0.00556,1.04471,0.29189,-0.31535,173.82248,0.00195,0.00343,0.01000,0.05356,0.98222,0.91382,0.13919
09:51:04.330009,0.93339,0.00683,1.05212,0.29189,-0.14910,182.21432,-0.00065,0.01000,0.01208,0.05240,0.98210,0.92474,0.12943
09:51:04.341654,0.94450,0.00758,1.05104,0.29189,-0.22785,178.68150,-0.00110,0.01351,0.01379,0.04398,0.98704,0.93561,0.13675
09:51:04.349856,0.95323,0.00610,1.04495,0.29189,-0.24535,176.83127,-0.00080,0.00847,0.00958,0.03806,0.99192,0.94458,0.13675
09:51:04.359230,0.96261,0.00513,1.04798,0.29189,-0.72660,156.99303,0.00149,0.00251,0.00775,0.05466,0.99473,0.95483,0.14164
09:51:04.369552,0.97294,0.00515,1.05893,0.29189,-0.84910,153.79306,0.00195,-0.00268,0.00701,0.06509,0.99265,0.96498,0.13919
09:51:04.381606,0.98498,0.00683,1.05762,0.29189,-0.68285,160.59938,0.00531,-0.00665,0.00836,0.04941,0.98503,0.97594,0.13675
09:51:04.390945,0.99431,0.00580,1.05379,0.29189,-0.79660,155.08281,0.00287,-0.00589,0.00836,0.04666,0.98265,0.98566,0.14164
09:51:04.401846,1.00522,0.00652,1.05524,0.29189,-0.85785,152.75187,-0.00019,-0.00665,0.00622,0.05411,0.98381,0.99612,0.12210
09:51:04.411480,1.01487,0.00566,1.06294,0.29189,-0.43785,171.94657,-0.00217,0.00068,0.00335,0.05673,0.98619,1.00710,0.12943
09:51:04.421521,1.02491,0.00520,1.05964,0.29189,-0.51660,168.01145,0.00195,0.00832,0.00195,0.04471,0.99058,1.01691,0.13431
09:51:04.432789,1.03614,0.00517,1.05804,0.29189,-0.47285,169.57385,0.00195,0.01794,0.00207,0.04648,0.99009,1.02743,0.12943
09:51:04.443641,1.04701,0.00658,1.06031,0.29189,-0.56910,165.90857,0.00271,0.01809,0.00567,0.05240,0.98905,1.03853,0.12698
09:51:04.453431,1.05681,0.00603,1.06768,0.29189,-0.14910,185.04432,-0.00248,0.01549,0.01043,0.05270,0.98777,1.04815,0.12698
09:51:04.464652,1.06802,0.00687,1.05820,0.29189,-0.31535,176.27643,-0.00492,0.01473,0.00445,0.03587,0.98887,1.05940,0.12943
09:51:04.474659,1.07803,0.00596,1.05135,0.29189,-0.24535,177.99519,0.00042,0.00755,0.00348,0.03751,0.99003,1.06937,0.13431
09:51:04.486052,1.08844,0.00602,1.05760,0.29189,-0.52535,167.26788,0.00134,0.00312,0.00458,0.05649,0.99180,1.08048,0.12943
09:51:04.495802,1.09919,0.00640,1.04600,0.29189,-0.46410,167.75444,0.00256,-0.00482,0.00518,0.03471,0.98771,1.09097,0.13675
09:51:04.505907,1.10929,0.00614,1.04262,0.29189,-0.31535,173.44161,-0.00065,-0.00222,0.01092,0.04185,0.98680,1.10060,0.13675
09:51:04.515774,1.11915,0.00552,1.04563,0.29189,-0.21910,178.06664,-0.00263,-0.00237,0.00482,0.04837,0.98808,1.11111,0.13675
09:51:04.526251,1.12964,0.00525,1.04583,0.29189,-0.22785,177.73387,-0.00034,0.00160,0.00250,0.04526,0.98674,1.12169,0.13431
09:51:04.538069,1.14143,0.00669,1.03878,0.29189,-0.19285,177.93375,-0.00095,0.00480,-0.00104,0.03672,0.98985,1.13280,0.14652
09:51:04.547557,1.15092,0.00583,1.03555,0.29189,-0.02660,184.38975,0.00103,0.00816,0.00183,0.03892,0.99113,1.14246,0.12454
09:51:04.557679,1.16106,0.00522,1.03455,0.29189,-0.00035,185.32060,-0.00355,0.00969,0.00933,0.04099,0.98716,1.15308,0.14164
09:51:04.569318,1.17270,0.00650,1.03166,0.29189,-0.18410,177.00920,0.00241,0.00618,0.00677,0.04111,0.99040,1.16358,0.12943
09:51:04.585849,1.18923,0.01267,1.03220,0.29189,0.05215,187.11800,0.00149,0.00267,0.00213,0.04215,0.98850,1.17373,0.12943
09:51:04.607097,1.21045,0.00736,1.03250,0.29189,-0.00035,184.94731,-0.00065,-0.00543,0.00244,0.04233,0.98497,1.20149,0.13675
09:51:04.616724,1.22011,0.00665,1.02966,0.29189,0.15715,191.10373,-0.00141,-0.00833,0.00555,0.03691,0.98704,1.21219,0.13431
09:51:04.627062,1.23045,0.00679,1.03161,0.29189,0.27965,196.64938,-0.00110,-0.00772,0.00396,0.04117,0.98728,1.22201,0.13187
09:51:04.637472,1.23998,0.00597,1.03952,0.29189,0.11340,191.04434,0.00027,-0.00497,0.00104,0.05014,0.99064,1.23142,0.12943
09:51:04.647210,1.25058,0.00638,1.04743,0.29189,0.69090,216.95150,-0.00492,-0.00024,0.00220,0.04368,0.99174,1.24142,0.13187
09:51:04.657233,1.26061,0.00604,1.05466,0.29189,0.74340,220.49140,-0.00034,0.00282,0.00427,0.04185,0.98802,1.25193,0.13675
09:51:04.667373,1.27074,0.00582,1.06398,0.29189,0.73465,221.81485,0.00332,0.00328,0.00799,0.04483,0.98936,1.26208,0.11722
09:51:04.677529,1.28091,0.00527,1.07764,0.29189,0.76965,225.78249,-0.00309,0.00602,0.00293,0.04880,0.98558,1.27295,0.12210
09:51:04.688637,1.29200,0.00600,1.09103,0.29189,1.22465,247.49603,-0.00004,0.00450,-0.00055,0.04380,0.98735,1.28338,0.13187
09:51:04.699482,1.30283,0.00596,1.10211,0.29189,1.29465,252.47707,-0.00034,-0.00054,0.00323,0.03983,0.99027,1.29438,0.11233
09:51:04.709233,1.31261,0.00605,1.11356,0.29189,1.29465,254.56096,0.00058,-0.00436,0.00293,0.04246,0.98741,1.30395,0.12454
09:51:04.719503,1.32287,0.00594,1.12661,0.29189,1.26840,255.82136,0.00042,-0.00650,0.00604,0.04386,0.98600,1.31410,0.11966
09:51:04.729901,1.33328,0.00526,1.14727,0.29189,1.46965,268.10698,-0.00584,-0.00344,0.00537,0.04880,0.98728,1.32533,0.12454
09:51:04.741123,1.34451,0.00612,1.16892,0.29189,1.57465,276.49253,-0.00523,-0.00344,0.00384,0.04904,0.98948,1.33656,0.12454
09:51:04.751062,1.35445,0.00571,1.18629,0.29189,1.74090,286.69573,-0.00065,-0.00268,0.00311,0.04605,0.98844,1.34591,0.11966
09:51:04.762103,1.36549,0.00639,1.20050,0.29189,1.73215,288.91007,-0.00065,-0.00069,0.00720,0.03831,0.98674,1.35751,0.11966
09:51:04.772203,1.37537,0.00591,1.21588,0.29189,1.55715,284.29212,-0.00141,0.00144,0.00744,0.04490,0.98826,1.36762,0.13187
09:51:04.782296,1.38567,0.00587,1.23103,0.29189,1.53965,286.30543,-0.00156,-0.00054,0.00689,0.04636,0.98826,1.37701,0.12943
09:51:04.793675,1.39705,0.00690,1.25012,0.29189,1.46090,286.44254,-0.00569,-0.00940,0.00543,0.04868,0.98820,1.38840,0.12943
09:51:04.803010,1.40640,0.00527,1.26271,0.29189,0.81340,261.29646,-0.00401,-0.01566,0.00793,0.05094,0.98808,1.39864,0.11722
09:51:04.814294,1.41767,0.00605,1.28608,0.29189,0.83090,266.28866,-0.00019,-0.01872,0.00762,0.06350,0.98887,1.40882,0.13187
09:51:04.824868,1.42822,0.00624,1.31924,0.29189,0.70840,267.12953,0.00042,-0.01810,0.01476,0.07607,0.98533,1.41938,0.12943
09:51:04.834708,1.43808,0.00590,1.34015,0.29189,1.03215,284.65034,-0.00187,-0.01505,0.00720,0.05941,0.98716,1.42938,0.12210
09:51:04.845435,1.44881,0.00614,1.34191,0.29189,0.87465,278.29714,-0.00584,-0.00467,0.00030,0.03873,0.98759,1.44018,0.12210
09:51:04.856169,1.45861,0.00573,1.34800,0.29189,0.62090,268.65314,0.00027,0.00496,0.00189,0.04691,0.98686,1.45085,0.11477
09:51:04.866663,1.47005,0.00613,1.36306,0.29189,0.68215,273.98795,-0.00141,0.00755,0.00403,0.05685,0.98710,1.46123,0.11233
09:51:04.876908,1.48027,0.00614,1.38651,0.29189,0.99715,291.59896,-0.00248,0.00755,0.00415,0.06307,0.98765,1.47163,0.14164
09:51:04.886302,1.48969,0.00527,1.39912,0.29189,0.94465,291.66910,-0.00156,0.00358,-0.00165,0.05203,0.98954,1.48173,0.13187
09:51:04.897530,1.50091,0.00629,1.41440,0.29027,0.27965,266.28650,0.00134,-0.00390,-0.00098,0.06295,0.99101,1.49214,0.11966
09:51:04.907454,1.51082,0.00583,1.43481,0.29027,0.38465,274.44807,-0.00034,-0.01306,0.00213,0.06783,0.98832,1.50235,0.13187
09:51:04.918057,1.52144,0.00625,1.44839,0.29027,0.40215,277.66044,-0.00065,-0.01642,0.00329,0.06015,0.98985,1.51265,0.11966
09:51:04.928156,1.53067,0.00527,1.44210,0.29027,0.17465,266.87587,-0.00065,-0.01704,0.00287,0.03995,0.98643,1.52291,0.12943
09:51:04.938007,1.54139,0.00576,1.43600,0.29027,0.16590,265.39649,-0.00034,-0.01108,-0.00146,0.04032,0.98881,1.53294,0.30281
09:51:04.949696,1.55308,0.00637,1.45597,0.29027,-0.07910,258.64762,0.00149,-0.00192,0.00482,0.07314,0.98802,1.54409,0.71795
09:51:04.959514,1.56288,0.00581,1.47806,0.29027,0.12215,271.19251,0.00012,0.00511,0.00945,0.07326,0.98478,1.55441,0.78632
09:51:04.970103,1.57348,0.00589,1.49778,0.29027,0.12215,274.77843,-0.00080,0.01320,0.01379,0.07100,0.98625,1.56478,0.83028
09:51:04.980598,1.58396,0.00610,1.50022,0.29027,0.05215,272.25715,0.00149,0.01610,0.00628,0.05222,0.98545,1.57536,0.83761
09:51:04.990880,1.59426,0.00621,1.51685,0.29027,-0.24535,262.67622,0.00088,0.01626,0.00701,0.07210,0.98698,1.58536,0.83028
09:51:05.001278,1.60465,0.00624,1.52221,0.29027,0.08715,277.73862,0.00317,0.01641,0.00458,0.05557,0.98728,1.59601,0.83516
09:51:05.011754,1.61445,0.00567,1.50055,0.29027,-0.13160,264.53127,0.00302,0.00954,0.00561,0.02727,0.99052,1.60642,0.83516
09:51:05.022481,1.62586,0.00625,1.48184,0.29027,-0.63035,239.99605,0.00103,0.00404,0.00927,0.03611,0.98893,1.61680,0.85226
09:51:05.033845,1.63723,0.00725,1.49055,0.29027,-0.62160,241.95134,0.00546,-0.00146,0.00720,0.06808,0.98948,1.62819,0.83272
09:51:05.043181,1.64655,0.00638,1.49549,0.29027,-0.67410,240.62465,-0.00110,-0.00161,0.00226,0.06283,0.98905,1.63738,0.83028
09:51:05.053164,1.65654,0.00601,1.47747,0.29027,-0.66535,237.71939,0.00073,-0.00237,0.00360,0.03715,0.98411,1.64789,0.86203
09:51:05.062930,1.66631,0.00542,1.46663,0.29027,-0.66535,235.74726,0.00302,-0.00085,0.00756,0.04483,0.98430,1.65808,0.86203
09:51:05.073328,1.67671,0.00543,1.46948,0.29027,-0.50785,242.93904,0.00058,-0.00176,0.00842,0.05905,0.98796,1.66873,0.88156
09:51:05.084655,1.68717,0.00568,1.46601,0.29027,-0.77035,231.18586,0.00195,-0.00146,0.00494,0.05514,0.99040,1.67942,0.84737
09:51:05.095012,1.69837,0.00657,1.44175,0.29027,-1.19910,208.60743,0.00027,-0.00268,0.00305,0.03587,0.99058,1.68979,0.85470
09:51:05.105649,1.70903,0.00686,1.43631,0.29027,-1.45285,196.86649,0.00409,-0.00757,0.00403,0.06039,0.98899,1.70035,0.87179
09:51:05.115043,1.71841,0.00587,1.45169,0.29027,-1.25160,208.18971,0.00195,-0.00573,0.00756,0.08003,0.98643,1.70971,0.88889
09:51:05.126681,1.73006,0.00641,1.44405,0.29027,-1.13785,211.62078,-0.00141,-0.00375,0.00915,0.05588,0.98747,1.72159,0.89621
09:51:05.138061,1.74145,0.00758,1.41905,0.29027,-1.24285,202.62371,-0.00095,-0.00039,0.00543,0.03630,0.98582,1.73291,0.90354
09:51:05.147142,1.75051,0.00648,1.40070,0.29027,-1.55785,185.94045,-0.00233,0.00099,0.00317,0.04233,0.98582,1.74127,0.86935
09:51:05.157557,1.76093,0.00639,1.39366,0.29027,-1.53160,185.77228,0.00455,0.00572,0.00458,0.05899,0.98857,1.75196,0.89621
09:51:05.167415,1.77078,0.00587,1.37461,0.29027,-1.54035,181.93603,0.00180,0.00511,0.00744,0.04410,0.98844,1.76208,0.92308
09:51:05.177889,1.78127,0.00614,1.36109,0.29027,-1.49660,181.33180,0.00317,0.00267,0.01000,0.05026,0.98667,1.77260,0.89377
09:51:05.188089,1.79126,0.00593,1.35327,0.29027,-1.61910,174.71933,0.00256,0.00037,0.00903,0.05740,0.98600,1.78280,0.91087
09:51:05.198669,1.80205,0.00627,1.34612,0.29027,-1.61035,173.78864,0.00424,0.00358,0.01037,0.05795,0.98692,1.79298,0.91575
09:51:05.209899,1.81327,0.00713,1.32119,0.29027,-1.91660,156.27981,0.00027,-0.00253,0.00488,0.04374,0.98832,1.80443,0.93284
09:51:05.218938,1.82230,0.00597,1.29711,0.29027,-1.86410,154.12320,-0.00019,-0.00436,0.00860,0.03886,0.98814,1.81365,0.94017
09:51:05.228637,1.83202,0.00533,1.27424,0.29027,-2.17035,136.98759,0.00393,-0.00604,0.00537,0.04605,0.98972,1.82407,0.95238
09:51:05.239539,1.84222,0.00517,1.26316,0.29027,-2.13535,136.45633,0.00042,-0.00314,0.00604,0.05868,0.98881,1.83443,0.94994
09:51:05.250054,1.85343,0.00583,1.25277,0.29027,-2.17035,133.08337,0.00195,0.00221,0.00421,0.05954,0.98686,1.84477,0.93529
09:51:05.260655,1.86402,0.00607,1.24789,0.29027,-1.78535,148.50744,0.00287,0.00328,0.00451,0.06149,0.98509,1.85532,0.94261
09:51:05.270672,1.87404,0.00590,1.24137,0.29027,-1.97785,139.16530,0.00195,0.01106,0.00604,0.06063,0.98472,1.86535,0.94505
09:51:05.281140,1.88452,0.00603,1.21685,0.29027,-2.22285,124.32671,0.00393,0.01045,0.00427,0.04392,0.98692,1.87586,0.94261
09:51:05.290679,1.89407,0.00515,1.19120,0.29027,-1.94285,131.52407,-0.00126,0.01519,0.00268,0.03837,0.98930,1.88610,0.96459
09:51:05.303301,1.90598,0.00671,1.15835,0.29027,-2.38910,106.64242,0.00287,0.01076,0.00140,0.03947,0.99125,1.89803,0.95971
09:51:05.313727,1.91710,0.00657,1.14325,0.29027,-2.24910,109.82728,0.00042,0.00847,0.00403,0.05362,0.99015,1.90846,0.98168
09:51:05.323358,1.92672,0.00584,1.12408,0.29027,-2.59035,91.88118,0.00180,0.00725,0.00537,0.05008,0.98722,1.91805,0.98168
09:51:05.333557,1.93694,0.00584,1.09777,0.29027,-2.34535,97.47664,0.00119,0.00480,0.00464,0.04227,0.98430,1.92897,0.97680
09:51:05.344989,1.94836,0.00659,1.07049,0.29027,-2.35410,92.14473,0.00103,0.00679,0.00323,0.04044,0.98326,1.93976,0.96947
09:51:05.355052,1.95842,0.00646,1.04793,0.29027,-2.42410,85.07526,0.00012,0.00480,0.00372,0.04258,0.98619,1.94917,1.00611
09:51:05.365916,1.96930,0.00698,1.01869,0.29027,-2.17910,90.13728,0.00500,0.00557,0.00738,0.03715,0.98606,1.96071,0.98413
09:51:05.375229,1.97861,0.00577,0.98214,0.29027,-2.03910,89.42299,0.00027,0.00404,0.00372,0.02330,0.99265,1.97083,0.99145
09:51:05.385923,1.98931,0.00594,0.95147,0.29027,-2.30160,72.72156,0.00332,0.00541,0.00220,0.03361,0.99454,1.98135,1.00366
09:51:05.396302,1.99967,0.00609,0.93780,0.29027,-2.12660,77.65012,0.00332,0.00435,0.00579,0.04825,0.99094,1.99095,0.99878
09:51:05.406544,2.00991,0.00597,0.91777,0.29027,-2.30160,66.59322,0.00348,0.00618,0.00714,0.04441,0.99082,2.00124,1.01099
09:51:05.417233,2.01992,0.00561,0.90361,0.29027,-1.97785,77.73350,0.00103,-0.00039,0.00647,0.04770,0.98661,2.01192,1.02076
09:51:05.427114,2.03048,0.00581,0.88634,0.29027,-1.98660,74.22304,-0.00294,0.00068,0.00561,0.04221,0.98539,2.02183,1.01587
09:51:05.436936,2.04032,0.00545,0.85404,0.29027,-1.84660,74.27995,-0.00080,0.00297,0.00335,0.02452,0.98979,2.03237,1.01343
09:51:05.447036,2.05042,0.00518,0.83988,0.29027,-1.64535,80.23059,0.00027,0.00664,0.00372,0.04197,0.99040,2.04264,1.03297
09:51:05.458846,2.06153,0.00523,0.81279,0.29027,-1.68035,73.82147,-0.00034,0.01000,0.00500,0.02849,0.98753,2.05360,1.02076
09:51:05.468640,2.07202,0.00536,0.77807,0.29027,-1.67160,67.87739,0.00256,0.00908,0.00396,0.01818,0.98930,2.06405,1.02564
09:51:05.479520,2.08289,0.00586,0.77007,0.29027,-1.57535,70.50068,0.00393,0.01305,0.00653,0.04691,0.98637,2.07439,1.04029
09:51:05.490086,2.09347,0.00592,0.77519,0.29027,-1.34785,81.06996,0.00180,0.00740,0.00244,0.05911,0.98527,2.08472,1.03053
09:51:05.500346,2.10327,0.00537,0.76135,0.29027,-0.81410,101.16744,0.00149,0.00786,-0.00622,0.03154,0.98948,2.09529,1.03541
09:51:05.511507,2.11487,0.00661,0.72997,0.29027,-0.89285,92.12340,0.00164,0.00648,0.00012,0.01257,0.98802,2.10640,1.02808
09:51:05.521472,2.12485,0.00623,0.70548,0.29027,-1.13785,77.28861,0.00195,0.00740,0.00128,0.02111,0.98796,2.11601,1.04029
09:51:05.531818,2.13518,0.00585,0.68861,0.29027,-0.78785,89.05056,0.00393,0.00282,0.00458,0.02660,0.98771,2.12670,1.02320
09:51:05.543372,2.14606,0.00628,0.67055,0.29027,-0.95410,78.72191,0.00210,0.00465,0.00128,0.02757,0.98863,2.13795,1.04762
09:51:05.552112,2.15527,0.00528,0.66482,0.29027,-0.69160,88.80196,-0.00080,0.00480,0.00348,0.03678,0.98832,2.14752,1.03541
09:51:05.562886,2.16625,0.00589,0.66634,0.29027,-0.62160,92.04363,-0.00156,0.00160,0.00476,0.04465,0.98985,2.15753,1.02564
09:51:05.572658,2.17604,0.00532,0.66675,0.29027,-0.35035,103.61193,-0.00416,0.00251,0.00555,0.04050,0.98893,2.16809,1.02808
09:51:05.583365,2.18675,0.00561,0.65424,0.29027,-0.14035,110.23404,0.00287,0.00175,0.00677,0.02318,0.99003,2.17896,1.05006
09:51:05.594566,2.19793,0.00657,0.63458,0.29027,-0.27160,101.09661,0.00256,0.00526,0.00384,0.01616,0.99290,2.18910,1.01832
09:51:05.603363,2.20675,0.00519,0.62297,0.29027,-0.04410,108.62426,-0.00324,0.00389,0.00098,0.02245,0.99094,2.19897,1.05983
09:51:05.614282,2.21765,0.00584,0.61413,0.29027,-0.04410,107.01726,0.00042,0.00144,0.00250,0.02544,0.99021,2.20901,1.04518
09:51:05.625049,2.22769,0.00547,0.61289,0.29027,-0.17535,101.23045,-0.00172,-0.00375,0.00470,0.03556,0.98728,2.21970,1.03541
09:51:05.636399,2.23978,0.00721,0.61863,0.29027,-0.18410,101.90309,0.00149,-0.00512,0.00787,0.04368,0.98570,2.23073,1.06960
09:51:05.646455,2.24983,0.00690,0.62522,0.29027,0.06090,113.48217,0.00042,-0.00787,0.00610,0.04191,0.98875,2.24060,1.05250
09:51:05.655146,2.25854,0.00524,0.62185,0.29027,0.34090,124.73389,-0.00172,-0.00528,0.00476,0.02739,0.99125,2.25074,1.04762
09:51:05.667615,2.27028,0.00649,0.61463,0.29027,0.32340,122.67885,-0.00110,-0.00543,0.00543,0.02257,0.99302,2.26238,1.06960
09:51:05.677929,2.28131,0.00717,0.60800,0.29027,0.43715,126.29191,-0.00034,-0.00573,0.00610,0.02220,0.98899,2.27265,1.07448
09:51:05.686269,2.28965,0.00516,0.60774,0.29027,0.44590,126.61560,-0.00187,-0.00528,0.00970,0.02989,0.98686,2.28169,1.07448
09:51:05.698458,2.30183,0.00697,0.61197,0.29027,0.28840,120.71201,-0.00095,-0.00360,0.00598,0.03599,0.98863,2.29297,1.06227
09:51:05.707681,2.31105,0.00583,0.62398,0.29027,0.27965,122.52620,-0.00248,-0.00482,0.00220,0.04575,0.99040,2.30259,1.07204
09:51:05.718343,2.32145,0.00574,0.63732,0.29027,0.17465,120.50364,0.00058,-0.00421,0.00281,0.04849,0.99027,2.31291,1.08181
09:51:05.730304,2.33367,0.00725,0.64531,0.29027,0.40215,131.59532,-0.00233,-0.00970,0.00390,0.03916,0.98765,2.32456,1.07204
09:51:05.739404,2.34279,0.00575,0.64497,0.29027,0.19215,122.63656,-0.00156,-0.00757,0.00732,0.03294,0.98948,2.33446,1.05739
09:51:05.752126,2.35524,0.00741,0.64006,0.29027,0.25340,124.33796,0.00164,-0.00696,0.00714,0.02635,0.98777,2.34635,1.05495
09:51:05.760840,2.36420,0.00600,0.64041,0.29027,-0.01785,112.90829,-0.00187,-0.00635,0.00701,0.03599,0.98972,2.35558,1.09402
09:51:05.771010,2.37437,0.00581,0.64571,0.29027,0.16590,121.65736,-0.00141,-0.00970,0.00756,0.03953,0.98789,2.36576,1.06716
09:51:05.780922,2.38431,0.00538,0.65801,0.29027,0.26215,127.97259,-0.00355,-0.00451,0.00756,0.04636,0.98558,2.37628,1.08669
09:51:05.791771,2.39513,0.00584,0.67261,0.29027,0.06965,122.47292,0.00287,-0.00161,0.00988,0.05161,0.98704,2.38665,1.07448
09:51:05.802459,2.40582,0.00603,0.68577,0.29027,0.28840,134.13410,-0.00141,-0.00008,0.00647,0.04764,0.98869,2.39719,1.09646
09:51:05.813883,2.41673,0.00650,0.68564,0.29027,0.40215,138.93047,-0.00049,0.00267,0.00482,0.03099,0.98753,2.40812,1.09402
09:51:05.823484,2.42684,0.00598,0.68159,0.29027,0.20965,130.03819,0.00409,0.00557,0.00012,0.02898,0.98637,2.41842,1.08425
09:51:05.834687,2.43779,0.00657,0.68687,0.29027,0.29715,134.70471,-0.00233,0.00343,0.00244,0.03880,0.99027,2.42858,1.07937
09:51:05.844370,2.44775,0.00617,0.68947,0.29027,-0.04410,120.72020,-0.00126,0.00129,0.00281,0.03965,0.98674,2.43958,1.10134
09:51:05.855735,2.45909,0.00682,0.69210,0.29027,0.13965,128.98368,-0.00141,0.00175,0.00171,0.03758,0.99101,2.45069,1.10623
09:51:05.866721,2.46977,0.00663,0.70050,0.29027,0.22715,134.21832,0.00271,-0.00115,0.00323,0.04362,0.99046,2.46002,1.09402
09:51:05.877115,2.47998,0.00696,0.70869,0.29027,-0.13160,120.50781,-0.00156,-0.00237,0.00561,0.04746,0.98905,2.47067,1.11355
09:51:05.886519,2.48988,0.00668,0.71103,0.29027,-0.07910,123.15747,0.00210,-0.00696,0.00183,0.04008,0.98722,2.48061,1.08913
09:51:05.896106,2.49862,0.00520,0.70257,0.29027,-0.19285,116.80003,0.00027,-0.00558,0.00323,0.02904,0.98686,2.49084,1.10134
09:51:05.906278,2.50964,0.00585,0.69797,0.29027,-0.39410,107.43612,-0.00233,-0.00115,0.00226,0.03569,0.98887,2.50099,1.11844
09:51:05.917367,2.52021,0.00606,0.69695,0.29027,-0.74410,92.42172,0.00180,-0.00314,0.00238,0.04410,0.98930,2.51151,1.11600
09:51:05.926979,2.53035,0.00584,0.70609,0.29027,-0.59535,100.38530,-0.00126,-0.00008,0.00268,0.05380,0.98966,2.52168,1.11600
09:51:05.938368,2.54089,0.00602,0.70843,0.29027,-0.57785,101.55331,0.00134,-0.00054,0.00494,0.04612,0.98844,2.53224,1.12332
09:51:05.948394,2.55174,0.00554,0.70405,0.29027,-0.55160,101.86918,0.00271,0.00541,0.00348,0.03825,0.98680,2.54313,1.10623
09:51:05.958364,2.56173,0.00593,0.69919,0.29027,-0.70035,94.68248,0.00119,0.00572,0.00525,0.03849,0.98338,2.55299,1.11844
09:51:05.969497,2.57288,0.00672,0.69177,0.29027,-0.63910,95.92825,-0.00019,0.00633,0.00354,0.03593,0.98674,2.56425,1.12576
09:51:05.978965,2.58233,0.00581,0.67820,0.29027,-0.84035,84.93187,0.00180,0.00496,0.00165,0.02965,0.98960,2.57369,1.13309
09:51:05.989502,2.59288,0.00601,0.66727,0.29027,-1.17285,68.85657,-0.00172,0.00129,0.00238,0.03758,0.99149,2.58424,1.12332
09:51:06.000131,2.60331,0.00607,0.66367,0.29027,-1.07660,72.28085,0.00180,-0.00085,0.00390,0.04441,0.98954,2.59462,1.12821
09:51:06.010745,2.61410,0.00637,0.66325,0.29027,-0.89285,79.98922,-0.00019,0.00129,0.00439,0.04569,0.98832,2.60491,1.14042
09:51:06.020712,2.62404,0.00525,0.65364,0.29027,-0.99785,73.79194,-0.00141,0.00190,0.00451,0.03648,0.98558,2.61543,1.12821
09:51:06.030825,2.63421,0.00607,0.64054,0.29027,-0.78785,80.30717,0.00058,0.00129,0.00323,0.02934,0.98741,2.62535,1.12576
09:51:06.042037,2.64514,0.00663,0.62634,0.29027,-0.78785,77.72559,0.00500,0.00404,0.00317,0.02843,0.98655,2.63594,1.13797
09:51:06.050795,2.65418,0.00542,0.61549,0.29027,-0.70910,79.08716,0.00119,0.00450,0.00421,0.03105,0.98918,2.64641,1.15507
09:51:06.061785,2.66445,0.00548,0.60590,0.29027,-1.04160,63.25548,-0.00126,0.00633,0.00348,0.03581,0.98911,2.65648,1.14286
09:51:06.072795,2.67566,0.00605,0.60341,0.29027,-0.64785,79.48569,-0.00049,0.00816,0.00293,0.03971,0.99076,2.66699,1.13065
09:51:06.082376,2.68575,0.00591,0.60101,0.29027,-0.72660,75.71244,0.00332,0.00740,0.00494,0.04020,0.98741,2.67704,1.14286
09:51:06.092785,2.69617,0.00598,0.59552,0.29027,-0.86660,68.78256,0.00271,0.00160,0.00458,0.03941,0.98972,2.68823,1.13553
09:51:06.103442,2.70682,0.00644,0.58851,0.29027,-0.69160,74.92219,0.00164,0.00175,0.00470,0.03392,0.98796,2.69769,1.13553
09:51:06.113535,2.71691,0.00621,0.57353,0.29027,-0.59535,76.27510,0.00164,0.00725,0.00171,0.02428,0.98692,2.70821,1.15018
09:51:06.122812,2.72620,0.00514,0.55821,0.29027,-0.58660,73.86115,0.00119,0.00343,0.00104,0.02336,0.98857,2.71841,1.11355
09:51:06.134177,2.73754,0.00596,0.54729,0.29027,-0.53410,74.09794,-0.00095,0.00602,0.00165,0.02757,0.98625,2.72877,1.15995
09:51:06.145406,2.74819,0.00606,0.54337,0.29027,-0.29785,83.39581,-0.00110,0.00496,0.00213,0.03282,0.98680,2.73951,1.15263
09:51:06.154435,2.75782,0.00512,0.53921,0.29027,-0.41160,77.81953,0.00134,0.00740,0.00348,0.03361,0.98515,2.74986,1.15751
09:51:06.166390,2.76976,0.00592,0.53932,0.29027,-0.17535,87.84867,0.00180,0.00328,0.00335,0.03599,0.98924,2.76105,1.15995
09:51:06.176640,2.78002,0.00583,0.53484,0.29027,-0.33285,80.36035,0.00271,0.00160,0.00275,0.03270,0.99082,2.77208,1.14774
09:51:06.187082,2.79045,0.00589,0.52914,0.29027,-0.17535,85.99848,0.00027,0.00144,0.00360,0.02898,0.99088,2.78172,1.14530
09:51:06.196870,2.80026,0.00534,0.51975,0.29027,-0.23660,81.69490,0.00058,-0.00451,0.00378,0.02556,0.99210,2.79230,1.15263
09:51:06.208787,2.81104,0.00550,0.51300,0.29027,-0.21910,81.20784,0.00241,-0.00146,0.00458,0.02824,0.98875,2.80331,1.15018
09:51:06.218392,2.82175,0.00594,0.50848,0.29027,-0.14035,83.72257,0.00134,-0.00711,0.00482,0.02946,0.98710,2.81301,1.15507
09:51:06.228877,2.83227,0.00610,0.50804,0.29027,-0.23660,79.56511,-0.00156,-0.00100,0.00415,0.03544,0.98765,2.82378,1.15507
09:51:06.239829,2.84319,0.00667,0.50958,0.29027,0.04340,91.70935,-0.00126,-0.00054,0.00787,0.03434,0.98930,2.83475,1.16239
09:51:06.249519,2.85290,0.00614,0.50983,0.29027,0.11340,94.72029,0.00073,-0.00268,0.00537,0.03221,0.98948,2.84419,1.17216
09:51:06.260252,2.86278,0.00565,0.50732,0.29027,-0.02660,88.33076,-0.00049,-0.00253,0.00708,0.03056,0.98942,2.85484,1.15018
09:51:06.269381,2.87277,0.00516,0.50465,0.29027,0.02590,90.07082,0.00119,-0.00085,0.00512,0.02977,0.99052,2.86479,1.14774
09:51:06.280680,2.88405,0.00608,0.50222,0.29027,-0.13160,82.95436,0.00363,-0.00375,0.00525,0.03178,0.98826,2.87535,1.15507
09:51:06.290791,2.89418,0.00513,0.50763,0.29027,0.23590,99.51005,0.00271,-0.00268,0.00488,0.03630,0.98948,2.88639,1.15995
09:51:06.302380,2.90576,0.00604,0.50967,0.29027,0.17465,97.28630,-0.00126,-0.00436,0.00634,0.03318,0.98777,2.89758,1.16484
09:51:06.313023,2.91641,0.00632,0.50930,0.29027,0.09590,93.88250,-0.00202,-0.00176,0.00781,0.03154,0.98893,2.90823,1.17705
09:51:06.321627,2.92502,0.00457,0.50999,0.29027,0.11340,94.74868,-0.00019,0.00083,0.00555,0.03270,0.98893,2.91762,1.17460
09:51:06.333418,2.93608,0.00543,0.51410,0.29027,0.27090,102.17040,-0.00217,0.00190,0.00396,0.03471,0.99107,2.92815,1.15751
09:51:06.343477,2.94684,0.00583,0.51817,0.29027,0.14840,97.71971,0.00073,0.00129,0.00354,0.03617,0.98924,2.93837,1.15995
09:51:06.354079,2.95746,0.00594,0.51880,0.29027,0.10465,95.98055,-0.00065,0.00129,0.00488,0.03276,0.98942,2.94892,1.16972
09:51:06.366434,2.96981,0.00793,0.52146,0.29027,0.43715,110.55297,-0.00187,0.00312,0.00848,0.03050,0.98515,2.96048,1.17216
09:51:06.374611,2.97800,0.00596,0.52534,0.29027,0.24465,103.10199,0.00119,0.00114,0.00433,0.03514,0.98887,2.97004,1.15018
09:51:06.385836,2.98851,0.00578,0.52992,0.29027,0.51590,115.42842,-0.00248,0.00205,0.00439,0.03270,0.98796,2.98020,1.16239
09:51:06.395553,2.99892,0.00583,0.52931,0.29027,0.34090,107.90302,0.00058,-0.00192,0.00586,0.02879,0.98838,2.99045,1.15507
09:51:06.405617,3.00900,0.00541,0.53170,0.29027,0.29715,106.48268,-0.00019,-0.00161,0.00549,0.03270,0.99040,3.00101,1.15263
09:51:06.417378,3.02076,0.00680,0.53851,0.29027,0.39340,111.79977,-0.00324,-0.00299,0.00512,0.03642,0.98991,3.01214,1.14286
09:51:06.426682,3.03004,0.00589,0.54485,0.29027,0.30590,109.24583,-0.00110,-0.00100,0.00488,0.03764,0.98661,3.02137,1.17705
09:51:06.437677,3.04106,0.00610,0.54830,0.29027,0.36715,112.46905,-0.00095,0.00099,0.00409,0.03300,0.98527,3.03237,1.16972
09:51:06.448679,3.05204,0.00612,0.54687,0.29027,0.18340,104.42301,-0.00278,0.00099,0.00348,0.02971,0.98460,3.04344,1.16728
09:51:06.458660,3.06205,0.00595,0.54391,0.29027,0.22715,105.73827,0.00210,0.00083,0.00592,0.02763,0.98832,3.05393,1.15263
09:51:06.469759,3.07314,0.00615,0.54590,0.29027,0.20090,104.98794,-0.00263,0.00022,0.00213,0.03361,0.98924,3.06449,1.15995
09:51:06.480592,3.08394,0.00658,0.54914,0.29027,0.02590,98.16227,0.00134,-0.00069,0.00195,0.03721,0.98979,3.07472,1.15263
09:51:06.490307,3.09369,0.00590,0.55629,0.29027,0.02590,99.46228,-0.00034,-0.00451,0.00360,0.04166,0.98771,3.08578,1.16728
09:51:06.501602,3.10497,0.00632,0.56050,0.29027,0.09590,103.19429,-0.00065,-0.00604,0.00335,0.03764,0.98820,3.09602,1.17460
09:51:06.512657,3.11601,0.00700,0.56320,0.29027,0.01715,100.34932,-0.00049,-0.00405,0.00329,0.03684,0.98765,3.10743,1.18193
09:51:06.522265,3.12564,0.00599,0.56164,0.29027,-0.23660,89.31355,-0.00248,-0.00635,0.00384,0.03471,0.98637,3.11695,1.16972
09:51:06.532571,3.13596,0.00609,0.55673,0.29027,-0.22785,88.79118,0.00088,-0.00405,0.00372,0.03123,0.98948,3.12799,1.15995
09:51:06.543651,3.14674,0.00668,0.55265,0.29027,-0.24535,87.30746,-0.00370,-0.00237,0.00342,0.03178,0.98796,3.13726,1.17216
09:51:06.553162,3.15654,0.00612,0.55497,0.29027,-0.16660,91.06576,-0.00538,-0.00207,0.00220,0.03861,0.99082,3.14787,1.17705
09:51:06.562743,3.16613,0.00536,0.56177,0.29027,-0.29785,86.74290,-0.00141,0.00282,0.00275,0.04532,0.98960,3.15836,1.17949
09:51:06.574341,3.17771,0.00673,0.57023,0.29027,0.03465,102.36949,-0.00309,0.00435,0.00244,0.04337,0.98942,3.16905,1.18681
09:51:06.584993,3.18836,0.00617,0.57153,0.29027,-0.03535,99.64000,-0.00172,0.00450,0.00250,0.03611,0.98942,3.17976,1.17705
09:51:06.596205,3.19920,0.00594,0.56697,0.29027,0.02590,101.40495,-0.00355,0.00618,0.00116,0.02861,0.98893,3.19076,1.18681
09:51:06.605977,3.20936,0.00552,0.56120,0.29027,-0.00035,99.24427,-0.00110,0.00648,0.00262,0.02751,0.99021,3.20139,1.19170
09:51:06.618243,3.22160,0.00676,0.55826,0.29027,-0.10535,94.25982,0.00256,0.00435,0.00427,0.03196,0.98826,3.21283,1.18681
09:51:06.626938,3.23032,0.00527,0.55639,0.29027,-0.12285,93.17785,-0.00355,0.00221,0.00275,0.03306,0.98606,3.22256,1.17460
09:51:06.638019,3.24140,0.00615,0.56051,0.29027,-0.07035,96.15187,-0.00248,0.00328,0.00116,0.03941,0.98686,3.23273,1.18193
09:51:06.648213,3.25157,0.00596,0.56894,0.29027,0.29715,113.25569,-0.00355,-0.00008,0.00323,0.04032,0.99009,3.24293,1.19658
09:51:06.658437,3.26182,0.00599,0.57459,0.29027,0.22715,111.31748,-0.00187,0.00129,0.00098,0.03800,0.98771,3.25304,1.18681
09:51:06.668844,3.27136,0.00517,0.57550,0.29027,-0.06160,99.24993,0.00073,-0.00085,0.00354,0.03599,0.98771,3.26357,1.20147
09:51:06.679114,3.28248,0.00593,0.57168,0.29027,0.05215,103.37418,0.00226,-0.00008,0.00189,0.02928,0.98979,3.27371,1.20391
09:51:06.688912,3.29230,0.00552,0.56590,0.29027,0.04340,101.95288,-0.00294,0.00297,0.00305,0.02708,0.99143,3.28436,1.17949
09:51:06.700497,3.30385,0.00613,0.56429,0.29027,-0.04410,97.95223,-0.00065,0.00419,0.00024,0.03270,0.98643,3.29523,1.19658
09:51:06.710515,3.31388,0.00595,0.57106,0.29027,0.27090,112.52918,-0.00202,0.00541,0.00372,0.03867,0.98600,3.30523,1.16484
09:51:06.721342,3.32472,0.00643,0.57450,0.29027,0.05215,103.88671,0.00226,0.00572,0.00531,0.03745,0.98692,3.31565,1.17949
09:51:06.731161,3.33452,0.00582,0.57498,0.29027,0.10465,106.19838,0.00058,0.00358,0.00293,0.03361,0.98985,3.32588,1.17705
09:51:06.741952,3.34532,0.00633,0.56829,0.29027,-0.23660,90.52270,-0.00141,0.00282,0.00281,0.02940,0.98777,3.33666,1.21856
09:51:06.752774,3.35613,0.00677,0.56406,0.29027,-0.13160,94.20183,-0.00019,-0.00421,0.00342,0.03087,0.98887,3.34745,1.20391
09:51:06.762690,3.36585,0.00606,0.55973,0.29027,-0.12285,93.78493,0.00058,-0.00207,0.00458,0.03050,0.99223,3.35697,1.19658
09:51:06.774139,3.37751,0.00736,0.55321,0.29027,-0.25410,87.03827,0.00042,-0.00405,0.00525,0.02971,0.98796,3.36828,1.19902
09:51:06.783667,3.38703,0.00653,0.55440,0.29027,0.04340,99.85958,0.00042,-0.00482,0.00342,0.03471,0.98820,3.37860,1.19902
09:51:06.793611,3.39699,0.00612,0.55615,0.29027,-0.10535,93.87666,0.00149,0.00068,0.00396,0.03709,0.98942,3.38824,1.20635
09:51:06.804184,3.40730,0.00607,0.55985,0.29027,0.30590,111.97348,-0.00202,0.00022,0.00348,0.03459,0.98893,3.39860,1.19658
09:51:06.815015,3.41771,0.00575,0.55754,0.29027,0.26215,109.70078,0.00164,0.00679,0.00384,0.02800,0.98875,3.40980,1.19170
09:51:06.825775,3.42915,0.00683,0.55243,0.29027,0.17465,105.06298,-0.00034,0.00404,0.00421,0.02599,0.99021,3.42043,1.19414
09:51:06.836118,3.43929,0.00660,0.55649,0.29027,0.64715,125.82084,-0.00294,0.00648,0.00256,0.03093,0.98918,3.43080,1.19414
09:51:06.844996,3.44838,0.00549,0.56076,0.29027,0.49840,120.29610,0.00058,0.00312,0.00152,0.03343,0.98918,3.44042,1.20879
09:51:06.856517,3.45988,0.00613,0.56854,0.29027,0.47215,120.59829,0.00241,-0.00085,0.00378,0.03715,0.98863,3.45126,1.21368
09:51:06.868582,3.47089,0.00637,0.57889,0.29027,0.55965,126.18726,-0.00126,-0.00573,0.00146,0.03886,0.98899,3.46261,1.20147
09:51:06.878525,3.48189,0.00716,0.58689,0.29027,0.53340,126.53114,-0.00126,-0.00589,0.00458,0.03709,0.98857,3.47325,1.19414
09:51:06.888596,3.49112,0.00575,0.59161,0.29027,0.76965,137.40020,-0.00049,-0.00467,0.00256,0.03105,0.98789,3.48335,1.20879
09:51:06.898636,3.50200,0.00637,0.59568,0.29027,0.82215,140.36434,0.00088,-0.00192,0.00470,0.03026,0.98814,3.49294,1.20635
09:51:06.909533,3.51221,0.00556,0.60001,0.29027,0.75215,138.18558,0.00073,0.00190,0.00085,0.02995,0.98735,3.50419,1.19414
09:51:06.920201,3.52356,0.00608,0.60950,0.29027,0.83090,143.24748,-0.00110,-0.00039,0.00476,0.03544,0.98857,3.51496,1.19658
09:51:06.930301,3.53367,0.00586,0.61793,0.29027,0.76090,141.81567,-0.00202,0.00572,0.00579,0.03581,0.98649,3.52501,1.19658
09:51:06.940800,3.54416,0.00599,0.63125,0.29027,0.87465,149.05714,-0.00187,0.00602,0.00610,0.04002,0.99210,3.53554,1.20147
09:51:06.950442,3.55383,0.00547,0.64250,0.29027,0.94465,154.06947,-0.00737,0.00312,0.00665,0.03751,0.99381,3.54567,1.18681
09:51:06.962130,3.56550,0.00677,0.65218,0.29027,0.97965,157.31408,-0.00172,0.00175,0.00470,0.03416,0.98972,3.55687,1.19414
09:51:06.971534,3.57490,0.00581,0.65394,0.29027,0.85715,152.44401,0.00119,-0.00069,0.00573,0.02830,0.98911,3.56645,1.16728
09:51:06.982044,3.58541,0.00610,0.65765,0.29027,0.95340,157.19683,-0.00217,-0.00299,0.00445,0.02867,0.98680,3.57677,1.22344
09:51:06.993110,3.59649,0.00682,0.66328,0.29027,0.93590,157.47807,-0.00080,-0.00237,0.00665,0.03038,0.98881,3.58786,1.19658
09:51:07.003284,3.60664,0.00678,0.67404,0.29027,1.17215,169.44605,-0.00095,-0.00161,0.00396,0.03483,0.98655,3.59784,1.19902
09:51:07.013633,3.61702,0.00679,0.68723,0.29027,1.32965,178.51806,0.00164,-0.00390,0.00677,0.03532,0.98857,3.60833,1.18681
09:51:07.022945,3.62631,0.00589,0.69752,0.29027,1.23340,176.31118,0.00134,-0.00283,0.00628,0.03483,0.98680,3.61772,1.20147
09:51:07.034059,3.63743,0.00606,0.71313,0.29027,1.25965,180.26260,-0.00187,-0.00650,0.00439,0.03855,0.98930,3.62879,1.20635
09:51:07.044925,3.64828,0.00655,0.72877,0.29027,1.35590,187.18540,-0.00065,-0.00589,0.00476,0.03794,0.98966,3.63968,1.17460
09:51:07.055101,3.65777,0.00585,0.74045,0.29027,1.17215,181.52470,-0.00126,-0.00802,0.00500,0.03678,0.98674,3.64983,1.20879
09:51:07.064978,3.66834,0.00616,0.75500,0.29027,1.33840,191.21393,-0.00095,-0.00344,0.00708,0.03873,0.98747,3.65976,1.20147
09:51:07.075310,3.67869,0.00592,0.76616,0.29027,1.13715,184.71733,0.00088,-0.00512,0.00482,0.03660,0.99003,3.67036,1.17705
09:51:07.085659,3.68904,0.00606,0.77840,0.29027,1.16340,188.05628,-0.00126,-0.00390,0.00354,0.03770,0.98875,3.68093,1.17949
09:51:07.097497,3.70088,0.00622,0.79335,0.29027,1.17215,191.14512,0.00088,-0.00329,0.00586,0.04002,0.99094,3.69225,1.21123
09:51:07.107541,3.71093,0.00608,0.80819,0.29027,1.10215,190.87833,-0.00034,0.00083,0.00586,0.04148,0.98857,3.70315,1.18926
09:51:07.118229,3.72160,0.00639,0.81711,0.29027,1.22465,197.69238,-0.00156,0.00175,0.00500,0.03434,0.98704,3.71334,1.20879
09:51:07.128458,3.73184,0.00643,0.82544,0.29027,1.04090,191.42052,-0.00324,0.00328,0.00390,0.03678,0.98844,3.72285,1.20635
09:51:07.138298,3.74166,0.00587,0.84075,0.29027,1.11965,197.54221,-0.00080,0.00022,0.00531,0.04343,0.99052,3.73297,1.19902
09:51:07.148772,3.75214,0.00614,0.85789,0.29027,1.07590,198.80532,-0.00156,-0.00222,0.00305,0.04587,0.99180,3.74351,1.19414
09:51:07.158679,3.76206,0.00588,0.86955,0.29027,1.02340,198.70214,-0.00019,-0.00375,0.00366,0.04026,0.98893,3.75412,1.18437
09:51:07.168506,3.77189,0.00551,0.88088,0.29027,0.87465,194.46006,-0.00095,-0.00619,0.00799,0.04264,0.98753,3.76389,1.19902
09:51:07.178970,3.78235,0.00575,0.89557,0.29027,0.84840,196.01963,-0.00141,-0.00909,0.00878,0.04691,0.98918,3.77383,1.18681
09:51:07.189961,3.79335,0.00638,0.91332,0.29027,1.16340,212.59484,-0.00095,-0.00375,0.00610,0.04532,0.98747,3.78509,1.19658
09:51:07.200488,3.80385,0.00668,0.92434,0.29027,1.25965,218.67693,0.00012,-0.00436,0.00342,0.03837,0.99033,3.79522,1.19170
09:51:07.210147,3.81353,0.00584,0.93681,0.29027,1.07590,213.16066,-0.00187,0.00282,0.00641,0.04282,0.98881,3.80492,1.19170
09:51:07.221067,3.82445,0.00613,0.95031,0.29027,1.04965,214.50249,-0.00263,0.00648,0.00335,0.04313,0.98948,3.81580,1.18437
09:51:07.231090,3.83447,0.00580,0.96995,0.29027,1.48715,236.61167,-0.00401,0.00618,0.00470,0.04642,0.98881,3.82585,1.20635
09:51:07.242024,3.84541,0.00637,0.98545,0.29027,1.07590,222.00757,-0.00141,0.00404,0.00537,0.04508,0.98954,3.83723,1.19414
09:51:07.252468,3.85583,0.00659,0.99858,0.29027,1.14590,227.36098,-0.00187,0.00984,0.00781,0.04343,0.98832,3.84724,1.20635
09:51:07.262880,3.86624,0.00637,1.00828,0.29027,1.25965,233.94400,-0.00202,0.00618,0.00555,0.03849,0.98777,3.85719,1.19170
09:51:07.273028,3.87639,0.00616,1.01516,0.29027,1.11965,229.26405,-0.00049,0.00404,0.00494,0.03636,0.98710,3.86761,1.18437
09:51:07.283375,3.88608,0.00566,1.02137,0.29027,1.11965,230.39424,-0.00095,0.00053,0.00293,0.03623,0.99076,3.87773,1.19658
09:51:07.292724,3.89611,0.00532,1.03318,0.29027,1.10215,231.80099,-0.00156,-0.00161,0.00342,0.04258,0.98991,3.88816,1.19658
09:51:07.304629,3.90798,0.00632,1.04508,0.29027,1.00590,229.88571,-0.00172,-0.00222,0.00323,0.04343,0.99168,3.89917,1.19170
09:51:07.314589,3.91797,0.00612,1.05919,0.29027,1.15465,238.75469,-0.00187,-0.00787,0.00085,0.04575,0.99314,3.90916,1.19414
09:51:07.324845,3.92736,0.00514,1.07708,0.29027,1.23340,245.34536,0.00149,-0.00237,0.00152,0.04862,0.98796,3.91957,1.20879
09:51:07.335511,3.93819,0.00577,1.09287,0.29027,1.33840,252.66693,-0.00019,0.00007,0.00634,0.04453,0.98582,3.93042,1.20635
09:51:07.344779,3.94816,0.00551,1.09806,0.29027,1.32965,253.23965,-0.00324,0.00267,0.00183,0.03434,0.98533,3.94017,1.21123
09:51:07.355706,3.95907,0.00595,1.11076,0.29027,1.43465,259.99873,0.00073,0.00282,0.00256,0.04093,0.98997,3.95064,1.21368
09:51:07.366060,3.96943,0.00608,1.12350,0.29027,1.40840,261.20332,-0.00126,0.00144,0.00287,0.04209,0.99162,3.96079,1.20879
09:51:07.376689,3.98006,0.00635,1.13893,0.29027,1.30340,259.56131,0.00180,-0.00131,0.00482,0.04630,0.98905,3.97109,1.20879
09:51:07.388110,3.99128,0.00730,1.15127,0.29027,0.93590,246.23391,-0.00263,-0.00207,0.00525,0.04703,0.98674,3.98152,1.19902
09:51:07.396966,4.00033,0.00599,1.16658,0.29027,1.18965,259.76977,0.00210,-0.00741,0.00378,0.04801,0.98692,3.99171,1.20391
09:51:07.408129,4.01057,0.00560,1.17829,0.29027,1.05840,256.33978,0.00287,-0.00970,0.00165,0.04483,0.98674,4.00258,1.22100
09:51:07.418008,4.02139,0.00606,1.18836,0.29027,1.05840,258.17097,-0.00355,-0.00864,0.00409,0.04410,0.98783,4.01268,1.19902
09:51:07.428211,4.03156,0.00587,1.19892,0.29027,1.06715,260.46187,-0.00172,-0.00787,0.00445,0.04459,0.98869,4.02294,1.20391
09:51:07.438464,4.04183,0.00595,1.21022,0.29027,0.99715,259.55176,-0.00172,-0.00482,0.00506,0.04642,0.98777,4.03318,1.19658
09:51:07.448996,4.05233,0.00544,1.22754,0.29027,0.95340,260.84773,0.00134,-0.00253,0.00445,0.05380,0.98826,4.04368,1.21123
09:51:07.459189,4.06258,0.00614,1.25008,0.29027,1.20715,275.69969,-0.00187,0.00297,0.00244,0.05661,0.98942,4.05460,1.20879
09:51:07.470002,4.07338,0.00668,1.26314,0.29027,1.62715,295.86922,-0.00095,0.00572,0.00378,0.04215,0.98661,4.06474,1.21368
09:51:07.480996,4.08414,0.00662,1.28146,0.29027,1.54840,295.86584,-0.00523,0.01000,0.00482,0.04917,0.98619,4.07496,1.19902
09:51:07.490297,4.09368,0.00588,1.29746,0.29027,1.78465,308.78481,-0.00355,0.01274,0.00561,0.04307,0.99009,4.08577,1.18437
09:51:07.501055,4.10441,0.00623,1.30222,0.29027,1.73215,307.42606,0.00256,0.00511,0.00427,0.03312,0.99149,4.09553,1.19902
09:51:07.510949,4.11431,0.00595,1.31310,0.29027,1.67965,307.18092,0.00012,0.00297,0.00403,0.04008,0.99076,4.10569,1.23077
09:51:07.521678,4.12505,0.00621,1.33330,0.29027,1.50465,303.43955,-0.00401,0.00007,0.00525,0.05185,0.98588,4.11640,1.20879
09:51:07.531032,4.13442,0.00522,1.35363,0.29027,1.67965,314.55198,-0.00278,-0.00497,0.00323,0.05124,0.98649,4.12660,1.19414
09:51:07.542555,4.14592,0.00595,1.37113,0.29027,1.80215,322.92527,-0.00340,-0.00818,0.00708,0.04587,0.98539,4.13728,1.21856
09:51:07.553427,4.15681,0.00646,1.39273,0.29027,1.82840,327.96632,0.00119,-0.00497,0.00293,0.04990,0.98545,4.14829,1.20879
09:51:07.564522,4.16787,0.00713,1.40996,0.29027,2.17840,345.93002,-0.00370,-0.00512,0.00335,0.04166,0.98997,4.15906,1.20391
09:51:07.574303,4.17767,0.00600,1.42621,0.29027,2.00340,341.47052,-0.00263,-0.00176,0.00335,0.04502,0.99119,4.16896,1.21612
09:51:07.585207,4.18859,0.00635,1.44998,0.29027,2.30965,358.76924,-0.00034,-0.00008,0.00384,0.04642,0.98820,4.18037,1.19658
09:51:07.595254,4.19864,0.00551,1.46837,0.29027,2.13465,354.69978,-0.00263,0.00480,0.00567,0.04496,0.98722,4.19091,1.20635
09:51:07.607060,4.21044,0.00679,1.49416,0.29027,1.81090,345.67382,-0.00080,0.00480,0.00897,0.05765,0.98814,4.20150,1.22833
09:51:07.617362,4.22073,0.00688,1.51540,0.29027,1.94215,355.09729,-0.00324,-0.00131,0.00695,0.05142,0.98613,4.21196,1.22100
09:51:07.626734,4.23010,0.00596,1.52608,0.29027,1.70590,347.02916,-0.00278,-0.00558,0.00683,0.04447,0.98710,4.22139,1.22100
09:51:07.637017,4.24039,0.00604,1.53726,0.29027,1.65340,346.83864,-0.00263,-0.01200,0.00726,0.04392,0.98552,4.23179,1.19902
09:51:07.647121,4.25049,0.00592,1.54798,0.29027,1.22465,330.62282,-0.00187,-0.01551,0.01049,0.04910,0.98600,4.24187,1.22589
09:51:07.658303,4.26167,0.00674,1.53978,0.29027,0.74340,308.74066,-0.00217,-0.02284,0.00305,0.03209,0.98588,4.25305,1.22100
09:51:07.667738,4.27110,0.00581,1.54116,0.29027,0.19215,285.63398,-0.00309,-0.02742,0.00146,0.05039,0.98820,4.26265,1.22833
09:51:07.677614,4.28100,0.00522,1.58641,0.29027,0.35840,300.90838,0.00042,-0.02818,-0.00372,0.09894,0.98716,4.27297,1.20391
09:51:07.689282,4.29264,0.00647,1.62838,0.29027,1.06715,338.57308,-0.00385,-0.02024,0.01549,0.08693,0.98985,4.28404,1.23321
09:51:07.698988,4.30235,0.00581,1.62464,0.29027,1.06715,337.89190,0.00149,-0.01077,0.01263,0.03642,0.98869,4.29372,1.21368
09:51:07.709984,4.31336,0.00624,1.63384,0.29027,0.68215,323.25280,-0.00599,-0.00192,0.00854,0.05490,0.99625,4.30471,1.20879
09:51:07.720908,4.32427,0.00614,1.67123,0.28865,0.99715,343.41603,-0.00126,0.00205,-0.00134,0.08363,0.99180,4.31564,1.63126
09:51:07.731014,4.33438,0.00592,1.67366,0.28703,1.05840,346.46787,0.00073,0.00633,0.00183,0.04374,0.98655,4.32576,1.76313
09:51:07.741685,4.34506,0.00619,1.65455,0.28054,0.34090,312.65568,-0.00019,0.00358,0.00927,0.02690,0.98070,4.33637,1.33578
09:51:07.751716,4.35508,0.00584,1.68881,0.27081,0.08715,308.22888,-0.00278,0.00144,0.01372,0.09077,0.98064,4.34660,1.09646
09:51:07.762910,4.36551,0.00522,1.72891,0.26108,0.24465,322.29061,-0.00401,-0.00543,0.00799,0.09723,0.99265,4.35759,1.37241
09:51:07.774186,4.37755,0.00668,1.73267,0.25784,0.69090,341.91232,-0.00110,-0.01047,-0.00043,0.05014,0.99046,4.36839,1.03053
09:51:07.783761,4.38712,0.00589,1.72426,0.25784,-0.07035,308.12954,0.00180,-0.00543,0.00244,0.04538,0.98875,4.37860,1.19658
09:51:07.794390,4.39701,0.00543,1.73903,0.25784,-0.14035,307.84947,0.00027,-0.00024,0.00695,0.07241,0.98332,4.38882,1.20879
09:51:07.803736,4.40712,0.00518,1.73726,0.25784,-0.25410,302.70904,-0.00019,0.00373,0.00927,0.05520,0.98582,4.39933,1.23321
09:51:07.814918,4.41829,0.00591,1.72579,0.25784,-0.49035,290.61223,-0.00187,0.01427,0.00128,0.04685,0.98838,4.40967,1.24054
09:51:07.824897,4.42828,0.00554,1.72700,0.25784,-0.43785,293.05621,-0.00065,0.01549,0.00244,0.06106,0.99424,4.42010,1.24298
09:51:07.835610,4.43899,0.00590,1.74940,0.25784,-0.77910,282.67198,0.00256,0.02053,0.00756,0.09004,0.98979,4.43122,1.23565
09:51:07.846599,4.44996,0.00666,1.75835,0.25784,-0.45535,298.01781,0.00180,0.01580,0.01293,0.06985,0.98527,4.44126,1.20635
09:51:07.855322,4.45871,0.00505,1.74208,0.25784,-0.54285,291.35027,0.00287,0.01290,0.01086,0.04172,0.98472,4.45092,1.23565
09:51:07.866927,4.47029,0.00592,1.71364,0.25784,-0.61285,283.21201,0.00042,0.00938,0.00732,0.02898,0.98381,4.46167,1.24054
09:51:07.877356,4.48074,0.00601,1.69856,0.25784,-1.02410,263.04491,0.00332,0.00282,0.00061,0.04862,0.98747,4.47211,1.22100
09:51:07.887093,4.49048,0.00538,1.68604,0.25784,-1.12910,256.31790,-0.00095,0.00053,0.00628,0.05246,0.98844,4.48245,1.24298
09:51:07.898988,4.50235,0.00654,1.66381,0.25784,-1.30410,244.86007,0.00210,0.00236,0.00854,0.04447,0.98631,4.49377,1.23077
09:51:07.909013,4.51238,0.00637,1.65939,0.25784,-1.11160,252.21365,-0.00065,0.00358,0.00994,0.06015,0.98619,4.50353,1.20879
09:51:07.918173,4.52156,0.00535,1.65341,0.25784,-1.05910,253.34917,-0.00355,0.00343,0.00762,0.05813,0.98930,4.51351,1.25519
09:51:07.929248,4.53192,0.00550,1.64580,0.25784,-0.83160,261.60463,-0.00095,0.00251,0.00281,0.05392,0.98814,4.52394,1.23565
09:51:07.939693,4.54305,0.00596,1.62120,0.25784,-1.31285,236.74045,0.00073,-0.00283,0.00305,0.04026,0.98869,4.53458,1.21368
09:51:07.949385,4.55277,0.00517,1.60087,0.25784,-1.61910,220.06736,0.00210,-0.00619,0.00805,0.04764,0.98802,4.54480,1.21856
09:51:07.960726,4.56323,0.00526,1.58278,0.25784,-1.87285,206.02405,0.00042,-0.00482,0.01348,0.05362,0.98698,4.55544,1.22589
09:51:07.971098,4.57449,0.00615,1.57593,0.25784,-1.76785,209.22848,0.00027,-0.00833,0.01068,0.06625,0.99204,4.56651,1.25031
09:51:07.981749,4.58513,0.00614,1.56692,0.25784,-2.00410,197.57845,0.00103,-0.00879,0.00531,0.06368,0.98692,4.57646,1.23810
09:51:07.993087,4.59647,0.00712,1.55023,0.25784,-2.12660,189.35305,0.00241,-0.00787,0.00647,0.05679,0.98680,4.58672,1.24786
09:51:08.002292,4.60568,0.00590,1.52544,0.25784,-2.27535,178.54289,0.00332,-0.00329,0.01165,0.05075,0.98308,4.59776,1.23565
09:51:08.013006,4.61571,0.00550,1.50124,0.25784,-2.21410,176.73645,0.00302,-0.00253,0.01305,0.04776,0.98655,4.60774,1.25031
09:51:08.022298,4.62568,0.00527,1.47697,0.25784,-2.50285,160.08645,0.00668,0.00053,0.01006,0.05063,0.98875,4.61773,1.25275
09:51:08.032838,4.63622,0.00545,1.45143,0.25784,-2.73910,145.43194,0.00378,0.00068,0.00525,0.05301,0.99277,4.62815,1.23565
09:51:08.044727,4.64671,0.00573,1.43165,0.25784,-2.81785,138.49731,0.00302,0.00389,0.00262,0.06124,0.99162,4.63893,1.26740
09:51:08.054455,4.65783,0.00648,1.41999,0.25784,-2.59035,146.01651,0.00149,0.00205,0.00708,0.06460,0.99149,4.64872,1.26984
09:51:08.064353,4.66771,0.00600,1.40168,0.25784,-2.65160,140.09104,0.00439,0.00160,0.00641,0.05880,0.98667,4.65908,1.25031
09:51:08.074852,4.67822,0.00632,1.37664,0.25784,-2.44160,144.43364,0.00332,0.00419,0.00573,0.04734,0.98594,4.66912,1.23077
09:51:08.085319,4.68870,0.00609,1.34260,0.25784,-2.49410,136.01824,0.00226,0.00679,0.00220,0.03959,0.98796,4.67998,1.27717
