Description :  ; walk_time = 2.0 ; speed_up_time = 3.0 ; balancing_time = 0.0
RealTime,Time,CalculationTime,Roll,SteeringAngle,RollRate,ControlInput,gy,gz,ax,ay,az,imu_read_timing,SteerMotorCurrent
09:39:54.222297,0.00957,0.00900,0.00004,-0.00563,-0.01591,-0.61306,-0.00043,-0.00175,0.00458,0.03703,0.99046,0.00001,0.01954
09:39:54.229837,0.01714,0.00639,0.00014,-0.00583,-0.01469,-0.54115,0.00064,0.00375,0.00616,0.03965,0.99259,0.00896,3.19414
09:39:54.240099,0.02718,0.00607,0.00031,-0.00988,-0.01530,-0.49664,-0.00028,0.00268,0.00531,0.04526,0.98759,0.01857,0.10012
09:39:54.249723,0.03703,0.00542,0.00076,-0.01449,-0.01117,-0.19453,0.00171,0.00955,0.00116,0.06271,0.99704,0.02895,0.74969
09:39:54.260327,0.04763,0.00566,0.00141,-0.01823,-0.01911,-0.37628,0.00140,0.00909,0.01800,0.08143,0.98863,0.03963,0.16117
09:39:54.272774,0.05949,0.00682,0.00071,-0.02109,-0.01927,-0.48234,-0.00349,0.01444,-0.00146,-0.00653,0.99296,0.05077,1.45543
09:39:54.281848,0.06914,0.00610,-0.00011,-0.02530,-0.03026,-1.05724,0.00079,0.00252,0.02135,-0.01031,0.99271,0.06046,1.46276
09:39:54.292560,0.07904,0.00564,-0.00024,-0.03091,-0.04202,-1.52533,-0.00089,-0.00420,-0.01202,0.04380,0.99302,0.07078,3.45055
09:39:54.302142,0.08944,0.00554,-0.00091,-0.04299,-0.03148,-1.08221,0.00476,-0.01840,0.01610,0.00177,0.99491,0.08123,1.98779
09:39:54.314646,0.10115,0.00689,-0.00226,-0.05794,-0.03561,-1.35827,0.00262,-0.02008,-0.03013,-0.03977,0.98411,0.09242,0.27350
09:39:54.322536,0.10984,0.00523,-0.00171,-0.06787,-0.05287,-1.89292,0.00064,-0.02038,0.05765,0.09126,0.99320,0.10181,4.27595
09:39:54.333738,0.12104,0.00606,-0.00195,-0.08383,-0.06218,-2.17752,0.00400,-0.01916,0.00104,0.04862,0.97960,0.11236,2.97680
09:39:54.343193,0.13050,0.00516,-0.00210,-0.10282,-0.06966,-2.33753,0.00018,-0.02145,0.04953,0.05899,0.98021,0.12272,4.42491
09:39:54.354308,0.14161,0.00590,-0.00234,-0.12473,-0.07394,-2.34969,0.00568,-0.01886,-0.01366,0.05874,0.98094,0.13368,3.98291
09:39:54.365830,0.15258,0.00652,-0.00276,-0.14862,-0.08875,-2.82186,0.00782,-0.02237,-0.00598,0.05173,1.00516,0.14347,4.10745
09:39:54.375303,0.16261,0.00618,-0.00399,-0.17284,-0.10005,-3.29101,0.00843,-0.03398,0.03886,0.00543,0.92098,0.15360,6.22711
09:39:54.385636,0.17216,0.00537,-0.00567,-0.20276,-0.11242,-3.82924,0.00491,-0.04925,0.01629,-0.01281,0.99955,0.16418,7.19414
09:39:54.396441,0.18350,0.00600,-0.00798,-0.23746,-0.12938,-4.63201,0.00873,-0.06299,-0.00311,-0.04496,1.01132,0.17489,7.50672
09:39:54.406191,0.19349,0.00576,-0.00913,-0.27462,-0.15625,-5.62029,0.00812,-0.07933,0.00634,0.04325,1.00766,0.18494,5.99756
09:39:54.416796,0.20321,0.00527,-0.01160,-0.31198,-0.17305,-6.41914,0.01286,-0.09934,0.00244,-0.03001,1.00961,0.19546,6.66667
09:39:54.427098,0.21439,0.00594,-0.01280,-0.35118,-0.19504,-7.18985,0.01774,-0.11262,0.01177,0.06417,0.98869,0.20577,6.72039
09:39:54.438364,0.22495,0.00615,-0.01608,-0.39327,-0.20909,-7.97404,0.02110,-0.12698,-0.01452,-0.05258,0.98716,0.21697,6.32723
09:39:54.448935,0.23621,0.00705,-0.01774,-0.43034,-0.23444,-8.98912,0.02584,-0.14760,0.05783,0.05466,1.02279,0.22704,5.29182
09:39:54.459107,0.24639,0.00612,-0.02239,-0.47149,-0.22879,-9.19718,0.02920,-0.17234,0.00958,-0.14750,1.01162,0.23760,5.06960
09:39:54.469346,0.25664,0.00601,-0.02479,-0.51163,-0.24178,-9.79479,0.03500,-0.20135,-0.05197,0.00677,0.91756,0.24801,3.19902
09:39:54.479632,0.26691,0.00591,-0.02667,-0.55040,-0.24544,-9.91595,0.04141,-0.22044,-0.00872,0.03672,0.87523,0.25840,2.77411
09:39:54.490036,0.27732,0.00611,-0.03005,-0.59011,-0.23109,-9.53897,0.05119,-0.23923,-0.02538,-0.06887,0.95672,0.26869,2.10012
09:39:54.500662,0.28797,0.00640,-0.03379,-0.62897,-0.22620,-9.63563,0.05699,-0.24106,-0.03093,-0.09479,0.90670,0.27884,1.00366
09:39:54.509765,0.29707,0.00531,-0.03712,-0.66845,-0.20635,-9.01697,0.05500,-0.23938,0.08479,-0.08381,0.90554,0.28908,0.19048
09:39:54.521498,0.30879,0.00660,-0.03748,-0.71017,-0.18573,-7.80473,0.05195,-0.22701,-0.07460,0.09156,0.92848,0.30014,0.00733
09:39:54.531056,0.31833,0.00578,-0.03830,-0.74843,-0.16649,-6.76836,0.05088,-0.22075,0.06997,0.03806,1.03066,0.30973,0.00000
09:39:54.540975,0.32828,0.00537,-0.03963,-0.78902,-0.12739,-4.96056,0.05103,-0.21097,-0.07899,-0.01440,1.01656,0.32028,0.00000
09:39:54.553024,0.34032,0.00705,-0.04002,-0.83085,-0.08799,-2.95648,0.04722,-0.20105,0.07723,0.02452,0.97545,0.33172,0.00000
09:39:54.562992,0.35028,0.00597,-0.04066,-0.86934,-0.05119,-1.13978,0.03775,-0.18746,-0.05813,-0.02544,1.03560,0.34163,0.00000
09:39:54.577436,0.36474,0.01021,-0.03881,-0.89784,-0.00461,1.44583,0.03179,-0.18944,0.00573,0.11370,1.01748,0.35566,0.00000
09:39:54.601566,0.38886,0.01074,-0.04911,-0.91024,0.14597,6.07279,-0.02823,-0.22044,-0.51862,-0.80630,0.59506,0.38010,0.00000
09:39:54.621894,0.40920,0.01086,-0.05472,-0.88171,0.14078,4.55612,0.01209,-0.11675,-0.08143,-0.73572,1.10837,0.40039,0.00000
09:39:54.642668,0.42997,0.00806,-0.04806,-0.80396,0.17010,6.25567,-0.03678,-0.07490,0.05752,0.20161,1.06677,0.42070,0.00000
09:39:54.650861,0.43814,0.00591,-0.04535,-0.77176,0.21210,8.21681,0.00369,-0.04512,-0.09992,0.03861,1.11099,0.42952,0.00000
09:39:54.661538,0.44884,0.00626,-0.03664,-0.73123,0.26326,11.57613,0.00446,-0.03443,-0.08936,0.36850,0.96575,0.44084,0.00000
09:39:54.673404,0.46034,0.00739,-0.03150,-0.69257,0.33305,15.09376,-0.02212,-0.03764,-0.13896,0.10565,1.09489,0.45157,0.00000
09:39:54.682315,0.46962,0.00614,-0.02495,-0.65600,0.37856,15.92947,-0.04044,-0.01702,0.24113,0.21246,1.03389,0.46069,0.00000
09:39:54.694077,0.48138,0.00754,-0.02076,-0.61490,0.38635,16.29471,-0.05388,-0.00664,0.19898,-0.00146,1.04273,0.47177,0.00000
09:39:54.705263,0.49117,0.00687,-0.01701,-0.57808,0.39963,16.61877,-0.02563,0.02497,0.28768,-0.00262,0.99900,0.48153,0.00000
09:39:54.717079,0.50318,0.00868,-0.01443,-0.53781,0.37947,16.69792,-0.02395,0.01871,-0.07558,-0.09205,1.03743,0.49229,0.00000
09:39:54.726518,0.51382,0.00868,-0.01024,-0.49895,0.35855,17.08299,-0.01891,-0.00175,-0.34325,0.02239,0.96636,0.50360,0.00000
09:39:54.734744,0.52203,0.00607,-0.00463,-0.45887,0.32144,17.22378,-0.01677,-0.01229,0.10242,0.18300,0.99509,0.51340,0.00000
09:39:54.745569,0.53231,0.00599,-0.00029,-0.41995,0.33702,18.29664,-0.03556,-0.04039,0.11645,0.07832,0.95380,0.52369,0.00000
09:39:54.755239,0.54252,0.00584,0.00266,-0.38175,0.30587,17.14310,-0.03204,-0.05536,-0.11822,0.01732,1.02175,0.53385,0.00000
09:39:54.766557,0.55384,0.00680,0.00844,-0.33955,0.28250,16.79472,-0.04380,-0.07307,0.04142,0.20862,1.01315,0.54514,0.00000
09:39:54.776536,0.56384,0.00644,0.01135,-0.30340,0.28296,16.99250,-0.03922,-0.06971,0.10211,0.04837,1.00680,0.55477,0.00000
09:39:54.787403,0.57399,0.00603,0.01289,-0.26276,0.26081,15.94093,-0.02700,-0.08391,-0.04673,-0.05649,1.09385,0.56589,0.00000
09:39:54.797039,0.58434,0.00602,0.01724,-0.22399,0.28403,17.34000,-0.02807,-0.07460,0.06576,0.15305,1.04957,0.57569,0.00000
09:39:54.807445,0.59474,0.00607,0.02470,-0.18538,0.30709,19.29933,-0.04411,-0.04222,0.29396,0.31262,0.90036,0.58585,0.00000
09:39:54.820153,0.60726,0.00821,0.03191,-0.14536,0.35535,20.22396,-0.05373,-0.00175,0.34624,0.26944,0.96959,0.59697,0.00000
09:39:54.830198,0.61750,0.00777,0.03628,-0.10497,0.36313,20.62652,-0.06717,0.03291,0.12920,0.10876,1.05335,0.60723,0.00000
09:39:54.840894,0.62818,0.00778,0.04276,-0.06385,0.35657,21.40664,-0.05602,0.06315,0.09473,0.25541,1.01046,0.61771,0.00488
09:39:54.850047,0.63734,0.00611,0.04678,-0.02210,0.34389,23.29327,-0.04334,0.08453,-0.02037,0.08863,1.00760,0.62869,0.03907
09:39:54.861258,0.64856,0.00638,0.05062,0.01959,0.28769,21.20721,-0.03052,0.07323,0.14390,0.10010,0.85931,0.63990,0.13919
09:39:54.871004,0.65829,0.00591,0.05609,0.05728,0.26051,20.68472,-0.03052,0.07674,0.04612,0.26498,0.94843,0.64969,0.12698
09:39:54.881902,0.66920,0.00646,0.06091,0.09665,0.22172,19.53588,-0.02380,0.07384,0.04477,0.25132,0.98442,0.66013,0.10745
09:39:54.893333,0.68063,0.00719,0.06552,0.13557,0.19515,18.87056,-0.00929,0.06865,-0.01519,0.25602,1.03255,0.67180,0.01709
09:39:54.902565,0.68986,0.00590,0.06869,0.17432,0.18247,18.53521,-0.00853,0.06330,0.07662,0.18068,0.94312,0.68118,0.00000
09:39:54.913297,0.70060,0.00643,0.07007,0.21346,0.14246,16.71254,-0.01845,0.07659,0.01281,0.07790,0.92842,0.69208,0.00000
09:39:54.924648,0.71125,0.00608,0.06829,0.25320,0.10901,14.58560,-0.03204,0.08178,0.10431,-0.10712,1.05255,0.70285,0.00000
09:39:54.934912,0.72220,0.00607,0.06969,0.29191,0.06137,12.44587,-0.02991,0.09079,-0.14469,0.14183,0.98497,0.71354,0.00000
09:39:54.945727,0.73303,0.00628,0.07052,0.33193,0.03235,10.97979,-0.01570,0.07858,0.06008,0.13121,1.02828,0.72425,0.00000
09:39:54.955714,0.74302,0.00591,0.07184,0.37190,0.00563,9.70158,-0.00501,0.07781,-0.07716,0.16354,0.90121,0.73527,0.00000
09:39:54.966990,0.75360,0.00590,0.07376,0.40937,0.01173,9.94595,-0.00593,0.05857,0.07668,0.21033,0.95556,0.74510,0.00000
09:39:54.977036,0.76433,0.00628,0.07572,0.44803,0.00028,9.44265,-0.00837,0.04116,-0.04636,0.21716,0.93220,0.75542,0.00000
09:39:54.986978,0.77425,0.00595,0.07775,0.48604,-0.01835,8.65315,-0.00929,0.04819,-0.08333,0.25358,1.00333,0.76562,0.00000
09:39:54.997336,0.78464,0.00598,0.07855,0.52521,0.00624,9.46156,0.00369,0.04483,-0.04898,0.15714,1.02815,0.77604,0.00000
09:39:55.006877,0.79418,0.00516,0.08124,0.56322,0.00929,9.71261,0.00552,0.05353,0.06801,0.27474,0.96856,0.78640,0.00000
09:39:55.018391,0.80570,0.00593,0.08533,0.60454,0.03357,11.08409,-0.01616,0.06361,-0.02745,0.32354,0.87443,0.79721,0.00000
09:39:55.029669,0.81697,0.00685,0.08713,0.64623,0.05251,11.80992,-0.02090,0.08407,0.08290,0.17684,0.91152,0.80832,0.00000
09:39:55.039020,0.82561,0.00513,0.08871,0.68173,0.05312,11.77882,-0.02166,0.10729,-0.23028,0.17897,0.95965,0.81765,0.00000
09:39:55.050411,0.83770,0.00686,0.08882,0.72421,0.07374,12.26177,-0.00211,0.12409,0.04191,0.07027,1.06262,0.82901,0.00000
09:39:55.060573,0.84785,0.00666,0.08997,0.75984,0.03586,10.52101,0.00629,0.16562,-0.15531,0.16348,0.96630,0.83857,0.00000
09:39:55.070225,0.85753,0.00584,0.08736,0.79932,0.03510,9.62998,0.01789,0.18166,0.04081,-0.07918,0.92421,0.84964,0.00000
09:39:55.080676,0.86798,0.00609,0.08537,0.83801,0.01723,8.13735,0.02278,0.21785,-0.05161,-0.03111,0.99192,0.85945,0.00000
09:39:55.095112,0.88242,0.01003,0.08688,0.87857,-0.01713,6.56201,0.03301,0.27787,-0.06966,0.20880,0.91042,0.87300,0.00000
09:39:55.119296,0.90660,0.01082,0.08811,0.97395,-0.00430,6.40604,0.05027,0.33422,-0.08638,0.20240,0.99186,0.89942,0.00000
09:39:55.142581,0.92986,0.01058,0.09083,1.06189,-0.01667,5.52445,0.05317,0.28642,-0.07967,0.32482,0.98759,0.92113,0.16850
09:39:55.166873,0.95416,0.01127,0.08630,1.15647,-0.06707,1.64853,0.05363,0.21846,0.02184,-0.08119,1.01754,0.94544,0.53724
09:39:55.193208,0.98050,0.01213,0.08074,1.21990,-0.19138,-5.24377,0.05852,0.20777,-0.02056,0.06795,1.00528,0.97147,1.05250
09:39:55.218339,1.00564,0.01199,0.07201,1.24183,-0.27705,-10.67420,0.09547,0.25344,-0.38223,-0.01171,1.40184,0.99722,10.00000
09:39:55.238513,1.02582,0.00939,0.07209,1.19349,-0.27064,-9.92087,0.04935,0.16333,0.17306,0.44548,0.90249,1.01732,6.36874
09:39:55.251023,1.03832,0.01004,0.06362,1.15613,-0.27598,-11.32544,0.02858,0.14730,-0.29195,-0.28158,1.03883,1.02854,7.32357
09:39:55.277657,1.06494,0.01437,0.05340,1.06492,-0.38395,-12.29975,0.01560,0.11614,0.04081,0.05197,1.11240,1.05391,7.02808
09:39:55.302173,1.08900,0.01463,0.04567,0.98046,-0.46902,-12.88679,0.03637,0.08789,-0.20252,0.28554,1.04090,1.07680,5.69963
09:39:55.328460,1.11573,0.01341,0.03514,0.87393,-0.47955,-13.77038,0.02263,0.01902,-0.68784,0.19410,0.85461,1.10397,5.93895
09:39:55.352454,1.13889,0.01035,0.02123,0.77235,-0.45985,-15.31546,0.02660,-0.03749,0.51380,-0.11797,1.13405,1.12927,7.30159
09:39:55.374268,1.16157,0.01013,0.00811,0.69554,-0.47635,-16.95726,0.04080,-0.01931,0.13737,-0.18190,1.18023,1.15088,5.64103
09:39:55.393455,1.18076,0.00831,-0.00157,0.61281,-0.45726,-17.91716,-0.00089,0.01321,0.17708,-0.00586,0.91305,1.17109,4.13919
09:39:55.404671,1.19197,0.00917,-0.00677,0.57290,-0.44015,-18.47536,-0.02456,0.00985,-0.37137,-0.02678,0.88926,1.18124,3.09158
09:39:55.414643,1.20195,0.00863,-0.01334,0.53217,-0.42885,-19.27602,-0.00287,0.01474,0.03105,-0.14329,1.12106,1.19166,2.23687
09:39:55.425417,1.21272,0.00921,-0.02008,0.49448,-0.41816,-20.13689,0.03439,-0.02191,-0.16342,-0.20167,1.17730,1.20144,0.66178
09:39:55.436849,1.22351,0.00985,-0.03000,0.45782,-0.36273,-21.58627,0.05134,-0.04207,0.41010,-0.43121,1.02407,1.21230,0.11722
09:39:55.447516,1.23481,0.00991,-0.03814,0.41305,-0.38075,-22.63271,0.00690,-0.08254,-0.06490,-0.28731,1.02254,1.22327,0.08059
09:39:55.457803,1.24486,0.00844,-0.04205,0.37059,-0.39587,-22.93251,0.00186,-0.10499,0.24095,-0.00433,0.94013,1.23365,0.03175
09:39:55.467390,1.25470,0.00772,-0.04551,0.32961,-0.37937,-23.16460,0.00323,-0.13966,-0.20466,0.02105,0.97966,1.24447,0.06838
09:39:55.477322,1.26461,0.00727,-0.04923,0.28628,-0.33554,-25.94434,0.00476,-0.15141,-0.04294,-0.01470,0.98887,1.25600,0.18559
09:39:55.485749,1.27305,0.00522,-0.05107,0.25218,-0.27430,-23.35402,-0.00104,-0.12576,-0.09882,0.01543,0.99302,1.26505,0.28327
09:39:55.496994,1.28430,0.00611,-0.05508,0.21001,-0.19413,-20.27876,-0.00196,-0.10285,0.07564,-0.15897,1.04987,1.27635,0.34432
09:39:55.506997,1.29430,0.00528,-0.05734,0.17301,-0.13701,-17.91128,0.00675,-0.06727,-0.11523,-0.09150,1.01876,1.28653,1.00855
09:39:55.517399,1.30470,0.00517,-0.06104,0.13580,-0.10189,-16.73567,0.02370,-0.05108,0.00970,-0.21429,0.99918,1.29674,0.25153
09:39:55.529450,1.31674,0.00684,-0.06238,0.10175,-0.09608,-16.40307,0.02752,-0.05475,0.09138,-0.05130,0.95514,1.30815,0.28083
09:39:55.538942,1.32622,0.00600,-0.06247,0.07817,-0.09303,-16.06186,0.00888,-0.06009,0.09638,0.01330,0.99192,1.31754,0.03175
09:39:55.549757,1.33655,0.00609,-0.06183,0.05813,-0.07318,-14.90855,-0.00776,-0.09079,-0.00494,0.05411,0.97935,1.32792,0.02930
09:39:55.559632,1.34691,0.00610,-0.06159,0.04226,-0.04050,-13.32643,-0.01250,-0.12591,0.02824,0.00543,0.98149,1.33801,0.10012
09:39:55.569210,1.35651,0.00534,-0.06134,0.02731,-0.00048,-11.44180,-0.02502,-0.15325,-0.14439,-0.02037,1.00119,1.34856,0.03663
09:39:55.580516,1.36782,0.00628,-0.06185,0.01350,0.02197,-10.44950,-0.01143,-0.17142,-0.00945,-0.08339,0.97234,1.35883,3.11844
09:39:55.590384,1.37768,0.00593,-0.06238,0.00011,0.03999,-9.65213,-0.00333,-0.16944,-0.10699,-0.09803,0.98558,1.36902,2.12210
09:39:55.601181,1.38848,0.00643,-0.06357,-0.01339,0.05388,-9.14908,0.00369,-0.16363,-0.04301,-0.15537,0.99223,1.37980,1.76557
09:39:55.611012,1.39829,0.00592,-0.06395,-0.02530,0.06488,-8.63663,0.00507,-0.13920,-0.09400,-0.10614,0.99418,1.38969,1.67033
09:39:55.621688,1.40898,0.00617,-0.06157,-0.03767,0.07740,-7.55390,0.00476,-0.10957,0.00512,0.06283,0.96600,1.40035,1.61172
09:39:55.632076,1.41916,0.00613,-0.05816,-0.04908,0.11390,-5.27654,-0.00837,-0.08956,0.00098,0.10565,0.97704,1.41141,1.59951
09:39:55.643025,1.43031,0.00676,-0.05468,-0.06082,0.15391,-2.83537,-0.01479,-0.07597,-0.00073,0.09492,1.00418,1.42169,1.59219
09:39:55.652678,1.43995,0.00604,-0.05148,-0.07045,0.16873,-1.53193,-0.01570,-0.07551,-0.07436,0.07820,1.01748,1.43133,1.53602
09:39:55.663037,1.45033,0.00623,-0.05026,-0.08029,0.17972,-0.74877,-0.01815,-0.08071,0.02330,-0.06381,1.00430,1.44133,1.53846
09:39:55.672551,1.45986,0.00538,-0.04916,-0.09000,0.18003,-0.44194,-0.01799,-0.06818,-0.07241,-0.07662,0.99192,1.45188,1.51648
09:39:55.683385,1.47067,0.00584,-0.04795,-0.09886,0.16964,-0.57490,-0.01494,-0.06452,0.00305,-0.05551,0.98484,1.46201,1.50916
09:39:55.693958,1.48124,0.00605,-0.04534,-0.10761,0.17377,0.15899,-0.00959,-0.05184,-0.09089,0.02910,0.96240,1.47256,1.49206
09:39:55.704196,1.49148,0.00592,-0.04271,-0.11556,0.18125,1.03125,-0.01036,-0.05169,-0.00817,0.03050,0.94623,1.48284,1.49451
09:39:55.714346,1.50163,0.00588,-0.03972,-0.12306,0.20003,2.44387,-0.00959,-0.04344,-0.08168,0.04636,0.95678,1.49296,1.48718
09:39:55.724912,1.51219,0.00608,-0.03665,-0.13031,0.20553,3.30587,-0.01082,-0.04100,0.02422,0.04660,0.97716,1.50349,1.46764
09:39:55.734674,1.52198,0.00526,-0.03366,-0.13704,0.21500,4.31509,-0.01815,-0.03672,-0.04063,0.03922,1.00571,1.51397,1.43590
09:39:55.746850,1.53344,0.00550,-0.03174,-0.14386,0.21698,4.81510,-0.01524,-0.04238,-0.00195,-0.04575,1.01748,1.52549,1.43101
09:39:55.757415,1.54471,0.00642,-0.03002,-0.14930,0.20324,4.59753,-0.01723,-0.05001,-0.05917,-0.02922,1.02620,1.53567,1.46032
09:39:55.767189,1.55448,0.00582,-0.02744,-0.15397,0.19698,4.84801,-0.01082,-0.05245,0.00275,0.03526,0.99198,1.54584,1.43590
09:39:55.777769,1.56435,0.00533,-0.02496,-0.15787,0.19622,5.30380,-0.01448,-0.05444,-0.02775,0.02544,0.96630,1.55639,1.45299
09:39:55.788254,1.57555,0.00617,-0.02123,-0.16093,0.20553,6.40639,-0.01601,-0.05398,0.00738,0.09370,0.96093,1.56759,1.43101
09:39:55.799066,1.58566,0.00594,-0.01898,-0.16370,0.22080,7.49028,-0.02212,-0.04619,-0.00610,0.00641,0.97350,1.57774,1.45788
09:39:55.809492,1.59655,0.00647,-0.01698,-0.16580,0.21928,7.80922,-0.01799,-0.04161,-0.01800,-0.00122,0.99680,1.58747,1.42613
09:39:55.818331,1.60563,0.00526,-0.01521,-0.16766,0.21637,8.02550,-0.00837,-0.03398,-0.04124,-0.01995,0.99223,1.59771,1.40659
09:39:55.830124,1.61743,0.00669,-0.01262,-0.16922,0.21271,8.35608,-0.00410,-0.03275,0.01592,0.03672,1.00028,1.60811,1.47253
09:39:55.840274,1.62672,0.00563,-0.01042,-0.17041,0.20920,8.61889,-0.00455,-0.03749,0.00909,0.01208,0.98137,1.61877,1.38706
09:39:55.850908,1.63820,0.00661,-0.00723,-0.17134,0.20171,8.89177,-0.01295,-0.04176,0.01519,0.08369,0.98918,1.62955,1.44811
09:39:55.861588,1.64889,0.00695,-0.00410,-0.17222,0.20782,9.72761,-0.01082,-0.04192,-0.03044,0.08168,0.99863,1.64012,1.36996
09:39:55.871364,1.65864,0.00651,-0.00113,-0.17304,0.21118,10.41868,-0.01723,-0.03657,0.00720,0.08082,0.99668,1.65006,1.43834
09:39:55.881191,1.66849,0.00616,0.00105,-0.17423,0.22309,11.33093,-0.01860,-0.03443,-0.04429,0.02452,0.98417,1.65987,1.39194
09:39:55.891374,1.67865,0.00596,0.00337,-0.17579,0.22279,11.75566,-0.01647,-0.03291,0.03117,0.03324,0.97167,1.66988,1.43834
09:39:55.902830,1.69014,0.00708,0.00584,-0.17780,0.22248,12.21116,-0.02105,-0.03550,-0.00677,0.03288,0.97527,1.68076,1.41392
09:39:55.913197,1.70050,0.00709,0.00757,-0.18006,0.21790,12.35423,-0.01540,-0.02573,-0.00244,-0.00927,0.98131,1.69162,1.43590
09:39:55.922878,1.71017,0.00644,0.01033,-0.18255,0.22401,13.13888,-0.01173,-0.01244,-0.03483,0.07881,0.99247,1.70093,1.41880
09:39:55.933073,1.72038,0.00629,0.01360,-0.18507,0.23516,14.22976,-0.00853,-0.00160,-0.00085,0.08961,0.99143,1.71146,1.40659
09:39:55.943554,1.73084,0.00640,0.01638,-0.18753,0.24096,15.00580,-0.01372,-0.00649,-0.00586,0.06246,0.98850,1.72162,1.41636
09:39:55.954079,1.74084,0.00604,0.01930,-0.19000,0.24722,15.82668,-0.01692,-0.00847,0.02519,0.06399,0.99033,1.73218,1.45055
09:39:55.964484,1.75177,0.00661,0.02131,-0.19220,0.24249,16.01279,-0.02090,-0.01428,-0.01305,0.00988,0.99424,1.74273,1.38217
09:39:55.974514,1.76180,0.00595,0.02360,-0.19433,0.22691,15.78967,-0.01692,-0.02558,-0.01177,0.04258,0.99015,1.75317,1.42125
09:39:55.985463,1.77276,0.00655,0.02664,-0.19614,0.21958,16.04885,-0.01479,-0.03046,-0.04117,0.09943,0.98655,1.76359,1.44322
09:39:55.995110,1.78239,0.00582,0.02931,-0.19767,0.21851,16.50550,-0.00929,-0.03871,-0.00458,0.08180,0.97167,1.77376,1.39194
09:39:56.005686,1.79299,0.00605,0.03173,-0.19905,0.21592,16.84792,-0.01234,-0.04054,-0.01635,0.06307,0.96801,1.78433,1.38950
09:39:56.016058,1.80315,0.00585,0.03446,-0.20018,0.21561,17.34324,-0.01372,-0.04024,0.01421,0.09016,0.97746,1.79469,1.38706
09:39:56.026240,1.81353,0.00599,0.03749,-0.20129,0.21393,17.83400,-0.01204,-0.03550,-0.01232,0.11810,0.99528,1.80487,1.41880
09:39:56.038967,1.82548,0.00759,0.04030,-0.20248,0.21897,18.56982,-0.01463,-0.03382,-0.00531,0.08711,1.01205,1.81624,1.41636
09:39:56.046809,1.83409,0.00584,0.04203,-0.20401,0.21042,18.53676,-0.00623,-0.02939,-0.01342,0.05350,1.00357,1.82543,1.37485
09:39:56.058566,1.84517,0.00600,0.04468,-0.20635,0.20003,18.60078,-0.00379,-0.02603,0.01006,0.08815,0.99082,1.83719,1.39194
09:39:56.068196,1.85547,0.00593,0.04749,-0.20873,0.19942,19.10985,-0.00990,-0.02481,0.00445,0.12804,0.97527,1.84684,1.43346
09:39:56.077659,1.86496,0.00522,0.05026,-0.21176,0.19835,19.59835,-0.00914,-0.02512,0.01976,0.12151,0.96526,1.85696,1.42369
09:39:56.089098,1.87640,0.00612,0.05271,-0.21550,0.19789,20.05911,-0.01631,-0.02878,0.00293,0.09485,0.97124,1.86776,1.40171
09:39:56.099191,1.88647,0.00584,0.05450,-0.21929,0.18522,19.88422,-0.01692,-0.02939,-0.01311,0.07308,0.98289,1.87782,1.37973
09:39:56.110700,1.89718,0.00618,0.05680,-0.22336,0.17102,19.74159,-0.01036,-0.03291,-0.01952,0.10596,0.98643,1.88904,1.40171
09:39:56.120102,1.90719,0.00584,0.05906,-0.22730,0.15681,19.58861,-0.00242,-0.03825,0.01068,0.13097,0.98442,1.89872,1.40904
09:39:56.130579,1.91716,0.00522,0.06129,-0.23140,0.14475,19.52331,-0.00532,-0.04207,0.00939,0.13152,0.98387,1.90921,1.41636
09:39:56.141335,1.92864,0.00633,0.06349,-0.23559,0.12581,19.16095,-0.00486,-0.04909,0.01458,0.14195,0.98680,1.92004,1.42613
09:39:56.152954,1.94024,0.00772,0.06596,-0.24029,0.11344,19.13206,-0.00287,-0.04955,0.00903,0.16665,0.99345,1.93168,1.40171
09:39:56.162742,1.94923,0.00636,0.06728,-0.24490,0.10474,19.04764,-0.00394,-0.05505,0.00641,0.11889,0.99241,1.94029,1.38217
09:39:56.171816,1.95910,0.00586,0.06932,-0.25022,0.09038,18.86189,0.00201,-0.04772,0.03074,0.16513,0.98247,1.95063,1.40659
09:39:56.183388,1.97000,0.00604,0.07040,-0.25665,0.07587,18.50656,-0.00303,-0.05291,0.02959,0.10785,0.97667,1.96191,1.42125
09:39:56.193100,1.98040,0.00607,0.07148,-0.26321,0.06076,18.12484,-0.00349,-0.05047,0.02721,0.12383,0.96654,1.97172,1.43346
09:39:56.203679,1.99096,0.00594,0.07226,-0.27071,0.04044,17.47896,-0.00181,-0.04726,0.00891,0.11590,0.96563,1.98252,1.39683
09:39:56.214260,2.00156,0.00603,0.07344,-0.27887,0.02563,17.14605,0.00384,-0.03886,0.00281,0.15598,0.97435,1.99274,1.40415
09:39:56.224643,2.01193,0.00622,0.07446,-0.28736,0.01922,17.14098,0.00339,-0.03718,-0.00128,0.15000,0.97649,2.00321,1.38950
09:39:56.234781,2.02207,0.00616,0.07524,-0.29664,0.00608,16.81767,-0.00181,-0.03291,0.00061,0.14847,0.99961,2.01342,1.37973
09:39:56.246004,2.03330,0.00716,0.07484,-0.30720,-0.00461,16.39396,0.00461,-0.03153,0.00110,0.07601,0.99241,2.02463,1.37973
09:39:56.255668,2.04294,0.00645,0.07516,-0.31716,-0.02064,15.86819,0.00384,-0.03092,-0.03001,0.13353,1.00101,2.03368,1.40659
09:39:56.266012,2.05332,0.00640,0.07594,-0.32859,-0.01973,16.16072,0.00751,-0.02985,0.01037,0.16427,0.97948,2.04453,1.42369
09:39:56.276046,2.06314,0.00586,0.07637,-0.33994,-0.03057,15.88937,0.00797,-0.03474,-0.00817,0.14750,0.97935,2.05467,1.37729
09:39:56.286348,2.07364,0.00593,0.07600,-0.35186,-0.03927,15.56909,0.00552,-0.04115,0.02470,0.09894,0.95886,2.06491,1.39194
09:39:56.296788,2.08407,0.00601,0.07563,-0.36417,-0.06004,14.74121,0.00384,-0.03963,-0.00079,0.11474,0.97167,2.07546,1.40171
09:39:56.306993,2.09428,0.00586,0.07566,-0.37626,-0.06951,14.46125,0.00522,-0.04039,0.00781,0.14573,0.97722,2.08561,1.36752
09:39:56.318777,2.10540,0.00677,0.07500,-0.38891,-0.08158,13.95293,0.00843,-0.04207,-0.01086,0.11560,0.98381,2.09693,1.38462
09:39:56.327543,2.11483,0.00585,0.07390,-0.40147,-0.08600,13.68760,0.00659,-0.04299,-0.01793,0.08028,1.00607,2.10635,1.39438
09:39:56.338739,2.12602,0.00631,0.07345,-0.41523,-0.08936,13.59673,0.00629,-0.04176,-0.01696,0.13005,0.99076,2.11693,1.37973
09:39:56.349142,2.13645,0.00558,0.07311,-0.43060,-0.09364,13.50141,0.01011,-0.04222,0.00299,0.14524,0.98747,2.12850,1.37241
09:39:56.360728,2.14803,0.00685,0.07279,-0.44506,-0.09196,13.65505,0.01072,-0.03856,-0.02111,0.13975,0.98088,2.13926,1.36996
09:39:56.370322,2.15761,0.00593,0.07193,-0.45904,-0.08677,13.85361,0.00827,-0.04039,-0.02660,0.09235,0.97252,2.14889,1.38217
09:39:56.380776,2.16806,0.00602,0.07096,-0.47418,-0.09013,13.68272,0.00904,-0.03336,-0.02342,0.09278,0.97752,2.15943,1.37241
09:39:56.390957,2.17824,0.00584,0.06949,-0.48904,-0.08891,13.61138,0.00537,-0.03153,-0.04282,0.05667,0.99521,2.16958,1.37729
09:39:56.401506,2.18881,0.00604,0.06831,-0.50464,-0.08646,13.65100,0.00736,-0.02634,-0.01964,0.07375,0.97911,2.18014,1.37729
09:39:56.411580,2.19888,0.00530,0.06796,-0.52054,-0.08723,13.70841,0.00812,-0.02008,-0.02214,0.13396,1.00790,2.19112,1.39683
09:39:56.423052,2.21032,0.00652,0.06781,-0.53580,-0.07944,14.15959,0.01163,-0.02313,-0.01592,0.13713,0.98655,2.20173,1.37485
09:39:56.432860,2.22014,0.00612,0.06763,-0.55167,-0.06615,14.84275,0.01224,-0.02405,-0.00464,0.12066,0.97923,2.21153,1.36996
09:39:56.443512,2.23079,0.00644,0.06706,-0.56721,-0.06325,15.01349,0.00965,-0.02222,-0.00909,0.09467,0.98210,2.22154,1.36508
09:39:56.454181,2.24147,0.00686,0.06609,-0.58411,-0.05485,15.35577,0.00659,-0.02161,-0.03416,0.06454,0.97234,2.23255,1.39438
09:39:56.463026,2.25033,0.00537,0.06585,-0.59922,-0.05653,15.38778,0.01072,-0.01947,-0.00171,0.11047,0.98997,2.24234,1.38706
09:39:56.474053,2.26133,0.00585,0.06543,-0.61584,-0.04889,15.79542,0.00675,-0.01993,-0.03709,0.09528,0.99485,2.25270,1.37485
09:39:56.485520,2.27211,0.00627,0.06446,-0.63305,-0.04951,15.75999,0.01072,-0.01611,-0.00335,0.06161,0.99595,2.26390,1.37485
09:39:56.493940,2.28124,0.00522,0.06476,-0.64853,-0.03988,16.37234,0.00690,-0.01107,-0.01452,0.13353,0.99381,2.27325,1.38462
09:39:56.505732,2.29250,0.00612,0.06511,-0.66539,-0.03164,16.94992,0.00873,-0.01107,-0.03245,0.13328,0.98204,2.28377,1.36996
09:39:56.514606,2.30191,0.00517,0.06534,-0.68173,-0.02186,17.56308,0.00873,-0.01030,0.02562,0.11706,0.97722,2.29392,1.37973
09:39:56.525857,2.31316,0.00605,0.06514,-0.69865,-0.01148,18.13033,0.00965,-0.01382,-0.03989,0.08259,0.97637,2.30447,1.39927
09:39:56.536200,2.32347,0.00601,0.06518,-0.71515,-0.01576,18.11787,0.00797,-0.01290,0.01921,0.10211,0.98143,2.31484,1.38950
09:39:56.546333,2.33363,0.00590,0.06484,-0.73191,-0.01560,18.22481,0.00812,-0.01000,-0.02227,0.07594,0.97899,2.32493,1.36996
09:39:56.556812,2.34408,0.00600,0.06411,-0.74917,-0.00476,18.71765,0.00888,-0.00740,0.00329,0.04337,0.99290,2.33548,1.39683
09:39:56.568621,2.35493,0.00664,0.06466,-0.76578,-0.00842,18.82454,0.00873,0.00145,0.01800,0.13255,1.00192,2.34587,1.38706
09:39:56.577440,2.36474,0.00609,0.06540,-0.78322,-0.00888,19.10791,0.00614,0.00145,0.03855,0.14207,0.97820,2.35603,1.34554
09:39:56.587525,2.37480,0.00591,0.06585,-0.80009,0.00181,19.80532,0.00537,0.00680,0.00586,0.11767,0.98875,2.36636,1.36996
09:39:56.600233,2.38690,0.00776,0.06619,-0.81758,0.00654,20.23853,0.00568,0.01535,0.01659,0.11071,1.01010,2.37661,1.35043
09:39:56.611696,2.39898,0.00738,0.06643,-0.83861,0.00990,20.62857,0.00782,0.00970,0.01122,0.09851,1.00339,2.39046,1.37241
09:39:56.626670,2.41396,0.01187,0.06690,-0.85952,0.01708,21.22044,0.00751,0.01947,0.01854,0.10895,0.99363,2.40206,1.37729
09:39:56.666855,2.45416,0.02138,0.06773,-0.91480,0.01601,21.86134,0.00018,0.02986,0.03239,0.10242,0.97136,2.44166,1.39438
09:39:56.697884,2.48518,0.01539,0.06843,-0.97786,-0.00262,21.81061,0.00094,0.02879,0.03294,0.14311,0.98161,2.47457,1.37485
09:39:56.727784,2.51507,0.01675,0.06808,-1.02399,-0.01850,21.52172,-0.00318,0.02986,0.05606,0.10571,0.96856,2.50650,1.38217
09:39:56.761723,2.54902,0.01676,0.06714,-1.07202,-0.03454,21.13619,-0.00425,0.03078,0.06844,0.10230,0.98948,2.53879,1.38950
09:39:56.788967,2.57625,0.01220,0.06583,-1.11546,-0.04263,20.97488,0.00125,0.02955,0.03196,0.08290,0.97203,2.56776,1.34799
09:39:56.814705,2.60201,0.01360,0.06450,-1.14753,-0.05760,20.41054,0.00018,0.02543,0.04154,0.09498,0.97027,2.59301,1.37241
09:39:56.838780,2.62607,0.01169,0.06312,-1.17445,-0.06966,19.90906,-0.00089,0.01612,0.01421,0.10498,0.98350,2.61691,1.38217
09:39:56.861965,2.64927,0.01024,0.06096,-1.20097,-0.08784,19.00227,0.00064,0.00604,0.00195,0.08406,0.97252,2.64168,1.41880
09:39:56.885988,2.67329,0.01208,0.05851,-1.22140,-0.10280,18.12228,0.00491,-0.00053,-0.00159,0.07436,0.98899,2.66423,1.39194
09:39:56.909757,2.69704,0.01068,0.05620,-1.23756,-0.11105,17.50871,0.00507,-0.00313,-0.01275,0.09925,0.99021,2.68769,1.40171
09:39:56.933775,2.72108,0.01084,0.05411,-1.24503,-0.11334,17.10389,0.00629,-0.00038,-0.00854,0.11785,0.98326,2.71213,1.37241
09:39:56.959247,2.74655,0.01243,0.05138,-1.24846,-0.10464,17.00993,0.00644,0.00023,-0.01946,0.06545,0.97691,2.73687,1.41636
09:39:56.977806,2.76511,0.01034,0.04959,-1.24967,-0.10693,16.59897,0.00919,0.00466,-0.02580,0.08930,0.98155,2.75599,1.50183
09:39:57.002006,2.78931,0.01017,0.04761,-1.24993,-0.09807,16.61581,0.00843,0.00558,-0.02239,0.10254,0.98503,2.78112,1.37485
09:39:57.026777,2.81408,0.01190,0.04563,-1.24888,-0.09288,16.46511,0.00888,0.01062,-0.01708,0.09113,0.99302,2.80597,1.36752
09:39:57.051141,2.83844,0.01012,0.04401,-1.24486,-0.07822,16.75387,0.01224,0.01612,-0.01287,0.08778,0.98911,2.83048,1.36752
09:39:57.076994,2.86402,0.01283,0.04249,-1.23991,-0.06951,16.79739,0.01011,0.01718,-0.00769,0.07509,0.97801,2.85451,1.37729
09:39:57.101118,2.88841,0.01096,0.04104,-1.23651,-0.06753,16.58592,0.01209,0.01749,0.00409,0.08162,0.99631,2.87954,1.34799
09:39:57.123082,2.91035,0.01006,0.04022,-1.23507,-0.05516,16.94566,0.00751,0.02742,0.00805,0.08918,0.99253,2.90139,1.49695
09:39:57.147039,2.93433,0.01063,0.03907,-1.23482,-0.04187,17.29728,0.00476,0.03062,0.01751,0.05173,0.97887,2.92487,1.33333
09:39:57.168175,2.95526,0.00930,0.03846,-1.23467,-0.03561,17.45032,0.00201,0.03994,0.00836,0.07765,0.99948,2.94820,1.36508
09:39:57.180087,2.96717,0.01063,0.03842,-1.23450,-0.03026,17.66708,0.00797,0.04467,0.00250,0.08101,0.99668,2.95878,1.40171
09:39:57.203011,2.99031,0.01221,0.03813,-1.23436,-0.02278,17.93037,0.00491,0.04681,0.00677,0.07558,0.98314,2.98080,1.27961
09:39:57.228827,3.01612,0.01134,0.03795,-1.23436,-0.01698,18.14402,0.00384,0.04727,-0.01757,0.07857,0.99229,3.00603,1.40171
09:39:57.252535,3.03982,0.01065,0.03761,-1.23436,-0.02018,17.94705,0.00644,0.03750,-0.00695,0.07137,0.97563,3.03084,1.40904
09:39:57.277925,3.06523,0.01033,0.03707,-1.23436,-0.02370,17.69949,0.00461,0.03337,-0.00384,0.06472,0.98454,3.05632,1.39683
09:39:57.302809,3.09009,0.01158,0.03723,-1.23436,-0.01881,17.93600,0.00629,0.03169,0.03812,0.10358,0.99637,3.08153,1.39683
09:39:57.325182,3.11248,0.01064,0.03750,-1.23428,-0.01850,17.99586,0.00415,0.02986,0.04063,0.10272,0.96349,3.10368,0.96947
09:39:57.347419,3.13404,0.01015,0.03779,-1.23405,-0.02110,17.93703,0.00430,0.02849,0.02464,0.11041,0.98570,3.12527,0.83272
09:39:57.372139,3.15921,0.01151,0.03726,-1.23399,-0.02309,17.75634,0.00644,0.03169,0.00586,0.06686,0.98503,3.15205,3.06716
09:39:57.395692,3.18298,0.01222,0.03694,-1.23399,-0.01805,17.91100,-0.00104,0.03215,0.01531,0.06496,0.98472,3.17367,3.07937
09:39:57.419391,3.20668,0.01083,0.03673,-1.23399,-0.02034,17.77539,0.00201,0.02849,0.02458,0.07985,0.99174,3.19835,3.08181
09:39:57.445251,3.23255,0.01239,0.03563,-1.23399,-0.03286,17.04595,0.00690,0.02177,0.01238,0.04337,0.98887,3.22403,3.09646
09:39:57.469825,3.25713,0.01270,0.03467,-1.23399,-0.04218,16.47629,0.00171,0.02009,0.01348,0.06143,0.98533,3.24793,3.09646
09:39:57.490658,3.27795,0.01097,0.03384,-1.23399,-0.04767,16.09315,0.00155,0.01657,0.00573,0.06808,0.98747,3.26858,3.09402
09:39:57.514929,3.30223,0.00995,0.03256,-1.23399,-0.05287,15.63973,0.00583,0.00985,0.00677,0.05874,0.98753,3.29352,3.10134
09:39:57.526542,3.31384,0.01033,0.03197,-1.23399,-0.05729,15.34484,0.00751,0.00970,0.00817,0.05893,0.98393,3.30468,3.10379
09:39:57.548549,3.33583,0.00998,0.03083,-1.23399,-0.05974,15.03447,0.00537,-0.00313,0.00665,0.06747,0.98478,3.32704,3.10623
09:39:57.559756,3.34706,0.00956,0.03026,-1.23399,-0.06554,14.68411,0.00415,0.00069,-0.00079,0.06320,0.98582,3.33794,3.08181
09:39:57.571367,3.35866,0.01029,0.02975,-1.23399,-0.06462,14.63000,0.00598,-0.00236,0.00537,0.06869,0.98478,3.34946,3.08669
09:39:57.597631,3.38493,0.01307,0.02795,-1.23399,-0.07104,14.03062,0.00629,-0.00313,0.00939,0.05606,0.98448,3.37576,3.09158
09:39:57.618717,3.40602,0.00960,0.02714,-1.23397,-0.06936,13.95383,0.00079,-0.00465,0.01068,0.09339,0.98393,3.39689,1.71184
09:39:57.630705,3.41798,0.00987,0.02644,-1.23397,-0.06661,13.94432,0.00430,-0.00114,0.01080,0.05880,0.98979,3.40920,1.47009
09:39:57.640689,3.42799,0.00925,0.02580,-1.23397,-0.06890,13.73030,0.00522,0.00115,0.01202,0.05771,0.99607,3.42020,1.43101
09:39:57.652878,3.44016,0.01097,0.02541,-1.23397,-0.06722,13.73090,0.00384,0.00039,0.00915,0.07344,0.99143,3.43140,1.40659
09:39:57.677598,3.46490,0.01058,0.02394,-1.23397,-0.06905,13.38551,0.00369,0.00359,0.02129,0.06417,0.98295,3.45640,1.40171
09:39:57.697286,3.48459,0.01038,0.02297,-1.23397,-0.06661,13.31293,0.00125,0.00573,0.00708,0.06551,0.98887,3.47520,1.38950
09:39:57.719351,3.50665,0.01154,0.02163,-1.23397,-0.06249,13.24430,0.00537,0.00634,0.00244,0.05264,0.98954,3.49831,1.38462
09:39:57.743031,3.53033,0.00963,0.02038,-1.23388,-0.05913,13.15716,0.00415,0.00756,0.00573,0.05539,0.98924,3.52240,1.49451
09:39:57.755337,3.54261,0.01156,0.02007,-1.23368,-0.05577,13.24209,0.00400,0.00848,-0.00311,0.06503,0.99119,3.53357,1.25275
09:39:57.778829,3.56613,0.01122,0.01877,-1.23235,-0.04813,13.31634,0.00476,0.00817,-0.00323,0.03178,0.98979,3.55702,1.45788
09:39:57.798601,3.58589,0.01119,0.01784,-1.22949,-0.04523,13.24217,0.00644,0.00466,-0.00927,0.04014,0.97923,3.57713,1.41148
09:39:57.822991,3.61029,0.01178,0.01687,-1.22267,-0.04691,12.92938,0.00797,-0.00557,0.00482,0.05130,0.95685,3.60164,1.38462
09:39:57.844380,3.63168,0.01009,0.01574,-1.21413,-0.05088,12.47200,0.01286,-0.00924,-0.01653,0.03709,0.98661,3.62312,1.38217
09:39:57.868575,3.65587,0.01065,0.01413,-1.20190,-0.06539,11.44523,0.02034,-0.00908,0.05112,0.03343,0.99875,3.64659,1.37241
09:39:57.893759,3.68105,0.01219,0.01190,-1.18614,-0.09196,9.76182,0.00568,-0.02955,0.02678,0.04599,1.00687,3.67231,1.36996
09:39:57.917242,3.70455,0.01171,0.00936,-1.17201,-0.11258,8.28871,0.01011,-0.04619,0.03331,0.03697,1.00528,3.69530,1.39194
09:39:57.940950,3.72822,0.01115,0.00639,-1.15786,-0.13380,6.71248,0.00583,-0.05749,0.03544,0.03941,0.97252,3.71856,1.38706
09:39:57.966046,3.75334,0.01174,0.00281,-1.14340,-0.14617,5.39771,0.00950,-0.05200,-0.00256,0.04227,0.97069,3.74472,1.36996
09:39:57.990167,3.77747,0.01037,-0.00011,-1.12647,-0.14465,4.76714,0.01774,-0.04680,0.02129,0.06271,0.98198,3.76905,1.38217
09:39:58.013815,3.80109,0.01197,-0.00252,-1.11275,-0.13472,4.61672,0.01148,-0.03825,0.03965,0.06448,1.01437,3.79162,1.39438
09:39:58.034969,3.82227,0.00869,-0.00507,-1.09766,-0.11151,4.98872,0.00232,-0.03321,0.02312,0.01848,0.99589,3.81444,1.35775
09:39:58.046457,3.83376,0.00988,-0.00599,-1.09061,-0.10173,5.16824,0.00629,-0.03107,0.00207,0.03032,0.99436,3.82521,1.36508
09:39:58.057902,3.84451,0.00901,-0.00681,-1.08374,-0.10097,4.98427,0.00308,-0.01962,0.01037,0.03312,0.96819,3.83584,1.37973
09:39:58.069075,3.85637,0.01040,-0.00807,-1.07643,-0.09547,4.91806,0.00430,-0.01901,0.00122,0.00458,0.97649,3.84712,1.37241
09:39:58.093782,3.88108,0.01104,-0.00995,-1.06019,-0.08356,4.92289,0.00461,-0.00740,-0.02269,0.02843,0.98667,3.87224,1.37973
09:39:58.117213,3.90451,0.01196,-0.01139,-1.04202,-0.07348,4.91295,0.00461,-0.01183,-0.00708,0.03032,1.00321,3.89529,1.40415
09:39:58.142387,3.92967,0.01147,-0.01270,-1.02054,-0.07165,4.54261,0.00094,-0.01596,0.00445,0.04416,0.98625,3.92069,1.37241
09:39:58.166908,3.95420,0.01080,-0.01433,-0.99733,-0.07669,3.80875,-0.00043,-0.01764,0.00732,0.02904,0.98588,3.94569,1.36508
09:39:58.190156,3.97746,0.01149,-0.01575,-0.97319,-0.07318,3.46556,0.00278,-0.02466,-0.00049,0.02599,0.98887,3.96871,1.38706
09:39:58.212486,3.99976,0.01028,-0.01688,-0.95074,-0.06707,3.30009,0.00278,-0.02161,0.00159,0.03245,1.00412,3.99126,1.37485
09:39:58.236290,4.02359,0.01153,-0.01810,-0.92411,-0.05592,3.29399,0.00018,-0.01260,0.00598,0.01360,0.99497,4.01489,1.39927
09:39:58.260388,4.04767,0.01091,-0.01879,-0.89954,-0.04935,3.20793,0.00125,-0.00527,0.00134,0.03306,0.98393,4.03754,1.37729
09:39:58.284697,4.07197,0.01191,-0.01924,-0.87404,-0.03652,3.42273,-0.00257,-0.00313,-0.00518,0.03745,0.98387,4.06347,1.38950
09:39:58.302092,4.08939,0.00738,-0.01946,-0.85180,-0.03179,3.36755,-0.00303,-0.00252,-0.01677,0.02769,0.99625,4.08128,1.36020
09:39:58.311307,4.09860,0.00640,-0.01959,-0.84297,-0.03561,3.09726,-0.00349,-0.00206,-0.02220,0.01568,0.98893,4.08948,1.37241
09:39:58.322351,4.10911,0.00655,-0.01972,-0.83167,-0.03591,2.94992,0.00079,-0.00145,-0.00372,0.02159,0.99058,4.10049,1.36752
09:39:58.330792,4.11810,0.00519,-0.02009,-0.82126,-0.03591,2.78303,-0.00104,0.00191,-0.00543,0.00378,0.99631,4.11030,1.39438
09:39:58.341994,4.12929,0.00618,-0.01973,-0.81008,-0.03255,2.88233,-0.00593,0.00817,0.01092,0.04990,0.98826,4.12060,1.36996
09:39:58.352246,4.13953,0.00605,-0.01931,-0.79901,-0.01866,3.43964,-0.00868,0.01382,0.00275,0.04483,0.99241,4.13084,1.38462
09:39:58.362812,4.14961,0.00588,-0.01866,-0.78766,-0.01209,3.72628,-0.00593,0.01810,-0.00409,0.05642,0.99448,4.14094,1.38217
09:39:58.373333,4.16063,0.00655,-0.01860,-0.77580,-0.00232,4.03695,-0.00776,0.01764,0.00006,0.01165,0.99113,4.15165,1.39683
09:39:58.383004,4.17029,0.00584,-0.01865,-0.76420,0.00272,4.12926,-0.00303,0.02177,-0.01330,0.00098,0.99247,4.16163,1.36020
09:39:58.393560,4.18086,0.00605,-0.01846,-0.75206,-0.00003,3.92876,-0.00669,0.02787,-0.00775,0.01781,0.97411,4.17219,1.36752
09:39:58.402965,4.19026,0.00526,-0.01824,-0.74040,-0.00155,3.79051,-0.00639,0.02894,-0.00293,0.02117,0.97838,4.18249,1.37729
09:39:58.414100,4.20139,0.00587,-0.01802,-0.72809,0.00440,3.96467,-0.00394,0.03536,-0.02934,0.01793,0.97234,4.19274,1.39438
09:39:58.425244,4.21200,0.00612,-0.01682,-0.71580,0.00731,4.18563,-0.01021,0.03536,0.00842,0.08119,0.99936,4.20329,1.37485
09:39:58.434657,4.22194,0.00587,-0.01666,-0.70355,0.01464,4.40775,-0.00791,0.03719,-0.01623,0.00921,0.99686,4.21330,1.37241
09:39:58.445137,4.23244,0.00601,-0.01643,-0.69061,0.00975,4.11755,-0.01097,0.03795,0.00030,0.01653,0.99137,4.22380,1.36508
09:39:58.455409,4.24270,0.00585,-0.01602,-0.67773,0.00501,3.86602,-0.00608,0.03780,-0.00171,0.03154,0.98966,4.23404,1.36996
09:39:58.466142,4.25343,0.00587,-0.01569,-0.66395,0.00669,3.86450,-0.00593,0.03230,0.01775,0.02580,0.98649,4.24479,1.35775
09:39:58.476905,4.26419,0.00644,-0.01509,-0.65008,0.00929,3.94830,-0.00562,0.03169,-0.01830,0.04087,0.97301,4.25558,1.36752
09:39:58.485843,4.27314,0.00519,-0.01451,-0.63749,0.00563,3.77653,-0.00669,0.03230,0.01848,0.04441,0.99406,4.26517,1.38706
09:39:58.497271,4.28457,0.00625,-0.01456,-0.62354,0.00669,3.67709,-0.00669,0.03185,-0.00769,0.00159,0.96569,4.27641,1.38217
09:39:58.508909,4.29620,0.00697,-0.01492,-0.60984,-0.00216,3.10436,-0.00623,0.03398,0.01324,-0.01159,0.95794,4.28763,1.37729
09:39:58.518376,4.30566,0.00595,-0.01449,-0.59702,-0.00583,2.90293,-0.01066,0.03536,-0.00750,0.04075,0.97313,4.29693,1.37485
09:39:58.529714,4.31700,0.00694,-0.01377,-0.58380,-0.00919,2.76286,-0.01036,0.03276,0.02135,0.06423,0.99198,4.30818,1.36264
09:39:58.538967,4.32626,0.00601,-0.01321,-0.57132,-0.00736,2.82211,-0.00043,0.03765,0.00372,0.05283,0.99692,4.31758,1.38950
09:39:58.549476,4.33676,0.00611,-0.01230,-0.55799,0.00425,3.35074,-0.00746,0.04131,0.01348,0.06917,0.99674,4.32813,1.39683
09:39:58.559657,4.34695,0.00592,-0.01186,-0.54505,0.00456,3.31682,-0.01036,0.04467,0.00360,0.03672,0.96648,4.33842,1.37973
09:39:58.570339,4.35748,0.00626,-0.01138,-0.53147,0.00456,3.27251,-0.00807,0.05002,-0.01366,0.04069,0.97618,4.34870,1.37241
09:39:58.581466,4.36876,0.00718,-0.01172,-0.51805,0.00425,3.06909,-0.00562,0.05246,-0.00933,-0.01189,0.98899,4.35967,1.37973
09:39:58.590363,4.37766,0.00588,-0.01138,-0.50444,-0.00232,2.72030,-0.00791,0.05918,0.00628,0.03709,1.00796,4.36901,1.37485
09:39:58.601981,4.38928,0.00714,-0.01093,-0.48896,0.00257,2.85841,-0.00959,0.05552,0.00714,0.04014,0.97935,4.38061,1.37973
09:39:58.611001,4.39829,0.00594,-0.01016,-0.47696,0.00517,2.99250,-0.00822,0.05445,0.01232,0.06137,0.98814,4.38969,1.37241
09:39:58.621435,4.40873,0.00601,-0.00946,-0.46320,0.00333,2.90848,-0.00349,0.05399,-0.01684,0.05850,0.99607,4.40011,1.39438
09:39:58.631684,4.41897,0.00589,-0.00910,-0.44996,0.00395,2.87132,-0.01021,0.05643,-0.00140,0.03556,0.97734,4.41048,1.39683
09:39:58.641455,4.42876,0.00519,-0.00947,-0.43620,-0.00064,2.47774,-0.00746,0.05903,0.02641,-0.00836,1.00113,4.42076,1.39194
09:39:58.652677,4.43996,0.00603,-0.00883,-0.42236,-0.01026,2.05169,-0.01433,0.06560,-0.01232,0.06484,1.00168,4.43134,1.39438
09:39:58.663000,4.45030,0.00519,-0.00924,-0.40685,-0.01637,1.56820,-0.00837,0.06453,0.02391,0.00049,0.99473,4.44251,1.39194
09:39:58.675438,4.46203,0.00584,-0.00883,-0.39012,-0.01896,1.37096,-0.00623,0.07125,-0.00866,0.05661,0.99046,4.45401,1.39927
09:39:58.685600,4.47290,0.00635,-0.00805,-0.37532,-0.01744,1.43448,-0.00333,0.06957,0.01885,0.07875,0.99143,4.46395,1.36020
09:39:58.695479,4.48277,0.00586,-0.00743,-0.36015,-0.01927,1.32184,-0.00562,0.07140,-0.00146,0.06863,0.96959,4.47428,1.38950
09:39:58.705864,4.49317,0.00571,-0.00703,-0.34444,-0.02751,0.89346,-0.00349,0.06743,0.02855,0.06173,0.97893,4.48479,1.40659
09:39:58.717285,4.50407,0.00612,-0.00789,-0.32905,-0.03240,0.38031,-0.00410,0.06682,-0.01482,-0.01665,0.96612,4.49548,1.39927
09:39:58.726032,4.51334,0.00520,-0.00737,-0.31436,-0.04691,-0.28177,-0.00425,0.06850,0.00116,0.08040,0.97905,4.50536,1.40171
09:39:58.737250,4.52455,0.00605,-0.00775,-0.29936,-0.05103,-0.67060,-0.00517,0.07063,-0.00372,0.02714,0.99497,4.51589,1.39927
09:39:58.747367,4.53396,0.00523,-0.00827,-0.28515,-0.06157,-1.35058,-0.00074,0.07797,-0.00268,0.02251,1.00192,4.52598,1.42369
09:39:58.758290,4.54558,0.00651,-0.00817,-0.27032,-0.07058,-1.85688,-0.00013,0.07812,0.00641,0.07149,0.99314,4.53646,1.41392
09:39:58.768210,4.55549,0.00605,-0.00808,-0.25594,-0.07363,-2.11019,-0.00272,0.08102,0.02452,0.07107,0.98289,4.54683,1.44322
09:39:58.778309,4.56560,0.00585,-0.00822,-0.24136,-0.07852,-2.48285,0.00018,0.07980,0.00842,0.05880,0.98301,4.55695,1.44322
09:39:58.789186,4.57648,0.00605,-0.00904,-0.22605,-0.08478,-3.04674,0.00033,0.07827,-0.01299,0.02166,0.99381,4.56782,1.45543
09:39:58.799529,4.58682,0.00602,-0.00965,-0.21170,-0.09150,-3.58114,0.00186,0.07827,0.01641,0.03501,0.97325,4.57798,1.44811
09:39:58.810298,4.59760,0.00644,-0.01064,-0.19696,-0.09914,-4.22739,0.00293,0.07842,-0.04471,0.01720,0.97722,4.58852,1.42857
09:39:58.820186,4.60746,0.00577,-0.01120,-0.18275,-0.10632,-4.77016,0.00507,0.07812,-0.01305,0.04758,0.97222,4.59883,1.44078
09:39:58.830866,4.61745,0.00572,-0.01277,-0.16812,-0.11609,-5.61267,0.01041,0.07705,-0.03215,-0.01013,0.98332,4.60951,1.44567
09:39:58.840876,4.62817,0.00609,-0.01337,-0.15408,-0.12938,-6.41949,0.00507,0.08041,-0.02641,0.05581,0.98039,4.61948,1.46276
09:39:58.850989,4.63828,0.00583,-0.01449,-0.14035,-0.12724,-6.66567,0.00675,0.07522,-0.01824,0.02086,0.97704,4.62963,1.45543
09:39:58.861551,4.64885,0.00605,-0.01593,-0.12654,-0.13610,-7.43722,0.00934,0.07461,0.01049,0.00817,1.00156,4.64019,1.43101
09:39:58.872198,4.65948,0.00607,-0.01795,-0.11369,-0.14617,-8.35638,0.00843,0.06621,0.01635,-0.02611,1.00113,4.65061,1.44567
09:39:58.883195,4.67050,0.00663,-0.01938,-0.10079,-0.16038,-9.34296,0.00614,0.06804,-0.03196,0.02306,1.00772,4.66120,1.47009
09:39:58.892930,4.68022,0.00599,-0.02055,-0.08867,-0.16343,-9.80215,0.00919,0.06651,-0.04081,0.03910,1.00107,4.67161,1.47009
09:39:58.903279,4.69057,0.00616,-0.02200,-0.07763,-0.16435,-10.21193,0.01408,0.06056,-0.03355,0.01671,0.97277,4.68180,1.46276
09:39:58.914071,4.70135,0.00657,-0.02414,-0.06750,-0.17290,-11.06315,0.01667,0.05307,-0.02147,-0.01580,0.94678,4.69272,1.47009
09:39:58.924996,4.71175,0.00603,-0.02604,-0.05878,-0.17977,-11.78378,0.01286,0.05109,-0.00311,-0.00317,0.97167,4.70313,1.46032
09:39:58.935117,4.72190,0.00598,-0.02809,-0.05244,-0.18771,-12.55427,0.00720,0.03902,0.00226,-0.01305,0.97826,4.71325,1.47009
09:39:58.945468,4.73225,0.00597,-0.02977,-0.04772,-0.18909,-12.96324,0.00888,0.03459,-0.02275,0.01409,1.00888,4.72367,1.47985
09:39:58.955224,4.74251,0.00587,-0.03209,-0.04444,-0.19291,-13.57943,0.01866,0.03276,-0.03788,-0.03209,1.01711,4.73382,1.45055
09:39:58.965741,4.75304,0.00605,-0.03447,-0.04192,-0.19657,-14.19174,0.02293,0.03414,-0.02757,-0.02995,0.99765,4.74437,1.45543
09:39:58.976838,4.76326,0.00591,-0.03610,-0.03991,-0.19520,-14.45013,0.02034,0.03612,0.00976,0.02336,0.97856,4.75550,1.48474
09:39:58.986868,4.77346,0.00574,-0.03768,-0.03829,-0.18451,-14.29923,0.01408,0.04070,0.01568,0.00464,0.97136,4.76552,1.44078
09:39:58.996789,4.78408,0.00600,-0.04034,-0.03705,-0.18634,-14.87310,0.01041,0.03520,-0.01177,-0.06808,0.98362,4.77545,1.49939
09:39:59.006891,4.79419,0.00575,-0.04320,-0.03614,-0.19642,-15.82916,0.01102,0.02528,-0.01964,-0.07460,0.98960,4.78563,1.48230
09:39:59.018811,4.80611,0.00732,-0.04556,-0.03566,-0.19978,-16.40584,0.01240,0.01367,-0.03385,-0.01836,0.99826,4.79766,1.79731
09:39:59.026907,4.81421,0.00524,-0.04690,-0.03563,-0.19703,-16.53341,0.01484,0.00344,-0.01385,0.00354,0.99223,4.80647,1.53358
09:39:59.037885,4.82491,0.00542,-0.04866,-0.03569,-0.18252,-16.23877,0.01973,-0.00160,-0.00982,-0.01708,0.98472,4.81669,2.56654
09:39:59.047723,4.83503,0.00518,-0.05073,-0.03583,-0.17565,-16.32145,0.01912,-0.00908,-0.00122,-0.03916,0.98393,4.82726,1.44811
09:39:59.058967,4.84624,0.00619,-0.05287,-0.03609,-0.17076,-16.50157,0.01255,-0.01092,-0.01940,-0.05264,0.98588,4.83758,1.49695
09:39:59.069168,4.85647,0.00621,-0.05496,-0.03648,-0.16206,-16.50838,0.01255,-0.00817,-0.03062,-0.05868,0.99662,4.84778,1.41880
09:39:59.078466,4.86577,0.00515,-0.05696,-0.03699,-0.14648,-16.20794,0.01637,-0.00435,-0.02257,-0.06753,0.99692,4.85781,1.48474
09:39:59.089013,4.87632,0.00534,-0.05894,-0.03767,-0.13518,-16.08299,0.01163,0.00329,-0.01019,-0.07076,0.99515,4.86835,1.49451
09:39:59.099172,4.88648,0.00513,-0.06048,-0.03849,-0.12525,-15.93468,0.01072,0.01138,0.00189,-0.05130,0.98545,4.87870,1.47009
09:39:59.111091,4.89837,0.00600,-0.06136,-0.03954,-0.10250,-15.12015,0.00491,0.02207,-0.00842,-0.02074,0.99131,4.88963,1.47009
09:39:59.120822,4.90725,0.00518,-0.06188,-0.04067,-0.09043,-14.69284,0.00079,0.02436,-0.01915,-0.01311,0.99009,4.89945,1.42613
09:39:59.131024,4.91761,0.00535,-0.06258,-0.04175,-0.07211,-14.03238,0.00675,0.02070,-0.02440,-0.03489,0.99027,4.90969,1.50672
09:39:59.141908,4.92919,0.00657,-0.06330,-0.04271,-0.06096,-13.68272,0.00583,0.02024,-0.01434,-0.04441,0.98533,4.92002,1.42613
09:39:59.151493,4.93878,0.00580,-0.06389,-0.04344,-0.05027,-13.32992,0.00614,0.01902,0.00152,-0.04307,0.97868,4.93035,1.43346
09:39:59.161371,4.94867,0.00518,-0.06445,-0.04387,-0.04111,-13.03851,0.00461,0.01703,-0.00165,-0.04770,0.98521,4.94070,1.42369
09:39:59.172938,4.96023,0.00637,-0.06566,-0.04395,-0.03439,-12.97278,0.00278,0.01337,-0.01141,-0.09540,0.98509,4.95128,1.62149
09:39:59.183156,4.97043,0.00604,-0.06603,-0.04395,-0.03103,-12.89850,-0.00013,0.01169,-0.00860,-0.04435,0.99369,4.96180,1.48474
09:39:59.194306,4.98081,0.00606,-0.06612,-0.04395,-0.01866,-12.38959,-0.00058,0.01169,-0.00030,-0.03428,0.99753,4.97215,1.47253
09:39:59.202967,4.99028,0.00517,-0.06649,-0.04395,-0.00797,-12.00416,-0.00043,0.00298,-0.00384,-0.06082,0.99790,4.98249,1.45788
09:39:59.214218,5.00152,0.00593,-0.06704,-0.04395,-0.00583,-12.01453,0.00094,0.00069,-0.00439,-0.07405,0.98930,4.99345,1.46520
09:39:59.226114,5.01280,0.00675,-0.06698,-0.04395,-0.00109,-11.80291,-0.00211,-0.00404,-0.00592,-0.03709,0.98478,5.00420,1.45543
09:39:59.235135,5.02243,0.00602,-0.06675,-0.04395,0.00700,-11.41881,0.00247,-0.00481,-0.00366,-0.03105,0.98137,5.01360,1.45299
09:39:59.246114,5.03284,0.00607,-0.06684,-0.04395,0.01509,-11.09054,-0.00287,-0.01321,0.00604,-0.05679,0.97771,5.02417,1.48230
09:39:59.256596,5.04304,0.00572,-0.06684,-0.04395,0.01632,-11.03889,-0.00196,-0.01336,0.00958,-0.05368,0.98954,5.03528,1.48962
09:39:59.266329,5.05362,0.00590,-0.06633,-0.04395,0.01601,-10.96071,-0.00196,-0.01153,0.01092,-0.01885,0.99277,5.04493,1.47741
09:39:59.276935,5.06422,0.00614,-0.06573,-0.04395,0.02059,-10.65749,-0.00349,-0.00771,0.00165,-0.01616,0.99833,5.05561,1.48474
09:39:59.286993,5.07427,0.00584,-0.06513,-0.04395,0.02670,-10.28833,-0.00333,-0.01092,0.00561,-0.01812,0.99235,5.06562,1.47253
09:39:59.297560,5.08487,0.00607,-0.06454,-0.04395,0.03067,-10.01386,-0.00333,-0.00985,0.00744,-0.02251,0.98564,5.07616,1.48718
09:39:59.307723,5.09501,0.00586,-0.06390,-0.04395,0.02991,-9.92955,-0.00165,-0.00893,0.01366,-0.01720,0.97899,5.08654,1.46276
09:39:59.318220,5.10552,0.00542,-0.06345,-0.04395,0.03678,-9.55575,-0.00349,-0.00527,0.00970,-0.03501,0.98003,5.09760,1.47497
09:39:59.330033,5.11731,0.00659,-0.06294,-0.04395,0.03434,-9.56747,-0.00501,-0.00252,-0.00201,-0.02977,0.98503,5.10869,1.48962
09:39:59.340163,5.12726,0.00618,-0.06231,-0.04395,0.03418,-9.45927,-0.00303,0.00039,0.00049,-0.01800,0.98564,5.11846,1.46520
09:39:59.350556,5.13784,0.00627,-0.06137,-0.04395,0.03250,-9.35866,-0.00074,0.00787,0.00415,0.00323,0.99113,5.12877,1.47497
09:39:59.361199,5.14848,0.00655,-0.06043,-0.04395,0.03815,-8.94860,0.00201,0.01046,0.01562,-0.00067,0.98991,5.13933,1.45299
09:39:59.370683,5.15797,0.00585,-0.05967,-0.04395,0.03785,-8.82363,0.00079,0.01505,0.01513,-0.01006,0.98911,5.14935,1.48962
09:39:59.380519,5.16782,0.00548,-0.05904,-0.04395,0.03663,-8.76124,-0.01097,0.02345,0.01763,-0.01830,0.98735,5.15986,1.46276
09:39:59.391292,5.17858,0.00589,-0.05844,-0.04395,0.04594,-8.25568,-0.00364,0.01932,0.01098,-0.02373,0.98911,5.16987,1.48718
09:39:59.401852,5.18842,0.00536,-0.05801,-0.04395,0.04182,-8.35314,-0.00425,0.01795,0.01006,-0.03410,0.98710,5.18043,1.49939
09:39:59.412664,5.19994,0.00652,-0.05759,-0.04395,0.03861,-8.41262,-0.00013,0.01581,0.01403,-0.03123,0.98497,5.19080,1.47009
09:39:59.421990,5.20930,0.00568,-0.05713,-0.04395,0.03128,-8.63893,-0.00089,0.00405,0.01147,-0.02281,0.98692,5.20103,1.45788
09:39:59.434200,5.22072,0.00615,-0.05640,-0.04395,0.02914,-8.59812,-0.00517,-0.00374,0.01049,-0.00549,0.98710,5.21211,1.47253
09:39:59.442821,5.23012,0.00520,-0.05587,-0.04395,0.03327,-8.32535,-0.00349,-0.00878,0.00348,-0.01806,0.98954,5.22235,1.48230
09:39:59.454524,5.24129,0.00583,-0.05513,-0.04395,0.03327,-8.19249,-0.00181,-0.00557,0.01360,-0.00500,0.99088,5.23264,1.46764
09:39:59.464556,5.25184,0.00602,-0.05468,-0.04395,0.03006,-8.24507,-0.00058,-0.00343,0.01458,-0.02068,0.99040,5.24322,1.47009
09:39:59.475718,5.26225,0.00624,-0.05425,-0.04387,0.02456,-8.40040,-0.00043,0.00084,0.01818,-0.01751,0.99082,5.25334,1.18926
09:39:59.484872,5.27218,0.00581,-0.05388,-0.04367,0.02273,-8.41428,-0.00104,0.00833,0.01446,-0.02092,0.99125,5.26375,1.67766
09:39:59.496224,5.28350,0.00678,-0.05355,-0.04344,0.01861,-8.53033,-0.00074,0.00741,0.00256,-0.01921,0.99033,5.27390,1.58486
09:39:59.505867,5.29317,0.00608,-0.05291,-0.04322,0.01800,-8.44199,0.00049,0.00680,0.00756,0.00122,0.98802,5.28446,1.62637
09:39:59.516179,5.30328,0.00583,-0.05227,-0.04308,0.00960,-8.68225,-0.00196,0.00252,0.00043,0.00793,0.98710,5.29482,1.02076
09:39:59.526739,5.31402,0.00638,-0.05167,-0.04302,0.00883,-8.60582,0.00323,-0.00023,0.00787,0.00641,0.98478,5.30498,2.97192
09:39:59.536765,5.32405,0.00604,-0.05125,-0.04302,0.00089,-8.86591,-0.00425,-0.00359,-0.00067,0.00030,0.98960,5.31539,3.10134
09:39:59.546209,5.33352,0.00516,-0.05104,-0.04302,-0.00904,-9.24840,-0.00226,-0.00801,0.00165,-0.00659,0.98570,5.32553,3.13797
09:39:59.557054,5.34436,0.00537,-0.05087,-0.04302,-0.01514,-9.47755,0.00262,-0.00985,-0.00329,-0.00470,0.98728,5.33642,3.13797
09:39:59.567663,5.35497,0.00562,-0.05061,-0.04302,-0.01850,-9.57136,0.00049,-0.00328,0.00451,0.00396,0.98704,5.34672,3.14042
09:39:59.578878,5.36616,0.00637,-0.05044,-0.04299,-0.02400,-9.77355,0.00323,0.00344,0.01013,0.00189,0.98643,5.35724,1.96093
09:39:59.588928,5.37621,0.00605,-0.05038,-0.04299,-0.02370,-9.74987,0.00201,0.00329,0.00732,-0.00573,0.98857,5.36760,1.56044
09:39:59.598368,5.38567,0.00516,-0.05035,-0.04299,-0.02370,-9.74559,0.00094,0.00802,0.00793,-0.00842,0.98905,5.37770,1.50916
09:39:59.610452,5.39748,0.00603,-0.05023,-0.04299,-0.02324,-9.70340,0.00110,0.01245,0.00427,-0.00134,0.99357,5.38824,1.50183
09:39:59.619324,5.40663,0.00540,-0.05039,-0.04299,-0.03072,-10.05042,0.00140,0.01169,0.00464,-0.01555,0.98985,5.39861,1.48962
09:39:59.629998,5.41730,0.00541,-0.05060,-0.04299,-0.03194,-10.13975,-0.00181,0.00909,0.00805,-0.01720,0.99149,5.40922,1.50427
09:39:59.641580,5.42889,0.00587,-0.05094,-0.04299,-0.03591,-10.36973,-0.00028,0.00481,0.00781,-0.02080,0.98765,5.42092,1.47741
09:39:59.652366,5.43967,0.00595,-0.05117,-0.04299,-0.04294,-10.70929,0.00507,0.00680,0.00665,-0.01116,0.98741,5.43172,1.47253
09:39:59.662418,5.44972,0.00581,-0.05133,-0.04299,-0.04401,-10.78423,0.00125,0.00558,0.00342,-0.00994,0.99082,5.44121,1.48718
09:39:59.673339,5.46064,0.00638,-0.05147,-0.04299,-0.05042,-11.08065,0.00384,0.00527,0.01116,0.00220,0.98405,5.45270,1.46764
09:39:59.683157,5.47044,0.00599,-0.05145,-0.04299,-0.04951,-11.03910,0.00308,0.00848,0.00567,0.00360,0.98106,5.46179,1.48230
09:39:59.693772,5.48108,0.00638,-0.05154,-0.04296,-0.05027,-11.08803,0.00262,0.00970,0.00817,0.00439,0.98875,5.47309,0.87668
09:39:59.705012,5.49232,0.00690,-0.05186,-0.04291,-0.05241,-11.23700,-0.00043,0.00848,0.00311,-0.01311,0.99149,5.48325,1.31136
09:39:59.714555,5.50113,0.00523,-0.05230,-0.04282,-0.05806,-11.55687,0.00446,0.01214,0.00409,-0.01854,0.98924,5.49315,1.15018
09:39:59.725618,5.51292,0.00666,-0.05285,-0.04262,-0.06753,-12.05976,0.00262,0.00848,0.00329,-0.01434,0.98991,5.50439,1.42369
09:39:59.736637,5.52391,0.00744,-0.05329,-0.04237,-0.06722,-12.13062,0.00675,0.00863,0.00830,-0.00970,0.98552,5.51532,1.31868
09:39:59.746540,5.53382,0.00700,-0.05349,-0.04206,-0.07440,-12.47273,0.00094,0.00894,0.00439,0.00641,0.98783,5.52516,1.35775
09:39:59.755070,5.54237,0.00518,-0.05356,-0.04166,-0.06936,-12.27619,0.00583,0.00909,0.00287,0.00903,0.98765,5.53457,1.57509
09:39:59.766315,5.55361,0.00611,-0.05394,-0.04115,-0.06936,-12.34981,0.00537,0.00619,0.00458,-0.00433,0.98838,5.54551,1.39194
09:39:59.778059,5.56535,0.00676,-0.05462,-0.04053,-0.07180,-12.58300,0.00354,0.01169,0.00396,-0.02507,0.98850,5.55597,1.52137
09:39:59.787517,5.57411,0.00516,-0.05552,-0.03996,-0.07699,-12.97307,0.00369,0.00726,0.00128,-0.03758,0.98728,5.56632,1.54335
09:39:59.798752,5.58604,0.00657,-0.05619,-0.03923,-0.08280,-13.34752,0.00522,0.00878,0.00073,-0.01494,0.98600,5.57742,1.39927
09:39:59.808634,5.59592,0.00609,-0.05671,-0.03858,-0.08158,-13.39648,0.00537,0.00634,0.00354,-0.01348,0.98259,5.58723,1.41392
09:39:59.818636,5.60592,0.00591,-0.05719,-0.03781,-0.07852,-13.36302,0.00965,0.00756,0.00165,-0.01275,0.98545,5.59725,1.50916
09:39:59.829086,5.61639,0.00598,-0.05767,-0.03691,-0.07455,-13.29092,0.00583,0.01230,0.00299,-0.00982,0.98661,5.60842,1.46764
09:39:59.840924,5.62821,0.00762,-0.05834,-0.03600,-0.06753,-13.12252,0.00369,0.00955,-0.00165,-0.02727,0.98771,5.61963,1.43590
09:39:59.850105,5.63738,0.00626,-0.05930,-0.03524,-0.06004,-12.98893,0.00384,0.01581,-0.00988,-0.06259,0.99406,5.62861,1.50183
09:39:59.859327,5.64663,0.00515,-0.06057,-0.03450,-0.06218,-13.31677,0.00690,0.01413,-0.01251,-0.07741,0.99863,5.63883,1.40171
09:39:59.870440,5.65773,0.00605,-0.06178,-0.03382,-0.06172,-13.52470,0.00812,0.01428,-0.01135,-0.07552,0.99503,5.64899,1.45055
09:39:59.881146,5.66845,0.00623,-0.06244,-0.03326,-0.06371,-13.73346,0.01133,0.01306,0.00275,-0.03520,0.98594,5.65980,1.49451
09:39:59.891107,5.67839,0.00582,-0.06251,-0.03283,-0.05745,-13.48431,0.00675,0.00909,0.00537,-0.00464,0.98240,5.66976,1.56777
09:39:59.901652,5.68895,0.00602,-0.06248,-0.03235,-0.05332,-13.30904,0.00552,0.00481,0.00952,0.00085,0.97990,5.68030,1.55311
09:39:59.912424,5.69970,0.00623,-0.06244,-0.03181,-0.04187,-12.82200,0.00415,0.00665,0.00952,-0.00567,0.98369,5.69106,1.53846
09:39:59.922293,5.70959,0.00587,-0.06267,-0.03113,-0.03668,-12.65041,0.00507,0.00924,0.00573,-0.02898,0.98497,5.70094,1.50427
09:39:59.932625,5.71993,0.00599,-0.06324,-0.03014,-0.03546,-12.71295,0.00491,0.00924,0.01458,-0.05045,0.98972,5.71192,1.48718
09:39:59.944048,5.73114,0.00648,-0.06384,-0.02887,-0.03423,-12.78252,0.00308,0.01108,0.00958,-0.05386,0.98966,5.72270,1.43590
09:39:59.953840,5.74114,0.00612,-0.06430,-0.02751,-0.03500,-12.91071,0.00018,0.01062,0.01104,-0.04685,0.98979,5.73240,1.45299
09:39:59.964110,5.75119,0.00581,-0.06452,-0.02604,-0.03240,-12.85599,0.00278,0.01062,0.00689,-0.03245,0.99070,5.74275,1.45788
09:39:59.974294,5.76158,0.00587,-0.06438,-0.02451,-0.02767,-12.64355,0.00171,0.00833,0.00958,-0.01159,0.98881,5.75291,1.48962
09:39:59.985598,5.77290,0.00683,-0.06452,-0.02281,-0.01789,-12.27239,0.00033,0.00649,0.00348,-0.03581,0.98771,5.76421,1.50183
09:39:59.994466,5.78177,0.00548,-0.06476,-0.02143,-0.01667,-12.27814,-0.00303,0.00573,0.00146,-0.04526,0.98716,5.77360,1.45299
09:40:00.006547,5.79384,0.00686,-0.06528,-0.01984,-0.01026,-12.11543,-0.00242,0.00344,-0.00104,-0.06612,0.98759,5.78499,1.49939
09:40:00.016095,5.80319,0.00584,-0.06570,-0.01865,-0.00919,-12.15873,0.00064,0.00344,-0.00756,-0.06228,0.98606,5.79473,1.44078
09:40:00.026253,5.81354,0.00584,-0.06597,-0.01752,-0.01102,-12.29642,0.00491,-0.00099,-0.00275,-0.05112,0.98680,5.80489,1.43834
09:40:00.036666,5.82397,0.00591,-0.06607,-0.01661,-0.00949,-12.25835,0.00110,-0.00129,-0.00006,-0.04063,0.98698,5.81580,1.40904
09:40:00.047383,5.83467,0.00603,-0.06599,-0.01599,0.00135,-11.78997,0.00064,-0.00267,0.00427,-0.03648,0.98844,5.82595,1.39194
09:40:00.057752,5.84505,0.00605,-0.06560,-0.01568,0.01219,-11.26265,-0.00089,0.00100,0.00744,-0.02355,0.99119,5.83637,1.21123
09:40:00.068243,5.85463,0.00541,-0.06536,-0.01559,0.01891,-10.93536,-0.00211,-0.00206,0.00458,-0.03788,0.99351,5.84685,1.92186
09:40:00.078926,5.86620,0.00649,-0.06534,-0.01559,0.01769,-10.98429,0.00278,0.00100,0.00378,-0.05100,0.99040,5.85694,1.51893
09:40:00.089222,5.87652,0.00645,-0.06518,-0.01559,0.02594,-10.60565,-0.00074,-0.00313,0.00128,-0.04801,0.99119,5.86772,1.50672
09:40:00.098976,5.88626,0.00583,-0.06491,-0.01559,0.02395,-10.63955,-0.00257,-0.00374,0.00195,-0.03727,0.98661,5.87762,1.49451
09:40:00.109525,5.89683,0.00603,-0.06445,-0.01559,0.02960,-10.31774,0.00018,-0.00450,0.00037,-0.03019,0.98497,5.88818,1.47009
09:40:00.119707,5.90699,0.00584,-0.06384,-0.01559,0.03876,-9.81747,-0.00287,-0.00450,0.00195,-0.02483,0.98661,5.89854,1.48230
09:40:00.130365,5.91765,0.00601,-0.06327,-0.01559,0.03617,-9.82318,-0.00196,-0.00511,-0.00110,-0.02513,0.98722,5.90883,1.49695
09:40:00.140748,5.92718,0.00518,-0.06258,-0.01559,0.04671,-9.25239,-0.00287,-0.00435,-0.00110,-0.02519,0.98924,5.91938,1.48718
09:40:00.152805,5.93957,0.00737,-0.06197,-0.01559,0.04548,-9.19276,-0.00578,-0.00374,0.00000,-0.03080,0.98924,5.93076,1.48230
09:40:00.161288,5.94788,0.00533,-0.06145,-0.01559,0.04884,-8.95615,-0.00104,-0.00572,0.00073,-0.03190,0.98942,5.93993,1.50183
09:40:00.171529,5.95881,0.00590,-0.06078,-0.01559,0.05343,-8.64027,-0.00211,-0.00099,-0.00165,-0.02812,0.98753,5.95027,1.48962
09:40:00.181512,5.96882,0.00530,-0.05997,-0.01559,0.05465,-8.44082,-0.00471,0.00084,0.00110,-0.01982,0.99015,5.96085,1.47985
09:40:00.191767,5.97906,0.00519,-0.05911,-0.01559,0.05495,-8.27125,-0.00379,-0.00160,-0.00360,-0.01549,0.99064,5.97129,1.46276
09:40:00.201944,5.98925,0.00517,-0.05828,-0.01559,0.06030,-7.89333,-0.00211,0.00100,-0.00458,-0.01842,0.99125,5.98129,1.46032
09:40:00.212857,6.00016,0.00552,-0.05750,-0.01559,0.05755,-7.86884,-0.00074,-0.00572,-0.00287,-0.02306,0.98802,5.99223,1.48962
09:40:00.224628,6.01103,0.00602,-0.05677,-0.01559,0.06076,-7.59924,-0.00272,-0.00038,-0.00189,-0.02544,0.98759,6.00272,1.46520
09:40:00.234248,6.02153,0.00600,-0.05610,-0.01559,0.05572,-7.69112,-0.00287,-0.00557,-0.00043,-0.02391,0.98667,6.01274,1.47497
09:40:00.245093,6.03239,0.00650,-0.05520,-0.01559,0.05709,-7.47057,-0.00501,-0.00694,0.00537,-0.01580,0.98686,6.02448,1.46032
09:40:00.254825,6.04211,0.00586,-0.05445,-0.01559,0.06060,-7.18389,-0.00089,-0.00557,0.00744,-0.01549,0.98686,6.03344,1.46764
09:40:00.265870,6.05314,0.00603,-0.05366,-0.01559,0.05572,-7.24840,-0.00364,-0.00725,0.01025,-0.01598,0.98741,6.04399,1.47985
09:40:00.275064,6.06237,0.00540,-0.05294,-0.01559,0.05724,-7.05276,-0.00700,-0.00801,0.00689,-0.01982,0.99137,6.05435,1.45788
09:40:00.285368,6.07267,0.00517,-0.05212,-0.01559,0.05938,-6.81230,-0.00593,-0.01321,0.00476,-0.01360,0.98698,6.06470,1.49206
09:40:00.297646,6.08441,0.00655,-0.05127,-0.01559,0.05999,-6.63290,-0.00394,-0.00893,0.00378,-0.01476,0.98478,6.07580,1.49939
09:40:00.305979,6.09328,0.00523,-0.05059,-0.01559,0.05923,-6.54060,-0.00394,-0.01076,0.00226,-0.01757,0.98460,6.08529,1.48230
09:40:00.317922,6.10445,0.00604,-0.04951,-0.01559,0.06091,-6.27280,-0.00410,-0.01168,0.00976,0.00396,0.98308,6.09580,1.48718
09:40:00.327314,6.11460,0.00583,-0.04872,-0.01562,0.05404,-6.41988,-0.00440,-0.01137,0.00994,-0.00811,0.98509,6.10596,2.59096
09:40:00.338095,6.12539,0.00626,-0.04783,-0.01568,0.05648,-6.15354,-0.00746,-0.01092,0.00787,-0.00366,0.99009,6.11649,1.37485
09:40:00.350595,6.13787,0.00838,-0.04679,-0.01596,0.05877,-5.86529,-0.00929,-0.00893,0.00714,-0.00189,0.99149,6.12887,1.61661
09:40:00.358479,6.14577,0.00592,-0.04621,-0.01639,0.05831,-5.77532,-0.00272,-0.00924,0.00689,-0.01494,0.99009,6.13709,1.49206
09:40:00.368649,6.15595,0.00559,-0.04541,-0.01704,0.06213,-5.46233,-0.00379,-0.00801,0.00610,-0.01275,0.98881,6.14798,1.42125
09:40:00.379026,6.16633,0.00554,-0.04447,-0.01772,0.06335,-5.23291,-0.00593,-0.00649,0.00933,-0.00098,0.98741,6.15829,1.43101
09:40:00.390090,6.17739,0.00616,-0.04346,-0.01840,0.06503,-4.97169,-0.00501,0.00039,0.00610,0.00293,0.98576,6.16869,1.41636
09:40:00.400195,6.18747,0.00571,-0.04254,-0.01893,0.06244,-4.90773,-0.00471,0.00084,0.00366,0.00134,0.98594,6.17884,1.45543
09:40:00.409687,6.19699,0.00521,-0.04160,-0.01930,0.06518,-4.61720,-0.00517,0.00130,0.00488,0.00104,0.98619,6.18901,1.33578
09:40:00.421709,6.20901,0.00686,-0.04056,-0.01950,0.06916,-4.25752,-0.00013,0.00069,0.00579,0.00165,0.98643,6.20020,1.77778
09:40:00.430350,6.21765,0.00515,-0.03971,-0.01953,0.06350,-4.34295,-0.00440,-0.00084,0.00915,0.00079,0.98594,6.20969,0.52015
09:40:00.441773,6.22908,0.00622,-0.03882,-0.01953,0.06503,-4.11633,-0.00669,-0.00007,0.00390,-0.00207,0.98985,6.22055,0.32967
09:40:00.453670,6.24024,0.00705,-0.03783,-0.01953,0.06167,-4.07830,-0.00608,-0.00252,0.00653,0.00616,0.98991,6.23182,0.25885
09:40:00.461563,6.24886,0.00518,-0.03695,-0.01953,0.05709,-4.11280,-0.00486,-0.00282,0.00476,0.01116,0.98765,6.24089,0.23932
09:40:00.472792,6.25920,0.00515,-0.03604,-0.01953,0.05908,-3.86326,-0.00547,-0.00343,0.00171,0.00726,0.98936,6.25145,0.22222
09:40:00.482921,6.27021,0.00598,-0.03524,-0.01953,0.05617,-3.83950,-0.00715,-0.00328,0.00433,0.00488,0.99094,6.26159,0.20269
09:40:00.493351,6.28065,0.00607,-0.03431,-0.01953,0.05572,-3.69099,-0.00349,-0.00481,0.00275,0.01019,0.99198,6.27270,0.19780
09:40:00.502807,6.29011,0.00517,-0.03366,-0.01953,0.04640,-3.96747,-0.00547,-0.00038,0.00201,0.00427,0.99040,6.28232,0.19780
09:40:00.514024,6.30132,0.00616,-0.03301,-0.01953,0.04839,-3.76474,-0.00440,-0.00114,-0.00366,0.00152,0.98600,6.29266,0.20513
09:40:00.524757,6.31201,0.00567,-0.03227,-0.01953,0.03831,-4.05690,-0.00578,-0.00557,0.00152,0.01372,0.98106,6.30341,0.20024
09:40:00.534441,6.32173,0.00601,-0.03148,-0.01953,0.03540,-4.03650,-0.00318,-0.00191,0.00189,0.02214,0.98527,6.31305,0.21001
09:40:00.545059,6.33236,0.00628,-0.03076,-0.01953,0.03464,-3.93708,-0.00242,-0.00542,0.00384,0.01580,0.98655,6.32421,0.19536
09:40:00.557064,6.34361,0.00640,-0.03005,-0.01956,0.03021,-3.99597,-0.00089,-0.00633,0.00213,0.01830,0.99235,6.33555,0.20757
09:40:00.565590,6.35289,0.00519,-0.02953,-0.01961,0.02456,-4.13929,0.00339,-0.00832,0.00024,0.01440,0.99436,6.34491,0.23932
09:40:00.577747,6.36503,0.00712,-0.02894,-0.01967,0.02242,-4.12315,0.00201,-0.00679,0.00421,0.01751,0.99107,6.35599,0.36386
09:40:00.586950,6.37423,0.00594,-0.02840,-0.01973,0.01815,-4.20574,-0.00058,-0.00542,0.00647,0.01982,0.98594,6.36562,1.59463
09:40:00.597762,6.38507,0.00641,-0.02779,-0.01973,0.01647,-4.16628,-0.00089,-0.00160,0.00695,0.02495,0.98265,6.37613,1.45543
09:40:00.607564,6.39485,0.00584,-0.02712,-0.01973,0.01448,-4.12753,-0.00272,0.00069,0.00232,0.03148,0.98137,6.38640,1.46520
09:40:00.618017,6.40531,0.00610,-0.02654,-0.01973,0.01051,-4.18983,-0.00013,0.00268,0.00030,0.02879,0.98497,6.39665,1.47497
09:40:00.627369,6.41468,0.00510,-0.02619,-0.01973,0.00960,-4.16505,-0.00013,0.00756,-0.00092,0.01476,0.98777,6.40684,1.44322
09:40:00.638379,6.42567,0.00590,-0.02587,-0.01973,0.00425,-4.33413,-0.00058,0.00665,-0.00116,0.01647,0.99210,6.41699,1.46276
09:40:00.649305,6.43660,0.00662,-0.02558,-0.01973,0.00135,-4.40454,0.00079,0.00756,-0.00006,0.01684,0.99058,6.42800,1.46520
09:40:00.658771,6.44607,0.00574,-0.02539,-0.01973,-0.00644,-4.69985,0.00155,0.00878,-0.00390,0.01562,0.99198,6.43752,1.47985
09:40:00.669651,6.45692,0.00608,-0.02532,-0.01973,-0.01316,-4.97240,-0.00165,0.00436,-0.00494,0.01281,0.99277,6.44824,1.48474
09:40:00.680150,6.46725,0.00621,-0.02511,-0.01973,-0.01408,-4.97212,0.00339,0.00069,-0.00842,0.02300,0.99351,6.45857,1.47253
09:40:00.689427,6.47673,0.00518,-0.02498,-0.01973,-0.02446,-5.38897,0.00384,-0.00389,-0.00134,0.02409,0.99040,6.46877,1.46520
09:40:00.700680,6.48796,0.00604,-0.02494,-0.01973,-0.02278,-5.31094,0.00430,-0.00542,0.00024,0.01769,0.98728,6.47934,1.47985
09:40:00.710982,6.49758,0.00523,-0.02505,-0.01973,-0.02645,-5.48588,0.00568,-0.00542,0.00159,0.01019,0.98423,6.48966,1.48230
09:40:00.721910,6.50921,0.00641,-0.02510,-0.01973,-0.03164,-5.71507,0.00614,-0.00313,-0.00549,0.01848,0.98747,6.50052,1.47009
09:40:00.731712,6.51899,0.00582,-0.02511,-0.01976,-0.02797,-5.56124,0.00232,-0.00145,-0.00366,0.01702,0.98716,6.51054,1.24542
09:40:00.741498,6.52880,0.00515,-0.02520,-0.01976,-0.03072,-5.69374,-0.00074,0.00313,-0.00220,0.01421,0.98832,6.52085,0.43223
09:40:00.751620,6.53893,0.00464,-0.02532,-0.01976,-0.02950,-5.66278,0.00140,0.00573,-0.00433,0.01269,0.98905,6.53173,0.27106
09:40:00.764081,6.55117,0.00651,-0.02547,-0.01976,-0.03393,-5.87926,0.00201,0.00466,-0.00366,0.01293,0.99216,6.54266,0.22955
09:40:00.774433,6.56172,0.00597,-0.02555,-0.01976,-0.03087,-5.76318,0.00049,0.00329,-0.00817,0.01513,0.98918,6.55306,0.21734
09:40:00.784166,6.57126,0.00533,-0.02569,-0.01976,-0.02843,-5.68597,0.00155,0.00833,-0.00976,0.00872,0.98588,6.56349,0.21001
09:40:00.794157,6.58146,0.00528,-0.02583,-0.01976,-0.02675,-5.63966,0.00339,0.00405,-0.00915,0.00726,0.98735,6.57350,0.20513
09:40:00.805587,6.59289,0.00636,-0.02590,-0.01976,-0.02751,-5.68546,0.00308,0.00695,-0.00891,0.01244,0.98326,6.58393,0.21001
09:40:00.814758,6.60206,0.00516,-0.02599,-0.01976,-0.03087,-5.84405,-0.00104,0.00695,-0.00378,0.01348,0.98484,6.59428,0.20024
09:40:00.826344,6.61363,0.00592,-0.02617,-0.01976,-0.03133,-5.89566,-0.00089,0.00940,-0.00915,0.00878,0.98826,6.60502,0.20757
09:40:00.836862,6.62415,0.00608,-0.02636,-0.01976,-0.02797,-5.78747,0.00491,0.00909,-0.01153,0.00500,0.99015,6.61546,0.20513
09:40:00.846281,6.63358,0.00515,-0.02647,-0.01976,-0.02431,-5.65216,0.00140,0.01123,-0.00830,0.00701,0.98899,6.62561,0.20513
09:40:00.857505,6.64480,0.00601,-0.02654,-0.01976,-0.02568,-5.72372,0.00232,0.01169,-0.00659,0.01092,0.98905,6.63617,0.20269
09:40:00.868434,6.65571,0.00672,-0.02669,-0.01976,-0.03026,-5.94601,0.00094,0.01214,-0.00793,0.00933,0.99241,6.64709,0.20269
09:40:00.878861,6.66526,0.00573,-0.02678,-0.01976,-0.02828,-5.87711,0.00354,0.01367,-0.00811,0.01110,0.98954,6.65728,0.20269
09:40:00.888633,6.67591,0.00603,-0.02694,-0.01976,-0.02751,-5.87448,0.00186,0.01016,-0.01031,0.00494,0.98704,6.66730,0.20024
09:40:00.897978,6.68528,0.00521,-0.02707,-0.01976,-0.02782,-5.90988,0.00079,0.00909,-0.00762,0.00756,0.98558,6.67731,0.20269
09:40:00.909267,6.69654,0.00611,-0.02726,-0.01976,-0.02904,-5.99630,-0.00135,0.00649,-0.00738,0.00476,0.98448,6.68781,0.20024
09:40:00.919308,6.70661,0.00582,-0.02742,-0.01976,-0.02950,-6.04547,0.00155,0.00558,-0.00921,0.00775,0.98771,6.69887,0.20269
09:40:00.930556,6.71757,0.00589,-0.02761,-0.01976,-0.02477,-5.87914,-0.00074,0.00375,-0.00787,0.00104,0.98826,6.70899,0.20757
09:40:00.941424,6.72873,0.00668,-0.02778,-0.01976,-0.02293,-5.83362,0.00049,0.00298,-0.01263,0.00195,0.99290,6.72013,0.20513
09:40:00.951257,6.73856,0.00632,-0.02801,-0.01976,-0.02431,-5.93224,0.00216,0.00619,-0.01311,-0.00250,0.99320,6.72984,0.21490
09:40:00.961323,6.74863,0.00602,-0.02815,-0.01976,-0.02217,-5.86786,0.00278,0.00680,-0.01153,0.00220,0.99338,6.74031,0.20513
09:40:00.972095,6.75919,0.00592,-0.02829,-0.01976,-0.02232,-5.90052,0.00003,0.00817,-0.00787,0.00213,0.99406,6.75076,0.21001
09:40:00.983213,6.77049,0.00673,-0.02844,-0.01976,-0.02034,-5.84332,0.00491,0.00298,-0.01037,0.00128,0.99113,6.76190,0.19780
09:40:00.992377,6.77968,0.00547,-0.02856,-0.01976,-0.02110,-5.89700,0.00018,-0.00328,-0.01068,0.00189,0.98606,6.77172,0.21001
09:40:01.003440,6.79072,0.00621,-0.02858,-0.01976,-0.02018,-5.86270,0.00354,0.00207,-0.01354,0.00756,0.98765,6.78176,0.19780
09:40:01.014001,6.80131,0.00643,-0.02862,-0.01976,-0.01866,-5.80525,-0.00074,-0.00481,-0.00854,0.00610,0.98680,6.79225,0.19292
09:40:01.024577,6.81184,0.00579,-0.02873,-0.01976,-0.01438,-5.64303,0.00094,-0.00343,-0.01366,-0.00085,0.98722,6.80297,0.19536
09:40:01.035399,6.82268,0.00698,-0.02885,-0.01976,-0.01423,-5.65859,0.00018,-0.00756,-0.00323,-0.00220,0.99125,6.81369,0.18803
09:40:01.044947,6.83224,0.00618,-0.02897,-0.01976,-0.01392,-5.66733,0.00201,-0.00359,-0.00549,-0.00250,0.99198,6.82430,0.19536
09:40:01.055749,6.84305,0.00663,-0.02901,-0.01976,-0.00919,-5.47361,0.00247,-0.00007,-0.00342,-0.00128,0.99088,6.83360,0.19048
09:40:01.066100,6.85341,0.00663,-0.02902,-0.01976,-0.01148,-5.57379,0.00186,0.00100,-0.00299,0.00335,0.99101,6.84549,0.19292
09:40:01.076495,6.86379,0.00665,-0.02886,-0.01976,-0.00522,-5.27960,-0.00074,0.00619,-0.00006,0.00927,0.98796,6.85493,0.19780
09:40:01.086306,6.87360,0.00613,-0.02866,-0.01976,-0.00445,-5.20977,-0.00119,0.00451,0.00268,0.01220,0.98881,6.86478,0.20024
09:40:01.095683,6.88299,0.00517,-0.02850,-0.01976,-0.00064,-5.01869,-0.00226,0.00191,-0.00012,0.00701,0.98735,6.87522,0.21245
09:40:01.106521,6.89382,0.00580,-0.02836,-0.01976,0.00272,-4.85062,-0.00211,-0.00053,0.00500,0.00366,0.98814,6.88534,0.21490
09:40:01.117656,6.90496,0.00658,-0.02829,-0.01976,0.00181,-4.87780,-0.00135,-0.00023,0.00116,-0.00073,0.98783,6.89576,0.20024
09:40:01.128060,6.91516,0.00642,-0.02822,-0.01976,0.00013,-4.93542,0.00155,-0.00053,0.00781,0.00116,0.98478,6.90593,0.21245
09:40:01.138582,6.92587,0.00678,-0.02803,-0.01976,0.00471,-4.70629,-0.00303,-0.00007,0.00860,0.00561,0.98442,6.91724,0.20757
09:40:01.148933,6.93622,0.00677,-0.02775,-0.01976,0.00639,-4.58590,0.00232,0.00329,0.01421,0.01013,0.98893,6.92764,0.18803
09:40:01.159809,6.94640,0.00606,-0.02740,-0.01976,0.01311,-4.23727,0.00003,0.00665,0.01391,0.01068,0.99033,6.93866,0.20269
09:40:01.170023,6.95732,0.00615,-0.02707,-0.01976,0.01464,-4.11253,-0.00303,0.00634,0.01891,0.00952,0.99168,6.94864,0.21001
09:40:01.181465,6.96877,0.00723,-0.02677,-0.01976,0.01647,-3.97948,-0.00303,0.00634,0.01745,0.00604,0.99345,6.95950,0.20513
09:40:01.190836,6.97812,0.00594,-0.02652,-0.01976,0.01280,-4.09001,-0.00226,0.00680,0.01476,0.00579,0.99265,6.96948,0.20513
09:40:01.201304,6.98860,0.00606,-0.02622,-0.01976,0.01479,-3.95164,0.00079,0.00787,0.01629,0.00769,0.98570,6.97994,0.18803
09:40:01.211413,6.99870,0.00580,-0.02590,-0.01976,0.01005,-4.09287,-0.00272,0.00207,0.01513,0.01311,0.98570,6.99027,0.20024
09:40:01.221625,7.00893,0.00567,-0.02551,-0.01976,0.01601,-3.76922,-0.00119,0.00649,0.01427,0.01372,0.98497,7.00063,0.21001
09:40:01.233927,7.02122,0.00725,-0.02506,-0.01976,0.01738,-3.62936,-0.00440,0.00359,0.01287,0.01537,0.98472,7.01236,0.20024
09:40:01.243336,7.03062,0.00595,-0.02472,-0.01976,0.01525,-3.65804,-0.00394,0.00634,0.01092,0.01244,0.98698,7.02197,0.18803
09:40:01.253762,7.04106,0.00603,-0.02451,-0.01976,0.01586,-3.59391,0.00079,0.00359,0.02166,0.00299,0.98735,7.03240,0.19780
09:40:01.263780,7.05109,0.00584,-0.02437,-0.01976,0.01021,-3.80907,0.00278,0.00237,0.01208,0.00165,0.99064,7.04331,0.20513
09:40:01.274774,7.06208,0.00627,-0.02426,-0.01976,0.01158,-3.72961,0.00140,0.00451,0.01732,0.00055,0.99497,7.05309,0.19536
09:40:01.285690,7.07299,0.00642,-0.02390,-0.01976,0.00929,-3.76183,-0.00119,0.00390,0.01690,0.01720,0.99735,7.06432,0.20757
09:40:01.295497,7.08278,0.00586,-0.02343,-0.01976,0.01723,-3.34046,-0.00074,0.00527,0.01885,0.02031,0.99027,7.07431,0.21245
09:40:01.306493,7.09377,0.00597,-0.02311,-0.01976,0.01265,-3.47506,-0.00608,0.00084,0.01690,0.01379,0.98570,7.08513,0.20024
09:40:01.316880,7.10416,0.00668,-0.02284,-0.01976,0.01738,-3.22631,-0.00318,-0.00084,0.01549,0.00793,0.98503,7.09484,0.19536
09:40:01.326353,7.11363,0.00588,-0.02253,-0.01976,0.01570,-3.24063,-0.00013,-0.00297,0.01232,0.01196,0.98326,7.10495,0.20757
09:40:01.337557,7.12486,0.00616,-0.02274,-0.01976,0.01555,-3.28518,-0.00104,-0.00557,-0.00226,-0.02287,0.97759,7.11621,0.19048
09:40:01.346962,7.13427,0.00537,-0.02217,-0.01976,0.00731,-3.53209,0.00094,0.00115,0.00506,0.03434,0.99448,7.12643,0.19292
09:40:01.358032,7.14534,0.00607,-0.02159,-0.01976,0.01066,-3.28394,0.00171,-0.00084,0.03263,0.03373,0.99046,7.13663,0.19780
09:40:01.369488,7.15678,0.00715,-0.02143,-0.01976,0.01402,-3.11165,0.00110,-0.00435,0.01080,0.00366,0.99210,7.14780,0.21001
09:40:01.379387,7.16599,0.00605,-0.02089,-0.01976,0.01234,-3.08481,0.00339,-0.00557,0.02409,0.03038,0.98649,7.15804,0.19292
09:40:01.389841,7.17713,0.00637,-0.02043,-0.01976,0.01158,-3.03304,0.00446,-0.00175,0.01885,0.02635,0.98533,7.16829,0.19048
09:40:01.399038,7.18635,0.00523,-0.02040,-0.01976,0.01402,-2.92552,0.00171,-0.00694,0.02464,-0.00378,0.98735,7.17856,0.20513
09:40:01.410250,7.19753,0.00593,-0.02015,-0.01976,0.01097,-3.00840,-0.00257,-0.00435,0.01867,0.01366,0.98606,7.18881,0.20269
09:40:01.421072,7.20835,0.00639,-0.01979,-0.01976,0.00593,-3.15664,-0.00181,0.00115,0.01928,0.02403,0.99040,7.19935,0.18315
09:40:01.430902,7.21748,0.00517,-0.01953,-0.01976,0.00746,-3.04445,-0.00486,0.00115,0.01842,0.01708,0.99113,7.20950,0.20513
09:40:01.442403,7.22944,0.00671,-0.01921,-0.01976,0.00975,-2.88863,0.00064,0.00329,0.00817,0.01964,0.99198,7.22012,0.18559
09:40:01.452708,7.23998,0.00601,-0.01910,-0.01976,0.00303,-3.15424,-0.00074,0.00313,0.01293,0.01000,0.98570,7.23133,0.19780
09:40:01.462186,7.24947,0.00600,-0.01882,-0.01976,0.00211,-3.14146,0.00186,0.00069,0.01122,0.02269,0.98277,7.24081,0.18803
09:40:01.473224,7.26051,0.00655,-0.01860,-0.01976,0.00074,-3.16039,0.00079,-0.00328,0.02294,0.01928,0.98155,7.25189,0.18315
09:40:01.482410,7.26971,0.00539,-0.01864,-0.01976,-0.00247,-3.30297,-0.00272,-0.00404,0.02245,0.00500,0.98350,7.26152,0.18315
09:40:01.493671,7.28097,0.00629,-0.01836,-0.01976,-0.00186,-3.22752,0.00049,-0.00496,0.02751,0.02507,0.98625,7.27218,0.19292
09:40:01.504602,7.29188,0.00683,-0.01801,-0.01976,0.00104,-3.04080,-0.00287,-0.00832,0.02318,0.02867,0.99375,7.28320,0.19048
09:40:01.514134,7.30142,0.00586,-0.01768,-0.01976,-0.00201,-3.10949,-0.00547,-0.00023,0.01818,0.02989,0.99308,7.29277,0.20269
09:40:01.525227,7.31253,0.00616,-0.01749,-0.01976,0.00257,-2.88089,-0.00623,-0.00359,0.01861,0.01757,0.99436,7.30389,0.19780
09:40:01.536046,7.32248,0.00576,-0.01725,-0.01976,0.00104,-2.90098,-0.00517,0.00359,0.00970,0.02245,0.98850,7.31468,0.19536
09:40:01.546626,7.33323,0.00615,-0.01718,-0.01976,-0.00003,-2.93516,-0.00364,0.00604,0.01128,0.01128,0.98741,7.32475,0.18559
09:40:01.556202,7.34348,0.00604,-0.01716,-0.01976,-0.00308,-3.05972,-0.00364,0.00543,0.00744,0.01104,0.98436,7.33484,0.20024
09:40:01.567353,7.35466,0.00636,-0.01694,-0.01976,-0.00339,-3.03338,0.00216,0.00237,0.01446,0.02397,0.98301,7.34636,0.19292
09:40:01.579362,7.36539,0.00674,-0.01662,-0.01976,-0.00415,-3.00773,-0.00074,0.00481,0.00726,0.03160,0.98924,7.35748,0.19048
09:40:01.588293,7.37557,0.00677,-0.01627,-0.01976,0.00211,-2.67797,-0.00303,0.00069,0.01251,0.03007,0.99259,7.36689,0.18803
09:40:01.598055,7.38535,0.00619,-0.01602,-0.01976,-0.00064,-2.74882,0.00186,-0.00023,0.01006,0.02532,0.99497,7.37655,0.19780
09:40:01.609121,7.39566,0.00613,-0.01594,-0.01976,-0.00323,-2.84415,0.00507,0.00084,0.01068,0.01623,0.99467,7.38770,0.18071
09:40:01.619021,7.40563,0.00557,-0.01594,-0.01976,0.00074,-2.67573,0.00094,-0.00099,0.01098,0.00817,0.99271,7.39763,0.19536
09:40:01.629220,7.41652,0.00609,-0.01575,-0.01976,-0.00476,-2.87501,-0.00257,-0.00114,0.01141,0.02397,0.99198,7.40780,0.18315
09:40:01.640112,7.42721,0.00642,-0.01564,-0.01976,-0.00690,-2.94492,0.00369,0.00161,0.01135,0.02074,0.98680,7.41797,0.19048
09:40:01.650569,7.43786,0.00671,-0.01545,-0.01976,-0.00934,-3.01519,-0.00074,0.00451,0.01263,0.02757,0.98289,7.42923,0.19048
09:40:01.660970,7.44826,0.00657,-0.01526,-0.01976,-0.00888,-2.96129,0.00339,0.00375,0.00897,0.02739,0.98301,7.43967,0.20513
09:40:01.670874,7.45818,0.00629,-0.01508,-0.01976,-0.00965,-2.95986,0.00064,0.00604,0.00677,0.02763,0.98320,7.44978,0.18559
09:40:01.681930,7.46923,0.00698,-0.01497,-0.01976,-0.01194,-3.03744,0.00293,0.00390,0.00714,0.02464,0.98771,7.46038,0.19292
09:40:01.691342,7.47793,0.00550,-0.01481,-0.01976,-0.01438,-3.11149,0.00293,0.00344,0.01031,0.02916,0.98899,7.46997,0.18803
09:40:01.701562,7.48886,0.00617,-0.01481,-0.01976,-0.01713,-3.22846,0.00537,-0.00023,0.00409,0.02092,0.99131,7.48021,0.19292
09:40:01.712571,7.49985,0.00616,-0.01483,-0.01976,-0.02171,-3.42628,0.00003,0.00207,0.00726,0.02385,0.98979,7.49121,0.18803
09:40:01.722998,7.51029,0.00641,-0.01481,-0.01976,-0.02522,-3.57008,-0.00013,0.00481,0.00988,0.02763,0.98722,7.50112,0.20269
09:40:01.733323,7.51985,0.00552,-0.01485,-0.01976,-0.02522,-3.57760,-