Description :  ; walk_time = 2.0 ; speed_up_time = 3.0 ; balancing_time = 0.0
RealTime,Time,CalculationTime,Roll,SteeringAngle,RollRate,ControlInput,gy,gz,ax,ay,az,imu_read_timing,SteerMotorCurrent
09:55:12.142194,0.00954,0.00898,0.00298,-0.90811,-0.28009,-2.52512,0.00165,0.00172,0.00116,0.03087,0.98692,0.00001,0.02442
09:55:12.148935,0.01631,0.00552,0.00392,-0.90973,-0.37634,-6.41722,0.00303,-0.00103,0.00207,0.02898,0.98808,0.00834,0.12943
09:55:12.159750,0.02711,0.00609,0.00404,-0.92595,-0.40259,-7.35120,0.00120,0.00004,0.00152,0.02922,0.98918,0.01863,0.34921
09:55:12.170053,0.03742,0.00620,0.00635,-0.98270,-0.24509,0.29317,-0.00033,-0.00225,0.00073,0.02983,0.98771,0.02875,0.18559
09:55:12.180926,0.04762,0.00605,0.00933,-1.05081,-0.32384,-1.84145,-0.00003,-0.00194,0.00262,0.03154,0.98698,0.03895,0.00488
09:55:12.191186,0.05855,0.00674,0.00978,-1.09297,-0.15759,5.69208,0.00013,0.00218,0.00098,0.02690,0.98704,0.04993,0.02686
09:55:12.201771,0.06913,0.00671,0.01568,-1.11243,-0.02634,12.51476,-0.00232,0.00111,0.00183,0.03160,0.98905,0.06047,0.00000
09:55:12.212347,0.07972,0.00660,0.02313,-1.09459,-0.18384,7.02341,-0.00094,0.00081,0.00146,0.03538,0.98625,0.07155,0.00000
09:55:12.222660,0.09004,0.00582,0.02358,-1.01189,-0.14009,8.15866,0.00257,0.00340,0.00244,0.02696,0.99082,0.08207,0.00488
09:55:12.233557,0.10093,0.00603,0.02728,-0.92270,0.00866,14.26948,-0.00293,-0.00103,0.00134,0.02885,0.98820,0.09298,0.01709
09:55:12.244805,0.11216,0.00690,0.03353,-0.84000,-0.14884,7.93220,-0.00033,-0.00271,0.00092,0.03379,0.98972,0.10351,0.00000
09:55:12.254252,0.12163,0.00529,0.04233,-0.72973,-0.01759,14.02439,-0.00232,-0.00164,-0.00012,0.03526,0.98979,0.11367,0.00244
09:55:12.266729,0.13342,0.00646,0.05428,-0.61622,-0.12259,10.64920,-0.00079,-0.00500,0.00268,0.04044,0.98857,0.12549,0.00000
09:55:12.276818,0.14417,0.00685,0.05998,-0.52054,0.05241,18.17471,0.00120,0.00004,0.00140,0.03123,0.98911,0.13557,0.00000
09:55:12.286611,0.15399,0.00607,0.06232,-0.43622,0.28866,27.79314,-0.00094,-0.00545,0.00256,0.02458,0.98722,0.14603,0.00000
09:55:12.297484,0.16414,0.00602,0.07957,-0.28541,0.29741,29.83983,-0.00140,-0.00622,0.00598,0.04185,0.98930,0.15621,0.00000
09:55:12.307131,0.17450,0.00601,0.11722,-0.04378,0.27116,33.23424,-0.00308,-0.00118,0.00159,0.06722,1.00424,0.16568,0.00000
09:55:12.317656,0.18503,0.00619,0.11952,0.23838,0.61241,45.37592,-0.00171,-0.00255,0.02763,0.02178,0.99424,0.17623,0.00000
09:55:12.328595,0.19597,0.00676,0.13635,0.55784,0.90116,57.57594,-0.00430,0.00218,-0.01562,0.03514,0.98802,0.18660,0.00000
09:55:12.339625,0.20632,0.00663,0.16860,1.04757,1.10241,67.22264,-0.00140,0.01058,0.02653,0.04904,0.98619,0.19832,0.00000
09:55:12.349326,0.21599,0.00549,0.21186,1.63946,1.55741,88.63511,0.00211,0.01333,-0.00982,0.05948,0.98088,0.20803,0.00000
09:55:12.359325,0.22599,0.00529,0.23048,2.32054,1.69741,91.35256,-0.00308,0.01883,-0.01702,0.03050,1.00064,0.21804,0.00000
09:55:12.369354,0.23673,0.00547,0.24405,3.21405,2.55491,121.49489,-0.00278,0.02234,0.02391,0.01299,0.99650,0.22875,0.00000
09:55:12.380423,0.24780,0.00618,0.31002,4.25514,2.48491,120.44033,-0.00659,0.02203,0.03617,0.07509,1.01034,0.23979,0.00000
09:55:12.390203,0.25758,0.00544,0.33549,5.39351,2.86991,130.35338,-0.00736,0.02203,0.07168,0.02836,1.01272,0.24941,0.00000
09:55:12.400500,0.26788,0.00538,0.40999,6.60649,2.50241,116.57920,-0.00629,0.02005,-0.05545,0.08632,0.98850,0.25989,0.00000
09:55:12.410654,0.27804,0.00518,0.49121,7.86000,4.28741,194.83550,-0.00644,0.01394,-0.01501,0.07546,0.98594,0.27004,0.00000
09:55:12.422634,0.29000,0.00679,0.59982,9.28378,4.39241,205.24140,-0.00048,0.03013,0.01220,0.10346,0.98283,0.28091,0.00000
09:55:12.432334,0.29969,0.00616,0.58474,11.13405,5.84491,246.11261,-0.00583,0.04219,0.07351,-0.04831,0.96709,0.29098,0.00000
09:55:12.442789,0.30947,0.00575,0.73809,13.10595,6.47491,281.58843,-0.01316,0.05976,0.05588,0.13292,0.97856,0.30152,0.00000
09:55:12.453483,0.32086,0.00617,1.19274,15.45730,7.48991,384.50143,-0.02064,0.09442,-0.13310,0.51813,1.00827,0.31222,0.00000
09:55:12.464478,0.33119,0.00600,1.50913,17.62541,8.76741,475.16614,0.00043,0.10633,-0.00994,0.33160,1.04103,0.32269,0.00000
09:55:12.474171,0.34153,0.00585,1.50869,19.86324,10.59616,530.88535,0.00501,0.12771,0.15470,-0.07454,1.01693,0.33288,0.00000
09:55:12.485398,0.35277,0.00672,1.55609,22.07189,12.47741,597.81314,0.00333,0.15444,-0.04240,-0.05081,0.91134,0.34419,0.00000
09:55:12.495158,0.36254,0.00613,1.69944,24.36649,13.49241,644.65557,-0.00491,0.18498,0.01592,0.05313,0.90774,0.35455,0.00000
09:55:12.506041,0.37342,0.00665,2.01838,26.78108,13.99991,700.77143,-0.00720,0.18819,0.03825,0.26486,1.03840,0.36550,0.00000
09:55:12.516631,0.38313,0.00572,2.05741,28.88595,15.53991,752.72213,0.00288,0.18666,-0.13505,-0.07491,1.05829,0.37539,0.00000
09:55:12.526928,0.39431,0.00651,2.01661,31.24541,16.29241,754.32239,0.01097,0.18437,-0.03050,-0.16799,0.90487,0.38592,0.00000
09:55:12.537492,0.40487,0.00658,2.20783,33.60486,15.31241,724.71572,0.01387,0.20881,-0.03331,0.08198,0.91799,0.39693,0.00000
09:55:12.546425,0.41380,0.00515,2.40641,35.64811,15.47866,748.07806,0.01876,0.20881,-0.04483,0.13444,0.98088,0.40584,0.00000
09:55:12.557745,0.42512,0.00611,2.58588,37.98811,15.41741,755.45094,0.02762,0.21995,0.00616,0.08503,0.94898,0.41638,0.00977
09:55:12.568217,0.43558,0.00600,2.59742,40.23081,14.40241,692.81248,0.02471,0.22240,-0.00256,-0.09864,0.99253,0.42742,0.22955
09:55:12.577651,0.44503,0.00524,2.75655,42.53514,12.67866,626.39023,0.02853,0.21156,0.13109,0.11517,0.99119,0.43702,0.73260
09:55:12.588937,0.45629,0.00629,2.95491,44.77297,11.28741,581.83704,0.02655,0.19323,0.00409,0.16019,0.94379,0.44749,0.80586
09:55:12.598662,0.46604,0.00585,2.94470,46.99459,10.14116,509.88534,0.02899,0.18682,0.02159,-0.05167,1.00937,0.45743,1.06227
09:55:12.610031,0.47669,0.00613,2.95566,49.44486,7.30616,368.01680,0.02258,0.16467,0.02721,-0.00592,1.02035,0.46873,1.46032
09:55:12.622957,0.49033,0.00941,2.93589,51.49622,4.76866,237.03038,0.02227,0.15047,0.03916,-0.01391,0.99619,0.48102,1.66056
09:55:12.631463,0.49885,0.00724,3.05843,53.91892,1.31241,89.39947,0.01937,0.13657,-0.07259,0.19935,0.97228,0.49177,1.79731
09:55:12.644303,0.51167,0.00960,2.96543,56.06108,-0.12259,-9.07328,0.02624,0.11198,0.02525,-0.02806,0.98106,0.50352,9.97070
09:55:12.655788,0.52247,0.01004,2.97501,57.02919,-3.11509,-143.50513,0.02105,0.11458,-0.11291,0.12712,1.02864,0.51374,7.60928
09:55:12.678015,0.54484,0.01041,3.22233,56.33676,-7.44634,-275.32695,-0.00537,0.11489,-0.36295,0.61085,0.99137,0.53628,6.33944
09:55:12.701682,0.56902,0.00953,2.90286,52.56973,-10.05384,-407.41041,0.01937,0.05319,0.39156,-0.01934,1.02315,0.55989,5.24786
09:55:12.713035,0.58041,0.00973,2.80923,50.33351,-11.62009,-469.13285,0.01952,0.04907,-0.13249,0.12493,1.06463,0.57119,5.59463
09:55:12.720866,0.58821,0.00666,2.72862,48.17351,-12.55634,-502.53242,0.01616,0.03715,-0.16342,0.10888,1.06896,0.57966,5.31136
09:55:12.731228,0.59861,0.00662,2.74022,45.94216,-15.22509,-591.87565,0.02762,0.03486,0.04386,0.27297,0.99345,0.59012,5.65324
09:55:12.742955,0.61031,0.00798,2.71658,43.45622,-16.88759,-642.52555,0.01418,0.01822,0.27499,0.28414,1.06970,0.60122,5.32601
09:55:12.752060,0.61923,0.00591,2.28763,41.35784,-16.76509,-695.01991,0.03281,0.00722,0.30006,-0.23448,0.94489,0.61079,5.50183
09:55:12.762371,0.62973,0.00604,2.50829,39.11514,-19.51259,-749.56655,0.00822,0.02448,-0.48952,0.50807,0.82911,0.62102,5.36508
09:55:12.772745,0.64010,0.00605,2.20434,36.89676,-19.32884,-775.56641,0.02700,-0.00775,0.44030,-0.05386,0.98796,0.63144,5.95604
09:55:12.784843,0.65222,0.00780,1.89389,34.66216,-20.19509,-810.37861,0.02975,0.00356,-0.35337,-0.06350,1.00638,0.64161,5.77045
09:55:12.796145,0.66307,0.00847,1.72727,32.37405,-20.52759,-818.51223,0.03036,0.00310,0.33288,0.11566,0.98637,0.65237,5.69963
09:55:12.806439,0.67349,0.00872,1.50245,30.21243,-20.82509,-838.45533,0.01799,0.00508,-0.20154,0.04185,0.97868,0.66283,6.01465
09:55:12.815626,0.68300,0.00806,1.41824,28.02649,-22.11134,-832.58973,0.02426,0.02020,0.06765,0.22326,1.00931,0.67329,5.28205
09:55:12.826441,0.69382,0.00835,1.18097,25.78378,-23.06509,-854.01247,0.02792,0.00692,-0.05161,0.02611,0.96551,0.68290,4.38584
09:55:12.835194,0.70257,0.00687,0.97516,23.55568,-23.73884,-869.85588,0.03189,0.00310,0.24321,0.07723,0.87870,0.69326,3.68987
09:55:12.849288,0.71663,0.00995,0.58242,20.92703,-25.90009,-915.81555,0.01280,-0.01278,0.11584,-0.07369,1.09483,0.70500,2.81563
09:55:12.859825,0.72720,0.00977,0.16222,18.54649,-27.85134,-969.17338,0.01815,-0.05234,0.10059,-0.10730,0.98820,0.71585,1.39683
09:55:12.870500,0.73787,0.00971,-0.23288,16.19838,-31.36009,-1018.28181,0.00914,-0.10533,0.00982,-0.03739,1.06768,0.72691,0.30281
09:55:12.881682,0.74875,0.01014,-0.63617,13.71081,-33.65259,-1067.52727,0.02853,-0.16260,0.04880,-0.03367,1.01565,0.73769,0.01221
09:55:12.906759,0.77413,0.00995,-1.51030,8.31892,-38.79759,-1174.26707,0.03647,-0.23865,0.03666,0.12767,0.95130,0.76326,0.00000
09:55:12.916526,0.78390,0.00865,-1.92700,6.08270,-39.17384,-1228.38612,0.03922,-0.23926,-0.07216,-0.02775,0.92043,0.77344,0.00000
09:55:12.926406,0.79378,0.00835,-2.23240,3.92108,-38.93759,-1262.98698,0.04869,-0.20948,-0.05679,0.05222,0.95855,0.78283,0.00000
09:55:12.936652,0.80403,0.00843,-2.47766,1.71730,-35.77884,-1286.23942,0.04686,-0.15802,-0.07479,0.10657,0.95563,0.79285,0.00000
09:55:12.946713,0.81408,0.00831,-2.77088,-0.47189,-31.97259,-1318.35872,0.04900,-0.08502,-0.02501,0.02031,0.97789,0.80325,0.00488
09:55:12.956628,0.82400,0.00808,-3.10880,-2.65622,-28.20134,-1358.65217,0.03922,-0.03218,0.03465,-0.09601,0.98735,0.81315,0.03175
09:55:12.966817,0.83420,0.00779,-3.43874,-4.96703,-22.65384,-1396.27062,0.00501,0.00921,0.09126,-0.13530,1.00479,0.82393,0.21734
09:55:12.976136,0.84329,0.00596,-3.75005,-7.26162,-17.87634,-1369.11473,0.00425,0.03685,0.09254,-0.19410,1.10123,0.83484,0.25153
09:55:12.986363,0.85372,0.00594,-4.20477,-9.49946,-15.23384,-1318.17073,-0.00415,0.03150,0.03215,-0.43975,1.06164,0.84499,0.26129
09:55:12.997609,0.86429,0.00615,-4.61765,-11.92378,-13.78134,-1308.23247,0.01204,0.00905,-0.01098,-0.35008,0.95831,0.85633,0.53968
09:55:13.008482,0.87586,0.00735,-4.90294,-14.04000,-12.37259,-1279.92480,0.01861,-0.00622,0.01568,-0.23412,0.95227,0.86670,0.39805
09:55:13.018396,0.88575,0.00689,-5.13125,-16.03297,-11.15634,-1250.60545,0.02181,-0.02134,0.12365,-0.16665,0.84894,0.87709,0.25153
09:55:13.027361,0.89474,0.00561,-5.46813,-17.50541,-11.16509,-1297.98062,0.01066,-0.02897,0.07332,-0.30042,0.87547,0.88697,0.27106
09:55:13.038574,0.90595,0.00627,-5.57736,-18.72486,-10.17634,-1264.13834,-0.00369,-0.02806,0.05026,-0.07131,0.95947,0.89759,0.01465
09:55:13.050133,0.91749,0.00728,-5.48574,-19.54216,-8.26009,-1158.36347,-0.00278,-0.03371,-0.03141,0.14969,1.05676,0.90889,0.01954
09:55:13.058888,0.92627,0.00586,-5.60530,-20.01405,-5.43384,-1055.78834,0.00562,-0.06394,-0.00030,-0.16360,1.07909,0.91850,0.03907
09:55:13.069488,0.93613,0.00536,-5.69070,-20.43405,-4.48009,-1026.83961,0.00883,-0.09036,0.06118,-0.12999,1.05219,0.92818,3.40904
09:55:13.080480,0.94782,0.00667,-5.62227,-20.83784,-2.54634,-928.54851,-0.00659,-0.10655,0.06069,0.03599,1.01717,0.93863,2.47375
09:55:13.090333,0.95769,0.00606,-5.51115,-21.25459,0.72616,-765.64304,-0.01102,-0.12198,0.01385,0.04691,0.99198,0.94886,1.86081
09:55:13.100805,0.96733,0.00550,-5.50654,-21.69243,3.26366,-653.04810,-0.00598,-0.12900,-0.04941,-0.10218,0.95678,0.95959,1.69475
09:55:13.109915,0.97729,0.00526,-5.59661,-22.14000,4.18241,-626.16615,-0.00537,-0.12457,0.00061,-0.21088,0.93129,0.96927,1.66545
09:55:13.121798,0.98917,0.00617,-5.65386,-22.65405,4.33116,-625.29489,-0.00705,-0.09266,-0.01824,-0.18147,0.91622,0.98052,1.58730
09:55:13.132545,0.99990,0.00628,-5.65969,-23.11135,4.59366,-610.80251,-0.00751,-0.06730,-0.00006,-0.13560,0.98533,0.99114,1.56532
09:55:13.142374,1.00975,0.00567,-5.57137,-23.55730,5.14491,-567.05982,-0.00125,-0.04318,-0.01421,-0.03422,0.99973,1.00180,1.57265
09:55:13.154689,1.02137,0.00707,-5.38712,-23.95946,6.03741,-491.83691,-0.00079,-0.03523,-0.00628,0.06887,1.04121,1.01274,1.55311
09:55:13.162353,1.02973,0.00524,-5.19089,-24.31459,7.54241,-388.93899,0.00272,-0.02286,0.01043,0.08320,1.03011,1.02181,1.56532
09:55:13.173426,1.04079,0.00609,-5.06157,-24.65027,8.89866,-304.70019,-0.00751,-0.02317,0.05234,-0.02135,1.00802,1.03217,1.55311
09:55:13.183532,1.05088,0.00582,-4.97580,-24.88216,8.36491,-309.46856,-0.01240,-0.02851,0.00427,-0.06228,0.99631,1.04245,1.51160
09:55:13.194363,1.06172,0.00615,-4.92830,-24.96324,7.26241,-346.75647,-0.02018,-0.03982,0.01196,-0.09119,0.95990,1.05299,2.13187
09:55:13.204613,1.07196,0.00602,-4.93248,-24.91459,6.42241,-383.57930,-0.02278,-0.04989,-0.06954,-0.13932,0.97112,1.06335,1.60684
09:55:13.214680,1.08204,0.00591,-4.96381,-24.81730,5.03116,-449.16729,-0.00949,-0.05234,-0.04081,-0.14921,0.95026,1.07338,1.55067
09:55:13.225895,1.09327,0.00677,-4.89949,-24.68757,3.77116,-492.11255,0.00120,-0.04944,-0.05539,-0.03459,0.96142,1.08466,1.48962
09:55:13.236796,1.10357,0.00601,-4.71322,-24.57568,3.93741,-452.27456,0.00776,-0.04638,0.04197,0.10461,0.95166,1.09493,1.49939
09:55:13.246434,1.11379,0.00598,-4.56461,-24.48162,4.83866,-387.96970,0.00211,-0.04043,0.01641,0.05789,0.97624,1.10504,1.52625
09:55:13.256828,1.12419,0.00602,-4.53940,-24.40378,5.02241,-376.35444,-0.00018,-0.02806,0.01629,-0.08674,1.00253,1.11556,1.49451
09:55:13.266993,1.13435,0.00582,-4.54129,-24.34541,3.42991,-444.73662,-0.00644,-0.01202,0.00525,-0.09851,1.01437,1.12574,1.51404
09:55:13.277596,1.14497,0.00609,-4.49806,-24.30486,2.36241,-482.49699,-0.00339,0.00325,-0.02287,-0.03379,1.02523,1.13630,1.44567
09:55:13.287738,1.15509,0.00584,-4.40250,-24.28378,2.07366,-477.55516,-0.00644,0.00860,0.01891,0.03263,0.99759,1.14664,1.31136
09:55:13.298241,1.16561,0.00587,-4.35807,-24.28054,1.86366,-478.40355,-0.00598,0.00951,-0.00159,-0.02233,0.98911,1.15695,1.61905
09:55:13.308739,1.17609,0.00599,-4.29777,-24.28054,1.05866,-501.54450,-0.00797,0.00829,0.01287,0.00561,0.95099,1.16749,1.51404
09:55:13.318951,1.18631,0.00584,-4.18416,-24.28054,1.25116,-472.72471,-0.00537,0.00600,-0.03465,0.06490,0.96447,1.17766,1.52137
09:55:13.329421,1.19678,0.00609,-4.13608,-24.28054,1.49616,-453.60019,-0.00110,0.00294,-0.02373,-0.01013,0.96319,1.18817,1.52869
09:55:13.339555,1.20691,0.00587,-4.20899,-24.28054,0.20991,-521.35937,0.00685,-0.00469,-0.04056,-0.13286,0.97881,1.19844,1.52869
09:55:13.349764,1.21685,0.00523,-4.28231,-24.27892,-1.53134,-608.48574,0.01005,-0.00973,-0.00360,-0.11529,0.99064,1.20889,0.79121
09:55:13.360672,1.22803,0.00605,-4.27128,-24.26595,-3.29009,-681.12438,0.00761,-0.00454,0.01324,0.00232,0.99662,1.21941,1.27717
09:55:13.371411,1.23876,0.00659,-4.23412,-24.24000,-3.68384,-691.30027,0.00547,-0.00347,0.01909,0.03995,1.01425,1.23034,1.42857
09:55:13.381905,1.24928,0.00676,-4.22834,-24.21081,-3.95509,-702.02567,-0.00094,-0.00530,0.00226,0.00726,0.99839,1.24135,1.48230
09:55:13.391744,1.25912,0.00622,-4.21472,-24.19135,-4.41009,-719.01526,-0.00216,-0.00759,-0.00885,0.01122,1.00632,1.25034,1.74359
09:55:13.402612,1.26945,0.00619,-4.24173,-24.18486,-4.41884,-724.36139,0.00272,-0.00698,-0.02007,-0.02721,0.97429,1.26072,2.50794
09:55:13.411344,1.27872,0.00511,-4.32368,-24.18486,-5.49509,-784.86580,0.00853,-0.00775,-0.01281,-0.07790,0.96575,1.27093,3.07448
09:55:13.422360,1.28972,0.00590,-4.43233,-24.18486,-6.65009,-853.56560,0.01433,-0.00973,-0.02623,-0.09577,0.95209,1.28105,3.10867
09:55:13.432856,1.30024,0.00540,-4.50343,-24.18486,-7.98009,-922.84800,0.00776,-0.01553,-0.00146,-0.03172,0.96234,1.29227,3.12088
09:55:13.443712,1.31106,0.00587,-4.52911,-24.18486,-8.53134,-950.87564,0.01219,-0.01049,-0.02495,0.01677,0.98399,1.30260,3.14774
09:55:13.454185,1.32085,0.00517,-4.58617,-24.18486,-8.90759,-977.19508,0.01204,-0.00744,-0.00262,-0.01580,0.99387,1.31289,3.13309
09:55:13.464835,1.33220,0.00616,-4.64400,-24.18486,-9.41509,-1009.21599,0.01433,0.00035,-0.01049,-0.00915,1.01492,1.32343,3.13797
09:55:13.474888,1.34225,0.00585,-4.67885,-24.18486,-9.53759,-1020.74541,0.01830,0.00142,0.02708,0.01397,0.99833,1.33359,3.14530
09:55:13.485875,1.35325,0.00621,-4.79331,-24.18486,-10.13259,-1066.77276,0.00868,0.00050,-0.00592,-0.06320,1.00180,1.34456,3.14530
09:55:13.495362,1.36274,0.00534,-4.95531,-24.18486,-11.07759,-1136.27789,0.00990,-0.00057,-0.00018,-0.11431,0.98088,1.35493,3.14042
09:55:13.505848,1.37322,0.00536,-5.10514,-24.18486,-12.44259,-1221.36383,0.01005,0.00478,-0.02904,-0.08772,0.97344,1.36520,3.13553
09:55:13.516918,1.38430,0.00546,-5.19220,-24.18486,-13.23009,-1270.56551,0.01708,0.01165,-0.00830,0.00342,0.96600,1.37637,3.14042
09:55:13.527700,1.39436,0.00532,-5.24766,-24.18486,-13.24759,-1281.39417,0.01509,0.00768,-0.00372,0.02348,0.95861,1.38659,3.13309
09:55:13.538888,1.40624,0.00668,-5.35691,-24.18486,-13.39634,-1307.56575,0.01845,0.01302,-0.00012,-0.02660,0.97295,1.39746,3.13797
09:55:13.549066,1.41644,0.00652,-5.47839,-24.18486,-13.59759,-1338.18857,0.02151,0.01806,0.00622,-0.05545,0.97850,1.40733,3.14530
09:55:13.559580,1.42693,0.00681,-5.63672,-24.18486,-14.30634,-1397.01529,0.01769,0.03150,-0.00226,-0.08558,0.99790,1.41769,3.15995
09:55:13.569868,1.43724,0.00616,-5.79806,-24.18486,-14.91884,-1452.31023,0.02670,0.03929,0.00317,-0.07509,0.99381,1.42858,3.13797
09:55:13.581530,1.44890,0.00661,-5.97030,-24.18486,-15.28634,-1499.20960,0.01998,0.04494,0.00433,-0.08064,0.99900,1.43980,3.13797
09:55:13.592687,1.46003,0.00737,-6.14033,-24.18486,-15.05009,-1520.12444,0.01967,0.06159,0.01128,-0.08528,0.97197,1.45081,3.15018
09:55:13.602549,1.46992,0.00690,-6.30660,-24.18486,-14.25384,-1516.62820,0.01234,0.07594,0.00848,-0.10260,0.97063,1.46127,3.13553
09:55:13.613092,1.48045,0.00681,-6.43695,-24.18486,-13.91259,-1525.87697,0.01402,0.08159,0.00470,-0.07491,0.96154,1.47127,3.13553
09:55:13.622454,1.48982,0.00599,-6.54966,-24.18486,-13.59759,-1533.03147,0.01387,0.07594,0.00836,-0.06411,0.96624,1.48108,3.15018
09:55:13.632845,1.50019,0.00600,-6.75551,-24.17838,-12.50384,-1524.19197,0.02059,0.07197,-0.00921,-0.17721,0.98064,1.49158,2.09280
09:55:13.643797,1.51115,0.00660,-7.03275,-24.12811,-12.80134,-1587.70702,0.02303,0.07060,0.00891,-0.25345,0.98064,1.50270,1.62393
09:55:13.653863,1.52124,0.00633,-7.19671,-24.01459,-13.16009,-1633.82978,0.02380,0.06342,0.02245,-0.12993,0.99064,1.51322,1.52137
09:55:13.666142,1.53283,0.00757,-7.41117,-23.80541,-13.36134,-1683.38871,0.02242,0.05426,0.02946,-0.17147,0.96905,1.52468,1.50672
09:55:13.674714,1.54207,0.00642,-7.59704,-23.53459,-13.18634,-1712.40479,0.01540,0.04662,0.00927,-0.19496,0.97984,1.53293,1.51404
09:55:13.684940,1.55230,0.00607,-7.76366,-23.14865,-13.15134,-1744.96657,0.01418,0.03135,0.00964,-0.13670,0.97301,1.54370,1.51160
09:55:13.694516,1.56189,0.00547,-7.86315,-22.73676,-12.86259,-1754.81830,0.00959,0.03135,-0.00525,-0.07765,0.97899,1.55372,1.47985
09:55:13.705480,1.57285,0.00606,-7.87864,-22.27459,-11.31384,-1696.49441,0.01418,0.01745,-0.00055,0.00506,0.99723,1.56419,1.49695
09:55:13.715039,1.58242,0.00531,-7.86314,-21.82378,-9.35384,-1614.99824,0.01143,0.00569,-0.01726,0.01702,0.99351,1.57465,1.47497
09:55:13.726759,1.59412,0.00649,-7.94504,-21.36000,-7.94509,-1574.69811,0.01341,0.00417,-0.03324,-0.11474,0.99210,1.58551,1.47497
09:55:13.737539,1.60491,0.00687,-8.11799,-20.87027,-6.89509,-1566.41275,0.01326,0.01501,-0.04185,-0.22790,0.97173,1.59626,1.49451
09:55:13.746880,1.61424,0.00584,-8.25833,-20.44054,-7.38509,-1616.86306,0.01265,0.02662,-0.04587,-0.19764,0.96728,1.60559,1.49939
09:55:13.757476,1.62485,0.00609,-8.43615,-19.94595,-7.49884,-1658.81596,0.01754,0.04616,-0.04618,-0.22881,0.95386,1.61618,1.49695
09:55:13.767668,1.63502,0.00589,-8.54261,-19.44324,-8.05009,-1706.40724,0.01112,0.04937,-0.00866,-0.14866,0.97661,1.62654,1.47009
09:55:13.778177,1.64554,0.00593,-8.57015,-18.89676,-7.74384,-1703.73605,0.00975,0.05227,-0.02922,-0.06381,0.97606,1.63683,1.47009
09:55:13.788660,1.65602,0.00604,-8.59934,-18.33730,-6.76384,-1672.94409,0.01051,0.04937,-0.02464,-0.07692,0.99509,1.64739,1.47985
09:55:13.798042,1.66542,0.00526,-8.61007,-17.76811,-6.12509,-1653.34678,0.00975,0.04708,-0.06570,-0.06753,0.99881,1.65743,1.48718
09:55:13.809235,1.67590,0.00537,-8.61523,-17.16486,-6.11634,-1659.75978,0.01525,0.03746,-0.00616,-0.05679,0.97338,1.66791,1.46764
09:55:13.818670,1.68605,0.00516,-8.75943,-16.56486,-6.34384,-1701.44016,0.01708,0.03074,-0.05197,-0.21978,0.98411,1.67808,1.47497
09:55:13.830544,1.69790,0.00679,-8.94650,-15.93243,-6.98259,-1768.65612,0.01463,0.02799,-0.02348,-0.25260,0.96124,1.68920,1.46032
09:55:13.840068,1.70724,0.00591,-9.04818,-15.29351,-7.63884,-1821.14690,0.00608,0.03043,-0.05057,-0.15958,0.95953,1.69893,1.46032
09:55:13.851363,1.71871,0.00673,-9.11819,-14.56703,-8.39134,-1872.80228,0.00959,0.04265,-0.06887,-0.10602,0.97887,1.71005,1.45055
09:55:13.860596,1.72797,0.00564,-9.13592,-13.91027,-7.89259,-1861.25994,0.01265,0.04937,-0.05990,-0.06417,0.97917,1.71998,1.48962
09:55:13.871383,1.73875,0.00617,-9.16960,-13.25676,-7.22759,-1845.54143,0.00883,0.05487,-0.07436,-0.08863,0.95648,1.72984,1.47741
09:55:13.881588,1.74897,0.00618,-9.17681,-12.56757,-6.63259,-1828.32169,0.01357,0.06754,-0.05173,-0.06259,0.97386,1.74033,1.49939
09:55:13.892689,1.76005,0.00690,-9.24566,-11.90595,-6.52759,-1842.80666,0.01326,0.06861,-0.09492,-0.13572,0.98521,1.75087,1.49206
09:55:13.902221,1.76958,0.00594,-9.36614,-11.22486,-6.68509,-1877.99215,0.01738,0.07426,-0.08082,-0.19910,0.97972,1.76085,1.45299
09:55:13.912710,1.78005,0.00532,-9.44450,-10.56162,-7.09634,-1916.09615,0.01463,0.08526,-0.07076,-0.14298,0.98460,1.77141,1.47253
09:55:13.922645,1.79001,0.00596,-9.56207,-9.89189,-7.18384,-1947.67525,0.01082,0.08587,-0.04026,-0.19453,0.98064,1.78129,1.45543
09:55:13.933285,1.80066,0.00617,-9.66022,-9.16865,-6.80759,-1956.59469,0.00685,0.08679,-0.06137,-0.16909,0.96856,1.79202,1.47253
09:55:13.944217,1.81157,0.00673,-9.71719,-8.40649,-6.42259,-1958.02948,0.01158,0.09366,-0.05862,-0.12639,0.96898,1.80297,1.46520
09:55:13.953915,1.82129,0.00608,-9.73074,-7.67351,-6.01134,-1950.17104,0.01127,0.09274,-0.05142,-0.09187,0.96941,1.81260,1.47741
09:55:13.963679,1.83106,0.00523,-9.79827,-6.86270,-5.25009,-1938.05629,0.01341,0.08144,-0.03709,-0.15305,0.95087,1.82328,1.44322
09:55:13.974633,1.84199,0.00597,-9.88102,-6.03568,-4.68134,-1937.02255,0.01021,0.07884,-0.01287,-0.18568,0.97161,1.83333,1.46032
09:55:13.985050,1.85242,0.00604,-9.99654,-5.16162,-3.97259,-1936.47269,0.01036,0.07640,-0.02324,-0.23784,0.99436,1.84377,1.47741
09:55:13.994746,1.86212,0.00539,-10.10442,-4.28919,-3.62259,-1949.71945,0.00486,0.07579,-0.02727,-0.23272,0.97960,1.85394,1.43590
09:55:14.006684,1.87378,0.00616,-10.20178,-3.35189,-3.11509,-1955.00661,0.00471,0.06785,-0.04160,-0.22503,0.97447,1.86462,1.47253
09:55:14.016758,1.88360,0.00612,-10.27003,-2.43568,-2.76509,-1961.46740,0.01112,0.06815,-0.03587,-0.19813,0.97527,1.87487,1.45543
09:55:14.026345,1.89370,0.00587,-10.31752,-1.46757,-1.91634,-1943.52518,0.00425,0.06021,-0.03080,-0.18355,0.96728,1.88507,1.47741
09:55:14.036594,1.90397,0.00565,-10.33251,-0.42000,-1.52259,-1939.71900,0.00288,0.05059,-0.02092,-0.14975,0.96490,1.89594,1.46032
09:55:14.047319,1.91469,0.00601,-10.36169,0.57730,-0.63009,-1916.87458,0.00898,0.04296,-0.01726,-0.18416,0.99765,1.90587,1.46276
09:55:14.057708,1.92508,0.00604,-10.35550,1.66216,-0.26259,-1910.69029,0.00517,0.02982,-0.02007,-0.14445,0.98314,1.91644,1.46764
09:55:14.067575,1.93495,0.00541,-10.37460,2.75027,-0.07884,-1916.92297,0.00303,0.02478,-0.03471,-0.17611,0.98210,1.92696,1.44322
09:55:14.078373,1.94573,0.00593,-10.40902,3.84649,0.25366,-1919.71699,0.00181,0.01929,-0.04368,-0.20222,1.00034,1.93703,1.47009
09:55:14.089662,1.95704,0.00687,-10.45479,5.05297,0.31491,-1937.13808,0.00898,0.02463,-0.03977,-0.21185,0.97283,1.94832,1.45788
09:55:14.098431,1.96581,0.00528,-10.43770,6.08108,1.04116,-1913.22132,0.00608,0.02371,-0.02898,-0.14341,0.95282,1.95787,1.47497
09:55:14.110335,1.97742,0.00669,-10.44376,7.19027,1.34741,-1912.09461,0.00410,0.02631,-0.05106,-0.17464,0.95642,1.96822,1.44811
09:55:14.120175,1.98736,0.00627,-10.41122,8.25730,1.75866,-1899.09160,0.00318,0.02310,-0.02477,-0.13731,0.97069,1.97849,1.47985
09:55:14.129785,1.99716,0.00555,-10.42772,9.35676,2.16116,-1895.69212,0.00288,0.02265,-0.06301,-0.19984,0.97618,1.98883,1.47497
09:55:14.141598,2.00897,0.00690,-10.42626,10.52919,2.86991,-1876.75718,0.00226,0.01730,-0.03514,-0.19197,0.98015,2.00030,1.47009
09:55:14.150912,2.01827,0.00584,-10.41202,11.49081,2.64241,-1893.12594,-0.00064,0.01409,-0.04105,-0.16873,0.98844,2.00963,1.46276
09:55:14.161493,2.02887,0.00608,-10.42803,12.56757,2.80866,-1899.42616,-0.00003,0.01302,-0.00762,-0.20612,0.96813,2.02020,1.47253
09:55:14.172425,2.03885,0.00570,-10.43717,13.59568,2.30116,-1932.55443,-0.00369,0.00233,-0.03989,-0.19410,0.98064,2.03058,1.47741
09:55:14.182169,2.04953,0.00589,-10.42520,14.64486,2.46741,-1933.49900,-0.00308,-0.00637,-0.01488,-0.17050,0.97746,2.04086,1.47497
09:55:14.193493,2.06086,0.00690,-10.41116,15.66324,2.45866,-1941.18448,-0.00110,-0.01996,-0.01702,-0.16830,0.96685,2.05198,1.45299
09:55:14.202696,2.07006,0.00591,-10.36790,16.64108,2.39741,-1945.38816,-0.00446,-0.02851,-0.01196,-0.13286,0.99546,2.06140,1.47497
09:55:14.213174,2.08054,0.00603,-10.35538,17.62865,2.37116,-1953.79142,-0.00522,-0.03401,-0.00866,-0.16836,0.97893,2.07190,1.47253
09:55:14.223371,2.09073,0.00586,-10.37734,18.55784,2.62491,-1956.03772,0.00349,-0.03264,-0.04978,-0.21173,0.98234,2.08208,1.47497
09:55:14.233223,2.10059,0.00536,-10.36725,19.49351,2.65116,-1962.15740,-0.00293,-0.02714,-0.04233,-0.17397,0.97350,2.09263,1.48230
09:55:14.243565,2.11094,0.00535,-10.32675,20.36595,2.93116,-1951.38192,0.00120,-0.02806,-0.04429,-0.14146,0.97661,2.10294,1.48230
09:55:14.254335,2.12169,0.00587,-10.32871,21.21405,3.07991,-1953.65332,0.00501,-0.02302,-0.03715,-0.18867,0.96234,2.11305,1.44811
09:55:14.265353,2.13271,0.00652,-10.30162,22.05568,3.70991,-1930.18907,-0.00293,-0.01905,-0.01836,-0.16427,0.96319,2.12358,1.47985
09:55:14.275589,2.14225,0.00571,-10.24135,22.86649,4.13866,-1908.91757,-0.00446,-0.01599,-0.01976,-0.13396,0.97295,2.13449,1.46520
09:55:14.286021,2.15339,0.00603,-9.95230,23.65459,4.76866,-1837.28888,-0.01224,-0.00225,-0.03434,0.12188,0.95959,2.14472,1.47253
09:55:14.297180,2.16403,0.00631,-10.01870,24.37946,8.98616,-1677.69504,-0.01835,-0.03691,-0.08796,-0.35112,1.01083,2.15520,1.47253
09:55:14.306480,2.17385,0.00593,-10.07946,25.07514,6.99116,-1780.01557,-0.00430,-0.01828,-0.01391,-0.29237,0.94288,2.16516,1.47009
09:55:14.316972,2.18432,0.00605,-10.09104,25.72541,5.98491,-1831.05692,-0.01117,-0.01569,-0.00183,-0.24937,1.03303,2.17567,1.47497
09:55:14.327439,2.19480,0.00584,-10.12294,26.24919,5.36366,-1868.25638,0.00089,-0.02332,0.02708,-0.24656,0.95337,2.18615,1.47497
09:55:14.338600,2.20520,0.00588,-10.05520,26.62703,4.94366,-1877.39342,-0.01148,-0.03584,-0.09065,-0.13463,0.99204,2.19703,1.45543
09:55:14.348789,2.21612,0.00564,-9.92447,26.85568,5.64366,-1826.17297,0.00104,-0.04669,-0.03654,-0.06051,0.94715,2.20709,1.46032
09:55:14.358430,2.22579,0.00592,-9.86978,27.00649,5.47741,-1824.72982,0.00639,-0.05264,-0.05087,-0.14207,0.95331,2.21712,1.49206
09:55:14.369219,2.23660,0.00635,-9.74023,27.13622,7.40241,-1720.86330,0.00242,-0.06013,0.01135,-0.08247,0.95386,2.22765,1.50183
09:55:14.380080,2.24724,0.00662,-9.63447,27.24811,7.75241,-1687.88241,-0.00629,-0.04959,-0.01013,-0.11785,0.97088,2.23874,1.47985
09:55:14.389627,2.25700,0.00602,-9.60502,27.33568,8.46116,-1653.34513,-0.00781,-0.06074,-0.06472,-0.20710,1.00790,2.24837,1.46520
09:55:14.400254,2.26723,0.00589,-9.52554,27.40541,8.46991,-1639.19304,0.00043,-0.04256,-0.06259,-0.15036,0.98674,2.25875,1.48474
09:55:14.410360,2.27701,0.00520,-9.50066,27.45892,9.04741,-1610.71875,0.00425,-0.03615,-0.01958,-0.21875,0.98125,2.26903,1.48718
09:55:14.421280,2.28864,0.00648,-9.43235,27.48811,8.96866,-1601.91401,-0.00537,-0.03294,0.02861,-0.16446,0.93476,2.27997,1.68498
09:55:14.431222,2.29857,0.00607,-9.28833,27.47027,8.53991,-1593.71152,-0.00980,-0.03355,0.01531,-0.06759,0.97710,2.28985,1.57509
09:55:14.442290,2.30965,0.00596,-9.21528,27.37784,9.19616,-1551.72487,-0.00980,-0.03875,-0.01726,-0.16879,0.98271,2.30101,1.46520
09:55:14.452807,2.32016,0.00611,-9.15578,27.22378,8.44366,-1571.29419,-0.00690,-0.04974,-0.04569,-0.16781,0.98942,2.31145,1.45788
09:55:14.463214,2.33057,0.00633,-9.05138,27.02595,8.80241,-1535.18781,-0.00384,-0.05371,-0.00970,-0.11431,0.98997,2.32149,1.44567
09:55:14.474340,2.34168,0.00634,-8.86164,26.80541,9.28366,-1478.15080,-0.00110,-0.04989,0.00140,-0.03300,0.97929,2.33287,1.44078
09:55:14.483450,2.35081,0.00585,-8.75758,26.63189,10.05366,-1424.91792,-0.00766,-0.05081,-0.01537,-0.11322,0.97222,2.34234,1.47741
09:55:14.496158,2.36255,0.00685,-8.68656,26.45189,10.43866,-1393.94336,-0.00980,-0.04088,-0.03953,-0.17501,0.96063,2.35359,1.44078
09:55:14.505175,2.37252,0.00645,-8.57965,26.31892,10.49991,-1370.61536,-0.00934,-0.03065,-0.01982,-0.11913,0.97624,2.36347,1.46032
09:55:14.515295,2.38265,0.00623,-8.46081,26.19730,11.16491,-1319.64618,-0.00919,-0.02454,0.00793,-0.11248,0.96087,2.37361,1.46520
09:55:14.525465,2.39284,0.00605,-8.33386,26.09676,11.40116,-1285.57357,-0.01163,-0.02332,0.00348,-0.11065,0.97100,2.38418,1.49206
09:55:14.535647,2.40300,0.00586,-8.20950,26.01892,11.76866,-1246.62969,-0.01469,-0.02302,-0.01147,-0.11383,0.97740,2.39455,1.44078
09:55:14.546909,2.41426,0.00689,-8.08175,25.95730,11.92616,-1216.12399,-0.01026,-0.01981,-0.00226,-0.12029,0.98149,2.40567,1.52381
09:55:14.556382,2.42374,0.00602,-7.91410,25.92324,12.18866,-1174.17983,-0.01179,-0.02057,0.00762,-0.05295,0.99137,2.41512,1.54823
09:55:14.566587,2.43319,0.00523,-7.78671,25.90378,12.37241,-1143.03620,-0.01194,-0.03050,0.00866,-0.10754,0.98643,2.42523,1.62149
09:55:14.577115,2.44449,0.00617,-7.65285,25.90216,12.22366,-1124.97536,-0.01240,-0.03783,-0.00281,-0.11364,0.99247,2.43655,1.52869
09:55:14.588227,2.45558,0.00689,-7.55851,25.90216,11.87366,-1122.64713,-0.01744,-0.04058,0.00085,-0.13969,0.98381,2.44697,1.49939
09:55:14.598667,2.46603,0.00699,-7.44017,25.90216,11.53241,-1115.58140,-0.01698,-0.03722,-0.00012,-0.10583,0.98393,2.45739,1.47009
09:55:14.607197,2.47457,0.00517,-7.30240,25.90216,11.87366,-1076.06520,-0.02156,-0.04027,-0.00238,-0.07155,0.97990,2.46679,1.50427
09:55:14.618395,2.48577,0.00599,-7.17353,25.90216,11.82991,-1054.48002,-0.01652,-0.03798,-0.01818,-0.09815,0.97795,2.47765,1.48474
09:55:14.628163,2.49532,0.00518,-7.04812,25.90216,12.03991,-1022.77287,-0.01545,-0.03630,-0.02416,-0.08930,0.97667,2.48754,1.47497
09:55:14.638977,2.50635,0.00601,-6.90814,25.90216,11.98741,-999.53819,-0.01316,-0.03019,-0.01891,-0.08601,0.98332,2.49859,1.48962
09:55:14.650289,2.51766,0.00697,-6.73683,25.90216,11.82991,-975.05248,-0.01133,-0.03218,-0.01232,-0.04752,0.98838,2.50976,1.48474
09:55:14.658844,2.52622,0.00533,-6.59540,25.90216,12.11866,-937.09491,-0.01820,-0.03218,-0.00531,-0.04813,0.98661,2.51843,1.46764
09:55:14.670164,2.53754,0.00628,-6.45299,25.90216,12.24991,-905.63332,-0.01774,-0.02790,-0.02300,-0.07277,0.98643,2.52904,1.48230
09:55:14.679717,2.54709,0.00555,-6.33722,25.90216,12.31116,-881.98193,-0.01438,-0.02515,-0.01177,-0.09711,0.98387,2.53932,1.48962
09:55:14.691402,2.55808,0.00628,-6.20728,25.90216,12.36366,-856.12340,-0.01683,-0.02668,-0.01208,-0.08717,0.98478,2.55016,1.47985
09:55:14.701870,2.56924,0.00704,-6.08482,25.90054,12.22366,-839.76646,-0.01515,-0.02714,-0.00354,-0.08278,0.97844,2.56038,0.89377
09:55:14.710736,2.57811,0.00555,-5.97370,25.89730,11.81241,-836.94989,-0.02125,-0.02974,-0.01366,-0.07753,0.97795,2.56975,0.99390
09:55:14.721670,2.58905,0.00613,-5.84660,25.89081,11.43616,-829.71172,-0.01591,-0.03126,-0.01787,-0.06850,0.97515,2.58031,1.70940
09:55:14.731785,2.59914,0.00587,-5.72942,25.88270,11.29616,-814.25259,-0.01255,-0.03065,-0.00555,-0.07320,0.97271,2.59067,1.57021
09:55:14.742806,2.61017,0.00640,-5.60875,25.87784,11.44491,-785.95460,-0.01545,-0.03157,0.00445,-0.06905,0.98167,2.60098,2.86691
09:55:14.752838,2.62019,0.00622,-5.45386,25.87784,11.18241,-768.90473,-0.01102,-0.03249,0.00116,-0.02861,0.98674,2.61159,3.08669
09:55:14.763208,2.62989,0.00538,-5.30964,25.87784,11.46241,-730.81173,-0.01606,-0.03432,-0.01854,-0.03855,1.00156,2.62192,3.12332
09:55:14.774611,2.64145,0.00619,-5.19513,25.87784,11.09491,-725.55457,-0.01484,-0.04134,-0.02068,-0.07241,0.99869,2.63275,3.13309
09:55:14.784519,2.65188,0.00626,-5.07818,25.87784,10.78866,-717.26045,-0.01224,-0.04058,-0.00470,-0.05557,0.99454,2.64293,3.14042
09:55:14.794388,2.66174,0.00592,-4.94852,25.87784,10.63116,-700.35147,-0.01576,-0.03966,0.00445,-0.03575,0.98118,2.65305,3.14774
09:55:14.805116,2.67249,0.00612,-4.83456,25.87784,10.21116,-697.41865,-0.01163,-0.04256,-0.00207,-0.05362,0.98003,2.66378,3.13065
09:55:14.814486,2.68186,0.00530,-4.73765,25.87622,9.53741,-708.32368,-0.02034,-0.04272,-0.01909,-0.05697,0.98728,2.67390,3.05006
09:55:14.826607,2.69397,0.00686,-4.61451,25.87297,9.04741,-706.65650,-0.01087,-0.03951,-0.02891,-0.03282,0.98332,2.68534,0.95482
09:55:14.836907,2.70426,0.00680,-4.49177,25.86649,8.69741,-699.10087,-0.01408,-0.04516,-0.02489,-0.01598,0.98997,2.69568,1.28694
09:55:14.847078,2.71443,0.00664,-4.36282,25.85351,8.73241,-674.03870,-0.01179,-0.04638,-0.01708,-0.00476,0.98216,2.70578,1.37729
09:55:14.857332,2.72468,0.00648,-4.24849,25.83730,8.55741,-660.50112,-0.01102,-0.04424,-0.01781,-0.01543,0.98649,2.71569,1.60195
09:55:14.866339,2.73372,0.00527,-4.15556,25.81946,8.45241,-647.87487,-0.01102,-0.03890,-0.02281,-0.03812,0.98789,2.72572,1.60684
09:55:14.877473,2.74484,0.00604,-4.08097,25.79676,8.24241,-642.98698,-0.01072,-0.03493,-0.03666,-0.05935,0.98491,2.73621,1.40904
09:55:14.888774,2.75613,0.00710,-4.00229,25.77405,7.58616,-656.26150,-0.00720,-0.02867,-0.03422,-0.04874,0.98545,2.74707,1.55311
09:55:14.898282,2.76564,0.00608,-3.91987,25.74324,7.20116,-657.28530,-0.00568,-0.02806,-0.02092,-0.02891,0.98082,2.75678,1.44078
09:55:14.909112,2.77649,0.00657,-3.81226,25.70919,6.99116,-646.27968,-0.00522,-0.02882,-0.01171,-0.00317,0.98314,2.76734,1.53846
09:55:14.918880,2.78626,0.00614,-3.70638,25.67514,6.79866,-634.84850,-0.00552,-0.02897,-0.00470,-0.00177,0.98118,2.77801,1.39683
09:55:14.929933,2.79731,0.00623,-3.60722,25.64432,6.71991,-619.85262,-0.00720,-0.02775,-0.01623,-0.00610,0.98954,2.78859,1.55800
09:55:14.940108,2.80663,0.00519,-3.52320,25.62811,6.72866,-604.04291,-0.00491,-0.02806,-0.01653,-0.01940,0.99265,2.79883,1.22833
09:55:14.949576,2.81696,0.00518,-3.45652,25.62324,6.59741,-597.42874,-0.00613,-0.03615,-0.00714,-0.03575,0.98820,2.80899,1.65079
09:55:14.960824,2.82818,0.00603,-3.40924,25.62324,5.97616,-615.15144,-0.00323,-0.03768,0.01287,-0.05228,0.98704,2.81954,1.51404
09:55:14.970955,2.83831,0.00582,-3.36603,25.62324,5.24991,-638.06430,-0.00858,-0.04043,0.01440,-0.04520,0.98838,2.82969,1.47985
09:55:14.982646,2.84912,0.00626,-3.30592,25.62324,4.67241,-651.59970,-0.01148,-0.04027,-0.00122,-0.02062,0.99381,2.84025,1.47253
09:55:14.991735,2.85839,0.00517,-3.23141,25.62324,4.41866,-648.80013,-0.00293,-0.04043,-0.00927,0.00116,0.99497,2.85061,1.46764
09:55:15.002288,2.86965,0.00611,-3.16334,25.62324,4.29616,-641.60880,0.00058,-0.04867,-0.01562,-0.00275,0.98936,2.86080,1.48718
09:55:15.012613,2.87997,0.00605,-3.10819,25.62324,3.69241,-657.15852,-0.00018,-0.05035,-0.00073,-0.01068,0.97844,2.87131,1.46764
09:55:15.022199,2.88958,0.00517,-3.05334,25.62324,3.49116,-655.70992,-0.00705,-0.05142,-0.00622,-0.00683,0.97820,2.88160,1.47253
09:55:15.033472,2.90085,0.00607,-2.99613,25.62324,3.15866,-659.39294,-0.00293,-0.05157,-0.00451,-0.00043,0.97881,2.89219,1.49939
09:55:15.043657,2.91102,0.00588,-2.94904,25.62324,3.03616,-656.01752,-0.00461,-0.04837,-0.01348,-0.00891,0.99155,2.90256,1.46276
09:55:15.054142,2.92081,0.00518,-2.92408,25.62324,2.81741,-660.74681,-0.00140,-0.04012,-0.01836,-0.03093,0.99460,2.91286,1.47253
09:55:15.065027,2.93240,0.00612,-2.86556,25.62324,2.29241,-672.34708,-0.00048,-0.03691,-0.01958,0.01281,0.99204,2.92380,1.48962
09:55:15.075346,2.94203,0.00539,-2.83685,25.62324,2.27491,-667.86732,-0.00354,-0.03050,-0.01232,-0.01806,0.99229,2.93384,1.49206
09:55:15.086449,2.95380,0.00680,-2.80524,25.62324,1.88991,-678.43017,-0.00110,-0.03508,-0.00244,-0.01080,0.98106,2.94440,1.48230
09:55:15.097884,2.96498,0.00762,-2.77085,25.62000,1.85491,-673.62745,-0.00262,-0.03203,0.00122,-0.00793,0.97948,2.95557,0.55678
09:55:15.105640,2.97301,0.00523,-2.73309,25.61676,1.67991,-674.14226,-0.00201,-0.03203,0.00817,0.00195,0.98088,2.96501,1.51404
09:55:15.117247,2.98460,0.00645,-2.72652,25.61351,1.67116,-673.28707,0.00120,-0.03249,-0.01086,-0.03544,0.99424,2.97554,1.06716
09:55:15.127040,2.99439,0.00589,-2.70584,25.61351,1.51366,-676.19834,0.00181,-0.03340,-0.00506,-0.01647,0.99570,2.98570,1.39927
09:55:15.136801,3.00418,0.00539,-2.68925,25.61351,1.00616,-694.68513,0.00196,-0.03539,-0.00683,-0.01543,0.99515,2.99625,1.46276
09:55:15.148090,3.01462,0.00560,-2.66605,25.61351,1.24241,-680.45522,0.00410,-0.03584,0.01098,-0.00994,0.99162,3.00655,1.49451
09:55:15.159143,3.02602,0.00648,-2.67142,25.61351,1.17241,-684.39728,0.00043,-0.03203,0.01610,-0.04111,0.98057,3.01677,1.49451
09:55:15.167711,3.03509,0.00519,-2.65417,25.61351,1.05866,-686.08008,-0.00308,-0.02974,0.00616,-0.01452,0.98253,3.02732,1.49451
09:55:15.178627,3.04598,0.00589,-2.63527,25.61351,1.18116,-677.45112,-0.00110,-0.03096,0.00726,-0.01305,0.98186,3.03734,1.46520
09:55:15.189321,3.05670,0.00624,-2.60737,25.61351,1.47866,-659.77280,-0.00048,-0.03294,-0.00195,-0.00781,0.98832,3.04852,1.49206
09:55:15.200516,3.06789,0.00719,-2.60909,25.61351,1.50491,-658.97316,0.00028,-0.03111,-0.00116,-0.03953,0.98448,3.05851,1.48718
09:55:15.210013,3.07739,0.00640,-2.57508,25.61351,1.74116,-642.77734,-0.00201,-0.03081,0.01013,-0.00165,0.98674,3.06868,1.47741
09:55:15.219639,3.08702,0.00567,-2.55777,25.61351,2.34491,-614.04846,-0.00247,-0.03142,0.01110,-0.02696,0.99009,3.07873,1.47741
09:55:15.229646,3.09703,0.00520,-2.54421,25.61351,2.36241,-610.83958,-0.00354,-0.02729,0.01732,-0.03196,0.99119,3.08907,1.49206
09:55:15.240184,3.10735,0.00516,-2.54786,25.61351,2.39741,-610.02052,-0.00003,-0.02515,0.01635,-0.05264,0.99406,3.09957,1.48718
09:55:15.250991,3.11835,0.00596,-2.52200,25.61351,2.63366,-595.30885,-0.00552,-0.02653,0.01269,-0.02031,0.99143,3.10974,1.49695
09:55:15.261473,3.12885,0.00609,-2.50033,25.61351,3.09741,-571.71676,-0.00629,-0.02439,0.00805,-0.03099,0.99381,3.12016,1.49451
09:55:15.271754,3.13911,0.00600,-2.46646,25.61351,3.28116,-557.77259,-0.00125,-0.02607,0.01409,-0.01830,0.98814,3.13050,1.47497
09:55:15.282146,3.14950,0.00587,-2.41956,25.61351,4.13866,-512.90911,-0.00354,-0.02668,0.02190,-0.01275,0.98503,3.14085,1.47985
09:55:15.293188,3.16004,0.00605,-2.36511,25.61351,4.66366,-480.76249,-0.00812,-0.02042,0.03648,-0.01049,0.98667,3.15139,1.47741
09:55:15.302725,3.17008,0.00591,-2.33583,25.61351,5.32866,-447.25976,-0.00980,-0.02164,0.02647,-0.04355,0.99003,3.16144,1.48474
09:55:15.313752,3.18059,0.00605,-2.29445,25.61351,5.47741,-433.43129,-0.00537,-0.01950,0.01708,-0.03373,0.99497,3.17194,1.46520
09:55:15.323463,3.19081,0.00591,-2.24648,25.61351,5.60866,-419.14653,-0.00675,-0.02378,0.02409,-0.02489,0.99656,3.18211,1.47741
09:55:15.333940,3.20060,0.00533,-2.19324,25.61351,5.80991,-400.93482,-0.00476,-0.02164,0.03715,-0.02245,0.98857,3.19263,1.48230
09:55:15.343316,3.21069,0.00507,-2.14848,25.61351,6.17741,-377.22324,-0.00598,-0.02622,0.05270,-0.03385,0.98179,3.20293,1.48962
09:55:15.355334,3.22269,0.00672,-2.07707,25.61351,6.24741,-361.26944,-0.01102,-0.02470,0.03172,-0.00891,0.98667,3.21400,1.49695
09:55:15.365088,3.23246,0.00608,-2.01059,25.61351,6.29116,-347.32436,-0.01545,-0.02668,0.01397,-0.00506,0.99015,3.22382,1.49695
09:55:15.375669,3.24229,0.00553,-1.92020,25.61351,6.43116,-324.95224,-0.01347,-0.02790,-0.00232,0.01690,0.99631,3.23437,1.47497
09:55:15.385819,3.25319,0.00605,-1.84855,25.61514,6.47491,-310.08343,-0.00904,-0.02531,-0.00098,-0.00079,0.99277,3.24452,1.10623
09:55:15.396318,3.26369,0.00620,-1.74574,25.62649,6.56241,-287.78715,-0.00781,-0.02195,0.00159,0.02721,0.98594,3.25574,1.35043
09:55:15.406913,3.27427,0.00658,-1.65966,25.65243,6.77241,-263.48463,-0.01026,-0.01676,0.00244,0.01690,0.98247,3.26567,1.51160
09:55:15.417500,3.28488,0.00622,-1.58415,25.68649,6.83366,-247.48537,-0.00995,-0.01492,-0.00104,0.00085,0.97630,3.27623,1.41636
09:55:15.428421,3.29577,0.00676,-1.49785,25.72216,6.85991,-231.02147,-0.00751,-0.01553,0.00579,0.01494,0.98387,3.28668,1.54335
09:55:15.438643,3.30549,0.00596,-1.41755,25.75459,6.72866,-222.29323,-0.00690,-0.01004,0.01928,0.01403,0.98106,3.29675,1.59219
09:55:15.448670,3.31517,0.00531,-1.36366,25.77730,6.72866,-212.71126,-0.01515,0.00142,0.02294,-0.01928,0.98899,3.30739,1.35775
09:55:15.458566,3.32592,0.00587,-1.30414,25.78703,6.30866,-219.77459,-0.01316,0.00111,0.01385,-0.00140,0.99723,3.31728,2.07082
09:55:15.470115,3.33746,0.00684,-1.20087,25.78865,6.08116,-210.64787,-0.01438,0.00707,-0.00372,0.04172,1.00070,3.32881,1.54579
09:55:15.479482,3.34684,0.00587,-1.10778,25.78865,6.33491,-182.96432,-0.00873,0.00753,-0.00622,0.04264,0.99741,3.33835,1.50916
09:55:15.490001,3.35737,0.00604,-1.04358,25.78865,6.09866,-181.29721,-0.00873,0.01043,0.00311,0.00744,0.98265,3.34871,1.48230
09:55:15.500939,3.36765,0.00569,-0.95410,25.79351,5.78366,-178.41751,-0.00736,0.00783,0.00622,0.03703,0.97191,3.35964,1.29670
09:55:15.510677,3.37804,0.00589,-0.87011,25.80324,5.94116,-156.56268,-0.00919,0.01012,0.00878,0.03831,0.97240,3.36938,1.26740
09:55:15.521189,3.38855,0.00604,-0.80730,25.82270,5.86241,-148.66365,-0.01453,0.00860,-0.00146,0.01171,0.98308,3.37989,1.34554
09:55:15.532581,3.39993,0.00657,-0.75763,25.85027,5.45116,-157.32083,-0.00919,0.00860,0.00073,-0.00030,0.99479,3.39088,1.43834
09:55:15.542302,3.40967,0.00589,-0.70091,25.87946,4.79491,-175.09275,-0.00537,0.00798,0.00043,0.02172,0.99857,3.40100,1.43101
09:55:15.552801,3.42015,0.00602,-0.64908,25.90865,4.66366,-171.51032,-0.00583,0.00875,0.00708,0.01635,0.99332,3.41152,1.37485
09:55:15.562288,3.42967,0.00517,-0.61775,25.92973,4.12991,-188.63111,-0.00736,0.00065,0.01122,0.00159,0.98796,3.42169,1.60440
09:55:15.574961,3.44204,0.00734,-0.56674,25.94595,3.72741,-196.56401,-0.00720,-0.00332,0.01251,0.02580,0.98625,3.43270,1.28694
09:55:15.584109,3.45128,0.00622,-0.51585,25.95892,3.25491,-207.45409,-0.01194,-0.00225,0.00128,0.03587,0.98759,3.44279,1.29915
09:55:15.594087,3.46144,0.00586,-0.47702,25.97514,3.04491,-209.44724,-0.00644,-0.00545,-0.02043,0.02556,0.98844,3.45280,1.51648
09:55:15.604819,3.47217,0.00636,-0.43973,25.99459,2.47616,-226.95153,-0.00751,-0.00561,-0.02275,0.02946,0.98625,3.46330,1.57265
09:55:15.614058,3.48143,0.00543,-0.38615,26.02054,1.92491,-240.81281,-0.00201,0.00020,-0.02178,0.05636,0.98222,3.47325,1.57021
09:55:15.625040,3.49241,0.00605,-0.32277,26.04811,1.85491,-232.51918,-0.00171,-0.00041,-0.01976,0.06753,0.97435,3.48379,1.49695
09:55:15.634518,3.50190,0.00517,-0.28786,26.07081,1.92491,-223.42355,-0.00354,0.00157,-0.02428,0.03672,0.98649,3.49393,1.34554
09:55:15.646082,3.51344,0.00634,-0.25274,26.08378,1.67116,-227.91353,-0.00797,-0.00026,-0.03331,0.03928,0.98771,3.50473,1.04274
09:55:15.656516,3.52367,0.00620,-0.25157,26.08378,1.69741,-226.58759,-0.00613,0.00356,-0.02489,0.00183,0.99643,3.51486,1.36264
09:55:15.665567,3.53295,0.00516,-0.29015,26.08378,1.16366,-256.22013,0.00120,0.00844,-0.00567,-0.03788,0.99094,3.52500,1.46764
09:55:15.676832,3.54332,0.00532,-0.33707,26.08378,0.13116,-308.50034,-0.00003,0.01379,0.00189,-0.03611,0.98472,3.53555,1.49206
09:55:15.686716,3.55407,0.00589,-0.31279,26.08378,-0.26259,-320.76807,0.00150,0.01180,-0.01269,0.04923,0.98533,3.54542,1.48474
09:55:15.698031,3.56538,0.00682,-0.28452,26.08378,-0.76134,-336.75827,0.00242,0.00554,-0.01421,0.06021,0.98247,3.55596,1.48962
09:55:15.708021,3.57520,0.00629,-0.24639,26.08378,-0.70884,-327.59948,0.00547,-0.00332,-0.00518,0.07149,0.98826,3.56610,1.48962
09:55:15.718121,3.58548,0.00634,-0.20046,26.08378,-0.29759,-301.82055,-0.00140,-0.01324,0.01440,0.07655,0.98722,3.57685,1.48474
09:55:15.728624,3.59599,0.00650,-0.19598,26.08378,-0.43759,-306.93720,-0.00491,-0.01355,0.01214,0.03117,0.99460,3.58688,1.49695
09:55:15.737628,3.60500,0.00520,-0.22761,26.08378,-0.49009,-314.91421,-0.00369,-0.01508,-0.00061,-0.00994,1.00009,3.59703,1.47009
09:55:15.748842,3.61534,0.00518,-0.29777,26.08378,-1.25134,-359.92996,-0.00140,-0.01110,-0.00476,-0.04569,0.99351,3.60755,1.47253
09:55:15.758308,3.62568,0.00515,-0.34120,26.08378,-1.86384,-393.77969,-0.00262,-0.00775,-0.00329,-0.00927,0.98552,3.61773,1.48230
09:55:15.768876,3.63625,0.00536,-0.35273,26.08378,-2.17884,-409.22438,-0.00003,-0.00118,-0.00152,0.03087,0.97789,3.62829,1.49451
09:55:15.779820,3.64717,0.00591,-0.34438,26.08378,-2.15259,-406.59271,0.00150,-0.00041,-0.00878,0.05283,0.98234,3.63866,1.48718
09:55:15.789461,3.65684,0.00525,-0.32860,26.08378,-1.96009,-395.56627,0.00120,0.00172,-0.00891,0.05905,0.98497,3.64888,1.47985
09:55:15.800979,3.66833,0.00637,-0.30605,26.08378,-1.52259,-372.92909,0.00349,0.00004,-0.00317,0.06259,0.98613,3.65937,1.49451
09:55:15.811263,3.67859,0.00578,-0.30926,26.08378,-1.08509,-354.97444,0.00303,-0.00362,0.01366,0.02836,0.98747,3.66999,1.47253
09:55:15.821235,3.68861,0.00625,-0.33653,26.07568,-1.59259,-381.35994,0.00654,-0.00652,0.01653,0.00543,0.98240,3.67991,1.15507
09:55:15.831391,3.69875,0.00603,-0.41248,26.04000,-1.81134,-404.09510,0.00410,-0.00820,0.02025,-0.04862,0.99406,3.68992,1.45055
09:55:15.841756,3.70913,0.00605,-0.48000,25.95243,-2.24009,-433.69449,0.00074,-0.01309,0.01537,-0.03422,1.00131,3.70046,1.47253
09:55:15.852177,3.71934,0.00590,-0.51500,25.82108,-2.54634,-451.76221,-0.00232,-0.01355,0.00573,0.00579,1.01004,3.71083,1.45788
09:55:15.862520,3.72988,0.00610,-0.54370,25.65892,-2.42384,-450.22073,0.00272,-0.01172,-0.00842,0.01043,0.99643,3.72101,1.49695
09:55:15.873236,3.74061,0.00647,-0.57162,25.48378,-2.24009,-445.81665,0.00425,-0.00927,-0.01604,0.00945,0.98106,3.73154,1.46520
09:55:15.883070,3.75045,0.00595,-0.57258,25.32162,-2.24884,-444.78973,0.00456,-0.00255,-0.00811,0.03837,0.96722,3.74170,1.48230
09:55:15.892846,3.76022,0.00536,-0.54977,25.16432,-1.57509,-410.57083,0.00013,-0.00271,0.00665,0.05838,0.96905,3.75225,1.49206
09:55:15.904211,3.77156,0.00624,-0.54998,25.01351,-0.77009,-375.04052,0.00028,-0.00057,-0.00116,0.02361,0.97716,3.76293,1.44811
09:55:15.915464,3.78281,0.00701,-0.56195,24.84649,-0.56009,-366.70059,0.00043,0.00218,0.00653,0.00799,0.99711,3.77376,1.45543
09:55:15.925340,3.79271,0.00656,-0.58836,24.65351,-0.23634,-355.91751,-0.00186,0.00722,0.00671,-0.01348,1.01278,3.78355,1.47741
09:55:15.934807,3.80218,0.00567,-0.63796,24.42486,-0.51634,-374.58666,0.00333,0.00569,0.01861,-0.03764,1.00638,3.79372,1.45543
09:55:15.945570,3.81294,0.00606,-0.69692,24.15243,-0.80509,-394.90493,0.00043,0.00294,0.02275,-0.04551,1.00095,3.80426,1.45788
09:55:15.956123,3.82323,0.00599,-0.72725,23.86703,-0.94509,-403.58688,-0.00064,0.00798,0.02251,-0.01141,0.98155,3.81465,1.46520
09:55:15.966302,3.83366,0.00593,-0.70871,23.56216,-0.84009,-392.81227,0.00028,0.00157,0.02294,0.04252,0.97990,3.82494,1.45055
09:55:15.976740,3.84409,0.00600,-0.69199,23.25892,-0.47259,-371.26086,-0.00323,-0.00301,0.01494,0.03630,0.97033,3.83549,1.46276
09:55:15.986255,3.85363,0.00519,-0.68529,22.95405,-0.27134,-358.56209,0.00120,-0.00698,0.01372,0.02287,0.97527,3.84564,1.47253
09:55:15.997507,3.86488,0.00607,-0.65945,22.63622,0.04366,-337.43622,-0.00247,-0.01187,0.01494,0.04166,0.98765,3.85620,1.47009
09:55:16.008608,3.87515,0.00598,-0.66528,22.31351,0.30616,-324.24619,-0.00430,-0.01660,0.01470,0.00256,0.99723,3.86684,1.43834
09:55:16.018846,3.88620,0.00592,-0.73136,21.92757,0.18366,-337.71652,-0.00705,-0.01905,0.00799,-0.06704,1.01138,3.87761,1.46520
09:55:16.029786,3.89716,0.00651,-0.78592,21.52703,-0.28884,-363.77874,-0.00201,-0.01355,0.00037,-0.04843,1.00595,3.88835,1.47253
09:55:16.039551,3.90691,0.00591,-0.79114,21.10541,-0.80509,-382.51477,-0.00797,-0.01676,0.00720,0.01409,1.00266,3.89839,1.47009
09:55:16.050024,3.91739,0.00603,-0.77486,20.64486,-0.64759,-368.41914,-0.00781,-0.01782,-0.00372,0.03684,0.98509,3.90873,1.47253
09:55:16.060440,3.92780,0.00608,-0.77614,20.18432,-0.49884,-357.88650,-0.00369,-0.02042,-0.02019,0.01513,0.97545,3.91912,1.43346
09:55:16.070479,3.93784,0.00590,-0.74480,19.71730,-0.24509,-336.90995,-0.00140,-0.02592,-0.01055,0.04862,0.96526,3.92918,1.46276
09:55:16.081156,3.94853,0.00623,-0.73295,19.23730,-0.38509,-336.03542,-0.00461,-0.02500,-0.01372,0.02916,0.97136,3.93969,1.43834
09:55:16.091397,3.95805,0.00518,-0.72730,18.76865,-0.44634,-333.06047,-0.00110,-0.02958,0.00500,0.02342,0.98881,3.95008,1.44322
09:55:16.102743,3.96935,0.00611,-0.76770,18.28216,-0.69134,-346.07629,0.00013,-0.03050,-0.00030,-0.02593,0.99101,3.96141,1.44322
09:55:16.112496,3.97987,0.00628,-0.79821,17.81676,-1.20759,-368.98754,-0.00201,-0.02745,-0.00110,-0.01013,1.00357,3.97169,1.46032
09:55:16.123663,3.99101,0.00682,-0.82109,17.29459,-1.48759,-379.95361,-0.00339,-0.02729,-0.00152,0.00262,1.00162,3.98260,1.44322
09:55:16.133235,4.00061,0.00605,-0.80548,16.83081,-1.90759,-390.41504,-0.00125,-0.02851,-0.00671,0.04898,1.00113,3.99197,1.44322
09:55:16.143467,4.01083,0.00591,-0.79972,16.33459,-1.93384,-385.67239,-0.00384,-0.03233,-0.00543,0.03904,0.98283,4.00212,1.46032
09:55:16.153801,4.02118,0.00590,-0.81548,15.81892,-1.70634,-373.90183,0.00028,-0.02943,-0.01995,0.01257,0.97344,4.01267,1.45299
09:55:16.164205,4.03156,0.00592,-0.77550,15.32432,-1.87259,-368.88196,-0.00491,-0.02790,-0.01025,0.07771,0.98289,4.02294,1.46520
09:55:16.175046,4.04171,0.00546,-0.79704,14.81027,-1.48759,-351.50711,0.00028,-0.02668,-0.00811,0.00433,0.98076,4.03376,1.45299
09:55:16.185297,4.05267,0.00606,-0.85165,14.32865,-1.82009,-370.85938,-0.00033,-0.02393,-0.02843,-0.03093,0.98179,4.04401,1.45543
09:55:16.195525,4.06288,0.00591,-0.84187,13.86000,-2.25759,-383.07649,-0.00125,-0.02332,0.01287,0.04782,0.99894,4.05435,1.46764
09:55:16.205881,4.07326,0.00610,-0.88803,13.37838,-2.83509,-411.27403,0.00013,-0.02531,-0.00586,-0.01068,1.00180,4.06457,1.45299
09:55:16.215691,4.08307,0.00548,-0.94758,12.88216,-2.71259,-412.10665,0.00242,-0.02653,-0.00311,-0.02672,0.99558,4.07531,1.44078
09:55:16.228286,4.09479,0.00694,-0.98096,12.37784,-2.52009,-405.13379,0.00028,-0.02638,-0.00152,0.00244,0.99137,4.08683,1.45299
09:55:16.237644,4.10502,0.00680,-1.00530,11.88324,-2.66884,-411.07043,0.00211,-0.02775,-0.00866,0.00805,0.98106,4.09634,1.46032
09:55:16.247540,4.11376,0.00533,-1.01458,11.38378,-2.57259,-403.84044,-0.00018,-0.02653,-0.00891,0.02355,0.97374,4.10582,1.45543
09:55:16.257426,4.12480,0.00544,-1.03991,10.84703,-2.80884,-413.25690,0.00089,-0.02653,-0.00238,0.01275,0.98747,4.11686,1.46032
09:55:16.269135,4.13651,0.00653,-1.13314,10.33946,-2.60759,-416.76862,-0.00400,-0.03111,-0.02001,-0.06972,0.98899,4.12746,1.46032
09:55:16.278721,4.14608,0.00591,-1.10677,9.84000,-2.70384,-411.21047,-0.00293,-0.02485,-0.00152,0.06637,0.99961,4.13740,1.43101
09:55:16.290138,4.15751,0.00697,-1.09453,9.28216,-2.71259,-403.94903,-0.00354,-0.03035,0.00287,0.05459,0.99979,4.14868,1.44811
09:55:16.300975,4.16834,0.00698,-1.12095,8.75676,-2.50259,-394.76531,-0.00201,-0.03111,0.00085,0.00586,0.99247,4.15955,1.43834
09:55:16.310717,4.17807,0.00597,-1.21567,8.23297,-2.44134,-404.32244,-0.00079,-0.03096,-0.02483,-0.07619,0.98125,4.16946,1.42369
09:55:16.321631,4.18901,0.00654,-1.20346,7.69622,-3.07134,-423.59488,0.00043,-0.03417,0.00226,0.05368,0.99082,4.17985,1.45788
09:55:16.330607,4.19798,0.00515,-1.20309,7.17730,-2.87884,-410.34212,-0.00033,-0.04058,0.00787,0.03672,0.97728,4.19002,1.47009
09:55:16.342639,4.21000,0.00681,-1.24473,6.60973,-3.02759,-418.71926,0.00074,-0.04165,-0.01183,-0.00561,0.98009,4.20131,1.47009
09:55:16.351328,4.21871,0.00516,-1.29499,6.12649,-2.64259,-406.86497,0.00135,-0.03783,-0.02714,-0.02629,0.99186,4.21093,1.43101
09:55:16.362344,4.22971,0.00590,-1.25549,5.60595,-2.31009,-380.54879,-0.00201,-0.03752,0.00128,0.07424,0.99174,4.22105,1.42613
09:55:16.372823,4.24018,0.00601,-1.30738,5.06757,-2.17009,-378.83749,0.00181,-0.03646,0.00701,-0.03123,0.98948,4.23157,1.46764
09:55:16.382898,4.25027,0.00575,-1.39129,4.53892,-1.82884,-374.51802,0.00150,-0.03752,-0.01171,-0.07369,0.98594,4.24172,1.45543
09:55:16.393909,4.26128,0.00616,-1.41073,3.96973,-1.90759,-375.87421,-0.00186,-0.03523,-0.00287,0.00152,0.98979,4.25264,1.45299
09:55:16.404245,4.27159,0.00626,-1.39953,3.43946,-2.48509,-393.16717,0.00181,-0.03539,0.00116,0.04227,0.99796,4.26295,1.47497
09:55:16.414282,4.28164,0.00602,-1.44401,2.89622,-2.20509,-384.13037,0.00013,-0.04424,-0.00817,-0.02617,0.99613,4.27298,1.46032
09:55:16.425214,4.29257,0.00659,-1.49838,2.36432,-2.00384,-380.33766,-0.00048,-0.04226,-0.01147,-0.03959,0.99009,4.28340,1.43346
09:55:16.434852,4.30220,0.00603,-1.48378,1.85351,-1.97759,-371.62169,0.00181,-0.04608,-0.00836,0.03825,0.99277,4.29360,1.47009
09:55:16.445215,4.31259,0.00605,-1.48657,1.34270,-1.92509,-364.95477,-0.00216,-0.04562,-0.00518,0.01787,0.98027,4.30393,1.43346
09:55:16.454804,4.32218,0.00545,-1.51264,0.86108,-1.83759,-361.32065,0.00028,-0.04730,-0.00134,-0.00952,0.99052,4.31442,1.43590
09:55:16.466188,4.33356,0.00660,-1.55650,0.38432,-1.89009,-366.90265,-0.00064,-0.05264,-0.00598,-0.03050,0.98527,4.32454,1.44322
09:55:16.476643,4.34399,0.00661,-1.59894,-0.09081,-1.67134,-360.75051,-0.00033,-0.05325,-0.01720,-0.03068,0.98582,4.33544,1.46764
09:55:16.485589,4.35296,0.00518,-1.61604,-0.58378,-1.73259,-361.67880,-0.00094,-0.05356,-0.00586,-0.00421,0.99503,4.34501,1.46764
09:55:16.497610,4.36498,0.00625,-1.66991,-1.12378,-1.47884,-355.49259,-0.00262,-0.05387,-0.02105,-0.04697,0.99424,4.35628,1.47497
09:55:16.507621,4.37497,0.00587,-1.67727,-1.61514,-1.83759,-367.26931,-0.00033,-0.04913,-0.01537,0.00836,0.99357,4.36651,1.46032
09:55:16.518423,4.38580,0.00618,-1.65328,-2.13568,-1.37384,-338.21282,-0.00247,-0.04928,-0.00726,0.03898,0.98674,4.37684,1.44567
09:55:16.528635,4.39598,0.00613,-1.70402,-2.64811,-1.27759,-338.39846,-0.00186,-0.04852,-0.02330,-0.04673,0.97539,4.38739,1.45788
09:55:16.539569,4.40624,0.00620,-1.72814,-3.15730,-1.24259,-336.36903,-0.00140,-0.04547,-0.00433,-0.01757,0.98027,4.39815,1.45788
09:55:16.549039,4.41640,0.00601,-1.71207,-3.68270,-1.62759,-344.66671,-0.00262,-0.04211,0.00159,0.03080,0.98954,4.40780,1.45788
09:55:16.560117,4.42728,0.00652,-1.75711,-4.18865,-1.19884,-329.79019,-0.00048,-0.04531,-0.01086,-0.04215,0.99082,4.41886,1.44567
09:55:16.570662,4.43802,0.00690,-1.81448,-4.74973,-0.97134,-325.14894,-0.00033,-0.04760,-0.02775,-0.06051,0.98716,4.42930,1.45299
09:55:16.581259,4.44863,0.00714,-1.77505,-5.22162,-1.54009,-337.50234,-0.00446,-0.04088,0.00433,0.05490,0.98533,4.43886,1.44811
09:55:16.591331,4.45833,0.00654,-1.81158,-5.73568,-1.15509,-322.85343,-0.00048,-0.04715,-0.01055,-0.03532,0.99454,4.44900,1.45299
09:55:16.601059,4.46841,0.00627,-1.87458,-6.26270,-1.12009,-327.72163,0.00028,-0.04730,-0.00909,-0.06576,0.98430,4.45962,1.46032
09:55:16.612055,4.47920,0.00558,-1.85453,-6.76378,-1.06759,-316.99481,0.00043,-0.04562,0.00287,0.02745,0.98802,4.46991,1.46520
09:55:16.621418,4.48879,0.00593,-1.81718,-7.28108,-1.54009,-325.20857,-0.00018,-0.04760,0.00762,0.05325,0.98674,4.48025,1.45299
09:55:16.634134,4.50151,0.00829,-1.81177,-7.79027,-1.42634,-314.47158,-0.00247,-0.04974,-0.00451,0.01903,0.99204,4.49250,1.46276
09:55:16.642275,4.50963,0.00592,-1.80134,-8.27838,-1.37384,-305.61965,-0.00003,-0.04928,-0.01885,0.01818,0.98802,4.50095,1.46032
09:55:16.652754,4.52011,0.00603,-1.76987,-8.77459,-1.45259,-298.42435,-0.00125,-0.05356,0.00177,0.04673,0.98796,4.51147,1.44811
09:55:16.663278,4.52988,0.00544,-1.81787,-9.27730,-1.39134,-299.68830,-0.00110,-0.05509,-0.01946,-0.04563,0.99216,4.52164,1.42369
09:55:16.673480,4.54085,0.00605,-1.86211,-9.79784,-1.50509,-307.51075,0.00074,-0.05555,-0.01214,-0.03995,0.98869,4.53222,1.45788
09:55:16.684321,4.55081,0.00563,-1.85991,-10.32000,-1.62759,-307.24013,-0.00262,-0.05448,-0.00781,0.01470,0.99113,4.54304,1.48230
09:55:16.694206,4.56157,0.00589,-1.88707,-10.83568,-2.01259,-323.49551,0.00471,-0.05829,-0.02062,-0.01647,0.98411,4.55291,1.45299
09:55:16.704986,4.57235,0.00625,-1.91606,-11.36919,-1.88134,-318.03857,0.00165,-0.05280,-0.01446,-0.01842,0.98015,4.56372,1.46520
09:55:16.715405,4.58277,0.00596,-1.91138,-11.92541,-1.65384,-302.15687,0.00242,-0.05356,-0.00201,0.01610,0.98783,4.57412,1.44811
09:55:16.726173,4.59355,0.00638,-1.92635,-12.49459,-1.73259,-302.70147,-0.00110,-0.05173,-0.00634,-0.00342,0.98661,4.58558,1.47009
09:55:16.738063,4.60542,0.00726,-1.95334,-13.11081,-1.81134,-304.97520,0.00028,-0.04989,-0.00092,-0.01702,0.99338,4.59681,1.46764
09:55:16.748021,4.61519,0.00606,-1.97893,-13.64270,-1.89009,-307.81333,-0.00354,-0.05173,-0.01061,-0.01781,0.99088,4.60666,1.47009
09:55:16.758093,4.62546,0.00594,-2.01615,-14.20054,-2.03009,-315.10806,0.00226,-0.05234,-0.00549,-0.02946,0.99229,4.61680,1.45299
09:55:16.768574,4.63593,0.00605,-2.04630,-14.75514,-2.43259,-332.27284,0.00333,-0.04944,-0.00482,-0.01610,0.98051,4.62730,1.46520
09:55:16.778622,4.64599,0.00591,-2.05424,-15.29676,-2.16134,-316.97504,0.00013,-0.05157,-0.00445,0.00433,0.97850,4.63732,1.45055
09:55:16.789292,4.65667,0.00617,-2.06882,-15.85946,-2.00384,-307.50069,0.00028,-0.05173,-0.00360,-0.00354,0.97557,4.64804,1.45055
09:55:16.800235,4.66759,0.00673,-2.08146,-16.42378,-1.82884,-296.91688,0.00058,-0.04760,-0.00281,-0.00329,0.99680,4.65898,1.45299
09:55:16.810070,4.67745,0.00623,-2.10772,-16.96541,-1.92509,-300.52274,0.00379,-0.05020,0.00067,-0.01885,0.98631,4.66950,1.43346
09:55:16.820569,4.68756,0.00598,-2.15247,-17.45351,-1.84634,-300.59552,0.00517,-0.05112,-0.01244,-0.04416,0.99589,4.67893,1.46032
09:55:16.830425,4.69779,0.00599,-2.15765,-17.96595,-1.96009,-301.39298,0.00242,-0.04669,0.01006,0.00360,0.98369,4.68903,1.46032
09:55:16.840904,4.70824,0.00608,-2.18158,-18.47838,-2.09134,-306.34104,0.00196,-0.04501,0.00427,-0.01543,0.98253,4.69956,1.44322
09:55:16.850320,4.71770,0.00518,-2.20389,-18.95838,-1.67134,-287.95130,0.00349,-0.04424,0.00451,-0.01964,0.98247,4.70973,1.47741
09:55:16.861563,4.72893,0.00605,-2.19958,-19.43838,-1.31259,-267.31589,-0.00033,-0.03905,0.00354,0.00689,0.98423,4.72028,1.45299
09:55:16.871773,4.73913,0.00588,-2.20977,-19.88432,-1.58384,-276.34025,-0.00186,-0.03829,0.01232,-0.00677,0.99088,4.73066,1.47009
09:55:16.881558,4.74893,0.00519,-2.22299,-20.32378,-1.15509,-256.32087,-0.00079,-0.03722,-0.00116,-0.01549,0.98436,4.74096,1.45055
09:55:16.891295,4.75868,0.00458,-2.23602,-20.74054,-0.98009,-247.23790,0.00211,-0.03722,0.01513,-0.01745,0.99406,4.75150,1.46520
09:55:16.902010,4.76939,0.00492,-2.25209,-21.13784,-0.90134,-242.97357,-0.00125,-0.03478,-0.01000,-0.02233,0.98643,4.76168,1.46032
09:55:16.912215,4.77959,0.00489,-2.25548,-21.52054,-0.84884,-237.65840,0.00303,-0.03508,0.01867,-0.00836,0.98881,4.77219,1.46032
09:55:16.924892,4.79225,0.00720,-2.27690,-21.86757,-0.67384,-230.77616,0.00120,-0.02974,-0.00561,-0.03080,0.99162,4.78339,1.44078
09:55:16.933812,4.80117,0.00556,-2.25919,-22.20811,-0.10509,-200.15703,0.00135,-0.02668,0.02464,0.00653,0.98954,4.79289,1.45543
09:55:16.944674,4.81203,0.00606,-2.23070,-22.51784,0.07866,-184.18960,0.00120,-0.02622,0.01531,0.01714,0.98789,4.80340,1.45299
09:55:16.954151,4.82153,0.00520,-2.22232,-22.80324,0.69991,-153.57725,0.00043,-0.02317,0.02361,-0.01257,0.98777,4.81353,1.47253
09:55:16.966328,4.83301,0.00632,-2.21991,-23.08865,1.09366,-133.69015,-0.00354,-0.01996,0.01287,-0.02550,0.98716,4.82504,1.46520
09:55:16.975565,4.84292,0.00587,-2.20457,-23.30757,1.34741,-118.02688,-0.00201,-0.01614,0.01513,-0.01068,0.98667,4.83445,1.45299
09:55:16.986153,4.85351,0.00588,-2.19081,-23.52973,1.64491,-100.76673,-0.00125,-0.01049,0.00909,-0.01732,0.98820,4.84487,1.44811
09:55:16.996684,4.86404,0.00605,-2.18224,-23.72432,2.06491,-79.52757,-0.00079,-0.01248,0.00970,-0.02830,0.98844,4.85542,1.43346
09:55:17.007128,4.87449,0.00613,-2.15668,-23.90108,2.19616,-67.60325,0.00333,-0.00897,0.00689,-0.00970,0.98466,4.86579,1.42613
09:55:17.016688,4.88407,0.00535,-2.11635,-24.05027,2.57241,-42.88059,-0.00018,-0.00393,0.00592,0.00342,0.98783,4.87611,1.43346
09:55:17.027584,4.89494,0.00587,-2.07941,-24.17838,3.18491,-8.96982,0.00104,-0.00576,0.00360,-0.00708,0.98753,4.88647,1.41880
09:55:17.038159,4.90551,0.00589,-2.05402,-24.28865,3.75366,20.81520,-0.00278,-0.00225,0.00518,-0.02647,0.99107,4.89683,1.42125
09:55:17.048301,4.91567,0.00570,-2.01133,-24.37459,3.70991,27.55822,-0.00507,0.00203,0.01208,-0.00641,0.99094,4.90739,1.43590
09:55:17.058749,4.92611,0.00595,-1.97653,-24.42486,3.95491,44.75579,-0.00995,0.00203,0.00641,-0.01531,0.99747,4.91739,1.50183
09:55:17.068536,4.93591,0.00537,-1.95403,-24.42973,4.22616,60.38718,-0.00308,0.00417,-0.00055,-0.03447,0.99162,4.92793,2.30769
09:55:17.079494,4.94686,0.00596,-1.91768,-24.41027,4.19991,65.69850,-0.00720,0.00921,0.00067,-0.01598,0.99070,4.93810,1.57753
09:55:17.090818,4.95790,0.00664,-1.87269,-24.37784,4.50616,86.54261,-0.00094,0.00676,0.00268,-0.01080,0.98765,4.94863,1.42369
09:55:17.099626,4.96700,0.00538,-1.82725,-24.33568,4.19991,81.42363,-0.00583,0.00585,-0.00159,-0.00470,0.98588,4.95893,1.41636
09:55:17.110498,4.97786,0.00602,-1.77769,-24.28865,4.46241,101.10248,-0.00598,-0.00026,0.00293,-0.00140,0.98533,4.96906,1.47253
09:55:17.121191,4.98856,0.00637,-1.73333,-24.24000,4.54991,112.40755,-0.00568,-0.00897,0.00159,-0.00958,0.98564,4.97959,1.36264
09:55:17.131028,4.99839,0.00583,-1.70805,-24.19459,4.35741,108.40930,-0.00583,-0.01141,-0.00098,-0.02660,0.98631,4.98975,1.33822
09:55:17.141503,5.00888,0.00596,-1.67143,-24.15405,4.37491,115.41901,-0.00491,-0.01462,0.00482,-0.01574,0.98911,5.00039,1.36752
09:55:17.151823,5.01918,0.00589,-1.63844,-24.12324,4.13866,111.10942,-0.00522,-0.01767,0.00415,-0.01494,0.99241,5.01069,1.31868
09:55:17.162945,5.03030,0.00653,-1.58481,-24.09730,4.01616,115.42217,-0.00507,-0.01187,0.00927,0.00762,0.98991,5.02171,1.28938
09:55:17.173219,5.04056,0.00643,-1.53397,-24.08432,4.05991,126.39642,-0.00339,-0.00897,0.00726,0.01031,0.99070,5.03153,1.36264
09:55:17.183021,5.05038,0.00588,-1.48600,-24.08270,4.28741,144.74564,-0.00552,-0.00958,0.00994,0.00366,0.98850,5.04170,1.22100
09:55:17.194203,5.06087,0.00601,-1.43647,-24.08270,4.28741,153.75459,0.00043,-0.00713,0.01287,0.00183,0.98582,5.05278,1.39194
09:55:17.203331,5.07071,0.00549,-1.39908,-24.08270,3.85866,142.38886,-0.00293,-0.00576,0.01318,-0.00049,0.98533,5.06263,1.40415
09:55:17.214200,5.08156,0.00600,-1.35841,-24.08270,3.58741,138.29245,0.00196,-0.00881,0.01519,0.00518,0.98393,5.07290,1.40415
09:55:17.225184,5.09203,0.00611,-1.31889,-24.08270,3.13241,126.20126,-0.00720,-0.00790,0.01684,0.00921,0.98448,5.08335,1.38706
09:55:17.234735,5.10211,0.00599,-1.27378,-24.08270,3.06241,131.44014,-0.00293,-0.00683,0.01629,0.01775,0.99125,5.09366,1.39683
09:55:17.245413,5.11278,0.00630,-1.22438,-24.08270,3.07991,141.16735,-0.00369,-0.00943,0.01745,0.02233,0.98911,5.10422,1.40904
09:55:17.255349,5.12270,0.00587,-1.18444,-24.08270,2.75616,134.71468,-0.00232,-0.00469,0.01732,0.01848,0.98826,5.11404,1.40415
09:55:17.266470,5.13382,0.00659,-1.15301,-24.08270,2.40616,125.60038,-0.00552,0.00065,0.01623,0.00982,0.98692,5.12511,1.39927
09:55:17.275348,5.14272,0.00516,-1.12906,-24.08270,2.43241,131.06859,0.00104,0.00417,0.01318,0.00488,0.98417,5.13494,1.41392
09:55:17.286355,5.15371,0.00591,-1.10722,-24.08270,1.88116,111.68536,-0.00675,0.00203,0.01366,0.00842,0.98326,5.14502,1.40659
09:55:17.296892,5.16425,0.00609,-1.07726,-24.08270,1.82866,114.91042,-0.00522,0.00783,0.01006,0.01781,0.98716,5.15556,1.41636
09:55:17.306602,5.17398,0.00546,-1.05053,-24.08270,1.50491,106.05379,-0.00430,0.00646,0.01208,0.01867,0.98680,5.16599,1.40659
09:55:17.317831,5.18520,0.00632,-1.02873,-24.08270,1.31241,101.86211,-0.00537,0.00065,0.00878,0.01598,0.99027,5.17628,1.39194
09:55:17.328945,5.19630,0.00706,-1.00114,-24.08270,1.11991,98.72542,-0.00354,-0.00377,0.00628,0.02391,0.99198,5.18769,1.42369
09:55:17.338618,5.20599,0.00628,-0.98784,-24.08270,0.68241,82.60664,0.00410,-0.00164,0.00897,0.01458,0.98911,5.19772,1.43346
09:55:17.350689,5.21805,0.00798,-0.98577,-24.08270,0.20991,62.96321,-0.00171,-0.01004,0.01141,0.00695,0.98716,5.20898,1.41636
09:55:17.359197,5.22655,0.00593,-0.99060,-24.08270,-0.20134,44.66103,-0.00048,-0.00729,0.00848,0.00378,0.98728,5.21794,1.42369
09:55:17.369922,5.23730,0.00632,-0.99831,-24.08270,-0.66509,23.60955,0.00181,-0.00836,0.00421,0.00634,0.98265,5.22861,1.44078
09:55:17.380586,5.24725,0.00591,-1.00734,-24.08270,-0.84009,14.55237,0.00257,-0.00561,0.00073,0.00628,0.98405,5.23873,1.43101
09:55:17.389576,5.25696,0.00518,-1.00599,-24.08270,-0.92759,11.09062,0.00226,-0.00133,0.00073,0.01921,0.98606,5.24900,1.43346
09:55:17.400815,5.26817,0.00603,-0.99863,-24.08270,-0.96259,10.94585,0.00394,-0.00332,0.01861,0.02672,0.98155,5.25954,1.43101
09:55:17.411595,5.27895,0.00579,-1.00177,-24.08270,-1.19884,0.36445,0.00242,-0.00041,0.01403,0.01836,0.98881,5.27051,1.42369
09:55:17.421902,5.28928,0.00569,-1.00998,-24.08270,-1.33884,-7.06103,-0.00201,0.00462,0.00171,0.01409,0.99601,5.28134,1.45788
09:55:17.433014,5.30037,0.00633,-1.01080,-24.08270,-1.29509,-5.35666,0.00150,0.00692,0.00012,0.02117,0.99650,5.29161,1.45299
09:55:17.442964,5.31034,0.00592,-1.02571,-24.08270,-1.26009,-6.58467,0.00196,0.00921,0.00232,0.00506,0.98735,5.30237,1.45055
09:55:17.454972,5.32233,0.00699,-1.06155,-24.08270,-1.59259,-27.19073,0.00150,0.00707,0.01165,-0.01397,0.98179,5.31377,1.43834
09:55:17.466002,5.33305,0.00734,-1.07346,-24.08270,-1.76759,-36.77225,-0.00155,0.01028,0.00549,0.01244,0.98497,5.32386,1.45299
09:55:17.474828,5.34219,0.00630,-1.06793,-24.08270,-1.52259,-25.38623,0.00089,0.00630,-0.00177,0.02818,0.98991,5.33314,1.42369
09:55:17.484966,5.35166,0.00541,-1.08258,-24.08270,-1.59259,-31.01552,-0.00140,0.00921,-0.01000,0.00799,0.98985,5.34365,1.42613
09:55:17.495075,5.36242,0.00594,-1.10821,-24.08270,-1.31259,-23.81422,0.00837,0.00585,-0.00335,-0.00885,0.98649,5.35374,1.42125
09:55:17.505815,5.37319,0.00635,-1.13073,-24.08270,-1.94259,-54.60251,0.00349,0.00539,0.00885,0.00238,0.98643,5.36424,1.45543
09:55:17.515737,5.38309,0.00589,-1.14591,-24.08270,-1.69759,-46.98317,0.00058,0.00646,0.00970,0.00726,0.98820,5.37461,1.44322
09:55:17.526531,5.39390,0.00598,-1.17219,-24.08270,-1.94259,-62.14477,0.00074,0.00508,0.00159,-0.00232,0.99271,5.38525,1.46764
09:55:17.536923,5.40428,0.00600,-1.19063,-24.08270,-1.63634,-52.52284,0.00425,0.00524,0.00403,0.00220,0.99515,5.39567,1.44811
09:55:17.547674,5.41434,0.00546,-1.19729,-24.08270,-1.59259,-51.87944,0.00257,0.00661,0.00848,0.01568,0.98857,5.40652,1.44567
09:55:17.557930,5.42530,0.00606,-1.20412,-24.08270,-1.33009,-41.99894,0.00410,0.00630,0.01354,0.01098,0.98826,5.41661,1.45299
09:55:17.567350,5.43473,0.00512,-1.22354,-24.08270,-1.32134,-45.16052,-0.00033,0.00753,0.01092,-0.00335,0.98466,5.42693,1.44322
09:55:17.578673,5.44602,0.00620,-1.25437,-24.08270,-1.27759,-48.91495,-0.00262,0.00768,-0.00030,-0.01763,0.98844,5.43706,1.46276
09:55:17.588846,5.45621,0.00602,-1.28033,-24.08270,-1.54884,-65.13012,0.00349,0.00966,-0.00085,-0.00878,0.99302,5.44758,1.45299
09:55:17.599000,5.46636,0.00582,-1.30773,-24.07946,-1.58384,-71.62783,0.00226,0.01165,0.00403,-0.01110,0.98960,5.45774,2.40537
09:55:17.609801,5.47717,0.00626,-1.33359,-24.07297,-1.32134,-65.27063,0.00120,0.00921,0.00860,-0.01189,0.98698,5.46849,1.54823
09:55:17.619649,5.48702,0.00535,-1.34683,-24.06162,-1.36509,-69.64309,0.00104,0.00646,0.00488,0.00268,0.98558,5.47925,1.54090
09:55:17.631416,5.49855,0.00667,-1.35866,-24.05351,-1.11134,-61.12134,0.00150,-0.00103,0.00372,0.00061,0.98875,5.48970,1.75824
09:55:17.640923,5.50761,0.00537,-1.37952,-24.04865,-1.17259,-67.55889,0.00501,-0.00133,0.00244,-0.00994,0.98832,5.49964,2.25641
09:55:17.650879,5.51826,0.00562,-1.40311,-24.04865,-1.18134,-72.21995,0.00226,-0.00515,0.00079,-0.01293,0.98838,5.50988,3.07448
09:55:17.661548,5.52892,0.00590,-1.42196,-24.04865,-1.47009,-87.88276,-0.00262,-0.00790,0.00787,-0.00317,0.98838,5.52094,3.09158
09:55:17.672140,5.53931,0.00592,-1.44122,-24.04865,-1.20759,-80.26379,-0.00171,-0.01034,0.00689,-0.00897,0.98942,5.53076,3.13797
09:55:17.681592,5.54897,0.00519,-1.46208,-24.04865,-1.22509,-84.79798,0.00394,-0.00973,0.00781,-0.01037,0.98972,5.54099,3.13553
09:55:17.692845,5.56019,0.00606,-1.46928,-24.04865,-0.84884,-70.16671,-0.00155,-0.00484,0.00799,0.00098,0.98820,5.55159,3.13797
09:55:17.702662,5.56976,0.00544,-1.46782,-24.04865,-0.69134,-63.22809,-0.00003,0.00065,0.00823,0.00842,0.98643,5.56156,3.14042
09:55:17.713373,5.58075,0.00607,-1.47461,-24.04865,-0.63884,-62.23832,-0.00278,-0.00393,0.00811,-0.00122,0.98527,5.57208,3.16239
09:55:17.723594,5.59096,0.00591,-1.48995,-24.04865,-0.56009,-61.69147,0.00104,0.00096,0.00256,-0.01220,0.98710,5.58243,3.14042
09:55:17.734075,5.60144,0.00588,-1.49967,-24.04865,-0.40259,-56.78547,0.00196,0.00294,0.00024,-0.00787,0.98875,5.59277,3.13309
09:55:17.744652,5.61200,0.00608,-1.50164,-24.04865,-0.06134,-42.68550,-0.00003,0.00386,-0.00079,-0.00311,0.98972,5.60334,3.15751
09:55:17.754266,5.62164,0.00553,-1.50792,-24.04865,-0.55134,-64.59011,0.00165,0.00386,0.00110,-0.00256,0.99204,5.61341,3.13309
09:55:17.765364,5.63273,0.00625,-1.51040,-24.04865,-0.19259,-49.84018,-0.00003,0.00661,-0.00311,-0.00226,0.99094,5.62401,3.13797
09:55:17.775800,5.64316,0.00631,-1.50442,-24.04865,-0.27134,-52.08913,-0.00125,0.00065,-0.00092,0.00823,0.99180,5.63406,3.15507
09:55:17.785168,5.65254,0.00534,-1.50384,-24.04865,0.13116,-34.93046,-0.00110,0.00386,-0.00238,-0.00256,0.99094,5.64458,3.13797
09:55:17.796595,5.66395,0.00617,-1.51585,-24.04865,0.09616,-38.59786,0.00150,0.00157,-0.00616,-0.01665,0.98979,5.65534,3.14286
09:55:17.806850,5.67421,0.00623,-1.52209,-24.04865,0.18366,-36.02480,-0.00232,0.00050,-0.00403,-0.01110,0.98863,5.66532,3.14530
09:55:17.817005,5.68437,0.00603,-1.52524,-24.04865,0.03491,-42.89911,-0.00018,0.00325,-0.00549,-0.00598,0.98704,5.67574,3.13309
09:55:17.827354,5.69411,0.00556,-1.53080,-24.04865,0.19241,-37.23719,-0.00003,0.00050,-0.00323,-0.01061,0.98765,5.68590,3.13553
09:55:17.836895,5.70427,0.00536,-1.53490,-24.04865,0.00866,-45.76981,-0.00232,0.00157,-0.00311,-0.00695,0.99101,5.69632,3.13797
09:55:17.848569,5.71591,0.00664,-1.52508,-24.04865,0.31491,-31.00804,0.00104,-0.00423,-0.00329,0.00525,0.98796,5.70715,3.14286
09:55:17.858230,5.72561,0.00583,-1.51982,-24.04865,0.38491,-27.08518,-0.00064,-0.00775,-0.00689,-0.00024,0.98832,5.71699,3.14530
09:55:17.870417,5.73777,0.00764,-1.51990,-24.04865,0.68241,-14.49485,-0.00003,-0.00591,-0.00616,-0.01141,0.99003,5.72912,3.15507
09:55:17.880236,5.74759,0.00710,-1.52272,-24.04865,0.52491,-21.68094,-0.00293,-0.00362,-0.00537,-0.01104,0.98924,5.73899,3.14530
09:55:17.890202,5.75756,0.00598,-1.51858,-24.04865,0.74366,-11.65806,0.00165,-0.00255,-0.00512,-0.00555,0.98789,5.74892,3.12332
09:55:17.900792,5.76815,0.00621,-1.50866,-24.04865,0.97991,0.15602,-0.00033,-0.00194,-0.00525,-0.00207,0.98747,5.75936,3.12821
09:55:17.910959,5.77831,0.00618,-1.50456,-24.04865,0.83991,-5.03064,0.00028,-0.00148,-0.00775,-0.00683,0.98814,5.76968,3.12821
09:55:17.921650,5.78902,0.00652,-1.49208,-24.04865,1.20741,12.80968,0.00242,-0.00026,-0.00415,-0.00165,0.98777,5.78018,3.13797
09:55:17.931722,5.79910,0.00625,-1.47892,-24.04865,1.24241,16.68582,0.00196,0.00157,-0.00390,-0.00018,0.98893,5.79004,3.13797
09:55:17.942722,5.80924,0.00603,-1.47512,-24.04865,1.27741,18.86138,-0.00323,0.00004,-0.00403,-0.01208,0.98881,5.80058,3.12088
09:55:17.952778,5.81935,0.00578,-1.46934,-24.04865,1.55741,31.77562,-0.00278,0.00142,-0.00421,-0.01281,0.99113,5.81094,3.13309
09:55:17.963033,5.83039,0.00658,-1.45854,-24.04865,1.31241,23.35977,-0.00079,-0.00148,-0.00427,-0.00470,0.98783,5.82176,3.11600
09:55:17.972179,5.83935,0.00518,-1.44360,-24.04865,1.32116,26.44720,-0.00537,-0.00408,-0.00275,0.00165,0.98826,5.83156,3.13797
09:55:17.982261,5.84964,0.00528,-1.42261,-24.04865,1.78491,49.91442,-0.00247,-0.00194,-0.00018,0.00305,0.98948,5.84170,3.12332
09:55:17.993430,5.86080,0.00608,-1.40272,-24.04865,1.68866,49.45275,0.00165,-0.00316,-0.00037,0.00268,0.98625,5.85213,3.12088
09:55:18.004275,5.87163,0.00655,-1.38673,-24.04865,1.42616,41.23887,-0.00430,-0.00377,0.00165,0.00128,0.98771,5.86279,3.11600
09:55:18.014095,5.88146,0.00586,-1.37342,-24.04865,1.50491,46.99705,-0.00323,-0.00469,-0.00146,-0.00140,0.98985,5.87282,3.11600
09:55:18.024654,5.89201,0.00605,-1.36228,-24.04865,1.25991,38.64187,-0.00369,-0.00927,-0.00085,-0.00165,0.98838,5.88338,3.12088
09:55:18.035239,5.90211,0.00595,-1.34903,-24.04865,1.29491,42.53548,0.00104,-0.01156,-0.00116,0.00134,0.98796,5.89340,3.11600
09:55:18.044533,5.91191,0.00540,-1.33249,-24.04865,1.17241,40.35344,-0.00293,-0.01233,0.00287,0.00610,0.98808,5.90391,3.10867
09:55:18.056245,5.92361,0.00690,-1.31313,-24.04865,1.39116,53.14228,-0.00232,-0.00988,0.00409,0.00695,0.98954,5.91447,3.10867
09:55:18.065757,5.93242,0.00535,-1.29392,-24.04865,1.41741,57.74883,-0.00216,-0.00881,0.00305,0.00775,0.99021,5.92444,3.12576
09:55:18.076748,5.94317,0.00574,-1.27950,-24.04865,1.09366,46.65405,-0.00094,-0.00622,0.00427,0.00500,0.98710,5.93538,3.13309
09:55:18.086337,5.95370,0.00591,-1.26458,-24.04865,1.04991,47.51447,0.00226,0.00111,0.00275,0.00793,0.98728,5.94502,3.11600
09:55:18.096794,5.96415,0.00615,-1.25001,-24.04865,1.19866,56.46726,0.00303,-0.00133,0.00293,0.00494,0.98417,5.95554,3.12088
09:55:18.107094,5.97447,0.00628,-1.23857,-24.04865,1.07616,53.35716,0.00196,0.00294,0.00299,0.00384,0.98667,5.96542,3.10379
09:55:18.117249,5.98462,0.00605,-1.21805,-24.04865,1.55741,77.48089,-0.00201,0.00218,0.00464,0.00793,0.98619,5.97597,3.10623
09:55:18.129059,5.99615,0.00723,-1.19852,-24.04865,1.29491,69.90988,0.00028,0.00585,0.00122,0.01086,0.98911,5.98612,3.12821
09:55:18.137336,6.00471,0.00543,-1.18684,-24.04865,0.96241,57.94679,0.00181,0.00096,0.00329,0.00549,0.98826,5.99674,3.12088
09:55:18.147508,6.01489,0.00538,-1.17671,-24.04865,1.03241,62.75396,0.00043,0.00035,0.00275,0.00335,0.99204,6.00711,3.11111
09:55:18.158294,6.02567,0.00571,-1.16655,-24.04865,0.94491,60.89557,-0.00186,-0.00026,0.00409,0.00488,0.98875,6.01722,3.13309
09:55:18.169482,6.03685,0.00660,-1.15745,-24.04865,0.97116,63.66182,-0.00262,-0.00026,0.00396,0.00226,0.99009,6.02848,3.09890
09:55:18.178423,6.04580,0.00518,-1.14875,-24.04865,1.10241,70.80593,-0.00323,0.00035,0.00464,0.00268,0.99137,6.03783,3.12576
09:55:18.190333,6.05769,0.00598,-1.13659,-24.04865,1.03241,70.05264,-0.00064,0.00142,0.00287,0.00537,0.98954,6.04905,3.12088
09:55:18.201335,6.06869,0.00663,-1.12362,-24.04865,0.97991,70.18582,0.00043,0.00096,0.00232,0.00738,0.99070,6.06007,3.13065
09:55:18.210638,6.07801,0.00557,-1.11123,-24.04865,0.91866,69.84457,0.00074,0.00081,0.00384,0.00878,0.98674,6.07004,3.10623
09:55:18.221964,6.08883,0.00618,-1.09840,-24.04865,1.03241,76.99714,-0.00461,0.00264,0.00244,0.00805,0.98783,6.08016,3.10867
09:55:18.231483,6.09886,0.00586,-1.09079,-24.04865,0.89241,72.44983,0.00043,-0.00454,0.00238,0.00305,0.98521,6.09109,3.11355
09:55:18.241990,6.10937,0.00616,-1.08620,-24.04865,0.79616,69.20741,0.00288,-0.00332,0.00085,0.00213,0.98997,6.10067,3.12821
09:55:18.252231,6.11958,0.00602,-1.08195,-24.04865,0.48991,57.00302,-0.00446,-0.00439,0.00085,0.00476,0.99101,6.11094,3.13553
09:55:18.262484,6.12986,0.00606,-1.07227,-24.04865,0.67366,66.54935,-0.00048,-0.00423,0.00293,0.00842,0.98850,6.12189,3.12088
09:55:18.274198,6.14087,0.00650,-1.06098,-24.04865,0.86616,76.75955,0.00089,-0.00377,0.00281,0.00799,0.99064,6.13292,3.12088
09:55:18.284334,6.15132,0.00659,-1.05505,-24.04865,0.49866,62.26759,0.00456,-0.00347,0.00213,0.00720,0.98936,6.14289,3.11844
09:55:18.293761,6.16112,0.00619,-1.04817,-24.04865,0.55991,66.11390,0.00318,-0.00103,0.00049,0.00793,0.98796,6.15247,3.10134
09:55:18.303125,6.17051,0.00522,-1.03819,-24.04865,0.82241,79.05035,-0.00216,0.00218,0.00140,0.00817,0.98759,6.16268,3.12821
09:55:18.314311,6.18167,0.00606,-1.03149,-24.04865,0.69991,75.07977,-0.00216,0.00096,0.00299,0.00598,0.99015,6.17295,3.10379
09:55:18.323794,6.19117,0.00520,-1.02470,-24.04865,0.81366,81.13434,0.00058,0.00218,0.00079,0.00470,0.98899,6.18339,3.11355
09:55:18.335197,6.20255,0.00639,-1.01957,-24.04865,0.88366,85.03319,-0.00048,0.00157,0.00092,0.00250,0.98863,6.19341,3.10623
09:55:18.345398,6.21278,0.00639,-1.00980,-24.04865,0.93616,89.03364,-0.00262,-0.00011,0.00030,0.00586,0.98966,6.20481,3.12088
09:55:18.356109,6.22328,0.00668,-0.99995,-24.04865,0.62991,77.84935,-0.00003,-0.00225,0.00195,0.01177,0.99015,6.21387,3.12332
09:55:18.365488,6.23287,0.00590,-0.99012,-24.04865,0.86616,89.64714,0.00043,-0.00225,0.00146,0.00756,0.98954,6.22488,3.11355
09:55:18.376215,6.24357,0.00620,-0.98321,-24.04865,1.00616,96.83542,-0.00247,-0.00301,0.00232,0.00366,0.98808,6.23498,3.11355
09:55:18.386853,6.25421,0.00652,-0.97752,-24.04865,0.57741,79.70481,-0.00033,0.00035,0.00171,0.00695,0.98911,6.24559,3.12332
09:55:18.396751,6.26410,0.00621,-0.96879,-24.04865,0.77866,89.81982,-0.00552,-0.00148,-0.00116,0.00878,0.98948,6.25546,3.11355
09:55:18.406849,6.27421,0.00612,-0.96350,-24.04865,0.67366,86.33356,-0.00247,-0.00103,0.00006,0.00616,0.99009,6.26532,3.08913
09:55:18.417322,6.28469,0.00608,-0.95971,-24.04865,0.53366,81.09076,0.00074,0.00035,0.00037,0.00555,0.98521,6.27602,3.12332
09:55:18.427724,6.29509,0.00604,-0.94919,-24.04865,0.79616,94.12683,-0.00125,-0.00179,0.00061,0.01031,0.98716,6.28659,3.11111
09:55:18.437929,6.30531,0.00602,-0.94034,-24.04865,0.50741,83.50088,-0.00186,-0.00500,0.00427,0.01189,0.98674,6.29734,3.11111
09:55:18.448685,6.31606,0.00622,-0.93340,-24.04865,0.43741,81.79837,-0.00094,-0.00729,0.00238,0.01074,0.99027,6.30815,3.10623
09:55:18.458295,6.32567,0.00530,-0.92884,-24.04865,0.51616,85.96420,-0.00262,-0.00530,0.00293,0.00787,0.99155,6.31772,3.10623
09:55:18.468875,6.33626,0.00565,-0.92300,-24.04865,0.41116,82.57674,-0.00140,-0.00775,0.00586,0.01006,0.98789,6.32828,3.11844
09:55:18.480158,6.34733,0.00650,-0.91660,-24.04865,0.47241,86.33679,-0.00491,-0.00377,0.00323,0.01006,0.98814,6.33889,3.12088
09:55:18.489921,6.35729,0.00626,-0.91030,-24.04865,0.50741,88.96488,0.00058,-0.00255,0.00366,0.01019,0.98924,6.34855,3.11111
09:55:18.501248,6.36861,0.00722,-0.90228,-24.04865,0.44616,87.82919,0.00043,-0.00408,0.00128,0.01214,0.99009,6.35985,3.10623
09:55:18.511338,6.37870,0.00691,-0.89414,-24.04865,0.41991,88.19656,-0.00293,0.00432,0.00262,0.01324,0.98820,6.37005,3.11600
09:55:18.520320,6.38768,0.00556,-0.88962,-24.04865,0.50741,92.72721,-0.00094,-0.00011,0.00256,0.00854,0.98991,6.37972,3.11355
09:55:18.531265,6.39862,0.00598,-0.88645,-24.04865,0.20116,80.32782,-0.00446,0.00447,0.00098,0.01025,0.98759,6.38999,3.10623
09:55:18.542317,6.40967,0.00683,-0.88003,-24.04865,0.06116,75.56354,0.00226,0.00294,0.00006,0.01562,0.98777,6.40103,3.11355
09:55:18.551725,6.41908,0.00588,-0.87595,-24.04865,0.10491,78.15826,-0.00339,-0.00118,0.00146,0.01269,0.99015,6.41061,3.12332
09:55:18.562282,6.42964,0.00595,-0.87501,-24.04865,0.02616,74.99230,-0.00369,0.00111,0.00250,0.00994,0.98655,6.42092,3.11600
09:55:18.573099,6.44046,0.00621,-0.87115,-24.04865,0.19241,82.73832,-0.00003,0.00050,0.00262,0.01128,0.98741,6.43169,3.10867
09:55:18.584601,6.45195,0.00734,-0.86733,-24.04865,0.16616,82.32123,0.00165,0.00340,0.00018,0.01153,0.98997,6.44315,3.10867
09:55:18.594113,6.46148,0.00614,-0.86570,-24.04865,0.03491,77.05728,-0.00048,0.00233,0.00092,0.01086,0.99076,6.45284,3.12332
09:55:18.603386,6.47076,0.00521,-0.86549,-24.04865,0.01741,76.35386,0.00196,0.00050,0.00110,0.00939,0.98722,6.46299,3.12088
09:55:18.614944,6.48230,0.00657,-0.86739,-24.04865,-0.02634,74.15546,-0.00048,0.00722,0.00311,0.00750,0.98777,6.47370,3.11355
09:55:18.625427,6.49280,0.00621,-0.86477,-24.04865,0.36741,91.31503,-0.00201,0.00493,0.00146,0.00799,0.98704,6.48414,3.11355
09:55:18.635560,6.50294,0.00598,-0.86347,-24.04865,0.20991,84.87661,0.00165,0.00615,0.00152,0.00848,0.98777,6.49440,3.12088
09:55:18.646646,6.51400,0.00606,-0.86255,-24.04865,0.09616,80.22552,-0.00048,0.00554,0.00146,0.00927,0.98716,6.50528,3.12576
09:55:18.657370,6.52474,0.00645,-0.86032,-24.04865,0.15741,83.22565,-0.00125,0.00493,0.00634,0.01013,0.98844,6.51569,3.10134
09:55:18.667108,6.53447,0.00598,-0.86523,-24.04865,0.18366,83.44587,-0.00430,0.00417,0.00213,0.00171,0.98850,6.52583,3.11844
09:55:18.678113,6.54549,0.00664,-0.86541,-24.04865,0.06116,78.22132,-0.00354,0.00401,0.00128,0.00836,0.98808,6.53733,3.10867
09:55:18.687334,6.55471,0.00529,-0.85991,-24.04865,0.55991,100.35502,-0.00033,0.00554,0.00165,0.00964,0.99040,6.54693,3.12088
09:55:18.699022,6.56638,0.00659,-0.85837,-24.04865,0.37616,92.84837,-0.00400,0.00050,0.00055,0.00665,0.99058,6.55772,3.10379
09:55:18.709144,6.57651,0.00638,-0.86028,-24.04865,0.46366,96.20897,-0.00033,-0.00240,0.00268,0.00207,0.98972,6.56768,3.10623
09:55:18.718300,6.58568,0.00518,-0.86146,-24.04865,0.40241,93.39907,-0.00033,0.00004,0.00006,0.00354,0.99040,6.57771,3.10623
09:55:18.730029,6.59671,0.00585,-0.85915,-24.04865,0.39366,93.44866,-0.00064,-0.00377,0.00159,0.00726,0.98881,6.58856,3.11844
09:55:18.740224,6.60758,0.00604,-0.85169,-24.04865,0.54241,101.10828,0.00074,-0.00148,0.00079,0.01165,0.98753,6.59898,3.12332
09:55:18.750362,6.61772,0.00591,-0.85096,-24.04865,0.28866,90.48920,0.00196,-0.00423,0.00329,0.00714,0.98594,6.60904,3.12332
09:55:18.761569,6.62894,0.00619,-0.83932,-24.04865,0.65616,108.17810,-0.00003,-0.00668,0.00183,0.01458,0.98375,6.62030,3.11600
09:55:18.772098,6.63896,0.00584,-0.82928,-24.04865,0.70866,112.22731,0.00425,-0.00347,0.00372,0.01311,0.98552,6.63053,3.10867
09:55:18.782140,6.64952,0.00590,-0.82249,-24.04865,0.69116,112.72067,0.00058,-0.00225,0.00146,0.00952,0.99040,6.64114,3.10623
09:55:18.793462,6.66083,0.00686,-0.82267,-24.04865,0.95366,123.81068,-0.00048,-0.00194,0.00403,-0.00207,0.99040,6.65223,3.09646
09:55:18.802455,6.66984,0.00538,-0.82006,-24.04865,0.91866,122.80306,0.00379,0.00035,0.00275,0.00311,0.99223,6.66186,3.10134
09:55:18.813901,6.68127,0.00627,-0.81402,-24.04865,0.64741,112.40778,-0.00354,0.00035,0.00183,0.00927,0.99345,6.67259,3.09158
09:55:18.824040,6.69121,0.00585,-0.80403,-24.04865,0.83116,122.01107,-0.00323,-0.00240,0.00415,0.01220,0.98820,6.68274,3.09646
09:55:18.834290,6.70165,0.00587,-0.78798,-24.04865,1.05866,134.56950,-0.00247,-0.00133,0.00335,0.01659,0.98887,6.69301,3.11111
09:55:18.844218,6.71159,0.00544,-0.77135,-24.04865,1.01491,135.74027,-0.00171,-0.00209,0.00360,0.01769,0.98704,6.70355,3.11111
09:55:18.856063,6.72252,0.00601,-0.75961,-24.04865,1.16366,144.17795,0.00120,-0.00408,0.00299,0.00994,0.98606,6.71458,3.11844
09:55:18.866078,6.73292,0.00606,-0.75460,-24.04865,1.12866,143.60548,-0.00400,-0.00240,0.00104,0.00458,0.98594,6.72425,3.10379
09:55:18.875467,6.74285,0.00563,-0.74709,-24.04865,1.06741,142.37640,0.00120,-0.00148,0.00213,0.00701,0.98625,6.73492,3.11111
09:55:18.887699,6.75506,0.00750,-0.73199,-24.04865,1.01491,142.89932,-0.00186,-0.00393,0.00311,0.01531,0.98704,6.74662,3.10379
09:55:18.895745,6.76312,0.00520,-0.71626,-24.04865,1.09366,149.09686,0.00440,0.00004,0.00573,0.01897,0.98802,6.75533,3.11600
09:55:18.906783,6.77415,0.00587,-0.70235,-24.04865,0.57741,129.75348,-0.00308,-0.00087,0.00586,0.02135,0.99009,6.76548,3.11355
09:55:18.917349,6.78472,0.00608,-0.68693,-24.04865,0.77866,141.08491,-0.00064,-0.00164,0.00714,0.02062,0.98875,6.77604,3.10134
09:55:18.926844,6.79422,0.00523,-0.67397,-24.04865,0.79616,144.18399,-0.00140,-0.00194,0.00488,0.01806,0.99229,6.78643,3.11111
09:55:18.938024,6.80539,0.00603,-0.66852,-24.04865,0.83991,147.02833,0.00120,-0.00148,0.00220,0.00915,0.98930,6.79673,3.09646
09:55:18.948547,6.81500,0.00526,-0.66837,-24.04865,0.52491,133.70797,0.00058,-0.00316,0.00207,0.00671,0.98972,6.80722,3.11355
09:55:18.958854,6.82621,0.00614,-0.66444,-24.04865,0.36741,127.74944,-0.00201,-0.00240,0.00378,0.01299,0.98850,6.81755,3.10134
09:55:18.969159,6.83582,0.00539,-0.65045,-24.04865,0.63866,141.78814,0.00043,-0.00316,0.00220,0.02147,0.98686,6.82783,3.11111
09:55:18.979127,6.84651,0.00571,-0.63778,-24.04865,0.38491,133.34106,-0.00247,-0.00515,0.00451,0.02287,0.98735,6.83873,3.10623
09:55:18.990751,6.85811,0.00698,-0.62927,-24.04865,0.28866,130.81049,0.00013,-0.00408,0.00256,0.01952,0.98643,6.84952,3.10379
09:55:19.000684,6.86734,0.00586,-0.62226,-24.04865,0.33241,133.93919,0.00089,-0.00103,0.00220,0.01800,0.98911,6.85889,3.10379
09:55:19.011775,6.87889,0.00710,-0.61820,-24.04865,0.32366,134.30710,0.00349,-0.00087,0.00213,0.01458,0.99210,6.86901,3.11111
09:55:19.021240,6.88859,0.00644,-0.61789,-24.04865,0.28866,132.87978,-0.00094,-0.00179,-0.00232,0.01055,0.98936,6.87955,3.10623
09:55:19.031116,6.89846,0.00610,-0.61692,-24.04865,-0.06134,118.22796,-0.00369,-0.00148,0.00043,0.01549,0.99027,6.88964,3.09890
09:55:19.042166,6.90901,0.00617,-0.61232,-24.04865,-0.06134,119.06446,-0.00110,-0.00301,0.00177,0.01970,0.98887,6.90038,3.11355
09:55:19.051709,6.91907,0.00587,-0.60117,-24.04865,0.01741,124.42836,-0.00400,-0.00209,-0.00189,0.02635,0.98814,6.91059,3.11355
09:55:19.062271,6.92963,0.00595,-0.59869,-24.04865,-0.11384,119.31821,-0.00033,-0.00301,-0.00110,0.01806,0.98545,6.92091,3.11111
09:55:19.073038,6.94041,0.00602,-0.59506,-24.04865,0.20116,133.32471,-0.00278,-0.00133,0.00024,0.01568,0.98893,6.93178,3.10623
09:55:19.083658,6.95034,0.00544,-0.60121,-24.04865,-0.07884,120.34253,-0.00354,-0.00057,-0.00006,0.00793,0.98924,6.94257,3.11111
09:55:19.094037,6.96141,0.00614,-0.60693,-24.04865,-0.24509,112.25815,0.00410,-0.00057,-0.00195,0.01019,0.99223,6.95266,3.11355
09:55:19.104229,6.97073,0.00508,-0.60771,-24.04865,-0.14884,116.19460,-0.00125,-0.00026,0.00207,0.01470,0.99076,6.96294,3.10623
09:55:19.114730,6.98209,0.00624,-0.60577,-24.04865,-0.21884,113.58163,0.00196,-0.00148,0.00329,0.01861,0.98716,6.97335,3.12088
09:55:19.124890,6.99225,0.00603,-0.59840,-24.04865,-0.32384,110.47328,-0.00018,-0.00179,0.00390,0.02605,0.98667,6.98361,3.11355
09:55:19.134790,7.00217,0.00559,-0.60014,-24.04865,-0.31509,110.52714,0.00104,0.00111,0.00079,0.01555,0.98570,6.99377,3.11111
09:55:19.145877,7.01325,0.00628,-0.60303,-24.04865,-0.23634,113.33937,0.00211,0.00386,0.00085,0.01354,0.99076,7.00454,3.12088
09:55:19.156636,7.02397,0.00676,-0.60457,-24.04865,-0.24509,112.68750,0.00211,-0.00041,0.00006,0.01507,0.98698,7.01524,3.12088
09:55:19.166347,7.03371,0.00611,-0.60847,-24.04865,-0.22759,112.71959,-0.00048,0.00294,0.00079,0.01189,0.98930,7.02494,3.12332
09:55:19.176667,7.04402,0.00606,-0.61241,-24.04865,-0.51634,99.76991,-0.00384,0.00004,0.00403,0.01537,0.98783,7.03538,3.10134
09:55:19.186448,7.05354,0.00522,-0.61696,-24.04865,-0.70009,91.15594,0.00028,0.00142,0.00323,0.01659,0.98948,7.04557,3.11355
09:55:19.197551,7.06492,0.00621,-0.61396,-24.04865,-0.78759,87.99422,-0.00140,-0.00057,-0.00073,0.02666,0.98838,7.05628,3.12332
09:55:19.207569,7.07493,0.00585,-0.61291,-24.04865,-0.65634,93.74693,0.00058,0.00233,0.00098,0.02257,0.99113,7.06648,3.11355
09:55:19.218121,7.08548,0.00589,-0.62351,-24.04865,-1.02384,76.24762,-0.00018,0.00630,-0.00043,0.01354,0.99015,7.07682,3.11844
09:55:19.228922,7.09628,0.00604,-0.63576,-24.04865,-0.88384,79.95194,0.00150,0.00111,-0.00085,0.01031,0.98686,7.08768,3.11600
09:55:19.239321,7.10600,0.00540,-0.64917,-24.04865,-1.16384,65.64859,-0.00018,0.00432,-0.00281,0.01122,0.98674,7.09781,3.10379
09:55:19.249712,7.11708,0.00612,-0.66044,-24.04865,-1.28634,58.40905,0.00608,0.00325,-0.00055,0.01549,0.98716,7.10836,3.11844
09:55:19.260053,7.12722,0.00595,-0.67342,-24.04865,-1.48759,47.52155,0.00013,0.00127,0.00116,0.01549,0.98613,7.11878,3.11844
09:55:19.270269,7.13764,0.00588,-0.68102,-24.04865,-1.33884,52.44124,0.00318,0.00127,0.00092,0.01940,0.98850,7.12898,3.10867
09:55:19.280820,7.14818,0.00606,-0.69267,-24.04865,-1.39134,48.09832,0.00471,0.00249,0.00396,0.01580,0.99052,7.13952,3.12821
09:55:19.291177,7.15853,0.00623,-0.70436,-24.04865,-1.33009,48.56583,0.00272,0.00569,-0.00055,0.01409,0.99033,7.14959,3.10623
09:55:19.301372,7.16875,0.00608,-0.71974,-24.04865,-1.40009,42.80353,0.00226,0.00386,-0.00226,0.01110,0.98985,7.16008,3.12088
09:55:19.312714,7.18007,0.00680,-0.74004,-24.04865,-1.66259,27.98873,0.00043,0.00600,0.00000,0.00915,0.98936,7.17103,3.10623
09:55:19.321569,7.18895,0.00519,-0.75443,-24.04865,-1.42634,35.38168,0.00272,0.00371,-0.00250,0.01104,0.98655,7.18098,3.11355
09:55:19.332797,7.20015,0.00603,-0.76922,-24.04865,-1.57509,26.38965,0.00028,0.00233,-0.00159,0.01299,0.98430,7.19151,3.12576
09:55:19.342852,7.21021,0.00591,-0.77978,-24.04865,-1.56634,24.83860,-0.00003,0.00356,-0.00043,0.01665,0.98667,7.20155,3.12576
09:55:19.352655,7.22003,0.00536,-0.79405,-24.04865,-1.90759,7.78424,0.00028,0.00462,-0.00122,0.01714,0.98619,7.21208,3.12576
09:55:19.363649,7.23102,0.00599,-0.81374,-24.04865,-2.12634,-5.06434,0.00226,0.00432,-0.00146,0.01287,0.98893,7.22242,3.10867
09:55:19.374099,7.24145,0.00589,-0.83579,-24.04865,-1.77634,5.75458,0.00394,0.00249,-0.00213,0.00573,0.98979,7.23278,3.12821
09:55:19.384855,7.25134,0.00542,-0.86134,-24.04865,-2.25759,-19.28268,0.00272,0.00127,-0.00006,0.00805,0.99021,7.24355,3.13797
09:55:19.394324,7.26170,0.00559,-0.88429,-24.04865,-2.42384,-30.50151,0.00226,0.00157,0.00165,0.01116,0.99101,7.25379,3.13065
09:55:19.405194,7.27186,0.00538,-0.90382,-24.04865,-2.33634,-30.34611,0.00639,0.00035,0.00122,0.01324,0.98747,7.26387,3.13065
09:55:19.415652,7.28300,0.00616,-0.92815,-24.04865,-2.42384,-38.47769,0.00486,0.00157,0.00305,0.01000,0.98704,7.27455,3.13309
09:55:19.425975,7.29262,0.00542,-0.95161,-24.04865,-2.71259,-54.97910,0.00440,0.00294,-0.00006,0.01232,0.98930,7.28464,3.13797
09:55:19.436354,7.30371,0.00630,-0.97232,-24.04865,-2.59884,-53.92764,0.00257,0.00020,-0.00201,0.01440,0.98948,7.29495,3.14286
09:55:19.446301,7.31368,0.00589,-1.00202,-24.04865,-2.65134,-61.55392,0.00303,0.00081,0.00427,0.00579,0.98814,7.30575,3.13553
09:55:19.456641,7.32401,0.00586,-1.03102,-24.04865,-2.69509,-68.68077,0.00043,0.00188,0.00073,0.00354,0.98436,7.31554,3.13553
09:55:19.467035,7.33440,0.00588,-1.05902,-24.04865,-2.64259,-71.54937,0.00578,0.00493,0.00122,0.00482,0.98417,7.32575,3.14774
09:55:19.478121,7.34497,0.00603,-1.06369,-24.04865,-3.25509,-98.35125,0.00288,0.00936,0.00037,0.04002,0.99717,7.33633,3.14774
09:55:19.488188,7.35554,0.00607,-1.04836,-24.04865,-2.70384,-72.20588,0.00165,0.00753,0.03001,0.05527,0.98692,7.34669,3.14286
09:55:19.499037,7.36638,0.00661,-1.12378,-24.04865,-3.00134,-98.52865,0.00303,0.00432,-0.02239,-0.04258,0.98570,7.35783,3.13309
09:55:19.508796,7.37615,0.00602,-1.13285,-24.04865,-3.07134,-103.14382,0.00822,0.01440,0.01806,0.02782,0.97405,7.36753,3.14042
09:55:19.519107,7.38569,0.00519,-1.17068,-24.04865,-3.12384,-112.24902,0.00730,0.01302,-0.01659,-0.00275,0.98521,7.37771,3.15751
09:55:19.528900,7.39628,0.00541,-1.15393,-24.04703,-3.67509,-132.57414,0.00608,0.01699,0.02733,0.06844,1.00040,7.38832,2.07082
09:55:19.539245,7.40662,0.00539,-1.16572,-24.04703,-2.77384,-96.53301,0.00135,0.00814,0.01781,0.02373,1.00949,7.39864,1.57753
09:55:19.550254,7.41761,0.00588,-1.22728,-24.04541,-2.66009,-102.92489,0.00349,0.00630,-0.00458,-0.03623,1.00772,7.40896,0.83028
09:55:19.560757,7.42811,0.00602,-1.29748,-24.04054,-3.03634,-131.68271,0.00333,0.00325,0.00018,-0.04178,0.99680,7.41949,1.58974
09:55:19.570914,7.43827,0.00583,-1.35890,-24.02919,-3.29884,-154.08553,0.00394,0.00356,0.00817,-0.03050,0.97777,7.42963,1.42125
09:55:19.581835,7.44921,0.00640,-1.37648,-24.01135,-3.22009,-154.12000,0.00364,-0.00316,0.01110,0.01873,0.96484,7.44021,1.38462
09:55:19.592579,7.45912,0.00596,-1.44682,-23.99027,-2.89634,-153.40046,0.00226,-0.00698,0.00897,-0.04459,0.96667,7.45082,1.54579
09:55:19.602184,7.46955,0.00589,-1.46196,-23.96595,-3.04509,-162.69236,0.00440,-0.00301,-0.00543,0.01641,0.97606,7.46088,1.41392
09:55:19.613476,7.48084,0.00683,-1.49013,-23.94649,-2.13509,-129.44769,0.00624,-0.00316,0.00817,-0.00701,0.99131,7.47177,1.48474
09:55:19.622841,7.49020,0.00599,-1.50075,-23.93351,-1.61884,-109.63151,0.00532,0.00172,0.01311,0.00439,0.99930,7.48157,1.13309
09:55:19.633345,7.50072,0.00615,-1.56365,-23.93189,-1.08509,-98.47133,0.00624,0.00264,0.01665,-0.06228,1.00552,7.49197,3.03053
09:55:19.643426,7.51079,0.00586,-1.62839,-23.93189,-1.28634,-118.77299,0.00058,0.00569,0.01354,-0.06332,1.00247,7.50213,3.10867
09:55:19.653679,7.52106,0.00531,-1.63634,-23.93189,-0.70884,-95.75101,-0.00171,0.01257,0.00098,-0.00415,0.98942,7.51309,3.13797
09:55:19.665140,7.53251,0.00623,-1.63734,-23.93189,-0.15759,-72.57677,-0.00232,0.01211,-0.00140,-0.00317,0.98545,7.52374,3.14042
09:55:19.675177,7.54183,0.00518,-1.62460,-23.93189,0.41116,-46.16122,-0.00278,0.01501,-0.00476,0.00592,0.97435,7.53385,3.14042
09:55:19.686334,7.55368,0.00600,-1.64580,-23.93189,0.90991,-28.88572,-0.00629,0.01302,-0.00647,-0.03928,0.97923,7.54503,3.14530
09:55:19.695708,7.56308,0.00572,-1.63327,-23.93189,1.55741,0.82804,-0.00232,0.01226,-0.00079,-0.00781,0.98423,7.55533,3.14042
09:55:19.706629,7.57401,0.00596,-1.64611,-23.92703,2.09991,21.43199,-0.00201,0.00539,-0.01232,-0.04441,0.99369,7.56606,1.32357
09:55:19.717854,7.58469,0.00629,-1.63017,-23.91081,2.12616,25.28643,0.00440,0.00279,-0.00006,-0.00988,1.00009,7.57603,1.50916
09:55:19.727301,7.59466,0.00589,-1.63245,-23.88162,2.58116,43.86611,0.00104,-0.00377,-0.00281,-0.03581,0.99778,7.58596,1.45543
09:55:19.738333,7.60569,0.00656,-1.61066,-23.83459,2.97491,64.05732,-0.00216,-0.00484,0.01043,-0.01629,0.99424,7.59706,1.45543
09:55:19.748219,7.61535,0.00586,-1.58309,-23.78595,3.22866,79.35106,-0.00155,-0.01019,0.00073,-0.00769,0.98936,7.60688,1.42857
09:55:19.758823,7.62617,0.00613,-1.54493,-23.73081,3.42991,94.28429,-0.00995,-0.00973,-0.00250,-0.00043,0.98850,7.61751,1.41392
09:55:19.769715,7.63706,0.00606,-1.49742,-23.68216,3.85866,120.62143,-0.00934,-0.01446,-0.00769,0.00732,0.98417,7.62780,1.36020
09:55:19.779274,7.64663,0.00586,-1.48238,-23.64486,4.06866,131.89233,-0.00827,-0.01355,-0.01562,-0.03099,0.98667,7.63796,1.39683
09:55:19.790356,7.65720,0.00606,-1.45657,-23.61730,4.19116,141.50949,-0.00461,-0.01278,-0.00823,-0.02147,0.98039,7.64851,1.29670
09:55:19.800138,7.66728,0.00551,-1.41946,-23.60108,4.32241,153.66360,-0.00583,-0.01141,-0.00433,-0.01196,0.98369,7.65951,1.68498
09:55:19.811131,7.67848,0.00641,-1.35400,-23.59459,4.51491,173.66220,-0.00064,-0.01065,0.00836,0.02446,0.98570,7.66941,2.46642
09:55:19.820472,7.68785,0.00541,-1.30279,-23.59297,5.08366,207.05953,-0.00369,-0.00973,0.00073,-0.00018,0.99302,7.67984,1.50183
09:55:19.830503,7.69788,0.00522,-1.26310,-23.59297,4.61991,194.62910,-0.00262,-0.00927,0.00622,-0.00531,0.99674,7.68992,1.43834
09:55:19.843334,7.71069,0.00767,-1.20344,-23.59297,4.63741,206.22208,-0.00766,-0.01217,0.00421,0.00732,0.99424,7.70208,1.43346
09:55:19.851151,7.71853,0.00529,-1.15775,-23.59297,4.54116,210.45391,-0.00507,-0.01660,0.00537,0.01147,0.99149,7.71077,1.41392
09:55:19.862722,7.73007,0.00635,-1.10571,-23.59297,4.33116,211.01989,-0.00690,-0.01691,0.00213,0.01421,0.98076,7.72093,1.41636
09:55:19.873202,7.74056,0.00647,-1.06395,-23.59297,4.25241,215.27964,-0.00262,-0.01706,0.00195,0.00250,0.97838,7.73147,1.37241
09:55:19.883058,7.75043,0.00599,-1.01152,-23.59297,3.98116,213.32249,-0.00629,-0.01370,-0.00067,0.01562,0.97923,7.74267,1.41880
09:55:19.894589,7.76170,0.00685,-0.95773,-23.59297,4.40116,240.90074,-0.00354,-0.01034,-0.00024,0.02031,0.98735,7.75238,1.38950
09:55:19.903276,7.77065,0.00544,-0.89989,-23.59297,4.09491,238.44507,0.00043,-0.00881,0.00421,0.02696,0.99223,7.76261,1.38950
09:55:19.913950,7.78133,0.00552,-0.85084,-23.59297,4.24366,253.66833,-0.00262,-0.00775,0.00433,0.01470,0.99875,7.77315,1.39683
09:55:19.925559,7.79221,0.00603,-0.81447,-23.59297,4.31366,263.24910,-0.00232,-0.00622,-0.00329,0.00049,1.00180,7.78359,1.37241
09:55:19.934316,7.80169,0.00515,-0.75519,-23.59297,3.65741,246.22584,-0.00369,-0.01034,0.00573,0.03642,0.98942,7.79374,1.38462
09:55:19.946295,7.81313,0.00622,-0.70294,-23.59297,3.35116,242.75425,-0.00736,-0.00973,-0.00140,0.03117,0.98680,7.80433,1.38950
09:55:19.955760,7.82312,0.00585,-0.67139,-23.59297,3.17616,241.07756,-0.00537,-0.01095,-0.00903,0.01122,0.98210,7.81466,1.37729
09:55:19.966485,7.83386,0.00611,-0.62639,-23.59297,3.07116,244.81415,-0.00308,-0.00973,-0.01702,0.02849,0.98369,7.82498,1.39194
09:55:19.976766,7.84412,0.00600,-0.58132,-23.59297,2.51991,229.65365,-0.00079,-0.01233,-0.01336,0.03514,0.98472,7.83551,1.39927
09:55:19.986915,7.85359,0.00528,-0.54648,-23.59297,2.75616,245.99993,-0.00110,-0.00881,-0.00897,0.02257,0.98411,7.84566,1.40171
09:55:19.997315,7.86469,0.00602,-0.51858,-23.59297,2.36241,234.39205,-0.00048,-0.00545,0.00390,0.01903,0.98442,7.85608,1.40171
09:55:20.007107,7.87448,0.00545,-0.47940,-23.59297,2.22241,235.58580,-0.00278,-0.00408,-0.00323,0.03453,0.99265,7.86643,1.38462
09:55:20.017603,7.88498,0.00574,-0.44634,-23.59297,1.86366,226.39868,-0.00308,-0.00087,-0.01226,0.03209,0.99839,7.87700,1.40904
09:55:20.029033,7.89639,0.00680,-0.41272,-23.59297,1.74116,227.32421,-0.00262,0.00340,-0.01183,0.03440,0.99692,7.88774,1.39683
09:55:20.038107,7.90549,0.00544,-0.38573,-23.59297,1.94241,240.75937,-0.00079,0.00142,-0.00494,0.02666,0.98631,7.89752,1.41636
09:55:20.049363,7.91650,0.00609,-0.35942,-23.59297,1.71491,235.90515,-0.00354,0.00554,0.00329,0.02775,0.98210,7.90781,1.37729
09:55:20.059271,7.92663,0.00586,-0.34110,-23.59297,1.57491,233.30658,-0.00384,0.00554,-0.00464,0.02092,0.98137,7.91796,1.38217
09:55:20.069133,7.93651,0.00536,-0.32368,-23.59297,1.49616,233.13788,-0.00186,0.00157,-0.01562,0.02050,0.98600,7.92853,1.39438
09:55:20.079321,7.94670,0.00519,-0.31595,-23.59297,0.83991,206.73786,-0.00232,0.00310,-0.01781,0.01775,0.98930,7.93891,1.39438
09:55:20.090419,7.95778,0.00590,-0.30055,-23.59297,0.68241,202.86501,0.00272,0.00065,-0.00299,0.02855,0.98430,7.94913,1.37729
09:55:20.101254,7.96863,0.00620,-0.27752,-23.59297,0.86616,214.84021,0.00013,-0.00072,0.01068,0.03508,0.98722,7.95984,1.38217
09:55:20.110835,7.97821,0.00521,-0.26142,-23.59297,0.64741,208.49940,-0.00308,0.00050,0.01000,0.03032,0.98936,7.97040,1.37485
09:55:20.122484,7.98984,0.00629,-0.25301,-23.59297,0.53366,205.21013,-0.00461,0.00081,0.00049,0.02342,0.99723,7.98075,1.38462
09:55:20.132688,8.00004,0.00613,-0.24400,-23.59297,0.29741,196.83782,0.00043,0.00554,-0.00451,0.02696,0.99784,7.99141,1.38706
09:55:20.141936,8.00932,0.00522,-0.23851,-23.59297,0.08741,188.93976,0.00211,0.00462,0.00073,0.02544,0.98857,8.00134,1.39927
09:55:20.153576,8.02095,0.00649,-0.23338,-23.59297,0.20991,195.06291,-0.00278,0.00875,0.01049,0.02330,0.98064,8.01228,1.38462
09:55:20.164136,8.03131,0.00649,-0.23912,-23.59297,-0.06134,182.52521,-0.00033,0.00661,0.01409,0.01427,0.97948,8.02290,1.39927
09:55:20.173197,8.04058,0.00539,-0.24072,-23.59297,-0.00009,184.83085,0.00104,0.00676,0.00598,0.01830,0.98594,8.03263,1.39194
09:55:20.184167,8.05068,0.00528,-0.23839,-23.59297,-0.07884,181.91779,-0.00644,0.00233,0.00464,0.02385,0.99277,8.04291,1.39927
09:55:20.194637,8.06201,0.00623,-0.23498,-23.59297,-0.15759,179.20063,0.00257,0.00065,0.00586,0.02611,0.99582,8.05302,1.40171
09:55:20.205280,8.07261,0.00647,-0.23711,-23.59297,-0.12259,180.29709,0.00425,0.00233,0.01647,0.01934,0.99210,8.06355,1.42613
09:55:20.215326,8.08271,0.00620,-0.23948,-23.59297,-0.09634,180.97808,-0.00369,0.00417,0.01861,0.01867,0.98655,8.07471,1.39438
09:55:20.225574,8.09295,0.00608,-0.24952,-23.59297,-0.24509,172.84801,-0.00003,0.00478,0.01415,0.01128,0.99046,8.08426,1.42369
09:55:20.235690,8.10305,0.00598,-0.25242,-23.59297,0.04366,184.55536,-0.00033,0.00646,0.00555,0.01616,0.98924,8.09461,1.38706
09:55:20.246089,8.11346,0.00587,-0.26087,-23.59297,0.09616,185.24245,0.00410,0.00356,0.00061,0.00915,0.99223,8.10480,1.38706
09:55:20.255777,8.12316,0.00521,-0.26368,-23.59297,0.00866,181.02493,0.00135,0.00493,0.00970,0.01641,0.98472,8.11536,1.37729
09:55:20.266389,8.13376,0.00563,-0.26029,-23.59297,-0.00009,181.26994,0.00028,0.00203,0.01848,0.02355,0.98411,8.12538,1.38462
09:55:20.276518,8.14390,0.00540,-0.26171,-23.59297,-0.14009,175.07979,-0.00140,-0.00209,0.00964,0.01976,0.98436,8.13589,1.40659
09:55:20.288739,8.15558,0.00671,-0.25900,-23.59297,0.05241,183.73051,-0.00125,-0.00072,0.00213,0.02233,0.99149,8.14698,1.40659
09:55:20.298493,8.16532,0.00610,-0.25815,-23.59297,0.17491,189.07381,-0.00232,-0.00316,-0.00043,0.01897,0.99265,8.15662,1.41880
09:55:20.308476,8.17585,0.00627,-0.26731,-23.59297,0.15741,186.66778,0.00257,-0.00209,0.00567,0.00744,0.99204,8.16731,1.41392
09:55:20.321090,8.18844,0.00863,-0.27305,-23.59297,-0.06134,176.35389,-0.00155,-0.00087,0.01257,0.01391,0.98991,8.17897,1.41392
09:55:20.329747,8.19711,0.00673,-0.27242,-23.59297,0.13991,184.99694,-0.00155,-0.00240,0.01031,0.01879,0.98674,8.18847,1.41392
09:55:20.339815,8.20644,0.00569,-0.26593,-23.59297,0.27116,191.73771,0.00120,-0.00148,0.00476,0.02391,0.98777,8.19868,1.40904
09:55:20.349826,8.21720,0.00609,-0.26059,-23.59297,0.22741,190.85558,-0.00186,-0.00500,0.00055,0.02330,0.98728,8.20851,1.42369
09:55:20.359281,8.22666,0.00519,-0.25875,-23.59297,-0.03509,180.06708,0.00303,-0.00377,0.00671,0.02233,0.98832,8.21887,1.41148
09:55:20.371347,8.23871,0.00692,-0.25969,-23.59297,0.02616,182.49199,0.00226,-0.00622,0.01068,0.01842,0.98802,8.23004,1.40171
09:55:20.380800,8.24816,0.00601,-0.25902,-23.59297,0.10491,185.95068,0.00074,-0.00790,0.01299,0.01946,0.98808,8.23954,1.39194
09:55:20.391514,8.25889,0.00638,-0.26345,-23.59297,-0.19259,172.54026,0.00181,-0.00851,0.00470,0.01702,0.99210,8.24970,1.40415
09:55:20.401562,8.26823,0.00537,-0.26880,-23.59297,0.04366,181.57729,0.00104,-0.00148,0.00616,0.01318,0.99564,8.26027,1.38462
09:55:20.411738,8.27910,0.00587,-0.26625,-23.59297,0.03491,181.66909,0.00104,-0.00225,0.00683,0.02227,0.99216,8.27063,1.39683
09:55:20.421555,8.28893,0.00521,-0.25676,-23.59297,0.02616,183.02509,0.00089,0.00111,0.01427,0.03026,0.98606,8.28094,1.37485
09:55:20.434069,8.30084,0.00675,-0.24560,-23.59297,0.54241,206.92893,-0.00048,0.00065,0.01336,0.02568,0.98430,8.29222,1.40659
09:55:20.442247,8.30963,0.00518,-0.24614,-23.59297,0.48991,204.60578,-0.00155,0.00585,0.00659,0.01415,0.98460,8.30165,1.36508
09:55:20.454040,8.32088,0.00607,-0.24567,-23.59297,0.36741,199.50056,-0.00323,0.00585,0.00116,0.01616,0.98631,8.31221,1.41392
09:55:20.463792,8.33116,0.00599,-0.24563,-23.59297,0.32366,197.65368,-0.00064,0.00783,0.00317,0.01629,0.98716,8.32258,1.42857
09:55:20.474184,8.34154,0.00589,-0.23968,-23.59297,0.61241,210.97115,0.00165,0.00279,0.00622,0.01976,0.98802,8.33287,1.40904
09:55:20.485841,8.35258,0.00657,-0.23461,-23.59297,0.50741,207.44463,-0.00201,-0.00011,0.00726,0.01964,0.98808,8.34393,1.41392
09:55:20.495263,8.36194,0.00574,-0.22903,-23.59297,0.49866,208.08906,-0.00094,0.00035,0.00549,0.02098,0.98838,8.35400,1.40171
09:55:20.505279,8.37265,0.00607,-0.22369,-23.59297,0.40241,204.98102,-0.00171,0.00065,0.00140,0.02202,0.99192,8.36397,1.39194
09:55:20.515603,8.38281,0.00586,-0.22074,-23.59297,0.55116,211.82052,-0.00552,0.00081,0.00238,0.01702,0.98832,8.37490,1.36264
09:55:20.526593,8.39396,0.00679,-0.22642,-23.59297,0.75241,219.31377,-0.00216,0.00127,0.00165,0.00506,0.98850,8.38534,1.40415
09:55:20.536230,8.40358,0.00605,-0.22422,-23.59297,0.52491,210.07451,0.00074,0.00172,0.00311,0.01720,0.98741,8.39493,1.39927
09:55:20.546632,8.41399,0.00619,-0.21836,-23.59297,0.56866,212.99531,-0.00079,0.00111,0.00201,0.02062,0.98539,8.40503,1.38950
09:55:20.556179,8.42334,0.00517,-0.20989,-23.59297,0.33241,204.52566,0.00058,-0.00332,-0.00098,0.02635,0.98991,8.41557,1.37485
09:55:20.567635,8.43430,0.00578,-0.20133,-23.59297,0.52491,214.23876,-0.00079,-0.00164,0.00323,0.02403,0.98911,8.42652,1.37485
09:55:20.578751,8.44501,0.00613,-0.19049,-23.59297,0.70866,223.99483,-0.00018,-0.00500,0.00409,0.02544,0.98728,8.43627,1.38706
09:55:20.587063,8.45445,0.00521,-0.18995,-23.59297,0.50741,215.56677,-0.00262,-0.00775,0.00775,0.01568,0.98808,8.44664,1.38462
09:55:20.597516,8.46489,0.00531,-0.19236,-23.59297,0.46366,213.27555,-0.00293,-0.00545,0.00110,0.01287,0.98869,8.45691,1.39194
09:55:20.609154,8.47601,0.00606,-0.19108,-23.59297,0.48991,214.61952,0.00120,-0.00820,-0.00098,0.01665,0.98863,8.46736,1.40659
09:55:20.619478,8.48610,0.00596,-0.17951,-23.59297,0.53366,218.57741,-0.00018,-0.00561,-0.00006,0.02775,0.99070,8.47832,1.40659
09:55:20.629163,8.49654,0.00604,-0.16752,-23.59297,0.62116,224.46669,0.00150,-0.00362,0.00152,0.02824,0.98692,8.48788,1.39438
09:55:20.640594,8.50710,0.00598,-0.15515,-23.59297,0.70866,230.42335,-0.00094,0.00203,0.00348,0.02641,0.98796,8.49936,1.41392
09:55:20.649436,8.51682,0.00520,-0.14421,-23.59297,0.83991,237.97477,-0.00201,0.00157,-0.00098,0.02519,0.98814,8.50884,1.39927
09:55:20.661678,8.52905,0.00682,-0.13228,-23.59297,0.70866,234.58278,-0.00415,0.00279,-0.00098,0.02653,0.98680,8.52000,1.39683
09:55:20.670828,8.53821,0.00534,-0.12841,-23.59297,0.62116,231.57907,-0.00064,0.00340,-0.00439,0.01921,0.99040,8.53037,1.39683
09:55:20.681930,8.54857,0.00534,-0.12750,-23.59297,0.62991,232.11616,-0.00094,0.00157,0.00201,0.01586,0.98991,8.54061,1.40415
09:55:20.693868,8.56124,0.00766,-0.11956,-23.59297,0.46366,226.51573,-0.00216,0.00004,0.00354,0.02501,0.98985,8.55253,1.37485
09:55:20.703003,8.57036,0.00657,-0.10925,-23.59297,0.52491,230.98536,0.00150,0.00081,0.00000,0.02867,0.99027,8.56175,1.37241
09:55:20.712867,8.58022,0.00607,-0.09790,-23.59297,0.59491,236.01618,-0.00308,-0.00530,-0.00268,0.02891,0.98942,8.57155,1.36752
09:55:20.722518,8.58960,0.00522,-0.09210,-23.59297,0.31491,225.20718,-0.00079,-0.00118,-0.00299,0.02568,0.98814,8.58163,1.39683
09:55:20.733588,8.60096,0.00612,-0.08291,-23.59297,0.63866,240.59592,-0.00308,0.00020,0.00067,0.02550,0.98619,8.59232,1.39927
09:55:20.743717,8.61108,0.00588,-0.07957,-23.59297,0.38491,230.45175,0.00028,0.00188,-0.00012,0.02220,0.98741,8.60261,1.38950
09:55:20.753496,8.62087,0.00518,-0.07651,-23.59297,0.40241,231.75113,-0.00018,0.00127,-0.00275,0.02178,0.98875,8.61290,1.39194
09:55:20.765308,8.63268,0.00614,-0.07208,-23.59297,0.31491,228.84872,-0.00201,0.00065,-0.00604,0.02385,0.98826,8.62473,1.40904
09:55:20.775471,8.64282,0.00591,-0.06358,-23.59297,0.36741,232.61923,0.00532,-0.00133,-0.00317,0.02891,0.98753,8.63411,1.38706
09:55:20.785939,8.65330,0.00604,-0.05770,-23.59297,0.26241,229.24032,-0.00003,-0.00103,-0.00311,0.02684,0.98832,8.64465,1.39438
09:55:20.796707,8.66356,0.00594,-0.04980,-23.59297,0.39366,236.23783,-0.00125,-0.00057,0.00000,0.02775,0.98631,8.65493,1.37485
09:55:20.806395,8.67376,0.00590,-0.04842,-23.59297,0.34116,234.26512,-0.00201,-0.00164,-0.00067,0.02111,0.98838,8.66510,1.38950
09:55:20.817238,8.68459,0.00638,-0.04686,-23.59297,0.20116,228.61716,-0.00171,-0.00026,-0.00232,0.02294,0.99143,8.67562,1.38706
09:55:20.827317,8.69469,0.00628,-0.04831,-23.59297,0.18366,227.61070,0.00135,0.00065,0.00201,0.01970,0.98777,8.68573,1.39683
09:55:20.837296,8.70467,0.00563,-0.04143,-23.59297,0.37616,237.01822,-0.00155,0.00203,0.00201,0.02672,0.98838,8.69668,1.38217
09:55:20.848273,8.71525,0.00584,-0.03876,-23.59297,0.14866,227.86541,-0.00262,0.00218,0.00092,0.02495,0.98783,8.70679,1.40904
09:55:20.857701,8.72507,0.00530,-0.03155,-23.59297,0.30616,235.84880,0.00211,0.00279,0.00250,0.02836,0.98783,8.71700,1.38217
09:55:20.868874,8.73623,0.00609,-0.02852,-23.59297,0.24491,233.80605,-0.00110,0.00447,-0.00256,0.02440,0.99125,8.72754,1.36996
09:55:20.878988,8.74634,0.00584,-0.02518,-23.59297,0.34991,238.86126,0.00120,0.00035,-0.00342,0.02367,0.99027,8.73769,1.38217
09:55:20.888834,8.75622,0.00535,-0.02880,-23.59297,-0.07009,220.40796,0.00120,0.00218,0.00140,0.02062,0.99186,8.74827,1.40171
09:55:20.901206,8.76857,0.00735,-0.02441,-23.59297,0.19241,232.32813,-0.00247,-0.00301,0.00323,0.02641,0.98832,8.75946,1.38706
09:55:20.909689,8.77707,0.00547,-0.02247,-23.59297,0.07866,227.86117,0.00165,-0.00332,0.00067,0.02525,0.98826,8.76906,1.39683
09:55:20.920970,8.78765,0.00569,-0.02086,-23.59297,-0.03509,223.33433,-0.00216,-0.00133,-0.00104,0.02617,0.98765,8.77966,1.40659
09:55:20.930542,8.79792,0.00577,-0.02184,-23.59297,-0.05259,222.41566,0.00074,-0.00209,0.00043,0.02342,0.98789,8.78997,1.35531
09:55:20.941318,8.80869,0.00618,-0.01855,-23.59297,0.19241,233.39466,-0.00064,-0.00133,0.00165,0.02538,0.98881,8.80073,1.39927
09:55:20.952770,8.81962,0.00675,-0.02034,-23.59297,0.04366,226.76646,-0.00048,-0.00148,0.00396,0.02141,0.98832,8.81105,1.39683
09:55:20.961227,8.82860,0.00537,-0.02362,-23.59297,0.01741,225.05858,0.00028,-0.00240,0.00220,0.02001,0.98905,8.82063,1.37241
09:55:20.972375,8.83975,0.00551,-0.02423,-23.59297,-0.04384,222.35074,0.00074,-0.00118,0.00201,0.02373,0.98808,8.83178,1.40171
09:55:20.983175,8.85055,0.00595,-0.02155,-23.59297,-0.28884,212.45839,0.00226,-0.00332,0.00256,0.03056,0.98802,8.84278,1.39683
09:55:20.993572,8.86095,0.00599,-0.01789,-23.59297,-0.06134,222.76259,0.00272,-0.00561,0.00128,0.02885,0.98857,8.85298,1.39438
09:55:21.003591,8.87097,0.00565,-0.01661,-23.59297,-0.26259,214.46974,0.00272,-0.00332,0.00506,0.02855,0.99155,8.86300,1.38706
09:55:21.013597,8.88098,0.00520,-0.01928,-23.59297,-0.31509,211.75816,0.00028,-0.00377,0.00329,0.02452,0.98924,8.87300,1.36996
09:55:21.024653,8.89203,0.00589,-0.02285,-23.59297,-0.33259,210.36906,-0.00384,-0.00423,0.00317,0.02391,0.99119,8.88354,1.38950
09:55:21.036581,8.90392,0.00743,-0.02455,-23.59297,-0.28009,212.28362,-0.00125,0.00111,0.00201,0.02574,0.99076,8.89530,1.38462
09:55:21.045603,8.91298,0.00612,-0.02554,-23.59297,-0.11384,219.14729,-0.00079,-0.00148,0.00323,0.02391,0.98899,8.90429,1.40415
09:55:21.056083,8.92326,0.00605,-0.02374,-23.59297,-0.21009,215.39579,0.00288,-0.00133,0.00256,0.02836,0.98759,8.91462,1.38706
09:55:21.066196,8.93285,0.00529,-0.02194,-23.59297,-0.12259,219.43086,0.00104,-0.00011,0.00244,0.02739,0.98826,8.92489,1.36508
09:55:21.077318,8.94469,0.00677,-0.02340,-23.59297,-0.43759,205.81925,-0.00110,0.00264,0.00006,0.02763,0.98625,8.93587,1.40659
09:55:21.086935,8.95429,0.00598,-0.02584,-23.59297,-0.43759,205.37569,0.00379,0.00340,0.00207,0.02593,0.98777,8.94566,1.39438
09:55:21.097393,8.96477,0.00610,-0.02896,-23.59297,-0.35884,208.14432,-0.00110,0.00004,-0.00195,0.02452,0.98942,8.95607,1.38706
09:55:21.108465,8.97582,0.00609,-0.03698,-23.59297,-0.49884,200.75391,0.00379,0.00050,-0.00043,0.02086,0.98948,8.96715,1.40171
09:55:21.119482,8.98658,0.00665,-0.03921,-23.59297,-0.52509,199.23555,0.00013,0.00142,-0.00043,0.02708,0.98979,8.97716,1.40415
09:55:21.129885,8.99726,0.00697,-0.03965,-23.59297,-0.52509,199.15662,0.00120,0.00035,-0.00104,0.02989,0.99070,8.98841,1.38706
09:55:21.139548,9.00690,0.00591,-0.04222,-23.59297,-0.64759,193.49819,0.00257,0.00279,-0.00244,0.02812,0.99204,8.99845,1.38950
09:55:21.150821,9.01817,0.00697,-0.05068,-23.59297,-0.55134,196.03751,0.00013,0.00218,-0.00342,0.02080,0.99125,9.00950,1.39683
09:55:21.159373,9.02675,0.00518,-0.05442,-23.59297,-0.55134,195.35786,0.00028,0.00065,-0.00201,0.02507,0.99009,9.01894,1.38706
09:55:21.169646,9.03702,0.00522,-0.06130,-23.59297,-0.42884,199.29736,0.00211,0.00356,-0.00043,0.02037,0.98942,9.02904,1.41636
09:55:21.180195,9.04736,0.00519,-0.07000,-23.59297,-0.64759,188.44597,-0.00064,0.00371,0.00177,0.02092,0.98661,9.03957,1.39927
09:55:21.191002,9.05836,0.00583,-0.08027,-23.59297,-0.84009,178.42264,-0.00110,0.00203,0.00110,0.02098,0.98979,9.04974,1.41148
09:55:21.202560,9.06991,0.00703,-0.08390,-23.59297,-0.43759,194.81586,0.00242,0.00417,0.00329,0.02428,0.98527,9.06107,1.40415
09:55:21.211769,9.07913,0.00588,-0.08981,-23.59297,-0.74384,180.76475,0.00349,0.00065,0.00384,0.02416,0.98997,9.07064,1.37729
09:55:21.222429,9.08978,0.00620,-0.09628,-23.59297,-0.77884,178.10468,0.00257,0.00188,0.00323,0.02458,0.98905,9.08114,1.38217
09:55:21.232518,9.09990,0.00595,-0.10290,-23.59297,-0.51634,188.02407,-0.00003,0.00050,0.00116,0.02141,0.99162,9.09193,1.37973
09:55:21.243569,9.11093,0.00679,-0.11044,-23.59297,-0.70884,178.49573,-0.00262,-0.00041,-0.00030,0.02233,0.98905,9.10247,1.39683
09:55:21.253954,9.12107,0.00656,-0.11815,-23.59297,-0.53384,184.50897,-0.00018,0.00096,0.00049,0.01921,0.98759,9.11190,1.39683
09:55:21.263454,9.13081,0.00594,-0.12475,-23.59297,-0.62134,179.60055,0.00303,0.00020,0.00146,0.02178,0.98637,9.12207,1.40904
09:55:21.274730,9.14140,0.00617,-0.13309,-23.59297,-0.81384,169.92632,0.00043,-0.00011,0.00256,0.02294,0.98454,9.13343,1.41636
09:55:21.284285,9.15163,0.00605,-0.13562,-23.59297,-0.70884,173.91671,0.00074,0.00340,0.00647,0.02672,0.98777,9.14294,1.38462
09:55:21.294365,9.16172,0.00592,-0.14256,-23.59297,-0.57759,178.21411,0.00349,0.00081,0.00793,0.02062,0.99070,9.15303,1.41148
09:55:21.304940,9.17230,0.00614,-0.15091,-23.59297,-0.61259,175.21340,0.00074,0.00081,0.00439,0.01958,0.99009,9.16356,1.41636
09:55:21.314957,9.18232,0.00596,-0.16092,-23.59297,-0.84009,163.75406,0.00288,0.00188,0.00494,0.01989,0.99040,9.17371,1.38950
09:55:21.325930,9.19275,0.00603,-0.17281,-23.59297,-0.94509,157.14168,0.00150,-0.00286,0.00714,0.01897,0.98716,9.18413,1.41392
09:55:21.335347,9.20273,0.00579,-0.18463,-23.59297,-0.77884,162.03523,0.00272,-0.00332,0.00872,0.01732,0.99088,9.19497,1.43834
09:55:21.346891,9.21355,0.00554,-0.19885,-23.59297,-1.02384,149.06997,0.00242,-0.00041,0.00830,0.01708,0.98893,9.20558,1.42125
09:55:21.357542,9.22439,0.00602,-0.20808,-23.59297,-0.76134,158.51321,0.00028,0.00035,0.00476,0.01903,0.98850,9.21576,1.38217
09:55:21.367211,9.23457,0.00583,-0.21592,-23.59297,-0.44634,170.43375,0.00226,0.00065,0.00506,0.01684,0.98875,9.22593,1.39683
09:55:21.377843,9.24522,0.00613,-0.22639,-23.59297,-0.61259,161.48462,0.00349,0.00050,0.00695,0.01586,0.98680,9.23654,1.42125
09:55:21.387257,9.25464,0.00518,-0.23776,-23.59297,-0.55134,162.01165,0.00043,-0.00041,0.00525,0.01372,0.98686,9.24684,1.41636
09:55:21.398474,9.26583,0.00605,-0.24379,-23.59297,-0.48134,163.88150,0.00074,0.00065,0.00634,0.01873,0.98430,9.25700,1.42857
09:55:21.408928,9.27629,0.00609,-0.24513,-23.59297,-0.27134,172.53463,-0.00247,0.00020,0.00537,0.02190,0.99125,9.26770,1.41880
09:55:21.419189,9.28656,0.00611,-0.24828,-23.59297,-0.51634,161.58072,0.00318,0.00310,0.00647,0.02233,0.98979,9.27770,1.41148
09:55:21.429982,9.29736,0.00655,-0.25403,-23.59297,-0.42884,164.24366,0.00303,0.00233,0.00610,0.01861,0.99284,9.28822,1.41636
09:55:21.439357,9.30644,0.00532,-0.25635,-23.59297,-0.09634,177.90840,0.00089,0.00127,0.00659,0.01842,0.99064,9.29866,1.43101
09:55:21.450434,9.31780,0.00599,-0.26205,-23.59297,-0.01759,180.20930,-0.00278,0.00157,0.00799,0.01354,0.98881,9.30914,1.38217
09:55:21.461286,9.32862,0.00646,-0.26656,-23.59297,-0.17509,172.71541,-0.00262,0.00203,0.00378,0.01659,0.98466,9.31956,1.39194
09:55:21.470298,9.33768,0.00515,-0.27187,-23.59297,-0.14009,173.23204,-0.00064,0.00325,0.00348,0.01519,0.98741,9.32973,1.40415
09:55:21.482687,9.35004,0.00595,-0.27261,-23.59297,0.13116,184.59012,0.00074,0.00157,0.00439,0.01702,0.98820,9.34142,1.40171
09:55:21.493125,9.36050,0.00605,-0.27563,-23.59297,0.00866,178.85120,-0.00094,0.00264,0.00372,0.01598,0.98570,9.35184,1.41880
09:55:21.502977,9.37034,0.00553,-0.27394,-23.59297,0.18366,186.57313,-0.00018,0.00218,0.00433,0.01940,0.98966,9.36201,1.40659
09:55:21.513879,9.38125,0.00608,-0.27453,-23.59297,0.22741,188.31909,0.00104,0.00279,0.00616,0.01623,0.99143,9.37256,1.40659
09:55:21.524708,9.39121,0.00533,-0.27793,-23.59297,0.24491,188.44206,0.00058,0.00233,0.00415,0.01269,0.99265,9.38345,1.39438
09:55:21.536017,9.40273,0.00636,-0.27935,-23.59297,0.40241,194.85786,-0.00094,-0.00118,0.00738,0.01324,0.99033,9.39369,1.39683
09:55:21.546157,9.41351,0.00678,-0.27975,-23.59297,0.11366,182.55088,-0.00186,0.00035,0.00543,0.01769,0.99174,9.40450,1.40659
09:55:21.555824,9.42319,0.00597,-0.27667,-23.59297,0.36741,193.86176,-0.00094,-0.00576,0.00342,0.01879,0.99009,9.41474,1.40659
09:55:21.566867,9.43422,0.00602,-0.27312,-23.59297,0.39366,195.62067,-0.00140,-0.00332,0.00262,0.01879,0.98771,9.42554,1.41880
09:55:21.577202,9.44457,0.00613,-0.27246,-23.59297,0.45491,198.33539,-0.00003,-0.00164,0.00372,0.01501,0.98838,9.43590,1.39927
09:55:21.588678,9.45603,0.00660,-0.26684,-23.59297,0.64741,207.51354,0.00043,-0.00087,0.00476,0.01806,0.98783,9.44681,1.37485
09:55:21.598328,9.46569,0.00591,-0.26080,-23.59297,0.71741,211.57828,-0.00094,-0.00164,0.00714,0.01836,0.98802,9.45701,1.41392
09:55:21.609377,9.47622,0.00609,-0.25538,-23.59297,0.43741,200.69988,0.00181,-0.00377,0.00677,0.02086,0.99046,9.46753,1.39683
09:55:21.619195,9.48655,0.00605,-0.24937,-23.59297,0.70866,213.28687,0.00058,-0.00591,0.00543,0.01873,0.99210,9.47770,1.40904
09:55:21.629525,9.49690,0.00619,-0.24027,-23.59297,0.43741,203.44930,0.00349,-0.00652,0.00744,0.02532,0.99137,9.48826,1.40904
09:55:21.640662,9.50720,0.00575,-0.22755,-23.59297,1.00616,229.86055,-0.00232,-0.00637,0.00854,0.02263,0.98948,9.49895,1.39438
09:55:21.650405,9.51777,0.00596,-0.21705,-23.59297,0.81366,223.61317,-0.00003,-0.00423,0.00756,0.02318,0.98930,9.50903,1.39683
09:55:21.661328,9.52869,0.00652,-0.20845,-23.59297,0.75241,222.58188,-0.00048,-0.00576,0.00317,0.02098,0.98667,9.52010,1.40904
09:55:21.670997,9.53836,0.00583,-0.19702,-23.59297,1.00616,235.41376,0.00028,-0.00255,0.00152,0.02287,0.98759,9.52973,1.40171
09:55:21.681570,9.54894,0.00605,-0.18896,-23.59297,0.69991,223.90402,-0.00140,-0.00607,0.00079,0.02178,0.98722,9.54029,1.39438
09:55:21.691746,9.55910,0.00585,-0.17898,-23.59297,0.61241,222.01178,0.00028,0.00111,-0.00122,0.02525,0.98521,9.55065,1.37485
09:55:21.702289,9.56965,0.00590,-0.16912,-23.59297,0.65616,225.65776,-0.00094,-0.00316,0.00146,0.02489,0.98808,9.56096,1.37973
09:55:21.713972,9.58133,0.00689,-0.15927,-23.59297,0.53366,222.25966,0.00058,-0.00057,-0.00207,0.02568,0.99094,9.57271,1.38950
09:55:21.724378,9.59174,0.00694,-0.15114,-23.59297,0.57741,225.59182,-0.00262,-0.00011,-0.00226,0.02422,0.99259,9.58310,1.41880
09:55:21.733889,9.60125,0.00623,-0.14129,-23.59297,0.44616,221.82177,-0.00323,-0.00057,-0.00238,0.02824,0.98911,9.59260,1.40415
09:55:21.744840,9.61222,0.00685,-0.13248,-23.59297,0.38491,220.83005,-0.00079,-0.00225,-0.00415,0.02690,0.98765,9.60427,1.39927
09:55:21.755491,9.62285,0.00675,-0.12374,-23.59297,0.51616,227.97955,0.00165,0.00035,-0.00348,0.02605,0.98491,9.61441,1.39438
09:55:21.766589,9.63395,0.00749,-0.12075,-23.59297,0.41116,224.07444,0.00074,0.00142,-0.00403,0.02080,0.98564,9.62460,1.39194
09:55:21.775322,9.64268,0.00586,-0.11611,-23.59297,0.53366,230.10953,-0.00308,-0.00164,-0.00317,0.02184,0.98704,9.63403,1.41392
09:55:21.786399,9.65300,0.00582,-0.10859,-23.59297,0.45491,228.13935,-0.00140,0.00065,-0.00366,0.02538,0.98911,9.64487,1.40659
09:55:21.796576,9.66393,0.00620,-0.10095,-23.59297,0.50741,231.75437,0.00104,0.00203,-0.00275,0.02525,0.98911,9.65529,1.40171
09:55:21.807167,9.67378,0.00530,-0.09329,-23.59297,0.55991,235.37138,-0.00186,0.00310,-0.00152,0.02470,0.98905,9.66583,1.38462
09:55:21.818154,9.68551,0.00666,-0.09322,-23.59297,0.12241,216.84756,-0.00079,0.00432,-0.00152,0.02135,0.98924,9.67624,1.40415
09:55:21.827715,9.69507,0.00587,-0.09156,-23.59297,0.05241,214.18354,-0.00201,0.00661,-0.00116,0.02403,0.99027,9.68661,1.42613
09:55:21.838281,9.70563,0.00594,-0.08548,-23.59297,0.48116,233.45544,-0.00293,0.00081,-0.00207,0.02403,0.98545,9.69690,1.41636
09:55:21.848230,9.71560,0.00569,-0.08354,-23.59297,0.19241,221.57429,-0.00125,0.00340,-0.00262,0.02269,0.98704,9.70764,1.41148
09:55:21.858877,9.72625,0.00557,-0.08125,-23.59297,0.48991,234.59653,-0.00247,0.00569,-0.00354,0.01946,0.98692,9.71847,1.40415
