Description :  ; walk_time = 2.0 ; speed_up_time = 3.0 ; balancing_time = 0.0
RealTime,Time,CalculationTime,Roll,SteeringAngle,RollRate,ControlInput,gy,gz,ax,ay,az,imu_read_timing,SteerMotorCurrent
10:26:08.701636,0.01035,0.00980,-0.02043,1.40595,0.12975,0.00000,-0.00213,-0.00057,-0.01739,-0.00067,0.98911,0.00001,0.01221
10:26:08.708771,0.01751,0.00637,-0.03821,1.40595,0.24350,-7.02973,-0.00106,-0.00194,-0.01574,0.00122,0.98735,0.00830,0.01221
10:26:08.719930,0.02867,0.00690,-0.05331,1.39946,0.37475,-6.99730,0.00459,0.00035,-0.01372,0.00152,0.98765,0.01947,0.16117
10:26:08.729308,0.03805,0.00609,-0.07157,1.35892,0.05100,-6.99730,-0.00014,0.00111,-0.01141,0.00183,0.98844,0.02893,0.16850
10:26:08.740188,0.04894,0.00630,-0.08850,1.28919,0.02474,-6.44595,-0.00121,0.00019,-0.00982,0.00329,0.98875,0.03977,0.11966
10:26:08.749070,0.05783,0.00483,-0.10781,1.21297,0.19975,-6.06486,-0.00045,0.00096,-0.01098,-0.00177,0.98905,0.05011,0.09280
10:26:08.762042,0.07009,0.00659,-0.13575,1.12378,0.09475,-5.61892,-0.00213,-0.00011,-0.01336,-0.01098,0.98997,0.06186,0.12943
10:26:08.771339,0.08009,0.00623,-0.15237,1.05405,0.14725,-5.61892,-0.00167,0.00309,-0.00885,0.00134,0.99381,0.07092,0.06349
10:26:08.781454,0.09019,0.00597,-0.17112,0.99243,-0.33401,-4.96216,0.00215,-0.00164,-0.00805,0.00396,0.99174,0.08109,0.14164
10:26:08.791594,0.10035,0.00576,-0.19147,0.94865,-0.01901,-4.74324,0.00169,0.00203,-0.01122,-0.00183,0.98747,0.09165,0.22711
10:26:08.803273,0.11200,0.00704,-0.21238,0.91135,-0.12401,-4.55676,0.00276,-0.00072,-0.01147,-0.00152,0.98838,0.10250,0.40049
10:26:08.812955,0.12101,0.00554,-0.22908,0.86432,-0.27276,-4.55676,0.00062,-0.00347,-0.01214,0.00445,0.98448,0.11235,0.35653
10:26:08.823610,0.13235,0.00667,-0.23980,0.79459,0.05975,-3.97297,-0.00090,-0.00149,-0.01616,0.00726,0.98985,0.12358,0.34432
10:26:08.832903,0.14166,0.00573,-0.25780,0.74270,-0.11526,-3.97297,-0.00045,0.00050,-0.01861,0.00073,0.99125,0.13327,0.32479
10:26:08.842260,0.15102,0.00472,-0.28926,0.69730,-0.24651,-3.48649,0.00215,-0.00408,-0.01555,-0.01354,0.99021,0.14335,0.35409
10:26:08.852630,0.16139,0.00474,-0.31636,0.65514,-0.33401,-3.27568,0.00169,-0.00088,-0.01421,-0.00799,0.98582,0.15351,0.43712
10:26:08.864054,0.17281,0.00580,-0.33078,0.61297,-0.57900,-3.06486,-0.00090,-0.00821,-0.01409,0.00915,0.98735,0.16405,0.29792
10:26:08.875154,0.18303,0.00540,-0.34045,0.57405,-0.40401,-2.87027,0.00108,-0.00729,-0.01494,0.01238,0.98918,0.17477,0.29548
10:26:08.885406,0.19346,0.00563,-0.36386,0.52865,-0.28151,-2.64324,-0.00319,-0.00912,-0.01659,-0.00531,0.99009,0.18481,0.35165
10:26:08.895881,0.20464,0.00644,-0.38227,0.48324,-0.38650,-2.41622,0.00185,-0.00546,-0.01580,0.00152,0.99058,0.19549,0.30525
10:26:08.906238,0.21498,0.00642,-0.39580,0.44432,-0.29901,-2.22162,-0.00151,-0.00576,-0.01318,0.00555,0.99582,0.20542,0.43956
10:26:08.916439,0.22518,0.00627,-0.41930,0.40216,-0.32526,-2.01081,-0.00182,-0.00546,-0.01421,-0.00567,0.99174,0.21603,0.23687
10:26:08.926067,0.23481,0.00568,-0.43785,0.37459,-0.19401,-1.87297,-0.00121,-0.00286,-0.01263,-0.00201,0.98838,0.22628,0.39805
10:26:08.936844,0.24559,0.00599,-0.45539,0.34216,0.04225,-1.71081,-0.00106,0.00203,-0.01592,-0.00390,0.98619,0.23647,0.19048
10:26:08.947760,0.25580,0.00558,-0.46440,0.32108,0.13850,-1.60541,-0.00182,0.00187,-0.01818,0.00439,0.99326,0.24734,0.49817
10:26:08.959007,0.26690,0.00647,-0.47529,0.29351,0.35725,-1.46757,-0.00319,0.00279,-0.01574,-0.00030,0.98966,0.25742,0.38584
10:26:08.968235,0.27699,0.00620,-0.48290,0.26270,0.25224,-1.31351,-0.00029,0.00264,-0.01251,0.00439,0.99302,0.26783,0.35165
10:26:08.978597,0.28714,0.00599,-0.49757,0.24486,0.74225,-1.22432,0.00398,0.00050,-0.01671,-0.00964,0.99046,0.27820,0.32967
10:26:08.988857,0.29761,0.00602,-0.52095,0.23676,0.36600,-1.18378,-0.00121,0.00279,-0.00787,-0.01543,0.98869,0.28847,0.57875
10:26:08.999382,0.30812,0.00617,-0.54023,0.22541,0.37475,-1.12703,-0.00075,0.00004,-0.01092,-0.01135,0.98893,0.29901,0.31013
10:26:09.009553,0.31830,0.00599,-0.53882,0.22054,0.54100,-1.10270,0.00032,0.00233,-0.00848,0.01037,0.98716,0.30916,0.62759
10:26:09.019586,0.32834,0.00566,-0.54533,0.21892,0.44475,-1.09459,-0.00151,0.00157,-0.01690,0.00220,0.98966,0.31975,0.68376
10:26:09.030249,0.33830,0.00540,-0.55955,0.20595,0.60225,-1.02973,-0.00289,-0.00149,-0.01244,-0.00848,0.98838,0.33003,0.58120
10:26:09.041687,0.35043,0.00643,-0.56151,0.19135,0.73350,-0.95676,-0.00213,-0.00027,-0.01006,0.00329,0.98820,0.34098,0.45910
10:26:09.053019,0.36125,0.00689,-0.56165,0.18486,0.74225,-0.92432,-0.00243,-0.00057,-0.00836,0.00506,0.98356,0.35213,0.55678
10:26:09.061932,0.37067,0.00594,-0.56640,0.18162,0.68974,-0.92432,-0.00258,-0.00103,-0.01202,0.00177,0.98942,0.36158,0.49817
10:26:09.073472,0.38168,0.00619,-0.57310,0.17838,0.72474,-0.89189,-0.00090,-0.00332,-0.01147,-0.00213,0.98960,0.37249,0.56899
10:26:09.083362,0.39210,0.00624,-0.57790,0.15405,0.49725,-0.77027,-0.00213,-0.00301,-0.01543,0.00299,0.99320,0.38300,0.55433
10:26:09.094098,0.40226,0.00622,-0.57632,0.12486,0.75100,-0.77027,-0.00106,-0.00225,-0.01336,0.00769,0.99155,0.39298,0.53480
10:26:09.104363,0.41312,0.00645,-0.57980,0.08757,0.76850,-0.43784,-0.00747,-0.00194,-0.01659,0.00079,0.98796,0.40396,0.35165
10:26:09.115395,0.42414,0.00661,-0.58337,0.06649,0.61100,-0.33243,-0.00274,-0.00149,-0.01366,0.00250,0.98649,0.41507,0.64469
10:26:09.124559,0.43331,0.00559,-0.58587,0.05676,0.59349,-0.33243,-0.00106,-0.00042,-0.01677,0.00494,0.98735,0.42462,0.52991
10:26:09.137262,0.44600,0.00793,-0.58587,0.04378,0.39225,-0.21892,-0.00319,-0.00194,-0.02178,0.00903,0.98802,0.43624,0.38828
10:26:09.145631,0.45437,0.00592,-0.59514,0.02757,0.54100,-0.21892,-0.00228,-0.00790,-0.02019,-0.00201,0.99015,0.44530,0.30769
10:26:09.156888,0.46563,0.00682,-0.59333,0.02108,0.42725,-0.10541,-0.00304,-0.00668,-0.01757,0.01104,0.99155,0.45585,0.30769
10:26:09.166995,0.47575,0.00657,-0.59956,0.00973,0.43600,-0.10541,-0.00182,-0.00790,-0.01653,0.00177,0.99198,0.46627,0.54457
10:26:09.176874,0.48561,0.00602,-0.60499,-0.00486,0.54100,0.02432,0.00139,-0.00408,-0.01476,0.00146,0.99229,0.47647,0.23932
10:26:09.187946,0.49670,0.00648,-0.61033,-0.01459,0.58475,0.07297,0.00108,-0.00332,-0.01348,0.00037,0.98820,0.48757,0.36630
10:26:09.197841,0.50591,0.00532,-0.60966,-0.02108,0.53225,0.10541,-0.00579,0.00080,-0.01202,0.00860,0.98954,0.49745,0.37363
10:26:09.208500,0.51725,0.00630,-0.61086,-0.02108,0.68100,0.10541,-0.00243,0.00294,-0.01257,0.00427,0.98832,0.50800,0.34921
10:26:09.218720,0.52746,0.00614,-0.61549,-0.02108,0.79475,0.10541,-0.00258,0.00432,-0.01446,-0.00092,0.98918,0.51839,0.40293
10:26:09.229758,0.53851,0.00620,-0.61061,-0.02270,0.66350,0.11351,-0.00060,0.00447,-0.01202,0.01055,0.99094,0.53005,0.34921
10:26:09.242445,0.55034,0.00781,-0.60852,-0.02595,0.75975,0.12973,-0.00075,0.00615,-0.01226,0.00659,0.98863,0.54120,0.46398
10:26:09.251056,0.55978,0.00705,-0.61240,-0.02919,0.55849,0.12973,-0.00564,0.00096,-0.00872,0.00390,0.99070,0.54981,0.40537
10:26:09.260449,0.56920,0.00628,-0.61984,-0.02919,0.68100,0.14595,-0.00533,0.00264,-0.00988,-0.00268,0.99003,0.56001,0.44200
10:26:09.271564,0.58003,0.00675,-0.62029,-0.02919,0.38350,0.14595,-0.00151,0.00187,-0.01135,0.00860,0.98948,0.57036,0.45177
10:26:09.280885,0.58963,0.00602,-0.62677,-0.02919,0.19100,0.14595,-0.00090,0.00187,-0.01318,0.00396,0.99052,0.58050,0.47863
10:26:09.291643,0.59949,0.00551,-0.63282,-0.02919,0.32225,0.14595,-0.00075,0.00126,-0.01202,0.00268,0.98948,0.59102,0.45177
10:26:09.301592,0.61033,0.00599,-0.64179,-0.02919,-0.15026,0.14595,-0.00228,0.00172,-0.01257,0.00482,0.99168,0.60120,0.66667
10:26:09.312974,0.62104,0.00615,-0.65054,-0.04378,0.05100,0.21892,0.00261,0.00065,-0.01342,0.00250,0.98649,0.61259,0.34921
10:26:09.322895,0.63164,0.00623,-0.65483,-0.04865,-0.01901,0.21892,0.00032,-0.00225,-0.01366,0.00836,0.98838,0.62259,0.42979
10:26:09.333495,0.64225,0.00663,-0.66320,-0.04865,0.00725,0.24324,0.00337,-0.00347,-0.01543,0.00329,0.98997,0.63381,0.46154
10:26:09.345255,0.65400,0.00775,-0.67243,-0.05676,-0.08901,0.24324,-0.00381,-0.00301,-0.01519,0.00323,0.98771,0.64371,0.37607
10:26:09.353874,0.66261,0.00600,-0.67917,-0.06324,-0.14151,0.31622,0.00230,-0.00515,-0.01470,0.00653,0.99040,0.65348,0.66422
10:26:09.364437,0.67319,0.00621,-0.68430,-0.07622,-0.23776,0.38108,0.00185,-0.00256,-0.01397,0.00952,0.98826,0.66403,0.31258
10:26:09.373895,0.68265,0.00532,-0.69082,-0.07622,-0.20276,0.38108,-0.00075,-0.00057,-0.01366,0.00738,0.98808,0.67440,0.38095
10:26:09.385226,0.69397,0.00606,-0.70395,-0.07946,-0.01901,0.39730,-0.00029,0.00065,-0.01751,-0.00250,0.98741,0.68485,0.50794
10:26:09.396097,0.70485,0.00658,-0.71179,-0.08595,-0.29901,0.42973,-0.00213,0.00279,-0.01610,0.00677,0.98832,0.69556,0.32234
10:26:09.405192,0.71395,0.00532,-0.71532,-0.08595,-0.17650,0.42973,0.00215,0.00248,-0.01757,0.00994,0.98844,0.70549,0.46154
10:26:09.417140,0.72562,0.00678,-0.72436,-0.08595,-0.29026,0.42973,0.00108,0.00386,-0.01391,0.00500,0.98716,0.71598,0.40049
10:26:09.426610,0.73517,0.00597,-0.73842,-0.08595,-0.33401,0.42973,0.00230,0.00141,-0.01391,-0.00049,0.98783,0.72624,0.42491
10:26:09.436773,0.74553,0.00565,-0.74890,-0.08595,-0.39526,0.42973,0.00276,0.00355,-0.01385,0.00433,0.98869,0.73703,0.40049
10:26:09.448127,0.75688,0.00631,-0.75915,-0.08595,-0.20276,0.42973,-0.00274,0.00264,-0.00970,0.00207,0.99216,0.74777,0.44689
10:26:09.459313,0.76804,0.00684,-0.76966,-0.08595,-0.49151,0.42973,0.00017,0.00294,-0.01086,0.00537,0.99027,0.75899,0.47131
10:26:09.469913,0.77865,0.00698,-0.77802,-0.08595,-0.20276,0.42973,0.00047,0.00264,-0.01068,0.00360,0.98789,0.76855,0.50549
10:26:09.479418,0.78816,0.00613,-0.78837,-0.08919,-0.29026,0.44595,-0.00167,0.00019,-0.01318,0.00244,0.99119,0.77908,0.55922
10:26:09.490180,0.79841,0.00619,-0.79851,-0.09243,-0.48276,0.46216,-0.00106,0.00218,-0.01220,0.00458,0.99131,0.78920,0.49328
10:26:09.500039,0.80879,0.00620,-0.80883,-0.09243,-0.21151,0.46216,-0.00045,0.00141,-0.01153,0.00116,0.99125,0.79964,0.49817
10:26:09.511135,0.81903,0.00608,-0.82301,-0.09243,-0.25526,0.46216,0.00093,0.00004,-0.01013,-0.00275,0.99155,0.81080,0.53724
10:26:09.521520,0.83026,0.00680,-0.84148,-0.09405,-0.36901,0.47027,0.00185,-0.00149,-0.00695,-0.00683,0.98869,0.82111,0.49817
10:26:09.531177,0.83991,0.00609,-0.84942,-0.09405,-0.34276,0.47027,0.00123,-0.00622,-0.00994,0.00445,0.99070,0.83088,0.53480
10:26:09.541014,0.84977,0.00544,-0.85779,-0.09568,-0.49151,0.47838,-0.00258,-0.00332,-0.01281,0.00586,0.99192,0.84133,0.49084
10:26:09.553009,0.86176,0.00707,-0.86852,-0.09568,-0.42151,0.47838,-0.00197,-0.00118,-0.01409,0.00213,0.99180,0.85176,0.52503
10:26:09.563290,0.87105,0.00600,-0.88166,-0.09892,-0.53525,0.49459,0.00154,-0.00179,-0.01458,0.00049,0.98875,0.86212,0.53968
10:26:09.573290,0.88153,0.00599,-0.89289,-0.10865,-0.17650,0.54324,0.00169,-0.00088,-0.01751,-0.00177,0.98509,0.87240,0.48596
10:26:09.583331,0.89207,0.00617,-0.89971,-0.11189,-0.23776,0.55946,-0.00121,0.00187,-0.01519,0.00390,0.98985,0.88298,0.45910
10:26:09.594733,0.90305,0.00679,-0.90699,-0.11189,-0.22026,0.55946,-0.00182,-0.00179,-0.01610,0.00293,0.98771,0.89310,0.52015
10:26:09.604326,0.91306,0.00645,-0.91297,-0.11189,-0.35151,0.55946,0.00108,0.00309,-0.01629,0.00610,0.99003,0.90392,0.40293
10:26:09.614957,0.92369,0.00685,-0.91806,-0.11189,-0.21151,0.55946,0.00123,0.00111,-0.01690,0.00518,0.98893,0.91459,0.43223
10:26:09.625048,0.93379,0.00642,-0.92275,-0.11189,-0.22026,0.55946,-0.00045,-0.00164,-0.01665,0.00549,0.98887,0.92427,0.45421
10:26:09.635247,0.94399,0.00626,-0.93266,-0.11189,-0.17650,0.55946,0.00001,0.00080,-0.01543,-0.00092,0.99046,0.93481,0.46398
10:26:09.645944,0.95467,0.00648,-0.94257,-0.11189,-0.14151,0.55946,0.00047,0.00004,-0.01421,-0.00152,0.98814,0.94517,0.41270
10:26:09.655301,0.96406,0.00551,-0.94889,-0.11189,-0.02776,0.55946,0.00078,-0.00027,-0.01665,0.00110,0.98820,0.95562,0.46642
10:26:09.667370,0.97607,0.00655,-0.95645,-0.11189,-0.23776,0.55946,-0.00029,0.00157,-0.01434,0.00213,0.98918,0.96641,0.50549
10:26:09.677496,0.98625,0.00624,-0.96478,-0.11189,-0.35151,0.55946,-0.00136,-0.00210,-0.01476,0.00244,0.98991,0.97699,0.48840
10:26:09.687811,0.99656,0.00619,-0.96937,-0.11189,-0.21151,0.55946,0.00169,-0.00042,-0.01281,0.00488,0.98887,0.98744,0.50305
10:26:09.699534,1.00775,0.00701,-0.97779,-0.11351,-0.35151,100.56757,0.00307,0.00187,-0.01086,0.00232,0.98509,0.99859,0.49084
10:26:09.708529,1.01728,0.00618,-0.99964,0.01946,-0.33401,100.56757,-0.00106,-0.00210,-0.00848,-0.01403,0.98521,1.00815,0.00000
10:26:09.719015,1.02685,0.00537,-1.05402,0.91135,-0.49151,95.44324,-0.00075,-0.00439,-0.03215,-0.04984,0.99009,1.01854,0.12698
10:26:09.729097,1.03785,0.00617,-1.19873,1.77081,0.53225,91.14595,0.00139,-0.01935,-0.02922,-0.17592,1.03541,1.02857,0.00000
10:26:09.740362,1.04912,0.00708,-1.31028,2.61730,0.26100,86.91351,0.00368,-0.02516,-0.04075,-0.12859,0.98674,1.04011,0.00000
10:26:09.752115,1.06087,0.00847,-1.24864,3.52216,-0.33401,82.38919,-0.00136,-0.03600,0.04056,0.08028,1.03371,1.05073,0.00000
10:26:09.760090,1.06882,0.00625,-1.20737,4.35730,1.05725,82.38919,0.00139,-0.03111,0.01665,0.03947,0.98686,1.05968,0.00000
10:26:09.770867,1.07959,0.00667,-1.07185,5.17135,1.20600,74.14324,-0.01114,-0.01096,0.01702,0.14591,0.99064,1.07051,0.00000
10:26:09.782006,1.09017,0.00672,-1.04104,6.07297,1.67850,69.63514,-0.00854,0.00615,0.00085,0.02105,0.98472,1.08109,0.00000
10:26:09.791252,1.09999,0.00619,-0.99162,6.77838,2.09850,69.63514,-0.00442,0.03562,-0.02611,0.04056,1.00351,1.09088,0.00000
10:26:09.801680,1.11041,0.00641,-0.87103,7.49838,3.12224,62.50811,-0.00625,0.06250,0.00866,0.11017,0.98137,1.10089,0.00000
10:26:09.812279,1.12102,0.00666,-0.78912,8.21189,4.02350,58.94054,-0.00442,0.08037,-0.02769,0.05423,0.96368,1.11141,0.00000
10:26:09.821937,1.13069,0.00597,-0.73128,8.84757,4.27725,55.76216,-0.00304,0.09747,-0.03867,0.02800,0.98869,1.12157,0.00000
10:26:09.832594,1.14135,0.00626,-0.66298,9.48324,4.88975,52.58378,-0.00579,0.11168,-0.02294,0.03148,0.97405,1.13210,0.00000
10:26:09.842737,1.15148,0.00604,-0.56773,10.06703,5.70350,49.66486,-0.00060,0.12298,-0.03642,0.05624,0.98972,1.14237,0.00000
10:26:09.852449,1.16121,0.00557,-0.50597,10.63297,5.76475,46.83514,-0.00304,0.12863,-0.05344,0.01824,1.00339,1.15273,0.00000
10:26:09.863840,1.17257,0.00657,-0.49165,11.17297,5.55475,44.13514,-0.00442,0.12756,-0.05490,-0.03306,0.99216,1.16306,0.00000
10:26:09.874067,1.18281,0.00644,-0.39958,11.71135,4.25975,41.44324,-0.00182,0.12542,-0.06368,0.07344,0.99729,1.17322,0.07570
10:26:09.884271,1.19302,0.00630,-0.36533,12.23027,4.22475,38.84865,-0.00396,0.11672,-0.01257,0.00628,0.98509,1.18378,0.25885
10:26:09.894793,1.20354,0.00646,-0.30100,12.69730,3.19225,36.51351,-0.00319,0.10786,-0.06625,0.05490,0.99448,1.19415,0.40049
10:26:09.905258,1.21399,0.00642,-0.21800,13.14000,2.35224,34.30000,-0.00701,0.09992,-0.05002,0.08680,0.98210,1.20445,0.56410
10:26:09.915444,1.22419,0.00625,-0.15245,13.53730,1.60850,32.31351,-0.00106,0.09885,-0.06698,0.07643,0.98277,1.21500,0.55922
10:26:09.924995,1.23375,0.00563,-0.16117,13.90216,0.91725,30.48919,0.00261,0.08800,-0.06155,0.00092,0.97289,1.22530,0.77656
10:26:09.935889,1.24464,0.00629,-0.16997,14.23946,-0.42151,28.80270,0.00627,0.07747,-0.03343,0.01586,0.96368,1.23550,0.94505
10:26:09.946098,1.25485,0.00614,-0.16100,14.54595,-1.35776,27.27027,0.00902,0.07655,-0.01165,0.04679,0.97978,1.24556,1.07692
10:26:09.958850,1.26676,0.00768,-0.20444,14.87514,-2.11901,25.62432,0.00826,0.06754,-0.00823,-0.00049,1.00009,1.25722,1.68498
10:26:09.966728,1.27547,0.00604,-0.24042,15.12973,-3.17776,25.62432,0.00612,0.06800,-0.01269,0.01263,1.00546,1.26640,1.25275
10:26:09.976312,1.28507,0.00542,-0.30452,15.39081,-4.63901,23.04595,0.00994,0.05685,0.01952,-0.00037,0.99204,1.27653,1.18193
10:26:09.988765,1.29750,0.00690,-0.38872,15.67459,-5.31276,21.62703,0.00826,0.04173,0.03355,-0.00647,0.98570,1.28838,1.50183
10:26:09.999344,1.30808,0.00712,-0.47922,15.87730,-6.05651,20.61351,0.00291,0.02600,0.03855,-0.01421,0.98850,1.29892,0.60317
10:26:10.009171,1.31743,0.00597,-0.56654,16.09459,-6.93151,20.61351,0.00353,0.00584,0.04252,-0.01068,0.99198,1.30832,1.23077
10:26:10.019332,1.32807,0.00620,-0.70185,16.27297,-7.84151,18.63514,0.01131,-0.01309,0.01049,-0.04679,0.99143,1.31896,0.51038
10:26:10.030464,1.33900,0.00677,-0.84460,16.47892,-9.25026,17.60541,0.01559,-0.03020,0.05350,-0.03483,0.97795,1.33011,0.71551
10:26:10.040034,1.34878,0.00618,-0.88166,16.62811,-9.48651,17.60541,0.01284,-0.03875,0.06966,0.06966,0.98649,1.33966,0.21978
10:26:10.051326,1.36006,0.00670,-0.95128,16.77405,-8.48901,16.12973,0.00780,-0.04669,0.06289,0.03831,1.00918,1.35095,0.01465
10:26:10.061671,1.37041,0.00681,-1.07648,16.90703,-7.95526,15.46486,0.01345,-0.04623,0.02641,-0.04398,1.00912,1.36128,0.00733
10:26:10.072511,1.38101,0.00703,-1.23155,17.02865,-7.92026,15.46486,0.01223,-0.03524,0.03087,-0.08668,1.00418,1.37104,0.00000
10:26:10.080892,1.38965,0.00532,-1.31543,17.16324,-8.11276,14.18378,0.01437,-0.01416,0.02159,-0.00012,0.99216,1.38120,0.00488
10:26:10.092198,1.40095,0.00626,-1.36819,17.30919,-6.73026,13.45405,0.00612,0.01027,0.01074,0.02135,0.98722,1.39176,0.00244
10:26:10.102575,1.41107,0.00602,-1.46279,17.44865,-5.84651,12.75676,0.00673,0.03013,-0.01745,-0.03934,0.98356,1.40212,0.00244
10:26:10.112877,1.42163,0.00608,-1.53784,17.58324,-5.90775,12.08378,0.01208,0.04127,-0.02843,-0.01854,1.00119,1.41243,0.00244
10:26:10.123363,1.43212,0.00621,-1.57716,17.70811,-5.53151,11.45946,0.00856,0.04295,-0.05039,0.02056,0.98594,1.42329,0.00000
10:26:10.133771,1.44252,0.00612,-1.61483,17.82649,-5.05900,10.86757,0.00750,0.03394,-0.04544,0.01135,0.97978,1.43336,0.00488
10:26:10.144657,1.45340,0.00663,-1.68157,17.93351,-4.84901,10.33243,0.00841,0.02188,-0.08217,-0.02263,0.97502,1.44381,0.00488
10:26:10.154972,1.46372,0.00673,-1.75549,18.03081,-4.97151,9.84595,0.01009,0.01119,-0.08571,-0.02617,0.97637,1.45505,0.00000
10:26:10.164657,1.47271,0.00536,-1.81297,18.12162,-4.85776,9.84595,0.00521,-0.00805,-0.10211,-0.02117,0.98179,1.46428,0.00488
10:26:10.175201,1.48394,0.00623,-1.89026,18.21568,-4.84025,8.92162,0.01147,-0.00973,-0.08906,-0.03855,0.99216,1.47477,0.00733
10:26:10.185154,1.49390,0.00599,-1.94966,18.30973,-4.70026,8.45135,0.00780,-0.01126,-0.08900,-0.02324,0.98521,1.48479,0.03175
10:26:10.195959,1.50471,0.00644,-1.97727,18.42162,-4.21901,7.89189,0.00841,-0.00042,-0.06442,0.00927,0.99113,1.49533,0.21490
10:26:10.205877,1.51461,0.00614,-1.97362,18.53838,-3.71150,7.30811,0.00276,0.01623,-0.06698,0.03727,0.99503,1.50547,0.37118
10:26:10.216768,1.52551,0.00668,-2.03593,18.64216,-3.02026,6.78919,0.00734,0.03226,-0.05685,-0.04581,0.98808,1.51589,0.41514
10:26:10.225779,1.53454,0.00534,-2.07784,18.71189,-3.13401,6.44054,0.00704,0.04891,-0.04618,-0.02196,0.97606,1.52626,0.32479
10:26:10.237492,1.54624,0.00659,-2.07715,18.78000,-2.66151,6.10000,0.00276,0.05563,-0.01653,0.02001,0.97600,1.53655,0.21978
10:26:10.247426,1.55617,0.00616,-2.10119,18.85946,-2.38151,5.70270,0.00459,0.04708,-0.01677,-0.01080,0.98387,1.54706,0.52503
10:26:10.257792,1.56655,0.00616,-2.19399,18.90000,-2.45151,5.50000,0.00429,0.03226,0.00525,-0.08833,0.98759,1.55805,0.24420
10:26:10.269202,1.57794,0.00718,-2.27240,18.92757,-2.97651,5.36216,0.00750,0.01516,0.02056,-0.06893,0.99589,1.56856,0.20269
10:26:10.279293,1.58803,0.00691,-2.28354,18.96649,-3.02026,5.16757,0.00933,-0.00256,0.04416,0.00799,1.00095,1.57897,0.21001
10:26:10.289905,1.59865,0.00705,-2.32806,19.01351,-2.64401,4.93243,0.00704,-0.01432,0.04081,-0.03544,1.00833,1.58952,0.29060
10:26:10.299621,1.60838,0.00642,-2.41571,19.05892,-2.62651,4.93243,0.00414,-0.01493,0.04502,-0.08930,1.00382,1.59926,0.29304
10:26:10.309477,1.61822,0.00606,-2.47400,19.10919,-2.88901,4.45405,-0.00075,-0.01248,0.04532,-0.05283,1.00107,1.60914,0.29060
10:26:10.320696,1.62944,0.00634,-2.47550,19.17081,-2.17151,4.14595,0.00017,-0.00592,0.04605,0.00726,0.99570,1.62025,0.37363
10:26:10.330062,1.63882,0.00534,-2.49454,19.22108,-1.42776,3.89459,0.00368,0.00080,0.03867,-0.02367,0.98802,1.63054,0.39560
10:26:10.341006,1.64975,0.00607,-2.55088,19.24541,-1.30526,3.77297,0.00795,0.00416,0.02605,-0.06820,0.97935,1.64056,0.26374
10:26:10.351962,1.66071,0.00630,-2.58444,19.25189,-1.11275,3.74054,0.00566,0.01241,0.00897,-0.04410,0.97844,1.65149,0.13187
10:26:10.362480,1.67102,0.00614,-2.60086,19.26162,-1.01650,3.69189,0.00658,0.00737,0.00360,-0.02690,0.98423,1.66206,0.15873
10:26:10.373093,1.68185,0.00587,-2.61561,19.27784,-0.75401,3.61081,0.00627,0.00691,0.00220,-0.02800,0.98875,1.67325,0.16117
10:26:10.385072,1.69297,0.00634,-2.63222,19.29405,-0.50901,3.52973,-0.00197,-0.00500,-0.02233,-0.03422,0.99948,1.68383,0.06349
10:26:10.394643,1.70337,0.00639,-2.65212,19.31189,-0.07150,3.44054,0.00230,-0.00958,-0.03764,-0.04374,1.00070,1.69407,0.13675
10:26:10.404754,1.71350,0.00602,-2.68142,19.33135,-0.01026,3.34324,-0.00090,-0.01584,-0.05386,-0.05557,0.99723,1.70435,0.19048
10:26:10.414643,1.72339,0.00554,-2.69491,19.35405,0.03350,3.22973,-0.00472,-0.01722,-0.06350,-0.03788,0.98789,1.71490,0.20024
10:26:10.425565,1.73431,0.00627,-2.69009,19.37189,0.42725,3.14054,-0.00274,-0.01493,-0.06130,-0.02135,0.97856,1.72506,0.08059
10:26:10.436525,1.74528,0.00649,-2.68066,19.39135,1.00474,3.04324,-0.00167,-0.00989,-0.07729,-0.02348,0.97722,1.73604,0.13919
10:26:10.447671,1.75642,0.00667,-2.66646,19.41243,1.24975,2.93784,-0.00197,-0.00653,-0.07125,-0.02129,0.97600,1.74730,0.14164
10:26:10.458129,1.76689,0.00694,-2.64524,19.42865,1.52100,2.85676,0.00230,-0.00424,-0.07973,-0.01568,0.98411,1.75802,0.13187
10:26:10.469626,1.77836,0.00805,-2.61148,19.44000,1.93225,2.80000,-0.00151,0.00141,-0.05807,-0.00610,0.98259,1.76882,0.02198
10:26:10.477901,1.78595,0.00529,-2.59041,19.44811,2.07224,2.80000,-0.00274,0.00141,-0.05661,-0.01690,0.98661,1.77752,0.09524
10:26:10.488564,1.79732,0.00628,-2.58073,19.45459,2.47475,2.72703,-0.00213,0.00203,-0.04252,-0.03880,0.98606,1.78809,0.04151
10:26:10.500658,1.80939,0.00726,-2.56004,19.46432,2.32599,2.67838,-0.00213,0.00309,-0.03361,-0.02794,0.99094,1.80003,0.01465
10:26:10.508818,1.81757,0.00602,-2.54234,19.47405,2.26475,2.67838,-0.00426,0.00004,-0.01982,-0.02117,0.98966,1.80846,0.04884
10:26:10.519406,1.82815,0.00639,-2.51962,19.48541,2.41350,2.57297,-0.00029,0.00035,-0.00817,-0.02245,0.99223,1.81905,0.08303
10:26:10.529297,1.83804,0.00611,-2.49631,19.50000,2.61475,2.57297,-0.00518,0.00141,-0.00043,-0.02159,0.99210,1.82890,0.09035
10:26:10.540508,1.84926,0.00619,-2.46019,19.51946,2.67599,2.40270,-0.00579,0.00340,0.00866,-0.01122,0.99101,1.84011,0.17338
10:26:10.551356,1.86010,0.00632,-2.43050,19.53081,2.61475,2.34595,-0.00243,0.00279,0.01305,-0.01623,0.99363,1.85097,0.07326
10:26:10.561949,1.87070,0.00673,-2.40630,19.53730,2.17725,2.31351,-0.00197,0.00325,0.02281,-0.01818,0.98985,1.86247,0.13187
10:26:10.573089,1.88184,0.00686,-2.38386,19.54703,2.06350,2.26486,-0.00197,0.00309,0.02757,-0.01690,0.98820,1.87338,0.14896
10:26:10.582707,1.89145,0.00610,-2.35923,19.55189,1.99350,2.26486,0.00322,0.00798,0.02568,-0.00885,0.98875,1.88239,0.16117
10:26:10.593600,1.90233,0.00672,-2.34081,19.55514,1.64350,2.22432,-0.00167,-0.00133,0.03160,-0.01403,0.98966,1.89250,0.13675
10:26:10.603352,1.91209,0.00611,-2.33013,19.55676,1.33725,2.22432,-0.00396,-0.00057,0.01403,-0.01982,0.99223,1.90303,0.19048
10:26:10.613600,1.92235,0.00601,-2.31253,19.56162,1.14475,2.19189,-0.00655,-0.00576,0.01531,-0.00885,0.99046,1.91319,0.08547
10:26:10.624585,1.93331,0.00661,-2.29469,19.56973,0.93475,2.15135,-0.00381,-0.00546,-0.00518,-0.00628,0.99192,1.92375,0.04151
10:26:10.633640,1.94240,0.00534,-2.29107,19.57784,0.94350,2.11081,0.00032,-0.00622,0.00116,-0.02214,0.98667,1.93411,0.08547
10:26:10.645456,1.95420,0.00668,-2.28834,19.58432,0.73350,2.07838,-0.00228,-0.00836,-0.01080,-0.02117,0.98527,1.94512,0.09035
10:26:10.656115,1.96487,0.00700,-2.27568,19.58919,0.48849,2.05405,-0.00136,-0.00744,-0.01110,-0.00647,0.98570,1.95572,0.03663
10:26:10.665867,1.97462,0.00613,-2.25928,19.59405,0.54100,2.02973,-0.00136,-0.00653,-0.02843,-0.00262,0.99119,1.96637,0.07570
10:26:10.677319,1.98558,0.00641,-2.25660,19.59568,0.19100,2.02973,-0.00228,-0.00592,-0.03904,-0.01385,0.99625,1.97625,0.02198
10:26:10.687833,1.99579,0.00626,-2.25250,19.59892,0.32225,2.00541,-0.00090,-0.00500,-0.04709,-0.01366,0.98649,1.98659,0.01465
10:26:10.697235,2.00599,0.00627,-2.24123,19.60378,0.08600,1.98108,-0.00243,-0.00210,-0.04849,-0.00256,0.98631,1.99661,0.02198
10:26:10.707505,2.01626,0.00617,-2.22816,19.61027,0.05100,1.94865,0.00230,0.00096,-0.04612,0.00006,0.97630,2.00714,0.03419
10:26:10.718075,2.02683,0.00648,-2.22109,19.61351,0.19100,1.93243,-0.00228,0.00218,-0.05264,-0.00817,0.98521,2.01726,0.02930
10:26:10.728497,2.03725,0.00654,-2.21680,19.62000,0.11225,1.90000,-0.00045,0.00554,-0.05594,-0.01037,0.98344,2.02777,0.02198
10:26:10.737657,2.04642,0.00535,-2.21479,19.62649,-0.06276,1.86757,-0.00029,0.00416,-0.05496,-0.01092,0.99040,2.03812,0.06349
10:26:10.749878,2.05862,0.00671,-2.20784,19.63135,0.04225,1.84324,0.00230,0.00600,-0.04276,-0.00647,0.98881,2.04952,0.07082
10:26:10.760369,2.06911,0.00635,-2.19932,19.63622,0.10350,1.81892,-0.00075,0.00371,-0.03324,-0.00518,0.98375,2.05994,0.05861
10:26:10.769881,2.07863,0.00565,-2.19539,19.64270,0.26100,1.78649,-0.00365,0.00554,-0.02440,-0.01214,0.98942,2.07013,0.06838
10:26:10.781629,2.09038,0.00691,-2.19655,19.65243,0.16475,1.73784,-0.00778,0.00844,-0.02001,-0.01714,0.98814,2.08212,0.03663
10:26:10.792873,2.10077,0.00694,-2.19956,19.65892,0.12100,1.73784,-0.00167,0.00309,-0.01714,-0.01848,0.99424,2.09170,0.08547
10:26:10.801356,2.11011,0.00608,-2.19688,19.66541,0.27849,1.67297,-0.00243,0.00676,0.00030,-0.01366,0.99027,2.10146,0.04640
10:26:10.812576,2.12133,0.00622,-2.19696,19.67351,0.23475,1.63243,0.00276,0.00844,0.00366,-0.01659,0.99107,2.11217,0.07082
10:26:10.823285,2.13116,0.00536,-2.20453,19.68162,-0.12401,1.59189,0.00139,0.00600,0.01141,-0.02080,0.98832,2.12288,0.14408
10:26:10.833418,2.14216,0.00600,-2.20753,19.68486,-0.08901,1.57568,-0.00304,0.00248,0.01049,-0.01616,0.98875,2.13302,0.10501
10:26:10.844010,2.15203,0.00551,-2.20867,19.68973,-0.00151,1.55135,0.00047,0.00325,0.01165,-0.01513,0.99137,2.14359,0.11966
10:26:10.854212,2.16226,0.00537,-2.22067,19.69459,-0.35151,1.52703,0.00001,0.00569,0.00866,-0.02361,0.99406,2.15397,0.17094
10:26:10.865613,2.17436,0.00695,-2.22853,19.70108,0.05975,1.49459,0.00047,0.00493,0.01013,-0.02391,0.99296,2.16500,0.31746
10:26:10.875260,2.18400,0.00623,-2.23602,19.70108,-0.08901,1.49459,-0.00274,0.00141,0.01049,-0.02184,0.99174,2.17491,0.30525
10:26:10.885670,2.19441,0.00645,-2.24115,19.70108,-0.22026,1.49459,-0.00075,0.00065,0.00549,-0.01775,0.99570,2.18517,0.35165
10:26:10.896793,2.20554,0.00722,-2.24272,19.70108,-0.29901,1.49459,-0.00029,-0.00210,0.00189,-0.01244,0.98796,2.19614,0.38828
10:26:10.906041,2.21480,0.00612,-2.24761,19.70108,-0.12401,1.49459,-0.00197,-0.00393,-0.00909,-0.01861,0.99027,2.20643,0.25397
10:26:10.916708,2.22545,0.00596,-2.25519,19.70108,-0.17650,1.49459,0.00047,-0.00332,-0.01214,-0.02111,0.98356,2.21637,0.27595
10:26:10.927267,2.23601,0.00616,-2.25863,19.70108,-0.25526,1.49459,0.00017,-0.00439,-0.01800,-0.01549,0.98710,2.22692,0.25153
10:26:10.937971,2.24619,0.00599,-2.26143,19.70108,-0.34276,1.49459,-0.00136,-0.00698,-0.02184,-0.01391,0.98533,2.23708,0.18315
10:26:10.948356,2.25711,0.00647,-2.26749,19.70270,0.06850,1.48649,0.00001,-0.00592,-0.03141,-0.02251,0.98747,2.24792,0.12210
10:26:10.959517,2.26827,0.00727,-2.27352,19.70270,0.01600,1.48649,0.00093,-0.00317,-0.03532,-0.02202,0.99119,2.25918,0.10501
10:26:10.969192,2.27793,0.00643,-2.27677,19.70270,-0.18526,1.48649,0.00017,-0.00469,-0.03471,-0.01665,0.98430,2.26839,0.01465
10:26:10.980258,2.28901,0.00715,-2.26638,19.70595,0.01600,1.47027,0.00032,-0.00133,-0.04050,-0.00323,0.98814,2.27972,0.03907
10:26:10.989413,2.29815,0.00593,-2.26157,19.70757,-0.03651,1.47027,-0.00121,-0.00088,-0.03776,-0.00885,0.98381,2.28908,0.01709
10:26:11.001132,2.30961,0.00702,-2.25696,19.71081,0.24350,1.44595,-0.00167,0.00325,-0.04337,-0.01238,0.98747,2.29987,0.08547
10:26:11.011514,2.31982,0.00688,-2.25379,19.71405,0.32225,1.42973,0.00017,0.00248,-0.04087,-0.01470,0.98771,2.31008,0.03419
10:26:11.020708,2.32946,0.00602,-2.25286,19.71730,0.46225,1.41351,-0.00121,0.00966,-0.03983,-0.01885,0.98722,2.32032,0.07082
10:26:11.031933,2.34067,0.00686,-2.25971,19.72054,0.23475,1.39730,-0.00151,0.00661,-0.03135,-0.02532,0.98844,2.33109,0.01954
10:26:11.041249,2.34998,0.00597,-2.25413,19.72378,0.38350,1.39730,0.00154,0.00859,-0.02306,-0.01251,0.98728,2.34089,0.02198
10:26:11.051132,2.35989,0.00551,-2.24317,19.72865,0.68974,1.35676,-0.00365,0.00325,-0.02001,-0.01025,0.99216,2.35143,0.08547
10:26:11.062791,2.37154,0.00682,-2.23716,19.73838,0.65475,1.30811,0.00017,0.00386,-0.01537,-0.01501,0.98814,2.36157,0.18559
10:26:11.073166,2.38192,0.00684,-2.23379,19.74324,0.66350,1.28378,-0.00060,0.00279,-0.01257,-0.01891,0.98930,2.37285,0.13675
10:26:11.084301,2.39305,0.00763,-2.22790,19.74324,0.81225,1.28378,-0.00213,0.00233,-0.00305,-0.01763,0.98588,2.38395,0.19536
10:26:11.092869,2.40161,0.00599,-2.23100,19.74324,0.50600,1.28378,-0.00258,0.00111,0.00183,-0.02263,0.98985,2.39250,0.14164
10:26:11.103666,2.41171,0.00589,-2.23335,19.74973,0.80350,1.25135,-0.00106,0.00172,0.00299,-0.02653,0.99033,2.40303,0.12943
10:26:11.114200,2.42295,0.00676,-2.23040,19.74973,0.79475,1.25135,-0.00060,0.00065,0.00634,-0.02074,0.98857,2.41403,0.22711
10:26:11.123992,2.43275,0.00621,-2.22232,19.74973,0.55849,1.25135,0.00108,-0.00225,0.00610,-0.01098,0.99210,2.42360,0.30281
10:26:11.134176,2.44292,0.00602,-2.21404,19.74973,0.40975,1.25135,-0.00167,-0.00103,0.00781,-0.00933,0.98905,2.43397,0.15873
10:26:11.144669,2.45341,0.00600,-2.21594,19.75135,0.56724,1.24324,-0.00304,-0.00286,0.00183,-0.02281,0.99314,2.44429,0.18559
10:26:11.155037,2.46379,0.00618,-2.21660,19.75297,0.47100,1.23514,0.00108,-0.00194,0.00037,-0.02062,0.98985,2.45534,0.12210
10:26:11.165961,2.47470,0.00602,-2.21039,19.75784,0.48849,1.21081,-0.00045,-0.00286,-0.00207,-0.01251,0.99302,2.46555,0.13187
10:26:11.176891,2.48564,0.00659,-2.20239,19.76108,0.58475,1.19459,-0.00258,-0.00592,-0.00458,-0.01202,0.99040,2.47668,0.12943
10:26:11.187527,2.49628,0.00682,-2.20201,19.76270,0.45349,1.18649,-0.00151,-0.00194,-0.01299,-0.01867,0.98875,2.48719,0.08303
10:26:11.197144,2.50588,0.00622,-2.19778,19.76432,0.33975,1.18649,-0.00426,-0.00240,-0.02123,-0.01244,0.98960,2.49657,0.13675
10:26:11.207442,2.51619,0.00617,-2.18642,19.76432,0.64600,1.17838,-0.00045,-0.00164,-0.02550,-0.00823,0.98826,2.50708,0.01709
10:26:11.217300,2.52606,0.00534,-2.17259,19.76757,0.65475,1.16216,0.00093,-0.00240,-0.03038,-0.00531,0.99064,2.51757,0.07082
10:26:11.228611,2.53734,0.00640,-2.16792,19.77081,0.47100,1.14595,0.00047,-0.00133,-0.03367,-0.01342,0.98332,2.52822,0.05128
10:26:11.239602,2.54835,0.00706,-2.16475,19.77405,0.42725,1.12973,0.00108,-0.00057,-0.04154,-0.01434,0.98722,2.53835,0.10745
10:26:11.248189,2.55694,0.00533,-2.15811,19.77405,0.68974,1.12973,-0.00167,-0.00118,-0.03983,-0.01330,0.98545,2.54849,0.02442
10:26:11.259370,2.56813,0.00620,-2.14947,19.77405,0.26975,1.12973,-0.00060,0.00157,-0.04069,-0.00622,0.98631,2.55911,0.04884
10:26:11.269965,2.57871,0.00659,-2.13461,19.77568,0.61974,1.12162,-0.00029,-0.00088,-0.03575,-0.00305,0.98722,2.56960,0.10501
10:26:11.279630,2.58839,0.00606,-2.12665,19.77568,0.42725,1.12162,-0.00274,0.00019,-0.03276,-0.00836,0.98759,2.57994,0.06838
10:26:11.291067,2.59981,0.00712,-2.12348,19.77730,0.54100,1.11351,-0.00151,0.00050,-0.03056,-0.01537,0.99064,2.59071,0.06593
10:26:11.300692,2.60942,0.00651,-2.12180,19.78054,0.58475,1.11351,-0.00182,0.00355,-0.02653,-0.01659,0.98887,2.60003,0.10989
10:26:11.311013,2.61976,0.00649,-2.11261,19.78216,0.58475,1.08919,-0.00213,0.00432,-0.01970,-0.00854,0.98838,2.61032,0.07082
10:26:11.320873,2.62962,0.00602,-2.10844,19.78378,0.61974,1.08108,-0.00075,0.00493,-0.01269,-0.01446,0.98704,2.62047,0.16606
10:26:11.331889,2.64013,0.00617,-2.10525,19.78378,0.40975,1.08108,-0.00228,0.00508,-0.01000,-0.01330,0.98838,2.63101,0.21490
10:26:11.341575,2.65032,0.00599,-2.10241,19.78378,0.38350,1.08108,-0.00151,0.00630,-0.00653,-0.01318,0.98905,2.64119,0.07814
10:26:11.351411,2.66017,0.00548,-2.09610,19.78378,0.28725,1.08108,-0.00426,0.00340,0.00049,-0.00817,0.99107,2.65173,0.21245
10:26:11.364298,2.67305,0.00790,-2.08969,19.78541,0.30475,1.07297,-0.00182,0.00294,0.00207,-0.00872,0.99247,2.66392,0.20269
10:26:11.373459,2.68220,0.00661,-2.08838,19.78703,0.24350,1.07297,0.00169,0.00141,0.00762,-0.01263,0.99021,2.67249,0.04151
10:26:11.382874,2.69163,0.00582,-2.09167,19.79351,0.11225,1.03243,-0.00258,0.00035,0.00354,-0.01696,0.99399,2.68311,0.10989
10:26:11.394560,2.70310,0.00692,-2.09163,19.80324,0.16475,0.98378,-0.00014,0.00187,0.00323,-0.01379,0.98869,2.69404,0.13431
10:26:11.404429,2.71265,0.00621,-2.09355,19.80649,-0.08901,0.98378,-0.00151,-0.00118,-0.00165,-0.01305,0.99027,2.70353,0.12210
10:26:11.414099,2.72214,0.00534,-2.09103,19.80649,-0.05401,0.96757,-0.00381,-0.00286,-0.00579,-0.00830,0.98857,2.71386,0.14652
10:26:11.424570,2.73332,0.00616,-2.08870,19.80649,-0.01026,0.96757,-0.00151,0.00080,-0.00726,-0.00897,0.98826,2.72421,0.12454
10:26:11.435397,2.74415,0.00633,-2.09439,19.80649,-0.08901,0.96757,-0.00151,0.00447,-0.01403,-0.01720,0.98832,2.73488,0.09280
10:26:11.445377,2.75412,0.00609,-2.09435,19.80811,-0.13276,0.95946,0.00169,0.00019,-0.01330,-0.01025,0.98655,2.74502,0.09035
10:26:11.455654,2.76441,0.00603,-2.09379,19.80811,-0.37776,0.95946,-0.00381,-0.00027,-0.01891,-0.00659,0.98814,2.75576,0.11233
10:26:11.466875,2.77562,0.00688,-2.09502,19.80811,-0.28151,0.95946,-0.00319,-0.00194,-0.02361,-0.01013,0.99052,2.76559,0.11233
10:26:11.476681,2.78543,0.00648,-2.09808,19.80811,-0.30776,0.95946,-0.00121,-0.00286,-0.03209,-0.01171,0.99009,2.77613,0.06593
10:26:11.486238,2.79499,0.00583,-2.10055,19.80811,-0.42151,0.95946,-0.00182,0.00157,-0.03038,-0.00982,0.98863,2.78643,0.10745
10:26:11.496201,2.80496,0.00535,-2.09611,19.80811,-0.20276,0.95946,-0.00213,-0.00133,-0.03477,-0.00451,0.98527,2.79649,0.10501
10:26:11.508684,2.81690,0.00633,-2.09477,19.80811,-0.13276,0.95946,0.00322,-0.00179,-0.03654,-0.00860,0.98643,2.80778,0.08303
10:26:11.517519,2.82627,0.00534,-2.09901,19.80811,-0.05401,0.95946,0.00093,0.00248,-0.03514,-0.01604,0.98552,2.81801,0.03663
10:26:11.532690,2.84142,0.01032,-2.10246,19.80811,-0.29901,0.95946,0.00215,0.00035,-0.03111,-0.01104,0.98698,2.83224,0.04640
10:26:11.557253,2.86601,0.00923,-2.10260,19.80811,-0.03651,0.95946,0.00276,0.00264,-0.02184,-0.01110,0.98948,2.85750,0.09524
10:26:11.564854,2.87361,0.00664,-2.09988,19.80811,0.10350,0.95946,-0.00335,0.00768,-0.02141,-0.00976,0.98869,2.86523,0.12698
10:26:11.575345,2.88408,0.00690,-2.10306,19.80811,-0.03651,0.95946,0.00032,0.00264,-0.01592,-0.01519,0.98930,2.87497,0.14652
10:26:11.585772,2.89453,0.00693,-2.10790,19.80973,-0.13276,0.95135,-0.00029,0.00019,-0.01074,-0.01586,0.98863,2.88627,0.12454
10:26:11.597481,2.90554,0.00669,-2.10828,19.80973,-0.06276,0.95135,0.00307,0.00141,-0.00586,-0.01177,0.99137,2.89693,0.10989
10:26:11.607244,2.91599,0.00634,-2.11224,19.81135,-0.02776,0.95135,-0.00258,0.00508,-0.00275,-0.01635,0.98997,2.90692,0.12698
10:26:11.617780,2.92652,0.00618,-2.11854,19.81297,-0.15026,0.93514,0.00383,0.00050,-0.00220,-0.01763,0.98802,2.91719,0.21001
10:26:11.628246,2.93700,0.00629,-2.12292,19.81297,-0.12401,0.93514,-0.00167,0.00233,0.00201,-0.01586,0.99180,2.92777,0.23932
10:26:11.638518,2.94702,0.00611,-2.12480,19.81297,-0.22026,0.93514,-0.00090,0.00432,0.00220,-0.01196,0.99229,2.93810,0.10989
10:26:11.649415,2.95749,0.00605,-2.12695,19.81622,0.11225,0.91892,-0.00197,0.00187,0.00037,-0.01629,0.99235,2.94904,0.15140
10:26:11.659104,2.96786,0.00563,-2.13076,19.81622,0.13850,0.91892,-0.00258,-0.00164,-0.00232,-0.01848,0.99277,2.95942,0.18803
10:26:11.670898,2.97965,0.00723,-2.13544,19.81622,0.21725,0.91892,0.00230,-0.00042,-0.00769,-0.02056,0.99363,2.97002,0.21978
10:26:11.680187,2.98894,0.00545,-2.13504,19.81622,0.07725,0.91892,0.00047,0.00050,-0.00769,-0.01299,0.98814,2.98049,0.19536
10:26:11.691596,3.00032,0.00647,-2.13889,19.81622,-0.23776,0.91892,-0.00274,-0.00149,-0.01324,-0.01415,0.98814,2.99091,0.20757
10:26:11.702604,3.01116,0.00695,-2.13559,19.81622,0.33100,0.91892,0.00123,-0.00057,-0.01641,-0.01305,0.98735,3.00226,0.17094
10:26:11.711996,3.02075,0.00629,-2.13097,19.81622,0.23475,0.91892,-0.00029,-0.00256,-0.02056,-0.00970,0.98649,3.01167,0.17827
10:26:11.722023,3.03077,0.00610,-2.12735,19.81622,0.32225,0.91892,0.00123,-0.00225,-0.02464,-0.01202,0.98789,3.02185,0.16117
10:26:11.732418,3.04117,0.00628,-2.12568,19.81622,0.26100,0.91892,0.00154,-0.00210,-0.03038,-0.01348,0.98808,3.03203,0.22711
10:26:11.742722,3.05146,0.00619,-2.12285,19.81622,0.40100,0.91892,-0.00029,-0.00133,-0.03001,-0.01379,0.98796,3.04233,0.19048
10:26:11.753748,3.06249,0.00688,-2.12170,19.81622,0.25224,0.91892,-0.00243,-0.00011,-0.02910,-0.01415,0.98820,3.05338,0.20024
10:26:11.764045,3.07280,0.00612,-2.11493,19.81622,0.38350,0.91892,-0.00060,-0.00194,-0.02989,-0.00921,0.98850,3.06418,0.21001
10:26:11.775814,3.08454,0.00729,-2.10980,19.81622,0.26100,0.91892,-0.00121,-0.00225,-0.02617,-0.00945,0.98722,3.07496,0.18071
10:26:11.785431,3.09349,0.00588,-2.10045,19.81622,0.47975,0.91892,-0.00029,-0.00027,-0.02861,-0.00653,0.98789,3.08449,0.16850
10:26:11.795716,3.10447,0.00665,-2.09738,19.81622,0.39225,0.91892,-0.00045,-0.00103,-0.02617,-0.01311,0.98954,3.09508,0.19292
10:26:11.805349,3.11409,0.00608,-2.09377,19.81622,0.56724,0.91892,-0.00182,-0.00088,-0.02373,-0.01415,0.99076,3.10502,0.19292
10:26:11.816620,3.12536,0.00699,-2.08582,19.81622,0.75975,0.91892,0.00047,0.00233,-0.01421,-0.01226,0.98881,3.11616,0.17094
10:26:11.826088,3.13484,0.00611,-2.08004,19.81622,0.52349,0.91892,-0.00014,0.00340,-0.01397,-0.01122,0.98808,3.12659,0.12698
10:26:11.836209,3.14496,0.00553,-2.07354,19.81622,0.67225,0.91892,-0.00396,0.00355,-0.01226,-0.01159,0.99009,3.13640,0.14408
10:26:11.848069,3.15613,0.00607,-2.06866,19.81622,0.61100,0.91892,-0.00197,0.00462,-0.00616,-0.01372,0.99094,3.14772,0.09768
10:26:11.857639,3.16570,0.00529,-2.06434,19.81784,0.41850,0.91892,-0.00258,-0.00011,-0.00628,-0.01098,0.99162,3.15727,0.10256
10:26:11.869040,3.17703,0.00625,-2.05510,19.81784,0.65475,0.91081,-0.00197,-0.00011,-0.00244,-0.00854,0.99009,3.16783,0.06593
10:26:11.878604,3.18716,0.00612,-2.04737,19.81946,0.61974,0.90270,-0.00487,0.00035,-0.00354,-0.00958,0.99155,3.17822,0.09035
10:26:11.888465,3.19722,0.00569,-2.05199,19.82108,0.24350,0.89459,0.00032,-0.00408,-0.00281,-0.01921,0.99204,3.18842,0.15873
10:26:11.901070,3.20871,0.00681,-2.04914,19.82108,0.56724,0.89459,-0.00228,0.00019,-0.00598,-0.01488,0.99277,3.19931,0.08547
10:26:11.909311,3.21805,0.00598,-2.04277,19.82108,0.42725,0.89459,0.00017,-0.00072,-0.00641,-0.00842,0.98887,3.20900,0.24664
10:26:11.920292,3.22904,0.00677,-2.03099,19.82108,0.59349,0.89459,0.00291,-0.00317,-0.00726,-0.00470,0.99003,3.21986,0.19048
10:26:11.929178,3.23794,0.00530,-2.02678,19.82108,0.46225,0.89459,-0.00228,-0.00011,-0.01110,-0.01092,0.98692,3.22949,0.11477
10:26:11.940476,3.24923,0.00623,-2.02057,19.82108,0.19975,0.89459,-0.00151,0.00065,-0.01135,-0.00592,0.98942,3.24006,0.13431
10:26:11.950852,3.25959,0.00638,-2.01196,19.82270,0.60225,0.88649,-0.00182,0.00248,-0.01610,-0.00775,0.98875,3.25046,0.09524
10:26:11.961191,3.26993,0.00606,-2.00888,19.82270,0.43600,0.88649,-0.00090,0.00065,-0.01830,-0.01196,0.98832,3.26077,0.05861
10:26:11.972486,3.28124,0.00700,-2.00505,19.82270,0.33100,0.88649,-0.00350,-0.00164,-0.02263,-0.01000,0.98741,3.27160,0.10012
10:26:11.981818,3.29056,0.00613,-2.00045,19.82270,0.28725,0.88649,-0.00060,-0.00042,-0.02452,-0.00817,0.98552,3.28142,0.11722
10:26:11.992617,3.30136,0.00644,-1.99710,19.82270,0.33100,0.88649,-0.00304,-0.00424,-0.02501,-0.01031,0.98674,3.29201,0.10012
10:26:12.004350,3.31310,0.00783,-1.99052,19.82270,0.32225,0.88649,-0.00136,-0.00286,-0.02971,-0.00689,0.99125,3.30377,0.02686
10:26:12.013655,3.32240,0.00678,-1.98066,19.82270,0.29600,0.88649,0.00200,0.00126,-0.02861,-0.00189,0.98893,3.31328,0.10012
10:26:12.023421,3.33216,0.00634,-1.97580,19.82270,0.41850,0.88649,0.00032,0.00065,-0.02873,-0.00891,0.98905,3.32302,0.09524
10:26:12.033437,3.34218,0.00607,-1.97036,19.82270,0.31350,0.88649,0.00215,-0.00088,-0.02629,-0.00708,0.98613,3.33309,0.02198
10:26:12.044490,3.35324,0.00676,-1.96193,19.82432,0.51475,0.87838,-0.00182,0.00126,-0.02336,-0.00641,0.98716,3.34409,0.01954
10:26:12.054062,3.36280,0.00596,-1.95703,19.82757,0.37475,0.87838,-0.00197,0.00004,-0.02281,-0.00805,0.98643,3.35389,0.11477
10:26:12.064683,3.37342,0.00606,-1.95673,19.82757,0.08600,0.86216,-0.00396,0.00233,-0.02123,-0.01013,0.98881,3.36424,0.02198
10:26:12.075754,3.38449,0.00678,-1.94962,19.82919,0.45349,0.85405,-0.00381,0.00233,-0.01519,-0.00671,0.98887,3.37480,0.08059
10:26:12.085519,3.39426,0.00611,-1.94886,19.82919,0.17350,0.85405,0.00246,0.00233,-0.01458,-0.01049,0.98783,3.38514,0.06838
10:26:12.096412,3.40517,0.00665,-1.94682,19.82919,0.21725,0.85405,-0.00167,0.00264,-0.01366,-0.00964,0.99058,3.39589,0.10501
10:26:12.108334,3.41709,0.00821,-1.94441,19.82919,0.40975,0.85405,-0.00014,0.00264,-0.00927,-0.01214,0.99009,3.40798,0.05861
10:26:12.117589,3.42632,0.00626,-1.94200,19.83081,0.09475,0.85405,-0.00167,0.00416,-0.00677,-0.00750,0.99320,3.41725,0.09035
10:26:12.127890,3.43665,0.00622,-1.94363,19.83081,0.10350,0.84595,0.00047,-0.00088,-0.00433,-0.01232,0.99186,3.42749,0.14652
10:26:12.138032,3.44677,0.00598,-1.94477,19.83081,-0.11526,0.84595,-0.00106,0.00004,-0.00293,-0.00921,0.99046,3.43784,0.04151
10:26:12.148632,3.45738,0.00624,-1.94111,19.83081,0.06850,0.84595,0.00093,-0.00332,-0.00299,-0.00586,0.99107,3.44818,0.07326
10:26:12.158977,3.46772,0.00621,-1.93923,19.83081,0.03350,0.84595,-0.00151,0.00035,-0.00500,-0.00744,0.99125,3.45858,0.06838
10:26:12.169002,3.47775,0.00604,-1.94078,19.83081,-0.07150,0.84595,-0.00106,-0.00011,-0.00592,-0.01013,0.98838,3.46860,0.06593
10:26:12.179296,3.48805,0.00613,-1.94198,19.83243,-0.08026,0.83784,-0.00442,-0.00164,-0.00775,-0.00964,0.99046,3.47908,0.07326
10:26:12.190504,3.49906,0.00678,-1.94269,19.83243,-0.15901,0.83784,0.00185,-0.00072,-0.01013,-0.00805,0.99155,3.49013,0.10256
10:26:12.201057,3.50981,0.00717,-1.94438,19.83243,-0.02776,0.83784,-0.00304,-0.00133,-0.01220,-0.01080,0.98716,3.50118,0.06838
10:26:12.210735,3.51947,0.00662,-1.94438,19.83243,-0.04526,0.83784,0.00185,-0.00118,-0.01928,-0.00878,0.98997,3.51044,0.06349
10:26:12.220217,3.52897,0.00541,-1.94240,19.83243,0.11225,0.83784,-0.00029,-0.00256,-0.01915,-0.00823,0.98661,3.52050,0.11477
10:26:12.231328,3.54007,0.00615,-1.93934,19.83243,0.08600,0.83784,-0.00213,-0.00271,-0.02361,-0.00671,0.98857,3.53097,0.06349
10:26:12.241598,3.54959,0.00531,-1.93648,19.83243,0.01600,0.83784,0.00230,-0.00179,-0.02342,-0.00604,0.98613,3.54114,0.07326
10:26:12.252117,3.56085,0.00621,-1.93412,19.83243,-0.01901,0.83784,0.00078,-0.00011,-0.02800,-0.00616,0.98838,3.55173,0.08547
10:26:12.262265,3.57101,0.00601,-1.93274,19.83243,-0.12401,0.83784,-0.00274,-0.00042,-0.02965,-0.00604,0.98972,3.56207,0.07570
10:26:12.272374,3.58113,0.00564,-1.93431,19.83243,-0.09776,0.83784,0.00093,-0.00225,-0.02501,-0.00970,0.98820,3.57239,0.07326
10:26:12.284457,3.59296,0.00687,-1.93717,19.83243,-0.15901,0.83784,-0.00029,0.00080,-0.02623,-0.01031,0.98826,3.58380,0.09035
10:26:12.294673,3.60341,0.00694,-1.93507,19.83243,0.08600,0.83784,0.00017,0.00126,-0.02361,-0.00775,0.99070,3.59431,0.14164
10:26:12.304721,3.61348,0.00641,-1.93433,19.83243,-0.04526,0.83784,0.00017,0.00340,-0.02227,-0.00769,0.98869,3.60507,0.11722
10:26:12.315682,3.62444,0.00694,-1.93600,19.83243,-0.01026,0.83784,0.00123,0.00309,-0.02037,-0.01086,0.98765,3.61522,0.10745
10:26:12.324970,3.63371,0.00602,-1.93750,19.83243,0.23475,0.83784,-0.00060,0.00355,-0.01830,-0.01330,0.98661,3.62461,0.08547
10:26:12.335537,3.64429,0.00623,-1.93625,19.83243,0.10350,0.83784,-0.00289,0.00004,-0.01507,-0.00891,0.98765,3.63510,0.07570
10:26:12.346047,3.65478,0.00621,-1.94012,19.83243,0.00725,0.83784,0.00108,0.00203,-0.01196,-0.01366,0.98972,3.64586,0.01709
10:26:12.356655,3.66541,0.00636,-1.94123,19.83243,0.12100,0.83784,0.00337,0.00355,-0.01025,-0.01189,0.99094,3.65621,0.08059
10:26:12.366752,3.67549,0.00608,-1.94049,19.83243,0.19975,0.83784,0.00062,0.00203,-0.00994,-0.01068,0.99064,3.66640,0.09035
10:26:12.376321,3.68508,0.00547,-1.93746,19.83243,0.11225,0.83784,-0.00350,0.00157,-0.00738,-0.00701,0.99320,3.67661,0.06593
10:26:12.387827,3.69658,0.00661,-1.93653,19.83243,0.12975,0.83784,-0.00014,0.00035,-0.00427,-0.00964,0.99277,3.68704,0.09524
10:26:12.397961,3.70670,0.00610,-1.93819,19.83243,0.04225,0.83784,-0.00304,-0.00011,-0.00518,-0.01153,0.98954,3.69758,0.11233
10:26:12.408048,3.71680,0.00597,-1.94116,19.83243,0.12100,0.83784,0.00093,0.00248,-0.00665,-0.01403,0.99137,3.70803,0.09768
10:26:12.418586,3.72648,0.00544,-1.94404,19.83243,-0.06276,0.83784,-0.00014,-0.00256,-0.00592,-0.01177,0.98820,3.71823,0.11722
10:26:12.429923,3.73867,0.00651,-1.94580,19.83243,-0.09776,0.83784,0.00062,-0.00027,-0.00872,-0.01006,0.98979,3.72916,0.12454
10:26:12.440080,3.74883,0.00631,-1.94546,19.83243,0.03350,0.83784,0.00215,0.00218,-0.01257,-0.00927,0.98716,3.73968,0.12698
10:26:12.450233,3.75898,0.00609,-1.94429,19.83243,0.04225,0.83784,0.00139,-0.00057,-0.01147,-0.00842,0.98997,3.75002,0.10256
10:26:12.460764,3.76951,0.00612,-1.94563,19.83243,-0.15026,0.83784,0.00246,-0.00118,-0.01806,-0.00903,0.98869,3.76039,0.12454
10:26:12.471899,3.78065,0.00690,-1.94176,19.83243,0.21725,0.83784,0.00032,0.00065,-0.02019,-0.00756,0.98905,3.77156,0.13675
10:26:12.482040,3.79077,0.00658,-1.94399,19.83243,0.05975,0.83784,-0.00029,0.00019,-0.01909,-0.01251,0.99180,3.78186,0.16117
10:26:12.491975,3.80071,0.00616,-1.94206,19.83243,0.05975,0.83784,0.00154,-0.00027,-0.02568,-0.00769,0.98997,3.79161,0.13431
10:26:12.503153,3.81189,0.00713,-1.94155,19.83243,-0.09776,0.83784,-0.00106,0.00203,-0.02519,-0.00744,0.98692,3.80216,0.16361
10:26:12.512359,3.82112,0.00600,-1.94230,19.83243,-0.03651,0.83784,-0.00075,-0.00118,-0.02294,-0.00964,0.98722,3.81216,0.14896
10:26:12.523296,3.83205,0.00657,-1.94261,19.83243,0.06850,0.83784,0.00154,0.00126,-0.02489,-0.01037,0.98857,3.82254,0.16850
10:26:12.532302,3.84105,0.00538,-1.93773,19.83243,0.15600,0.83784,0.00001,0.00080,-0.02403,-0.00537,0.98704,3.83258,0.16850
10:26:12.544499,3.85297,0.00693,-1.93378,19.83243,0.29600,0.83784,-0.00182,0.00386,-0.02275,-0.00811,0.98942,3.84308,0.23687
10:26:12.553664,3.86241,0.00602,-1.93100,19.83243,0.32225,0.83784,-0.00060,0.00187,-0.02220,-0.00958,0.98875,3.85325,0.20269
10:26:12.564866,3.87360,0.00612,-1.92859,19.83243,0.26100,0.83784,0.00078,0.00294,-0.01970,-0.00958,0.99003,3.86449,0.18803
10:26:12.575662,3.88441,0.00667,-1.92667,19.83243,0.01600,0.83784,-0.00228,0.00508,-0.01610,-0.00695,0.98838,3.87529,0.18315
10:26:12.585193,3.89393,0.00600,-1.92493,19.83243,0.14725,0.83784,0.00123,0.00371,-0.01415,-0.00854,0.98918,3.88484,0.17827
10:26:12.596805,3.90555,0.00726,-1.92115,19.83243,0.42725,0.83784,-0.00060,0.00462,-0.01318,-0.00964,0.98814,3.89535,0.19536
10:26:12.606887,3.91561,0.00695,-1.91786,19.83243,0.05975,0.83784,-0.00151,0.00111,-0.01116,-0.00579,0.99094,3.90598,0.20269
10:26:12.617166,3.92590,0.00689,-1.91730,19.83243,0.13850,0.83784,0.00154,0.00004,-0.01025,-0.00976,0.98716,3.91639,0.23443
10:26:12.627138,3.93589,0.00651,-1.91821,19.83243,0.08600,0.83784,-0.00136,-0.00042,-0.00750,-0.01080,0.98796,3.92639,0.21978
10:26:12.637003,3.94575,0.00613,-1.91699,19.83243,0.07725,0.83784,-0.00060,0.00157,-0.00854,-0.00830,0.99125,3.93652,0.17827
10:26:12.647736,3.95649,0.00625,-1.91741,19.83243,0.11225,0.83784,-0.00228,0.00340,-0.00732,-0.01068,0.99210,3.94735,0.25397
10:26:12.657865,3.96661,0.00601,-1.91909,19.83243,0.10350,0.83784,0.00276,0.00019,-0.00537,-0.01189,0.98857,3.95746,0.18071
10:26:12.668488,3.97724,0.00628,-1.91537,19.83243,0.29600,0.83784,-0.00289,-0.00454,-0.00933,-0.00811,0.99113,3.96809,0.19780
10:26:12.678760,3.98750,0.00617,-1.91570,19.83243,0.00725,0.83784,-0.00258,-0.00271,-0.00921,-0.00921,0.98863,3.97839,0.15629
10:26:12.689250,3.99800,0.00639,-1.91680,19.83243,-0.01901,0.83784,0.00215,0.00019,-0.01171,-0.00982,0.99070,3.98850,0.17582
10:26:12.699355,4.00809,0.00627,-1.91805,19.83243,-0.11526,0.83784,-0.00060,-0.00149,-0.01110,-0.00885,0.99003,3.99902,0.18803
10:26:12.710717,4.01946,0.00726,-1.91729,19.83243,0.01600,0.83784,0.00139,0.00065,-0.01873,-0.00811,0.98991,4.00905,0.19048
10:26:12.720795,4.02954,0.00698,-1.91641,19.83243,0.17350,0.83784,0.00139,-0.00088,-0.01970,-0.01000,0.98863,4.02043,0.19780
10:26:12.731027,4.03884,0.00593,-1.91567,19.83243,0.13850,0.83784,0.00154,-0.00362,-0.02043,-0.00952,0.99052,4.03057,0.20024
10:26:12.740730,4.04948,0.00604,-1.91358,19.83243,0.10350,0.83784,-0.00442,0.00157,-0.02068,-0.00750,0.98966,4.04035,0.18559
10:26:12.750650,4.05939,0.00537,-1.91283,19.83243,0.04225,0.83784,-0.00136,0.00065,-0.02220,-0.00836,0.98863,4.05090,0.19048
10:26:12.762247,4.07099,0.00682,-1.91454,19.83243,0.02474,0.83784,-0.00121,0.00126,-0.02391,-0.01098,0.98863,4.06208,0.17094
10:26:12.771958,4.08071,0.00618,-1.91085,19.83243,0.13850,0.83784,0.00139,0.00019,-0.02306,-0.00598,0.98820,4.07159,0.19780
10:26:12.783043,4.09102,0.00614,-1.90944,19.83243,0.13850,0.83784,0.00047,-0.00133,-0.02050,-0.00866,0.98844,4.08195,0.19048
10:26:12.791966,4.10072,0.00559,-1.90911,19.83243,0.10350,0.83784,-0.00090,0.00004,-0.02361,-0.00945,0.98722,4.09223,0.21245
10:26:12.803745,4.11250,0.00700,-1.90406,19.83243,0.41850,0.83784,-0.00060,0.00111,-0.02080,-0.00799,0.99046,4.10307,0.27350
10:26:12.812721,4.12148,0.00579,-1.90109,19.83243,0.20850,0.83784,0.00185,0.00203,-0.02062,-0.00738,0.98930,4.11260,0.22711
10:26:12.825415,4.13295,0.00670,-1.89982,19.83243,0.06850,0.83784,0.00276,0.00371,-0.01757,-0.00799,0.99174,4.12452,0.19292
10:26:12.834553,4.14310,0.00609,-1.89999,19.83243,0.13850,0.83784,0.00459,0.00233,-0.01812,-0.01019,0.98911,4.13418,0.21734
10:26:12.844772,4.15352,0.00602,-1.89955,19.83243,0.29600,0.83784,0.00017,0.00309,-0.01159,-0.01141,0.98930,4.14438,0.19536
10:26:12.856444,4.16518,0.00668,-1.89589,19.83243,0.25224,0.83784,-0.00060,0.00141,-0.00982,-0.00756,0.99149,4.15588,0.19048
10:26:12.866138,4.17488,0.00602,-1.89410,19.83243,0.33100,0.83784,-0.00197,-0.00118,-0.01098,-0.01013,0.98857,4.16593,0.13675
10:26:12.875908,4.18467,0.00560,-1.89287,19.83243,0.02474,0.83784,0.00291,-0.00088,-0.00909,-0.00726,0.98991,4.17622,0.22222
10:26:12.886771,4.19551,0.00607,-1.89206,19.83243,-0.18526,0.83784,0.00230,0.00004,-0.00921,-0.00531,0.99204,4.18639,0.21001
10:26:12.896952,4.20570,0.00606,-1.89148,19.83243,0.22600,0.83784,-0.00472,0.00050,-0.01110,-0.01031,0.99210,4.19655,0.19780
10:26:12.907722,4.21578,0.00577,-1.89074,19.83243,0.12100,0.83784,0.00215,-0.00072,-0.00866,-0.00897,0.98924,4.20731,0.18803
10:26:12.918084,4.22684,0.00634,-1.89078,19.83243,-0.06276,0.83784,0.00139,0.00141,-0.01104,-0.00756,0.98832,4.21860,0.21978
10:26:12.929524,4.23827,0.00757,-1.88737,19.83243,0.16475,0.83784,-0.00304,-0.00011,-0.01135,-0.00628,0.98893,4.22869,0.22711
10:26:12.938508,4.24705,0.00598,-1.88644,19.83243,0.26975,0.83784,-0.00075,-0.00042,-0.01257,-0.01006,0.98820,4.23812,0.26374
10:26:12.948903,4.25695,0.00539,-1.88561,19.83243,0.00725,0.83784,-0.00060,0.00157,-0.01202,-0.00738,0.98924,4.24843,0.18071
10:26:12.959310,4.26805,0.00613,-1.88621,19.83243,-0.06276,0.83784,-0.00136,0.00035,-0.01604,-0.00817,0.98918,4.25897,0.18803
10:26:12.969509,4.27825,0.00598,-1.88564,19.83243,0.14725,0.83784,-0.00182,-0.00378,-0.02098,-0.00927,0.98802,4.26914,0.21245
10:26:12.980848,4.28959,0.00695,-1.88506,19.83243,0.13850,0.83784,0.00322,-0.00088,-0.02074,-0.00933,0.98667,4.28048,0.20513
10:26:12.989528,4.29828,0.00529,-1.87866,19.83243,0.17350,0.83784,-0.00014,0.00004,-0.01915,-0.00275,0.99046,4.29005,0.18559
10:26:13.002998,4.31174,0.00759,-1.87469,19.83243,0.23475,0.83784,0.00032,0.00004,-0.02513,-0.00665,0.98661,4.30177,0.21490
10:26:13.012629,4.32137,0.00670,-1.87109,19.83243,0.13850,0.83784,-0.00121,-0.00011,-0.02574,-0.00549,0.98997,4.31188,0.08059
10:26:13.021986,4.33044,0.00537,-1.86639,19.83243,0.12975,0.83784,0.00047,-0.00362,-0.02318,-0.00409,0.98814,4.32218,0.19536
10:26:13.032562,4.34132,0.00541,-1.86340,19.83243,-0.01026,0.83784,-0.00167,-0.00133,-0.02361,-0.00433,0.98771,4.33289,0.19780
10:26:13.043737,4.35247,0.00621,-1.86068,19.83243,0.26975,0.83784,-0.00075,-0.00301,-0.02153,-0.00793,0.98966,4.34334,0.19292
10:26:13.053903,4.36264,0.00602,-1.86083,19.83243,0.18225,0.83784,0.00200,-0.00149,-0.01921,-0.01006,0.98869,4.35348,0.18803
10:26:13.064447,4.37320,0.00621,-1.86024,19.83243,0.13850,0.83784,-0.00518,0.00004,-0.01934,-0.00878,0.98966,4.36403,0.16850
10:26:13.075274,4.38349,0.00615,-1.85895,19.83243,0.14725,0.83784,-0.00060,0.00187,-0.01793,-0.00805,0.99082,4.37439,0.15629
10:26:13.085340,4.39408,0.00647,-1.85809,19.83243,0.19975,0.83784,0.00368,0.00035,-0.01635,-0.00909,0.99040,4.38450,0.20757
10:26:13.095433,4.40417,0.00619,-1.85671,19.83243,0.18225,0.83784,-0.00213,0.00401,-0.01257,-0.00836,0.98881,4.39505,0.23443
10:26:13.106730,4.41547,0.00713,-1.85304,19.83243,0.06850,0.83784,0.00246,0.00248,-0.01464,-0.00439,0.98954,4.40639,0.10989
10:26:13.116434,4.42518,0.00647,-1.85354,19.83243,0.16475,0.83784,-0.00121,0.00203,-0.01135,-0.01000,0.98985,4.41577,0.09524
10:26:13.126784,4.43553,0.00648,-1.85292,19.83243,-0.05401,0.83784,-0.00304,0.00615,-0.00964,-0.00634,0.99015,4.42612,0.17094
10:26:13.136894,4.44492,0.00538,-1.85407,19.83243,0.21725,0.83784,-0.00060,0.00004,-0.01348,-0.01153,0.98936,4.43642,0.12943
10:26:13.147380,4.45612,0.00626,-1.85526,19.83243,-0.06276,0.83784,-0.00213,0.00432,-0.00775,-0.00830,0.98735,4.44705,0.07326
10:26:13.158094,4.46684,0.00662,-1.85513,19.83243,-0.05401,0.83784,0.00459,-0.00118,-0.00964,-0.00689,0.98869,4.45783,0.12454
10:26:13.167999,4.47675,0.00618,-1.85549,19.83243,0.04225,0.83784,-0.00045,-0.00057,-0.00860,-0.00860,0.98966,4.46763,0.09035
10:26:13.179151,4.48789,0.00636,-1.85701,19.83243,-0.05401,0.83784,-0.00243,0.00157,-0.00976,-0.00878,0.98954,4.47879,0.01221
10:26:13.189495,4.49772,0.00599,-1.85869,19.83243,-0.08026,0.83784,-0.00304,-0.00210,-0.01128,-0.00878,0.98942,4.48863,0.12454
10:26:13.199562,4.50761,0.00552,-1.86004,19.83243,-0.12401,0.83784,-0.00182,0.00111,-0.01488,-0.00787,0.99082,4.49915,0.11722
10:26:13.210659,4.51939,0.00633,-1.86135,19.83243,0.00725,0.83784,-0.00106,-0.00088,-0.01470,-0.00939,0.98911,4.51023,0.07814
10:26:13.221661,4.52987,0.00632,-1.85924,19.83243,0.27849,0.83784,-0.00365,0.00111,-0.01580,-0.00860,0.98899,4.52041,0.09524
10:26:13.231333,4.54007,0.00615,-1.85647,19.83243,0.24350,0.83784,-0.00090,0.00264,-0.02123,-0.00750,0.98881,4.53098,0.08791
10:26:13.242121,4.55017,0.00589,-1.85338,19.83243,0.30475,0.83784,-0.00335,0.00111,-0.02056,-0.00793,0.98765,4.54188,0.10501
10:26:13.252516,4.56127,0.00633,-1.85293,19.83243,0.26100,0.83784,0.00078,0.00065,-0.02251,-0.01013,0.98692,4.55199,0.10012
10:26:13.262770,4.57152,0.00619,-1.85124,19.83405,0.13850,0.82973,-0.00060,0.00080,-0.02446,-0.00738,0.99137,4.56240,0.16606
10:26:13.273280,4.58096,0.00535,-1.84946,19.83405,0.05975,0.82973,0.00078,0.00126,-0.02452,-0.00628,0.98997,4.57250,0.12698
10:26:13.283417,4.59216,0.00618,-1.84704,19.83405,0.41850,0.82973,0.00017,-0.00088,-0.02458,-0.00982,0.98924,4.58305,0.12698
10:26:13.293636,4.60168,0.00533,-1.84425,19.83405,0.37475,0.82973,-0.00136,0.00126,-0.02068,-0.00866,0.98771,4.59320,0.13919
10:26:13.304460,4.61319,0.00651,-1.83860,19.83405,0.51475,0.82973,0.00032,-0.00011,-0.02117,-0.00720,0.98820,4.60381,0.18315
10:26:13.315062,4.62380,0.00675,-1.83502,19.83405,0.26100,0.82973,-0.00151,-0.00149,-0.02092,-0.00653,0.98844,4.61470,0.10989
10:26:13.325342,4.63410,0.00655,-1.83297,19.83405,0.30475,0.82973,0.00078,-0.00103,-0.01781,-0.00872,0.98850,4.62550,0.10745
10:26:13.337126,4.64587,0.00770,-1.82930,19.83405,0.44475,0.82973,-0.00167,0.00035,-0.01391,-0.00878,0.98826,4.63678,0.11722
10:26:13.346045,4.65479,0.00627,-1.82936,19.83405,0.28725,0.82973,0.00169,0.00126,-0.01415,-0.01013,0.98796,4.64540,0.11966
10:26:13.356802,4.66555,0.00666,-1.82779,19.83405,0.24350,0.82973,-0.00045,-0.00042,-0.01238,-0.00836,0.98936,4.65592,0.08059
10:26:13.367060,4.67582,0.00656,-1.82499,19.83405,0.29600,0.82973,-0.00121,-0.00027,-0.01043,-0.00750,0.98863,4.66632,0.11966
10:26:13.376979,4.68496,0.00536,-1.82336,19.83405,0.29600,0.82973,-0.00457,-0.00011,-0.01220,-0.00872,0.98991,4.67648,0.11477
10:26:13.387665,4.69642,0.00624,-1.82187,19.83405,0.44475,0.82973,-0.00136,-0.00057,-0.01043,-0.01092,0.99107,4.68729,0.11722
10:26:13.397825,4.70656,0.00602,-1.81948,19.83405,0.62850,0.82973,-0.00213,0.00019,-0.01019,-0.01159,0.98893,4.69740,0.10012
10:26:13.408664,4.71742,0.00651,-1.81509,19.83405,0.43600,0.82973,-0.00274,0.00172,-0.00848,-0.00775,0.98844,4.70897,0.10012
10:26:13.418664,4.72740,0.00613,-1.81103,19.83405,0.47975,0.82973,-0.00197,0.00004,-0.01263,-0.00744,0.99064,4.71832,0.09524
10:26:13.429562,4.73832,0.00672,-1.80597,19.83405,0.49725,0.82973,-0.00090,-0.00042,-0.01177,-0.00738,0.98814,4.72943,0.07570
10:26:13.440980,4.74971,0.00743,-1.79867,19.83405,0.57600,0.82973,0.00093,-0.00546,-0.01397,-0.00573,0.98899,4.74059,0.02198
10:26:13.449868,4.75861,0.00596,-1.79287,19.83405,0.39225,0.82973,0.00078,-0.00164,-0.01434,-0.00403,0.99058,4.74949,0.09768
10:26:13.461242,4.76923,0.00622,-1.79223,19.83405,0.17350,0.82973,-0.00426,0.00004,-0.01665,-0.00799,0.99198,4.76005,0.07082
10:26:13.471588,4.77956,0.00620,-1.78858,19.83405,0.39225,0.82973,0.00169,-0.00133,-0.01629,-0.00701,0.98802,4.77039,0.10012
10:26:13.481414,4.78964,0.00602,-1.78451,19.83405,0.25224,0.82973,-0.00167,0.00035,-0.01861,-0.00476,0.98765,4.78050,0.11722
10:26:13.491989,4.80014,0.00616,-1.78085,19.83405,0.42725,0.82973,-0.00472,0.00050,-0.02214,-0.00738,0.98863,4.79105,0.12210
10:26:13.500905,4.80966,0.00533,-1.77304,19.83405,0.71600,0.82973,-0.00564,-0.00118,-0.02263,-0.00567,0.98863,4.80120,0.06349
10:26:13.512786,4.82152,0.00612,-1.76668,19.83405,0.32225,0.82973,-0.00258,0.00187,-0.02013,-0.00305,0.98820,4.81238,0.06593
10:26:13.523646,4.83240,0.00658,-1.76005,19.83405,0.60225,0.82973,-0.00014,-0.00011,-0.02220,-0.00573,0.98814,4.82291,0.11233
10:26:13.532955,4.84171,0.00570,-1.75236,19.83405,0.61100,0.82973,0.00062,-0.00149,-0.02105,-0.00439,0.99003,4.83326,0.01954
10:26:13.544730,4.85269,0.00633,-1.74548,19.83405,0.54100,0.82973,0.00154,0.00004,-0.02263,-0.00433,0.98936,4.84357,0.09524
10:26:13.553984,4.86273,0.00601,-1.73831,19.83405,0.72474,0.82973,0.00062,0.00126,-0.01885,-0.00579,0.98997,4.85359,0.07082
10:26:13.565418,4.87340,0.00632,-1.73271,19.83405,0.48849,0.82973,-0.00304,0.00203,-0.01720,-0.00512,0.99003,4.86420,0.02442
10:26:13.574754,4.88350,0.00606,-1.72648,19.83405,0.66350,0.82973,-0.00258,-0.00057,-0.01537,-0.00610,0.99046,4.87440,0.08303
10:26:13.584958,4.89369,0.00605,-1.71841,19.83405,0.65475,0.82973,-0.00121,0.00264,-0.01641,-0.00372,0.98985,4.88452,0.10012
10:26:13.596972,4.90495,0.00631,-1.71253,19.83405,0.49725,0.82973,0.00169,-0.00194,-0.01372,-0.00488,0.98850,4.89571,0.08791
10:26:13.606715,4.91546,0.00645,-1.70480,19.83405,0.63725,0.82973,0.00139,0.00172,-0.01415,-0.00384,0.99155,4.90608,0.08791
10:26:13.616827,4.92558,0.00609,-1.70015,19.83405,0.58475,0.82973,-0.00243,0.00080,-0.01098,-0.00659,0.98960,4.91637,0.08547
10:26:13.627300,4.93604,0.00619,-1.69577,19.83405,0.50600,0.82973,-0.00014,0.00111,-0.00988,-0.00604,0.98796,4.92693,0.10745
10:26:13.637054,4.94581,0.00575,-1.69305,19.83405,0.41850,0.82973,0.00185,-0.00149,-0.01110,-0.00665,0.99113,4.93707,0.09524
10:26:13.647879,4.95661,0.00619,-1.69272,19.83405,0.31350,0.82973,-0.00045,0.00004,-0.01074,-0.00823,0.98936,4.94749,0.14408
10:26:13.658063,4.96679,0.00601,-1.68969,19.83405,0.43600,0.82973,-0.00136,0.00111,-0.01293,-0.00653,0.99009,4.95782,0.10256
10:26:13.668998,4.97775,0.00660,-1.68820,19.83405,0.17350,0.82973,0.00001,-0.00042,-0.01189,-0.00518,0.99070,4.96818,0.07082
10:26:13.679300,4.98804,0.00628,-1.68603,19.83405,0.17350,0.82973,0.00047,-0.00194,-0.01122,-0.00445,0.98875,4.97897,0.03419
10:26:13.689395,4.99815,0.00539,-1.68362,19.83405,0.32225,0.82973,-0.00274,-0.00210,-0.01263,-0.00598,0.98686,4.98987,0.08547
10:26:13.700592,5.00896,0.00584,-1.67787,19.83405,0.42725,-199.17027,-0.00151,-0.00011,-0.01446,-0.00311,0.99033,5.00015,0.09524
10:26:13.711348,5.02010,0.00641,-1.68016,19.62486,0.34850,-198.12432,-0.00121,0.00035,-0.02727,-0.01153,0.98728,5.01093,9.99512
10:26:13.721466,5.02924,0.00536,-1.63668,18.27405,-0.54400,-198.12432,0.00078,0.01256,-0.00061,0.04953,0.95184,5.02078,2.93529
10:26:13.731897,5.04065,0.00640,-1.62608,16.61514,-0.92901,-183.07568,-0.00106,0.02280,-0.03508,0.01976,1.01034,5.03131,6.17338
10:26:13.741511,5.05027,0.00546,-1.74080,14.71784,-0.27276,-173.58919,-0.00060,0.03837,-0.02684,-0.13084,0.97106,5.04203,3.27961
10:26:13.753949,5.06267,0.00749,-1.80873,12.80595,-1.66401,-164.02973,0.00215,0.04112,-0.01372,-0.06161,0.97887,5.05356,6.76190
10:26:13.762723,5.07146,0.00608,-1.34804,11.15189,-3.76401,-164.02973,-0.02305,0.03272,0.37405,0.50185,0.78763,5.06243,3.28938
10:26:13.773661,5.08241,0.00679,-1.30193,9.35027,-3.79900,-146.75135,-0.01327,-0.00042,-0.09034,0.08851,0.86535,5.07328,5.68742
10:26:13.783598,5.09235,0.00628,-1.48258,7.72865,-2.51276,-146.75135,-0.01480,-0.06807,-0.43133,-0.18672,1.02864,5.08328,4.30281
10:26:13.793729,5.10247,0.00605,-1.49940,6.23351,-2.65276,-131.16757,0.00551,-0.08258,0.45201,0.00982,1.02620,5.09330,6.13675
10:26:13.804314,5.11307,0.00628,-1.31249,4.67189,-7.04526,-123.35946,-0.01633,-0.09144,-0.15006,0.34459,1.10996,5.10384,4.01954
10:26:13.815013,5.12374,0.00675,-1.24785,3.27892,-7.95526,-116.39459,-0.00411,-0.12244,0.13560,0.17971,1.01717,5.11460,4.08059
10:26:13.825210,5.13395,0.00660,-1.38217,1.99459,-9.93276,-109.97297,-0.00045,-0.13206,-0.28133,-0.04087,1.04267,5.12464,3.43101
10:26:13.835251,5.14401,0.00629,-1.44628,0.77027,-9.25026,-103.85135,0.00185,-0.14504,0.20069,0.03276,0.98179,5.13479,2.86447
10:26:13.845727,5.15447,0.00656,-1.63172,-0.41189,-10.11651,-97.94054,0.00673,-0.16260,-0.13890,-0.08766,0.89109,5.14500,1.61172
10:26:13.855703,5.16446,0.00619,-1.91242,-1.54541,-10.29151,-92.27297,0.01834,-0.20155,0.05984,-0.20466,0.96514,5.15532,0.79365
10:26:13.865913,5.17466,0.00603,-2.09408,-2.62378,-10.24776,-86.88108,0.02032,-0.22079,-0.19788,-0.09992,0.98808,5.16549,0.01954
10:26:13.877114,5.18585,0.00686,-2.23052,-3.70054,-10.42276,-81.49730,0.02628,-0.22842,0.00262,-0.04404,0.98326,5.17604,0.00000
10:26:13.886761,5.19549,0.00614,-2.32523,-4.66216,-9.26776,-76.68919,0.01681,-0.24767,-0.08156,-0.01507,1.02468,5.18639,0.00000
10:26:13.897504,5.20624,0.00663,-2.54749,-5.58486,-8.87401,-72.07568,0.02735,-0.23804,-0.02056,-0.16848,1.01016,5.19714,0.00000
10:26:13.908376,5.21635,0.00638,-2.72841,-6.39405,-9.15401,-72.07568,0.01971,-0.23316,-0.08595,-0.12438,0.97643,5.20703,0.00000
10:26:13.916882,5.22564,0.00531,-2.75994,-7.16108,-7.92901,-64.19459,0.00582,-0.21285,-0.09485,0.03282,1.01034,5.21718,0.00000
10:26:13.928164,5.23691,0.00622,-2.72161,-7.94270,-5.82026,-60.28649,0.00872,-0.19452,-0.15598,0.09083,0.98979,5.22776,0.00000
10:26:13.938707,5.24699,0.00594,-2.76203,-8.62054,-3.29151,-56.89730,0.01590,-0.17803,-0.09815,-0.03019,0.97655,5.23811,0.00000
10:26:13.951519,5.26026,0.00866,-2.72423,-9.30486,-2.01401,-53.47568,0.01330,-0.14871,-0.10998,0.04721,0.99229,5.24990,0.00000
10:26:13.959302,5.26804,0.00628,-2.56192,-9.87405,-0.24651,-53.47568,0.01055,-0.13282,-0.02757,0.15860,0.93263,5.25891,0.00000
10:26:13.969750,5.27849,0.00619,-2.49179,-10.47730,1.68725,-47.61351,0.00902,-0.10854,-0.07985,0.04075,0.98667,5.26936,0.00000
10:26:13.981426,5.28958,0.00602,-2.50862,-11.07243,3.84850,-44.63784,0.00643,-0.07739,-0.06332,-0.08540,0.97594,5.28043,0.00000
10:26:13.991848,5.30007,0.00615,-2.44620,-11.57514,5.08225,-42.12432,-0.00106,-0.04822,-0.03733,-0.00811,1.02224,5.29097,0.00000
10:26:14.002008,5.31025,0.00598,-2.30082,-12.04541,6.77100,-39.77297,-0.00778,-0.00973,0.01074,0.07460,1.03072,5.30113,0.00000
10:26:14.012353,5.32110,0.00630,-2.21389,-12.49459,8.76600,-37.52703,-0.01343,0.01867,0.01336,-0.02263,1.02510,5.31185,0.00000
10:26:14.023528,5.33228,0.00698,-2.05557,-12.94216,10.96225,-35.28919,-0.02213,0.04540,-0.00671,0.02830,1.00534,5.32316,0.00000
10:26:14.032860,5.34161,0.00601,-1.97410,-13.29243,12.72974,-35.28919,-0.01343,0.06647,-0.00256,-0.05063,0.96972,5.33246,0.00000
10:26:14.043244,5.35200,0.00604,-1.98923,-13.68162,13.17600,-31.59189,-0.02396,0.07594,0.09022,-0.19111,0.96783,5.34356,0.00000
10:26:14.055865,5.36383,0.00705,-1.95221,-14.06595,11.78475,-29.67027,-0.01862,0.07777,-0.05697,-0.11749,0.99552,5.35470,0.00000
10:26:14.063861,5.37261,0.00546,-1.89238,-14.38216,11.14599,-29.67027,-0.01694,0.06021,0.09614,-0.06033,0.99046,5.36418,0.00000
10:26:14.075041,5.38378,0.00627,-1.71813,-14.66595,11.75849,-26.67027,-0.01205,0.04845,0.01702,0.05289,0.98911,5.37464,0.00488
10:26:14.084998,5.39374,0.00602,-1.64625,-14.92378,12.41474,-26.67027,-0.01266,0.03410,0.08150,-0.06374,0.99942,5.38462,0.13675
10:26:14.095695,5.40445,0.00643,-1.58248,-15.18811,12.11725,-24.05946,-0.01205,0.02661,0.04612,-0.07857,1.00205,5.39530,0.30281
10:26:14.106883,5.41448,0.00610,-1.46258,-15.41838,11.23350,-24.05946,-0.02213,0.02020,0.04654,0.00866,1.00144,5.40524,0.65690
10:26:14.115588,5.42435,0.00560,-1.38536,-15.65838,11.07600,-21.70811,-0.01969,0.01577,0.01037,-0.04593,0.99735,5.41587,1.01832
10:26:14.127572,5.43549,0.00622,-1.36470,-15.88865,10.59475,-20.55676,-0.01312,0.01149,-0.02367,-0.10291,0.98893,5.42643,0.88400
10:26:14.136935,5.44499,0.00538,-1.32944,-16.11081,9.31725,-19.44595,-0.01388,0.00080,-0.00885,-0.06551,0.99625,5.43650,1.17705
10:26:14.147546,5.45630,0.00647,-1.19238,-16.35730,8.25849,-18.21351,-0.00426,-0.00347,-0.01238,0.05136,0.96032,5.44786,0.89377
10:26:14.158561,5.46667,0.00665,-1.07577,-16.55351,8.35474,-18.21351,-0.01892,-0.01829,-0.02001,0.04587,0.98820,5.45758,1.02076
10:26:14.168043,5.47679,0.00617,-0.98284,-16.74649,7.89975,-16.26757,-0.00823,-0.02241,-0.05826,0.02190,0.96959,5.46768,0.69109
10:26:14.179559,5.48755,0.00657,-0.89860,-16.95568,7.06850,-15.22162,-0.01205,-0.03661,-0.00854,0.02123,0.99210,5.47806,0.70574
10:26:14.189406,5.49762,0.00615,-0.83621,-17.14541,6.62225,-14.27297,-0.00915,-0.04990,-0.14640,0.00342,0.99168,5.48835,0.52747
10:26:14.199578,5.50833,0.00632,-0.81375,-17.33351,6.14975,-13.33243,0.00795,-0.05921,-0.07448,-0.03922,0.98283,5.49914,0.32234
10:26:14.209826,5.51856,0.00620,-0.80130,-17.50541,5.62475,-12.47297,0.00398,-0.06074,-0.13579,-0.03953,0.98570,5.50922,0.16361
10:26:14.219453,5.52821,0.00548,-0.72933,-17.69027,5.04725,-11.54865,0.00230,-0.05494,-0.04825,0.03196,0.96044,5.51978,0.06105
10:26:14.230552,5.53910,0.00601,-0.62518,-17.85243,5.33600,-10.73784,-0.00426,-0.04119,-0.09443,0.06838,0.98112,5.53016,0.00488
10:26:14.240956,5.54970,0.00610,-0.54878,-17.99514,5.74725,-10.02432,-0.00900,-0.02989,-0.05850,0.03355,0.98918,5.54059,0.00733
10:26:14.251762,5.56050,0.00623,-0.52441,-18.12000,5.65100,-9.40000,-0.00518,-0.02821,-0.09742,-0.02672,1.00449,5.55140,0.07326
10:26:14.262003,5.57076,0.00613,-0.46110,-18.23838,4.94225,-8.80811,-0.00411,-0.02241,-0.06143,0.03227,1.00699,5.56148,0.00488
10:26:14.272631,5.58138,0.00635,-0.38210,-18.37135,4.88975,-8.14324,-0.00045,-0.02134,-0.10327,0.04691,0.96532,5.57218,0.00000
10:26:14.283521,5.59202,0.00663,-0.32418,-18.49946,4.51350,-7.50270,0.00200,-0.03096,0.05063,0.03154,0.96935,5.58239,0.00000
10:26:14.292928,5.60097,0.00535,-0.31858,-18.61297,4.04100,-6.93514,-0.00045,-0.03799,-0.01854,-0.02025,0.95221,5.59248,0.00000
10:26:14.303364,5.61210,0.00612,-0.26612,-18.70541,3.76975,-6.47297,-0.00228,-0.04577,0.02007,0.03385,0.98082,5.60303,0.00000
10:26:14.313819,5.62256,0.00606,-0.18148,-18.79459,3.85725,-6.02703,-0.00151,-0.04715,0.01232,0.07277,0.99985,5.61339,0.00000
10:26:14.324590,5.63335,0.00620,-0.13753,-18.88865,4.19850,-5.55676,-0.00258,-0.04257,0.03538,0.01745,1.01992,5.62492,0.00000
10:26:14.336184,5.64494,0.00743,-0.12202,-18.97135,4.30350,-5.14324,-0.00121,-0.03570,0.03794,-0.01275,1.00857,5.63564,0.00000
10:26:14.345029,5.65377,0.00607,-0.04935,-19.03135,3.95350,-5.14324,-0.00579,-0.02623,0.06271,0.06692,1.00577,5.64460,0.00000
10:26:14.355774,5.66453,0.00647,-0.00283,-19.08486,4.32975,-4.57568,-0.00350,-0.01691,0.06783,0.02556,0.99198,5.65511,0.00000
10:26:14.365887,5.67463,0.00610,0.05038,-19.14811,4.54850,-4.25946,-0.00716,-0.00515,0.07790,0.03245,0.98985,5.66541,0.00000
10:26:14.376338,5.68509,0.00620,0.13264,-19.20000,4.59225,-4.00000,-0.00915,0.00187,0.07601,0.06521,0.98863,5.67592,0.00000
10:26:14.386689,5.69543,0.00633,0.19551,-19.25351,4.81975,-3.73243,-0.00854,0.00401,0.04978,0.04258,0.99046,5.68626,0.00000
10:26:14.396867,5.70559,0.00601,0.23117,-19.32162,4.59225,-3.39189,-0.00610,0.00493,0.02220,0.01592,1.00070,5.69645,0.00000
10:26:14.408601,5.71733,0.00739,0.29603,-19.35892,4.46100,-3.20541,-0.00778,0.00554,0.02208,0.04563,0.98863,5.70779,0.00000
10:26:14.417509,5.72625,0.00594,0.36530,-19.39784,4.44350,-3.20541,-0.00258,0.00600,0.02348,0.06210,0.98850,5.71715,0.00000
10:26:14.428122,5.73686,0.00619,0.40918,-19.44324,4.95100,-2.78378,-0.00396,0.00875,0.01360,0.02178,0.98356,5.72771,0.00000
10:26:14.439282,5.74708,0.00606,0.43598,-19.46595,4.40850,-2.67027,-0.00946,0.01317,-0.00061,0.01049,0.99320,5.73807,0.00000
10:26:14.448945,5.75770,0.00618,0.48707,-19.48541,3.83100,-2.57297,-0.01037,0.02005,-0.03684,0.04654,1.00278,5.74839,0.00000
10:26:14.459949,5.76870,0.00683,0.56105,-19.50811,3.69100,-2.45946,-0.00778,0.02295,-0.04355,0.07283,0.99564,5.75930,0.00488
10:26:14.469448,5.77819,0.00595,0.62718,-19.53405,3.89225,-2.45946,-0.00594,0.02157,-0.05435,0.06716,0.99094,5.76909,0.00244
10:26:14.480659,5.78940,0.00680,0.66430,-19.55838,3.52475,-2.20811,-0.00533,0.02173,-0.02952,0.03300,0.97271,5.78019,0.01221
10:26:14.490207,5.79827,0.00531,0.67648,-19.58108,3.11350,-2.20811,-0.00640,0.01501,-0.05569,0.01494,0.97984,5.79003,0.01954
10:26:14.500740,5.80948,0.00603,0.68283,-19.60703,2.58849,-1.96486,-0.00869,0.00890,-0.05301,0.01299,0.98057,5.80033,0.04396
10:26:14.511603,5.82035,0.00648,0.71182,-19.63622,2.15099,-1.81892,-0.00579,-0.00057,-0.07637,0.04380,0.99467,5.81097,0.02930
10:26:14.521422,5.83016,0.00593,0.72896,-19.66541,1.78350,-1.81892,0.00062,-0.00943,-0.06594,0.03599,0.99101,5.82108,0.02686
10:26:14.532776,5.84153,0.00694,0.75040,-19.69784,1.59100,-1.51081,0.00398,-0.01874,-0.06716,0.04246,0.98753,5.83167,0.00244
10:26:14.543204,5.85163,0.00668,0.75938,-19.73027,1.40725,-1.34865,0.00078,-0.02470,-0.05826,0.03087,0.98167,5.84203,0.00244
10:26:14.552610,5.86136,0.00619,0.77338,-19.76432,1.42475,-1.17838,-0.00075,-0.02027,-0.05191,0.03642,0.97685,5.85236,0.00000
10:26:14.565086,5.87357,0.00746,0.79539,-19.79514,1.37225,-1.02432,-0.00090,-0.01401,-0.05514,0.04538,0.98814,5.86368,0.00000
10:26:14.573049,5.88180,0.00607,0.80604,-19.82108,1.37225,-1.02432,0.00200,-0.01248,-0.05118,0.03617,0.98155,5.87260,0.00000
10:26:14.583584,5.89234,0.00626,0.79535,-19.84216,1.03975,-0.78919,0.00398,-0.01141,-0.02538,0.01354,0.98887,5.88312,0.00000
10:26:14.593711,5.90245,0.00601,0.80956,-19.86000,1.00474,-0.70000,0.00108,-0.00622,-0.01769,0.04282,0.98863,5.89329,0.00000
10:26:14.605109,5.91384,0.00704,0.83321,-19.87784,1.05725,-0.61081,-0.00487,-0.00546,0.01269,0.05228,0.99369,5.90458,0.00000
10:26:14.615564,5.92399,0.00665,0.85834,-19.89081,1.46850,-0.61081,-0.00411,-0.00149,0.01934,0.05161,0.99406,5.91439,0.00000
10:26:14.624921,5.93366,0.00605,0.87406,-19.90378,1.34600,-0.48108,-0.00289,0.00248,0.03861,0.04221,0.99772,5.92449,0.00000
10:26:14.634785,5.94354,0.00556,0.88484,-19.91351,1.47725,-0.43243,-0.00258,0.00294,0.03227,0.03459,1.00083,5.93503,0.00000
10:26:14.645750,5.95448,0.00615,0.88970,-19.91838,1.61725,-0.40811,-0.00090,0.00340,0.04843,0.02666,0.99107,5.94517,0.00000
10:26:14.657223,5.96598,0.00625,0.88356,-19.92486,1.14475,-0.37568,-0.00167,0.00630,0.05441,0.01696,0.99698,5.95735,0.00244
10:26:14.669279,5.97802,0.00793,0.89081,-19.93135,1.22350,-0.34324,-0.00640,0.00432,0.05344,0.03190,0.99021,5.96893,0.00000
10:26:14.678215,5.98626,0.00555,0.89443,-19.93622,1.17100,-0.34324,0.00017,0.00615,0.04410,0.03209,0.99753,5.97802,0.00244
10:26:14.688685,5.99743,0.00651,0.90866,-19.94270,0.98725,-0.28649,-0.00167,0.00233,0.02208,0.04514,0.99436,5.98809,0.00733
10:26:14.698665,6.00740,0.00627,0.92540,-19.94919,1.03975,-0.25405,-0.00243,-0.00042,0.02214,0.04734,0.99027,5.99829,0.00000
10:26:14.709103,6.01785,0.00626,0.93698,-19.95081,1.01350,-0.24595,-0.00319,0.00080,0.00061,0.04203,0.99058,6.00846,0.00000
10:26:14.719913,6.02814,0.00618,0.93039,-19.95568,1.32850,-0.22162,-0.00747,0.00080,-0.00024,0.01696,0.98564,6.01902,0.00977
10:26:14.729581,6.03832,0.00601,0.91516,-19.96703,1.20600,-0.16486,-0.00319,0.00126,-0.03337,0.00897,0.98869,6.02918,0.00244
10:26:14.741110,6.04986,0.00734,0.91803,-19.97676,0.75100,-0.11622,-0.00045,0.00065,-0.03916,0.03428,0.98247,6.03966,0.00000
10:26:14.750154,6.05889,0.00602,0.94120,-19.98162,0.97850,-0.09189,-0.00228,0.00065,-0.05545,0.05545,0.98814,6.04993,0.00244
10:26:14.761541,6.06953,0.00589,0.96594,-19.98486,1.43350,-0.07568,-0.00014,0.00523,-0.03819,0.05057,0.98301,6.06114,0.00488
10:26:14.771966,6.08072,0.00670,0.97232,-19.99135,1.38975,-0.07568,-0.00381,0.00248,-0.04343,0.03263,0.98637,6.07105,0.00000
10:26:14.781742,6.09045,0.00534,0.97969,-19.99784,1.17975,-0.01081,-0.00335,0.00355,-0.05136,0.03593,0.98735,6.08124,0.00244
10:26:14.792691,6.10072,0.00536,0.99675,-20.00432,1.07475,0.02162,-0.00258,-0.00133,-0.05502,0.04752,0.98918,6.09223,0.00244
10:26:14.803167,6.11191,0.00619,1.00093,-20.00757,0.95225,0.03784,-0.00060,0.00111,-0.06277,0.03508,0.99290,6.10280,0.00000
10:26:14.813928,6.12267,0.00624,1.00695,-20.00919,0.86474,0.04595,-0.00274,-0.00362,-0.04758,0.03770,0.98003,6.11351,0.00000
10:26:14.824267,6.13302,0.00623,1.01115,-20.01081,0.52349,0.05405,0.00200,-0.00362,-0.04337,0.04020,0.98344,6.12384,0.00000
10:26:14.834960,6.14372,0.00657,1.02871,-20.01405,0.81225,0.07027,0.00475,-0.00133,-0.03221,0.05130,0.97594,6.13475,0.00488
10:26:14.844839,6.15359,0.00613,1.02546,-20.01892,0.70725,0.07027,-0.00258,-0.00408,-0.02775,0.03050,0.98674,6.14445,0.00488
10:26:14.856268,6.16502,0.00634,1.04380,-20.02541,0.54975,0.12703,-0.00274,-0.00317,-0.01751,0.05630,0.99326,6.15586,0.00000
10:26:14.865838,6.17459,0.00570,1.04421,-20.03351,0.46225,0.16757,-0.00274,-0.00439,-0.00903,0.03782,0.99808,6.16608,0.00488
10:26:14.877225,6.18597,0.00656,1.03729,-20.04000,0.51475,0.20000,0.00246,-0.00194,0.00140,0.02855,0.99296,6.17628,0.00000
10:26:14.887218,6.19597,0.00620,1.02725,-20.04486,0.16475,0.22432,-0.00151,-0.00317,0.01409,0.02873,0.99009,6.18684,0.00000
10:26:14.898070,6.20599,0.00602,1.04619,-20.04649,0.15600,0.23243,-0.00182,-0.00378,0.02220,0.06228,0.99113,6.19686,0.00000
10:26:14.907844,6.21659,0.00621,1.05771,-20.04649,0.53225,0.23243,0.00062,-0.00439,0.02586,0.04917,0.98649,6.20745,0.00000
10:26:14.917805,6.22656,0.00581,1.05432,-20.04973,0.36600,0.24865,0.00139,-0.00836,0.02178,0.03459,0.99223,6.21760,0.00244
10:26:14.928606,6.23736,0.00625,1.05959,-20.05622,0.30475,0.28108,0.00001,-0.00576,0.02574,0.04490,0.98747,6.22814,0.00244
10:26:14.938939,6.24683,0.00534,1.06430,-20.06432,0.32225,0.32162,-0.00503,-0.00546,0.02324,0.04459,0.99643,6.23854,0.00000
10:26:14.949041,6.25706,0.00538,1.06927,-20.06757,0.41850,0.33784,-0.00136,-0.00332,0.01830,0.04404,0.99723,6.24857,0.00244
10:26:14.959404,6.26815,0.00626,1.05768,-20.07081,0.28725,0.35405,-0.00182,0.00340,0.01476,0.02623,0.99717,6.25908,0.00000
10:26:14.970659,6.27917,0.00709,1.06444,-20.07405,0.28725,0.37027,0.00185,0.00645,0.00092,0.04721,0.99430,6.26984,0.00000
10:26:14.979841,6.28859,0.00615,1.08091,-20.07568,0.33975,0.37027,-0.00014,0.00493,-0.00195,0.05795,0.98844,6.27949,0.00000
10:26:14.990675,6.29940,0.00659,1.09116,-20.07568,0.32225,0.37838,-0.00289,0.00477,-0.01793,0.05100,0.99009,6.29012,0.00000
10:26:15.000556,6.30931,0.00629,1.08693,-20.07568,0.05100,0.37838,0.00123,0.00829,-0.01671,0.03745,0.98210,6.30017,0.00000
10:26:15.010998,6.31973,0.00635,1.08717,-20.07568,0.14725,0.37838,-0.00381,0.00813,-0.03349,0.04160,0.98741,6.31039,0.00000
10:26:15.021659,6.33041,0.00678,1.09215,-20.07568,-0.05401,0.37838,-0.00197,0.00661,-0.03886,0.04923,0.98314,6.32129,0.00000
10:26:15.031362,6.34010,0.00612,1.09164,-20.07568,0.23475,0.37838,-0.00350,0.00630,-0.04782,0.03977,0.98326,6.33104,0.00000
10:26:15.041598,6.35035,0.00601,1.08720,-20.07568,0.00725,0.37838,-0.00503,0.00554,-0.04276,0.03782,0.98466,6.34120,0.00244
10:26:15.052691,6.36143,0.00683,1.09286,-20.07568,-0.15026,0.37838,-0.00213,0.00768,-0.03782,0.05130,0.98466,6.35229,0.00000
10:26:15.063158,6.37189,0.00693,1.08751,-20.07568,-0.41276,0.37838,0.00123,0.00615,-0.04325,0.04191,0.99052,6.36255,0.00488
10:26:15.072633,6.38139,0.00592,1.08629,-20.07568,-0.21151,0.37838,0.00078,0.00203,-0.04252,0.04392,0.98606,6.37235,0.00000
10:26:15.083797,6.39255,0.00673,1.08233,-20.07568,-0.35151,0.37838,-0.00335,-0.00072,-0.03764,0.04276,0.98954,6.38289,0.00000
10:26:15.093986,6.40273,0.00613,1.08393,-20.07568,-0.43026,0.37838,0.00276,-0.00775,-0.02178,0.04978,0.98100,6.39379,0.00244
10:26:15.105214,6.41396,0.00700,1.06088,-20.07730,-0.66651,0.38649,0.00597,-0.00912,-0.02257,0.02477,0.98765,6.40478,0.00000
10:26:15.115728,6.42448,0.00715,1.04699,-20.08054,-0.84150,0.40270,-0.00029,-0.00866,-0.01848,0.03617,0.99155,6.41465,0.00000
10:26:15.125143,6.43389,0.00619,1.03927,-20.08541,-0.95526,0.40270,0.00246,-0.00607,-0.01635,0.04453,0.99265,6.42467,0.00000
10:26:15.135779,6.44453,0.00660,1.03781,-20.09189,-0.78901,0.45946,0.00017,-0.00194,-0.01074,0.05039,0.99564,6.43523,0.00488
10:26:15.145525,6.45356,0.00527,1.02324,-20.09676,-0.68401,0.45946,0.00307,0.00294,0.00634,0.03324,0.99174,6.44513,0.00000
10:26:15.156940,6.46568,0.00704,1.00549,-20.10000,-0.88526,0.50000,0.00261,-0.00057,0.01061,0.03306,0.99241,6.45648,0.00000
10:26:15.166988,6.47573,0.00639,0.99354,-20.10000,-0.84150,0.50000,-0.00060,0.00294,0.01189,0.03739,0.98979,6.46638,0.00000
10:26:15.178052,6.48611,0.00649,0.98166,-20.10000,-0.78026,0.50000,-0.00365,0.00157,0.00598,0.03812,0.99314,6.47787,0.00000
10:26:15.188145,6.49688,0.00691,0.97640,-20.10000,-0.89401,0.50000,0.00215,0.00218,0.01171,0.04514,0.98869,6.48767,0.00000
10:26:15.197575,6.50632,0.00598,0.97082,-20.10000,-0.72776,0.50000,0.00108,-0.00042,0.01501,0.04252,0.98637,6.49719,0.00000
10:26:15.208699,6.51743,0.00621,0.96340,-20.10000,-0.69276,0.50000,0.00169,-0.00042,0.01006,0.04087,0.98985,6.50774,0.00000
10:26:15.218516,6.52706,0.00600,0.94760,-20.10000,-0.62276,0.50000,0.00001,0.00004,0.00708,0.03001,0.98667,6.51811,0.00000
10:26:15.228901,6.53765,0.00603,0.93905,-20.10000,-0.50901,0.50000,0.00108,0.00615,-0.00329,0.03709,0.99546,6.52850,0.00000
10:26:15.239424,6.54817,0.00619,0.92899,-20.10000,-0.48276,0.50000,0.00093,0.00875,-0.00427,0.03477,0.99033,6.53905,0.00000
10:26:15.249382,6.55814,0.00535,0.91780,-20.10000,-0.64026,0.50000,0.00078,0.01043,-0.01159,0.03550,0.99454,6.54983,0.00000
10:26:15.260553,6.56930,0.00628,0.90619,-20.10000,-0.70151,0.50000,0.00505,0.00447,-0.01873,0.03501,0.98899,6.56015,0.00000
10:26:15.271620,6.58037,0.00699,0.89712,-20.10000,-0.78026,0.50000,-0.00090,0.00325,-0.02544,0.03892,0.98966,6.57074,0.00244
10:26:15.280892,6.58964,0.00603,0.89042,-20.10162,-0.54400,0.50000,-0.00106,0.00004,-0.02696,0.03806,0.98753,6.58049,0.00000
10:26:15.292022,6.60076,0.00639,0.88322,-20.10162,-0.56151,0.50811,-0.00503,-0.00179,-0.03306,0.03849,0.98832,6.59165,0.01221
10:26:15.301969,6.61071,0.00599,0.87068,-20.10324,-0.74526,0.51622,0.00444,-0.00530,-0.04069,0.03343,0.98613,6.60158,0.00733
10:26:15.313555,6.62230,0.00721,0.86316,-20.10649,-0.57900,0.53243,0.00154,-0.00332,-0.03806,0.03739,0.98289,6.61213,0.00244
10:26:15.321915,6.63068,0.00523,0.85087,-20.10973,-0.78026,0.54865,0.00154,-0.00210,-0.03837,0.03410,0.98765,6.62239,0.00000
10:26:15.332943,6.64169,0.00605,0.83736,-20.11135,-0.80651,0.55676,0.00017,0.00203,-0.03489,0.03263,0.98625,6.63253,0.00244
10:26:15.343885,6.65262,0.00662,0.82693,-20.11622,-0.79776,0.58108,0.00475,0.00157,-0.03745,0.03630,0.98905,6.64305,0.00000
10:26:15.353422,6.66218,0.00582,0.82640,-20.12108,-0.88526,0.60541,0.00078,0.00325,-0.02885,0.04868,0.98442,6.65390,0.00000
10:26:15.364522,6.67327,0.00668,0.82074,-20.12108,-0.92026,0.60541,-0.00365,-0.00408,-0.02318,0.04252,0.98606,6.66403,0.00000
10:26:15.374024,6.68278,0.00583,0.81386,-20.12108,-0.77151,0.60541,0.00123,-0.00485,-0.01440,0.03971,0.98716,6.67456,0.00000
10:26:15.386569,6.69512,0.00709,0.80159,-20.12108,-0.92901,0.60541,0.00246,-0.00485,-0.00811,0.03642,0.98796,6.68615,0.00000
10:26:15.395738,6.70449,0.00610,0.79200,-20.12108,-0.85901,0.60541,-0.00029,-0.00118,-0.00543,0.03636,0.99430,6.69543,0.00000
10:26:15.405340,6.71409,0.00534,0.78464,-20.12270,-0.66651,0.61351,0.00658,-0.00469,0.00378,0.03733,0.99210,6.70560,0.00000
10:26:15.417666,6.72640,0.00728,0.77500,-20.12432,-0.91151,0.62162,-0.00167,-0.00164,0.00317,0.03916,0.99595,6.71732,0.00000
10:26:15.427569,6.73632,0.00624,0.76759,-20.12919,-1.03401,0.62162,0.00490,0.00096,0.01568,0.04093,0.99155,6.72726,0.00000
10:26:15.437907,6.74666,0.00622,0.75486,-20.13243,-0.71025,0.66216,-0.00289,0.00447,0.01025,0.03215,0.99692,6.73840,0.00000
10:26:15.447945,6.75670,0.00556,0.75007,-20.13243,-0.83276,0.66216,-0.00121,0.00676,0.01006,0.04130,0.99198,6.74828,0.00000
10:26:15.459982,6.76874,0.00723,0.74293,-20.13243,-0.74526,0.66216,0.00185,0.00401,0.00067,0.03867,0.99052,6.75960,0.00000
10:26:15.468960,6.77771,0.00601,0.74466,-20.13243,-0.52651,0.66216,-0.00121,0.00218,-0.00079,0.04459,0.99064,6.76859,0.00000
10:26:15.479590,6.78803,0.00585,0.72598,-20.13243,-1.00775,0.66216,0.00322,0.00325,-0.00006,0.02818,0.98765,6.77957,0.00000
10:26:15.490151,6.79889,0.00622,0.71668,-20.13243,-0.52651,0.66216,0.00108,-0.00042,-0.00750,0.03233,0.98838,6.78996,0.00000
10:26:15.500440,6.80920,0.00617,0.70578,-20.13243,-0.63151,0.66216,-0.00228,0.00004,-0.01061,0.03135,0.98814,6.80006,0.00000
10:26:15.510757,6.81950,0.00611,0.70142,-20.13243,-0.64901,0.66216,0.00322,-0.00057,-0.02269,0.03922,0.99265,6.81037,0.00000
10:26:15.520986,6.82974,0.00611,0.69683,-20.13243,-0.92026,0.66216,0.00261,0.00386,-0.02159,0.04172,0.98887,6.82051,0.00244
10:26:15.531408,6.84015,0.00616,0.69065,-20.13243,-0.68401,0.66216,0.00001,0.00615,-0.02501,0.03733,0.98692,6.83105,0.00000
10:26:15.542164,6.85091,0.00656,0.68387,-20.13243,-0.80651,0.66216,0.00169,0.00416,-0.02507,0.03751,0.98301,6.84122,0.00244
10:26:15.551741,6.86049,0.00578,0.67400,-20.13243,-0.98151,0.66216,0.00017,0.00416,-0.02934,0.03642,0.98722,6.85175,0.00000
10:26:15.561637,6.87040,0.00533,0.66046,-20.13243,-0.95526,0.66216,-0.00029,0.00371,-0.03300,0.03154,0.98722,6.86211,0.00488
10:26:15.572885,6.88164,0.00609,0.64847,-20.13243,-0.99901,0.66216,-0.00106,0.00080,-0.03123,0.03355,0.98765,6.87242,0.00000
10:26:15.583729,6.89248,0.00657,0.63527,-20.13405,-0.96401,0.67027,-0.00029,-0.00179,-0.02989,0.03196,0.99216,6.88298,0.00977
10:26:15.594200,6.90242,0.00615,0.62463,-20.13892,-1.11275,0.69459,0.00017,-0.00240,-0.02208,0.03587,0.99046,6.89311,0.00000
10:26:15.604099,6.91285,0.00622,0.60690,-20.14216,-1.08651,0.71081,0.00001,-0.00256,-0.02153,0.02788,0.99460,6.90369,0.00244
10:26:15.614699,6.92344,0.00646,0.59903,-20.14216,-0.96401,0.71081,0.00185,-0.00286,-0.01836,0.03709,0.98918,6.91407,0.00244
10:26:15.624768,6.93352,0.00604,0.58889,-20.14216,-0.99901,0.71081,0.00078,-0.00637,-0.01574,0.03477,0.99229,6.92437,0.00000
10:26:15.635282,6.94403,0.00618,0.57882,-20.14216,-1.02526,0.71081,0.00032,-0.00042,-0.01147,0.03520,0.98985,6.93492,0.00244
10:26:15.645457,6.95420,0.00599,0.56679,-20.14216,-1.04276,0.71081,-0.00106,-0.00301,-0.00579,0.03239,0.98759,6.94506,0.00000
10:26:15.656659,6.96541,0.00582,0.55187,-20.14378,-0.85901,0.71892,0.00047,0.00019,-0.00226,0.02849,0.98631,6.95701,0.00000
10:26:15.668720,6.97662,0.00666,0.53937,-20.14541,-1.04276,0.72703,-0.00243,0.00004,0.00213,0.03172,0.99027,6.96735,0.00000
10:26:15.677093,6.98585,0.00554,0.52678,-20.15027,-0.97275,0.72703,0.00123,0.00004,0.00018,0.03007,0.99235,6.97717,0.00244
10:26:15.688597,6.99735,0.00669,0.52104,-20.15351,-0.89401,0.76757,0.00307,0.00172,0.00335,0.03788,0.99033,6.98804,0.00244
10:26:15.698538,7.00709,0.00600,0.50831,-20.15514,-0.94651,0.77568,0.00017,0.00050,0.00134,0.02959,0.99210,6.99814,0.00244
10:26:15.708860,7.01762,0.00604,0.49688,-20.15676,-1.07776,0.78378,-0.00106,0.00111,0.00458,0.03257,0.99070,7.00844,0.00000
10:26:15.719516,7.02827,0.00649,0.47832,-20.15676,-1.08651,0.78378,-0.00045,0.00309,0.00464,0.02446,0.99040,7.01891,0.00488
10:26:15.728701,7.03746,0.00532,0.46790,-20.15838,-0.85026,0.79189,0.00139,0.00371,-0.00268,0.03032,0.98991,7.02898,0.00000
10:26:15.740595,7.04934,0.00684,0.45318,-20.15838,-0.88526,0.79189,-0.00182,0.00584,-0.00744,0.02672,0.98979,7.04019,0.00000
10:26:15.749419,7.05817,0.00531,0.44458,-20.15838,-0.74526,0.79189,-0.00014,0.00462,-0.01135,0.03062,0.99357,7.04994,0.00488
10:26:15.759360,7.06812,0.00474,0.43177,-20.15838,-0.86775,0.79189,0.00215,0.00539,-0.01031,0.02745,0.99088,7.06027,0.00244
10:26:15.771157,7.07990,0.00631,0.42545,-20.15838,-0.62276,0.79189,0.00123,0.00875,-0.01482,0.03202,0.99162,7.07079,0.00244
10:26:15.781949,7.09070,0.00691,0.41333,-20.15838,-0.75401,0.79189,-0.00151,0.00798,-0.01995,0.02721,0.99082,7.08185,0.00000
10:26:15.793154,7.10190,0.00774,0.40741,-20.15838,-0.50026,0.79189,-0.00121,0.00248,-0.02891,0.03068,0.99076,7.09240,0.00244
10:26:15.801830,7.11058,0.00606,0.39840,-20.15838,-0.67525,0.79189,0.00062,0.00203,-0.02763,0.02855,0.98722,7.10236,0.00244
10:26:15.812467,7.12122,0.00637,0.38883,-20.15838,-0.43901,0.79189,-0.00213,0.00447,-0.02556,0.02495,0.98631,7.11207,0.00000
10:26:15.822667,7.13141,0.00620,0.38162,-20.15838,-0.71025,0.79189,0.00429,0.00019,-0.02934,0.03093,0.98863,7.12227,0.00244
10:26:15.832870,7.14162,0.00602,0.37581,-20.15838,-0.33401,0.79189,-0.00151,0.00187,-0.02836,0.02794,0.98405,7.13247,0.00000
10:26:15.844151,7.15290,0.00635,0.37080,-20.15838,-0.45651,0.79189,0.00154,-0.00072,-0.03117,0.03080,0.98631,7.14377,0.00000
10:26:15.853496,7.16225,0.00533,0.36557,-20.15838,-0.41276,0.79189,0.00017,-0.00164,-0.02355,0.02934,0.98466,7.15397,0.00000
10:26:15.865764,7.17452,0.00681,0.35514,-20.15838,-0.34276,0.79189,0.00017,0.00004,-0.01921,0.02336,0.99113,7.16604,0.01221
10:26:15.877433,7.18619,0.00681,0.35317,-20.15838,-0.09776,0.79189,0.00169,-0.00332,-0.01519,0.02934,0.98722,7.17696,0.00244
10:26:15.887585,7.19634,0.00660,0.34754,-20.15838,-0.18526,0.79189,-0.00075,-0.00317,-0.01098,0.02629,0.99101,7.18789,0.00000
10:26:15.897577,7.20633,0.00630,0.34336,-20.15838,-0.36901,0.79189,0.00062,-0.00149,-0.00927,0.02952,0.99137,7.19734,0.00488
10:26:15.907913,7.21667,0.00628,0.34434,-20.15838,-0.01026,0.79189,-0.00106,-0.00225,-0.00518,0.03154,0.99021,7.20758,0.00000
10:26:15.918478,7.22704,0.00628,0.34760,-20.15838,-0.02776,0.79189,0.00123,-0.00225,-0.00201,0.03447,0.99229,7.21809,0.00000
10:26:15.928556,7.23731,0.00619,0.34673,-20.15838,-0.16776,0.79189,0.00123,-0.00103,0.00213,0.03117,0.98680,7.22814,0.00488
10:26:15.939758,7.24851,0.00677,0.34049,-20.15838,-0.14151,0.79189,0.00017,0.00096,-0.00110,0.02501,0.99241,7.23939,0.00000
10:26:15.948761,7.25752,0.00558,0.34361,-20.15838,-0.06276,0.79189,0.00169,0.00050,0.00128,0.03453,0.99064,7.24882,0.00000
10:26:15.959032,7.26779,0.00549,0.33747,-20.15838,-0.27276,0.79189,0.00246,-0.00256,-0.00183,0.02653,0.99296,7.25935,0.00000
10:26:15.970814,7.27955,0.00667,0.33792,-20.15838,-0.10651,0.79189,0.00123,0.00050,-0.00232,0.03196,0.98918,7.27000,0.00000
10:26:15.980676,7.28943,0.00603,0.33760,-20.15838,0.22600,0.79189,-0.00197,0.00248,-0.00592,0.02696,0.98893,7.28102,0.00000
10:26:15.991692,7.30007,0.00635,0.34067,-20.15838,-0.02776,0.79189,-0.00350,0.00309,-0.00628,0.03404,0.98985,7.29159,0.00244
10:26:16.001858,7.31059,0.00665,0.33543,-20.15838,-0.05401,0.79189,0.00230,0.00569,-0.00830,0.02477,0.98838,7.30150,0.00244
10:26:16.011803,7.32055,0.00625,0.33599,-20.15838,0.05975,0.79189,-0.00228,0.00386,-0.01543,0.03019,0.99253,7.31137,0.00000
10:26:16.021743,7.33050,0.00583,0.33782,-20.15838,0.08600,0.79189,-0.00121,-0.00011,-0.01372,0.03111,0.98503,7.32152,0.00000
10:26:16.032563,7.34052,0.00549,0.33444,-20.15838,-0.04526,0.79189,-0.00136,0.00401,-0.01915,0.02684,0.99033,7.33206,0.00000
10:26:16.042761,7.35151,0.00615,0.33066,-20.15838,-0.28151,0.79189,0.00154,0.00203,-0.01562,0.02898,0.98625,7.34242,0.00000
10:26:16.052922,7.36167,0.00606,0.33191,-20.15838,-0.14151,0.79189,-0.00060,0.00080,-0.02111,0.03306,0.98832,7.35249,0.00000
10:26:16.062884,7.37164,0.00566,0.33324,-20.15838,-0.26401,0.79189,-0.00182,0.00080,-0.02355,0.03483,0.99149,7.36304,0.00244
10:26:16.074110,7.38285,0.00652,0.32849,-20.15838,-0.27276,0.79189,-0.00075,-0.00027,-0.02532,0.02775,0.98960,7.37319,0.00000
10:26:16.084250,7.39299,0.00629,0.32427,-20.15838,-0.30776,0.79189,-0.00228,0.00248,-0.02385,0.02885,0.98991,7.38376,0.00000
10:26:16.093734,7.40249,0.00558,0.31583,-20.15838,-0.32526,0.79189,0.00078,-0.00194,-0.02062,0.02397,0.98576,7.39422,0.00733
10:26:16.105722,7.41446,0.00647,0.31096,-20.15838,-0.43026,0.79189,0.00093,-0.00393,-0.02031,0.02940,0.98899,7.40495,0.00000
10:26:16.115860,7.42461,0.00629,0.30911,-20.15838,-0.33401,0.79189,-0.00090,0.00019,-0.01861,0.03148,0.98796,7.41538,0.00000
10:26:16.126029,7.43478,0.00609,0.30817,-20.15838,-0.52651,0.79189,0.00062,-0.00133,-0.01861,0.03471,0.99101,7.42555,0.00488
10:26:16.136501,7.44525,0.00619,0.30660,-20.15838,-0.36901,0.79189,0.00154,-0.00179,-0.01318,0.03227,0.98979,7.43607,0.00000
10:26:16.146738,7.45549,0.00607,0.30013,-20.15838,-0.57025,0.79189,0.00383,-0.00194,-0.00994,0.02879,0.98808,7.44637,0.00000
10:26:16.156975,7.46572,0.00608,0.29449,-20.15838,-0.45651,0.79189,0.00062,0.00050,-0.00500,0.02824,0.98814,7.45654,0.00244
10:26:16.167237,7.47599,0.00599,0.28823,-20.15838,-0.57900,0.79189,-0.00106,-0.00103,-0.00470,0.02916,0.99107,7.46706,0.00244
10:26:16.177665,7.48641,0.00616,0.27933,-20.15838,-0.43026,0.79189,0.00078,-0.00057,-0.00439,0.02409,0.99204,7.47725,0.00488
10:26:16.188306,7.49675,0.00629,0.27519,-20.15838,-0.48276,0.79189,0.00230,-0.00256,-0.00134,0.03007,0.98911,7.48765,0.00244
10:26:16.198479,7.50638,0.00556,0.26837,-20.15838,-0.66651,0.79189,0.00215,-0.00133,0.00085,0.02904,0.99210,7.49788,0.00488
10:26:16.208633,7.51738,0.00620,0.26400,-20.16000,-0.69276,0.80000,0.00123,-0.00133,0.00213,0.03202,0.98850,7.50822,0.00488
10:26:16.219136,7.52789,0.00649,0.25528,-20.16000,-0.64026,0.80000,0.00078,-0.00103,0.00104,0.02647,0.99125,7.51866,0.00000
10:26:16.229381,7.53813,0.00652,0.25025,-20.16000,-0.52651,0.80000,0.00047,-0.00088,-0.00329,0.02885,0.99052,7.52850,0.00244
10:26:16.239471,7.54821,0.00628,0.24446,-20.16000,-0.48276,0.80000,-0.00151,0.00141,-0.00756,0.02782,0.99186,7.53904,0.00488
10:26:16.250972,7.55971,0.00676,0.23465,-20.16000,-0.72776,0.80000,0.00062,0.00264,-0.00830,0.02653,0.99210,7.55019,0.00000
10:26:16.260737,7.56949,0.00631,0.22829,-20.16000,-0.46526,0.80000,0.00353,-0.00011,-0.01269,0.02635,0.98802,7.56030,0.00000
10:26:16.270079,7.57884,0.00546,0.22582,-20.16000,-0.46526,0.80000,0.00551,0.00248,-0.01586,0.03087,0.98985,7.57059,0.00244
10:26:16.281651,7.58970,0.00608,0.22481,-20.16000,-0.47401,0.80000,-0.00167,0.00172,-0.01854,0.03276,0.98759,7.58128,0.00244
10:26:16.292258,7.60101,0.00704,0.22052,-20.16000,-0.37776,0.80000,-0.00167,0.00325,-0.02373,0.02775,0.98808,7.59184,0.00000
10:26:16.301949,7.61068,0.00650,0.21684,-20.16000,-0.65776,0.80000,0.00032,0.00279,-0.02501,0.03087,0.98936,7.60118,0.00733
10:26:16.311980,7.62073,0.00620,0.20891,-20.16000,-0.43901,0.80000,-0.00213,-0.00271,-0.02294,0.02403,0.98564,7.61159,0.00000
10:26:16.321883,7.63064,0.00591,0.20272,-20.16000,-0.58776,0.80000,-0.00121,0.00233,-0.02452,0.02782,0.98796,7.62217,0.00000
10:26:16.332426,7.64118,0.00625,0.19206,-20.16000,-0.80651,0.80000,0.00093,0.00233,-0.02397,0.02458,0.98728,7.63210,0.00244
10:26:16.342778,7.65152,0.00622,0.18695,-20.16000,-0.59651,0.80000,0.00108,0.00187,-0.02397,0.02873,0.99070,7.64235,0.00000
10:26:16.352928,7.66168,0.00606,0.18133,-20.16000,-0.57900,0.80000,-0.00106,0.00203,-0.01836,0.02769,0.98747,7.65250,0.00244
10:26:16.363563,7.67232,0.00634,0.17273,-20.16000,-0.70151,0.80000,0.00414,-0.00088,-0.01970,0.02593,0.98887,7.66305,0.00977
10:26:16.373628,7.68238,0.00604,0.16336,-20.16000,-0.64901,0.80000,-0.00121,-0.00271,-0.01452,0.02403,0.99082,7.67321,0.00244
10:26:16.384931,7.69368,0.00697,0.15451,-20.16000,-0.90275,0.80000,-0.00090,-0.00011,-0.01488,0.02855,0.98985,7.68452,0.00244
10:26:16.393871,7.70263,0.00525,0.14443,-20.16000,-0.90275,0.80000,0.00200,0.00050,-0.01287,0.02550,0.99003,7.69438,0.00000
10:26:16.405954,7.71469,0.00707,0.13520,-20.16000,-0.83276,0.80000,0.00215,-0.00485,-0.00927,0.02678,0.98954,7.70559,0.00488
10:26:16.415543,7.72430,0.00647,0.13092,-20.16000,-0.58776,0.80000,-0.00029,0.00004,-0.00848,0.02800,0.98808,7.71504,0.00488
10:26:16.425408,7.73415,0.00597,0.12152,-20.16000,-0.94651,0.80000,-0.00075,0.00096,-0.00671,0.02647,0.98820,7.72505,0.00000
10:26:16.436044,7.74479,0.00625,0.11434,-20.16000,-0.56151,0.80000,-0.00045,0.00111,-0.00738,0.02489,0.98966,7.73561,0.00733
10:26:16.446167,7.75492,0.00601,0.10412,-20.16000,-0.91151,0.80000,-0.00151,0.00065,-0.00579,0.02525,0.99003,7.74597,0.00244
10:26:16.456687,7.76544,0.00602,0.09418,-20.16000,-0.90275,0.80000,-0.00045,-0.00149,-0.00750,0.02525,0.98985,7.75629,0.00000
10:26:16.467238,7.77599,0.00613,0.08940,-20.16000,-0.55276,0.80000,-0.00106,-0.00027,-0.00909,0.02714,0.99082,7.76690,0.00000
10:26:16.478224,7.78696,0.00654,0.08420,-20.16000,-0.57025,0.80000,-0.00350,0.00157,-0.00878,0.02666,0.99070,7.77733,0.00000
10:26:16.489071,7.79780,0.00686,0.07763,-20.16000,-0.66651,0.80000,-0.00014,0.00371,-0.00799,0.02684,0.99088,7.78868,0.00000
10:26:16.499292,7.80805,0.00675,0.07275,-20.16000,-0.57900,0.80000,0.00230,0.00141,-0.01104,0.02690,0.98850,7.79916,0.00000
10:26:16.511354,7.82010,0.00843,0.06350,-20.16000,-0.63151,0.80000,0.00032,0.00325,-0.01311,0.02312,0.99107,7.81055,0.00000
10:26:16.520408,7.82916,0.00660,0.05670,-20.16000,-0.67525,0.80000,-0.00167,0.00141,-0.01403,0.02489,0.98979,7.82006,0.00000
10:26:16.531288,7.83917,0.00558,0.04715,-20.16000,-0.61401,0.80000,-0.00228,0.00493,-0.01452,0.02172,0.98698,7.83078,0.00000
10:26:16.540913,7.84967,0.00588,0.03966,-20.16000,-0.72776,0.80000,-0.00182,0.00126,-0.01434,0.02519,0.99162,7.84123,0.00000
10:26:16.551572,7.86032,0.00633,0.03122,-20.16000,-0.57025,0.80000,-0.00121,0.00157,-0.01934,0.02178,0.99198,7.85118,0.00000
10:26:16.561582,7.87032,0.00597,0.02690,-20.16000,-0.61401,0.80000,0.00261,-0.00088,-0.02287,0.02690,0.99046,7.86120,0.00000
10:26:16.572215,7.88097,0.00626,0.02093,-20.16000,-0.52651,0.80000,0.00154,-0.00118,-0.02080,0.02428,0.99143,7.87177,0.00000
10:26:16.582122,7.89088,0.00581,0.01426,-20.16000,-0.62276,0.80000,0.00169,-0.00042,-0.02245,0.02464,0.98832,7.88262,0.00244
10:26:16.593433,7.90217,0.00660,0.00277,-20.16162,-0.64026,0.80811,-0.00075,0.00035,-0.02208,0.01848,0.98936,7.89246,0.00244
10:26:16.605083,7.91383,0.00685,-0.00617,-20.16162,-0.53525,0.80811,-0.00075,-0.00027,-0.02062,0.02153,0.98954,7.90473,0.00000
10:26:16.615121,7.92388,0.00654,-0.01526,-20.16162,-0.74526,0.80811,-0.00029,-0.00088,-0.01830,0.02190,0.98918,7.91438,0.00000
10:26:16.625322,7.93328,0.00561,-0.02115,-20.16162,-0.53525,0.80811,0.00200,0.00035,-0.01861,0.02342,0.98820,7.92456,0.00244
10:26:16.635542,7.94429,0.00627,-0.02799,-20.16162,-0.68401,0.80811,-0.00243,-0.00042,-0.01305,0.02428,0.98814,7.93516,0.00000
10:26:16.645635,7.95439,0.00600,-0.03391,-20.16162,-0.72776,0.80811,0.00307,0.00096,-0.01275,0.02611,0.98972,7.94615,0.00244
10:26:16.656719,7.96547,0.00687,-0.04014,-20.16162,-0.52651,0.80811,-0.00121,0.00096,-0.00933,0.02263,0.98857,7.95635,0.00000
10:26:16.667006,7.97575,0.00629,-0.05053,-20.16162,-0.70151,0.80811,-0.00121,0.00279,-0.00805,0.01989,0.99094,7.96665,0.00000
10:26:16.676564,7.98532,0.00561,-0.05653,-20.16162,-0.59651,0.80811,-0.00045,-0.00225,-0.00720,0.02330,0.99088,7.97659,0.00488
10:26:16.688482,7.99723,0.00717,-0.06445,-20.16162,-0.60525,0.80811,0.00123,-0.00149,-0.00439,0.02184,0.99247,7.98757,0.00000
10:26:16.698086,8.00617,0.00574,-0.07276,-20.16162,-0.55276,0.80811,0.00139,0.00080,-0.00409,0.01976,0.99125,7.99729,0.00488
10:26:16.707588,8.01635,0.00570,-0.07857,-20.16162,-0.43901,0.80811,0.00032,0.00096,-0.00610,0.02166,0.98936,8.00789,0.00000
10:26:16.717826,8.02658,0.00574,-0.08298,-20.16162,-0.57900,0.80811,-0.00121,0.00096,-0.00714,0.02458,0.98991,8.01806,0.00000
10:26:16.728597,8.03734,0.00597,-0.09278,-20.16162,-0.81526,0.80811,0.00200,0.00157,-0.00720,0.02098,0.98893,8.02822,0.00000
10:26:16.739220,8.04797,0.00618,-0.09837,-20.16162,-0.43901,0.80811,-0.00136,0.00065,-0.01159,0.02159,0.99003,8.03887,0.00000
10:26:16.749251,8.05801,0.00602,-0.10629,-20.16162,-0.74526,0.80811,0.00078,0.00111,-0.00945,0.02196,0.98869,8.04888,0.00000
10:26:16.760587,8.06933,0.00639,-0.11354,-20.16162,-0.74526,0.80811,0.00001,0.00157,-0.01251,0.02361,0.98869,8.06010,0.00488
10:26:16.771379,8.07944,0.00613,-0.12532,-20.16162,-0.80651,0.80811,-0.00533,0.00065,-0.01397,0.01873,0.98924,8.07096,0.00244
10:26:16.780175,8.08893,0.00543,-0.13093,-20.16162,-0.85901,0.80811,0.00307,-0.00072,-0.01549,0.02501,0.99003,8.08050,0.00244
10:26:16.791287,8.10004,0.00632,-0.13730,-20.16162,-0.76276,0.80811,-0.00136,0.00386,-0.01806,0.02373,0.98905,8.09092,0.00000
10:26:16.801841,8.11059,0.00614,-0.14457,-20.16162,-0.82401,0.80811,0.00062,0.00096,-0.01836,0.02336,0.98680,8.10146,0.00488
10:26:16.811795,8.12055,0.00587,-0.15774,-20.16162,-1.10400,0.80811,-0.00106,0.00096,-0.02434,0.01958,0.98600,8.11184,0.00244
10:26:16.822081,8.13084,0.00580,-0.16495,-20.16162,-1.03401,0.80811,0.00047,-0.00042,-0.02135,0.02556,0.98893,8.12231,0.00000
10:26:16.833480,8.14222,0.00669,-0.17444,-20.16162,-1.04276,0.80811,0.00322,-0.00118,-0.02019,0.02336,0.98765,8.13318,0.00000
10:26:16.844045,8.15280,0.00650,-0.18476,-20.16324,-1.30526,0.81622,-0.00075,-0.00317,-0.02147,0.02495,0.98948,8.14367,0.00000
10:26:16.853915,8.16267,0.00600,-0.19682,-20.16324,-1.19151,0.81622,0.00032,-0.00179,-0.01867,0.02056,0.98979,8.15351,0.00000
10:26:16.864897,8.17365,0.00662,-0.20752,-20.16324,-1.34026,0.81622,-0.00121,-0.00103,-0.01531,0.02470,0.99119,8.16408,0.00244
10:26:16.874824,8.18356,0.00633,-0.21786,-20.16324,-1.36651,0.81622,0.00261,-0.00118,-0.01366,0.02489,0.98991,8.17443,0.00488
10:26:16.884174,8.19293,0.00533,-0.22826,-20.16324,-1.13901,0.81622,0.00001,-0.00210,-0.01208,0.02159,0.99198,8.18446,0.00000
10:26:16.895979,8.20474,0.00677,-0.24210,-20.16324,-1.55025,0.81622,0.00154,0.00111,-0.00988,0.02300,0.99015,8.19501,0.00000
10:26:16.905570,8.21431,0.00598,-0.25324,-20.16324,-1.41026,0.81622,0.00123,-0.00042,-0.01202,0.02367,0.99192,8.20520,0.00977
10:26:16.916199,8.22421,0.00552,-0.26582,-20.16324,-1.48026,0.81622,0.00368,0.00035,-0.01061,0.02324,0.99235,8.21575,0.00244
10:26:16.927089,8.23583,0.00673,-0.28592,-20.16324,-1.48026,0.81622,-0.00365,0.00309,-0.01013,0.01421,0.98893,8.22626,0.00000
10:26:16.936740,8.24549,0.00608,-0.29973,-20.16324,-1.54151,0.81622,0.00108,0.00264,-0.00634,0.02123,0.99040,8.23640,0.00000
10:26:16.947245,8.25599,0.00637,-0.31575,-20.16486,-1.56776,0.82432,0.00169,0.00355,-0.00726,0.01928,0.98936,8.24685,0.00000
10:26:16.957066,8.26581,0.00599,-0.32983,-20.16486,-1.58526,0.82432,-0.00075,0.00340,-0.00708,0.02037,0.98954,8.25671,0.00244
10:26:16.968343,8.27709,0.00691,-0.34871,-20.16486,-1.64651,0.82432,-0.00090,-0.00042,-0.00708,0.01793,0.99149,8.26796,0.00000
10:26:16.977764,8.28651,0.00596,-0.36262,-20.16486,-1.51526,0.82432,0.00047,0.00264,-0.01013,0.01848,0.98930,8.27740,0.00000
10:26:16.989941,8.29869,0.00717,-0.38245,-20.16486,-1.70776,0.82432,0.00169,0.00493,-0.01098,0.01751,0.98759,8.28892,0.00000
10:26:17.000489,8.30924,0.00688,-0.40064,-20.16486,-1.74276,0.82432,-0.00335,0.00248,-0.01379,0.01897,0.99143,8.30014,0.00488
10:26:17.009939,8.31868,0.00613,-0.41732,-20.16486,-1.79526,0.82432,0.00078,0.00065,-0.01232,0.01732,0.98857,8.30954,0.00000
10:26:17.021375,8.32943,0.00651,-0.43528,-20.16486,-1.70776,0.82432,0.00093,0.00447,-0.01659,0.01867,0.98905,8.32103,0.00000
10:26:17.030675,8.33942,0.00614,-0.45508,-20.16486,-1.81276,0.82432,-0.00090,-0.00042,-0.01568,0.01311,0.99143,8.33031,0.00000
10:26:17.041728,8.35048,0.00688,-0.47745,-20.16486,-1.80401,0.82432,-0.00045,0.00019,-0.01897,0.01324,0.98850,8.34134,0.00000
10:26:17.051305,8.36006,0.00625,-0.49437,-20.16486,-1.58526,0.82432,0.00368,0.00096,-0.01806,0.01391,0.98741,8.35098,0.00000
10:26:17.061389,8.37014,0.00597,-0.51327,-20.16486,-1.69026,0.82432,0.00062,0.00432,-0.02043,0.01324,0.98808,8.36103,0.00000
10:26:17.072476,8.38122,0.00669,-0.53409,-20.16486,-1.64651,0.82432,0.00123,0.00126,-0.02043,0.01220,0.99107,8.37211,0.00000
10:26:17.082634,8.39138,0.00617,-0.55376,-20.16486,-1.87401,0.82432,-0.00090,0.00264,-0.01921,0.01397,0.98936,8.38224,0.00000
10:26:17.092288,8.40104,0.00535,-0.57320,-20.16486,-1.84776,0.82432,0.00673,0.00218,-0.01745,0.01403,0.98814,8.39259,0.00000
10:26:17.104117,8.41286,0.00632,-0.59263,-20.16486,-1.70776,0.82432,0.00505,-0.00057,-0.01854,0.01366,0.99235,8.40373,0.00000
10:26:17.115105,8.42386,0.00647,-0.61196,-20.16486,-1.52401,0.82432,0.00154,-0.00027,-0.01610,0.01159,0.98820,8.41518,0.00000
10:26:17.127059,8.43579,0.00821,-0.63231,-20.16486,-1.68151,0.82432,0.00322,-0.00057,-0.01592,0.01232,0.98783,8.42672,0.00000
10:26:17.135901,8.44466,0.00672,-0.64658,-20.16486,-1.53276,0.82432,0.00154,-0.00103,-0.01391,0.01135,0.98832,8.43501,0.00000
10:26:17.145558,8.45430,0.00600,-0.66515,-20.16486,-1.42776,0.82432,0.00291,0.00035,-0.01214,0.00817,0.98918,8.44514,0.00000
10:26:17.156375,8.46513,0.00648,-0.68536,-20.16486,-1.48026,0.82432,0.00322,-0.00057,-0.01251,0.00769,0.99094,8.45593,0.00000
10:26:17.166465,8.47503,0.00602,-0.70354,-20.16486,-1.32276,0.82432,0.00490,0.00035,-0.01379,0.00677,0.99253,8.46607,0.00000
10:26:17.176749,8.48550,0.00601,-0.71943,-20.16486,-1.20900,0.82432,0.00032,-0.00179,-0.01068,0.00799,0.99204,8.47635,0.00000
10:26:17.187425,8.49617,0.00627,-0.73968,-20.16486,-1.25276,0.82432,0.00123,0.00065,-0.00982,0.00384,0.98979,8.48709,0.00000
10:26:17.199338,8.50711,0.00658,-0.75853,-20.16486,-1.19151,0.82432,0.00169,-0.00286,-0.00921,0.00482,0.99101,8.49817,0.00000
10:26:17.208568,8.51702,0.00613,-0.77278,-20.16486,-1.13026,0.82432,0.00139,-0.00240,-0.01183,0.00732,0.98979,8.50793,0.00000
10:26:17.218781,8.52753,0.00628,-0.78522,-20.16486,-1.14776,0.82432,-0.00106,-0.00027,-0.01116,0.01092,0.99210,8.51887,0.00000
10:26:17.229699,8.53844,0.00700,-0.79762,-20.16486,-0.99901,0.82432,0.00337,-0.00469,-0.01177,0.00836,0.98741,8.52937,0.00000
10:26:17.240350,8.54910,0.00681,-0.80662,-20.16486,-1.04276,0.82432,0.00276,-0.00057,-0.01183,0.01196,0.98820,8.53934,0.00000
10:26:17.249972,8.55871,0.00605,-0.81808,-20.16486,-0.99026,0.82432,0.00215,-0.00042,-0.01372,0.00897,0.98796,8.54984,0.00000
10:26:17.260466,8.56922,0.00620,-0.82807,-20.16486,-0.96401,0.82432,0.00246,0.00080,-0.01555,0.00988,0.98997,8.56007,0.00000
10:26:17.271301,8.58002,0.00636,-0.84142,-20.16486,-1.13026,0.82432,0.00078,0.00065,-0.01769,0.00836,0.98692,8.57079,0.00000
10:26:17.281619,8.59037,0.00648,-0.84983,-20.16486,-0.83276,0.82432,0.00032,0.00080,-0.01940,0.00964,0.98942,8.58087,0.00244
10:26:17.292403,8.60039,0.00560,-0.85926,-20.16486,-0.89401,0.82432,0.00185,0.00096,-0.01848,0.01000,0.98881,8.59195,0.00000
10:26:17.302564,8.61112,0.00598,-0.87006,-20.16486,-0.99901,0.82432,0.00414,-0.00057,-0.02007,0.00866,0.98808,8.60221,0.00000
10:26:17.312844,8.62159,0.00600,-0.88008,-20.16486,-0.67525,0.82432,0.00261,0.00080,-0.01830,0.00561,0.99052,8.61246,0.00000
10:26:17.323521,8.63228,0.00605,-0.88819,-20.16486,-0.77151,0.82432,0.00169,0.00279,-0.01970,0.00952,0.98820,8.62360,0.00000
10:26:17.333778,8.64252,0.00610,-0.90127,-20.16486,-0.72776,0.82432,-0.00060,0.00233,-0.01897,0.00201,0.99192,8.63340,0.00000
10:26:17.345055,8.65378,0.00699,-0.91132,-20.16486,-0.61401,0.82432,0.00078,0.00187,-0.01562,0.00500,0.98606,8.64464,0.00000
10:26:17.355799,8.66455,0.00739,-0.91999,-20.16486,-0.45651,0.82432,-0.00182,0.00554,-0.01635,0.00421,0.99015,8.65548,0.00000
10:26:17.364908,8.67366,0.00624,-0.92800,-20.16486,-1.05151,0.82432,0.00093,0.00203,-0.01177,0.00988,0.99180,8.66441,0.00000
10:26:17.375236,8.68399,0.00620,-0.93541,-20.16486,-0.99026,0.82432,0.00215,0.00340,-0.01019,0.01153,0.99113,8.67487,0.00000
10:26:17.385255,8.69401,0.00603,-0.94061,-20.16486,-0.73651,0.82432,0.00398,0.00035,-0.01336,0.01055,0.99119,8.68487,0.00000
10:26:17.396518,8.70527,0.00692,-0.94880,-20.16486,-0.81526,0.82432,0.00017,-0.00210,-0.01287,0.00903,0.98832,8.69611,0.00000
10:26:17.405914,8.71466,0.00595,-0.95793,-20.16486,-0.86775,0.82432,-0.00350,-0.00301,-0.01159,0.00671,0.98844,8.70556,0.00000
10:26:17.416518,8.72527,0.00620,-0.97121,-20.16486,-1.00775,0.82432,0.00337,0.00080,-0.01336,0.00451,0.98863,8.71609,0.00000
10:26:17.426759,8.73549,0.00605,-0.98274,-20.16486,-0.78901,0.82432,0.00032,-0.00485,-0.01305,0.00348,0.98789,8.72638,0.00000
10:26:17.437955,8.74603,0.00639,-0.98851,-20.16486,-0.70151,0.82432,0.00230,0.00126,-0.01568,0.00945,0.98857,8.73739,0.00000
10:26:17.447326,8.75608,0.00623,-0.99206,-20.16486,-0.50901,0.82432,-0.00121,0.00233,-0.01574,0.00872,0.98826,8.74704,0.00000
10:26:17.457577,8.76633,0.00612,-0.99929,-20.16486,-0.60525,0.82432,0.00123,0.00355,-0.01275,0.00573,0.98802,8.75707,0.00000
10:26:17.468020,8.77678,0.00620,-1.00799,-20.16486,-0.75401,0.82432,-0.00106,0.00294,-0.01165,0.00610,0.99162,8.76764,0.00000
10:26:17.478484,8.78704,0.00610,-1.01450,-20.16486,-0.58776,0.82432,-0.00213,0.00187,-0.01372,0.00634,0.99052,8.77802,0.00488
10:26:17.488951,8.79769,0.00609,-1.02132,-20.16486,-0.44776,0.82432,-0.00213,0.00187,-0.01293,0.00433,0.99247,8.78858,0.00000
10:26:17.500295,8.80835,0.00573,-1.03208,-20.16486,-0.79776,0.82432,-0.00197,0.00111,-0.01244,0.00458,0.99162,8.79994,0.00000
10:26:17.511604,8.82036,0.00738,-1.03484,-20.16486,-0.50901,0.82432,-0.00045,0.00157,-0.01342,0.00964,0.99162,8.81084,0.00000
10:26:17.521263,8.83001,0.00634,-1.03819,-20.16486,-0.71025,0.82432,0.00200,0.00309,-0.01354,0.01049,0.98893,8.82066,0.00000
10:26:17.532186,8.84093,0.00690,-1.04569,-20.16486,-0.67525,0.82432,-0.00136,0.00279,-0.01421,0.00604,0.98881,8.83148,0.00000
10:26:17.541606,8.85035,0.00595,-1.05014,-20.16486,-0.84150,0.82432,0.00169,-0.00057,-0.01873,0.01043,0.98741,8.84125,0.00000
10:26:17.553435,8.86218,0.00673,-1.06315,-20.16486,-1.12150,0.82432,0.00200,-0.00042,-0.01665,0.00628,0.98887,8.85311,0.00000
10:26:17.563730,8.87248,0.00617,-1.07162,-20.16486,-0.99901,0.82432,0.00200,0.00050,-0.01885,0.00781,0.98820,8.86336,0.00000
10:26:17.573928,8.88268,0.00600,-1.08190,-20.16486,-0.79776,0.82432,0.00047,-0.00286,-0.02153,0.00317,0.98686,8.87353,0.00000
10:26:17.584974,8.89370,0.00667,-1.09423,-20.16486,-1.09526,0.82432,0.00078,-0.00027,-0.01940,0.00518,0.99021,8.88459,0.00000
10:26:17.594741,8.90348,0.00608,-1.10568,-20.16486,-1.37525,0.82432,0.00093,0.00050,-0.01568,0.00750,0.98875,8.89439,0.00244
10:26:17.604196,8.91296,0.00534,-1.11689,-20.16486,-1.20900,0.82432,0.00307,-0.00042,-0.01641,0.00616,0.98985,8.90448,0.00000
10:26:17.615755,8.92451,0.00625,-1.12722,-20.16486,-1.09526,0.82432,0.00047,0.00019,-0.01525,0.00677,0.99046,8.91545,0.00000
10:26:17.626966,8.93465,0.00617,-1.13663,-20.16486,-1.22651,0.82432,0.00047,0.00233,-0.01470,0.00848,0.98826,8.92586,0.00000
10:26:17.638000,8.94674,0.00764,-1.14888,-20.16486,-1.19151,0.82432,0.00246,0.00187,-0.01086,0.00622,0.98728,8.93744,0.00000
10:26:17.646740,8.95549,0.00618,-1.16149,-20.16486,-1.59401,0.82432,0.00185,0.00157,-0.01043,0.00616,0.98881,8.94641,0.00000
10:26:17.657031,8.96578,0.00613,-1.17594,-20.16486,-1.38400,0.82432,0.00414,0.00080,-0.01037,0.00360,0.98911,8.95659,0.00000
10:26:17.668292,8.97704,0.00655,-1.19372,-20.16486,-1.43651,0.82432,0.00108,0.00065,-0.01110,0.00201,0.99265,8.96793,0.00000
10:26:17.678063,8.98681,0.00596,-1.20280,-20.16486,-1.35776,0.82432,-0.00045,0.00172,-0.01135,0.00860,0.99027,8.97790,0.00000
10:26:17.688653,8.99740,0.00603,-1.21917,-20.16486,-1.63776,0.82432,0.00200,0.00248,-0.00982,0.00390,0.99033,8.98824,0.00000
10:26:17.699191,9.00794,0.00620,-1.23298,-20.16486,-1.34901,0.82432,0.00276,0.00309,-0.00976,0.00354,0.98899,8.99882,0.00000
10:26:17.710212,9.01896,0.00703,-1.25608,-20.16486,-1.68151,0.82432,0.00200,-0.00042,-0.01446,-0.00226,0.99033,9.00999,0.00000
10:26:17.719866,9.02837,0.00623,-1.26962,-20.16486,-1.27900,0.82432,0.00230,0.00218,-0.01635,0.00055,0.98972,9.01931,0.00000
10:26:17.730045,9.03880,0.00630,-1.28795,-20.16486,-1.43651,0.82432,-0.00136,0.00035,-0.01488,-0.00037,0.98759,9.03057,0.00000
10:26:17.740778,9.04954,0.00645,-1.30454,-20.16486,-1.83026,0.82432,-0.00182,0.00401,-0.01665,0.00488,0.98716,9.04114,0.00244
10:26:17.750140,9.05890,0.00545,-1.32216,-20.16486,-1.59401,0.82432,-0.00014,0.00157,-0.01562,-0.00177,0.99082,9.05039,0.00000
10:26:17.761370,9.07012,0.00605,-1.33904,-20.16486,-1.47151,0.82432,0.00154,0.00157,-0.01677,-0.00018,0.98881,9.06104,0.00000
10:26:17.771881,9.08063,0.00619,-1.35558,-20.16486,-1.55025,0.82432,0.00200,0.00080,-0.01684,0.00055,0.98875,9.07151,0.00000
10:26:17.781714,9.09047,0.00555,-1.36950,-20.16486,-1.41901,0.82432,0.00322,0.00065,-0.01525,0.00207,0.98674,9.08220,0.00000
10:26:17.792908,9.10166,0.00623,-1.38215,-20.16486,-1.37525,0.82432,0.00429,-0.00133,-0.01379,0.00207,0.98997,9.09244,0.00244
10:26:17.803266,9.11202,0.00623,-1.40094,-20.16486,-1.64651,0.82432,0.00200,-0.00133,-0.01623,-0.00037,0.98789,9.10359,0.00000
10:26:17.814468,9.12302,0.00703,-1.41528,-20.16486,-1.40151,0.82432,0.00322,-0.00027,-0.01745,0.00037,0.98539,9.11413,0.00000
10:26:17.823943,9.13269,0.00650,-1.43071,-20.16486,-1.52401,0.82432,0.00291,0.00050,-0.01800,-0.00152,0.98979,9.12360,0.00000
10:26:17.834247,9.14300,0.00610,-1.44757,-20.16486,-1.64651,0.82432,0.00246,0.00096,-0.01848,-0.00006,0.99180,9.13418,0.00244
10:26:17.845052,9.15380,0.00670,-1.46244,-20.16486,-1.41026,0.82432,0.00307,-0.00057,-0.01958,-0.00177,0.98966,9.14421,0.00000
10:26:17.854601,9.16311,0.00537,-1.47862,-20.16486,-1.35776,0.82432,0.00032,0.00279,-0.01549,-0.00317,0.99076,9.15485,0.00000
10:26:17.866622,9.17510,0.00708,-1.49257,-20.16486,-1.24401,0.82432,0.00459,0.00218,-0.01659,-0.00244,0.99082,9.16537,0.00244
10:26:17.876171,9.18492,0.00669,-1.50791,-20.16486,-1.32276,0.82432,-0.00243,0.00309,-0.01464,-0.00342,0.98918,9.17584,0.00000
10:26:17.886720,9.19546,0.00688,-1.52263,-20.16486,-1.05151,0.82432,0.00078,0.00141,-0.01574,-0.00610,0.98722,9.18638,0.00000
10:26:17.895681,9.20444,0.00550,-1.53719,-20.16486,-1.22651,0.82432,-0.00182,0.00203,-0.01330,-0.00537,0.98985,9.19600,0.00000
10:26:17.906104,9.21486,0.00545,-1.55160,-20.16486,-1.08651,0.82432,-0.00060,0.00248,-0.01275,-0.00573,0.98722,9.20661,0.00733
10:26:17.918691,9.22742,0.00726,-1.56605,-20.16486,-0.99026,0.82432,0.00078,0.00371,-0.01055,-0.00610,0.98991,9.21820,0.00000
10:26:17.927934,9.23669,0.00616,-1.57866,-20.16486,-0.99901,0.82432,0.00032,0.00737,-0.00970,-0.00659,0.98911,9.22760,0.00244
10:26:17.938213,9.24695,0.00616,-1.58807,-20.16486,-0.85026,0.82432,0.00215,0.00203,-0.00701,-0.00378,0.99070,9.23797,0.00000
10:26:17.948134,9.25689,0.00574,-1.59965,-20.16486,-0.92901,0.82432,0.00566,-0.00240,-0.01019,-0.00567,0.98936,9.24819,0.00488
10:26:17.958924,9.26767,0.00617,-1.61328,-20.16649,-0.79776,0.83243,-0.00029,-0.00408,-0.01232,-0.00964,0.99119,9.25856,0.00000
10:26:17.969584,9.27833,0.00600,-1.62625,-20.16649,-0.70151,0.83243,0.00093,-0.00240,-0.01141,-0.01000,0.99009,9.26921,0.00488
10:26:17.981338,9.29009,0.00674,-1.63671,-20.16649,-0.46526,0.83243,-0.00213,-0.00088,-0.01287,-0.00958,0.98887,9.28101,0.00000
10:26:17.991200,9.29995,0.00617,-1.63975,-20.16649,-0.34276,0.83243,-0.00365,-0.00301,-0.01592,-0.00360,0.98869,9.29089,0.01221
10:26:18.001265,9.31002,0.00604,-1.64557,-20.16649,-0.40401,0.83243,0.00047,0.00111,-0.02068,-0.00610,0.98710,9.30088,0.00244
10:26:18.012313,9.32106,0.00672,-1.65015,-20.16649,-0.21151,0.83243,-0.00136,0.00126,-0.02031,-0.00671,0.98765,9.31191,0.00000
10:26:18.022802,9.33155,0.00685,-1.65346,-20.16649,-0.24651,0.83243,-0.00029,0.00203,-0.02233,-0.00506,0.99040,9.32241,0.00000
10:26:18.032544,9.34130,0.00624,-1.65794,-20.16649,-0.11526,0.83243,0.00185,0.00264,-0.02135,-0.00811,0.98911,9.33211,0.00000
10:26:18.043330,9.35143,0.00601,-1.66337,-20.16649,-0.12401,0.83243,0.00017,-0.00072,-0.02092,-0.00909,0.98838,9.34245,0.00000
10:26:18.052371,9.36113,0.00539,-1.66617,-20.16649,0.14725,0.83243,-0.00258,0.00355,-0.01903,-0.00933,0.98899,9.35272,0.00000
10:26:18.063260,9.37202,0.00608,-1.66507,-20.16649,0.36600,0.83243,0.00001,0.00279,-0.02025,-0.00769,0.98832,9.36358,0.00000
10:26:18.073740,9.38249,0.00583,-1.66554,-20.16649,0.22600,0.83243,-0.00411,-0.00072,-0.01635,-0.00769,0.98789,9.37423,0.01465
10:26:18.084891,9.39364,0.00677,-1.66667,-20.16649,0.22600,0.83243,-0.00243,-0.00133,-0.01360,-0.00836,0.98716,9.38453,0.00733
10:26:18.095023,9.40377,0.00670,-1.66515,-20.16649,0.18225,0.83243,-0.00060,-0.00210,-0.01208,-0.00476,0.98863,9.39446,0.00000
10:26:18.104835,9.41291,0.00543,-1.66588,-20.16649,0.12100,0.83243,-0.00045,-0.00271,-0.01092,-0.00665,0.98905,9.40448,0.00244
10:26:18.115932,9.42468,0.00685,-1.66527,-20.16649,0.36600,0.83243,-0.00289,-0.00149,-0.01251,-0.00811,0.99131,9.41498,0.00000
10:26:18.126462,9.43502,0.00699,-1.66280,-20.16649,0.34850,0.83243,-0.00213,-0.00378,-0.01037,-0.00598,0.99009,9.42609,0.00488
10:26:18.136605,9.44535,0.00696,-1.66040,-20.16649,0.42725,0.83243,0.00322,-0.00408,-0.00994,-0.00616,0.98918,9.43547,0.00488
10:26:18.147591,9.45635,0.00760,-1.65834,-20.16649,0.33975,0.83243,-0.00029,-0.00286,-0.01031,-0.00610,0.98905,9.44619,0.00244
10:26:18.157082,9.46582,0.00608,-1.65248,-20.16649,0.36600,0.83243,-0.00258,-0.00469,-0.01379,-0.00195,0.99149,9.45673,0.00000
10:26:18.168094,9.47685,0.00674,-1.64417,-20.16649,0.46225,0.83243,0.00154,-0.00179,-0.01189,-0.00037,0.98625,9.46766,0.00488
10:26:18.177723,9.48576,0.00530,-1.64126,-20.16811,0.61100,0.83243,0.00154,-0.00271,-0.01659,-0.00738,0.98588,9.47732,0.00000
10:26:18.188312,9.49634,0.00551,-1.63538,-20.16811,0.66350,0.84054,-0.00075,0.00126,-0.01635,-0.00518,0.99027,9.48786,0.00000
10:26:18.198561,9.50712,0.00608,-1.62522,-20.16811,0.66350,0.84054,-0.00151,0.00019,-0.01537,0.00000,0.98869,9.49822,0.00244
10:26:18.209409,9.51815,0.00663,-1.61481,-20.16811,0.60225,0.84054,0.00062,-0.00240,-0.01690,0.00128,0.99058,9.50904,0.00488
10:26:18.219853,9.52861,0.00673,-1.60850,-20.16811,0.48849,0.84054,-0.00045,0.00233,-0.01696,-0.00195,0.98814,9.51927,0.00733
10:26:18.229965,9.53871,0.00662,-1.60147,-20.16811,0.67225,0.84054,0.00093,0.00111,-0.01781,-0.00281,0.99027,9.52904,0.00000
10:26:18.240594,9.54935,0.00664,-1.59506,-20.16811,0.66350,0.84054,-0.00274,0.00035,-0.01580,-0.00476,0.99009,9.54075,0.00977
10:26:18.251710,9.56046,0.00712,-1.58926,-20.16811,0.43600,0.84054,0.00047,0.00218,-0.01263,-0.00189,0.98808,9.55157,0.00000
10:26:18.261555,9.57030,0.00662,-1.58352,-20.16811,0.52349,0.84054,-0.00289,0.00111,-0.01769,-0.00226,0.99064,9.56125,0.00244
10:26:18.271942,9.58069,0.00665,-1.58093,-20.16811,0.13850,0.84054,0.00078,0.00248,-0.01409,-0.00159,0.99021,9.57108,0.00000
10:26:18.281681,9.59043,0.00601,-1.57708,-20.16811,0.09475,0.84054,0.00062,-0.00042,-0.01714,0.00037,0.98985,9.58128,0.00977
10:26:18.293107,9.60117,0.00639,-1.56938,-20.16811,0.33100,0.84054,0.00276,0.00035,-0.01531,0.00165,0.98826,9.59275,0.00000
10:26:18.302632,9.61137,0.00625,-1.56703,-20.16811,0.19100,0.84054,-0.00121,-0.00271,-0.01513,-0.00213,0.98759,9.60230,0.00000
10:26:18.312919,9.62166,0.00607,-1.56380,-20.16811,0.21725,0.84054,0.00490,-0.00378,-0.01403,-0.00152,0.98674,9.61247,0.00000
10:26:18.324595,9.63334,0.00738,-1.56003,-20.16811,0.23475,0.84054,-0.00243,-0.00240,-0.01726,-0.00140,0.98936,9.62401,0.00000
10:26:18.333450,9.64219,0.00604,-1.56154,-20.16811,-0.08026,0.84054,0.00093,0.00187,-0.01885,-0.00354,0.99204,9.63314,0.00000
10:26:18.344632,9.65339,0.00687,-1.56224,-20.16811,0.00725,0.84054,-0.00045,-0.00057,-0.01513,-0.00354,0.98875,9.64497,0.00000
10:26:18.355966,9.66472,0.00719,-1.56023,-20.16811,0.26100,0.84054,0.00185,-0.00057,-0.01348,-0.00348,0.98863,9.65557,0.00000
10:26:18.366111,9.67484,0.00703,-1.55336,-20.16973,0.30475,0.84865,-0.00350,0.00355,-0.01434,0.00183,0.98820,9.66557,0.00488
10:26:18.375571,9.68432,0.00630,-1.55121,-20.16973,0.18225,0.84865,-0.00090,0.00401,-0.01397,-0.00201,0.98747,9.67521,0.00000
10:26:18.385758,9.69450,0.00612,-1.55259,-20.16973,0.12100,0.84865,0.00062,0.00004,-0.01287,-0.00543,0.99113,9.68524,0.00000
10:26:18.396430,9.70519,0.00623,-1.55346,-20.16973,-0.07150,0.84865,-0.00075,-0.00027,-0.01324,-0.00262,0.99003,9.69600,0.00000
10:26:18.407477,9.71623,0.00626,-1.55223,-20.16973,0.06850,0.84865,0.00429,0.00279,-0.01092,-0.00195,0.99204,9.70714,0.00000
10:26:18.417588,9.72634,0.00543,-1.55036,-20.16973,0.20850,0.84865,-0.00472,0.00294,-0.01269,-0.00293,0.99076,9.71809,0.00000
10:26:18.429299,9.73804,0.00617,-1.54878,-20.16973,0.17350,0.84865,-0.00396,0.00035,-0.01202,-0.00275,0.98850,9.72886,0.00000
10:26:18.440086,9.74884,0.00629,-1.55074,-20.16973,-0.16776,0.84865,0.00169,0.00035,-0.01189,-0.00262,0.99064,9.73970,0.00000
10:26:18.449394,9.75815,0.00538,-1.54809,-20.16973,-0.05401,0.84865,0.00078,-0.00317,-0.01513,0.00122,0.99143,9.74988,0.00000
10:26:18.460923,9.76966,0.00653,-1.54757,-20.16973,0.08600,0.84865,-0.00289,-0.00210,-0.01586,-0.00281,0.98777,9.76016,0.00000
10:26:18.470750,9.77949,0.00616,-1.55256,-20.16973,-0.09776,0.84865,-0.00182,-0.00179,-0.01623,-0.00701,0.99040,9.77043,0.00000
10:26:18.481538,9.79028,0.00667,-1.55555,-20.16973,-0.04526,0.84865,0.00017,-0.00240,-0.01775,-0.00537,0.98875,9.78118,0.00000
10:26:18.491353,9.80009,0.00610,-1.55382,-20.16973,0.19100,0.84865,-0.00045,0.00172,-0.01854,-0.00268,0.98777,9.79103,0.00000
10:26:18.501661,9.81040,0.00599,-1.55484,-20.16973,-0.05401,0.84865,-0.00472,-0.00271,-0.01879,-0.00305,0.98857,9.80126,0.00000
10:26:18.512226,9.82098,0.00621,-1.55411,-20.16973,0.06850,0.84865,-0.00075,-0.00088,-0.01616,-0.00250,0.98948,9.81181,0.00000
10:26:18.523652,9.83147,0.00634,-1.55289,-20.16973,0.16475,0.84865,-0.00258,0.00096,-0.01824,-0.00311,0.99326,9.82245,0.00000
10:26:18.533850,9.84260,0.00701,-1.55263,-20.16973,-0.01026,0.84865,-0.00060,-0.00027,-0.01702,-0.00207,0.98979,9.83314,0.00000
10:26:18.543400,9.85212,0.00632,-1.54986,-20.16973,0.28725,0.84865,0.00108,-0.00179,-0.01409,-0.00250,0.98960,9.84299,0.00000
10:26:18.553767,9.86250,0.00634,-1.54974,-20.16973,0.07725,0.84865,0.00032,-0.00088,-0.01092,-0.00317,0.98838,9.85300,0.00000
10:26:18.564773,9.87352,0.00614,-1.54939,-20.16973,0.00725,0.84865,-0.00213,0.00279,-0.01452,-0.00213,0.99033,9.86433,0.00000
10:26:18.575241,9.88310,0.00535,-1.54805,-20.16973,-0.05401,0.84865,-0.00213,0.00340,-0.00927,-0.00024,0.98948,9.87482,0.00000
