Description :  ; walk_time = 2.0 ; speed_up_time = 3.0 ; balancing_time = 0.0
RealTime,Time,CalculationTime,Roll,SteeringAngle,RollRate,ControlInput,gy,gz,ax,ay,az,imu_read_timing,SteerMotorCurrent
09:02:36.004716,0.00970,0.00968,0.00000,0.00000,0.00019,0.00056,0.00316,-0.00102,-0.00384,-0.07424,0.98405,0.00001,0.07082
09:02:36.013323,0.01834,0.00747,0.00000,0.00000,-0.00058,-0.00173,-0.00066,0.00234,-0.00488,-0.07631,0.98423,0.01014,0.11233
09:02:36.023119,0.02814,0.00652,0.00000,0.00000,0.00080,0.00239,0.00072,-0.00193,-0.00268,-0.07436,0.98423,0.02025,0.13675
09:02:36.034581,0.03957,0.00759,0.00000,0.00000,0.00202,0.00606,0.00011,-0.00025,-0.00079,-0.07533,0.98362,0.03032,0.17094
09:02:36.044022,0.04884,0.00650,0.00000,0.00000,0.00217,0.00652,-0.00005,-0.00147,-0.00378,-0.07759,0.98411,0.04047,0.16361
09:02:36.053906,0.05892,0.00621,0.00000,0.00000,-0.00027,-0.00081,0.00072,0.00219,-0.00470,-0.07515,0.98381,0.05117,0.15629
09:02:36.065271,0.07027,0.00730,0.00000,0.00000,-0.00333,-0.00998,-0.00173,0.00158,-0.00573,-0.07259,0.98308,0.06133,0.17582
09:02:36.075459,0.08048,0.00703,0.00000,0.00000,-0.00103,-0.00310,0.00057,-0.00193,-0.00409,-0.07393,0.98527,0.07246,0.16361
09:02:36.086069,0.09106,0.00726,0.00000,0.00000,-0.00210,-0.00631,0.00041,-0.00224,-0.00525,-0.07588,0.98509,0.08211,0.15629
09:02:36.095566,0.10056,0.00640,0.00000,0.00000,0.00034,0.00102,0.00072,-0.00285,-0.00232,-0.07472,0.98320,0.09226,0.15140
09:02:36.106165,0.11117,0.00665,0.00000,0.00000,0.00217,0.00652,0.00331,-0.00239,-0.00476,-0.07564,0.98594,0.10287,0.16606
09:02:36.116680,0.12167,0.00679,0.00000,0.00000,-0.00256,-0.00769,0.00224,-0.00117,-0.00518,-0.07674,0.98484,0.11318,0.16361
09:02:36.126032,0.13105,0.00580,0.00000,0.00000,-0.00073,-0.00219,0.00362,0.00219,-0.00299,-0.07588,0.98606,0.12343,0.15385
09:02:36.136536,0.14155,0.00594,0.00000,0.00000,0.00034,0.00102,0.00072,-0.00117,-0.00445,-0.07619,0.98369,0.13390,0.15629
09:02:36.147607,0.15263,0.00682,0.00000,0.00000,-0.00119,-0.00356,0.00072,-0.00071,-0.00561,-0.07485,0.98600,0.14518,0.16850
09:02:36.158185,0.16319,0.00674,0.00000,0.00000,-0.00012,-0.00036,-0.00264,0.00112,-0.00323,-0.07570,0.98344,0.15488,0.16606
09:02:36.167514,0.17254,0.00588,0.00000,0.00000,-0.00027,-0.00081,0.00408,-0.00224,-0.00445,-0.07527,0.98362,0.16507,0.17094
09:02:36.178736,0.18374,0.00688,0.00000,0.00000,0.00187,0.00560,-0.00127,-0.00163,-0.00445,-0.07460,0.98247,0.17544,0.15873
09:02:36.189352,0.19383,0.00676,0.00000,0.00000,-0.00195,-0.00585,0.00347,0.00173,-0.00342,-0.07601,0.98430,0.18547,0.17094
09:02:36.199394,0.20413,0.00669,0.00000,0.00000,-0.00088,-0.00265,-0.00295,-0.00040,-0.00470,-0.07503,0.98466,0.19586,0.17094
09:02:36.209651,0.21466,0.00690,0.00000,0.00000,-0.00027,-0.00081,0.00087,-0.00086,-0.00439,-0.07613,0.98423,0.20611,0.15873
09:02:36.218893,0.22391,0.00596,0.00000,0.00000,-0.00317,-0.00952,0.00026,-0.00025,-0.00464,-0.07497,0.98369,0.21628,0.15873
09:02:36.229718,0.23473,0.00656,0.00000,0.00000,-0.00195,-0.00585,0.00102,-0.00163,-0.00177,-0.07466,0.98484,0.22662,0.17827
09:02:36.240116,0.24490,0.00564,0.00000,0.00000,-0.00348,-0.01043,0.00057,0.00112,-0.00421,-0.07601,0.98399,0.23747,0.17094
09:02:36.251404,0.25639,0.00693,0.00000,0.00000,-0.00103,-0.00310,-0.00371,-0.00208,-0.00348,-0.07491,0.98436,0.24759,0.15873
09:02:36.261732,0.26674,0.00679,0.00000,0.00000,-0.00226,-0.00677,-0.00081,-0.00086,-0.00403,-0.07662,0.98558,0.25841,0.16606
09:02:36.271267,0.27628,0.00585,0.00000,0.00000,0.00095,0.00285,0.00194,0.00066,-0.00464,-0.07540,0.98423,0.26863,0.16606
09:02:36.283722,0.28874,0.00683,0.00000,0.00000,0.00385,0.01156,0.00026,0.00066,-0.00421,-0.07418,0.98283,0.28048,0.18071
09:02:36.293856,0.29887,0.00649,0.00000,0.00000,-0.00088,-0.00265,0.00392,-0.00376,-0.00244,-0.07363,0.98125,0.29124,0.16606
09:02:36.303818,0.30883,0.00594,0.00000,0.00000,-0.00165,-0.00494,0.00041,-0.00163,-0.00384,-0.07405,0.98356,0.30131,0.17338
09:02:36.315111,0.32011,0.00670,0.00000,0.00000,0.00324,0.00972,0.00240,-0.00193,-0.00305,-0.07631,0.98405,0.31153,0.16361
09:02:36.326296,0.33132,0.00755,0.00000,0.00000,-0.00256,-0.00769,0.00026,-0.00270,-0.00390,-0.07540,0.98722,0.32308,0.17582
09:02:36.337936,0.34295,0.00883,0.00000,0.00000,0.00049,0.00148,0.00362,-0.00040,-0.00445,-0.07662,0.98405,0.33411,0.16361
09:02:36.346555,0.35157,0.00727,0.00000,0.00000,-0.00195,-0.00585,-0.00356,0.00112,-0.00390,-0.07576,0.98515,0.34319,0.16606
09:02:36.356925,0.36127,0.00641,0.00000,0.00000,-0.00149,-0.00448,0.00270,-0.00208,-0.00250,-0.07332,0.98344,0.35357,0.16361
09:02:36.367519,0.37253,0.00758,0.00000,0.00000,0.00171,0.00514,-0.00066,-0.00224,-0.00299,-0.07399,0.98667,0.36406,0.16606
09:02:36.377881,0.38289,0.00698,0.00000,0.00000,0.00400,0.01201,0.00240,-0.00147,-0.00494,-0.07503,0.98448,0.37454,0.16850
09:02:36.387086,0.39210,0.00583,0.00000,0.00000,0.00263,0.00789,0.00148,-0.00178,-0.00262,-0.07607,0.98423,0.38437,0.16606
09:02:36.398076,0.40309,0.00661,0.00000,0.00000,-0.00058,-0.00173,0.00163,-0.00010,-0.00506,-0.07607,0.98369,0.39547,0.17338
09:02:36.408606,0.41362,0.00678,0.00000,0.00000,-0.00058,-0.00173,0.00179,-0.00086,-0.00268,-0.07472,0.98186,0.40598,0.17094
09:02:36.418870,0.42387,0.00650,0.00000,0.00000,-0.00165,-0.00494,0.00301,0.00036,-0.00427,-0.07588,0.98454,0.41559,0.16606
09:02:36.430550,0.43554,0.00781,0.00000,0.00000,-0.00546,-0.01639,-0.00203,-0.00102,-0.00329,-0.07655,0.98509,0.42699,0.16117
09:02:36.440497,0.44549,0.00672,0.00000,0.00000,-0.00180,-0.00540,-0.00234,0.00143,-0.00543,-0.07338,0.98369,0.43719,0.16361
09:02:36.450863,0.45511,0.00586,0.00000,0.00000,-0.00226,-0.00677,0.00041,-0.00117,-0.00378,-0.07503,0.98350,0.44749,0.16850
09:02:36.461203,0.46622,0.00675,0.00000,0.00000,-0.00271,-0.00814,0.00102,-0.00208,-0.00366,-0.07399,0.98661,0.45790,0.17338
09:02:36.471142,0.47616,0.00650,0.00000,0.00000,0.00034,0.00102,0.00255,-0.00117,-0.00348,-0.07527,0.98564,0.46850,0.16606
09:02:36.482453,0.48746,0.00743,0.00000,0.00000,-0.00103,-0.00310,0.00438,0.00494,-0.00458,-0.07168,0.98491,0.47912,0.16361
09:02:36.491327,0.49635,0.00585,0.00000,0.00000,-0.00180,-0.00540,-0.00005,0.00128,-0.00189,-0.07692,0.98362,0.48890,0.16850
09:02:36.503183,0.50750,0.00681,0.00000,0.00000,-0.00348,-0.01043,0.00148,-0.00010,-0.00537,-0.07533,0.98173,0.49989,0.17094
09:02:36.512628,0.51763,0.00671,0.00000,0.00000,-0.00073,-0.00219,0.00240,-0.00315,-0.00451,-0.07564,0.98509,0.50932,0.16117
09:02:36.523698,0.52869,0.00727,0.00000,0.00000,0.00034,0.00102,0.00347,-0.00025,-0.00329,-0.07533,0.98478,0.52036,0.17094
09:02:36.533437,0.53845,0.00683,0.00000,0.00000,0.00110,0.00331,0.00209,0.00005,-0.00427,-0.07338,0.98301,0.53070,0.15873
09:02:36.544483,0.54947,0.00766,0.00000,0.00000,0.00156,0.00468,-0.00295,-0.00224,-0.00305,-0.07582,0.98369,0.54117,0.16850
09:02:36.554162,0.55917,0.00666,0.00000,0.00000,0.00263,0.00789,-0.00188,0.00173,-0.00366,-0.07540,0.98454,0.55083,0.15873
09:02:36.564537,0.56953,0.00681,0.00000,0.00000,-0.00103,-0.00310,-0.00035,-0.00331,-0.00439,-0.07460,0.98454,0.56116,0.17827
09:02:36.575471,0.58048,0.00718,0.00000,0.00000,0.00278,0.00835,0.00270,0.00051,-0.00299,-0.07479,0.98393,0.57194,0.16117
09:02:36.586482,0.59147,0.00761,0.00000,0.00000,-0.00149,-0.00448,0.00331,0.00021,-0.00366,-0.07649,0.98356,0.58223,0.16117
09:02:36.596087,0.60089,0.00667,0.00000,0.00000,-0.00165,-0.00494,0.00102,0.00158,-0.00275,-0.07546,0.98338,0.59232,0.16606
09:02:36.607010,0.61201,0.00743,0.00000,0.00000,0.00049,0.00148,0.00286,-0.00102,-0.00244,-0.07704,0.98448,0.60366,0.15629
09:02:36.616632,0.62162,0.00675,0.00000,0.00000,0.00110,0.00331,-0.00310,0.00082,-0.00653,-0.07418,0.98393,0.61335,0.15873
09:02:36.626772,0.63178,0.00639,0.00000,0.00000,-0.00424,-0.01273,0.00179,0.00158,-0.00342,-0.07271,0.98247,0.62349,0.16850
09:02:36.636706,0.64172,0.00610,0.00000,0.00000,0.00065,0.00194,0.00026,-0.00224,-0.00518,-0.07674,0.98472,0.63410,0.15873
09:02:36.648109,0.65291,0.00709,0.00000,0.00000,-0.00149,-0.00448,0.00057,0.00158,-0.00366,-0.07454,0.98417,0.64458,0.17094
09:02:36.658333,0.66335,0.00718,0.00000,0.00000,0.00003,0.00010,-0.00005,-0.00468,-0.00311,-0.07558,0.98484,0.65553,0.16606
09:02:36.668632,0.67363,0.00725,0.00000,0.00000,-0.00149,-0.00448,0.00072,0.00158,-0.00476,-0.07515,0.98064,0.66455,0.16361
09:02:36.678956,0.68397,0.00672,0.00000,0.00000,0.00156,0.00468,0.00194,-0.00224,-0.00275,-0.07674,0.98491,0.67631,0.16850
09:02:36.690580,0.69558,0.00797,0.00000,0.00000,-0.00119,-0.00356,0.00240,0.00112,-0.00366,-0.07546,0.98588,0.68710,0.16361
09:02:36.699823,0.70483,0.00687,0.00000,0.00000,-0.00042,-0.00127,0.00286,-0.00300,-0.00512,-0.07375,0.98411,0.69605,0.16850
09:02:36.709478,0.71449,0.00626,0.00000,0.00000,-0.00042,-0.00127,0.00133,0.00036,-0.00476,-0.07570,0.98594,0.70669,0.18071
09:02:36.720618,0.72561,0.00702,0.00000,0.00000,-0.00119,-0.00356,0.00224,0.00112,-0.00567,-0.07649,0.98350,0.71733,0.16117
09:02:36.731827,0.73603,0.00707,0.00000,0.00000,-0.00042,-0.00127,0.00790,-0.00254,-0.00293,-0.07448,0.98155,0.72840,0.15873
09:02:36.742081,0.74708,0.00793,0.00000,0.00000,-0.00119,-0.00356,-0.00020,0.00082,-0.00360,-0.07649,0.98545,0.73825,0.15873
09:02:36.751472,0.75647,0.00713,0.00000,0.00000,0.00019,0.00056,0.00057,-0.00178,-0.00415,-0.07613,0.98588,0.74817,0.16606
09:02:36.762018,0.76703,0.00733,0.00000,0.00000,0.00019,0.00056,0.00011,-0.00010,-0.00506,-0.07527,0.98594,0.75800,0.15873
09:02:36.771788,0.77680,0.00674,0.00000,0.00000,-0.00073,-0.00219,0.00255,-0.00071,-0.00354,-0.07509,0.98289,0.76814,0.15873
09:02:36.782020,0.78703,0.00661,0.00000,0.00000,0.00309,0.00927,0.00347,0.00143,-0.00366,-0.07466,0.98448,0.77873,0.15873
09:02:36.791779,0.79680,0.00610,0.00000,0.00000,-0.00623,-0.01868,0.00484,0.00066,-0.00665,-0.07607,0.98503,0.78936,0.16361
09:02:36.803799,0.80879,0.00755,0.00000,0.00000,0.00156,0.00468,-0.00096,0.00036,-0.00213,-0.07558,0.98722,0.79974,0.17338
09:02:36.814397,0.81940,0.00721,0.00000,0.00000,0.00126,0.00377,0.00484,0.00234,-0.00378,-0.07643,0.98552,0.81084,0.17338
09:02:36.824148,0.82896,0.00641,0.00000,0.00000,-0.00638,-0.01914,-0.00020,-0.00300,-0.00293,-0.07558,0.98369,0.82064,0.15873
09:02:36.835276,0.84029,0.00664,0.00000,0.00000,0.00049,0.00148,0.00133,-0.00102,-0.00256,-0.07552,0.98356,0.83187,0.16117
09:02:36.846152,0.85117,0.00716,0.00000,0.00000,-0.00287,-0.00860,0.00224,-0.00071,-0.00555,-0.07613,0.98326,0.84355,0.18803
09:02:36.855783,0.86080,0.00584,0.00000,0.00000,0.00126,0.00377,-0.00234,-0.00102,-0.00220,-0.07424,0.98417,0.85335,0.14652
09:02:36.867392,0.87213,0.00670,0.00000,0.00000,-0.00042,-0.00127,-0.00081,-0.00147,-0.00275,-0.07576,0.98253,0.86388,0.15873
09:02:36.878421,0.88342,0.00763,0.00000,0.00000,0.00156,0.00468,0.00240,0.00158,-0.00427,-0.07521,0.98430,0.87510,0.16361
09:02:36.888629,0.89360,0.00650,0.00000,0.00000,-0.00394,-0.01181,-0.00157,0.00097,-0.00323,-0.07558,0.98314,0.88533,0.16606
09:02:36.899053,0.90403,0.00673,0.00000,0.00000,-0.00241,-0.00723,0.00072,0.00021,-0.00506,-0.07625,0.98728,0.89571,0.17094
09:02:36.908959,0.91396,0.00712,0.00000,0.00000,0.00355,0.01064,-0.00081,-0.00056,-0.00268,-0.07576,0.98161,0.90570,0.17094
09:02:36.918746,0.92375,0.00640,0.00000,0.00000,-0.00103,-0.00310,-0.00005,-0.00224,-0.00323,-0.07558,0.98442,0.91546,0.17827
09:02:36.929288,0.93430,0.00659,0.00000,0.00000,0.00462,0.01385,0.00270,-0.00208,-0.00256,-0.07540,0.98552,0.92602,0.17094
09:02:36.941557,0.94588,0.00781,0.00000,0.00000,0.00324,0.00972,0.00194,-0.00147,-0.00372,-0.07521,0.98472,0.93766,0.16606
09:02:36.950615,0.95562,0.00733,0.00000,0.00000,-0.00058,-0.00173,0.00011,-0.00132,-0.00311,-0.07680,0.98271,0.94727,0.16361
09:02:36.960673,0.96480,0.00630,0.00000,0.00000,-0.00241,-0.00723,-0.00020,0.00005,-0.00445,-0.07662,0.98466,0.95735,0.16117
09:02:36.970730,0.97573,0.00653,0.00000,0.00000,-0.00073,-0.00219,0.00102,-0.00270,-0.00665,-0.07418,0.98637,0.96742,0.15873
09:02:36.982097,0.98710,0.00738,0.00000,0.00000,-0.00302,-0.00906,0.00423,0.00021,-0.00525,-0.07564,0.98362,0.97879,0.15385
09:02:36.992174,0.99699,0.00654,0.00000,0.00000,0.00019,0.00056,-0.00509,0.00066,-0.00409,-0.07479,0.98472,0.98866,0.16850
09:02:37.001754,1.00677,0.00611,0.00000,0.00000,-0.00027,-0.00081,0.00209,-0.00147,-0.00366,-0.07430,0.98448,0.99913,0.17827
09:02:37.014419,1.01941,0.00829,0.00000,0.00000,0.00217,0.00652,0.00423,-0.00407,-0.00433,-0.07503,0.98283,1.01087,0.16361
09:02:37.023230,1.02823,0.00695,0.00000,0.00000,-0.00149,-0.00448,0.00072,-0.00147,-0.00305,-0.07393,0.98283,1.01993,0.16606
09:02:37.033446,1.03845,0.00669,0.00000,0.00000,-0.00302,-0.00906,0.00316,-0.00071,-0.00165,-0.07399,0.98637,1.03018,0.16117
09:02:37.043604,1.04862,0.00666,0.00000,0.00000,0.00324,0.00972,0.00087,-0.00438,-0.00335,-0.07588,0.98362,1.04044,0.16850
09:02:37.055628,1.06063,0.00845,0.00000,0.00000,-0.00073,-0.00219,0.00133,0.00036,-0.00421,-0.07503,0.98362,1.05229,0.16850
09:02:37.064689,1.06968,0.00734,0.00000,0.00000,-0.00165,-0.00494,-0.00234,0.00173,-0.00396,-0.07637,0.98558,1.06133,0.15385
09:02:37.074399,1.07940,0.00673,0.00000,0.00000,0.00263,0.00789,0.00560,0.00097,-0.00543,-0.07412,0.98393,1.07109,0.17338
09:02:37.086428,1.09075,0.00772,0.00000,0.00000,0.00065,0.00194,0.00362,-0.00208,-0.00268,-0.07387,0.98423,1.08290,0.17582
09:02:37.095355,1.10036,0.00713,0.00000,0.00000,0.00080,0.00239,0.00286,0.00021,-0.00445,-0.07686,0.98582,1.09207,0.16850
09:02:37.105318,1.11034,0.00675,0.00000,0.00000,0.00217,0.00652,0.00331,-0.00132,-0.00335,-0.07576,0.98625,1.10263,0.15873
09:02:37.116071,1.12088,0.00709,0.00000,0.00000,0.00003,0.00010,0.00331,-0.00086,-0.00323,-0.07655,0.98308,1.11259,0.15629
09:02:37.126518,1.13153,0.00684,0.00000,0.00000,-0.00333,-0.00998,-0.00081,-0.00102,-0.00323,-0.07399,0.98362,1.12310,0.16117
09:02:37.137185,1.14220,0.00675,0.00000,0.00000,-0.00180,-0.00540,-0.00142,0.00082,-0.00458,-0.07509,0.98430,1.13388,0.18803
09:02:37.148306,1.15329,0.00679,0.00000,0.00000,0.00278,0.00835,0.00179,-0.00208,-0.00451,-0.07607,0.98393,1.14455,0.18559
09:02:37.158043,1.16235,0.00607,0.00000,0.00000,-0.00210,-0.00631,-0.00249,0.00189,-0.00427,-0.07509,0.98552,1.15472,0.16361
09:02:37.169208,1.17421,0.00757,0.00000,0.00000,0.00034,0.00102,-0.00111,-0.00132,-0.00268,-0.07698,0.98423,1.16492,0.16850
09:02:37.179461,1.18446,0.00675,0.00000,0.00000,0.00065,0.00194,0.00194,-0.00224,-0.00384,-0.07613,0.98436,1.17615,0.16850
09:02:37.190357,1.19536,0.00671,0.00000,0.00000,0.00095,0.00285,0.00240,-0.00010,-0.00323,-0.07491,0.98417,1.18706,0.16850
09:02:37.200801,1.20580,0.00661,0.00000,0.00000,-0.00119,-0.00356,0.00118,-0.00056,-0.00311,-0.07357,0.98375,1.19752,0.16606
09:02:37.210845,1.21585,0.00640,0.00000,0.00000,0.00019,0.00056,-0.00249,0.00234,-0.00195,-0.07375,0.98448,1.20754,0.16361
09:02:37.221839,1.22686,0.00684,0.00000,0.00000,0.00126,0.00377,0.00087,-0.00254,-0.00439,-0.07387,0.98460,1.21898,0.16606
09:02:37.232511,1.23751,0.00730,0.00000,0.00000,0.00187,0.00560,0.00026,-0.00071,-0.00360,-0.07442,0.98448,1.22919,0.16606
09:02:37.243657,1.24781,0.00692,0.00000,0.00000,0.00019,0.00056,0.00286,0.00051,-0.00299,-0.07802,0.98265,1.24019,0.15873
09:02:37.252916,1.25793,0.00667,0.00000,0.00000,-0.00073,-0.00219,-0.00020,-0.00086,-0.00287,-0.07649,0.98484,1.25047,0.16606
09:02:37.263097,1.26810,0.00649,0.00000,0.00000,-0.00119,-0.00356,0.00041,0.00051,-0.00671,-0.07613,0.98552,1.25978,0.15873
09:02:37.274097,1.27911,0.00715,0.00000,0.00000,-0.00287,-0.00860,0.00026,-0.00361,-0.00409,-0.07424,0.98454,1.27024,0.17338
09:02:37.284416,1.28853,0.00620,0.00000,0.00000,-0.00165,-0.00494,0.00163,-0.00300,-0.00470,-0.07387,0.98472,1.28108,0.16606
09:02:37.293963,1.29898,0.00579,0.00000,0.00000,-0.00134,-0.00402,0.00286,0.00311,-0.00470,-0.07643,0.98570,1.29136,0.17094
09:02:37.303702,1.30873,0.00518,0.00000,0.00000,0.00019,0.00056,0.00133,-0.00178,-0.00354,-0.07405,0.98423,1.30192,0.16606
09:02:37.314421,1.31944,0.00570,0.00000,0.00000,-0.00165,-0.00494,0.00041,0.00128,-0.00482,-0.07424,0.98539,1.31239,0.15873
09:02:37.325843,1.33086,0.00676,0.00000,0.00000,-0.00012,-0.00036,-0.00157,-0.00086,-0.00451,-0.07649,0.98698,1.32323,0.15873
09:02:37.337359,1.34238,0.00808,0.00000,0.00000,-0.00012,-0.00036,0.00362,0.00021,-0.00366,-0.07436,0.98527,1.33394,0.16850
09:02:37.347245,1.35226,0.00760,0.00000,0.00000,-0.00287,-0.00860,0.00163,0.00036,-0.00281,-0.07503,0.98393,1.34399,0.17338
09:02:37.356909,1.36132,0.00649,0.00000,0.00000,0.00232,0.00697,-0.00050,-0.00178,-0.00256,-0.07485,0.98558,1.35321,0.18071
09:02:37.366750,1.37175,0.00641,0.00000,0.00000,-0.00073,-0.00219,-0.00020,-0.00208,-0.00238,-0.07460,0.98222,1.36347,0.15873
09:02:37.378012,1.38303,0.00747,0.00000,0.00000,-0.00119,-0.00356,-0.00066,-0.00040,-0.00366,-0.07448,0.98338,1.37400,0.16361
09:02:37.387321,1.39232,0.00657,0.00000,0.00000,-0.00378,-0.01135,-0.00096,-0.00025,-0.00464,-0.07710,0.98552,1.38398,0.15629
09:02:37.398236,1.40323,0.00712,0.00000,0.00000,-0.00134,-0.00402,-0.00081,-0.00132,-0.00299,-0.07405,0.98308,1.39494,0.17582
09:02:37.408060,1.41286,0.00639,0.00000,0.00000,-0.00103,-0.00310,-0.00188,-0.00147,-0.00500,-0.07594,0.98423,1.40455,0.16361
09:02:37.419300,1.42430,0.00747,0.00000,0.00000,-0.00210,-0.00631,0.00102,-0.00086,-0.00342,-0.07430,0.98509,1.41598,0.16850
09:02:37.428771,1.43377,0.00657,0.00000,0.00000,0.00019,0.00056,-0.00218,-0.00361,-0.00592,-0.07558,0.98582,1.42547,0.17338
09:02:37.438854,1.44386,0.00641,0.00000,0.00000,0.00141,0.00423,0.00102,-0.00163,-0.00439,-0.07649,0.98466,1.43555,0.16850
09:02:37.449714,1.45395,0.00615,0.00000,0.00000,-0.00103,-0.00310,-0.00050,0.00066,-0.00348,-0.07387,0.98271,1.44610,0.17094
09:02:37.459550,1.46454,0.00638,0.00000,0.00000,0.00202,0.00606,-0.00035,-0.00010,-0.00256,-0.07485,0.98613,1.45625,0.17094
09:02:37.469992,1.47501,0.00643,0.00000,0.00000,0.00049,0.00148,0.00087,-0.00102,-0.00275,-0.07521,0.98320,1.46718,0.17338
09:02:37.480636,1.48563,0.00668,0.00000,0.00000,-0.00012,-0.00036,0.00209,-0.00040,-0.00439,-0.07771,0.98326,1.47733,0.16117
09:02:37.490927,1.49593,0.00649,0.00000,0.00000,0.00065,0.00194,-0.00081,0.00128,-0.00299,-0.07601,0.98625,1.48755,0.16361
09:02:37.501376,1.50639,0.00659,0.00000,0.00000,0.00095,0.00285,-0.00050,-0.00147,-0.00494,-0.07570,0.98478,1.49808,0.16850
09:02:37.511636,1.51663,0.00648,0.00000,0.00000,-0.00042,-0.00127,0.00240,0.00219,-0.00384,-0.07625,0.98576,1.50824,0.16361
09:02:37.524092,1.52814,0.00763,0.00000,0.00000,-0.00042,-0.00127,-0.00096,-0.00102,-0.00372,-0.07668,0.98466,1.51990,0.15873
09:02:37.533563,1.53857,0.00710,0.00000,0.00000,-0.00302,-0.00906,-0.00402,0.00296,-0.00579,-0.07698,0.98497,1.52978,0.17582
09:02:37.544182,1.54795,0.00627,0.00000,0.00000,-0.00302,-0.00906,0.00179,-0.00071,-0.00250,-0.07405,0.98253,1.54033,0.16117
09:02:37.554044,1.55906,0.00702,0.00000,0.00000,-0.00012,-0.00036,0.00072,-0.00193,-0.00275,-0.07741,0.98448,1.55035,0.16606
09:02:37.565837,1.57085,0.00846,0.00000,0.00000,0.00202,0.00606,-0.00020,0.00128,-0.00299,-0.07430,0.98509,1.56171,0.16117
09:02:37.573534,1.57855,0.00611,0.00000,0.00000,-0.00103,-0.00310,-0.00081,0.00021,-0.00549,-0.07509,0.98381,1.57085,0.16606
09:02:37.585274,1.58976,0.00695,0.00000,0.00000,0.00080,0.00239,-0.00081,0.00173,-0.00281,-0.07607,0.98375,1.58147,0.16606
09:02:37.594925,1.59967,0.00635,0.00000,0.00000,0.00568,0.01705,-0.00050,0.00021,-0.00348,-0.07515,0.98405,1.59143,0.16606
09:02:37.605642,1.61065,0.00697,0.00000,0.00000,-0.00058,-0.00173,0.00240,-0.00086,-0.00281,-0.07472,0.98552,1.60196,0.17338
09:02:37.615597,1.61990,0.00603,0.00000,0.00000,0.00049,0.00148,-0.00081,0.00418,-0.00488,-0.07576,0.98509,1.61222,0.16606
09:02:37.626612,1.63084,0.00676,0.00000,0.00000,-0.00363,-0.01089,0.00087,0.00433,-0.00238,-0.07497,0.98478,1.62252,0.15629
09:02:37.636574,1.64086,0.00642,0.00000,0.00000,-0.00103,-0.00310,0.00499,-0.00468,-0.00586,-0.07649,0.98381,1.63253,0.17094
09:02:37.646426,1.65142,0.00663,0.00000,0.00000,-0.00073,-0.00219,0.00331,0.00158,-0.00579,-0.07649,0.98387,1.64310,0.15629
09:02:37.657907,1.66291,0.00775,0.00000,0.00000,-0.00317,-0.00952,-0.00005,0.00158,-0.00268,-0.07332,0.98423,1.65373,0.15873
09:02:37.666854,1.67186,0.00642,0.00000,0.00000,-0.00012,-0.00036,-0.00035,0.00005,-0.00653,-0.07643,0.98594,1.66356,0.16606
09:02:37.678540,1.68307,0.00728,0.00000,0.00000,0.00095,0.00285,0.00347,-0.00010,-0.00329,-0.07314,0.98539,1.67408,0.16117
09:02:37.686843,1.69186,0.00570,0.00000,0.00000,-0.00012,-0.00036,0.00408,0.00066,-0.00427,-0.07418,0.98430,1.68424,0.16361
09:02:37.698107,1.70311,0.00659,0.00000,0.00000,-0.00119,-0.00356,0.00057,-0.00040,-0.00311,-0.07564,0.98448,1.69481,0.17094
09:02:37.708571,1.71357,0.00668,0.00000,0.00000,0.00278,0.00835,-0.00127,-0.00071,-0.00342,-0.07418,0.98667,1.70524,0.16361
09:02:37.718804,1.72381,0.00657,0.00000,0.00000,0.00126,0.00377,0.00011,-0.00132,-0.00384,-0.07271,0.98430,1.71547,0.15873
09:02:37.729739,1.73475,0.00731,0.00000,0.00000,-0.00271,-0.00814,-0.00173,-0.00193,-0.00354,-0.07637,0.98277,1.72643,0.18071
09:02:37.739333,1.74435,0.00671,0.00000,0.00000,-0.00241,-0.00723,0.00057,-0.00010,-0.00329,-0.07631,0.98582,1.73690,0.16117
09:02:37.749960,1.75473,0.00673,0.00000,0.00000,-0.00027,-0.00081,0.00347,0.00189,-0.00213,-0.07540,0.98338,1.74638,0.17338
09:02:37.760152,1.76494,0.00658,0.00000,0.00000,-0.00088,-0.00265,0.00087,-0.00239,-0.00512,-0.07466,0.98448,1.75695,0.15873
09:02:37.772786,1.77728,0.00847,0.00000,0.00000,-0.00302,-0.00906,0.00148,0.00082,-0.00531,-0.07454,0.98436,1.76901,0.16361
09:02:37.779781,1.78480,0.00597,0.00000,0.00000,0.00126,0.00377,0.00087,-0.00025,-0.00207,-0.07497,0.98533,1.77712,0.16850
09:02:37.790811,1.79582,0.00638,0.00000,0.00000,-0.00180,-0.00540,0.00026,-0.00132,-0.00329,-0.07527,0.98417,1.78755,0.16850
09:02:37.801422,1.80644,0.00665,0.00000,0.00000,-0.00073,-0.00219,0.00194,0.00021,-0.00342,-0.07540,0.98411,1.79880,0.16850
09:02:37.812783,1.81777,0.00761,0.00000,0.00000,0.00019,0.00056,-0.00157,-0.00117,-0.00342,-0.07485,0.98460,1.80868,0.16117
09:02:37.821440,1.82646,0.00594,0.00000,0.00000,0.00080,0.00239,-0.00127,-0.00163,-0.00476,-0.07759,0.98393,1.81882,0.15873
09:02:37.833375,1.83839,0.00752,0.00000,0.00000,0.00171,0.00514,0.00011,-0.00132,-0.00634,-0.07613,0.98521,1.83015,0.16606
09:02:37.843330,1.84832,0.00605,0.00000,0.00000,-0.00256,-0.00769,0.00041,0.00112,-0.00451,-0.07521,0.98497,1.83999,0.16606
09:02:37.852790,1.85781,0.00587,0.00000,0.00000,0.00080,0.00239,0.00301,-0.00010,-0.00323,-0.07558,0.98491,1.85022,0.17094
09:02:37.864141,1.86893,0.00653,0.00000,0.00000,0.00232,0.00697,-0.00279,0.00173,-0.00470,-0.07479,0.98466,1.86122,0.16850
09:02:37.875038,1.88005,0.00730,0.00000,0.00000,-0.00149,-0.00448,0.00057,-0.00071,-0.00390,-0.07479,0.98350,1.87240,0.17827
09:02:37.884432,1.88943,0.00664,0.00000,0.00000,-0.00012,-0.00036,0.00011,0.00112,-0.00232,-0.07637,0.98466,1.88116,0.16117
09:02:37.895643,1.89990,0.00661,0.00000,0.00000,-0.00073,-0.00219,-0.00066,-0.00438,-0.00470,-0.07479,0.98460,1.89170,0.17827
09:02:37.905281,1.91027,0.00660,0.00000,0.00000,-0.00058,-0.00173,0.00026,-0.00163,-0.00250,-0.07552,0.98411,1.90196,0.17094
09:02:37.914778,1.91979,0.00578,0.00000,0.00000,-0.00103,-0.00310,0.00148,-0.00300,-0.00275,-0.07582,0.98338,1.91216,0.16606
09:02:37.925973,1.93098,0.00661,0.00000,0.00000,0.00126,0.00377,0.00133,-0.00331,-0.00409,-0.07387,0.98387,1.92267,0.17094
09:02:37.936307,1.94131,0.00657,0.00000,0.00000,0.00019,0.00056,-0.00371,0.00021,-0.00451,-0.07552,0.98411,1.93302,0.15629
09:02:37.945972,1.95099,0.00573,0.00000,0.00000,0.00049,0.00148,-0.00005,-0.00147,-0.00427,-0.07704,0.98515,1.94338,0.16117
09:02:37.957246,1.96157,0.00595,0.00000,0.00000,-0.00210,-0.00631,0.00102,0.00204,-0.00384,-0.07552,0.98448,1.95393,0.16361
09:02:37.967403,1.97242,0.00645,0.00000,0.00000,0.00049,0.00148,-0.00127,-0.00193,-0.00281,-0.07485,0.98545,1.96467,0.15385
09:02:37.978964,1.98342,0.00700,0.00000,0.00000,-0.00241,-0.00723,0.00148,0.00066,-0.00403,-0.07375,0.98247,1.97487,0.16117
09:02:37.988486,1.99253,0.00575,0.00000,0.00000,-0.00165,-0.00494,0.00408,0.00402,-0.00262,-0.07460,0.98362,1.98509,0.16361
09:02:37.998690,2.00370,0.00641,0.00000,0.00000,-0.00226,-0.00677,0.00118,0.00173,-0.00518,-0.07424,0.98411,1.99541,0.17338
09:02:38.009301,2.01431,0.00666,0.00000,0.00000,-0.00210,-0.00631,-0.00096,0.00173,-0.00335,-0.07668,0.98515,2.00595,0.16850
09:02:38.019415,2.02441,0.00640,0.00000,0.00000,0.00095,0.00285,-0.00066,-0.00086,-0.00384,-0.07729,0.98411,2.01610,0.15873
09:02:38.029962,2.03498,0.00676,0.00000,0.00000,-0.00134,-0.00402,-0.00249,-0.00086,-0.00561,-0.07613,0.98387,2.02665,0.16850
09:02:38.040857,2.04500,0.00625,0.00000,0.00000,-0.00180,-0.00540,-0.00127,0.00036,-0.00396,-0.07625,0.98369,2.03755,0.16117
09:02:38.050806,2.05582,0.00654,0.00000,0.00000,-0.00058,-0.00173,-0.00020,-0.00010,-0.00317,-0.07479,0.98301,2.04740,0.16361
09:02:38.061247,2.06626,0.00662,0.00000,0.00000,0.00400,0.01201,0.00347,-0.00132,-0.00445,-0.07692,0.98423,2.05794,0.17094
09:02:38.071743,2.07676,0.00614,0.00000,0.00000,-0.00287,-0.00860,-0.00050,0.00051,-0.00342,-0.07424,0.98411,2.06904,0.17338
09:02:38.082776,2.08777,0.00679,0.00000,0.00000,-0.00180,-0.00540,0.00362,0.00021,-0.00213,-0.07479,0.98332,2.07947,0.18071
09:02:38.092920,2.09792,0.00658,0.00000,0.00000,-0.00042,-0.00127,-0.00218,0.00036,-0.00555,-0.07686,0.98484,2.08964,0.18315
09:02:38.103009,2.10801,0.00647,0.00000,0.00000,0.00019,0.00056,-0.00157,0.00051,-0.00366,-0.07533,0.98375,2.09966,0.17094
09:02:38.113784,2.11879,0.00663,0.00000,0.00000,0.00049,0.00148,0.00331,-0.00056,-0.00354,-0.07442,0.98216,2.11050,0.16606
09:02:38.124628,2.12962,0.00710,0.00000,0.00000,0.00217,0.00652,-0.00066,-0.00208,-0.00396,-0.07625,0.98667,2.12060,0.16117
09:02:38.133810,2.13882,0.00594,0.00000,0.00000,-0.00195,-0.00585,0.00255,-0.00315,-0.00287,-0.07521,0.98430,2.13119,0.16850
09:02:38.145186,2.15017,0.00693,0.00000,0.00000,0.00080,0.00239,-0.00050,0.00005,-0.00293,-0.07582,0.98265,2.14146,0.15385
09:02:38.154910,2.15991,0.00641,0.00000,0.00000,-0.00119,-0.00356,0.00163,-0.00056,-0.00262,-0.07655,0.98527,2.15164,0.15873
09:02:38.166389,2.17065,0.00678,0.00000,0.00000,-0.00455,-0.01364,0.00255,-0.00147,-0.00403,-0.07491,0.98454,2.16281,0.15629
09:02:38.176256,2.18125,0.00679,0.00000,0.00000,0.00080,0.00239,-0.00020,0.00250,-0.00281,-0.07790,0.98545,2.17286,0.17338
09:02:38.186412,2.19141,0.00659,0.00000,0.00000,0.00309,0.00927,0.00148,-0.00071,-0.00427,-0.07503,0.98588,2.18311,0.16850
09:02:38.197377,2.20238,0.00720,0.00000,0.00000,-0.00256,-0.00769,0.00026,-0.00025,-0.00335,-0.07533,0.98375,2.19402,0.16361
09:02:38.206911,2.21191,0.00652,0.00000,0.00000,-0.00180,-0.00540,0.00209,-0.00086,-0.00275,-0.07430,0.98259,2.20361,0.15629
09:02:38.217872,2.22286,0.00661,0.00000,0.00000,-0.00088,-0.00265,0.00515,-0.00453,-0.00512,-0.07582,0.98344,2.21405,0.17827
09:02:38.227491,2.23249,0.00638,0.00000,0.00000,-0.00058,-0.00173,0.00163,-0.00040,-0.00482,-0.07552,0.98423,2.22419,0.16850
09:02:38.238123,2.24314,0.00668,0.00000,0.00000,-0.00333,-0.00998,0.00209,-0.00102,-0.00555,-0.07472,0.98332,2.23549,0.17582
09:02:38.250203,2.25468,0.00786,0.00000,0.00000,-0.00271,-0.00814,-0.00081,0.00005,-0.00476,-0.07588,0.98436,2.24612,0.16606
09:02:38.258733,2.26373,0.00640,0.00000,0.00000,0.00110,0.00331,0.00102,-0.00163,-0.00537,-0.07802,0.98436,2.25544,0.16117
09:02:38.270703,2.27518,0.00716,0.00000,0.00000,0.00217,0.00652,-0.00234,-0.00071,-0.00433,-0.07570,0.98423,2.26651,0.17338
09:02:38.281015,2.28601,0.00763,0.00000,0.00000,-0.00149,-0.00448,0.00133,-0.00132,-0.00281,-0.07863,0.98533,2.27703,0.16606
09:02:38.290974,2.29598,0.00651,0.00000,0.00000,-0.00027,-0.00081,0.00102,0.00051,-0.00415,-0.07479,0.98228,2.28769,0.15629
09:02:38.301965,2.30643,0.00659,0.00000,0.00000,-0.00058,-0.00173,0.00179,-0.00117,-0.00262,-0.07594,0.98619,2.29813,0.17827
09:02:38.311546,2.31654,0.00635,0.00000,0.00000,0.00065,0.00194,0.00057,-0.00040,-0.00189,-0.07509,0.98484,2.30827,0.16361
09:02:38.322157,2.32716,0.00661,0.00000,0.00000,-0.00378,-0.01135,-0.00111,-0.00163,-0.00323,-0.07509,0.98466,2.31885,0.16850
09:02:38.332680,2.33767,0.00676,0.00000,0.00000,0.00049,0.00148,0.00102,-0.00132,-0.00342,-0.07448,0.98423,2.32919,0.17827
09:02:38.342288,2.34730,0.00580,0.00000,0.00000,-0.00012,-0.00036,0.00118,0.00082,-0.00360,-0.07387,0.98430,2.33972,0.16606
09:02:38.353453,2.35846,0.00673,0.00000,0.00000,0.00034,0.00102,-0.00218,-0.00224,-0.00488,-0.07533,0.98582,2.35009,0.15629
09:02:38.363496,2.36850,0.00640,0.00000,0.00000,0.00019,0.00056,0.00072,0.00234,-0.00616,-0.07576,0.98491,2.36019,0.17582
09:02:38.375218,2.38024,0.00779,0.00000,0.00000,-0.00271,-0.00814,0.00224,-0.00178,-0.00275,-0.07503,0.98417,2.37203,0.16850
09:02:38.385387,2.39041,0.00733,0.00000,0.00000,-0.00042,-0.00127,-0.00066,-0.00117,-0.00360,-0.07741,0.98265,2.38278,0.17582
09:02:38.394475,2.39949,0.00578,0.00000,0.00000,-0.00027,-0.00081,-0.00127,0.00219,-0.00311,-0.07497,0.98430,2.39189,0.16606
09:02:38.407203,2.41153,0.00736,0.00000,0.00000,0.00126,0.00377,-0.00142,-0.00147,-0.00323,-0.07332,0.98472,2.40320,0.17582
09:02:38.417214,2.42195,0.00743,0.00000,0.00000,0.00171,0.00514,0.00011,-0.00132,-0.00445,-0.07674,0.98503,2.41263,0.16361
09:02:38.425796,2.43082,0.00594,0.00000,0.00000,-0.00088,-0.00265,-0.00005,0.00204,-0.00311,-0.07601,0.98521,2.42319,0.18071
09:02:38.436615,2.44164,0.00591,0.00000,0.00000,-0.00073,-0.00219,-0.00050,0.00051,-0.00342,-0.07491,0.98308,2.43403,0.16606
09:02:38.447489,2.45248,0.00640,0.00000,0.00000,-0.00394,-0.01181,0.00301,-0.00208,-0.00482,-0.07308,0.98411,2.44417,0.14896
09:02:38.458772,2.46377,0.00732,0.00000,0.00000,0.00171,0.00514,-0.00371,-0.00132,-0.00525,-0.07485,0.98533,2.45549,0.16850
09:02:38.469141,2.47415,0.00735,0.00000,0.00000,-0.00439,-0.01318,0.00179,0.00143,-0.00354,-0.07594,0.98625,2.46511,0.15629
09:02:38.479051,2.48407,0.00687,0.00000,0.00000,-0.00042,-0.00127,0.00041,0.00051,-0.00335,-0.07637,0.98576,2.47616,0.16850
09:02:38.488501,2.49351,0.00596,0.00000,0.00000,0.00065,0.00194,-0.00295,-0.00071,-0.00470,-0.07497,0.98527,2.48586,0.15629
09:02:38.500877,2.50588,0.00758,0.00000,0.00000,-0.00165,-0.00494,0.00026,-0.00285,-0.00390,-0.07485,0.98466,2.49757,0.16850
09:02:38.510235,2.51524,0.00658,0.00000,0.00000,-0.00149,-0.00448,0.00041,-0.00132,-0.00262,-0.07460,0.98552,2.50694,0.18071
09:02:38.520577,2.52557,0.00671,0.00000,0.00000,0.00003,0.00010,0.00286,0.00036,-0.00500,-0.07716,0.98503,2.51727,0.16850
09:02:38.530818,2.53582,0.00646,0.00000,0.00000,0.00003,0.00010,-0.00188,0.00005,-0.00592,-0.07430,0.98271,2.52747,0.16606
09:02:38.542665,2.54717,0.00712,0.00000,0.00000,-0.00103,-0.00310,-0.00096,0.00097,-0.00403,-0.07704,0.98369,2.53832,0.16361
09:02:38.552567,2.55687,0.00647,0.00000,0.00000,0.00110,0.00331,-0.00310,-0.00270,-0.00482,-0.07716,0.98588,2.54849,0.15140
09:02:38.562497,2.56750,0.00674,0.00000,0.00000,-0.00348,-0.01043,-0.00035,0.00143,-0.00421,-0.07405,0.98478,2.55906,0.18315
09:02:38.573144,2.57813,0.00715,0.00000,0.00000,-0.00348,-0.01043,0.00011,-0.00224,-0.00421,-0.07320,0.98375,2.56938,0.15385
09:02:38.583329,2.58834,0.00685,0.00000,0.00000,-0.00378,-0.01135,0.00270,-0.00178,-0.00390,-0.07527,0.98503,2.58041,0.15629
09:02:38.594791,2.59952,0.00782,0.00000,0.00000,-0.00241,-0.00723,-0.00142,-0.00056,-0.00189,-0.07668,0.98204,2.59056,0.16361
09:02:38.603451,2.60845,0.00639,0.00000,0.00000,-0.00088,-0.00265,0.00118,-0.00010,-0.00329,-0.07375,0.98423,2.60016,0.16361
09:02:38.614124,2.61912,0.00670,0.00000,0.00000,0.00126,0.00377,-0.00111,-0.00163,-0.00311,-0.07533,0.98674,2.61071,0.18071
09:02:38.624755,2.62888,0.00626,0.00000,0.00000,-0.00287,-0.00860,-0.00081,0.00158,-0.00079,-0.07338,0.98423,2.62144,0.15873
09:02:38.634747,2.63977,0.00679,0.00000,0.00000,-0.00103,-0.00310,0.00057,0.00265,-0.00372,-0.07235,0.98606,2.63126,0.16850
09:02:38.645214,2.65023,0.00674,0.00000,0.00000,-0.00287,-0.00860,0.00255,-0.00056,-0.00476,-0.07607,0.98375,2.64192,0.17094
09:02:38.655527,2.66052,0.00651,0.00000,0.00000,-0.00210,-0.00631,0.00255,-0.00056,-0.00366,-0.07485,0.98326,2.65223,0.15873
09:02:38.666144,2.67116,0.00694,0.00000,0.00000,0.00309,0.00927,0.00133,-0.00117,-0.00256,-0.07485,0.98411,2.66274,0.17094
09:02:38.675275,2.68029,0.00571,0.00000,0.00000,-0.00165,-0.00494,-0.00005,-0.00178,-0.00213,-0.07448,0.98216,2.67266,0.16117
09:02:38.686141,2.69116,0.00629,0.00000,0.00000,0.00217,0.00652,-0.00218,-0.00071,-0.00226,-0.07466,0.98588,2.68321,0.15873
09:02:38.696915,2.70191,0.00681,0.00000,0.00000,-0.00088,-0.00265,-0.00111,0.00005,-0.00415,-0.07607,0.98539,2.69363,0.18071
09:02:38.707275,2.71167,0.00624,0.00000,0.00000,0.00019,0.00056,0.00026,-0.00178,-0.00610,-0.07521,0.98417,2.70355,0.15629
09:02:38.717394,2.72240,0.00660,0.00000,0.00000,-0.00042,-0.00127,-0.00173,0.00066,-0.00256,-0.07777,0.98387,2.71409,0.15629
09:02:38.727549,2.73255,0.00638,0.00000,0.00000,0.00080,0.00239,0.00255,0.00158,-0.00451,-0.07436,0.98362,2.72425,0.15873
09:02:38.738086,2.74309,0.00657,0.00000,0.00000,-0.00485,-0.01456,-0.00005,0.00173,-0.00396,-0.07594,0.98484,2.73482,0.16361
09:02:38.748473,2.75347,0.00658,0.00000,0.00000,-0.00149,-0.00448,-0.00020,0.00143,-0.00244,-0.07466,0.98533,2.74517,0.16361
09:02:38.758870,2.76388,0.00650,0.00000,0.00000,-0.00134,-0.00402,0.00026,-0.00178,-0.00354,-0.07472,0.98326,2.75550,0.15629
09:02:38.769737,2.77475,0.00701,0.00000,0.00000,-0.00042,-0.00127,0.00072,-0.00193,-0.00464,-0.07521,0.98570,2.76603,0.16606
09:02:38.780487,2.78550,0.00740,0.00000,0.00000,0.00095,0.00285,0.00026,-0.00224,-0.00592,-0.07643,0.98753,2.77693,0.18071
09:02:38.791034,2.79494,0.00660,0.00000,0.00000,-0.00027,-0.00081,0.00026,-0.00193,-0.00506,-0.07729,0.98430,2.78670,0.16117
09:02:38.800738,2.80574,0.00703,0.00000,0.00000,0.00049,0.00148,0.00255,-0.00040,-0.00366,-0.07412,0.98125,2.79701,0.16117
09:02:38.810897,2.81590,0.00646,0.00000,0.00000,0.00019,0.00056,-0.00096,0.00051,-0.00262,-0.07601,0.98399,2.80757,0.16361
09:02:38.821900,2.82639,0.00674,0.00000,0.00000,-0.00271,-0.00814,0.00270,-0.00040,-0.00439,-0.07460,0.98436,2.81808,0.16361
09:02:38.831264,2.83626,0.00642,0.00000,0.00000,0.00141,0.00423,0.00026,0.00036,-0.00256,-0.07424,0.98448,2.82797,0.17827
09:02:38.842318,2.84733,0.00712,0.00000,0.00000,-0.00149,-0.00448,-0.00142,-0.00040,-0.00256,-0.07619,0.98674,2.83850,0.17827
09:02:38.853121,2.85683,0.00627,0.00000,0.00000,-0.00210,-0.00631,-0.00157,-0.00300,-0.00403,-0.07601,0.98436,2.84939,0.16117
09:02:38.863125,2.86743,0.00651,0.00000,0.00000,-0.00317,-0.00952,-0.00142,0.00280,-0.00268,-0.07357,0.98375,2.85983,0.15873
09:02:38.872785,2.87778,0.00649,0.00000,0.00000,0.00202,0.00606,-0.00081,0.00128,-0.00232,-0.07448,0.98387,2.86949,0.16117
09:02:38.883344,2.88836,0.00688,0.00000,0.00000,0.00156,0.00468,0.00194,-0.00270,-0.00275,-0.07235,0.98515,2.87961,0.16606
09:02:38.893977,2.89899,0.00715,0.00000,0.00000,0.00232,0.00697,-0.00111,0.00112,-0.00275,-0.07442,0.98356,2.89012,0.15873
09:02:38.902972,2.90799,0.00595,0.00000,0.00000,0.00065,0.00194,0.00224,0.00036,-0.00592,-0.07540,0.98454,2.90028,0.17338
09:02:38.914361,2.91936,0.00696,0.00000,0.00000,0.00141,0.00423,0.00118,-0.00254,-0.00317,-0.07375,0.98423,2.91072,0.16606
09:02:38.924443,2.92943,0.00667,0.00000,0.00000,-0.00149,-0.00448,0.00102,-0.00285,-0.00421,-0.07405,0.98454,2.92106,0.15385
09:02:38.935242,2.93956,0.00629,0.00000,0.00000,-0.00088,-0.00265,0.00301,-0.00086,-0.00281,-0.07405,0.98430,2.93194,0.15873
09:02:38.946290,2.95101,0.00718,0.00000,0.00000,0.00400,0.01201,0.00011,-0.00193,-0.00390,-0.07607,0.98192,2.94212,0.17827
09:02:38.958301,2.96304,0.00728,0.00000,0.00000,-0.00210,-0.00631,0.00163,-0.00056,-0.00293,-0.07686,0.98430,2.95417,0.16361
09:02:38.967553,2.97256,0.00643,0.00000,0.00000,-0.00210,-0.00631,-0.00310,0.00036,-0.00537,-0.07582,0.98710,2.96421,0.16117
09:02:38.978131,2.98313,0.00665,0.00000,0.00000,-0.00058,-0.00173,0.00026,-0.00025,-0.00311,-0.07570,0.98472,2.97478,0.16850
09:02:38.990395,2.99539,0.00854,0.00000,0.00000,-0.00012,-0.00036,-0.00264,0.00066,-0.00299,-0.07454,0.98436,2.98579,0.17582
09:02:38.998653,3.00366,0.00648,0.00000,0.00000,-0.00333,-0.00998,0.00240,-0.00147,-0.00335,-0.07588,0.98649,2.99532,0.16850
09:02:39.009312,3.01433,0.00693,0.00000,0.00000,-0.00012,-0.00036,-0.00035,-0.00163,-0.00409,-0.07497,0.98466,3.00594,0.15629
09:02:39.019057,3.02406,0.00647,0.00000,0.00000,0.00263,0.00789,-0.00447,-0.00025,-0.00323,-0.07436,0.98198,3.01572,0.15873
09:02:39.029569,3.03458,0.00662,0.00000,0.00000,-0.00058,-0.00173,0.00072,-0.00056,-0.00390,-0.07418,0.98350,3.02626,0.17094
09:02:39.039731,3.04473,0.00641,0.00000,0.00000,0.00187,0.00560,0.00041,-0.00086,-0.00464,-0.07430,0.98448,3.03640,0.16850
09:02:39.050429,3.05543,0.00669,0.00000,0.00000,0.00202,0.00606,0.00041,-0.00224,-0.00110,-0.07533,0.98332,3.04711,0.16606
09:02:39.062360,3.06667,0.00757,0.00000,0.00000,0.00232,0.00697,0.00148,0.00036,-0.00616,-0.07405,0.98326,3.05852,0.16361
09:02:39.071213,3.07621,0.00653,0.00000,0.00000,0.00202,0.00606,-0.00050,-0.00010,-0.00525,-0.07570,0.98326,3.06790,0.16606
09:02:39.082316,3.08731,0.00727,0.00000,0.00000,-0.00302,-0.00906,0.00011,-0.00285,-0.00378,-0.07527,0.98393,3.07831,0.16117
09:02:39.092886,3.09790,0.00750,0.00000,0.00000,-0.00287,-0.00860,0.00423,0.00005,-0.00238,-0.07424,0.98436,3.08994,0.15873
09:02:39.104406,3.10941,0.00778,0.00000,0.00000,-0.00042,-0.00127,0.00316,-0.00147,-0.00512,-0.07564,0.98204,3.10110,0.16361
09:02:39.114284,3.11929,0.00729,0.00000,0.00000,-0.00088,-0.00265,0.00057,-0.00453,-0.00146,-0.07472,0.98497,3.11032,0.16606
09:02:39.123748,3.12874,0.00639,0.00000,0.00000,-0.00241,-0.00723,0.00347,0.00051,-0.00342,-0.07271,0.98362,3.12043,0.16850
09:02:39.134883,3.13919,0.00663,0.00000,0.00000,-0.00210,-0.00631,-0.00081,-0.00071,-0.00512,-0.07387,0.98332,3.13157,0.16117
09:02:39.145167,3.14965,0.00673,0.00000,0.00000,0.00080,0.00239,0.00209,-0.00132,-0.00195,-0.07582,0.98588,3.14120,0.16606
09:02:39.154832,3.15983,0.00641,0.00000,0.00000,0.00110,0.00331,0.00270,-0.00315,-0.00177,-0.07497,0.98362,3.15153,0.16606
09:02:39.165364,3.17038,0.00660,0.00000,0.00000,0.00049,0.00148,-0.00111,-0.00056,-0.00494,-0.07607,0.98387,3.16207,0.16361
09:02:39.175404,3.18042,0.00594,0.00000,0.00000,-0.00271,-0.00814,-0.00142,0.00021,-0.00323,-0.07479,0.98277,3.17296,0.16117
09:02:39.186715,3.19172,0.00688,0.00000,0.00000,-0.00424,-0.01273,0.00347,0.00051,-0.00433,-0.07344,0.98564,3.18341,0.17582
09:02:39.196843,3.20186,0.00665,0.00000,0.00000,-0.00012,-0.00036,0.00163,-0.00010,-0.00275,-0.07515,0.98179,3.19424,0.17338
09:02:39.206210,3.21123,0.00582,0.00000,0.00000,0.00171,0.00514,0.00194,0.00082,-0.00403,-0.07674,0.98338,3.20360,0.17094
09:02:39.217872,3.22288,0.00712,0.00000,0.00000,0.00263,0.00789,-0.00035,0.00036,-0.00604,-0.07625,0.98466,3.21404,0.17338
09:02:39.228433,3.23343,0.00731,0.00000,0.00000,-0.00195,-0.00585,0.00026,0.00265,-0.00323,-0.07503,0.98491,3.22511,0.15873
09:02:39.238164,3.24317,0.00669,0.00000,0.00000,-0.00027,-0.00081,0.00133,0.00173,-0.00268,-0.07503,0.98564,3.23480,0.16361
09:02:39.247665,3.25269,0.00585,0.00000,0.00000,-0.00149,-0.00448,0.00133,-0.00025,-0.00354,-0.07485,0.98478,3.24513,0.16606
09:02:39.260164,3.26496,0.00690,0.00000,0.00000,-0.00073,-0.00219,0.00148,-0.00147,-0.00451,-0.07552,0.98466,3.25664,0.16117
09:02:39.271197,3.27552,0.00710,0.00000,0.00000,-0.00149,-0.00448,-0.00402,-0.00010,-0.00305,-0.07418,0.98710,3.26768,0.15873
09:02:39.280449,3.28544,0.00666,0.00000,0.00000,-0.00241,-0.00723,-0.00157,-0.00056,-0.00329,-0.07466,0.98308,3.27709,0.16850
09:02:39.291161,3.29615,0.00686,0.00000,0.00000,-0.00042,-0.00127,-0.00173,-0.00315,-0.00378,-0.07698,0.98320,3.28789,0.17094
09:02:39.302536,3.30754,0.00757,0.00000,0.00000,0.00156,0.00468,0.00133,-0.00071,-0.00549,-0.07418,0.98448,3.29879,0.16850
09:02:39.311079,3.31610,0.00576,0.00000,0.00000,-0.00134,-0.00402,-0.00005,0.00341,-0.00244,-0.07448,0.98680,3.30843,0.16850
09:02:39.322329,3.32733,0.00677,0.00000,0.00000,0.00034,0.00102,-0.00035,-0.00300,-0.00268,-0.07271,0.98375,3.31901,0.17094
09:02:39.332486,3.33748,0.00656,0.00000,0.00000,0.00202,0.00606,-0.00203,-0.00407,-0.00372,-0.07527,0.98399,3.32919,0.17094
09:02:39.342869,3.34789,0.00647,0.00000,0.00000,-0.00134,-0.00402,0.00026,-0.00010,-0.00384,-0.07430,0.98588,3.34027,0.16117
09:02:39.353319,3.35833,0.00656,0.00000,0.00000,0.00156,0.00468,0.00286,0.00066,-0.00464,-0.07466,0.98436,3.35006,0.15629
09:02:39.364916,3.36989,0.00792,0.00000,0.00000,-0.00287,-0.00860,0.00377,-0.00224,-0.00384,-0.07631,0.98375,3.36034,0.16361
09:02:39.374438,3.37944,0.00711,0.00000,0.00000,-0.00103,-0.00310,-0.00234,-0.00163,-0.00512,-0.07527,0.98387,3.37113,0.17338
09:02:39.384791,3.38979,0.00692,0.00000,0.00000,-0.00394,-0.01181,0.00133,-0.00132,-0.00415,-0.07460,0.98320,3.38116,0.17582
09:02:39.396165,3.40096,0.00759,0.00000,0.00000,0.00126,0.00377,-0.00096,-0.00056,-0.00512,-0.07424,0.98558,3.39226,0.16606
09:02:39.406848,3.41186,0.00812,0.00000,0.00000,0.00187,0.00560,0.00102,-0.00040,-0.00250,-0.07466,0.98570,3.40306,0.16361
09:02:39.416428,3.42143,0.00733,0.00000,0.00000,-0.00271,-0.00814,0.00255,0.00036,-0.00275,-0.07533,0.98442,3.41313,0.17094
09:02:39.427018,3.43132,0.00687,0.00000,0.00000,0.00400,0.01201,-0.00066,0.00219,-0.00506,-0.07527,0.98484,3.42345,0.17582
09:02:39.436396,3.44140,0.00658,0.00000,0.00000,-0.00210,-0.00631,-0.00142,-0.00270,-0.00403,-0.07716,0.98497,3.43310,0.16606
09:02:39.446120,3.45114,0.00577,0.00000,0.00000,-0.00287,-0.00860,-0.00035,-0.00147,-0.00445,-0.07381,0.98362,3.44350,0.16850
09:02:39.457934,3.46294,0.00732,0.00000,0.00000,-0.00424,-0.01273,0.00255,-0.00117,-0.00592,-0.07412,0.98362,3.45460,0.16361
09:02:39.467772,3.47277,0.00695,0.00000,0.00000,-0.00134,-0.00402,-0.00081,-0.00270,-0.00555,-0.07613,0.98454,3.46395,0.16606
09:02:39.477054,3.48208,0.00590,0.00000,0.00000,-0.00149,-0.00448,-0.00081,0.00402,-0.00409,-0.07710,0.98423,3.47447,0.16606
09:02:39.488214,3.49320,0.00674,0.00000,0.00000,0.00126,0.00377,-0.00066,0.00204,-0.00317,-0.07460,0.98350,3.48488,0.19048
09:02:39.499120,3.50338,0.00656,0.00000,0.00000,-0.00180,-0.00540,-0.00111,0.00066,-0.00250,-0.07570,0.98362,3.49512,0.16606
09:02:39.509139,3.51415,0.00668,0.00000,0.00000,-0.00058,-0.00173,-0.00509,-0.00132,-0.00384,-0.07375,0.98588,3.50583,0.16850
09:02:39.519567,3.52456,0.00690,0.00000,0.00000,-0.00073,-0.00219,0.00148,-0.00071,-0.00238,-0.07723,0.98661,3.51627,0.16850
09:02:39.529636,3.53465,0.00662,0.00000,0.00000,0.00309,0.00927,-0.00127,-0.00025,-0.00372,-0.07631,0.98161,3.52632,0.15629
09:02:39.540050,3.54486,0.00647,0.00000,0.00000,-0.00149,-0.00448,-0.00234,-0.00102,-0.00445,-0.07375,0.98667,3.53647,0.15629
09:02:39.550369,3.55536,0.00662,0.00000,0.00000,-0.00180,-0.00540,0.00362,-0.00224,-0.00409,-0.07454,0.98192,3.54704,0.17827
09:02:39.560710,3.56571,0.00661,0.00000,0.00000,0.00003,0.00010,0.00041,0.00021,-0.00329,-0.07576,0.98478,3.55745,0.16606
09:02:39.571040,3.57606,0.00676,0.00000,0.00000,0.00034,0.00102,0.00377,0.00066,-0.00409,-0.07454,0.98484,3.56782,0.16606
09:02:39.582747,3.58775,0.00809,0.00000,0.00000,-0.00042,-0.00127,-0.00768,0.00234,-0.00396,-0.07442,0.98247,3.57796,0.15385
09:02:39.591095,3.59611,0.00627,0.00000,0.00000,0.00294,0.00881,0.00179,0.00082,-0.00275,-0.07576,0.98698,3.58850,0.16850
09:02:39.603051,3.60807,0.00759,0.00000,0.00000,-0.00103,-0.00310,0.00026,-0.00300,-0.00543,-0.07540,0.98375,3.59983,0.15629
09:02:39.614225,3.61923,0.00839,0.00000,0.00000,-0.00027,-0.00081,-0.00356,-0.00025,-0.00464,-0.07631,0.98094,3.61088,0.15629
09:02:39.623211,3.62770,0.00651,0.00000,0.00000,-0.00042,-0.00127,-0.00035,-0.00346,-0.00366,-0.07314,0.98387,3.61932,0.17094
09:02:39.633214,3.63751,0.00596,0.00000,0.00000,0.00080,0.00239,0.00087,-0.00346,-0.00305,-0.07430,0.98375,3.62985,0.16606
09:02:39.644179,3.64898,0.00724,0.00000,0.00000,-0.00180,-0.00540,0.00041,-0.00208,-0.00390,-0.07637,0.98436,3.63986,0.17582
09:02:39.653679,3.65869,0.00659,0.00000,0.00000,-0.00119,-0.00356,-0.00279,0.00112,-0.00317,-0.07424,0.98564,3.65039,0.16606
09:02:39.663655,3.66868,0.00596,0.00000,0.00000,-0.00409,-0.01227,-0.00203,-0.00086,-0.00403,-0.07570,0.98332,3.66121,0.16117
09:02:39.674849,3.67985,0.00659,0.00000,0.00000,-0.00012,-0.00036,0.00133,-0.00163,-0.00433,-0.07412,0.98210,3.67152,0.14896
09:02:39.685575,3.69059,0.00696,0.00000,0.00000,0.00278,0.00835,-0.00035,0.00097,-0.00275,-0.07777,0.98356,3.68193,0.17582
09:02:39.695572,3.70057,0.00657,0.00000,0.00000,0.00217,0.00652,0.00179,0.00280,-0.00439,-0.07466,0.98423,3.69221,0.17827
09:02:39.706413,3.71143,0.00707,0.00000,0.00000,-0.00348,-0.01043,0.00255,0.00112,-0.00421,-0.07338,0.98381,3.70331,0.17094
09:02:39.718006,3.72300,0.00842,0.00000,0.00000,-0.00058,-0.00173,0.00194,0.00219,-0.00256,-0.07698,0.98722,3.71451,0.17338
09:02:39.727234,3.73223,0.00729,0.00000,0.00000,-0.00180,-0.00540,0.00179,-0.00285,-0.00372,-0.07686,0.98503,3.72322,0.17827
09:02:39.737212,3.74222,0.00678,0.00000,0.00000,-0.00042,-0.00127,0.00041,-0.00163,0.00012,-0.07552,0.98667,3.73389,0.16117
09:02:39.747025,3.75203,0.00640,0.00000,0.00000,-0.00287,-0.00860,-0.00096,-0.00102,-0.00335,-0.07674,0.98405,3.74377,0.16361
09:02:39.758222,3.76321,0.00722,0.00000,0.00000,0.00095,0.00285,-0.00111,-0.00331,-0.00262,-0.07527,0.98405,3.75436,0.16606
09:02:39.767762,3.77276,0.00641,0.00000,0.00000,-0.00226,-0.00677,-0.00371,0.00021,-0.00415,-0.07552,0.98698,3.76443,0.15873
09:02:39.777636,3.78265,0.00595,0.00000,0.00000,0.00171,0.00514,0.00102,-0.00163,-0.00518,-0.07649,0.98423,3.77500,0.16606
09:02:39.789917,3.79493,0.00769,0.00000,0.00000,0.00294,0.00881,0.00057,0.00219,-0.00427,-0.07686,0.98448,3.78658,0.16850
09:02:39.799772,3.80477,0.00673,0.00000,0.00000,0.00126,0.00377,-0.00157,-0.00117,-0.00195,-0.07472,0.98308,3.79627,0.17582
09:02:39.810099,3.81511,0.00671,0.00000,0.00000,-0.00271,-0.00814,0.00072,-0.00056,-0.00445,-0.07436,0.98405,3.80752,0.17338
09:02:39.820841,3.82584,0.00723,0.00000,0.00000,0.00080,0.00239,0.00102,-0.00346,-0.00342,-0.07527,0.98728,3.81758,0.16850
09:02:39.830557,3.83558,0.00661,0.00000,0.00000,-0.00562,-0.01685,0.00377,-0.00346,-0.00427,-0.07607,0.98637,3.82726,0.16361
09:02:39.841386,3.84640,0.00672,0.00000,0.00000,0.00003,0.00010,-0.00096,-0.00163,-0.00561,-0.07509,0.98503,3.83811,0.17338
09:02:39.851440,3.85644,0.00640,0.00000,0.00000,0.00110,0.00331,0.00057,0.00051,-0.00384,-0.07558,0.98381,3.84815,0.17582
09:02:39.862072,3.86636,0.00596,0.00000,0.00000,-0.00058,-0.00173,-0.00341,-0.00010,-0.00458,-0.07643,0.98405,3.85872,0.15873
09:02:39.871807,3.87683,0.00606,0.00000,0.00000,-0.00012,-0.00036,0.00057,0.00082,-0.00476,-0.07588,0.98399,3.86906,0.16361
09:02:39.882918,3.88792,0.00664,0.00000,0.00000,-0.00333,-0.00998,0.00392,-0.00147,-0.00281,-0.07369,0.98411,3.87938,0.17827
09:02:39.893511,3.89852,0.00694,0.00000,0.00000,0.00034,0.00102,0.00408,0.00036,-0.00451,-0.07460,0.98545,3.89003,0.17582
09:02:39.903324,3.90832,0.00654,0.00000,0.00000,-0.00058,-0.00173,-0.00081,0.00143,-0.00293,-0.07692,0.98301,3.90000,0.16850
09:02:39.913873,3.91886,0.00661,0.00000,0.00000,-0.00103,-0.00310,-0.00157,-0.00025,-0.00512,-0.07509,0.98637,3.91091,0.16850
09:02:39.924538,3.92887,0.00654,0.00000,0.00000,-0.00165,-0.00494,0.00179,-0.00193,-0.00403,-0.07588,0.98460,3.92054,0.17338
09:02:39.934313,3.93931,0.00663,0.00000,0.00000,-0.00180,-0.00540,0.00057,-0.00071,-0.00409,-0.07509,0.98381,3.93099,0.15873
09:02:39.945122,3.95013,0.00692,0.00000,0.00000,0.00141,0.00423,0.00179,0.00219,-0.00360,-0.07668,0.98521,3.94182,0.17827
09:02:39.954933,3.95995,0.00651,0.00000,0.00000,0.00309,0.00927,0.00224,-0.00010,-0.00244,-0.07460,0.98625,3.95155,0.17338
09:02:39.965376,3.97039,0.00658,0.00000,0.00000,0.00385,0.01156,-0.00096,-0.00361,-0.00458,-0.07314,0.98545,3.96210,0.16606
09:02:39.974838,3.97986,0.00584,0.00000,0.00000,0.00095,0.00285,0.00408,-0.00147,-0.00470,-0.07442,0.98600,3.97224,0.15140
09:02:39.986366,3.99138,0.00701,0.00000,0.00000,0.00141,0.00423,-0.00081,-0.00178,-0.00366,-0.07448,0.98417,3.98268,0.16361
09:02:39.995826,4.00084,0.00611,0.00000,0.00000,-0.00241,-0.00723,0.00057,0.00189,-0.00323,-0.07533,0.98326,3.99302,0.16117
09:02:40.007451,4.01245,0.00653,0.00000,0.00000,-0.00287,-0.00860,0.00087,0.00341,-0.00427,-0.07570,0.98484,4.00401,0.18071
09:02:40.017907,4.02291,0.00663,0.00000,0.00000,-0.00027,-0.00081,0.00484,0.00051,-0.00433,-0.07649,0.98497,4.01458,0.17094
09:02:40.029193,4.03364,0.00699,0.00000,0.00000,0.00171,0.00514,0.00408,-0.00132,-0.00262,-0.07503,0.98478,4.02494,0.16361
09:02:40.038624,4.04363,0.00662,0.00000,0.00000,-0.00058,-0.00173,0.00469,-0.00315,-0.00366,-0.07564,0.98503,4.03529,0.16117
09:02:40.049053,4.05332,0.00596,0.00000,0.00000,0.00263,0.00789,-0.00111,-0.00040,-0.00390,-0.07466,0.98460,4.04566,0.17338
09:02:40.058955,4.06395,0.00640,0.00000,0.00000,0.00187,0.00560,-0.00218,-0.00056,-0.00140,-0.07601,0.98430,4.05568,0.16117
09:02:40.069527,4.07454,0.00662,0.00000,0.00000,0.00202,0.00606,-0.00249,0.00158,-0.00409,-0.07424,0.98552,4.06619,0.15873
09:02:40.080393,4.08538,0.00711,0.00000,0.00000,-0.00027,-0.00081,-0.00005,0.00051,-0.00579,-0.07448,0.98497,4.07636,0.15629
09:02:40.090385,4.09538,0.00692,0.00000,0.00000,0.00003,0.00010,0.00087,0.00189,-0.00110,-0.07418,0.98210,4.08707,0.15873
09:02:40.101609,4.10553,0.00671,0.00000,0.00000,0.00049,0.00148,0.00316,-0.00132,-0.00165,-0.07570,0.98484,4.09759,0.16606
09:02:40.110080,4.11510,0.00577,0.00000,0.00000,0.00202,0.00606,0.00057,-0.00224,-0.00549,-0.07460,0.98289,4.10745,0.17338
09:02:40.121214,4.12623,0.00654,0.00000,0.00000,0.00019,0.00056,-0.00066,-0.00086,-0.00415,-0.07247,0.98277,4.11797,0.16606
09:02:40.131454,4.13645,0.00641,0.00000,0.00000,-0.00058,-0.00173,0.00041,-0.00254,-0.00354,-0.07637,0.98369,4.12813,0.16117
09:02:40.142021,4.14703,0.00678,0.00000,0.00000,-0.00073,-0.00219,0.00362,0.00341,-0.00537,-0.07351,0.98228,4.13869,0.16606
09:02:40.152572,4.15758,0.00713,0.00000,0.00000,-0.00241,-0.00723,0.00148,-0.00132,-0.00220,-0.07418,0.98350,4.14867,0.16117
09:02:40.162446,4.16744,0.00663,0.00000,0.00000,0.00049,0.00148,0.00377,-0.00163,-0.00201,-0.07607,0.98545,4.15910,0.16361
09:02:40.173567,4.17859,0.00707,0.00000,0.00000,0.00065,0.00194,0.00179,-0.00224,-0.00616,-0.07546,0.98686,4.17029,0.16361
09:02:40.184266,4.18927,0.00756,0.00000,0.00000,-0.00134,-0.00402,-0.00096,-0.00025,-0.00390,-0.07668,0.98381,4.18061,0.16117
09:02:40.194183,4.19918,0.00676,0.00000,0.00000,0.00171,0.00514,0.00087,-0.00254,-0.00531,-0.07363,0.98460,4.19088,0.18071
09:02:40.204835,4.20896,0.00579,0.00000,0.00000,-0.00378,-0.01135,0.00362,-0.00147,-0.00470,-0.07564,0.98216,4.20153,0.15140
09:02:40.214927,4.21994,0.00633,0.00000,0.00000,-0.00226,-0.00677,0.00240,-0.00071,-0.00470,-0.07479,0.98558,4.21183,0.15629
09:02:40.225594,4.23061,0.00605,0.00000,0.00000,-0.00226,-0.00677,0.00224,0.00066,-0.00348,-0.07393,0.98606,4.22298,0.17094
09:02:40.236567,4.24156,0.00679,0.00000,0.00000,0.00141,0.00423,0.00118,0.00066,-0.00335,-0.07369,0.98417,4.23321,0.17094
09:02:40.246705,4.25101,0.00573,0.00000,0.00000,-0.00333,-0.00998,0.00041,-0.00193,-0.00287,-0.07405,0.98509,4.24339,0.16117
09:02:40.259790,4.26479,0.00915,0.00000,0.00000,-0.00363,-0.01089,-0.00096,-0.00224,-0.00293,-0.07466,0.98399,4.25587,0.15385
09:02:40.268401,4.27340,0.00727,0.00000,0.00000,-0.00149,-0.00448,0.00041,0.00021,-0.00390,-0.07515,0.98582,4.26510,0.15629
09:02:40.278172,4.28319,0.00670,0.00000,0.00000,0.00034,0.00102,-0.00081,-0.00102,-0.00329,-0.07558,0.98283,4.27552,0.14652
09:02:40.289789,4.29480,0.00795,0.00000,0.00000,-0.00302,-0.00906,0.00133,-0.00040,-0.00537,-0.07588,0.98381,4.28644,0.16850
09:02:40.299266,4.30428,0.00662,0.00000,0.00000,0.00065,0.00194,0.00026,-0.00132,-0.00372,-0.07369,0.98430,4.29666,0.16606
09:02:40.310992,4.31600,0.00797,0.00000,0.00000,-0.00088,-0.00265,0.00057,0.00021,-0.00372,-0.07619,0.98430,4.30701,0.16606
09:02:40.320976,4.32599,0.00761,0.00000,0.00000,0.00003,0.00010,0.00087,-0.00346,-0.00329,-0.07515,0.98649,4.31812,0.16361
09:02:40.332388,4.33738,0.00859,0.00000,0.00000,0.00065,0.00194,-0.00188,-0.00331,-0.00165,-0.07454,0.98497,4.32830,0.16361
09:02:40.341274,4.34629,0.00675,0.00000,0.00000,-0.00042,-0.00127,-0.00020,-0.00086,-0.00335,-0.07381,0.98350,4.33797,0.17827
09:02:40.351302,4.35630,0.00641,0.00000,0.00000,0.00339,0.01018,0.00102,0.00005,-0.00470,-0.07552,0.98289,4.34799,0.17582
09:02:40.362012,4.36703,0.00677,0.00000,0.00000,-0.00241,-0.00723,-0.00249,-0.00040,-0.00226,-0.07655,0.98423,4.35940,0.16606
09:02:40.372421,4.37741,0.00670,0.00000,0.00000,-0.00409,-0.01227,0.00163,-0.00056,-0.00561,-0.07527,0.98375,4.36912,0.18315
09:02:40.382425,4.38744,0.00653,0.00000,0.00000,0.00187,0.00560,0.00011,0.00082,-0.00317,-0.07594,0.98314,4.37931,0.17338
09:02:40.393345,4.39812,0.00687,0.00000,0.00000,0.00095,0.00285,0.00331,-0.00331,-0.00220,-0.07442,0.98472,4.38968,0.17338
09:02:40.403607,4.40860,0.00653,0.00000,0.00000,-0.00103,-0.00310,0.00072,-0.00025,-0.00409,-0.07448,0.98588,4.40031,0.16361
09:02:40.414055,4.41906,0.00663,0.00000,0.00000,0.00049,0.00148,0.00041,0.00066,-0.00305,-0.07521,0.98393,4.41073,0.17094
09:02:40.424632,4.42965,0.00657,0.00000,0.00000,0.00065,0.00194,0.00026,-0.00300,-0.00384,-0.07527,0.98356,4.42201,0.15385
09:02:40.435641,4.44064,0.00736,0.00000,0.00000,-0.00027,-0.00081,-0.00371,-0.00071,-0.00268,-0.07485,0.98448,4.43234,0.16117
09:02:40.445647,4.44988,0.00640,0.00000,0.00000,-0.00149,-0.00448,0.00301,0.00021,-0.00323,-0.07643,0.98411,4.44194,0.15873
09:02:40.455565,4.46057,0.00656,0.00000,0.00000,0.00171,0.00514,0.00057,-0.00254,-0.00415,-0.07540,0.98588,4.45222,0.15385
09:02:40.466385,4.47138,0.00706,0.00000,0.00000,0.00049,0.00148,-0.00066,-0.00300,-0.00256,-0.07393,0.98533,4.46278,0.15629
09:02:40.476595,4.48159,0.00675,0.00000,0.00000,-0.00012,-0.00036,-0.00279,-0.00056,-0.00128,-0.07625,0.98326,4.47326,0.17582
09:02:40.488086,4.49289,0.00745,0.00000,0.00000,-0.00134,-0.00402,-0.00142,0.00021,-0.00494,-0.07424,0.98423,4.48427,0.17094
09:02:40.497406,4.50170,0.00605,0.00000,0.00000,-0.00073,-0.00219,0.00484,0.00433,-0.00488,-0.07540,0.98430,4.49409,0.16117
09:02:40.507547,4.51255,0.00653,0.00000,0.00000,-0.00256,-0.00769,-0.00234,0.00036,-0.00482,-0.07472,0.98448,4.50424,0.16850
09:02:40.517973,4.52299,0.00677,0.00000,0.00000,0.00645,0.01934,-0.00096,-0.00346,-0.00409,-0.07442,0.98423,4.51466,0.18315
09:02:40.527515,4.53254,0.00609,0.00000,0.00000,-0.00088,-0.00265,-0.00173,-0.00102,-0.00366,-0.07527,0.98381,4.52495,0.15629
09:02:40.538984,4.54398,0.00733,0.00000,0.00000,0.00034,0.00102,0.00286,-0.00025,-0.00348,-0.07619,0.98436,4.53569,0.17094
09:02:40.549349,4.55436,0.00736,0.00000,0.00000,0.00095,0.00285,-0.00081,-0.00132,-0.00275,-0.07662,0.98308,4.54606,0.15629
09:02:40.558804,4.56381,0.00654,0.00000,0.00000,0.00080,0.00239,0.00499,0.00036,-0.00427,-0.07503,0.98472,4.55550,0.16361
09:02:40.569237,4.57425,0.00677,0.00000,0.00000,-0.00210,-0.00631,0.00087,0.00021,-0.00415,-0.07436,0.98405,4.56593,0.17582
09:02:40.579483,4.58448,0.00681,0.00000,0.00000,-0.00180,-0.00540,0.00408,-0.00239,-0.00128,-0.07540,0.98552,4.57589,0.16361
09:02:40.590186,4.59448,0.00640,0.00000,0.00000,0.00248,0.00743,-0.00096,-0.00239,-0.00366,-0.07509,0.98606,4.58669,0.17338
09:02:40.600676,4.60482,0.00654,0.00000,0.00000,0.00202,0.00606,-0.00050,0.00021,-0.00445,-0.07472,0.98460,4.59736,0.16117
09:02:40.610674,4.61489,0.00635,0.00000,0.00000,-0.00592,-0.01777,-0.00249,0.00387,-0.00256,-0.07601,0.98454,4.60699,0.17582
09:02:40.619598,4.62462,0.00572,0.00000,0.00000,-0.00103,-0.00310,-0.00142,0.00082,-0.00403,-0.07601,0.98497,4.61717,0.16850
09:02:40.631488,4.63650,0.00686,0.00000,0.00000,0.00049,0.00148,-0.00417,-0.00071,-0.00238,-0.07552,0.98539,4.62861,0.16117
09:02:40.642109,4.64711,0.00726,0.00000,0.00000,-0.00226,-0.00677,0.00179,0.00173,-0.00201,-0.07607,0.98491,4.63825,0.17094
09:02:40.651756,4.65677,0.00656,0.00000,0.00000,-0.00073,-0.00219,0.00255,-0.00056,-0.00281,-0.07460,0.98497,4.64933,0.15873
09:02:40.662768,4.66777,0.00655,0.00000,0.00000,-0.00042,-0.00127,0.00118,-0.00025,-0.00396,-0.07540,0.98393,4.65944,0.17827
09:02:40.672593,4.67761,0.00606,0.00000,0.00000,0.00370,0.01110,-0.00157,0.00128,-0.00531,-0.07582,0.98533,4.66998,0.16850
09:02:40.684719,4.68971,0.00720,0.00000,0.00000,-0.00363,-0.01089,-0.00432,0.00112,-0.00244,-0.07552,0.98716,4.68117,0.16117
09:02:40.695090,4.70009,0.00722,0.00000,0.00000,-0.00165,-0.00494,0.00194,0.00418,-0.00256,-0.07344,0.98106,4.69117,0.16606
09:02:40.705968,4.71098,0.00775,0.00000,0.00000,0.00462,0.01385,-0.00249,-0.00071,-0.00335,-0.07509,0.98228,4.70267,0.16606
09:02:40.715671,4.72067,0.00718,0.00000,0.00000,-0.00149,-0.00448,-0.00417,0.00234,-0.00403,-0.07552,0.98375,4.71231,0.15629
09:02:40.725773,4.73079,0.00694,0.00000,0.00000,0.00034,0.00102,-0.00264,-0.00040,-0.00427,-0.07540,0.98552,4.72293,0.16850
09:02:40.735452,4.74047,0.00642,0.00000,0.00000,-0.00378,-0.01135,0.00041,-0.00147,-0.00122,-0.07668,0.98308,4.73302,0.17094
09:02:40.746239,4.75124,0.00675,0.00000,0.00000,-0.00073,-0.00219,-0.00066,-0.00056,-0.00512,-0.07668,0.98430,4.74291,0.16361
09:02:40.757044,4.76206,0.00708,0.00000,0.00000,0.00019,0.00056,0.00148,-0.00102,-0.00207,-0.07479,0.98484,4.75378,0.16117
09:02:40.766773,4.77177,0.00651,0.00000,0.00000,-0.00287,-0.00860,0.00240,0.00204,-0.00262,-0.07381,0.98515,4.76348,0.16850
09:02:40.777534,4.78254,0.00676,0.00000,0.00000,-0.00149,-0.00448,0.00102,0.00112,-0.00250,-0.07631,0.98448,4.77421,0.15873
09:02:40.788792,4.79293,0.00619,0.00000,0.00000,0.00416,0.01247,0.00057,0.00051,-0.00323,-0.07412,0.98613,4.78515,0.15629
09:02:40.799676,4.80467,0.00708,0.00000,0.00000,0.00278,0.00835,0.00194,0.00311,-0.00421,-0.07607,0.98369,4.79636,0.16361
09:02:40.810550,4.81554,0.00759,0.00000,0.00000,-0.00058,-0.00173,0.00102,0.00051,-0.00525,-0.07381,0.98393,4.80693,0.15140
09:02:40.819710,4.82473,0.00588,0.00000,0.00000,-0.00501,-0.01502,0.00087,-0.00040,-0.00329,-0.07466,0.98149,4.81728,0.18315
09:02:40.831556,4.83657,0.00668,0.00000,0.00000,-0.00287,-0.00860,0.00179,-0.00086,-0.00464,-0.07503,0.98497,4.82811,0.16606
09:02:40.844093,4.84890,0.00837,0.00000,0.00000,-0.00027,-0.00081,-0.00096,0.00128,-0.00354,-0.07497,0.98399,4.84009,0.17094
09:02:40.853159,4.85818,0.00731,0.00000,0.00000,-0.00058,-0.00173,0.00163,-0.00178,-0.00470,-0.07332,0.98497,4.84985,0.16361
09:02:40.862774,4.86778,0.00655,0.00000,0.00000,-0.00134,-0.00402,0.00179,0.00036,-0.00470,-0.07472,0.98295,4.85946,0.15873
09:02:40.873238,4.87825,0.00667,0.00000,0.00000,0.00049,0.00148,-0.00142,-0.00224,-0.00458,-0.07491,0.98338,4.86988,0.17582
09:02:40.883348,4.88835,0.00641,0.00000,0.00000,0.00141,0.00423,-0.00081,-0.00254,-0.00360,-0.07527,0.98442,4.88003,0.16117
09:02:40.893800,4.89881,0.00649,0.00000,0.00000,-0.00165,-0.00494,-0.00127,-0.00040,-0.00427,-0.07296,0.98600,4.89089,0.15873
09:02:40.905069,4.91005,0.00723,0.00000,0.00000,-0.00363,-0.01089,-0.00111,0.00112,-0.00305,-0.07503,0.98552,4.90167,0.18315
09:02:40.915357,4.92036,0.00652,0.00000,0.00000,-0.00012,-0.00036,-0.00127,0.00234,-0.00293,-0.07680,0.98356,4.91206,0.17338
09:02:40.926477,4.93148,0.00728,0.00000,0.00000,-0.00287,-0.00860,0.00484,-0.00010,-0.00250,-0.07625,0.98332,4.92319,0.18071
09:02:40.936736,4.94175,0.00719,0.00000,0.00000,-0.00195,-0.00585,0.00316,0.00005,-0.00317,-0.07351,0.98558,4.93412,0.15629
09:02:40.947551,4.95254,0.00766,0.00000,0.00000,0.00232,0.00697,0.00163,0.00051,-0.00488,-0.07442,0.98503,4.94421,0.17094
09:02:40.957026,4.96203,0.00672,0.00000,0.00000,-0.00119,-0.00356,0.00087,-0.00117,-0.00207,-0.07552,0.98137,4.95375,0.18315
09:02:40.967235,4.97223,0.00669,0.00000,0.00000,-0.00058,-0.00173,-0.00295,0.00158,-0.00378,-0.07710,0.98399,4.96389,0.16361
09:02:40.978455,4.98347,0.00710,0.00000,0.00000,0.00003,0.00010,0.00194,-0.00056,-0.00250,-0.07491,0.98301,4.97465,0.17094
09:02:40.988711,4.99371,0.00702,0.00000,0.00000,-0.00103,-0.00310,-0.00096,0.00066,-0.00488,-0.07540,0.98204,4.98511,0.16117
09:02:40.998611,5.00362,0.00673,0.00000,0.00000,-0.00210,-0.00631,0.00072,-0.00102,-0.00384,-0.07546,0.98539,4.99529,0.15629
09:02:41.009047,5.01406,0.00681,0.00000,0.00000,0.00019,0.00056,-0.00035,-0.00040,-0.00427,-0.07442,0.98356,5.00565,0.15873
09:02:41.018946,5.02395,0.00651,0.00000,0.00000,-0.00134,-0.00402,-0.00249,-0.00239,-0.00384,-0.07363,0.98411,5.01567,0.18071
09:02:41.030024,5.03504,0.00723,0.00000,0.00000,-0.00149,-0.00448,0.00026,0.00296,-0.00323,-0.07332,0.98381,5.02608,0.18559
09:02:41.039569,5.04459,0.00607,0.00000,0.00000,-0.00103,-0.00310,-0.00142,0.00280,-0.00329,-0.07704,0.98308,5.03714,0.16606
09:02:41.051084,5.05609,0.00735,0.00000,0.00000,0.00171,0.00514,0.00148,-0.00147,-0.00189,-0.07607,0.98783,5.04768,0.16850
09:02:41.060647,5.06565,0.00671,0.00000,0.00000,0.00095,0.00285,0.00301,0.00021,-0.00439,-0.07552,0.98411,5.05735,0.16361
09:02:41.070157,5.07518,0.00574,0.00000,0.00000,-0.00027,-0.00081,-0.00005,0.00051,-0.00525,-0.07552,0.98521,5.06755,0.15873
09:02:41.081444,5.08646,0.00666,0.00000,0.00000,0.00049,0.00148,0.00163,-0.00010,-0.00677,-0.07564,0.98698,5.07817,0.15873
09:02:41.091119,5.09614,0.00598,0.00000,0.00000,-0.00012,-0.00036,-0.00096,0.00036,-0.00232,-0.07582,0.98613,5.08841,0.16606
09:02:41.102206,5.10722,0.00669,0.00000,0.00000,-0.00119,-0.00356,-0.00218,0.00128,-0.00488,-0.07418,0.98308,5.09882,0.16361
09:02:41.111705,5.11672,0.00597,0.00000,0.00000,-0.00180,-0.00540,-0.00005,0.00418,-0.00451,-0.07497,0.98491,5.10926,0.16361
09:02:41.123091,5.12810,0.00682,0.00000,0.00000,0.00034,0.00102,0.00270,-0.00285,-0.00354,-0.07485,0.98442,5.11939,0.18559
09:02:41.133261,5.13827,0.00663,0.00000,0.00000,-0.00119,-0.00356,0.00133,0.00372,-0.00226,-0.07741,0.98338,5.12996,0.17582
09:02:41.143223,5.14824,0.00640,0.00000,0.00000,-0.00134,-0.00402,-0.00203,0.00036,-0.00250,-0.07588,0.98448,5.14029,0.18071
09:02:41.153865,5.15888,0.00668,0.00000,0.00000,0.00126,0.00377,-0.00509,0.00158,-0.00360,-0.07472,0.98411,5.15125,0.15873
09:02:41.164930,5.16923,0.00668,0.00000,0.00000,-0.00103,-0.00310,-0.00005,0.00051,-0.00494,-0.07466,0.98594,5.16151,0.17338
09:02:41.175417,5.18041,0.00750,0.00000,0.00000,-0.00317,-0.00952,-0.00142,0.00158,-0.00275,-0.07521,0.98564,5.17189,0.14896
09:02:41.185323,5.19033,0.00677,0.00000,0.00000,0.00049,0.00148,0.00041,-0.00438,-0.00512,-0.07320,0.98552,5.18199,0.15873
09:02:41.196591,5.20157,0.00701,0.00000,0.00000,-0.00012,-0.00036,0.00102,0.00280,-0.00537,-0.07320,0.98417,5.19308,0.16850
09:02:41.206126,5.21113,0.00688,0.00000,0.00000,0.00065,0.00194,-0.00249,-0.00056,-0.00262,-0.07503,0.98527,5.20271,0.17582
09:02:41.216213,5.22120,0.00659,0.00000,0.00000,-0.00287,-0.00860,0.00194,-0.00117,-0.00268,-0.07479,0.98600,5.21289,0.17338
09:02:41.226597,5.23162,0.00665,0.00000,0.00000,-0.00134,-0.00402,0.00041,0.00158,-0.00427,-0.07540,0.98399,5.22399,0.15873
09:02:41.237012,5.24202,0.00673,0.00000,0.00000,0.00141,0.00423,-0.00111,-0.00025,-0.00604,-0.07662,0.98417,5.23373,0.16606
09:02:41.247359,5.25168,0.00588,0.00000,0.00000,0.00187,0.00560,-0.00035,-0.00102,-0.00213,-0.07503,0.98167,5.24401,0.17338
09:02:41.258129,5.26313,0.00667,0.00000,0.00000,0.00003,0.00010,-0.00066,-0.00025,-0.00226,-0.07448,0.98460,5.25477,0.15873
09:02:41.268781,5.27293,0.00626,0.00000,0.00000,0.00156,0.00468,-0.00005,-0.00071,-0.00586,-0.07533,0.98619,5.26549,0.16361
09:02:41.278674,5.28367,0.00680,0.00000,0.00000,-0.00042,-0.00127,-0.00111,0.00158,-0.00281,-0.07607,0.98454,5.27528,0.16361
09:02:41.289058,5.29405,0.00681,0.00000,0.00000,0.00019,0.00056,-0.00111,-0.00147,-0.00360,-0.07765,0.98631,5.28547,0.15629
09:02:41.299189,5.30419,0.00641,0.00000,0.00000,-0.00027,-0.00081,0.00102,-0.00025,-0.00616,-0.07515,0.98198,5.29591,0.17094
09:02:41.310504,5.31551,0.00736,0.00000,0.00000,-0.00027,-0.00081,-0.00005,-0.00010,-0.00293,-0.07399,0.98411,5.30718,0.16850
09:02:41.320921,5.32591,0.00741,0.00000,0.00000,-0.00042,-0.00127,0.00057,0.00097,-0.00305,-0.07601,0.98314,5.31706,0.16850
09:02:41.330403,5.33542,0.00656,0.00000,0.00000,-0.00302,-0.00906,0.00194,-0.00056,-0.00445,-0.07387,0.98192,5.32782,0.16606
09:02:41.341559,5.34657,0.00716,0.00000,0.00000,-0.00027,-0.00081,-0.00020,0.00143,-0.00494,-0.07698,0.98295,5.33805,0.16361
09:02:41.351613,5.35593,0.00632,0.00000,0.00000,-0.00302,-0.00906,0.00026,0.00143,-0.00281,-0.07472,0.98381,5.34774,0.15385
09:02:41.361573,5.36659,0.00672,0.00000,0.00000,-0.00027,-0.00081,0.00148,0.00051,-0.00311,-0.07594,0.98509,5.35829,0.16117
09:02:41.371687,5.37671,0.00647,0.00000,0.00000,-0.00302,-0.00906,-0.00066,0.00311,-0.00140,-0.07759,0.98423,5.36927,0.19048
09:02:41.382198,5.38720,0.00676,0.00000,0.00000,-0.00333,-0.00998,0.00179,-0.00239,-0.00561,-0.07533,0.98466,5.37889,0.16117
09:02:41.391791,5.39681,0.00601,0.00000,0.00000,-0.00180,-0.00540,-0.00096,-0.00040,-0.00268,-0.07466,0.98491,5.38923,0.18071
09:02:41.402735,5.40774,0.00643,0.00000,0.00000,0.00217,0.00652,0.00255,0.00082,-0.00494,-0.07655,0.98314,5.39942,0.18559
09:02:41.413502,5.41850,0.00672,0.00000,0.00000,-0.00073,-0.00219,0.00286,-0.00208,-0.00329,-0.07125,0.98210,5.41021,0.16850
09:02:41.423542,5.42785,0.00586,0.00000,0.00000,-0.00027,-0.00081,0.00163,-0.00163,-0.00348,-0.07710,0.98442,5.42022,0.16361
09:02:41.433945,5.43824,0.00589,0.00000,0.00000,-0.00027,-0.00081,-0.00127,0.00189,-0.00317,-0.07582,0.98491,5.43063,0.17338
09:02:41.444613,5.44868,0.00597,0.00000,0.00000,-0.00073,-0.00219,-0.00066,0.00051,-0.00384,-0.07637,0.98417,5.44099,0.15873
09:02:41.456044,5.46086,0.00761,0.00000,0.00000,0.00187,0.00560,0.00316,0.00143,-0.00220,-0.07381,0.98454,5.45167,0.16117
09:02:41.464600,5.46962,0.00608,0.00000,0.00000,-0.00073,-0.00219,-0.00005,-0.00147,-0.00201,-0.07460,0.98387,5.46198,0.16361
09:02:41.476295,5.48041,0.00667,0.00000,0.00000,-0.00134,-0.00402,0.00072,0.00112,-0.00329,-0.07601,0.98442,5.47257,0.16606
09:02:41.485703,5.49071,0.00676,0.00000,0.00000,0.00034,0.00102,-0.00050,0.00128,-0.00464,-0.07375,0.98356,5.48239,0.15873
09:02:41.496023,5.50083,0.00640,0.00000,0.00000,-0.00287,-0.00860,0.00118,-0.00071,-0.00268,-0.07576,0.98393,5.49252,0.15629
09:02:41.505683,5.51070,0.00592,0.00000,0.00000,0.00141,0.00423,-0.00371,-0.00117,-0.00451,-0.07503,0.98497,5.50308,0.16850
09:02:41.517509,5.52252,0.00673,0.00000,0.00000,-0.00073,-0.00219,-0.00005,-0.00086,-0.00421,-0.07466,0.98430,5.51422,0.17827
09:02:41.528515,5.53351,0.00737,0.00000,0.00000,-0.00287,-0.00860,-0.00295,-0.00071,-0.00323,-0.07552,0.98466,5.52521,0.16606
09:02:41.538753,5.54376,0.00725,0.00000,0.00000,0.00309,0.00927,-0.00310,0.00051,-0.00305,-0.07552,0.98466,5.53542,0.15629
09:02:41.549593,5.55459,0.00788,0.00000,0.00000,-0.00271,-0.00814,-0.00142,-0.00102,-0.00525,-0.07454,0.98179,5.54606,0.17338
09:02:41.559408,5.56441,0.00653,0.00000,0.00000,-0.00088,-0.00265,-0.00005,0.00189,-0.00335,-0.07448,0.98558,5.55611,0.16361
09:02:41.570551,5.57554,0.00669,0.00000,0.00000,-0.00073,-0.00219,0.00362,-0.00071,-0.00342,-0.07515,0.98539,5.56720,0.17094
09:02:41.581231,5.58624,0.00706,0.00000,0.00000,-0.00271,-0.00814,0.00057,-0.00178,-0.00445,-0.07619,0.98240,5.57747,0.16606
09:02:41.592101,5.59691,0.00747,0.00000,0.00000,-0.00165,-0.00494,-0.00188,-0.00086,-0.00415,-0.07509,0.98387,5.58831,0.16850
09:02:41.601828,5.60684,0.00679,0.00000,0.00000,-0.00333,-0.00998,0.00087,0.00005,-0.00445,-0.07479,0.98253,5.59848,0.15873
09:02:41.611133,5.61615,0.00590,0.00000,0.00000,-0.00348,-0.01043,-0.00432,-0.00071,-0.00476,-0.07472,0.98509,5.60849,0.16117
09:02:41.622821,5.62782,0.00726,0.00000,0.00000,0.00049,0.00148,0.00026,-0.00056,-0.00415,-0.07479,0.98350,5.61950,0.15873
09:02:41.632531,5.63753,0.00676,0.00000,0.00000,-0.00470,-0.01410,-0.00050,0.00082,-0.00287,-0.07430,0.98216,5.62920,0.17338
09:02:41.642680,5.64768,0.00669,0.00000,0.00000,0.00034,0.00102,-0.00249,0.00189,-0.00250,-0.07680,0.98436,5.63937,0.16117
09:02:41.652958,5.65798,0.00678,0.00000,0.00000,-0.00241,-0.00723,0.00163,-0.00132,-0.00207,-0.07546,0.98436,5.65004,0.18071
09:02:41.664378,5.66939,0.00759,0.00000,0.00000,-0.00042,-0.00127,-0.00127,0.00097,-0.00323,-0.07698,0.98430,5.66032,0.17094
09:02:41.673776,5.67808,0.00607,0.00000,0.00000,-0.00073,-0.00219,0.00072,0.00143,-0.00299,-0.07576,0.98247,5.67044,0.16361
09:02:41.683814,5.68881,0.00645,0.00000,0.00000,0.00248,0.00743,-0.00020,0.00066,-0.00342,-0.07704,0.98375,5.68046,0.16606
09:02:41.695280,5.70028,0.00738,0.00000,0.00000,0.00003,0.00010,0.00347,-0.00270,-0.00378,-0.07247,0.98143,5.69198,0.16361
09:02:41.704865,5.70986,0.00663,0.00000,0.00000,0.00080,0.00239,0.00026,-0.00285,-0.00360,-0.07509,0.98448,5.70150,0.16361
09:02:41.714875,5.71987,0.00642,0.00000,0.00000,0.00049,0.00148,0.00179,-0.00117,-0.00348,-0.07631,0.98521,5.71158,0.15873
09:02:41.725351,5.73037,0.00671,0.00000,0.00000,-0.00195,-0.00585,0.00148,0.00158,-0.00409,-0.07442,0.98295,5.72209,0.15140
09:02:41.736242,5.74123,0.00738,0.00000,0.00000,-0.00058,-0.00173,0.00224,-0.00086,-0.00317,-0.07649,0.98375,5.73269,0.16606
09:02:41.746311,5.75131,0.00670,0.00000,0.00000,0.00034,0.00102,0.00286,0.00005,-0.00268,-0.07485,0.98417,5.74302,0.17338
09:02:41.756286,5.76129,0.00630,0.00000,0.00000,-0.00119,-0.00356,-0.00341,-0.00010,-0.00421,-0.07454,0.98448,5.75365,0.19536
09:02:41.766516,5.77153,0.00587,0.00000,0.00000,-0.00302,-0.00906,-0.00188,0.00280,-0.00427,-0.07509,0.98564,5.76391,0.16850
09:02:41.778100,5.78310,0.00706,0.00000,0.00000,-0.00119,-0.00356,0.00240,0.00021,-0.00537,-0.07479,0.98497,5.77432,0.16117
09:02:41.787758,5.79276,0.00653,0.00000,0.00000,-0.00210,-0.00631,-0.00035,-0.00331,-0.00415,-0.07613,0.98521,5.78445,0.15629
09:02:41.798300,5.80259,0.00599,0.00000,0.00000,-0.00042,-0.00127,-0.00173,-0.00193,-0.00451,-0.07387,0.98253,5.79489,0.15873
09:02:41.808674,5.81367,0.00671,0.00000,0.00000,-0.00012,-0.00036,-0.00066,0.00143,-0.00293,-0.07460,0.98399,5.80524,0.15873
09:02:41.819014,5.82401,0.00648,0.00000,0.00000,-0.00180,-0.00540,-0.00310,0.00066,-0.00323,-0.07649,0.98381,5.81574,0.16850
09:02:41.829417,5.83444,0.00655,0.00000,0.00000,-0.00180,-0.00540,0.00057,0.00082,-0.00573,-0.07497,0.98149,5.82617,0.15873
09:02:41.839683,5.84399,0.00574,0.00000,0.00000,0.00156,0.00468,0.00377,-0.00117,-0.00256,-0.07375,0.98417,5.83635,0.17338
09:02:41.850909,5.85506,0.00643,0.00000,0.00000,-0.00012,-0.00036,0.00102,-0.00117,-0.00500,-0.07375,0.98478,5.84720,0.17827
09:02:41.860695,5.86571,0.00637,0.00000,0.00000,-0.00103,-0.00310,-0.00111,-0.00208,-0.00634,-0.07558,0.98356,5.85778,0.15629
09:02:41.871599,5.87660,0.00707,0.00000,0.00000,-0.00027,-0.00081,-0.00066,0.00265,-0.00329,-0.07570,0.98399,5.86830,0.16606
09:02:41.882274,5.88727,0.00738,0.00000,0.00000,0.00049,0.00148,0.00209,-0.00040,-0.00427,-0.07698,0.98411,5.87895,0.17094
09:02:41.892907,5.89791,0.00701,0.00000,0.00000,-0.00424,-0.01273,-0.00127,-0.00117,-0.00396,-0.07479,0.98314,5.88930,0.16117
09:02:41.902820,5.90782,0.00654,0.00000,0.00000,-0.00042,-0.00127,0.00331,-0.00025,-0.00464,-0.07619,0.98369,5.89952,0.16361
09:02:41.913380,5.91840,0.00675,0.00000,0.00000,-0.00882,-0.02647,-0.00066,-0.00224,-0.00311,-0.07448,0.98314,5.91002,0.16606
09:02:41.924313,5.92846,0.00662,0.00000,0.00000,-0.00195,-0.00585,-0.00111,-0.00117,-0.00366,-0.07668,0.98552,5.92099,0.16850
09:02:41.934858,5.93985,0.00740,0.00000,0.00000,-0.00058,-0.00173,-0.00066,-0.00040,-0.00384,-0.07588,0.98338,5.93156,0.17094
09:02:41.944626,5.94962,0.00671,0.00000,0.00000,-0.00256,-0.00769,-0.00356,0.00021,-0.00378,-0.07698,0.98344,5.94132,0.17582
09:02:41.955055,5.96007,0.00666,0.00000,0.00000,-0.00363,-0.01089,0.00362,0.00005,-0.00354,-0.07588,0.98667,5.95152,0.15873
09:02:41.965140,5.97016,0.00654,0.00000,0.00000,-0.00119,-0.00356,-0.00066,0.00128,-0.00421,-0.07546,0.98436,5.96206,0.18071
09:02:41.976208,5.98120,0.00738,0.00000,0.00000,0.00080,0.00239,-0.00005,0.00036,-0.00293,-0.07485,0.98472,5.97290,0.18559
09:02:41.986676,5.99100,0.00690,0.00000,0.00000,-0.00103,-0.00310,-0.00341,-0.00132,-0.00305,-0.07509,0.98442,5.98281,0.17338
09:02:41.996793,6.00095,0.00602,0.00000,0.00000,0.00156,0.00468,-0.00066,-0.00010,-0.00482,-0.07454,0.98362,5.99349,0.16361
09:02:42.006584,6.01160,0.00590,0.00000,0.00000,-0.00470,-0.01410,0.00347,-0.00163,-0.00445,-0.07655,0.98497,6.00394,0.17338
09:02:42.017632,6.02264,0.00673,0.00000,0.00000,0.00232,0.00697,-0.00173,0.00296,-0.00354,-0.07527,0.98655,6.01433,0.16606
09:02:42.028608,6.03360,0.00733,0.00000,0.00000,0.00324,0.00972,-0.00295,0.00021,-0.00348,-0.07497,0.98436,6.02528,0.18803
09:02:42.038812,6.04381,0.00685,0.00000,0.00000,-0.00226,-0.00677,-0.00279,-0.00025,-0.00354,-0.07527,0.98576,6.03525,0.16850
09:02:42.048903,6.05325,0.00592,0.00000,0.00000,0.00126,0.00377,-0.00035,-0.00193,-0.00329,-0.07576,0.98417,6.04562,0.16117
09:02:42.060138,6.06495,0.00724,0.00000,0.00000,0.00110,0.00331,-0.00020,-0.00025,-0.00311,-0.07491,0.98478,6.05593,0.16606
09:02:42.070463,6.07547,0.00740,0.00000,0.00000,0.00110,0.00331,-0.00173,0.00250,-0.00458,-0.07552,0.98521,6.06701,0.15385
09:02:42.080452,6.08458,0.00630,0.00000,0.00000,0.00156,0.00468,0.00240,-0.00193,-0.00543,-0.07521,0.98399,6.07715,0.16361
09:02:42.090425,6.09542,0.00694,0.00000,0.00000,-0.00302,-0.00906,-0.00279,-0.00147,-0.00464,-0.07723,0.98399,6.08693,0.15873
09:02:42.100459,6.10548,0.00664,0.00000,0.00000,0.00294,0.00881,0.00041,-0.00102,-0.00323,-0.07674,0.98332,6.09778,0.16850
09:02:42.112310,6.11730,0.00755,0.00000,0.00000,-0.00103,-0.00310,0.00072,-0.00071,-0.00415,-0.07491,0.98594,6.10789,0.16117
09:02:42.121799,6.12681,0.00683,0.00000,0.00000,-0.00134,-0.00402,0.00057,-0.00132,-0.00281,-0.07540,0.98430,6.11848,0.16361
09:02:42.133390,6.13840,0.00746,0.00000,0.00000,0.00049,0.00148,0.00194,-0.00254,-0.00293,-0.07601,0.98484,6.12984,0.16361
09:02:42.142772,6.14778,0.00652,0.00000,0.00000,-0.00226,-0.00677,-0.00127,-0.00376,-0.00305,-0.07875,0.98155,6.13948,0.16361
09:02:42.154070,6.15908,0.00746,0.00000,0.00000,0.00294,0.00881,-0.00325,0.00021,-0.00366,-0.07460,0.98478,6.15062,0.16606
09:02:42.163485,6.16850,0.00668,0.00000,0.00000,-0.00042,-0.00127,-0.00050,0.00128,-0.00317,-0.07753,0.98430,6.16062,0.18559
09:02:42.175510,6.18051,0.00848,0.00000,0.00000,0.00065,0.00194,0.00102,-0.00132,-0.00335,-0.07491,0.98460,6.17218,0.17094
09:02:42.184122,6.18893,0.00645,0.00000,0.00000,-0.00012,-0.00036,-0.00188,-0.00040,-0.00329,-0.07399,0.98448,6.18063,0.16361
09:02:42.194742,6.19974,0.00690,0.00000,0.00000,-0.00317,-0.00952,0.00041,0.00005,-0.00220,-0.07674,0.98478,6.19127,0.17338
09:02:42.205545,6.21056,0.00737,0.00000,0.00000,0.00248,0.00743,0.00209,0.00189,-0.00543,-0.07387,0.98448,6.20202,0.17582
09:02:42.215629,6.22064,0.00656,0.00000,0.00000,-0.00103,-0.00310,-0.00127,-0.00025,-0.00275,-0.07326,0.98588,6.21230,0.16850
09:02:42.225358,6.23037,0.00594,0.00000,0.00000,-0.00241,-0.00723,0.00163,0.00051,-0.00427,-0.07540,0.98442,6.22273,0.16850
09:02:42.236472,6.24147,0.00662,0.00000,0.00000,0.00095,0.00285,-0.00020,-0.00071,-0.00592,-0.07576,0.98301,6.23317,0.15873
09:02:42.246811,6.25182,0.00646,0.00000,0.00000,-0.00088,-0.00265,-0.00218,0.00143,-0.00488,-0.07643,0.98381,6.24347,0.16117
09:02:42.257303,6.26231,0.00660,0.00000,0.00000,-0.00042,-0.00127,0.00057,-0.00163,-0.00464,-0.07363,0.98350,6.25401,0.16606
09:02:42.268779,6.27294,0.00693,0.00000,0.00000,-0.03662,-0.10985,-0.00264,0.00128,-0.00201,-0.07485,0.98509,6.26498,0.15873
09:02:42.277767,6.28279,0.00642,0.00000,0.00000,-0.00058,-0.00173,-0.00066,-0.00132,-0.00464,-0.07643,0.98405,6.27515,0.16606
09:02:42.289929,6.29494,0.00821,0.00000,0.00000,-0.00409,-0.01227,0.00102,0.00189,-0.00329,-0.07570,0.98509,6.28627,0.16850
09:02:42.298238,6.30326,0.00631,0.00000,0.00000,-0.00348,-0.01043,0.00133,0.00005,-0.00421,-0.07472,0.98240,6.29564,0.16850
09:02:42.307288,6.31231,0.00501,0.00000,0.00000,-0.00088,-0.00265,-0.00325,-0.00040,-0.00311,-0.07479,0.98466,6.30547,0.16606
09:02:42.318921,6.32392,0.00642,0.00000,0.00000,-0.00149,-0.00448,0.00454,-0.00071,-0.00268,-0.07503,0.98643,6.31562,0.16850
09:02:42.328941,6.33396,0.00610,0.00000,0.00000,-0.00058,-0.00173,-0.00325,-0.00193,-0.00329,-0.07430,0.98399,6.32636,0.15385
09:02:42.339829,6.34483,0.00661,0.00000,0.00000,-0.00103,-0.00310,0.00224,-0.00056,-0.00518,-0.07497,0.98411,6.33631,0.16850
09:02:42.350575,6.35554,0.00602,0.00000,0.00000,0.00049,0.00148,0.00377,-0.00254,-0.00573,-0.07460,0.98338,6.34683,0.15873
09:02:42.360918,6.36591,0.00711,0.00000,0.00000,0.00126,0.00377,0.00499,-0.00040,-0.00256,-0.07540,0.98539,6.35710,0.17094
09:02:42.370812,6.37583,0.00640,0.00000,0.00000,0.00126,0.00377,-0.00050,0.00143,-0.00372,-0.07674,0.98106,6.36820,0.14652
09:02:42.382031,6.38634,0.00610,0.00000,0.00000,-0.00134,-0.00402,0.00347,-0.00193,-0.00464,-0.07472,0.98631,6.37869,0.16117
09:02:42.393320,6.39832,0.00772,0.00000,0.00000,-0.00256,-0.00769,0.00041,0.00128,-0.00610,-0.07533,0.98521,6.38889,0.15629
09:02:42.402563,6.40757,0.00660,0.00000,0.00000,0.00294,0.00881,-0.00539,-0.00025,-0.00354,-0.07454,0.98253,6.39926,0.16850
09:02:42.412909,6.41791,0.00658,0.00000,0.00000,-0.00256,-0.00769,0.00087,-0.00132,-0.00427,-0.07607,0.98423,6.40962,0.16850
09:02:42.423161,6.42816,0.00658,0.00000,0.00000,0.00034,0.00102,-0.00066,0.00143,-0.00537,-0.07588,0.98106,6.41979,0.16117
09:02:42.433403,6.43842,0.00648,0.00000,0.00000,-0.00241,-0.00723,-0.00035,0.00128,-0.00458,-0.07509,0.98527,6.43079,0.16361
09:02:42.444537,6.44952,0.00719,0.00000,0.00000,-0.00027,-0.00081,0.00209,-0.00208,-0.00311,-0.07582,0.98369,6.44090,0.16361
09:02:42.454392,6.45939,0.00673,0.00000,0.00000,-0.00103,-0.00310,-0.00066,0.00173,-0.00268,-0.07540,0.98478,6.45096,0.17094
09:02:42.464604,6.46960,0.00657,0.00000,0.00000,-0.00256,-0.00769,0.00545,-0.00071,-0.00366,-0.07564,0.98613,6.46131,0.16606
09:02:42.474374,6.47939,0.00608,0.00000,0.00000,-0.00058,-0.00173,-0.00356,0.00173,-0.00531,-0.07472,0.98369,6.47148,0.17827
09:02:42.485689,6.48958,0.00591,0.00000,0.00000,-0.00134,-0.00402,0.00087,0.00173,-0.00616,-0.07753,0.98472,6.48197,0.18315
09:02:42.495813,6.50082,0.00679,0.00000,0.00000,0.00034,0.00102,0.00286,-0.00193,-0.00171,-0.07521,0.98484,6.49220,0.15873
09:02:42.506083,6.51109,0.00670,0.00000,0.00000,-0.00042,-0.00127,0.00133,-0.00025,-0.00378,-0.07704,0.98265,6.50277,0.15873
09:02:42.516921,6.52192,0.00717,0.00000,0.00000,0.00171,0.00514,-0.00020,-0.00224,-0.00311,-0.07594,0.98393,6.51364,0.15873
09:02:42.526703,6.53170,0.00642,0.00000,0.00000,0.00156,0.00468,-0.00035,0.00021,-0.00354,-0.07442,0.98222,6.52339,0.16850
09:02:42.538106,6.54284,0.00720,0.00000,0.00000,0.00263,0.00789,-0.00066,-0.00163,-0.00293,-0.07436,0.98320,6.53395,0.16606
09:02:42.547248,6.55225,0.00641,0.00000,0.00000,-0.00256,-0.00769,-0.00157,0.00021,-0.00116,-0.07405,0.98362,6.54396,0.17094
09:02:42.558367,6.56336,0.00663,0.00000,0.00000,0.00126,0.00377,-0.00096,-0.00117,-0.00311,-0.07454,0.98637,6.55451,0.16361
09:02:42.568273,6.57328,0.00669,0.00000,0.00000,0.00324,0.00972,0.00011,0.00036,-0.00427,-0.07314,0.98332,6.56467,0.15629
09:02:42.579490,6.58390,0.00692,0.00000,0.00000,0.00049,0.00148,-0.00066,-0.00025,-0.00220,-0.07594,0.98448,6.57531,0.15629
09:02:42.589314,6.59433,0.00698,0.00000,0.00000,0.00171,0.00514,0.00118,-0.00147,-0.00439,-0.07442,0.98362,6.58564,0.16850
09:02:42.599139,6.60414,0.00651,0.00000,0.00000,0.00003,0.00010,0.00179,0.00128,-0.00366,-0.07546,0.98436,6.59586,0.15629
09:02:42.610590,6.61534,0.00734,0.00000,0.00000,-0.00287,-0.00860,0.00026,-0.00224,-0.00403,-0.07594,0.98472,6.60649,0.15873
09:02:42.619762,6.62476,0.00641,0.00000,0.00000,-0.00058,-0.00173,-0.00066,0.00158,-0.00470,-0.07674,0.98527,6.61646,0.16117
09:02:42.630358,6.63536,0.00665,0.00000,0.00000,-0.00042,-0.00127,0.00194,-0.00086,-0.00396,-0.07668,0.98594,6.62701,0.16361
09:02:42.641777,6.64677,0.00770,0.00000,0.00000,0.00278,0.00835,-0.00127,-0.00056,-0.00415,-0.07601,0.98491,6.63735,0.16606
09:02:42.650848,6.65517,0.00573,0.00000,0.00000,-0.00058,-0.00173,0.00026,0.00173,-0.00256,-0.07418,0.98564,6.64755,0.17094
09:02:42.661958,6.66697,0.00718,0.00000,0.00000,0.00003,0.00010,0.00026,-0.00331,-0.00220,-0.07625,0.98588,6.65861,0.15629
09:02:42.671543,6.67654,0.00639,0.00000,0.00000,0.00171,0.00514,-0.00035,-0.00025,-0.00384,-0.07448,0.98527,6.66825,0.15873
09:02:42.683419,6.68842,0.00791,0.00000,0.00000,-0.00333,-0.00998,0.00377,0.00036,-0.00451,-0.07637,0.98387,6.67986,0.15385
09:02:42.693444,6.69845,0.00699,0.00000,0.00000,0.00034,0.00102,0.00194,-0.00040,-0.00305,-0.07674,0.98387,6.68990,0.15629
09:02:42.703113,6.70812,0.00645,0.00000,0.00000,-0.00134,-0.00402,0.00057,0.00097,-0.00378,-0.07515,0.98460,6.69979,0.17338
09:02:42.714955,6.71997,0.00718,0.00000,0.00000,-0.00103,-0.00310,0.00698,-0.00010,-0.00372,-0.07375,0.98454,6.71110,0.18071
09:02:42.725239,6.73022,0.00707,0.00000,0.00000,-0.00103,-0.00310,0.00072,0.00112,-0.00342,-0.07686,0.98271,6.72144,0.16361
09:02:42.734936,6.73925,0.00590,0.00000,0.00000,-0.00088,-0.00265,-0.00020,-0.00010,-0.00445,-0.07479,0.98649,6.73164,0.16117
09:02:42.746133,6.75082,0.00727,0.00000,0.00000,0.00065,0.00194,0.00423,0.00021,-0.00213,-0.07546,0.98430,6.74201,0.17094
09:02:42.755129,6.76012,0.00638,0.00000,0.00000,0.00034,0.00102,-0.00066,-0.00346,-0.00281,-0.07375,0.98442,6.75187,0.17094
09:02:42.764961,6.76998,0.00587,0.00000,0.00000,-0.00180,-0.00540,0.00515,-0.00071,-0.00232,-0.07643,0.98228,6.76239,0.16606
09:02:42.777554,6.78255,0.00809,0.00000,0.00000,0.00171,0.00514,-0.00157,-0.00163,-0.00537,-0.07320,0.98442,6.77256,0.16850
09:02:42.786409,6.79142,0.00659,0.00000,0.00000,-0.00195,-0.00585,0.00072,0.00097,-0.00488,-0.07521,0.98289,6.78311,0.16117
09:02:42.797972,6.80270,0.00752,0.00000,0.00000,0.00141,0.00423,0.00133,-0.00040,-0.00439,-0.07564,0.98521,6.79383,0.16850
09:02:42.806854,6.81116,0.00572,0.00000,0.00000,-0.00012,-0.00036,0.00087,-0.00254,-0.00317,-0.07613,0.98411,6.80354,0.17094
09:02:42.818010,6.82242,0.00662,0.00000,0.00000,0.00156,0.00468,0.00224,0.00143,-0.00256,-0.07546,0.98320,6.81409,0.17094
09:02:42.827542,6.83254,0.00638,0.00000,0.00000,0.00110,0.00331,0.00011,0.00051,-0.00372,-0.07692,0.98442,6.82422,0.16850
09:02:42.838394,6.84267,0.00615,0.00000,0.00000,0.00370,0.01110,-0.00234,-0.00025,-0.00433,-0.07527,0.98521,6.83482,0.17338
09:02:42.848965,6.85396,0.00724,0.00000,0.00000,0.00003,0.00010,0.00026,-0.00086,-0.00244,-0.07741,0.98423,6.84515,0.16117
09:02:42.859077,6.86339,0.00644,0.00000,0.00000,0.00110,0.00331,0.00011,-0.00285,-0.00415,-0.07503,0.98295,6.85579,0.16850
09:02:42.868993,6.87399,0.00668,0.00000,0.00000,0.00141,0.00423,-0.00066,-0.00025,-0.00458,-0.07472,0.98521,6.86546,0.16850
09:02:42.879037,6.88404,0.00654,0.00000,0.00000,-0.00134,-0.00402,0.00499,0.00066,-0.00476,-0.07369,0.98478,6.87563,0.17094
09:02:42.891774,6.89661,0.00875,0.00000,0.00000,-0.00363,-0.01089,-0.00127,-0.00102,-0.00555,-0.07570,0.98606,6.88833,0.16850
09:02:42.899244,6.90426,0.00578,0.00000,0.00000,-0.00103,-0.00310,-0.00188,0.00234,-0.00390,-0.07570,0.98509,6.89661,0.16361
09:02:42.911038,6.91604,0.00656,0.00000,0.00000,0.00187,0.00560,0.00102,-0.00270,-0.00256,-0.07588,0.98338,6.90770,0.15629
09:02:42.921432,6.92645,0.00660,0.00000,0.00000,-0.00027,-0.00081,0.00041,0.00204,-0.00506,-0.07527,0.98436,6.91815,0.15873
09:02:42.931555,6.93655,0.00634,0.00000,0.00000,-0.00195,-0.00585,-0.00005,-0.00163,-0.00579,-0.07680,0.98552,6.92830,0.17582
09:02:42.941787,6.94681,0.00623,0.00000,0.00000,0.00003,0.00010,-0.00020,0.00112,-0.00458,-0.07582,0.98460,6.93893,0.17338
09:02:42.952915,6.95664,0.00571,0.00000,0.00000,0.00660,0.01980,0.00163,0.00112,-0.00647,-0.07472,0.98454,6.94922,0.16606
09:02:42.962914,6.96791,0.00647,0.00000,0.00000,0.00034,0.00102,-0.00142,-0.00117,-0.00390,-0.07649,0.98454,6.95956,0.15140
09:02:42.973386,6.97840,0.00660,0.00000,0.00000,-0.00103,-0.00310,-0.00020,0.00066,-0.00177,-0.07503,0.98570,6.97010,0.16606
09:02:42.984061,6.98887,0.00671,0.00000,0.00000,0.00156,0.00468,0.00118,-0.00163,-0.00348,-0.07491,0.98448,6.98112,0.16850
09:02:42.995638,7.00063,0.00779,0.00000,0.00000,0.00095,0.00285,-0.00173,0.00204,-0.00451,-0.07399,0.98661,6.99203,0.19048
09:02:43.006396,7.01114,0.00794,0.00000,0.00000,-0.00271,-0.00814,0.00087,-0.00025,-0.00335,-0.07582,0.98515,7.00225,0.17094
09:02:43.015410,7.01973,0.00634,0.00000,0.00000,-0.00165,-0.00494,-0.00310,-0.00025,-0.00390,-0.07466,0.98369,7.01204,0.16606
09:02:43.025398,7.03041,0.00666,0.00000,0.00000,-0.00088,-0.00265,-0.00127,0.00296,-0.00439,-0.07546,0.98527,7.02211,0.16850
09:02:43.035500,7.04050,0.00639,0.00000,0.00000,-0.00241,-0.00723,0.00163,0.00005,-0.00427,-0.07442,0.98411,7.03219,0.18071
09:02:43.045561,7.05058,0.00611,0.00000,0.00000,-0.00027,-0.00081,0.00163,0.00143,-0.00482,-0.07674,0.98320,7.04278,0.16850
09:02:43.056418,7.06141,0.00658,0.00000,0.00000,0.00049,0.00148,-0.00478,-0.00208,-0.00323,-0.07704,0.98362,7.05313,0.16850
09:02:43.066726,7.07172,0.00639,0.00000,0.00000,-0.00103,-0.00310,-0.00142,-0.00117,-0.00329,-0.07296,0.98497,7.06345,0.17338
09:02:43.077762,7.08160,0.00591,0.00000,0.00000,-0.00394,-0.01181,0.00163,0.00036,-0.00451,-0.07296,0.98430,7.07398,0.15873
09:02:43.087521,7.09254,0.00640,0.00000,0.00000,0.00080,0.00239,0.00286,-0.00331,-0.00244,-0.07442,0.98356,7.08495,0.15873
09:02:43.098520,7.10352,0.00713,0.00000,0.00000,-0.00149,-0.00448,-0.00463,-0.00040,-0.00207,-0.07637,0.98240,7.09518,0.16361
09:02:43.108403,7.11252,0.00577,0.00000,0.00000,-0.00058,-0.00173,0.00102,0.00021,-0.00287,-0.07723,0.98613,7.10506,0.16606
09:02:43.118756,7.12376,0.00648,0.00000,0.00000,-0.00012,-0.00036,0.00133,-0.00300,-0.00305,-0.07698,0.98478,7.11539,0.18071
09:02:43.129246,7.13425,0.00662,0.00000,0.00000,-0.00088,-0.00265,-0.00188,0.00189,-0.00464,-0.07412,0.98411,7.12595,0.17094
09:02:43.140544,7.14484,0.00638,0.00000,0.00000,0.00065,0.00194,0.00041,-0.00407,-0.00579,-0.07430,0.98344,7.13655,0.17338
09:02:43.150445,7.15544,0.00662,0.00000,0.00000,0.00324,0.00972,-0.00066,0.00066,-0.00287,-0.07564,0.98527,7.14712,0.16606
09:02:43.161118,7.16543,0.00620,0.00000,0.00000,0.00110,0.00331,0.00026,-0.00071,-0.00579,-0.07222,0.98417,7.15776,0.16606
09:02:43.172062,7.17608,0.00659,0.00000,0.00000,0.00202,0.00606,-0.00020,0.00066,-0.00647,-0.07442,0.98320,7.16762,0.16361
09:02:43.181432,7.18644,0.00659,0.00000,0.00000,0.00065,0.00194,-0.00127,-0.00193,-0.00244,-0.07631,0.98399,7.17815,0.16850
09:02:43.192893,7.19692,0.00687,0.00000,0.00000,-0.00103,-0.00310,0.00118,0.00051,-0.00531,-0.07405,0.98631,7.18846,0.16606
09:02:43.202504,7.20752,0.00710,0.00000,0.00000,-0.00241,-0.00723,0.00331,0.00082,-0.00329,-0.07607,0.98631,7.19871,0.15629
09:02:43.213134,7.21815,0.00738,0.00000,0.00000,-0.00134,-0.00402,0.00148,0.00112,-0.00488,-0.07643,0.98350,7.20907,0.16850
09:02:43.222689,7.22769,0.00641,0.00000,0.00000,-0.00088,-0.00265,0.00072,-0.00010,-0.00403,-0.07619,0.98509,7.21940,0.15385
09:02:43.233633,7.23793,0.00629,0.00000,0.00000,-0.00302,-0.00906,0.00454,-0.00056,-0.00293,-0.07613,0.98594,7.23026,0.17094
09:02:43.244088,7.24889,0.00689,0.00000,0.00000,0.00034,0.00102,-0.00066,0.00311,-0.00213,-0.07393,0.98173,7.24023,0.17338
09:02:43.254836,7.25956,0.00719,0.00000,0.00000,-0.00042,-0.00127,0.00072,-0.00193,-0.00390,-0.07576,0.98240,7.25065,0.16117
09:02:43.264296,7.26929,0.00657,0.00000,0.00000,-0.00607,-0.01822,0.00133,-0.00147,-0.00268,-0.07393,0.98399,7.26102,0.17094
09:02:43.274760,7.27976,0.00644,0.00000,0.00000,0.00003,0.00010,0.00026,0.00066,-0.00079,-0.07619,0.98411,7.27145,0.16361
09:02:43.286235,7.29125,0.00758,0.00000,0.00000,-0.00363,-0.01089,0.00118,0.00341,-0.00421,-0.07540,0.98369,7.28272,0.16606
09:02:43.296917,7.30193,0.00754,0.00000,0.00000,-0.00210,-0.00631,-0.00264,-0.00163,-0.00342,-0.07479,0.98344,7.29246,0.17338
09:02:43.305749,7.31076,0.00599,0.00000,0.00000,-0.00226,-0.00677,0.00270,0.00082,-0.00482,-0.07497,0.98448,7.30311,0.16606
09:02:43.317309,7.32232,0.00719,0.00000,0.00000,0.00171,0.00514,-0.00035,0.00021,-0.00293,-0.07497,0.98326,7.31373,0.16850
09:02:43.327511,7.33251,0.00651,0.00000,0.00000,0.00065,0.00194,-0.00371,0.00021,-0.00433,-0.07582,0.98350,7.32422,0.16850
09:02:43.339025,7.34376,0.00753,0.00000,0.00000,0.00049,0.00148,0.00041,0.00005,-0.00262,-0.07442,0.98503,7.33467,0.16606
09:02:43.348168,7.35298,0.00641,0.00000,0.00000,0.00080,0.00239,-0.00096,0.00250,-0.00384,-0.07625,0.98448,7.34467,0.15385
09:02:43.358888,7.36388,0.00696,0.00000,0.00000,-0.00073,-0.00219,0.00148,-0.00056,-0.00433,-0.07668,0.98460,7.35562,0.16850
09:02:43.369118,7.37384,0.00649,0.00000,0.00000,-0.00348,-0.01043,0.00163,-0.00025,-0.00335,-0.07430,0.98204,7.36565,0.16606
09:02:43.379017,7.38402,0.00648,0.00000,0.00000,0.00049,0.00148,0.00301,0.00097,-0.00555,-0.07619,0.98527,7.37573,0.16850
09:02:43.390301,7.39530,0.00713,0.00000,0.00000,-0.00378,-0.01135,0.00011,-0.00071,-0.00384,-0.07466,0.98399,7.38666,0.16606
09:02:43.401207,7.40622,0.00758,0.00000,0.00000,-0.00134,-0.00402,-0.00371,0.00051,-0.00329,-0.07625,0.98308,7.39783,0.18315
09:02:43.410586,7.41559,0.00660,0.00000,0.00000,0.00187,0.00560,-0.00157,-0.00025,-0.00384,-0.07613,0.98259,7.40728,0.17582
09:02:43.420960,7.42596,0.00661,0.00000,0.00000,-0.00119,-0.00356,-0.00203,0.00082,-0.00458,-0.07375,0.98503,7.41766,0.16361
09:02:43.430945,7.43594,0.00640,0.00000,0.00000,-0.00241,-0.00723,-0.00173,-0.00056,-0.00287,-0.07399,0.98173,7.42766,0.15873
09:02:43.441482,7.44650,0.00659,0.00000,0.00000,-0.00333,-0.00998,-0.00173,-0.00040,-0.00470,-0.07393,0.98582,7.43820,0.17827
09:02:43.450967,7.45599,0.00572,0.00000,0.00000,-0.00165,-0.00494,0.00301,-0.00208,-0.00299,-0.07338,0.98204,7.44835,0.15873
09:02:43.462852,7.46785,0.00737,0.00000,0.00000,-0.00195,-0.00585,-0.00142,-0.00117,-0.00604,-0.07466,0.98448,7.45954,0.15873
09:02:43.471465,7.47648,0.00583,0.00000,0.00000,0.00385,0.01156,0.00087,-0.00132,-0.00287,-0.07515,0.98301,7.46903,0.16606
09:02:43.482562,7.48756,0.00671,0.00000,0.00000,0.00095,0.00285,0.00011,0.00189,-0.00439,-0.07381,0.98344,7.47927,0.17338
09:02:43.494104,7.49911,0.00790,0.00000,0.00000,-0.00210,-0.00631,-0.00264,-0.00117,-0.00403,-0.07393,0.98387,7.48947,0.16606
09:02:43.503681,7.50867,0.00723,0.00000,0.00000,-0.00302,-0.00906,-0.00386,-0.00147,-0.00207,-0.07631,0.98332,7.50035,0.17338
09:02:43.513498,7.51851,0.00670,0.00000,0.00000,-0.00027,-0.00081,-0.00295,-0.00132,-0.00183,-0.07418,0.98661,7.51013,0.15873
09:02:43.525242,7.53026,0.00808,0.00000,0.00000,0.00278,0.00835,0.00011,-0.00300,-0.00372,-0.07412,0.98448,7.52187,0.16606
09:02:43.535149,7.54015,0.00718,0.00000,0.00000,0.00019,0.00056,0.00133,0.00051,-0.00445,-0.07533,0.98545,7.53135,0.15873
09:02:43.544934,7.54993,0.00660,0.00000,0.00000,-0.00195,-0.00585,-0.00111,-0.00117,-0.00317,-0.07424,0.98539,7.54164,0.17338
09:02:43.554922,7.55992,0.00639,0.00000,0.00000,0.00095,0.00285,0.00057,-0.00056,-0.00488,-0.07387,0.98484,7.55165,0.16606
09:02:43.566284,7.57051,0.00662,0.00000,0.00000,-0.00241,-0.00723,-0.00188,-0.00086,-0.00299,-0.07418,0.98417,7.56218,0.18559
09:02:43.574940,7.57996,0.00571,0.00000,0.00000,0.00065,0.00194,0.00194,-0.00163,-0.00415,-0.07649,0.98454,7.57233,0.16361
09:02:43.586286,7.59129,0.00681,0.00000,0.00000,0.00110,0.00331,0.00087,-0.00040,-0.00458,-0.07588,0.98369,7.58296,0.16117
09:02:43.597573,7.60257,0.00773,0.00000,0.00000,-0.00256,-0.00769,0.00255,-0.00040,-0.00360,-0.07393,0.98271,7.59377,0.16117
09:02:43.606798,7.61180,0.00644,0.00000,0.00000,0.00156,0.00468,-0.00111,0.00204,-0.00317,-0.07662,0.98448,7.60348,0.17338
09:02:43.617343,7.62235,0.00676,0.00000,0.00000,0.00370,0.01110,0.00148,-0.00163,-0.00482,-0.07479,0.98399,7.61409,0.17338
09:02:43.627201,7.63220,0.00641,0.00000,0.00000,0.00003,0.00010,-0.00081,-0.00010,-0.00360,-0.07533,0.98399,7.62390,0.16606
09:02:43.637733,7.64275,0.00660,0.00000,0.00000,-0.00149,-0.00448,0.00286,0.00066,-0.00360,-0.07454,0.98497,7.63442,0.17094
09:02:43.649116,7.65410,0.00719,0.00000,0.00000,0.00156,0.00468,-0.00066,0.00219,-0.00305,-0.07509,0.98393,7.64531,0.16361
09:02:43.658887,7.66389,0.00641,0.00000,0.00000,-0.00409,-0.01227,-0.00005,-0.00010,-0.00366,-0.07418,0.98484,7.65560,0.16361
09:02:43.669652,7.67467,0.00683,0.00000,0.00000,0.00080,0.00239,0.00347,0.00143,-0.00415,-0.07247,0.98369,7.66703,0.16606
09:02:43.678883,7.68390,0.00570,0.00000,0.00000,0.00187,0.00560,-0.00066,-0.00346,-0.00451,-0.07405,0.98271,7.67628,0.17094
09:02:43.690208,7.69521,0.00666,0.00000,0.00000,-0.00027,-0.00081,0.00011,-0.00102,-0.00409,-0.07552,0.98265,7.68685,0.15873
09:02:43.700940,7.70595,0.00704,0.00000,0.00000,0.00034,0.00102,0.00102,-0.00270,-0.00250,-0.07460,0.98399,7.69811,0.16117
09:02:43.712418,7.71741,0.00763,0.00000,0.00000,0.00095,0.00285,-0.00188,0.00234,-0.00299,-0.07582,0.98448,7.70907,0.18315
09:02:43.721788,7.72680,0.00666,0.00000,0.00000,-0.00378,-0.01135,0.00316,-0.00056,-0.00281,-0.07515,0.98564,7.71847,0.16850
09:02:43.732215,7.73721,0.00670,0.00000,0.00000,-0.00256,-0.00769,-0.00127,-0.00086,-0.00458,-0.07527,0.98619,7.72860,0.17338
09:02:43.742881,7.74787,0.00715,0.00000,0.00000,0.00080,0.00239,-0.00127,-0.00239,-0.00592,-0.07460,0.98491,7.73954,0.15873
09:02:43.753307,7.75777,0.00670,0.00000,0.00000,-0.00287,-0.00860,0.00011,0.00097,-0.00604,-0.07546,0.98460,7.74934,0.16117
09:02:43.762143,7.76716,0.00573,0.00000,0.00000,0.00019,0.00056,-0.00035,0.00326,-0.00299,-0.07424,0.98704,7.75954,0.16606
09:02:43.773913,7.77837,0.00658,0.00000,0.00000,-0.00455,-0.01364,0.00224,0.00021,-0.00268,-0.07527,0.98448,7.77009,0.17094
09:02:43.782914,7.78794,0.00579,0.00000,0.00000,-0.00271,-0.00814,0.00026,0.00204,-0.00445,-0.07625,0.98411,7.78024,0.17582
09:02:43.794253,7.79910,0.00659,0.00000,0.00000,-0.00180,-0.00540,0.00331,0.00189,-0.00390,-0.07582,0.98411,7.79080,0.17338
09:02:43.804189,7.80892,0.00591,0.00000,0.00000,-0.00103,-0.00310,0.00072,0.00005,-0.00287,-0.07601,0.98393,7.80150,0.16361
09:02:43.815546,7.81986,0.00636,0.00000,0.00000,-0.00180,-0.00540,0.00133,0.00005,-0.00579,-0.07302,0.98308,7.81226,0.16361
09:02:43.825795,7.83080,0.00693,0.00000,0.00000,-0.00302,-0.00906,0.00576,-0.00010,-0.00287,-0.07393,0.98234,7.82215,0.15629
09:02:43.834936,7.83995,0.00573,0.00000,0.00000,-0.00455,-0.01364,0.00087,0.00097,-0.00354,-0.07546,0.98326,7.83231,0.16850
09:02:43.847028,7.85152,0.00681,0.00000,0.00000,-0.00256,-0.00769,-0.00570,-0.00071,-0.00311,-0.07424,0.98460,7.84313,0.16361
09:02:43.856657,7.86165,0.00658,0.00000,0.00000,-0.00531,-0.01593,0.00057,0.00143,-0.00268,-0.07533,0.98399,7.85337,0.16606
09:02:43.866829,7.87183,0.00639,0.00000,0.00000,0.00171,0.00514,0.00270,-0.00208,-0.00268,-0.07594,0.98448,7.86353,0.18315
09:02:43.878062,7.88289,0.00709,0.00000,0.00000,-0.00226,-0.00677,0.00057,-0.00392,-0.00281,-0.07375,0.98289,7.87408,0.15873
09:02:43.887505,7.89249,0.00647,0.00000,0.00000,-0.00058,-0.00173,-0.00264,-0.00147,-0.00445,-0.07521,0.98436,7.88418,0.16606
09:02:43.898708,7.90371,0.00732,0.00000,0.00000,-0.00378,-0.01135,-0.00035,-0.00331,-0.00299,-0.07491,0.98375,7.89470,0.16117
09:02:43.908225,7.91297,0.00638,0.00000,0.00000,0.00232,0.00697,-0.00157,-0.00422,-0.00244,-0.07533,0.98460,7.90521,0.16850
09:02:43.917860,7.92288,0.00592,0.00000,0.00000,-0.00027,-0.00081,0.00179,-0.00163,-0.00744,-0.07546,0.98606,7.91525,0.14896
09:02:43.929372,7.93384,0.00652,0.00000,0.00000,-0.00226,-0.00677,0.00072,-0.00102,-0.00262,-0.07485,0.98454,7.92547,0.15385
09:02:43.938933,7.94393,0.00642,0.00000,0.00000,-0.00027,-0.00081,0.00255,-0.00239,-0.00329,-0.07576,0.98265,7.93564,0.17094
09:02:43.949426,7.95444,0.00658,0.00000,0.00000,0.00080,0.00239,0.00011,0.00097,-0.00317,-0.07509,0.98381,7.94615,0.17094
09:02:43.960609,7.96560,0.00739,0.00000,0.00000,-0.00119,-0.00356,0.00133,0.00036,-0.00329,-0.07485,0.98570,7.95630,0.16850
09:02:43.970261,7.97528,0.00595,0.00000,0.00000,-0.00012,-0.00036,-0.00111,-0.00010,-0.00171,-0.07540,0.98186,7.96767,0.16850
09:02:43.982070,7.98709,0.00700,0.00000,0.00000,0.00141,0.00423,0.00331,0.00051,-0.00354,-0.07655,0.98314,7.97871,0.17094
09:02:43.991827,7.99683,0.00639,0.00000,0.00000,0.00080,0.00239,-0.00081,-0.00300,-0.00213,-0.07564,0.98509,7.98853,0.16606
09:02:44.002778,8.00777,0.00697,0.00000,0.00000,0.00187,0.00560,0.00377,0.00051,-0.00421,-0.07613,0.98338,7.99925,0.16606
09:02:44.012893,8.01791,0.00675,0.00000,0.00000,-0.00180,-0.00540,0.00224,-0.00117,-0.00531,-0.07161,0.98204,8.01027,0.14652
09:02:44.023602,8.02860,0.00659,0.00000,0.00000,-0.00195,-0.00585,-0.00264,0.00051,-0.00396,-0.07759,0.98247,8.02024,0.17094
09:02:44.034769,8.03976,0.00753,0.00000,0.00000,0.00019,0.00056,0.00301,0.00112,-0.00396,-0.07570,0.98222,8.03093,0.15629
09:02:44.044589,8.04959,0.00678,0.00000,0.00000,0.00156,0.00468,0.00316,-0.00208,-0.00396,-0.07723,0.98466,8.04122,0.15873
09:02:44.054325,8.05934,0.00582,0.00000,0.00000,0.00034,0.00102,-0.00081,-0.00239,-0.00439,-0.07582,0.98588,8.05174,0.16117
09:02:44.066312,8.07131,0.00743,0.00000,0.00000,-0.00012,-0.00036,0.00224,0.00021,-0.00293,-0.07521,0.98399,8.06295,0.16361
09:02:44.076614,8.08161,0.00737,0.00000,0.00000,-0.00149,-0.00448,0.00041,0.00082,-0.00470,-0.07479,0.98448,8.07330,0.16606
09:02:44.086727,8.09173,0.00676,0.00000,0.00000,0.00309,0.00927,-0.00218,0.00097,-0.00427,-0.07607,0.98503,8.08334,0.15629
09:02:44.097264,8.10143,0.00610,0.00000,0.00000,-0.00042,-0.00127,-0.00081,0.00097,-0.00293,-0.07540,0.98326,8.09363,0.16606
09:02:44.108827,8.11291,0.00739,0.00000,0.00000,-0.00103,-0.00310,0.00102,0.00082,-0.00311,-0.07430,0.98399,8.10489,0.16850
09:02:44.117562,8.12258,0.00685,0.00000,0.00000,-0.00317,-0.00952,-0.00111,-0.00071,-0.00476,-0.07790,0.98417,8.11412,0.16117
09:02:44.128028,8.13215,0.00623,0.00000,0.00000,0.00156,0.00468,0.00163,0.00021,-0.00366,-0.07582,0.98588,8.12452,0.15629
09:02:44.138647,8.14365,0.00671,0.00000,0.00000,-0.00165,-0.00494,0.00194,0.00234,-0.00232,-0.07466,0.98362,8.13534,0.17582
09:02:44.148928,8.15395,0.00665,0.00000,0.00000,-0.00088,-0.00265,0.00316,0.00021,-0.00342,-0.07790,0.98387,8.14635,0.17094
09:02:44.159548,8.16454,0.00659,0.00000,0.00000,-0.00149,-0.00448,0.00255,0.00036,-0.00293,-0.07351,0.98399,8.15617,0.15873
09:02:44.170027,8.17504,0.00672,0.00000,0.00000,-0.00027,-0.00081,-0.00005,-0.00071,-0.00342,-0.07338,0.98320,8.16669,0.17094
09:02:44.181602,8.18661,0.00759,0.00000,0.00000,0.00309,0.00927,-0.00050,-0.00224,-0.00464,-0.07601,0.98423,8.17802,0.16117
09:02:44.191405,8.19640,0.00697,0.00000,0.00000,0.00080,0.00239,-0.00050,0.00280,-0.00098,-0.07485,0.98265,8.18755,0.16361
09:02:44.202252,8.20726,0.00747,0.00000,0.00000,-0.00027,-0.00081,0.00194,-0.00178,-0.00458,-0.07302,0.98442,8.19838,0.15873
09:02:44.211551,8.21657,0.00658,0.00000,0.00000,0.00034,0.00102,-0.00005,0.00051,-0.00421,-0.07631,0.98405,8.20846,0.15873
09:02:44.223649,8.22865,0.00845,0.00000,0.00000,-0.00256,-0.00769,0.00286,0.00036,-0.00439,-0.07515,0.98362,8.22032,0.17827
09:02:44.232682,8.23768,0.00732,0.00000,0.00000,-0.00042,-0.00127,-0.00173,-0.00056,-0.00390,-0.07503,0.98369,8.22936,0.17582
09:02:44.243012,8.24801,0.00656,0.00000,0.00000,-0.00134,-0.00402,0.00255,-0.00193,-0.00348,-0.07485,0.98454,8.23966,0.16361
09:02:44.253937,8.25895,0.00729,0.00000,0.00000,-0.00302,-0.00906,0.00194,-0.00147,-0.00250,-0.07613,0.98210,8.25000,0.16117
09:02:44.263435,8.26844,0.00658,0.00000,0.00000,-0.00439,-0.01318,0.00209,-0.00056,-0.00366,-0.07521,0.98387,8.26009,0.17338
09:02:44.274564,8.27887,0.00665,0.00000,0.00000,-0.00012,-0.00036,0.00133,0.00173,-0.00317,-0.07387,0.98423,8.27124,0.17338
09:02:44.283528,8.28855,0.00588,0.00000,0.00000,-0.00119,-0.00356,-0.00096,0.00265,-0.00305,-0.07485,0.98570,8.28109,0.18315
09:02:44.295596,8.30044,0.00724,0.00000,0.00000,0.00095,0.00285,0.00179,0.00036,-0.00323,-0.07491,0.98552,8.29209,0.16117
09:02:44.305928,8.31094,0.00738,0.00000,0.00000,0.00019,0.00056,0.00072,0.00097,-0.00403,-0.07497,0.98552,8.30259,0.16606
09:02:44.315203,8.32022,0.00644,0.00000,0.00000,-0.00012,-0.00036,0.00057,-0.00040,-0.00482,-0.07570,0.98539,8.31259,0.17582
09:02:44.326103,8.33111,0.00679,0.00000,0.00000,-0.00058,-0.00173,0.00423,-0.00025,-0.00433,-0.07363,0.98283,8.32277,0.17338
09:02:44.336555,8.34059,0.00607,0.00000,0.00000,-0.00134,-0.00402,-0.00295,-0.00270,-0.00335,-0.07576,0.98338,8.33292,0.15385
09:02:44.346668,8.35167,0.00693,0.00000,0.00000,0.00202,0.00606,0.00148,-0.00285,-0.00384,-0.07655,0.98436,8.34334,0.17582
09:02:44.356674,8.36167,0.00658,0.00000,0.00000,-0.00256,-0.00769,-0.00096,0.00066,-0.00281,-0.07405,0.98417,8.35339,0.15385
09:02:44.367061,8.37208,0.00664,0.00000,0.00000,0.00110,0.00331,-0.00081,-0.00040,-0.00317,-0.07357,0.98484,8.36432,0.15873
09:02:44.377828,8.38284,0.00685,0.00000,0.00000,0.00263,0.00789,0.00011,0.00036,-0.00537,-0.07540,0.98411,8.37443,0.15629
09:02:44.387745,8.39275,0.00640,0.00000,0.00000,-0.00027,-0.00081,0.00438,-0.00254,-0.00561,-0.07631,0.98417,8.38443,0.15873
09:02:44.399019,8.40402,0.00708,0.00000,0.00000,-0.00073,-0.00219,-0.00066,0.00082,-0.00360,-0.07399,0.98545,8.39534,0.15873
09:02:44.410224,8.41522,0.00791,0.00000,0.00000,-0.00073,-0.00219,0.00347,-0.00147,-0.00293,-0.07430,0.98222,8.40666,0.15629
09:02:44.419569,8.42458,0.00672,0.00000,0.00000,0.00095,0.00285,-0.00081,-0.00102,-0.00403,-0.07710,0.98478,8.41666,0.17094
09:02:44.430300,8.43530,0.00715,0.00000,0.00000,-0.00149,-0.00448,0.00148,0.00128,-0.00342,-0.07619,0.98625,8.42698,0.17094
09:02:44.440069,8.44487,0.00652,0.00000,0.00000,-0.00256,-0.00769,0.00026,-0.00208,-0.00329,-0.07558,0.98497,8.43658,0.15629
09:02:44.450322,8.45532,0.00661,0.00000,0.00000,-0.03784,-0.11352,0.00163,0.00173,-0.00366,-0.07521,0.98460,8.44701,0.17582
09:02:44.460695,8.46569,0.00662,0.00000,0.00000,0.00095,0.00285,0.00179,-0.00102,-0.00415,-0.07576,0.98716,8.45735,0.16606
09:02:44.470568,8.47559,0.00584,0.00000,0.00000,-0.00058,-0.00173,-0.00463,-0.00208,-0.00287,-0.07552,0.98552,8.46797,0.16361
09:02:44.482649,8.48764,0.00761,0.00000,0.00000,0.00003,0.00010,-0.00127,0.00250,-0.00622,-0.07668,0.98436,8.47880,0.16850
09:02:44.492994,8.49800,0.00760,0.00000,0.00000,-0.00149,-0.00448,0.00118,-0.00056,-0.00445,-0.07448,0.98436,8.48970,0.15873
09:02:44.502833,8.50784,0.00693,0.00000,0.00000,0.00217,0.00652,0.00118,-0.00163,-0.00354,-0.07637,0.98539,8.49951,0.17827
09:02:44.513375,8.51839,0.00672,0.00000,0.00000,0.00294,0.00881,-0.00402,0.00005,-0.00409,-0.07576,0.98497,8.51010,0.17582
09:02:44.523561,8.52830,0.00601,0.00000,0.00000,-0.00012,-0.00036,0.00362,-0.00254,-0.00366,-0.07607,0.98356,8.52045,0.15385
09:02:44.534566,8.53957,0.00668,0.00000,0.00000,0.00171,0.00514,-0.00127,-0.00300,-0.00451,-0.07601,0.98460,8.53127,0.18071
09:02:44.545001,8.54967,0.00643,0.00000,0.00000,0.00339,0.01018,-0.00050,-0.00056,-0.00220,-0.07393,0.98448,8.54147,0.16606
09:02:44.555568,8.56057,0.00652,0.00000,0.00000,-0.00027,-0.00081,-0.00142,-0.00040,-0.00378,-0.07540,0.98594,8.55227,0.16361
09:02:44.567074,8.57208,0.00767,0.00000,0.00000,-0.00088,-0.00265,0.00408,0.00005,-0.00213,-0.07503,0.98527,8.56372,0.16361
09:02:44.575472,8.58049,0.00586,0.00000,0.00000,0.00019,0.00056,-0.00493,-0.00086,-0.00403,-0.07686,0.98484,8.57305,0.16361
09:02:44.587202,8.59220,0.00733,0.00000,0.00000,0.00309,0.00927,-0.00234,-0.00147,-0.00354,-0.07491,0.98472,8.58392,0.15873
09:02:44.596928,8.60192,0.00684,0.00000,0.00000,-0.00149,-0.00448,-0.00371,-0.00086,-0.00616,-0.07357,0.98356,8.59353,0.16361
09:02:44.607534,8.61253,0.00652,0.00000,0.00000,-0.00088,-0.00265,-0.00173,0.00005,-0.00110,-0.07716,0.98564,8.60424,0.18071
09:02:44.618440,8.62345,0.00719,0.00000,0.00000,0.00309,0.00927,0.00072,0.00112,-0.00366,-0.07552,0.98509,8.61470,0.16606
09:02:44.628571,8.63356,0.00672,0.00000,0.00000,0.00294,0.00881,0.00087,-0.00239,-0.00494,-0.07582,0.98350,8.62526,0.18315
09:02:44.639243,8.64356,0.00631,0.00000,0.00000,-0.00470,-0.01410,0.00362,0.00036,-0.00220,-0.07570,0.98277,8.63595,0.17094
09:02:44.650012,8.65502,0.00721,0.00000,0.00000,-0.00088,-0.00265,-0.00081,-0.00025,-0.00128,-0.07546,0.98484,8.64612,0.17338
09:02:44.659618,8.66462,0.00661,0.00000,0.00000,-0.00012,-0.00036,0.00057,-0.00163,-0.00207,-0.07613,0.98454,8.65625,0.16361
09:02:44.669976,8.67499,0.00677,0.00000,0.00000,-0.00348,-0.01043,0.00148,-0.00025,-0.00384,-0.07277,0.98265,8.66666,0.17582
09:02:44.680171,8.68498,0.00656,0.00000,0.00000,-0.00439,-0.01318,0.00209,0.00158,-0.00415,-0.07741,0.98417,8.67663,0.15385
09:02:44.691576,8.69657,0.00758,0.00000,0.00000,-0.00103,-0.00310,-0.00050,-0.00254,-0.00482,-0.07454,0.98369,8.68735,0.16117
09:02:44.702148,8.70715,0.00779,0.00000,0.00000,-0.00058,-0.00173,-0.00218,0.00204,-0.00195,-0.07448,0.98667,8.69862,0.16606
09:02:44.711746,8.71673,0.00690,0.00000,0.00000,-0.00348,-0.01043,-0.00157,-0.00056,-0.00250,-0.07771,0.98442,8.70818,0.16361
09:02:44.722523,8.72729,0.00726,0.00000,0.00000,-0.00073,-0.00219,0.00011,0.00051,-0.00268,-0.07521,0.98436,8.71846,0.17094
09:02:44.733253,8.73827,0.00788,0.00000,0.00000,-0.00165,-0.00494,0.00148,-0.00224,-0.00549,-0.07393,0.98619,8.72990,0.16117
09:02:44.742418,8.74742,0.00667,0.00000,0.00000,-0.00103,-0.00310,-0.00111,-0.00132,-0.00268,-0.07552,0.98381,8.73904,0.17094
09:02:44.752690,8.75768,0.00658,0.00000,0.00000,-0.00042,-0.00127,0.00224,0.00173,-0.00427,-0.07460,0.98448,8.74940,0.15873
09:02:44.763756,8.76809,0.00664,0.00000,0.00000,-0.00256,-0.00769,-0.00035,0.00402,-0.00256,-0.07509,0.98344,8.76011,0.16606
09:02:44.773380,8.77839,0.00672,0.00000,0.00000,0.00126,0.00377,-0.00035,-0.00102,-0.00281,-0.07515,0.98210,8.77009,0.16606
09:02:44.783410,8.78840,0.00653,0.00000,0.00000,-0.00256,-0.00769,-0.00096,-0.00102,-0.00116,-0.07674,0.98411,8.78004,0.15385
09:02:44.794589,8.79959,0.00736,0.00000,0.00000,0.00370,0.01110,0.00087,-0.00376,-0.00293,-0.07546,0.98478,8.79128,0.17582
09:02:44.804986,8.80999,0.00691,0.00000,0.00000,-0.00058,-0.00173,0.00057,0.00036,-0.00439,-0.07430,0.98674,8.80165,0.15873
09:02:44.815050,8.82004,0.00651,0.00000,0.00000,-0.00424,-0.01273,-0.00478,-0.00193,-0.00092,-0.07607,0.98466,8.81177,0.17094
09:02:44.825699,8.83072,0.00682,0.00000,0.00000,-0.00256,-0.00769,-0.00005,-0.00178,-0.00366,-0.07521,0.98417,8.82285,0.16117
09:02:44.836605,8.84160,0.00675,0.00000,0.00000,0.00110,0.00331,-0.00234,0.00066,-0.00250,-0.07497,0.98631,8.83328,0.15873
09:02:44.846818,8.85183,0.00648,0.00000,0.00000,-0.00165,-0.00494,0.00301,0.00021,-0.00409,-0.07533,0.98430,8.84346,0.15629
09:02:44.857648,8.86266,0.00710,0.00000,0.00000,0.00110,0.00331,0.00163,0.00280,-0.00525,-0.07448,0.98137,8.85431,0.15385
09:02:44.868144,8.87296,0.00721,0.00000,0.00000,0.00171,0.00514,-0.00203,0.00296,-0.00226,-0.07540,0.98491,8.86460,0.17094
09:02:44.878410,8.88341,0.00675,0.00000,0.00000,-0.00333,-0.00998,-0.00279,-0.00163,-0.00354,-0.07558,0.98442,8.87510,0.16361
09:02:44.889351,8.89436,0.00733,0.00000,0.00000,0.00095,0.00285,-0.00142,-0.00147,-0.00335,-0.07741,0.98576,8.88608,0.17094
09:02:44.899705,8.90448,0.00684,0.00000,0.00000,-0.00027,-0.00081,-0.00111,-0.00056,-0.00275,-0.07570,0.98454,8.89586,0.17338
09:02:44.910098,8.91509,0.00723,0.00000,0.00000,-0.00103,-0.00310,0.00347,0.00082,-0.00488,-0.07198,0.98430,8.90677,0.16117
09:02:44.920297,8.92529,0.00707,0.00000,0.00000,0.00263,0.00789,-0.00203,-0.00178,-0.00165,-0.07521,0.98234,8.91631,0.16117
09:02:44.930317,8.93533,0.00667,0.00000,0.00000,0.00248,0.00743,0.00087,-0.00086,-0.00250,-0.07570,0.98405,8.92774,0.17582
09:02:44.941466,8.94648,0.00761,0.00000,0.00000,0.00110,0.00331,-0.00295,-0.00254,-0.00378,-0.07521,0.98283,8.93817,0.16606
09:02:44.950801,8.95580,0.00656,0.00000,0.00000,-0.00027,-0.00081,0.00255,-0.00117,-0.00140,-0.07704,0.98362,8.94747,0.17338
09:02:44.961239,8.96554,0.00594,0.00000,0.00000,0.00095,0.00285,0.00118,0.00234,-0.00421,-0.07521,0.98375,8.95790,0.16361
09:02:44.972161,8.97697,0.00718,0.00000,0.00000,0.00049,0.00148,0.00148,-0.00071,-0.00268,-0.07594,0.98448,8.96863,0.16606
09:02:44.981695,8.98671,0.00655,0.00000,0.00000,-0.00103,-0.00310,0.00041,0.00173,-0.00335,-0.07436,0.98552,8.97846,0.15629
09:02:44.992905,8.99790,0.00711,0.00000,0.00000,-0.00058,-0.00173,-0.00005,0.00250,-0.00476,-0.07540,0.98442,8.98921,0.16850
09:02:45.003440,9.00846,0.00746,0.00000,0.00000,-0.00027,-0.00081,0.00072,0.00036,-0.00281,-0.07326,0.98558,8.99957,0.16850
09:02:45.014948,9.01995,0.00852,0.00000,0.00000,-0.00149,-0.00448,0.00026,0.00051,-0.00244,-0.07735,0.98619,9.01148,0.16361
09:02:45.023718,9.02872,0.00713,0.00000,0.00000,0.00263,0.00789,-0.00386,0.00173,-0.00293,-0.07674,0.98484,9.02040,0.16850
09:02:45.034153,9.03917,0.00735,0.00000,0.00000,-0.00088,-0.00265,-0.00050,-0.00102,-0.00250,-0.07680,0.98594,9.03122,0.16117
09:02:45.044592,9.04959,0.00730,0.00000,0.00000,-0.00195,-0.00585,0.00499,-0.00040,-0.00146,-0.07723,0.98564,9.04122,0.15629
09:02:45.054273,9.05928,0.00662,0.00000,0.00000,-0.00058,-0.00173,-0.00005,-0.00071,-0.00518,-0.07497,0.98308,9.05096,0.16850
09:02:45.064587,9.06958,0.00670,0.00000,0.00000,0.00462,0.01385,-0.00218,0.00021,-0.00518,-0.07418,0.98295,9.06129,0.18315
09:02:45.075503,9.08050,0.00697,0.00000,0.00000,0.00446,0.01339,-0.00035,0.00128,-0.00506,-0.07351,0.98411,9.07175,0.16117
09:02:45.086206,9.09120,0.00679,0.00000,0.00000,0.00294,0.00881,-0.00020,0.00265,-0.00256,-0.07533,0.98423,9.08291,0.17827
09:02:45.095472,9.10049,0.00587,0.00000,0.00000,-0.00165,-0.00494,-0.00035,0.00296,-0.00329,-0.07412,0.98698,9.09305,0.16606
09:02:45.106792,9.11179,0.00691,0.00000,0.00000,-0.00226,-0.00677,-0.00111,0.00326,-0.00360,-0.07387,0.98387,9.10330,0.16606
09:02:45.117153,9.12217,0.00659,0.00000,0.00000,-0.00241,-0.00723,0.00408,0.00051,-0.00366,-0.07405,0.98491,9.11387,0.17094
09:02:45.127394,9.13239,0.00651,0.00000,0.00000,-0.00103,-0.00310,0.00133,-0.00056,-0.00427,-0.07723,0.98423,9.12410,0.17582
09:02:45.137783,9.14278,0.00668,0.00000,0.00000,0.00034,0.00102,-0.00081,-0.00010,-0.00311,-0.07259,0.98301,9.13447,0.14896
09:02:45.148444,9.15344,0.00698,0.00000,0.00000,-0.00287,-0.00860,0.00087,-0.00056,-0.00592,-0.07466,0.98497,9.14455,0.16606
09:02:45.159114,9.16412,0.00651,0.00000,0.00000,0.00171,0.00514,0.00118,0.00234,-0.00342,-0.07442,0.98582,9.15584,0.17094
09:02:45.169532,9.17455,0.00658,0.00000,0.00000,0.00080,0.00239,0.00133,-0.00040,-0.00518,-0.07454,0.98344,9.16625,0.16850
09:02:45.179798,9.18480,0.00647,0.00000,0.00000,-0.00241,-0.00723,0.00362,0.00265,-0.00317,-0.07723,0.98326,9.17641,0.15629
09:02:45.190474,9.19547,0.00678,0.00000,0.00000,0.00095,0.00285,0.00026,-0.00163,-0.00177,-0.07418,0.98448,9.18710,0.16606
09:02:45.201695,9.20671,0.00765,0.00000,0.00000,-0.00317,-0.00952,0.00286,0.00143,-0.00500,-0.07686,0.98411,9.19735,0.15873
09:02:45.211217,9.21552,0.00583,0.00000,0.00000,0.00278,0.00835,-0.00142,-0.00040,-0.00421,-0.07308,0.98411,9.20791,0.17094
09:02:45.222214,9.22721,0.00716,0.00000,0.00000,0.00156,0.00468,-0.00005,-0.00040,-0.00396,-0.07680,0.98594,9.21834,0.15873
09:02:45.233117,9.23813,0.00713,0.00000,0.00000,-0.00165,-0.00494,0.00102,-0.00071,-0.00390,-0.07601,0.98515,9.22941,0.15873
09:02:45.244290,9.24930,0.00786,0.00000,0.00000,0.00202,0.00606,0.00087,0.00066,-0.00250,-0.07704,0.98478,9.23986,0.15873
09:02:45.254119,9.25912,0.00732,0.00000,0.00000,0.00034,0.00102,-0.00005,-0.00086,-0.00275,-0.07515,0.98509,9.25080,0.16361
09:02:45.264126,9.26893,0.00651,0.00000,0.00000,0.00034,0.00102,-0.00234,-0.00178,-0.00433,-0.07527,0.98332,9.26062,0.16606
09:02:45.274248,9.27927,0.00658,0.00000,0.00000,-0.00119,-0.00356,-0.00066,-0.00056,-0.00573,-0.07296,0.98460,9.27113,0.16117
09:02:45.285397,9.29040,0.00677,0.00000,0.00000,-0.00149,-0.00448,-0.00081,0.00234,-0.00579,-0.07344,0.98491,9.28206,0.18071
09:02:45.295610,9.29993,0.00596,0.00000,0.00000,0.00019,0.00056,0.00179,-0.00010,-0.00506,-0.07515,0.98436,9.29228,0.17338
09:02:45.306714,9.31172,0.00734,0.00000,0.00000,-0.00134,-0.00402,0.00362,-0.00147,-0.00403,-0.07424,0.98448,9.30338,0.16850
09:02:45.315449,9.32047,0.00589,0.00000,0.00000,-0.00058,-0.00173,-0.00081,-0.00086,-0.00256,-0.07466,0.98484,9.31301,0.16361
09:02:45.326494,9.33149,0.00670,0.00000,0.00000,-0.00134,-0.00402,0.00133,0.00021,-0.00311,-0.07570,0.98527,9.32318,0.16117
09:02:45.337479,9.34247,0.00748,0.00000,0.00000,0.00003,0.00010,0.00102,-0.00208,-0.00378,-0.07314,0.98503,9.33364,0.16361
09:02:45.347151,9.35215,0.00652,0.00000,0.00000,0.00095,0.00285,0.00133,-0.00040,-0.00421,-0.07381,0.98253,9.34386,0.16117
09:02:45.357595,9.36261,0.00662,0.00000,0.00000,-0.00088,-0.00265,-0.00005,0.00082,-0.00256,-0.07570,0.98478,9.35430,0.16361
09:02:45.368694,9.37366,0.00646,0.00000,0.00000,0.00095,0.00285,0.00041,-0.00208,-0.00396,-0.07332,0.98478,9.36540,0.15873
09:02:45.378982,9.38399,0.00650,0.00000,0.00000,-0.00134,-0.00402,-0.00279,-0.00040,-0.00061,-0.07564,0.98527,9.37570,0.17582
09:02:45.389399,9.39370,0.00586,0.00000,0.00000,0.00049,0.00148,0.00011,0.00097,-0.00390,-0.07845,0.98161,9.38612,0.17094
09:02:45.399479,9.40430,0.00587,0.00000,0.00000,-0.00088,-0.00265,-0.00203,-0.00117,-0.00305,-0.07576,0.98332,9.39663,0.18071
09:02:45.410656,9.41566,0.00669,0.00000,0.00000,0.00095,0.00285,0.00072,-0.00163,-0.00250,-0.07491,0.98491,9.40735,0.15629
09:02:45.421179,9.42619,0.00692,0.00000,0.00000,0.00049,0.00148,-0.00310,0.00204,-0.00366,-0.07533,0.98606,9.41778,0.17582
09:02:45.431269,9.43606,0.00659,0.00000,0.00000,0.00080,0.00239,0.00377,0.00143,-0.00537,-0.07351,0.98326,9.42758,0.16850
09:02:45.441689,9.44670,0.00688,0.00000,0.00000,0.00126,0.00377,0.00224,-0.00025,-0.00311,-0.07637,0.98393,9.43883,0.16606
09:02:45.452963,9.45796,0.00750,0.00000,0.00000,-0.00058,-0.00173,0.00011,-0.00025,-0.00439,-0.07472,0.98320,9.44968,0.15873
09:02:45.463152,9.46815,0.00658,0.00000,0.00000,-0.00073,-0.00219,0.00270,-0.00208,-0.00299,-0.07631,0.98582,9.45980,0.18071
09:02:45.473483,9.47850,0.00656,0.00000,0.00000,-0.00195,-0.00585,0.00255,-0.00117,-0.00573,-0.07613,0.98539,9.47021,0.17582
09:02:45.482972,9.48799,0.00586,0.00000,0.00000,0.00065,0.00194,-0.00432,-0.00117,-0.00244,-0.07454,0.98558,9.48036,0.15629
09:02:45.494185,9.49920,0.00671,0.00000,0.00000,0.00003,0.00010,0.00255,0.00036,-0.00476,-0.07503,0.98576,9.49155,0.15873
09:02:45.505607,9.51062,0.00752,0.00000,0.00000,-0.00180,-0.00540,-0.00279,-0.00010,-0.00451,-0.07412,0.98558,9.50229,0.17827
09:02:45.515323,9.52031,0.00702,0.00000,0.00000,0.00278,0.00835,-0.00111,-0.00193,-0.00317,-0.07509,0.98423,9.51178,0.17338
09:02:45.526027,9.53104,0.00738,0.00000,0.00000,0.00416,0.01247,0.00041,-0.00117,-0.00610,-0.07320,0.98417,9.52270,0.16361
09:02:45.536234,9.54123,0.00674,0.00000,0.00000,-0.00088,-0.00265,-0.00463,-0.00178,-0.00378,-0.07503,0.98521,9.53290,0.16117
09:02:45.546313,9.55133,0.00653,0.00000,0.00000,-0.00256,-0.00769,-0.00050,0.00082,-0.00354,-0.07674,0.98326,9.54344,0.17338
09:02:45.557179,9.56219,0.00677,0.00000,0.00000,0.00003,0.00010,0.00041,-0.00102,-0.00335,-0.07631,0.98423,9.55385,0.16361
09:02:45.567340,9.57201,0.00639,0.00000,0.00000,-0.00287,-0.00860,0.00072,-0.00040,-0.00451,-0.07503,0.98381,9.56385,0.17338
09:02:45.577673,9.58269,0.00671,0.00000,0.00000,-0.00042,-0.00127,0.00072,-0.00056,-0.00213,-0.07576,0.98326,9.57506,0.16850
09:02:45.588881,9.59387,0.00736,0.00000,0.00000,0.00095,0.00285,0.00072,0.00219,-0.00549,-0.07631,0.98265,9.58552,0.16606
09:02:45.599144,9.60415,0.00731,0.00000,0.00000,0.00187,0.00560,0.00286,-0.00056,-0.00354,-0.07588,0.98789,9.59514,0.17094
09:02:45.608775,9.61377,0.00673,0.00000,0.00000,0.00003,0.00010,0.00392,0.00082,-0.00268,-0.07601,0.98454,9.60546,0.16117
09:02:45.618805,9.62380,0.00653,0.00000,0.00000,0.00049,0.00148,-0.00081,-0.00331,-0.00476,-0.07558,0.98545,9.61550,0.15629
09:02:45.629265,9.63428,0.00665,0.00000,0.00000,-0.00088,-0.00265,-0.00234,0.00021,-0.00183,-0.07387,0.98606,9.62593,0.16361
09:02:45.639652,9.64466,0.00660,0.00000,0.00000,0.00141,0.00423,0.00408,0.00219,-0.00354,-0.07564,0.98448,9.63629,0.17094
09:02:45.650110,9.65511,0.00681,0.00000,0.00000,-0.00210,-0.00631,0.00041,-0.00102,-0.00323,-0.07674,0.98466,9.64665,0.16850
09:02:45.660452,9.66459,0.00593,0.00000,0.00000,-0.00287,-0.00860,-0.00142,0.00234,-0.00415,-0.07558,0.98436,9.65693,0.16117
09:02:45.670571,9.67558,0.00671,0.00000,0.00000,0.00126,0.00377,-0.00173,-0.00056,-0.00500,-0.07472,0.98600,9.66726,0.16606
09:02:45.681223,9.68624,0.00702,0.00000,0.00000,-0.00012,-0.00036,-0.00035,-0.00163,-0.00329,-0.07497,0.98399,9.67746,0.16606
09:02:45.690878,9.69588,0.00644,0.00000,0.00000,-0.00409,-0.01227,0.00041,-0.00132,-0.00445,-0.07393,0.98369,9.68755,0.15873
09:02:45.701489,9.70650,0.00670,0.00000,0.00000,-0.00042,-0.00127,0.00148,0.00158,-0.00683,-0.07771,0.98478,9.69807,0.15629
09:02:45.711542,9.71655,0.00639,0.00000,0.00000,-0.00088,-0.00265,-0.00005,-0.00254,-0.00525,-0.07375,0.98667,9.70825,0.16361
09:02:45.722005,9.72702,0.00649,0.00000,0.00000,0.00095,0.00285,0.00011,0.00005,-0.00256,-0.07643,0.98527,9.71882,0.16606
09:02:45.732954,9.73796,0.00716,0.00000,0.00000,0.00156,0.00468,-0.00081,0.00158,-0.00445,-0.07619,0.98472,9.72923,0.16606
09:02:45.743599,9.74860,0.00729,0.00000,0.00000,0.00049,0.00148,0.00331,0.00097,-0.00427,-0.07619,0.98515,9.74020,0.15873
09:02:45.754069,9.75880,0.00714,0.00000,0.00000,0.00202,0.00606,0.00301,0.00036,-0.00494,-0.07351,0.98423,9.74998,0.16361
09:02:45.763257,9.76825,0.00640,0.00000,0.00000,-0.00088,-0.00265,-0.00249,-0.00163,-0.00262,-0.07320,0.98637,9.75998,0.16850
09:02:45.774041,9.77906,0.00664,0.00000,0.00000,-0.00103,-0.00310,-0.00081,0.00097,-0.00567,-0.07771,0.98314,9.77072,0.16606
09:02:45.784861,9.78937,0.00659,0.00000,0.00000,-0.00088,-0.00265,-0.00264,-0.00300,-0.00238,-0.07637,0.98259,9.78108,0.16117
09:02:45.794708,9.79971,0.00642,0.00000,0.00000,-0.00134,-0.00402,0.00576,-0.00040,-0.00317,-0.07546,0.98442,9.79140,0.15873
09:02:45.806177,9.81049,0.00685,0.00000,0.00000,-0.00012,-0.00036,-0.00127,-0.00025,-0.00110,-0.07546,0.98155,9.80272,0.16361
09:02:45.814709,9.81973,0.00573,0.00000,0.00000,0.00095,0.00285,0.00194,-0.00071,-0.00329,-0.07509,0.98491,9.81209,0.17094
09:02:45.826034,9.83025,0.00590,0.00000,0.00000,-0.00226,-0.00677,-0.00234,-0.00147,-0.00464,-0.07497,0.98613,9.82263,0.16117
09:02:45.836513,9.84151,0.00672,0.00000,0.00000,0.00034,0.00102,-0.00188,-0.00102,-0.00360,-0.07497,0.98381,9.83321,0.16606
09:02:45.848595,9.85359,0.00798,0.00000,0.00000,-0.00577,-0.01731,-0.00005,0.00036,-0.00098,-0.07296,0.98240,9.84406,0.17827
09:02:45.858382,9.86338,0.00741,0.00000,0.00000,0.00141,0.00423,0.00118,0.00082,-0.00366,-0.07723,0.98478,9.85505,0.16606
09:02:45.867798,9.87281,0.00648,0.00000,0.00000,-0.00088,-0.00265,-0.00035,0.00143,-0.00433,-0.07412,0.98552,9.86442,0.15873
09:02:45.878293,9.88329,0.00668,0.00000,0.00000,0.00019,0.00056,0.00102,-0.00147,-0.00366,-0.07381,0.98240,9.87495,0.16361
09:02:45.889142,9.89361,0.00665,0.00000,0.00000,-0.00424,-0.01273,-0.00203,0.00036,-0.00354,-0.07735,0.98204,9.88524,0.17338
