Description :  ; walk_time = 2.0 ; speed_up_time = 3.0 ; balancing_time = 0.0
RealTime,Time,CalculationTime,Roll,SteeringAngle,RollRate,ControlInput,gy,gz,ax,ay,az,imu_read_timing,SteerMotorCurrent
09:08:33.675417,0.01054,0.01052,0.00000,0.00000,-0.00250,0.10581,-0.00001,-0.00013,-0.00067,-0.08076,0.98680,0.00001,0.08303
09:08:33.698469,0.03362,0.00997,0.00000,0.00000,-0.00372,0.15757,-0.00138,0.00277,-0.00116,-0.08076,0.98289,0.02406,0.17094
09:08:33.707211,0.04238,0.00797,0.00000,0.00000,0.00117,-0.04949,0.00244,-0.00181,-0.00244,-0.07979,0.98478,0.03399,0.18315
09:08:33.718147,0.05331,0.00868,0.00000,0.00000,-0.00250,0.10581,0.00015,0.00063,-0.00256,-0.08052,0.98503,0.04396,0.19048
09:08:33.727461,0.06261,0.00782,0.00000,0.00000,-0.00311,0.13169,0.00198,0.00063,0.00024,-0.07954,0.98210,0.05322,0.18071
09:08:33.737220,0.07238,0.00739,0.00000,0.00000,-0.00036,0.01522,0.00335,-0.00059,-0.00061,-0.08052,0.98411,0.06333,0.19048
09:08:33.747449,0.08191,0.00637,0.00000,0.00000,0.00453,-0.19184,-0.00031,-0.00181,-0.00165,-0.08052,0.98350,0.07356,0.17827
09:08:33.757666,0.09283,0.00677,0.00000,0.00000,0.00040,-0.01713,0.00244,-0.00136,-0.00207,-0.08137,0.98192,0.08379,0.19048
09:08:33.767696,0.10284,0.00658,0.00000,0.00000,-0.00051,0.02169,0.00060,-0.00120,-0.00104,-0.07985,0.98338,0.09378,0.19048
09:08:33.778858,0.11401,0.00739,0.00000,0.00000,0.00224,-0.09478,-0.00535,0.00078,-0.00354,-0.07838,0.98460,0.10499,0.19536
09:08:33.789165,0.12433,0.00687,0.00000,0.00000,-0.00250,0.10581,0.00137,-0.00013,-0.00329,-0.07967,0.98417,0.11521,0.19292
09:08:33.798483,0.13365,0.00599,0.00000,0.00000,0.00102,-0.04302,0.00106,-0.00136,-0.00171,-0.08046,0.98295,0.12519,0.19536
09:08:33.810520,0.14498,0.00713,0.00000,0.00000,-0.00219,0.09287,0.00137,-0.00441,-0.00049,-0.08046,0.98521,0.13660,0.18559
09:08:33.819686,0.15484,0.00678,0.00000,0.00000,-0.00066,0.02816,0.00366,-0.00181,-0.00140,-0.08198,0.98637,0.14560,0.19048
09:08:33.829926,0.16508,0.00681,0.00000,0.00000,0.00025,-0.01066,-0.00062,0.00017,-0.00293,-0.07954,0.98112,0.15601,0.19780
09:08:33.840108,0.17507,0.00645,0.00000,0.00000,-0.00082,0.03463,0.00106,-0.00136,-0.00262,-0.07948,0.98423,0.16601,0.19780
09:08:33.850534,0.18569,0.00671,0.00000,0.00000,0.00102,-0.04302,0.00137,-0.00075,-0.00213,-0.08058,0.98320,0.17656,0.18315
09:08:33.860774,0.19592,0.00659,0.00000,0.00000,0.00239,-0.10125,0.00015,0.00124,-0.00226,-0.07924,0.98338,0.18690,0.19780
09:08:33.870331,0.20550,0.00590,0.00000,0.00000,-0.00448,0.18992,0.00167,-0.00090,-0.00085,-0.08058,0.98393,0.19700,0.19536
09:08:33.881432,0.21658,0.00661,0.00000,0.00000,-0.00234,0.09934,0.00259,0.00109,-0.00098,-0.08028,0.98466,0.20755,0.18315
09:08:33.891623,0.22677,0.00644,0.00000,0.00000,-0.00097,0.04110,0.00045,0.00002,-0.00159,-0.07918,0.98430,0.21771,0.20024
09:08:33.902101,0.23725,0.00674,0.00000,0.00000,-0.00082,0.03463,0.00137,0.00139,-0.00098,-0.07991,0.98436,0.22821,0.18803
09:08:33.912896,0.24807,0.00692,0.00000,0.00000,0.00071,-0.03008,-0.00291,-0.00243,-0.00220,-0.07918,0.98344,0.23969,0.19536
09:08:33.924053,0.25901,0.00761,0.00000,0.00000,-0.00097,0.04110,0.00076,-0.00044,-0.00220,-0.07899,0.98448,0.24996,0.19780
09:08:33.933251,0.26841,0.00664,0.00000,0.00000,0.00117,-0.04949,0.00137,-0.00105,-0.00232,-0.08009,0.98179,0.25938,0.20513
09:08:33.943258,0.27841,0.00645,0.00000,0.00000,0.00193,-0.08184,0.00335,0.00216,-0.00220,-0.08034,0.98460,0.26939,0.19780
09:08:33.954427,0.28957,0.00688,0.00000,0.00000,-0.00265,0.11228,0.00167,-0.00090,-0.00165,-0.08107,0.98125,0.28053,0.18315
09:08:33.964866,0.29907,0.00602,0.00000,0.00000,-0.00250,0.10581,0.00076,-0.00029,-0.00275,-0.07826,0.98356,0.29064,0.18559
09:08:33.975286,0.31044,0.00655,0.00000,0.00000,0.00102,-0.04302,-0.00047,-0.00273,-0.00275,-0.07973,0.98497,0.30140,0.20513
09:08:33.985847,0.32102,0.00677,0.00000,0.00000,0.00132,-0.05596,-0.00001,0.00109,-0.00183,-0.08058,0.98369,0.31191,0.19048
09:08:33.996159,0.33112,0.00651,0.00000,0.00000,0.00331,-0.14008,0.00259,-0.00029,-0.00439,-0.08052,0.98204,0.32199,0.19292
09:08:34.006446,0.34160,0.00663,0.00000,0.00000,0.00315,-0.13360,-0.00123,-0.00044,-0.00335,-0.08119,0.98478,0.33256,0.17827
09:08:34.017136,0.35228,0.00686,0.00000,0.00000,-0.00601,0.25463,0.00198,0.00048,-0.00256,-0.07967,0.98417,0.34306,0.19536
09:08:34.027392,0.36254,0.00667,0.00000,0.00000,-0.00280,0.11875,0.00274,0.00170,-0.00128,-0.08076,0.98649,0.35339,0.18315
09:08:34.038303,0.37344,0.00726,0.00000,0.00000,-0.00158,0.06698,-0.00031,0.00048,-0.00244,-0.08131,0.98387,0.36392,0.20024
09:08:34.048724,0.38387,0.00733,0.00000,0.00000,0.00224,-0.09478,-0.00199,0.00032,-0.00311,-0.08131,0.98344,0.37477,0.17827
09:08:34.058393,0.39354,0.00679,0.00000,0.00000,-0.00036,0.01522,0.00076,-0.00288,-0.00366,-0.07893,0.98503,0.38449,0.18803
09:08:34.067705,0.40287,0.00576,0.00000,0.00000,-0.00509,0.21581,0.00182,0.00032,-0.00256,-0.07960,0.98112,0.39470,0.18071
09:08:34.078196,0.41336,0.00577,0.00000,0.00000,-0.00555,0.23522,0.00427,-0.00212,-0.00183,-0.08009,0.98356,0.40500,0.18559
09:08:34.090149,0.42531,0.00713,0.00000,0.00000,-0.00051,0.02169,0.00106,-0.00197,-0.00092,-0.08015,0.98448,0.41590,0.18803
09:08:34.100744,0.43589,0.00680,0.00000,0.00000,-0.00066,0.02816,0.00121,-0.00044,-0.00342,-0.07967,0.98387,0.42680,0.19048
09:08:34.111348,0.44652,0.00637,0.00000,0.00000,-0.00112,0.04757,0.00182,-0.00197,-0.00067,-0.08021,0.98369,0.43784,0.19536
09:08:34.123231,0.45839,0.00788,0.00000,0.00000,-0.00082,0.03463,-0.00260,-0.00151,-0.00092,-0.07875,0.98076,0.44866,0.19292
09:08:34.132178,0.46715,0.00647,0.00000,0.00000,0.00392,-0.16596,0.00076,0.00048,-0.00299,-0.07838,0.98466,0.45831,0.19780
09:08:34.142459,0.47763,0.00585,0.00000,0.00000,-0.00097,0.04110,-0.00062,-0.00075,-0.00372,-0.07863,0.98411,0.46929,0.18315
09:08:34.154726,0.48988,0.00738,0.00000,0.00000,-0.00311,0.13169,0.00106,0.00185,-0.00049,-0.07979,0.98356,0.48080,0.19536
09:08:34.165020,0.50018,0.00732,0.00000,0.00000,0.00163,-0.06890,-0.00215,-0.00090,-0.00384,-0.07948,0.98283,0.49115,0.19536
09:08:34.175564,0.51070,0.00731,0.00000,0.00000,-0.00082,0.03463,0.00045,-0.00090,-0.00281,-0.08070,0.98344,0.50166,0.19048
09:08:34.185702,0.52087,0.00727,0.00000,0.00000,0.00010,-0.00419,0.00091,-0.00166,-0.00098,-0.08223,0.98454,0.51185,0.19048
09:08:34.195738,0.53086,0.00634,0.00000,0.00000,0.00086,-0.03655,-0.00153,-0.00258,-0.00201,-0.07954,0.98637,0.52137,0.20024
09:08:34.206084,0.54124,0.00700,0.00000,0.00000,-0.00066,0.02816,-0.00092,0.00170,-0.00189,-0.07967,0.98399,0.53182,0.18559
09:08:34.216411,0.55155,0.00653,0.00000,0.00000,0.00224,-0.09478,0.00244,-0.00227,-0.00183,-0.08015,0.98381,0.54231,0.19048
09:08:34.228419,0.56357,0.00861,0.00000,0.00000,0.00193,-0.08184,0.00015,-0.00181,-0.00275,-0.08095,0.98582,0.55402,0.19048
09:08:34.237364,0.57253,0.00741,0.00000,0.00000,0.00392,-0.16596,-0.00031,-0.00243,-0.00250,-0.08052,0.98600,0.56341,0.19536
09:08:34.248310,0.58253,0.00664,0.00000,0.00000,0.00056,-0.02360,0.00198,-0.00105,0.00024,-0.07967,0.98393,0.57394,0.20513
09:08:34.258489,0.59364,0.00739,0.00000,0.00000,-0.00555,0.23522,-0.00352,-0.00365,-0.00281,-0.08095,0.98344,0.58459,0.17827
09:08:34.268104,0.60304,0.00587,0.00000,0.00000,-0.00036,0.01522,0.00228,-0.00227,-0.00159,-0.08095,0.98381,0.59489,0.17827
09:08:34.278888,0.61406,0.00647,0.00000,0.00000,-0.00005,0.00228,0.00228,0.00048,-0.00213,-0.08125,0.98393,0.60571,0.18315
09:08:34.290364,0.62552,0.00723,0.00000,0.00000,0.00208,-0.08831,0.00320,-0.00380,-0.00165,-0.07875,0.98430,0.61647,0.18559
09:08:34.300393,0.63553,0.00677,0.00000,0.00000,0.00102,-0.04302,-0.00138,-0.00258,-0.00128,-0.07924,0.98430,0.62648,0.18803
09:08:34.311359,0.64651,0.00739,0.00000,0.00000,-0.00036,0.01522,0.00015,-0.00120,-0.00226,-0.08095,0.98417,0.63748,0.19292
09:08:34.322116,0.65729,0.00771,0.00000,0.00000,-0.00082,0.03463,-0.00047,-0.00120,-0.00275,-0.08113,0.98576,0.64892,0.19292
09:08:34.332310,0.66746,0.00767,0.00000,0.00000,0.00178,-0.07537,0.00259,0.00093,-0.00213,-0.07973,0.98448,0.65842,0.19048
09:08:34.341795,0.67695,0.00681,0.00000,0.00000,0.00346,-0.14655,-0.00153,-0.00365,-0.00232,-0.08101,0.98521,0.66790,0.18315
09:08:34.352740,0.68788,0.00738,0.00000,0.00000,-0.00112,0.04757,0.00350,0.00002,-0.00287,-0.08076,0.98332,0.67883,0.19048
09:08:34.362621,0.69777,0.00681,0.00000,0.00000,-0.00082,0.03463,-0.00077,-0.00151,-0.00055,-0.08082,0.98436,0.68865,0.19536
09:08:34.373488,0.70795,0.00662,0.00000,0.00000,0.00163,-0.06890,-0.00138,0.00139,-0.00152,-0.08168,0.98338,0.69961,0.20024
09:08:34.383014,0.71818,0.00659,0.00000,0.00000,-0.00051,0.02169,0.00198,0.00093,-0.00275,-0.07918,0.98448,0.70899,0.20269
09:08:34.393700,0.72887,0.00707,0.00000,0.00000,-0.00234,0.09934,0.00137,0.00032,-0.00140,-0.08082,0.98216,0.71947,0.19048
09:08:34.404302,0.73946,0.00747,0.00000,0.00000,-0.00189,0.07992,-0.00138,-0.00120,-0.00061,-0.08095,0.98369,0.73039,0.18803
09:08:34.414714,0.74988,0.00753,0.00000,0.00000,-0.00143,0.06051,0.00137,-0.00166,-0.00317,-0.08052,0.98338,0.74080,0.20513
09:08:34.425433,0.76029,0.00675,0.00000,0.00000,-0.00265,0.11228,0.00045,-0.00075,-0.00281,-0.08095,0.98582,0.75194,0.19048
09:08:34.436094,0.77105,0.00709,0.00000,0.00000,0.00285,-0.12066,0.00106,0.00109,-0.00055,-0.07985,0.98430,0.76144,0.18315
09:08:34.445848,0.78101,0.00679,0.00000,0.00000,0.00208,-0.08831,-0.00016,-0.00197,-0.00384,-0.08003,0.98436,0.77195,0.19292
09:08:34.455828,0.79098,0.00657,0.00000,0.00000,-0.00097,0.04110,-0.00062,0.00078,-0.00049,-0.08021,0.99857,0.78193,0.19048
09:08:34.466182,0.80135,0.00672,0.00000,0.00000,-0.00036,0.01522,0.00121,-0.00013,0.00043,-0.07991,0.98405,0.79295,0.18315
09:08:34.477689,0.81285,0.00786,0.00000,0.00000,0.00040,-0.01713,-0.00276,-0.00197,-0.00092,-0.07991,0.98326,0.80344,0.18315
09:08:34.486761,0.82192,0.00642,0.00000,0.00000,-0.00234,0.09934,0.00228,-0.00349,-0.00116,-0.07887,0.98625,0.81291,0.18559
09:08:34.497502,0.83267,0.00622,0.00000,0.00000,-0.00005,0.00228,0.00045,0.00017,-0.00250,-0.08021,0.98271,0.82430,0.18071
09:08:34.509068,0.84423,0.00742,0.00000,0.00000,0.00193,-0.08184,0.00030,-0.00365,0.00018,-0.08034,0.98240,0.83523,0.19536
09:08:34.519467,0.85409,0.00675,0.00000,0.00000,0.00147,-0.06243,-0.00001,-0.00411,-0.00213,-0.08150,0.98533,0.84475,0.19780
09:08:34.529456,0.86462,0.00699,0.00000,0.00000,-0.00066,0.02816,0.00076,-0.00136,-0.00281,-0.07991,0.98314,0.85529,0.18071
09:08:34.539226,0.87438,0.00655,0.00000,0.00000,-0.00341,0.14463,0.00412,-0.00136,-0.00067,-0.08028,0.98198,0.86535,0.19048
09:08:34.550237,0.88538,0.00718,0.00000,0.00000,-0.00296,0.12522,0.00091,0.00124,-0.00433,-0.08058,0.98631,0.87631,0.19292
09:08:34.559748,0.89490,0.00652,0.00000,0.00000,-0.00097,0.04110,-0.00092,-0.00105,-0.00287,-0.07930,0.98509,0.88590,0.18803
09:08:34.570245,0.90539,0.00681,0.00000,0.00000,-0.00036,0.01522,0.00091,0.00200,-0.00207,-0.08021,0.98552,0.89634,0.18071
09:08:34.580862,0.91602,0.00709,0.00000,0.00000,0.00040,-0.01713,0.00121,0.00048,-0.00177,-0.08089,0.98478,0.90665,0.19048
09:08:34.590023,0.92519,0.00605,0.00000,0.00000,0.00071,-0.03008,0.00015,-0.00151,-0.00256,-0.07808,0.98350,0.91682,0.18315
09:08:34.601126,0.93628,0.00694,0.00000,0.00000,0.00132,-0.05596,-0.00260,-0.00029,-0.00220,-0.08095,0.98375,0.92695,0.18071
09:08:34.611130,0.94628,0.00658,0.00000,0.00000,-0.00280,0.11875,0.00045,-0.00166,-0.00262,-0.08015,0.98460,0.93721,0.18559
09:08:34.622605,0.95777,0.00760,0.00000,0.00000,-0.00158,0.06698,0.00396,-0.00120,-0.00323,-0.08082,0.98369,0.94831,0.18315
09:08:34.633225,0.96839,0.00800,0.00000,0.00000,-0.00143,0.06051,0.00442,0.00109,-0.00317,-0.08003,0.98222,0.95892,0.19292
09:08:34.642816,0.97796,0.00721,0.00000,0.00000,0.00483,-0.20478,-0.00108,-0.00059,-0.00079,-0.07960,0.98271,0.96834,0.19292
09:08:34.653777,0.98894,0.00749,0.00000,0.00000,-0.03640,1.54228,0.00015,-0.00227,-0.00140,-0.07857,0.98411,0.97989,0.19536
09:08:34.663017,0.99818,0.00654,0.00000,0.00000,0.00208,-0.08831,0.00060,0.00017,-0.00146,-0.08125,0.98600,0.98978,0.18071
09:08:34.673853,1.00902,0.00688,0.00000,0.00000,-0.00234,0.09934,-0.00199,-0.00273,-0.00189,-0.08046,0.98515,0.99989,0.18315
09:08:34.683741,1.01890,0.00640,0.00000,0.00000,-0.00234,0.09934,0.00106,-0.00090,-0.00287,-0.07881,0.98454,1.00987,0.18315
09:08:34.695050,1.03019,0.00733,0.00000,0.00000,0.00025,-0.01066,0.00182,-0.00151,-0.00207,-0.08150,0.98442,1.02115,0.19292
09:08:34.704689,1.03898,0.00588,0.00000,0.00000,-0.00051,0.02169,0.00015,0.00017,-0.00018,-0.08156,0.98393,1.03079,0.19048
09:08:34.715191,1.05034,0.00653,0.00000,0.00000,-0.00387,0.16404,0.00228,-0.00013,-0.00207,-0.08046,0.98466,1.04135,0.20757
09:08:34.725910,1.06107,0.00671,0.00000,0.00000,0.00163,-0.06890,0.00106,-0.00075,-0.00134,-0.08015,0.98247,1.05195,0.19048
09:08:34.736182,1.07115,0.00643,0.00000,0.00000,-0.00051,0.02169,-0.00153,0.00185,-0.00232,-0.08125,0.98314,1.06210,0.19780
09:08:34.745860,1.08103,0.00594,0.00000,0.00000,-0.00005,0.00228,0.00060,-0.00304,-0.00043,-0.07967,0.98430,1.07265,0.18315
09:08:34.756836,1.09196,0.00583,0.00000,0.00000,-0.00570,0.24169,-0.00031,0.00017,0.00018,-0.08040,0.98344,1.08295,0.19780
09:08:34.766743,1.10191,0.00632,0.00000,0.00000,-0.00158,0.06698,-0.00138,-0.00426,-0.00018,-0.08058,0.98228,1.09299,0.19048
09:08:34.778812,1.11396,0.00766,0.00000,0.00000,0.00331,-0.14008,-0.00062,0.00078,-0.00262,-0.08113,0.98539,1.10427,0.18315
09:08:34.788777,1.12393,0.00727,0.00000,0.00000,0.00040,-0.01713,0.00702,-0.00029,-0.00244,-0.08162,0.98430,1.11491,0.20024
09:08:34.799402,1.13456,0.00755,0.00000,0.00000,-0.00387,0.16404,0.00106,-0.00044,0.00043,-0.08101,0.98478,1.12458,0.18071
09:08:34.808787,1.14393,0.00670,0.00000,0.00000,-0.00112,0.04757,0.00198,-0.00151,-0.00171,-0.08052,0.98497,1.13495,0.17827
09:08:34.818843,1.15399,0.00641,0.00000,0.00000,0.00086,-0.03655,0.00121,0.00124,-0.00445,-0.07942,0.98387,1.14499,0.19536
09:08:34.830326,1.16503,0.00708,0.00000,0.00000,0.00147,-0.06243,0.00473,-0.00227,-0.00140,-0.08058,0.98344,1.15553,0.19292
09:08:34.839568,1.17472,0.00641,0.00000,0.00000,-0.00158,0.06698,-0.00001,-0.00227,-0.00079,-0.08241,0.98362,1.16569,0.18315
09:08:34.849926,1.18510,0.00659,0.00000,0.00000,-0.00066,0.02816,-0.00230,-0.00426,-0.00299,-0.08253,0.98155,1.17672,0.19780
09:08:34.860540,1.19569,0.00677,0.00000,0.00000,-0.00158,0.06698,0.00182,-0.00151,-0.00134,-0.07918,0.98369,1.18663,0.21245
09:08:34.870695,1.20585,0.00641,0.00000,0.00000,-0.00219,0.09287,0.00396,-0.00136,-0.00171,-0.07997,0.98362,1.19684,0.18803
09:08:34.881649,1.21681,0.00669,0.00000,0.00000,-0.00005,0.00228,0.00091,-0.00029,-0.00244,-0.08174,0.98253,1.20778,0.19536
09:08:34.892768,1.22701,0.00653,0.00000,0.00000,-0.00066,0.02816,0.00366,-0.00166,-0.00268,-0.07967,0.98344,1.21885,0.18559
09:08:34.902645,1.23781,0.00648,0.00000,0.00000,0.00193,-0.08184,-0.00077,-0.00044,-0.00159,-0.08028,0.98649,1.22944,0.18559
09:08:34.913348,1.24851,0.00676,0.00000,0.00000,0.00468,-0.19831,-0.00367,0.00124,-0.00061,-0.08009,0.98674,1.23950,0.19780
09:08:34.923595,1.25807,0.00603,0.00000,0.00000,-0.00173,0.07345,-0.00062,0.00292,-0.00201,-0.08150,0.98338,1.24947,0.19780
09:08:34.934331,1.26950,0.00696,0.00000,0.00000,-0.00066,0.02816,0.00244,-0.00120,-0.00140,-0.07918,0.98387,1.26088,0.18315
09:08:34.946300,1.28146,0.00848,0.00000,0.00000,-0.00066,0.02816,0.00182,-0.00120,-0.00140,-0.07967,0.98478,1.27178,0.17827
09:08:34.954817,1.28997,0.00655,0.00000,0.00000,-0.00296,0.12522,0.00274,-0.00075,-0.00189,-0.08009,0.98423,1.28089,0.19048
09:08:34.965624,1.30079,0.00610,0.00000,0.00000,0.00117,-0.04949,0.00076,0.00032,-0.00140,-0.07814,0.98631,1.29241,0.20513
09:08:34.977363,1.31252,0.00748,0.00000,0.00000,-0.00494,0.20934,0.00091,-0.00044,-0.00018,-0.07960,0.98472,1.30345,0.20024
09:08:34.986796,1.32195,0.00657,0.00000,0.00000,-0.00387,0.16404,0.00091,0.00017,-0.00152,-0.07954,0.98247,1.31291,0.18803
09:08:34.996599,1.33177,0.00603,0.00000,0.00000,-0.00189,0.07992,0.00381,0.00155,-0.00329,-0.08204,0.98277,1.32335,0.19780
09:08:35.007385,1.34253,0.00660,0.00000,0.00000,0.00040,-0.01713,0.00259,-0.00013,-0.00256,-0.07960,0.98423,1.33346,0.19048
09:08:35.017816,1.35298,0.00668,0.00000,0.00000,0.00285,-0.12066,-0.00291,0.00032,-0.00079,-0.07979,0.98545,1.34387,0.18803
09:08:35.028812,1.36397,0.00731,0.00000,0.00000,-0.00189,0.07992,0.00106,0.00170,-0.00067,-0.07991,0.98314,1.35495,0.18559
09:08:35.039348,1.37448,0.00712,0.00000,0.00000,0.00117,-0.04949,0.00121,0.00124,-0.00262,-0.08015,0.98466,1.36540,0.19292
09:08:35.049927,1.38509,0.00678,0.00000,0.00000,-0.00036,0.01522,0.00198,-0.00044,-0.00207,-0.08235,0.98356,1.37604,0.20513
09:08:35.060403,1.39556,0.00706,0.00000,0.00000,-0.00128,0.05404,-0.00062,-0.00105,-0.00256,-0.07893,0.98521,1.38603,0.19292
09:08:35.070903,1.40606,0.00719,0.00000,0.00000,-0.00112,0.04757,0.00137,-0.00365,-0.00165,-0.08131,0.98436,1.39647,0.18315
09:08:35.081666,1.41683,0.00743,0.00000,0.00000,0.00315,-0.13360,-0.00031,-0.00197,-0.00348,-0.07857,0.98320,1.40780,0.19780
09:08:35.091021,1.42617,0.00654,0.00000,0.00000,0.00025,-0.01066,0.00320,-0.00181,-0.00177,-0.08052,0.98637,1.41716,0.19536
09:08:35.101337,1.43651,0.00599,0.00000,0.00000,0.00117,-0.04949,0.00244,-0.00227,-0.00275,-0.07954,0.98430,1.42812,0.18559
09:08:35.112337,1.44748,0.00661,0.00000,0.00000,-0.00143,0.06051,0.00320,0.00109,-0.00195,-0.08253,0.98442,1.43847,0.18071
09:08:35.123038,1.45819,0.00659,0.00000,0.00000,0.00102,-0.04302,0.00045,0.00002,-0.00152,-0.07924,0.98460,1.44899,0.18315
09:08:35.134266,1.46940,0.00660,0.00000,0.00000,0.00178,-0.07537,0.00350,-0.00151,-0.00305,-0.08107,0.98423,1.45986,0.19048
09:08:35.144548,1.47878,0.00629,0.00000,0.00000,-0.00021,0.00875,0.00580,-0.00411,-0.00250,-0.08058,0.98423,1.47040,0.19048
09:08:35.154636,1.48980,0.00695,0.00000,0.00000,-0.00158,0.06698,0.00366,-0.00304,-0.00354,-0.08076,0.98509,1.48054,0.19048
09:08:35.165478,1.49994,0.00673,0.00000,0.00000,0.00178,-0.07537,0.00442,-0.00059,-0.00183,-0.07942,0.98381,1.49161,0.18559
09:08:35.175262,1.51041,0.00655,0.00000,0.00000,0.00178,-0.07537,-0.00031,-0.00181,-0.00098,-0.08320,0.98283,1.50140,0.19536
09:08:35.186221,1.52138,0.00660,0.00000,0.00000,-0.00097,0.04110,0.00274,-0.00029,-0.00256,-0.08113,0.98570,1.51234,0.18559
09:08:35.196613,1.53177,0.00662,0.00000,0.00000,0.00270,-0.11419,0.00167,0.00093,-0.00122,-0.08131,0.98436,1.52273,0.19536
09:08:35.208283,1.54259,0.00701,0.00000,0.00000,-0.00341,0.14463,0.00182,0.00109,-0.00165,-0.08125,0.98149,1.53360,0.20269
09:08:35.218499,1.55362,0.00699,0.00000,0.00000,-0.00005,0.00228,0.00121,-0.00227,-0.00220,-0.07906,0.98112,1.54453,0.17827
09:08:35.228683,1.56383,0.00769,0.00000,0.00000,-0.00051,0.02169,-0.00108,-0.00227,-0.00250,-0.07973,0.98094,1.55399,0.18315
09:08:35.238618,1.57330,0.00679,0.00000,0.00000,-0.00128,0.05404,-0.00016,-0.00136,-0.00159,-0.08015,0.98442,1.56413,0.20757
09:08:35.248879,1.58401,0.00714,0.00000,0.00000,-0.00402,0.17051,-0.00367,-0.00090,-0.00189,-0.08015,0.98259,1.57447,0.19780
09:08:35.258782,1.59395,0.00654,0.00000,0.00000,-0.00128,0.05404,-0.00245,0.00063,-0.00305,-0.08204,0.98509,1.58554,0.18559
09:08:35.270393,1.60556,0.00779,0.00000,0.00000,-0.00051,0.02169,-0.00031,-0.00120,-0.00250,-0.07960,0.98521,1.59614,0.19292
09:08:35.279778,1.61491,0.00695,0.00000,0.00000,-0.00066,0.02816,0.00320,-0.00059,-0.00372,-0.07887,0.98417,1.60547,0.19780
09:08:35.290152,1.62532,0.00699,0.00000,0.00000,0.00102,-0.04302,0.00045,-0.00105,-0.00378,-0.08040,0.98814,1.61697,0.19292
09:08:35.300666,1.63582,0.00728,0.00000,0.00000,0.00117,-0.04949,-0.00138,-0.00227,-0.00201,-0.08168,0.98277,1.62679,0.19048
09:08:35.311154,1.64630,0.00741,0.00000,0.00000,0.00224,-0.09478,-0.00245,-0.00013,-0.00165,-0.07887,0.98436,1.63731,0.18315
09:08:35.322075,1.65724,0.00751,0.00000,0.00000,-0.00402,0.17051,0.00244,-0.00136,0.00049,-0.08150,0.98698,1.64805,0.20513
09:08:35.331397,1.66655,0.00663,0.00000,0.00000,0.00040,-0.01713,0.00015,-0.00013,-0.00195,-0.08015,0.98411,1.65746,0.18071
09:08:35.342695,1.67786,0.00758,0.00000,0.00000,0.00010,-0.00419,-0.00001,-0.00044,-0.00232,-0.07869,0.98051,1.66786,0.17338
09:08:35.352741,1.68788,0.00724,0.00000,0.00000,0.00224,-0.09478,0.00121,-0.00013,-0.00232,-0.07954,0.98094,1.67801,0.19048
09:08:35.362989,1.69816,0.00716,0.00000,0.00000,0.00040,-0.01713,0.00091,-0.00288,-0.00061,-0.07991,0.98253,1.68973,0.17827
09:08:35.373279,1.70844,0.00724,0.00000,0.00000,-0.00051,0.02169,0.00045,0.00063,-0.00220,-0.08070,0.98442,1.69943,0.21001
09:08:35.382893,1.71804,0.00655,0.00000,0.00000,-0.00112,0.04757,0.00091,-0.00013,-0.00104,-0.08089,0.98454,1.70903,0.20024
09:08:35.393382,1.72855,0.00670,0.00000,0.00000,0.00239,-0.10125,-0.00169,-0.00059,-0.00573,-0.07960,0.98515,1.71951,0.20024
09:08:35.404527,1.73969,0.00747,0.00000,0.00000,-0.00066,0.02816,0.00305,-0.00426,-0.00256,-0.08003,0.98570,1.73058,0.18803
09:08:35.416018,1.75032,0.00775,0.00000,0.00000,0.00040,-0.01713,0.00350,-0.00502,-0.00226,-0.07942,0.98417,1.74143,0.19048
09:08:35.425170,1.76033,0.00760,0.00000,0.00000,-0.00311,0.13169,-0.00001,-0.00166,-0.00201,-0.07973,0.98393,1.75042,0.18803
09:08:35.435081,1.77023,0.00669,0.00000,0.00000,0.00147,-0.06243,0.00289,-0.00273,-0.00281,-0.08101,0.98228,1.76122,0.19048
09:08:35.446127,1.78129,0.00699,0.00000,0.00000,0.00056,-0.02360,-0.00260,-0.00105,-0.00421,-0.08125,0.98399,1.77236,0.20024
09:08:35.458146,1.79329,0.00835,0.00000,0.00000,-0.00051,0.02169,0.00152,-0.00166,-0.00226,-0.08021,0.98442,1.78423,0.19536
09:08:35.467489,1.80264,0.00720,0.00000,0.00000,0.00315,-0.13360,0.00152,-0.00136,-0.00244,-0.08046,0.98478,1.79362,0.19780
09:08:35.478030,1.81319,0.00739,0.00000,0.00000,0.00178,-0.07537,-0.00184,-0.00090,-0.00329,-0.08198,0.98234,1.80413,0.19780
09:08:35.488441,1.82358,0.00753,0.00000,0.00000,0.00300,-0.12713,0.00412,-0.00029,-0.00183,-0.07979,0.98594,1.81433,0.18071
09:08:35.498075,1.83254,0.00612,0.00000,0.00000,0.00208,-0.08831,0.00060,-0.00151,-0.00268,-0.08003,0.98411,1.82417,0.19048
09:08:35.507357,1.84253,0.00576,0.00000,0.00000,-0.00158,0.06698,0.00198,-0.00181,-0.00104,-0.08168,0.98338,1.83434,0.20024
09:08:35.518921,1.85407,0.00662,0.00000,0.00000,-0.00066,0.02816,-0.00092,0.00231,-0.00201,-0.08052,0.98497,1.84499,0.19292
09:08:35.530386,1.86555,0.00681,0.00000,0.00000,0.00270,-0.11419,0.00076,-0.00120,-0.00061,-0.08156,0.98173,1.85646,0.18803
09:08:35.540562,1.87571,0.00661,0.00000,0.00000,-0.00189,0.07992,0.00152,-0.00090,-0.00006,-0.08217,0.98515,1.86667,0.18071
09:08:35.551318,1.88647,0.00704,0.00000,0.00000,-0.00036,0.01522,0.00015,-0.00136,-0.00213,-0.07796,0.98350,1.87742,0.18803
09:08:35.561274,1.89644,0.00681,0.00000,0.00000,-0.00066,0.02816,0.00076,0.00155,-0.00213,-0.08076,0.98247,1.88737,0.19048
09:08:35.571581,1.90650,0.00668,0.00000,0.00000,-0.00082,0.03463,0.00060,-0.00120,-0.00079,-0.08034,0.98497,1.89725,0.18559
09:08:35.582729,1.91788,0.00770,0.00000,0.00000,-0.00005,0.00228,-0.00123,0.00170,-0.00451,-0.08064,0.98436,1.90883,0.19780
09:08:35.592588,1.92773,0.00682,0.00000,0.00000,-0.00112,0.04757,-0.00092,0.00109,-0.00165,-0.07875,0.98576,1.91862,0.19048
09:08:35.603488,1.93864,0.00722,0.00000,0.00000,0.00086,-0.03655,0.00580,-0.00288,-0.00183,-0.08046,0.98619,1.92962,0.18315
09:08:35.613173,1.94834,0.00608,0.00000,0.00000,0.00056,-0.02360,0.00396,0.00048,-0.00232,-0.07973,0.98283,1.93998,0.18559
09:08:35.625038,1.96020,0.00700,0.00000,0.00000,-0.00051,0.02169,-0.00001,-0.00258,-0.00329,-0.07851,0.98478,1.95092,0.19292
09:08:35.634998,1.97017,0.00658,0.00000,0.00000,-0.00173,0.07345,0.00198,-0.00212,-0.00177,-0.08064,0.98503,1.96178,0.19536
09:08:35.646101,1.98053,0.00667,0.00000,0.00000,0.00147,-0.06243,0.00137,-0.00059,-0.00311,-0.08229,0.98478,1.97188,0.19536
09:08:35.656832,1.99199,0.00794,0.00000,0.00000,0.00560,-0.23713,0.00015,0.00063,-0.00360,-0.07845,0.98192,1.98253,0.18559
09:08:35.667508,2.00080,0.00646,0.00000,0.00000,-0.00097,0.04110,-0.00169,-0.00029,-0.00250,-0.08028,0.98436,1.99208,0.19048
09:08:35.676736,2.01188,0.00745,0.00000,0.00000,0.00178,-0.07537,-0.00001,-0.00151,-0.00110,-0.08034,0.98423,2.00273,0.19048
09:08:35.686264,2.02142,0.00677,0.00000,0.00000,0.00056,-0.02360,0.00182,-0.00197,-0.00201,-0.07985,0.98472,2.01238,0.18559
09:08:35.697210,2.03237,0.00678,0.00000,0.00000,-0.00158,0.06698,0.00167,-0.00151,-0.00287,-0.08015,0.98326,2.02333,0.19292
09:08:35.707159,2.04231,0.00653,0.00000,0.00000,0.00025,-0.01066,-0.00077,0.00017,-0.00195,-0.08015,0.98527,2.03330,0.17827
09:08:35.718109,2.05327,0.00728,0.00000,0.00000,-0.00051,0.02169,-0.00077,-0.00105,-0.00165,-0.07973,0.98466,2.04422,0.18071
09:08:35.728547,2.06285,0.00664,0.00000,0.00000,-0.00173,0.07345,-0.00138,0.00017,-0.00079,-0.07875,0.98216,2.05400,0.18559
09:08:35.738253,2.07341,0.00681,0.00000,0.00000,0.00132,-0.05596,0.00274,-0.00212,-0.00268,-0.08150,0.98222,2.06435,0.18803
09:08:35.748437,2.08358,0.00661,0.00000,0.00000,0.00086,-0.03655,0.00045,0.00216,-0.00165,-0.07924,0.98527,2.07455,0.19536
09:08:35.759265,2.09443,0.00681,0.00000,0.00000,-0.00036,0.01522,0.00335,-0.00151,-0.00171,-0.08253,0.98466,2.08509,0.19048
09:08:35.769439,2.10460,0.00662,0.00000,0.00000,0.00147,-0.06243,0.00366,0.00017,-0.00171,-0.07912,0.98460,2.09558,0.20024
09:08:35.780902,2.11606,0.00772,0.00000,0.00000,0.00163,-0.06890,-0.00062,-0.00441,-0.00244,-0.08040,0.98411,2.10664,0.17827
09:08:35.790193,2.12535,0.00680,0.00000,0.00000,-0.00372,0.15757,0.00320,-0.00059,-0.00238,-0.08101,0.98259,2.11630,0.19780
09:08:35.801651,2.13681,0.00750,0.00000,0.00000,0.00071,-0.03008,0.00015,-0.00105,-0.00171,-0.07973,0.98466,2.12745,0.18803
09:08:35.810893,2.14604,0.00654,0.00000,0.00000,-0.00311,0.13169,-0.00383,0.00261,-0.00268,-0.07954,0.98289,2.13702,0.19048
09:08:35.821661,2.15682,0.00663,0.00000,0.00000,0.00040,-0.01713,0.00060,-0.00120,-0.00512,-0.07997,0.98320,2.14778,0.19292
09:08:35.832567,2.16771,0.00683,0.00000,0.00000,-0.00173,0.07345,-0.00062,-0.00029,-0.00250,-0.07930,0.98234,2.15861,0.18559
09:08:35.842678,2.17783,0.00641,0.00000,0.00000,0.00239,-0.10125,-0.00001,-0.00136,-0.00226,-0.07991,0.98161,2.16883,0.19292
09:08:35.855073,2.19022,0.00811,0.00000,0.00000,0.00285,-0.12066,0.00152,0.00048,-0.00232,-0.07924,0.98539,2.18045,0.19536
09:08:35.864362,2.19952,0.00677,0.00000,0.00000,-0.00143,0.06051,-0.00016,-0.00120,-0.00250,-0.07997,0.98326,2.19047,0.18315
09:08:35.875044,2.20945,0.00650,0.00000,0.00000,0.00102,-0.04302,-0.00138,-0.00075,-0.00201,-0.07954,0.98417,2.20112,0.18559
09:08:35.885519,2.22068,0.00678,0.00000,0.00000,0.00285,-0.12066,0.00015,-0.00059,-0.00165,-0.08168,0.98411,2.21163,0.19292
09:08:35.895519,2.23067,0.00641,0.00000,0.00000,0.00086,-0.03655,-0.00016,0.00124,0.00030,-0.07924,0.98411,2.22164,0.18559
09:08:35.906225,2.24139,0.00677,0.00000,0.00000,0.00086,-0.03655,-0.00123,-0.00181,-0.00232,-0.07906,0.98289,2.23302,0.18315
09:08:35.917392,2.25255,0.00757,0.00000,0.00000,-0.00005,0.00228,0.00091,-0.00136,-0.00262,-0.08156,0.98326,2.24353,0.18315
09:08:35.928521,2.26282,0.00748,0.00000,0.00000,0.00407,-0.17243,-0.00123,-0.00181,-0.00354,-0.07991,0.98405,2.25391,0.18071
09:08:35.937942,2.27311,0.00681,0.00000,0.00000,-0.00051,0.02169,0.00289,-0.00380,-0.00189,-0.08070,0.98387,2.26402,0.18559
09:08:35.948633,2.28377,0.00726,0.00000,0.00000,0.00529,-0.22419,-0.00169,-0.00044,-0.00366,-0.07869,0.98344,2.27473,0.19292
09:08:35.959152,2.29432,0.00672,0.00000,0.00000,0.00147,-0.06243,0.00030,0.00002,-0.00220,-0.08034,0.98161,2.28572,0.19048
09:08:35.971095,2.30625,0.00765,0.00000,0.00000,-0.00021,0.00875,0.00076,-0.00136,-0.00116,-0.08046,0.98448,2.29666,0.20024
09:08:35.979588,2.31476,0.00594,0.00000,0.00000,-0.00250,0.10581,0.00473,-0.00013,-0.00134,-0.08125,0.98430,2.30654,0.18803
09:08:35.991327,2.32648,0.00656,0.00000,0.00000,0.00315,-0.13360,0.00015,-0.00029,-0.00171,-0.07845,0.98387,2.31745,0.19292
09:08:36.002649,2.33779,0.00732,0.00000,0.00000,0.00193,-0.08184,0.00076,0.00093,-0.00232,-0.07906,0.98265,2.32877,0.19292
09:08:36.013461,2.34863,0.00779,0.00000,0.00000,-0.00189,0.07992,-0.00092,-0.00395,-0.00244,-0.08034,0.98369,2.33925,0.17582
09:08:36.022843,2.35800,0.00609,0.00000,0.00000,-0.00097,0.04110,0.00244,-0.00120,-0.00098,-0.08186,0.98362,2.34942,0.18559
09:08:36.033897,2.36906,0.00688,0.00000,0.00000,-0.00005,0.00228,0.00106,0.00063,-0.00275,-0.07930,0.98137,2.35998,0.19780
09:08:36.043747,2.37890,0.00652,0.00000,0.00000,0.00163,-0.06890,-0.00016,-0.00090,-0.00152,-0.08076,0.98411,2.36990,0.18315
09:08:36.054282,2.38943,0.00670,0.00000,0.00000,-0.00234,0.09934,0.00060,-0.00166,-0.00146,-0.07954,0.98265,2.38033,0.18315
09:08:36.064393,2.39956,0.00618,0.00000,0.00000,-0.00021,0.00875,-0.00153,-0.00411,-0.00281,-0.08003,0.98277,2.39093,0.19292
09:08:36.076208,2.41136,0.00732,0.00000,0.00000,0.00102,-0.04302,0.00213,-0.00105,-0.00262,-0.07735,0.98350,2.40230,0.19536
09:08:36.087121,2.42226,0.00787,0.00000,0.00000,-0.00112,0.04757,0.00152,0.00048,-0.00238,-0.08064,0.98387,2.41301,0.18803
09:08:36.096834,2.43199,0.00723,0.00000,0.00000,-0.00051,0.02169,0.00228,0.00017,-0.00122,-0.08095,0.98570,2.42233,0.19780
09:08:36.107291,2.44244,0.00733,0.00000,0.00000,-0.00036,0.01522,-0.00153,0.00017,-0.00104,-0.08143,0.98308,2.43344,0.20024
09:08:36.116907,2.45207,0.00674,0.00000,0.00000,-0.00204,0.08640,-0.00031,-0.00136,-0.00085,-0.08253,0.98423,2.44294,0.19292
09:08:36.127153,2.46230,0.00678,0.00000,0.00000,-0.00219,0.09287,0.00137,-0.00212,-0.00165,-0.07857,0.98375,2.45328,0.20269
09:08:36.137374,2.47254,0.00666,0.00000,0.00000,0.00147,-0.06243,0.00030,-0.00319,-0.00146,-0.08052,0.98387,2.46346,0.18559
09:08:36.146789,2.48196,0.00588,0.00000,0.00000,0.00025,-0.01066,0.00030,-0.00441,-0.00262,-0.07918,0.98631,2.47359,0.18559
09:08:36.157821,2.49298,0.00655,0.00000,0.00000,-0.00173,0.07345,-0.00092,-0.00075,-0.00104,-0.08015,0.98362,2.48403,0.18559
09:08:36.169429,2.50458,0.00778,0.00000,0.00000,-0.00219,0.09287,0.00106,0.00017,-0.00049,-0.08229,0.98228,2.49517,0.19536
09:08:36.179296,2.51445,0.00659,0.00000,0.00000,-0.00066,0.02816,0.00473,0.00216,-0.00262,-0.08028,0.98448,2.50538,0.20269
09:08:36.190417,2.52557,0.00734,0.00000,0.00000,0.00224,-0.09478,-0.00001,0.00063,-0.00366,-0.08131,0.98533,2.51656,0.19292
09:08:36.200415,2.53557,0.00681,0.00000,0.00000,-0.00219,0.09287,0.00137,0.00093,-0.00189,-0.08040,0.98247,2.52649,0.18803
09:08:36.210739,2.54590,0.00674,0.00000,0.00000,0.00315,-0.13360,0.00244,-0.00227,-0.00201,-0.08156,0.98375,2.53686,0.18071
09:08:36.220852,2.55511,0.00575,0.00000,0.00000,0.00270,-0.11419,0.00045,-0.00029,-0.00354,-0.07875,0.98332,2.54694,0.18803
09:08:36.232096,2.56705,0.00730,0.00000,0.00000,-0.00219,0.09287,0.00182,0.00170,-0.00262,-0.08082,0.98137,2.55748,0.19780
09:08:36.241338,2.57651,0.00655,0.00000,0.00000,0.00086,-0.03655,-0.00062,-0.00136,-0.00250,-0.08021,0.98497,2.56816,0.20269
09:08:36.252310,2.58746,0.00713,0.00000,0.00000,-0.00005,0.00228,0.00213,0.00063,-0.00140,-0.07893,0.98442,2.57771,0.18803
09:08:36.262274,2.59744,0.00690,0.00000,0.00000,-0.00082,0.03463,0.00045,0.00093,-0.00146,-0.07979,0.98484,2.58829,0.18315
09:08:36.273519,2.60868,0.00719,0.00000,0.00000,0.00025,-0.01066,-0.00199,-0.00288,-0.00067,-0.08168,0.98350,2.59941,0.18803
09:08:36.283064,2.61822,0.00652,0.00000,0.00000,-0.00066,0.02816,-0.00108,0.00231,-0.00281,-0.07954,0.98320,2.60922,0.18803
09:08:36.293303,2.62847,0.00641,0.00000,0.00000,-0.00051,0.02169,0.00167,0.00032,-0.00262,-0.07930,0.98369,2.61963,0.19536
09:08:36.304622,2.63977,0.00676,0.00000,0.00000,-0.00082,0.03463,0.00045,0.00093,-0.00140,-0.07906,0.98576,2.63073,0.19292
09:08:36.314998,2.64946,0.00609,0.00000,0.00000,0.00163,-0.06890,0.00228,-0.00243,-0.00305,-0.07936,0.98515,2.64112,0.18803
09:08:36.325353,2.66051,0.00678,0.00000,0.00000,0.00102,-0.04302,-0.00215,0.00063,-0.00226,-0.08143,0.98484,2.65134,0.18803
09:08:36.336301,2.67145,0.00730,0.00000,0.00000,-0.00082,0.03463,0.00274,0.00078,0.00049,-0.07960,0.98844,2.66246,0.18071
09:08:36.346371,2.68152,0.00679,0.00000,0.00000,-0.00280,0.11875,0.00228,-0.00059,-0.00146,-0.07942,0.98393,2.67246,0.19536
09:08:36.357690,2.69285,0.00744,0.00000,0.00000,-0.00357,0.15110,0.00152,-0.00059,-0.00098,-0.07936,0.98619,2.68372,0.19536
09:08:36.367816,2.70298,0.00737,0.00000,0.00000,0.00102,-0.04302,0.00198,-0.00273,-0.00317,-0.08003,0.98454,2.69460,0.18803
09:08:36.378005,2.71317,0.00735,0.00000,0.00000,0.00147,-0.06243,-0.00199,-0.00090,-0.00055,-0.07973,0.98533,2.70409,0.18315
09:08:36.388028,2.72231,0.00629,0.00000,0.00000,-0.00005,0.00228,-0.00001,0.00002,-0.00067,-0.08101,0.98411,2.71394,0.18803
09:08:36.398663,2.73383,0.00744,0.00000,0.00000,-0.00097,0.04110,0.00076,0.00002,-0.00226,-0.08040,0.98393,2.72471,0.18559
09:08:36.408528,2.74368,0.00678,0.00000,0.00000,-0.00021,0.00875,0.00228,0.00063,-0.00335,-0.07991,0.98198,2.73463,0.20024
09:08:36.418829,2.75400,0.00650,0.00000,0.00000,-0.00097,0.04110,0.00045,0.00093,-0.00152,-0.07954,0.98362,2.74565,0.19048
09:08:36.429527,2.76469,0.00684,0.00000,0.00000,0.00315,-0.13360,-0.00153,-0.00029,-0.00354,-0.08040,0.98314,2.75630,0.18315
09:08:36.441306,2.77646,0.00790,0.00000,0.00000,0.00147,-0.06243,0.00030,-0.00258,-0.00177,-0.07887,0.98423,2.76733,0.20513
09:08:36.450918,2.78607,0.00666,0.00000,0.00000,0.00086,-0.03655,0.00213,0.00216,-0.00189,-0.08259,0.98442,2.77693,0.18315
09:08:36.461760,2.79692,0.00681,0.00000,0.00000,0.00117,-0.04949,-0.00337,0.00246,-0.00220,-0.08021,0.98259,2.78786,0.18803
09:08:36.472632,2.80781,0.00675,0.00000,0.00000,0.00178,-0.07537,0.00335,-0.00380,-0.00073,-0.08040,0.98515,2.79944,0.18315
09:08:36.484148,2.81911,0.00718,0.00000,0.00000,-0.00173,0.07345,0.00335,-0.00029,-0.00213,-0.07991,0.98503,2.80997,0.17827
09:08:36.493793,2.82895,0.00667,0.00000,0.00000,0.00040,-0.01713,-0.00062,0.00323,-0.00421,-0.08076,0.98448,2.81988,0.19048
09:08:36.504075,2.83903,0.00655,0.00000,0.00000,-0.00082,0.03463,-0.00215,-0.00013,-0.00317,-0.08046,0.98594,2.83000,0.19292
09:08:36.515116,2.85026,0.00757,0.00000,0.00000,-0.00021,0.00875,-0.00001,-0.00120,-0.00092,-0.08009,0.98295,2.84124,0.19780
09:08:36.525933,2.86110,0.00805,0.00000,0.00000,0.00438,-0.18537,-0.00199,-0.00395,-0.00256,-0.08089,0.98582,2.85140,0.19048
09:08:36.534135,2.86930,0.00575,0.00000,0.00000,0.00102,-0.04302,-0.00047,-0.00090,-0.00476,-0.07869,0.98381,2.86096,0.19048
09:08:36.545852,2.88102,0.00686,0.00000,0.00000,0.00071,-0.03008,0.00457,-0.00380,0.00006,-0.08040,0.98387,2.87195,0.19292
09:08:36.555820,2.89097,0.00661,0.00000,0.00000,0.00163,-0.06890,-0.00123,-0.00044,-0.00183,-0.07979,0.98405,2.88188,0.20513
09:08:36.565502,2.90067,0.00611,0.00000,0.00000,0.00147,-0.06243,0.00076,-0.00212,-0.00024,-0.08015,0.98448,2.89229,0.18315
09:08:36.575674,2.91084,0.00608,0.00000,0.00000,-0.00372,0.15757,0.00045,-0.00105,-0.00104,-0.08034,0.98454,2.90266,0.18803
09:08:36.586597,2.92175,0.00671,0.00000,0.00000,-0.00066,0.02816,0.00182,0.00093,-0.00207,-0.08082,0.98405,2.91273,0.19292
09:08:36.597327,2.93249,0.00708,0.00000,0.00000,0.00117,-0.04949,0.00289,0.00170,-0.00329,-0.08192,0.98448,2.92290,0.19292
09:08:36.606969,2.94212,0.00652,0.00000,0.00000,-0.00036,0.01522,0.00473,0.00170,-0.00213,-0.08064,0.98478,2.93312,0.20757
09:08:36.617241,2.95241,0.00596,0.00000,0.00000,-0.00128,0.05404,-0.00077,-0.00105,-0.00195,-0.08174,0.98454,2.94404,0.18803
09:08:36.629311,2.96448,0.00767,0.00000,0.00000,-0.00158,0.06698,0.00427,-0.00090,-0.00305,-0.08125,0.98259,2.95542,0.18803
09:08:36.638883,2.97403,0.00669,0.00000,0.00000,0.00239,-0.10125,0.00259,-0.00181,-0.00159,-0.07814,0.98460,2.96475,0.18803
09:08:36.649518,2.98383,0.00612,0.00000,0.00000,-0.00219,0.09287,0.00167,0.00246,-0.00232,-0.07960,0.98509,2.97530,0.18559
09:08:36.660134,2.99508,0.00719,0.00000,0.00000,0.00147,-0.06243,-0.00031,-0.00013,-0.00195,-0.08229,0.98515,2.98605,0.18315
09:08:36.671191,3.00634,0.00808,0.00000,0.00000,0.00056,-0.02360,-0.00062,-0.00090,-0.00293,-0.07832,0.98326,2.99704,0.21001
09:08:36.678871,3.01404,0.00557,0.00000,0.00000,0.00331,-0.14008,-0.00016,-0.00075,-0.00256,-0.08064,0.98259,3.00594,0.19048
09:08:36.690320,3.02548,0.00665,0.00000,0.00000,0.00239,-0.10125,-0.00047,-0.00059,-0.00189,-0.07954,0.98320,3.01642,0.19536
09:08:36.700740,3.03590,0.00670,0.00000,0.00000,-0.00265,0.11228,0.00152,-0.00151,-0.00238,-0.07924,0.98430,3.02676,0.18803
09:08:36.710871,3.04603,0.00645,0.00000,0.00000,-0.00082,0.03463,0.00198,-0.00090,-0.00085,-0.08217,0.98350,3.03699,0.18071
09:08:36.722231,3.05670,0.00593,0.00000,0.00000,0.00147,-0.06243,-0.00062,-0.00090,-0.00213,-0.07973,0.98411,3.04835,0.19536
09:08:36.731723,3.06689,0.00576,0.00000,0.00000,0.00285,-0.12066,-0.00291,-0.00288,-0.00220,-0.08058,0.98314,3.05870,0.19780
09:08:36.743377,3.07853,0.00695,0.00000,0.00000,-0.00021,0.00875,0.00152,0.00063,-0.00366,-0.08058,0.98387,3.06952,0.18315
09:08:36.754700,3.08909,0.00715,0.00000,0.00000,-0.00280,0.11875,-0.00047,0.00048,-0.00128,-0.08058,0.98314,3.08002,0.19536
09:08:36.763581,3.09873,0.00643,0.00000,0.00000,-0.00219,0.09287,0.00320,0.00078,-0.00098,-0.08052,0.98484,3.08969,0.19292
09:08:36.774147,3.10931,0.00664,0.00000,0.00000,0.00224,-0.09478,-0.00016,0.00002,-0.00012,-0.08052,0.98423,3.10024,0.19536
09:08:36.785474,3.12064,0.00727,0.00000,0.00000,0.00270,-0.11419,-0.00001,-0.00273,-0.00061,-0.08119,0.98344,3.11121,0.19048
09:08:36.795141,3.13029,0.00657,0.00000,0.00000,-0.00219,0.09287,-0.00016,-0.00075,-0.00183,-0.07918,0.98393,3.12125,0.19292
09:08:36.806199,3.14137,0.00743,0.00000,0.00000,0.00010,-0.00419,0.00198,0.00170,-0.00183,-0.08168,0.98240,3.13183,0.18803
09:08:36.815596,3.15075,0.00662,0.00000,0.00000,-0.00494,0.20934,0.00213,-0.00304,-0.00390,-0.08028,0.98423,3.14166,0.19780
09:08:36.827287,3.16189,0.00740,0.00000,0.00000,0.00086,-0.03655,0.00289,-0.00120,-0.00183,-0.08076,0.98423,3.15259,0.18315
09:08:36.836305,3.17145,0.00659,0.00000,0.00000,0.00376,-0.15949,-0.00047,-0.00212,-0.00305,-0.08125,0.98430,3.16244,0.19292
09:08:36.847565,3.18272,0.00733,0.00000,0.00000,0.00086,-0.03655,0.00045,0.00032,-0.00098,-0.07991,0.98045,3.17370,0.18315
09:08:36.857242,3.19241,0.00666,0.00000,0.00000,-0.00158,0.06698,-0.00184,0.00155,-0.00220,-0.07930,0.98472,3.18335,0.18803
09:08:36.866529,3.20170,0.00575,0.00000,0.00000,-0.00189,0.07992,0.00198,0.00185,-0.00024,-0.08168,0.98521,3.19336,0.18315
09:08:36.878490,3.21364,0.00732,0.00000,0.00000,-0.00066,0.02816,0.00091,0.00155,-0.00177,-0.08082,0.98509,3.20390,0.18803
09:08:36.888155,3.22311,0.00644,0.00000,0.00000,-0.00021,0.00875,-0.00016,-0.00090,-0.00238,-0.08034,0.98399,3.21407,0.18559
09:08:36.898215,3.23338,0.00635,0.00000,0.00000,-0.00494,0.20934,0.00274,0.00002,-0.00201,-0.07869,0.98240,3.22505,0.19780
09:08:36.909326,3.24398,0.00663,0.00000,0.00000,0.00102,-0.04302,-0.00047,-0.00304,-0.00262,-0.07954,0.98478,3.23494,0.20024
09:08:36.918868,3.25402,0.00643,0.00000,0.00000,-0.00189,0.07992,-0.00321,-0.00090,-0.00311,-0.08070,0.98405,3.24501,0.19048
09:08:36.929671,3.26483,0.00687,0.00000,0.00000,0.00071,-0.03008,0.00076,-0.00075,-0.00110,-0.08119,0.98442,3.25580,0.18315
09:08:36.939568,3.27472,0.00640,0.00000,0.00000,-0.00097,0.04110,0.00198,0.00063,-0.00183,-0.07967,0.98503,3.26571,0.18803
09:08:36.951596,3.28674,0.00806,0.00000,0.00000,-0.00051,0.02169,-0.00184,-0.00044,-0.00140,-0.07997,0.98552,3.27728,0.18315
09:08:36.961402,3.29603,0.00677,0.00000,0.00000,-0.00066,0.02816,0.00045,0.00460,-0.00250,-0.08107,0.98234,3.28696,0.19536
09:08:36.971232,3.30637,0.00664,0.00000,0.00000,-0.00036,0.01522,-0.00077,-0.00044,-0.00177,-0.07985,0.98478,3.29736,0.18071
09:08:36.981737,3.31691,0.00682,0.00000,0.00000,0.00208,-0.08831,0.00076,-0.00227,-0.00134,-0.08070,0.98484,3.30766,0.19048
09:08:36.993677,3.32884,0.00812,0.00000,0.00000,-0.00036,0.01522,0.00534,-0.00456,-0.00268,-0.08101,0.98600,3.31979,0.17582
09:08:37.003245,3.33788,0.00674,0.00000,0.00000,-0.00036,0.01522,0.00076,-0.00090,-0.00177,-0.08131,0.98332,3.32880,0.18559
09:08:37.012997,3.34746,0.00596,0.00000,0.00000,-0.00051,0.02169,0.00427,-0.00243,-0.00506,-0.08028,0.98430,3.33909,0.19292
09:08:37.022569,3.35774,0.00605,0.00000,0.00000,-0.00082,0.03463,-0.00352,-0.00075,-0.00250,-0.08192,0.98436,3.34938,0.18803
09:08:37.032966,3.36813,0.00605,0.00000,0.00000,0.00178,-0.07537,-0.00031,0.00017,-0.00213,-0.07869,0.98509,3.35981,0.19292
09:08:37.043331,3.37850,0.00578,0.00000,0.00000,0.00331,-0.14008,0.00121,-0.00166,-0.00226,-0.08137,0.98417,3.37032,0.19292
09:08:37.054879,3.39004,0.00664,0.00000,0.00000,0.00270,-0.11419,0.00091,-0.00013,-0.00244,-0.07954,0.98472,3.38093,0.19536
09:08:37.065286,3.40045,0.00667,0.00000,0.00000,-0.00036,0.01522,0.00442,-0.00197,-0.00079,-0.08052,0.98344,3.39138,0.19536
09:08:37.075446,3.41060,0.00662,0.00000,0.00000,0.00178,-0.07537,-0.00260,-0.00090,-0.00061,-0.07875,0.98234,3.40150,0.19292
09:08:37.085953,3.42112,0.00694,0.00000,0.00000,-0.00082,0.03463,-0.00352,-0.00044,-0.00122,-0.07912,0.98149,3.41266,0.18315
09:08:37.098277,3.43291,0.00790,0.00000,0.00000,-0.00005,0.00228,0.00198,-0.00334,-0.00183,-0.08168,0.98265,3.42384,0.19292
09:08:37.106772,3.44192,0.00642,0.00000,0.00000,0.00315,-0.13360,0.00076,0.00216,-0.00226,-0.08076,0.98259,3.43290,0.20024
09:08:37.118112,3.45250,0.00663,0.00000,0.00000,0.00071,-0.03008,0.00213,-0.00105,-0.00335,-0.07924,0.98186,3.44345,0.19780
09:08:37.127739,3.46290,0.00668,0.00000,0.00000,-0.00005,0.00228,0.00213,-0.00258,-0.00348,-0.08192,0.98436,3.45360,0.19536
09:08:37.138852,3.47400,0.00742,0.00000,0.00000,0.00117,-0.04949,0.00182,0.00353,-0.00445,-0.08089,0.98442,3.46490,0.18071
09:08:37.147569,3.48274,0.00576,0.00000,0.00000,0.00102,-0.04302,0.00076,0.00231,-0.00305,-0.07967,0.98198,3.47457,0.19536
09:08:37.158753,3.49391,0.00642,0.00000,0.00000,-0.00021,0.00875,0.00045,-0.00136,-0.00348,-0.08040,0.98216,3.48489,0.20024
09:08:37.170539,3.50493,0.00689,0.00000,0.00000,-0.00250,0.10581,0.00030,0.00124,-0.00140,-0.08015,0.98356,3.49586,0.19292
09:08:37.180951,3.51500,0.00661,0.00000,0.00000,-0.00021,0.00875,-0.00092,0.00155,-0.00250,-0.08021,0.98417,3.50579,0.18315
09:08:37.190260,3.52512,0.00651,0.00000,0.00000,0.00300,-0.12713,0.00305,-0.00120,-0.00043,-0.08101,0.98362,3.51675,0.18559
09:08:37.202005,3.53690,0.00791,0.00000,0.00000,-0.00051,0.02169,0.00167,-0.00059,-0.00189,-0.08076,0.98436,3.52723,0.20269
09:08:37.210756,3.54591,0.00640,0.00000,0.00000,0.00239,-0.10125,0.00060,0.00093,-0.00287,-0.08107,0.98198,3.53691,0.19780
09:08:37.222153,3.55705,0.00718,0.00000,0.00000,-0.00265,0.11228,0.00121,-0.00181,-0.00287,-0.08034,0.98289,3.54746,0.19292
09:08:37.231743,3.56689,0.00666,0.00000,0.00000,-0.00066,0.02816,0.00167,-0.00075,-0.00073,-0.08040,0.98326,3.55783,0.19048
09:08:37.242088,3.57725,0.00666,0.00000,0.00000,-0.00005,0.00228,0.00182,-0.00059,-0.00256,-0.08021,0.98478,3.56818,0.19292
09:08:37.253006,3.58750,0.00655,0.00000,0.00000,-0.00280,0.11875,-0.00062,-0.00151,0.00012,-0.07967,0.98326,3.57880,0.19048
09:08:37.263176,3.59832,0.00687,0.00000,0.00000,0.00331,-0.14008,0.00182,0.00048,-0.00122,-0.08028,0.98667,3.58886,0.18559
09:08:37.273336,3.60850,0.00669,0.00000,0.00000,-0.00036,0.01522,-0.00092,-0.00349,-0.00262,-0.07924,0.98369,3.59939,0.19780
09:08:37.283309,3.61846,0.00646,0.00000,0.00000,-0.00036,0.01522,-0.00459,-0.00304,-0.00128,-0.08143,0.98277,3.60944,0.20024
09:08:37.293482,3.62865,0.00643,0.00000,0.00000,-0.00509,0.21581,0.00244,-0.00197,-0.00238,-0.07973,0.98375,3.62005,0.19292
09:08:37.304046,3.63901,0.00643,0.00000,0.00000,-0.00005,0.00228,0.00167,-0.00136,-0.00293,-0.08021,0.98155,3.62996,0.18315
09:08:37.315215,3.64980,0.00687,0.00000,0.00000,0.00086,-0.03655,-0.00138,0.00002,-0.00311,-0.08113,0.98332,3.64060,0.20269
09:08:37.324721,3.65987,0.00658,0.00000,0.00000,-0.00250,0.10581,-0.00123,0.00109,-0.00250,-0.07906,0.98430,3.65088,0.20269
09:08:37.335458,3.66992,0.00633,0.00000,0.00000,-0.00143,0.06051,0.00182,-0.00136,-0.00024,-0.08174,0.98350,3.66156,0.19048
09:08:37.345400,3.68057,0.00676,0.00000,0.00000,-0.00128,0.05404,0.00137,0.00124,-0.00140,-0.08052,0.98271,3.67153,0.20024
09:08:37.354763,3.68993,0.00577,0.00000,0.00000,-0.00158,0.06698,-0.00138,-0.00136,-0.00281,-0.07936,0.98253,3.68155,0.19292
09:08:37.366085,3.70124,0.00672,0.00000,0.00000,-0.00036,0.01522,-0.00031,0.00032,-0.00268,-0.08064,0.98356,3.69210,0.20024
09:08:37.376329,3.71148,0.00659,0.00000,0.00000,0.00239,-0.10125,0.00015,0.00017,-0.00201,-0.08211,0.98521,3.70248,0.19048
09:08:37.386010,3.72118,0.00576,0.00000,0.00000,-0.00112,0.04757,-0.00138,0.00170,-0.00037,-0.08089,0.98301,3.71283,0.19536
09:08:37.397198,3.73236,0.00672,0.00000,0.00000,-0.00204,0.08640,0.00396,0.00063,-0.00165,-0.08192,0.98094,3.72330,0.19536
09:08:37.407359,3.74248,0.00600,0.00000,0.00000,0.00499,-0.21125,0.00152,-0.00059,-0.00140,-0.07954,0.98460,3.73326,0.19292
09:08:37.417712,3.75288,0.00668,0.00000,0.00000,-0.00219,0.09287,0.00335,-0.00136,-0.00146,-0.07973,0.98387,3.74377,0.19292
09:08:37.428281,3.76344,0.00688,0.00000,0.00000,-0.00051,0.02169,-0.00398,0.00216,-0.00348,-0.08113,0.98173,3.75394,0.19292
09:08:37.438437,3.77359,0.00668,0.00000,0.00000,0.00254,-0.10772,0.00015,0.00170,-0.00079,-0.07948,0.98545,3.76449,0.19780
09:08:37.448746,3.78389,0.00661,0.00000,0.00000,0.00071,-0.03008,-0.00062,-0.00044,-0.00189,-0.08143,0.98387,3.77487,0.18315
09:08:37.460263,3.79499,0.00740,0.00000,0.00000,0.00056,-0.02360,0.00305,-0.00044,-0.00250,-0.07979,0.98430,3.78498,0.19292
09:08:37.469458,3.80462,0.00668,0.00000,0.00000,0.00254,-0.10772,0.00335,-0.00365,-0.00055,-0.08143,0.98204,3.79553,0.19536
09:08:37.480229,3.81455,0.00623,0.00000,0.00000,0.00117,-0.04949,0.00702,0.00109,-0.00146,-0.08095,0.98436,3.80569,0.18803
09:08:37.490853,3.82600,0.00663,0.00000,0.00000,0.00163,-0.06890,0.00121,0.00063,-0.00079,-0.07832,0.98173,3.81691,0.20513
09:08:37.501745,3.83622,0.00649,0.00000,0.00000,-0.00021,0.00875,0.00656,-0.00013,-0.00207,-0.08217,0.98448,3.82734,0.19780
09:08:37.510782,3.84595,0.00583,0.00000,0.00000,-0.00158,0.06698,-0.00047,-0.00029,-0.00146,-0.08119,0.98332,3.83761,0.19048
09:08:37.522246,3.85742,0.00693,0.00000,0.00000,0.00239,-0.10125,0.00182,-0.00120,-0.00104,-0.08180,0.98448,3.84816,0.18071
09:08:37.534235,3.86867,0.00783,0.00000,0.00000,-0.00021,0.00875,0.00045,-0.00029,-0.00329,-0.07948,0.98338,3.85970,0.19536
09:08:37.542326,3.87749,0.00612,0.00000,0.00000,0.00056,-0.02360,-0.00047,0.00200,-0.00220,-0.08076,0.98466,3.86918,0.18559
09:08:37.554598,3.88974,0.00779,0.00000,0.00000,-0.00021,0.00875,0.00320,-0.00349,-0.00366,-0.08021,0.98344,3.88066,0.18803
09:08:37.563648,3.89882,0.00652,0.00000,0.00000,0.00300,-0.12713,-0.00077,-0.00181,-0.00335,-0.07997,0.98387,3.89063,0.18315
09:08:37.574072,3.90923,0.00673,0.00000,0.00000,-0.00036,0.01522,0.00152,0.00078,-0.00171,-0.07887,0.98039,3.90020,0.19780
09:08:37.585048,3.92021,0.00720,0.00000,0.00000,0.00040,-0.01713,0.00213,0.00155,-0.00116,-0.08107,0.98472,3.91121,0.19048
09:08:37.595396,3.93056,0.00705,0.00000,0.00000,0.00040,-0.01713,0.00228,0.00292,-0.00317,-0.08076,0.98039,3.92091,0.20513
09:08:37.607541,3.94270,0.00883,0.00000,0.00000,0.00010,-0.00419,-0.00047,-0.00166,-0.00287,-0.08076,0.98423,3.93267,0.18315
09:08:37.615829,3.95098,0.00691,0.00000,0.00000,0.00040,-0.01713,0.00366,0.00048,-0.00256,-0.07967,0.98326,3.94147,0.20024
09:08:37.626469,3.96161,0.00718,0.00000,0.00000,0.00010,-0.00419,-0.00092,-0.00013,-0.00104,-0.07967,0.98314,3.95233,0.19048
09:08:37.636647,3.97179,0.00672,0.00000,0.00000,-0.00021,0.00875,0.00167,0.00093,-0.00122,-0.08180,0.98143,3.96278,0.19048
09:08:37.646975,3.98215,0.00656,0.00000,0.00000,0.00117,-0.04949,-0.00001,-0.00380,-0.00348,-0.08003,0.98338,3.97380,0.18071
09:08:37.657527,3.99269,0.00690,0.00000,0.00000,-0.00311,0.13169,0.00320,-0.00059,-0.00049,-0.07869,0.98423,3.98429,0.18559
09:08:37.668199,4.00334,0.00711,0.00000,0.00000,-0.00005,0.00228,0.00259,-0.00166,-0.00354,-0.07832,0.98430,3.99406,0.19292
09:08:37.678377,4.01354,0.00713,0.00000,0.00000,-0.00128,0.05404,-0.00123,0.00017,-0.00262,-0.08192,0.98594,4.00402,0.18315
09:08:37.689006,4.02416,0.00675,0.00000,0.00000,0.00010,-0.00419,0.00060,-0.00059,-0.00268,-0.07887,0.98582,4.01516,0.18071
09:08:37.698971,4.03412,0.00651,0.00000,0.00000,0.00178,-0.07537,-0.00001,-0.00273,-0.00116,-0.07906,0.98308,4.02513,0.19048
09:08:37.710019,4.04518,0.00736,0.00000,0.00000,0.00025,-0.01066,0.00106,-0.00044,-0.00104,-0.08247,0.98472,4.03602,0.20024
09:08:37.719434,4.05458,0.00657,0.00000,0.00000,-0.00143,0.06051,0.00121,0.00032,-0.00122,-0.07741,0.98503,4.04555,0.17582
09:08:37.730125,4.06529,0.00691,0.00000,0.00000,0.00331,-0.14008,0.00076,0.00139,-0.00159,-0.07887,0.98442,4.05596,0.19780
09:08:37.740196,4.07533,0.00642,0.00000,0.00000,-0.00021,0.00875,0.00106,-0.00029,-0.00134,-0.07997,0.98478,4.06629,0.20024
09:08:37.750611,4.08578,0.00668,0.00000,0.00000,-0.00021,0.00875,-0.00138,-0.00166,-0.00110,-0.08095,0.98466,4.07742,0.21001
09:08:37.761315,4.09648,0.00701,0.00000,0.00000,-0.00296,0.12522,0.00030,-0.00243,-0.00037,-0.08028,0.98423,4.08778,0.18559
09:08:37.772068,4.10702,0.00710,0.00000,0.00000,-0.00112,0.04757,0.00442,0.00200,-0.00207,-0.07887,0.98362,4.09798,0.19292
09:08:37.781888,4.11703,0.00690,0.00000,0.00000,0.00270,-0.11419,-0.00199,0.00002,-0.00287,-0.07960,0.98545,4.10788,0.19048
09:08:37.791760,4.12691,0.00659,0.00000,0.00000,0.00117,-0.04949,-0.00260,0.00109,-0.00165,-0.08028,0.98265,4.11785,0.18803
09:08:37.802517,4.13768,0.00700,0.00000,0.00000,-0.00051,0.02169,0.00015,-0.00044,-0.00128,-0.07979,0.98411,4.12902,0.19292
09:08:37.814222,4.14938,0.00762,0.00000,0.00000,0.00086,-0.03655,0.00198,0.00124,-0.00354,-0.07997,0.98539,4.14034,0.18071
09:08:37.822793,4.15796,0.00595,0.00000,0.00000,-0.00021,0.00875,-0.00047,0.00155,-0.00305,-0.08095,0.98204,4.14953,0.19292
09:08:37.834659,4.16980,0.00732,0.00000,0.00000,-0.00097,0.04110,-0.00337,0.00032,-0.00092,-0.08003,0.98478,4.16078,0.19292
09:08:37.844781,4.17994,0.00720,0.00000,0.00000,-0.00005,0.00228,0.00045,0.00170,-0.00110,-0.07967,0.98344,4.17095,0.20757
09:08:37.854689,4.18985,0.00672,0.00000,0.00000,0.00025,-0.01066,-0.00321,0.00139,-0.00366,-0.07826,0.98393,4.18082,0.19048
09:08:37.864902,4.19940,0.00606,0.00000,0.00000,0.00132,-0.05596,0.00289,0.00002,-0.00116,-0.08034,0.98533,4.19095,0.19292
09:08:37.875126,4.21028,0.00651,0.00000,0.00000,-0.00097,0.04110,0.00335,-0.00227,-0.00342,-0.08064,0.98442,4.20129,0.18315
09:08:37.885589,4.22075,0.00662,0.00000,0.00000,0.00193,-0.08184,0.00015,-0.00319,-0.00354,-0.07942,0.98497,4.21172,0.19292
09:08:37.896080,4.23103,0.00654,0.00000,0.00000,-0.00540,0.22875,0.00182,-0.00136,-0.00171,-0.08101,0.98423,4.22284,0.20513
09:08:37.906592,4.24175,0.00706,0.00000,0.00000,0.00300,-0.12713,-0.00001,0.00032,-0.00018,-0.08070,0.98558,4.23341,0.19048
09:08:37.916790,4.25194,0.00704,0.00000,0.00000,-0.00036,0.01522,0.00289,0.00093,-0.00189,-0.08107,0.98491,4.24295,0.19780
09:08:37.926740,4.26187,0.00576,0.00000,0.00000,0.00193,-0.08184,0.00381,-0.00273,-0.00433,-0.07887,0.98539,4.25285,0.20024
09:08:37.937253,4.27242,0.00662,0.00000,0.00000,0.00132,-0.05596,0.00213,0.00093,-0.00085,-0.08089,0.98399,4.26339,0.18803
09:08:37.947255,4.28241,0.00641,0.00000,0.00000,0.00331,-0.14008,-0.00016,-0.00059,-0.00281,-0.08089,0.98228,4.27341,0.19048
09:08:37.958384,4.29353,0.00663,0.00000,0.00000,0.00102,-0.04302,-0.00245,0.00048,-0.00372,-0.08058,0.98167,4.28447,0.19048
09:08:37.968809,4.30396,0.00671,0.00000,0.00000,-0.00036,0.01522,-0.00062,0.00200,0.00006,-0.07985,0.98326,4.29494,0.19780
09:08:37.979489,4.31463,0.00672,0.00000,0.00000,0.00102,-0.04302,-0.00153,0.00002,-0.00146,-0.08082,0.98631,4.30556,0.19048
09:08:37.990332,4.32505,0.00685,0.00000,0.00000,0.00025,-0.01066,0.00152,-0.00044,-0.00232,-0.08046,0.98460,4.31593,0.19292
09:08:37.999253,4.33442,0.00587,0.00000,0.00000,-0.00082,0.03463,-0.00337,-0.00243,-0.00159,-0.08070,0.98594,4.32605,0.20024
09:08:38.009998,4.34516,0.00639,0.00000,0.00000,0.00040,-0.01713,0.00015,-0.00181,-0.00305,-0.08107,0.98417,4.33651,0.19048
09:08:38.020888,4.35604,0.00669,0.00000,0.00000,0.00056,-0.02360,0.00137,0.00078,-0.00305,-0.08101,0.98259,4.34694,0.18315
09:08:38.031111,4.36627,0.00667,0.00000,0.00000,0.00102,-0.04302,0.00137,0.00017,-0.00232,-0.08058,0.98387,4.35700,0.19048
09:08:38.041410,4.37657,0.00676,0.00000,0.00000,-0.00128,0.05404,-0.00184,-0.00212,-0.00092,-0.07997,0.98247,4.36753,0.18559
09:08:38.051757,4.38622,0.00579,0.00000,0.00000,0.00102,-0.04302,0.00335,-0.00090,-0.00201,-0.08082,0.98381,4.37786,0.19048
09:08:38.062782,4.39793,0.00729,0.00000,0.00000,-0.00082,0.03463,0.00137,0.00048,-0.00110,-0.07985,0.98594,4.38839,0.19292
09:08:38.072581,4.40773,0.00673,0.00000,0.00000,-0.00128,0.05404,-0.00077,-0.00411,-0.00238,-0.08003,0.98619,4.39868,0.18803
09:08:38.082793,4.41795,0.00655,0.00000,0.00000,0.00193,-0.08184,-0.00016,-0.00212,-0.00037,-0.08064,0.98497,4.40892,0.18071
09:08:38.093589,4.42875,0.00664,0.00000,0.00000,-0.00433,0.18345,-0.00001,-0.00090,-0.00232,-0.07979,0.98454,4.41970,0.18559
09:08:38.104081,4.43903,0.00656,0.00000,0.00000,0.00239,-0.10125,-0.00077,-0.00304,-0.00195,-0.07985,0.98271,4.42985,0.19292
09:08:38.114384,4.44952,0.00680,0.00000,0.00000,-0.00021,0.00875,0.00106,-0.00090,-0.00104,-0.07784,0.98545,4.44047,0.17827
09:08:38.124545,4.45970,0.00662,0.00000,0.00000,0.00132,-0.05596,0.00564,0.00323,-0.00079,-0.08052,0.98387,4.45066,0.18559
09:08:38.136495,4.47163,0.00749,0.00000,0.00000,0.00315,-0.13360,-0.00108,0.00032,-0.00250,-0.08009,0.98905,4.46261,0.20513
09:08:38.146306,4.48145,0.00678,0.00000,0.00000,0.00361,-0.15302,0.00305,0.00032,0.00012,-0.07967,0.98454,4.47243,0.19536
09:08:38.157503,4.49267,0.00676,0.00000,0.00000,0.00025,-0.01066,0.00198,-0.00212,-0.00281,-0.08156,0.98417,4.48364,0.18315
09:08:38.167249,4.50242,0.00632,0.00000,0.00000,0.00270,-0.11419,0.00167,-0.00075,-0.00305,-0.08052,0.98393,4.49405,0.18803
09:08:38.178852,4.51401,0.00756,0.00000,0.00000,-0.00372,0.15757,-0.00047,-0.00075,-0.00311,-0.08028,0.98417,4.50487,0.18559
09:08:38.188744,4.52391,0.00685,0.00000,0.00000,-0.00021,0.00875,0.00045,-0.00136,-0.00183,-0.08058,0.98326,4.51499,0.18803
09:08:38.199448,4.53460,0.00710,0.00000,0.00000,0.00071,-0.03008,0.00350,0.00048,-0.00207,-0.08125,0.98436,4.52557,0.19292
09:08:38.209699,4.54486,0.00712,0.00000,0.00000,-0.00021,0.00875,0.00335,-0.00166,-0.00317,-0.08052,0.98436,4.53609,0.19048
09:08:38.221244,4.55640,0.00846,0.00000,0.00000,0.00285,-0.12066,-0.00153,-0.00090,-0.00275,-0.08070,0.98503,4.54671,0.18315
09:08:38.230535,4.56570,0.00758,0.00000,0.00000,0.00285,-0.12066,0.00030,-0.00090,-0.00177,-0.08046,0.98466,4.55640,0.18559
09:08:38.240210,4.57535,0.00671,0.00000,0.00000,0.00102,-0.04302,-0.00352,0.00109,-0.00171,-0.07967,0.98326,4.56635,0.19780
09:08:38.250794,4.58595,0.00655,0.00000,0.00000,0.00056,-0.02360,-0.00184,0.00032,-0.00213,-0.08058,0.98527,4.57691,0.21001
09:08:38.260853,4.59602,0.00593,0.00000,0.00000,-0.00005,0.00228,0.00076,-0.00044,-0.00305,-0.08009,0.98491,4.58768,0.19780
09:08:38.272722,4.60786,0.00693,0.00000,0.00000,0.00147,-0.06243,0.00412,0.00078,-0.00159,-0.07924,0.98796,4.59863,0.18803
09:08:38.282717,4.61786,0.00673,0.00000,0.00000,0.00300,-0.12713,0.00366,0.00048,-0.00152,-0.08028,0.98497,4.60881,0.18071
09:08:38.293039,4.62820,0.00669,0.00000,0.00000,-0.00128,0.05404,-0.00138,0.00139,-0.00152,-0.08131,0.98381,4.61910,0.19292
09:08:38.302987,4.63814,0.00643,0.00000,0.00000,-0.00173,0.07345,0.00244,0.00002,-0.00165,-0.07942,0.98204,4.62912,0.19048
09:08:38.313935,4.64910,0.00694,0.00000,0.00000,-0.00005,0.00228,-0.00153,0.00032,-0.00250,-0.08034,0.98338,4.64012,0.19780
09:08:38.325342,4.66050,0.00813,0.00000,0.00000,0.00178,-0.07537,-0.00276,0.00170,-0.00213,-0.08082,0.98436,4.65000,0.19292
09:08:38.334514,4.66967,0.00711,0.00000,0.00000,0.00010,-0.00419,0.00366,0.00109,-0.00305,-0.07948,0.98613,4.66023,0.18315
09:08:38.345216,4.68037,0.00722,0.00000,0.00000,-0.00173,0.07345,0.00015,0.00048,-0.00299,-0.08003,0.98308,4.67131,0.18803
09:08:38.355047,4.69021,0.00662,0.00000,0.00000,-0.00005,0.00228,-0.00383,-0.00059,-0.00427,-0.08119,0.98436,4.68099,0.18559
09:08:38.365583,4.70075,0.00621,0.00000,0.00000,0.00514,-0.21772,-0.00062,-0.00288,-0.00189,-0.07826,0.98442,4.69228,0.18803
09:08:38.375497,4.71066,0.00577,0.00000,0.00000,0.00117,-0.04949,-0.00077,-0.00120,-0.00152,-0.07991,0.98442,4.70249,0.19536
09:08:38.387175,4.72233,0.00655,0.00000,0.00000,-0.00051,0.02169,-0.00276,-0.00059,-0.00152,-0.07899,0.98472,4.71329,0.19292
09:08:38.397610,4.73277,0.00661,0.00000,0.00000,-0.00158,0.06698,-0.00138,0.00048,-0.00409,-0.08082,0.98277,4.72374,0.20024
09:08:38.407119,4.74228,0.00576,0.00000,0.00000,-0.00143,0.06051,-0.00230,-0.00059,-0.00220,-0.08021,0.98460,4.73392,0.19536
09:08:38.418375,4.75354,0.00680,0.00000,0.00000,0.00025,-0.01066,-0.00031,0.00109,-0.00256,-0.07899,0.98338,4.74519,0.18315
09:08:38.429832,4.76471,0.00727,0.00000,0.00000,0.00056,-0.02360,0.00198,-0.00044,-0.00128,-0.08052,0.98393,4.75570,0.19292
09:08:38.439462,4.77393,0.00629,0.00000,0.00000,0.00193,-0.08184,-0.00031,0.00139,-0.00226,-0.08101,0.98454,4.76505,0.18803
09:08:38.449525,4.78469,0.00663,0.00000,0.00000,-0.00005,0.00228,0.00106,-0.00075,-0.00335,-0.07985,0.98332,4.77567,0.18315
09:08:38.460226,4.79514,0.00654,0.00000,0.00000,-0.00036,0.01522,0.00121,0.00170,-0.00238,-0.07942,0.98338,4.78608,0.18803
09:08:38.470427,4.80558,0.00662,0.00000,0.00000,-0.00189,0.07992,-0.00215,0.00017,-0.00390,-0.08107,0.98454,4.79655,0.19048
09:08:38.480147,4.81509,0.00591,0.00000,0.00000,-0.00173,0.07345,0.00106,-0.00044,-0.00226,-0.07893,0.98350,4.80691,0.20024
09:08:38.491007,4.82618,0.00640,0.00000,0.00000,0.00224,-0.09478,0.00350,-0.00151,-0.00079,-0.08070,0.98222,4.81782,0.19292
09:08:38.501806,4.83697,0.00682,0.00000,0.00000,-0.00158,0.06698,-0.00031,0.00155,-0.00171,-0.07997,0.98381,4.82789,0.19780
09:08:38.511785,4.84695,0.00585,0.00000,0.00000,0.00086,-0.03655,0.00060,0.00032,-0.00116,-0.07918,0.98600,4.83878,0.17827
09:08:38.524421,4.85909,0.00766,0.00000,0.00000,-0.00173,0.07345,0.00335,-0.00090,-0.00262,-0.08040,0.98234,4.84971,0.20024
09:08:38.533523,4.86869,0.00705,0.00000,0.00000,0.00254,-0.10772,0.00137,-0.00502,-0.00256,-0.07826,0.98362,4.85941,0.18315
09:08:38.543056,4.87821,0.00638,0.00000,0.00000,0.00529,-0.22419,-0.00062,0.00048,-0.00262,-0.07930,0.98448,4.86924,0.19292
09:08:38.553640,4.88809,0.00590,0.00000,0.00000,-0.00082,0.03463,-0.00138,0.00078,-0.00073,-0.07893,0.98356,4.87977,0.18803
09:08:38.564061,4.89901,0.00649,0.00000,0.00000,0.00056,-0.02360,0.00228,0.00048,-0.00146,-0.08192,0.98454,4.88997,0.20757
09:08:38.574776,4.90993,0.00705,0.00000,0.00000,-0.00112,0.04757,0.00091,-0.00059,-0.00122,-0.07954,0.98344,4.90047,0.18315
09:08:38.586069,4.92123,0.00798,0.00000,0.00000,-0.00066,0.02816,-0.00459,0.00155,-0.00092,-0.08015,0.98423,4.91145,0.19292
09:08:38.595594,4.93075,0.00656,0.00000,0.00000,0.00040,-0.01713,0.00015,0.00048,-0.00323,-0.08113,0.98295,4.92171,0.19292
09:08:38.606114,4.94128,0.00689,0.00000,0.00000,0.00025,-0.01066,0.00320,-0.00075,-0.00305,-0.08034,0.98393,4.93215,0.18803
09:08:38.616289,4.95101,0.00626,0.00000,0.00000,0.00483,-0.20478,0.00549,-0.00090,-0.00232,-0.07875,0.98503,4.94233,0.18559
09:08:38.627765,4.96293,0.00742,0.00000,0.00000,-0.00005,0.00228,-0.00108,-0.00013,-0.00238,-0.08052,0.98277,4.95297,0.21245
09:08:38.638334,4.97349,0.00762,0.00000,0.00000,0.00102,-0.04302,-0.00047,0.00032,-0.00201,-0.07997,0.98332,4.96446,0.19048
09:08:38.648766,4.98391,0.00709,0.00000,0.00000,0.00224,-0.09478,-0.00230,-0.00075,-0.00159,-0.07991,0.98338,4.97493,0.18559
09:08:38.659278,4.99443,0.00653,0.00000,0.00000,0.00407,-0.17243,-0.00031,-0.00075,-0.00165,-0.07960,0.98521,4.98541,0.18803
09:08:38.669724,5.00489,0.00662,0.00000,0.00000,-0.00051,0.02169,-0.00062,0.00017,-0.00244,-0.08064,0.98814,4.99585,0.19048
09:08:38.680613,5.01576,0.00729,0.00000,0.00000,0.00270,-0.11419,0.00060,-0.00075,-0.00165,-0.07979,0.98375,5.00671,0.18071
09:08:38.691130,5.02628,0.00745,0.00000,0.00000,-0.00173,0.07345,0.00289,0.00093,-0.00055,-0.08021,0.98552,5.01721,0.19536
09:08:38.702028,5.03718,0.00756,0.00000,0.00000,0.00025,-0.01066,0.00198,-0.00151,-0.00201,-0.08058,0.98240,5.02794,0.19536
09:08:38.712077,5.04703,0.00722,0.00000,0.00000,0.00040,-0.01713,0.00076,0.00170,-0.00329,-0.07979,0.98448,5.03794,0.18559
09:08:38.722396,5.05756,0.00719,0.00000,0.00000,0.00071,-0.03008,0.00060,-0.00197,-0.00055,-0.08204,0.98417,5.04879,0.17582
09:08:38.734372,5.06954,0.00881,0.00000,0.00000,0.00239,-0.10125,0.00396,-0.00059,-0.00201,-0.07991,0.98613,5.05986,0.20024
09:08:38.742391,5.07756,0.00666,0.00000,0.00000,0.00086,-0.03655,-0.00062,-0.00090,-0.00092,-0.08034,0.98558,5.06854,0.19536
09:08:38.753065,5.08823,0.00679,0.00000,0.00000,0.00025,-0.01066,0.00060,-0.00044,-0.00360,-0.08174,0.98320,5.07918,0.18803
09:08:38.762989,5.09814,0.00651,0.00000,0.00000,-0.00051,0.02169,0.00015,-0.00288,-0.00220,-0.08003,0.98448,5.08915,0.19292
09:08:38.773572,5.10874,0.00616,0.00000,0.00000,-0.00143,0.06051,0.00076,-0.00273,-0.00238,-0.08028,0.98472,5.10037,0.19048
09:08:38.783710,5.11888,0.00590,0.00000,0.00000,-0.00005,0.00228,0.00045,0.00109,-0.00061,-0.07985,0.98436,5.11071,0.20024
09:08:38.794385,5.12955,0.00585,0.00000,0.00000,0.00010,-0.00419,-0.00138,-0.00029,-0.00012,-0.08150,0.98448,5.12123,0.19292
09:08:38.805898,5.14035,0.00629,0.00000,0.00000,0.00010,-0.00419,0.00152,0.00078,-0.00415,-0.08095,0.98417,5.13196,0.19292
09:08:38.816680,5.15182,0.00681,0.00000,0.00000,0.00071,-0.03008,0.00442,-0.00105,-0.00171,-0.08058,0.98527,5.14271,0.20513
09:08:38.827264,5.16244,0.00642,0.00000,0.00000,0.00025,-0.01066,0.00244,0.00124,-0.00281,-0.07912,0.98430,5.15408,0.19048
09:08:38.839355,5.17452,0.00791,0.00000,0.00000,-0.00173,0.07345,-0.00016,0.00078,-0.00232,-0.08119,0.98448,5.16485,0.19048
09:08:38.848744,5.18304,0.00594,0.00000,0.00000,-0.00097,0.04110,0.00427,-0.00090,-0.00275,-0.07838,0.98387,5.17486,0.19536
09:08:38.858933,5.19339,0.00588,0.00000,0.00000,0.00010,-0.00419,0.00213,-0.00227,-0.00256,-0.07881,0.98417,5.18505,0.18315
09:08:38.869623,5.20479,0.00691,0.00000,0.00000,0.00010,-0.00419,-0.00123,-0.00029,-0.00311,-0.07942,0.98417,5.19547,0.20269
09:08:38.879492,5.21464,0.00640,0.00000,0.00000,0.00331,-0.14008,0.00060,0.00185,-0.00152,-0.07930,0.98265,5.20563,0.19536
09:08:38.890672,5.22582,0.00668,0.00000,0.00000,-0.00189,0.07992,0.00213,0.00124,0.00177,-0.08052,0.98216,5.21681,0.19536
09:08:38.900958,5.23611,0.00676,0.00000,0.00000,0.00102,-0.04302,0.00137,-0.00319,-0.00256,-0.07869,0.98637,5.22709,0.19780
09:08:38.911227,5.24638,0.00650,0.00000,0.00000,0.00285,-0.12066,-0.00123,0.00093,-0.00226,-0.07991,0.98393,5.23731,0.18559
09:08:38.922195,5.25735,0.00663,0.00000,0.00000,-0.00173,0.07345,0.00137,-0.00105,-0.00323,-0.08058,0.98509,5.24830,0.18803
09:08:38.932631,5.26775,0.00586,0.00000,0.00000,0.00132,-0.05596,-0.00001,0.00032,-0.00098,-0.07808,0.98497,5.25863,0.19780
09:08:38.943330,5.27826,0.00660,0.00000,0.00000,0.00147,-0.06243,0.00167,-0.00105,0.00018,-0.07936,0.98423,5.26907,0.19780
09:08:38.956068,5.29102,0.00851,0.00000,0.00000,0.00376,-0.15949,-0.00016,0.00139,-0.00183,-0.07930,0.98539,5.28184,0.18071
09:08:38.963488,5.29866,0.00584,0.00000,0.00000,0.00102,-0.04302,0.00182,-0.00059,-0.00256,-0.07887,0.98430,5.29049,0.18803
09:08:38.974689,5.30985,0.00681,0.00000,0.00000,0.00346,-0.14655,0.00060,-0.00120,-0.00244,-0.07948,0.98600,5.30073,0.18559
09:08:38.984823,5.31997,0.00671,0.00000,0.00000,0.00147,-0.06243,0.00213,-0.00013,-0.00226,-0.07954,0.98552,5.31095,0.18315
09:08:38.994704,5.32987,0.00627,0.00000,0.00000,0.00117,-0.04949,-0.00062,-0.00059,-0.00165,-0.08021,0.98448,5.32100,0.19292
09:08:39.005961,5.34112,0.00689,0.00000,0.00000,-0.00173,0.07345,0.00015,-0.00090,-0.00293,-0.07899,0.98350,5.33198,0.18559
09:08:39.016425,5.35071,0.00611,0.00000,0.00000,0.00376,-0.15949,-0.00367,-0.00319,-0.00159,-0.08046,0.98338,5.34199,0.18071
09:08:39.026504,5.36167,0.00687,0.00000,0.00000,0.00178,-0.07537,0.00076,-0.00181,-0.00317,-0.07997,0.98448,5.35253,0.19292
09:08:39.038121,5.37328,0.00752,0.00000,0.00000,-0.00036,0.01522,-0.00047,-0.00151,-0.00342,-0.07954,0.98387,5.36399,0.18559
09:08:39.047444,5.38260,0.00661,0.00000,0.00000,0.00270,-0.11419,0.00076,-0.00304,-0.00159,-0.07838,0.98484,5.37350,0.19048
09:08:39.057831,5.39299,0.00680,0.00000,0.00000,0.00086,-0.03655,-0.00199,0.00078,-0.00244,-0.08058,0.98515,5.38393,0.18315
09:08:39.067828,5.40298,0.00642,0.00000,0.00000,-0.00066,0.02816,0.00152,-0.00197,-0.00250,-0.07979,0.98393,5.39394,0.19536
09:08:39.079038,5.41351,0.00659,0.00000,0.00000,-0.00051,0.02169,-0.00260,0.00078,-0.00146,-0.07997,0.98655,5.40515,0.19048
09:08:39.090112,5.42450,0.00714,0.00000,0.00000,0.00285,-0.12066,-0.00016,0.00048,-0.00146,-0.07991,0.98222,5.41589,0.18315
09:08:39.099323,5.43449,0.00683,0.00000,0.00000,0.00300,-0.12713,0.00060,0.00109,-0.00293,-0.07997,0.98204,5.42551,0.18559
09:08:39.110076,5.44524,0.00683,0.00000,0.00000,0.00025,-0.01066,0.00488,0.00002,-0.00256,-0.08150,0.98204,5.43616,0.18803
09:08:39.120234,5.45537,0.00660,0.00000,0.00000,0.00361,-0.15302,0.00015,0.00078,-0.00287,-0.07918,0.98295,5.44634,0.20024
09:08:39.131400,5.46657,0.00744,0.00000,0.00000,0.00193,-0.08184,-0.00031,0.00155,-0.00152,-0.08217,0.98478,5.45746,0.18803
09:08:39.143195,5.47836,0.00904,0.00000,0.00000,0.00208,-0.08831,0.00350,-0.00181,-0.00287,-0.08003,0.98375,5.46818,0.18315
09:08:39.150686,5.48585,0.00576,0.00000,0.00000,0.00285,-0.12066,0.00259,-0.00090,-0.00275,-0.07997,0.98277,5.47749,0.19780
09:08:39.162718,5.49786,0.00741,0.00000,0.00000,-0.00219,0.09287,-0.00123,0.00109,-0.00171,-0.08119,0.98253,5.48882,0.19048
09:08:39.173114,5.50828,0.00746,0.00000,0.00000,0.00407,-0.17243,0.00289,0.00109,-0.00293,-0.08052,0.98253,5.49917,0.18315
09:08:39.181936,5.51710,0.00608,0.00000,0.00000,0.00147,-0.06243,-0.00215,-0.00136,-0.00085,-0.08095,0.98497,5.50871,0.19780
09:08:39.193621,5.52878,0.00736,0.00000,0.00000,0.00056,-0.02360,-0.00016,0.00048,-0.00079,-0.08021,0.98393,5.51970,0.19292
09:08:39.204110,5.53907,0.00713,0.00000,0.00000,0.00040,-0.01713,-0.00001,0.00078,-0.00195,-0.07924,0.98222,5.53005,0.19536
09:08:39.214551,5.54971,0.00741,0.00000,0.00000,0.00102,-0.04302,0.00305,0.00002,-0.00220,-0.07930,0.98381,5.53990,0.19292
09:08:39.224141,5.55909,0.00643,0.00000,0.00000,0.00697,-0.29537,-0.00276,0.00139,-0.00159,-0.07979,0.98423,5.55006,0.19048
09:08:39.235095,5.57026,0.00738,0.00000,0.00000,-0.00036,0.01522,0.00045,0.00078,-0.00159,-0.07954,0.98338,5.56141,0.19292
09:08:39.246431,5.58157,0.00834,0.00000,0.00000,-0.00082,0.03463,-0.00031,-0.00136,-0.00159,-0.08034,0.98588,5.57230,0.17338
09:08:39.254810,5.58996,0.00651,0.00000,0.00000,-0.00097,0.04110,-0.00092,-0.00059,-0.00366,-0.08021,0.98253,5.58091,0.19292
09:08:39.265282,5.60044,0.00662,0.00000,0.00000,0.00132,-0.05596,-0.00184,-0.00059,-0.00250,-0.08143,0.98259,5.59142,0.19536
09:08:39.275485,5.61064,0.00645,0.00000,0.00000,-0.00066,0.02816,-0.00291,-0.00013,-0.00018,-0.08082,0.98369,5.60156,0.18803
09:08:39.286305,5.62147,0.00692,0.00000,0.00000,0.00056,-0.02360,-0.00184,0.00200,-0.00195,-0.08003,0.98442,5.61215,0.18559
09:08:39.296329,5.63148,0.00673,0.00000,0.00000,0.00285,-0.12066,0.00091,-0.00181,-0.00201,-0.07973,0.98149,5.62246,0.19292
09:08:39.306943,5.64210,0.00654,0.00000,0.00000,-0.00234,0.09934,0.00366,-0.00212,-0.00311,-0.08211,0.98436,5.63308,0.19536
09:08:39.317388,5.65255,0.00664,0.00000,0.00000,0.00071,-0.03008,0.00152,0.00078,-0.00171,-0.08119,0.98369,5.64350,0.20024
09:08:39.327561,5.66271,0.00644,0.00000,0.00000,-0.00189,0.07992,0.00182,0.00139,-0.00055,-0.08021,0.98362,5.65366,0.19780
09:08:39.338628,5.67380,0.00716,0.00000,0.00000,-0.00051,0.02169,0.00473,-0.00075,-0.00445,-0.08034,0.98503,5.66544,0.19292
09:08:39.350215,5.68537,0.00765,0.00000,0.00000,-0.00158,0.06698,0.00274,0.00185,-0.00220,-0.08107,0.98521,5.67625,0.20513
09:08:39.359669,5.69484,0.00692,0.00000,0.00000,-0.00143,0.06051,-0.00321,-0.00120,-0.00299,-0.08076,0.98149,5.68534,0.18803
09:08:39.370075,5.70521,0.00686,0.00000,0.00000,0.00254,-0.10772,-0.00001,0.00246,-0.00311,-0.08034,0.98381,5.69614,0.18071
09:08:39.380552,5.71570,0.00699,0.00000,0.00000,0.00361,-0.15302,0.00137,-0.00090,-0.00220,-0.08003,0.98582,5.70609,0.19780
09:08:39.391324,5.72647,0.00740,0.00000,0.00000,0.00193,-0.08184,0.00289,0.00002,-0.00232,-0.08150,0.98179,5.71745,0.18559
09:08:39.400848,5.73511,0.00584,0.00000,0.00000,0.00071,-0.03008,0.00121,-0.00013,-0.00281,-0.08082,0.98356,5.72694,0.18315
09:08:39.410857,5.74601,0.00641,0.00000,0.00000,-0.00097,0.04110,0.00060,0.00048,-0.00177,-0.07924,0.98430,5.73701,0.18559
09:08:39.421869,5.75703,0.00675,0.00000,0.00000,0.00102,-0.04302,-0.00092,-0.00029,-0.00189,-0.08192,0.98466,5.74786,0.19780
09:08:39.432090,5.76705,0.00657,0.00000,0.00000,-0.00326,0.13816,0.00305,0.00017,-0.00256,-0.07845,0.98411,5.75801,0.20024
09:08:39.442197,5.77736,0.00652,0.00000,0.00000,-0.00021,0.00875,0.00015,0.00246,-0.00152,-0.08095,0.98430,5.76894,0.18315
09:08:39.453870,5.78880,0.00726,0.00000,0.00000,-0.00082,0.03463,0.00137,-0.00044,-0.00293,-0.07924,0.98192,5.77977,0.18315
09:08:39.462898,5.79807,0.00573,0.00000,0.00000,-0.00128,0.05404,0.00182,0.00063,-0.00146,-0.08272,0.98253,5.78970,0.20024
09:08:39.474202,5.80866,0.00611,0.00000,0.00000,-0.00036,0.01522,-0.00031,-0.00258,-0.00128,-0.07948,0.98430,5.80030,0.20513
09:08:39.484383,5.81953,0.00662,0.00000,0.00000,-0.00097,0.04110,-0.00123,-0.00090,-0.00342,-0.07997,0.98497,5.81051,0.19780
09:08:39.494692,5.82985,0.00673,0.00000,0.00000,-0.00066,0.02816,0.00259,-0.00029,-0.00159,-0.07838,0.98222,5.82081,0.19292
09:08:39.504858,5.83913,0.00581,0.00000,0.00000,0.00147,-0.06243,0.00244,-0.00181,-0.00104,-0.08040,0.98387,5.83095,0.18803
09:08:39.515468,5.85061,0.00704,0.00000,0.00000,0.00147,-0.06243,0.00198,0.00216,-0.00226,-0.08095,0.98460,5.84156,0.19536
09:08:39.525460,5.86062,0.00684,0.00000,0.00000,0.00010,-0.00419,-0.00123,-0.00029,-0.00220,-0.07948,0.98564,5.85149,0.18559
09:08:39.536948,5.87211,0.00698,0.00000,0.00000,-0.00051,0.02169,-0.00062,-0.00181,-0.00165,-0.08040,0.98356,5.86284,0.18803
09:08:39.549152,5.88431,0.00807,0.00000,0.00000,0.00346,-0.14655,-0.00016,-0.00181,-0.00250,-0.07930,0.98222,5.87466,0.19292
09:08:39.558842,5.89399,0.00739,0.00000,0.00000,0.00254,-0.10772,0.00137,0.00231,-0.00268,-0.08131,0.98295,5.88500,0.18559
09:08:39.569325,5.90449,0.00753,0.00000,0.00000,-0.00082,0.03463,-0.00245,-0.00075,-0.00360,-0.08113,0.98369,5.89539,0.19292
09:08:39.579762,5.91492,0.00746,0.00000,0.00000,-0.00051,0.02169,-0.00108,-0.00136,-0.00427,-0.07942,0.98314,5.90556,0.18803
09:08:39.589982,5.92442,0.00607,0.00000,0.00000,0.00086,-0.03655,0.00106,0.00093,-0.00134,-0.08064,0.98375,5.91609,0.19048
09:08:39.600664,5.93581,0.00709,0.00000,0.00000,-0.00051,0.02169,0.00106,-0.00365,-0.00354,-0.07881,0.98387,5.92658,0.18315
09:08:39.611216,5.94637,0.00729,0.00000,0.00000,0.00422,-0.17890,0.00274,0.00200,-0.00183,-0.08070,0.98375,5.93733,0.20269
09:08:39.620826,5.95598,0.00670,0.00000,0.00000,0.00376,-0.15949,-0.00047,-0.00197,-0.00238,-0.08040,0.98430,5.94695,0.18803
09:08:39.630156,5.96532,0.00573,0.00000,0.00000,-0.00173,0.07345,0.00091,-0.00136,-0.00372,-0.08021,0.98588,5.95699,0.19536
09:08:39.642253,5.97742,0.00746,0.00000,0.00000,-0.00036,0.01522,0.00030,-0.00227,-0.00165,-0.07930,0.98515,5.96849,0.20269
09:08:39.652056,5.98701,0.00670,0.00000,0.00000,-0.00036,0.01522,0.00060,-0.00334,-0.00079,-0.07857,0.98356,5.97770,0.19536
09:08:39.663050,5.99820,0.00753,0.00000,0.00000,-0.00005,0.00228,0.00152,-0.00197,-0.00287,-0.08003,0.98417,5.98906,0.18803
09:08:39.673732,6.00889,0.00738,0.00000,0.00000,0.00010,-0.00419,0.00289,0.00002,-0.00335,-0.08143,0.98442,5.99984,0.20269
09:08:39.683047,6.01821,0.00651,0.00000,0.00000,-0.00173,0.07345,0.00045,-0.00181,-0.00177,-0.07918,0.98295,6.00914,0.19048
09:08:39.694063,6.02918,0.00661,0.00000,0.00000,-0.00082,0.03463,-0.00199,0.00139,-0.00116,-0.08028,0.98423,6.01964,0.19048
09:08:39.704145,6.03911,0.00668,0.00000,0.00000,0.00178,-0.07537,-0.00199,-0.00013,-0.00030,-0.08089,0.98369,6.02981,0.18803
09:08:39.714812,6.04997,0.00718,0.00000,0.00000,-0.00051,0.02169,-0.00444,-0.00059,-0.00244,-0.08107,0.98430,6.04039,0.18803
09:08:39.725456,6.06062,0.00747,0.00000,0.00000,0.00071,-0.03008,-0.00138,-0.00090,-0.00262,-0.07991,0.98442,6.05071,0.18315
09:08:39.734841,6.06999,0.00658,0.00000,0.00000,-0.00189,0.07992,-0.00092,0.00002,-0.00159,-0.07954,0.98405,6.06095,0.18559
09:08:39.746419,6.08159,0.00714,0.00000,0.00000,0.00193,-0.08184,0.00060,-0.00029,-0.00433,-0.07826,0.98375,6.07279,0.19292
09:08:39.758725,6.09336,0.00855,0.00000,0.00000,0.00376,-0.15949,0.00289,0.00139,-0.00067,-0.08003,0.98759,6.08431,0.19536
09:08:39.766486,6.10164,0.00674,0.00000,0.00000,0.00147,-0.06243,0.00137,0.00063,0.00030,-0.07967,0.98295,6.09255,0.19292
09:08:39.776714,6.11187,0.00660,0.00000,0.00000,-0.00372,0.15757,0.00350,-0.00151,-0.00299,-0.08021,0.98491,6.10286,0.19292
09:08:39.786930,6.12209,0.00656,0.00000,0.00000,0.00254,-0.10772,-0.00215,-0.00395,-0.00146,-0.08034,0.98344,6.11306,0.18803
09:08:39.797953,6.13256,0.00661,0.00000,0.00000,-0.00204,0.08640,-0.00215,0.00063,-0.00262,-0.08223,0.98362,6.12353,0.19536
09:08:39.807702,6.14286,0.00672,0.00000,0.00000,-0.00112,0.04757,-0.00169,-0.00090,-0.00061,-0.07948,0.98442,6.13382,0.19048
09:08:39.818712,6.15334,0.00688,0.00000,0.00000,0.00529,-0.22419,-0.00062,-0.00243,-0.00348,-0.07930,0.98515,6.14421,0.18803
09:08:39.828591,6.16371,0.00581,0.00000,0.00000,0.00147,-0.06243,0.00412,0.00109,-0.00183,-0.07942,0.98576,6.15472,0.19048
09:08:39.839032,6.17419,0.00660,0.00000,0.00000,-0.00021,0.00875,0.00274,-0.00059,-0.00275,-0.08186,0.98460,6.16498,0.19048
09:08:39.849326,6.18449,0.00654,0.00000,0.00000,-0.00066,0.02816,0.00442,-0.00090,-0.00238,-0.07942,0.98619,6.17584,0.19536
09:08:39.862047,6.19719,0.00894,0.00000,0.00000,-0.00005,0.00228,-0.00153,0.00124,-0.00098,-0.07942,0.98393,6.18733,0.18803
09:08:39.870794,6.20570,0.00727,0.00000,0.00000,-0.00082,0.03463,0.00030,0.00078,-0.00305,-0.08101,0.98277,6.19609,0.18559
09:08:39.880759,6.21590,0.00711,0.00000,0.00000,0.00178,-0.07537,0.00015,-0.00166,-0.00213,-0.08107,0.98497,6.20690,0.18315
09:08:39.890598,6.22575,0.00660,0.00000,0.00000,0.00010,-0.00419,-0.00245,-0.00197,-0.00275,-0.08131,0.98472,6.21672,0.18803
09:08:39.900339,6.23550,0.00599,0.00000,0.00000,-0.00677,0.28698,0.00228,-0.00288,-0.00220,-0.07960,0.98405,6.22711,0.18559
09:08:39.911708,6.24686,0.00711,0.00000,0.00000,0.00132,-0.05596,0.00213,-0.00105,-0.00213,-0.08174,0.98301,6.23782,0.18315
09:08:39.922717,6.25711,0.00681,0.00000,0.00000,-0.00021,0.00875,0.00228,0.00078,-0.00189,-0.08003,0.98094,6.24803,0.18559
09:08:39.932113,6.26707,0.00641,0.00000,0.00000,-0.00112,0.04757,0.00244,-0.00181,-0.00396,-0.08095,0.98430,6.25804,0.19536
09:08:39.942717,6.27787,0.00684,0.00000,0.00000,-0.00005,0.00228,-0.00031,-0.00044,-0.00159,-0.07771,0.98466,6.26883,0.19780
09:08:39.953809,6.28897,0.00758,0.00000,0.00000,-0.00280,0.11875,0.00152,0.00048,-0.00287,-0.07851,0.98417,6.27984,0.19780
09:08:39.962963,6.29812,0.00654,0.00000,0.00000,-0.00021,0.00875,-0.00215,0.00093,-0.00213,-0.07875,0.98350,6.28911,0.18315
09:08:39.974190,6.30933,0.00673,0.00000,0.00000,0.00132,-0.05596,-0.00260,0.00200,-0.00159,-0.08211,0.98314,6.30027,0.17827
09:08:39.984440,6.31959,0.00663,0.00000,0.00000,-0.00296,0.12522,0.00152,-0.00090,-0.00079,-0.07973,0.98521,6.31055,0.18803
09:08:39.995330,6.32988,0.00642,0.00000,0.00000,-0.00128,0.05404,0.00137,-0.00181,-0.00250,-0.07936,0.98314,6.32087,0.18803
09:08:40.005275,6.34044,0.00662,0.00000,0.00000,-0.00158,0.06698,0.00091,0.00048,-0.00207,-0.08064,0.98350,6.33140,0.18315
09:08:40.014619,6.34979,0.00577,0.00000,0.00000,0.00147,-0.06243,-0.00108,-0.00090,-0.00055,-0.08070,0.98454,6.34144,0.19292
09:08:40.026671,6.36181,0.00744,0.00000,0.00000,-0.00112,0.04757,0.00060,-0.00197,-0.00299,-0.08064,0.98234,6.35282,0.19536
09:08:40.037223,6.37235,0.00662,0.00000,0.00000,0.00102,-0.04302,-0.00153,0.00109,-0.00335,-0.08174,0.98289,6.36231,0.19048
09:08:40.046572,6.38173,0.00664,0.00000,0.00000,-0.00036,0.01522,0.00091,-0.00013,0.00024,-0.07924,0.98430,6.37268,0.18803
09:08:40.057186,6.39235,0.00629,0.00000,0.00000,-0.00128,0.05404,0.00396,-0.00166,-0.00262,-0.08058,0.98301,6.38397,0.17582
09:08:40.069139,6.40354,0.00675,0.00000,0.00000,-0.00005,0.00228,0.00457,0.00017,-0.00152,-0.07899,0.98234,6.39452,0.18315
09:08:40.079220,6.41386,0.00671,0.00000,0.00000,-0.00097,0.04110,-0.00260,0.00200,-0.00195,-0.08058,0.98448,6.40473,0.19780
09:08:40.089834,6.42422,0.00672,0.00000,0.00000,-0.00402,0.17051,-0.00001,-0.00013,-0.00299,-0.08021,0.98332,6.41519,0.18803
09:08:40.099236,6.43438,0.00668,0.00000,0.00000,0.00270,-0.11419,-0.00062,-0.00013,-0.00207,-0.08058,0.98186,6.42529,0.17827
09:08:40.110743,6.44591,0.00700,0.00000,0.00000,-0.00021,0.00875,0.00244,0.00048,-0.00189,-0.07899,0.98576,6.43648,0.19292
09:08:40.122122,6.45700,0.00773,0.00000,0.00000,0.00178,-0.07537,0.00060,-0.00349,-0.00220,-0.07954,0.98222,6.44684,0.18559
09:08:40.130921,6.46607,0.00642,0.00000,0.00000,-0.00158,0.06698,0.00091,0.00002,-0.00189,-0.08113,0.98509,6.45707,0.19048
09:08:40.142284,6.47689,0.00688,0.00000,0.00000,0.00056,-0.02360,-0.00153,-0.00090,-0.00213,-0.08064,0.98497,6.46781,0.18315
09:08:40.151643,6.48680,0.00642,0.00000,0.00000,-0.00082,0.03463,-0.00230,-0.00059,-0.00207,-0.07869,0.98387,6.47775,0.20513
09:08:40.162933,6.49779,0.00720,0.00000,0.00000,-0.00066,0.02816,-0.00215,-0.00136,-0.00299,-0.08046,0.98179,6.48826,0.19780
09:08:40.173229,6.50839,0.00745,0.00000,0.00000,-0.00234,0.09934,-0.00321,0.00078,0.00012,-0.07948,0.98301,6.49933,0.18071
09:08:40.184728,6.51937,0.00793,0.00000,0.00000,0.00224,-0.09478,-0.00184,0.00124,-0.00189,-0.07875,0.98423,6.51027,0.18559
09:08:40.193303,6.52846,0.00666,0.00000,0.00000,-0.00158,0.06698,0.00198,0.00139,-0.00232,-0.08021,0.98472,6.51941,0.18803
09:08:40.203266,6.53842,0.00642,0.00000,0.00000,-0.00051,0.02169,0.00015,-0.00151,-0.00134,-0.08034,0.98143,6.52942,0.18315
09:08:40.213890,6.54905,0.00670,0.00000,0.00000,-0.00097,0.04110,0.00137,0.00109,-0.00329,-0.08082,0.98423,6.53994,0.19536
09:08:40.224668,6.55913,0.00657,0.00000,0.00000,0.00300,-0.12713,0.00015,-0.00151,-0.00128,-0.08168,0.98417,6.55010,0.19048
09:08:40.234809,6.56912,0.00621,0.00000,0.00000,0.00010,-0.00419,-0.00062,0.00093,0.00000,-0.08028,0.98436,6.56051,0.18071
09:08:40.244625,6.57978,0.00667,0.00000,0.00000,0.00147,-0.06243,-0.00123,0.00078,-0.00195,-0.07771,0.98472,6.57073,0.19536
09:08:40.254917,6.59007,0.00649,0.00000,0.00000,0.00193,-0.08184,0.00167,0.00124,-0.00250,-0.08247,0.98478,6.58098,0.19292
09:08:40.265936,6.60110,0.00715,0.00000,0.00000,0.00208,-0.08831,0.00030,-0.00304,-0.00226,-0.07918,0.98216,6.59180,0.18559
09:08:40.275558,6.61071,0.00640,0.00000,0.00000,0.00025,-0.01066,-0.00459,-0.00105,-0.00232,-0.08070,0.98436,6.60168,0.19048
09:08:40.286199,6.62135,0.00668,0.00000,0.00000,0.00071,-0.03008,-0.00092,0.00078,-0.00323,-0.07948,0.98375,6.61231,0.19536
09:08:40.296598,6.63175,0.00672,0.00000,0.00000,0.00117,-0.04949,-0.00321,-0.00243,-0.00250,-0.07967,0.98491,6.62262,0.20024
09:08:40.306789,6.64195,0.00655,0.00000,0.00000,-0.00158,0.06698,0.00457,-0.00411,-0.00201,-0.08070,0.98381,6.63292,0.19292
09:08:40.317530,6.65269,0.00660,0.00000,0.00000,0.00086,-0.03655,0.00121,-0.00029,-0.00195,-0.08034,0.98405,6.64366,0.19780
09:08:40.328196,6.66250,0.00580,0.00000,0.00000,-0.00250,0.10581,0.00076,-0.00243,-0.00213,-0.08089,0.98613,6.65433,0.19292
09:08:40.339276,6.67444,0.00735,0.00000,0.00000,0.00163,-0.06890,0.00091,0.00048,-0.00061,-0.07930,0.98271,6.66520,0.18803
09:08:40.350477,6.68531,0.00786,0.00000,0.00000,0.00071,-0.03008,-0.00016,0.00032,-0.00238,-0.07973,0.98369,6.67577,0.18803
09:08:40.359024,6.69416,0.00652,0.00000,0.00000,0.00071,-0.03008,0.00457,-0.00013,-0.00281,-0.08058,0.98564,6.68507,0.18315
09:08:40.370180,6.70533,0.00732,0.00000,0.00000,0.00040,-0.01713,-0.00260,-0.00136,-0.00195,-0.07973,0.98442,6.69591,0.18803
09:08:40.379622,6.71478,0.00641,0.00000,0.00000,0.00132,-0.05596,-0.00230,0.00078,-0.00262,-0.08058,0.98393,6.70574,0.18559
09:08:40.390616,6.72576,0.00703,0.00000,0.00000,0.00010,-0.00419,-0.00123,-0.00120,-0.00183,-0.07893,0.98375,6.71631,0.19292
09:08:40.401280,6.73591,0.00649,0.00000,0.00000,0.00285,-0.12066,0.00106,0.00124,-0.00232,-0.08034,0.98301,6.72690,0.17827
09:08:40.411039,6.74619,0.00648,0.00000,0.00000,-0.00173,0.07345,-0.00566,0.00200,-0.00079,-0.08003,0.98271,6.73719,0.18803
09:08:40.421571,6.75674,0.00666,0.00000,0.00000,-0.00143,0.06051,-0.00138,-0.00197,-0.00335,-0.08174,0.98472,6.74766,0.20024
09:08:40.432812,6.76746,0.00673,0.00000,0.00000,0.00102,-0.04302,0.00091,-0.00090,-0.00299,-0.07979,0.98497,6.75845,0.20269
09:08:40.443355,6.77791,0.00683,0.00000,0.00000,0.00147,-0.06243,-0.00138,0.00017,-0.00378,-0.07887,0.98234,6.76887,0.18803
09:08:40.452813,6.78709,0.00564,0.00000,0.00000,-0.00005,0.00228,0.00259,-0.00441,-0.00165,-0.08082,0.98350,6.77892,0.20269
09:08:40.464065,6.79829,0.00664,0.00000,0.00000,0.00163,-0.06890,0.00076,-0.00059,-0.00146,-0.07930,0.98582,6.78941,0.18071
09:08:40.474239,6.80940,0.00739,0.00000,0.00000,0.00056,-0.02360,-0.00016,0.00032,-0.00183,-0.07979,0.98375,6.80037,0.20269
09:08:40.484369,6.81864,0.00627,0.00000,0.00000,-0.00112,0.04757,0.00305,-0.00059,-0.00116,-0.08021,0.98430,6.81046,0.18803
09:08:40.494219,6.82937,0.00664,0.00000,0.00000,-0.00097,0.04110,-0.00276,0.00032,0.00030,-0.08131,0.98527,6.82032,0.18315
09:08:40.504700,6.83986,0.00657,0.00000,0.00000,0.00147,-0.06243,-0.00031,-0.00044,-0.00287,-0.08162,0.98393,6.83087,0.19536
09:08:40.514231,6.84940,0.00575,0.00000,0.00000,0.00071,-0.03008,0.00366,-0.00273,-0.00201,-0.07991,0.98411,6.84107,0.18559
09:08:40.524752,6.85992,0.00591,0.00000,0.00000,-0.00036,0.01522,-0.00092,-0.00075,-0.00073,-0.08082,0.98210,6.85159,0.19048
09:08:40.537461,6.87262,0.00799,0.00000,0.00000,-0.00143,0.06051,0.00244,0.00002,-0.00238,-0.08003,0.98228,6.86353,0.19780
09:08:40.546361,6.88151,0.00672,0.00000,0.00000,0.00132,-0.05596,0.00182,-0.00365,-0.00134,-0.07985,0.98381,6.87246,0.19780
09:08:40.556993,6.89214,0.00665,0.00000,0.00000,-0.00402,0.17051,0.00152,-0.00288,-0.00220,-0.07967,0.98240,6.88307,0.19780
09:08:40.566850,6.90202,0.00634,0.00000,0.00000,-0.00051,0.02169,-0.00062,0.00002,-0.00213,-0.08040,0.98491,6.89366,0.17827
09:08:40.580348,6.91459,0.00796,0.00000,0.00000,-0.00005,0.00228,0.00091,-0.00273,-0.00415,-0.08180,0.98247,6.90521,0.18315
09:08:40.587435,6.92261,0.00580,0.00000,0.00000,-0.00097,0.04110,0.00366,0.00032,0.00024,-0.07832,0.98387,6.91443,0.18071
09:08:40.598621,6.93377,0.00643,0.00000,0.00000,-0.00234,0.09934,-0.00138,0.00017,-0.00213,-0.07899,0.98442,6.92474,0.17827
09:08:40.609654,6.94481,0.00711,0.00000,0.00000,0.00163,-0.06890,-0.00001,-0.00013,-0.00207,-0.07887,0.98387,6.93580,0.18071
09:08:40.619329,6.95448,0.00659,0.00000,0.00000,-0.00296,0.12522,0.00076,-0.00105,-0.00092,-0.08137,0.98430,6.94532,0.19780
09:08:40.629016,6.96418,0.00593,0.00000,0.00000,0.00056,-0.02360,0.00152,0.00002,-0.00189,-0.07960,0.98460,6.95584,0.19536
09:08:40.640388,6.97555,0.00692,0.00000,0.00000,0.00056,-0.02360,0.00060,-0.00044,-0.00366,-0.07960,0.98118,6.96601,0.19536
09:08:40.650514,6.98567,0.00668,0.00000,0.00000,-0.00204,0.08640,-0.00077,-0.00059,-0.00238,-0.08009,0.98387,6.97656,0.20024
09:08:40.660767,6.99591,0.00657,0.00000,0.00000,0.00254,-0.10772,0.00045,-0.00319,-0.00311,-0.08107,0.98478,6.98689,0.20024
09:08:40.672130,7.00682,0.00640,0.00000,0.00000,-0.00189,0.07992,-0.00123,-0.00013,-0.00293,-0.07936,0.98076,6.99802,0.19292
09:08:40.683054,7.01819,0.00656,0.00000,0.00000,-0.00082,0.03463,0.00152,0.00139,-0.00152,-0.07960,0.98448,7.00911,0.19048
09:08:40.694719,7.02909,0.00711,0.00000,0.00000,0.00010,-0.00419,-0.00047,-0.00090,-0.00256,-0.07869,0.98369,7.01956,0.18071
09:08:40.703623,7.03878,0.00644,0.00000,0.00000,0.00132,-0.05596,0.00045,-0.00197,-0.00177,-0.07985,0.98594,7.02973,0.19048
09:08:40.714273,7.04944,0.00674,0.00000,0.00000,0.00132,-0.05596,0.00076,0.00048,-0.00201,-0.07912,0.98387,7.04031,0.19048
09:08:40.724533,7.05968,0.00662,0.00000,0.00000,0.00132,-0.05596,0.00259,-0.00075,-0.00226,-0.07863,0.98186,7.05065,0.19780
09:08:40.735326,7.06997,0.00641,0.00000,0.00000,-0.00021,0.00875,0.00091,-0.00227,-0.00134,-0.08137,0.98460,7.06096,0.19048
09:08:40.745709,7.08088,0.00695,0.00000,0.00000,-0.00204,0.08640,0.00045,-0.00120,-0.00342,-0.08052,0.98338,7.07178,0.19048
09:08:40.755560,7.09071,0.00643,0.00000,0.00000,0.00010,-0.00419,0.00259,-0.00288,-0.00384,-0.07954,0.98533,7.08167,0.19292
09:08:40.766814,7.10197,0.00733,0.00000,0.00000,-0.00021,0.00875,0.00060,0.00078,-0.00098,-0.08034,0.98277,7.09262,0.18803
09:08:40.777732,7.11263,0.00764,0.00000,0.00000,0.00147,-0.06243,0.00289,-0.00059,0.00122,-0.08156,0.98472,7.10258,0.18803
09:08:40.786761,7.12192,0.00642,0.00000,0.00000,-0.00036,0.01522,-0.00047,-0.00334,-0.00189,-0.07936,0.98637,7.11291,0.18315
09:08:40.797304,7.13246,0.00661,0.00000,0.00000,-0.00036,0.01522,0.00152,-0.00273,-0.00220,-0.07845,0.98545,7.12344,0.18559
09:08:40.808552,7.14370,0.00685,0.00000,0.00000,-0.00021,0.00875,0.00457,0.00124,-0.00152,-0.08156,0.98564,7.13461,0.18315
09:08:40.818672,7.15383,0.00644,0.00000,0.00000,0.00086,-0.03655,0.00121,0.00063,-0.00110,-0.08082,0.98362,7.14479,0.19048
09:08:40.829239,7.16440,0.00664,0.00000,0.00000,-0.00296,0.12522,-0.00321,-0.00059,-0.00085,-0.08198,0.98271,7.15537,0.19780
09:08:40.840628,7.17580,0.00785,0.00000,0.00000,-0.00189,0.07992,0.00350,-0.00349,-0.00287,-0.07912,0.98649,7.16652,0.18071
09:08:40.850389,7.18554,0.00723,0.00000,0.00000,-0.00005,0.00228,0.00137,-0.00120,-0.00220,-0.07954,0.98362,7.17645,0.18803
09:08:40.860953,7.19584,0.00648,0.00000,0.00000,0.00071,-0.03008,0.00030,-0.00013,-0.00085,-0.07967,0.98411,7.18605,0.19048
09:08:40.870590,7.20575,0.00672,0.00000,0.00000,0.00193,-0.08184,0.00076,-0.00166,-0.00152,-0.07991,0.98509,7.19662,0.18559
09:08:40.881418,7.21658,0.00719,0.00000,0.00000,0.00056,-0.02360,0.00335,-0.00090,-0.00122,-0.08229,0.98423,7.20721,0.18803
09:08:40.891016,7.22617,0.00655,0.00000,0.00000,0.00132,-0.05596,0.00381,-0.00197,-0.00213,-0.07918,0.98399,7.21715,0.19536
09:08:40.901775,7.23694,0.00696,0.00000,0.00000,0.00163,-0.06890,0.00030,-0.00319,-0.00415,-0.08028,0.98515,7.22757,0.18803
09:08:40.911592,7.24675,0.00641,0.00000,0.00000,-0.00158,0.06698,-0.00169,-0.00151,-0.00159,-0.07979,0.98247,7.23773,0.19780
09:08:40.922903,7.25738,0.00682,0.00000,0.00000,-0.00219,0.09287,0.00030,0.00017,-0.00134,-0.07918,0.98356,7.24902,0.18071
09:08:40.931456,7.26662,0.00586,0.00000,0.00000,-0.00036,0.01522,0.00289,-0.00288,-0.00232,-0.07979,0.98277,7.25842,0.18559
09:08:40.943726,7.27888,0.00775,0.00000,0.00000,-0.00128,0.05404,0.00076,-0.00029,-0.00030,-0.08137,0.98356,7.26949,0.19292
09:08:40.954171,7.28853,0.00705,0.00000,0.00000,0.00239,-0.10125,0.00076,-0.00151,-0.00238,-0.08015,0.98430,7.27909,0.19292
09:08:40.962950,7.29811,0.00643,0.00000,0.00000,0.00453,-0.19184,-0.00047,0.00170,-0.00043,-0.07893,0.98271,7.28909,0.20024
09:08:40.973865,7.30903,0.00699,0.00000,0.00000,-0.00448,0.18992,-0.00062,-0.00013,-0.00049,-0.08204,0.98399,7.29963,0.19536
09:08:40.983652,7.31880,0.00640,0.00000,0.00000,0.00208,-0.08831,0.00259,-0.00166,-0.00329,-0.08125,0.98204,7.30978,0.19292
09:08:40.994888,7.32928,0.00651,0.00000,0.00000,0.00147,-0.06243,0.00030,-0.00426,-0.00226,-0.07924,0.98301,7.32091,0.18315
09:08:41.005042,7.34020,0.00662,0.00000,0.00000,0.00407,-0.17243,0.00045,0.00032,-0.00305,-0.07863,0.98320,7.33118,0.19048
09:08:41.015150,7.35030,0.00653,0.00000,0.00000,-0.00021,0.00875,-0.00001,-0.00013,-0.00220,-0.07967,0.98387,7.34128,0.19048
09:08:41.026299,7.36145,0.00725,0.00000,0.00000,0.00071,-0.03008,-0.00153,-0.00044,-0.00165,-0.07899,0.98497,7.35185,0.19780
09:08:41.035137,7.37031,0.00575,0.00000,0.00000,0.00331,-0.14008,0.00228,-0.00029,-0.00207,-0.07973,0.98369,7.36195,0.17582
09:08:41.047016,7.38219,0.00677,0.00000,0.00000,0.00025,-0.01066,0.00305,-0.00365,-0.00110,-0.07997,0.98283,7.37297,0.19048
09:08:41.057249,7.39241,0.00663,0.00000,0.00000,0.00117,-0.04949,0.00198,-0.00441,-0.00165,-0.08040,0.98478,7.38339,0.19536
09:08:41.066953,7.40212,0.00615,0.00000,0.00000,-0.00066,0.02816,0.00060,0.00093,-0.00043,-0.08034,0.98619,7.39370,0.18803
09:08:41.077770,7.41293,0.00659,0.00000,0.00000,0.00438,-0.18537,0.00076,0.00078,-0.00250,-0.07967,0.98320,7.40395,0.18071
09:08:41.090719,7.42521,0.00824,0.00000,0.00000,0.00224,-0.09478,0.00259,-0.00258,-0.00049,-0.08089,0.98289,7.41570,0.19292
09:08:41.098604,7.43376,0.00662,0.00000,0.00000,-0.00357,0.15110,0.00350,-0.00044,-0.00335,-0.07985,0.98497,7.42472,0.20024
09:08:41.109171,7.44433,0.00664,0.00000,0.00000,0.00300,-0.12713,0.00060,-0.00090,-0.00104,-0.08272,0.98430,7.43529,0.18315
09:08:41.119731,7.45488,0.00699,0.00000,0.00000,0.00132,-0.05596,-0.00444,0.00109,-0.00250,-0.07826,0.98265,7.44587,0.18559
09:08:41.129011,7.46417,0.00608,0.00000,0.00000,0.00254,-0.10772,0.00244,0.00323,-0.00055,-0.07845,0.98198,7.45584,0.20269
09:08:41.140097,7.47422,0.00583,0.00000,0.00000,-0.00296,0.12522,-0.00062,-0.00151,-0.00213,-0.08046,0.98399,7.46584,0.19292
09:08:41.150281,7.48544,0.00683,0.00000,0.00000,0.00056,-0.02360,-0.00092,-0.00288,-0.00323,-0.07912,0.98423,7.47634,0.20024
09:08:41.159663,7.49483,0.00581,0.00000,0.00000,-0.00051,0.02169,0.00335,-0.00059,-0.00250,-0.08058,0.98332,7.48662,0.19292
09:08:41.170810,7.50596,0.00641,0.00000,0.00000,-0.00112,0.04757,0.00564,0.00109,-0.00055,-0.08198,0.98216,7.49694,0.20269
09:08:41.181966,7.51714,0.00690,0.00000,0.00000,0.00147,-0.06243,0.00106,-0.00044,-0.00378,-0.08137,0.98527,7.50878,0.19292
09:08:41.193620,7.52878,0.00774,0.00000,0.00000,-0.00066,0.02816,0.00121,0.00063,-0.00323,-0.07893,0.98332,7.51976,0.19292
09:08:41.203594,7.53826,0.00665,0.00000,0.00000,0.00254,-0.10772,0.00015,-0.00151,-0.00281,-0.08009,0.98265,7.52915,0.19536
09:08:41.213411,7.54857,0.00660,0.00000,0.00000,-0.00143,0.06051,-0.00215,-0.00456,-0.00256,-0.08058,0.98283,7.53955,0.19536
09:08:41.223685,7.55884,0.00650,0.00000,0.00000,-0.00005,0.00228,-0.00291,-0.00365,-0.00122,-0.07954,0.98417,7.54972,0.18559
09:08:41.234181,7.56934,0.00664,0.00000,0.00000,0.00285,-0.12066,-0.00001,-0.00304,-0.00085,-0.08034,0.98375,7.56029,0.19292
09:08:41.244073,7.57902,0.00595,0.00000,0.00000,-0.00082,0.03463,0.00167,-0.00166,-0.00055,-0.08107,0.98253,7.57084,0.19780
09:08:41.254827,7.58999,0.00659,0.00000,0.00000,-0.00082,0.03463,0.00412,-0.00349,-0.00195,-0.07906,0.98594,7.58093,0.18071
09:08:41.265677,7.60084,0.00689,0.00000,0.00000,0.00102,-0.04302,0.00289,-0.00181,-0.00061,-0.08089,0.98259,7.59179,0.18803
09:08:41.276646,7.61090,0.00659,0.00000,0.00000,0.00102,-0.04302,0.00198,0.00231,-0.00317,-0.08064,0.98478,7.60170,0.19292
09:08:41.285632,7.62080,0.00614,0.00000,0.00000,0.00040,-0.01713,-0.00276,-0.00105,-0.00299,-0.08064,0.98387,7.61245,0.21001
09:08:41.298107,7.63300,0.00730,0.00000,0.00000,0.00040,-0.01713,0.00564,-0.00059,-0.00146,-0.08089,0.98308,7.62345,0.20513
09:08:41.307160,7.64231,0.00642,0.00000,0.00000,0.00086,-0.03655,-0.00352,0.00292,-0.00183,-0.08058,0.98265,7.63331,0.18803
09:08:41.318556,7.65345,0.00721,0.00000,0.00000,0.00010,-0.00419,0.00412,0.00124,-0.00488,-0.07893,0.98478,7.64381,0.19048
09:08:41.328087,7.66304,0.00643,0.00000,0.00000,0.00010,-0.00419,-0.00215,-0.00288,-0.00073,-0.07930,0.98448,7.65399,0.18559
09:08:41.337752,7.67291,0.00595,0.00000,0.00000,0.00193,-0.08184,0.00091,0.00170,-0.00146,-0.07784,0.98606,7.66457,0.18803
09:08:41.349882,7.68453,0.00719,0.00000,0.00000,0.00086,-0.03655,0.00076,-0.00365,-0.00092,-0.08186,0.98216,7.67553,0.19536
09:08:41.359431,7.69384,0.00625,0.00000,0.00000,0.00422,-0.17890,0.00152,-0.00319,-0.00250,-0.07991,0.98338,7.68528,0.20513
09:08:41.369407,7.70457,0.00662,0.00000,0.00000,0.00208,-0.08831,0.00045,-0.00166,-0.00213,-0.08156,0.98356,7.69555,0.18803
09:08:41.380535,7.71473,0.00642,0.00000,0.00000,0.00208,-0.08831,-0.00092,-0.00075,-0.00159,-0.08070,0.98338,7.70568,0.19780
09:08:41.389602,7.72477,0.00624,0.00000,0.00000,0.00453,-0.19184,0.00503,-0.00136,-0.00098,-0.08064,0.98259,7.71618,0.19292
09:08:41.401178,7.73608,0.00660,0.00000,0.00000,-0.00250,0.10581,0.00244,-0.00304,-0.00220,-0.07924,0.98564,7.72648,0.17582
09:08:41.411277,7.74644,0.00696,0.00000,0.00000,-0.00296,0.12522,0.00060,0.00063,-0.00299,-0.08076,0.98436,7.73690,0.19780
09:08:41.421309,7.75647,0.00664,0.00000,0.00000,0.00102,-0.04302,-0.00215,-0.00288,-0.00085,-0.08034,0.98454,7.74742,0.19048
09:08:41.432182,7.76714,0.00694,0.00000,0.00000,-0.00189,0.07992,-0.00031,0.00002,-0.00244,-0.08003,0.98198,7.75791,0.18071
09:08:41.442252,7.77739,0.00684,0.00000,0.00000,-0.00051,0.02169,0.00320,0.00109,-0.00098,-0.07985,0.98484,7.76816,0.19048
09:08:41.452891,7.78804,0.00712,0.00000,0.00000,0.00178,-0.07537,0.00381,0.00170,-0.00213,-0.07997,0.98423,7.77851,0.18071
09:08:41.462690,7.79784,0.00642,0.00000,0.00000,0.00193,-0.08184,0.00427,0.00078,-0.00238,-0.08204,0.98411,7.78883,0.18559
09:08:41.473231,7.80840,0.00662,0.00000,0.00000,0.00102,-0.04302,-0.00444,0.00002,-0.00275,-0.07967,0.98436,7.79939,0.20513
09:08:41.483351,7.81851,0.00653,0.00000,0.00000,0.00208,-0.08831,0.00030,-0.00197,-0.00299,-0.07973,0.98454,7.80940,0.19292
09:08:41.494686,7.82900,0.00667,0.00000,0.00000,0.00147,-0.06243,-0.00123,-0.00273,0.00000,-0.08180,0.98405,7.81993,0.19292
09:08:41.505079,7.83970,0.00702,0.00000,0.00000,-0.00189,0.07992,-0.00001,-0.00029,-0.00372,-0.08113,0.98039,7.83006,0.19536
09:08:41.515015,7.84965,0.00661,0.00000,0.00000,0.00117,-0.04949,-0.00169,0.00109,-0.00116,-0.08174,0.98484,7.84062,0.18559
09:08:41.525370,7.86000,0.00660,0.00000,0.00000,0.00102,-0.04302,0.00137,-0.00227,-0.00287,-0.08034,0.98552,7.85096,0.19048
09:08:41.534936,7.87009,0.00647,0.00000,0.00000,0.00132,-0.05596,0.00244,0.00063,-0.00207,-0.08180,0.98399,7.86103,0.20757
09:08:41.545667,7.88083,0.00685,0.00000,0.00000,-0.00036,0.01522,0.00289,0.00155,-0.00311,-0.07948,0.98619,7.87177,0.19292
09:08:41.556720,7.89097,0.00664,0.00000,0.00000,0.00102,-0.04302,0.00228,-0.00136,-0.00299,-0.08052,0.98277,7.88173,0.18803
09:08:41.566224,7.90137,0.00668,0.00000,0.00000,0.00239,-0.10125,0.00198,0.00002,-0.00165,-0.08046,0.98356,7.89231,0.18803
09:08:41.576745,7.91190,0.00684,0.00000,0.00000,-0.00036,0.01522,0.00091,-0.00151,-0.00213,-0.08015,0.98430,7.90264,0.19048
09:08:41.586957,7.92211,0.00655,0.00000,0.00000,-0.00021,0.00875,0.00030,-0.00136,-0.00201,-0.07936,0.98314,7.91296,0.17582
09:08:41.598520,7.93367,0.00775,0.00000,0.00000,0.00346,-0.14655,-0.00138,-0.00075,-0.00220,-0.08052,0.98350,7.92423,0.18559
09:08:41.606779,7.94195,0.00584,0.00000,0.00000,0.00071,-0.03008,0.00060,0.00017,-0.00165,-0.08009,0.98387,7.93358,0.19048
09:08:41.618013,7.95318,0.00671,0.00000,0.00000,-0.00005,0.00228,0.00274,-0.00243,-0.00238,-0.08064,0.98472,7.94405,0.19048
09:08:41.629334,7.96398,0.00684,0.00000,0.00000,-0.00372,0.15757,0.00030,-0.00243,-0.00506,-0.08003,0.98393,7.95484,0.18803
09:08:41.638847,7.97398,0.00656,0.00000,0.00000,0.00056,-0.02360,-0.00047,0.00017,-0.00275,-0.07851,0.98515,7.96489,0.17582
09:08:41.649880,7.98504,0.00726,0.00000,0.00000,-0.00204,0.08640,0.00182,-0.00227,-0.00311,-0.07857,0.98466,7.97572,0.20024
09:08:41.661108,7.99599,0.00800,0.00000,0.00000,0.00025,-0.01066,0.00366,-0.00120,-0.00165,-0.08174,0.98619,7.98637,0.19292
09:08:41.669870,8.00503,0.00669,0.00000,0.00000,-0.00005,0.00228,-0.00123,0.00032,-0.00299,-0.08082,0.98356,7.99595,0.19292
09:08:41.680988,8.01515,0.00644,0.00000,0.00000,0.00102,-0.04302,0.00167,-0.00059,-0.00311,-0.08113,0.98369,8.00609,0.19048
09:08:41.690876,8.02603,0.00697,0.00000,0.00000,0.00086,-0.03655,0.00259,-0.00120,-0.00134,-0.08101,0.98454,8.01687,0.18315
09:08:41.703258,8.03841,0.00899,0.00000,0.00000,0.00453,-0.19184,-0.00031,-0.00029,-0.00140,-0.07979,0.98375,8.02815,0.19292
09:08:41.711350,8.04651,0.00642,0.00000,0.00000,0.00453,-0.19184,-0.00062,0.00048,0.00043,-0.07820,0.98661,8.03747,0.18803
09:08:41.722540,8.05769,0.00725,0.00000,0.00000,0.00285,-0.12066,0.00167,-0.00013,-0.00213,-0.07820,0.98460,8.04865,0.18559
09:08:41.733128,8.06775,0.00662,0.00000,0.00000,-0.00173,0.07345,0.00259,0.00002,-0.00275,-0.07906,0.98643,8.05871,0.19536
09:08:41.742355,8.07752,0.00594,0.00000,0.00000,0.00132,-0.05596,0.00228,0.00139,-0.00244,-0.08235,0.98509,8.06899,0.19048
09:08:41.754184,8.08932,0.00677,0.00000,0.00000,-0.00066,0.02816,-0.00138,0.00032,-0.00128,-0.08265,0.98472,8.08028,0.19292
09:08:41.764382,8.09953,0.00662,0.00000,0.00000,-0.00250,0.10581,0.00076,-0.00090,-0.00183,-0.08131,0.98350,8.09053,0.18315
09:08:41.775627,8.11077,0.00734,0.00000,0.00000,0.00147,-0.06243,0.00473,-0.00517,-0.00085,-0.08082,0.98338,8.10116,0.19536
09:08:41.785746,8.12036,0.00671,0.00000,0.00000,0.00254,-0.10772,-0.00230,-0.00029,-0.00159,-0.08101,0.98613,8.11133,0.19292
09:08:41.795003,8.13017,0.00628,0.00000,0.00000,0.00102,-0.04302,0.00060,-0.00197,-0.00012,-0.07729,0.98600,8.12163,0.18559
09:08:41.807065,8.14221,0.00811,0.00000,0.00000,-0.00021,0.00875,0.00137,-0.00090,-0.00043,-0.08064,0.98491,8.13311,0.17827
09:08:41.814884,8.15006,0.00578,0.00000,0.00000,-0.00265,0.11228,-0.00108,-0.00319,-0.00152,-0.07893,0.98448,8.14171,0.19048
09:08:41.825446,8.16061,0.00598,0.00000,0.00000,-0.00128,0.05404,0.00015,0.00017,-0.00287,-0.07930,0.98466,8.15226,0.18803
09:08:41.836515,8.17166,0.00666,0.00000,0.00000,-0.00265,0.11228,-0.00138,0.00002,-0.00366,-0.07912,0.98283,8.16259,0.18315
09:08:41.847025,8.18218,0.00667,0.00000,0.00000,0.00071,-0.03008,0.00045,-0.00166,-0.00140,-0.07912,0.98509,8.17316,0.19292
09:08:41.856840,8.19201,0.00614,0.00000,0.00000,0.00132,-0.05596,0.00030,-0.00304,-0.00079,-0.07918,0.98576,8.18344,0.18315
09:08:41.867523,8.20268,0.00645,0.00000,0.00000,0.00040,-0.01713,0.00045,0.00063,-0.00018,-0.08107,0.98491,8.19362,0.20269
09:08:41.878577,8.21324,0.00664,0.00000,0.00000,0.00224,-0.09478,0.00106,-0.00212,-0.00329,-0.08046,0.98283,8.20418,0.19048
09:08:41.888415,8.22356,0.00661,0.00000,0.00000,0.00040,-0.01713,0.00030,-0.00243,0.00067,-0.08125,0.98247,8.21456,0.18071
09:08:41.898594,8.23376,0.00630,0.00000,0.00000,-0.00097,0.04110,0.00060,-0.00212,-0.00012,-0.08101,0.98393,8.22542,0.18315
09:08:41.911038,8.24619,0.00833,0.00000,0.00000,-0.00097,0.04110,0.00518,0.00323,-0.00348,-0.08076,0.98271,8.23585,0.20513
09:08:41.919540,8.25469,0.00647,0.00000,0.00000,-0.00387,0.16404,0.00121,-0.00075,-0.00067,-0.08113,0.98320,8.24561,0.19048
09:08:41.930583,8.26574,0.00684,0.00000,0.00000,-0.00005,0.00228,0.00274,0.00078,-0.00317,-0.08021,0.98387,8.25670,0.19048
09:08:41.941535,8.27670,0.00685,0.00000,0.00000,-0.00296,0.12522,-0.00215,-0.00243,-0.00232,-0.08034,0.98454,8.26742,0.19292
09:08:41.952426,8.28664,0.00643,0.00000,0.00000,0.00056,-0.02360,0.00259,-0.00288,-0.00152,-0.08064,0.98271,8.27759,0.19780
09:08:41.962055,8.29722,0.00665,0.00000,0.00000,0.00025,-0.01066,-0.00092,0.00323,0.00006,-0.08204,0.98564,8.28814,0.19780
09:08:41.972362,8.30751,0.00659,0.00000,0.00000,-0.00158,0.06698,0.00015,0.00292,-0.00244,-0.08150,0.98326,8.29853,0.20269
09:08:41.982787,8.31795,0.00646,0.00000,0.00000,-0.00036,0.01522,0.00030,0.00124,-0.00213,-0.08064,0.98125,8.30890,0.18071
09:08:41.994090,8.32898,0.00710,0.00000,0.00000,0.00331,-0.14008,0.00350,-0.00181,-0.00256,-0.07875,0.98308,8.31946,0.18071
09:08:42.002886,8.33806,0.00599,0.00000,0.00000,-0.00128,0.05404,0.00137,-0.00059,-0.00256,-0.07851,0.98430,8.32972,0.18071
09:08:42.014471,8.34963,0.00721,0.00000,0.00000,0.00025,-0.01066,-0.00199,0.00246,-0.00360,-0.07857,0.98405,8.34005,0.19048
09:08:42.025048,8.35993,0.00714,0.00000,0.00000,0.00086,-0.03655,0.00060,0.00093,-0.00299,-0.08113,0.98186,8.35036,0.19292
09:08:42.035149,8.36978,0.00663,0.00000,0.00000,-0.00051,0.02169,0.00015,-0.00090,-0.00323,-0.07893,0.98558,8.36074,0.20513
09:08:42.045272,8.38043,0.00693,0.00000,0.00000,0.00346,-0.14655,-0.00108,0.00093,-0.00213,-0.07692,0.98491,8.37110,0.19048
09:08:42.054262,8.38943,0.00574,0.00000,0.00000,0.00224,-0.09478,0.00198,0.00185,-0.00043,-0.07991,0.98338,8.38111,0.17827
09:08:42.066314,8.40121,0.00713,0.00000,0.00000,0.00071,-0.03008,0.00274,-0.00136,-0.00104,-0.07875,0.98387,8.39163,0.20024
09:08:42.076330,8.41147,0.00684,0.00000,0.00000,0.00025,-0.01066,0.00152,-0.00319,-0.00275,-0.07967,0.98387,8.40245,0.19048
09:08:42.087436,8.42258,0.00758,0.00000,0.00000,0.00147,-0.06243,-0.00260,-0.00212,-0.00159,-0.07832,0.98448,8.41259,0.18559
09:08:42.096852,8.43201,0.00666,0.00000,0.00000,0.00254,-0.10772,-0.00413,-0.00181,-0.00250,-0.08095,0.98430,8.42289,0.20024
09:08:42.106421,8.44159,0.00604,0.00000,0.00000,-0.00036,0.01522,0.00244,0.00093,-0.00049,-0.08186,0.98314,8.43302,0.20269
09:08:42.118183,8.45307,0.00716,0.00000,0.00000,-0.00158,0.06698,0.00228,0.00292,-0.00146,-0.07863,0.98253,8.44351,0.20269
09:08:42.127534,8.46269,0.00642,0.00000,0.00000,-0.00128,0.05404,0.00259,0.00063,-0.00378,-0.07942,0.98240,8.45364,0.18559
09:08:42.138173,8.47333,0.00671,0.00000,0.00000,0.00163,-0.06890,0.00045,-0.00288,-0.00262,-0.08113,0.98417,8.46422,0.20269
09:08:42.149041,8.48350,0.00625,0.00000,0.00000,-0.00189,0.07992,-0.00047,0.00231,-0.00128,-0.07985,0.98289,8.47513,0.19048
09:08:42.158665,8.49383,0.00639,0.00000,0.00000,0.00025,-0.01066,-0.00062,-0.00013,-0.00189,-0.07936,0.98167,8.48498,0.18559
09:08:42.169280,8.50374,0.00594,0.00000,0.00000,-0.00036,0.01522,-0.00001,0.00048,-0.00201,-0.08046,0.98332,8.49540,0.18559
09:08:42.179266,8.51443,0.00643,0.00000,0.00000,0.00254,-0.10772,-0.00077,0.00002,-0.00165,-0.07869,0.98515,8.50543,0.18315
09:08:42.189159,8.52433,0.00594,0.00000,0.00000,-0.00250,0.10581,-0.00215,-0.00090,-0.00390,-0.08040,0.98381,8.51597,0.18315
09:08:42.201127,8.53575,0.00677,0.00000,0.00000,0.00407,-0.17243,-0.00077,-0.00044,-0.00104,-0.08015,0.98430,8.52670,0.19292
09:08:42.211140,8.54627,0.00679,0.00000,0.00000,0.00132,-0.05596,-0.00230,-0.00212,-0.00061,-0.08131,0.98423,8.53688,0.19292
09:08:42.221422,8.55656,0.00672,0.00000,0.00000,-0.00280,0.11875,-0.00245,-0.00166,-0.00207,-0.08003,0.98448,8.54744,0.18071
09:08:42.231276,8.56645,0.00624,0.00000,0.00000,0.00056,-0.02360,-0.00047,0.00124,-0.00287,-0.07973,0.98454,8.55790,0.19048
09:08:42.242820,8.57797,0.00740,0.00000,0.00000,-0.00036,0.01522,0.00076,0.00048,-0.00146,-0.08107,0.98381,8.56892,0.19048
09:08:42.253166,8.58756,0.00672,0.00000,0.00000,0.00117,-0.04949,0.00137,-0.00319,-0.00390,-0.07918,0.98375,8.57856,0.19536
09:08:42.262670,8.59783,0.00646,0.00000,0.00000,-0.00005,0.00228,-0.00245,0.00231,-0.00201,-0.08125,0.98582,8.58877,0.19048
09:08:42.273165,8.60833,0.00660,0.00000,0.00000,-0.00051,0.02169,0.00076,-0.00105,-0.00311,-0.07948,0.98423,8.59932,0.20024
09:08:42.283634,8.61880,0.00688,0.00000,0.00000,-0.00143,0.06051,0.00244,-0.00059,-0.00281,-0.08070,0.98210,8.60979,0.18803
09:08:42.293465,8.62863,0.00651,0.00000,0.00000,0.00392,-0.16596,-0.00383,0.00155,-0.00305,-0.07954,0.98308,8.62023,0.19780
09:08:42.305023,8.64019,0.00726,0.00000,0.00000,-0.00280,0.11875,-0.00031,0.00032,-0.00152,-0.07906,0.98240,8.63138,0.19536
09:08:42.313949,8.64912,0.00568,0.00000,0.00000,-0.00036,0.01522,0.00182,0.00002,-0.00403,-0.08076,0.98491,8.64085,0.20269
09:08:42.325655,8.66082,0.00668,0.00000,0.00000,0.00346,-0.14655,-0.00062,0.00399,-0.00128,-0.07979,0.98375,8.65179,0.18071
09:08:42.335771,8.67092,0.00642,0.00000,0.00000,-0.00097,0.04110,0.00030,-0.00136,-0.00305,-0.07814,0.98423,8.66188,0.18559
09:08:42.346634,8.68179,0.00693,0.00000,0.00000,0.00071,-0.03008,0.00121,0.00246,-0.00152,-0.07912,0.98381,8.67245,0.17827
09:08:42.356663,8.69181,0.00659,0.00000,0.00000,-0.00112,0.04757,0.00015,0.00017,-0.00220,-0.08290,0.98655,8.68280,0.19780
09:08:42.367002,8.70215,0.00656,0.00000,0.00000,0.00208,-0.08831,0.00121,0.00017,-0.00275,-0.07997,0.98558,8.69300,0.19536
09:08:42.378259,8.71341,0.00747,0.00000,0.00000,0.00132,-0.05596,-0.00306,0.00078,0.00024,-0.07924,0.98356,8.70437,0.18559
09:08:42.387601,8.72275,0.00644,0.00000,0.00000,0.00025,-0.01066,0.00228,0.00017,-0.00220,-0.08113,0.98381,8.71370,0.19536
09:08:42.398208,8.73337,0.00686,0.00000,0.00000,-0.00357,0.15110,0.00106,-0.00319,-0.00250,-0.07973,0.98283,8.72424,0.18803
09:08:42.408237,8.74339,0.00652,0.00000,0.00000,-0.00082,0.03463,0.00106,0.00017,-0.00104,-0.07967,0.98521,8.73447,0.19536
09:08:42.420891,8.75604,0.00863,0.00000,0.00000,0.00086,-0.03655,-0.00092,-0.00059,-0.00226,-0.07985,0.98283,8.74685,0.19292
09:08:42.430639,8.76578,0.00820,0.00000,0.00000,0.00224,-0.09478,0.00396,0.00002,-0.00287,-0.07985,0.98472,8.75591,0.19536
09:08:42.440210,8.77535,0.00759,0.00000,0.00000,-0.00112,0.04757,0.00060,-0.00029,-0.00165,-0.08021,0.98491,8.76608,0.18315
09:08:42.451291,8.78645,0.00832,0.00000,0.00000,-0.00082,0.03463,-0.00016,-0.00227,-0.00366,-0.08137,0.98521,8.77697,0.19048
09:08:42.458913,8.79408,0.00579,0.00000,0.00000,0.00025,-0.01066,0.00350,-0.00166,-0.00171,-0.07967,0.98448,8.78573,0.19292
09:08:42.470541,8.80569,0.00704,0.00000,0.00000,0.00224,-0.09478,-0.00031,-0.00029,-0.00293,-0.07875,0.98283,8.79665,0.18315
09:08:42.479614,8.81478,0.00577,0.00000,0.00000,0.00254,-0.10772,-0.00184,0.00185,-0.00372,-0.08064,0.98552,8.80661,0.18803
09:08:42.491382,8.82602,0.00651,0.00000,0.00000,0.00117,-0.04949,0.00274,-0.00059,-0.00195,-0.08137,0.98545,8.81692,0.18559
09:08:42.501343,8.83650,0.00663,0.00000,0.00000,-0.00112,0.04757,-0.00138,-0.00013,-0.00189,-0.07838,0.98283,8.82746,0.20024
09:08:42.513091,8.84825,0.00756,0.00000,0.00000,-0.00066,0.02816,-0.00459,0.00216,-0.00287,-0.07997,0.98344,8.83890,0.20024
09:08:42.523115,8.85776,0.00674,0.00000,0.00000,-0.00066,0.02816,-0.00062,-0.00334,-0.00201,-0.08125,0.98405,8.84871,0.19292
09:08:42.532855,8.86714,0.00591,0.00000,0.00000,0.00147,-0.06243,-0.00245,0.00048,-0.00366,-0.07906,0.98417,8.85898,0.18803
09:08:42.542163,8.87733,0.00575,0.00000,0.00000,-0.00143,0.06051,0.00213,0.00063,-0.00098,-0.08082,0.98509,8.86899,0.18071
09:08:42.553389,8.88855,0.00660,0.00000,0.00000,-0.00189,0.07992,0.00213,0.00216,-0.00092,-0.07985,0.98332,8.87953,0.19048
09:08:42.564569,8.89972,0.00741,0.00000,0.00000,-0.00464,0.19640,-0.00092,0.00109,-0.00421,-0.07893,0.98448,8.89070,0.19780
09:08:42.573507,8.90867,0.00600,0.00000,0.00000,-0.00189,0.07992,0.00121,-0.00319,-0.00293,-0.07973,0.98338,8.90028,0.19292
09:08:42.586110,8.92125,0.00788,0.00000,0.00000,-0.00066,0.02816,-0.00108,0.00032,-0.00281,-0.08143,0.98521,8.91218,0.19780
09:08:42.595647,8.93080,0.00722,0.00000,0.00000,0.00071,-0.03008,0.00182,0.00261,-0.00213,-0.07857,0.98088,8.92176,0.19780
09:08:42.605592,8.94075,0.00679,0.00000,0.00000,-0.00097,0.04110,-0.00123,-0.00090,-0.00268,-0.07985,0.98301,8.93170,0.19292
09:08:42.615754,8.95092,0.00660,0.00000,0.00000,0.00071,-0.03008,0.00060,-0.00197,-0.00268,-0.07875,0.98503,8.94250,0.18315
09:08:42.627233,8.96239,0.00774,0.00000,0.00000,-0.00066,0.02816,-0.00291,0.00093,-0.00366,-0.08107,0.98350,8.95270,0.18803
09:08:42.637199,8.97236,0.00677,0.00000,0.00000,0.00040,-0.01713,0.00259,-0.00044,-0.00220,-0.08028,0.98295,8.96333,0.19780
09:08:42.648217,8.98337,0.00699,0.00000,0.00000,0.00147,-0.06243,0.00015,-0.00181,-0.00195,-0.08076,0.98466,8.97389,0.18803
09:08:42.658548,8.99370,0.00685,0.00000,0.00000,-0.00051,0.02169,-0.00108,0.00048,-0.00201,-0.08064,0.98466,8.98467,0.18803
09:08:42.669526,9.00469,0.00701,0.00000,0.00000,0.00193,-0.08184,0.00015,-0.00105,-0.00293,-0.08131,0.98417,8.99542,0.20024
09:08:42.680184,9.01514,0.00726,0.00000,0.00000,-0.00036,0.01522,-0.00001,0.00017,-0.00348,-0.07997,0.98393,9.00630,0.19292
09:08:42.689882,9.02505,0.00680,0.00000,0.00000,-0.00051,0.02169,-0.00016,-0.00197,-0.00305,-0.08034,0.98271,9.01591,0.18559
09:08:42.700064,9.03503,0.00643,0.00000,0.00000,0.00224,-0.09478,0.00121,-0.00029,-0.00207,-0.07887,0.98491,9.02599,0.19048
09:08:42.709721,9.04489,0.00593,0.00000,0.00000,-0.00204,0.08640,0.00259,-0.00120,-0.00262,-0.08131,0.98387,9.03654,0.18071
09:08:42.721697,9.05685,0.00726,0.00000,0.00000,0.00147,-0.06243,0.00045,-0.00120,-0.00329,-0.08180,0.98399,9.04785,0.20513
09:08:42.731067,9.06622,0.00644,0.00000,0.00000,-0.00143,0.06051,0.00015,0.00124,-0.00012,-0.07790,0.98466,9.05720,0.19048
09:08:42.742656,9.07731,0.00717,0.00000,0.00000,-0.00265,0.11228,-0.00092,-0.00151,-0.00244,-0.08070,0.98265,9.06779,0.20269
09:08:42.752207,9.08735,0.00684,0.00000,0.00000,0.00102,-0.04302,-0.00062,0.00139,-0.00213,-0.07973,0.98497,9.07832,0.19780
09:08:42.762436,9.09759,0.00673,0.00000,0.00000,-0.00036,0.01522,-0.00199,-0.00075,0.00067,-0.08058,0.98411,9.08846,0.17827
09:08:42.772656,9.10780,0.00657,0.00000,0.00000,0.00208,-0.08831,-0.00123,-0.00243,-0.00165,-0.08003,0.98448,9.09879,0.20513
09:08:42.784129,9.11832,0.00673,0.00000,0.00000,0.00285,-0.12066,-0.00230,0.00139,-0.00250,-0.07960,0.98515,9.10900,0.19292
09:08:42.793453,9.12862,0.00668,0.00000,0.00000,-0.00158,0.06698,0.00228,-0.00013,-0.00323,-0.08235,0.98399,9.11952,0.18559
09:08:42.805030,9.13965,0.00675,0.00000,0.00000,0.00270,-0.11419,-0.00596,-0.00319,-0.00232,-0.08003,0.98545,9.13060,0.18071
09:08:42.815399,9.15056,0.00714,0.00000,0.00000,0.00117,-0.04949,0.00015,-0.00013,-0.00268,-0.08009,0.98631,9.14140,0.17827
09:08:42.825751,9.16090,0.00727,0.00000,0.00000,0.00239,-0.10125,0.00152,-0.00044,-0.00488,-0.07954,0.98436,9.15139,0.18071
09:08:42.835587,9.17024,0.00641,0.00000,0.00000,-0.00066,0.02816,0.00045,0.00063,-0.00275,-0.08040,0.98240,9.16126,0.19780
09:08:42.845673,9.18083,0.00664,0.00000,0.00000,0.00102,-0.04302,-0.00016,-0.00227,-0.00098,-0.07973,0.98369,9.17179,0.17582
09:08:42.856113,9.19106,0.00651,0.00000,0.00000,-0.00189,0.07992,-0.00108,-0.00044,-0.00134,-0.08095,0.98478,9.18193,0.18803
09:08:42.866533,9.20169,0.00693,0.00000,0.00000,0.00102,-0.04302,0.00015,-0.00136,-0.00092,-0.08162,0.98344,9.19250,0.18559
09:08:42.875709,9.21088,0.00576,0.00000,0.00000,0.00254,-0.10772,-0.00337,-0.00075,-0.00433,-0.07820,0.98283,9.20269,0.19780
09:08:42.887366,9.22252,0.00693,0.00000,0.00000,0.00499,-0.21125,0.00076,-0.00502,-0.00055,-0.08082,0.98448,9.21350,0.19536
09:08:42.897945,9.23310,0.00715,0.00000,0.00000,-0.00082,0.03463,0.00015,-0.00319,-0.00250,-0.07979,0.98478,9.22406,0.20024
09:08:42.907641,9.24279,0.00646,0.00000,0.00000,-0.00372,0.15757,0.00549,0.00109,-0.00427,-0.07954,0.98570,9.23372,0.19780
09:08:42.919193,9.25368,0.00699,0.00000,0.00000,-0.00097,0.04110,0.00518,-0.00136,-0.00183,-0.08168,0.98338,9.24428,0.19536
09:08:42.929031,9.26419,0.00723,0.00000,0.00000,-0.00219,0.09287,-0.00062,0.00093,-0.00146,-0.08052,0.98417,9.25493,0.19292
09:08:42.938766,9.27392,0.00654,0.00000,0.00000,0.00147,-0.06243,0.00121,-0.00243,-0.00092,-0.08064,0.98448,9.26488,0.19048
09:08:42.949705,9.28487,0.00714,0.00000,0.00000,0.00132,-0.05596,0.00427,-0.00349,-0.00195,-0.08119,0.98381,9.27534,0.20269
09:08:42.960156,9.29511,0.00719,0.00000,0.00000,-0.00051,0.02169,0.00060,-0.00136,-0.00268,-0.08034,0.98356,9.28605,0.20269
09:08:42.970321,9.30548,0.00720,0.00000,0.00000,0.00025,-0.01066,-0.00245,-0.00075,-0.00220,-0.08003,0.98326,9.29642,0.20269
09:08:42.980283,9.31543,0.00667,0.00000,0.00000,-0.00143,0.06051,-0.00047,0.00017,-0.00317,-0.08046,0.98259,9.30640,0.19292
09:08:42.991458,9.32661,0.00749,0.00000,0.00000,-0.00204,0.08640,0.00289,-0.00243,-0.00152,-0.08034,0.98314,9.31758,0.18803
09:08:43.001573,9.33621,0.00673,0.00000,0.00000,0.00040,-0.01713,0.00152,0.00185,-0.00360,-0.08046,0.98277,9.32719,0.19536
09:08:43.010947,9.34610,0.00643,0.00000,0.00000,0.00178,-0.07537,-0.00001,-0.00197,-0.00281,-0.08034,0.98295,9.33710,0.18071
09:08:43.021862,9.35703,0.00699,0.00000,0.00000,0.00086,-0.03655,0.00289,-0.00151,-0.00012,-0.08058,0.98222,9.34763,0.18315
09:08:43.032768,9.36792,0.00664,0.00000,0.00000,0.00208,-0.08831,0.00091,-0.00212,-0.00275,-0.08131,0.98320,9.35885,0.19292
09:08:43.042747,9.37791,0.00632,0.00000,0.00000,-0.00005,0.00228,-0.00062,-0.00090,-0.00207,-0.08028,0.98411,9.36959,0.19048
09:08:43.053643,9.38880,0.00685,0.00000,0.00000,0.00361,-0.15302,0.00167,0.00032,-0.00220,-0.08082,0.98448,9.37977,0.21001
09:08:43.063552,9.39871,0.00654,0.00000,0.00000,0.00239,-0.10125,0.00106,-0.00120,-0.00183,-0.08064,0.98326,9.38968,0.18315
09:08:43.074578,9.40923,0.00670,0.00000,0.00000,0.00346,-0.14655,0.00030,-0.00075,-0.00140,-0.08150,0.98521,9.40020,0.19780
09:08:43.084399,9.41954,0.00666,0.00000,0.00000,0.00224,-0.09478,0.00259,0.00093,0.00037,-0.07832,0.98381,9.41054,0.18803
09:08:43.096397,9.43114,0.00805,0.00000,0.00000,0.00132,-0.05596,0.00030,-0.00059,-0.00232,-0.07991,0.98466,9.42079,0.19292
09:08:43.105388,9.44002,0.00657,0.00000,0.00000,-0.00219,0.09287,-0.00352,0.00017,-0.00244,-0.08034,0.98375,9.43090,0.20269
09:08:43.115357,9.45050,0.00666,0.00000,0.00000,0.00010,-0.00419,0.00091,0.00093,-0.00104,-0.08235,0.98521,9.44147,0.18803
09:08:43.125885,9.46106,0.00686,0.00000,0.00000,-0.00082,0.03463,0.00076,-0.00212,-0.00043,-0.08052,0.98271,9.45209,0.18559
09:08:43.138658,9.47349,0.00866,0.00000,0.00000,0.00086,-0.03655,0.00030,-0.00197,-0.00134,-0.08113,0.98527,9.46392,0.18559
09:08:43.147037,9.48167,0.00666,0.00000,0.00000,-0.00280,0.11875,0.00015,0.00185,-0.00146,-0.08150,0.98655,9.47261,0.19536
09:08:43.156757,9.49190,0.00653,0.00000,0.00000,-0.00265,0.11228,-0.00352,0.00017,-0.00354,-0.07997,0.98497,9.48290,0.19536
09:08:43.168647,9.50378,0.00742,0.00000,0.00000,-0.00112,0.04757,0.00106,-0.00197,0.00043,-0.08046,0.98369,9.49407,0.19780
09:08:43.178203,9.51335,0.00663,0.00000,0.00000,0.00071,-0.03008,0.00106,-0.00090,-0.00159,-0.08095,0.98222,9.50432,0.20513
09:08:43.187600,9.52277,0.00584,0.00000,0.00000,0.03950,-1.67361,-0.00245,0.00078,-0.00049,-0.07893,0.98436,9.51459,0.19292
09:08:43.200150,9.53465,0.00663,0.00000,0.00000,-0.00250,0.10581,-0.00306,0.00093,-0.00390,-0.07765,0.98472,9.52556,0.20269
09:08:43.209936,9.54510,0.00672,0.00000,0.00000,-0.00128,0.05404,-0.00108,-0.00044,-0.00207,-0.08131,0.98393,9.53595,0.19536
09:08:43.220228,9.55537,0.00663,0.00000,0.00000,0.00086,-0.03655,0.00213,0.00231,-0.00183,-0.07851,0.98405,9.54632,0.18315
09:08:43.231123,9.56629,0.00691,0.00000,0.00000,0.00086,-0.03655,0.00182,-0.00120,-0.00372,-0.07893,0.98289,9.55792,0.20024
09:08:43.242477,9.57694,0.00735,0.00000,0.00000,-0.00082,0.03463,-0.00062,-0.00029,-0.00116,-0.08290,0.98381,9.56854,0.19048
09:08:43.252663,9.58744,0.00770,0.00000,0.00000,-0.00128,0.05404,0.00213,0.00048,-0.00232,-0.08003,0.98515,9.57808,0.18071
09:08:43.261684,9.59685,0.00675,0.00000,0.00000,-0.00128,0.05404,-0.00108,0.00109,-0.00268,-0.07875,0.98430,9.58845,0.19780
09:08:43.272715,9.60786,0.00741,0.00000,0.00000,-0.00143,0.06051,0.00030,-0.00120,-0.00335,-0.08052,0.98405,9.59879,0.19292
09:08:43.282852,9.61748,0.00666,0.00000,0.00000,-0.00601,0.25463,-0.00215,0.00323,-0.00152,-0.07985,0.98393,9.60843,0.18559
09:08:43.292633,9.62778,0.00660,0.00000,0.00000,0.00132,-0.05596,-0.00138,-0.00090,-0.00390,-0.08113,0.98417,9.61875,0.19536
09:08:43.303388,9.63805,0.00663,0.00000,0.00000,-0.00051,0.02169,-0.00123,0.00384,-0.00232,-0.08076,0.98381,9.62895,0.18803
09:08:43.313321,9.64847,0.00684,0.00000,0.00000,-0.00036,0.01522,0.00244,-0.00212,-0.00226,-0.08052,0.98613,9.63946,0.17827
09:08:43.324104,9.65836,0.00620,0.00000,0.00000,0.00300,-0.12713,0.00198,0.00109,-0.00037,-0.08052,0.98552,9.64966,0.18803
09:08:43.334438,9.66960,0.00646,0.00000,0.00000,-0.00097,0.04110,-0.00245,-0.00181,-0.00152,-0.08082,0.98314,9.66095,0.19536
09:08:43.345641,9.68080,0.00746,0.00000,0.00000,0.00163,-0.06890,-0.00230,0.00063,-0.00329,-0.08034,0.98674,9.67161,0.19536
09:08:43.355425,9.69057,0.00685,0.00000,0.00000,-0.00112,0.04757,0.00350,-0.00075,-0.00299,-0.08028,0.98552,9.68115,0.18315
09:08:43.365526,9.70069,0.00661,0.00000,0.00000,-0.00021,0.00875,-0.00016,0.00200,-0.00116,-0.08034,0.98344,9.69166,0.19292
09:08:43.375724,9.71088,0.00643,0.00000,0.00000,0.00086,-0.03655,-0.00321,-0.00059,-0.00085,-0.08070,0.98326,9.70183,0.19292
09:08:43.386305,9.72145,0.00665,0.00000,0.00000,0.00147,-0.06243,0.00091,0.00017,-0.00329,-0.08064,0.98234,9.71242,0.19536
09:08:43.397924,9.73309,0.00793,0.00000,0.00000,0.00193,-0.08184,0.00045,-0.00258,-0.00329,-0.07893,0.98356,9.72402,0.19292
09:08:43.406847,9.74200,0.00643,0.00000,0.00000,-0.00143,0.06051,-0.00077,-0.00472,-0.00177,-0.08107,0.98436,9.73298,0.18559
09:08:43.417460,9.75262,0.00667,0.00000,0.00000,-0.00036,0.01522,0.00121,0.00155,-0.00323,-0.08137,0.98314,9.74353,0.19292
09:08:43.427646,9.76280,0.00645,0.00000,0.00000,0.00040,-0.01713,-0.00306,0.00093,-0.00165,-0.07936,0.98564,9.75374,0.20513
09:08:43.437700,9.77287,0.00631,0.00000,0.00000,-0.00158,0.06698,0.00167,0.00017,-0.00238,-0.08211,0.98637,9.76424,0.19780
09:08:43.449357,9.78352,0.00660,0.00000,0.00000,0.00147,-0.06243,0.00244,-0.00075,-0.00049,-0.07979,0.98430,9.77452,0.19048
09:08:43.459283,9.79392,0.00644,0.00000,0.00000,0.00040,-0.01713,-0.00413,-0.00243,-0.00372,-0.08040,0.98216,9.78490,0.19048
09:08:43.469866,9.80503,0.00718,0.00000,0.00000,0.00224,-0.09478,0.00244,0.00109,-0.00366,-0.07973,0.98619,9.79596,0.19292
09:08:43.479585,9.81473,0.00653,0.00000,0.00000,0.00361,-0.15302,-0.00123,-0.00136,-0.00311,-0.08064,0.98436,9.80558,0.19048
09:08:43.490026,9.82518,0.00661,0.00000,0.00000,0.00239,-0.10125,-0.00230,-0.00029,-0.00238,-0.08101,0.98338,9.81617,0.18559
09:08:43.501341,9.83649,0.00754,0.00000,0.00000,0.00163,-0.06890,0.00060,-0.00105,-0.00110,-0.07954,0.98289,9.82655,0.18803
09:08:43.510830,9.84599,0.00654,0.00000,0.00000,0.00010,-0.00419,-0.00077,0.00032,-0.00354,-0.08168,0.98460,9.83687,0.19536
09:08:43.521281,9.85575,0.00594,0.00000,0.00000,0.00025,-0.01066,0.00167,-0.00151,0.00055,-0.07997,0.98155,9.84740,0.19780
09:08:43.531390,9.86654,0.00654,0.00000,0.00000,0.00147,-0.06243,-0.00001,-0.00319,-0.00189,-0.08131,0.98301,9.85743,0.20024
09:08:43.541829,9.87699,0.00663,0.00000,0.00000,0.00086,-0.03655,-0.00016,-0.00090,-0.00024,-0.07960,0.98405,9.86794,0.19780
09:08:43.553592,9.88844,0.00770,0.00000,0.00000,0.00224,-0.09478,-0.00337,-0.00151,-0.00354,-0.08156,0.98393,9.87831,0.18559
09:08:43.562561,9.89772,0.00662,0.00000,0.00000,0.00056,-0.02360,0.00030,0.00032,-0.00220,-0.08028,0.98472,9.88867,0.18315
09:08:43.573359,9.90851,0.00704,0.00000,0.00000,-0.00051,0.02169,0.00060,-0.00029,-0.00079,-0.08082,0.98521,9.89906,0.18315
09:08:43.583356,9.91852,0.00686,0.00000,0.00000,-0.00448,0.18992,-0.00138,-0.00151,-0.00403,-0.07881,0.98344,9.90936,0.19780
09:08:43.593460,9.92863,0.00660,0.00000,0.00000,0.00102,-0.04302,0.00015,-0.00227,-0.00256,-0.08040,0.98454,9.91960,0.19780
09:08:43.605221,9.93948,0.00660,0.00000,0.00000,-0.00280,0.11875,0.00030,0.00109,-0.00275,-0.07875,0.98436,9.93048,0.18071
09:08:43.614623,9.94977,0.00668,0.00000,0.00000,0.00071,-0.03008,0.00137,0.00032,-0.00061,-0.08046,0.98387,9.94074,0.18803
09:08:43.626223,9.96110,0.00764,0.00000,0.00000,-0.00005,0.00228,0.00289,-0.00166,-0.00226,-0.07851,0.98423,9.95104,0.19048
09:08:43.634912,9.97007,0.00642,0.00000,0.00000,-0.00036,0.01522,0.00076,0.00032,-0.00098,-0.08192,0.98393,9.96108,0.19048
09:08:43.646703,9.98135,0.00734,0.00000,0.00000,-0.00097,0.04110,-0.00001,-0.00212,-0.00409,-0.07820,0.98295,9.97192,0.18559
09:08:43.656085,9.99103,0.00666,0.00000,0.00000,-0.00036,0.01522,0.00121,-0.00243,-0.00226,-0.07960,0.98338,9.98199,0.19292
