Description :  ; walk_time = 2.0 ; speed_up_time = 3.0 ; balancing_time = 0.0
RealTime,Time,CalculationTime,Roll,SteeringAngle,RollRate,ControlInput,gy,gz,ax,ay,az,imu_read_timing,SteerMotorCurrent
09:14:48.773873,0.01409,0.01407,0.00000,0.00000,0.00059,-0.02504,0.00195,0.00075,-0.00232,-0.08113,0.98375,0.00001,0.99634
09:14:48.799425,0.03945,0.01241,0.00000,0.00000,0.00074,-0.03151,-0.00187,0.00166,-0.00201,-0.08290,0.98332,0.02646,1.07204
09:14:48.820865,0.06107,0.01204,0.00000,0.00000,0.00044,-0.01857,0.00302,0.00121,-0.00232,-0.08150,0.98100,0.04837,1.11111
09:14:48.848349,0.08858,0.01090,0.00000,0.00000,0.00029,-0.01210,0.00348,0.00319,0.00030,-0.08143,0.98588,0.07633,1.10379
09:14:48.874410,0.11463,0.01205,0.00000,0.00000,0.00166,-0.07034,0.00104,-0.00093,-0.00189,-0.08082,0.98503,0.10120,1.10623
09:14:48.900414,0.13997,0.01129,0.00000,0.00000,-0.00078,0.03319,0.00195,0.00014,0.00000,-0.08137,0.98692,0.12776,1.11111
09:14:48.923614,0.16385,0.01240,0.00000,0.00000,0.00074,-0.03151,-0.00355,0.00166,-0.00061,-0.08058,0.98558,0.15272,1.10867
09:14:48.949917,0.19015,0.01326,0.00000,0.00000,-0.00185,0.07849,0.00195,0.00044,-0.00287,-0.07973,0.98491,0.17748,1.10623
09:14:48.975438,0.21566,0.01202,0.00000,0.00000,0.00090,-0.03798,-0.00248,-0.00109,-0.00256,-0.07875,0.98423,0.20327,1.10867
09:14:49.000364,0.24007,0.01278,0.00000,0.00000,-0.00002,0.00084,0.00073,-0.00002,-0.00232,-0.08040,0.98350,0.22781,1.08913
09:14:49.021133,0.26135,0.01222,0.00000,0.00000,0.00151,-0.06386,-0.00034,0.00136,-0.00152,-0.08052,0.98515,0.24839,1.11355
09:14:49.046564,0.28653,0.01354,0.00000,0.00000,-0.00002,0.00084,-0.00187,-0.00109,-0.00244,-0.08101,0.98423,0.27319,1.10867
09:14:49.071017,0.31124,0.01145,0.00000,0.00000,-0.00094,0.03966,0.00256,0.00014,-0.00037,-0.08180,0.98338,0.29876,1.10867
09:14:49.098213,0.33842,0.01335,0.00000,0.00000,0.00242,-0.10269,-0.00019,-0.00200,-0.00348,-0.08040,0.98308,0.32589,1.08425
09:14:49.123703,0.36394,0.01213,0.00000,0.00000,-0.00262,0.11084,0.00027,0.00197,-0.00390,-0.08180,0.98210,0.35156,1.10379
09:14:49.150592,0.39082,0.01318,0.00000,0.00000,0.00059,-0.02504,-0.00263,0.00289,-0.00177,-0.08259,0.98149,0.37825,1.10379
09:14:49.176960,0.41688,0.01123,0.00000,0.00000,0.00135,-0.05739,0.00027,0.00182,-0.00061,-0.07973,0.98216,0.40452,1.10867
09:14:49.202081,0.44230,0.01198,0.00000,0.00000,-0.00078,0.03319,0.00042,0.00304,-0.00079,-0.08272,0.98228,0.42893,1.11844
09:14:49.223186,0.46341,0.01186,0.00000,0.00000,0.00090,-0.03798,0.00180,0.00151,-0.00317,-0.07979,0.98454,0.45008,1.08669
09:14:49.248169,0.48818,0.01322,0.00000,0.00000,-0.00170,0.07202,0.00104,-0.00124,-0.00281,-0.08131,0.98423,0.47599,1.10379
09:14:49.270221,0.51021,0.01084,0.00000,0.00000,-0.00002,0.00084,0.00272,-0.00078,-0.00159,-0.08113,0.98338,0.49777,1.10134
09:14:49.296091,0.53611,0.01338,0.00000,0.00000,0.00349,-0.14798,0.00073,0.00258,-0.00360,-0.08211,0.98314,0.52375,1.10867
09:14:49.321054,0.56129,0.01258,0.00000,0.00000,0.00212,-0.08975,0.00302,-0.00124,-0.00152,-0.08058,0.98448,0.54903,1.11844
09:14:49.347048,0.58728,0.01215,0.00000,0.00000,-0.00231,0.09790,0.00195,-0.00139,-0.00299,-0.08034,0.98503,0.57584,1.09402
09:14:49.373785,0.61402,0.01288,0.00000,0.00000,-0.00017,0.00731,0.00424,-0.00017,-0.00207,-0.08198,0.98430,0.60156,1.10623
09:14:49.399095,0.63930,0.01265,0.00000,0.00000,-0.00109,0.04614,-0.00034,0.00090,-0.00244,-0.08229,0.98472,0.62645,1.11111
09:14:49.424386,0.66461,0.01264,0.00000,0.00000,0.00365,-0.15445,0.00042,-0.00047,-0.00281,-0.07967,0.98362,0.65220,1.09402
09:14:49.446950,0.68718,0.01069,0.00000,0.00000,0.00029,-0.01210,-0.00156,-0.00170,0.00000,-0.07967,0.98381,0.67551,1.11111
09:14:49.470711,0.71094,0.01269,0.00000,0.00000,0.00258,-0.10916,-0.00110,-0.00063,-0.00195,-0.08028,0.98436,0.69845,1.11600
09:14:49.494027,0.73426,0.01034,0.00000,0.00000,0.00410,-0.17386,0.00012,-0.00093,-0.00195,-0.07967,0.98259,0.72231,1.12332
09:14:49.518731,0.75898,0.01095,0.00000,0.00000,0.00303,-0.12857,0.00104,-0.00109,-0.00268,-0.07857,0.98405,0.74877,1.11111
09:14:49.544401,0.78462,0.01312,0.00000,0.00000,0.00013,-0.00563,-0.00034,0.00075,-0.00049,-0.08150,0.98344,0.77214,1.11111
09:14:49.569886,0.81011,0.01127,0.00000,0.00000,-0.00002,0.00084,0.00058,-0.00139,-0.00183,-0.08272,0.98387,0.79747,1.11600
09:14:49.593217,0.83345,0.01198,0.00000,0.00000,0.00151,-0.06386,0.00333,0.00243,-0.00281,-0.08028,0.98460,0.82113,1.11600
09:14:49.618362,0.85860,0.01284,0.00000,0.00000,-0.00292,0.12378,0.00073,-0.00017,-0.00207,-0.08052,0.98411,0.84619,1.09890
09:14:49.639106,0.87934,0.01069,0.00000,0.00000,0.00105,-0.04445,0.00027,-0.00063,-0.00238,-0.08156,0.98265,0.86803,1.11111
09:14:49.666483,0.90672,0.01300,0.00000,0.00000,-0.00170,0.07202,-0.00293,0.00166,-0.00482,-0.08015,0.98350,0.89436,1.12088
09:14:49.691303,0.93151,0.01218,0.00000,0.00000,0.00273,-0.11563,-0.00141,-0.00017,-0.00293,-0.08125,0.98308,0.91862,1.10623
09:14:49.716821,0.95704,0.01119,0.00000,0.00000,-0.00094,0.03966,-0.00019,-0.00170,-0.00213,-0.07985,0.98509,0.94463,1.11111
09:14:49.737455,0.97743,0.01228,0.00000,0.00000,-0.00017,0.00731,-0.00141,-0.00002,-0.00311,-0.08235,0.98295,0.96355,1.10867
09:14:49.760566,1.00080,0.01192,0.00000,0.00000,0.00120,-0.05092,-0.00232,0.00059,-0.00244,-0.08101,0.98332,0.98826,1.10867
09:14:49.784236,1.02420,0.01105,0.00000,0.00000,0.00105,-0.04445,-0.00034,-0.00124,-0.00238,-0.08150,0.98271,1.01218,1.10867
09:14:49.808359,1.04859,0.01294,0.00000,0.00000,-0.00002,0.00084,-0.00126,-0.00078,-0.00384,-0.08052,0.98356,1.03596,1.11111
09:14:49.832473,1.07269,0.00985,0.00000,0.00000,0.00258,-0.10916,-0.00095,-0.00078,-0.00323,-0.07930,0.98423,1.06036,1.11355
09:14:49.843237,1.08347,0.01000,0.00000,0.00000,-0.00078,0.03319,0.00180,0.00029,-0.00366,-0.08070,0.98186,1.07186,1.10623
09:14:49.871349,1.11156,0.01316,0.00000,0.00000,-0.00078,0.03319,0.00378,0.00059,-0.00250,-0.08070,0.98472,1.09950,1.10134
09:14:49.896544,1.13678,0.01086,0.00000,0.00000,-0.00185,0.07849,-0.00141,0.00090,-0.00378,-0.08229,0.98405,1.12433,1.11355
09:14:49.919324,1.15954,0.01132,0.00000,0.00000,-0.00063,0.02672,-0.00477,0.00289,-0.00238,-0.07918,0.98509,1.14749,1.10379
09:14:49.947408,1.18763,0.01358,0.00000,0.00000,-0.00033,0.01378,-0.00110,-0.00017,-0.00323,-0.08241,0.98484,1.17583,1.11111
09:14:49.971148,1.21139,0.01023,0.00000,0.00000,-0.00002,0.00084,0.00226,0.00289,-0.00372,-0.08040,0.98393,1.19893,1.11111
09:14:49.997794,1.23803,0.01202,0.00000,0.00000,-0.00338,0.14319,-0.00523,0.00059,-0.00311,-0.08046,0.98222,1.22440,1.12088
09:14:50.024196,1.26421,0.01338,0.00000,0.00000,-0.00063,0.02672,0.00104,-0.00032,-0.00177,-0.08131,0.98240,1.25195,1.10867
09:14:50.044332,1.28455,0.01198,0.00000,0.00000,0.00120,-0.05092,0.00134,0.00289,-0.00232,-0.08015,0.98356,1.27212,1.10134
09:14:50.070367,1.31060,0.01322,0.00000,0.00000,0.00258,-0.10916,-0.00064,0.00105,-0.00250,-0.07887,0.98338,1.29772,1.10379
09:14:50.092355,1.33258,0.00980,0.00000,0.00000,0.00120,-0.05092,-0.00248,-0.00063,-0.00146,-0.08143,0.98399,1.32112,1.11111
09:14:50.104875,1.34509,0.01050,0.00000,0.00000,0.00090,-0.03798,-0.00355,0.00044,-0.00165,-0.08241,0.98295,1.33241,1.11111
09:14:50.130478,1.37068,0.01326,0.00000,0.00000,0.00090,-0.03798,0.00058,0.00212,-0.00250,-0.08302,0.98442,1.35807,1.10623
09:14:50.155524,1.39575,0.01175,0.00000,0.00000,-0.00216,0.09143,-0.00355,-0.00047,0.00238,-0.08137,0.98527,1.38342,1.11355
09:14:50.179752,1.41999,0.01073,0.00000,0.00000,-0.00185,0.07849,-0.00187,0.00151,-0.00073,-0.08095,0.98423,1.40907,1.10379
09:14:50.204248,1.44446,0.01154,0.00000,0.00000,-0.00124,0.05261,-0.00034,0.00044,-0.00360,-0.08009,0.98289,1.43126,1.10867
09:14:50.228689,1.46890,0.01081,0.00000,0.00000,0.00074,-0.03151,-0.00110,0.00090,-0.00256,-0.08235,0.98472,1.45606,1.11844
09:14:50.249295,1.48951,0.01169,0.00000,0.00000,-0.00155,0.06555,-0.00324,0.00166,-0.00262,-0.07960,0.98350,1.47669,1.13553
09:14:50.275302,1.51553,0.01165,0.00000,0.00000,-0.00124,0.05261,-0.00446,0.00014,-0.00275,-0.08278,0.98271,1.50328,1.10379
09:14:50.298586,1.53882,0.00956,0.00000,0.00000,0.00303,-0.12857,0.00027,-0.00093,-0.00329,-0.08095,0.98362,1.52787,1.12088
09:14:50.311090,1.55130,0.01043,0.00000,0.00000,0.00029,-0.01210,0.00485,-0.00322,-0.00335,-0.08259,0.98375,1.53855,1.12088
09:14:50.336433,1.57666,0.01116,0.00000,0.00000,-0.00033,0.01378,0.00149,-0.00246,-0.00220,-0.08015,0.98503,1.56601,1.12576
09:14:50.361241,1.60081,0.01113,0.00000,0.00000,0.00181,-0.07681,-0.00523,-0.00002,-0.00177,-0.08150,0.98667,1.58888,1.10134
09:14:50.386320,1.62655,0.01117,0.00000,0.00000,-0.00475,0.20143,-0.00248,0.00136,-0.00305,-0.08070,0.98466,1.61485,1.10623
09:14:50.409630,1.64986,0.01137,0.00000,0.00000,0.00029,-0.01210,0.00058,-0.00338,-0.00195,-0.08150,0.98271,1.63803,1.12088
09:14:50.436715,1.67653,0.01375,0.00000,0.00000,-0.00323,0.13672,0.00302,0.00136,-0.00067,-0.08058,0.98143,1.66331,1.11600
09:14:50.462186,1.70241,0.01266,0.00000,0.00000,-0.00063,0.02672,0.00012,0.00044,-0.00323,-0.08095,0.98277,1.69031,1.10379
09:14:50.487120,1.72736,0.01021,0.00000,0.00000,-0.00078,0.03319,0.00073,0.00059,-0.00116,-0.08028,0.98411,1.71701,1.11355
09:14:50.511796,1.75200,0.01288,0.00000,0.00000,0.00074,-0.03151,0.00042,-0.00109,-0.00220,-0.08168,0.98436,1.73868,1.11844
09:14:50.535728,1.77594,0.01217,0.00000,0.00000,-0.00170,0.07202,-0.00187,0.00105,-0.00201,-0.08217,0.98131,1.76378,1.12576
09:14:50.557077,1.79728,0.01227,0.00000,0.00000,0.00151,-0.06386,0.00210,-0.00017,-0.00201,-0.08064,0.98497,1.78423,1.10379
09:14:50.581682,1.82192,0.01249,0.00000,0.00000,-0.00155,0.06555,-0.00232,0.00044,-0.00110,-0.08082,0.98106,1.80878,1.08669
09:14:50.605592,1.84582,0.01174,0.00000,0.00000,0.00059,-0.02504,0.00180,0.00059,-0.00354,-0.07985,0.98405,1.83421,1.10379
09:14:50.628716,1.86895,0.01296,0.00000,0.00000,0.00135,-0.05739,0.00104,-0.00032,-0.00128,-0.08101,0.98564,1.85662,1.11111
09:14:50.653609,1.89383,0.01101,0.00000,0.00000,-0.00063,0.02672,-0.00110,0.00044,-0.00140,-0.08107,0.98356,1.88044,1.11355
09:14:50.673816,1.91405,0.01180,0.00000,0.00000,-0.00124,0.05261,-0.00202,-0.00109,-0.00262,-0.08137,0.98484,1.90161,1.10623
09:14:50.696739,1.93695,0.01223,0.00000,0.00000,-0.00246,0.10437,0.00058,0.00029,-0.00268,-0.08101,0.98033,1.92498,1.10867
09:14:50.722990,1.96322,0.01283,0.00000,0.00000,0.00029,-0.01210,-0.00248,0.00334,-0.00226,-0.08125,0.98552,1.95024,1.11111
09:14:50.747002,1.98725,0.00974,0.00000,0.00000,-0.00155,0.06555,0.00333,-0.00017,-0.00165,-0.08095,0.98094,1.97694,1.11844
09:14:50.759614,1.99983,0.01189,0.00000,0.00000,-0.00277,0.11731,0.00134,-0.00124,-0.00451,-0.08125,0.98320,1.98690,1.11111
09:14:50.785182,2.02541,0.01261,0.00000,0.00000,-0.00078,0.03319,0.00317,-0.00215,-0.00378,-0.08186,0.98222,2.01238,1.11355
09:14:50.809494,2.04973,0.01063,0.00000,0.00000,0.00074,-0.03151,-0.00248,-0.00185,-0.00329,-0.08198,0.98204,2.03867,1.09890
09:14:50.833144,2.07338,0.01233,0.00000,0.00000,0.00365,-0.15445,-0.00400,-0.00139,-0.00287,-0.07857,0.98228,2.06106,1.09890
09:14:50.856488,2.09620,0.01050,0.00000,0.00000,-0.00002,0.00084,0.00363,-0.00017,-0.00159,-0.08040,0.98301,2.08515,1.12576
09:14:50.892885,2.13310,0.02109,0.00000,0.00000,0.00151,-0.06386,0.00073,0.00090,-0.00177,-0.08137,0.98186,2.11580,1.10379
09:14:50.924380,2.16369,0.01746,0.00000,0.00000,0.00181,-0.07681,-0.00003,0.00319,-0.00415,-0.08119,0.98442,2.14855,1.09890
09:14:50.954931,2.19516,0.01931,0.00000,0.00000,-0.00353,0.14966,0.00104,-0.00109,-0.00323,-0.08198,0.98198,2.18068,1.11355
09:14:50.990206,2.23040,0.01832,0.00000,0.00000,0.00410,-0.17386,-0.00110,0.00014,-0.00213,-0.08217,0.98430,2.21686,1.10379
09:14:51.021979,2.26221,0.01705,0.00000,0.00000,-0.00109,0.04614,0.00394,0.00334,-0.00323,-0.07997,0.98118,2.24853,1.10867
09:14:51.054906,2.29515,0.01595,0.00000,0.00000,-0.00002,0.00084,-0.00278,-0.00002,-0.00293,-0.08113,0.98399,2.28521,1.11600
09:14:51.085317,2.32554,0.01241,0.00000,0.00000,-0.00155,0.06555,0.00195,0.00044,-0.00281,-0.08070,0.98070,2.31297,1.11600
09:14:51.110480,2.35043,0.01261,0.00000,0.00000,-0.00139,0.05908,-0.00187,0.00075,-0.00085,-0.07979,0.98430,2.33677,1.08425
09:14:51.131613,2.37183,0.01028,0.00000,0.00000,-0.00078,0.03319,0.00027,0.00044,-0.00085,-0.07997,0.98466,2.36003,1.11111
09:14:51.156273,2.39650,0.01106,0.00000,0.00000,0.00029,-0.01210,-0.00003,0.00105,-0.00134,-0.08082,0.98423,2.38568,1.11600
09:14:51.178653,2.41834,0.01130,0.00000,0.00000,-0.00094,0.03966,0.00104,0.00212,-0.00390,-0.08143,0.98533,2.40685,1.10134
09:14:51.202198,2.44244,0.01144,0.00000,0.00000,-0.00139,0.05908,-0.00248,-0.00078,-0.00323,-0.08143,0.98387,2.43031,1.11600
09:14:51.223317,2.46356,0.00747,0.00000,0.00000,0.00151,-0.06386,0.00180,0.00136,-0.00226,-0.08070,0.98454,2.45394,1.11111
09:14:51.237551,2.47777,0.01142,0.00000,0.00000,-0.00048,0.02025,0.00302,0.00151,-0.00067,-0.08070,0.98186,2.46461,1.12332
09:14:51.258981,2.49922,0.00969,0.00000,0.00000,0.00151,-0.06386,0.00104,-0.00124,-0.00220,-0.08095,0.98387,2.48907,1.12088
09:14:51.271613,2.51185,0.01192,0.00000,0.00000,-0.00139,0.05908,0.00210,0.00090,-0.00256,-0.08101,0.98234,2.49856,1.12332
09:14:51.297658,2.53789,0.01168,0.00000,0.00000,-0.00506,0.21437,-0.00064,-0.00093,-0.00122,-0.08143,0.98381,2.52491,1.10379
09:14:51.321790,2.56137,0.00894,0.00000,0.00000,-0.00124,0.05261,0.00119,-0.00017,-0.00262,-0.08082,0.98277,2.55084,1.11355
09:14:51.333736,2.57397,0.01119,0.00000,0.00000,-0.00185,0.07849,0.00058,0.00197,-0.00275,-0.07845,0.98442,2.56126,1.12821
09:14:51.358580,2.59882,0.01178,0.00000,0.00000,-0.00216,0.09143,0.00042,-0.00170,-0.00305,-0.08192,0.98289,2.58734,1.12088
09:14:51.377412,2.61765,0.01046,0.00000,0.00000,-0.00185,0.07849,0.00241,-0.00047,-0.00268,-0.08082,0.98326,2.60574,1.11600
09:14:51.405059,2.64529,0.01361,0.00000,0.00000,-0.00109,0.04614,-0.00003,0.00136,-0.00287,-0.08058,0.98423,2.63215,1.12332
09:14:51.431326,2.67156,0.00956,0.00000,0.00000,-0.00109,0.04614,0.00042,-0.00093,-0.00213,-0.08070,0.98576,2.66034,1.11600
09:14:51.443386,2.68361,0.01075,0.00000,0.00000,-0.00078,0.03319,0.00302,-0.00002,-0.00366,-0.08204,0.98411,2.67079,1.11600
09:14:51.468674,2.70889,0.01057,0.00000,0.00000,0.00074,-0.03151,-0.00141,-0.00109,-0.00244,-0.08028,0.98369,2.69761,1.10379
09:14:51.494403,2.73462,0.01266,0.00000,0.00000,0.00242,-0.10269,0.00210,-0.00002,-0.00268,-0.08021,0.98436,2.72209,1.11355
09:14:51.517652,2.75788,0.01261,0.00000,0.00000,-0.00017,0.00731,-0.00049,0.00105,-0.00311,-0.08107,0.98247,2.74517,1.11111
09:14:51.541592,2.78113,0.01126,0.00000,0.00000,0.00258,-0.10916,-0.00080,0.00090,-0.00159,-0.08284,0.98369,2.76895,1.11111
09:14:51.564260,2.80449,0.00955,0.00000,0.00000,0.00471,-0.19975,-0.00003,0.00105,-0.00366,-0.07960,0.98259,2.79354,1.11111
09:14:51.574602,2.81483,0.00959,0.00000,0.00000,-0.00185,0.07849,-0.00248,-0.00032,-0.00244,-0.08034,0.98454,2.80242,1.09158
09:14:51.586513,2.82674,0.01000,0.00000,0.00000,0.00273,-0.11563,0.00073,0.00044,-0.00043,-0.08009,0.98362,2.81433,1.10379
09:14:51.598112,2.83834,0.00983,0.00000,0.00000,0.00212,-0.08975,-0.00171,-0.00093,-0.00183,-0.08076,0.98503,2.82577,1.12332
09:14:51.610536,2.85075,0.01131,0.00000,0.00000,-0.00139,0.05908,-0.00019,0.00059,-0.00342,-0.08076,0.98448,2.83778,1.10379
09:14:51.635808,2.87602,0.01329,0.00000,0.00000,0.00197,-0.08328,-0.00019,-0.00154,-0.00238,-0.08131,0.98350,2.86297,1.09890
09:14:51.659189,2.89942,0.01281,0.00000,0.00000,-0.00262,0.11084,0.00134,-0.00154,-0.00268,-0.08192,0.98600,2.88729,1.12576
09:14:51.680797,2.92052,0.01178,0.00000,0.00000,0.00059,-0.02504,-0.00400,-0.00154,-0.00396,-0.08052,0.98460,2.90642,1.12088
09:14:51.704932,2.94515,0.01270,0.00000,0.00000,-0.00139,0.05908,0.00119,0.00136,-0.00226,-0.08198,0.98387,2.93264,1.10867
09:14:51.730196,2.97042,0.01305,0.00000,0.00000,0.00258,-0.10916,-0.00080,-0.00322,-0.00067,-0.08070,0.98253,2.95837,1.11111
09:14:51.755085,2.99531,0.01209,0.00000,0.00000,-0.00048,0.02025,-0.00003,-0.00063,-0.00244,-0.08168,0.98405,2.98286,1.12332
09:14:51.772578,3.01281,0.01238,0.00000,0.00000,-0.00109,0.04614,-0.00095,0.00014,-0.00299,-0.08119,0.98509,3.00058,1.09402
09:14:51.797253,3.03748,0.01173,0.00000,0.00000,-0.00201,0.08496,0.00012,-0.00185,-0.00244,-0.07967,0.98423,3.02435,1.12332
09:14:51.821482,3.06172,0.01217,0.00000,0.00000,-0.00094,0.03966,-0.00141,-0.00078,-0.00323,-0.08198,0.98405,3.05016,1.12088
09:14:51.847459,3.08768,0.01113,0.00000,0.00000,-0.00277,0.11731,-0.00400,-0.00109,-0.00281,-0.08168,0.98448,3.07459,1.08913
09:14:51.872125,3.11214,0.01086,0.00000,0.00000,0.00074,-0.03151,0.00165,0.00029,-0.00287,-0.08046,0.98393,3.10136,1.10134
09:14:51.897507,3.13774,0.01304,0.00000,0.00000,-0.00292,0.12378,-0.00034,0.00197,-0.00250,-0.08064,0.98539,3.12530,1.10867
09:14:51.915677,3.15592,0.00892,0.00000,0.00000,-0.00094,0.03966,-0.00187,-0.00124,-0.00317,-0.07991,0.98521,3.14595,1.09890
09:14:51.923735,3.16397,0.00682,0.00000,0.00000,-0.00002,0.00084,-0.00126,0.00090,-0.00396,-0.08021,0.98283,3.15497,1.09646
09:14:51.934890,3.17513,0.00726,0.00000,0.00000,-0.00109,0.04614,-0.00080,0.00289,-0.00085,-0.08095,0.98472,3.16545,1.11844
09:14:51.945979,3.18622,0.00799,0.00000,0.00000,-0.00078,0.03319,-0.00049,0.00029,-0.00409,-0.07887,0.98350,3.17565,1.11111
09:14:51.955693,3.19594,0.00729,0.00000,0.00000,-0.00369,0.15614,0.00149,-0.00231,-0.00177,-0.08064,0.98436,3.18629,1.11111
09:14:51.966926,3.20717,0.00811,0.00000,0.00000,0.00151,-0.06386,-0.00126,0.00029,-0.00275,-0.07826,0.98375,3.19666,1.10379
09:14:51.977938,3.21818,0.00896,0.00000,0.00000,0.00197,-0.08328,-0.00003,-0.00063,-0.00006,-0.08082,0.98436,3.20756,1.10623
09:14:51.987053,3.22729,0.00762,0.00000,0.00000,0.00135,-0.05739,-0.00049,0.00090,-0.00220,-0.08137,0.98509,3.21766,1.10379
09:14:52.000395,3.24063,0.01031,0.00000,0.00000,-0.00048,0.02025,0.00088,0.00105,-0.00122,-0.08198,0.98338,3.22818,1.09890
09:14:52.022987,3.26323,0.01000,0.00000,0.00000,0.00166,-0.07034,-0.00339,0.00105,-0.00281,-0.08143,0.98051,3.25287,1.12576
09:14:52.035474,3.27569,0.01173,0.00000,0.00000,-0.00323,0.13672,0.00409,0.00472,-0.00409,-0.08052,0.98362,3.26261,1.11844
09:14:52.060273,3.30049,0.01312,0.00000,0.00000,-0.00185,0.07849,-0.00232,0.00014,-0.00165,-0.08186,0.98143,3.28807,1.09890
09:14:52.083521,3.32375,0.00983,0.00000,0.00000,0.00029,-0.01210,-0.00232,0.00365,-0.00104,-0.08082,0.98430,3.31259,1.12088
09:14:52.095107,3.33533,0.01023,0.00000,0.00000,0.00105,-0.04445,-0.00202,0.00029,-0.00165,-0.07973,0.98393,3.32295,1.10134
09:14:52.116956,3.35720,0.01103,0.00000,0.00000,0.00044,-0.01857,0.00119,-0.00017,-0.00177,-0.08003,0.98417,3.34659,1.11111
09:14:52.140171,3.38019,0.00943,0.00000,0.00000,0.00013,-0.00563,0.00317,-0.00338,-0.00220,-0.07997,0.98381,3.37063,1.11600
09:14:52.152957,3.39317,0.01204,0.00000,0.00000,0.00074,-0.03151,-0.00202,-0.00093,-0.00384,-0.08180,0.98070,3.38055,1.12332
09:14:52.179047,3.41929,0.01191,0.00000,0.00000,-0.00246,0.10437,-0.00156,-0.00093,-0.00262,-0.08003,0.98369,3.40828,1.10379
09:14:52.201936,3.44215,0.01090,0.00000,0.00000,0.00120,-0.05092,0.00119,0.00075,-0.00250,-0.08156,0.98356,3.42994,1.13553
09:14:52.226169,3.46640,0.01250,0.00000,0.00000,0.00013,-0.00563,0.00073,0.00182,-0.00287,-0.07820,0.98076,3.45385,1.11844
09:14:52.253033,3.49262,0.01165,0.00000,0.00000,-0.00185,0.07849,-0.00187,-0.00047,-0.00152,-0.08223,0.98387,3.48070,1.11111
09:14:52.279505,3.51972,0.01200,0.00000,0.00000,0.00090,-0.03798,-0.00156,0.00273,-0.00415,-0.07930,0.98503,3.50753,1.10623
09:14:52.304077,3.54410,0.01115,0.00000,0.00000,-0.00124,0.05261,0.00058,-0.00139,-0.00305,-0.08046,0.98472,3.53236,1.13553
09:14:52.326872,3.56597,0.01075,0.00000,0.00000,-0.00109,0.04614,0.00104,-0.00109,-0.00311,-0.07985,0.98271,3.55423,1.12576
09:14:52.352773,3.59251,0.01204,0.00000,0.00000,-0.00017,0.00731,-0.00110,0.00029,-0.00195,-0.08247,0.98430,3.58019,1.11844
09:14:52.377619,3.61715,0.01212,0.00000,0.00000,0.00074,-0.03151,-0.00064,-0.00002,-0.00293,-0.08070,0.98460,3.60452,1.11600
09:14:52.399058,3.63928,0.01241,0.00000,0.00000,0.00181,-0.07681,0.00226,-0.00215,-0.00213,-0.08119,0.98558,3.62628,1.12088
09:14:52.424298,3.66452,0.01338,0.00000,0.00000,0.00365,-0.15445,-0.00477,-0.00002,-0.00134,-0.08040,0.98326,3.65206,1.11600
09:14:52.447106,3.68734,0.01081,0.00000,0.00000,0.00273,-0.11563,-0.00064,0.00044,-0.00183,-0.08137,0.98497,3.67563,1.10867
09:14:52.473547,3.71378,0.01288,0.00000,0.00000,-0.00002,0.00084,-0.00019,0.00059,-0.00281,-0.08186,0.98472,3.70113,1.12821
09:14:52.501568,3.74133,0.01373,0.00000,0.00000,0.00029,-0.01210,0.00149,-0.00200,-0.00268,-0.08235,0.98143,3.72837,1.11600
09:14:52.528508,3.76782,0.01285,0.00000,0.00000,-0.00124,0.05261,0.00287,-0.00047,-0.00165,-0.08052,0.98497,3.75548,1.11355
09:14:52.551354,3.79160,0.01117,0.00000,0.00000,0.00181,-0.07681,-0.00171,-0.00002,-0.00098,-0.08162,0.98399,3.78108,1.10134
09:14:52.579492,3.81971,0.01279,0.00000,0.00000,0.00059,-0.02504,-0.00263,0.00105,-0.00195,-0.08192,0.98484,3.80611,1.10867
09:14:52.599277,3.83951,0.00997,0.00000,0.00000,0.00074,-0.03151,0.00119,0.00029,-0.00238,-0.08064,0.98362,3.82737,1.11844
09:14:52.611069,3.85102,0.00934,0.00000,0.00000,0.00029,-0.01210,-0.00080,-0.00017,-0.00287,-0.07845,0.98484,3.83946,1.11111
09:14:52.622241,3.86247,0.01042,0.00000,0.00000,-0.00201,0.08496,0.00134,-0.00338,-0.00110,-0.08046,0.98570,3.85021,1.10379
09:14:52.648975,3.88920,0.01360,0.00000,0.00000,-0.00109,0.04614,0.00241,0.00258,-0.00354,-0.08076,0.98308,3.87591,1.11111
09:14:52.675441,3.91517,0.01324,0.00000,0.00000,0.00135,-0.05739,0.00531,0.00197,-0.00085,-0.08119,0.98393,3.90207,1.09158
09:14:52.699273,3.93951,0.00907,0.00000,0.00000,0.00013,-0.00563,0.00424,-0.00322,-0.00360,-0.08259,0.98478,3.92803,1.12332
09:14:52.710994,3.95123,0.00956,0.00000,0.00000,-0.00155,0.06555,-0.00278,0.00182,-0.00061,-0.08150,0.98405,3.94021,1.10379
09:14:52.723359,3.96359,0.01080,0.00000,0.00000,-0.00063,0.02672,-0.00034,0.00319,-0.00165,-0.08211,0.98478,3.95133,1.11600
09:14:52.742061,3.98231,0.00880,0.00000,0.00000,0.00013,-0.00563,0.00027,-0.00246,-0.00183,-0.08168,0.98405,3.97215,1.11355
09:14:52.753902,3.99414,0.01028,0.00000,0.00000,0.00319,-0.13504,-0.00309,0.00258,-0.00384,-0.08021,0.98362,3.98264,1.11111
09:14:52.778869,4.01909,0.01271,0.00000,0.00000,0.00135,-0.05739,0.00394,0.00151,-0.00201,-0.08229,0.98186,4.00639,1.11111
09:14:52.806386,4.04661,0.01169,0.00000,0.00000,-0.00139,0.05908,-0.00034,0.00059,-0.00220,-0.08089,0.98381,4.03362,1.11111
09:14:52.831459,4.07143,0.01193,0.00000,0.00000,0.00349,-0.14798,0.00180,0.00105,-0.00177,-0.07967,0.98484,4.05844,1.11355
09:14:52.855453,4.09534,0.01118,0.00000,0.00000,-0.00460,0.19496,-0.00049,0.00197,-0.00177,-0.08119,0.98283,4.08373,1.11600
09:14:52.881000,4.12123,0.01313,0.00000,0.00000,0.00044,-0.01857,0.00470,-0.00185,-0.00207,-0.08247,0.98314,4.10875,1.10379
09:14:52.901139,4.14059,0.00786,0.00000,0.00000,-0.00369,0.15614,-0.00171,0.00059,-0.00238,-0.07948,0.98545,4.13124,1.10379
09:14:52.912843,4.15305,0.01007,0.00000,0.00000,-0.00201,0.08496,0.00073,-0.00017,-0.00244,-0.08107,0.98411,4.14053,1.10623
09:14:52.941343,4.18157,0.01367,0.00000,0.00000,-0.00139,0.05908,-0.00263,-0.00139,-0.00354,-0.08058,0.98295,4.16892,1.11600
09:14:52.964748,4.20498,0.01256,0.00000,0.00000,-0.00017,0.00731,0.00424,-0.00002,-0.00189,-0.07899,0.98393,4.19244,1.11600
09:14:52.989897,4.22982,0.01268,0.00000,0.00000,-0.00002,0.00084,0.00470,0.00212,-0.00281,-0.08089,0.98118,4.21694,1.12332
09:14:53.011769,4.25198,0.01204,0.00000,0.00000,-0.00109,0.04614,0.00119,0.00105,-0.00110,-0.08052,0.98478,4.23986,1.12576
09:14:53.037729,4.27796,0.01312,0.00000,0.00000,-0.00033,0.01378,-0.00324,0.00090,-0.00195,-0.08009,0.98423,4.26540,1.11355
09:14:53.063103,4.30225,0.01027,0.00000,0.00000,-0.00063,0.02672,-0.00507,0.00105,-0.00195,-0.08076,0.98484,4.29186,1.12088
09:14:53.089608,4.32983,0.01381,0.00000,0.00000,0.00074,-0.03151,-0.00278,-0.00047,-0.00268,-0.08003,0.98521,4.31716,1.11111
09:14:53.110313,4.35053,0.00969,0.00000,0.00000,0.00426,-0.18034,-0.00019,0.00059,-0.00055,-0.08076,0.98436,4.33820,1.10867
09:14:53.121345,4.36159,0.00949,0.00000,0.00000,-0.00155,0.06555,0.00042,-0.00017,-0.00213,-0.07899,0.98289,4.34961,1.11355
09:14:53.133320,4.37355,0.01046,0.00000,0.00000,0.00135,-0.05739,0.00073,0.00151,-0.00329,-0.08137,0.98314,4.36143,1.10867
09:14:53.160690,4.40092,0.01218,0.00000,0.00000,0.00013,-0.00563,-0.00110,0.00090,-0.00360,-0.08076,0.98509,4.38855,1.11844
09:14:53.185963,4.42619,0.01270,0.00000,0.00000,0.00074,-0.03151,0.00165,-0.00170,-0.00329,-0.07912,0.98179,4.41382,1.09646
09:14:53.209182,4.44940,0.01005,0.00000,0.00000,-0.00017,0.00731,-0.00370,-0.00246,-0.00134,-0.08162,0.98271,4.43887,1.11844
09:14:53.234889,4.47512,0.01360,0.00000,0.00000,-0.00323,0.13672,-0.00141,0.00594,-0.00256,-0.08064,0.98314,4.46247,1.12332
09:14:53.259491,4.49971,0.01292,0.00000,0.00000,0.00212,-0.08975,-0.00278,0.00121,-0.00128,-0.08082,0.98308,4.48667,1.11355
09:14:53.283187,4.52341,0.01206,0.00000,0.00000,0.00212,-0.08975,-0.00202,-0.00017,-0.00250,-0.08052,0.98320,4.51035,1.12332
09:14:53.307773,4.54800,0.01194,0.00000,0.00000,-0.00078,0.03319,-0.00278,0.00105,-0.00128,-0.08113,0.98338,4.53564,1.12088
09:14:53.332994,4.57291,0.01295,0.00000,0.00000,-0.00002,0.00084,0.00226,0.00090,-0.00146,-0.08028,0.98033,4.56005,1.11600
09:14:53.355389,4.59563,0.01067,0.00000,0.00000,0.00258,-0.10916,-0.00049,0.00105,-0.00189,-0.08101,0.98393,4.58599,1.09646
09:14:53.382341,4.62256,0.01210,0.00000,0.00000,0.00319,-0.13504,0.00302,0.00059,-0.00256,-0.08064,0.98423,4.60966,1.11355
09:14:53.408705,4.64894,0.01199,0.00000,0.00000,-0.00078,0.03319,-0.00003,0.00121,-0.00140,-0.08034,0.98277,4.63635,1.11844
09:14:53.432372,4.67240,0.01212,0.00000,0.00000,0.00120,-0.05092,0.00042,0.00075,-0.00049,-0.08082,0.98356,4.65923,1.11844
09:14:53.458275,4.69851,0.01311,0.00000,0.00000,0.00044,-0.01857,-0.00141,0.00136,-0.00104,-0.07942,0.98289,4.68663,1.12332
09:14:53.482390,4.72261,0.01166,0.00000,0.00000,0.00365,-0.15445,-0.00187,-0.00231,-0.00049,-0.08253,0.98362,4.70998,1.12332
09:14:53.507717,4.74795,0.01258,0.00000,0.00000,-0.00078,0.03319,-0.00248,0.00227,0.00000,-0.08247,0.98179,4.73550,1.12576
09:14:53.530632,4.77087,0.01119,0.00000,0.00000,0.00151,-0.06386,-0.00003,-0.00109,-0.00116,-0.08058,0.98369,4.75954,1.11111
09:14:53.555096,4.79531,0.01219,0.00000,0.00000,0.00212,-0.08975,0.00058,0.00227,-0.00140,-0.08125,0.98271,4.78241,1.13309
09:14:53.580696,4.82075,0.01217,0.00000,0.00000,-0.00613,0.25966,-0.00248,-0.00124,-0.00427,-0.08101,0.98454,4.80636,1.11355
09:14:53.606893,4.84712,0.01274,0.00000,0.00000,0.00120,-0.05092,0.00027,-0.00063,-0.00079,-0.08180,0.98704,4.83486,1.10867
09:14:53.628793,4.86901,0.01295,0.00000,0.00000,-0.00002,0.00084,0.00134,-0.00093,-0.00354,-0.07942,0.98448,4.85568,1.11111
09:14:53.654873,4.89412,0.01285,0.00000,0.00000,0.00120,-0.05092,0.00104,-0.00002,-0.00250,-0.07857,0.98430,4.88151,1.10867
09:14:53.676330,4.91657,0.00918,0.00000,0.00000,-0.00063,0.02672,-0.00110,-0.00093,-0.00220,-0.08150,0.98527,4.90672,1.12821
09:14:53.689020,4.92922,0.01116,0.00000,0.00000,0.00151,-0.06386,0.00134,-0.00215,-0.00177,-0.08046,0.98338,4.91623,1.11600
09:14:53.712968,4.95320,0.01238,0.00000,0.00000,0.00029,-0.01210,0.00042,0.00059,-0.00049,-0.08223,0.98338,4.94060,1.12088
09:14:53.732969,4.97320,0.01075,0.00000,0.00000,0.00242,-0.10269,-0.00019,-0.00063,-0.00238,-0.08028,0.98344,4.96140,1.11355
09:14:53.758027,4.99826,0.01249,0.00000,0.00000,-0.00109,0.04614,-0.00232,0.00166,-0.00250,-0.08015,0.98375,4.98560,1.11600
09:14:53.784908,5.02511,0.01354,0.00000,0.00000,-0.00048,0.02025,0.00348,-0.00109,-0.00140,-0.08168,0.98234,5.01185,1.10623
09:14:53.810687,5.05092,0.01195,0.00000,0.00000,0.00090,-0.03798,0.00073,-0.00063,-0.00213,-0.08052,0.98234,5.03830,1.11600
09:14:53.830683,5.07090,0.01160,0.00000,0.00000,-0.00155,0.06555,0.00210,0.00090,-0.00275,-0.08009,0.98454,5.05789,1.11355
09:14:53.859138,5.09911,0.01597,0.00000,0.00000,-0.00201,0.08496,-0.00034,-0.00231,-0.00281,-0.08107,0.98448,5.08654,1.11600
09:14:53.882715,5.12293,0.01140,0.00000,0.00000,-0.00094,0.03966,0.00104,-0.00124,-0.00281,-0.07960,0.98411,5.11039,1.12332
09:14:53.907530,5.14775,0.01258,0.00000,0.00000,0.00044,-0.01857,0.00134,0.00044,-0.00207,-0.08253,0.98362,5.13560,1.11844
09:14:53.930334,5.17031,0.01041,0.00000,0.00000,-0.00017,0.00731,-0.00110,-0.00139,-0.00128,-0.08095,0.98582,5.15739,1.10134
09:14:53.956040,5.19583,0.01426,0.00000,0.00000,0.00258,-0.10916,-0.00064,0.00151,-0.00250,-0.08217,0.98436,5.18240,1.11600
09:14:53.981006,5.22122,0.01275,0.00000,0.00000,0.00074,-0.03151,0.00180,-0.00002,-0.00329,-0.08278,0.98472,5.20833,1.11844
09:14:54.005601,5.24584,0.01268,0.00000,0.00000,-0.00063,0.02672,-0.00064,0.00029,-0.00372,-0.08156,0.98381,5.23339,1.13553
09:14:54.031816,5.27203,0.01297,0.00000,0.00000,0.00166,-0.07034,-0.00049,-0.00246,-0.00061,-0.08089,0.98430,5.25930,1.11111
09:14:54.056807,5.29702,0.01163,0.00000,0.00000,0.00074,-0.03151,-0.00202,0.00075,-0.00195,-0.08229,0.98259,5.28495,1.10134
09:14:54.082540,5.32277,0.01270,0.00000,0.00000,0.00212,-0.08975,-0.00003,0.00044,-0.00201,-0.07948,0.98442,5.31024,1.11111
09:14:54.106971,5.34719,0.01218,0.00000,0.00000,-0.00109,0.04614,0.00317,-0.00154,-0.00152,-0.08198,0.98167,5.33478,1.11111
09:14:54.132839,5.37275,0.01120,0.00000,0.00000,-0.00262,0.11084,0.00317,-0.00047,-0.00342,-0.08095,0.98606,5.36026,1.12088
09:14:54.158634,5.39887,0.01369,0.00000,0.00000,0.00181,-0.07681,0.00501,-0.00109,-0.00323,-0.08058,0.98216,5.38644,1.10623
09:14:54.185970,5.42620,0.01351,0.00000,0.00000,-0.00048,0.02025,0.00058,0.00136,-0.00134,-0.08192,0.98448,5.41334,1.11355
09:14:54.210740,5.45096,0.01266,0.00000,0.00000,-0.00094,0.03966,-0.00126,0.00212,0.00061,-0.08003,0.98393,5.43873,1.11600
09:14:54.234774,5.47500,0.01165,0.00000,0.00000,-0.00109,0.04614,0.00027,-0.00032,-0.00256,-0.08028,0.98350,5.46355,1.11355
09:14:54.260356,5.50009,0.01239,0.00000,0.00000,0.00059,-0.02504,-0.00171,-0.00277,-0.00079,-0.08204,0.98289,5.48780,1.09890
09:14:54.284802,5.52471,0.01307,0.00000,0.00000,0.00074,-0.03151,-0.00217,0.00044,-0.00287,-0.08101,0.98484,5.51185,1.10134
09:14:54.309942,5.55017,0.01202,0.00000,0.00000,0.00120,-0.05092,-0.00324,0.00151,-0.00134,-0.08168,0.98350,5.53740,1.11600
09:14:54.332920,5.57315,0.01311,0.00000,0.00000,-0.00170,0.07202,-0.00049,0.00136,-0.00183,-0.08198,0.98478,5.56059,1.14042
09:14:54.359432,5.59915,0.01299,0.00000,0.00000,0.00090,-0.03798,0.00348,-0.00032,-0.00360,-0.08162,0.98545,5.58660,1.11355
09:14:54.384328,5.62454,0.01345,0.00000,0.00000,0.00166,-0.07034,0.00562,-0.00139,-0.00061,-0.08223,0.98417,5.61224,1.11355
09:14:54.409860,5.64982,0.01405,0.00000,0.00000,0.00456,-0.19328,0.00531,-0.00109,-0.00171,-0.08241,0.98442,5.63657,1.12088
09:14:54.432432,5.67267,0.01140,0.00000,0.00000,-0.00246,0.10437,-0.00202,-0.00002,-0.00220,-0.08265,0.98375,5.66153,1.10623
09:14:54.458055,5.69828,0.01262,0.00000,0.00000,0.00365,-0.15445,0.00302,-0.00338,-0.00049,-0.08064,0.98375,5.68485,1.09890
09:14:54.484602,5.72416,0.01297,0.00000,0.00000,0.00044,-0.01857,-0.00263,0.00090,-0.00207,-0.08211,0.98417,5.71184,1.12332
09:14:54.506794,5.74702,0.01180,0.00000,0.00000,-0.00139,0.05908,-0.00080,0.00197,-0.00396,-0.08070,0.98625,5.73442,1.11355
09:14:54.532161,5.77168,0.01304,0.00000,0.00000,-0.00048,0.02025,0.00042,-0.00124,-0.00067,-0.08204,0.98356,5.75884,1.11355
09:14:54.557511,5.79775,0.01161,0.00000,0.00000,-0.00216,0.09143,-0.00110,-0.00200,0.00104,-0.08131,0.98411,5.78533,1.09890
09:14:54.582677,5.82291,0.01285,0.00000,0.00000,-0.00170,0.07202,-0.00126,-0.00154,-0.00092,-0.08082,0.98301,5.81076,1.10379
09:14:54.608152,5.84819,0.01255,0.00000,0.00000,0.00013,-0.00563,0.00195,-0.00261,-0.00146,-0.08070,0.98411,5.83526,1.10379
09:14:54.632387,5.87262,0.01313,0.00000,0.00000,-0.00078,0.03319,0.00333,0.00227,0.00122,-0.07924,0.98503,5.86016,1.11111
09:14:54.652744,5.89297,0.01228,0.00000,0.00000,0.00166,-0.07034,0.00241,-0.00307,-0.00122,-0.08003,0.98021,5.88024,1.11111
09:14:54.678514,5.91875,0.01403,0.00000,0.00000,0.00090,-0.03798,0.00226,0.00334,-0.00079,-0.08137,0.98509,5.90598,1.11355
09:14:54.700296,5.94053,0.01150,0.00000,0.00000,0.00074,-0.03151,-0.00080,-0.00246,-0.00232,-0.08089,0.98253,5.92907,1.12088
09:14:54.724897,5.96511,0.01050,0.00000,0.00000,-0.00033,0.01378,0.00195,-0.00002,-0.00098,-0.07820,0.98356,5.95248,1.12332
09:14:54.745511,5.98574,0.00965,0.00000,0.00000,-0.00063,0.02672,0.00317,0.00105,-0.00189,-0.07973,0.98369,5.97477,1.12088
09:14:54.756319,5.99654,0.00974,0.00000,0.00000,0.00074,-0.03151,-0.00446,0.00197,-0.00256,-0.08040,0.98460,5.98480,1.11844
09:14:54.769660,6.00989,0.01114,0.00000,0.00000,0.00090,-0.03798,-0.00293,0.00105,-0.00354,-0.07985,0.98399,5.99664,1.10867
09:14:54.793225,6.03346,0.01012,0.00000,0.00000,0.00242,-0.10269,0.00012,0.00014,-0.00159,-0.08265,0.98362,6.02243,1.13553
09:14:54.811821,6.05205,0.01069,0.00000,0.00000,-0.00002,0.00084,-0.00232,0.00105,-0.00092,-0.08015,0.98460,6.03967,1.10867
09:14:54.838195,6.07842,0.01288,0.00000,0.00000,-0.00063,0.02672,-0.00126,0.00105,-0.00220,-0.08113,0.98314,6.06600,1.11111
09:14:54.862980,6.10320,0.01198,0.00000,0.00000,-0.00155,0.06555,-0.00019,0.00075,-0.00195,-0.08119,0.98320,6.09133,1.10867
09:14:54.887538,6.12775,0.01037,0.00000,0.00000,-0.00094,0.03966,0.00210,0.00395,-0.00335,-0.08113,0.98484,6.11585,1.09402
09:14:54.912523,6.15188,0.01205,0.00000,0.00000,0.00105,-0.04445,-0.00339,-0.00170,-0.00384,-0.08241,0.98057,6.13954,1.11111
09:14:54.938534,6.17846,0.01348,0.00000,0.00000,0.00105,-0.04445,-0.00064,-0.00154,-0.00500,-0.08174,0.98497,6.16499,1.11600
09:14:54.958459,6.19868,0.01243,0.00000,0.00000,-0.00201,0.08496,-0.00049,-0.00215,-0.00201,-0.07991,0.98356,6.18493,1.11600
09:14:54.983263,6.22350,0.01293,0.00000,0.00000,0.00029,-0.01210,0.00012,-0.00139,-0.00360,-0.07832,0.98393,6.21050,1.10134
09:14:55.006566,6.24680,0.00949,0.00000,0.00000,0.00395,-0.16739,-0.00355,0.00029,0.00018,-0.07997,0.98460,6.23644,1.11355
09:14:55.019178,6.25939,0.01187,0.00000,0.00000,0.00181,-0.07681,0.00058,-0.00017,-0.00110,-0.08198,0.98387,6.24726,1.11355
09:14:55.045207,6.28515,0.01366,0.00000,0.00000,0.00242,-0.10269,-0.00126,-0.00093,-0.00146,-0.08229,0.98381,6.27166,1.12332
09:14:55.069255,6.30949,0.01146,0.00000,0.00000,0.00242,-0.10269,-0.00263,0.00136,-0.00360,-0.08162,0.98564,6.29708,1.12088
09:14:55.094200,6.33443,0.01245,0.00000,0.00000,-0.00094,0.03966,0.00210,-0.00139,-0.00268,-0.08052,0.98369,6.32240,1.11355
09:14:55.120362,6.36058,0.01373,0.00000,0.00000,-0.00139,0.05908,-0.00171,0.00059,-0.00159,-0.08223,0.98271,6.34728,1.11355
09:14:55.146027,6.38626,0.01272,0.00000,0.00000,0.00029,-0.01210,-0.00034,-0.00002,-0.00140,-0.08186,0.98442,6.37435,1.11355
09:14:55.164854,6.40506,0.01193,0.00000,0.00000,0.00319,-0.13504,-0.00309,-0.00185,-0.00177,-0.08046,0.98442,6.39262,1.12088
09:14:55.192156,6.43217,0.01332,0.00000,0.00000,0.00074,-0.03151,-0.00263,-0.00109,0.00018,-0.08174,0.98405,6.41964,1.12821
09:14:55.213055,6.45256,0.00927,0.00000,0.00000,0.00288,-0.12210,0.00119,0.00121,-0.00177,-0.07832,0.98497,6.44273,1.12821
09:14:55.224704,6.46494,0.01089,0.00000,0.00000,-0.00216,0.09143,-0.00019,0.00182,-0.00311,-0.08046,0.98533,6.45258,1.11355
09:14:55.250074,6.49031,0.01314,0.00000,0.00000,0.00090,-0.03798,-0.00126,-0.00109,-0.00189,-0.08034,0.98387,6.47786,1.11844
09:14:55.270841,6.51107,0.01057,0.00000,0.00000,0.00135,-0.05739,-0.00049,-0.00139,-0.00079,-0.08009,0.98466,6.49951,1.13309
09:14:55.296667,6.53620,0.01092,0.00000,0.00000,0.00090,-0.03798,-0.00293,0.00609,-0.00299,-0.08137,0.98301,6.52367,1.10867
09:14:55.322291,6.56251,0.01152,0.00000,0.00000,-0.00185,0.07849,-0.00293,0.00151,-0.00079,-0.07918,0.98338,6.54914,1.10134
09:14:55.348969,6.58918,0.01325,0.00000,0.00000,0.00166,-0.07034,0.00149,-0.00215,-0.00396,-0.08101,0.98472,6.57676,1.12088
09:14:55.373191,6.61342,0.01163,0.00000,0.00000,0.00151,-0.06386,-0.00110,0.00059,-0.00213,-0.08064,0.98143,6.60211,1.12576
09:14:55.398009,6.63823,0.01225,0.00000,0.00000,-0.00033,0.01378,-0.00339,0.00182,-0.00226,-0.08125,0.98430,6.62589,1.11600
09:14:55.422501,6.66272,0.01282,0.00000,0.00000,-0.00017,0.00731,0.00210,-0.00063,-0.00244,-0.08229,0.98411,6.65002,1.12576
09:14:55.447700,6.68793,0.01087,0.00000,0.00000,-0.00063,0.02672,0.00073,0.00029,-0.00323,-0.08015,0.98472,6.67542,1.11111
09:14:55.470437,6.71067,0.01247,0.00000,0.00000,-0.00017,0.00731,-0.00049,0.00090,-0.00146,-0.08082,0.98484,6.69767,1.12821
09:14:55.495179,6.73540,0.01265,0.00000,0.00000,-0.00017,0.00731,0.00119,-0.00154,-0.00201,-0.08052,0.98411,6.72286,1.11844
09:14:55.517943,6.75818,0.01055,0.00000,0.00000,0.00181,-0.07681,-0.00263,0.00472,-0.00220,-0.08235,0.98362,6.74550,1.12088
09:14:55.545252,6.78548,0.01416,0.00000,0.00000,0.00303,-0.12857,-0.00019,-0.00017,-0.00134,-0.08107,0.98436,6.77167,1.11600
09:14:55.570542,6.81078,0.01229,0.00000,0.00000,0.00044,-0.01857,0.00042,-0.00078,-0.00360,-0.08052,0.98344,6.79775,1.10134
09:14:55.597347,6.83756,0.01303,0.00000,0.00000,0.00151,-0.06386,-0.00095,-0.00292,-0.00152,-0.08095,0.98436,6.82492,1.10134
09:14:55.619648,6.85989,0.01059,0.00000,0.00000,-0.00033,0.01378,0.00119,-0.00170,-0.00305,-0.08021,0.98393,6.84875,1.11355
09:14:55.643728,6.88395,0.01311,0.00000,0.00000,0.00120,-0.05092,0.00058,0.00059,-0.00207,-0.08265,0.98338,6.87163,1.10379
09:14:55.667707,6.90792,0.01060,0.00000,0.00000,0.00181,-0.07681,0.00088,-0.00139,-0.00275,-0.08131,0.98161,6.89698,1.12332
09:14:55.693217,6.93345,0.01240,0.00000,0.00000,0.00273,-0.11563,0.00531,-0.00124,-0.00256,-0.08058,0.98277,6.92092,1.12088
09:14:55.719232,6.95947,0.01357,0.00000,0.00000,0.00090,-0.03798,0.00256,-0.00277,-0.00293,-0.08253,0.98106,6.94670,1.11844
09:14:55.746142,6.98637,0.01330,0.00000,0.00000,-0.00033,0.01378,0.00241,-0.00047,-0.00244,-0.08259,0.98411,6.97383,1.10134
09:14:55.771803,7.01204,0.00959,0.00000,0.00000,-0.00170,0.07202,0.00485,-0.00017,-0.00281,-0.08034,0.98430,7.00034,1.11355
09:14:55.784448,7.02465,0.01088,0.00000,0.00000,-0.00048,0.02025,-0.00110,0.00212,-0.00268,-0.07948,0.98552,7.01185,1.11111
09:14:55.810689,7.05024,0.01168,0.00000,0.00000,0.00105,-0.04445,-0.00049,-0.00093,-0.00232,-0.08125,0.98149,7.03847,1.12576
09:14:55.833128,7.07336,0.01174,0.00000,0.00000,0.00074,-0.03151,-0.00064,-0.00017,-0.00146,-0.08076,0.98466,7.06086,1.10379
09:14:55.858017,7.09825,0.01128,0.00000,0.00000,0.00197,-0.08328,0.00302,0.00044,-0.00244,-0.07979,0.98234,7.08540,1.12088
09:14:55.883667,7.12388,0.01344,0.00000,0.00000,0.00059,-0.02504,0.00027,-0.00032,-0.00256,-0.08082,0.98411,7.11087,1.11355
09:14:55.909346,7.14889,0.01249,0.00000,0.00000,0.00059,-0.02504,0.00302,-0.00246,-0.00171,-0.08101,0.98161,7.13719,1.13065
09:14:55.935351,7.17557,0.01320,0.00000,0.00000,0.00227,-0.09622,0.00348,-0.00124,-0.00213,-0.08198,0.98411,7.16290,1.10867
09:14:55.961980,7.20222,0.01176,0.00000,0.00000,-0.00124,0.05261,0.00348,-0.00139,-0.00238,-0.08156,0.98576,7.19016,1.11111
09:14:55.982850,7.22307,0.01207,0.00000,0.00000,0.00288,-0.12210,-0.00064,-0.00063,-0.00159,-0.08186,0.98430,7.21051,1.11844
09:14:56.009232,7.24895,0.01149,0.00000,0.00000,0.00365,-0.15445,0.00180,-0.00124,-0.00165,-0.08198,0.98192,7.23691,1.11600
09:14:56.030595,7.27083,0.00921,0.00000,0.00000,0.00212,-0.08975,0.00042,0.00182,-0.00122,-0.08174,0.98582,7.26047,1.12088
09:14:56.042441,7.28267,0.00990,0.00000,0.00000,0.00044,-0.01857,-0.00034,0.00166,-0.00238,-0.07960,0.98399,7.27081,1.12821
09:14:56.054082,7.29430,0.01012,0.00000,0.00000,0.00029,-0.01210,-0.00003,-0.00322,-0.00323,-0.08223,0.98228,7.28164,1.12576
09:14:56.080796,7.32045,0.01387,0.00000,0.00000,0.00090,-0.03798,-0.00049,0.00075,-0.00384,-0.08028,0.98423,7.30750,1.11600
09:14:56.104410,7.34463,0.01321,0.00000,0.00000,-0.00002,0.00084,-0.00217,0.00334,-0.00281,-0.08272,0.98277,7.33219,1.11600
09:14:56.129670,7.36990,0.01287,0.00000,0.00000,0.00181,-0.07681,-0.00019,0.00182,-0.00403,-0.08101,0.98430,7.35664,1.11600
09:14:56.153970,7.39366,0.01198,0.00000,0.00000,-0.00002,0.00084,0.00088,-0.00078,-0.00134,-0.08101,0.98606,7.38094,1.12576
09:14:56.179170,7.41939,0.01070,0.00000,0.00000,0.00059,-0.02504,0.00027,0.00029,-0.00335,-0.08058,0.98143,7.40844,1.11600
09:14:56.203713,7.44393,0.01236,0.00000,0.00000,-0.00155,0.06555,-0.00278,0.00151,-0.00305,-0.07954,0.98484,7.43180,1.12576
09:14:56.221913,7.46216,0.00824,0.00000,0.00000,-0.00002,0.00084,-0.00309,0.00059,-0.00305,-0.08015,0.98301,7.45223,1.10867
09:14:56.233399,7.47364,0.00886,0.00000,0.00000,0.00044,-0.01857,-0.00064,0.00121,-0.00305,-0.08076,0.98253,7.46249,1.11355
09:14:56.244052,7.48343,0.00830,0.00000,0.00000,-0.00078,0.03319,-0.00156,0.00075,-0.00207,-0.08174,0.98118,7.47300,1.11355
09:14:56.257139,7.49735,0.01204,0.00000,0.00000,-0.00048,0.02025,-0.00171,-0.00292,-0.00226,-0.08070,0.98448,7.48387,1.10867
09:14:56.279304,7.51955,0.01019,0.00000,0.00000,0.00288,-0.12210,0.00409,0.00029,-0.00384,-0.08015,0.98442,7.51007,1.11600
09:14:56.304159,7.54419,0.01138,0.00000,0.00000,-0.00063,0.02672,-0.00232,-0.00277,-0.00104,-0.07991,0.98466,7.53182,1.12088
09:14:56.329050,7.56926,0.01188,0.00000,0.00000,0.00059,-0.02504,0.00165,0.00121,0.00024,-0.08278,0.98204,7.55631,1.09890
09:14:56.350965,7.59070,0.01145,0.00000,0.00000,-0.00078,0.03319,0.00104,-0.00261,-0.00189,-0.08076,0.98332,7.57868,1.12332
09:14:56.378148,7.61838,0.01331,0.00000,0.00000,-0.00002,0.00084,0.00012,-0.00047,-0.00342,-0.07777,0.98375,7.60595,1.11111
09:14:56.403207,7.64342,0.01276,0.00000,0.00000,0.00105,-0.04445,-0.00049,-0.00063,-0.00366,-0.08174,0.98503,7.63149,1.11844
09:14:56.428618,7.66816,0.01176,0.00000,0.00000,0.00090,-0.03798,-0.00080,-0.00200,-0.00177,-0.07960,0.98277,7.65447,1.11111
09:14:56.447469,7.68770,0.01081,0.00000,0.00000,0.00441,-0.18681,0.00287,-0.00322,-0.00403,-0.07893,0.98430,7.67545,1.11600
09:14:56.470875,7.71111,0.01258,0.00000,0.00000,0.00044,-0.01857,-0.00293,0.00105,-0.00262,-0.08046,0.98491,7.69946,1.11600
09:14:56.485400,7.72562,0.00779,0.00000,0.00000,0.00013,-0.00563,-0.00126,-0.00093,-0.00403,-0.08217,0.98521,7.71536,1.12088
09:14:56.498431,7.73867,0.00975,0.00000,0.00000,0.00105,-0.04445,-0.00034,-0.00124,-0.00390,-0.07851,0.98417,7.72626,1.11355
09:14:56.510546,7.75049,0.00999,0.00000,0.00000,-0.00185,0.07849,0.00241,0.00136,-0.00098,-0.08015,0.98387,7.73775,1.11600
09:14:56.521794,7.76203,0.01051,0.00000,0.00000,-0.00277,0.11731,0.00042,0.00014,-0.00348,-0.07985,0.98478,7.74968,1.11111
09:14:56.544737,7.78380,0.00840,0.00000,0.00000,0.00074,-0.03151,-0.00110,0.00044,-0.00403,-0.08150,0.98448,7.77415,1.11355
09:14:56.555777,7.79601,0.01028,0.00000,0.00000,-0.00384,0.16261,0.00012,0.00227,-0.00372,-0.08101,0.98344,7.78417,1.12332
09:14:56.580943,7.82117,0.01242,0.00000,0.00000,-0.00231,0.09790,0.00027,0.00227,-0.00104,-0.08162,0.98222,7.80844,1.12088
09:14:56.605731,7.84596,0.01258,0.00000,0.00000,-0.00048,0.02025,-0.00339,-0.00063,-0.00220,-0.08101,0.98399,7.83360,1.10867
09:14:56.631330,7.87157,0.01082,0.00000,0.00000,-0.00017,0.00731,-0.00003,0.00166,-0.00128,-0.08034,0.98393,7.86062,1.12088
09:14:56.656669,7.89594,0.01172,0.00000,0.00000,-0.00109,0.04614,0.00058,-0.00032,-0.00128,-0.08314,0.98210,7.88335,1.12088
09:14:56.682726,7.92293,0.01345,0.00000,0.00000,0.00029,-0.01210,-0.00003,-0.00200,-0.00189,-0.08113,0.98369,7.90993,1.11844
09:14:56.702326,7.94255,0.01173,0.00000,0.00000,0.00258,-0.10916,0.00302,-0.00063,-0.00092,-0.08003,0.98417,7.93017,1.12576
09:14:56.727450,7.96767,0.01336,0.00000,0.00000,0.00639,-0.27092,-0.00019,0.00044,-0.00268,-0.07893,0.98137,7.95487,1.12332
09:14:56.748624,7.98886,0.00981,0.00000,0.00000,0.00242,-0.10269,-0.00355,0.00075,-0.00329,-0.07887,0.98466,7.97826,1.11111
09:14:56.761862,8.00173,0.01108,0.00000,0.00000,-0.00216,0.09143,0.00180,0.00136,-0.00226,-0.07954,0.98460,7.98909,1.12332
09:14:56.787084,8.02732,0.01193,0.00000,0.00000,-0.00063,0.02672,0.00088,0.00151,-0.00275,-0.08198,0.98558,8.01555,1.11355
09:14:56.809803,8.05003,0.01181,0.00000,0.00000,-0.00002,0.00084,-0.00019,-0.00124,-0.00146,-0.08168,0.98448,8.03710,1.12332
09:14:56.835508,8.07573,0.01251,0.00000,0.00000,-0.00170,0.07202,-0.00309,-0.00078,-0.00317,-0.08058,0.98515,8.06364,1.10379
09:14:56.859574,8.09981,0.01233,0.00000,0.00000,-0.00048,0.02025,0.00241,0.00044,-0.00152,-0.08101,0.98100,8.08673,1.11355
09:14:56.886313,8.12653,0.01302,0.00000,0.00000,0.00365,-0.15445,-0.00064,-0.00017,0.00030,-0.08076,0.98478,8.11402,1.10623
09:14:56.911403,8.15162,0.01288,0.00000,0.00000,-0.00002,0.00084,0.00012,0.00044,-0.00299,-0.08131,0.98338,8.13937,1.11111
09:14:56.937109,8.17732,0.01334,0.00000,0.00000,0.00074,-0.03151,0.00302,0.00014,-0.00281,-0.07979,0.98332,8.16442,1.13553
09:14:56.962528,8.20251,0.01429,0.00000,0.00000,0.00044,-0.01857,-0.00019,0.00121,-0.00268,-0.08180,0.98375,8.18862,1.11844
09:14:56.988895,8.22910,0.01295,0.00000,0.00000,0.00059,-0.02504,-0.00171,0.00059,-0.00232,-0.08198,0.98411,8.21654,1.12088
09:14:57.007783,8.24800,0.01152,0.00000,0.00000,-0.00002,0.00084,0.00058,-0.00047,-0.00262,-0.07826,0.98393,8.23561,1.12088
09:14:57.034514,8.27474,0.01274,0.00000,0.00000,-0.00078,0.03319,0.00119,-0.00475,-0.00079,-0.08089,0.98271,8.26177,1.12332
09:14:57.061530,8.30144,0.01419,0.00000,0.00000,0.00212,-0.08975,-0.00095,-0.00093,-0.00165,-0.08174,0.98472,8.28838,1.10867
09:14:57.085691,8.32593,0.01160,0.00000,0.00000,0.00120,-0.05092,-0.00110,-0.00063,-0.00201,-0.08223,0.98460,8.31330,1.09646
09:14:57.111062,8.35129,0.01063,0.00000,0.00000,0.00151,-0.06386,-0.00202,-0.00078,-0.00299,-0.08320,0.98338,8.33942,1.11111
09:14:57.138542,8.37844,0.01318,0.00000,0.00000,-0.00139,0.05908,0.00042,-0.00154,-0.00311,-0.08204,0.98381,8.36557,1.10867
09:14:57.165118,8.40533,0.01426,0.00000,0.00000,-0.00063,0.02672,0.00134,0.00044,-0.00244,-0.08095,0.98411,8.39153,1.12088
09:14:57.190583,8.43082,0.01318,0.00000,0.00000,-0.00353,0.14966,0.00409,0.00029,-0.00317,-0.08003,0.98448,8.41828,1.12576
09:14:57.210368,8.45059,0.01161,0.00000,0.00000,-0.00094,0.03966,-0.00080,-0.00093,-0.00232,-0.08107,0.98253,8.43745,1.12088
09:14:57.235454,8.47569,0.01108,0.00000,0.00000,0.00074,-0.03151,0.00058,-0.00002,-0.00268,-0.07979,0.98161,8.46385,1.10134
09:14:57.259439,8.49943,0.01125,0.00000,0.00000,0.00258,-0.10916,-0.00080,0.00136,-0.00275,-0.07918,0.98411,8.48900,1.13065
09:14:57.286005,8.52547,0.01235,0.00000,0.00000,-0.00078,0.03319,-0.00095,-0.00338,-0.00159,-0.08028,0.98448,8.51341,1.11111
09:14:57.309544,8.54892,0.01008,0.00000,0.00000,-0.00048,0.02025,0.00180,-0.00093,-0.00171,-0.08052,0.98393,8.53708,1.11355
09:14:57.332090,8.57211,0.00907,0.00000,0.00000,0.00242,-0.10269,-0.00034,-0.00383,-0.00275,-0.08131,0.98259,8.56168,1.10867
09:14:57.344647,8.58488,0.01180,0.00000,0.00000,-0.00063,0.02672,0.00302,0.00090,-0.00189,-0.08211,0.98405,8.57246,1.11600
09:14:57.370906,8.61112,0.01194,0.00000,0.00000,-0.00109,0.04614,0.00302,-0.00215,-0.00293,-0.08082,0.98155,8.59826,1.11111
09:14:57.394670,8.63489,0.01254,0.00000,0.00000,0.00227,-0.09622,0.00684,0.00014,-0.00201,-0.08028,0.98375,8.62230,1.12576
09:14:57.420330,8.66055,0.01334,0.00000,0.00000,0.00227,-0.09622,0.00149,-0.00322,-0.00201,-0.08082,0.98326,8.64809,1.11111
09:14:57.446247,8.68616,0.01192,0.00000,0.00000,0.00258,-0.10916,-0.00171,-0.00032,-0.00293,-0.07997,0.98570,8.67354,1.12088
09:14:57.470910,8.71114,0.01224,0.00000,0.00000,0.00044,-0.01857,-0.00064,0.00090,-0.00329,-0.08192,0.98301,8.69844,1.10379
09:14:57.497193,8.73740,0.01305,0.00000,0.00000,-0.00139,0.05908,0.00042,-0.00307,-0.00207,-0.08101,0.98204,8.72462,1.10379
09:14:57.518409,8.75862,0.01188,0.00000,0.00000,-0.00246,0.10437,-0.00202,-0.00017,-0.00098,-0.07954,0.98442,8.74613,1.11355
09:14:57.544707,8.78492,0.01375,0.00000,0.00000,0.00151,-0.06386,0.00210,-0.00017,-0.00317,-0.07967,0.98436,8.77240,1.10623
09:14:57.567361,8.80760,0.00884,0.00000,0.00000,0.00059,-0.02504,0.00256,0.00121,-0.00275,-0.08089,0.98411,8.79793,1.10134
09:14:57.580803,8.82102,0.01169,0.00000,0.00000,-0.00307,0.13025,-0.00003,-0.00078,-0.00024,-0.08192,0.98442,8.80762,1.12821
09:14:57.604162,8.84419,0.01228,0.00000,0.00000,0.00029,-0.01210,-0.00309,-0.00292,-0.00256,-0.08125,0.98405,8.83220,1.11111
09:14:57.631054,8.87128,0.01331,0.00000,0.00000,0.00074,-0.03151,-0.00019,0.00090,-0.00171,-0.08186,0.98558,8.85855,1.12576
09:14:57.653752,8.89399,0.01077,0.00000,0.00000,-0.00078,0.03319,0.00088,0.00029,-0.00317,-0.08107,0.98411,8.88220,1.12088
09:14:57.678917,8.91915,0.01259,0.00000,0.00000,0.00074,-0.03151,-0.00156,0.00029,-0.00177,-0.08211,0.98442,8.90564,1.10134
09:14:57.704176,8.94419,0.01328,0.00000,0.00000,0.00471,-0.19975,-0.00263,-0.00368,-0.00360,-0.08192,0.98192,8.93203,1.11844
09:14:57.724165,8.96418,0.01108,0.00000,0.00000,-0.00185,0.07849,0.00149,-0.00063,-0.00305,-0.08034,0.98326,8.95205,1.11844
09:14:57.750125,8.99034,0.01347,0.00000,0.00000,0.00029,-0.01210,0.00027,-0.00246,-0.00293,-0.08436,0.98362,8.97716,1.10379
09:14:57.772992,9.01245,0.00942,0.00000,0.00000,0.00013,-0.00563,0.00058,0.00075,-0.00311,-0.08217,0.98179,9.00140,1.11355
09:14:57.784289,9.02450,0.01049,0.00000,0.00000,0.00258,-0.10916,-0.00095,0.00243,-0.00171,-0.08253,0.98570,9.01236,1.11355
09:14:57.807737,9.04796,0.01225,0.00000,0.00000,-0.00002,0.00084,-0.00355,0.00289,-0.00360,-0.08003,0.98503,9.03555,1.11844
09:14:57.827568,9.06780,0.00949,0.00000,0.00000,0.00288,-0.12210,-0.00278,0.00059,-0.00183,-0.08058,0.98558,9.05739,1.10379
09:14:57.839320,9.07956,0.01003,0.00000,0.00000,-0.00109,0.04614,0.00363,-0.00215,-0.00451,-0.08162,0.98472,9.06677,1.11111
09:14:57.864721,9.10496,0.01162,0.00000,0.00000,0.00105,-0.04445,0.00149,0.00044,-0.00226,-0.08308,0.98442,9.09286,1.10623
09:14:57.889053,9.12926,0.01194,0.00000,0.00000,-0.00033,0.01378,0.00333,-0.00047,-0.00262,-0.08137,0.98295,9.11553,1.11844
09:14:57.911278,9.15150,0.01154,0.00000,0.00000,-0.00170,0.07202,0.00119,0.00059,-0.00092,-0.08052,0.98283,9.13967,1.11600
09:14:57.933949,9.17418,0.01134,0.00000,0.00000,0.00044,-0.01857,-0.00080,-0.00215,-0.00018,-0.08168,0.98466,9.16125,1.12332
09:14:57.959073,9.19931,0.01247,0.00000,0.00000,-0.00017,0.00731,0.00104,0.00319,-0.00342,-0.08162,0.98149,9.18701,1.11111
09:14:57.986032,9.22626,0.01371,0.00000,0.00000,-0.00185,0.07849,0.00104,-0.00002,-0.00238,-0.08021,0.98259,9.21286,1.12088
09:14:58.011703,9.25126,0.01236,0.00000,0.00000,0.00319,-0.13504,-0.00095,0.00121,-0.00122,-0.08430,0.98283,9.23877,1.10379
09:14:58.030818,9.27105,0.01095,0.00000,0.00000,0.00166,-0.07034,-0.00110,-0.00215,-0.00085,-0.07832,0.98460,9.25956,1.10867
09:14:58.057886,9.29812,0.01270,0.00000,0.00000,-0.00048,0.02025,-0.00034,-0.00109,-0.00201,-0.08174,0.98332,9.28561,1.10867
09:14:58.084846,9.32505,0.01254,0.00000,0.00000,-0.00139,0.05908,-0.00034,0.00044,-0.00226,-0.08229,0.98295,9.31204,1.09646
09:14:58.112676,9.35222,0.01320,0.00000,0.00000,0.00120,-0.05092,0.00134,0.00044,-0.00189,-0.08253,0.98484,9.33976,1.11355
09:14:58.138088,9.37832,0.01181,0.00000,0.00000,-0.00399,0.16908,0.00394,0.00075,-0.00409,-0.08143,0.98161,9.36553,1.11355
09:14:58.162520,9.40274,0.01182,0.00000,0.00000,-0.00002,0.00084,0.00485,-0.00032,-0.00281,-0.08082,0.98381,9.38993,1.11844
09:14:58.188663,9.42889,0.01204,0.00000,0.00000,0.00090,-0.03798,0.00149,-0.00307,-0.00195,-0.08095,0.98484,9.41586,1.11844
09:14:58.213852,9.45408,0.01300,0.00000,0.00000,-0.00002,0.00084,-0.00003,-0.00124,-0.00311,-0.08259,0.98045,9.44164,1.11844
09:14:58.234143,9.47438,0.01118,0.00000,0.00000,-0.00109,0.04614,-0.00003,-0.00154,-0.00159,-0.08198,0.98356,9.46249,1.12088
09:14:58.261935,9.50217,0.01216,0.00000,0.00000,0.00090,-0.03798,-0.00019,-0.00292,-0.00256,-0.08180,0.98552,9.48900,1.12576
09:14:58.285220,9.52544,0.01102,0.00000,0.00000,-0.00139,0.05908,0.00119,0.00166,-0.00171,-0.07960,0.98527,9.51412,1.12088
09:14:58.309385,9.54962,0.01051,0.00000,0.00000,0.00090,-0.03798,0.00042,0.00105,-0.00207,-0.08107,0.98338,9.53722,1.09890
09:14:58.333107,9.57257,0.01066,0.00000,0.00000,-0.00002,0.00084,-0.00141,0.00151,-0.00348,-0.08003,0.98247,9.56047,1.11111
