Description :  ; walk_time = 2.0 ; speed_up_time = 3.0 ; balancing_time = 0.0
RealTime,Time,CalculationTime,Roll,SteeringAngle,RollRate,ControlInput,gy,gz,ax,ay,az,imu_read_timing,SteerMotorCurrent
09:17:28.417052,0.01232,0.01230,0.00000,-0.00020,0.00287,-0.12354,-0.00216,0.00704,0.02812,0.38680,0.91945,0.00001,1.31624
09:17:28.440530,0.03522,0.01122,0.00000,-0.00020,-0.00278,0.11587,-0.00124,0.00246,0.02946,0.38119,0.91732,0.02424,1.39194
09:17:28.460426,0.05570,0.01069,0.00000,-0.00020,0.00027,-0.01354,-0.00368,-0.00411,0.03044,0.38643,0.91592,0.04442,1.43101
09:17:28.483588,0.07885,0.01192,0.00000,-0.00020,0.00150,-0.06531,-0.00048,-0.00304,0.02769,0.38686,0.91817,0.06739,1.42125
09:17:28.504999,0.10026,0.01106,0.00000,-0.00020,0.00287,-0.12354,-0.00216,0.00139,0.02599,0.38302,0.92153,0.08844,1.41880
09:17:28.529155,0.12443,0.01169,0.00000,-0.00020,0.00409,-0.17531,-0.00109,0.00352,0.02898,0.39095,0.91549,0.11305,1.41148
09:17:28.552136,0.14719,0.01094,0.00000,-0.00020,0.00180,-0.07825,-0.00124,0.00093,0.02416,0.38985,0.91463,0.13674,1.42613
09:17:28.574918,0.17020,0.01118,0.00000,-0.00020,-0.00217,0.08999,0.00120,-0.00426,0.02495,0.38326,0.92128,0.15895,1.41636
09:17:28.597885,0.19316,0.01156,0.00000,-0.00020,-0.00186,0.07705,-0.00231,-0.00564,0.03044,0.38961,0.92141,0.18138,1.43101
09:17:28.620079,0.21514,0.01160,0.00000,-0.00020,-0.00064,0.02528,-0.00445,0.00139,0.03172,0.39497,0.91768,0.20404,1.39927
09:17:28.643233,0.23849,0.01107,0.00000,-0.00020,-0.00049,0.01881,-0.00048,0.00200,0.02446,0.39083,0.91286,0.22732,1.42125
09:17:28.664412,0.25875,0.01159,0.00000,-0.00020,-0.00446,0.18705,0.00151,0.00337,0.02538,0.38460,0.91878,0.24649,1.41880
09:17:28.687653,0.28294,0.01100,0.00000,-0.00020,-0.00858,0.36175,-0.00078,0.00001,0.03105,0.38991,0.91976,0.27199,1.40904
09:17:28.710291,0.30557,0.01062,0.00000,-0.00020,-0.00797,0.33587,0.00151,-0.00106,0.02885,0.39522,0.91390,0.29504,1.42857
09:17:28.733200,0.32848,0.01254,0.00000,-0.00020,-0.01133,0.47822,0.00059,-0.00152,0.02391,0.37979,0.91286,0.31704,1.42369
09:17:28.758821,0.35409,0.01344,0.00000,-0.00020,-0.00828,0.34881,0.00334,0.00658,0.03099,0.38845,0.91768,0.34249,1.41148
09:17:28.782693,0.37795,0.01184,0.00000,-0.00020,-0.00950,0.40058,0.00197,0.00520,0.02483,0.38601,0.92183,0.36612,1.38706
09:17:28.807712,0.40300,0.01200,0.00000,-0.00020,-0.00828,0.34881,0.00029,-0.00228,0.02696,0.37985,0.91537,0.39144,1.39927
09:17:28.830655,0.42591,0.01087,0.00000,-0.00020,-0.01286,0.54293,0.00304,-0.00213,0.02525,0.38753,0.91689,0.41409,1.42613
09:17:28.855462,0.45075,0.01015,0.00000,-0.00020,-0.00477,0.19999,-0.00216,0.00001,0.02641,0.38631,0.91964,0.44161,1.42613
09:17:28.877559,0.47284,0.01146,0.00000,-0.00020,-0.00293,0.12234,0.00105,0.00368,0.02635,0.37966,0.92147,0.46190,1.40659
09:17:28.900749,0.49603,0.01143,0.00000,-0.00020,-0.00492,0.20646,0.00044,0.00078,0.02586,0.38814,0.91903,0.48461,1.40904
09:17:28.924781,0.52004,0.01129,0.00000,-0.00020,-0.00538,0.22587,-0.00170,-0.00411,0.02281,0.38601,0.91567,0.50769,1.40659
09:17:28.950006,0.54527,0.01334,0.00000,-0.00020,-0.00171,0.07058,0.00166,-0.00396,0.02373,0.38338,0.91775,0.53287,1.40415
09:17:28.970748,0.56601,0.01133,0.00000,-0.00020,0.00165,-0.07178,-0.00002,0.00169,0.02458,0.38308,0.91933,0.55420,1.41880
09:17:28.993097,0.58837,0.01139,0.00000,-0.00020,0.00531,-0.22707,0.00059,0.00520,0.02940,0.38692,0.91726,0.57704,1.41880
09:17:29.017751,0.61303,0.01115,0.00000,-0.00020,0.00837,-0.35648,0.00181,0.00322,0.02635,0.37808,0.91811,0.60172,1.42369
09:17:29.042818,0.63716,0.01237,0.00000,-0.00020,0.00684,-0.29178,0.00166,-0.00213,0.02959,0.38332,0.91701,0.62653,1.41636
09:17:29.067100,0.66238,0.00964,0.00000,-0.00020,0.00883,-0.37589,-0.00109,-0.00029,0.02635,0.39217,0.91415,0.65131,1.43101
09:17:29.080573,0.67582,0.01147,0.00000,-0.00020,0.00822,-0.35001,-0.00216,-0.00213,0.02385,0.38930,0.91872,0.66381,1.45299
09:17:29.104115,0.69917,0.01027,0.00000,-0.00020,0.00531,-0.22707,-0.00048,0.00215,0.02330,0.38625,0.91781,0.68868,1.44078
09:17:29.131075,0.72634,0.01298,0.00000,-0.00020,0.00745,-0.31766,0.00319,0.00413,0.02477,0.38717,0.91768,0.71327,1.41636
09:17:29.158914,0.75392,0.01271,0.00000,-0.00020,0.00791,-0.33707,-0.00307,-0.00182,0.02312,0.39046,0.91628,0.74227,1.42613
09:17:29.178992,0.77425,0.01179,0.00000,-0.00020,0.00913,-0.38884,-0.00261,-0.00258,0.02294,0.38845,0.91878,0.76221,1.40904
09:17:29.204251,0.79950,0.01277,0.00000,-0.00020,0.01142,-0.48589,-0.00170,0.00291,0.02312,0.38643,0.91506,0.78758,1.41880
09:17:29.230996,0.82626,0.01214,0.00000,-0.00020,0.01096,-0.46648,-0.00078,0.00307,0.02599,0.39241,0.91842,0.81386,1.41392
09:17:29.256715,0.85199,0.01160,0.00000,-0.00020,0.00852,-0.36295,-0.00093,0.00398,0.02611,0.39205,0.91524,0.83952,1.42369
09:17:29.280727,0.87598,0.01136,0.00000,-0.00020,0.01020,-0.43413,-0.00048,0.00322,0.02672,0.38662,0.91628,0.86416,1.42613
09:17:29.306886,0.90215,0.01282,0.00000,-0.00020,0.00363,-0.15589,-0.00322,-0.00167,0.02641,0.39131,0.91555,0.89095,1.43101
09:17:29.330678,0.92595,0.01161,0.00000,-0.00020,0.00516,-0.22060,-0.00475,-0.00060,0.02202,0.39351,0.91890,0.91424,1.42857
09:17:29.353419,0.94868,0.01227,0.00000,-0.00020,0.00012,-0.00707,0.00105,0.00001,0.02495,0.38894,0.91872,0.93714,1.42369
09:17:29.375661,0.96966,0.00952,0.00000,-0.00020,0.00134,-0.05884,-0.00246,-0.00213,0.02141,0.39851,0.91500,0.95817,1.42857
09:17:29.387135,0.98242,0.00972,0.00000,-0.00020,-0.00034,0.01234,0.00059,-0.00335,0.02147,0.39394,0.91201,0.97065,1.43101
09:17:29.397787,0.99307,0.00935,0.00000,-0.00020,-0.00247,0.10293,0.00075,-0.00152,0.01879,0.39351,0.91347,0.98229,1.44078
09:17:29.410670,1.00542,0.01161,0.00000,-0.00020,0.00089,-0.03942,0.00075,-0.00258,0.01903,0.39046,0.91787,0.99348,1.42125
09:17:29.434758,1.03001,0.01184,0.00000,-0.00020,-0.00461,0.19352,0.00151,0.00032,0.02684,0.38637,0.91689,1.01731,1.42369
09:17:29.458792,1.05406,0.01196,0.00000,-0.00020,-0.00385,0.16116,-0.00185,0.00139,0.02733,0.40047,0.91415,1.04246,1.42613
09:17:29.480723,1.07514,0.01103,0.00000,-0.00020,-0.00202,0.08352,0.00380,0.00413,0.02867,0.38784,0.91561,1.06349,1.42857
09:17:29.506344,1.10162,0.01210,0.00000,-0.00020,-0.00996,0.41999,0.00258,0.00429,0.03221,0.38961,0.91823,1.08950,1.40904
09:17:29.529153,1.12443,0.01133,0.00000,-0.00020,-0.00645,0.27117,-0.00017,0.00444,0.02898,0.39839,0.91585,1.11269,1.43101
09:17:29.554353,1.14963,0.01387,0.00000,-0.00020,-0.00660,0.27764,-0.00368,0.00581,0.03093,0.38070,0.91482,1.13752,1.42613
09:17:29.581485,1.17604,0.01301,0.00000,-0.00020,-0.00324,0.13528,0.00136,0.00215,0.02641,0.38942,0.91579,1.16452,1.41880
09:17:29.605622,1.20091,0.01130,0.00000,-0.00020,-0.00522,0.21940,0.00075,0.00322,0.03117,0.39406,0.91598,1.18869,1.42125
09:17:29.628470,1.22373,0.01091,0.00000,-0.00020,0.00073,-0.03295,-0.00048,-0.00075,0.03019,0.38094,0.91439,1.21217,1.42613
09:17:29.651571,1.24683,0.01163,0.00000,-0.00020,0.00226,-0.09766,0.00044,0.00032,0.03062,0.38442,0.91726,1.23500,1.42125
09:17:29.675785,1.27108,0.00993,0.00000,-0.00020,0.00516,-0.22060,0.00075,0.00108,0.03154,0.39400,0.91677,1.26238,1.42369
09:17:29.687621,1.28290,0.00988,0.00000,-0.00020,0.00592,-0.25295,0.00120,0.00154,0.03032,0.39168,0.91762,1.27193,1.43101
09:17:29.700644,1.29588,0.01132,0.00000,-0.00020,0.00745,-0.31766,-0.00246,-0.00228,0.02623,0.38735,0.91811,1.28364,1.41636
09:17:29.726579,1.32141,0.01205,0.00000,-0.00020,-0.00202,0.08352,0.00288,-0.00167,0.03013,0.38790,0.91573,1.30911,1.41392
09:17:29.749533,1.34481,0.01117,0.00000,-0.00020,0.00455,-0.19472,-0.00032,-0.00029,0.02477,0.39369,0.91531,1.33283,1.40415
09:17:29.773629,1.36892,0.01090,0.00000,-0.00020,-0.00247,0.10293,0.00044,0.00200,0.02702,0.39107,0.91640,1.35922,1.44567
09:17:29.793693,1.38897,0.01059,0.00000,-0.00020,-0.00339,0.14175,-0.00246,0.00078,0.02550,0.38601,0.91506,1.37776,1.42369
09:17:29.820263,1.41552,0.01313,0.00000,-0.00020,-0.00568,0.23881,0.00151,-0.00167,0.02477,0.39601,0.91811,1.40356,1.44811
09:17:29.845389,1.44066,0.01290,0.00000,-0.00020,-0.00415,0.17411,0.00120,0.00215,0.02812,0.39321,0.91659,1.42819,1.43590
09:17:29.869953,1.46472,0.01138,0.00000,-0.00020,-0.00629,0.26469,0.00227,0.00016,0.02330,0.38253,0.91347,1.45281,1.43590
09:17:29.896545,1.49179,0.01228,0.00000,-0.00020,-0.00583,0.24528,0.00212,0.00108,0.02635,0.40138,0.91945,1.47990,1.41636
09:17:29.922827,1.51811,0.01139,0.00000,-0.00020,0.00043,-0.02001,0.00059,0.00169,0.03270,0.38881,0.91921,1.50708,1.43590
09:17:29.947218,1.54250,0.01343,0.00000,-0.00020,-0.00186,0.07705,-0.00399,0.00276,0.02757,0.38113,0.91250,1.53017,1.42613
09:17:29.972788,1.56807,0.01183,0.00000,-0.00020,-0.00415,0.17411,0.00181,0.00704,0.03080,0.40083,0.91610,1.55652,1.44322
09:17:29.993665,1.58894,0.01186,0.00000,-0.00020,-0.00049,0.01881,0.00151,0.00994,0.03703,0.38650,0.91781,1.57684,1.23810
09:17:30.022132,1.61668,0.01355,0.00000,0.00099,-0.00339,0.15327,-0.00048,0.01727,0.02562,0.38448,0.91860,1.60420,1.45055
09:17:30.043728,1.63897,0.00805,0.00000,0.00436,-0.00645,0.31532,0.00258,0.00734,0.03178,0.40937,0.90975,1.62871,1.44078
09:17:30.055470,1.65075,0.00985,0.00000,0.00594,-0.00965,0.46656,0.00227,0.00505,0.02470,0.39803,0.91347,1.63906,1.44078
09:17:30.067101,1.66238,0.01033,0.00000,0.00784,-0.01378,0.65964,-0.00017,-0.00029,0.02373,0.39308,0.91616,1.65061,1.40415
09:17:30.094890,1.68995,0.01314,0.00000,0.01217,-0.01576,0.78572,0.00380,0.00200,0.02196,0.37545,0.92128,1.67764,1.42369
09:17:30.121083,1.71634,0.01191,0.00000,0.01622,-0.01210,0.66964,0.00212,0.01544,0.01848,0.40321,0.91726,1.70411,1.43101
09:17:30.142912,1.73752,0.01068,0.00000,0.01905,-0.01179,0.68413,-0.00124,0.02017,0.01885,0.38808,0.90664,1.72642,1.35043
09:17:30.170642,1.76565,0.01307,0.00000,0.02134,-0.00736,0.51869,0.00334,0.00872,0.01690,0.37735,0.92220,1.75313,1.36020
09:17:30.194997,1.79026,0.01164,0.00000,0.02309,-0.01469,0.84629,0.00456,0.00337,0.02690,0.38460,0.92263,1.77749,1.44078
09:17:30.220127,1.81519,0.01247,0.00000,0.02496,-0.01744,0.98086,-0.00017,0.00322,0.03099,0.39333,0.91256,1.80404,1.48718
09:17:30.245481,1.84076,0.01207,0.00000,0.02612,-0.00813,0.59740,0.00472,0.00261,0.03642,0.37674,0.91335,1.82861,1.23810
09:17:30.268881,1.86414,0.01300,0.00000,0.02646,-0.00751,0.57481,-0.00002,0.00413,0.02782,0.37893,0.92214,1.85252,0.67399
09:17:30.294579,1.88986,0.01101,0.00000,0.02646,-0.00690,0.54892,0.00105,0.00673,0.03068,0.38857,0.91524,1.87824,1.38462
09:17:30.319381,1.91466,0.01285,0.00000,0.02646,-0.00385,0.41951,-0.00063,0.00184,0.03251,0.38418,0.91360,1.90311,1.41392
09:17:30.343691,1.93897,0.01304,0.00000,0.02646,-0.00568,0.49716,0.00105,-0.00381,0.03300,0.37417,0.91958,1.92651,1.39927
09:17:30.367759,1.96303,0.01185,0.00000,0.02646,-0.00171,0.32892,-0.00261,-0.00381,0.03331,0.38863,0.91903,1.95115,1.40904
09:17:30.391758,1.98703,0.01111,0.00000,0.02646,0.00516,0.03775,-0.00109,0.00016,0.03184,0.38582,0.91518,1.97523,1.41880
09:17:30.415294,2.01056,0.01060,0.00000,0.02646,0.00638,-0.01402,-0.00200,0.00429,0.03019,0.38656,0.91506,1.99953,1.43101
09:17:30.441090,2.03637,0.01214,0.00000,0.02646,0.00608,-0.00108,-0.00170,-0.00213,0.02904,0.39626,0.91750,2.02464,1.41148
09:17:30.466397,2.06141,0.01111,0.00000,0.02646,0.00822,-0.09167,-0.00368,-0.00243,0.03032,0.38241,0.91805,2.04919,1.42857
09:17:30.491192,2.08647,0.01298,0.00000,0.02646,0.00699,-0.03990,-0.00078,0.00047,0.02983,0.39217,0.91079,2.07527,1.41880
09:17:30.515174,2.11042,0.01279,0.00000,0.02646,0.01219,-0.25990,-0.00216,0.00429,0.03440,0.39375,0.91890,2.09823,1.45055
09:17:30.538995,2.13428,0.01148,0.00000,0.02646,0.00654,-0.02049,-0.00322,0.00688,0.02562,0.38064,0.92195,2.12377,1.39683
09:17:30.564979,2.16022,0.01167,0.00000,0.02646,-0.00278,0.37422,-0.00124,-0.00045,0.01830,0.38460,0.91286,2.14754,1.38462
09:17:30.592251,2.18752,0.01496,0.00000,0.02646,-0.00370,0.41304,0.00120,-0.00594,0.02330,0.39247,0.91146,2.17511,1.39438
09:17:30.617424,2.21270,0.01173,0.00000,0.02646,-0.00125,0.30951,0.00090,-0.00533,0.02263,0.38296,0.92098,2.20057,1.40904
09:17:30.642230,2.23751,0.01186,0.00000,0.02646,-0.00629,0.52304,-0.00674,-0.00136,0.01543,0.37881,0.91128,2.22723,1.42125
09:17:30.666453,2.26171,0.01120,0.00000,0.02646,-0.00782,0.58775,-0.00078,-0.00106,0.02092,0.39876,0.90744,2.24908,1.36996
09:17:30.693651,2.28870,0.01323,0.00000,0.02646,-0.00232,0.35480,-0.00048,-0.00274,0.03514,0.40339,0.92080,2.27675,1.41880
09:17:30.711755,2.30704,0.00983,0.00000,0.02646,-0.00018,0.26422,-0.00154,0.00123,0.02861,0.41065,0.93836,2.29676,1.41392
09:17:30.724521,2.31980,0.01102,0.00000,0.02646,0.00699,-0.03990,0.00044,0.00520,0.02672,0.39247,0.92336,2.30797,1.42613
09:17:30.747506,2.34279,0.01060,0.00000,0.02646,0.00027,0.24480,0.00059,0.00963,0.02843,0.38436,0.89914,2.33182,1.43346
09:17:30.770975,2.36625,0.01189,0.00000,0.02646,0.00638,-0.01402,0.00120,0.01024,0.02519,0.42145,0.91512,2.35420,1.40659
09:17:30.795416,2.39070,0.01057,0.00000,0.02646,0.00699,-0.03990,0.00029,0.00139,0.03910,0.39174,0.92507,2.37977,1.42613
09:17:30.815581,2.40979,0.01094,0.00000,0.02646,0.00424,0.07657,-0.00002,0.00413,0.02318,0.38040,0.92250,2.39840,1.41880
09:17:30.839357,2.43461,0.01107,0.00000,0.02646,0.00852,-0.10461,-0.00185,0.00795,0.02836,0.39766,0.90762,2.42296,1.41636
09:17:30.862058,2.45734,0.01074,0.00000,0.02646,0.00440,0.07010,-0.00078,0.00765,0.02135,0.36191,0.91854,2.44670,1.40659
09:17:30.886104,2.48138,0.01242,0.00000,0.02646,0.00089,0.21892,-0.00292,-0.00518,0.03361,0.36838,0.92134,2.46921,1.40171
09:17:30.910211,2.50549,0.01236,0.00000,0.02646,-0.00415,0.43245,-0.00231,-0.00778,0.03087,0.39491,0.92165,2.49438,1.40415
09:17:30.936647,2.53189,0.01340,0.00000,0.02646,-0.00110,0.30304,-0.00078,-0.00793,0.02355,0.39162,0.90994,2.51972,1.43101
09:17:30.960919,2.55621,0.01204,0.00000,0.02646,0.00913,-0.13049,-0.00017,0.00139,0.02739,0.39125,0.91372,2.54454,1.43101
09:17:30.984064,2.57912,0.01238,0.00000,0.02646,0.00195,0.17363,-0.00292,0.00261,0.02355,0.38345,0.92330,2.56662,1.42369
09:17:31.005152,2.60044,0.01053,0.00000,0.02646,0.00715,-0.04637,0.00212,-0.00304,0.02727,0.38290,0.91018,2.59112,1.41392
09:17:31.029174,2.62442,0.01259,0.00000,0.02646,0.01020,-0.17578,0.00197,-0.00320,0.02507,0.40504,0.91146,2.61225,1.42857
09:17:31.055664,2.65040,0.00980,0.00000,0.02646,0.01066,-0.19520,-0.00200,0.00230,0.03026,0.39107,0.91945,2.63992,1.43346
09:17:31.066102,2.66139,0.00922,0.00000,0.02646,0.01341,-0.31167,-0.00017,0.00643,0.02202,0.39400,0.92000,2.65005,1.43101
09:17:31.078236,2.67352,0.01117,0.00000,0.02646,0.01341,-0.31167,-0.00078,0.01009,0.02159,0.39479,0.91408,2.66214,1.40904
09:17:31.102799,2.69808,0.01009,0.00000,0.02646,0.00959,-0.14990,-0.00002,0.00749,0.02220,0.39925,0.90957,2.68640,1.41880
09:17:31.130006,2.72527,0.01159,0.00000,0.02646,-0.00064,0.28363,-0.00292,-0.00411,0.02166,0.38369,0.91659,2.71344,1.43834
09:17:31.154318,2.74960,0.01206,0.00000,0.02646,0.00027,0.24480,0.00197,-0.00426,0.02208,0.40711,0.91268,2.73862,1.41148
09:17:31.180103,2.77451,0.01169,0.00000,0.02646,-0.00461,0.45186,-0.00292,0.00429,0.02050,0.40047,0.91921,2.76237,1.40904
09:17:31.206777,2.80146,0.01318,0.00000,0.02646,-0.00538,0.48422,0.00029,0.00597,0.02452,0.39150,0.91384,2.78934,1.42369
09:17:31.225120,2.81960,0.00896,0.00000,0.02646,-0.00843,0.61363,0.00456,0.00062,0.01867,0.40376,0.91250,2.81048,1.40659
09:17:31.235428,2.83071,0.00955,0.00000,0.02646,-0.00645,0.52951,-0.00048,-0.00152,0.02074,0.40577,0.91366,2.81964,1.40415
09:17:31.248818,2.84369,0.01107,0.00000,0.02646,-0.00415,0.43245,0.00319,0.00093,0.02147,0.39504,0.91219,2.83177,1.40904
09:17:31.270094,2.86538,0.01148,0.00000,0.02646,-0.00538,0.48422,0.00166,0.00047,0.02885,0.38485,0.91372,2.85370,1.39438
09:17:31.297510,2.89279,0.01171,0.00000,0.02646,-0.00415,0.43245,-0.00460,0.00139,0.02922,0.39388,0.91768,2.88059,1.41636
09:17:31.321394,2.91668,0.01076,0.00000,0.02646,-0.00217,0.34833,-0.00002,0.00719,0.02782,0.39937,0.91884,2.90435,1.41148
09:17:31.342773,2.93806,0.01117,0.00000,0.02646,-0.00141,0.31598,-0.00032,0.00078,0.03544,0.39558,0.90603,2.92713,1.44322
09:17:31.367405,2.96266,0.01105,0.00000,0.02646,-0.00431,0.43892,-0.00231,0.00016,0.02464,0.38540,0.92055,2.95041,1.41636
09:17:31.390545,2.98582,0.01131,0.00000,0.02646,0.00455,0.06363,0.00075,-0.00197,0.03148,0.38021,0.91738,2.97444,1.45299
09:17:31.417581,3.01198,0.01241,0.00000,0.02646,-0.00018,0.26422,-0.00002,0.00261,0.03630,0.39565,0.91732,3.00098,1.39927
09:17:31.441513,3.03678,0.01152,0.00000,0.02646,-0.00156,0.32245,0.00136,-0.00136,0.03501,0.38723,0.91049,3.02495,1.41880
09:17:31.466810,3.06209,0.01120,0.00000,0.02646,-0.00141,0.31598,-0.00185,0.00383,0.02105,0.39412,0.91897,3.05041,1.42857
09:17:31.490139,3.08542,0.01164,0.00000,0.02646,-0.00293,0.38069,0.00151,0.00444,0.03202,0.39912,0.91604,3.07392,1.40415
09:17:31.516393,3.11168,0.01066,0.00000,0.02646,-0.00293,0.38069,-0.00261,0.00459,0.02818,0.38851,0.91683,3.10099,1.41148
09:17:31.541164,3.13645,0.01288,0.00000,0.02646,-0.00324,0.39363,-0.00109,0.00108,0.02861,0.38265,0.91354,3.12469,1.40904
09:17:31.563586,3.15888,0.01070,0.00000,0.02646,-0.00385,0.41951,-0.00124,-0.00182,0.02391,0.39583,0.91860,3.14977,1.41880
09:17:31.589881,3.18516,0.01271,0.00000,0.02646,-0.00324,0.39363,0.00044,-0.00029,0.03648,0.39205,0.91488,3.17304,1.41636
09:17:31.614810,3.21010,0.01091,0.00000,0.02646,-0.00293,0.38069,0.00212,0.00383,0.02117,0.39003,0.91238,3.19918,1.43101
09:17:31.640572,3.23585,0.01141,0.00000,0.02646,-0.00125,0.30951,-0.00109,-0.00136,0.03032,0.38857,0.91427,3.22426,1.39927
09:17:31.665268,3.26055,0.01147,0.00000,0.02646,0.00043,0.23833,-0.00216,-0.00197,0.02483,0.39668,0.91976,3.25005,1.41392
09:17:31.691136,3.28639,0.01405,0.00000,0.02646,-0.00202,0.34186,-0.00353,-0.00426,0.03141,0.39089,0.91018,3.27200,1.41636
09:17:31.716146,3.31122,0.01160,0.00000,0.02646,0.00226,0.16069,-0.00139,-0.00167,0.02355,0.39540,0.91335,3.29998,1.39683
09:17:31.734281,3.32956,0.01098,0.00000,0.02646,0.00058,0.23186,-0.00124,-0.00045,0.03117,0.39205,0.91640,3.31793,1.43346
09:17:31.759169,3.35446,0.01257,0.00000,0.02646,0.00302,0.12833,-0.00124,0.00230,0.03276,0.39388,0.91994,3.34340,1.41148
09:17:31.783159,3.37845,0.01028,0.00000,0.02646,0.00333,0.11539,-0.00200,0.00520,0.02562,0.38393,0.91323,3.36873,1.40659
09:17:31.810494,3.40578,0.01235,0.00000,0.02646,0.00104,0.21245,-0.00170,0.00016,0.02373,0.39308,0.91225,3.39449,1.41880
09:17:31.834044,3.42933,0.01102,0.00000,0.02646,-0.00309,0.38716,0.00014,-0.00121,0.03074,0.40986,0.91408,3.41679,1.41880
09:17:31.857212,3.45249,0.01187,0.00000,0.02646,-0.00125,0.30951,0.00258,-0.00381,0.02806,0.39327,0.91683,3.44062,1.42857
09:17:31.881446,3.47672,0.01138,0.00000,0.02646,-0.00232,0.35480,-0.00368,0.00108,0.02294,0.39845,0.91183,3.46500,1.42369
09:17:31.903541,3.49847,0.01177,0.00000,0.02646,-0.00293,0.38069,-0.00109,0.00734,0.01964,0.39558,0.91506,3.48652,1.41148
09:17:31.927390,3.52267,0.01093,0.00000,0.02646,-0.00018,0.26422,-0.00078,0.00658,0.03062,0.39717,0.91439,3.51153,1.43590
09:17:31.950725,3.54598,0.01134,0.00000,0.02646,0.00089,0.21892,-0.00750,0.00536,0.02483,0.37881,0.91402,3.53418,1.41392
09:17:31.973310,3.56830,0.01152,0.00000,0.02646,-0.00385,0.41951,-0.00093,-0.00014,0.02562,0.39192,0.92055,3.55660,1.39683
09:17:31.998210,3.59348,0.01225,0.00000,0.02646,-0.00339,0.40010,0.00181,-0.00167,0.02928,0.40236,0.91335,3.58159,1.38462
09:17:32.021652,3.61692,0.01248,0.00000,0.02649,0.00150,0.19331,0.00044,0.00047,0.02605,0.39077,0.91494,3.60443,3.12088
09:17:32.041329,3.63661,0.01125,0.00000,0.02649,-0.00110,0.30331,-0.00048,-0.00060,0.02934,0.38656,0.91793,3.62545,3.14530
09:17:32.064947,3.66019,0.01096,0.00000,0.02649,0.00012,0.25155,-0.00078,-0.00274,0.02227,0.39546,0.91762,3.64800,3.14042
09:17:32.088609,3.68386,0.01124,0.00000,0.02649,0.00577,0.01214,0.00059,-0.00365,0.03062,0.39540,0.91201,3.67189,3.14042
09:17:32.113346,3.70863,0.01284,0.00000,0.02649,0.00119,0.20626,0.00044,-0.00075,0.02562,0.38967,0.91726,3.69681,3.13797
09:17:32.136267,3.73153,0.01112,0.00000,0.02649,-0.00263,0.36802,-0.00277,-0.00045,0.02721,0.40236,0.91506,3.72055,3.15018
09:17:32.161261,3.75652,0.01101,0.00000,0.02649,0.00715,-0.04610,-0.00170,0.00123,0.02269,0.39205,0.91439,3.74487,3.15018
09:17:32.186840,3.78212,0.01289,0.00000,0.02649,0.00577,0.01214,-0.00063,0.00016,0.02727,0.38534,0.91823,3.76981,3.14530
09:17:32.213092,3.80836,0.01363,0.00000,0.02649,0.00348,0.10920,-0.00536,-0.00136,0.03989,0.39790,0.91207,3.79646,3.14774
09:17:32.234289,3.82958,0.00843,0.00000,0.02649,0.00119,0.20626,0.00029,0.00078,0.04075,0.38021,0.90256,3.82125,3.14042
09:17:32.247118,3.84240,0.01004,0.00000,0.02649,0.01005,-0.16904,-0.00200,0.00612,0.03038,0.37979,0.90670,3.83136,3.14774
09:17:32.273344,3.86862,0.01210,0.00000,0.02649,-0.00003,0.25802,-0.00002,0.00078,0.02556,0.38107,0.91512,3.85574,3.14530
09:17:32.298966,3.89424,0.01013,0.00000,0.02649,0.00226,0.16096,0.00166,-0.00121,0.03385,0.41090,0.91384,3.88333,3.14286
09:17:32.324138,3.91920,0.01231,0.00000,0.02649,0.00195,0.17390,0.00136,-0.00381,0.02105,0.39363,0.91451,3.90753,3.14530
09:17:32.344244,3.93952,0.00912,0.00000,0.02649,-0.00263,0.36802,0.00136,-0.00442,0.03428,0.40175,0.91268,3.92883,3.14530
09:17:32.354799,3.95008,0.00947,0.00000,0.02649,0.00134,0.19979,0.00029,-0.00243,0.02580,0.40199,0.91250,3.93953,3.15263
09:17:32.367315,3.96259,0.01003,0.00000,0.02649,0.00257,0.14802,0.00075,-0.00136,0.02068,0.40467,0.92287,3.95134,3.14286
09:17:32.389899,3.98518,0.01110,0.00000,0.02649,-0.00324,0.39390,-0.00246,0.00520,0.02568,0.40681,0.91775,3.97383,3.14530
09:17:32.415251,4.01028,0.01158,0.00000,0.02649,-0.00141,0.31626,-0.00109,0.00032,0.01470,0.39412,0.90567,3.99826,3.14774
09:17:32.438742,4.03404,0.00975,0.00000,0.02649,-0.00461,0.45214,-0.00231,-0.00075,0.02483,0.39443,0.90945,4.02513,3.13553
09:17:32.451451,4.04671,0.01197,0.00000,0.02649,-0.00614,0.51684,0.00227,0.00047,0.02568,0.40053,0.91640,4.03450,3.14774
09:17:32.477464,4.07274,0.01196,0.00000,0.02649,-0.00919,0.64626,0.00090,0.00291,0.02806,0.40053,0.91976,4.06058,3.14774
09:17:32.500134,4.09489,0.00923,0.00000,0.02649,-0.01378,0.84037,-0.00032,0.00337,0.02153,0.40223,0.90878,4.08561,3.14774
09:17:32.512223,4.10749,0.01062,0.00000,0.02649,-0.01011,0.68508,0.00075,0.00078,0.01915,0.40492,0.91006,4.09593,3.13553
09:17:32.535665,4.13095,0.01136,0.00000,0.02649,-0.01591,0.93096,0.00136,0.00291,0.02373,0.39138,0.91299,4.11983,3.13797
09:17:32.556255,4.15152,0.01188,0.00000,0.02649,-0.01668,0.96331,-0.00200,-0.00029,0.02452,0.39595,0.91750,4.13979,3.14042
09:17:32.583009,4.17829,0.01391,0.00000,0.02649,-0.01179,0.75626,0.00136,0.00322,0.03282,0.38991,0.91567,4.16591,3.14286
09:17:32.607636,4.20290,0.01142,0.00000,0.02649,-0.00690,0.54920,-0.00322,0.00383,0.03050,0.39314,0.91183,4.19135,3.14042
09:17:32.634156,4.22943,0.01155,0.00000,0.02652,-0.00675,0.54300,-0.00216,0.00093,0.03154,0.39809,0.91592,4.21753,1.47985
09:17:32.658820,4.25358,0.01200,0.00000,0.02652,-0.00583,0.50418,-0.00109,0.00032,0.02757,0.38741,0.92055,4.24136,1.41636
09:17:32.682378,4.27766,0.01077,0.00000,0.02652,-0.00568,0.49771,0.00181,0.00123,0.03440,0.39180,0.91225,4.26643,1.42369
09:17:32.704575,4.29986,0.00959,0.00000,0.02652,-0.00095,0.29712,-0.00002,-0.00090,0.03294,0.39479,0.91390,4.28992,1.41148
09:17:32.718016,4.31329,0.01271,0.00000,0.02652,-0.00202,0.34241,-0.00475,-0.00075,0.03337,0.39375,0.91573,4.30128,1.42857
09:17:32.741758,4.33704,0.01043,0.00000,0.02652,0.00195,0.17418,-0.00185,-0.00365,0.03257,0.38924,0.91738,4.32668,1.41392
09:17:32.760281,4.35552,0.01112,0.00000,0.02652,0.00073,0.22594,-0.00063,-0.00136,0.02794,0.38826,0.91183,4.34343,1.41880
09:17:32.786588,4.38098,0.01309,0.00000,0.02652,-0.00171,0.32947,-0.00002,-0.00136,0.03276,0.39864,0.91329,4.36872,1.42125
09:17:32.806670,4.40196,0.00934,0.00000,0.02652,0.00592,0.00594,0.00059,0.00078,0.02971,0.38625,0.91848,4.39188,1.41148
09:17:32.819004,4.41429,0.01161,0.00000,0.02652,0.00440,0.07065,0.00426,-0.00320,0.03001,0.39199,0.91598,4.40252,1.41392
09:17:32.844156,4.43922,0.01157,0.00000,0.02652,-0.00064,0.28418,-0.00292,-0.00121,0.02574,0.39327,0.91390,4.42749,1.41148
09:17:32.861893,4.45718,0.01006,0.00000,0.02652,0.00257,0.14829,-0.00078,0.00062,0.02446,0.40278,0.91415,4.44743,1.39683
09:17:32.889560,4.48484,0.01364,0.00000,0.02652,-0.00064,0.28418,0.00029,-0.00472,0.02324,0.39107,0.91091,4.47272,1.43834
09:17:32.909600,4.50489,0.00963,0.00000,0.02652,-0.00156,0.32300,-0.00048,-0.00167,0.02458,0.39571,0.91604,4.49518,1.40904
09:17:32.922610,4.51789,0.01102,0.00000,0.02652,-0.00125,0.31006,0.00014,0.00200,0.02336,0.39809,0.91951,4.50595,1.40415
09:17:32.947280,4.54256,0.01039,0.00000,0.02652,-0.00415,0.43300,0.00319,0.00154,0.02159,0.39583,0.91305,4.53177,1.41880
09:17:32.970621,4.56590,0.01077,0.00000,0.02652,0.00119,0.20653,-0.00170,-0.00014,0.02129,0.39583,0.91134,4.55446,1.39194
09:17:32.996458,4.59173,0.01087,0.00000,0.02652,-0.00263,0.36829,0.00395,-0.00136,0.02330,0.39668,0.91842,4.58031,1.42613
09:17:33.022070,4.61735,0.01285,0.00000,0.02652,0.00058,0.23241,-0.00109,0.00215,0.02538,0.39247,0.91573,4.60518,1.42369
09:17:33.048939,4.64421,0.01358,0.00000,0.02652,-0.00141,0.31653,-0.00368,0.00200,0.02312,0.39461,0.91439,4.63231,1.39438
09:17:33.068211,4.66326,0.01165,0.00000,0.02652,-0.00522,0.47829,0.00014,-0.00014,0.02452,0.39705,0.91750,4.65121,1.41392
09:17:33.095228,4.68949,0.01275,0.00000,0.02652,-0.00064,0.28418,-0.00292,0.00001,0.02867,0.39229,0.91201,4.67854,1.38950
09:17:33.116491,4.71176,0.01036,0.00000,0.02652,-0.00675,0.54300,-0.00032,-0.00029,0.02916,0.39247,0.91250,4.70124,1.41636
09:17:33.141524,4.73680,0.01294,0.00000,0.02652,-0.00919,0.64653,-0.00002,0.00230,0.02769,0.39668,0.91823,4.72494,1.42369
09:17:33.165117,4.76040,0.01260,0.00000,0.02652,-0.00354,0.40712,0.00319,0.00490,0.03337,0.39107,0.91311,4.74827,1.40904
09:17:33.191049,4.78630,0.01165,0.00000,0.02652,-0.00492,0.46535,0.00136,0.00139,0.02836,0.39760,0.91402,4.77493,1.43346
09:17:33.215140,4.81040,0.01144,0.00000,0.02652,0.00165,0.18712,-0.00032,0.00062,0.02904,0.39809,0.91756,4.79803,1.42857
09:17:33.239299,4.83410,0.00937,0.00000,0.02652,-0.00232,0.35535,-0.00246,-0.00106,0.02769,0.38662,0.91433,4.82374,1.41636
09:17:33.250492,4.84576,0.01003,0.00000,0.02652,-0.00049,0.27771,-0.00139,0.00062,0.02361,0.38961,0.91347,4.83439,1.41636
09:17:33.271046,4.86596,0.01115,0.00000,0.02652,-0.00232,0.35535,-0.00154,-0.00411,0.03294,0.40278,0.91463,4.85420,1.42369
09:17:33.296355,4.89097,0.01283,0.00000,0.02652,0.00027,0.24535,0.00151,-0.00320,0.02330,0.39278,0.91323,4.87913,1.40904
09:17:33.318052,4.91334,0.01133,0.00000,0.02652,-0.00232,0.35535,-0.00017,-0.00106,0.02946,0.38369,0.91531,4.90218,1.41148
09:17:33.342293,4.93704,0.01284,0.00000,0.02652,-0.00415,0.43300,-0.00322,0.00307,0.02678,0.40589,0.91494,4.92515,1.41636
09:17:33.365699,4.96098,0.01014,0.00000,0.02652,0.00424,0.07712,0.00319,0.00001,0.03044,0.40248,0.91195,4.95005,1.41148
09:17:33.389016,4.98429,0.01185,0.00000,0.02652,0.00165,0.18712,-0.00170,-0.00197,0.02544,0.38662,0.91506,4.97280,1.43101
09:17:33.415242,5.01051,0.01495,0.00000,0.02652,-0.00186,0.33594,0.00105,-0.00365,0.02916,0.39748,0.91665,4.99696,1.43346
09:17:33.439272,5.03405,0.01149,0.00000,0.02652,-0.00141,0.31653,0.00304,0.00016,0.02806,0.39888,0.91152,5.02156,1.40904
09:17:33.462153,5.05744,0.01020,0.00000,0.02652,-0.00461,0.45241,0.00059,0.00230,0.02519,0.39138,0.91274,5.04793,1.43346
09:17:33.486114,5.08087,0.01152,0.00000,0.02652,-0.00186,0.33594,-0.00032,-0.00045,0.02708,0.39156,0.91470,5.06960,1.41636
09:17:33.509654,5.10493,0.00991,0.00000,0.02652,-0.00522,0.47829,0.00380,0.00001,0.02818,0.39577,0.91628,5.09524,1.42125
09:17:33.521411,5.11669,0.01100,0.00000,0.02652,-0.00354,0.40712,-0.00032,0.00551,0.02989,0.39638,0.91250,5.10476,1.43590
09:17:33.548087,5.14294,0.01334,0.00000,0.02652,-0.00278,0.37477,0.00029,0.00123,0.02800,0.39382,0.91323,5.13134,1.41880
09:17:33.568737,5.16402,0.00767,0.00000,0.02652,-0.00431,0.43947,-0.00154,0.00032,0.02952,0.39784,0.91164,5.15438,1.44811
09:17:33.580959,5.17624,0.00933,0.00000,0.02652,0.00180,0.18065,0.00166,0.00261,0.02470,0.39662,0.91494,5.16514,1.41636
09:17:33.593951,5.18896,0.01129,0.00000,0.02652,-0.00202,0.34241,0.00288,0.00276,0.02599,0.39199,0.91470,5.17579,1.43101
09:17:33.617887,5.21317,0.01222,0.00000,0.02652,-0.00354,0.40712,-0.00216,0.00062,0.02751,0.39418,0.91286,5.20113,1.43834
09:17:33.639725,5.23500,0.01178,0.00000,0.02652,-0.00599,0.51065,-0.00017,-0.00152,0.02617,0.39821,0.91506,5.22266,1.44078
09:17:33.664828,5.26011,0.01203,0.00000,0.02652,-0.00370,0.41359,0.00411,0.00078,0.02904,0.39192,0.91579,5.24791,1.41392
09:17:33.691113,5.28611,0.01347,0.00000,0.02652,-0.00186,0.33594,-0.00048,0.00429,0.02824,0.39046,0.91427,5.27371,1.45299
09:17:33.713638,5.30891,0.01029,0.00000,0.02652,-0.00049,0.27771,0.00044,0.00200,0.03117,0.39803,0.91646,5.29760,1.39683
09:17:33.737817,5.33231,0.01234,0.00000,0.02652,-0.00171,0.32947,-0.00353,0.00001,0.03001,0.39815,0.91537,5.32012,1.42369
09:17:33.762761,5.35767,0.01293,0.00000,0.02652,-0.00477,0.45888,-0.00399,-0.00121,0.03093,0.39235,0.91042,5.34588,1.44078
09:17:33.783125,5.37750,0.01039,0.00000,0.02652,-0.00431,0.43947,-0.00139,-0.00182,0.03276,0.39613,0.91402,5.36634,1.40659
09:17:33.808822,5.40318,0.01134,0.00000,0.02652,-0.00064,0.28418,0.00044,-0.00152,0.02867,0.39668,0.91762,5.39204,1.40659
09:17:33.830705,5.42599,0.00977,0.00000,0.02652,-0.00217,0.34888,-0.00078,0.00337,0.02666,0.39247,0.91140,5.41630,1.43346
09:17:33.843544,5.43881,0.01209,0.00000,0.02652,-0.00492,0.46535,0.00044,-0.00228,0.02611,0.39272,0.91250,5.42718,1.43346
09:17:33.868643,5.46388,0.01197,0.00000,0.02652,-0.00202,0.34241,-0.00277,0.00291,0.02775,0.40303,0.91518,5.45250,1.44078
09:17:33.889268,5.48455,0.01149,0.00000,0.02652,0.00012,0.25182,-0.00261,0.00016,0.02867,0.39363,0.91408,5.47281,1.39683
09:17:33.915580,5.51084,0.01315,0.00000,0.02652,0.00226,0.16124,0.00014,-0.00029,0.02538,0.38704,0.91244,5.49924,1.42369
09:17:33.938201,5.53349,0.01064,0.00000,0.02652,-0.00278,0.37477,0.00227,-0.00197,0.02629,0.39864,0.91506,5.52262,1.41636
09:17:33.961933,5.55721,0.01187,0.00000,0.02652,0.00455,0.06418,-0.00124,-0.00228,0.02251,0.39418,0.91463,5.54542,1.39683
09:17:33.985540,5.58082,0.01229,0.00000,0.02652,0.00898,-0.12347,-0.00109,-0.00182,0.02434,0.38564,0.91164,5.56989,1.40904
09:17:34.010822,5.60609,0.01161,0.00000,0.02652,0.00898,-0.12347,-0.00078,-0.00060,0.02361,0.39638,0.91640,5.59427,1.41880
09:17:34.035090,5.63037,0.01155,0.00000,0.02652,0.01142,-0.22700,-0.00048,0.00032,0.02849,0.39717,0.91470,5.61842,1.40659
09:17:34.061446,5.65622,0.01160,0.00000,0.02652,0.00913,-0.12994,-0.00032,-0.00213,0.02446,0.38948,0.91628,5.64439,1.43834
09:17:34.084818,5.68008,0.01162,0.00000,0.02652,-0.00309,0.38771,-0.00322,-0.00213,0.02763,0.40711,0.91421,5.66813,1.41148
09:17:34.110935,5.70620,0.01309,0.00000,0.02652,-0.01484,0.88594,-0.00078,-0.00106,0.02287,0.40565,0.91030,5.69455,1.40415
09:17:34.134163,5.72944,0.01049,0.00000,0.02652,-0.03103,1.57182,0.00502,0.00215,0.02959,0.41480,0.91036,5.71810,1.41392
09:17:34.157306,5.75259,0.01125,0.00000,0.02652,-0.05562,2.61359,0.00411,0.00337,0.02580,0.42706,0.91103,5.74114,1.42125
09:17:34.181931,5.77722,0.01155,0.00000,0.02655,-0.07929,3.61681,0.00548,0.00520,0.02928,0.42877,0.90969,5.76578,0.43223
09:17:34.208661,5.80393,0.01227,0.00000,0.02694,-0.11533,5.14770,0.00502,0.01238,0.03019,0.43066,0.91280,5.79162,1.39194
09:17:34.231395,5.82667,0.01071,0.00000,0.02796,-0.15351,6.77522,0.01235,0.01376,0.03135,0.42511,0.91665,5.81619,1.31136
09:17:34.253956,5.84895,0.01188,0.00000,0.02935,-0.18711,8.21219,0.01159,0.01085,0.02300,0.41992,0.91225,5.83732,1.36996
09:17:34.278992,5.87427,0.01344,0.00000,0.03085,-0.21643,9.46908,0.01693,0.00566,0.02641,0.41565,0.90506,5.86229,1.39927
09:17:34.299574,5.89486,0.01088,0.00000,0.03193,-0.24621,10.74127,0.01846,0.01131,0.02227,0.40114,0.91573,5.88383,1.31136
09:17:34.323710,5.91899,0.01229,0.00000,0.03314,-0.26652,11.61365,0.02472,0.01864,0.03080,0.38845,0.92293,5.90787,1.33089
09:17:34.349572,5.94485,0.01176,0.00000,0.03399,-0.28653,12.46952,0.01953,0.02109,0.03471,0.39180,0.92183,5.93268,1.38462
09:17:34.375258,5.97051,0.01187,0.00000,0.03507,-0.31371,13.63171,0.02411,0.01421,0.02849,0.37155,0.92275,5.95845,1.34310
09:17:34.396372,5.99164,0.01239,0.00000,0.03628,-0.32501,14.12233,0.02320,0.01620,0.03276,0.35520,0.92854,5.97903,1.36508
09:17:34.421833,6.01711,0.01153,0.00000,0.03835,-0.33891,14.73117,0.02579,0.01421,0.03404,0.35398,0.93751,6.00541,1.38950
09:17:34.444927,6.03956,0.01104,0.00000,0.03971,-0.34884,15.16492,0.02549,0.01696,0.03306,0.33410,0.93354,6.02887,1.35043
09:17:34.470432,6.06568,0.01405,0.00000,0.04061,-0.35479,15.17370,0.02701,0.01712,0.02879,0.33538,0.93647,6.05123,1.34799
09:17:34.499166,6.09444,0.01562,0.00000,0.04129,-0.36227,15.18028,0.02793,0.01788,0.02745,0.31464,0.93873,6.07924,1.50183
09:17:34.526055,6.12067,0.01303,0.00000,0.04160,-0.36808,15.18330,0.03129,0.01666,0.02916,0.30213,0.94831,6.10802,0.56410
09:17:34.551546,6.14682,0.01413,0.00000,0.04163,-0.36136,15.18357,0.02594,0.00856,0.02916,0.29573,0.94745,6.13376,1.33822
09:17:34.577859,6.17314,0.01477,0.00000,0.04163,-0.36854,15.18357,0.02762,0.00704,0.02532,0.27944,0.95252,6.15874,1.37729
09:17:34.602234,6.19752,0.01376,0.00000,0.04163,-0.36441,15.18357,0.02411,0.00749,0.02556,0.27950,0.95191,6.18212,1.37241
09:17:34.630763,6.22605,0.01508,0.00000,0.04163,-0.35296,15.18357,0.02579,0.01544,0.02190,0.23424,0.95392,6.21217,1.35287
09:17:34.660568,6.25583,0.01429,0.00000,0.04163,-0.34975,15.18357,0.02655,0.00811,0.02629,0.23577,0.95666,6.24048,1.36508
09:17:34.687255,6.28253,0.01325,0.00000,0.04163,-0.33937,14.78240,0.02625,0.01116,0.01385,0.25205,0.96020,6.26998,1.37973
09:17:34.711493,6.30674,0.01244,0.00000,0.04163,-0.32822,14.31004,0.02381,0.01330,0.00939,0.22906,0.95813,6.29531,1.38950
09:17:34.736693,6.33197,0.01173,0.00000,0.04163,-0.31631,13.80534,0.02243,0.01116,0.01879,0.21423,0.96044,6.32059,1.38462
09:17:34.762395,6.35766,0.01212,0.00000,0.04163,-0.30546,13.34593,0.02121,0.00872,0.01470,0.20398,0.97136,6.34470,1.37485
09:17:34.786997,6.38228,0.01085,0.00000,0.04163,-0.29080,12.72475,0.02533,0.00780,0.02062,0.19605,0.97002,6.37049,1.37485
09:17:34.807370,6.40265,0.01129,0.00000,0.04163,-0.27736,12.15534,0.01709,0.01208,0.01543,0.19642,0.96539,6.39045,1.39438
09:17:34.833019,6.42829,0.01228,0.00000,0.04163,-0.26560,11.65710,0.02243,0.01040,0.00897,0.19459,0.96514,6.41549,1.38217
09:17:34.855615,6.45091,0.01074,0.00000,0.04163,-0.25308,11.12651,0.02121,0.00184,0.01549,0.17123,0.97301,6.44115,1.36996
09:17:34.878649,6.47393,0.01275,0.00000,0.04163,-0.24606,10.82887,0.02075,0.00078,0.00976,0.17611,0.97960,6.46296,1.36752
09:17:34.901771,6.49705,0.01107,0.00000,0.04163,-0.23506,10.36298,0.01709,0.00154,0.00982,0.18422,0.97844,6.48653,1.36996
09:17:34.926140,6.52142,0.01190,0.00000,0.04163,-0.22330,9.86475,0.01586,0.00902,0.00964,0.16915,0.97393,6.50963,1.36996
09:17:34.951320,6.54660,0.01308,0.00000,0.04163,-0.21521,9.52181,0.01525,0.00719,0.00531,0.16189,0.97600,6.53498,1.38462
09:17:34.978785,6.57380,0.01280,0.00000,0.04163,-0.21078,9.33416,0.01678,0.00612,0.01086,0.16653,0.98125,6.56076,1.36508
09:17:35.004176,6.59922,0.01364,0.00000,0.04163,-0.20375,9.03651,0.01907,0.00184,0.00769,0.15665,0.97454,6.58712,1.38217
09:17:35.028715,6.62397,0.01203,0.00000,0.04163,-0.20207,8.96534,0.01281,0.00307,0.00836,0.15823,0.97691,6.61210,1.36996
09:17:35.050402,6.64569,0.01088,0.00000,0.04163,-0.19765,8.77769,0.01785,0.00902,0.00958,0.15372,0.98253,6.63545,1.37973
09:17:35.074614,6.66988,0.01211,0.00000,0.04163,-0.20192,8.95887,0.01525,0.00673,0.00891,0.15256,0.98149,6.65742,1.38217
09:17:35.098766,6.69405,0.01130,0.00000,0.04163,-0.20467,9.07534,0.01602,0.00551,0.00512,0.14951,0.97746,6.68459,1.37973
09:17:35.121278,6.71656,0.01164,0.00000,0.04163,-0.20391,9.04298,0.01571,-0.00075,0.00708,0.13389,0.97966,6.70481,1.35287
09:17:35.147811,6.74307,0.01335,0.00000,0.04163,-0.21017,9.30828,0.01632,0.00108,0.00628,0.13786,0.98332,6.73131,1.39438
09:17:35.173616,6.76838,0.01197,0.00000,0.04163,-0.20146,8.93945,0.01724,0.00841,0.00994,0.12761,0.98259,6.75650,1.35775
09:17:35.199580,6.79458,0.01078,0.00000,0.04163,-0.19841,8.81004,0.01449,0.00734,0.00744,0.12133,0.97820,6.78299,1.37729
09:17:35.226107,6.82137,0.01330,0.00000,0.04163,-0.19719,8.75828,0.01296,0.00368,0.00366,0.11541,0.98381,6.80951,1.37973
09:17:35.252057,6.84713,0.01055,0.00000,0.04163,-0.19322,8.59004,0.01327,0.00475,0.00927,0.10998,0.98594,6.83628,1.38462
09:17:35.274365,6.86964,0.01166,0.00000,0.04163,-0.18711,8.33122,0.01174,0.00811,0.00342,0.09882,0.98411,6.85617,1.37485
09:17:35.299558,6.89482,0.01288,0.00000,0.04163,-0.18528,8.25357,0.01525,0.00811,-0.00012,0.10559,0.98619,6.88309,1.36996
09:17:35.320144,6.91520,0.01178,0.00000,0.04163,-0.17550,7.83945,0.01266,0.00154,0.00482,0.10016,0.98466,6.90325,1.36508
09:17:35.345327,6.94060,0.01349,0.00000,0.04163,-0.17199,7.69063,0.01373,0.00352,0.00195,0.07796,0.98173,6.92809,1.37729
09:17:35.366458,6.96175,0.00999,0.00000,0.04163,-0.16695,7.47710,0.01113,0.00459,0.00396,0.08632,0.98375,6.95204,1.36996
09:17:35.378314,6.97359,0.01111,0.00000,0.04163,-0.16496,7.39298,0.01144,0.00841,0.00610,0.08741,0.98625,6.96240,1.39438
09:17:35.404300,6.99958,0.01353,0.00000,0.04163,-0.15091,6.79769,0.01235,0.00734,0.00512,0.08449,0.98552,6.98778,1.36264
09:17:35.425322,7.02058,0.01192,0.00000,0.04163,-0.14908,6.72004,0.01602,0.00688,0.00878,0.06930,0.98808,7.00842,1.38217
09:17:35.449961,7.04523,0.01152,0.00000,0.04163,-0.13839,6.26710,0.00838,0.00536,0.00701,0.06777,0.98704,7.03337,1.38950
09:17:35.470166,7.06545,0.00885,0.00000,0.04163,-0.13488,6.11828,0.00456,0.00337,0.00958,0.06588,0.98375,7.05578,1.37241
09:17:35.482582,7.07785,0.01010,0.00000,0.04163,-0.13121,5.96298,0.00930,0.00581,0.00732,0.07399,0.98527,7.06597,1.37729
09:17:35.509537,7.10481,0.01330,0.00000,0.04163,-0.12816,5.83357,0.00960,0.00352,0.01171,0.06881,0.98692,7.09253,1.36264
09:17:35.536108,7.13116,0.01471,0.00000,0.04163,-0.11930,5.45828,0.00960,0.00169,0.01226,0.06033,0.99119,7.11869,1.38217
09:17:35.558442,7.15370,0.01153,0.00000,0.04163,-0.11243,5.16710,0.00609,0.00337,0.00915,0.05380,0.98472,7.14171,1.36752
09:17:35.585413,7.18067,0.01413,0.00000,0.04163,-0.10877,5.01181,0.00502,0.00627,0.00781,0.05075,0.98472,7.16793,1.37241
09:17:35.610375,7.20566,0.01165,0.00000,0.04163,-0.10037,4.65592,0.00808,0.00536,0.01232,0.05386,0.98808,7.19521,1.39683
09:17:35.630533,7.22580,0.01175,0.00000,0.04163,-0.09044,4.23533,0.00731,0.00307,0.01110,0.05508,0.98936,7.21381,1.38462
09:17:35.654403,7.24907,0.01300,0.00000,0.04163,-0.08341,3.93769,0.00548,0.00383,0.00976,0.04307,0.98783,7.23727,1.36996
09:17:35.676454,7.27174,0.00966,0.00000,0.04163,-0.07578,3.61416,0.00838,0.00291,0.01013,0.04575,0.98936,7.26184,1.39927
09:17:35.688511,7.28326,0.01044,0.00000,0.04163,-0.07303,3.49769,0.00548,0.00200,0.00915,0.04599,0.98918,7.27159,1.39683
09:17:35.713083,7.30836,0.01218,0.00000,0.04163,-0.05974,2.93475,0.00426,0.00078,0.00677,0.04544,0.99070,7.29733,1.38706
09:17:35.737539,7.33282,0.01099,0.00000,0.04163,-0.05379,2.68239,0.00365,0.00246,0.00811,0.03465,0.98826,7.32111,1.39438
09:17:35.762476,7.35747,0.01193,0.00000,0.04163,-0.04004,2.10004,0.00319,0.00444,0.00573,0.03892,0.98979,7.34570,1.39438
09:17:35.787197,7.38214,0.01182,0.00000,0.04163,-0.02844,1.60828,0.00456,0.00215,0.00830,0.03453,0.99046,7.36999,1.38217
09:17:35.814587,7.40987,0.01285,0.00000,0.04163,-0.01301,0.95475,0.00075,0.00139,0.00860,0.03080,0.98966,7.39764,1.38706
09:17:35.833159,7.42772,0.01017,0.00000,0.04163,-0.00339,0.54710,0.00273,-0.00090,0.00817,0.03819,0.98741,7.41716,1.41636
09:17:35.860266,7.45553,0.01395,0.00000,0.04163,0.00760,0.08122,0.00426,-0.00045,0.00396,0.03788,0.98832,7.44262,1.41392
09:17:35.885232,7.48049,0.01184,0.00000,0.04163,0.02227,-0.53996,-0.00063,-0.00121,0.00689,0.03575,0.98966,7.46887,1.39683
09:17:35.910537,7.50579,0.01264,0.00000,0.04163,0.02929,-0.83761,-0.00124,0.00001,0.00622,0.04575,0.98832,7.49443,1.39927
09:17:35.931255,7.52654,0.01153,0.00000,0.04163,0.03861,-1.23231,-0.00429,-0.00258,0.00482,0.05020,0.99003,7.51425,1.42857
09:17:35.956532,7.55178,0.01189,0.00000,0.04163,0.04349,-1.43937,-0.00643,0.00001,0.00671,0.04056,0.99040,7.54012,1.44811
09:17:35.977851,7.57313,0.01094,0.00000,0.04163,0.04777,-1.62055,-0.00124,-0.00411,0.00439,0.04276,0.98771,7.56186,1.42369
09:17:36.002696,7.59796,0.01254,0.00000,0.04163,0.05525,-1.93761,-0.00643,-0.00152,0.00555,0.05020,0.98600,7.58544,1.44322
09:17:36.031215,7.62650,0.01393,0.00000,0.04163,0.06106,-2.18349,-0.00765,-0.00197,0.00512,0.04721,0.98808,7.61368,1.43834
09:17:36.056616,7.65187,0.01241,0.00000,0.04163,0.06716,-2.44231,-0.00490,-0.00197,0.00488,0.04862,0.98564,7.64001,1.44078
09:17:36.080415,7.67568,0.01152,0.00000,0.04163,0.07281,-2.68173,-0.00384,-0.00258,0.00830,0.06259,0.98722,7.66308,1.43590
09:17:36.107332,7.70259,0.01368,0.00000,0.04163,0.08350,-3.13467,-0.01208,-0.00106,0.00366,0.05777,0.98924,7.69108,1.43101
09:17:36.128882,7.72416,0.00859,0.00000,0.04163,0.08534,-3.21231,-0.00796,0.00108,0.00275,0.05789,0.98850,7.71459,1.43346
09:17:36.140949,7.73586,0.00971,0.00000,0.04163,0.08870,-3.35467,-0.01254,-0.00045,0.00238,0.05697,0.98918,7.72436,1.47009
09:17:36.152711,7.74773,0.01018,0.00000,0.04163,0.08671,-3.27055,-0.00918,-0.00274,0.00220,0.05746,0.98765,7.73557,1.44811
09:17:36.178687,7.77397,0.01330,0.00000,0.04163,0.09679,-3.69761,-0.00964,-0.00243,0.00354,0.06442,0.98838,7.76140,1.44811
09:17:36.201278,7.79653,0.01163,0.00000,0.04163,0.10168,-3.90467,-0.01025,-0.00182,0.00317,0.06252,0.98875,7.78396,1.45543
09:17:36.226367,7.82165,0.01308,0.00000,0.04163,0.10611,-4.09231,-0.00674,-0.00197,0.00122,0.06631,0.98716,7.80949,1.43834
09:17:36.249914,7.84520,0.01177,0.00000,0.04163,0.11649,-4.53231,-0.01040,-0.00350,0.00299,0.07363,0.98643,7.83331,1.46032
09:17:36.272904,7.86818,0.01120,0.00000,0.04163,0.12504,-4.89467,-0.00826,-0.00228,0.00689,0.07704,0.98857,7.85709,1.46764
09:17:36.302176,7.89744,0.01793,0.00000,0.04163,0.13008,-5.10820,-0.01147,-0.00152,0.00281,0.07753,0.98783,7.88453,1.47497
09:17:36.325645,7.92091,0.01248,0.00000,0.04163,0.13726,-5.41231,-0.01117,0.00200,0.00396,0.08046,0.98216,7.90923,1.45299
09:17:36.342774,7.93806,0.01057,0.00000,0.04163,0.14352,-5.67761,-0.01224,-0.00014,0.00909,0.08314,0.98344,7.92739,1.45299
09:17:36.367779,7.96304,0.01200,0.00000,0.04163,0.14795,-5.86526,-0.01010,-0.00014,0.01098,0.09095,0.98649,7.95038,1.45299
09:17:36.390254,7.98553,0.00999,0.00000,0.04163,0.14749,-5.84584,-0.01162,-0.00228,0.00872,0.09223,0.98576,7.97424,1.45055
09:17:36.403347,7.99862,0.01235,0.00000,0.04163,0.14749,-5.84584,-0.01361,-0.00365,0.00555,0.09321,0.98454,7.98655,1.44811
