Description :  ; walk_time = 2.0 ; speed_up_time = 3.0 ; balancing_time = 0.0
RealTime,Time,CalculationTime,Roll,SteeringAngle,RollRate,ControlInput,gy,gz,ax,ay,az,imu_read_timing,SteerMotorCurrent
10:09:35.725485,0.01060,0.01002,-0.01885,-1.47730,0.00518,11.05808,0.00072,-0.00222,-0.01482,0.00256,0.98850,0.00001,0.02198
10:09:35.743126,0.02829,0.00686,-0.03599,-1.44973,-0.09982,3.45390,0.00102,-0.00359,-0.01458,0.00634,0.98643,0.01859,0.00000
10:09:35.753236,0.03840,0.00626,-0.05754,-1.37189,0.02268,3.91484,0.00194,-0.00099,-0.01708,-0.00140,0.98838,0.03015,0.00733
10:09:35.764053,0.04850,0.00616,-0.06820,-1.31351,0.02268,1.46763,-0.00005,-0.00099,-0.01592,0.01080,0.98753,0.03951,0.02442
10:09:35.774141,0.05929,0.00653,-0.08751,-1.26973,0.19768,4.80433,-0.00020,0.00114,-0.01989,-0.00152,0.98820,0.05041,0.04884
10:09:35.784515,0.06894,0.00584,-0.10301,-1.25027,-0.02982,-7.45362,0.00224,-0.00038,-0.01873,0.00531,0.98924,0.06050,0.01221
10:09:35.795549,0.08071,0.00724,-0.11550,-1.24541,0.17143,-1.45819,-0.00188,0.00099,-0.01287,0.00610,0.98960,0.07119,0.24176
10:09:35.805480,0.09063,0.00666,-0.13148,-1.26811,-0.09107,-14.83191,-0.00112,0.00145,-0.01848,0.00500,0.99162,0.08149,0.09524
10:09:35.815136,0.10030,0.00596,-0.14965,-1.31027,0.29393,-1.85887,-0.00081,0.00343,-0.01598,-0.00213,0.98631,0.09132,0.37607
10:09:35.825937,0.11110,0.00641,-0.15700,-1.39784,0.19768,-6.26568,-0.00173,0.00069,-0.01732,0.01098,0.98753,0.10147,0.00977
10:09:35.836112,0.12100,0.00595,-0.17559,-1.48703,0.39018,-0.80743,-0.00158,-0.00099,-0.01995,-0.00445,0.98674,0.11205,0.08059
10:09:35.848594,0.13374,0.00832,-0.19039,-1.55514,0.38143,-3.13188,-0.00127,0.00099,-0.02269,-0.00037,0.99082,0.12273,0.00733
10:09:35.857201,0.14235,0.00656,-0.20410,-1.59892,0.18893,-13.03057,-0.00494,-0.00283,-0.01299,0.00299,0.98741,0.13327,0.01221
10:09:35.868279,0.15344,0.00723,-0.21625,-1.62811,0.11018,-18.12969,0.00255,-0.00130,-0.01525,0.00543,0.99009,0.14437,0.36142
10:09:35.878256,0.16340,0.00595,-0.23700,-1.70270,0.38143,-9.96465,-0.00387,-0.00267,-0.01427,-0.00769,0.98881,0.15454,0.51038
10:09:35.888654,0.17381,0.00601,-0.24424,-1.86000,0.19768,-17.26873,-0.00127,0.00114,-0.01616,0.00964,0.99125,0.16473,0.13675
10:09:35.899799,0.18495,0.00680,-0.25156,-2.02703,0.39018,-9.06873,0.00056,0.00298,-0.01043,0.00677,0.99387,0.17589,0.29304
10:09:35.909888,0.19504,0.00669,-0.24611,-2.14054,0.55643,-0.19945,-0.00219,0.00328,-0.01854,0.02037,0.98930,0.18520,0.46886
10:09:35.920131,0.20529,0.00658,-0.26160,-2.23622,0.02268,-23.90644,-0.00249,0.00405,-0.01043,0.00195,0.98869,0.19637,0.23443
10:09:35.930815,0.21555,0.00659,-0.28131,-2.27676,-0.02982,-29.15745,0.00163,0.00466,-0.02105,-0.00256,0.99027,0.20581,2.48596
10:09:35.941128,0.22557,0.00625,-0.30231,-2.53297,-0.26607,-40.10120,-0.00066,0.00008,-0.01202,-0.00128,0.98905,0.21718,0.76435
10:09:35.951172,0.23632,0.00629,-0.27426,-2.80054,-0.23982,-31.49069,-0.00310,-0.00328,-0.00860,0.05459,0.99729,0.22715,1.70208
10:09:35.962199,0.24734,0.00662,-0.31454,-3.19622,-0.45857,-43.79169,0.00102,-0.00359,-0.01275,-0.02092,0.98979,0.23847,0.72527
10:09:35.972008,0.25717,0.00609,-0.38885,-3.53027,-0.37982,-50.50930,-0.00219,-0.01000,-0.03105,-0.06234,0.98515,0.24807,2.37851
10:09:35.982845,0.26799,0.00638,-0.39541,-4.00216,-1.01857,-73.32799,0.00133,-0.01214,-0.00781,0.02233,0.98747,0.25872,1.42613
10:09:35.993406,0.27855,0.00597,-0.37426,-4.58270,-1.04482,-65.08754,0.00133,-0.01382,-0.01189,0.05533,1.00113,0.26952,2.90843
10:09:36.004367,0.28953,0.00658,-0.44731,-5.32541,-1.28107,-80.57316,0.00285,-0.01688,-0.01476,-0.05246,1.01473,0.27994,1.80952
10:09:36.014076,0.29923,0.00586,-0.46818,-6.00000,-2.26982,-118.32986,0.00102,-0.01871,-0.02135,0.01958,0.98466,0.29047,3.70940
10:09:36.025727,0.31088,0.00644,-0.47919,-6.99730,-2.71607,-129.00165,0.00010,-0.02543,0.00872,0.03800,1.01406,0.30135,4.19292
10:09:36.035819,0.32098,0.00617,-0.52109,-8.30919,-2.90857,-131.71635,0.00301,-0.03459,-0.01299,0.00482,0.99515,0.31257,4.00244
10:09:36.046818,0.33151,0.00600,-0.57359,-9.55459,-3.70482,-161.69807,0.00117,-0.04269,0.01726,-0.00250,0.96569,0.32271,3.76557
10:09:36.057244,0.34240,0.00636,-0.62848,-10.95405,-4.53607,-192.06120,0.00255,-0.04956,-0.03617,0.00384,1.01339,0.33293,5.73382
10:09:36.067455,0.35260,0.00617,-0.67289,-12.70216,-5.22732,-211.48170,0.00988,-0.05826,-0.01427,0.02556,1.01534,0.34349,5.51404
10:09:36.077910,0.36306,0.00589,-0.71747,-14.69189,-6.27732,-243.32095,0.01263,-0.06941,-0.01842,0.03739,0.99338,0.35415,5.99512
10:09:36.088468,0.37363,0.00610,-0.78199,-16.85676,-6.98607,-263.01535,0.01354,-0.07506,0.02153,0.01970,0.99753,0.36449,5.69963
10:09:36.099569,0.38469,0.00680,-0.83607,-19.00378,-7.97482,-292.51487,0.01751,-0.08392,-0.05783,0.04593,0.95526,0.37544,5.36020
10:09:36.108811,0.39397,0.00587,-0.88485,-21.18649,-9.12107,-327.19189,0.01629,-0.09262,-0.03087,0.05880,0.98643,0.38562,5.70208
10:09:36.118711,0.40387,0.00541,-0.86373,-23.45676,-9.82982,-330.71760,0.02515,-0.10637,-0.06740,0.14091,0.97002,0.39544,4.94505
10:09:36.130246,0.41540,0.00658,-0.96973,-25.80811,-10.42482,-351.30231,0.03095,-0.12607,0.00555,0.01812,0.96234,0.40654,4.38339
10:09:36.140772,0.42592,0.00675,-1.02526,-27.95351,-10.87107,-358.83112,0.03645,-0.14271,-0.08479,0.07088,0.99869,0.41681,4.29548
10:09:36.150152,0.43531,0.00592,-1.25656,-30.26919,-10.87982,-377.90018,0.04653,-0.16990,-0.05185,-0.12664,0.93684,0.42709,3.24298
10:09:36.161352,0.44650,0.00660,-1.36787,-32.43081,-12.08732,-426.35707,0.04775,-0.18502,-0.07967,0.01616,0.96276,0.43746,2.22711
10:09:36.171757,0.45691,0.00680,-1.50632,-34.74811,-11.86857,-419.64743,0.05661,-0.19830,-0.06210,-0.02483,0.97289,0.44738,1.26984
10:09:36.181927,0.46709,0.00625,-1.69113,-37.02000,-11.34357,-409.02378,0.05844,-0.20395,-0.08967,-0.07698,0.93739,0.45776,0.57875
10:09:36.192233,0.47738,0.00634,-1.93115,-39.33730,-10.68732,-402.35501,0.06119,-0.19617,-0.04483,-0.15585,0.98710,0.46818,0.04640
10:09:36.202113,0.48726,0.00601,-2.16317,-41.54757,-9.61107,-378.07798,0.06058,-0.18288,-0.06704,-0.16141,0.95776,0.47837,0.00000
10:09:36.212486,0.49764,0.00587,-2.28644,-43.86324,-8.91982,-349.32608,0.04806,-0.15386,-0.09882,-0.05405,1.02956,0.48856,0.00000
10:09:36.224341,0.50950,0.00737,-2.35740,-46.25351,-6.97732,-259.29614,0.04134,-0.13187,-0.06655,-0.00817,1.04029,0.49983,0.00000
10:09:36.233666,0.51881,0.00649,-2.27214,-48.39081,-5.89232,-179.20177,0.03538,-0.10744,0.00037,0.14854,1.01443,0.50912,0.00000
10:09:36.247466,0.53262,0.01009,-2.17645,-50.63027,-3.99357,-62.91710,0.02484,-0.08132,-0.10492,0.15890,1.00449,0.52238,0.00000
10:09:36.266864,0.55201,0.01098,-2.02225,-53.53135,-0.09107,152.22835,0.02057,-0.06223,0.00152,0.17050,1.00424,0.54307,0.00000
10:09:36.291923,0.57707,0.01362,-2.11265,-53.95622,3.33893,280.93663,0.02652,-0.03047,0.42456,-0.21258,1.01034,0.56699,0.00000
10:09:36.317755,0.60291,0.01256,-1.96161,-50.11135,5.99018,379.46139,-0.00952,0.00206,0.36173,-0.01684,0.98070,0.59330,0.00000
10:09:36.334606,0.61893,0.00722,-1.77049,-46.02649,7.80143,448.33688,-0.01517,0.01229,-0.10114,0.06094,0.99009,0.61022,0.00000
10:09:36.343686,0.62884,0.00678,-1.61251,-44.16162,8.41393,483.50797,-0.01868,0.02176,0.30396,0.06649,0.77702,0.61978,0.00000
10:09:36.352902,0.63807,0.00580,-1.54521,-41.89784,9.40268,514.22728,-0.01104,0.01504,0.11145,-0.02898,0.89975,0.62971,0.00000
10:09:36.364879,0.65003,0.00727,-1.50965,-39.58703,8.84268,475.37755,-0.01043,-0.02283,-0.00726,-0.07503,1.05847,0.64055,0.00000
10:09:36.373927,0.65908,0.00595,-1.52349,-37.51622,10.18143,507.93622,-0.00494,-0.02970,0.19392,-0.16025,1.22073,0.65021,0.00000
10:09:36.385190,0.67032,0.00697,-1.44098,-35.16000,9.64768,478.03810,-0.00860,-0.03200,0.38064,-0.02855,1.01205,0.66127,0.00000
10:09:36.394593,0.67956,0.00596,-1.45479,-33.12324,10.84643,505.18826,-0.01853,-0.02299,0.24583,-0.11090,0.82570,0.67067,0.00000
10:09:36.404796,0.68995,0.00595,-1.52580,-30.91135,10.79393,469.23327,-0.03090,-0.02925,-0.33953,-0.17964,0.84900,0.68079,0.00000
10:09:36.415846,0.70101,0.00613,-1.38490,-28.52270,11.33643,493.48350,-0.02372,-0.01397,0.18117,0.01525,0.90658,0.69196,0.00000
10:09:36.425964,0.71111,0.00587,-1.23347,-26.34811,11.10893,490.08314,-0.01333,-0.01443,-0.22460,0.04886,1.05579,0.70221,0.00000
10:09:36.437069,0.72218,0.00543,-0.95395,-24.08757,12.41268,571.31155,-0.01639,-0.00542,-0.01714,0.16348,0.93464,0.71312,0.00000
10:09:36.448117,0.73327,0.00683,-0.91801,-22.56486,13.80393,620.09644,-0.02143,-0.00451,0.05319,-0.12566,1.00144,0.72416,0.01465
10:09:36.458256,0.74339,0.00638,-0.76509,-21.88703,13.65518,634.55643,-0.01440,-0.00542,0.02721,0.03215,0.94495,0.73391,0.01709
10:09:36.468411,0.75345,0.00607,-0.47963,-21.58541,12.60518,639.13819,-0.04205,0.04085,-0.17233,0.20728,1.06219,0.74434,0.11477
10:09:36.479330,0.76448,0.00613,0.27798,-21.42486,14.92393,866.76252,-0.03349,0.06635,-0.04648,0.72688,0.84967,0.75546,0.02686
10:09:36.489867,0.77501,0.00593,0.72961,-21.20108,18.00393,1070.83276,-0.05396,0.07750,0.41096,0.35337,1.01736,0.76616,2.89622
10:09:36.501063,0.78622,0.00677,0.70490,-20.77622,19.30768,1115.83326,-0.05380,0.10942,-0.11816,-0.24125,1.01553,0.77710,1.91941
10:09:36.510151,0.79531,0.00532,1.00079,-20.03676,19.69268,1176.89303,-0.05778,0.11217,0.46482,0.16439,1.05018,0.78711,1.67277
10:09:36.524336,0.80950,0.00931,1.20485,-18.91784,21.39893,1202.26932,-0.05732,0.14027,-0.02501,0.00592,1.02358,0.79828,1.56288
10:09:36.533919,0.81908,0.00816,1.28128,-17.39027,20.79518,1201.13222,-0.05090,0.14561,0.17452,-0.10840,0.99387,0.80849,0.01465
10:09:36.543171,0.82747,0.00639,1.40054,-15.66811,18.47643,1155.84297,-0.02586,0.10499,-0.18751,-0.03684,0.86004,0.81928,0.00977
10:09:36.553579,0.83874,0.00730,1.96754,-13.74973,17.26893,1188.27784,-0.02021,0.07827,0.10065,0.49111,0.87334,0.82922,0.00977
10:09:36.564066,0.84922,0.00678,1.94106,-11.70973,18.68643,1222.12431,-0.02937,0.03153,-0.06423,-0.18355,0.87291,0.84021,0.00733
10:09:36.573507,0.85865,0.00585,1.79925,-9.80595,17.33893,1123.50109,-0.00158,-0.02528,0.04294,-0.27840,0.92372,0.84959,0.01954
10:09:36.584968,0.87012,0.00696,1.93615,-7.86000,15.21268,1041.87486,-0.00906,-0.05612,-0.24467,0.01549,1.00522,0.86106,0.02686
10:09:36.596294,0.88074,0.00722,2.07037,-6.01459,15.22143,1048.27378,-0.02143,-0.06300,-0.16378,0.02891,1.10239,0.87186,0.01221
10:09:36.605095,0.89025,0.00597,2.23045,-4.52595,16.23643,1103.93235,-0.00402,-0.05506,-0.18550,0.08034,1.09281,0.88119,0.01954
10:09:36.615741,0.90090,0.00609,2.64811,-3.25135,18.52893,1259.61479,-0.03120,-0.02069,-0.08711,0.34776,1.03706,0.89184,0.03175
10:09:36.625843,0.91099,0.00599,2.83577,-2.40000,17.87268,1257.75031,-0.03563,0.02588,-0.07723,0.08265,1.00125,0.90211,0.02686
10:09:36.638747,0.92390,0.00855,3.16948,-1.88919,20.09518,1311.91432,-0.04342,0.05566,-0.13859,0.20392,0.95837,0.91309,0.01465
10:09:36.649249,0.93441,0.00871,3.22244,-1.73027,20.82143,1319.76253,-0.04449,0.07735,-0.11791,-0.08528,0.96685,0.92271,0.04640
10:09:36.660057,0.94521,0.00937,3.47798,-1.77405,20.58518,1365.41398,-0.02922,0.07262,-0.12706,0.11181,0.95544,0.93381,3.41148
10:09:36.669348,0.95450,0.00864,3.69663,-1.86649,20.70768,1405.00245,-0.01654,0.06269,-0.14329,0.09406,0.90384,0.94376,2.50794
10:09:36.679566,0.96473,0.00859,3.94222,-1.92973,22.21268,1449.07910,-0.00768,0.04146,0.10535,0.13066,0.99662,0.95337,1.79731
10:09:36.691316,0.97646,0.01013,4.22981,-1.93459,22.17768,1500.02760,-0.01868,0.04039,0.04551,0.14835,0.96673,0.96423,1.44567
10:09:36.714643,0.99979,0.01109,4.75362,-1.62324,22.04643,1589.75458,-0.03762,0.01015,0.04093,0.08754,1.04725,0.98895,1.49451
10:09:36.736314,1.02147,0.00941,5.13565,-0.95189,19.79768,1729.85332,-0.02540,-0.02008,0.04813,0.02751,0.95947,1.01202,1.45788
10:09:36.744051,1.02921,0.00614,5.34415,-0.68757,19.90268,1768.52583,-0.03212,-0.02955,0.03709,0.16086,0.92665,1.02013,1.45055
10:09:36.756596,1.04176,0.00833,5.68458,-0.37946,20.27893,1825.82293,-0.02677,-0.03200,-0.01775,0.24711,0.91707,1.03093,1.48230
10:09:36.767402,1.05254,0.00828,5.99593,-0.06973,21.88893,1877.95848,-0.02815,-0.03658,0.00665,0.20764,0.91000,1.04137,1.43346
10:09:36.778974,1.06413,0.00967,6.19328,0.18649,22.65018,1910.42935,-0.01990,-0.03291,-0.07662,0.07753,0.96203,1.05210,1.44322
10:09:36.790199,1.07534,0.00971,6.31151,0.33081,22.81643,1929.97187,-0.01211,-0.03261,0.01263,-0.01287,0.98960,1.06294,1.43101
10:09:36.797964,1.08313,0.00691,6.44140,0.33892,22.22143,1952.88367,-0.01975,-0.02344,-0.07521,0.03099,1.03920,1.07300,1.66300
10:09:36.811253,1.09640,0.00977,6.65365,0.25946,22.27393,1991.21553,-0.01807,-0.00680,-0.01171,0.09540,1.02029,1.08439,1.44811
10:09:36.819631,1.10479,0.00771,6.83141,0.12973,22.95643,2023.92353,-0.02708,-0.00512,-0.07094,0.10150,1.02291,1.09385,1.46032
10:09:36.829855,1.11502,0.00705,7.09710,-0.07946,23.12268,2072.95970,-0.03090,-0.00909,0.00708,0.15640,0.96624,1.10489,1.43834
10:09:36.842007,1.12714,0.00881,7.42200,-0.32432,23.86643,2132.81690,-0.03853,-0.01611,-0.05118,0.22954,0.96337,1.11560,1.45055
10:09:36.850151,1.13529,0.00679,7.68005,-0.56919,24.76768,2180.84355,-0.03334,-0.02008,0.00854,0.17043,0.93977,1.12529,1.41392
10:09:36.861549,1.14671,0.00785,7.89926,-0.81892,24.82018,2222.04016,-0.03624,-0.01291,-0.04990,0.10791,0.94440,1.13584,1.43590
10:09:36.872325,1.15746,0.00777,8.08469,-1.03622,23.65643,2256.94766,-0.02769,-0.01932,-0.03843,0.08985,0.95788,1.14635,1.40659
10:09:36.882236,1.16740,0.00791,8.32298,-1.25514,22.91268,2301.22658,-0.02036,-0.02680,-0.01592,0.15433,0.97454,1.15724,1.43346
10:09:36.894581,1.17955,0.00962,8.59364,-1.45297,22.79018,2351.03236,-0.01547,-0.03291,-0.02550,0.21399,0.99979,1.16773,1.42369
10:09:36.903556,1.18872,0.00831,8.91252,-1.62486,23.42018,2409.12430,-0.02051,-0.04299,0.01275,0.28109,0.96770,1.17753,1.42125
10:09:36.913363,1.19853,0.00735,9.31460,-1.81946,25.59018,2482.16069,-0.03303,-0.04543,0.01409,0.33324,0.95739,1.18821,1.44322
10:09:36.921530,1.20670,0.00516,9.70898,-2.03189,26.43893,2554.00593,-0.04678,-0.05780,0.03709,0.33062,0.95215,1.19851,1.41148
10:09:36.932565,1.21773,0.00529,10.12290,-2.30108,27.44518,2629.85409,-0.06740,-0.08804,0.01604,0.33507,0.95941,1.20931,1.43590
10:09:36.943017,1.22818,0.00538,10.56718,-2.58973,29.03768,2711.26244,-0.06251,-0.11064,0.01488,0.36862,0.95117,1.21979,1.41880
10:09:36.953427,1.23859,0.00538,11.00659,-2.87514,30.33268,2791.77695,-0.06694,-0.13844,-0.01446,0.35069,0.93617,1.23021,1.44078
10:09:36.965123,1.25029,0.00672,11.47585,-3.16541,31.54893,2877.62390,-0.06709,-0.16409,0.02568,0.34276,0.90463,1.24129,1.40415
10:09:36.974697,1.25986,0.00593,11.85210,-3.40865,31.06768,2946.55513,-0.08542,-0.21357,0.00281,0.28023,0.90024,1.25143,1.42857
10:09:36.984748,1.26991,0.00579,12.27004,-3.64378,32.01268,3022.78747,-0.08817,-0.24824,0.02782,0.35740,0.94172,1.26111,1.40171
10:09:36.994666,1.27982,0.00535,12.83768,-3.85622,32.82643,3125.29936,-0.09015,-0.28337,-0.03605,0.52448,0.93629,1.27145,1.42613
10:09:37.008571,1.29373,0.00872,13.42829,-4.06054,35.67893,3231.79862,-0.10374,-0.32368,0.01665,0.48751,1.00144,1.28326,1.42369
10:09:37.018559,1.30351,0.00833,14.04504,-4.22108,37.77018,3342.50457,-0.10558,-0.34812,0.00525,0.59664,0.93849,1.29275,1.42369
10:09:37.029036,1.31420,0.00865,14.72538,-4.35405,40.87643,3464.20175,-0.12497,-0.37729,0.16067,0.56163,0.90518,1.30355,1.44811
10:09:37.038013,1.32318,0.00734,15.29732,-4.47730,44.11393,3566.61704,-0.13383,-0.39012,0.07662,0.47629,0.90512,1.31271,1.44078
10:09:37.050782,1.33592,0.00931,15.80253,-4.58919,45.36518,3657.11330,-0.16315,-0.43211,0.21332,0.23686,0.83027,1.32429,1.45055
10:09:37.061038,1.34617,0.00923,16.36847,-4.66216,44.97143,3757.98665,-0.17185,-0.47396,0.12926,0.43780,0.85796,1.33374,1.42125
10:09:37.069928,1.35509,0.00768,17.05343,-4.72703,46.04768,3879.84716,-0.19904,-0.52664,0.17958,0.43365,0.85809,1.34587,1.43101
10:09:37.082088,1.36725,0.00871,17.60080,-4.76919,47.65768,3977.13648,-0.21782,-0.56772,-0.08595,0.41090,1.03456,1.35652,1.41148
10:09:37.092975,1.37813,0.00932,17.76587,-4.79027,44.71768,4006.55564,-0.19950,-0.59124,0.03886,-0.03385,0.90451,1.36748,1.30159
10:09:37.103408,1.38854,0.00937,18.16362,-4.79189,40.46518,4076.97289,-0.20530,-0.52099,0.03495,0.39809,0.96148,1.37622,1.29182
10:09:37.112905,1.39807,0.00851,18.21181,-4.79189,34.97893,4085.50321,-0.21431,-0.50389,0.07960,-0.03074,0.86089,1.38703,1.40904
10:09:37.123463,1.40861,0.00859,18.45527,-4.79351,32.98393,4128.60974,-0.21110,-0.46052,0.01354,0.25791,0.99704,1.39689,2.12210
10:09:37.134717,1.41987,0.00967,18.89718,-4.82757,32.41518,4207.15591,-0.21691,-0.44662,0.00159,0.53869,1.04731,1.40728,1.51648
10:09:37.142674,1.42783,0.00696,19.24086,-4.93297,30.93643,4268.99940,-0.19293,-0.45426,-0.00396,0.41968,1.13057,1.41854,1.39438
10:09:37.154639,1.43979,0.00837,19.62069,-5.10000,30.00893,4337.83137,-0.17216,-0.43471,0.10620,0.48977,1.02645,1.42893,1.43834
10:09:37.165629,1.45005,0.00807,19.87576,-5.36108,32.23143,4385.48538,-0.19079,-0.43792,0.16183,0.29329,0.98850,1.43910,1.39683
10:09:37.176099,1.46125,0.00913,20.12791,-5.69514,31.90768,4433.32246,-0.19950,-0.41440,0.09882,0.25352,0.94611,1.45013,1.42369
10:09:37.184995,1.47016,0.00792,20.22315,-5.97730,29.17768,4452.89007,-0.22332,-0.42448,-0.01342,0.16409,0.89841,1.45929,1.41636
10:09:37.197001,1.48133,0.00894,20.09154,-6.27243,26.52643,4432.42817,-0.21446,-0.41989,-0.12603,-0.06673,0.86022,1.46922,1.40659
10:09:37.205455,1.49062,0.00778,20.06772,-6.55622,21.67018,4430.93616,-0.18148,-0.40355,-0.16696,0.07558,0.90658,1.47988,1.40415
10:09:37.214854,1.49999,0.00695,20.07675,-6.79946,17.17268,4322.93904,-0.13826,-0.38874,-0.04276,0.16080,0.93025,1.49076,1.38950
10:09:37.224429,1.50959,0.00619,20.11456,-6.94378,14.27643,4212.27086,-0.11535,-0.35789,0.01641,0.27676,1.04060,1.50049,1.42613
10:09:37.235003,1.51893,0.00517,20.20858,-6.97784,12.03643,4137.40014,-0.10160,-0.32872,0.00415,0.38009,1.06140,1.51073,2.08791
10:09:37.244764,1.52991,0.00589,20.27767,-6.91784,11.52018,4127.88618,-0.10893,-0.27008,-0.01110,0.38119,1.13314,1.52082,1.51160
10:09:37.255775,1.54093,0.00620,20.25469,-6.77514,10.95143,4099.13078,-0.10435,-0.22396,-0.15140,0.24430,1.12789,1.53186,1.40659
10:09:37.266683,1.55183,0.00673,20.18692,-6.56919,8.64143,3990.44708,-0.09107,-0.18135,-0.10956,0.21027,1.06530,1.54240,1.42369
10:09:37.275058,1.56022,0.00492,19.97775,-6.28541,6.16518,3849.17409,-0.07060,-0.13661,-0.15561,0.06374,1.01144,1.55240,1.40904
10:09:37.287588,1.57275,0.00708,19.70523,-5.91892,2.19268,3634.54671,-0.04907,-0.09995,-0.04752,0.02721,0.95849,1.56346,1.41880
10:09:37.296643,1.58180,0.00580,19.48239,-5.56703,-2.16482,3413.06824,-0.03441,-0.07399,-0.08326,0.12596,0.94581,1.57281,1.41392
10:09:37.308027,1.59319,0.00682,19.16987,-5.14703,-5.63857,3211.29665,-0.00539,-0.04543,-0.11651,0.06954,0.93824,1.58412,1.41148
10:09:37.317541,1.60270,0.00597,18.85449,-4.72865,-8.77107,3023.02665,0.01614,-0.02787,-0.15915,0.08302,0.95660,1.59351,1.38950
10:09:37.328040,1.61320,0.00618,18.66930,-4.29568,-11.06357,2892.09823,0.04653,0.00954,-0.09937,0.27718,0.98954,1.60416,1.39927
10:09:37.339722,1.62488,0.00718,18.52094,-3.87243,-12.73482,2793.25375,0.05432,0.04604,-0.03087,0.37253,1.02651,1.61584,1.39683
10:09:37.349492,1.63465,0.00645,18.45974,-3.48811,-12.77857,2776.93922,0.04561,0.06849,-0.00299,0.44682,1.02510,1.62502,1.41636
10:09:37.359600,1.64405,0.00553,18.39595,-3.10541,-12.97107,2754.08083,0.04577,0.08926,0.01043,0.47482,1.03456,1.63564,1.37485
10:09:37.369708,1.65486,0.00614,18.28158,-2.75351,-13.15482,2722.92606,0.04821,0.09323,0.00567,0.37356,0.98362,1.64562,1.42125
10:09:37.380274,1.66540,0.00633,18.13418,-2.38541,-13.98607,2659.22130,0.04302,0.10010,0.00098,0.33184,0.94032,1.65605,1.37973
10:09:37.390162,1.67533,0.00590,17.98255,-2.01405,-15.34232,2573.21114,0.04867,0.10362,-0.03129,0.33715,0.92195,1.66663,1.39927
10:09:37.400906,1.68605,0.00596,17.80482,-1.62486,-16.02482,2510.03346,0.05600,0.10102,-0.02501,0.30128,0.90231,1.67701,1.37973
10:09:37.411446,1.69660,0.00622,17.61057,-1.22432,-16.87357,2437.00885,0.07219,0.09583,-0.00714,0.29030,0.89615,1.68756,1.39194
10:09:37.421435,1.70658,0.00585,17.44309,-0.84486,-17.73982,2368.20460,0.07860,0.09522,0.03739,0.32287,0.91512,1.69751,1.38950
10:09:37.432700,1.71785,0.00675,17.28121,-0.45568,-18.05482,2322.90183,0.07845,0.09247,0.05264,0.34990,0.93123,1.70809,1.39194
10:09:37.442949,1.72809,0.00618,17.19032,-0.07946,-17.30232,2334.05420,0.07249,0.09247,0.09028,0.43841,0.93751,1.71903,1.36752
10:09:37.453366,1.73852,0.00641,17.12924,0.25784,-16.18232,2365.92537,0.05783,0.09476,0.08357,0.44384,0.95123,1.72891,1.41392
10:09:37.464184,1.74934,0.00688,17.00231,0.60649,-15.10607,2384.23839,0.05035,0.09766,0.07064,0.37003,0.94751,1.74026,1.40659
10:09:37.474801,1.75996,0.00714,16.88135,0.87892,-14.77357,2373.84414,0.04210,0.10637,0.04996,0.33513,0.94520,1.74973,1.40659
10:09:37.484584,1.76973,0.00599,16.69186,1.16595,-15.16732,2321.40532,0.03645,0.11354,0.02428,0.27871,0.93794,1.76067,1.39683
10:09:37.495347,1.78049,0.00655,16.49662,1.41081,-15.98982,2250.77479,0.04195,0.11370,-0.00823,0.27804,0.94404,1.77146,1.40415
10:09:37.505713,1.79086,0.00672,16.30755,1.64919,-16.63732,2188.47408,0.04897,0.10606,-0.01122,0.28322,0.95227,1.78178,1.41880
10:09:37.515378,1.80053,0.00604,16.09397,1.83730,-17.17982,2126.62168,0.06333,0.09506,-0.02501,0.24693,0.96014,1.79149,1.40415
10:09:37.525204,1.81036,0.00552,15.84596,1.98324,-18.00232,2047.60015,0.06913,0.09125,-0.01861,0.23296,0.96758,1.80213,1.39927
10:09:37.536203,1.82136,0.00618,15.63852,2.05297,-18.90357,1973.26341,0.07448,0.08972,-0.01006,0.28182,0.98161,1.81228,1.27228
10:09:37.546255,1.83140,0.00585,15.45602,2.04162,-19.02607,1936.04658,0.07539,0.09247,0.00445,0.31561,0.99119,1.82252,1.23321
10:09:37.557377,1.84251,0.00642,15.28467,1.98811,-18.78107,1916.27681,0.07326,0.09995,0.00878,0.33135,1.00266,1.83294,1.37729
10:09:37.568468,1.85363,0.00718,15.11426,1.89568,-18.56232,1895.97113,0.07814,0.10896,0.01934,0.35099,0.99546,1.84451,1.40659
10:09:37.578134,1.86329,0.00665,14.97972,1.80162,-18.32607,1882.74621,0.07936,0.11522,0.03367,0.33574,0.98771,1.85384,1.44078
10:09:37.589487,1.87463,0.00763,14.80233,1.66703,-18.21232,1857.30438,0.07692,0.11782,0.04435,0.30835,0.97020,1.86477,1.36996
10:09:37.598020,1.88317,0.00596,14.64259,1.53081,-18.80732,1805.94227,0.08104,0.11980,0.03398,0.30250,0.96783,1.87433,1.39683
10:09:37.607756,1.89292,0.00535,14.45905,1.37189,-18.74607,1777.49230,0.08303,0.12011,0.01269,0.28524,0.97149,1.88453,1.39194
10:09:37.619130,1.90429,0.00637,14.25739,1.21297,-19.13107,1727.53939,0.09418,0.11950,-0.00518,0.27041,0.97698,1.89492,1.40415
10:09:37.630987,1.91615,0.00803,14.02987,1.05081,-20.03232,1688.82488,0.10533,0.11644,0.01629,0.24205,0.98478,1.90504,1.42125
10:09:37.641415,1.92657,0.00773,13.80181,0.87892,-20.88107,1650.10868,0.11266,0.11278,0.03074,0.27145,0.98985,1.91606,1.36996
10:09:37.651706,1.93686,0.00781,13.62823,0.72973,-21.37107,1620.81702,0.11235,0.11339,0.03556,0.31970,0.99729,1.92615,1.39683
10:09:37.662529,1.94748,0.00817,13.44933,0.57892,-21.35357,1590.60032,0.11235,0.11171,0.02251,0.32739,1.00229,1.93684,1.38462
10:09:37.672899,1.95806,0.00813,13.27269,0.43784,-21.13482,1560.68934,0.12075,0.11293,0.01458,0.31061,0.99912,1.94706,1.40171
10:09:37.683274,1.96844,0.00832,13.08749,0.30973,-20.92482,1529.13883,0.11403,0.12042,0.01745,0.30219,0.99656,1.95765,1.38950
10:09:37.693177,1.97834,0.00760,12.87648,0.18000,-20.91607,1493.03534,0.12014,0.11843,0.01665,0.26785,0.98704,1.96839,1.40171
10:09:37.704196,1.98936,0.00842,12.64267,0.06649,-21.57232,1452.74010,0.12686,0.11415,0.01153,0.24717,0.98393,1.97927,1.39194
10:09:37.712635,1.99780,0.00669,12.44903,-0.04054,-21.98357,1419.49378,0.12716,0.11095,-0.00134,0.25315,0.98051,1.98852,1.40171
10:09:37.724060,2.00922,0.00776,12.20007,-0.14757,-22.35982,1376.45447,0.13068,0.11141,-0.02556,0.23723,0.97454,1.99971,1.37973
10:09:37.734501,2.01945,0.00718,11.97708,-0.24649,-22.67482,1337.93574,0.14106,0.10774,-0.03196,0.22210,0.96972,2.00922,1.37485
10:09:37.743822,2.02899,0.00636,11.75541,-0.34703,-23.12107,1299.66515,0.13969,0.11232,-0.02385,0.24607,0.96026,2.01961,1.40415
10:09:37.755337,2.04050,0.00751,11.49902,-0.44919,-23.16482,1255.26409,0.13862,0.12057,-0.00616,0.23107,0.94910,2.03119,1.36996
10:09:37.766702,2.05185,0.00850,11.24941,-0.54000,-23.40982,1211.95603,0.13343,0.12866,0.00421,0.20892,0.93769,2.04180,1.42613
10:09:37.778608,2.06296,0.00926,11.02353,-0.62595,-23.50607,1172.80058,0.12610,0.13294,0.00268,0.20703,0.92647,2.05152,1.42125
10:09:37.788171,2.07333,0.00781,10.72956,-0.71351,-23.37482,1121.60844,0.11922,0.13508,-0.01202,0.18019,0.91872,2.06343,1.41148
10:09:37.798186,2.08334,0.00734,10.45874,-0.78973,-23.81232,1074.40447,0.11205,0.13783,-0.03514,0.15244,0.91573,2.07326,1.43346
10:09:37.807770,2.09294,0.00640,10.18159,-0.85622,-24.21482,1025.98663,0.10670,0.14042,-0.04337,0.15903,0.91927,2.08360,1.34799
10:09:37.819659,2.10482,0.00793,9.90511,-0.91459,-24.90607,977.61020,0.10334,0.14729,-0.04813,0.15622,0.91982,2.09368,1.42369
10:09:37.830853,2.11602,0.00876,9.59439,-0.96973,-25.30857,923.14288,0.09922,0.14897,-0.04063,0.15860,0.92671,2.10519,1.35043
10:09:37.841714,2.12687,0.00902,9.33640,-1.02324,-25.70232,877.99180,0.09250,0.15417,-0.04697,0.16812,0.93117,2.11493,1.40415
10:09:37.852461,2.13762,0.00913,9.08012,-1.08162,-25.97357,833.19099,0.09051,0.16104,-0.04508,0.19801,0.94147,2.12561,1.42613
10:09:37.861255,2.14641,0.00781,8.85881,-1.14649,-25.57982,794.64224,0.08272,0.16791,-0.02922,0.21222,0.94477,2.13570,1.41392
10:09:37.871876,2.15635,0.00721,8.61900,-1.22108,-25.42232,752.91211,0.07723,0.17035,-0.03666,0.20014,0.94721,2.14628,1.38217
10:09:37.882918,2.16808,0.00872,8.37604,-1.30703,-24.93232,710.73318,0.07051,0.17830,-0.02916,0.17470,0.94544,2.15644,1.42857
10:09:37.893689,2.17795,0.00852,8.07623,-1.40108,-25.23857,658.57008,0.06058,0.18150,-0.03422,0.13737,0.94611,2.16759,1.44078
10:09:37.904551,2.18941,0.00987,7.79167,-1.50811,-25.70232,609.22904,0.06104,0.17997,-0.04886,0.11986,0.94452,2.17750,1.37729
10:09:37.913806,2.19896,0.00838,7.48710,-1.61676,-26.11357,556.36333,0.05722,0.17860,-0.06161,0.11980,0.95117,2.18817,1.40415
10:09:37.923724,2.20888,0.00811,7.21458,-1.71243,-26.57732,509.04647,0.05264,0.17692,-0.07094,0.12615,0.95642,2.19779,1.35775
10:09:37.934736,2.21908,0.00796,6.89316,-1.81622,-26.94482,453.15118,0.05493,0.17723,-0.06863,0.11907,0.96295,2.20902,1.41636
10:09:37.943744,2.22889,0.00770,6.64410,-1.91189,-27.25982,409.98538,0.05218,0.17585,-0.06625,0.13890,0.96685,2.21823,1.39194
10:09:37.955982,2.24022,0.00868,6.38934,-2.01243,-27.60107,365.85901,0.05447,0.17738,-0.06393,0.16500,0.96667,2.22851,1.40659
10:09:37.965158,2.25028,0.00753,6.16383,-2.11135,-27.39107,326.89363,0.04546,0.18563,-0.04605,0.21027,0.98021,2.23927,1.35287
10:09:37.975758,2.26091,0.00828,6.01201,-2.21351,-25.63232,301.00166,0.04073,0.19051,-0.02702,0.26267,0.99857,2.24955,1.41636
10:09:37.986649,2.27090,0.00808,5.83401,-2.32703,-23.26982,270.58518,0.03874,0.18975,0.00244,0.19874,0.99125,2.25988,1.37973
10:09:37.996726,2.28188,0.00823,5.59030,-2.47135,-21.85232,228.83338,0.03111,0.17707,0.02611,0.12456,0.98027,2.27121,1.37485
10:09:38.006623,2.29156,0.00773,5.36295,-2.62054,-20.60107,190.02564,0.02652,0.15921,0.01598,0.07784,0.95983,2.28067,1.39438
10:09:38.015384,2.30053,0.00633,5.02442,-2.80378,-19.69982,108.54535,0.02393,0.13615,-0.01476,-0.03575,0.93257,2.29119,1.39194
10:09:38.026946,2.31211,0.00773,4.71653,-3.00811,-20.25982,56.01157,0.02026,0.12286,-0.03623,-0.01251,0.92708,2.30121,1.40171
10:09:38.038009,2.32317,0.00843,4.44300,-3.25946,-20.56607,10.00954,0.03217,0.10835,-0.06881,0.05100,0.92659,2.31252,1.42613
10:09:38.047487,2.33265,0.00774,4.20904,-3.48486,-20.68857,-29.23872,0.02973,0.10591,-0.08369,0.04526,0.93592,2.32173,1.42857
10:09:38.058814,2.34397,0.00871,3.99414,-3.77838,-20.45232,-64.45812,0.02820,0.10698,-0.04447,0.10876,0.94385,2.33312,1.40415
10:09:38.066038,2.35120,0.00577,3.95542,-4.02649,-19.36732,-55.29650,0.00988,0.11996,-0.00848,0.26419,0.95825,2.34302,1.42613
10:09:38.077214,2.36168,0.00587,3.85419,-4.28432,-17.48607,6.39160,-0.00356,0.13095,-0.01434,0.16391,0.95611,2.35271,1.42613
10:09:38.088157,2.37329,0.00713,3.63755,-4.54865,-16.69857,2.87193,-0.02387,0.14256,-0.01019,0.05209,0.94147,2.36397,1.45299
10:09:38.097903,2.38304,0.00669,3.45220,-4.74649,-16.54107,-21.57846,-0.03624,0.14943,-0.00482,0.04368,0.91915,2.37321,1.43590
10:09:38.107603,2.39276,0.00605,3.17475,-4.94757,-17.04857,-89.56360,-0.04189,0.15585,0.01110,-0.02983,0.89304,2.38369,1.46032
10:09:38.117819,2.40296,0.00589,2.88798,-5.12108,-17.69607,-165.20488,-0.05610,0.15432,0.03154,-0.04111,0.86364,2.39386,1.45299
10:09:38.129177,2.41432,0.00688,2.60385,-5.27838,-18.89482,-263.13447,-0.07228,0.15691,0.05630,-0.00982,0.83905,2.40513,1.47009
10:09:38.139400,2.42454,0.00674,2.37315,-5.41946,-19.55982,-329.87854,-0.08786,0.15798,0.05960,0.02916,0.83619,2.41554,1.42369
10:09:38.150071,2.43453,0.00651,2.17853,-5.53297,-19.78732,-372.56376,-0.10405,0.16165,0.05752,0.07027,0.83009,2.42634,1.49206
10:09:38.159979,2.44514,0.00617,2.06603,-5.62703,-19.26232,-370.04833,-0.12634,0.16165,0.07424,0.12261,0.83174,2.43607,1.48962
10:09:38.170523,2.45547,0.00614,1.98854,-5.70811,-18.69357,-359.66625,-0.15628,0.15814,0.09601,0.15579,0.80971,2.44633,1.45543
10:09:38.180747,2.46519,0.00533,1.88935,-5.78757,-17.86232,-342.37918,-0.19323,0.15829,0.09955,0.12371,0.79129,2.45665,1.46032
10:09:38.192701,2.47726,0.00645,1.74953,-5.87351,-17.04857,-332.93835,-0.23538,0.14729,0.09058,0.09052,0.77110,2.46802,1.49451
10:09:38.202170,2.48733,0.00615,1.77445,-5.95459,-16.91732,-322.36754,-0.26898,0.15646,-0.80374,0.40028,1.38928,2.47815,1.45788
10:09:38.212458,2.49762,0.00608,1.96858,-6.04054,-7.56357,96.32197,-0.10145,0.10774,-0.63324,0.77818,1.99860,2.48853,1.46276
10:09:38.222862,2.50801,0.00615,2.03150,-6.11351,-4.43107,236.59214,0.08272,0.07475,-0.43737,0.37375,1.99860,2.49891,1.49451
10:09:38.232707,2.51787,0.00528,1.71845,-6.17027,-7.66857,48.98900,0.29256,0.02130,0.17257,-0.26889,1.25367,2.50949,1.39194
10:09:38.244080,2.52924,0.00644,1.61377,-6.20595,-10.41607,-81.84402,0.13953,-0.04803,0.69119,0.03751,0.63580,2.52007,1.32845
10:09:38.254661,2.53981,0.00665,1.10664,-6.21892,-15.44732,-377.76257,-0.01578,-0.09201,0.56376,-0.20734,0.54656,2.53013,1.18437
10:09:38.264362,2.54952,0.00615,1.05150,-6.21730,-17.66107,-478.30249,-0.10328,-0.10484,0.27633,0.11572,0.60658,2.54045,1.16972
10:09:38.275873,2.56103,0.00695,1.28683,-6.21405,-14.80857,-319.72837,-0.12909,-0.09079,0.13621,0.51222,0.91000,2.55200,2.00244
10:09:38.285519,2.57067,0.00641,1.37117,-6.21405,-10.45982,-126.50067,-0.09824,-0.05842,-0.50270,0.28048,1.08019,2.56109,3.02076
10:09:38.296351,2.58152,0.00688,1.14239,-6.21405,-11.19482,-197.13039,0.03676,0.00023,-0.43011,-0.08388,1.20097,2.57263,3.07448
10:09:38.307718,2.59287,0.00769,1.21846,-6.21405,-10.77482,-166.44478,0.11220,0.04406,-0.19056,0.30006,1.10453,2.58334,3.10379
10:09:38.317133,2.60229,0.00675,1.26928,-6.21405,-8.07982,-46.95584,0.10533,0.05795,0.15384,0.19581,0.98314,2.59324,3.09158
10:09:38.326723,2.61186,0.00612,0.87225,-6.21405,-7.11732,-77.76752,0.04684,0.04467,0.21344,-0.32013,0.91177,2.60276,3.08913
10:09:38.336782,2.62193,0.00591,0.43040,-6.21405,-10.78357,-306.28988,-0.03151,0.02695,0.10407,-0.33434,0.91616,2.61283,3.09402
10:09:38.348185,2.63334,0.00696,0.29793,-6.21405,-13.40857,-437.36282,-0.08099,0.03062,-0.09205,0.05447,1.01492,2.62426,3.08913
10:09:38.357905,2.64305,0.00593,0.41319,-6.21405,-11.73732,-348.44087,-0.06327,0.04406,-0.22381,0.31805,1.03682,2.63421,3.09646
10:09:38.368512,2.65367,0.00619,0.54498,-6.21405,-7.67732,-158.65322,-0.01868,0.04131,-0.28640,0.29189,1.03419,2.64444,3.10134
10:09:38.379283,2.66443,0.00659,0.51618,-6.21405,-5.00857,-54.33236,0.03813,0.04131,-0.13792,0.05697,0.89316,2.65544,3.11111
10:09:38.389575,2.67419,0.00615,0.25189,-6.21405,-5.08732,-104.33983,0.05600,0.03566,-0.03074,-0.18428,0.82783,2.66486,3.09646
10:09:38.399391,2.68455,0.00615,0.01974,-6.21405,-7.73857,-254.13205,0.03798,0.01840,0.09492,-0.12499,0.88157,2.67617,3.10134
10:09:38.411089,2.69623,0.00700,-0.22345,-6.21243,-9.86482,-384.36959,0.00774,-0.00359,0.05569,-0.13829,1.02718,2.68717,2.42491
10:09:38.421463,2.70661,0.00661,-0.34743,-6.20595,-10.66982,-439.38112,0.00270,-0.01596,0.00872,0.00427,1.14869,2.69758,1.71184
10:09:38.432358,2.71752,0.00717,-0.43960,-6.19297,-10.15357,-434.65339,0.00117,-0.02879,-0.08784,0.04148,1.21420,2.70815,1.49451
10:09:38.441382,2.72652,0.00597,-0.39791,-6.17027,-9.33982,-394.12773,0.01049,-0.03322,-0.04788,0.18690,1.11959,2.71749,1.42857
10:09:38.451810,2.73697,0.00606,-0.34463,-6.13622,-7.27482,-300.35865,0.01400,-0.03719,0.06167,0.16220,0.96551,2.72791,1.54090
10:09:38.462965,2.74811,0.00678,-0.41740,-6.10054,-6.78482,-293.49137,0.00148,-0.03291,0.03697,0.01812,0.87730,2.73907,1.40659
10:09:38.472195,2.75736,0.00534,-0.72903,-6.07946,-7.02107,-358.53972,-0.00997,-0.02329,-0.00659,-0.23284,0.85491,2.74895,1.43590
10:09:38.484057,2.76921,0.00683,-0.95690,-6.07135,-9.21732,-488.99568,-0.01043,-0.01153,-0.15463,-0.12932,0.94648,2.76008,2.80098
10:09:38.494129,2.77928,0.00626,-1.00589,-6.07135,-8.97232,-487.62275,0.01629,0.00817,-0.12078,0.05691,1.00125,2.77038,3.05006
10:09:38.504418,2.78958,0.00620,-0.97915,-6.07135,-6.58357,-384.95169,0.02408,0.01855,-0.05411,0.12188,1.01370,2.78119,3.09402
10:09:38.514837,2.79976,0.00597,-1.02135,-6.07135,-4.95607,-325.69270,0.03019,0.02833,0.03575,0.01244,0.99082,2.79073,3.09646
10:09:38.525127,2.80951,0.00550,-1.15091,-6.07135,-4.63232,-335.35172,0.01049,0.02787,0.09699,-0.08845,0.97466,2.80081,3.10379
10:09:38.536009,2.82117,0.00679,-1.23884,-6.07297,-4.96482,-364.53101,-0.01318,0.01367,0.01196,-0.03385,1.00931,2.81211,2.90598
10:09:38.545406,2.83055,0.00599,-1.29577,-6.08757,-4.88607,-371.23994,-0.00799,-0.00878,-0.01861,-0.01092,1.01797,2.82151,1.54090
10:09:38.555841,2.84100,0.00607,-1.38923,-6.13459,-4.64982,-377.64356,-0.00051,-0.02390,-0.07247,-0.05258,1.02346,2.83192,1.57021
10:09:38.566622,2.85157,0.00628,-1.48829,-6.21081,-4.60607,-392.65161,0.01645,-0.03077,0.00683,-0.05844,0.96825,2.84227,1.52381
10:09:38.576336,2.86150,0.00568,-1.54592,-6.31459,-4.45732,-395.75714,0.01247,-0.01932,0.02959,-0.01348,0.95678,2.85292,1.49206
10:09:38.587432,2.87230,0.00629,-1.55869,-6.41838,-3.61732,-362.58234,0.00896,-0.00542,0.04325,0.02647,0.96197,2.86373,1.47985
10:09:38.597048,2.88221,0.00586,-1.53240,-6.51568,-2.23482,-300.31246,0.00087,-0.00160,0.03630,0.05374,0.99826,2.87381,1.49451
10:09:38.607584,2.89275,0.00492,-1.59453,-6.59514,-1.46482,-278.97538,0.00224,0.00206,-0.01110,-0.05832,1.03523,2.88464,1.50916
10:09:38.618233,2.90340,0.00521,-1.70400,-6.65189,-1.85857,-313.95106,0.00102,0.00496,-0.00415,-0.11114,1.02340,2.89518,1.47497
10:09:38.629206,2.91365,0.00528,-1.75880,-6.69243,-2.55857,-351.96127,-0.00249,0.00756,-0.04154,-0.04099,1.03651,2.90521,1.50183
10:09:38.639747,2.92491,0.00617,-1.75408,-6.72324,-2.77732,-359.79866,0.00255,0.00313,-0.02080,0.03233,0.98497,2.91572,1.37485
10:09:38.649074,2.93423,0.00528,-1.73789,-6.74757,-2.25232,-335.17421,-0.00051,-0.00023,-0.05563,0.03770,0.97069,2.92580,1.50672
10:09:38.660601,2.94576,0.00660,-1.71177,-6.77027,-1.41232,-295.89310,0.00194,-0.00771,-0.03453,0.03904,0.93788,2.93628,1.34310
10:09:38.670242,2.95539,0.00586,-1.71654,-6.78649,-0.84357,-273.26337,-0.00555,-0.00741,-0.05783,-0.00092,0.94202,2.94650,1.65812
10:09:38.680031,2.96520,0.00520,-1.76623,-6.79459,-0.44107,-265.47791,0.00194,0.00084,-0.05533,-0.05557,0.95727,2.95680,1.08425
10:09:38.691711,2.97687,0.00651,-1.85606,-6.79622,-0.79982,-296.07088,0.00575,0.00359,-0.04630,-0.09845,0.97045,2.96735,1.28449
10:09:38.701415,2.98656,0.00585,-1.92062,-6.79622,-1.67482,-343.37282,0.00957,0.00741,-0.04593,-0.06381,1.00394,2.97749,1.44078
10:09:38.713066,2.99772,0.00665,-1.89421,-6.79622,-0.63357,-296.00852,0.00911,0.00832,-0.00213,0.02946,1.00003,2.98806,1.46520
10:09:38.721518,3.00668,0.00519,-1.87855,-6.79622,-0.25732,-277.81047,0.00056,0.00573,0.00445,0.01305,1.01846,2.99848,1.47253
10:09:38.733588,3.01805,0.00575,-1.88534,-6.79622,0.09268,-264.66146,-0.00112,0.00160,0.03605,-0.01720,0.99485,3.00970,1.47009
10:09:38.744187,3.02879,0.00614,-1.90147,-6.79622,-0.30982,-284.01903,-0.00799,-0.00206,0.01244,-0.02367,1.00418,3.01963,1.48962
10:09:38.753810,3.03896,0.00594,-1.89649,-6.79622,-0.23107,-279.90963,-0.00035,-0.00359,-0.00171,-0.00012,1.00168,3.02981,1.47497
10:09:38.764302,3.04946,0.00608,-1.92323,-6.79622,-0.41482,-292.17525,-0.00219,-0.01031,-0.01446,-0.03422,0.98814,3.04034,1.47253
10:09:38.774614,3.05958,0.00600,-1.93748,-6.79622,-0.49357,-297.92638,0.00514,-0.01214,-0.01086,-0.01946,0.98735,3.05070,1.49206
10:09:38.785297,3.07044,0.00609,-1.93739,-6.79622,-0.28357,-289.30028,0.00209,-0.01077,0.01006,-0.00549,0.97075,3.06139,1.47985
10:09:38.795811,3.08026,0.00556,-1.93152,-6.79622,-0.01232,-277.14102,-0.00051,-0.00573,-0.01403,-0.00226,0.99936,3.07190,1.48718
10:09:38.805308,3.09047,0.00551,-1.93744,-6.79622,0.34643,-263.47933,-0.00158,0.00313,-0.02446,-0.01982,0.99399,3.08180,1.48718
10:09:38.816895,3.10206,0.00674,-1.94349,-6.79784,0.61768,-253.41410,-0.00570,0.00634,-0.07259,-0.02470,1.00534,3.09352,2.10012
10:09:38.825705,3.11087,0.00519,-1.93500,-6.80432,0.59143,-252.92524,-0.00051,0.00756,-0.04362,-0.00555,0.98405,3.10265,1.61661
10:09:38.837321,3.12196,0.00595,-1.92743,-6.81892,0.45143,-257.18415,0.00056,0.00267,-0.02855,-0.00543,0.96429,3.11282,1.61172
10:09:38.847237,3.13238,0.00601,-1.93854,-6.83676,0.63518,-251.44651,-0.00264,0.00145,-0.02568,-0.02849,0.96069,3.12334,1.60684
10:09:38.858501,3.14281,0.00609,-1.94839,-6.85459,0.29393,-267.00955,0.00056,-0.00038,-0.03758,-0.02355,0.96331,3.13442,1.47009
10:09:38.867289,3.15245,0.00537,-1.92651,-6.86757,0.61768,-249.73931,-0.00417,0.00008,-0.06063,0.00915,0.99314,3.14405,1.18926
10:09:38.878132,3.16328,0.00600,-1.90387,-6.87081,0.99393,-230.27409,0.00209,-0.00405,-0.02898,0.00549,0.98454,3.15436,1.76068
10:09:38.889078,3.17423,0.00643,-1.90578,-6.87081,1.02018,-229.53528,0.00362,-0.00222,-0.01867,-0.02294,1.00449,3.16460,1.49206
10:09:38.899055,3.18338,0.00521,-1.92938,-6.87081,0.88893,-239.09452,0.00178,-0.00298,0.02440,-0.04648,0.99033,3.17516,1.48474
10:09:38.909295,3.19446,0.00609,-1.94051,-6.87081,0.46018,-258.64303,-0.00264,-0.00252,-0.00012,-0.02775,1.00888,3.18553,1.47985
10:09:38.922004,3.20714,0.00841,-1.93529,-6.87081,0.25893,-265.97111,-0.00600,0.00114,-0.01354,-0.00671,1.00504,3.19767,1.47741
10:09:38.930568,3.21487,0.00599,-1.88740,-6.87081,0.53893,-246.01313,-0.00371,-0.00084,-0.02184,0.04124,1.00302,3.20650,1.47497
10:09:38.940740,3.22590,0.00603,-1.86961,-6.87081,0.70518,-236.04924,-0.00112,-0.00298,-0.01879,0.00403,0.99668,3.21676,1.44567
10:09:38.950256,3.23542,0.00519,-1.87001,-6.87081,1.09893,-219.97564,-0.00081,0.00145,0.00061,-0.02098,0.96953,3.22720,1.47741
10:09:38.962692,3.24784,0.00741,-1.88491,-6.87081,0.81018,-234.45211,-0.00371,0.00298,-0.01854,-0.03428,0.98674,3.23726,1.46520
10:09:38.970996,3.25616,0.00537,-1.87642,-6.87081,0.47768,-246.58190,-0.00020,0.00649,-0.01824,-0.00409,0.97685,3.24776,1.47741
10:09:38.981863,3.26701,0.00598,-1.87982,-6.87081,0.48643,-246.82416,-0.00173,0.00313,-0.03910,-0.01769,0.99485,3.25793,1.47985
10:09:38.993118,3.27826,0.00687,-1.87108,-6.87081,0.56518,-242.04904,0.00072,0.00267,-0.02934,-0.00476,0.98832,3.26836,1.47253
10:09:39.003121,3.28828,0.00653,-1.86569,-6.87081,0.44268,-246.11831,0.00010,0.00313,-0.01610,-0.00695,0.98484,3.27872,1.47253
10:09:39.013609,3.29800,0.00606,-1.84617,-6.87081,0.60018,-236.20484,-0.00142,0.00298,-0.02043,0.00720,0.97887,3.28946,1.45543
10:09:39.023210,3.30836,0.00606,-1.83608,-6.87081,0.38143,-243.38825,-0.00020,-0.00084,-0.01671,-0.00018,0.97240,3.29927,1.47009
10:09:39.033341,3.31848,0.00598,-1.83114,-6.87081,0.40768,-241.43798,-0.00081,0.00023,-0.03373,-0.00641,0.98966,3.30946,1.47009
10:09:39.043779,3.32894,0.00608,-1.83030,-6.87081,0.20643,-249.53894,0.00346,-0.00008,-0.00616,-0.00866,0.97917,3.31985,1.47009
10:09:39.053931,3.33908,0.00586,-1.83789,-6.87081,0.19768,-251.24119,-0.00234,-0.00359,-0.01867,-0.01848,0.99717,3.33019,1.46520
10:09:39.064543,3.34970,0.00612,-1.83866,-6.87081,-0.09107,-263.21741,0.00331,-0.00252,0.00152,-0.00726,0.99204,3.34054,1.47009
10:09:39.073942,3.35910,0.00532,-1.84440,-6.87081,-0.11732,-265.30952,-0.00035,-0.00558,-0.01372,-0.01281,1.00131,3.35091,1.46276
10:09:39.084919,3.37008,0.00606,-1.83517,-6.87081,-0.16107,-265.46855,-0.00234,-0.00283,-0.01824,0.00500,1.00656,3.36083,1.48474
10:09:39.095625,3.38078,0.00639,-1.83371,-6.87081,0.03143,-257.31743,-0.00280,-0.00069,-0.01360,-0.00610,0.99467,3.37157,1.45788
10:09:39.105749,3.39089,0.00591,-1.83217,-6.87081,-0.03857,-259.91498,-0.00494,-0.00130,-0.02678,-0.00518,1.00144,3.38180,1.45788
10:09:39.116421,3.40158,0.00624,-1.84638,-6.87081,-0.16107,-267.45347,-0.00142,0.00023,-0.01769,-0.02135,0.97637,3.39302,1.48230
10:09:39.127704,3.41285,0.00667,-1.84888,-6.87081,-0.47607,-280.81039,-0.00295,0.00557,-0.04910,-0.00476,0.99003,3.40355,1.48474
10:09:39.137431,3.42258,0.00601,-1.85831,-6.87081,-0.32732,-276.38083,0.00010,0.00038,-0.02824,-0.01458,0.97643,3.41350,1.47985
10:09:39.147844,3.43229,0.00536,-1.84947,-6.87081,-0.11732,-266.20687,-0.00035,0.00359,-0.04477,0.00378,0.98735,3.42391,1.47253
10:09:39.158254,3.44341,0.00613,-1.85217,-6.87081,0.03143,-260.58615,0.00346,0.00206,-0.02178,-0.01098,0.97704,3.43522,1.45543
10:09:39.168553,3.45371,0.00589,-1.84855,-6.87081,-0.07357,-264.24908,-0.00310,0.00573,-0.02056,-0.00268,0.98295,3.44461,1.47253
10:09:39.179870,3.46503,0.00685,-1.86343,-6.87081,0.11018,-259.35014,-0.00188,0.00389,-0.02318,-0.02599,0.98277,3.45598,1.44078
10:09:39.188435,3.47360,0.00523,-1.86119,-6.87081,0.08393,-260.02972,-0.00341,0.00374,-0.01543,-0.00610,0.98112,3.46519,1.47497
10:09:39.198902,3.48406,0.00549,-1.86570,-6.87081,-0.21357,-273.02568,-0.00203,-0.00298,-0.02995,-0.01055,0.99631,3.47565,1.47009
10:09:39.210165,3.49532,0.00597,-1.85425,-6.87081,-0.05607,-264.54095,0.00438,-0.00313,-0.00073,0.00592,0.97954,3.48644,1.49206
10:09:39.220585,3.50575,0.00616,-1.85791,-6.87081,0.12768,-257.65587,-0.00219,-0.00558,-0.01025,-0.01354,0.99241,3.49739,1.47253
10:09:39.232615,3.51697,0.00655,-1.86113,-6.87081,-0.22232,-272.57608,0.00117,-0.00726,0.01086,-0.00885,0.98722,3.50773,1.48962
10:09:39.241540,3.52671,0.00592,-1.86838,-6.87081,-0.05607,-267.04167,-0.00203,-0.00115,-0.00781,-0.01574,1.00272,3.51757,1.47497
10:09:39.252824,3.53797,0.00683,-1.87232,-6.87081,-0.03857,-267.02294,-0.00005,-0.00130,-0.01299,-0.01214,1.00168,3.52891,1.47985
10:09:39.262215,3.54736,0.00587,-1.87838,-6.87081,0.15393,-260.20240,-0.00203,-0.00237,-0.00885,-0.01677,0.99680,3.53848,1.45543
10:09:39.273177,3.55717,0.00518,-1.88760,-6.87243,0.35518,-253.56756,0.00026,-0.00206,-0.01921,-0.02306,0.99717,3.54878,0.53724
10:09:39.283252,3.56753,0.00519,-1.88920,-6.87568,0.36393,-253.46075,-0.00356,0.00221,0.00012,-0.01434,0.98045,3.55932,2.13919
10:09:39.292964,3.57813,0.00543,-1.89260,-6.87892,0.43393,-251.16201,-0.00249,0.00237,-0.03385,-0.01726,0.99216,3.56948,0.84982
10:09:39.303806,3.58897,0.00546,-1.87703,-6.88541,0.32018,-253.00695,-0.00341,0.00511,-0.02855,0.00549,0.97996,3.58058,1.47497
10:09:39.315745,3.60090,0.00703,-1.86973,-6.89027,0.59143,-240.54630,0.00010,0.00328,-0.04416,-0.00714,0.99186,3.59167,2.25153
10:09:39.325901,3.61104,0.00677,-1.86098,-6.89189,0.73143,-233.24319,0.00423,0.00420,-0.02050,-0.00616,0.97466,3.60175,0.61294
10:09:39.336334,3.62149,0.00686,-1.87574,-6.89189,0.74893,-235.13766,-0.00127,0.00252,-0.02788,-0.03343,0.97832,3.61235,0.34676
10:09:39.345708,3.63086,0.00587,-1.87459,-6.89189,0.43393,-247.84897,-0.00066,0.00221,-0.02794,-0.01135,0.98655,3.62177,0.28571
10:09:39.356262,3.64142,0.00607,-1.87207,-6.89189,0.48643,-245.24975,-0.00249,-0.00313,-0.02849,-0.01086,0.98033,3.63232,0.22955
10:09:39.366037,3.65120,0.00549,-1.85200,-6.89189,0.52143,-240.26270,-0.00051,-0.00222,-0.03745,0.00903,0.99619,3.64270,0.22466
10:09:39.376111,3.66127,0.00524,-1.85036,-6.89189,0.67893,-233.51456,0.00041,-0.00328,-0.00781,-0.01348,0.98277,3.65284,0.21490
10:09:39.388816,3.67345,0.00706,-1.84148,-6.89189,0.70518,-230.86807,0.00117,0.00099,-0.01836,-0.00671,0.99772,3.66440,0.20757
10:09:39.397464,3.68192,0.00534,-1.84531,-6.89189,0.26768,-249.48345,0.00346,-0.00069,-0.00647,-0.01464,0.98808,3.67354,0.20513
10:09:39.407878,3.69304,0.00611,-1.83127,-6.89189,0.57393,-234.44157,-0.00646,0.00023,-0.02019,0.00189,0.99802,3.68392,0.20024
10:09:39.419037,3.70417,0.00688,-1.83281,-6.89189,0.46893,-239.01962,0.00224,-0.00054,-0.01732,-0.01501,0.99326,3.69497,0.19536
10:09:39.428984,3.71413,0.00664,-1.82963,-6.89189,0.18893,-249.93608,0.00087,-0.00069,-0.00970,-0.00573,0.99216,3.70457,0.19780
10:09:39.438798,3.72395,0.00610,-1.82412,-6.89189,0.65268,-229.94707,0.00041,0.00084,-0.01623,-0.00848,0.99467,3.71472,0.19048
10:09:39.448900,3.73404,0.00599,-1.81113,-6.89189,0.34643,-240.20414,-0.00096,-0.00115,-0.00781,0.00378,0.98491,3.72485,0.19048
10:09:39.459827,3.74498,0.00657,-1.81058,-6.89189,0.50393,-233.64882,-0.00158,-0.00008,-0.03044,-0.01275,0.99711,3.73594,0.19048
10:09:39.471525,3.75592,0.00683,-1.80316,-6.89189,0.47768,-233.41164,-0.00203,0.00176,-0.01787,-0.00421,0.97972,3.74675,0.19048
10:09:39.480379,3.76554,0.00609,-1.79803,-6.89189,0.39018,-236.09143,-0.00051,0.00405,-0.02727,-0.00518,0.98893,3.75642,0.19292
10:09:39.491020,3.77617,0.00617,-1.79634,-6.89189,0.43393,-233.99966,0.00102,0.00466,-0.01446,-0.00994,0.97887,3.76712,0.19292
10:09:39.501454,3.78661,0.00642,-1.79409,-6.89189,0.08393,-247.95053,-0.00051,0.00221,-0.01879,-0.00500,0.98137,3.77703,0.19780
10:09:39.511448,3.79660,0.00605,-1.79486,-6.89189,-0.03857,-253.10950,-0.00264,0.00038,-0.02525,-0.00708,0.98802,3.78754,0.19536
10:09:39.522996,3.80814,0.00689,-1.78018,-6.89189,0.02268,-247.99977,-0.00096,-0.00099,-0.02269,0.00988,0.98265,3.79843,0.20757
10:09:39.532523,3.81767,0.00590,-1.77733,-6.89189,-0.00357,-248.57121,0.00117,-0.00069,-0.02946,-0.00311,0.99503,3.80858,0.19048
10:09:39.543596,3.82876,0.00663,-1.77268,-6.89189,-0.23107,-257.07629,0.00682,-0.00099,-0.00573,0.00189,0.98594,3.81972,0.18803
10:09:39.553577,3.83873,0.00641,-1.77938,-6.89189,-0.30982,-261.49130,-0.00142,-0.00176,-0.01397,-0.01080,0.99906,3.82915,0.18315
10:09:39.564382,3.84951,0.00602,-1.77973,-6.89189,-0.34482,-262.98693,0.00041,0.00191,-0.00641,-0.00238,0.98771,3.84044,0.20024
10:09:39.575635,3.86080,0.00694,-1.78736,-6.89189,-0.54607,-272.58867,-0.00295,-0.00054,-0.01995,-0.00830,0.99973,3.85173,0.19780
10:09:39.585365,3.87051,0.00646,-1.78171,-6.89189,-0.37982,-264.77389,-0.00005,0.00496,-0.01751,0.00390,0.99467,3.86086,0.19048
10:09:39.595640,3.88080,0.00640,-1.79137,-6.89189,-0.51107,-271.86402,-0.00295,0.00053,-0.01586,-0.01141,0.99241,3.87154,0.19048
10:09:39.606033,3.89118,0.00658,-1.79440,-6.89189,-0.25732,-261.99699,0.00545,-0.00008,-0.02019,-0.00695,0.98814,3.88231,0.19048
10:09:39.616305,3.90146,0.00666,-1.81116,-6.89189,-0.90482,-291.51054,0.00102,0.00038,-0.01641,-0.01549,0.98259,3.89240,0.20269
10:09:39.626254,3.91141,0.00625,-1.82104,-6.89189,-0.79982,-288.95378,-0.00066,-0.00160,-0.03916,-0.00952,0.99125,3.90214,0.19780
10:09:39.637158,3.92231,0.00679,-1.82783,-6.89189,-0.76482,-288.72206,0.00652,-0.00267,-0.02946,-0.00525,0.97801,3.91327,0.19780
10:09:39.646796,3.93194,0.00606,-1.82758,-6.89189,-0.57232,-280.78493,0.00117,-0.00206,-0.03398,-0.00073,0.99223,3.92286,0.19536
10:09:39.657614,3.94277,0.00669,-1.83803,-6.89189,-0.62482,-284.78675,0.00270,-0.00069,-0.01732,-0.01153,0.98314,3.93368,0.19292
10:09:39.667579,3.95274,0.00631,-1.85079,-6.89189,-0.59857,-285.96886,-0.00188,0.00343,-0.01989,-0.01543,0.98442,3.94340,0.21734
10:09:39.677523,3.96267,0.00588,-1.86170,-6.89189,-0.64232,-289.69441,-0.00310,0.00160,-0.02294,-0.01281,0.99046,3.95358,0.19292
10:09:39.688514,3.97367,0.00652,-1.86342,-6.89189,-0.52857,-285.33471,-0.00066,0.00389,-0.02214,-0.00311,0.98295,3.96471,0.19536
10:09:39.699047,3.98418,0.00679,-1.86848,-6.89189,-0.45857,-283.36021,-0.00051,0.00053,-0.02196,-0.00830,0.99473,3.97516,0.19780
10:09:39.709249,3.99440,0.00653,-1.87954,-6.89189,-0.57232,-289.98116,-0.00112,0.00008,-0.00177,-0.01391,0.97996,3.98538,0.18803
10:09:39.719105,4.00425,0.00618,-1.88496,-6.89351,-0.69482,-295.94839,0.00010,-0.00222,-0.01147,-0.00665,0.99076,3.99521,0.19292
10:09:39.729233,4.01440,0.00614,-1.88786,-6.89514,-0.46732,-287.11794,0.00178,-0.00283,-0.00354,-0.00592,0.98661,4.00584,0.19780
10:09:39.742058,4.02721,0.00843,-1.88736,-6.90000,-0.21357,-276.57913,-0.00203,-0.00191,-0.01964,-0.00506,0.99967,4.01696,0.20513
10:09:39.750211,4.03536,0.00640,-1.90012,-6.90973,-0.26607,-280.89614,-0.00112,-0.00435,-0.02007,-0.02019,0.99540,4.02653,0.32967
10:09:39.761286,4.04573,0.00559,-1.91810,-6.92595,-0.33607,-286.79375,-0.00494,-0.00359,-0.01684,-0.02513,0.99137,4.03734,0.96459
10:09:39.771413,4.05656,0.00604,-1.93463,-6.94541,-0.08232,-279.12870,-0.00555,-0.00023,-0.02586,-0.02690,0.98997,4.04751,1.32112
10:09:39.781517,4.06667,0.00595,-1.92724,-6.96973,0.18018,-266.82554,-0.00081,0.00191,-0.01592,-0.00262,0.97874,4.05764,1.33333
10:09:39.792163,4.07646,0.00538,-1.92635,-6.99892,0.38143,-258.13644,0.00117,0.00389,-0.03288,-0.01244,0.98954,4.06807,1.49695
10:09:39.802185,4.08732,0.00588,-1.92658,-7.02973,0.36393,-258.59746,-0.00219,0.00420,-0.01995,-0.01330,0.97704,4.07842,1.46764
10:09:39.814213,4.09868,0.00674,-1.92607,-7.06865,0.74893,-242.34893,-0.00081,0.00282,-0.03453,-0.01848,0.99155,4.09029,1.47009
10:09:39.823775,4.10893,0.00663,-1.91819,-7.10108,0.51268,-250.33020,-0.00066,-0.00267,-0.01885,-0.00543,0.98448,4.09990,1.51404
10:09:39.833361,4.11851,0.00584,-1.91761,-7.14000,0.80143,-238.01417,-0.00188,-0.00267,-0.02483,-0.01659,0.97783,4.10944,1.50183
10:09:39.844705,4.12985,0.00682,-1.92152,-7.18703,0.74018,-240.76556,0.00408,-0.00649,-0.03587,-0.02287,0.99253,4.12077,1.49206
10:09:39.854184,4.13934,0.00595,-1.91141,-7.22757,1.05518,-225.67218,0.00408,-0.00451,-0.02001,-0.00866,0.98454,4.13038,1.41148
10:09:39.864649,4.14980,0.00592,-1.90075,-7.27622,0.90643,-229.41738,-0.00096,-0.00252,-0.02861,-0.00701,0.99040,4.14069,1.50916
10:09:39.875156,4.15946,0.00523,-1.88872,-7.32811,1.35268,-208.49410,0.00087,-0.00405,-0.01202,-0.01074,0.98289,4.15123,1.49695
10:09:39.885325,4.17047,0.00588,-1.88616,-7.38000,1.43143,-204.31434,-0.00219,0.00008,-0.02952,-0.02196,0.99631,4.16138,1.49206
10:09:39.896914,4.18206,0.00711,-1.87209,-7.44162,1.67643,-191.18585,-0.00035,-0.00176,-0.02428,-0.01409,0.98582,4.17301,1.42613
10:09:39.906857,4.19121,0.00591,-1.87063,-7.49838,1.77268,-186.43769,0.00026,0.00038,-0.02769,-0.02519,0.98905,4.18240,1.41880
10:09:39.916927,4.20179,0.00628,-1.84667,-7.56811,1.88643,-176.86287,-0.00219,0.00023,-0.01452,-0.00213,0.99094,4.19257,1.44811
10:09:39.927564,4.21272,0.00685,-1.83242,-7.64270,2.13143,-163.57962,0.00072,-0.00130,-0.01153,-0.01793,0.98942,4.20365,1.42125
10:09:39.937442,4.22260,0.00634,-1.81260,-7.72378,1.96518,-166.10916,-0.00356,-0.00206,-0.02208,-0.00683,0.99351,4.21367,1.42125
10:09:39.948244,4.23340,0.00621,-1.79280,-7.80973,2.20143,-152.09288,-0.00371,-0.00573,-0.01208,-0.01074,0.98857,4.22431,1.44078
10:09:39.958492,4.24345,0.00589,-1.76703,-7.89081,2.27143,-143.88406,-0.00356,-0.00222,-0.03428,-0.00329,0.99284,4.23453,1.47253
10:09:39.968733,4.25388,0.00605,-1.74234,-7.97514,2.26268,-139.06361,0.00148,-0.00237,-0.01970,-0.00390,0.97832,4.24474,1.48474
10:09:39.979262,4.26440,0.00606,-1.71050,-8.06919,2.42018,-126.06649,-0.00173,-0.00466,-0.02483,0.00177,0.98960,4.25536,1.44322
10:09:39.989887,4.27504,0.00635,-1.68250,-8.16324,2.28018,-125.94740,-0.00142,-0.00680,-0.00781,0.00085,0.97740,4.26549,1.45543
10:09:39.999990,4.28515,0.00608,-1.66446,-8.26541,2.19268,-125.36117,-0.00127,-0.00222,-0.01610,-0.01013,0.98362,4.27604,1.46764
10:09:40.010459,4.29542,0.00599,-1.64277,-8.36919,2.54268,-106.17602,-0.00035,-0.00328,-0.02525,-0.00939,0.99027,4.28643,1.47741
10:09:40.020682,4.30514,0.00522,-1.60776,-8.48270,2.45518,-102.47720,-0.00081,-0.00481,-0.01580,0.00762,0.98765,4.29671,1.42857
10:09:40.031226,4.31637,0.00609,-1.58140,-8.60108,2.49893,-94.88151,-0.00417,-0.00267,-0.01989,-0.00299,0.99735,4.30726,1.46032
10:09:40.041316,4.32576,0.00529,-1.55686,-8.72108,2.78768,-77.54780,-0.00051,-0.00359,-0.00268,-0.00653,0.98088,4.31734,1.43834
10:09:40.051747,4.33690,0.00607,-1.54095,-8.84757,2.62143,-80.33287,-0.00112,-0.00451,-0.01934,-0.01549,0.99796,4.32781,1.46764
10:09:40.063026,4.34819,0.00700,-1.55330,-8.97730,2.35893,-92.03605,0.00087,-0.00588,-0.04929,-0.04447,0.96209,4.33873,1.42369
10:09:40.072457,4.35761,0.00606,-1.52383,-9.11027,1.73768,-111.01512,0.00408,0.00038,-0.01360,0.01232,1.00144,4.34851,1.45299
10:09:40.083281,4.36842,0.00669,-1.38524,-9.23514,2.27143,-63.40082,0.00316,-0.00130,-0.00683,0.13188,0.98838,4.35874,1.42125
10:09:40.093652,4.37879,0.00677,-1.40114,-9.35838,3.37393,-19.83042,-0.00509,-0.01260,-0.00323,-0.05984,0.99723,4.36956,1.45788
10:09:40.103545,4.38869,0.00631,-1.43098,-9.48324,2.57768,-56.56025,-0.00417,-0.00527,-0.02379,-0.06356,0.99912,4.37936,1.40659
10:09:40.114717,4.39902,0.00611,-1.40001,-9.60486,1.72018,-85.06795,-0.00738,-0.00191,-0.04538,0.01293,0.99290,4.39084,1.47009
10:09:40.124188,4.40935,0.00608,-1.37032,-9.71027,1.72893,-78.44244,0.00530,-0.00466,-0.05819,0.01598,0.99271,4.40023,1.38462
10:09:40.134652,4.41978,0.00619,-1.31984,-9.79946,1.40518,-81.92456,0.00408,-0.00328,-0.03904,0.04148,0.97551,4.41074,1.46764
10:09:40.145141,4.42946,0.00556,-1.27408,-9.86757,1.06393,-87.16224,0.00178,-0.00038,0.00207,0.04148,0.97533,4.42082,1.41392
10:09:40.155170,4.43947,0.00521,-1.18698,-9.91622,1.44893,-55.49324,-0.00264,-0.00160,0.00866,0.08528,0.98478,4.43125,1.49939
10:09:40.165205,4.45036,0.00590,-1.15328,-9.94703,1.33518,-53.89680,-0.01135,-0.00160,-0.00500,0.02775,1.00070,4.44129,1.34799
10:09:40.175785,4.46094,0.00613,-1.15695,-9.96000,1.07268,-65.18505,-0.00952,-0.00130,-0.03032,-0.01293,1.01534,4.45180,1.01587
10:09:40.187674,4.47283,0.00766,-1.17585,-9.96000,0.52143,-91.13023,-0.00234,-0.00328,-0.00598,-0.02434,0.98875,4.46376,0.36386
10:09:40.196755,4.48190,0.00636,-1.20083,-9.96000,0.01393,-116.35950,-0.00432,-0.00512,-0.00512,-0.02477,0.98466,4.47253,0.25885
10:09:40.205794,4.49096,0.00521,-1.22439,-9.96000,-0.35357,-135.59697,0.00316,-0.00619,0.02001,-0.01903,0.96819,4.48274,0.21734
10:09:40.216758,4.50191,0.00589,-1.16214,-9.96000,-0.54607,-132.47134,-0.00280,-0.00573,0.01360,0.08082,0.98411,4.49281,0.20513
10:09:40.227277,4.51242,0.00604,-1.12663,-9.96000,0.25893,-93.18203,-0.00173,-0.00130,0.00994,0.04227,0.99448,4.50337,0.19048
10:09:40.237559,4.52269,0.00596,-1.14823,-9.96000,0.47768,-88.03558,-0.00478,0.00496,-0.00854,-0.02593,1.00589,4.51353,0.18803
10:09:40.248509,4.53367,0.00658,-1.18255,-9.96000,-0.10857,-118.14711,-0.00203,0.01168,-0.01061,-0.03416,1.00186,4.52407,0.17094
10:09:40.260144,4.54475,0.00730,-1.18843,-9.96000,-0.48482,-134.61363,0.00163,0.01306,-0.01037,0.00354,0.99814,4.53567,0.17094
10:09:40.268024,4.55319,0.00525,-1.19218,-9.96000,-0.76482,-146.75711,-0.00448,0.00893,-0.01769,0.00738,0.99241,4.54475,0.18315
10:09:40.279406,4.56455,0.00603,-1.18280,-9.96000,-0.88732,-150.11987,-0.00173,0.00664,-0.02123,0.02513,0.98070,4.55551,0.18071
10:09:40.291386,4.57626,0.00738,-1.15560,-9.95514,-0.79982,-141.76539,-0.00356,0.00664,-0.03642,0.04514,0.98405,4.56670,0.18803
10:09:40.300246,4.58541,0.00610,-1.12631,-9.94541,-0.60732,-128.78178,-0.00081,0.00496,-0.03751,0.04429,0.97984,4.57629,0.24664
10:09:40.311348,4.59551,0.00584,-1.12019,-9.92919,-0.52857,-124.62450,0.00209,0.00114,-0.04288,0.01800,0.98210,4.58664,0.84249
10:09:40.321273,4.60591,0.00591,-1.16975,-9.90486,-0.80857,-145.11012,0.00835,-0.00099,-0.04069,-0.04246,0.98155,4.59680,1.32845
10:09:40.331477,4.61663,0.00626,-1.22654,-9.87405,-1.71857,-192.76715,0.00194,-0.00130,-0.03428,-0.04008,0.98411,4.60757,1.42369
10:09:40.343237,4.62747,0.00674,-1.25129,-9.84162,-1.72732,-197.81918,0.00056,-0.00176,-0.03849,-0.00384,0.99704,4.61858,1.47741
10:09:40.352505,4.63765,0.00656,-1.24283,-9.81405,-1.95482,-205.91277,0.00072,-0.00390,-0.04093,0.03483,0.99643,4.62856,1.52625
10:09:40.361502,4.64667,0.00522,-1.23037,-9.79459,-1.38607,-180.57696,0.00010,-0.00191,-0.03965,0.03294,0.99570,4.63844,1.48718
10:09:40.373233,4.65839,0.00645,-1.23031,-9.78486,-0.83482,-158.05716,0.00377,-0.00390,-0.02269,0.01281,0.98173,4.64875,1.33333
10:09:40.383203,4.66835,0.00605,-1.26568,-9.78486,-0.69482,-158.57814,-0.00234,-0.00130,-0.02208,-0.02922,0.98472,4.65929,0.43712
10:09:40.393379,4.67852,0.00585,-1.30958,-9.78486,-1.36857,-193.97279,-0.00356,-0.00145,-0.02257,-0.03215,0.98387,4.66945,0.27106
10:09:40.403956,4.68910,0.00606,-1.33505,-9.78486,-1.13232,-188.79406,0.00102,0.00084,-0.02605,-0.01403,0.98869,4.68002,0.23932
10:09:40.414138,4.69929,0.00604,-1.34770,-9.78486,-1.28107,-197.13188,-0.00127,-0.00038,-0.02568,0.00177,0.99698,4.69039,0.21245
10:09:40.425357,4.71050,0.00647,-1.35550,-9.78486,-1.26357,-197.79458,0.00514,0.00008,-0.01147,0.00714,0.98783,4.70091,0.20024
10:09:40.435367,4.72050,0.00610,-1.35537,-9.78486,-0.91357,-183.42268,-0.00234,0.00099,-0.01421,0.01189,0.98881,4.71139,0.19536
10:09:40.445271,4.73043,0.00567,-1.35562,-9.78486,-0.67732,-173.78083,-0.00264,0.00313,-0.00311,0.00836,0.98051,4.72155,0.19048
10:09:40.457644,4.74278,0.00738,-1.37207,-9.78486,-0.44982,-167.36489,-0.00203,-0.00191,-0.02281,-0.01196,0.99113,4.73349,0.19780
10:09:40.466987,4.75213,0.00631,-1.40114,-9.78486,-0.78232,-186.14178,0.00087,-0.00115,-0.01732,-0.02440,0.98674,4.74293,0.18315
10:09:40.477687,4.76227,0.00589,-1.42226,-9.78486,-0.89607,-194.54368,0.00026,-0.00084,-0.01928,-0.01379,0.99009,4.75319,0.18803
10:09:40.488230,4.77339,0.00632,-1.41594,-9.78486,-0.61607,-181.94576,0.00392,-0.00374,-0.00293,0.01476,0.98789,4.76429,0.19048
10:09:40.499422,4.78456,0.00713,-1.40442,-9.78486,-0.61607,-179.90633,0.00056,0.00313,0.00024,0.02037,0.98997,4.77463,0.20024
10:09:40.508643,4.79380,0.00588,-1.40215,-9.78486,-0.20482,-162.64359,0.00255,0.00557,-0.00421,0.00506,0.99704,4.78472,0.20269
10:09:40.519158,4.80430,0.00603,-1.40613,-9.78486,-0.12607,-160.11879,-0.00463,0.00343,-0.00549,-0.00299,0.99753,4.79524,0.19536
10:09:40.529964,4.81511,0.00648,-1.42698,-9.78486,-0.29232,-170.62530,-0.00463,0.00603,-0.01769,-0.02080,0.99942,4.80542,0.18803
10:09:40.540687,4.82584,0.00684,-1.44171,-9.78486,-0.28357,-172.87514,-0.00402,0.00374,-0.01037,-0.01360,0.98643,4.81675,0.18315
10:09:40.551157,4.83545,0.00583,-1.44604,-9.78486,-0.16982,-168.97733,-0.00096,0.00252,-0.01409,-0.00354,0.98924,4.82723,0.18315
10:09:40.561334,4.84649,0.00647,-1.44449,-9.78486,-0.33607,-175.51902,-0.00280,-0.00084,-0.01421,0.00476,0.98210,4.83682,0.18071
10:09:40.571759,4.85692,0.00671,-1.43516,-9.78486,-0.21357,-168.84422,0.00010,-0.00069,-0.02147,0.01263,0.98600,4.84734,0.19048
10:09:40.581318,4.86647,0.00589,-1.42519,-9.78486,-0.09107,-162.05694,0.00102,0.00053,-0.02818,0.01202,0.98643,4.85736,0.19536
10:09:40.591849,4.87701,0.00607,-1.42487,-9.78486,-0.09107,-162.00171,0.00117,0.00069,-0.02647,0.00116,0.98674,4.86792,0.18315
10:09:40.602036,4.88719,0.00589,-1.44053,-9.78486,-0.25732,-171.58970,-0.00112,0.00252,-0.02916,-0.01531,0.99088,4.87829,0.18071
10:09:40.613050,4.89768,0.00586,-1.45308,-9.78486,-0.46732,-182.42135,0.00087,0.00389,-0.02513,-0.00952,0.98704,4.88861,0.19292
10:09:40.622752,4.90791,0.00574,-1.45210,-9.78486,-0.40607,-179.73589,-0.00448,0.00542,-0.03385,0.00525,0.99332,4.89917,0.18559
10:09:40.633114,4.91826,0.00589,-1.43871,-9.78486,-0.22232,-169.83121,-0.00112,0.00435,-0.02629,0.01714,0.98619,4.90920,0.17582
10:09:40.644215,4.92860,0.00587,-1.43551,-9.78486,-0.29232,-172.13496,0.00163,0.00466,-0.02525,0.00683,0.99088,4.92024,0.18315
10:09:40.653611,4.93877,0.00572,-1.44457,-9.78486,-0.13482,-167.28143,0.00163,0.00389,-0.02397,-0.00927,0.98423,4.93057,0.19048
10:09:40.664466,4.94962,0.00616,-1.46212,-9.78486,-0.46732,-184.02043,0.00194,0.00191,-0.02446,-0.01549,0.98631,4.94055,0.18559
10:09:40.674708,4.95985,0.00602,-1.47685,-9.78486,-0.37982,-183.04073,0.00209,-0.00008,-0.02745,-0.01348,0.98918,4.95078,0.20269
10:09:40.685418,4.96999,0.00594,-1.48039,-9.78486,-0.37982,-183.66778,0.00087,-0.00145,-0.02111,-0.00092,0.98704,4.96087,0.18559
10:09:40.695893,4.98105,0.00665,-1.48187,-9.78486,-0.44107,-186.44103,-0.00051,-0.00787,-0.02196,0.00232,0.99216,4.97138,0.20024
10:09:40.706833,4.99157,0.00681,-1.48175,-9.78486,-0.33607,-182.11458,0.00010,-0.00512,-0.01214,0.00275,0.98960,4.98155,0.18803
10:09:40.716540,5.00168,0.00655,-1.48837,-9.78486,-0.19607,-177.54536,-0.00173,-0.00466,-0.02178,-0.00647,0.99589,4.99260,0.20269
10:09:40.728623,5.01105,0.00556,-1.49372,-9.78486,-0.00357,-170.60085,-0.00280,-0.00435,-0.01921,-0.00750,0.98918,5.00247,0.19292
10:09:40.736636,5.02179,0.00603,-1.50454,-9.78486,0.17143,-165.34043,-0.00081,-0.00099,-0.02428,-0.01586,0.98686,5.01264,0.18803
10:09:40.747131,5.03228,0.00615,-1.51327,-9.78486,-0.01232,-174.41965,-0.00096,0.00160,-0.02001,-0.01153,0.98643,5.02314,0.19292
10:09:40.756556,5.04171,0.00539,-1.51425,-9.78486,0.15393,-167.77646,0.00224,0.00206,-0.01964,-0.00470,0.98692,5.03332,0.17582
10:09:40.768967,5.05412,0.00759,-1.50282,-9.78486,0.37268,-156.78465,-0.00280,0.00817,-0.02074,0.00695,0.98765,5.04365,0.19536
10:09:40.777597,5.06274,0.00586,-1.48936,-9.78486,0.28518,-157.98928,0.00026,0.00389,-0.03019,0.01061,0.98765,5.05367,0.18071
10:09:40.788711,5.07386,0.00661,-1.48195,-9.78486,0.42518,-150.93853,-0.00219,-0.00115,-0.01970,0.00189,0.99345,5.06456,0.17338
10:09:40.798735,5.08387,0.00627,-1.48246,-9.78486,0.43393,-150.66889,0.00117,-0.00191,-0.01214,-0.00677,0.98881,5.07458,0.18803
10:09:40.808051,5.09321,0.00522,-1.48468,-9.78486,0.52143,-147.47545,-0.00234,-0.00099,-0.01128,-0.00988,0.99040,5.08479,0.17582
10:09:40.819779,5.10440,0.00604,-1.48209,-9.78486,0.49518,-148.09352,0.00010,-0.00252,-0.00750,-0.00427,0.99155,5.09534,0.18071
10:09:40.829519,5.11467,0.00595,-1.47799,-9.78486,0.41643,-150.59641,-0.00356,-0.00008,-0.01177,-0.00134,0.99033,5.10550,0.17827
10:09:40.840047,5.12520,0.00607,-1.46649,-9.78486,0.66143,-138.51522,-0.00448,0.00191,-0.02019,0.00409,0.99216,5.11613,0.17582
10:09:40.851123,5.13627,0.00678,-1.45691,-9.78486,0.75768,-132.87307,-0.00173,0.00221,-0.01684,0.00049,0.98850,5.12724,0.17827
10:09:40.861229,5.14568,0.00585,-1.45309,-9.78486,0.72268,-133.63248,-0.00295,0.00557,-0.01702,-0.00470,0.98979,5.13731,0.18071
10:09:40.871118,5.15628,0.00608,-1.45333,-9.78486,0.61768,-137.98054,-0.00096,0.00527,-0.01128,-0.00793,0.98539,5.14719,0.17338
10:09:40.881402,5.16655,0.00596,-1.44330,-9.78486,0.60893,-136.56319,-0.00417,0.00649,-0.02098,0.00366,0.99131,5.15751,0.17338
10:09:40.892650,5.17780,0.00685,-1.43789,-9.78486,0.43393,-142.78000,-0.00402,0.00221,-0.02111,0.00012,0.99223,5.16872,0.17582
10:09:40.903461,5.18810,0.00687,-1.42453,-9.78486,0.57393,-134.67620,-0.00280,0.00328,-0.02477,0.00817,0.99186,5.17904,0.18803
10:09:40.912673,5.19783,0.00625,-1.41103,-9.78486,0.65268,-129.05743,-0.00081,0.00389,-0.02513,0.00823,0.98997,5.18855,0.18315
10:09:40.923411,5.20804,0.00609,-1.40083,-9.78486,0.65268,-127.25145,-0.00005,0.00038,-0.01928,0.00396,0.98253,5.19898,0.19292
10:09:40.933422,5.21856,0.00642,-1.40252,-9.78486,0.68768,-126.11670,0.00224,-0.00008,-0.02458,-0.00982,0.98722,5.20927,0.17827
10:09:40.943769,5.22892,0.00643,-1.40537,-9.78486,0.22393,-145.63543,0.00056,-0.00023,-0.02166,-0.00573,0.98295,5.21948,0.18803
10:09:40.953501,5.23865,0.00596,-1.40378,-9.78486,0.35518,-139.97132,-0.00219,-0.00451,-0.03184,-0.00220,0.99277,5.22962,0.17582
10:09:40.964174,5.24864,0.00571,-1.39515,-9.78486,0.52143,-131.62767,-0.00249,-0.00237,-0.02312,0.00390,0.99125,5.23998,0.17582
10:09:40.974050,5.25920,0.00590,-1.38703,-9.78486,0.29393,-139.51782,0.00178,0.00023,-0.02489,0.00616,0.99131,5.25028,0.19292
10:09:40.984532,5.26969,0.00589,-1.37937,-9.78486,0.42518,-132.78070,0.00072,-0.00390,-0.02233,0.00421,0.98826,5.26061,0.19048
10:09:40.995092,5.28024,0.00607,-1.37658,-9.78486,0.13643,-144.12548,-0.00295,-0.00466,-0.02153,0.00207,0.98582,5.27118,0.18071
10:09:41.005859,5.29100,0.00591,-1.37215,-9.78486,0.48643,-128.99196,0.00133,-0.00512,-0.02348,-0.00024,0.98881,5.28187,0.19536
10:09:41.016859,5.30201,0.00655,-1.36708,-9.78486,0.09268,-144.23898,-0.00219,-0.00863,-0.01891,0.00531,0.98753,5.29276,0.17827
10:09:41.026703,5.31185,0.00604,-1.35965,-9.78486,0.07518,-143.64152,-0.00249,-0.00588,-0.02281,0.00842,0.98911,5.30271,0.18803
10:09:41.036775,5.32192,0.00590,-1.35569,-9.78486,-0.17857,-153.34356,-0.00051,-0.00374,-0.01525,0.00744,0.98796,5.31282,0.18803
10:09:41.047303,5.33243,0.00604,-1.35160,-9.78486,-0.13482,-150.82548,0.00117,-0.00130,-0.01915,0.00726,0.99265,5.32336,0.18315
10:09:41.057143,5.34230,0.00556,-1.34516,-9.78486,0.11018,-139.64208,0.00087,-0.00084,-0.01671,0.00714,0.99204,5.33353,0.19292
10:09:41.068682,5.35384,0.00685,-1.35274,-9.78486,-0.24857,-155.69232,-0.00234,0.00206,-0.01397,-0.00458,0.99021,5.34439,0.17827
10:09:41.079179,5.36433,0.00638,-1.35624,-9.78486,-0.18732,-153.79986,0.00102,0.00359,-0.01348,-0.00079,0.98887,5.35507,0.16850
10:09:41.089453,5.37390,0.00576,-1.36018,-9.78486,-0.26607,-157.72565,-0.00219,0.00099,-0.00994,-0.00049,0.98570,5.36549,0.17827
10:09:41.100466,5.38562,0.00711,-1.35679,-9.78486,-0.46732,-165.37710,-0.00371,-0.00084,-0.01616,0.01061,0.99149,5.37654,0.19292
10:09:41.109569,5.39472,0.00585,-1.35194,-9.78486,-0.21357,-154.11461,0.00026,0.00466,-0.01299,0.00866,0.98692,5.38565,0.18071
10:09:41.120207,5.40536,0.00614,-1.34908,-9.78486,-0.43232,-162.57795,-0.00005,0.00008,-0.01537,0.00945,0.99094,5.39622,0.21245
10:09:41.130500,5.41546,0.00587,-1.35428,-9.78486,-0.31857,-158.83385,-0.00066,0.00053,-0.00793,-0.00122,0.98619,5.40655,0.20269
10:09:41.142022,5.42717,0.00717,-1.36177,-9.78486,-0.40607,-163.74690,-0.00264,0.00069,-0.01409,-0.00262,0.99314,5.41757,0.19048
10:09:41.151472,5.43663,0.00617,-1.36837,-9.78486,-0.47607,-167.78636,-0.00264,-0.00008,-0.01568,-0.00140,0.99393,5.42758,0.20024
10:09:41.162255,5.44618,0.00544,-1.36751,-9.78486,-0.59857,-172.65556,0.00133,0.00359,-0.01739,0.00848,0.99076,5.43758,0.17827
10:09:41.173374,5.45793,0.00683,-1.37215,-9.78486,-0.52857,-170.60673,-0.00219,0.00176,-0.02208,0.00213,0.99192,5.44886,0.18803
10:09:41.182178,5.46733,0.00587,-1.37508,-9.78486,-0.70357,-178.30030,0.00102,0.00435,-0.01616,0.00488,0.98728,5.45844,0.18803
10:09:41.192687,5.47784,0.00590,-1.38121,-9.78486,-0.58107,-174.36377,0.00117,0.00374,-0.02513,0.00030,0.98918,5.46875,0.21001
10:09:41.202246,5.48741,0.00526,-1.38626,-9.78486,-0.58107,-175.25676,0.00010,0.00084,-0.02184,0.00152,0.98606,5.47918,0.17582
10:09:41.213999,5.49914,0.00679,-1.39739,-9.78486,-0.61607,-178.66198,-0.00310,0.00130,-0.02952,-0.00470,0.99308,5.49028,0.17827
10:09:41.222956,5.50812,0.00541,-1.40462,-9.78486,-0.51107,-175.63678,-0.00020,-0.00054,-0.02605,-0.00268,0.99113,5.49969,0.18803
10:09:41.233888,5.51903,0.00597,-1.41082,-9.78486,-0.62482,-181.39762,-0.00066,0.00405,-0.02470,0.00018,0.98942,5.50993,0.19048
10:09:41.244354,5.52950,0.00616,-1.41468,-9.78486,-0.65982,-183.51616,0.00224,0.00191,-0.02605,0.00335,0.98869,5.52042,0.19780
10:09:41.255770,5.54093,0.00723,-1.41821,-9.78486,-0.58107,-180.91170,-0.00005,0.00206,-0.02336,0.00262,0.98747,5.53074,0.18559
10:09:41.264874,5.55004,0.00602,-1.43205,-9.78486,-0.78232,-191.61411,-0.00295,0.00221,-0.02861,-0.00689,0.99046,5.54115,0.20024
10:09:41.276935,5.56208,0.00744,-1.44541,-9.78486,-0.85232,-196.84862,0.00133,-0.00054,-0.02409,-0.00427,0.98570,5.55305,0.19536
10:09:41.286618,5.57094,0.00574,-1.45815,-9.78486,-0.93982,-202.69009,-0.00249,0.00114,-0.02660,-0.00500,0.99082,5.56272,0.18315
10:09:41.297134,5.58205,0.00600,-1.46376,-9.78486,-0.96607,-204.75890,0.00087,-0.00130,-0.01684,0.00378,0.98728,5.57286,0.19048
10:09:41.307290,5.59244,0.00617,-1.46900,-9.78486,-0.84357,-200.66523,0.00026,-0.00160,-0.02287,0.00305,0.98814,5.58337,0.18559
10:09:41.317487,5.60264,0.00596,-1.47364,-9.78486,-1.00982,-208.30250,-0.00096,-0.00145,-0.02239,0.00531,0.98875,5.59359,0.18559
10:09:41.327933,5.61309,0.00606,-1.48259,-9.78486,-0.95732,-207.73375,-0.00509,-0.00328,-0.02123,-0.00012,0.98777,5.60401,0.18559
10:09:41.338164,5.62330,0.00591,-1.49096,-9.78486,-0.83482,-204.19253,-0.00188,-0.00069,-0.02294,-0.00110,0.99076,5.61439,0.19536
10:09:41.349792,5.63495,0.00706,-1.50162,-9.78486,-0.92232,-209.66703,-0.00020,-0.00496,-0.01873,-0.00293,0.98789,5.62469,0.20024
10:09:41.359150,5.64429,0.00605,-1.51265,-9.78486,-1.17607,-222.02347,0.00209,-0.00435,-0.02092,-0.00024,0.99052,5.63524,0.19048
10:09:41.370499,5.65478,0.00593,-1.52122,-9.78486,-1.04482,-218.15808,0.00392,-0.00527,-0.01653,0.00165,0.99101,5.64647,0.19292
10:09:41.380857,5.66600,0.00679,-1.52833,-9.78486,-1.17607,-224.79911,-0.00234,-0.00237,-0.01763,0.00384,0.99107,5.65696,0.18803
10:09:41.389597,5.67476,0.00518,-1.53266,-9.78486,-0.73857,-207.62752,0.00072,-0.00206,-0.01494,0.00098,0.98814,5.66655,0.18803
10:09:41.401760,5.68690,0.00691,-1.54421,-9.78486,-0.94857,-218.28235,0.00316,-0.00099,-0.01647,-0.00329,0.98814,5.67784,0.19048
10:09:41.411334,5.69556,0.00521,-1.55519,-9.78486,-0.91357,-218.79042,-0.00142,0.00160,-0.01421,-0.00512,0.98661,5.68735,0.18559
10:09:41.421839,5.70698,0.00599,-1.56580,-9.78486,-0.89607,-219.95006,0.00041,0.00328,-0.01415,-0.00403,0.99046,5.69791,0.18803
10:09:41.432213,5.71737,0.00617,-1.57707,-9.78486,-1.14107,-231.99113,-0.00005,-0.00008,-0.01653,-0.00226,0.99107,5.70830,0.19292
10:09:41.442943,5.72709,0.00552,-1.58374,-9.78486,-1.14107,-233.17192,0.00209,0.00114,-0.01434,0.00275,0.98857,5.71862,0.18803
10:09:41.452040,5.73720,0.00520,-1.59312,-9.78486,-1.12357,-234.11444,-0.00600,-0.00328,-0.01513,-0.00085,0.99259,5.72880,0.19048
10:09:41.464042,5.74920,0.00684,-1.60444,-9.78486,-1.04482,-232.88867,0.00194,0.00206,-0.01128,-0.00287,0.99003,5.74008,0.18559
10:09:41.474080,5.75895,0.00605,-1.62057,-9.78486,-1.28982,-245.78925,-0.00005,-0.00267,-0.01531,-0.00634,0.98985,5.75076,0.19292
10:09:41.484200,5.76937,0.00626,-1.63159,-9.78486,-1.42982,-253.47962,0.00148,-0.00176,-0.01263,-0.00092,0.98594,5.76028,0.19536
10:09:41.493483,5.77865,0.00518,-1.64463,-9.78486,-1.27232,-249.33048,0.00346,-0.00130,-0.01854,-0.00421,0.98777,5.77044,0.19536
10:09:41.504010,5.78917,0.00521,-1.65462,-9.78486,-1.07107,-242.84724,0.00072,-0.00099,-0.02196,-0.00305,0.99027,5.78076,0.20513
10:09:41.515593,5.80075,0.00613,-1.66822,-9.78486,-1.12357,-247.40594,0.00163,0.00176,-0.01940,-0.00598,0.98789,5.79169,0.19780
10:09:41.527523,5.81268,0.00771,-1.68348,-9.78486,-0.93107,-242.21592,-0.00127,0.00405,-0.02324,-0.00970,0.98783,5.80339,0.18559
10:09:41.537218,5.82237,0.00703,-1.69613,-9.78486,-0.92232,-244.09528,0.00102,0.00496,-0.02257,-0.00994,0.98582,5.81231,0.18803
10:09:41.545732,5.83090,0.00521,-1.71259,-9.78486,-1.23732,-259.92322,-0.00081,0.00573,-0.02324,-0.00939,0.99149,5.82268,0.19292
10:09:41.556843,5.84199,0.00597,-1.72126,-9.78486,-1.13232,-257.15291,0.00453,0.00114,-0.02166,-0.00220,0.98375,5.83283,0.18803
10:09:41.569145,5.85430,0.00792,-1.73247,-9.78486,-1.07107,-256.62614,0.00010,0.00130,-0.02593,-0.00384,0.98771,5.84474,0.18559
10:09:41.576715,5.86188,0.00523,-1.74196,-9.78486,-1.20232,-263.68692,0.00178,-0.00496,-0.02702,-0.00458,0.98710,5.85350,0.19048
10:09:41.587914,5.87307,0.00607,-1.75528,-9.78486,-1.08857,-261.38100,0.00087,-0.00252,-0.02440,-0.00811,0.98558,5.86400,0.20024
10:09:41.599104,5.88426,0.00690,-1.76833,-9.78486,-0.86107,-254.36391,0.00010,-0.00206,-0.02696,-0.01031,0.98960,5.87497,0.18559
10:09:41.609342,5.89449,0.00662,-1.78458,-9.78486,-1.05357,-265.13306,-0.00066,0.00038,-0.02031,-0.01238,0.98796,5.88545,0.18559
10:09:41.619907,5.90507,0.00684,-1.79457,-9.78486,-0.85232,-258.64924,-0.00524,-0.00069,-0.02373,-0.00787,0.99204,5.89595,0.20513
10:09:41.629140,5.91429,0.00586,-1.80330,-9.78486,-0.93982,-263.78262,-0.00219,0.00038,-0.02013,-0.00683,0.98924,5.90524,0.19536
10:09:41.641278,5.92610,0.00732,-1.81723,-9.78486,-0.96607,-267.32387,0.00285,-0.00069,-0.02129,-0.01049,0.98911,5.91652,0.19536
10:09:41.650845,5.93512,0.00597,-1.82991,-9.78486,-0.80857,-263.11144,-0.00051,-0.00054,-0.02172,-0.01226,0.98686,5.92674,0.18559
10:09:41.659735,5.94490,0.00539,-1.83914,-9.78486,-0.65982,-258.64568,-0.00326,0.00130,-0.02056,-0.01061,0.98875,5.93648,0.18559
10:09:41.671262,5.95640,0.00653,-1.84699,-9.78486,-0.53732,-255.01278,0.00301,-0.00115,-0.01787,-0.00982,0.98759,5.94737,0.19780
10:09:41.681473,5.96662,0.00635,-1.85704,-9.78486,-0.86982,-270.42479,0.00102,-0.00130,-0.01555,-0.00945,0.98887,5.95720,0.19536
10:09:41.691500,5.97666,0.00616,-1.86378,-9.78486,-0.66857,-263.36512,0.00484,-0.00145,-0.01885,-0.00762,0.99332,5.96762,0.19048
10:09:41.701771,5.98692,0.00622,-1.87194,-9.78486,-0.66857,-264.81074,0.00133,-0.00099,-0.02007,-0.00952,0.99027,5.97786,0.20024
10:09:41.711337,5.99650,0.00538,-1.87486,-9.78486,-0.35357,-252.41174,-0.00142,-0.00374,-0.02166,-0.00726,0.98905,5.98809,0.20024
10:09:41.724297,6.00945,0.00678,-1.88175,-9.78486,-0.58107,-262.95848,0.00285,-0.00176,-0.01739,-0.00811,0.98637,6.00000,0.18803
10:09:41.733746,6.01890,0.00585,-1.88605,-9.78486,-0.50232,-260.49071,-0.00188,-0.00237,-0.01806,-0.00750,0.98600,6.00982,0.20269
10:09:41.744706,6.02913,0.00528,-1.88872,-9.78486,-0.37107,-255.58312,-0.00219,0.00176,-0.01513,-0.00671,0.98674,6.02076,0.19780
10:09:41.753662,6.03883,0.00462,-1.88905,-9.78486,-0.27482,-251.69462,0.00255,0.00374,-0.02031,-0.00543,0.99247,6.03121,0.19536
10:09:41.765546,6.05070,0.00522,-1.89101,-9.78486,-0.23982,-250.60640,-0.00219,0.00099,-0.01659,-0.00750,0.99052,6.04247,0.18315
10:09:41.778056,6.06322,0.00724,-1.89364,-9.78486,-0.25732,-251.79042,-0.00341,0.00389,-0.01677,-0.00775,0.98814,6.05484,0.19048
10:09:41.788596,6.07302,0.00669,-1.89748,-9.78486,-0.19607,-249.95769,0.00072,0.00053,-0.01549,-0.01068,0.99021,6.06440,0.19780
10:09:41.797509,6.08267,0.00572,-1.90352,-9.78486,-0.35357,-257.48459,-0.00402,0.00282,-0.01537,-0.01135,0.98777,6.07447,0.19292
10:09:41.809165,6.09431,0.00700,-1.90764,-9.78486,-0.44982,-262.16068,-0.00249,0.00206,-0.01732,-0.00787,0.99125,6.08514,0.21245
10:09:41.819287,6.10443,0.00674,-1.90631,-9.78486,-0.28357,-255.10941,-0.00142,0.00069,-0.02092,-0.00403,0.98863,6.09467,0.18803
10:09:41.828814,6.11398,0.00590,-1.90672,-9.78486,-0.03857,-245.13649,-0.00066,0.00053,-0.02086,-0.00860,0.98753,6.10491,0.19292
10:09:41.839993,6.12444,0.00600,-1.90941,-9.78486,-0.17857,-251.35266,0.00087,0.00206,-0.02172,-0.00958,0.98979,6.11542,0.19048
10:09:41.849456,6.13461,0.00531,-1.91286,-9.78486,-0.14357,-250.52817,-0.00127,-0.00099,-0.02635,-0.01080,0.98637,6.12642,0.18803
10:09:41.860343,6.14551,0.00559,-1.91624,-9.78486,-0.17857,-252.56044,0.00285,0.00435,-0.02617,-0.01043,0.99015,6.13715,0.19292
10:09:41.871113,6.15626,0.00613,-1.92051,-9.78486,-0.21357,-254.75131,-0.00432,0.00206,-0.02294,-0.01122,0.98741,6.14722,0.20513
10:09:41.881853,6.16632,0.00572,-1.92206,-9.78486,-0.15232,-252.51451,-0.00203,-0.00237,-0.02483,-0.00872,0.98698,6.15812,0.19048
10:09:41.892306,6.17747,0.00651,-1.92237,-9.78486,-0.10857,-250.77530,0.00056,0.00145,-0.02147,-0.00799,0.98680,6.16796,0.19048
10:09:41.902811,6.18794,0.00641,-1.92177,-9.78486,-0.09107,-249.95280,-0.00112,0.00160,-0.02062,-0.00708,0.99033,6.17882,0.18559
10:09:41.913007,6.19814,0.00614,-1.92222,-9.78486,-0.16982,-253.26140,-0.00158,-0.00283,-0.01891,-0.00744,0.98680,6.18880,0.19536
10:09:41.923393,6.20785,0.00550,-1.92589,-9.78486,-0.20482,-255.34568,0.00041,-0.00252,-0.02202,-0.01061,0.98832,6.19943,0.20513
10:09:41.934054,6.21920,0.00649,-1.92747,-9.78486,-0.09107,-250.96074,0.00041,-0.00466,-0.02056,-0.00970,0.98832,6.20949,0.19780
10:09:41.944629,6.22978,0.00670,-1.93183,-9.78486,-0.11732,-252.81021,0.00133,-0.00283,-0.02123,-0.01251,0.99033,6.22076,0.19292
10:09:41.955611,6.24046,0.00656,-1.93357,-9.78486,-0.13482,-253.83452,0.00072,-0.00313,-0.02043,-0.00945,0.98966,6.23110,0.19536
10:09:41.965121,6.25027,0.00617,-1.93417,-9.78486,0.00518,-248.20101,-0.00066,-0.00069,-0.01720,-0.00982,0.98979,6.24093,0.18803
10:09:41.975616,6.26077,0.00625,-1.93144,-9.78486,0.18018,-240.54364,-0.00188,0.00221,-0.01684,-0.00811,0.98753,6.25164,0.19780
10:09:41.985554,6.27071,0.00598,-1.93041,-9.78486,0.16268,-241.07852,0.00178,-0.00099,-0.01769,-0.00970,0.98881,6.26174,0.19292
10:09:41.995634,6.28080,0.00540,-1.92958,-9.78486,-0.05607,-249.89974,-0.00371,0.00343,-0.01732,-0.00738,0.99021,6.27241,0.19048
10:09:42.007234,6.29150,0.00573,-1.93371,-9.78486,-0.16982,-255.29501,-0.00371,-0.00252,-0.01952,-0.01165,0.98863,6.28330,0.19048
10:09:42.016074,6.30123,0.00521,-1.93056,-9.78486,0.27643,-236.44118,-0.00035,0.00023,-0.01769,-0.00842,0.98808,6.29284,0.19048
10:09:42.027877,6.31304,0.00634,-1.92950,-9.78486,-0.04732,-249.52669,-0.00326,-0.00069,-0.01623,-0.00714,0.98674,6.30466,0.18803
10:09:42.038171,6.32216,0.00526,-1.92531,-9.78486,0.11018,-242.32833,-0.00494,0.00038,-0.01635,-0.00531,0.98796,6.31377,0.19048
10:09:42.048285,6.33344,0.00620,-1.92445,-9.78486,-0.21357,-255.44866,-0.00341,0.00084,-0.02050,-0.00537,0.98985,6.32435,0.18803
10:09:42.058504,6.34345,0.00584,-1.92178,-9.78486,0.02268,-245.29126,-0.00142,0.00130,-0.02135,-0.00610,0.98820,6.33457,0.18559
10:09:42.068742,6.35389,0.00589,-1.91980,-9.78486,0.05768,-243.50531,-0.00051,0.00206,-0.02123,-0.00726,0.99064,6.34481,0.19048
10:09:42.080920,6.36580,0.00743,-1.91713,-9.78486,-0.13482,-250.92442,-0.00295,0.00099,-0.02269,-0.00415,0.99119,6.35534,0.19048
10:09:42.089452,6.37461,0.00603,-1.91663,-9.78486,-0.03857,-246.88998,-0.00066,-0.00115,-0.02373,-0.00775,0.98942,6.36592,0.19292
10:09:42.101170,6.38633,0.00712,-1.91696,-9.78486,-0.13482,-250.89441,-0.00096,-0.00069,-0.02513,-0.00744,0.98832,6.37706,0.18559
10:09:42.111443,6.39660,0.00653,-1.91405,-9.78486,-0.29232,-256.83801,0.00117,-0.00008,-0.02220,-0.00207,0.99094,6.38722,0.19536
10:09:42.121772,6.40692,0.00665,-1.91364,-9.78486,-0.30982,-257.48158,0.00072,-0.00054,-0.02470,-0.00451,0.98997,6.39787,0.19780
10:09:42.132361,6.41752,0.00688,-1.91399,-9.78486,-0.16107,-251.44518,-0.00066,-0.00160,-0.02678,-0.00720,0.98918,6.40843,0.18315
10:09:42.141935,6.42708,0.00596,-1.91611,-9.78486,-0.24857,-255.40883,-0.00142,-0.00023,-0.02635,-0.00842,0.98948,6.41822,0.18559
10:09:42.152844,6.43800,0.00652,-1.91726,-9.78486,-0.16982,-252.38269,-0.00051,0.00008,-0.02483,-0.00811,0.98905,6.42844,0.19048
10:09:42.163476,6.44837,0.00653,-1.92321,-9.78486,-0.34482,-260.61075,-0.00066,-0.00008,-0.02513,-0.01159,0.98667,6.43871,0.19048
10:09:42.173585,6.45797,0.00593,-1.92643,-9.78486,-0.29232,-259.02884,0.00240,0.00221,-0.02348,-0.00897,0.98765,6.44962,0.20024
10:09:42.183283,6.46843,0.00603,-1.93355,-9.78486,-0.55482,-271.05128,-0.00081,0.00114,-0.01970,-0.01098,0.98692,6.45937,0.20269
10:09:42.194920,6.47834,0.00559,-1.93862,-9.78486,-0.65107,-275.89550,-0.00264,0.00221,-0.02031,-0.00726,0.99052,6.46975,0.19780
10:09:42.204986,6.48947,0.00635,-1.94020,-9.78486,-0.38857,-265.41203,0.00087,0.00176,-0.01958,-0.00598,0.98966,6.48109,0.19292
10:09:42.214219,6.49937,0.00589,-1.94131,-9.78486,-0.51982,-270.99010,0.00056,-0.00191,-0.01921,-0.00494,0.99119,6.49047,0.19780
10:09:42.225212,6.51037,0.00641,-1.94364,-9.78486,-0.53732,-272.11961,0.00285,0.00038,-0.01421,-0.00561,0.98924,6.50076,0.19048
10:09:42.235897,6.52106,0.00674,-1.94939,-9.78649,-0.65982,-278.14431,-0.00035,-0.00237,-0.01427,-0.00744,0.99009,6.51203,0.19536
10:09:42.246166,6.53131,0.00603,-1.95713,-9.79135,-0.63357,-278.39107,-0.00081,-0.00084,-0.01342,-0.01080,0.98838,6.52239,0.19048
10:09:42.257028,6.54167,0.00587,-1.96651,-9.80108,-0.82607,-287.85009,-0.00341,0.00069,-0.01568,-0.01074,0.99174,6.53260,0.20269
10:09:42.271181,6.55545,0.00833,-1.97760,-9.81243,-0.75607,-286.83388,0.00041,-0.00084,-0.01549,-0.00988,0.99027,6.54722,0.21490
10:09:42.277732,6.56290,0.00532,-1.98371,-9.82378,-0.65982,-283.86146,-0.00112,0.00069,-0.01665,-0.01135,0.98954,6.55461,0.67155
10:09:42.287476,6.57264,0.00464,-1.99757,-9.83027,-0.97482,-299.16633,-0.00005,0.00176,-0.01702,-0.01458,0.98674,6.56481,0.98657
10:09:42.298149,6.58332,0.00496,-2.00241,-9.83351,-0.50232,-280.61979,-0.00035,0.00267,-0.01830,-0.00952,0.98667,6.57571,2.66422
10:09:42.308153,6.59331,0.00459,-2.00717,-9.83514,-0.53732,-282.88234,-0.00035,0.00176,-0.01976,-0.00976,0.98844,6.58551,1.81685
10:09:42.319040,6.60389,0.00481,-2.01452,-9.83514,-0.61607,-287.41205,-0.00295,0.00282,-0.02043,-0.01141,0.98765,6.59607,1.49939
10:09:42.331819,6.61696,0.00768,-2.02451,-9.83514,-0.51982,-285.23297,0.00240,0.00099,-0.01800,-0.01543,0.98844,6.60713,1.47985
10:09:42.339934,6.62510,0.00523,-2.03020,-9.83514,-0.58982,-289.11046,-0.00264,0.00450,-0.02086,-0.01080,0.98875,6.61668,1.46276
10:09:42.350549,6.63549,0.00526,-2.03619,-9.83514,-0.62482,-291.60622,0.00010,0.00221,-0.02373,-0.01019,0.99149,6.62723,1.43590
10:09:42.360462,6.64561,0.00519,-2.04087,-9.83514,-0.44982,-285.25860,-0.00188,0.00374,-0.02367,-0.01110,0.98869,6.63725,1.46520
10:09:42.370743,6.65590,0.00512,-2.04272,-9.83514,-0.33607,-280.92376,0.00117,0.00084,-0.02483,-0.00891,0.98722,6.64810,1.45788
10:09:42.380822,6.66599,0.00484,-2.04513,-9.83514,-0.40607,-284.21910,-0.00142,0.00313,-0.02245,-0.00897,0.98722,6.65839,1.47253
10:09:42.391073,6.67624,0.00473,-2.04943,-9.83514,-0.38857,-284.26357,-0.00539,0.00084,-0.02257,-0.01147,0.98600,6.66847,1.46764
10:09:42.404176,6.68934,0.00761,-2.05639,-9.83514,-0.53732,-291.59395,-0.00142,-0.00069,-0.02214,-0.01189,0.98997,6.68028,1.46032
10:09:42.412891,6.69804,0.00595,-2.05900,-9.83514,-0.49357,-290.26260,-0.00051,0.00206,-0.02275,-0.00933,0.98789,6.68895,1.44811
10:09:42.422701,6.70786,0.00541,-2.06621,-9.83514,-0.53732,-293.33210,-0.00463,0.00053,-0.02281,-0.01318,0.99119,6.69942,1.46520
10:09:42.432251,6.71742,0.00461,-2.07222,-9.83514,-0.49357,-292.60250,-0.00158,0.00008,-0.01903,-0.01257,0.98753,6.70960,1.45299
10:09:42.442761,6.72792,0.00476,-2.07935,-9.83514,-0.63357,-299.60460,0.00163,-0.00130,-0.02068,-0.01208,0.98777,6.72014,1.45299
10:09:42.452928,6.73810,0.00457,-2.08187,-9.83514,-0.54607,-296.46222,-0.00096,-0.00374,-0.02123,-0.00805,0.98753,6.73050,1.47253
10:09:42.464212,6.74938,0.00538,-2.08726,-9.83514,-0.54607,-297.41692,-0.00310,-0.00160,-0.02403,-0.01122,0.98863,6.74118,1.45299
10:09:42.473749,6.75892,0.00456,-2.09124,-9.83514,-0.39732,-292.02260,0.00255,-0.00222,-0.02037,-0.01171,0.98802,6.75133,1.43590
10:09:42.486025,6.77118,0.00647,-2.09789,-9.83514,-0.46732,-296.06972,-0.00142,-0.00328,-0.02062,-0.01403,0.98680,6.76149,1.46032
10:09:42.496681,6.78113,0.00606,-2.10162,-9.83514,-0.23107,-287.04309,0.00255,-0.00237,-0.01891,-0.01324,0.98857,6.77274,1.47741
10:09:42.505075,6.79024,0.00481,-2.10809,-9.83514,-0.27482,-289.98269,0.00010,0.00008,-0.01714,-0.01635,0.98960,6.78263,1.48718
10:09:42.515330,6.80050,0.00458,-2.10935,-9.83514,-0.22232,-288.05292,0.00255,0.00206,-0.02074,-0.01098,0.98887,6.79272,1.47253
10:09:42.526047,6.81122,0.00495,-2.11137,-9.83514,-0.45857,-298.09622,-0.00158,0.00328,-0.01763,-0.00878,0.99192,6.80362,1.45299
10:09:42.536045,6.82121,0.00458,-2.11359,-9.83514,-0.38857,-295.61941,0.00148,-0.00176,-0.01635,-0.01037,0.98832,6.81341,1.46276
10:09:42.546893,6.83206,0.00507,-2.11469,-9.83514,-0.23107,-289.35618,-0.00020,0.00160,-0.01824,-0.01068,0.98930,6.82396,1.47253
10:09:42.556777,6.84194,0.00459,-2.11985,-9.83514,-0.33607,-294.57481,0.00010,0.00252,-0.01909,-0.01415,0.98698,6.83433,1.45543
10:09:42.568537,6.85370,0.00586,-2.12348,-9.83514,-0.24857,-291.63024,-0.00035,0.00374,-0.01982,-0.01324,0.99088,6.84587,1.46520
10:09:42.579048,6.86421,0.00571,-2.12796,-9.83514,-0.12607,-287.40017,-0.00066,-0.00099,-0.02220,-0.01610,0.99058,6.85578,1.47009
10:09:42.588604,6.87377,0.00492,-2.12836,-9.83514,0.04893,-280.29543,-0.00173,-0.00023,-0.02043,-0.01348,0.99125,6.86615,1.45788
10:09:42.599418,6.88458,0.00538,-2.13253,-9.83514,-0.15232,-289.28646,-0.00448,-0.00115,-0.01940,-0.01543,0.98814,6.87652,1.48230
10:09:42.610649,6.89543,0.00586,-2.13239,-9.83514,0.14518,-277.06332,0.00224,0.00313,-0.01848,-0.01397,0.98802,6.88656,1.47741
10:09:42.620320,6.90549,0.00549,-2.13190,-9.83514,-0.01232,-283.43441,-0.00295,0.00008,-0.01781,-0.01177,0.98753,6.89680,1.46764
10:09:42.629746,6.91491,0.00456,-2.13457,-9.83514,0.12768,-278.16602,-0.00203,0.00053,-0.01842,-0.01708,0.98918,6.90733,1.47253
10:09:42.640114,6.92528,0.00457,-2.13883,-9.83514,0.03143,-282.86750,-0.00096,-0.00008,-0.01934,-0.01775,0.98594,6.91749,1.46276
10:09:42.651703,6.93687,0.00571,-2.13968,-9.83514,0.25018,-274.04858,-0.00127,0.00099,-0.02037,-0.01684,0.98808,6.92903,1.46276
10:09:42.660887,6.94606,0.00468,-2.13763,-9.83514,0.21518,-275.12119,-0.00005,-0.00054,-0.02190,-0.01257,0.98948,6.93844,1.45299
10:09:42.672008,6.95717,0.00558,-2.13357,-9.83514,0.38143,-267.58510,-0.00096,0.00221,-0.01940,-0.01238,0.98887,6.94881,1.44811
10:09:42.682009,6.96717,0.00523,-2.13301,-9.83514,0.25893,-272.50994,0.00041,0.00069,-0.02031,-0.01488,0.99076,6.95895,1.45055
10:09:42.691639,6.97680,0.00466,-2.13032,-9.83514,0.31143,-269.88025,-0.00371,0.00374,-0.02031,-0.01293,0.98899,6.96896,1.47253
10:09:42.703164,6.98832,0.00583,-2.12721,-9.83514,0.47768,-262.51475,-0.00035,-0.00160,-0.01982,-0.01470,0.98454,6.97982,1.47497
10:09:42.712243,6.99741,0.00456,-2.12401,-9.83514,0.67018,-254.05536,-0.00127,0.00221,-0.02214,-0.01616,0.98844,6.98963,1.45788
10:09:42.724819,7.00998,0.00619,-2.11816,-9.83514,0.99393,-239.74529,-0.00127,-0.00267,-0.02037,-0.01806,0.98741,7.00071,1.44811
10:09:42.734086,7.01925,0.00510,-2.11270,-9.83514,0.72268,-249.90109,0.00056,-0.00023,-0.02135,-0.01452,0.98857,7.01115,1.46032
10:09:42.744428,7.02959,0.00525,-2.10352,-9.83514,0.80143,-245.04712,-0.00387,0.00176,-0.01989,-0.01098,0.98979,7.02149,1.47985
10:09:42.755456,7.04062,0.00586,-2.09437,-9.83514,0.96768,-236.61179,-0.00310,-0.00084,-0.02031,-0.01324,0.98802,7.03223,1.44567
10:09:42.764766,7.04994,0.00482,-2.08882,-9.83514,0.71393,-246.03291,0.00117,-0.00084,-0.02086,-0.01360,0.98887,7.04232,1.47985
10:09:42.775352,7.06051,0.00507,-2.08313,-9.83514,0.66143,-247.17860,-0.00371,-0.00344,-0.02105,-0.01299,0.98948,7.05271,1.47009
10:09:42.785135,7.07030,0.00450,-2.07364,-9.83514,1.03768,-230.07170,-0.00555,-0.00084,-0.02220,-0.01244,0.98692,7.06271,1.45788
10:09:42.795479,7.08064,0.00462,-2.06396,-9.83514,1.02018,-229.07586,-0.00310,-0.00176,-0.01958,-0.01202,0.98741,7.07283,1.47497
10:09:42.807921,7.09308,0.00624,-2.05128,-9.83514,1.02893,-226.47308,-0.00203,-0.00008,-0.02141,-0.00988,0.98826,7.08412,1.47009
10:09:42.818582,7.10354,0.00634,-2.04076,-9.83514,0.97643,-226.76404,0.00362,0.00298,-0.02092,-0.01013,0.98948,7.09419,1.46520
10:09:42.828480,7.11364,0.00607,-2.02670,-9.83514,0.98518,-223.91546,-0.00570,0.00023,-0.02013,-0.00628,0.98875,7.10454,1.48718
10:09:42.837977,7.12314,0.00521,-2.01292,-9.83514,1.00268,-220.76011,0.00331,0.00038,-0.01934,-0.00659,0.98924,7.11490,1.44322
10:09:42.847694,7.13286,0.00475,-1.99888,-9.83514,0.74018,-229.03649,0.00163,-0.00069,-0.02159,-0.00268,0.98643,7.12495,1.46764
10:09:42.858123,7.14329,0.00465,-1.98790,-9.83514,0.84518,-222.78780,-0.00387,-0.00298,-0.02178,-0.00781,0.98539,7.13569,1.47009
10:09:42.868415,7.15358,0.00459,-1.97876,-9.83514,0.74893,-225.11796,0.00056,-0.00237,-0.02086,-0.00805,0.98850,7.14578,1.45788
10:09:42.878978,7.16414,0.00479,-1.96659,-9.83514,0.94143,-215.07074,-0.00035,-0.00619,-0.02312,-0.00708,0.98789,7.15633,1.47009
10:09:42.891222,7.17639,0.00668,-1.95532,-9.83676,0.85393,-216.64806,-0.00035,-0.00145,-0.01732,-0.00799,0.99058,7.16802,0.70330
10:09:42.900471,7.18562,0.00571,-1.94729,-9.84000,0.67893,-222.36954,0.00133,0.00038,-0.01708,-0.00695,0.98966,7.17681,1.20147
10:09:42.910829,7.19599,0.00571,-1.93905,-9.84324,0.59143,-224.46805,-0.00432,0.00114,-0.01842,-0.00738,0.98966,7.18808,0.89866
10:09:42.920044,7.20520,0.00457,-1.93351,-9.84649,0.55643,-224.89141,-0.00127,0.00206,-0.01305,-0.00866,0.98893,7.19741,1.92918
10:09:42.930629,7.21579,0.00459,-1.91888,-9.84811,0.67018,-217.62209,-0.00203,0.00328,-0.01635,-0.00024,0.99168,7.20797,1.71184
10:09:42.940786,7.22595,0.00460,-1.91041,-9.84973,0.32893,-230.09823,-0.00295,0.00008,-0.01543,-0.00293,0.99052,7.21834,0.66667
10:09:42.951272,7.23644,0.00459,-1.90642,-9.84973,0.21518,-234.05630,-0.00264,0.00725,-0.01848,-0.00659,0.98924,7.22865,0.35897
10:09:42.961644,7.24681,0.00460,-1.89471,-9.84973,0.46893,-221.57977,-0.00387,0.00130,-0.01647,-0.00073,0.98814,7.23921,0.25397
10:09:42.971842,7.25701,0.00461,-1.88386,-9.84973,0.32893,-225.39965,-0.00127,0.00069,-0.01800,0.00037,0.99003,7.24921,0.22466
10:09:42.984597,7.26975,0.00699,-1.87984,-9.84973,0.03143,-236.88526,0.00026,0.00145,-0.01806,-0.00396,0.98765,7.26028,0.21490
10:09:42.993076,7.27824,0.00527,-1.87694,-9.84973,0.11018,-233.14367,0.00026,0.00160,-0.02196,-0.00598,0.98649,7.26983,0.20024
10:09:43.003266,7.28843,0.00511,-1.87203,-9.84973,-0.05607,-239.09034,-0.00249,0.00145,-0.02074,-0.00177,0.99052,7.28030,0.19780
10:09:43.015733,7.30089,0.00728,-1.87215,-9.84973,-0.37982,-252.38545,0.00148,0.00298,-0.02403,-0.00342,0.99107,7.29130,0.21001
10:09:43.024055,7.30922,0.00522,-1.87202,-9.84973,-0.30982,-249.49276,-0.00402,0.00237,-0.02342,-0.00451,0.98789,7.30081,0.19536
10:09:43.033710,7.31888,0.00466,-1.87268,-9.84973,-0.35357,-251.40357,-0.00371,0.00481,-0.02117,-0.00458,0.98991,7.31127,0.19780
10:09:43.043870,7.32903,0.00463,-1.87384,-9.84973,-0.43232,-254.83651,-0.00051,0.00237,-0.02361,-0.00445,0.98728,7.32123,0.19292
10:09:43.055125,7.34002,0.00525,-1.87887,-9.84973,-0.30107,-250.34636,-0.00005,-0.00420,-0.02507,-0.01025,0.98985,7.33174,0.19536
10:09:43.064532,7.34970,0.00458,-1.88714,-9.84973,-0.46732,-258.62609,-0.00371,0.00023,-0.02708,-0.01226,0.98924,7.34190,0.19048
10:09:43.075404,7.36024,0.00475,-1.89483,-9.84973,-0.42357,-258.19358,-0.00295,0.00053,-0.02617,-0.01208,0.99155,7.35246,0.20269
10:09:43.088165,7.37332,0.00766,-1.90040,-9.84973,-0.44107,-259.89663,-0.00158,-0.00084,-0.02629,-0.00903,0.98692,7.36397,0.19536
10:09:43.096079,7.38124,0.00523,-1.91032,-9.84973,-0.37982,-259.14101,-0.00341,0.00206,-0.02251,-0.01610,0.98930,7.37282,0.19780
10:09:43.106100,7.39127,0.00490,-1.91262,-9.84973,-0.49357,-264.21228,-0.00051,0.00023,-0.02056,-0.00525,0.98765,7.38366,0.20513
10:09:43.116735,7.40190,0.00517,-1.91183,-9.84973,-0.19607,-251.87611,0.00362,0.00374,-0.01318,-0.00543,0.98698,7.39428,0.20757
10:09:43.128638,7.41321,0.00612,-1.91271,-9.84973,-0.23107,-253.46578,0.00072,0.00511,-0.01476,-0.00677,0.98789,7.40541,0.19048
10:09:43.137740,7.42290,0.00531,-1.91635,-9.84973,-0.17857,-251.95779,-0.00280,0.00359,-0.01629,-0.01092,0.99046,7.41525,0.19048
10:09:43.147508,7.43267,0.00465,-1.92120,-9.84973,-0.42357,-262.86076,-0.00158,0.00160,-0.01610,-0.00976,0.98985,7.42482,0.20024
10:09:43.161385,7.44654,0.00764,-1.92060,-9.84973,-0.44982,-263.83174,-0.00295,0.00084,-0.01818,-0.00171,0.99198,7.43750,0.20513
10:09:43.168725,7.45389,0.00463,-1.92496,-9.84973,-0.30107,-258.50440,0.00087,0.00114,-0.02062,-0.01086,0.98753,7.44624,0.19780
10:09:43.180818,7.46599,0.00555,-1.93074,-9.84973,-0.51982,-268.49642,0.00117,-0.00069,-0.01848,-0.00885,0.98527,7.45760,0.20513
10:09:43.190920,7.47608,0.00529,-1.93461,-9.84973,-0.41482,-264.87622,-0.00127,-0.00283,-0.02239,-0.00866,0.98814,7.46781,0.18803
10:09:43.200807,7.48598,0.00482,-1.93743,-9.85135,-0.36232,-263.20767,-0.00112,0.00038,-0.02141,-0.00799,0.98820,7.47836,0.18559
10:09:43.213487,7.49865,0.00713,-1.94359,-9.85459,-0.34482,-263.54843,0.00255,-0.00084,-0.02275,-0.01196,0.98887,7.48925,0.19536
10:09:43.221908,7.50707,0.00519,-1.94541,-9.85946,-0.16107,-256.29142,0.00194,0.00099,-0.01976,-0.00958,0.98814,7.49886,0.21490
10:09:43.232906,7.51805,0.00598,-1.94992,-9.86919,-0.23982,-260.22425,-0.00341,0.00069,-0.02385,-0.01171,0.98802,7.50891,0.46398
10:09:43.242266,7.52741,0.00498,-1.95091,-9.88054,-0.39732,-266.74790,-0.00051,0.00114,-0.03392,-0.00573,0.98478,7.51941,1.26984
10:09:43.252484,7.53765,0.00486,-1.93180,-9.89189,-0.11732,-251.77650,-0.00280,0.00221,-0.03581,0.01397,0.98826,7.52957,1.53114
10:09:43.263277,7.54844,0.00529,-1.96275,-9.90324,-0.07357,-255.35176,-0.00234,-0.00222,-0.02873,-0.04374,0.98832,7.54047,1.13797
10:09:43.273167,7.55834,0.00483,-1.96326,-9.90811,-0.12607,-257.54810,0.00209,0.00008,-0.01745,-0.00860,0.97899,7.55074,0.91087
10:09:43.283816,7.56898,0.00498,-1.98296,-9.90973,0.33768,-242.00559,-0.00219,-0.00115,-0.02013,-0.03605,0.98369,7.56116,1.18193
10:09:43.293916,7.57908,0.00488,-1.98543,-9.90973,0.04893,-254.28108,-0.00631,0.00038,-0.02098,-0.01330,0.98686,7.57146,1.40659
10:09:43.304765,7.58993,0.00554,-1.98281,-9.90973,-0.01232,-256.32901,0.00117,0.00008,-0.03001,-0.00683,0.99223,7.58121,1.45543
10:09:43.314788,7.59996,0.00520,-1.97761,-9.90973,-0.24857,-265.09519,-0.00005,0.00405,-0.01610,-0.00098,0.99680,7.59174,1.45788
10:09:43.324537,7.60970,0.00459,-1.97901,-9.91297,0.11893,-250.24407,-0.00112,0.00252,-0.01354,-0.01287,0.99442,7.60189,2.45910
10:09:43.335062,7.62023,0.00475,-1.97756,-9.92270,-0.03857,-256.35222,-0.00020,0.00847,-0.01476,-0.00775,0.99216,7.61244,1.34066
10:09:43.346095,7.63126,0.00543,-1.95801,-9.94216,-0.21357,-259.87860,-0.00417,0.00511,-0.02562,0.01513,0.98613,7.62272,1.38217
10:09:43.356560,7.64172,0.00567,-1.94556,-9.97135,-0.08232,-252.01464,0.00041,-0.00298,-0.02123,0.00586,0.98533,7.63390,1.47253
10:09:43.390512,7.67553,0.02886,-1.95316,-10.06378,0.09268,-245.29780,-0.00005,-0.00542,-0.01726,-0.02141,0.98704,7.66658,1.41636
10:09:43.411883,7.69705,0.00906,-1.96465,-10.17243,0.22393,-240.90594,-0.00142,-0.00313,-0.02013,-0.02812,0.99119,7.68801,1.39194
10:09:43.419855,7.70500,0.00662,-1.96458,-10.18703,0.43393,-232.14375,-0.00142,0.00008,-0.02123,-0.01360,0.98875,7.69632,1.26984
10:09:43.430492,7.71545,0.00687,-1.96338,-10.19189,0.67018,-222.19836,-0.00096,0.00298,-0.01238,-0.01580,0.99125,7.70626,1.64835
10:09:43.440369,7.72553,0.00622,-1.95508,-10.19189,0.98518,-207.81491,-0.00463,0.00817,-0.02080,-0.01135,0.99064,7.71638,1.49695
10:09:43.451581,7.73674,0.00708,-1.95603,-10.19189,1.10768,-202.95961,-0.00417,0.00603,-0.01549,-0.02464,0.98704,7.72767,1.47009
10:09:43.461425,7.74657,0.00656,-1.94864,-10.19189,1.37018,-190.88993,-0.00280,0.00511,-0.02141,-0.01623,0.98454,7.73755,1.48474
10:09:43.472229,7.75739,0.00702,-1.93494,-10.19189,1.33518,-189.90004,-0.00234,0.00252,-0.01494,-0.00976,0.98497,7.74829,1.47741
10:09:43.481424,7.76657,0.00600,-1.91518,-10.19189,0.83643,-206.85127,-0.00478,0.00176,-0.02153,0.00494,0.99046,7.75749,1.47009
10:09:43.491995,7.77645,0.00568,-1.89874,-10.19351,1.20393,-188.85832,-0.00158,-0.00527,-0.02385,-0.00421,0.99149,7.76803,1.21368
10:09:43.502525,7.78747,0.00634,-1.87879,-10.19676,1.18643,-186.01399,0.00026,-0.00512,-0.02891,0.00122,0.98911,7.77791,0.96703
10:09:43.513157,7.79831,0.00681,-1.86701,-10.21135,1.01143,-190.96266,-0.00295,-0.00390,-0.02684,-0.00750,0.98716,7.78922,1.27473
10:09:43.523478,7.80864,0.00651,-1.87343,-10.24216,0.93268,-195.03174,-0.00173,-0.00527,-0.02672,-0.02580,0.98521,7.79925,1.36752
10:09:43.533580,7.81843,0.00611,-1.87110,-10.29081,0.50393,-211.73199,-0.00524,-0.00527,-0.03288,-0.01098,0.98814,7.80913,1.46276
10:09:43.543584,7.82874,0.00606,-1.84457,-10.36054,0.51268,-206.00753,-0.00127,-0.00435,-0.03050,0.01647,0.99088,7.81965,1.41392
10:09:43.553755,7.83890,0.00587,-1.82514,-10.44486,0.47768,-203.19386,0.00362,-0.00145,-0.02879,0.00933,0.98808,7.82980,1.47985
10:09:43.564269,7.84943,0.00619,-1.80945,-10.54703,0.85393,-184.01032,-0.00081,-0.00222,-0.02330,0.00067,0.98759,7.84033,1.45299
10:09:43.574479,7.85944,0.00584,-1.79877,-10.64757,0.90643,-179.00135,-0.00539,-0.00298,-0.01592,-0.00512,0.98722,7.85056,1.43590
10:09:43.584765,7.86992,0.00587,-1.79678,-10.74649,0.88018,-178.77595,-0.00035,-0.00145,-0.01165,-0.01470,0.98924,7.86084,1.48962
10:09:43.595110,7.88027,0.00587,-1.80906,-10.83243,1.02018,-174.38425,-0.00494,-0.00435,-0.01208,-0.03337,0.98887,7.87168,1.44567
10:09:43.606020,7.89118,0.00658,-1.81874,-10.89892,0.65268,-190.52669,-0.00371,-0.00435,-0.01519,-0.02544,0.99290,7.88153,1.40904
10:09:43.617117,7.90227,0.00700,-1.80072,-10.95730,0.61768,-188.21237,0.00026,-0.00252,-0.01391,0.00561,0.98802,7.89301,1.40659
10:09:43.625840,7.91101,0.00553,-1.77373,-10.99297,0.98518,-168.02455,-0.00341,-0.00420,-0.03026,0.01360,0.98789,7.90258,1.42857
10:09:43.637484,7.92263,0.00666,-1.75455,-11.02378,1.17768,-156.44250,0.00285,-0.00038,-0.01281,0.00104,0.98918,7.91361,1.37729
10:09:43.647939,7.93310,0.00634,-1.74089,-11.05297,1.25643,-150.51606,-0.00234,-0.00130,-0.01635,-0.00488,0.98948,7.92388,1.53602
10:09:43.657986,7.94313,0.00601,-1.73371,-11.08703,1.08143,-156.09261,-0.00112,-0.00191,-0.02324,-0.00970,0.98600,7.93389,1.46520
10:09:43.669167,7.95431,0.00683,-1.73167,-11.13730,0.81018,-166.37103,0.00041,-0.00558,-0.02318,-0.01366,0.99149,7.94517,1.49695
10:09:43.679890,7.96503,0.00720,-1.73307,-11.19568,1.09893,-154.21873,-0.00035,-0.00374,-0.01714,-0.02080,0.99503,7.95601,1.41636
10:09:43.689534,7.97468,0.00651,-1.70976,-11.25243,0.74018,-164.25701,0.00346,-0.00359,-0.01159,0.01311,0.98655,7.96564,1.42857
10:09:43.699478,7.98461,0.00607,-1.68116,-11.31243,0.96768,-149.29028,-0.00035,0.00008,-0.01494,0.01684,0.98521,7.97551,1.46032
10:09:43.710515,7.99546,0.00657,-1.66212,-11.36432,0.89768,-148.29292,0.00056,0.00405,-0.01818,0.00665,0.99064,7.98590,1.51404
10:09:43.720549,8.00568,0.00642,-1.64947,-11.40324,0.81893,-148.90881,-0.00096,0.00817,-0.02306,0.00061,0.98924,7.99621,1.48718
10:09:43.731245,8.01639,0.00677,-1.63702,-11.43568,0.71393,-150.69846,-0.00219,0.00634,-0.02117,0.00116,0.99088,8.00736,1.53602
10:09:43.740775,8.02524,0.00524,-1.63473,-11.45838,0.60893,-154.38044,-0.00066,0.00298,-0.01958,-0.00781,0.98722,8.01680,1.34554
10:09:43.751766,8.03692,0.00626,-1.62800,-11.48432,0.35518,-163.34461,0.00209,-0.00222,-0.01934,-0.00061,0.98704,8.02785,1.36752
10:09:43.762627,8.04758,0.00657,-1.62531,-11.51027,-0.05607,-179.48021,-0.00035,-0.00619,-0.02562,0.00000,0.99192,8.03871,1.35775
10:09:43.772445,8.05761,0.00621,-1.59820,-11.53622,-0.35357,-186.62971,-0.00234,-0.00939,-0.03538,0.03160,0.99595,8.04847,1.38462
10:09:43.782669,8.06781,0.00605,-1.56649,-11.56703,-0.17857,-173.54643,0.00148,-0.00420,-0.03276,0.03526,0.98771,8.05872,1.38706
10:09:43.793475,8.07862,0.00660,-1.57036,-11.60595,-0.04732,-168.47695,-0.00219,-0.00328,-0.04032,-0.00665,0.99576,8.06952,1.38217
10:09:43.803698,8.08886,0.00648,-1.58644,-11.64973,-0.41482,-185.96993,0.00301,-0.00512,-0.03392,-0.01623,0.97990,8.07999,1.50916
10:09:43.814013,8.09916,0.00659,-1.59772,-11.69838,-0.54607,-192.88173,-0.00096,0.00099,-0.02824,-0.00958,0.97698,8.09028,1.43346
10:09:43.824147,8.10931,0.00643,-1.60948,-11.74703,-0.79107,-204.54009,0.00346,0.00099,-0.01958,-0.00811,0.98460,8.09992,1.46032
10:09:43.835228,8.12037,0.00714,-1.60470,-11.79568,-0.87857,-206.81459,0.00056,0.00252,-0.02159,0.01287,0.98747,8.11083,1.39927
10:09:43.844503,8.12965,0.00590,-1.59868,-11.83297,-0.96607,-208.97920,0.00133,-0.00054,-0.01537,0.01427,0.99582,8.12055,1.42125
10:09:43.855408,8.14055,0.00604,-1.60085,-11.86378,-0.94857,-208.35009,0.00240,-0.00099,-0.01293,0.00604,0.99918,8.13149,1.55556
10:09:43.865581,8.15073,0.00586,-1.60920,-11.88324,-1.12357,-216.81554,-0.00020,0.00069,-0.00909,0.00000,0.99662,8.14165,1.50427
10:09:43.877073,8.16221,0.00698,-1.63415,-11.89622,-1.77107,-247.65443,0.00133,-0.00359,-0.00793,-0.00903,0.99082,8.15319,1.69475
10:09:43.887221,8.17236,0.00678,-1.64852,-11.90595,-2.19107,-267.32464,0.00148,-0.00756,-0.00726,0.00470,0.98686,8.16332,1.32357
10:09:43.897492,8.18264,0.00659,-1.65988,-11.91243,-2.25232,-271.78434,-0.00112,-0.00878,-0.01104,0.00903,0.98326,8.17363,1.42613
10:09:43.907650,8.19211,0.00570,-1.66914,-11.91568,-1.93732,-260.47673,0.00087,-0.00832,-0.01025,0.00659,0.98399,8.18347,1.38217
10:09:43.918214,8.20336,0.00659,-1.67693,-11.91568,-1.97232,-263.29199,0.00484,0.00008,-0.01275,0.01098,0.98430,8.19444,3.01587
10:09:43.928458,8.21362,0.00665,-1.70242,-11.91568,-2.12107,-273.90091,0.00575,0.00542,-0.01068,-0.00933,0.98887,8.20469,3.07448
10:09:43.939873,8.22501,0.00777,-1.74022,-11.91568,-2.07732,-278.79869,0.00316,0.00893,-0.00695,-0.02220,0.99711,8.21597,3.10623
10:09:43.949077,8.23422,0.00606,-1.77196,-11.91568,-2.29607,-293.38522,0.00163,0.01214,-0.00488,-0.01867,0.99619,8.22509,3.10134
10:09:43.959160,8.24430,0.00633,-1.80203,-11.91568,-2.68982,-314.85156,0.00026,0.01199,-0.00805,-0.01049,0.99558,8.23509,3.09646
10:09:43.968947,8.25340,0.00523,-1.81599,-11.91568,-2.61982,-314.45199,-0.00051,0.00573,-0.00945,0.00653,0.99302,8.24498,3.09890
10:09:43.979388,8.26453,0.00600,-1.82512,-11.91568,-2.40107,-307.09936,-0.00005,0.00893,-0.01318,0.01110,0.98972,8.25551,3.10867
10:09:43.988897,8.27406,0.00517,-1.84438,-11.91568,-2.26107,-304.76852,0.00087,0.00679,-0.01507,-0.00329,0.98381,8.26567,3.11111
10:09:44.000258,8.28542,0.00617,-1.87751,-11.91568,-2.02482,-300.94685,-0.00295,0.00847,-0.02239,-0.01970,0.98247,8.27693,3.10867
10:09:44.011731,8.29689,0.00729,-1.91220,-11.91568,-1.94607,-303.85862,-0.00188,0.00909,-0.02477,-0.02379,0.98106,8.28783,3.11355
10:09:44.021464,8.30661,0.00660,-1.92994,-11.91568,-2.08607,-312.73857,0.00133,0.00664,-0.02342,-0.00604,0.98539,8.29759,3.11600
10:09:44.032050,8.31721,0.00634,-1.95854,-11.91568,-2.14732,-320.31060,-0.00326,0.00359,-0.01793,-0.01507,0.98649,8.30860,3.11355
10:09:44.042927,8.32807,0.00684,-1.98928,-11.91405,-1.98107,-318.95192,0.00010,0.00664,-0.01982,-0.02172,0.99436,8.31898,1.92430
10:09:44.052516,8.33767,0.00590,-2.00969,-11.89946,-1.83232,-316.60567,0.00346,0.01015,-0.01568,-0.01372,0.99692,8.32856,1.42369
10:09:44.063041,8.34734,0.00521,-2.03494,-11.86054,-1.56982,-310.68556,-0.00219,0.00695,-0.01732,-0.02074,0.99338,8.33912,1.55556
10:09:44.073082,8.35823,0.00591,-2.06375,-11.79243,-1.53482,-315.00358,-0.00158,0.00847,-0.02836,-0.02653,0.98820,8.34914,1.45055
10:09:44.083755,8.36891,0.00623,-2.09601,-11.69838,-1.27232,-310.85495,-0.00219,0.01031,-0.02513,-0.03312,0.98484,8.35968,1.50183
10:09:44.094587,8.37955,0.00650,-2.11588,-11.59135,-1.65732,-331.18404,-0.00203,0.00527,-0.02593,-0.01562,0.98375,8.36982,1.47009
10:09:44.105216,8.39014,0.00673,-2.12665,-11.46486,-1.34232,-321.39024,-0.00020,0.00450,-0.02409,-0.00732,0.97917,8.38114,1.44078
10:09:44.116044,8.40119,0.00707,-2.13784,-11.34486,-1.28982,-322.36896,-0.00066,0.00160,-0.02745,-0.00970,0.98216,8.39174,1.43346
10:09:44.125240,8.40969,0.00520,-2.14090,-11.24270,-0.62482,-296.62687,0.00194,0.00389,-0.02623,-0.00939,0.99040,8.40126,1.45055
10:09:44.136625,8.42149,0.00664,-2.15623,-11.13081,-1.18482,-323.37377,-0.00112,0.00191,-0.01982,-0.01531,0.99040,8.41242,1.42857
10:09:44.146653,8.43179,0.00663,-2.17322,-11.03351,-0.64232,-305.07372,0.00026,0.00450,-0.01861,-0.02507,0.99393,8.42276,1.45299
10:09:44.156555,8.44093,0.00541,-2.19229,-10.93784,-0.74732,-313.67190,-0.00295,0.01061,-0.01568,-0.02702,0.99332,8.43250,1.47253
10:09:44.168132,8.45248,0.00601,-2.20637,-10.83081,-0.79982,-319.34452,-0.00371,0.01138,-0.01476,-0.01976,0.99174,8.44357,1.46764
10:09:44.177533,8.46269,0.00602,-2.21347,-10.73027,-0.72107,-318.33660,-0.00341,0.00939,-0.01098,-0.01379,0.99125,8.45358,1.42613
10:09:44.187930,8.47309,0.00607,-2.21003,-10.61676,-0.39732,-305.54511,-0.00326,0.00771,-0.01641,-0.00525,0.98826,8.46401,1.49206
10:09:44.198111,8.48326,0.00587,-2.21604,-10.49676,-0.27482,-302.73852,-0.00509,0.00893,-0.01269,-0.01751,0.98765,8.47436,1.45055
10:09:44.208159,8.49332,0.00543,-2.22034,-10.35892,-0.16982,-300.51663,-0.00158,0.01260,-0.01391,-0.01684,0.98570,8.48470,1.48230
10:09:44.219383,8.50453,0.00614,-2.21842,-10.20000,-0.06482,-297.39749,0.00056,0.00557,-0.00592,-0.01098,0.98619,8.49550,1.45543
10:09:44.229461,8.51461,0.00600,-2.23216,-10.03622,-0.27482,-310.01179,-0.00356,0.00328,-0.01159,-0.02666,0.98832,8.50553,1.47253
10:09:44.239794,8.52424,0.00542,-2.24346,-9.85459,-0.03857,-304.07034,-0.00371,0.00542,-0.01068,-0.02678,0.98887,8.51587,1.44567
10:09:44.250903,8.53606,0.00687,-2.24293,-9.65514,0.20643,-295.84501,-0.00402,0.00649,-0.01116,-0.01647,0.99412,8.52695,1.44322
10:09:44.260994,8.54614,0.00660,-2.24084,-9.46865,0.39018,-289.73289,-0.00188,0.00649,-0.01800,-0.01653,0.99686,8.53688,1.43834
10:09:44.270709,8.55586,0.00608,-2.24437,-9.27892,0.34643,-293.97193,-0.00432,0.00954,-0.01964,-0.02239,0.99271,8.54676,1.46276
10:09:44.281420,8.56657,0.00655,-2.23957,-9.08757,0.49518,-288.86031,-0.00432,0.01199,-0.01806,-0.01494,0.98747,8.55757,1.47253
10:09:44.291878,8.57701,0.00546,-2.23194,-8.88649,0.62643,-284.05959,-0.00402,0.01107,-0.01177,-0.01287,0.98314,8.56797,1.44811
10:09:44.302954,8.58810,0.00688,-2.23754,-8.69189,0.63518,-286.56069,-0.00341,0.01168,-0.02050,-0.02849,0.98338,8.57906,1.45299
10:09:44.313407,8.59857,0.00655,-2.22827,-8.50703,0.77518,-280.95313,-0.00799,0.00954,-0.01873,-0.01281,0.98716,8.58954,1.46276
10:09:44.323886,8.60905,0.00667,-2.21750,-8.32378,0.67893,-284.75343,-0.00432,0.01245,-0.02452,-0.00933,0.99131,8.59935,1.47009
10:09:44.333844,8.61821,0.00557,-2.20509,-8.13405,0.82768,-278.27921,-0.00341,0.00939,-0.02172,-0.00952,0.99162,8.60981,1.46032
10:09:44.344628,8.62977,0.00659,-2.20563,-7.93784,0.71393,-284.92251,-0.00096,0.00695,-0.02855,-0.02281,0.98875,8.62025,1.45299
10:09:44.354244,8.63939,0.00585,-2.19891,-7.74811,0.62643,-289.14087,-0.00249,0.00847,-0.01824,-0.01324,0.98454,8.63051,1.44567
10:09:44.365329,8.65048,0.00648,-2.18702,-7.55514,0.46893,-295.34683,0.00041,0.00664,-0.02501,-0.00543,0.98936,8.64079,1.43590
10:09:44.375719,8.66088,0.00617,-2.17594,-7.36054,0.46018,-295.61275,-0.00417,0.01061,-0.02599,-0.00647,0.99296,8.65182,1.45055
10:09:44.387227,8.67152,0.00644,-2.17219,-7.18054,0.18893,-307.79916,-0.00677,0.00847,-0.03135,-0.01135,0.98844,8.66311,1.47253
10:09:44.396369,8.68153,0.00610,-2.16582,-7.00703,0.32893,-302.59617,-0.00616,0.00817,-0.02989,-0.00958,0.98972,8.67311,1.46276
10:09:44.407645,8.69280,0.00716,-2.15965,-6.85784,0.01393,-315.85156,-0.00417,0.00618,-0.03038,-0.00610,0.98405,8.68307,1.43834
10:09:44.417171,8.70233,0.00632,-2.15468,-6.71189,0.12768,-311.70997,-0.00539,0.00924,-0.02220,-0.00866,0.98924,8.69281,1.45788
10:09:44.427297,8.71244,0.00606,-2.16053,-6.56757,-0.46732,-338.52523,0.00010,0.01183,-0.02367,-0.01403,0.98930,8.70336,1.44567
10:09:44.437843,8.72301,0.00642,-2.16013,-6.43784,-0.37107,-335.75351,0.00270,0.00832,-0.02727,-0.00823,0.98631,8.71350,1.46520
10:09:44.448997,8.73416,0.00721,-2.15149,-6.31135,-0.58982,-344.40788,-0.00142,0.01000,-0.02397,0.00421,0.99021,8.72433,1.45543
10:09:44.458236,8.74340,0.00609,-2.15133,-6.19297,-0.63357,-347.30927,-0.00173,0.00802,-0.01995,-0.00482,0.98637,8.73521,1.47253
10:09:44.469169,8.75363,0.00575,-2.15838,-6.08595,-0.80857,-356.76003,0.00285,0.00603,-0.02538,-0.01183,0.98881,8.74515,1.49206
10:09:44.478256,8.76342,0.00518,-2.16771,-5.98378,-0.89607,-362.97873,-0.00494,0.00252,-0.01818,-0.01348,0.99131,8.75522,1.46276
10:09:44.489151,8.77431,0.00587,-2.17092,-5.89135,-1.24607,-378.78425,-0.00203,0.00359,-0.01952,-0.00140,0.99088,8.76613,1.45055
10:09:44.500660,8.78581,0.00701,-2.18022,-5.80054,-1.39482,-387.40171,-0.00127,0.00374,-0.01842,-0.00793,0.98832,8.77621,1.43834
10:09:44.511055,8.79619,0.00703,-2.20041,-5.71784,-1.34232,-389.61701,0.00056,0.00710,-0.02708,-0.01995,0.98692,8.78711,1.49451
10:09:44.520975,8.80612,0.00660,-2.20305,-5.64000,-1.84982,-411.63762,-0.00081,0.00496,-0.02178,0.00299,0.99046,8.79650,1.47009
10:09:44.534763,8.81991,0.01015,-2.21944,-5.56865,-1.78857,-412.71409,-0.00035,0.00588,-0.02660,-0.00378,0.98838,8.81072,1.47497
10:09:44.562697,8.84782,0.01195,-2.28499,-5.45027,-2.39232,-450.20649,-0.00081,0.00420,-0.02989,-0.01427,0.98796,8.83843,1.43101
10:09:44.590242,8.87539,0.01456,-2.36537,-5.42595,-2.85607,-483.68044,0.00285,0.00160,-0.03453,-0.01708,0.98789,8.86640,0.41270
10:09:44.617463,8.90262,0.01386,-2.45170,-5.42595,-2.73357,-493.93773,0.00072,-0.00084,-0.03062,-0.03288,0.98326,8.89313,0.20757
10:09:44.649051,8.93421,0.01399,-2.55178,-5.42595,-2.74232,-512.01159,0.00606,-0.00267,-0.02586,-0.03251,0.99143,8.92555,0.19536
10:09:44.679052,8.96334,0.01222,-2.61886,-5.42595,-2.35732,-508.09936,-0.00035,-0.00313,-0.01275,-0.01989,0.98759,8.95438,0.19780
10:09:44.708184,8.99334,0.01484,-2.67635,-5.42595,-1.82357,-496.39131,0.00133,-0.00619,-0.00988,-0.02586,0.98911,8.98399,0.19292
10:09:44.728957,9.01410,0.00757,-2.71752,-5.42595,-1.55232,-492.55777,0.00224,-0.00099,-0.01122,-0.03221,0.98771,9.00504,0.19048
10:09:44.737872,9.02302,0.00597,-2.73530,-5.42595,-1.16732,-479.91964,-0.00005,-0.00313,-0.00811,-0.03099,0.98753,9.01414,0.20024
10:09:44.748723,9.03388,0.00610,-2.74517,-5.42595,-0.88732,-470.18587,0.00255,-0.00237,-0.01055,-0.02312,0.99064,9.02526,0.19780
10:09:44.760103,9.04526,0.00648,-2.76137,-5.42595,-0.65982,-463.72539,0.00026,-0.00023,-0.01238,-0.03367,0.99259,9.03620,0.19292
10:09:44.770156,9.05530,0.00616,-2.77423,-5.42595,-0.42357,-456.31596,-0.00432,0.00084,-0.01586,-0.03349,0.98850,9.04592,0.19536
10:09:44.780447,9.06561,0.00610,-2.78221,-5.42595,-0.19607,-448.40069,-0.00173,0.00282,-0.01476,-0.03050,0.99149,9.05646,0.20024
10:09:44.791155,9.07630,0.00643,-2.78378,-5.42595,-0.07357,-443.65656,0.00240,0.00267,-0.01635,-0.02464,0.98789,9.06672,0.18803
10:09:44.800879,9.08603,0.00598,-2.78695,-5.42595,0.08393,-437.75973,0.00056,0.00649,-0.01360,-0.02836,0.98930,9.07686,0.18803
10:09:44.811558,9.09670,0.00645,-2.78608,-5.42595,0.39893,-424.69065,-0.00112,0.00847,-0.01623,-0.02763,0.98838,9.08760,0.18803
10:09:44.820897,9.10606,0.00545,-2.78768,-5.42595,0.43393,-423.53851,-0.00096,0.00573,-0.01848,-0.03038,0.98698,9.09739,0.19780
10:09:44.832107,9.11727,0.00629,-2.78556,-5.42595,0.80143,-408.09708,-0.00005,0.00511,-0.02342,-0.03093,0.98741,9.10796,0.20024
10:09:44.843134,9.12700,0.00567,-2.78320,-5.42595,0.67893,-412.70095,-0.00081,0.00450,-0.02227,-0.02940,0.98911,9.11880,0.19536
10:09:44.852374,9.13753,0.00544,-2.77895,-5.42595,1.08143,-395.44682,-0.00234,0.00145,-0.02379,-0.03141,0.98552,9.12915,0.19780
10:09:44.863753,9.14891,0.00661,-2.77295,-5.42595,1.21268,-389.00276,-0.00249,-0.00008,-0.02629,-0.03135,0.98576,9.13985,0.19780
10:09:44.872618,9.15778,0.00528,-2.76582,-5.42595,1.30018,-384.15318,-0.00356,0.00053,-0.02885,-0.02934,0.98643,9.14940,0.19536
10:09:44.884478,9.16936,0.00667,-2.75370,-5.42595,1.46643,-375.19238,-0.00203,0.00191,-0.02684,-0.02672,0.98643,9.15981,0.19780
10:09:44.894190,9.17935,0.00629,-2.74172,-5.42595,1.64143,-365.89649,0.00148,0.00114,-0.02739,-0.02806,0.98814,9.16984,0.20024
10:09:44.904745,9.18989,0.00588,-2.73452,-5.42595,1.65018,-364.26401,-0.00020,0.00069,-0.02629,-0.03526,0.98832,9.18082,0.20757
10:09:44.915319,9.20046,0.00626,-2.72468,-5.42595,1.57143,-365.74995,-0.00219,-0.00130,-0.02641,-0.03044,0.98899,9.19142,0.19292
10:09:44.924422,9.20959,0.00521,-2.70729,-5.42595,1.61518,-360.87884,-0.00371,-0.00267,-0.02611,-0.02062,0.99052,9.20119,0.19536
10:09:44.935629,9.22079,0.00605,-2.68469,-5.42595,1.72893,-352.21445,-0.00005,-0.00405,-0.02635,-0.01696,0.98478,9.21171,0.20513
10:09:44.946652,9.23179,0.00609,-2.66461,-5.42595,1.71143,-349.37784,-0.00035,-0.00527,-0.02470,-0.02025,0.98478,9.22276,0.20513
10:09:44.956904,9.24207,0.00554,-2.64545,-5.42595,1.84268,-340.60533,-0.00295,-0.00527,-0.02263,-0.02190,0.98875,9.23343,0.19780
10:09:44.968642,9.25379,0.00691,-2.62658,-5.42595,1.93893,-333.31902,-0.00402,-0.00298,-0.02342,-0.02397,0.98905,9.24450,0.19536
10:09:44.978027,9.26318,0.00593,-2.61186,-5.42595,1.93018,-331.07279,-0.00020,-0.00512,-0.02422,-0.02538,0.99064,9.25422,0.19780
10:09:44.988614,9.27376,0.00600,-2.59555,-5.42595,1.86893,-330.69656,-0.00234,-0.00344,-0.02263,-0.02391,0.99137,9.26454,0.19292
10:09:44.999035,9.28418,0.00606,-2.57203,-5.42595,2.01768,-320.43481,-0.00295,-0.00054,-0.02330,-0.01763,0.99064,9.27511,0.20024
10:09:45.009287,9.29444,0.00613,-2.54887,-5.42595,1.68518,-329.96782,-0.00188,-0.00099,-0.02098,-0.01251,0.98741,9.28512,0.19292
10:09:45.021081,9.30597,0.00730,-2.51576,-5.42595,2.03518,-309.75742,-0.00234,-0.00054,-0.02239,-0.00750,0.98716,9.29636,0.20024
10:09:45.029040,9.31420,0.00518,-2.49638,-5.43243,1.88643,-312.36432,-0.00280,-0.00267,-0.02220,-0.01696,0.98747,9.30580,0.19780
10:09:45.040253,9.32542,0.00617,-2.47104,-5.45189,1.98268,-303.74661,-0.00051,-0.00527,-0.02458,-0.01476,0.98411,9.31703,0.19536
10:09:45.050505,9.33546,0.00586,-2.45033,-5.47946,1.86018,-304.83876,0.00133,-0.00451,-0.01824,-0.01458,0.98692,9.32657,0.19536
10:09:45.060878,9.34604,0.00574,-2.43127,-5.51676,1.66768,-308.99966,-0.00127,-0.00130,-0.01647,-0.01708,0.98881,9.33770,0.35897
10:09:45.071635,9.35680,0.00613,-2.41591,-5.55405,1.51893,-312.02088,-0.00219,-0.00222,-0.01177,-0.01714,0.99253,9.34764,1.00122
10:09:45.082987,9.36814,0.00678,-2.39231,-5.58973,1.71143,-299.60947,-0.00631,-0.00191,-0.01086,-0.01232,0.99271,9.35900,1.34310
10:09:45.092623,9.37777,0.00590,-2.37566,-5.61892,1.46643,-306.42613,0.00010,0.00099,-0.01000,-0.01391,0.99168,9.36867,1.37485
10:09:45.103969,9.38843,0.00620,-2.36003,-5.64162,1.53643,-300.57196,-0.00234,-0.00160,-0.00976,-0.01854,0.98808,9.38007,1.30159
10:09:45.113774,9.39892,0.00626,-2.34558,-5.65622,1.23893,-310.07250,-0.00081,0.00023,-0.00823,-0.01348,0.98704,9.38984,1.64591
10:09:45.124261,9.40942,0.00593,-2.33051,-5.66432,0.89768,-321.31822,-0.00356,-0.00054,-0.01275,-0.00964,0.99076,9.40045,1.54823
10:09:45.135478,9.42063,0.00678,-2.30663,-5.66919,1.46643,-293.72564,-0.00356,-0.00344,-0.01183,-0.00653,0.99149,9.41133,1.89255
10:09:45.145312,9.43045,0.00595,-2.28682,-5.66919,1.31768,-296.31746,-0.00524,-0.00527,-0.01330,-0.00775,0.99088,9.42140,3.04518
10:09:45.156539,9.44170,0.00683,-2.26886,-5.66919,1.17768,-298.87980,-0.00219,-0.00038,-0.01854,-0.00982,0.98875,9.43288,3.09158
10:09:45.167825,9.45298,0.00776,-2.25424,-5.66919,1.14268,-297.72550,-0.00142,-0.00054,-0.02141,-0.01196,0.99125,9.44363,3.08425
10:09:45.176999,9.46163,0.00604,-2.24296,-5.66919,1.06393,-298.95943,-0.00326,0.00084,-0.02312,-0.01238,0.98911,9.45255,3.10623
10:09:45.185969,9.47114,0.00519,-2.23062,-5.66919,0.98518,-300.00259,-0.00035,0.00374,-0.02385,-0.01177,0.98924,9.46292,3.10134
10:09:45.197504,9.48264,0.00637,-2.21614,-5.66919,1.11643,-292.05832,-0.00005,0.00176,-0.02611,-0.01104,0.98716,9.47363,3.11600
10:09:45.207743,9.49291,0.00628,-2.20110,-5.66919,0.81018,-301.95378,0.00117,0.00618,-0.02489,-0.00579,0.98832,9.48361,3.12576
10:09:45.217616,9.50278,0.00579,-2.18376,-5.66919,0.70518,-303.18901,-0.00096,0.00313,-0.02647,-0.00250,0.98777,9.49460,3.10379
10:09:45.228237,9.51340,0.00621,-2.17355,-5.66919,0.58268,-306.40454,0.00010,0.00466,-0.02824,-0.00805,0.99125,9.50430,3.11355
10:09:45.238512,9.52347,0.00593,-2.16803,-5.66919,0.43393,-311.52539,-0.00158,-0.00084,-0.02544,-0.01189,0.98814,9.51459,3.09646
10:09:45.249494,9.53416,0.00616,-2.16396,-5.66919,0.32018,-315.46949,-0.00219,-0.00084,-0.02464,-0.01214,0.98936,9.52479,3.11355
10:09:45.260622,9.54576,0.00740,-2.15827,-5.66919,0.39893,-311.23296,-0.00081,0.00160,-0.02409,-0.01177,0.98924,9.53649,3.12332
10:09:45.269395,9.55456,0.00584,-2.15489,-5.66919,0.23268,-317.45118,-0.00142,-0.00099,-0.02513,-0.01165,0.98844,9.54637,3.11355
10:09:45.281866,9.56648,0.00667,-2.15369,-5.66919,0.18018,-319.39095,-0.00234,-0.00038,-0.02117,-0.01360,0.98844,9.55670,3.11844
10:09:45.291059,9.57621,0.00604,-2.15235,-5.66919,0.13643,-320.94804,0.00270,0.00053,-0.02105,-0.01293,0.98814,9.56718,3.12576
10:09:45.301122,9.58627,0.00591,-2.14758,-5.66919,0.19768,-317.59194,-0.00020,-0.00054,-0.02062,-0.00958,0.98796,9.57718,3.11111
10:09:45.311812,9.59698,0.00625,-2.14328,-5.66919,0.36393,-310.01460,0.00163,-0.00084,-0.01696,-0.01214,0.98832,9.58770,3.12088
10:09:45.321794,9.60695,0.00586,-2.14623,-5.66919,0.12768,-320.22299,0.00056,-0.00237,-0.01824,-0.01757,0.99015,9.59786,3.13309
10:09:45.331968,9.61713,0.00568,-2.14544,-5.66919,0.03143,-324.03074,-0.00081,0.00237,-0.01549,-0.01220,0.98808,9.60846,3.12332
10:09:45.343573,9.62873,0.00658,-2.14504,-5.66919,-0.08232,-328.62281,-0.00066,-0.00222,-0.01696,-0.01122,0.99064,9.61971,3.12576
10:09:45.353604,9.63875,0.00640,-2.14406,-5.66919,-0.01232,-325.58012,0.00102,-0.00237,-0.01610,-0.01147,0.99015,9.62947,3.11355
10:09:45.363710,9.64887,0.00590,-2.14111,-5.66919,0.16268,-317.88238,0.00133,-0.00420,-0.01818,-0.01128,0.98558,9.64047,3.11355
10:09:45.375202,9.66035,0.00701,-2.14050,-5.66919,0.05768,-322.07981,-0.00158,-0.00267,-0.01751,-0.01263,0.98674,9.65132,3.12332
10:09:45.384593,9.66975,0.00590,-2.13913,-5.66919,0.22393,-315.01995,0.00072,-0.00496,-0.02111,-0.01342,0.98930,9.66065,3.12576
10:09:45.395096,9.68024,0.00604,-2.13689,-5.66919,0.22393,-314.62437,0.00178,0.00176,-0.01818,-0.01275,0.99149,9.67120,3.11355
10:09:45.406790,9.69193,0.00753,-2.13712,-5.66919,0.03143,-322.55792,0.00209,0.00008,-0.01873,-0.01324,0.98875,9.68244,3.12088
10:09:45.415906,9.70107,0.00631,-2.13591,-5.66919,-0.20482,-332.02949,0.00316,0.00069,-0.01629,-0.00897,0.98911,9.69199,3.10379
10:09:45.425667,9.71083,0.00571,-2.13152,-5.66919,0.16268,-316.18464,-0.00081,0.00084,-0.02190,-0.00945,0.98820,9.70263,3.12332
10:09:45.435908,9.72107,0.00519,-2.13063,-5.66919,-0.12607,-327.86678,0.00163,0.00374,-0.02080,-0.01006,0.99284,9.71268,3.12576
10:09:45.447982,9.73314,0.00632,-2.13022,-5.66919,0.03143,-321.33531,-0.00051,-0.00099,-0.02135,-0.01238,0.98881,9.72394,3.11844
10:09:45.459174,9.74340,0.00621,-2.12901,-5.66919,0.09268,-318.61075,0.00072,0.00008,-0.01665,-0.01214,0.98869,9.73415,3.12576
10:09:45.468204,9.75335,0.00595,-2.13144,-5.66919,-0.15232,-329.08560,-0.00295,0.00099,-0.02123,-0.01342,0.98802,9.74458,3.11844
10:09:45.479657,9.76482,0.00705,-2.13310,-5.66919,-0.15232,-329.37954,0.00178,-0.00084,-0.01708,-0.01251,0.98814,9.75544,3.13065
10:09:45.488796,9.77395,0.00593,-2.13109,-5.66919,-0.07357,-325.79427,-0.00051,0.00099,-0.01714,-0.00939,0.98765,9.76483,3.12576
10:09:45.499195,9.78432,0.00605,-2.13416,-5.66919,-0.25732,-333.87208,-0.00310,-0.00084,-0.01879,-0.01299,0.99186,9.77531,3.12088
10:09:45.509343,9.79450,0.00586,-2.13475,-5.66919,-0.08232,-326.80098,0.00087,0.00008,-0.02080,-0.01226,0.98918,9.78541,3.12088
10:09:45.519875,9.80504,0.00604,-2.13732,-5.66919,-0.06482,-326.53960,-0.00081,-0.00160,-0.02129,-0.01470,0.98735,9.79598,3.13309
10:09:45.530987,9.81613,0.00677,-2.13862,-5.66919,-0.11732,-328.92114,-0.00188,0.00114,-0.02172,-0.01257,0.98704,9.80711,3.13309
10:09:45.540906,9.82605,0.00591,-2.14116,-5.66919,-0.12607,-329.73081,0.00056,-0.00084,-0.02062,-0.01409,0.98655,9.81698,3.11844
10:09:45.551475,9.83663,0.00627,-2.14516,-5.66919,-0.02107,-326.13334,0.00010,-0.00084,-0.01995,-0.01696,0.98686,9.82758,3.12088
10:09:45.562093,9.84724,0.00650,-2.14468,-5.66919,-0.00357,-325.33045,-0.00356,-0.00099,-0.02208,-0.01208,0.98582,9.83840,3.11111
10:09:45.572411,9.85756,0.00662,-2.14516,-5.66919,-0.29232,-337.25431,-0.00020,-0.00099,-0.02245,-0.01006,0.99003,9.84833,3.10379
10:09:45.581993,9.86714,0.00584,-2.14261,-5.66919,-0.08232,-328.19324,0.00178,-0.00008,-0.02477,-0.00885,0.98777,9.85827,3.11355
10:09:45.592559,9.87771,0.00589,-2.14131,-5.66919,-0.01232,-325.09225,0.00056,-0.00176,-0.02379,-0.01104,0.99040,9.86862,3.12576
